id,t,px,py,pz,vx,vy,vz,ax,ay,az,planning_time,qp_cost,planning_report,size,id,t,px,py,pz,vx,vy,vz,ax,ay,az,planning_time,qp_cost,planning_report,size,id,t,px,py,pz,vx,vy,vz,ax,ay,az,planning_time,qp_cost,planning_report,size,id,t,px,py,pz,vx,vy,vz,ax,ay,az,planning_time,qp_cost,planning_report,size,id,t,px,py,pz,vx,vy,vz,ax,ay,az,planning_time,qp_cost,planning_report,size,id,t,px,py,pz,vx,vy,vz,ax,ay,az,planning_time,qp_cost,planning_report,size,id,t,px,py,pz,vx,vy,vz,ax,ay,az,planning_time,qp_cost,planning_report,size,id,t,px,py,pz,vx,vy,vz,ax,ay,az,planning_time,qp_cost,planning_report,size,id,t,px,py,pz,vx,vy,vz,ax,ay,az,planning_time,qp_cost,planning_report,size,id,t,px,py,pz,vx,vy,vz,ax,ay,az,planning_time,qp_cost,planning_report,size
0,0,1.4457,1.70696,0.576876,0,0,0,0,0,0,0.0309485,0.328194,5,0.1,1,0,-1.36373,-0.261318,0.658345,0,0,0,0,0,0,0.0391578,3.5122,5,0.1,2,0,3.93212,-5.01888,0.567479,0,0,0,0,0,0,0.0275582,0.922027,5,0.1,3,0,0.239586,3.28219,0.635776,0,0,0,0,0,0,0.0129612,3.51219,5,0.1,4,0,-4.46619,2.5814,0.627984,0,0,0,0,0,0,0.00722245,1.26282,5,0.1,5,0,1.31152,-3.24884,0.623387,0,0,0,0,0,0,0.0125949,1.02519,5,0.1,6,0,-1.32808,5.19185,0.68052,0,0,0,0,0,0,0.0447683,3.44783,5,0.1,7,0,2.1273,-0.585585,0.571902,0,0,0,0,0,0,0.00742734,3.01255,5,0.1,8,0,-1.65962,-4.34156,0.650137,0,0,0,0,0,0,0.0129053,3.51219,5,0.1,9,0,5.79501,1.79137,0.61637,0,0,0,0,0,0,0.00595159,1.97019,5,0.1
0,0.1,1.44632,1.70709,0.576862,0.017748,0.00361782,-0.000398234,0.315532,0.0643209,-0.00707805,0.0309485,0.328194,5,0.1,1,0.1,-1.36229,-0.26283,0.658321,0.0408618,-0.0429254,-0.000688341,0.726424,-0.763116,-0.0122376,0.0391578,3.5122,5,0.1,2,0.1,3.93178,-5.01787,0.567513,-0.00984222,0.0287116,0.000963733,-0.174969,0.510454,0.0171363,0.0275582,0.922027,5,0.1,3,0.1,0.239529,3.2801,0.635753,-0.00161706,-0.0592429,-0.000645872,-0.0287462,-1.05323,-0.0114776,0.0129612,3.51219,5,0.1,4,0.1,-4.46499,2.58106,0.627969,0.0341691,-0.00976361,-0.00044303,0.607461,-0.173584,-0.00787154,0.00722245,1.26282,5,0.1,5,0.1,1.31109,-3.2478,0.623362,-0.0121951,0.0296,-0.000693183,-0.216797,0.526235,-0.0123195,0.0125949,1.02519,5,0.1,6,0.1,-1.32685,5.19019,0.680592,0.0349114,-0.0471741,0.00205906,0.620656,-0.838637,0.0366084,0.0447683,3.44783,5,0.1,7,0.1,2.12711,-0.586565,0.571931,-0.00525489,-0.0278029,0.000832789,-0.0934005,-0.494268,0.0148043,0.00742734,3.01255,5,0.1,8,0.1,-1.65933,-4.33949,0.650091,0.00810772,0.0586979,-0.0013127,0.144139,1.04347,-0.0233389,0.0129053,3.51219,5,0.1,9,0.1,5.79379,1.79038,0.616382,-0.0344157,-0.0280347,0.000338256,-0.611842,-0.498399,0.00601262,0.00595159,1.97019,5,0.1
0,0.2,1.44993,1.70782,0.576781,0.056091,0.0114352,-0.00125915,0.420749,0.0857711,-0.00941753,0.00696796,0.269265,5,0.1,1,0.2,-1.35399,-0.27155,0.658181,0.129142,-0.135665,-0.00217557,0.968575,-1.0175,-0.0163317,0.024769,2.92579,5,0.1,2,0.2,3.92978,-5.01203,0.567709,-0.0311077,0.0907421,0.0030458,-0.233293,0.680685,0.0228286,0.0274795,0.756472,5,0.1,3,0.2,0.239201,3.26807,0.635622,-0.00511073,-0.187236,-0.00204146,-0.0383258,-1.40429,-0.0152886,0.0111962,2.92579,5,0.1,4,0.2,-4.45805,2.57908,0.627879,0.10798,-0.0308573,-0.00140071,0.810146,-0.231504,-0.0104606,0.00868359,1.09261,5,0.1,5,0.2,1.30861,-3.24178,0.623222,-0.0385433,0.0935495,-0.00219047,-0.289083,0.701666,-0.0164509,0.00979104,0.841113,5,0.1,6,0.2,-1.31976,5.18061,0.68101,0.110337,-0.149095,0.00650734,0.827491,-1.11794,0.0487864,0.0430011,2.82879,5,0.1,7,0.2,2.12604,-0.592212,0.5721,-0.0166059,-0.0878707,0.00263155,-0.124454,-0.659019,0.0197291,0.00747943,2.92839,5,0.1,8,0.2,-1.65769,-4.32757,0.649824,0.025624,0.185513,-0.00414997,0.192165,1.39117,-0.0310838,0.0118663,2.92581,5,0.1,9,0.2,5.7868,1.78468,0.616451,-0.108778,-0.0886023,0.00106841,-0.81563,-0.664532,0.00801682,0.00597079,1.61645,5,0.1
0,0.3,1.45787,1.70944,0.576603,0.104354,0.0212735,-0.00234013,0.514828,0.104956,-0.0115372,0.00696796,0.269265,5,0.1,1,0.3,-1.33569,-0.290775,0.657873,0.240538,-0.252687,-0.0040534,1.19035,-1.25047,-0.0200607,0.024769,2.92579,5,0.1,2,0.3,3.92537,-4.99918,0.56814,-0.0578687,0.16882,0.00566505,-0.285476,0.832856,0.0279471,0.0274795,0.756472,5,0.1,3,0.3,0.238477,3.24154,0.635333,-0.00951865,-0.34874,-0.00380035,-0.0471035,-1.72581,-0.0187978,0.0111962,2.92579,5,0.1,4,0.3,-4.44348,2.5747,0.62768,0.180096,-0.0574104,-0.00260212,0.622064,-0.283241,-0.0128224,0.00868359,1.09261,5,0.1,5,0.3,1.30315,-3.22853,0.622911,-0.0717036,0.174036,-0.00407677,-0.353739,0.85859,-0.0201166,0.00979104,0.841113,5,0.1,6,0.3,-1.30413,5.15949,0.681932,0.205261,-0.277343,0.0121043,1.0126,-1.36817,0.0597052,0.0430011,2.82879,5,0.1,7,0.3,2.12369,-0.603838,0.572473,-0.0308856,-0.14027,0.00489494,-0.152349,-0.395831,0.0241511,0.00747943,2.92839,5,0.1,8,0.3,-1.65406,-4.30128,0.649236,0.0477251,0.345517,-0.00772607,0.236183,1.70985,-0.0382215,0.0118663,2.92581,5,0.1,9,0.3,5.7714,1.77214,0.616602,-0.202345,-0.164831,0.00198809,-0.998169,-0.813164,0.00980869,0.00597079,1.61645,5,0.1
0,0.4,1.47083,1.71209,0.576313,0.153899,0.0313729,-0.00345111,0.454187,0.0926256,-0.0101626,0.00839342,0.213045,5,0.1,1,0.4,-1.30579,-0.32219,0.657369,0.355226,-0.373166,-0.0059858,1.05244,-1.10567,-0.0177324,0.0255356,2.51008,5,0.1,2,0.4,3.91818,-4.97821,0.568844,-0.0853419,0.248969,0.00835508,-0.251889,0.734806,0.0246465,0.0227977,0.598526,5,0.1,3,0.4,0.237293,3.19818,0.63486,-0.014057,-0.51502,-0.00561327,-0.0416487,-1.526,-0.0165999,0.0134159,2.51557,5,0.1,4,0.4,-4.42274,2.56757,0.627357,0.230801,-0.0846744,-0.00383705,0.386238,-0.249743,-0.0113249,0.00568607,1.02305,5,0.1,5,0.4,1.29425,-3.20691,0.622405,-0.105745,0.256664,-0.00601262,-0.31209,0.757456,-0.0177324,0.00849339,0.665497,5,0.1,6,0.4,-1.27863,5.12504,0.683436,0.302714,-0.409019,0.0178516,0.893354,-1.20687,0.0526607,0.04985,2.23819,5,0.1,7,0.4,2.11986,-0.619457,0.573081,-0.0455439,-0.168394,0.00721812,-0.134587,-0.17339,0.0213385,0.00605226,2.86519,5,0.1,8,0.4,-1.64812,-4.25833,0.648276,0.0704795,0.510252,-0.0114098,0.208855,1.51181,-0.0337958,0.0116432,2.51375,5,0.1,9,0.4,5.74626,1.75166,0.616849,-0.298417,-0.243089,0.00293255,-0.88048,-0.717461,0.00864267,0.00778679,1.27896,5,0.1
0,0.5,1.48854,1.71569,0.575916,0.19998,0.0407699,-0.00448283,0.444837,0.0907034,-0.00996888,0.00839342,0.213045,5,0.1,1,0.5,-1.26486,-0.365192,0.656679,0.463527,-0.486942,-0.00781044,1.05787,-1.11134,-0.0178218,0.0255356,2.51008,5,0.1,2,0.5,3.90836,-4.94957,0.569805,-0.110899,0.323521,0.0108561,-0.246689,0.719637,0.0241473,0.0227977,0.598526,5,0.1,3,0.5,0.235673,3.13907,0.634214,-0.0183429,-0.665233,-0.00732215,-0.0418639,-1.41023,-0.0167005,0.0134159,2.51557,5,0.1,4,0.5,-4.39843,2.55783,0.626916,0.249186,-0.110015,-0.00498658,0.013113,-0.244647,-0.0110976,0.00568607,1.02305,5,0.1,5,0.5,1.28208,-3.17739,0.621713,-0.137409,0.333515,-0.00781175,-0.30566,0.741854,-0.0173673,0.00849339,0.665497,5,0.1,6,0.5,-1.24381,5.07799,0.685489,0.393354,-0.531476,0.0231953,0.874989,-1.18217,0.0515878,0.04985,2.23819,5,0.1,7,0.5,2.11462,-0.636564,0.573911,-0.059196,-0.168787,0.00938261,-0.131771,0.125658,0.0208877,0.00605226,2.86519,5,0.1,8,0.5,-1.64,-4.19972,0.646961,0.0919707,0.66027,-0.0148881,0.209913,1.41889,-0.0339821,0.0116432,2.51375,5,0.1,9,0.5,5.71194,1.7237,0.617186,-0.387755,-0.315881,0.00380995,-0.86242,-0.702672,0.00846758,0.00778679,1.27896,5,0.1
0,0.6,1.51059,1.72019,0.575421,0.239015,0.0487298,-0.00535697,0.320017,0.0652075,-0.00718236,0.00623554,0.158605,5,0.1,1,0.6,-1.21358,-0.419057,0.655815,0.557286,-0.585443,-0.00938922,0.778019,-0.817285,-0.013113,0.0237655,2.21915,5,0.1,2,0.6,3.89613,-4.91389,0.571002,-0.132549,0.386667,0.0129759,-0.177383,0.517845,0.0173748,0.0239849,0.445583,5,0.1,3,0.6,0.233644,3.06614,0.633404,-0.0220533,-0.785863,-0.00880212,-0.0307858,-0.958323,-0.0123084,0.0126181,2.33665,5,0.1,4,0.6,-4.37385,2.5457,0.626366,0.238955,-0.131482,-0.00596046,-0.193596,-0.176072,-0.00798702,0.00604984,0.942833,5,0.1,5,0.6,1.26693,-3.14061,0.620852,-0.164232,0.398618,-0.00933558,-0.219882,0.5337,-0.0124872,0.00792113,0.495444,5,0.1,6,0.6,-1.20043,5.01938,0.688047,0.470138,-0.635219,0.0277236,0.629485,-0.850677,0.0371039,0.0408689,1.66631,5,0.1,7,0.6,2.10809,-0.652583,0.574946,-0.0707626,-0.15,0.0112146,-0.0946522,0.222504,0.0150502,0.00780448,2.75095,5,0.1,8,0.6,-1.62983,-4.12722,0.645314,0.110579,0.782478,-0.0179008,0.154316,0.979424,-0.0249743,0.0106769,2.32549,5,0.1,9,0.6,5.66917,1.68886,0.617606,-0.463438,-0.377545,0.00455379,-0.620604,-0.505447,0.00607967,0.00657975,0.952162,5,0.1
0,0.7,1.53606,1.72538,0.57485,0.269737,0.0549899,-0.0060467,0.276871,0.0564232,-0.00622123,0.00623554,0.158605,5,0.1,1,0.7,-1.15391,-0.481743,0.65481,0.635384,-0.667483,-0.0107053,0.734694,-0.771776,-0.0123791,0.0237655,2.21915,5,0.1,2,0.7,3.88201,-4.87268,0.572385,-0.14958,0.436378,0.0146441,-0.153482,0.447959,0.0150353,0.0239849,0.445583,5,0.1,3,0.7,0.231383,2.98382,0.632462,-0.0223042,-0.850494,-0.0100073,0.0214074,-0.361606,-0.0110827,0.0126181,2.33665,5,0.1,4,0.7,-4.35131,2.53169,0.625731,0.209455,-0.148385,-0.0067275,-0.346839,-0.152335,-0.00691414,0.00604984,0.942833,5,0.1,5,0.7,1.24943,-3.09813,0.619857,-0.185341,0.449854,-0.0105343,-0.190236,0.461757,-0.0107996,0.00792113,0.495444,5,0.1,6,0.7,-1.15032,4.95168,0.691002,0.53057,-0.716886,0.0312862,0.54463,-0.735998,0.0321157,0.0408689,1.66631,5,0.1,7,0.7,2.10055,-0.666202,0.576141,-0.0798509,-0.121378,0.0126589,-0.0818968,0.285745,0.0130087,0.00780448,2.75095,5,0.1,8,0.7,-1.61799,-4.04513,0.643398,0.126065,0.849322,-0.0204076,0.145651,0.381723,-0.0235848,0.0106769,2.32549,5,0.1,9,0.7,5.61978,1.64862,0.618092,-0.523018,-0.42607,0.00513801,-0.536948,-0.437304,0.00526384,0.00657975,0.952162,5,0.1
0,0.8,1.56423,1.73113,0.574219,0.291443,0.0594139,-0.00653416,0.145376,0.0296235,-0.00327826,0.00791108,0.189886,5,0.1,1,0.8,-1.0871,-0.551927,0.653684,0.695887,-0.731039,-0.0117242,0.441253,-0.463575,-0.00745058,0.0208894,2.0419,5,0.1,2,0.8,3.86639,-4.82711,0.573915,-0.161612,0.471497,0.0158235,-0.0805855,0.235319,0.00789762,0.0242234,0.314597,5,0.1,3,0.8,0.229316,2.89769,0.631413,-0.0185639,-0.866026,-0.0108987,0.0498518,0,-0.00625849,0.0169813,2.27267,5,0.1,4,0.8,-4.33204,2.51619,0.625028,0.177169,-0.160331,-0.00727028,-0.273228,-0.0799894,-0.00363588,0.00714101,0.855061,5,0.1,5,0.8,1.23007,-3.05115,0.618757,-0.200257,0.486058,-0.0113815,-0.0998378,0.242352,-0.00566244,0.00859064,0.349808,5,0.1,6,0.8,-1.09492,4.87681,0.694269,0.573269,-0.774598,0.0338033,0.286043,-0.386238,0.0168979,0.0441533,1.42209,5,0.1,7,0.8,2.09221,-0.677197,0.577464,-0.0862718,-0.102192,0.0136778,-0.0430346,0.0687242,0.00685453,0.00917091,2.54462,5,0.1,8,0.8,-1.60473,-3.95904,0.641252,0.138056,0.866026,-0.0223488,0.0873804,0,-0.0141859,0.0102011,1.92457,5,0.1,9,0.8,5.56516,1.60413,0.618628,-0.565124,-0.460353,0.00555068,-0.281811,-0.229657,0.00277162,0.00697681,0.672278,5,0.1
0,0.9,1.59434,1.73726,0.573544,0.312109,0.0636263,-0.00699954,0.23707,0.0483319,-0.00533089,0.00791108,0.189886,5,0.1,1,0.9,-1.01521,-0.627447,0.652473,0.741605,-0.779068,-0.0124956,0.425961,-0.447493,-0.00718236,0.0208894,2.0419,5,0.1,2,0.9,3.84984,-4.77884,0.575535,-0.168915,0.492816,0.0165395,-0.057742,0.168532,0.00565872,0.0242234,0.314597,5,0.1,3,0.9,0.227748,2.81109,0.630291,-0.01248,-0.866026,-0.0115342,0.0685621,0,-0.00577047,0.0169813,2.27267,5,0.1,4,0.9,-4.31555,2.49978,0.624284,0.155509,-0.167578,-0.00759987,-0.103891,-0.057295,-0.00260398,0.00714101,0.855061,5,0.1,5,0.9,1.20957,-3.00139,0.617592,-0.209304,0.508019,-0.0118947,-0.0715181,0.173599,-0.00405312,0.00859064,0.349808,5,0.1,6,0.9,-1.03622,4.79735,0.69773,0.599187,-0.814046,0.0353345,0.204891,-0.35578,0.0121035,0.0441533,1.42209,5,0.1,7,0.9,2.08338,-0.68736,0.578864,-0.0901718,-0.106306,0.0142983,-0.0308305,-0.234164,0.00489876,0.00917091,2.54462,5,0.1,8,0.9,-1.59049,-3.87244,0.638946,0.146556,0.866026,-0.0237284,0.0744909,0,-0.0120923,0.0102011,1.92457,5,0.1,9,0.9,5.5073,1.557,0.619197,-0.590662,-0.481164,0.00580205,-0.201911,-0.164486,0.00199303,0.00697681,0.672278,5,0.1
0,1,1.62668,1.74386,0.572818,0.333536,0.067991,-0.00748187,0.169158,0.0345707,-0.0038147,0.0076528,0.116064,5,0.1,1,1,-0.939262,-0.707233,0.651193,0.773107,-0.812161,-0.0130266,0.171453,-0.180185,-0.00289083,0.0211481,1.95382,5,0.1,2,1,3.83275,-4.72897,0.577208,-0.17187,0.501442,0.0168294,0.00369549,-0.0107288,-0.00038743,0.0289276,0.21393,5,0.1,3,1,0.226852,2.72449,0.629114,-0.00542887,-0.866026,-0.0119373,0.0699461,0,-0.00181794,0.013149,2.27215,5,0.1,4,1,-4.3,2.48282,0.623515,0.160599,-0.170511,-0.0077337,0.191689,0.00357628,0.000149012,0.00696225,0.726778,5,0.1,5,1,1.18839,-2.94998,0.616388,-0.212964,0.516909,-0.0121027,0.00458956,-0.0110865,0.000298023,0.00852837,0.237887,5,0.1,6,1,-0.975598,4.71453,0.701305,0.609683,-0.837815,0.035955,-0.013113,-0.087738,-0.000745058,0.0412379,0.994182,5,0.1,7,1,2.07425,-0.7,0.580311,-0.0917494,-0.154439,0.0145495,0.00190735,-0.699461,-0.000327826,0.0100799,2.1911,5,0.1,8,1,-1.57554,-3.78583,0.636525,0.151595,0.866026,-0.0245467,0.0207424,0,-0.00339746,0.0111095,1.49928,5,0.1,9,1,5.44754,1.50831,0.619784,-0.601006,-0.48959,0.00590384,0.013113,0.0106096,-0.000119209,0.00891011,0.45718,5,0.1
0,1.1,1.66089,1.75083,0.572051,0.350458,0.0714473,-0.00786297,0.149541,0.0305325,-0.00336766,0.0076528,0.116064,5,0.1,1,1.1,-0.860918,-0.789535,0.649873,0.79433,-0.834462,-0.0133842,0.205789,-0.21622,-0.00346452,0.0211481,1.95382,5,0.1,2,1.1,3.81559,-4.6789,0.578888,-0.171118,0.499251,0.0167537,0.017643,-0.0514686,-0.00173599,0.0289276,0.21393,5,0.1,3,1.1,0.226669,2.63788,0.627909,0.00180413,-0.866026,-0.0121691,0.0721598,0,-0.00214204,0.013149,2.27215,5,0.1,4,1.1,-4.28233,2.4658,0.622742,0.19802,-0.169772,-0.00770129,0.503242,0.0174493,0.000782311,0.00696225,0.726778,5,0.1,5,1.1,1.16713,-2.89837,0.61518,-0.212032,0.514649,-0.0120469,0.0218526,-0.0530332,0.00126287,0.00852837,0.237887,5,0.1,6,1.1,-0.914722,4.63029,0.704895,0.607014,-0.846304,0.0358001,-0.0625625,-0.0445247,-0.00366941,0.0412379,0.994182,5,0.1,7,1.1,2.06509,-0.719979,0.581763,-0.0913531,-0.253133,0.0144843,0.00938773,-1.18148,-0.00150502,0.0100799,2.1911,5,0.1,8,1.1,-1.56028,-3.69923,0.634054,0.153417,0.865879,-0.0248448,0.00918657,-0.00588596,-0.00151619,0.0111095,1.49928,5,0.1,9,1.1,5.38753,1.45943,0.620373,-0.598362,-0.48744,0.00587897,0.0617504,0.050284,-0.000599772,0.00891011,0.45718,5,0.1
0,1.2,1.69652,1.7581,0.571251,0.360119,0.073424,-0.00808239,0.0303984,0.00613928,-0.000655651,0.0121501,0.0635859,5,0.1,1,1.2,-0.780716,-0.873789,0.648522,0.80625,-0.846986,-0.0135854,-0.000298023,0.000327826,2.98023e-05,0.0194578,1.92288,5,0.1,2,1.2,3.79863,-4.62943,0.580549,-0.167298,0.488114,0.0163794,0.0627041,-0.183344,-0.00616908,0.0235859,0.142244,5,0.1,3,1.2,0.227196,2.55128,0.626685,0.00856183,-0.866026,-0.0122517,0.0611544,0,0.000953674,0.0154597,2.27173,5,0.1,4,1.2,-4.25986,2.44897,0.621979,0.25183,-0.165993,-0.00753105,0.533104,0.0624657,0.00283122,0.0113232,0.584257,5,0.1,5,1.2,1.14611,-2.84737,0.613986,-0.207302,0.503176,-0.0117764,0.0778437,-0.189185,0.00444055,0.008614,0.158181,5,0.1,6,1.2,-0.854563,4.54576,0.708444,0.593472,-0.840425,0.0350028,-0.222892,0.187397,-0.013113,0.0411634,0.675391,5,0.1,7,1.2,2.05604,-0.751365,0.583199,-0.0893235,-0.374436,0.0141591,0.033617,-1.17451,-0.00530481,0.00854097,1.76165,5,0.1,8,1.2,-1.54495,-3.61272,0.631572,0.152346,0.863677,-0.0246733,-0.0349283,-0.0470877,0.00563264,0.0106941,1.13435,5,0.1,9,1.2,5.32823,1.41112,0.620956,-0.585008,-0.476563,0.00574887,0.219822,0.179052,-0.00217557,0.00887569,0.30401,5,0.1
0,1.3,1.73263,1.76546,0.570441,0.361284,0.0736564,-0.0081066,-0.0192598,-0.00396371,0.000447035,0.0121501,0.0635859,5,0.1,1,1.3,-0.699839,-0.958752,0.647159,0.812567,-0.853621,-0.0136897,0.0784993,-0.0824444,-0.00130385,0.0194578,1.92288,5,0.1,2,1.3,3.78221,-4.58151,0.582156,-0.161097,0.469989,0.0157699,0.0665337,-0.194371,-0.00652671,0.0235859,0.142244,5,0.1,3,1.3,0.228357,2.46468,0.625462,0.0145944,-0.866026,-0.0122376,0.0573499,0,-7.45058e-06,0.0154597,2.27173,5,0.1,4,1.3,-4.23218,2.43268,0.62124,0.300314,-0.15982,-0.00725137,0.450939,0.0661612,0.00299886,0.0113232,0.584257,5,0.1,5,1.3,1.12576,-2.79797,0.61283,-0.199606,0.484478,-0.0113379,0.0825152,-0.200421,0.00469387,0.008614,0.158181,5,0.1,6,1.3,-0.796306,4.46261,0.71188,0.571436,-0.822197,0.0337058,-0.23625,0.207782,-0.013914,0.0411634,0.675391,5,0.1,7,1.3,2.04727,-0.794995,0.584589,-0.0860006,-0.499495,0.0136341,0.0356138,-1.2561,-0.00563636,0.00854097,1.76165,5,0.1,8,1.3,-1.52989,-3.52639,0.629132,0.148858,0.864073,-0.0241102,-0.0401661,0.0153631,0.00649318,0.0106941,1.13435,5,0.1,9,1.3,5.2708,1.36434,0.62152,-0.56328,-0.458863,0.00553429,0.232965,0.189751,-0.00229478,0.00887569,0.30401,5,0.1
0,1.4,1.7685,1.77277,0.569636,0.354275,0.0722229,-0.00794679,-0.128627,-0.026226,0.00286102,0.00851824,0.0428392,5,0.1,1,1.4,-0.618383,-1.04432,0.645787,0.813751,-0.854862,-0.0137076,-0.0886917,0.0931621,0.00149012,0.0217541,1.92151,5,0.1,2,1.4,3.76647,-4.5356,0.583697,-0.153136,0.446725,0.0149891,0.0963211,-0.281096,-0.00944734,0.0245038,0.159447,5,0.1,3,1.4,0.230083,2.37808,0.624241,0.0196673,-0.866026,-0.0121385,0.0426173,0,0.00244379,0.0124751,2.27143,5,0.1,4,1.4,-4.2,2.41706,0.620531,0.342107,-0.151902,-0.00689179,0.371218,0.0956059,0.00432134,0.00839977,0.456295,5,0.1,5,1.4,1.10627,-2.75065,0.611723,-0.189731,0.460494,-0.0107765,0.119328,-0.289679,0.00676513,0.00814323,0.104122,5,0.1,6,1.4,-0.740488,4.38167,0.715172,0.543156,-0.793767,0.0320405,-0.341535,0.381231,-0.0201762,0.0441675,0.451135,5,0.1,7,1.4,2.03887,-0.850883,0.585921,-0.0817418,-0.613539,0.0129595,0.0513792,-0.974208,-0.00813603,0.00818318,1.34161,5,0.1,8,1.4,-1.51525,-3.44005,0.626761,0.14343,0.860423,-0.0232309,-0.0719428,-0.112176,0.0116229,0.0106759,0.830035,5,0.1,9,1.4,5.21578,1.31952,0.622061,-0.535405,-0.436151,0.00525862,0.336647,0.274241,-0.00327826,0.00617526,0.200112,5,0.1
0,1.5,1.80332,1.77987,0.568855,0.342085,0.0697374,-0.0076754,-0.128217,-0.0261366,0.00286102,0.00851824,0.0428392,5,0.1,1,1.5,-0.537145,-1.12967,0.644418,0.812805,-0.853869,-0.0136917,0.0206698,-0.021711,-0.000350177,0.0217541,1.92151,5,0.1,2,1.5,3.75154,-4.49205,0.585158,-0.146227,0.426561,0.0143119,0.0513494,-0.149876,-0.00502542,0.0245038,0.159447,5,0.1,3,1.5,0.23226,2.29147,0.623035,0.0238104,-0.866026,-0.0119948,0.0383053,0,0.00109151,0.0124751,2.27143,5,0.1,4,1.5,-4.16378,2.40233,0.619863,0.38289,-0.142784,-0.00647949,0.409901,0.0910908,0.00411645,0.00839977,0.456295,5,0.1,5,1.5,1.08787,-2.70599,0.610678,-0.178348,0.432864,-0.0101312,0.113711,-0.275984,0.00644848,0.00814323,0.104122,5,0.1,6,1.5,-0.687814,4.30411,0.718279,0.510578,-0.757451,0.0301163,-0.325467,0.370353,-0.0192188,0.0441675,0.451135,5,0.1,7,1.5,2.03094,-0.917113,0.587177,-0.0768412,-0.709681,0.0121829,0.0489801,-0.894174,-0.00775978,0.00818318,1.34161,5,0.1,8,1.5,-1.50125,-3.35436,0.624494,0.136536,0.854484,-0.0221164,-0.0703409,-0.0510365,0.0113808,0.0106759,0.830035,5,0.1,9,1.5,5.16386,1.27722,0.622571,-0.503295,-0.409992,0.0049456,0.320762,0.261337,-0.00313297,0.00617526,0.200112,5,0.1
0,1.6,1.8368,1.78669,0.568104,0.326467,0.0665516,-0.00732541,-0.192761,-0.0392795,0.00429153,0.00941165,0.0175017,5,0.1,1,1.6,-0.45591,-1.215,0.64305,0.809496,-0.850391,-0.0136361,-0.121624,0.127792,0.00202656,0.0186795,1.93139,5,0.1,2,1.6,3.73716,-4.45011,0.586565,-0.141227,0.411963,0.0138223,0.0555515,-0.162125,-0.00542402,0.0256158,0.0923885,5,0.1,3,1.6,0.234813,2.20487,0.621843,0.0270016,-0.866026,-0.0118107,0.0241846,0,0.00312924,0.0133339,2.27125,5,0.1,4,1.6,-4.12361,2.38853,0.619237,0.418186,-0.132966,-0.00603348,0.27132,0.108123,0.00485778,0.0108214,0.338002,5,0.1,5,1.6,1.07063,-2.66415,0.609698,-0.166088,0.403106,-0.00943542,0.135064,-0.327706,0.0076592,0.0103368,0.117002,5,0.1,6,1.6,-0.63846,4.23037,0.72119,0.475486,-0.715482,0.028044,-0.386715,0.486135,-0.0227988,0.0377916,0.472012,5,0.1,7,1.6,2.02351,-0.992054,0.588355,-0.0715613,-0.783181,0.0113457,0.0581741,-0.538468,-0.00923872,0.00761143,0.966385,5,0.1,8,1.6,-1.48797,-3.26936,0.622343,0.128624,0.842673,-0.0208363,-0.0907183,-0.216246,0.0146925,0.00929471,0.587361,5,0.1,9,1.6,5.11521,1.23759,0.623049,-0.468707,-0.381812,0.00460744,0.381231,0.310481,-0.00372529,0.00812457,0.13153,5,0.1
0,1.7,1.86846,1.79315,0.567393,0.306335,0.0624493,-0.00687633,-0.21597,-0.044018,0.00482798,0.00941165,0.0175017,5,0.1,1,1.7,-0.375232,-1.29976,0.641691,0.806146,-0.84687,-0.0135813,0.00478715,-0.00499934,-9.68575e-05,0.0186795,1.93139,5,0.1,2,1.7,3.72328,-4.40962,0.587924,-0.136545,0.398301,0.0133656,0.0442564,-0.129133,-0.00432134,0.0256158,0.0923885,5,0.1,3,1.7,0.237634,2.11827,0.620674,0.0293847,-0.866026,-0.0116087,0.0216365,0,0.00155717,0.0133339,2.27125,5,0.1,4,1.7,-4.0804,2.37575,0.618657,0.445603,-0.122831,-0.00557723,0.249982,0.0982434,0.00442937,0.0108214,0.338002,5,0.1,5,1.7,1.05458,-2.6252,0.608787,-0.155727,0.377968,-0.00884803,0.0819042,-0.198707,0.00463799,0.0103368,0.117002,5,0.1,6,1.7,-0.592753,4.16151,0.723886,0.439233,-0.659266,0.0259067,-0.351332,0.635862,-0.0207163,0.0377916,0.472012,5,0.1,7,1.7,2.01663,-1.07298,0.589446,-0.0661071,-0.833468,0.0104796,0.0528544,-0.424817,-0.0083968,0.00761143,0.966385,5,0.1,8,1.7,-1.47554,-3.18604,0.62033,0.120081,0.824264,-0.0194523,-0.0838116,-0.187695,0.0135824,0.00929471,0.587361,5,0.1,9,1.7,5.07015,1.20089,0.623492,-0.43297,-0.352706,0.00425791,0.346333,0.282079,-0.00338629,0.00812457,0.13153,5,0.1
0,1.8,1.89794,1.79916,0.566732,0.282305,0.0575483,-0.00633746,-0.26834,-0.0545979,0.00599027,0.0088987,0.009344,5,0.1,1,1.8,-0.29472,-1.38434,0.640334,0.801924,-0.842434,-0.0135109,-0.124633,0.131011,0.00208616,0.0189969,1.94271,5,0.1,2,1.8,3.70987,-4.37051,0.589237,-0.131327,0.383091,0.0128567,0.0642538,-0.187874,-0.00625849,0.024264,0.108707,5,0.1,3,1.8,0.240664,2.03166,0.619522,0.031019,-0.866026,-0.0113904,0.00979006,0,0.00330806,0.0132504,2.52706,5,0.1,4,1.8,-4.03481,2.36397,0.618121,0.463629,-0.112712,-0.00512004,0.0919104,0.106692,0.00479817,0.00806081,0.239576,5,0.1,5,1.8,1.03939,-2.58835,0.607924,-0.148025,0.359285,-0.00841171,0.0792742,-0.192523,0.00450015,0.0113333,0.205016,5,0.1,6,1.8,-0.550614,4.09899,0.726372,0.403035,-0.588942,0.0237718,-0.38144,0.766754,-0.0225008,0.0381165,0.632543,5,0.1,7,1.8,2.01029,-1.15798,0.590451,-0.0606596,-0.861073,0.00961423,0.0573397,-0.0990629,-0.00908971,0.00708424,0.668145,5,0.1,8,1.8,-1.46397,-3.10474,0.618454,0.111243,0.799102,-0.0180215,-0.0954866,-0.340104,0.0154972,0.0100197,0.40561,5,0.1,9,1.8,5.02862,1.16705,0.6239,-0.397301,-0.323641,0.00390708,0.376225,0.306249,-0.00366569,0.00735837,0.148928,5,0.1
0,1.9,1.92484,1.80464,0.566128,0.255657,0.0521237,-0.0057416,-0.269279,-0.0548288,0.00603497,0.0088987,0.009344,5,0.1,1,1.9,-0.214801,-1.46829,0.638988,0.798662,-0.839,-0.0134569,0.00910357,-0.00951439,-0.000156462,0.0189969,1.94271,5,0.1,2,1.9,3.69677,-4.33311,0.590492,-0.132978,0.364825,0.0122475,-0.0756681,-0.188828,-0.00630692,0.024264,0.108707,5,0.1,3,1.9,0.243819,1.94589,0.618395,0.0320709,-0.84174,-0.0111732,0.00946224,0.466622,0.0016652,0.0132504,2.52706,5,0.1,4,1.9,-3.98798,2.3532,0.617632,0.47238,-0.102828,-0.00467468,0.0615418,0.094071,0.00424683,0.00806081,0.239576,5,0.1,5,1.9,1.02494,-2.55338,0.607103,-0.141274,0.33993,-0.00802837,0.062108,-0.203639,0.00352412,0.0113333,0.205016,5,0.1,6,1.9,-0.512115,4.04429,0.728642,0.367695,-0.502015,0.0216873,-0.336312,0.948101,-0.0198334,0.0381165,0.632543,5,0.1,7,1.9,2.0045,-1.24438,0.591369,-0.0553466,-0.864956,0.00877175,0.0505745,0.0180155,-0.00801682,0.00708424,0.668145,5,0.1,8,1.9,-1.4533,-3.02641,0.616726,0.102359,0.767952,-0.0165796,-0.0852942,-0.31203,0.0138357,0.0100197,0.40561,5,0.1,9,1.9,4.99048,1.13598,0.624276,-0.367746,-0.299581,0.00361903,0.237644,0.193499,-0.00232086,0.00735837,0.148928,5,0.1
0,2,1.94902,1.80957,0.565584,0.227728,0.046435,-0.00511557,-0.291765,-0.0594854,0.00652671,0.00908736,0.00276007,5,0.1,1,2,-0.135006,-1.55212,0.637643,0.795133,-0.835288,-0.0133976,-0.115509,0.121355,0.00196695,0.0160418,2.00115,5,0.1,2,2,3.68301,-4.29765,0.591682,-0.14267,0.34343,0.011532,-0.101924,-0.247002,-0.00825524,0.0275331,0.206994,5,0.1,3,2,0.247061,1.86468,0.617288,0.0326097,-0.77644,-0.0109494,7.45058e-05,0.821173,0.00321865,0.0132047,2.96178,5,0.1,4,2,-3.94063,2.34339,0.617186,0.472337,-0.0933826,-0.00424683,-0.0770092,0.0970364,0.00438094,0.00816277,0.164316,5,0.1,5,2,1.01114,-2.52048,0.606318,-0.134519,0.317073,-0.00764579,0.077486,-0.25928,0.00441074,0.0103665,0.192493,5,0.1,6,2,-0.477025,3.99897,0.730712,0.333919,-0.403601,0.0196949,-0.34681,1.001,-0.0204742,0.0342476,0.606905,5,0.1,7,2,1.99922,-1.3305,0.592206,-0.0502646,-0.853866,0.00796616,0.0521541,0.243187,-0.00828505,0.00779539,0.451531,5,0.1,8,2,-1.44349,-2.95132,0.615138,0.0936627,0.731802,-0.0151694,-0.0907779,-0.431061,0.0147223,0.0127342,0.645096,5,0.1,9,2,4.95482,1.10693,0.624627,-0.345826,-0.281727,0.00340492,0.217676,0.177264,-0.00214577,0.00615184,0.0858587,5,0.1
0,2.1,1.97034,1.81392,0.565105,0.198701,0.0405161,-0.00446532,-0.289775,-0.0590906,0.00649691,0.00908736,0.00276007,5,0.1,1,2.1,-0.055717,-1.63472,0.636307,0.792878,-0.813413,-0.0133577,0.0199084,0.325136,-0.00031665,0.0160418,2.00115,5,0.1,2,2.1,3.6684,-4.26453,0.592795,-0.147988,0.318941,0.0107127,-0.00566244,-0.249863,-0.00836328,0.0275331,0.206994,5,0.1,3,2.1,0.250329,1.79198,0.616205,0.032776,-0.670966,-0.010736,0.00151992,1.22575,0.00164285,0.0132047,2.96178,5,0.1,4,2.1,-3.89377,2.33451,0.616782,0.46466,-0.0844739,-0.00384375,-0.0940561,0.0837147,0.00379235,0.00816277,0.164316,5,0.1,5,2.1,0.99806,-2.49033,0.605575,-0.127148,0.283479,-0.00722632,0.0739954,-0.400916,0.00420958,0.0103665,0.192493,5,0.1,6,2.1,-0.445265,3.96365,0.732585,0.302078,-0.303053,0.0178152,-0.299254,0.986204,-0.0176616,0.0342476,0.606905,5,0.1,7,2.1,1.99443,-1.41471,0.592964,-0.0454755,-0.829902,0.00720555,0.0450239,0.265092,-0.00714883,0.00779539,0.451531,5,0.1,8,2.1,-1.43455,-2.88111,0.614473,0.0852941,0.665174,0.0084132,-0.0791922,-0.866219,0.407964,0.0127342,0.645096,5,0.1,9,2.1,4.9212,1.07954,0.624958,-0.327329,-0.26666,0.00322228,0.16728,0.136301,-0.0016503,0.00615184,0.0858587,5,0.1
0,2.2,1.98876,1.81768,0.564691,0.169653,0.0345916,-0.00381321,-0.291407,-0.0594258,0.00655651,0.00955719,0.00108591,5,0.1,1,2.2,0.0235547,-1.71405,0.634972,0.790463,-0.768986,-0.0133157,-0.104219,0.567198,0.00175834,0.014438,2.25643,5,0.1,2,2.2,3.65372,-4.23393,0.593823,-0.144106,0.292289,0.00981987,0.0813007,-0.287533,-0.00965595,0.0221062,0.192072,5,0.1,3,2.2,0.253605,1.73126,0.615141,0.0326209,-0.542048,-0.0105172,-0.00585616,1.30743,0.00312924,0.0170005,2.89219,5,0.1,4,2.2,-3.84792,2.32647,0.616416,0.450605,-0.0761986,-0.0034675,-0.198841,0.0834465,0.00378489,0.0104549,0.110382,5,0.1,5,2.2,0.985737,-2.46414,0.604874,-0.119041,0.239062,-0.00676513,0.0908971,-0.477552,0.0051558,0.0110207,0.186749,5,0.1,6,2.2,-0.416536,3.93809,0.734279,0.272498,-0.210309,0.0160709,-0.298798,0.852823,-0.017643,0.0374422,0.58134,5,0.1,7,2.2,1.99011,-1.49615,0.593649,-0.0410229,-0.796017,0.0064984,0.0449419,0.431955,-0.00712276,0.00799223,0.300582,5,0.1,8,2.2,-1.42642,-2.8194,0.61767,0.0773787,0.565052,0.0577137,-0.0808239,-1.10638,0.539958,0.0116867,0.283163,5,0.1,9,2.2,4.88932,1.05357,0.625271,-0.309813,-0.252387,0.00305027,0.193834,0.157773,-0.00193715,0.00767761,0.0662377,5,0.1
0,2.3,2.00429,1.82084,0.564342,0.141201,0.0287894,-0.00317292,-0.277057,-0.0565052,0.00623241,0.00955719,0.00108591,5,0.1,1,2.3,0.10243,-1.7873,0.633643,0.789249,-0.689273,-0.0132948,0.0294667,0.978708,-0.000491738,0.014438,2.25643,5,0.1,2,2.3,3.6399,-4.20612,0.594757,-0.130867,0.264105,0.00887318,0.175834,-0.280559,-0.00942871,0.0221062,0.192072,5,0.1,3,2.3,0.256843,1.68373,0.614102,0.0321392,-0.409303,-0.01027,-0.00519864,1.26927,0.00230595,0.0170005,2.89219,5,0.1,4,2.3,-3.80381,2.31924,0.616087,0.431544,-0.0685923,-0.00312198,-0.196844,0.0708699,0.00321865,0.0104549,0.110382,5,0.1,5,2.3,0.974279,-2.4427,0.604223,-0.110142,0.18943,-0.00626016,0.0896305,-0.50512,0.00508875,0.0110207,0.186749,5,0.1,6,2.3,-0.390685,3.9211,0.735804,0.245265,-0.132375,0.0144633,-0.253636,0.681549,-0.0149682,0.0374422,0.58134,5,0.1,7,2.3,1.98622,-1.57367,0.594266,-0.036926,-0.754797,0.00584908,0.0381693,0.416525,-0.00604987,0.00799223,0.300582,5,0.1,8,2.3,-1.41906,-2.7677,0.625645,0.0699829,0.475293,0.0971221,-0.0692755,-0.723407,0.260789,0.0116867,0.283163,5,0.1,9,2.3,4.85918,1.02902,0.625568,-0.294018,-0.239525,0.00289232,0.137627,0.112131,-0.00137091,0.00767761,0.0662377,5,0.1
0,2.4,2.01706,1.82344,0.564055,0.114363,0.0233173,-0.00256747,-0.25928,-0.0529289,0.00581145,0.00834251,0.000856923,5,0.1,1,2.4,0.181384,-1.85098,0.632313,0.78771,-0.581706,-0.0132695,-0.0962245,1.13636,0.00163913,0.0158227,2.49944,5,0.1,2,2.4,3.62779,-4.18113,0.595597,-0.110352,0.235462,0.00791103,0.227928,-0.294924,-0.00989437,0.0238389,0.185267,5,0.1,3,2.4,0.260022,1.6486,0.613089,0.0313424,-0.299734,-0.00997186,-0.0117123,0.884891,0.00393391,0.0146667,2.69995,5,0.1,4,2.4,-3.76173,2.31273,0.615791,0.408822,-0.061661,-0.00280589,-0.267148,0.069499,0.00315905,0.00774846,0.12545,5,0.1,5,2.4,0.963727,-2.42626,0.603623,-0.100695,0.139803,-0.00572354,0.10097,-0.479817,0.00572205,0.0103865,0.275621,5,0.1,6,2.4,-0.367404,3.91084,0.737177,0.220447,-0.0772893,0.0129983,-0.248209,0.41151,-0.0146329,0.0321845,1.0302,5,0.1,7,2.4,1.98271,-1.64694,0.594821,-0.0331908,-0.70869,0.00525713,0.0373721,0.521779,-0.00593066,0.00848811,0.198853,5,0.1,8,2.4,-1.4124,-2.72339,0.636286,0.0631511,0.414222,0.112255,-0.0689626,-0.524879,0.0530779,0.00831372,0.203227,5,0.1,9,2.4,4.83047,1.00563,0.62585,-0.279641,-0.227809,0.00274777,0.160933,0.13116,-0.00154972,0.00722871,0.0298659,5,0.1
0,2.5,2.02724,1.82552,0.563827,0.0896346,0.0182701,-0.00201268,-0.23438,-0.0478402,0.00526384,0.00834251,0.000856923,5,0.1,1,2.5,0.260011,-1.90318,0.630989,0.786933,-0.46133,-0.0132548,0.0308709,1.20103,-0.000506639,0.0158227,2.49944,5,0.1,2,2.5,3.61794,-4.15902,0.596339,-0.0862889,0.207008,0.00695605,0.24727,-0.276953,-0.00929832,0.0238389,0.185267,5,0.1,3,2.5,0.263102,1.6223,0.612109,0.0302653,-0.234529,-0.00962373,-0.010984,0.398323,0.00341982,0.0146667,2.69995,5,0.1,4,2.5,-3.72191,2.30686,0.615524,0.389829,-0.0561967,-0.00255676,-0.138775,0.0434816,0.00199303,0.00774846,0.12545,5,0.1,5,2.5,0.954136,-2.41458,0.603078,-0.0913257,0.0947606,-0.00519231,0.0891685,-0.415727,0.00505894,0.0103865,0.275621,5,0.1,6,2.5,-0.346517,3.90485,0.738408,0.197959,-0.0474591,0.0116726,-0.20805,0.124589,-0.0122637,0.0321845,1.0302,5,0.1,7,2.5,1.97957,-1.71532,0.595319,-0.029804,-0.659687,0.00471985,0.0313446,0.478446,-0.00496581,0.00848811,0.198853,5,0.1,8,2.5,-1.40641,-2.68417,0.647535,0.0568807,0.373742,0.110541,-0.0582784,-0.312015,-0.0781938,0.00831372,0.203227,5,0.1,9,2.5,4.80329,0.983489,0.626118,-0.264045,-0.215094,0.0025969,0.159234,0.129811,-0.00154972,0.00722871,0.0298659,5,0.1
0,2.6,2.03508,1.82712,0.563651,0.0676394,0.0137836,-0.00151843,-0.20504,-0.0418425,0.00461936,0.00848769,0.000728887,5,0.1,1,2.6,0.338734,-1.94364,0.629663,0.785357,-0.352144,-0.0132263,-0.0978565,0.946462,0.00163913,0.0164217,2.65876,5,0.1,2,2.6,3.61054,-4.13969,0.596989,-0.061965,0.179625,0.00603497,0.234842,-0.272751,-0.00911951,0.0241368,0.404147,5,0.1,3,2.6,0.266067,1.6,0.611166,0.0289515,-0.219113,-0.00922084,-0.0160784,-0.059545,0.00491738,0.0113051,2.46727,5,0.1,4,2.6,-3.68358,2.30144,0.615277,0.37657,-0.052321,-0.00237972,-0.145316,0.0368357,0.00169873,0.00767214,0.0730884,5,0.1,5,2.6,0.945448,-2.40704,0.602584,-0.0823975,0.0574827,-0.00468493,0.0913441,-0.326991,0.0051558,0.012012,0.273401,5,0.1,6,2.6,-0.327738,3.9,0.739516,0.177725,-0.0565886,0.01048,-0.20124,-0.288725,-0.0118613,0.0306184,1.54165,5,0.1,7,2.6,1.97674,-1.77883,0.595767,-0.0267565,-0.609615,0.0042364,0.0302792,0.53674,-0.00482798,0.00872677,0.131591,5,0.1,8,2.6,-1.40101,-2.64819,0.658045,0.0511825,0.347048,0.0983059,-0.0570416,-0.242591,-0.158846,0.00926507,0.15256,5,0.1,9,2.6,4.77773,0.96267,0.626369,-0.246441,-0.200745,0.00242442,0.198126,0.161529,-0.00193715,0.00795764,0.0115082,5,0.1
0,2.7,2.04086,1.8283,0.563521,0.0485774,0.00989456,-0.00108909,-0.175551,-0.0358149,0.00395626,0.00848769,0.000728887,5,0.1,1,2.7,0.416704,-1.97468,0.628353,0.772652,-0.274967,-0.0129223,-0.179756,0.572726,0.00463426,0.0164217,2.65876,5,0.1,2,2.7,3.60556,-4.12305,0.597548,-0.037735,0.15371,0.00516763,0.236124,-0.247359,-0.00828877,0.0241368,0.404147,5,0.1,3,2.7,0.268886,1.57772,0.610267,0.0274547,-0.227699,-0.00877082,-0.0148062,-0.125133,0.00440329,0.0113051,2.46727,5,0.1,4,2.7,-3.64655,2.29637,0.615047,0.364548,-0.0492711,-0.00223862,-0.112101,0.0265986,0.00123307,0.00767214,0.0730884,5,0.1,5,2.7,0.937653,-2.40277,0.602141,-0.0735994,0.0297293,-0.00418741,0.0859834,-0.227511,0.00487268,0.012012,0.273401,5,0.1,6,2.7,-0.310901,3.89254,0.740508,0.159579,-0.0955746,0.00941036,-0.167096,-0.462204,-0.00984594,0.0306184,1.54165,5,0.1,7,2.7,1.97421,-1.83725,0.596168,-0.0240253,-0.559771,0.00380129,0.0251606,0.477098,-0.00400841,0.00872677,0.131591,5,0.1,8,2.7,-1.39616,-2.61446,0.666992,0.0460234,0.329383,0.0799024,-0.0476837,-0.132203,-0.20266,0.00926507,0.15256,5,0.1,9,2.7,4.75409,0.943408,0.626602,-0.226372,-0.184382,0.00222763,0.207037,0.168759,-0.00203028,0.00795764,0.0115082,5,0.1
0,2.8,2.0449,1.82912,0.563431,0.0326216,0.00663996,-0.000730157,-0.14329,-0.0292063,0.00321865,0.0091135,0.000485842,5,0.1,1,2.8,0.492779,-2,0.62709,0.745552,-0.237799,-0.0122696,-0.377283,0.192881,0.00846386,0.0108541,2.80549,5,0.1,2,2.8,3.60288,-4.10888,0.598025,-0.0169218,0.129843,0.00436604,0.171781,-0.231028,-0.0077188,0.0228982,0.545109,5,0.1,3,2.8,0.271554,1.55415,0.609413,0.0258304,-0.245282,-0.00828356,-0.0183284,-0.224948,0.00548363,0.008803,2.32971,5,0.1,4,2.8,-3.61072,2.29157,0.614829,0.351274,-0.046581,-0.00211447,-0.164986,0.0289679,0.00137091,0.00856659,0.0558654,5,0.1,5,2.8,0.930723,-2.40077,0.601746,-0.064975,0.0118554,-0.00369847,0.0873208,-0.131845,0.00494719,0.0105397,0.271234,5,0.1,6,2.8,-0.295759,3.88058,0.741401,0.143378,-0.143832,0.00845641,-0.160813,-0.480056,-0.00950694,0.0322995,3.38918,5,0.1,7,2.8,1.97193,-1.89083,0.596529,-0.0215858,-0.51133,0.00341386,0.0241995,0.503302,-0.0038445,0.00744917,0.150448,5,0.1,8,2.8,-1.39179,-2.58214,0.673941,0.0413835,0.316888,0.058949,-0.0461936,-0.133395,-0.211179,0.010684,0.199831,5,0.1,9,2.8,4.73252,0.925845,0.626814,-0.204456,-0.166516,0.00201315,0.23365,0.190347,-0.00232458,0.00909306,0.00597484,5,0.1
0,2.9,2.04749,1.82965,0.563373,0.0196934,0.00400506,-0.000439677,-0.115037,-0.0234544,0.00258908,0.0091135,0.000485842,5,0.1,1,2.9,0.565481,-2.02299,0.625918,0.708274,-0.223447,-0.0110541,-0.388594,0.108957,0.01527,0.0108541,2.80549,5,0.1,2,2.9,3.60199,-4.09701,0.598424,-0.00182465,0.107886,0.00363141,0.109762,-0.208735,-0.0069961,0.0228982,0.545109,5,0.1,3,2.9,0.27405,1.52868,0.60861,0.0241281,-0.262371,-0.0077772,-0.0165068,-0.121534,0.00491366,0.008803,2.32971,5,0.1,4,2.9,-3.57629,2.28704,0.614623,0.338041,-0.0443053,-0.00200616,-0.117332,0.0190884,0.000905246,0.00856659,0.0558654,5,0.1,5,2.9,0.924613,-2.4001,0.601401,-0.0576229,0.00277348,-0.00321874,0.0627823,-0.0553578,0.00467524,0.0105397,0.271234,5,0.1,6,2.9,-0.282183,3.86441,0.742202,0.128475,-0.175324,0.00757566,-0.14074,-0.216484,-0.00831112,0.0322995,3.38918,5,0.1,7,2.9,1.96987,-1.93984,0.596854,-0.0197165,-0.471873,0.00311704,0.0145584,0.315614,-0.00231341,0.00744917,0.150448,5,0.1,8,2.9,-1.38784,-2.55071,0.6787,0.037802,0.314898,0.0356713,-0.0280291,0.0589937,-0.245184,0.010684,0.199831,5,0.1,9,2.9,4.71323,0.910129,0.627004,-0.181599,-0.147894,0.00178618,0.226319,0.184387,-0.00224635,0.00909306,0.00597484,5,0.1
0,3,2.04893,1.82994,0.563341,0.00963211,0.00195503,-0.000214577,-0.0864267,-0.0175238,0.00196695,0.00863943,0.000245442,5,0.1,1,3,0.634212,-2.04483,0.624897,0.664467,-0.213444,-0.00932068,-0.500858,0.102043,0.0188947,0.0120903,3.07609,5,0.1,2,3,3.60214,-4.08724,0.598753,0.00229478,0.0880122,0.00296533,-0.0344515,-0.189543,-0.0063777,0.0216241,1.66162,5,0.1,3,3,0.276378,1.50198,0.607858,0.0223957,-0.270262,-0.00725687,-0.0186861,-0.0383854,0.00569224,0.00968198,2.19182,5,0.1,4,3,-3.54311,2.2827,0.614427,0.324816,-0.0423312,-0.00191331,-0.159383,0.0221729,0.00101328,0.0078802,0.02507,5,0.1,5,3,0.919145,-2.40001,0.601102,-0.0518844,-0.000298023,-0.0027582,0.05427,-0.0112057,0.00458956,0.0100007,0.267788,5,0.1,6,3,-0.270029,3.84582,0.742919,0.114638,-0.19697,0.00675917,-0.138462,-0.247955,-0.00819564,0.0328615,3.18706,5,0.1,7,3,1.96796,-1.98556,0.597155,-0.0184357,-0.443032,0.00291467,0.0120401,0.283062,-0.00190735,0.00609499,0.0870598,5,0.1,8,3,-1.38419,-2.51885,0.681048,0.0353277,0.322658,0.0115231,-0.023365,0.0705719,-0.230908,0.00983957,0.482249,5,0.1,9,3,4.6962,0.896266,0.627171,-0.158751,-0.129281,0.00156015,0.231981,0.189155,-0.00232458,0.00870936,0.00182454,5,0.1
0,3.1,2.0495,1.83005,0.563328,0.00215545,0.000438467,-4.46104e-05,-0.0632703,-0.0128299,0.00143424,0.00863943,0.000245442,5,0.1,1,3.1,0.697633,-2.06574,0.624065,0.599288,-0.205195,-0.00727233,-0.781085,0.0730306,0.0215024,0.0120903,3.07609,5,0.1,2,3.1,3.60217,-4.07934,0.59902,-0.00453815,0.0704631,0.0023745,-0.200033,-0.162184,-0.00546128,0.0216241,1.66162,5,0.1,3,3.1,0.278529,1.47523,0.607159,0.0206694,-0.261673,-0.00673216,-0.0165012,0.152558,0.00502914,0.00968198,2.19182,5,0.1,4,3.1,-3.51142,2.27858,0.614241,0.308869,-0.0402048,-0.00181627,-0.168636,0.0217259,0.000990927,0.0078802,0.02507,5,0.1,5,3.1,0.914246,-2.40015,0.600848,-0.04592,-0.00283122,-0.00231843,0.0642613,-0.0314116,0.00421703,0.0100007,0.267788,5,0.1,6,3.1,-0.25898,3.82494,0.743553,0.108654,-0.223172,0.00592247,0.000920147,-0.38439,-0.00852346,0.0328615,3.18706,5,0.1,7,3.1,1.96617,-2.02861,0.597438,-0.0174604,-0.419169,0.00276044,0.00837445,0.213824,-0.00131875,0.00609499,0.0870598,5,0.1,8,3.1,-1.38077,-2.48679,0.681461,0.0329938,0.313461,0.000378024,-0.0240654,-0.234291,-0.0115894,0.00983957,0.482249,5,0.1,9,3.1,4.68147,0.88427,0.627316,-0.136036,-0.110761,0.00133328,0.222921,0.18169,-0.00222027,0.00870936,0.00182454,5,0.1
0,3.2,2.04944,1.83004,0.56333,-0.00306368,-0.000622869,7.45058e-05,-0.0414848,-0.00834465,0.000923872,0.00701362,9.30167e-05,5,0.1,1,3.2,0.753344,-2.08587,0.623445,0.512278,-0.197124,-0.00512153,-0.940502,0.0954866,0.0211,0.00490335,0.722657,5,0.1,2,3.2,3.6,-4.07306,0.599231,-0.045985,0.0554442,0.00186712,-0.614047,-0.138998,-0.00464916,0.0245063,2.71693,5,0.1,3,3.2,0.280513,1.44979,0.606511,0.0189841,-0.248313,-0.00621378,-0.017643,0.0866652,0.00548363,0.0098691,1.99238,5,0.1,4,3.2,-3.48145,2.27467,0.614064,0.289595,-0.0377655,-0.00170618,-0.222802,0.027895,0.0012815,0.00753382,0.0148488,5,0.1,5,3.2,0.909987,-2.40057,0.600637,-0.0391781,-0.00529289,-0.00191331,0.0699461,-0.0129938,0.00393391,0.00973966,0.253244,5,0.1,6,3.2,-0.248001,3.8,0.744102,0.11167,-0.2823,0.00505894,0.0457093,-0.774264,-0.00873208,0.0312092,2.86766,5,0.1,7,3.2,1.96447,-2.06944,0.597708,-0.0166059,-0.396913,0.00262558,0.00935793,0.245214,-0.00146031,0.00743045,0.0861443,5,0.1,8,3.2,-1.3776,-2.45698,0.681669,0.0303924,0.279558,0.00567734,-0.0284314,-0.426531,0.101835,0.00833557,0.161247,5,0.1,9,3.2,4.66897,0.874093,0.627438,-0.114095,-0.0928864,0.0011161,0.215769,0.175953,-0.00211596,0.00850532,0.000861708,5,0.1
0,3.3,2.04895,1.82994,0.563341,-0.00637248,-0.00128932,0.000147987,-0.0250638,-0.00505149,0.000555068,0.00701362,9.30167e-05,5,0.1,1,3.3,0.799245,-2.10399,0.623092,0.40072,-0.155602,-0.00152132,-1.24274,0.668705,0.0470988,0.00490335,0.722657,5,0.1,2,3.3,3.59097,-4.06785,0.599396,-0.145579,0.0517271,0.00144476,-1.27125,0.0441968,-0.00381842,0.0245063,2.71693,5,0.1,3,3.3,0.282329,1.42535,0.605916,0.0173631,-0.24331,-0.00571012,-0.0153258,-0.0739694,0.00477582,0.0098691,1.99238,5,0.1,4,3.3,-3.45359,2.27103,0.6139,0.26767,-0.0350595,-0.00158213,-0.222787,0.0272691,0.00124425,0.00753382,0.0148488,5,0.1,5,3.3,0.906419,-2.4012,0.600461,-0.0322004,-0.00719167,-0.00163224,0.0690259,-0.00678003,0.00189245,0.00973966,0.253244,5,0.1,6,3.3,-0.236465,3.76682,0.744566,0.120083,-0.389501,0.00423789,0.107833,-1.26672,-0.00774115,0.0312092,2.86766,5,0.1,7,3.3,1.96257,-2.10797,0.597964,-0.0236517,-0.374031,0.00249213,-0.132017,0.225052,-0.00130013,0.00743045,0.0861443,5,0.1,8,3.3,-1.37441,-2.43067,0.682503,0.0359215,0.250521,0.00887569,0.119895,-0.182748,-0.0257865,0.00833557,0.161247,5,0.1,9,3.3,4.65861,0.865663,0.627539,-0.0932917,-0.0759277,0.00091223,0.199914,0.16294,-0.00195578,0.00850532,0.000861708,5,0.1
0,3.4,2.04821,1.82979,0.563358,-0.00815392,-0.00164807,0.000187755,-0.0109673,-0.00226498,0.000238419,0.00794818,2.79854e-05,5,0.1,1,3.4,0.832931,-2.11571,0.623192,0.272259,-0.0752151,0.00362545,-1.28916,0.886798,0.0529289,0.00599949,0.412852,5,0.1,2,3.4,3.56969,-4.0623,0.599523,-0.281441,0.0606418,0.00109822,-1.36459,0.11754,-0.00309944,0.0204505,2.21297,5,0.1,3,3.4,0.283988,1.4,0.605369,0.0158258,-0.269884,-0.00522733,-0.015825,-0.437975,0.00500679,0.0099525,1.37326,5,0.1,4,3.4,-3.42798,2.26767,0.613748,0.243902,-0.0321448,-0.00144988,-0.256538,0.0318289,0.00146031,0.00828191,0.00464005,5,0.1,5,3.4,0.903538,-2.40184,0.600306,-0.025478,-0.00413656,-0.00149906,0.0649989,0.0751019,0.000923872,0.0092602,0.216393,5,0.1,6,3.4,-0.223914,3.72142,0.744953,0.130678,-0.517625,0.00350177,0.0931993,-1.21856,-0.00697374,0.0268206,2.51161,5,0.1,7,3.4,1.95944,-2.1442,0.598206,-0.0397682,-0.349784,0.00234991,-0.176251,0.268459,-0.00160933,0.00864611,0.0731,5,0.1,8,3.4,-1.3701,-2.40633,0.683133,0.0509858,0.237972,0.00269115,0.166655,-0.0901222,-0.0883043,0.0104962,0.104589,5,0.1,9,3.4,4.65026,0.858861,0.627621,-0.074172,-0.0603527,0.000725687,0.181913,0.148267,-0.00178814,0.00772331,0.000700006,5,0.1
0,3.5,2.04736,1.82962,0.563378,-0.00873581,-0.00177044,0.000199955,-0.00113249,-0.00026077,1.86265e-05,0.00794818,2.79854e-05,5,0.1,1,3.5,0.854004,-2.11846,0.623842,0.152387,0.0223409,0.00952603,-1.09822,1.01881,0.061851,0.00599949,0.412852,5,0.1,2,3.5,3.53429,-4.05549,0.599618,-0.428997,0.0765316,0.000821892,-1.50599,0.184685,-0.00244752,0.0204505,2.21297,5,0.1,3,3.5,0.28534,1.37008,0.604869,0.00993479,-0.33421,-0.0047694,-0.0925772,-0.777423,0.00431016,0.0099525,1.37326,5,0.1,4,3.5,-3.40488,2.26461,0.613611,0.218039,-0.0289354,-0.00130348,-0.262946,0.0327379,0.00149012,0.00828191,0.00464005,5,0.1,5,3.5,0.901307,-2.40183,0.600162,-0.0192402,0.00611916,-0.00135805,0.0592992,0.17342,0.00182539,0.0092602,0.216393,5,0.1,6,3.5,-0.210308,3.66316,0.74527,0.141855,-0.649481,0.00287481,0.11768,-1.33517,-0.00564009,0.0268206,2.51161,5,0.1,7,3.5,1.9545,-2.17794,0.598434,-0.0595286,-0.325884,0.00220938,-0.206053,0.222877,-0.00130013,0.00864611,0.0731,5,0.1,8,3.5,-1.36408,-2.38278,0.682871,0.0699617,0.234311,-0.00860365,0.200093,-0.00229478,-0.129323,0.0104962,0.104589,5,0.1,9,3.5,4.64371,0.85354,0.627685,-0.0569977,-0.0463604,0.000557024,0.161082,0.131171,-0.0015758,0.00772331,0.000700006,5,0.1
0,3.6,2.04649,1.82945,0.563398,-0.00846386,-0.00171661,0.000193715,0.00619888,0.00119209,-0.000178814,0.00852465,1.12299e-05,5,0.1,1,3.6,0.864135,-2.11122,0.625097,0.0542387,0.120634,0.0154346,-0.858635,0.913382,0.0539124,0.00589831,0.279586,5,0.1,2,3.6,3.48417,-4.04691,0.599689,-0.568753,0.0948787,0.000604987,-1.23096,0.170469,-0.00193715,0.0185625,1.71377,5,0.1,3,3.6,0.285808,1.33269,0.604414,-0.00101253,-0.412944,-0.00433922,-0.119001,-0.743985,0.00438094,0.0105201,0.425119,5,0.1,4,3.6,-3.38441,2.26189,0.613488,0.191003,-0.0255466,-0.00115037,-0.278831,0.0351667,0.00160933,0.00798296,0.00142169,5,0.1,5,3.6,0.899667,-2.4,0.600036,-0.0136957,0.0337362,-0.00114888,0.0512898,0.367403,0.00232458,0.00975501,0.155519,5,0.1,6,3.6,-0.195578,3.59191,0.745531,0.152045,-0.770336,0.00235885,0.0770912,-1.02222,-0.00473857,0.0304485,2.32371,5,0.1,7,3.6,1.94755,-2.2094,0.598648,-0.0787675,-0.302947,0.00207275,-0.169456,0.244856,-0.00146031,0.00721608,0.139304,5,0.1,8,3.6,-1.35612,-2.35935,0.681353,0.088799,0.234187,-0.0217214,0.16731,-0.0140667,-0.126839,0.0101938,0.101033,5,0.1,9,3.6,4.63878,0.849528,0.627733,-0.0420451,-0.0341833,0.000409782,0.137806,0.112176,-0.0013411,0.0079293,0.000547718,5,0.1
0,3.7,2.04569,1.82928,0.563416,-0.00759549,-0.001546,0.000170898,0.0107437,0.00214577,-0.000264496,0.00852465,1.12299e-05,5,0.1,1,3.7,0.865734,-2.09463,0.626918,-0.0177337,0.210173,0.0209922,-0.586294,0.84658,0.0544563,0.00589831,0.279586,5,0.1,2,3.7,3.42111,-4.03652,0.599741,-0.690978,0.113004,0.000436045,-1.1518,0.180095,-0.00146031,0.0185625,1.71377,5,0.1,3,3.7,0.285058,1.2879,0.604,-0.0143389,-0.479846,-0.00394033,-0.140479,-0.569314,0.00372902,0.0105201,0.425119,5,0.1,4,3.7,-3.3667,2.25951,0.613381,0.163358,-0.0220452,-0.00099102,-0.273928,0.0348836,0.00158325,0.00798296,0.00142169,5,0.1,5,3.7,0.898541,-2.39442,0.599934,-0.00895066,0.080575,-0.000904687,0.0433736,0.53215,0.0025034,0.00975501,0.155519,5,0.1,6,3.7,-0.179939,3.51071,0.745746,0.160937,-0.844282,0.00195056,0.0892133,-0.461653,-0.00352412,0.0304485,2.32371,5,0.1,7,3.7,1.93905,-2.23845,0.598848,-0.0890769,-0.277808,0.00191964,-0.0424385,0.261426,-0.00162423,0.00721608,0.139304,5,0.1,8,3.7,-1.34659,-2.33585,0.678496,0.0998525,0.236915,-0.0356962,0.0564829,0.0490993,-0.144418,0.0101938,0.101033,5,0.1,9,3.7,4.63523,0.846641,0.627768,-0.0293553,-0.0238557,0.000286382,0.115693,0.0941269,-0.00112876,0.0079293,0.000547718,5,0.1
0,3.8,2.04499,1.82914,0.563432,-0.00638962,-0.00130236,0.000143051,0.013113,0.002563,-0.000327826,0.00728812,9.67265e-06,5,0.1,1,3.8,0.86144,-2.0697,0.629272,-0.0641614,0.284731,0.0258505,-0.348151,0.623226,0.0407398,0.00614394,0.200822,5,0.1,2,3.8,3.3468,-4.02439,0.599778,-0.788659,0.128865,0.000309944,-0.759125,0.128746,-0.00107288,0.0203206,1.26352,5,0.1,3,3.8,0.282934,1.23753,0.603625,-0.0278831,-0.522754,-0.00357032,-0.12517,-0.273168,0.00369549,0.00839109,0.631123,5,0.1,4,3.8,-3.35172,2.25748,0.61329,0.136274,-0.0185728,-0.000834465,-0.267148,0.0345707,0.00157952,0.00772677,0.000830103,5,0.1,5,3.8,0.897848,-2.38368,0.599856,-0.00505596,0.133699,-0.000657141,0.0343323,0.502706,0.00238419,0.0097429,0.0947684,5,0.1,6,3.8,-0.163457,3.42481,0.745925,0.167922,-0.86599,0.00163764,0.0423715,-0.000715256,-0.00277162,0.0286991,2.25169,5,0.1,7,3.8,1.9301,-2.26488,0.599031,-0.088346,-0.250125,0.00174344,0.0517964,0.294209,-0.00190735,0.0073824,0.194448,5,0.1,8,3.8,-1.33649,-2.31194,0.674231,0.100678,0.240666,-0.0491902,-0.0369549,0.0121593,-0.119537,0.0073751,0.0655589,5,0.1,9,3.8,4.63283,0.844695,0.627791,-0.0189424,-0.0153899,0.000184774,0.092268,0.0751317,-0.00089407,0.00753315,0.000334193,5,0.1
0,3.9,2.04441,1.82902,0.563444,-0.00501536,-0.00103079,0.00010971,0.0140518,0.00280142,-0.000327826,0.00728812,9.67265e-06,5,0.1,1,3.9,0.853574,-2.03822,0.632066,-0.0904,0.343145,0.0300146,-0.181761,0.521362,0.039909,0.00614394,0.200822,5,0.1,2,3.9,3.26472,-4.01086,0.599804,-0.846731,0.141589,0.000219047,-0.39047,0.116512,-0.000759959,0.0203206,1.26352,5,0.1,3,3.9,0.279514,1.18372,0.603285,-0.0404582,-0.554051,-0.00323467,-0.120996,-0.313051,0.00312179,0.00839109,0.631123,5,0.1,4,3.9,-3.3394,2.25579,0.613214,0.110417,-0.0152115,-0.000681635,-0.249058,0.0325292,0.00147149,0.00772677,0.000830103,5,0.1,5,3.9,0.897502,-2.3678,0.599802,-0.00199853,0.183392,-0.000426266,0.0267439,0.469476,0.00220165,0.0097429,0.0947684,5,0.1,6,3.9,-0.146405,3.33821,0.746076,0.173327,-0.866023,0.00141142,0.0546854,-8.9407e-05,-0.00184402,0.0286991,2.25169,5,0.1,7,3.9,1.92165,-2.28847,0.599196,-0.0796637,-0.221939,0.00155987,0.116907,0.273585,-0.00179932,0.0073824,0.194448,5,0.1,8,3.9,-1.32676,-2.28781,0.668735,0.0925777,0.24162,-0.0604052,-0.118889,-0.00362098,-0.100225,0.0073751,0.0655589,5,0.1,9,3.9,4.63137,0.843505,0.627806,-0.0107028,-0.00868328,0.000104867,0.0725091,0.0589713,-0.000700355,0.00753315,0.000334193,5,0.1
0,4,2.04398,1.82893,0.563454,-0.00363588,-0.000753999,7.7486e-05,0.0133514,0.00268221,-0.000298023,0.00814209,8.646e-06,5,0.1,1,4,0.843864,-2.00162,0.635248,-0.101531,0.385064,0.0333875,-0.0459254,0.30148,0.0256598,0.00666416,0.160296,5,0.1,2,4,3.17876,-3.9962,0.599822,-0.866026,0.150603,0.000154972,0,0.0573397,-0.000536442,0.0179128,1.17571,5,0.1,3,4,0.274906,1.12695,0.602977,-0.0511728,-0.578597,-0.00292659,-0.0895411,-0.149906,0.00306964,0.00922239,0.657928,5,0.1,4,4,-3.32957,2.25443,0.613153,0.0866294,-0.0120878,-0.000540912,-0.226021,0.0299215,0.0013411,0.00923183,0.000751778,5,0.1,5,4,0.897423,-2.34731,0.599769,0.000286102,0.223953,-0.000222027,0.0189841,0.326991,0.00181794,0.00980898,0.125625,5,0.1,6,4,-0.128852,3.2516,0.746209,0.176978,-0.866026,0.0012517,0.0105798,0,-0.00140071,0.0264348,2.25081,5,0.1,7,4,1.91434,-2.3093,0.599343,-0.0658989,-0.194734,0.00137985,0.153899,0.272989,-0.00184774,0.00727175,0.190091,5,0.1,8,4,-1.31818,-2.26376,0.662256,0.0780523,0.238186,-0.0684828,-0.166297,-0.0718832,-0.0583827,0.00840768,0.20283,5,0.1,9,4,4.63063,0.842905,0.627813,-0.00443459,-0.0035882,4.32134e-05,0.0529289,0.0430644,-0.000476837,0.00755464,0.000155454,5,0.1
0,4.1,2.04369,1.82887,0.56346,-0.00234284,-0.00049267,4.88013e-05,0.0122935,0.00251085,-0.000268221,0.00814209,8.646e-06,5,0.1,1,4.1,0.833566,-1.96166,0.638725,-0.103566,0.41322,0.0362043,0.00532717,0.239879,0.027854,0.00666416,0.160296,5,0.1,2,4.1,3.09216,-3.98086,0.599835,-0.865651,0.155953,0.000111572,0.0149906,0.0423193,-0.000342727,0.0179128,1.17571,5,0.1,3,4.1,0.269351,1.06812,0.602699,-0.059715,-0.598992,-0.0026484,-0.0771713,-0.216708,0.00258163,0.00922239,0.657928,5,0.1,4,4.1,-3.32199,2.25336,0.613105,0.0653055,-0.00925213,-0.000414159,-0.199571,0.0266731,0.00118837,0.00923183,0.000751778,5,0.1,5,4.1,0.897536,-2.32322,0.599756,0.0018619,0.257823,-5.83939e-05,0.0126213,0.327617,0.00144914,0.00980898,0.125625,5,0.1,6,4.1,-0.111047,3.165,0.746329,0.179388,-0.866026,0.00114823,0.0268053,0,-0.000763685,0.0264348,2.25081,5,0.1,7,4.1,1.90856,-2.32744,0.599472,-0.0494266,-0.16845,0.00120094,0.169881,0.254527,-0.00173971,0.00727175,0.190091,5,0.1,8,4.1,-1.31126,-2.24035,0.655157,0.0600392,0.229547,-0.073038,-0.187986,-0.105768,-0.0306368,0.00840768,0.20283,5,0.1,9,4.1,4.63042,0.84274,0.627815,7.6741e-05,8.12113e-05,2.23517e-06,0.0375211,0.0304729,-0.000342727,0.00755464,0.000155454,5,0.1
0,4.2,2.04351,1.82883,0.563464,-0.00120997,-0.00026226,2.5332e-05,0.010252,0.00208616,-0.000268221,0.00742466,5.86226e-06,5,0.1,1,4.2,0.823321,-1.91938,0.64247,-0.100502,0.42941,0.0384778,0.0554621,0.0693798,0.0156462,0.00910044,0.147252,5,0.1,2,4.2,3.00579,-3.96512,0.599845,-0.860035,0.157839,8.34465e-05,0.119925,-0.00965595,-0.000208616,0.0178074,0.865129,5,0.1,3,4.2,0.263042,1.00731,0.602446,-0.0659153,-0.614893,-0.00239611,-0.0440478,-0.0721514,0.0025928,0.00845294,0.479324,5,0.1,4,4.2,-3.31641,2.25257,0.613069,0.0468493,-0.00676513,-0.000302494,-0.16892,0.022769,0.000983477,0.00864878,0.000577936,5,0.1,5,4.2,0.897775,-2.29596,0.599756,0.00283122,0.285596,6.55651e-05,0.00691414,0.211954,0.00101328,0.00936815,0.19858,5,0.1,6,4.2,-0.09302,3.0784,0.74644,0.180497,-0.866026,0.0010848,-0.0122339,0,-0.000596046,0.027127,2.25077,5,0.1,7,4.2,1.90446,-2.34303,0.599584,-0.0328928,-0.14354,0.00103116,0.15676,0.244737,-0.00172853,0.00687392,0.188862,5,0.1,8,4.2,-1.30619,-2.21801,0.647759,0.0414968,0.216264,-0.0742882,-0.178576,-0.162601,0.00673532,0.00705705,0.193314,5,0.1,9,4.2,4.63059,0.84288,0.627814,0.00311136,0.00254214,-2.68221e-05,0.023365,0.0189543,-0.000178814,0.00741138,5.4667e-05,5,0.1
0,4.3,2.04344,1.82882,0.563465,-0.000269711,-6.98492e-05,1.67638e-06,0.00843406,0.00173599,-0.000201166,0.00742466,5.86226e-06,5,0.1,1,4.3,0.813513,-1.87605,0.646414,-0.0958849,0.437154,0.0405063,0.041455,0.0631288,0.0217296,0.00910044,0.147252,5,0.1,2,4.3,2.92015,-3.94939,0.599853,-0.853972,0.156698,6.80797e-05,0.0469834,-0.019148,-0.000108033,0.0178074,0.865129,5,0.1,3,4.3,0.256398,0.945365,0.602219,-0.0654568,-0.624082,-0.00216253,0.0466108,-0.0789575,0.00215322,0.00845294,0.479324,5,0.1,4,4.3,-3.31253,2.252,0.613044,0.0313494,-0.00466369,-0.00021141,-0.140622,0.0192076,0.000834465,0.00864878,0.000577936,5,0.1,5,4.3,0.898086,-2.26612,0.599768,0.0033251,0.312505,0.000152458,0.00306591,0.294372,0.000718981,0.00936815,0.19858,5,0.1,6,4.3,-0.0749707,2.9918,0.746547,0.180823,-0.866026,0.00105062,0.00808619,0,-0.000167638,0.027127,2.25077,5,0.1,7,4.3,1.9019,-2.3562,0.599678,-0.018706,-0.120182,0.00086613,0.124447,0.223115,-0.00157952,0.00687392,0.188862,5,0.1,8,4.3,-1.30289,-2.19723,0.640399,0.0249991,0.198904,-0.0725433,-0.14805,-0.186205,0.028789,0.00705705,0.193314,5,0.1,9,4.3,4.631,0.843215,0.62781,0.00490993,0.00399956,-4.07919e-05,0.0129342,0.010442,-0.000104308,0.00741138,5.4667e-05,5,0.1
0,4.4,2.04345,1.82882,0.563464,0.000458956,8.04663e-05,-1.49012e-05,0.00607967,0.0013113,-0.000178814,0.00837243,2.92761e-06,5,0.1,1,4.4,0.804139,-1.83218,0.650562,-0.091435,0.438267,0.0422806,0.050813,-0.0561476,0.0114143,0.0125243,1.7811,5,0.1,2,4.4,2.83518,-3.93387,0.599859,-0.842881,0.153023,5.96046e-05,0.20659,-0.0585318,-2.98023e-05,0.0177225,0.614508,5,0.1,3,4.4,0.250189,0.882769,0.602013,-0.0578064,-0.625165,-0.00195205,0.100881,0.0798404,0.00211596,0.00856532,0.509485,5,0.1,4,4.4,-3.31004,2.25162,0.613027,0.0187933,-0.00293851,-0.000135601,-0.110388,0.015378,0.000655651,0.0104511,0.000337284,5,0.1,5,4.4,0.898428,-2.23348,0.599786,0.00346303,0.338984,0.000210106,-0.000178814,0.212193,0.000417233,0.009878,0.12151,5,0.1,6,4.4,-0.056886,2.90519,0.746651,0.180295,-0.866026,0.00103712,-0.0261778,0,-0.000208616,0.0261959,2.25123,5,0.1,7,4.4,1.90059,-2.36714,0.599757,-0.00834167,-0.0988007,0.000713766,0.0821352,0.20504,-0.00143051,0.00836101,0.320567,5,0.1,8,4.4,-1.30106,-2.17832,0.633329,0.012359,0.178796,-0.0684544,-0.103295,-0.216603,0.0531971,0.00860396,0.189473,5,0.1,9,4.4,4.63155,0.843655,0.627806,0.00575781,0.00468045,-4.91738e-05,0.00405312,0.00339746,0,0.0062441,1.62038e-05,5,0.1
0,4.5,2.04352,1.82883,0.563462,0.000979751,0.000193343,-2.93367e-05,0.00429153,0.000938773,-0.000115484,0.00837243,2.92761e-06,5,0.1,1,4.5,0.795539,-1.79025,0.654732,-0.0780893,0.386339,0.040113,0.199955,-0.896178,-0.0495613,0.0125243,1.7811,5,0.1,2,4.5,2.75177,-3.91885,0.599865,-0.82569,0.147323,5.87665e-05,0.173897,-0.0603944,1.11759e-05,0.0177225,0.614508,5,0.1,3,4.5,0.244977,0.820436,0.601828,-0.045933,-0.622733,-0.00176206,0.13181,0.00496954,0.00175089,0.00856532,0.509485,5,0.1,4,4.5,-3.30867,2.2514,0.613016,0.00901148,-0.00156574,-7.66478e-05,-0.085175,0.012055,0.000525266,0.0104511,0.000337284,5,0.1,5,4.5,0.898769,-2.19851,0.599809,0.00331635,0.359728,0.000241958,-0.00261143,0.182405,0.000216067,0.009878,0.12151,5,0.1,6,4.5,-0.0389218,2.81859,0.746754,0.179373,-0.866026,0.00103479,-0.00279889,0,8.56817e-05,0.0261959,2.25123,5,0.1,7,4.5,1.9001,-2.37604,0.599822,-0.0019433,-0.0796366,0.000577979,0.0471547,0.178769,-0.0012815,0.00836101,0.320567,5,0.1,8,4.5,-1.30026,-2.16153,0.626769,0.00446215,0.156882,-0.0625449,-0.0560731,-0.221774,0.0648983,0.00860396,0.189473,5,0.1,9,4.5,4.63213,0.844131,0.627801,0.00585392,0.00476586,-4.75906e-05,-0.00181794,-0.00142679,2.6077e-05,0.0062441,1.62038e-05,5,0.1
0,4.6,2.04364,1.82886,0.563459,0.00131726,0.000268221,-3.72529e-05,0.00238419,0.000476837,-2.98023e-05,0.00856429,1.06107e-06,5,0.1,1,4.6,0.788866,-1.75689,0.658431,-0.0543416,0.274539,0.033313,0.262111,-1.27083,-0.082165,0.0162498,2.07712,5,0.1,2,4.6,2.67027,-3.90446,0.599871,-0.801921,0.140131,5.96046e-05,0.326633,-0.0869036,2.98023e-05,0.0175286,0.425594,5,0.1,3,4.6,0.241061,0.758306,0.60166,-0.0322968,-0.618002,-0.00159144,0.137158,0.115126,0.00166893,0.0091608,0.583946,5,0.1,4,4.6,-3.30816,2.2513,0.613011,0.00174046,-0.000530481,-3.12924e-05,-0.0602007,0.00882149,0.00038743,0.00780051,0.000147548,5,0.1,5,4.6,0.899085,-2.16181,0.599834,0.00296831,0.372058,0.00025481,-0.00420213,0.0504255,0,0.00886116,0.0726774,5,0.1,6,4.6,-0.0210306,2.73199,0.746858,0.177936,-0.866026,0.0010401,-0.0333902,0,-2.98023e-05,0.0258241,2.25195,5,0.1,7,4.6,1.90009,-2.38315,0.599873,0.00135005,-0.0629425,0.000457466,0.0199676,0.155449,-0.00113249,0.00820902,0.315906,5,0.1,8,4.6,-1.30003,-2.14696,0.620857,0.00076592,0.134462,-0.0555113,-0.020206,-0.226378,0.0754297,0.0104493,0.188194,5,0.1,9,4.6,4.6327,0.844594,0.627796,0.00545979,0.00444353,-4.32134e-05,-0.00572205,-0.00473857,2.98023e-05,0.00799928,8.24912e-06,5,0.1
0,4.7,2.04378,1.82888,0.563455,0.00148863,0.00030268,-3.85568e-05,0.00107288,0.000216067,0,0.00856429,1.06107e-06,5,0.1,1,4.7,0.784644,-1.73585,0.661363,-0.0310755,0.146583,0.0254478,0.203598,-1.25701,-0.0746772,0.0162498,2.07712,5,0.1,2,4.7,2.59158,-3.89086,0.599877,-0.772169,0.131883,6.32368e-05,0.298202,-0.0821352,3.35276e-05,0.0175286,0.425594,5,0.1,3,4.7,0.238683,0.696803,0.601509,-0.0139512,-0.613862,-0.00144141,0.216411,0.0064373,0.00138208,0.0091608,0.583946,5,0.1,4,4.7,-3.30825,2.25128,0.61301,-0.00330545,0.000218302,2.04891e-06,-0.0409931,0.00616908,0.000275671,0.00780051,0.000147548,5,0.1,5,4.7,0.899359,-2.12465,0.599843,0.00248933,0.368483,-0.000195857,-0.00523403,-0.120297,-0.008028,0.00886116,0.0726774,5,0.1,6,4.7,-0.00333576,2.64538,0.746962,0.176374,-0.866026,0.00105118,-0.00823472,0,0.000175089,0.0258241,2.25195,5,0.1,7,4.7,1.90038,-2.3887,0.599914,0.00477042,-0.0485037,0.000352599,0.0386164,0.13344,-0.000968575,0.00820902,0.315906,5,0.1,8,4.7,-1.30002,-2.13463,0.615688,-0.000340864,0.112347,-0.0478457,-0.00375509,-0.215471,0.077527,0.0104493,0.188194,5,0.1,9,4.7,4.63321,0.845011,0.627792,0.00474751,0.00385651,-3.90224e-05,-0.00828505,-0.0067763,4.84288e-05,0.00799928,8.24912e-06,5,0.1
0,4.8,2.04393,1.82891,0.563451,0.00153184,0.000312924,-3.57628e-05,-0.000238419,-5.96046e-05,0,0.00750817,2.82744e-07,5,0.1,1,4.8,0.782461,-1.72724,0.66355,-0.0135168,0.0285447,0.0184551,0.148207,-1.08111,-0.0648201,0.00527708,0.561609,5,0.1,2,4.8,2.51601,-3.8781,0.599883,-0.737268,0.123018,6.55651e-05,0.420332,-0.0981092,2.98023e-05,0.0162667,0.289655,5,0.1,3,4.8,0.23841,0.63553,0.601371,0.00862926,-0.61007,-0.00130534,0.22497,0.0970066,0.0013113,0.0115582,0.429465,5,0.1,4,4.8,-3.30876,2.25133,0.613011,-0.00650883,0.000715256,2.5332e-05,-0.0236034,0.00369549,0.000149012,0.00776759,4.90189e-05,5,0.1,5,4.8,0.899581,-2.08867,0.599777,0.00194609,0.348473,-0.00117421,-0.00545382,-0.276804,-0.0107586,0.0112399,0.0872945,5,0.1,6,4.8,0.0142323,2.55878,0.747068,0.174515,-0.866026,0.00106245,-0.0363222,0,0,0.0250902,2.25278,5,0.1,7,4.8,1.90102,-2.39292,0.599944,0.00751615,-0.0362277,0.000263751,0.0106096,0.112057,-0.000804663,0.0109149,0.298328,5,0.1,8,4.8,-1.30006,-2.12445,0.611292,-0.000298023,0.0914514,-0.0400767,0.00315905,-0.201941,0.0775158,0.00874496,0.316637,5,0.1,9,4.8,4.63364,0.845361,0.627789,0.0038743,0.00313073,-3.42727e-05,-0.00953674,-0.00759959,8.9407e-05,0.00733127,7.56333e-06,5,0.1
0,4.9,2.04408,1.82895,0.563447,0.00146814,0.000299327,-3.41795e-05,-0.000998378,-0.000201166,2.6077e-05,0.00750817,2.82744e-07,5,0.1,1,4.9,0.781475,-1.72811,0.665242,-0.00942852,-0.0311811,0.0168457,-0.046663,-0.187755,0.0230484,0.00527708,0.561609,5,0.1,2,4.9,2.44426,-3.86626,0.59989,-0.698355,0.113843,6.84522e-05,0.382438,-0.0888556,2.6077e-05,0.0162667,0.289655,5,0.1,3,4.9,0.240442,0.574858,0.601247,0.0321971,-0.604054,-0.00118725,0.236394,0.0541322,0.00109524,0.0115582,0.429465,5,0.1,4,4.9,-3.3095,2.25142,0.613014,-0.00821501,0.000993907,3.70666e-05,-0.0109375,0.00193715,8.19564e-05,0.00776759,4.90189e-05,5,0.1,5,4.9,0.899748,-2.05551,0.599565,0.00141216,0.311955,-0.00341041,-0.00513718,-0.440821,-0.0310279,0.0112399,0.0872945,5,0.1,6,4.9,0.031571,2.47218,0.747175,0.172685,-0.866026,0.00107428,-0.0104686,0,0.000160187,0.0250902,2.25278,5,0.1,7,4.9,1.90187,-2.39602,0.599967,0.00920203,-0.0260476,0.000190549,0.000618398,0.0917464,-0.000655651,0.0109149,0.298328,5,0.1,8,4.9,-1.30018,-2.11628,0.607664,-0.00270177,0.0723049,-0.0325584,-0.039123,-0.180662,0.0725649,0.00874496,0.316637,5,0.1,9,4.9,4.63398,0.845635,0.627786,0.00290349,0.00235261,-2.57976e-05,-0.00968575,-0.00779703,7.82311e-05,0.00733127,7.56333e-06,5,0.1
0,5,2.04422,1.82897,0.563444,0.00133514,0.000271201,-2.98023e-05,-0.00154972,-0.000298023,2.98023e-05,0.00762931,1.13837e-07,5,0.1,1,5,0.780112,-1.7312,0.667121,-0.0193089,-0.0224411,0.0213549,-0.135392,0.302613,0.0596941,0.00598859,0.364957,5,0.1,2,5,2.37644,-3.85533,0.599897,-0.656652,0.104672,7.00355e-05,0.468254,-0.0970364,2.98023e-05,0.0162899,0.504527,5,0.1,3,5,0.244795,0.514859,0.601134,0.0541855,-0.594015,-0.00107884,0.196129,0.168159,0.00107288,0.00869094,0.533195,5,0.1,4,5,-3.31036,2.25152,0.613018,-0.0087738,0.00111461,4.32134e-05,-0.000596046,0.000357628,2.98023e-05,0.00806156,1.49603e-05,5,0.1,5,5,0.899865,-2.0267,0.599055,0.000932813,0.262696,-0.006859,-0.00435114,-0.533223,-0.0356734,0.009856,0.138961,5,0.1,6,5,0.0487614,2.38558,0.747283,0.170676,-0.866026,0.00108331,-0.0369531,0,-5.96046e-05,0.0286265,2.25363,5,0.1,7,5,1.90264,-2.39819,0.599983,0.00452101,-0.0178337,0.00013113,-0.102937,0.0727177,-0.000506639,0.00928413,0.259667,5,0.1,8,5,-1.30063,-2.10991,0.604761,-0.00616014,0.0553668,-0.0256166,-0.0225902,-0.157714,0.0660717,0.00897969,0.29954,5,0.1,9,5,4.63423,0.845832,0.627783,0.00196695,0.00160038,-1.78814e-05,-0.00882149,-0.00712276,8.9407e-05,0.00767553,6.25337e-06,5,0.1
0,5.1,2.04435,1.829,0.563441,0.00116304,0.00023786,-2.58908e-05,-0.00187755,-0.000365078,5.21541e-05,0.00762931,1.13837e-07,5,0.1,1,5.1,0.777307,-1.73129,0.669662,-0.0383175,0.0258451,0.0302738,-0.227306,0.613891,0.109226,0.00598859,0.364957,5,0.1,2,5.1,2.31269,-3.84532,0.599904,-0.62151,0.0956915,7.24569e-05,0.273198,-0.0854731,1.49012e-05,0.0162899,0.504527,5,0.1,3,5.1,0.251125,0.456043,0.601031,0.0716335,-0.583968,-0.000981893,0.14926,0.0674799,0.000897795,0.00869094,0.533195,5,0.1,4,5.1,-3.31123,2.25164,0.613023,-0.00847206,0.00110045,4.40516e-05,0.00622869,-0.000596046,-1.11759e-05,0.00806156,1.49603e-05,5,0.1,5,5.1,0.899938,-2.00261,0.598222,0.000547711,0.223384,-0.00951486,-0.00332668,-0.278324,-0.0180416,0.009856,0.138961,5,0.1,6,5.1,0.0657125,2.29897,0.747392,0.16877,-0.866026,0.00108853,-0.0111582,0,9.68575e-05,0.0286265,2.25363,5,0.1,7,5.1,1.90246,-2.39964,0.599994,-0.0102283,-0.0113875,8.61473e-05,-0.223525,0.0564456,-0.000398606,0.00928413,0.259667,5,0.1,8,5.1,-1.30141,-2.10513,0.602516,-0.00917334,0.0407983,-0.0194146,-0.0142828,-0.133559,0.0578202,0.00897969,0.29954,5,0.1,9,5.1,4.63438,0.845958,0.627782,0.00112802,0.00092024,-9.87202e-06,-0.00786781,-0.00637397,6.70552e-05,0.00767553,6.25337e-06,5,0.1
0,5.2,2.04445,1.82902,0.563439,0.000965595,0.000199676,-2.08616e-05,-0.00202656,-0.000417233,2.98023e-05,0.0067896,1.11333e-07,5,0.1,1,5.2,0.772305,-1.72546,0.673253,-0.0617072,0.0916511,0.0415444,-0.227332,0.664651,0.109076,0.00852489,0.265745,5,0.1,2,5.2,2.25184,-3.83618,0.599912,-0.595343,0.0870824,7.30157e-05,0.278354,-0.0885725,-2.98023e-05,0.0169286,3.02716,5,0.1,3,5.2,0.258933,0.39805,0.600937,0.0834644,-0.574575,-0.00089407,0.0852048,0.145093,0.000923872,0.0107556,1.11581,5,0.1,4,5.2,-3.31204,2.25174,0.613027,-0.00761151,0.00100732,4.32134e-05,0.0107288,-0.00119209,-8.9407e-05,0.00839334,9.10647e-06,5,0.1,5,5.2,0.899978,-1.98141,0.597205,0.000268221,0.202537,-0.0105828,-0.00226498,-0.15825,-0.0038743,0.0124187,0.248671,5,0.1,6,5.2,0.0825093,2.21237,0.747501,0.166736,-0.866026,0.00109076,-0.0366196,0,-0.000119209,0.0286071,2.25448,5,0.1,7,5.2,1.9,-2.40052,0.600001,-0.0419617,-0.00649095,5.06639e-05,-0.397563,0.041604,-0.000268221,0.0089674,0.198827,5,0.1,8,5.2,-1.30224,-2.10167,0.600849,-0.00574887,0.0286579,-0.0140756,0.09197,-0.109434,0.0488758,0.0116102,0.261212,5,0.1,9,5.2,4.63446,0.84602,0.627781,0.000417233,0.000341237,-4.47035e-06,-0.00619888,-0.0050962,5.96046e-05,0.00780907,3.84597e-06,5,0.1
0,5.3,2.04454,1.82904,0.563437,0.000761822,0.000158139,-1.73226e-05,-0.00204146,-0.000409782,4.47035e-05,0.0067896,1.11333e-07,5,0.1,1,5.3,0.764894,-1.71287,0.678027,-0.0871561,0.160423,0.0544245,-0.265539,0.680082,0.138793,0.00852489,0.265745,5,0.1,2,5.3,2.19431,-3.82676,0.599919,-0.549944,0.111118,6.94767e-05,0.605077,0.495389,-4.47035e-05,0.0169286,3.02716,5,0.1,3,5.3,0.267418,0.341173,0.600852,0.0838633,-0.563711,-0.000811182,-0.0576936,0.0998841,0.00076741,0.0107556,1.11581,5,0.1,4,5.3,-3.31274,2.25184,0.613031,-0.00639856,0.000866503,3.43658e-05,0.0131726,-0.00157952,-8.56817e-05,0.00839334,9.10647e-06,5,0.1,5,5.3,0.899995,-1.96138,0.596148,9.42498e-05,0.202811,-0.0103586,-0.0012666,0.124171,0.00755861,0.0124187,0.248671,5,0.1,6,5.3,0.0990665,2.12577,0.747609,0.164825,-0.866026,0.00108974,-0.0113491,0,3.35276e-05,0.0286071,2.25448,5,0.1,7,5.3,1.89347,-2.40098,0.600004,-0.0912393,-0.00292286,2.72878e-05,-0.551961,0.0300109,-0.000204891,0.0089674,0.198827,5,0.1,8,5.3,-1.30223,-2.09932,0.599672,0.00815783,0.0188041,-0.00961097,0.217609,-0.0877529,0.0403784,0.0116102,0.261212,5,0.1,9,5.3,4.63447,0.84603,0.627781,-0.000143051,-0.000119396,5.58794e-07,-0.00494719,-0.00406057,3.72529e-05,0.00780907,3.84597e-06,5,0.1
0,5.4,2.04461,1.82905,0.563436,0.000572205,0.000116229,-1.3411e-05,-0.00202656,-0.000298023,8.9407e-05,0.0103955,1.14398e-07,5,0.1,1,5.4,0.754896,-1.69361,0.684146,-0.112033,0.222406,0.0676185,-0.220299,0.537753,0.117898,0.00610878,0.207397,5,0.1,2,5.4,2.14271,-3.81271,0.599925,-0.478852,0.173038,6.4075e-05,0.79608,0.685692,-5.96046e-05,0.0192155,3.11882,5,0.1,3,5.4,0.275408,0.285412,0.600775,0.0752158,-0.549901,-0.000736117,-0.101909,0.195637,0.00077486,0.0108009,2.82992,5,0.1,4,5.4,-3.31331,2.25191,0.613034,-0.00503659,0.000697374,2.68221e-05,0.0137091,-0.00166893,-5.96046e-05,0.00763472,8.75577e-06,5,0.1,5,5.4,0.9,-1.94028,0.595164,5.96046e-06,0.2204,-0.00921786,-0.000536442,0.197411,0.0146031,0.01209,0.0781116,5,0.1,6,5.4,0.115469,2.03917,0.747718,0.162798,-0.866026,0.00108629,-0.0361016,5.96046e-05,-0.000149012,0.0263545,2.48292,5,0.1,7,5.4,1.88157,-2.40114,0.600006,-0.146061,-0.000435114,1.04308e-05,-0.517607,0.019908,-0.000119209,0.0106926,0.134936,5,0.1,8,5.4,-1.3,-2.09784,0.598898,0.0395358,0.0110805,-0.00600368,0.396132,-0.0669956,0.0317991,0.00767906,0.200185,5,0.1,9,5.4,4.63443,0.846,0.627782,-0.000560284,-0.000463426,2.98023e-06,-0.00333786,-0.00280142,5.96046e-05,0.00829164,1.75677e-06,5,0.1
0,5.5,2.04465,1.82906,0.563435,0.00038147,8.64267e-05,-5.40167e-06,-0.00175834,-0.000298023,6.70552e-05,0.0103955,1.14398e-07,5,0.1,1,5.5,0.742527,-1.66876,0.691553,-0.135608,0.273269,0.0808155,-0.235792,0.459045,0.136174,0.00610878,0.207397,5,0.1,2,5.5,2.09919,-3.79148,0.599931,-0.38861,0.254947,5.81145e-05,0.965834,0.893429,-5.96046e-05,0.0192155,3.11882,5,0.1,3,5.5,0.282089,0.231299,0.600704,0.0568721,-0.532785,-0.000666641,-0.197345,0.169025,0.00064075,0.0108009,2.82992,5,0.1,4,5.5,-3.31375,2.25198,0.613036,-0.00366457,0.000526756,2.08616e-05,0.0134856,-0.00169873,-5.96046e-05,0.00763472,8.75577e-06,5,0.1,5,5.5,0.899998,-1.91717,0.594335,-3.50177e-05,0.242132,-0.00720164,-0.000290573,0.216112,0.0243597,0.01209,0.0781116,5,0.1,6,5.5,0.131633,1.95332,0.747827,0.160887,-0.843741,0.00108192,-0.0116085,0.431076,-3.72529e-06,0.0263545,2.48292,5,0.1,7,5.5,1.86436,-2.4011,0.600007,-0.197935,0.00111721,2.79397e-07,-0.496551,0.0114888,-8.56817e-05,0.0106926,0.134936,5,0.1,8,5.5,-1.29371,-2.09704,0.598445,0.0888349,0.00522956,-0.00318252,0.5536,-0.0502169,0.0246465,0.00767906,0.200185,5,0.1,9,5.5,4.63436,0.845941,0.627782,-0.00083968,-0.000697002,7.35745e-06,-0.00223517,-0.00185519,3.35276e-05,0.00829164,1.75677e-06,5,0.1
0,5.6,2.04468,1.82907,0.563434,0.000220537,5.96046e-05,0,-0.00143051,-0.000298023,5.96046e-05,0.00940892,7.61564e-08,5,0.1,1,5.6,0.727865,-1.6394,0.700279,-0.156555,0.310799,0.0931576,-0.172228,0.277877,0.103563,0.00579962,0.174061,5,0.1,2,5.6,2.06516,-3.76157,0.599937,-0.292927,0.341457,5.21541e-05,0.918508,0.793219,-5.96046e-05,0.0178646,3.14685,5,0.1,3,5.6,0.287045,0.178971,0.600641,0.045684,-0.512322,-0.000604987,0.00531971,0.255607,0.000655651,0.0119351,2.57621,5,0.1,4,5.6,-3.31405,2.25202,0.613038,-0.00238419,0.000357628,1.63913e-05,0.0119209,-0.00143051,-8.9407e-05,0.00726126,6.9181e-06,5,0.1,5,5.6,0.899993,-1.89198,0.593743,-5.51343e-05,0.260043,-0.00458658,-8.9407e-05,0.127375,0.0268221,0.0121198,0.113799,5,0.1,6,5.6,0.14764,1.87171,0.747935,0.158855,-0.78274,0.00107437,-0.0357777,0.774145,-0.000178814,0.0242483,2.9104,5,0.1,7,5.6,1.84227,-2.40094,0.600006,-0.241411,0.00193119,-5.96046e-06,-0.356734,0.00500679,-5.96046e-05,0.0108497,0.112637,5,0.1,8,5.6,-1.28205,-2.09674,0.598238,0.143927,0.000995398,-0.00106543,0.521064,-0.0346899,0.017792,0.00880118,0.13603,5,0.1,9,5.6,4.63427,0.845864,0.627783,-0.000989437,-0.000832975,8.9407e-06,-0.00143051,-0.00089407,2.98023e-05,0.00813418,6.64149e-07,5,0.1
0,5.7,2.0447,1.82908,0.563435,9.16421e-05,3.18512e-05,5.02914e-06,-0.00116229,-0.000245869,3.72529e-05,0.00940892,7.61564e-08,5,0.1,1,5.7,0.711285,-1.60701,0.710162,-0.175287,0.335825,0.104721,-0.186756,0.206523,0.117663,0.00579962,0.174061,5,0.1,2,5.7,2.04043,-3.72329,0.599942,-0.203406,0.424692,4.66593e-05,0.814363,0.822797,-4.84288e-05,0.0178646,3.14685,5,0.1,3,5.7,0.291931,0.128928,0.600583,0.05721,-0.488952,-0.000546686,0.305539,0.230057,0.000528991,0.0119351,2.57621,5,0.1,4,5.7,-3.31423,2.25205,0.613039,-0.00126027,0.000219047,8.6613e-06,0.0104159,-0.0013113,-7.07805e-05,0.00726126,6.9181e-06,5,0.1,5,5.7,0.899988,-1.8652,0.593417,-5.85802e-05,0.276374,-0.00195224,1.11759e-05,0.175968,0.0252947,0.0121198,0.113799,5,0.1,6,5.7,0.163409,1.79816,0.748042,0.156897,-0.681377,0.00106655,-0.0125235,1.19134,-4.47035e-05,0.0242483,2.9104,5,0.1,7,5.7,1.81631,-2.40074,0.600006,-0.277539,0.00217482,-1.03377e-05,-0.341915,0.000208616,-3.35276e-05,0.0108497,0.112637,5,0.1,8,5.7,-1.26502,-2.0968,0.598212,0.196207,-0.00188947,0.000448991,0.501059,-0.0232458,0.012558,0.00880118,0.13603,5,0.1,9,5.7,4.63416,0.845777,0.627784,-0.00108331,-0.00088755,1.07102e-05,-0.000476837,-0.000208616,1.11759e-05,0.00813418,6.64149e-07,5,0.1
0,5.8,2.0447,1.82908,0.563435,-5.96046e-06,1.19209e-05,7.45058e-06,-0.000834465,-0.000238419,2.98023e-05,0.00964483,3.81588e-08,5,0.1,1,5.8,0.692904,-1.57262,0.721178,-0.191233,0.349441,0.114971,-0.121117,0.0553727,0.080198,0.00664586,0.158851,5,0.1,2,5.8,2.02364,-3.67699,0.599946,-0.138277,0.497693,4.02331e-05,0.463367,0.602722,-2.98023e-05,0.0152304,3.02777,5,0.1,3,5.8,0.3,0.0812628,0.600531,0.111935,-0.463235,-0.000494719,0.760078,0.296781,0.000506639,0.00966528,2.25841,5,0.1,4,5.8,-3.31431,2.25206,0.61304,-0.000333786,9.53674e-05,2.98023e-06,0.00822544,-0.00107288,-5.96046e-05,0.00899338,4.10191e-06,5,0.1,5,5.8,0.899982,-1.83676,0.593342,-5.51343e-05,0.291249,0.000375509,0.000119209,0.104785,0.0208318,0.0105503,0.0957789,5,0.1,6,5.8,0.179013,1.73625,0.748148,0.154785,-0.555122,0.00105649,-0.0362247,1.28913,-0.000238419,0.0245797,3.24915,5,0.1,7,5.8,1.78703,-2.40052,0.600004,-0.305769,0.00203252,-1.3411e-05,-0.206292,-0.00286102,0,0.0125799,0.0559431,5,0.1,8,5.8,-1.24309,-2.09708,0.598311,0.240147,-0.00369549,0.00146031,0.361443,-0.0132322,0.0077486,0.0104285,0.113756,5,0.1,9,5.8,4.63405,0.845688,0.627785,-0.0010848,-0.000877678,1.04308e-05,0.000476837,0.00038743,0,0.00719251,1.77441e-07,5,0.1
0,5.9,2.0447,1.82908,0.563436,-7.6741e-05,-8.3819e-06,9.49949e-06,-0.000566244,-0.000171363,7.45058e-06,0.00964483,3.81588e-08,5,0.1,1,5.9,0.673094,-1.53741,0.733127,-0.205348,0.354134,0.124268,-0.144608,0.0236556,0.0953712,0.00664586,0.158851,5,0.1,2,5.9,2.01163,-3.62415,0.59995,-0.108979,0.558519,3.72529e-05,0.0482053,0.57213,-2.98023e-05,0.0152304,3.02777,5,0.1,3,5.9,0.31494,0.0363343,0.600484,0.186333,-0.435838,-0.000449363,0.72783,0.266227,0.000413507,0.00966528,2.25841,5,0.1,4,5.9,-3.3143,2.25207,0.61304,0.000398606,-2.6077e-06,-1.76951e-06,0.00634789,-0.000879169,-4.09782e-05,0.00899338,4.10191e-06,5,0.1,5,5.9,0.899977,-1.80699,0.593482,-4.1537e-05,0.304876,0.00239508,0.000149012,0.143953,0.0189878,0.0105503,0.0957789,5,0.1,6,5.9,0.194365,1.68738,0.748253,0.152603,-0.422535,0.00104243,-0.0159787,1.27854,-0.000100583,0.0245797,3.24915,5,0.1,7,5.9,1.75554,-2.40034,0.600003,-0.322643,0.00166818,-1.29454e-05,-0.119179,-0.00423193,1.11759e-05,0.0125799,0.0559431,5,0.1,8,5.9,-1.21723,-2.09751,0.598491,0.276767,-0.00465736,0.00207387,0.346899,-0.00622869,0.00456721,0.0104285,0.113756,5,0.1,9,5.9,4.63395,0.845603,0.627786,-0.0010103,-0.000818726,9.87202e-06,0.000953674,0.000771135,-1.49012e-05,0.00719251,1.77441e-07,5,0.1
0,6,2.04469,1.82908,0.563437,-0.000119209,-2.38419e-05,1.04308e-05,-0.000357628,-5.96046e-05,0,0.00717092,1.45921e-08,5,0.1,1,6,0.651909,-1.50203,0.745986,-0.217322,0.351706,0.132272,-0.0831187,-0.0818968,0.0573993,0.00616011,0.154841,5,0.1,2,6,2,-3.56577,0.599954,-0.132978,0.605071,3.42727e-05,-0.497222,0.329971,-2.98023e-05,0.0174138,2.74412,5,0.1,3,6,0.337136,-0.00586856,0.600441,0.256626,-0.407451,-0.000408292,0.669286,0.311818,0.00038743,0.00842208,1.95914,5,0.1,4,6,-3.31423,2.25206,0.613039,0.000923872,-8.34465e-05,-4.47035e-06,0.00429153,-0.000476837,-2.98023e-05,0.00768975,1.79631e-06,5,0.1,5,6,0.899974,-1.77587,0.59381,-2.68221e-05,0.315991,0.00407696,0.000149012,0.0616908,0.0142157,0.0121658,0.0472202,5,0.1,6,6,0.209522,1.65099,0.748356,0.150127,-0.311866,0.00102669,-0.0396222,0.894308,-0.000298023,0.0226955,3.34741,5,0.1,7,6,1.7229,-2.40019,0.600002,-0.32768,0.00121593,-1.19209e-05,0.0256896,-0.00441074,2.98023e-05,0.0123615,0.0833664,5,0.1,8,6,-1.188,-2.09799,0.598716,0.305471,-0.00498295,0.00238419,0.210822,-0.000476837,0.00166893,0.00826406,0.0565965,5,0.1,9,6,4.63385,0.845526,0.627787,-0.00089407,-0.000727177,7.45058e-06,0.00119209,0.00101328,0,0.00765362,1.0714e-07,5,0.1
0,6.1,2.04468,1.82907,0.563438,-0.000146031,-2.86847e-05,9.96515e-06,-0.000178814,-2.98023e-05,-1.11759e-05,0.00717092,1.45921e-08,5,0.1,1,6.1,0.629658,-1.46723,0.759561,-0.228275,0.34443,0.139539,-0.118069,-0.0780076,0.0770241,0.00616011,0.154841,5,0.1,2,6.1,1.98305,-3.50356,0.599957,-0.215302,0.638462,3.13856e-05,-1.05517,0.30081,-2.6077e-05,0.0174138,2.74412,5,0.1,3,6.1,0.365721,-0.0451457,0.600402,0.313275,-0.378679,-0.000373553,0.550697,0.276127,0.00031665,0.00842208,1.95914,5,0.1,4,6.1,-3.31412,2.25205,0.613039,0.00127219,-0.000125542,-6.51926e-06,0.00266731,-0.000372529,-7.45058e-06,0.00768975,1.79631e-06,5,0.1,5,6.1,0.899972,-1.74401,0.594283,-1.20141e-05,0.320528,0.00533434,0.000145286,0.0165775,0.0106432,0.0121658,0.0472202,5,0.1,6,6.1,0.224379,1.62345,0.748458,0.147262,-0.247044,0.00100527,-0.0251736,0.400566,-0.000178814,0.0226955,3.34741,5,0.1,7,6.1,1.69016,-2.40009,0.600001,-0.327608,0.000785664,-9.03383e-06,-0.00552088,-0.00409782,2.6077e-05,0.0123615,0.0833664,5,0.1,8,6.1,-1.15652,-2.09849,0.598959,0.322773,-0.00475422,0.00245273,0.123158,0.00467896,-0.000230968,0.00826406,0.0565965,5,0.1,9,6.1,4.63377,0.845458,0.627788,-0.000762194,-0.000617839,6.89179e-06,0.00140071,0.00114739,-1.49012e-05,0.00765362,1.0714e-07,5,0.1
0,6.2,2.04466,1.82907,0.563439,-0.000149012,-2.98023e-05,8.9407e-06,-0.000119209,0,0,0.00791249,7.61666e-09,5,0.1,1,6.2,0.606302,-1.43327,0.773859,-0.237875,0.333688,0.145808,-0.0611544,-0.146568,0.040561,0.0154403,4.25984,5,0.1,2,6.2,1.95596,-3.43851,0.59996,-0.327456,0.658983,2.83122e-05,-1.11645,0.084281,0,0.01896,2.4401,5,0.1,3,6.2,0.4,-0.0816087,0.600367,0.374217,-0.350113,-0.000341237,0.655651,0.303808,0.000327826,0.0094603,1.61386,5,0.1,4,6.2,-3.31398,2.25204,0.613038,0.00145435,-0.000154972,-7.45058e-06,0.00119209,-0.000119209,0,0.00641792,5.95865e-07,5,0.1,5,6.2,0.899971,-1.71203,0.594862,0,0.31727,0.00616163,0.000149012,-0.0895858,0.00572205,0.0110864,0.0801656,5,0.1,6,6.2,0.238953,1.6,0.748557,0.143816,-0.228894,0.000981987,-0.0489876,-0.00733137,-0.000357628,0.0257659,3.28507,5,0.1,7,6.2,1.65745,-2.40003,0.6,-0.325599,0.000417233,-5.96046e-06,0.0588894,-0.00333786,0,0.0117904,0.153816,5,0.1,8,6.2,-1.12385,-2.09893,0.599201,0.328159,-0.00412464,0.00234991,-0.0227094,0.0077486,-0.00172853,0.00845406,0.0838287,5,0.1,9,6.2,4.6337,0.845402,0.627788,-0.000619888,-0.000499189,4.47035e-06,0.00166893,0.00116229,0,0.00620922,1.11662e-07,5,0.1
0,6.3,2.04465,1.82907,0.56344,-0.000152737,-2.8871e-05,8.47504e-06,2.98023e-05,2.23517e-05,-1.11759e-05,0.00791249,7.61666e-09,5,0.1,1,6.3,0.583044,-1.40272,0.788423,-0.220005,0.259467,0.143472,0.377271,-1.21484,-0.0805445,0.0154403,4.25984,5,0.1,2,6.3,1.91717,-3.3721,0.599963,-0.451131,0.669178,2.82191e-05,-1.28052,0.0851601,-3.72529e-06,0.01896,2.4401,5,0.1,3,6.3,0.441289,-0.115192,0.600334,0.455616,-0.322181,-0.000311621,0.900211,0.265268,0.000275671,0.0094603,1.61386,5,0.1,4,6.3,-3.31384,2.25202,0.613038,0.00151396,-0.000163168,-6.98492e-06,2.98023e-05,-2.98023e-05,1.11759e-05,0.00641792,5.95865e-07,5,0.1,5,6.3,0.899972,-1.6806,0.595501,1.27591e-05,0.31229,0.00653742,0.000108033,-0.0295267,0.00178441,0.0110864,0.0801656,5,0.1,6,6.3,0.252927,1.57711,0.748654,0.134174,-0.22949,0.000953116,-0.137806,-0.037767,-0.00026077,0.0257659,3.28507,5,0.1,7,6.3,1.6249,-2.40001,0.599999,-0.327548,0.000140816,-5.58794e-06,-0.0683516,-0.00223517,7.45058e-06,0.0117904,0.153816,5,0.1,8,6.3,-1.09105,-2.0993,0.599426,0.32834,-0.00328347,0.00213208,0.00757724,0.00885129,-0.00256673,0.00845406,0.0838287,5,0.1,9,6.3,4.63365,0.845358,0.627789,-0.000457466,-0.000383332,3.91155e-06,0.00154972,0.00113249,-1.49012e-05,0.00620922,1.11662e-07,5,0.1
0,6.4,2.04463,1.82906,0.563441,-0.000143051,-2.68221e-05,7.45058e-06,0.000119209,0,-2.98023e-05,0.00924847,4.40952e-09,5,0.1,1,6.4,0.563371,-1.38377,0.802215,-0.169881,0.1127,0.130971,0.591904,-1.62369,-0.163496,0.0151317,3.40775,5,0.1,2,6.4,1.8659,-3.30499,0.599966,-0.570348,0.670201,2.68221e-05,-1.04815,-0.0885725,-2.98023e-05,0.0170118,2.21657,5,0.1,3,6.4,0.491268,-0.146078,0.600304,0.541751,-0.295292,-0.000284612,0.769526,0.279732,0.000268221,0.0122887,1.2497,5,0.1,4,6.4,-3.31369,2.25201,0.613037,0.00146627,-0.000160933,-5.96046e-06,-0.000953674,0,0,0.00799999,1.72174e-07,5,0.1,5,6.4,0.899974,-1.64955,0.596157,2.23517e-05,0.308019,0.00651926,5.96046e-05,-0.0699162,-0.00205636,0.0153255,0.0653911,5,0.1,6,6.4,0.26555,1.55373,0.748748,0.117382,-0.240636,0.000922382,-0.192776,-0.193715,-0.000417233,0.0268067,3.14509,5,0.1,7,6.4,1.59179,-2.4,0.599999,-0.334159,-3.57628e-05,-4.47035e-06,-0.0422597,-0.00143051,0,0.0133237,0.0935803,5,0.1,8,6.4,-1.05825,-2.09959,0.599625,0.326484,-0.00239611,0.00184625,-0.0577569,0.00858307,-0.00306964,0.00867196,0.154178,5,0.1,9,6.4,4.63361,0.845325,0.627789,-0.000321865,-0.000275671,2.98023e-06,0.00166893,0.00104308,-2.98023e-05,0.00761427,1.11676e-07,5,0.1
0,6.5,2.04462,1.82906,0.563441,-0.00012666,-2.58908e-05,4.56348e-06,0.000178814,2.23517e-05,-2.6077e-05,0.00924847,4.40952e-09,5,0.1,1,6.5,0.549954,-1.38154,0.814368,-0.093624,-0.0744449,0.11103,0.8834,-2.0166,-0.227597,0.0151317,3.40775,5,0.1,2,6.5,1.80343,-3.23826,0.599968,-0.679112,0.664957,2.42144e-05,-1.06049,-0.049755,-2.23517e-05,0.0170118,2.21657,5,0.1,3,6.5,0.549456,-0.174295,0.600277,0.622214,-0.269688,-0.000260491,0.784274,0.241078,0.000227243,0.0122887,1.2497,5,0.1,4,6.5,-3.31354,2.25199,0.613036,0.00133999,-0.000157207,-5.4948e-06,-0.00153482,8.9407e-05,1.11759e-05,0.00799999,1.72174e-07,5,0.1,5,6.5,0.899976,-1.61896,0.596796,2.72878e-05,0.30479,0.00623111,3.35276e-05,-0.0147447,-0.00374019,0.0153255,0.0653911,5,0.1,6,6.5,0.276265,1.52871,0.748838,0.0964336,-0.262685,0.000887178,-0.221176,-0.349201,-0.000327826,0.0268067,3.14509,5,0.1,7,6.5,1.55809,-2.40001,0.599998,-0.339941,-0.000143796,-4.09782e-06,-0.0542551,-0.000745058,7.45058e-06,0.0133237,0.0935803,5,0.1,8,6.5,-1.02561,-2.09979,0.599794,0.328515,-0.00158809,0.00153063,0.0688359,0.00746548,-0.00320002,0.00867196,0.154178,5,0.1,9,6.5,4.63358,0.845303,0.627789,-0.000172853,-0.000177231,9.31323e-08,0.0013113,0.000912696,-2.6077e-05,0.00761427,1.11676e-07,5,0.1
0,6.6,2.04461,1.82906,0.563442,-0.000101328,-2.08616e-05,2.98023e-06,0.000119209,-5.96046e-05,-2.98023e-05,0.00857428,5.61937e-09,5,0.1,1,6.6,0.545151,-1.39901,0.82428,-0.00200123,-0.272688,0.0868455,0.910848,-1.87147,-0.249892,0.0166241,2.7922,5,0.1,2,6.6,1.73065,-3.17217,0.599971,-0.771087,0.654572,2.23517e-05,-0.732124,-0.18096,-2.98023e-05,0.0170176,2.08278,5,0.1,3,6.6,0.61525,-0.200064,0.600252,0.689155,-0.245596,-0.000236928,0.515521,0.246845,0.000208616,0.00762975,0.919609,5,0.1,4,6.6,-3.31342,2.25198,0.613036,0.00116229,-0.000149012,-4.47035e-06,-0.00178814,0.000238419,2.98023e-05,0.00754836,1.24107e-07,5,0.1,5,6.6,0.899979,-1.5886,0.597397,3.12924e-05,0.301653,0.00576675,-2.98023e-05,-0.0621676,-0.00548363,0.00924611,0.10315,5,0.1,6,6.6,0.28479,1.5,0.748925,0.0740491,-0.318095,0.000849366,-0.222534,-0.733316,-0.000417233,0.0210655,2.71037,5,0.1,7,6.6,1.52394,-2.40003,0.599998,-0.341776,-0.000190735,-2.98023e-06,0.0308156,-0.000357628,0,0.0121636,0.0729862,5,0.1,8,6.6,-0.992401,-2.09991,0.599931,0.335142,-0.000917912,0.00121295,0.0421405,0.00596046,-0.00309944,0.00844156,0.0937552,5,0.1,9,6.6,4.63357,0.845289,0.627789,-4.76837e-05,-9.38773e-05,-2.98023e-06,0.000715256,0.000715256,0,0.00628342,4.85727e-08,5,0.1
0,6.7,2.0446,1.82906,0.563442,-8.60542e-05,-2.44007e-05,4.65661e-07,0.000193715,-2.23517e-05,-1.86265e-05,0.00857428,5.61937e-09,5,0.1,1,6.7,0.549658,-1.4358,0.831694,0.0927065,-0.462523,0.0613715,0.945985,-1.84743,-0.254121,0.0166241,2.7922,5,0.1,2,6.7,1.65026,-3.10742,0.599973,-0.832253,0.641689,1.98372e-05,-0.465341,-0.11009,-1.86265e-05,0.0170176,2.08278,5,0.1,3,6.7,0.686746,-0.223468,0.600229,0.739686,-0.223102,-0.000217743,0.45165,0.210316,0.000178814,0.00762975,0.919609,5,0.1,4,6.7,-3.31331,2.25196,0.613036,0.000970811,-0.000125542,-1.86265e-06,-0.00199676,0.000223517,2.23517e-05,0.00754836,1.24107e-07,5,0.1,5,6.7,0.899982,-1.55854,0.597945,2.83122e-05,0.301021,0.00517117,-2.98023e-05,0.0261664,-0.00638887,0.00924611,0.10315,5,0.1,6,6.7,0.290994,1.46349,0.749008,0.0494085,-0.41985,0.000812113,-0.260929,-1.20154,-0.000365078,0.0210655,2.71037,5,0.1,7,6.7,1.48981,-2.40005,0.599998,-0.341125,-0.000204146,-2.6077e-06,0.00203401,5.96046e-05,7.45058e-06,0.0121636,0.0729862,5,0.1,8,6.7,-0.958608,-2.09997,0.600037,0.340894,-0.000411645,0.000913069,0.0537857,0.00418723,-0.00286847,0.00844156,0.0937552,5,0.1,9,6.7,4.63357,0.845283,0.627789,1.56462e-05,-2.92435e-05,-3.07336e-06,0.000506639,0.000573695,-3.72529e-06,0.00628342,4.85727e-08,5,0.1
0,6.8,2.04459,1.82905,0.563442,-6.55651e-05,-2.08616e-05,-1.49012e-06,0.000238419,-5.96046e-05,0,0.00829834,4.71551e-09,5,0.1,1,6.8,0.563464,-1.49072,0.836591,0.180764,-0.628883,0.0369743,0.788152,-1.42467,-0.229716,0.019004,2.38859,5,0.1,2,6.8,1.56529,-3.04391,0.599975,-0.860929,0.626862,1.78814e-05,-0.101924,-0.209689,-2.98023e-05,0.0133166,1.94629,5,0.1,3,6.8,0.762576,-0.244739,0.600208,0.772184,-0.202292,-0.000199676,0.168741,0.210993,0.000208616,0.00879976,0.64711,5,0.1,4,6.8,-3.31323,2.25195,0.613035,0.0007689,-0.000101328,0,-0.00202656,0.000119209,2.98023e-05,0.00830908,1.29001e-07,5,0.1,5,6.8,0.899985,-1.52831,0.598429,2.5332e-05,0.302863,0.00449717,0,-0.00625849,-0.00706315,0.00810255,0.0875839,5,0.1,6,6.8,0.294631,1.4154,0.749088,0.0235088,-0.540894,0.00077188,-0.249967,-1.14435,-0.000476837,0.0215821,1.4433,5,0.1,7,6.8,1.4558,-2.40007,0.599998,-0.338018,-0.000184774,-1.49012e-06,0.0737906,0.000238419,0,0.00837515,0.287585,5,0.1,8,6.8,-0.924359,-2.1,0.600115,0.342664,-7.15256e-05,0.00064373,-0.0316203,0.00274181,-0.00247359,0.00776137,0.0730703,5,0.1,9,6.8,4.63358,0.845283,0.627788,5.96046e-05,2.08616e-05,-2.98023e-06,0.000476837,0.00038743,-2.98023e-05,0.0079756,2.69477e-08,5,0.1
0,6.9,2.04458,1.82905,0.563442,-4.20958e-05,-2.36556e-05,-1.49012e-06,0.000223517,-7.45058e-06,0,0.00829834,4.71551e-09,5,0.1,1,6.9,0.58554,-1.56022,0.839314,0.260468,-0.755001,0.0190812,0.770919,-1.06007,-0.133585,0.019004,2.38859,5,0.1,2,6.9,1.47889,-2.98206,0.599976,-0.865634,0.611527,1.546e-05,-0.00980496,-0.129238,-1.49012e-05,0.0133166,1.94629,5,0.1,3,6.9,0.840618,-0.263983,0.600189,0.787561,-0.183144,-0.000180863,0.104085,0.178049,0.000171363,0.00879976,0.64711,5,0.1,4,6.9,-3.31316,2.25194,0.613036,0.000569224,-8.79169e-05,2.51457e-06,-0.00193715,0.000149012,1.86265e-05,0.00830908,1.29001e-07,5,0.1,5,6.9,0.899987,-1.49789,0.598843,2.48663e-05,0.306791,0.00379588,-1.11759e-05,0.0610128,-0.00693649,0.00810255,0.0875839,5,0.1,6,6.9,0.295729,1.35559,0.749163,-0.00141375,-0.653991,0.000728481,-0.241589,-1.06084,-0.000417233,0.0215821,1.4433,5,0.1,7,6.9,1.42214,-2.40039,0.60004,-0.336753,-0.00877716,0.00120616,-0.0230148,-0.152931,0.0214688,0.00837515,0.287585,5,0.1,8,6.9,-0.890153,-2.09999,0.600167,0.341927,0.000139326,0.000409037,-0.0029467,0.00154972,-0.00219047,0.00776137,0.0730703,5,0.1,9,6.9,4.63358,0.845287,0.627788,9.76026e-05,5.40167e-05,-5.40167e-06,0.000327826,0.000268221,-1.49012e-05,0.0079756,2.69477e-08,5,0.1
0,7,2.04458,1.82905,0.563442,-1.78814e-05,-2.08616e-05,-1.49012e-06,0.000119209,0,0,0.00813323,3.54619e-09,5,0.1,1,7,0.615177,-1.64019,0.840676,0.32898,-0.835437,0.00925362,0.574678,-0.531733,-0.0675321,0.0156428,2.20122,5,0.1,2,7,1.39234,-2.92163,0.599978,-0.864854,0.59551,1.3411e-05,0.0234246,-0.213623,0,0.0170814,1.46175,5,0.1,3,7,0.919557,-0.281421,0.600172,0.78721,-0.165644,-0.000163913,-0.134289,0.176221,0.000178814,0.00835876,0.441019,5,0.1,4,7,-3.31311,2.25193,0.613036,0.00038743,-7.15256e-05,2.98023e-06,-0.00166893,0.000119209,2.98023e-05,0.0083249,1.058e-07,5,0.1,5,7,0.89999,-1.46695,0.599188,2.23517e-05,0.310993,0.00311583,0,0.00631809,-0.00667572,0.00929129,0.120675,5,0.1,6,7,0.29444,1.2854,0.749233,-0.023628,-0.74347,0.000683963,-0.197768,-0.689626,-0.000506639,0.0216101,0.21855,5,0.1,7,7,1.38836,-2.40215,0.600285,-0.338227,-0.0273645,0.00381619,0.0120997,-0.204086,0.0286102,0.0107864,0.219874,5,0.1,8,7,-0.85606,-2.09997,0.600198,0.338724,0.000244379,0.000208616,-0.0748336,0.000715256,-0.00178814,0.00779251,0.105355,5,0.1,9,7,4.63359,0.845293,0.627787,0.000107288,7.59959e-05,-7.45058e-06,0.000476837,0.000119209,0,0.00622606,2.50689e-08,5,0.1
0,7.1,2.04458,1.82905,0.563442,-5.96046e-06,-1.86265e-05,-1.49012e-06,0.000119209,2.98023e-05,0,0.00813323,3.54619e-09,5,0.1,1,7.1,0.650887,-1.72547,0.841361,0.383921,-0.863113,0.00529857,0.497352,-0.096485,-0.0160001,0.0156428,2.20122,5,0.1,2,7.1,1.30586,-2.86301,0.599979,-0.865033,0.577584,1.3411e-05,-0.0012964,-0.170782,0,0.0170814,1.46175,5,0.1,3,7.1,0.997621,-0.297165,0.600157,0.773495,-0.149709,-0.000147987,-0.168301,0.147551,0.000145286,0.00835876,0.441019,5,0.1,4,7.1,-3.31308,2.25193,0.613036,0.000230223,-5.92321e-05,5.40167e-06,-0.00146031,0.00013411,1.49012e-05,0.0083249,1.058e-07,5,0.1,5,7.1,0.899992,-1.43563,0.599468,2.14204e-05,0.316599,0.00247806,-2.23517e-05,0.0811964,-0.00605732,0.00929129,0.120675,5,0.1,6,7.1,0.291116,1.20849,0.749299,-0.0424275,-0.786104,0.00063777,-0.173021,-0.167966,-0.000439584,0.0216101,0.21855,5,0.1,7,7.1,1.35449,-2.40602,0.600825,-0.3398,-0.0507772,0.00709873,-0.0234768,-0.249743,0.0350177,0.0107864,0.219874,5,0.1,8,7.1,-0.822382,-2.09995,0.60021,0.336033,0.000284985,4.99189e-05,-0.00173226,0.00013411,-0.00138581,0.00779251,0.105355,5,0.1,9,7.1,4.63361,0.845301,0.627787,0.000140816,8.43778e-05,-7.35745e-06,0.000208616,5.21541e-05,3.72529e-06,0.00622606,2.50689e-08,5,0.1
0,7.2,2.04458,1.82905,0.563441,5.96046e-06,-1.49012e-05,-1.49012e-06,0,5.96046e-05,0,0.00802896,2.94424e-09,5,0.1,1,7.2,0.691459,-1.81201,0.841865,0.42396,-0.866026,0.00525415,0.285387,0,0.0115633,0.0165084,1.81904,5,0.1,2,7.2,1.21949,-2.80621,0.59998,-0.860691,0.55697,1.3411e-05,0.106752,-0.259638,0,0.0115321,1.06736,5,0.1,3,7.2,1.07388,-0.311412,0.600142,0.748846,-0.135268,-0.00013411,-0.343502,0.144854,0.000149012,0.00871217,0.29482,5,0.1,4,7.2,-3.31306,2.25192,0.613037,0.000101328,-4.76837e-05,5.96046e-06,-0.00107288,0.000238419,0,0.00855929,6.26441e-08,5,0.1,5,7.2,0.899994,-1.40361,0.599686,1.93715e-05,0.323004,0.00190586,-2.98023e-05,0.0291467,-0.00533462,0.00779517,0.0714255,5,0.1,6,7.2,0.286084,1.12986,0.749361,-0.0573635,-0.778416,0.000591576,-0.122175,0.313044,-0.000506639,0.0230857,0.145614,5,0.1,7,7.2,1.32047,-2.41233,0.601707,-0.339502,-0.0748098,0.0104696,0.043571,-0.220418,0.0308752,0.00812469,0.16265,5,0.1,8,7.2,-0.78882,-2.09992,0.600209,0.334474,0.000274181,-6.70552e-05,-0.0458062,-0.000238419,-0.000983477,0.008211,0.18066,5,0.1,9,7.2,4.63362,0.84531,0.627786,0.000154972,8.64267e-05,-5.96046e-06,-0.000238419,-2.98023e-05,-2.98023e-05,0.00747207,6.16262e-09,5,0.1
0,7.3,2.04458,1.82904,0.563441,7.82311e-06,-8.9407e-06,-1.49012e-06,4.47035e-05,5.96046e-05,0,0.00802896,2.94424e-09,5,0.1,1,7.3,0.734463,-1.89841,0.842602,0.428591,-0.859386,0.010751,-0.16674,0.154607,0.0881329,0.0165084,1.81904,5,0.1,2,7.3,1.13371,-2.7517,0.599982,-0.856039,0.53366,1.3411e-05,0.0325665,-0.227615,0,0.0115321,1.06736,5,0.1,3,7.3,1.14711,-0.324266,0.60013,0.715771,-0.122208,-0.000120886,-0.341401,0.120563,0.000119209,0.00871217,0.29482,5,0.1,4,7.3,-3.31306,2.25192,0.613038,4.84288e-06,-2.6077e-05,5.58794e-06,-0.000849366,0.000178814,-7.45058e-06,0.00855929,6.26441e-08,5,0.1,5,7.3,0.899996,-1.37114,0.599851,1.60187e-05,0.326373,0.00141021,-3.72529e-05,0.0225008,-0.00457466,0.00779517,0.0714255,5,0.1,6,7.3,0.279768,1.0538,0.749418,-0.0685345,-0.74065,0.000545476,-0.0972152,0.450693,-0.000435859,0.0230857,0.145614,5,0.1,7,7.3,1.28667,-2.42093,0.602912,-0.336537,-0.0971723,0.0136029,0.0317693,-0.215843,0.0302568,0.00812469,0.16265,5,0.1,8,7.3,-0.755283,-2.09989,0.600198,0.338598,0.000236928,-0.000149757,0.0960231,-0.000476837,-0.000670552,0.008211,0.18066,5,0.1,9,7.3,4.63364,0.845318,0.627785,0.000130385,8.1677e-05,-8.00937e-06,-0.000268221,-6.33299e-05,-7.45058e-06,0.00747207,6.16262e-09,5,0.1
0,7.4,2.04458,1.82904,0.563441,5.96046e-06,0,-1.49012e-06,0.000119209,0,0,0.00796338,2.44968e-09,5,0.1,1,7.4,0.775922,-1.98317,0.844175,0.395492,-0.83161,0.0210658,-0.472456,0.414014,0.110209,0.0154295,1.07127,5,0.1,2,7.4,1.04846,-2.69956,0.599983,-0.846308,0.507897,1.3411e-05,0.19455,-0.302076,0,0.00645778,0.717934,5,0.1,3,7.4,1.21683,-0.335896,0.600118,0.676668,-0.110435,-0.000108778,-0.456333,0.117898,0.000119209,0.00914099,0.195342,5,0.1,4,7.4,-3.31306,2.25192,0.613038,-6.55651e-05,-1.19209e-05,4.47035e-06,-0.000715256,0.000238419,0,0.00681479,3.69466e-08,5,0.1,5,7.4,0.899997,-1.3385,0.599971,1.19209e-05,0.32486,0.000992417,0,-0.0635982,-0.00378489,0.00917563,0.0535941,5,0.1,6,7.4,0.272497,0.982265,0.74947,-0.0761412,-0.687057,0.000502169,-0.0523329,0.624985,-0.000476837,0.0217068,0.28447,5,0.1,7,7.4,1.25327,-2.43165,0.604412,-0.330445,-0.11611,0.0162587,0.101209,-0.15521,0.0217259,0.00979001,0.198911,5,0.1,8,7.4,-0.720927,-2.09987,0.60018,0.348087,0.000184774,-0.000202656,0.0701547,-0.000715256,-0.000357628,0.00847609,0.110764,5,0.1,9,7.4,4.63365,0.845326,0.627784,0.000107288,7.30157e-05,-7.45058e-06,-0.000476837,-5.96046e-05,-2.98023e-05,0.00729749,7.9862e-09,5,0.1
0,7.5,2.04458,1.82904,0.563441,1.60187e-05,9.31323e-07,-1.49012e-06,7.45058e-05,2.23517e-05,0,0.00796338,2.44968e-09,5,0.1,1,7.5,0.812738,-2.06418,0.846968,0.337686,-0.787371,0.0358279,-0.661578,0.486225,0.172276,0.0154295,1.07127,5,0.1,2,7.5,0.965666,-2.65173,0.599972,-0.801559,0.436314,-0.000333227,0.673611,-1.04883,-0.00615418,0.00645778,0.717934,5,0.1,3,7.5,1.28232,-0.346392,0.600108,0.633585,-0.0998298,-9.83477e-05,-0.424847,0.0977125,9.68575e-05,0.00914099,0.195342,5,0.1,4,7.5,-3.31307,2.25192,0.613038,-0.000124425,7.07805e-06,4.09782e-06,-0.000447035,0.000163913,-7.45058e-06,0.00681479,3.69466e-08,5,0.1,5,7.5,0.899998,-1.30626,0.600052,1.03377e-05,0.320281,0.00064699,-2.6077e-05,-0.0444576,-0.00311062,0.00917563,0.0535941,5,0.1,6,7.5,0.264644,0.916371,0.749518,-0.0806209,-0.633222,0.000459142,-0.0340324,0.479832,-0.000402331,0.0217068,0.28447,5,0.1,7,7.5,1.22045,-2.44417,0.606166,-0.327901,-0.135378,0.0189578,-0.0225604,-0.21176,0.0296757,0.00979001,0.198911,5,0.1,8,7.5,-0.685693,-2.09986,0.600158,0.356788,0.000113621,-0.000228547,0.0829659,-0.000700355,-0.000156462,0.00847609,0.110764,5,0.1,9,7.5,4.63366,0.845333,0.627784,6.4075e-05,6.53788e-05,-9.22009e-06,-0.000357628,-8.9407e-05,-1.11759e-05,0.00729749,7.9862e-09,5,0.1
0,7.6,2.04458,1.82904,0.563441,2.38419e-05,2.98023e-06,-1.49012e-06,0,0,0,0.00782181,1.57673e-09,5,0.1,1,7.6,0.843038,-2.14027,0.851428,0.267172,-0.731897,0.053288,-0.730842,0.632763,0.16734,0.0166463,0.352548,5,0.1,2,7.6,0.889482,-2.61403,0.599903,-0.716686,0.312632,-0.00108033,0.999689,-1.36054,-0.00816584,0.00696664,0.215454,5,0.1,3,7.6,1.34348,-0.355897,0.600099,0.588426,-0.0902951,-8.9407e-05,-0.491619,0.0954866,8.9407e-05,0.00778398,0.129242,5,0.1,4,7.6,-3.31309,2.25192,0.613039,-0.000160933,1.78814e-05,2.98023e-06,-0.000238419,0.000119209,0,0.00720907,1.47547e-08,5,0.1,5,7.6,0.899999,-1.27453,0.600103,7.45058e-06,0.313196,0.000371039,-5.96046e-05,-0.10848,-0.00241399,0.0114839,0.0905325,5,0.1,6,7.6,0.256463,0.855397,0.749562,-0.0824198,-0.586258,0.000418723,9.68575e-05,0.479698,-0.000417233,0.0186616,0.518115,5,0.1,7,7.6,1.18753,-2.45874,0.608206,-0.33015,-0.155282,0.0217497,-0.00220537,-0.173092,0.0242293,0.00968363,0.121871,5,0.1,8,7.6,-0.649719,-2.09985,0.600135,0.361139,4.76837e-05,-0.000236928,-0.0104904,-0.000715256,5.96046e-05,0.00814153,0.0617141,5,0.1,9,7.6,4.63366,0.845339,0.627783,2.38419e-05,5.66244e-05,-8.9407e-06,0,-0.000119209,0,0.00645389,4.52327e-09,5,0.1
0,7.7,2.04459,1.82904,0.563441,2.38419e-05,3.72529e-06,-1.49012e-06,0,1.49012e-05,0,0.00782181,1.57673e-09,5,0.1,1,7.7,0.866042,-2.21019,0.85765,0.192699,-0.66539,0.0714294,-0.743262,0.700712,0.184719,0.0166463,0.352548,5,0.1,2,7.7,0.822536,-2.5895,0.59974,-0.624582,0.179227,-0.00229832,0.858068,-1.28257,-0.0149831,0.00696664,0.215454,5,0.1,3,7.7,1.39999,-0.364484,0.60009,0.542598,-0.081719,-8.15839e-05,-0.441357,0.0789315,7.45058e-05,0.00778398,0.129242,5,0.1,4,7.7,-3.3131,2.25192,0.613039,-0.000175834,2.6077e-05,2.6077e-06,-5.96046e-05,2.98023e-05,-7.45058e-06,0.00720907,1.47547e-08,5,0.1,5,7.7,0.9,-1.24356,0.600129,2.42144e-06,0.307647,0.000160281,-3.72529e-05,-0.0241846,-0.00180677,0.0114839,0.0905325,5,0.1,6,7.7,0.248232,0.798633,0.749602,-0.0820381,-0.553279,0.000381004,0.0101859,0.222482,-0.000346452,0.0186616,0.518115,5,0.1,7,7.7,1.15443,-2.47514,0.610501,-0.332037,-0.172421,0.0241184,-0.017643,-0.157833,0.0215434,0.00968363,0.121871,5,0.1,8,7.7,-0.613676,-2.09985,0.600112,0.3592,-1.71363e-05,-0.000226591,-0.0413731,-0.000596046,0.000145286,0.00814153,0.0617141,5,0.1,9,7.7,4.63366,0.845344,0.627782,2.08616e-05,4.47035e-05,-8.3819e-06,-5.96046e-05,-0.000119209,1.49012e-05,0.00645389,4.52327e-09,5,0.1
0,7.8,2.04459,1.82905,0.56344,2.38419e-05,5.96046e-06,-1.49012e-06,0,0,2.98023e-05,0.00759216,1.40696e-09,5,0.1,1,7.8,0.88168,-2.27309,0.865672,0.121206,-0.591344,0.0883773,-0.675082,0.780821,0.146478,0.0158993,1.80545,5,0.1,2,7.8,0.764238,-2.57769,0.599432,-0.542386,0.0603855,-0.00386536,0.796974,-1.07646,-0.0154078,0.00756731,0.179752,5,0.1,3,7.8,1.45201,-0.372269,0.600082,0.497389,-0.0740126,-7.45058e-05,-0.474036,0.0772625,8.9407e-05,0.00713835,0.117957,5,0.1,4,7.8,-3.31312,2.25192,0.613039,-0.000178814,2.98023e-05,1.49012e-06,0.000119209,0,0,0.0085741,4.88225e-09,5,0.1,5,7.8,0.9,-1.21292,0.600137,0,0.304618,8.9407e-06,-2.98023e-05,-0.0519753,-0.0012219,0.0106423,0.0758951,5,0.1,6,7.8,0.240113,0.74428,0.749638,-0.0799481,-0.534339,0.000347197,0.0333115,0.187904,-0.00038743,0.0188054,0.858145,5,0.1,7,7.8,1.12124,-2.49306,0.613006,-0.330648,-0.18484,0.0257909,0.0576973,-0.0827312,0.0108182,0.00930811,0.068062,5,0.1,8,7.8,-0.5781,-2.09985,0.60009,0.350702,-6.55651e-05,-0.000208616,-0.13712,-0.000476837,0.000238419,0.00744693,0.0429434,5,0.1,9,7.8,4.63367,0.845348,0.627781,1.19209e-05,3.27826e-05,-5.96046e-06,0,-8.9407e-05,0,0.00653715,4.5968e-09,5,0.1
0,7.9,2.04459,1.82905,0.56344,2.38419e-05,6.14673e-06,9.31323e-07,0,7.45058e-06,1.49012e-05,0.00759216,1.40696e-09,5,0.1,1,7.9,0.890721,-2.32849,0.875676,0.0625082,-0.517842,0.115129,-0.501674,0.699043,0.353087,0.0158993,1.80545,5,0.1,2,7.9,0.713464,-2.57651,0.598954,-0.477521,-0.0314862,-0.00581108,0.530738,-0.763834,-0.0219345,0.00756731,0.179752,5,0.1,3,7.9,1.49951,-0.379469,0.600075,0.453623,-0.0715246,-6.67758e-05,-0.415079,-0.015229,7.07805e-05,0.00713835,0.117957,5,0.1,4,7.9,-3.31314,2.25193,0.61304,-0.000163168,2.79397e-05,1.39698e-06,0.000208616,-4.47035e-05,-3.72529e-06,0.0085741,4.88225e-09,5,0.1,5,7.9,0.9,-1.18255,0.600132,-2.42144e-06,0.303899,-9.34117e-05,-1.49012e-05,0.0154153,-0.00083074,0.0106423,0.0758951,5,0.1,6,7.9,0.232597,0.691189,0.749671,-0.0676892,-0.532096,0.000312552,0.19433,-0.0897571,-0.000312924,0.0188054,0.858145,5,0.1,7,7.9,1.0885,-2.51196,0.615606,-0.323478,-0.192717,0.0259129,0.0948235,-0.065133,-0.00769645,0.00930811,0.068062,5,0.1,8,7.9,-0.543662,-2.09986,0.60007,0.338234,-0.000108778,-0.000184216,-0.126146,-0.000357628,0.00025332,0.00744693,0.0429434,5,0.1,9,7.9,4.63367,0.845351,0.62778,1.11759e-05,2.38419e-05,-5.40167e-06,-2.98023e-05,-8.9407e-05,1.49012e-05,0.00653715,4.5968e-09,5,0.1
0,8,2.04459,1.82905,0.563441,1.78814e-05,5.96046e-06,2.98023e-06,0.000119209,5.96046e-05,-2.98023e-05,0.00802405,2.34644e-09,5,0.1,1,8,0.894731,-2.37685,0.889055,0.0202745,-0.449872,0.152765,-0.346154,0.666976,0.372767,0.00718149,0.458882,5,0.1,2,8,0.668131,-2.58298,0.598263,-0.4309,-0.0931084,-0.00797808,0.424683,-0.473022,-0.0202358,0.0060412,0.182354,5,0.1,3,8,1.54281,-0.386767,0.600069,0.412032,-0.0748917,-5.96046e-05,-0.426352,-0.0427216,5.96046e-05,0.00706867,0.144417,5,0.1,4,8,-3.31315,2.25193,0.61304,-0.000143051,2.38419e-05,1.49012e-06,0.000357628,-0.000119209,-2.98023e-05,0.00719966,4.41499e-09,5,0.1,5,8,0.899999,-1.15212,0.600119,-2.98023e-06,0.303912,-0.000157952,0,-0.030756,-0.000476837,0.0112954,0.112073,5,0.1,6,8,0.226946,0.637431,0.749701,-0.0442281,-0.543015,0.000283122,0.260979,-0.0891387,-0.000327826,0.0197543,0.739471,5,0.1,7,8,1.05675,-2.53146,0.618134,-0.3102,-0.196248,0.0243872,0.176489,0.000834465,-0.0221729,0.00951334,0.0472117,5,0.1,8,8,-0.510544,-2.09987,0.600053,0.32315,-0.000137091,-0.000157952,-0.184894,-0.000238419,0.000268221,0.00898263,0.0802103,5,0.1,9,8,4.63367,0.845353,0.62778,0,1.63913e-05,-4.47035e-06,0.000238419,-8.9407e-05,2.98023e-05,0.00626474,8.62703e-09,5,0.1
0,8.1,2.0446,1.82905,0.563441,2.6077e-05,1.09896e-05,4.65661e-07,2.98023e-05,3.72529e-05,-1.86265e-05,0.00802405,2.34644e-09,5,0.1,1,8.1,0.894836,-2.41778,0.906329,-0.0195016,-0.362791,0.193372,-0.427429,1.02651,0.413265,0.00718149,0.458882,5,0.1,2,8.1,0.626714,-2.59423,0.597348,-0.401081,-0.12779,-0.0104307,0.204578,-0.229478,-0.0268631,0.0060412,0.182354,5,0.1,3,8.1,1.5822,-0.394692,0.600063,0.378481,-0.0853433,-5.53206e-05,-0.26872,-0.147894,2.98023e-05,0.00706867,0.144417,5,0.1,4,8.1,-3.31317,2.25193,0.61304,-0.000109151,1.22935e-05,-1.02445e-06,0.000312924,-0.000104308,-1.86265e-05,0.00719966,4.41499e-09,5,0.1,5,8.1,0.899999,-1.12168,0.600101,-2.8871e-06,0.306278,-0.000192411,3.72529e-06,0.0539273,-0.000216067,0.0112954,0.112073,5,0.1,6,8.1,0.224093,0.582413,0.749728,-0.0107845,-0.55899,0.000254065,0.385028,-0.188868,-0.00026077,0.0197543,0.739471,5,0.1,7,8.1,1.02652,-2.55106,0.620484,-0.294739,-0.195271,0.0227978,0.145674,0.0254065,-0.0113994,0.00951334,0.0472117,5,0.1,8,8.1,-0.478942,-2.09989,0.600039,0.310466,-0.000154227,-0.000131596,-0.0895411,-0.000119209,0.000257045,0.00898263,0.0802103,5,0.1,9,8.1,4.63367,0.845354,0.62778,1.63913e-05,8.00937e-06,-1.58325e-06,5.96046e-05,-7.45058e-05,2.6077e-05,0.00626474,8.62703e-09,5,0.1
0,8.2,2.0446,1.82905,0.563441,2.98023e-05,1.19209e-05,0,0,5.96046e-05,-2.98023e-05,0.00882645,2.00139e-09,5,0.1,1,8.2,0.890764,-2.44866,0.927623,-0.0613824,-0.253159,0.230937,-0.393838,1.12796,0.319272,0.00773595,0.279211,5,0.1,2,8.2,0.587487,-2.60781,0.596173,-0.384241,-0.140733,-0.0130102,0.15673,-0.0377893,-0.0232756,0.0110423,3.23024,5,0.1,3,8.2,1.61881,-0.404014,0.600058,0.354105,-0.101244,-5.36442e-05,-0.236511,-0.156224,2.98023e-05,0.00711468,0.0877806,5,0.1,4,8.2,-3.31318,2.25193,0.613039,-7.7486e-05,5.96046e-06,-2.98023e-06,0.000238419,-0.000119209,0,0.00771717,3.9187e-09,5,0.1,5,8.2,0.899999,-1.09081,0.600082,-2.98023e-06,0.31054,-0.000202656,2.98023e-05,0.0138283,0,0.0103807,0.190494,5,0.1,6,8.2,0.224989,0.525684,0.749752,0.028751,-0.573672,0.000229478,0.388272,-0.075177,-0.000268221,0.0187686,0.669721,5,0.1,7,8.2,0.997814,-2.57037,0.622712,-0.278884,-0.190073,0.0217974,0.180304,0.0824928,-0.00992417,0.00896466,0.0197235,5,0.1,8,8.2,-0.448325,-2.0999,0.600027,0.301655,-0.000160933,-0.000107288,-0.101745,0,0.000238419,0.00897036,0.19021,5,0.1,9,8.2,4.63367,0.845354,0.62778,2.38419e-05,1.49012e-06,1.49012e-06,0,-2.98023e-05,0,0.00646631,5.51101e-09,5,0.1
0,8.3,2.0446,1.82905,0.563441,2.79397e-05,1.60187e-05,-2.42144e-06,-4.47035e-05,1.49012e-05,-1.49012e-05,0.00882645,2.00139e-09,5,0.1,1,8.3,0.882796,-2.46843,0.952447,-0.0964183,-0.143687,0.266165,-0.301182,1.04302,0.357654,0.00773595,0.279211,5,0.1,2,8.3,0.54867,-2.62053,0.594752,-0.401707,-0.100599,-0.0154073,-0.42123,0.75005,-0.0232123,0.0110423,3.23024,5,0.1,3,8.3,1.65317,-0.41497,0.600052,0.334243,-0.118062,-5.16884e-05,-0.176638,-0.168068,1.86265e-05,0.00711468,0.0877806,5,0.1,4,8.3,-3.31318,2.25193,0.613039,-5.55068e-05,-4.09782e-06,-2.98023e-06,0.000193715,-7.45058e-05,0,0.00771717,3.9187e-09,5,0.1,5,8.3,0.899999,-1.05937,0.600062,-4.65661e-07,0.320637,-0.000196137,1.86265e-05,0.154898,0.00012666,0.0103807,0.190494,5,0.1,6,8.3,0.229771,0.467822,0.749773,0.066268,-0.583927,0.000205915,0.351255,-0.0971851,-0.000212342,0.0187686,0.669721,5,0.1,7,8.3,0.97082,-2.58893,0.624849,-0.260914,-0.180565,0.0209697,0.185605,0.110462,-0.00765175,0.00896466,0.0197235,5,0.1,8,8.3,-0.418414,-2.09992,0.600017,0.29848,-0.000157207,-8.47504e-05,0.0132285,8.9407e-05,0.000216067,0.00897036,0.19021,5,0.1,9,8.3,4.63367,0.845354,0.62778,2.01166e-05,-1.49012e-06,1.86265e-06,-8.9407e-05,-2.98023e-05,7.45058e-06,0.00646631,5.51101e-09,5,0.1
0,8.4,2.0446,1.82905,0.56344,2.38419e-05,1.78814e-05,-2.98023e-06,0,0,-2.98023e-05,0.00800999,1.71772e-09,5,0.1,1,8.4,0.87184,-2.47785,0.980729,-0.120723,-0.0476956,0.297737,-0.181645,0.864148,0.254124,0.0173691,3.52109,5,0.1,2,8.4,0.506014,-2.62616,0.593105,-0.453544,-0.00686646,-0.0174046,-0.550941,1.05345,-0.0157356,0.0105827,2.76781,5,0.1,3,8.4,1.68571,-0.427555,0.600047,0.31606,-0.132792,-4.91738e-05,-0.198305,-0.117958,0,0.00823619,0.0797618,5,0.1,4,8.4,-3.31319,2.25193,0.613039,-3.57628e-05,-1.19209e-05,-2.98023e-06,0.000238419,0,0,0.00787544,3.61914e-09,5,0.1,5,8.4,0.899999,-1.02652,0.600043,1.49012e-06,0.335768,-0.000177324,0,0.123292,0.000178814,0.00937932,0.117926,5,0.1,6,8.4,0.23802,0.409126,0.749793,0.0971787,-0.587562,0.000186265,0.259541,0.0471914,-0.000208616,0.0185195,1.42997,5,0.1,7,8.4,0.945708,-2.60637,0.626905,-0.240703,-0.167555,0.0200957,0.222713,0.151277,-0.0105202,0.00673372,0.430846,5,0.1,8,8.4,-0.388478,-2.09993,0.60001,0.299966,-0.000143051,-6.55651e-05,-0.00186265,0.000119209,0.000208616,0.00750441,1.14914,5,0.1,9,8.4,4.63367,0.845354,0.62778,1.19209e-05,-2.98023e-06,2.98023e-06,0,-5.96046e-05,-2.98023e-05,0.00693832,6.22887e-09,5,0.1
0,8.5,2.04461,1.82905,0.56344,2.19792e-05,1.69501e-05,-5.02914e-06,-4.47035e-05,-2.23517e-05,-7.45058e-06,0.00800999,1.71772e-09,5,0.1,1,8.5,0.859978,-2.47979,1.01152,-0.106867,-0.00436716,0.315383,0.398561,0.0723451,0.095278,0.0173691,3.52109,5,0.1,2,8.5,0.457368,-2.621,0.591284,-0.522965,0.11403,-0.0189885,-0.768749,1.29627,-0.0146739,0.0105827,2.76781,5,0.1,3,8.5,1.71647,-0.441209,0.600042,0.300148,-0.138243,-4.95464e-05,-0.136375,0.00501983,-7.45058e-06,0.00823619,0.0797618,5,0.1,4,8.5,-3.31319,2.25193,0.613039,-1.41561e-05,-1.19209e-05,-2.98023e-06,0.000178814,0,0,0.00787544,3.61914e-09,5,0.1,5,8.5,0.899999,-0.992261,0.600026,1.49012e-06,0.349505,-0.000156183,0,0.12996,0.000234693,0.00937932,0.117926,5,0.1,6,8.5,0.248679,0.35054,0.749811,0.112749,-0.584158,0.000168104,0.0637025,0.0471005,-0.000167638,0.0185195,1.42997,5,0.1,7,8.5,0.923203,-2.62248,0.627976,-0.205523,-0.155706,-0.00608945,0.455026,0.0952631,-0.457447,0.00673372,0.430846,5,0.1,8,8.5,-0.357586,-2.09995,0.600004,0.325159,-0.000129268,-4.68455e-05,0.43672,0.000163913,0.000167638,0.00750441,1.14914,5,0.1,9,8.5,4.63367,0.845354,0.62778,8.9407e-06,-7.72998e-06,9.31323e-07,-5.96046e-05,-4.09782e-05,-7.45058e-06,0.00693832,6.22887e-09,5,0.1
0,8.6,2.04461,1.82906,0.563439,1.78814e-05,1.49012e-05,-5.96046e-06,0,0,2.98023e-05,0.0083738,1.53929e-09,5,0.1,1,8.6,0.851831,-2.4807,1.04325,-0.0518084,-0.0206292,0.316361,0.654846,-0.341415,-0.076592,0.0159241,3.15733,5,0.1,2,8.6,0.401333,-2.60318,0.589322,-0.595397,0.240487,-0.0201255,-0.629649,1.18232,-0.00724196,0.0108343,2.58492,5,0.1,3,8.6,1.74579,-0.454833,0.600037,0.28598,-0.132596,-4.91738e-05,-0.158548,0.103816,0,0.00924114,0.141405,5,0.1,4,8.6,-3.31319,2.25193,0.613038,-5.96046e-06,-1.19209e-05,-1.49012e-06,0.000238419,0.000119209,-2.98023e-05,0.00709976,4.79839e-09,5,0.1,5,8.6,0.899999,-0.956794,0.600012,1.49012e-06,0.358121,-0.00013113,0,0.0274777,0.000268221,0.0098156,0.185813,5,0.1,6,8.6,0.26003,0.292534,0.749827,0.112092,-0.573733,0.000153482,-0.066936,0.179269,-0.000178814,0.0192189,2.91659,5,0.1,7,8.6,0.905133,-2.63761,0.624721,-0.154349,-0.146848,-0.0614882,0.547796,0.0890493,-0.607222,0.00866528,0.0595317,5,0.1,8,8.6,-0.32263,-2.09996,0.6,0.375175,-0.000113249,-3.12924e-05,0.511274,0.000119209,0.000119209,0.00803454,1.28655,5,0.1,9,8.6,4.63368,0.845353,0.62778,0,-1.04308e-05,0,0,-2.98023e-05,0,0.00752767,5.69818e-09,5,0.1
0,8.7,2.04461,1.82906,0.563439,1.60187e-05,1.39698e-05,-3.07336e-06,-4.47035e-05,-2.23517e-05,2.6077e-05,0.0083738,1.53929e-09,5,0.1,1,8.7,0.849709,-2.48567,1.0741,0.00711624,-0.0886172,0.297001,0.52046,-0.931263,-0.295505,0.0159241,3.15733,5,0.1,2,8.7,0.339101,-2.57403,0.587255,-0.644292,0.334473,-0.0213537,-0.334238,0.703022,-0.0151172,0.0108343,2.58492,5,0.1,3,8.7,1.77357,-0.467407,0.600033,0.269095,-0.117414,-4.8615e-05,-0.183903,0.1914,1.49012e-05,0.00924114,0.141405,5,0.1,4,8.7,-3.31319,2.25193,0.613038,1.30385e-05,-2.23517e-06,-3.91155e-06,0.000163913,5.96046e-05,-1.49012e-05,0.00709976,4.79839e-09,5,0.1,5,8.7,0.899999,-0.920595,0.6,1.49012e-06,0.36753,-0.000104029,0,0.129618,0.000271946,0.0098156,0.185813,5,0.1,6,8.7,0.270535,0.235996,0.749841,0.0952056,-0.557094,0.000138022,-0.23631,0.174826,-0.00013411,0.0192189,2.91659,5,0.1,7,8.7,0.892058,-2.65174,0.616243,-0.110565,-0.13487,-0.101627,0.342239,0.14706,-0.220325,0.00866528,0.0595317,5,0.1,8,8.7,-0.282094,-2.09996,0.599999,0.438623,9.38773e-05,1.66707e-05,0.697982,0.00333786,0.000756234,0.00803454,1.28655,5,0.1,9,8.7,4.63368,0.845352,0.62778,-2.98023e-06,-1.24797e-05,3.72529e-07,-5.96046e-05,-7.45058e-06,7.45058e-06,0.00752767,5.69818e-09,5,0.1
0,8.8,2.04461,1.82906,0.563439,1.19209e-05,1.19209e-05,-1.49012e-06,0,0,2.98023e-05,0.00774154,1.66817e-09,5,0.1,1,8.8,0.852779,-2.49957,1.10206,0.0518128,-0.191486,0.26007,0.371903,-1.05917,-0.430107,0.0164554,2.81227,5,0.1,2,8.8,0.27358,-2.53782,0.585046,-0.660152,0.382465,-0.0227675,0.0239384,0.264764,-0.0115931,0.0136461,2.75383,5,0.1,3,8.8,1.79948,-0.478104,0.600028,0.248453,-0.0958472,-4.61936e-05,-0.231743,0.233024,2.98023e-05,0.00730976,0.196776,5,0.1,4,8.8,-3.31319,2.25193,0.613038,2.38419e-05,5.96046e-06,-4.47035e-06,0,-0.000119209,0,0.00856082,2.93136e-09,5,0.1,5,8.8,0.899999,-0.883235,0.599991,1.49012e-06,0.378691,-7.7486e-05,0,0.0711083,0.000238419,0.0120265,0.111479,5,0.1,6,8.8,0.27882,0.181295,0.749854,0.070554,-0.535194,0.00012517,-0.233963,0.277572,-0.000119209,0.0167176,2.75965,5,0.1,7,8.8,0.88247,-2.66442,0.605449,-0.0833377,-0.118095,-0.110076,0.213593,0.185251,0.0308752,0.00945898,0.0298802,5,0.1,8,8.8,-0.234837,-2.09994,0.600005,0.50444,0.000441074,0.000105798,0.574738,0.00309944,0.000923872,0.00880572,1.01918,5,0.1,9,8.8,4.63368,0.84535,0.62778,-1.19209e-05,-1.19209e-05,1.49012e-06,0.000238419,-2.98023e-05,0,0.0075858,8.66464e-09,5,0.1
0,8.9,2.04461,1.82906,0.563439,1.00583e-05,1.09896e-05,1.02445e-06,-4.47035e-05,-2.23517e-05,1.86265e-05,0.00774154,1.66817e-09,5,0.1,1,8.9,0.859348,-2.52442,1.1258,0.0755252,-0.307965,0.213615,0.128321,-1.20471,-0.488453,0.0164554,2.81227,5,0.1,2,8.9,0.208782,-2.49877,0.582738,-0.626293,0.393438,-0.0231397,0.596777,-0.0355244,0.00373647,0.0136461,2.75383,5,0.1,3,8.9,1.8232,-0.486505,0.600023,0.226174,-0.0721068,-4.31202e-05,-0.219166,0.236699,3.35276e-05,0.00730976,0.196776,5,0.1,4,8.9,-3.31318,2.25193,0.613037,2.34693e-05,-4.09782e-06,-4.09782e-06,-1.49012e-05,-7.45058e-05,7.45058e-06,0.00856082,2.93136e-09,5,0.1,5,8.9,0.899999,-0.844971,0.599984,1.49012e-06,0.386456,-5.42961e-05,0,0.064265,0.000219792,0.0120265,0.111479,5,0.1,6,8.9,0.284595,0.12909,0.749866,0.0452984,-0.509189,0.000114832,-0.215983,0.260082,-9.31323e-05,0.0167176,2.75965,5,0.1,7,8.9,0.875014,-2.67527,0.594926,-0.0674359,-0.0985831,-0.0975519,0.114035,0.201672,0.200998,0.00945898,0.0298802,5,0.1,8,8.9,-0.18134,-2.09984,0.600019,0.566051,0.00159331,0.000173599,0.608469,0.0154823,0.000454485,0.00880572,1.01918,5,0.1,9,8.9,4.63368,0.845349,0.62778,4.47035e-06,-1.36904e-05,1.58325e-06,5.96046e-05,-1.11759e-05,3.72529e-06,0.0075858,8.66464e-09,5,0.1
0,9,2.04461,1.82906,0.563439,1.19209e-05,8.9407e-06,1.49012e-06,-0.000119209,-5.96046e-05,5.96046e-05,0.00917225,1.94206e-09,5,0.1,1,9,0.867311,-2.56104,1.14469,0.0818864,-0.421071,0.16427,0.0170171,-1.0097,-0.49001,0.0220076,2.43109,5,0.1,2,9,0.149703,-2.46003,0.580465,-0.550703,0.377327,-0.0221059,0.87243,-0.276804,0.0164509,0.00871542,0.535315,5,0.1,3,9,1.84471,-0.492561,0.600019,0.203741,-0.0493869,-3.8743e-05,-0.232995,0.213981,2.98023e-05,0.00887572,0.32033,5,0.1,4,9,-3.31318,2.25193,0.613037,1.78814e-05,-5.96046e-06,-2.98023e-06,0,-0.000119209,0,0.00809798,3.29966e-09,5,0.1,5,9,0.9,-0.806149,0.59998,1.49012e-06,0.388189,-3.42727e-05,-2.98023e-05,-0.0432432,0.000178814,0.00824305,1.26913,5,0.1,6,9,0.288406,0.0795597,0.749877,0.035172,-0.480235,0.000105798,0.0364333,0.330884,-0.000119209,0.0180425,2.52349,5,0.1,7,9,0.868741,-2.68411,0.586331,-0.0588477,-0.0783563,-0.0731796,0.0649989,0.200033,0.272006,0.0098342,0.0201852,5,0.1,8,9,-0.121966,-2.09962,0.600038,0.617772,0.0028193,0.000199676,0.391364,0.00631809,0.000119209,0.00863028,0.772981,5,0.1,9,9,4.63368,0.845348,0.627781,1.19209e-05,-1.19209e-05,1.49012e-06,0,-2.98023e-05,2.98023e-05,0.00739585,6.09376e-09,5,0.1
0,9.1,2.04461,1.82906,0.563439,1.86265e-06,3.1665e-06,5.86733e-06,-7.45058e-05,-5.21541e-05,3.35276e-05,0.00917225,1.94206e-09,5,0.1,1,9.1,0.875306,-2.60824,1.15884,0.0764528,-0.522013,0.120395,-0.0791922,-0.958875,-0.390038,0.0220076,2.43109,5,0.1,2,9.1,0.0992465,-2.42344,0.578375,-0.456984,0.356519,-0.0193541,0.961238,-0.161022,0.0365414,0.00871542,0.535315,5,0.1,3,9.1,1.86392,-0.496419,0.600016,0.18039,-0.0279726,-3.52971e-05,-0.235021,0.203287,4.09782e-05,0.00887572,0.32033,5,0.1,4,9.1,-3.31318,2.25192,0.613036,1.75089e-05,-1.56462e-05,-2.6077e-06,-1.49012e-05,-5.96046e-05,7.45058e-06,0.00809798,3.29966e-09,5,0.1,5,9.1,0.89917,-0.766961,0.600064,-0.0235618,0.400122,0.00245161,-0.418883,0.230778,0.0440553,0.00824305,1.26913,5,0.1,6,9.1,0.292421,0.0331036,0.749887,0.0504586,-0.449381,9.55537e-05,0.344958,0.30077,-8.9407e-05,0.0180425,2.52349,5,0.1,7,9.1,0.863102,-2.69096,0.580469,-0.0545715,-0.0587329,-0.0434298,0.0264756,0.1899,0.310466,0.0098342,0.0201852,5,0.1,8,9.1,-0.0582035,-2.09929,0.600059,0.656785,0.00366867,0.00019921,0.350477,0.00169873,-0.000115484,0.00863028,0.772981,5,0.1,9,9.1,4.63368,0.845346,0.627781,8.9407e-06,-1.33179e-05,4.00469e-06,-5.96046e-05,-3.72529e-06,1.86265e-05,0.00739585,6.09376e-09,5,0.1
0,9.2,2.04461,1.82906,0.56344,-1.19209e-05,0,7.45058e-06,0.000119209,-5.96046e-05,2.98023e-05,0.00851862,2.3788e-09,5,0.1,1,9.2,0.88268,-2.66481,1.16908,0.0728846,-0.604331,0.085777,0.0296235,-0.652313,-0.304699,0.0178764,2.04033,5,0.1,2,9.2,0.0582427,-2.38855,0.576641,-0.364828,0.341356,-0.0151664,0.858844,-0.157952,0.0455379,0.00578498,0.743208,5,0.1,3,9.2,1.88077,-0.498289,0.600012,0.156599,-0.0104703,-3.12924e-05,-0.24116,0.140354,2.98023e-05,0.00952047,0.474948,5,0.1,4,9.2,-3.31318,2.25192,0.613036,1.19209e-05,-1.78814e-05,-1.49012e-06,0,0,0,0.00750709,2.26288e-09,5,0.1,5,9.2,0.894384,-0.725688,0.600565,-0.0744671,0.425419,0.00779927,-0.558496,0.237018,0.0586808,0.00969352,1.01061,5,0.1,6,9.2,0.3,-0.0102835,0.749897,0.108708,-0.417628,8.64267e-05,0.789776,0.344223,-8.9407e-05,0.0208634,2.15923,5,0.1,7,9.2,0.857753,-2.69592,0.577657,-0.0525311,-0.0408053,-0.0132397,0.0185966,0.167012,0.284284,0.0108049,0.0130816,5,0.1,8,9.2,0.00890252,-2.09897,0.600078,0.681399,0.00191927,0.000180304,0.11553,-0.0404119,-0.000238419,0.0108976,0.564896,5,0.1,9,9.2,4.63368,0.845345,0.627781,0,-1.19209e-05,4.47035e-06,0,0,2.98023e-05,0.00765371,6.52693e-09,5,0.1
0,9.3,2.04461,1.82906,0.563441,-2.23517e-06,-5.02914e-06,9.22009e-06,5.96046e-05,-3.72529e-05,1.11759e-05,0.00851862,2.3788e-09,5,0.1,1,9.3,0.890252,-2.72843,1.17626,0.081648,-0.666286,0.059092,0.206966,-0.547543,-0.231206,0.0178764,2.04033,5,0.1,2,9.3,0.0262101,-2.35663,0.575271,-0.274817,0.284882,-0.0129482,0.919788,-0.889882,0.00321865,0.00578498,0.743208,5,0.1,3,9.3,1.89525,-0.498674,0.600009,0.133007,0.0018436,-2.79397e-05,-0.230685,0.0868347,3.72529e-05,0.00952047,0.474948,5,0.1,4,9.3,-3.31318,2.25192,0.613036,1.15484e-05,-1.63913e-05,-1.39698e-06,-1.49012e-05,2.98023e-05,3.72529e-06,0.00750709,2.26288e-09,5,0.1,5,9.3,0.883837,-0.681718,0.60167,-0.138532,0.455383,0.0145265,-0.683408,0.322737,0.0717379,0.00969352,1.01061,5,0.1,6,9.3,0.315807,-0.0504203,0.749905,0.214971,-0.385745,7.86968e-05,1.24482,0.305623,-7.07805e-05,0.0208634,2.15923,5,0.1,7,9.3,0.852571,-2.6992,0.577728,-0.0512421,-0.0251651,0.0141836,0.0104979,0.144273,0.25687,0.0108049,0.0130816,5,0.1,8,9.3,0.0776197,-2.09903,0.600094,0.692148,-0.00388995,0.000151526,0.0687467,-0.089407,-0.0003241,0.0108976,0.564896,5,0.1,9,9.3,4.63368,0.845344,0.627782,-2.98023e-06,-1.08033e-05,6.89179e-06,-5.96046e-05,1.49012e-05,1.49012e-05,0.00765371,6.52693e-09,5,0.1
0,9.4,2.04461,1.82906,0.563442,0,-5.96046e-06,8.9407e-06,0,-5.96046e-05,0,0.00708948,1.69932e-09,5,0.1,1,9.4,0.9,-2.79736,1.18112,0.118513,-0.707269,0.0391126,0.511318,-0.24581,-0.17041,0.0214548,1.62828,5,0.1,2,9.4,0.00328015,-2.33324,0.573952,-0.184679,0.177985,-0.0137404,0.866492,-1.18351,-0.0155568,0.00849831,0.271068,5,0.1,3,9.4,1.90741,-0.498256,0.600007,0.110477,0.00432804,-2.38419e-05,-0.219762,-0.0437349,2.98023e-05,0.00777644,1.20357,5,0.1,4,9.4,-3.31318,2.25192,0.613036,1.19209e-05,-1.19209e-05,-1.49012e-06,-0.000119209,0,2.98023e-05,0.00837106,2.74275e-09,5,0.1,5,9.4,0.866627,-0.634691,0.603475,-0.204301,0.483184,0.0214294,-0.602961,0.20498,0.0632703,0.00974708,0.893277,5,0.1,6,9.4,0.343664,-0.0874495,0.749912,0.341775,-0.354447,7.30157e-05,1.22298,0.32873,-8.9407e-05,0.0183309,1.84088,5,0.1,7,9.4,0.847508,-2.70104,0.580336,-0.0498772,-0.0121891,0.0369295,0.0189543,0.114202,0.193298,0.00974948,0.00685654,5,0.1,8,9.4,0.146896,-2.1,0.600108,0.690018,-0.0167847,0.000117719,-0.131949,-0.163078,-0.000357628,0.00975389,0.400568,5,0.1,9,9.4,4.63368,0.845343,0.627783,-1.19209e-05,-8.9407e-06,7.45058e-06,0,2.98023e-05,0,0.0081673,4.27862e-09,5,0.1
0,9.5,2.04461,1.82906,0.563443,-3.72529e-07,-1.08033e-05,8.3819e-06,-1.49012e-05,-2.98023e-05,-1.49012e-05,0.00708948,1.69932e-09,5,0.1,1,9.5,0.915114,-2.86925,1.18427,0.189154,-0.728965,0.024615,0.836663,-0.156745,-0.121363,0.0214548,1.62828,5,0.1,2,9.5,-0.0117608,-2.32032,0.572587,-0.124219,0.0898939,-0.0128171,0.381009,-0.615135,0.0295602,0.00849831,0.271068,5,0.1,3,9.5,1.9174,-0.498084,0.600004,0.0897512,-0.00351905,-2.07685e-05,-0.195116,-0.192506,3.35276e-05,0.00777644,1.20357,5,0.1,4,9.5,-3.31318,2.25192,0.613036,1.86265e-06,-1.15484e-05,1.02445e-06,-7.45058e-05,1.49012e-05,1.86265e-05,0.00837106,2.74275e-09,5,0.1,5,9.5,0.843689,-0.58611,0.605783,-0.249517,0.481372,0.023392,-0.306804,-0.218648,-0.017263,0.00974708,0.893277,5,0.1,6,9.5,0.383697,-0.120529,0.750071,0.455403,-0.300981,0.0043598,1.015,0.699204,0.0762753,0.0183309,1.84088,5,0.1,7,9.5,0.842617,-2.70173,0.584923,-0.0478881,-0.00197813,0.0539878,0.0223853,0.0893772,0.144482,0.00974948,0.00685654,5,0.1,8,9.5,0.215261,-2.10266,0.600118,0.676874,-0.0377636,8.13976e-05,-0.155924,-0.240132,-0.000357628,0.00975389,0.400568,5,0.1,9,9.5,4.63368,0.845342,0.627783,-1.2666e-05,-5.86733e-06,7.07805e-06,-2.98023e-05,3.35276e-05,-7.45058e-06,0.0081673,4.27862e-09,5,0.1
0,9.6,2.04461,1.82906,0.563443,0,-1.19209e-05,7.45058e-06,-0.000119209,0,-5.96046e-05,0.0126703,1.3444e-09,5,0.1,1,9.6,0.93831,-2.94257,1.18619,0.274487,-0.733411,0.0144988,0.821203,0.0886917,-0.0825524,0.0170663,1.23705,5,0.1,2,9.6,-0.0228188,-2.31372,0.571497,-0.101561,0.0482261,-0.00862777,0.103002,-0.248432,0.0506639,0.010437,0.162895,5,0.1,3,9.6,1.92544,-0.5,0.600002,0.0713885,-0.0407144,-1.78814e-05,-0.172436,-0.537515,5.96046e-05,0.0107213,1.71925,5,0.1,4,9.6,-3.31318,2.25192,0.613036,-5.96046e-06,-5.96046e-06,2.98023e-06,0,-0.000119209,0,0.00763122,3.57493e-09,5,0.1,5,9.6,0.817654,-0.539609,0.607949,-0.266857,0.443727,0.0192016,-0.0465214,-0.51409,-0.061065,0.0145515,0.727253,5,0.1,6,9.6,0.433737,-0.146802,0.750949,0.539054,-0.222049,0.0136316,0.635341,0.846408,0.101715,0.0171447,1.42392,5,0.1,7,9.6,0.837955,-2.70152,0.590942,-0.045152,0.00559688,0.0653088,0.0332296,0.0619888,0.0801384,0.0133586,0.00273207,5,0.1,8,9.6,0.281963,-2.10766,0.600124,0.654667,-0.0619531,4.76837e-05,-0.304909,-0.231385,-0.000357628,0.00875981,0.277742,5,0.1,9,9.6,4.63367,0.845342,0.627784,-1.19209e-05,-2.98023e-06,5.96046e-06,-0.000238419,2.98023e-05,0,0.00648306,6.14274e-09,5,0.1
0,9.7,2.04461,1.82906,0.563444,-1.00583e-05,-1.11759e-05,2.04891e-06,-7.45058e-05,1.49012e-05,-4.47035e-05,0.0126703,1.3444e-09,5,0.1,1,9.7,0.970075,-3.01546,1.18728,0.361649,-0.723417,0.0078043,0.872787,0.136808,-0.0527576,0.0170663,1.23705,5,0.1,2,9.7,-0.0327359,-2.30963,0.570916,-0.099066,0.0378244,-0.00277488,-0.034572,0.0140965,0.063356,0.010437,0.162895,5,0.1,3,9.7,1.93192,-0.507821,0.600001,0.0599628,-0.124152,-1.23866e-05,-0.0664517,-1.04623,4.84288e-05,0.0107213,1.71925,5,0.1,4,9.7,-3.31318,2.25192,0.613036,-5.96046e-06,-1.41561e-05,2.98023e-06,0,-2.98023e-05,0,0.00763122,3.57493e-09,5,0.1,5,9.7,0.790405,-0.498006,0.609526,-0.280567,0.386638,0.0120527,-0.194754,-0.616439,-0.0783019,0.0145515,0.727253,5,0.1,6,9.7,0.491141,-0.165093,0.752775,0.610653,-0.146915,0.0224063,0.735525,0.657435,0.072673,0.0171447,1.42392,5,0.1,7,9.7,0.833613,-2.70069,0.597801,-0.0416134,0.0107542,0.0711244,0.0380427,0.041157,0.0353418,0.0133586,0.00273207,5,0.1,8,9.7,0.345966,-2.11505,0.600127,0.625451,-0.0861339,1.38767e-05,-0.300053,-0.239849,-0.00031665,0.00875981,0.277742,5,0.1,9,9.7,4.63367,0.845342,0.627785,-3.12924e-05,0,5.4948e-06,-0.000119209,2.98023e-05,-1.11759e-05,0.00648306,6.14274e-09,5,0.1
0,9.8,2.04461,1.82906,0.563444,-1.19209e-05,-8.9407e-06,-1.49012e-06,-0.000119209,0,-2.98023e-05,0.0151425,1.73159e-09,5,0.1,1,9.8,1.01036,-3.08686,1.18784,0.440595,-0.701803,0.00368357,0.670791,0.312328,-0.0309348,0.0144135,0.903962,5,0.1,2,9.8,-0.042917,-2.30553,0.570956,-0.10521,0.0463426,0.00351071,-0.0741686,0.135422,0.0600815,0.0111915,0.196015,5,0.1,3,9.8,1.93769,-0.52573,0.6,0.0562429,-0.234985,-8.9407e-06,-0.0160336,-1.10567,5.96046e-05,0.0113053,1.39854,5,0.1,4,9.8,-3.31318,2.25192,0.613037,-5.96046e-06,-1.78814e-05,2.98023e-06,0,0.000119209,-2.98023e-05,0.00830508,2.96075e-09,5,0.1,5,9.8,0.761352,-0.462515,0.610336,-0.300087,0.322501,0.00417382,-0.171393,-0.656918,-0.0765324,0.0101193,0.590479,5,0.1,6,9.8,0.555637,-0.1768,0.755324,0.675672,-0.0902012,0.0280097,0.521153,0.479266,0.0389516,0.00656017,1.05642,5,0.1,7,9.8,0.829653,-2.69944,0.605011,-0.0374734,0.0138462,0.0722915,0.0450015,0.0208616,-0.0120103,0.0107597,0.000809797,5,0.1,8,9.8,0.406881,-2.1248,0.600127,0.591209,-0.107801,-1.49012e-05,-0.398636,-0.184655,-0.000208616,0.00775566,0.189676,5,0.1,9,9.8,4.63367,0.845342,0.627785,-4.76837e-05,1.49012e-06,4.47035e-06,0,2.98023e-05,0,0.00807243,2.66431e-09,5,0.1
