id,t,px,py,pz,vx,vy,vz,ax,ay,az,planning_time,qp_cost,planning_report,size,id,t,px,py,pz,vx,vy,vz,ax,ay,az,planning_time,qp_cost,planning_report,size,id,t,px,py,pz,vx,vy,vz,ax,ay,az,planning_time,qp_cost,planning_report,size,id,t,px,py,pz,vx,vy,vz,ax,ay,az,planning_time,qp_cost,planning_report,size,id,t,px,py,pz,vx,vy,vz,ax,ay,az,planning_time,qp_cost,planning_report,size,id,t,px,py,pz,vx,vy,vz,ax,ay,az,planning_time,qp_cost,planning_report,size,id,t,px,py,pz,vx,vy,vz,ax,ay,az,planning_time,qp_cost,planning_report,size,id,t,px,py,pz,vx,vy,vz,ax,ay,az,planning_time,qp_cost,planning_report,size,id,t,px,py,pz,vx,vy,vz,ax,ay,az,planning_time,qp_cost,planning_report,size,id,t,px,py,pz,vx,vy,vz,ax,ay,az,planning_time,qp_cost,planning_report,size
0,0,-3.54206,-0.384703,0.606982,0,0,0,0,0,0,0.0231559,3.51219,5,0.1,1,0,-4.96587,-2.4541,0.665768,0,0,0,0,0,0,0.00796187,3.5122,5,0.1,2,0,-1.62707,4.37384,0.625875,0,0,0,0,0,0,0.0164445,0.658012,5,0.1,3,0,3.90758,-0.762528,0.542767,0,0,0,0,0,0,0.035512,3.51219,5,0.1,4,0,-5.13636,-3.16406,0.669864,0,0,0,0,0,0,0.0174476,2.02845,5,0.1,5,0,0.0802965,2.28765,0.647371,0,0,0,0,0,0,0.00726204,3.5122,5,0.1,6,0,0.17459,-5.37369,0.687682,0,0,0,0,0,0,0.0123626,0.538342,5,0.1,7,0,4.91718,-5.73225,0.573249,0,0,0,0,0,0,0.0250431,3.5122,5,0.1,8,0,-4.59257,4.30858,0.557509,0,0,0,0,0,0,0.0265864,0.656724,5,0.1,9,0,-3.13112,5.80104,0.525739,0,0,0,0,0,0,0.0285952,3.51219,5,0.1
0,0.1,-3.53998,-0.384733,0.606978,0.0592623,-0.000842707,-9.00589e-05,1.05356,-0.0149813,-0.00159815,0.0231559,3.51219,5,0.1,1,0.1,-4.96379,-2.45419,0.665703,0.0591792,-0.00268184,-0.00183936,1.05205,-0.0476986,-0.0327006,0.00796187,3.5122,5,0.1,2,0.1,-1.62709,4.37334,0.626631,-0.000679679,-0.0140406,0.0214586,-0.0120774,-0.249654,0.381492,0.0164445,0.658012,5,0.1,3,0.1,3.90559,-0.761922,0.542805,-0.056706,0.0172051,0.00107894,-1.00811,0.305869,0.0191815,0.035512,3.51219,5,0.1,4,0.1,-5.13648,-3.16248,0.669791,-0.00336915,0.0448685,-0.00207042,-0.0598431,0.797644,-0.0368021,0.0174476,2.02845,5,0.1,5,0.1,0.0782116,2.28776,0.647347,-0.0591874,0.00302196,-0.000672694,-1.05222,0.0537336,-0.0119545,0.00726204,3.5122,5,0.1,6,0.1,0.175116,-5.37307,0.687634,0.0149537,0.0176877,-0.00138376,0.265843,0.314474,-0.0246018,0.0123626,0.538342,5,0.1,7,0.1,4.91511,-5.73201,0.573269,-0.0588574,0.00694022,0.000559073,-1.04633,0.123411,0.00993535,0.0250431,3.5122,5,0.1,8,0.1,-4.59263,4.30784,0.558023,-0.00170395,-0.020998,0.0145946,-0.0302494,-0.373274,0.259459,0.0265864,0.656724,5,0.1,9,0.1,-3.1294,5.79986,0.525782,0.0488173,-0.0335865,0.00121621,0.867859,-0.59709,0.0216179,0.0285952,3.51219,5,0.1
0,0.2,-3.52794,-0.384904,0.60696,0.187302,-0.00266284,-0.000284612,1.40464,-0.0199825,-0.00214577,0.0214453,2.92581,5,0.1,1,0.2,-4.95177,-2.45474,0.66533,0.187039,-0.00847578,-0.00581294,1.40262,-0.0635386,-0.0436306,0.00760953,2.92581,5,0.1,2,0.2,-1.62723,4.37049,0.63099,-0.00214875,-0.0443816,0.0678211,-0.0160933,-0.332832,0.508636,0.0124912,0.539866,5,0.1,3,0.2,3.89407,-0.758428,0.543024,-0.179219,0.0543758,0.00341088,-1.3442,0.407845,0.0255704,0.0357629,3.01754,5,0.1,4,0.2,-5.13716,-3.15337,0.66937,-0.0106454,0.141805,-0.0065431,-0.0798702,1.06347,-0.0490844,0.0208395,1.66424,5,0.1,5,0.2,0.066189,2.28837,0.64721,-0.187061,0.00955462,-0.0021264,-1.40296,0.0715256,-0.0159442,0.0101935,2.94442,5,0.1,6,0.2,0.178154,-5.36947,0.687353,0.0472609,0.0559092,-0.00437349,0.354461,0.41914,-0.0327826,0.00748884,0.441687,5,0.1,7,0.2,4.90315,-5.7306,0.573382,-0.186014,0.0219345,0.00176579,-1.39523,0.164747,0.013262,0.0269065,2.92579,5,0.1,8,0.2,-4.59298,4.30358,0.560988,-0.00537634,-0.0663638,0.0461265,-0.0402927,-0.497818,0.345945,0.0293102,0.538806,5,0.1,9,0.2,-3.11948,5.79303,0.526029,0.154293,-0.106156,0.00384301,1.15705,-0.795841,0.0288486,0.0326471,2.92582,5,0.1
0,0.3,-3.50141,-0.385281,0.60692,0.348622,-0.00496074,-0.000530947,1.72223,-0.0245515,-0.00263378,0.0214453,2.92581,5,0.1,1,0.3,-4.92526,-2.45594,0.664506,0.348359,-0.0157844,-0.01083,1.72386,-0.078097,-0.0535995,0.00760953,2.92581,5,0.1,2,0.3,-1.62753,4.3642,0.640596,-0.003995,-0.0825606,0.126168,-0.0196993,-0.407249,0.622422,0.0124912,0.539866,5,0.1,3,0.3,3.86961,-0.750722,0.543508,-0.307304,0.101281,0.00635199,-1.18168,0.501212,0.0314265,0.0357629,3.01754,5,0.1,4,0.3,-5.13867,-3.13328,0.668444,-0.0198059,0.263799,-0.0121732,-0.0977218,1.30139,-0.0600554,0.0208395,1.66424,5,0.1,5,0.3,0.0401018,2.28972,0.646909,-0.33647,0.0177849,-0.00396026,-1.5123,0.0879914,-0.0195988,0.0101935,2.94442,5,0.1,6,0.3,0.184847,-5.36156,0.686733,0.0879214,0.103994,-0.00813454,0.433745,0.513017,-0.0401288,0.00748884,0.441687,5,0.1,7,0.3,4.87679,-5.72749,0.573632,-0.346476,0.0408739,0.00329055,-1.71465,0.202298,0.016287,0.0269065,2.92579,5,0.1,8,0.3,-4.59374,4.29418,0.56752,-0.0100002,-0.123467,0.0858102,-0.0493526,-0.6091,0.423327,0.0293102,0.538806,5,0.1,9,0.3,-3.09762,5.77799,0.526574,0.287367,-0.197695,0.00715991,1.42203,-0.978291,0.0354387,0.0326471,2.92582,5,0.1
0,0.4,-3.45808,-0.385898,0.606854,0.514448,-0.00732616,-0.000785291,1.52111,-0.021711,-0.00229478,0.0200876,2.89528,5,0.1,1,0.4,-4.88195,-2.4579,0.663159,0.514448,-0.0233173,-0.0159949,1.52445,-0.068903,-0.0473559,0.0145129,2.51535,5,0.1,2,0.4,-1.62803,4.35395,0.656269,-0.00589192,-0.12176,0.186069,-0.0174046,-0.359297,0.549108,0.0128562,0.427148,5,0.1,3,0.4,3.83348,-0.73813,0.544297,-0.409532,0.149572,0.00938028,-0.838757,0.443161,0.0278056,0.047794,3.00196,5,0.1,4,0.4,-5.14113,-3.10051,0.666931,-0.0292063,0.389045,-0.0179529,-0.0863075,1.1481,-0.0529885,0.0216755,1.31677,5,0.1,5,0.4,-0.000793761,2.29193,0.646417,-0.476941,0.0262618,-0.00584871,-1.24424,0.0778437,-0.0173151,0.00923502,2.88458,5,0.1,6,0.4,0.19577,-5.34864,0.685723,0.129664,0.153363,-0.0119954,0.382662,0.452518,-0.035435,0.00703198,0.349472,5,0.1,7,0.4,4.83371,-5.72241,0.574041,-0.511682,0.0603676,0.00486076,-1.51587,0.178814,0.0143647,0.0213349,2.51423,5,0.1,8,0.4,-4.59498,4.27884,0.578181,-0.0147462,-0.18208,0.12655,-0.0436306,-0.537395,0.373483,0.0256845,0.426308,5,0.1,9,0.4,-3.06189,5.75341,0.527464,0.424379,-0.291944,0.0105754,1.25742,-0.865221,0.0312924,0.0353632,2.51011,5,0.1
0,0.5,-3.40072,-0.386742,0.606763,0.616901,-0.00956021,-0.00102203,0.569567,-0.021819,-0.00231713,0.0200876,2.89528,5,0.1,1,0.5,-4.8229,-2.46059,0.661316,0.664645,-0.0304118,-0.0208685,1.41132,-0.0693202,-0.0476092,0.0145129,2.51535,5,0.1,2,0.5,-1.62871,4.33994,0.677672,-0.00765733,-0.158216,0.241782,-0.0170469,-0.351906,0.537816,0.0128562,0.427148,5,0.1,3,0.5,3.78959,-0.720895,0.545378,-0.456905,0.19514,0.0122391,-0.160128,0.444829,0.0279099,0.047794,3.00196,5,0.1,4,0.5,-5.14449,-3.05576,0.664866,-0.0379607,0.505533,-0.0233287,-0.0844598,1.12452,-0.0518933,0.0216755,1.31677,5,0.1,5,0.5,-0.0532319,2.29496,0.645743,-0.55831,0.0342712,-0.00763033,-0.432552,0.0782013,-0.0174046,0.00923502,2.88458,5,0.1,6,0.5,0.210685,-5.331,0.684343,0.168489,0.19928,-0.0155903,0.374788,0.44325,-0.0346974,0.00703198,0.349472,5,0.1,7,0.5,4.77496,-5.71545,0.574601,-0.661747,0.0787668,0.0063397,-1.41627,0.179678,0.0144467,0.0213349,2.51423,5,0.1,8,0.5,-4.59668,4.2579,0.592737,-0.0191718,-0.236604,0.164443,-0.0426769,-0.526369,0.365794,0.0256845,0.426308,5,0.1,9,0.5,-3.01299,5.71977,0.528683,0.553772,-0.380976,0.0137961,1.26389,-0.869662,0.0314601,0.0353632,2.51011,5,0.1
0,0.6,-3.33747,-0.3878,0.60665,0.636268,-0.011494,-0.00122786,-0.144601,-0.0160336,-0.00169873,0.0227537,3.08574,5,0.1,1,0.6,-4.75002,-2.46395,0.659008,0.78547,-0.0365615,-0.0250876,0.960827,-0.0510216,-0.0350177,0.00905465,2.06681,5,0.1,2,0.6,-1.62955,4.32249,0.704336,-0.00915229,-0.189102,0.288978,-0.0122786,-0.252962,0.386894,0.0199284,0.318002,5,0.1,3,0.6,3.74388,-0.699312,0.546732,-0.450617,0.234547,0.0147104,0.246882,0.326782,0.0205338,0.0268439,3.05685,5,0.1,4,0.6,-5.14868,-3.00001,0.662293,-0.0453711,0.604218,-0.0278831,-0.0607967,0.808835,-0.0373125,0.027425,0.980308,5,0.1,5,0.6,-0.110217,2.29875,0.644899,-0.572294,0.0412047,-0.00917315,0.113852,0.0574589,-0.0127852,0.0166531,2.95142,5,0.1,6,0.6,0.229266,-5.30902,0.682623,0.201378,0.23818,-0.0186339,0.269622,0.319004,-0.0249743,0.0135952,0.26018,5,0.1,7,0.6,4.70233,-5.70674,0.575303,-0.783479,0.0946999,0.00762045,-0.973225,0.132084,0.0106394,0.0242095,2.32814,5,0.1,8,0.6,-4.59879,4.2318,0.610872,-0.022912,-0.282788,0.196543,-0.0309944,-0.378609,0.263125,0.0372524,0.317373,5,0.1,9,0.6,-2.95173,5.67762,0.530209,0.665796,-0.458062,0.016585,0.929475,-0.639439,0.0231266,0.028044,2.21918,5,0.1
0,0.7,-3.27585,-0.389031,0.606519,0.585233,-0.0131012,-0.00139875,-0.798866,-0.0150986,-0.0016056,0.0227537,3.08574,5,0.1,1,0.7,-4.66773,-2.46786,0.656325,0.85032,-0.0415526,-0.0285123,0.363946,-0.0458658,-0.0314564,0.00905465,2.06681,5,0.1,2,0.7,-1.63053,4.30234,0.735135,-0.0103304,-0.213391,0.326122,-0.0106171,-0.218898,0.334743,0.0199284,0.318002,5,0.1,3,0.7,3.70084,-0.674209,0.548306,-0.404642,0.267124,0.0167566,0.580624,0.30455,0.0191219,0.0268439,3.05685,5,0.1,4,0.7,-5.15351,-2.93561,0.659322,-0.0512056,0.681871,-0.0314652,-0.0526011,0.699848,-0.0322871,0.027425,0.980308,5,0.1,5,0.7,-0.165805,2.30316,0.643917,-0.531435,0.0469565,-0.010453,0.600349,0.053972,-0.0120103,0.0166531,2.95142,5,0.1,6,0.7,0.250729,-5.28363,0.680637,0.227263,0.268807,-0.021031,0.233269,0.27597,-0.021603,0.0135952,0.26018,5,0.1,7,0.7,4.62017,-5.6966,0.576119,-0.849669,0.107955,0.00868812,-0.375777,0.124663,0.0100434,0.0242095,2.32814,5,0.1,8,0.7,-4.60123,4.20166,0.63182,-0.0258826,-0.319136,0.221804,-0.0267327,-0.327557,0.227656,0.0372524,0.317373,5,0.1,9,0.7,-2.88046,5.62858,0.531984,0.75864,-0.522253,0.018907,0.869513,-0.603855,0.0218451,0.028044,2.21918,5,0.1
0,0.8,-3.22188,-0.390408,0.606372,0.48992,-0.0143424,-0.00153035,-1.05035,-0.009045,-0.000983477,0.0281465,3.33207,5,0.1,1,0.8,-4.58161,-2.47222,0.653336,0.86602,-0.0452399,-0.0310391,0.000238419,-0.0257492,-0.0177026,0.00871147,1.5849,5,0.1,2,0.8,-1.63161,4.28006,0.769193,-0.0111639,-0.230551,0.352366,-0.00554323,-0.115156,0.175804,0.0179492,0.224533,5,0.1,3,0.8,3.66325,-0.646147,0.550067,-0.348634,0.292042,0.018321,0.490308,0.179857,0.0112951,0.0266315,3.19206,5,0.1,4,0.8,-5.15886,-2.8644,0.656036,-0.055325,0.736743,-0.033997,-0.0274181,0.367522,-0.0169277,0.0234515,0.692163,5,0.1,5,0.8,-0.215791,2.3081,0.642818,-0.468301,0.0513911,-0.0114396,0.604532,0.0320673,-0.00715256,0.0134917,3.00284,5,0.1,6,0.8,0.274462,-5.25556,0.678441,0.245553,0.290453,-0.0227243,0.122473,0.14472,-0.0113547,0.0104176,0.183701,5,0.1,7,0.8,4.53407,-5.68525,0.577032,-0.86602,0.11822,0.00951588,-0.000238419,0.0748634,0.00602007,0.0307575,2.26111,5,0.1,8,0.8,-4.60394,4.16834,0.654983,-0.0279784,-0.344813,0.239652,-0.0140667,-0.172138,0.119567,0.0200198,0.224081,5,0.1,9,0.8,-2.80073,5.57366,0.533972,0.829935,-0.571978,0.0207067,0.516653,-0.362873,0.0131428,0.0262209,2.06982,5,0.1
0,0.9,-3.17851,-0.391889,0.606214,0.376394,-0.0152653,-0.00163056,-1.12781,-0.00847504,-0.000916421,0.0281465,3.33207,5,0.1,1,0.9,-4.49501,-2.47687,0.650146,0.865945,-0.0476304,-0.032681,-0.00321865,-0.0197142,-0.0135377,0.00871147,1.5849,5,0.1,2,0.9,-1.63275,4.25645,0.805268,-0.0116659,-0.240985,0.368297,-0.00397116,-0.0824332,0.125926,0.0179492,0.224533,5,0.1,3,0.9,3.63054,-0.616143,0.551949,-0.308618,0.306759,0.0192449,0.317708,0.103626,0.00650808,0.0266315,3.19206,5,0.1,4,0.9,-5.16452,-2.78898,0.652555,-0.0578105,0.770047,-0.0355313,-0.0196099,0.263289,-0.0121295,0.0234515,0.692163,5,0.1,5,0.9,-0.259646,2.3134,0.641637,-0.412826,0.0546571,-0.0121675,0.37721,0.0299066,-0.00666827,0.0134917,3.00284,5,0.1,6,0.9,0.299602,-5.22583,0.676114,0.256651,0.303572,-0.0237528,0.0877269,0.103682,-0.00812858,0.0104176,0.183701,5,0.1,7,0.9,4.44747,-5.67304,0.578015,-0.866026,0.125936,0.0101367,0,0.0715852,0.0057593,0.0307575,2.26111,5,0.1,8,0.9,-4.6068,4.13303,0.679519,-0.029251,-0.36041,0.250487,-0.0100136,-0.123262,0.0856407,0.0200198,0.224081,5,0.1,9,0.9,-2.71586,5.51458,0.536111,0.861206,-0.609569,0.0220683,0.141516,-0.350237,0.0126846,0.0262209,2.06982,5,0.1
0,1,-3.14606,-0.39345,0.606047,0.278205,-0.0158794,-0.00169724,-0.789762,-0.00314415,-0.000327826,0.0212713,3.35944,5,0.1,1,1,-4.40845,-2.4817,0.646828,0.864732,-0.0487924,-0.0334799,-0.0257492,-0.00214577,-0.00143051,0.00812953,1.21004,5,0.1,2,1,-1.63393,4.23207,0.842532,-0.0118703,-0.245214,0.374748,0.000298023,0.00500679,-0.00807643,0.0129905,0.152689,5,0.1,3,1,3.60104,-0.585147,0.553894,-0.283426,0.311007,0.0195116,0.195384,-0.025481,-0.00160933,0.030994,3.2408,5,0.1,4,1,-5.17037,-2.71106,0.64896,-0.0588179,0.783533,-0.0361517,0.00143051,-0.0169277,0.00077486,0.0230064,0.470704,5,0.1,5,1,-0.3,2.31899,0.640393,-0.403721,0.0568032,-0.0126481,-0.175953,0.0110865,-0.00241399,0.0111474,2.81922,5,0.1,6,1,0.32557,-5.19511,0.673711,0.261144,0.308883,-0.0241682,-0.00564754,-0.00667572,0.000476837,0.0103982,0.12493,5,0.1,7,1,4.36086,-5.66015,0.579053,-0.866032,0.131178,0.0105605,0.000238419,0.0283718,0.00223517,0.0275267,2.2601,5,0.1,8,1,-4.60976,4.09657,0.704863,-0.0297546,-0.366724,0.254874,0.000476837,0.00786781,-0.00548363,0.0273903,0.152378,5,0.1,9,1,-2.62938,5.45215,0.538371,0.866026,-0.635481,0.0230059,0,-0.140667,0.005126,0.0294211,2.01996,5,0.1
0,1.1,-3.12164,-0.395057,0.605875,0.218794,-0.016245,-0.0017358,-0.296175,-0.00328384,-0.000350177,0.0212713,3.35944,5,0.1,1,1.1,-4.32199,-2.48659,0.643474,0.864991,-0.0488956,-0.0335464,0.0038445,0.00195205,0.00138581,0.00812953,1.21004,5,0.1,2,1.1,-1.63511,4.20758,0.879951,-0.0118148,-0.244161,0.373106,0.0012517,0.025034,-0.0384636,0.0129905,0.152689,5,0.1,3,1.1,3.57392,-0.554178,0.555837,-0.257859,0.308036,0.0193242,0.259444,-0.0452958,-0.00285357,0.030994,3.2408,5,0.1,4,1.1,-5.17624,-2.63283,0.645351,-0.0585459,0.780099,-0.0359938,0.00616908,-0.0804067,0.00370294,0.0230064,0.470704,5,0.1,5,1.1,-0.342615,2.32474,0.639114,-0.459449,0.0580929,-0.0129309,-0.831149,0.0115633,-0.00254065,0.0111474,2.81922,5,0.1,6,1.1,0.351645,-5.16427,0.671298,0.259998,0.307529,-0.0240654,-0.0268128,-0.0316799,0.00245869,0.0103982,0.12493,5,0.1,7,1.1,4.27426,-5.64686,0.580122,-0.866023,0.134564,0.0108294,-2.98023e-05,0.0316799,0.00252575,0.0275267,2.2601,5,0.1,8,1.1,-4.61273,4.05995,0.730312,-0.0296362,-0.365119,0.253758,0.00301003,0.0376701,-0.0261553,0.0273903,0.152378,5,0.1,9,1.1,-2.54278,5.38775,0.540703,0.865825,-0.652856,0.0236376,-0.00804663,-0.168115,0.00610575,0.0294211,2.01996,5,0.1
0,1.2,-3.1,-0.396692,0.605701,0.225776,-0.0163868,-0.0017494,0.401616,0.00108778,8.9407e-05,0.0223567,3.04018,5,0.1,1,1.2,-4.2356,-2.49145,0.64014,0.861096,-0.048089,-0.0329882,-0.0984669,0.0154972,0.0106394,0.0131618,0.895849,5,0.1,2,1.2,-1.63628,4.18338,0.916928,-0.0115514,-0.238729,0.364782,0.00441074,0.0896454,-0.137001,0.0123754,0.166455,5,0.1,3,1.2,3.5492,-0.523709,0.557748,-0.239599,0.300059,0.0188217,0.0816584,-0.121772,-0.00759959,0.0272911,3.15076,5,0.1,4,1.2,-5.18204,-2.55552,0.641783,-0.0572324,0.762695,-0.0351906,0.0214577,-0.28646,0.0132024,0.0245868,0.680747,5,0.1,5,1.2,-0.393069,2.33058,0.637813,-0.551066,0.0585794,-0.013037,-0.919819,-0.00405312,0.000923872,0.0080379,2.5129,5,0.1,6,1.2,0.377412,-5.13379,0.668912,0.254197,0.300682,-0.0235304,-0.0955015,-0.113249,0.00882149,0.0110854,0.140986,5,0.1,7,1.2,4.18766,-5.63329,0.581214,-0.866032,0.136209,0.0109598,0.000238419,-0.0038147,-0.000298023,0.025165,2.26003,5,0.1,8,1.2,-4.61567,4.02376,0.755461,-0.0289798,-0.356972,0.248097,0.0109673,0.133991,-0.0931919,0.0234719,0.171931,5,0.1,9,1.2,-2.4563,5.32184,0.543089,0.862807,-0.662541,0.0239894,-0.0642538,0.00166893,-2.98023e-05,0.0204701,2.01372,5,0.1
0,1.3,-3.07395,-0.398328,0.605526,0.306911,-0.016361,-0.00174874,1.10757,0.000268221,1.11759e-05,0.0223567,3.04018,5,0.1,1,1.3,-4.14973,-2.49618,0.636893,0.857554,-0.0465479,-0.0319296,-0.0195503,0.016883,0.0115931,0.0131618,0.895849,5,0.1,2,1.3,-1.63742,4.15979,0.952736,-0.011117,-0.23431,0.351238,0.00463426,0.0160635,-0.145212,0.0123754,0.166455,5,0.1,3,1.3,3.52551,-0.494259,0.559595,-0.23854,0.28917,0.0181415,-0.162676,-0.107609,-0.0067316,0.0272911,3.15076,5,0.1,4,1.3,-5.18766,-2.48033,0.638329,-0.0551112,0.743268,-0.0338852,0.0227392,-0.145555,0.0139996,0.0245868,0.680747,5,0.1,5,1.3,-0.453378,2.33643,0.636511,-0.658906,0.0584997,-0.0130178,-1.14884,-0.000596046,0.000149012,0.0080379,2.5129,5,0.1,6,1.3,0.402514,-5.1041,0.666589,0.249007,0.294522,-0.0230508,-0.0258107,-0.0306666,0.00238419,0.0110854,0.140986,5,0.1,7,1.3,4.10106,-5.61966,0.582311,-0.866023,0.136659,0.0109972,-2.98023e-05,0.00539422,0.00044331,0.025165,2.26003,5,0.1,8,1.3,-4.61853,3.98851,0.779961,-0.0283778,-0.34969,0.243032,0.00309944,0.0362247,-0.0251867,0.0234719,0.171931,5,0.1,9,1.3,-2.37008,5.25539,0.545495,0.863262,-0.667416,0.024168,0.035271,-0.0600219,0.00219047,0.0204701,2.01372,5,0.1
0,1.4,-3.03733,-0.399959,0.605352,0.427294,-0.0161909,-0.00173151,1.21379,0.00374019,0.000357628,0.0209577,2.63648,5,0.1,1,1.4,-4.06426,-2.50074,0.633767,0.849164,-0.0444591,-0.0304937,-0.181675,0.0261068,0.0178516,0.0126253,0.639365,5,0.1,2,1.4,-1.6385,4.13644,0.987045,-0.0105649,-0.232542,0.333855,0.00673532,0.0321865,-0.209868,0.0118793,0.117806,5,0.1,3,1.4,3.5,-0.465934,0.561373,-0.279635,0.276579,0.0173524,-0.632048,-0.152171,-0.00950694,0.025265,2.86533,5,0.1,4,1.4,-5.19305,-2.40679,0.635019,-0.0523806,0.726134,-0.0322089,0.0326633,-0.228167,0.0202358,0.0231874,0.495024,5,0.1,5,1.4,-0.524796,2.34227,0.635213,-0.765613,0.0579357,-0.0128925,-0.92122,-0.0126362,0.00283122,0.0159288,2.33095,5,0.1,6,1.4,0.427283,-5.0748,0.664296,0.24602,0.290978,-0.0227734,-0.0465661,-0.0550747,0.00432134,0.0106775,0.0825412,5,0.1,7,1.4,4.01445,-5.606,0.58341,-0.866032,0.136006,0.0109464,0.000119209,-0.0236034,-0.00190735,0.0355846,2.19266,5,0.1,8,1.4,-4.62136,3.95373,0.804136,-0.0280261,-0.345498,0.240117,0.00548363,0.0654459,-0.0454783,0.0281428,0.13188,5,0.1,9,1.4,-2.28365,5.18851,0.547917,0.864053,-0.667882,0.0241861,-0.0393391,0.0782013,-0.00280142,0.0243371,2.01296,5,0.1
0,1.5,-2.98795,-0.401564,0.60518,0.563581,-0.0159295,-0.00170683,1.42169,0.00230037,0.000219792,0.0209577,2.63648,5,0.1,1,1.5,-3.9801,-2.50506,0.630803,0.834522,-0.041965,-0.0287868,-0.148982,0.0250787,0.0171736,0.0126253,0.639365,5,0.1,2,1.5,-1.63953,4.11326,1.01942,-0.00992436,-0.231508,0.313834,0.00638515,0.00211596,-0.200018,0.0118793,0.117806,5,0.1,3,1.5,3.4677,-0.438956,0.563065,-0.375585,0.263503,0.0165349,-1.18199,-0.120873,-0.00756234,0.025265,2.86533,5,0.1,4,1.5,-5.19813,-2.33526,0.631895,-0.049261,0.704612,-0.0302784,0.031203,-0.228316,0.0192896,0.0231874,0.495024,5,0.1,5,1.5,-0.60525,2.34801,0.633934,-0.836087,0.0571251,-0.0127107,-0.480868,-0.00661612,0.00148267,0.0159288,2.33095,5,0.1,6,1.5,0.451697,-5.04593,0.662036,0.242397,0.286695,-0.0224366,-0.0371896,-0.0439286,0.00346079,0.0106775,0.0825412,5,0.1,7,1.5,3.92851,-5.59248,0.584498,-0.84665,0.134434,0.0108196,0.371158,-0.0146031,-0.00117347,0.0355846,2.19266,5,0.1,8,1.5,-4.62412,3.91944,0.827856,-0.0272445,-0.340493,0.233551,0.0106394,0.0505596,-0.0900365,0.0281428,0.13188,5,0.1,9,1.5,-2.19727,5.12188,0.550331,0.864511,-0.666269,0.0241298,0.0187457,-0.0064671,0.000245869,0.0243371,2.01296,5,0.1
0,1.6,-2.92476,-0.403142,0.60501,0.696039,-0.0155918,-0.00167191,1.16193,0.00499189,0.000506639,0.0232541,2.37384,5,0.1,1,1.6,-3.8976,-2.50913,0.628015,0.812972,-0.0392258,-0.0269115,-0.307918,0.0303984,0.020951,0.00812768,0.874572,5,0.1,2,1.6,-1.64049,4.09016,1.04976,-0.00923872,-0.2298,0.292268,0.00756979,0.0419617,-0.237644,0.0134367,0.141338,5,0.1,3,1.6,3.42403,-0.413235,0.564679,-0.497645,0.250443,0.0157163,-1.18017,-0.148416,-0.00929832,0.0257523,2.52005,5,0.1,4,1.6,-5.20289,-2.26611,0.628969,-0.0458837,0.676107,-0.028199,0.0369549,-0.359297,0.0229478,0.0128649,0.884163,5,0.1,5,1.6,-0.690535,2.35368,0.632673,-0.862671,0.0560939,-0.0124797,-0.067085,-0.0162125,0.00357628,0.0110742,2.27072,5,0.1,6,1.6,0.47569,-5.01755,0.659815,0.236675,0.279939,-0.0219047,-0.0849962,-0.100374,0.00786781,0.0142332,0.0623638,5,0.1,7,1.6,3.8462,-5.57914,0.585572,-0.794792,0.131953,0.0106201,0.652432,-0.0400543,-0.00321865,0.0210362,1.97126,5,0.1,8,1.6,-4.62678,3.88573,0.850661,-0.0258207,-0.332695,0.221461,0.0178814,0.116229,-0.154018,0.0276759,0.161665,5,0.1,9,1.6,-2.11081,5.05534,0.55274,0.863671,-0.662446,0.0239924,-0.0470877,0.111103,-0.00405312,0.0225439,2.01859,5,0.1
0,1.7,-2.8499,-0.404682,0.604845,0.794771,-0.0152308,-0.00163512,0.785634,0.00303239,0.000309199,0.0232541,2.37384,5,0.1,1,1.7,-3.8174,-2.5129,0.625424,0.793916,-0.0363708,-0.0249443,-0.12368,0.0278056,0.0191368,0.00812768,0.874572,5,0.1,2,1.7,-1.64138,4.06716,1.078,-0.00865906,-0.232055,0.274037,0.00457466,-0.064224,-0.144124,0.0134367,0.141338,5,0.1,3,1.7,3.3679,-0.388839,0.56621,-0.627424,0.238112,0.0149432,-1.33021,-0.109566,-0.00687316,0.0257523,2.52005,5,0.1,4,1.7,-5.2073,-2.20101,0.626258,-0.0424124,0.619636,-0.026048,0.0337064,-0.732511,0.0208467,0.0128649,0.884163,5,0.1,5,1.7,-0.777007,2.35923,0.631438,-0.865816,0.0550181,-0.0122433,-0.0083819,-0.00837445,0.00183657,0.0110742,2.27072,5,0.1,6,1.7,0.499002,-4.98998,0.657658,0.229949,0.271998,-0.0212816,-0.061322,-0.07236,0.00568852,0.0142332,0.0623638,5,0.1,7,1.7,3.77076,-5.56613,0.586619,-0.708331,0.128467,0.0103403,0.996083,-0.0351071,-0.00281632,0.0210362,1.97126,5,0.1,8,1.7,-4.62928,3.85302,0.872115,-0.024274,-0.321266,0.20816,0.0141263,0.123337,-0.121135,0.0276759,0.161665,5,0.1,9,1.7,-2.02447,4.98939,0.555129,0.864129,-0.658195,0.0238357,0.0243187,0.0135303,-0.00051409,0.0225439,2.01859,5,0.1
0,1.8,-2.76726,-0.406187,0.604684,0.850123,-0.0148483,-0.00159442,0.31805,0.0051856,0.000536442,0.02435,2.2827,5,0.1,1,1.8,-3.73867,-2.5164,0.623027,0.779557,-0.0334859,-0.0229567,-0.199914,0.030756,0.0210404,0.00817646,2.20842,5,0.1,2,1.8,-1.64222,4.04361,1.10472,-0.0082314,-0.238669,0.260484,0.00441074,-0.05126,-0.139594,0.0118721,0.0875172,5,0.1,3,1.8,3.29883,-0.365588,0.56767,-0.749034,0.226586,0.0142202,-1.04046,-0.129014,-0.00810623,0.0223123,2.31893,5,0.1,4,1.8,-5.21137,-2.14307,0.623759,-0.0389338,0.536245,-0.0239,0.0367165,-0.906706,0.02262,0.0143397,2.71102,5,0.1,5,1.8,-0.863606,2.36468,0.630225,-0.866026,0.0539005,-0.0119969,0,-0.0162125,0.00360608,0.00767938,2.27006,5,0.1,6,1.8,0.521651,-4.96318,0.655562,0.222421,0.263107,-0.020583,-0.0974238,-0.114918,0.0090301,0.0102788,0.0277988,5,0.1,7,1.8,3.70497,-5.55348,0.587637,-0.608176,0.124013,0.00998229,0.961781,-0.0576973,-0.00461936,0.0189425,1.75622,5,0.1,8,1.8,-4.63164,3.8216,0.892318,-0.0228286,-0.306195,0.195673,0.015974,0.185132,-0.135005,0.023449,0.31686,5,0.1,9,1.8,-1.93801,4.92374,0.557506,0.863984,-0.652957,0.0236437,-0.0408888,0.119448,-0.00432134,0.0191914,2.02465,5,0.1
0,1.9,-2.68128,-0.407652,0.604526,0.865032,-0.0144855,-0.00155671,0.0397563,0.00287779,0.000301749,0.02435,2.2827,5,0.1,1,1.9,-3.66069,-2.5196,0.620831,0.787931,-0.0306327,-0.0210038,0.277862,0.0272244,0.0186451,0.00817646,2.20842,5,0.1,2,1.9,-1.64303,4.01957,1.13015,-0.00785757,-0.241143,0.248596,0.00343472,0.00779331,-0.109375,0.0118721,0.0875172,5,0.1,3,1.9,3.21952,-0.343477,0.569057,-0.828994,0.21633,0.0135753,-0.553221,-0.0874102,-0.00549853,0.0223123,2.31893,5,0.1,4,1.9,-5.21509,-2.09448,0.621319,-0.0355266,0.433128,-0.0262495,0.0324547,-1.06607,-0.0590831,0.0143397,2.71102,5,0.1,5,1.9,-0.950208,2.37001,0.629038,-0.866025,0.0528622,-0.0117661,7.45058e-06,-0.00761449,0.00169128,0.00767938,2.27006,5,0.1,6,1.9,0.543402,-4.93745,0.653549,0.212393,0.251273,-0.0196535,-0.109114,-0.128835,0.0101104,0.0102788,0.0277988,5,0.1,7,1.9,3.64886,-5.54135,0.588614,-0.517789,0.118721,0.00955854,0.746176,-0.0525415,-0.00420958,0.0189425,1.75622,5,0.1,8,1.9,-4.63384,3.79221,0.911185,-0.0211418,-0.278719,0.181366,0.0180602,0.351414,-0.153255,0.023449,0.31686,5,0.1,9,1.9,-1.85164,4.85877,0.559859,0.864443,-0.648138,0.0234692,0.0205263,0.0165105,-0.000599772,0.0191914,2.02465,5,0.1
0,2,-2.59469,-0.409085,0.604372,0.866026,-0.0141352,-0.00151992,0,0.00469387,0.000506639,0.0165057,2.2718,5,0.1,1,2,-3.58032,-2.52253,0.618824,0.819522,-0.0278831,-0.0191212,0.287294,0.0282526,0.0194013,0.00792562,1.79956,5,0.1,2,2,-1.6438,3.99563,1.15444,-0.00748336,-0.236166,0.236702,0.00429153,0.0950098,-0.136256,0.0159895,0.0984516,5,0.1,3,2,3.13465,-0.322288,0.570387,-0.8609,0.20717,0.0129983,-0.10252,-0.103831,-0.00649691,0.0209088,2.24891,5,0.1,4,2,-5.21848,-2.0562,0.618336,-0.03227,0.336647,-0.0338495,0.033617,-0.81706,-0.0848174,0.0131145,2.53348,5,0.1,5,2,-1.03681,2.37526,0.627871,-0.866026,0.051856,-0.0115424,0,-0.0145435,0.00324845,0.00820563,2.27017,5,0.1,6,2,0.564037,-4.91304,0.65164,0.19962,0.236177,-0.0184685,-0.150084,-0.177383,0.0138581,0.00725456,0.0104006,5,0.1,7,2,3.6,-5.52976,0.589547,-0.467539,0.112748,0.00907928,0.272632,-0.0698566,-0.00563264,0.0204263,1.47902,5,0.1,8,2,-4.63586,3.76628,0.928512,-0.0191927,-0.238311,0.164701,0.0214577,0.445843,-0.181109,0.0251604,0.310008,5,0.1,9,2,-1.76516,4.79414,0.562199,0.86402,-0.642884,0.0232786,-0.0400543,0.116348,-0.00420213,0.0144887,1.83717,5,0.1
0,2.1,-2.50809,-0.410481,0.604222,0.866026,-0.0138267,-0.00148611,0,0.00227988,0.000257045,0.0165057,2.2718,5,0.1,1,2.1,-3.49744,-2.52518,0.617003,0.832808,-0.025285,-0.0173368,-0.0301301,0.0244975,0.016816,0.00792562,1.79956,5,0.1,2,2.1,-1.64453,3.97275,1.17752,-0.00713356,-0.219082,0.225543,0.00308454,0.237823,-0.0985637,0.0159895,0.0984516,5,0.1,3,2.1,3.04825,-0.301993,0.57166,-0.865705,0.199409,0.0125123,-0.012815,-0.0626277,-0.00392646,0.0209088,2.24891,5,0.1,4,2.1,-5.22155,-2.02597,0.614462,-0.0291839,0.274564,-0.0440494,0.0290275,-0.42069,-0.111204,0.0131145,2.53348,5,0.1,5,2.1,-1.12341,2.38039,0.626728,-0.866026,0.0509813,-0.011347,0,-0.00596046,0.00132993,0.00820563,2.27017,5,0.1,6,2.1,0.583231,-4.89033,0.649864,0.184038,0.217755,-0.0170285,-0.16408,-0.194013,0.0151694,0.00725456,0.0104006,5,0.1,7,2.1,3.55353,-5.51882,0.590428,-0.470561,0.10628,0.00855792,-0.25484,-0.0631511,-0.00508875,0.0204263,1.47902,5,0.1,8,2.1,-4.63767,3.74477,0.944093,-0.017105,-0.191394,0.147027,0.0205636,0.482693,-0.17447,0.0251604,0.310008,5,0.1,9,2.1,-1.67879,4.7302,0.564514,0.86446,-0.637162,0.0230721,0.0166968,0.0346303,-0.00124797,0.0144887,1.83717,5,0.1
0,2.2,-2.42149,-0.411851,0.604075,0.866026,-0.0135414,-0.00145435,0,0.00397861,0.000447035,0.0207594,2.27181,5,0.1,1,2.2,-3.41489,-2.52759,0.615353,0.812376,-0.0228584,-0.0156686,-0.380993,0.0247955,0.0169277,0.0160458,1.78541,5,0.1,2,2.2,-1.64522,3.9522,1.19956,-0.00680387,-0.190294,0.215009,0.00375509,0.329971,-0.120342,0.0104307,0.19061,5,0.1,3,2.2,2.96165,-0.282372,0.572891,-0.866026,0.192718,0.0120923,0,-0.0792444,-0.00497699,0.027098,2.24972,5,0.1,4,2.2,-5.22433,-2,0.609512,-0.0263095,0.250494,-0.0547051,0.0288486,-0.0847578,-0.0960231,0.0123148,2.3413,5,0.1,5,2.2,-1.21002,2.38545,0.625602,-0.866026,0.0501454,-0.011161,0,-0.0127554,0.00286102,0.0106879,2.27027,5,0.1,6,2.2,0.600776,-4.86957,0.64824,0.166416,0.196922,-0.0153989,-0.189692,-0.22459,0.0175536,0.0107406,0.00515662,5,0.1,7,2.2,3.50486,-5.50852,0.591258,-0.504738,0.0994921,0.00801235,-0.36931,-0.074625,-0.00604987,0.0308225,1.16745,5,0.1,8,2.2,-4.63928,3.72803,0.957921,-0.0150442,-0.143516,0.12947,0.0209808,0.46742,-0.178009,0.0281508,0.308174,5,0.1,9,2.2,-1.59236,4.66677,0.566811,0.862679,-0.629735,0.0228018,-0.0668168,0.14019,-0.00503659,0.016481,1.35882,5,0.1
0,2.3,-2.33489,-0.413191,0.603931,0.866026,-0.0133004,-0.00142651,0,0.00163168,0.00019744,0.0207594,2.27181,5,0.1,1,2.3,-3.33659,-2.52968,0.613814,0.744585,-0.0184294,-0.0155791,-0.917614,0.0596195,-0.0114627,0.0160458,1.78541,5,0.1,2,2.3,-1.64588,3.93494,1.22043,-0.0063993,-0.15397,0.202064,0.00444055,0.385925,-0.141777,0.0104307,0.19061,5,0.1,3,2.3,2.87505,-0.263405,0.574081,-0.866026,0.187251,0.0117484,0,-0.0411356,-0.0025928,0.027098,2.24972,5,0.1,4,2.3,-5.22682,-1.97541,0.603545,-0.0236779,0.241644,-0.0646304,0.0245571,-0.0628382,-0.0963584,0.0123148,2.3413,5,0.1,5,2.3,-1.29662,2.39043,0.624495,-0.866026,0.0494301,-0.0110004,0,-0.00450015,0.00101328,0.0106879,2.27027,5,0.1,6,2.3,0.616478,-4.85099,0.646787,0.147679,0.174738,-0.0136644,-0.186943,-0.221282,0.0173077,0.0107406,0.00515662,5,0.1,7,2.3,3.45209,-5.49892,0.59203,-0.553761,0.0925884,0.0074531,-0.551075,-0.0665188,-0.00537559,0.0308225,1.16745,5,0.1,8,2.3,-4.64069,3.71594,0.970013,-0.0130698,-0.0993256,0.112676,0.0187159,0.411406,-0.159837,0.0281508,0.308174,5,0.1,9,2.3,-1.50615,4.60436,0.569071,0.863054,-0.61893,0.0224134,0.0246838,0.105143,-0.00379235,0.016481,1.35882,5,0.1
0,2.4,-2.24828,-0.414511,0.60379,0.866026,-0.0130787,-0.00140071,0,0.00335276,0.000357628,0.0207675,2.27181,5,0.1,1,2.4,-3.26722,-2.5312,0.612177,0.63889,-0.0116825,-0.0173092,-1.15323,0.0721216,-0.0203252,0.00983559,1.66373,5,0.1,2,2.4,-1.6465,3.9215,1.23988,-0.00590086,-0.114983,0.186148,0.00566244,0.385523,-0.178277,0.019098,0.44683,5,0.1,3,2.4,2.78845,-0.244897,0.575242,-0.866026,0.182595,0.011456,0,-0.0598878,-0.00378489,0.0190088,2.25137,5,0.1,4,2.4,-5.22907,-1.95136,0.596641,-0.0212789,0.241703,-0.0729352,0.0238419,0.0724196,-0.0654459,0.0108736,2.11508,5,0.1,5,2.4,-1.38322,2.39534,0.623401,-0.866026,0.0487447,-0.0108466,0,-0.0114441,0.0025332,0.00837662,2.27035,5,0.1,6,2.4,0.630304,-4.83463,0.645508,0.128745,0.152338,-0.0119105,-0.192732,-0.228405,0.0178218,0.0140385,0.00159746,5,0.1,7,2.4,3.39406,-5.49,0.592748,-0.604576,0.0856757,0.00689477,-0.421524,-0.0736713,-0.00593066,0.018138,0.887969,5,0.1,8,2.4,-4.6419,3.70794,0.980498,-0.0112534,-0.0620365,0.0971705,0.0174046,0.331521,-0.151604,0.0277907,0.490881,5,0.1,9,2.4,-1.4199,4.54313,0.571288,0.85918,-0.603759,0.021866,-0.136912,0.218153,-0.00789762,0.0143371,1.12418,5,0.1
0,2.5,-2.16168,-0.415808,0.603651,0.866026,-0.0128931,-0.00138059,0,0.00113435,0.00012666,0.0207675,2.27181,5,0.1,1,2.5,-3.20947,-2.53199,0.610321,0.514449,-0.00390932,-0.019981,-1.26046,0.0802875,-0.0303015,0.00983559,1.66373,5,0.1,2,2.5,-1.64734,3.91187,1.2576,-0.0132324,-0.0783529,0.168201,-0.13455,0.341818,-0.182554,0.019098,0.44683,5,0.1,3,2.5,2.70184,-0.226853,0.576374,-0.866026,0.178846,0.0112182,0,-0.0258414,-0.00164285,0.0190088,2.25137,5,0.1,4,2.5,-5.23108,-1.92681,0.589022,-0.0191145,0.251765,-0.0792975,0.020057,0.210978,-0.0570118,0.0108736,2.11508,5,0.1,5,2.5,-1.46982,2.40018,0.622325,-0.866026,0.0481393,-0.010713,0,-0.00356138,0.00077486,0.00837662,2.27035,5,0.1,6,2.5,0.642227,-4.82053,0.644405,0.109825,0.129925,-0.0101604,-0.185862,-0.22012,0.0171922,0.0140385,0.00159746,5,0.1,7,2.5,3.33134,-5.48178,0.59341,-0.650141,0.0788897,0.00634873,-0.443086,-0.0646114,-0.00519678,0.018138,0.887969,5,0.1,8,2.5,-4.64294,3.70329,0.989497,-0.00964403,-0.0319667,0.0831639,0.0150204,0.262976,-0.130303,0.0277907,0.490881,5,0.1,9,2.5,-1.33451,4.48359,0.573439,0.849273,-0.588726,0.0211604,-0.101499,0.11602,-0.0070706,0.0143371,1.12418,5,0.1
0,2.6,-2.07508,-0.41709,0.603513,0.866026,-0.0127181,-0.00136197,0,0.00290573,0.000327826,0.0172713,2.27182,5,0.1,1,2.6,-3.16403,-2.53198,0.608174,0.39829,0.00383258,-0.0228822,-1.02305,0.07236,-0.0256896,0.00931697,1.5338,5,0.1,2,2.6,-1.64945,3.90563,1.27348,-0.0296593,-0.0474632,0.149348,-0.180304,0.273108,-0.195503,0.0134443,0.426934,5,0.1,3,2.6,2.61524,-0.209114,0.577487,-0.866026,0.175582,0.011012,0,-0.0471324,-0.00298023,0.022932,2.2526,5,0.1,4,2.6,-5.2329,-1.9,0.580853,-0.0171661,0.289974,-0.0835344,0.0195503,0.531793,-0.0244975,0.0154784,1.79514,5,0.1,5,2.6,-1.55643,2.40497,0.621259,-0.866026,0.0475407,-0.0105798,0,-0.0106096,0.00229478,0.0139956,2.27042,5,0.1,6,2.6,0.652291,-4.80862,0.643474,0.0915587,0.10829,-0.00846982,-0.179321,-0.211954,0.0165999,0.0115079,0.000857,5,0.1,7,2.6,3.26439,-5.47422,0.594018,-0.685251,0.0723243,0.00582188,-0.226617,-0.0681877,-0.00551343,0.0191088,0.115092,5,0.1,8,2.6,-4.64384,3.70126,0.997186,-0.00822544,-0.0104427,0.0708014,0.0135899,0.164509,-0.118196,0.0252082,0.70056,5,0.1,9,2.6,-1.2503,4.42536,0.575515,0.832072,-0.574803,0.0203088,-0.270367,0.186205,-0.0106096,0.0099662,0.79504,5,0.1
0,2.7,-1.98848,-0.418353,0.603378,0.866026,-0.0125695,-0.00134474,0,0.000827014,0.000100583,0.0172713,2.27182,5,0.1,1,2.7,-3.12888,-2.53124,0.60575,0.311374,0.0109836,-0.025618,-0.641018,0.0683665,-0.0268556,0.00931697,1.5338,5,0.1,2,2.7,-1.65345,3.90216,1.28744,-0.0514552,-0.0229973,0.129868,-0.240177,0.210956,-0.194266,0.0134443,0.426934,5,0.1,3,2.7,2.52864,-0.191714,0.578578,-0.866026,0.172906,0.010842,0,-0.0168122,-0.00107661,0.022932,2.2526,5,0.1,4,2.7,-5.23452,-1.86749,0.572382,-0.0154018,0.366735,-0.0857593,0.0162721,0.921644,-0.0161864,0.0154784,1.79514,5,0.1,5,2.7,-1.64303,2.40969,0.620208,-0.866026,0.0469968,-0.0104643,0,-0.00309944,0.00064075,0.0139956,2.27042,5,0.1,6,2.7,0.660572,-4.79883,0.642708,0.0742829,0.0878684,-0.00687046,-0.165772,-0.19595,0.0153445,0.0115079,0.000857,5,0.1,7,2.7,3.19532,-5.4673,0.594575,-0.690433,0.0660717,0.00531673,0.120372,-0.058949,-0.00476092,0.0191088,0.115092,5,0.1,8,2.7,-4.64459,3.701,1.00371,-0.00698864,0.00423454,0.0600532,0.0113249,0.105038,-0.0983328,0.0252082,0.70056,5,0.1,9,2.7,-1.16832,4.36866,0.577496,0.807819,-0.560027,0.0193315,-0.247292,0.136107,-0.0096336,0.0099662,0.79504,5,0.1
0,2.8,-1.90187,-0.419604,0.603244,0.866026,-0.0124231,-0.00132769,0,0.00263751,0.000298023,0.0202899,2.27182,5,0.1,1,2.8,-3.1,-2.52982,0.603066,0.275326,0.0171125,-0.0278845,-0.102043,0.0525713,-0.0169873,0.0106842,1.30697,5,0.1,2,2.8,-1.65979,3.90078,1.29946,-0.0750095,-0.00602603,0.110489,-0.219285,0.126362,-0.193179,0.0153797,0.679164,5,0.1,3,2.8,2.44204,-0.174528,0.579656,-0.866026,0.170435,0.0106856,0,-0.0400543,-0.0025332,0.018885,2.25362,5,0.1,4,2.8,-5.23598,-1.82612,0.563764,-0.0138283,0.460008,-0.0861347,0.0154972,0.882745,0.0112057,0.0126769,1.423,5,0.1,5,2.8,-1.72963,2.41437,0.619166,-0.866026,0.0464439,-0.0103429,0,-0.0101328,0.00217557,0.0127978,2.27049,5,0.1,6,2.8,0.667197,-4.79099,0.642095,0.0584826,0.0691891,-0.00540763,-0.149906,-0.177145,0.0138879,0.0125202,0.0007328,5,0.1,7,2.8,3.12743,-5.46099,0.595083,-0.661993,0.0601768,0.00484139,0.442863,-0.0607967,-0.00485778,0.019294,0.0564632,5,0.1,8,2.8,-4.64524,3.70171,1.00925,-0.0059247,0.00730157,0.0508606,0.0100136,-0.0522137,-0.0866055,0.0224336,1.19993,5,0.1,9,2.8,-1.08895,4.31343,0.579378,0.777128,-0.543022,0.0182629,-0.388861,0.222445,-0.0121891,0.0161384,0.549677,5,0.1
0,2.9,-1.81527,-0.420838,0.603113,0.866026,-0.0122944,-0.00131242,0,0.000678003,8.19564e-05,0.0202899,2.27182,5,0.1,1,2.9,-3.0719,-2.52786,0.600192,0.295379,0.0220776,-0.0295712,0.427544,0.0449419,-0.0150427,0.0106842,1.30697,5,0.1,2,2.9,-1.66858,3.90079,1.30958,-0.102064,0.00534467,0.0920856,-0.300169,0.0796467,-0.175364,0.0153797,0.679164,5,0.1,3,2.9,2.35543,-0.157614,0.580716,-0.866026,0.1683,0.0105501,0,-0.0126977,-0.000808388,0.018885,2.25362,5,0.1,4,2.9,-5.2373,-1.77543,0.555207,-0.0124343,0.554859,-0.0849379,0.0127852,0.951797,0.0158399,0.0126769,1.423,5,0.1,5,2.9,-1.81623,2.41898,0.618139,-0.866026,0.0459265,-0.0102341,0,-0.00293553,0.000610948,0.0127978,2.27049,5,0.1,6,2.9,0.672324,-4.78492,0.641621,0.0443661,0.0525042,-0.00410005,-0.131961,-0.155985,0.012219,0.0125202,0.0007328,5,0.1,7,2.9,3.06354,-5.45523,0.595547,-0.614706,0.0554703,0.00446578,0.510007,-0.0370443,-0.0029467,0.019294,0.0564632,5,0.1,8,2.9,-4.64579,3.70206,1.01393,-0.00502691,-0.00327602,0.0430897,0.00813603,-0.228584,-0.0701547,0.0224336,1.19993,5,0.1,9,2.9,-1.01307,4.26013,0.581147,0.741142,-0.523445,0.0171348,-0.357594,0.190794,-0.0109561,0.0161384,0.549677,5,0.1
0,3,-1.72867,-0.422063,0.602982,0.866026,-0.0121608,-0.00129789,-5.96046e-05,0.0025034,0.000298023,0.0157898,2.27183,5,0.1,1,3,-3.03987,-2.52545,0.597174,0.347495,0.0258088,-0.0306085,0.557065,0.028491,-0.00455976,0.00835026,0.965137,5,0.1,2,3,-1.68027,3.90152,1.31793,-0.131282,0.00699162,0.0753403,-0.268161,-0.0545979,-0.159979,0.0129751,1.35986,5,0.1,3,3,2.26883,-0.140869,0.581766,-0.866026,0.166173,0.0104144,0,-0.037007,-0.00229478,0.023146,2.25456,5,0.1,4,3,-5.23848,-1.71549,0.54682,-0.0111938,0.639659,-0.0824511,0.0123978,0.699699,0.0359416,0.0160683,0.603351,5,0.1,5,3,-1.90284,2.42355,0.61712,-0.866026,0.0453889,-0.0101179,0,-0.00989437,0.00217557,0.010277,2.27056,5,0.1,6,3,0.676134,-4.78041,0.641269,0.0321612,0.0380754,-0.0029698,-0.111789,-0.132322,0.0103414,0.00716792,0.000559941,5,0.1,7,3,3.00477,-5.44985,0.59598,-0.558925,0.0521421,0.00420064,0.609159,-0.0324249,-0.0025928,0.0175294,0.09472,5,0.1,8,3,-4.64625,3.7,1.01791,-0.00427961,-0.0436604,0.0365943,0.00715256,-0.56231,-0.0606179,0.022704,1.71069,5,0.1,9,3,-0.940866,4.20884,0.582804,0.701116,-0.501204,0.015974,-0.461072,0.269175,-0.0126362,0.00839609,0.374127,5,0.1
0,3.1,-1.64207,-0.423271,0.602853,0.866025,-0.0120393,-0.00128252,1.49012e-05,0.000644475,8.56817e-05,0.0157898,2.27183,5,0.1,1,3.1,-3.00196,-2.52281,0.594142,0.413105,0.0262134,-0.0295723,0.700518,-0.0169873,0.0234023,0.00835026,0.965137,5,0.1,2,3.1,-1.69511,3.90186,1.32471,-0.168048,-0.00284314,0.0605011,-0.430875,-0.207365,-0.137396,0.0129751,1.35986,5,0.1,3,3.1,2.18223,-0.124371,0.5828,-0.866026,0.164212,0.0102937,0,-0.0119004,-0.000730157,0.023146,2.25456,5,0.1,4,3.1,-5.23954,-1.64831,0.538749,-0.0100806,0.700275,-0.0789676,0.0101924,0.483863,0.0362992,0.0160683,0.603351,5,0.1,5,3.1,-1.98944,2.42806,0.616115,-0.866025,0.0448763,-0.0100051,0,-0.00301003,0.000666827,0.010277,2.27056,5,0.1,6,3.1,0.678821,-4.77723,0.641021,0.0219041,0.025934,-0.00202097,-0.0930987,-0.110209,0.00861287,0.00716792,0.000559941,5,0.1,7,3.1,2.95164,-5.44478,0.596388,-0.505909,0.0494599,0.00398615,0.472859,-0.023663,-0.00188872,0.0175294,0.09472,5,0.1,8,3.1,-4.64649,3.69178,1.02129,0.000800937,-0.128919,0.0312179,0.0846684,-1.05838,-0.0480264,0.022704,1.71069,5,0.1,9,3.1,-0.87293,4.15997,0.584342,0.658325,-0.476648,0.0148075,-0.416864,0.23967,-0.0111833,0.00839609,0.374127,5,0.1
0,3.2,-1.55546,-0.42447,0.602725,0.866026,-0.011909,-0.00126809,-5.96046e-05,0.00247359,0.000298023,0.0156534,2.27183,5,0.1,1,3.2,-2.95727,-2.52032,0.591335,0.47816,0.0230432,-0.0262752,0.560999,-0.0437498,0.0409484,0.0118674,0.229745,5,0.1,2,3.2,-1.71409,3.9,1.3301,-0.211123,-0.0395477,0.0477523,-0.403464,-0.511885,-0.118136,0.0108159,1.15418,5,0.1,3,3.2,2.09563,-0.108033,0.583824,-0.866026,0.162136,0.0101656,0,-0.0365043,-0.00229478,0.0260428,2.15184,5,0.1,4,3.2,-5.2405,-1.57641,0.531051,-0.00909567,0.731754,-0.0747636,0.00977516,0.127792,0.0495017,0.0105995,0.790065,5,0.1,5,3.2,-2.07604,2.43252,0.615119,-0.866026,0.044328,-0.00988394,0,-0.00965595,0.00220537,0.00731133,2.27063,5,0.1,6,3.2,0.680579,-4.77515,0.640859,0.0135735,0.0160813,-0.00125021,-0.0734329,-0.0872612,0.00676513,0.00835623,0.000330537,5,0.1,7,3.2,2.90334,-5.43995,0.596777,-0.460607,0.0469923,0.00378937,0.448823,-0.0271797,-0.00220537,0.0230714,0.163272,5,0.1,8,3.2,-4.64592,3.67335,1.02418,0.0109196,-0.240469,0.0267953,0.110388,-1.10829,-0.041306,0.0353555,1.72993,5,0.1,9,3.2,-0.809256,4.11357,0.585766,0.614019,-0.450277,0.0136569,-0.484288,0.299931,-0.0121891,0.00805308,0.25233,5,0.1
0,3.3,-1.46886,-0.425653,0.6026,0.866025,-0.0117856,-0.00125235,1.49012e-05,0.000694767,9.31323e-05,0.0156534,2.27183,5,0.1,1,3.3,-2.90703,-2.51827,0.58893,0.522702,0.0177421,-0.0216777,0.317261,-0.0597835,0.0496767,0.0118674,0.229745,5,0.1,2,3.3,-1.73733,3.89282,1.33432,-0.254094,-0.109169,0.0370197,-0.428207,-0.821427,-0.0971258,0.0108159,1.15418,5,0.1,3,3.3,2.00902,-0.0919444,0.584833,-0.866026,0.159974,0.0100296,0,-0.0157183,-0.000990927,0.0260428,2.15184,5,0.1,4,3.3,-5.24136,-1.50244,0.523881,-0.00821874,0.748284,-0.0681247,0.00801682,0.15945,0.0810809,0.0105995,0.790065,5,0.1,5,3.3,-2.16264,2.43693,0.614138,-0.866026,0.0438146,-0.00976473,0,-0.00315905,0.000752509,0.00731133,2.27063,5,0.1,6,3.3,0.681596,-4.77395,0.640766,0.0070543,0.00833794,-0.000649504,-0.0569411,-0.0676215,0.00525266,0.00835623,0.000330537,5,0.1,7,3.3,2.85909,-5.43538,0.597146,-0.427766,0.0444688,0.00358466,0.240013,-0.0248253,-0.00201166,0.0230714,0.163272,5,0.1,8,3.3,-4.64422,3.64328,1.02667,0.0234447,-0.363832,0.0231696,0.132769,-1.28527,-0.0321344,0.0353555,1.72993,5,0.1,9,3.3,-0.750138,4.06995,0.587074,0.569233,-0.422662,0.0125368,-0.429831,0.266969,-0.0106208,0.00805308,0.25233,5,0.1
0,3.4,-1.38226,-0.426827,0.602475,0.866026,-0.0116512,-0.0012368,-5.96046e-05,0.0025034,0.000268221,0.015807,2.27184,5,0.1,1,3.4,-2.85366,-2.51681,0.587016,0.539708,0.0115275,-0.016579,0.0165701,-0.0624657,0.05126,0.00993817,0.241763,5,0.1,2,3.4,-1.76473,3.87769,1.33757,-0.292015,-0.193447,0.0282139,-0.310421,-0.819683,-0.0795126,0.010409,0.917427,5,0.1,3,3.4,1.92242,-0.0760515,0.585829,-0.866026,0.15746,0.00987202,0,-0.0408849,-0.0025928,0.0253595,1.69928,5,0.1,4,3.4,-5.24214,-1.42705,0.51751,-0.00743866,0.756294,-0.0589579,0.00762939,-0.0295639,0.100315,0.00954584,0.386257,5,0.1,5,3.4,-2.24925,2.44128,0.613167,-0.866026,0.0432611,-0.00963658,0,-0.00989437,0.00223517,0.00747691,2.2707,5,0.1,6,3.4,0.682044,-4.77342,0.640724,0.00217408,0.00255108,-0.000199676,-0.0407398,-0.048399,0.00375509,0.00810006,0.000146975,5,0.1,7,3.4,2.81738,-5.43107,0.597494,-0.407034,0.041759,0.00336617,0.198722,-0.0302792,-0.00244379,0.0157427,0.0971685,5,0.1,8,3.4,-4.64123,3.60068,1.02884,0.0362158,-0.484765,0.020206,0.116825,-1.0798,-0.0277758,0.0271905,0.164591,5,0.1,9,3.4,-0.695397,4.02906,0.588275,0.524943,-0.394416,0.011465,-0.468642,0.308275,-0.0110865,0.0084981,0.257122,5,0.1
0,3.5,-1.29566,-0.427984,0.602352,0.866025,-0.0115205,-0.00122292,1.49012e-05,0.000789762,7.82311e-05,0.015807,2.27184,5,0.1,1,3.5,-2.79962,-2.51597,0.585615,0.540234,0.00514425,-0.0114589,-0.0268519,-0.0633746,0.0502057,0.00993817,0.241763,5,0.1,2,3.5,-1.79549,3.85405,1.34002,-0.322715,-0.279988,0.0211302,-0.281997,-0.866413,-0.062719,0.010409,0.917427,5,0.1,3,3.5,1.83582,-0.0604759,0.586805,-0.866004,0.154206,0.00966564,0.000864267,-0.0313776,-0.00198185,0.0253595,1.69928,5,0.1,4,3.5,-5.24285,-1.35164,0.51214,-0.0067547,0.750543,-0.0482671,0.00631809,-0.110202,0.111252,0.00954584,0.386257,5,0.1,5,3.5,-2.33585,2.44558,0.612211,-0.866026,0.0427075,-0.00951039,0,-0.00363588,0.00083819,0.00747691,2.2707,5,0.1,6,3.5,0.68208,-4.77338,0.640721,-0.00126064,-0.00152588,0.000117067,-0.0281259,-0.0333786,0.00259653,0.00810006,0.000146975,5,0.1,7,3.5,2.7775,-5.42704,0.597818,-0.391743,0.0388138,0.00312859,0.128269,-0.0296533,-0.00238791,0.0157427,0.0971685,5,0.1,8,3.5,-4.6372,3.54773,1.03074,0.0427485,-0.565042,0.0180971,0.0200272,-0.531942,-0.0158548,0.0271905,0.164591,5,0.1,9,3.5,-0.645108,3.99091,0.589369,0.481826,-0.370479,0.0104509,-0.409089,0.192493,-0.00953674,0.0084981,0.257122,5,0.1
0,3.6,-1.20905,-0.42913,0.60223,0.866026,-0.0113778,-0.00120848,-5.96046e-05,0.0025481,0.000238419,0.0169772,2.27184,5,0.1,1,3.6,-2.74594,-2.51576,0.584712,0.530881,-0.000828505,-0.00670105,-0.173926,-0.0547171,0.0442564,0.00809327,0.285871,5,0.1,2,3.6,-1.82898,3.82195,1.34185,-0.34478,-0.359046,0.0155658,-0.144541,-0.682473,-0.0491142,0.0111509,0.690913,5,0.1,3,3.6,1.74923,-0.0452445,0.58776,-0.865683,0.149968,0.00939816,0.00691414,-0.0583678,-0.00363588,0.0214177,1.3579,5,0.1,4,3.6,-5.2435,-1.27744,0.507872,-0.00613928,0.730178,-0.0371099,0.00619888,-0.313044,0.11012,0.0101676,0.60771,5,0.1,5,3.6,-2.42245,2.44982,0.611265,-0.866026,0.0421047,-0.00937432,0,-0.0100136,0.00226498,0.00730896,2.25269,5,0.1,6,3.6,0.681832,-4.77367,0.640744,-0.00348985,-0.0041604,0.000323355,-0.0167191,-0.0200272,0.00151992,0.00823518,5.00526e-05,5,0.1,7,3.6,2.739,-5.42331,0.598119,-0.377762,0.0356674,0.00287443,0.166416,-0.033617,-0.00268221,0.0257523,0.0773936,5,0.1,8,3.6,-4.63294,3.48943,1.03248,0.0413656,-0.592709,0.0167757,-0.0426769,-0.0309944,-0.0115633,0.0172168,0.105323,5,0.1,9,3.6,-0.598974,3.95479,0.590367,0.440519,-0.352108,0.00950247,-0.427723,0.191092,-0.00974536,0.00928932,0.200359,5,0.1
0,3.7,-1.12245,-0.43026,0.60211,0.866025,-0.0112381,-0.00119656,1.49012e-05,0.00090152,7.45058e-05,0.0169772,2.27184,5,0.1,1,3.7,-2.69355,-2.51611,0.584257,0.518078,-0.00610463,-0.00248561,-0.109136,-0.0494272,0.0393726,0.00809327,0.285871,5,0.1,2,3.7,-1.86417,3.78264,1.34318,-0.35829,-0.426071,0.0112839,-0.108548,-0.623599,-0.0369996,0.0111509,0.690913,5,0.1,3,3.7,1.66267,-0.0303574,0.588683,-0.865566,0.149194,0.00907285,0.00634789,0.0271892,-0.00323728,0.0214177,1.3579,5,0.1,4,3.7,-5.24393,-1.20565,0.504698,-0.00113845,0.707741,-0.026563,0.0841618,-0.176147,0.0995621,0.0101676,0.60771,5,0.1,5,3.7,-2.50905,2.454,0.610335,-0.866026,0.0415113,-0.00923928,0,-0.00421703,0.000961125,0.00730896,2.25269,5,0.1,6,3.7,0.681414,-4.77417,0.640783,-0.00473075,-0.00564381,0.000436138,-0.008367,-0.00998378,0.000763685,0.00823518,5.00526e-05,5,0.1,7,3.7,2.70188,-5.4199,0.598394,-0.365707,0.0325643,0.00262633,0.0965148,-0.0295341,-0.00236183,0.0257523,0.0773936,5,0.1,8,3.7,-4.62909,3.43023,1.03411,0.0349537,-0.58877,0.0159035,-0.0811219,0.120312,-0.00686198,0.0172168,0.105323,5,0.1,9,3.7,-0.556929,3.92079,0.591272,0.401373,-0.325472,0.00861576,-0.368077,0.333637,-0.00827387,0.00928932,0.200359,5,0.1
0,3.8,-1.03585,-0.431377,0.601991,0.866026,-0.0110857,-0.00118315,-2.98023e-05,0.0026077,0.000268221,0.0146555,2.27185,5,0.1,1,3.8,-2.64236,-2.51695,0.584192,0.504452,-0.0104845,0.00106096,-0.182509,-0.0373125,0.0311136,0.00784246,0.343409,5,0.1,2,3.8,-1.90037,3.73725,1.34414,-0.36363,-0.477952,0.00807643,0.0131726,-0.39041,-0.0274777,0.0107908,0.261998,5,0.1,3,3.8,1.57624,-0.0152668,0.589573,-0.861764,0.152668,0.00869036,0.0851154,0.0306112,-0.00467896,0.0199965,1.01546,5,0.1,4,3.8,-5.24356,-1.1358,0.502513,0.00897646,0.688013,-0.0174031,0.110388,-0.2473,0.0827909,0.0110983,0.272993,5,0.1,5,3.8,-2.59566,2.45812,0.609418,-0.866026,0.040859,-0.00909269,0,-0.0104904,0.00235438,0.00721413,1.79278,5,0.1,6,3.8,0.680912,-4.77477,0.640829,-0.00521541,-0.00622272,0.000481308,-0.00157952,-0.00166893,0.000119209,0.0100238,1.52132e-05,5,0.1,7,3.8,2.66582,-5.41679,0.598644,-0.354743,0.0295877,0.00238717,0.138164,-0.030756,-0.00244379,0.0219482,0.150499,5,0.1,8,3.8,-4.62604,3.37227,1.03567,0.0259399,-0.567043,0.0152349,-0.0958443,0.3196,-0.00715256,0.0163735,0.173373,5,0.1,9,3.8,-0.51862,3.89009,0.592093,0.364716,-0.286925,0.00780076,-0.374094,0.429869,-0.00825524,0.0103348,0.17392,5,0.1
0,3.9,-0.949245,-0.432477,0.601874,0.866025,-0.0109353,-0.00116779,3.72529e-06,0.00102818,0.000100583,0.0146555,2.27185,5,0.1,1,3.9,-2.59256,-2.51818,0.584446,0.493483,-0.0139453,0.00392739,-0.0684857,-0.0308752,0.025712,0.00784246,0.343409,5,0.1,2,3.9,-1.93635,3.68772,1.34483,-0.352942,-0.509994,0.00574645,0.194691,-0.233218,-0.0194982,0.0107908,0.261998,5,0.1,3,3.9,1.4902,0.000235176,0.59042,-0.860447,0.157878,0.00825971,-0.00914186,0.0613771,-0.00423193,0.0199965,1.01546,5,0.1,4,3.9,-5.24221,-1.0682,0.501153,0.0170685,0.663902,-0.0101519,0.0540912,-0.25738,0.0621118,0.0110983,0.272993,5,0.1,5,3.9,-2.68226,2.46217,0.608518,-0.866026,0.0400357,-0.00890801,0,-0.00786781,0.00176206,0.00721413,1.79278,5,0.1,6,3.9,0.68039,-4.77539,0.640877,-0.00513066,-0.00610203,0.000471529,0.00300258,0.00375509,-0.000286847,0.0100238,1.52132e-05,5,0.1,7,3.9,2.63087,-5.41399,0.598871,-0.345471,0.0264041,0.00213329,0.0678897,-0.0329316,-0.00263751,0.0219482,0.150499,5,0.1,8,3.9,-4.62391,3.31706,1.03716,0.0165917,-0.537587,0.0144457,-0.0896156,0.288725,-0.00888854,0.0163735,0.173373,5,0.1,9,3.9,-0.483898,3.86369,0.592834,0.330646,-0.239747,0.00705281,-0.318073,0.502586,-0.00694022,0.0103348,0.17392,5,0.1
0,4,-0.862643,-0.433564,0.601758,0.866026,-0.0107728,-0.00115186,0,0.00268221,0.000298023,0.0150633,2.03196,5,0.1,1,4,-2.54358,-2.51971,0.584955,0.485325,-0.0164807,0.0061214,-0.117421,-0.0193119,0.0178218,0.00878527,0.251564,5,0.1,2,4,-1.97041,3.63592,1.34531,-0.3259,-0.521839,0.00410378,0.340044,0.00679493,-0.0136495,0.0139324,0.610938,5,0.1,3,4,1.40429,0.0162985,0.591223,-0.855133,0.162848,0.0077948,0.150383,0.0292781,-0.00530481,0.017187,0.730559,5,0.1,4,4,-5.2403,-1.00326,0.500413,0.0202894,0.632796,-0.00497401,0.0123978,-0.379652,0.0416338,0.0133322,0.181803,5,0.1,5,4,-2.76886,2.46612,0.607638,-0.866026,0.0389695,-0.0086695,0,-0.0149012,0.00330806,0.00673045,1.38973,5,0.1,6,4,0.679898,-4.77598,0.640922,-0.00466555,-0.00554323,0.000427663,0.00602007,0.00762939,-0.000536442,0.00697954,8.73064e-06,5,0.1,7,4,2.59669,-5.41152,0.59907,-0.337625,0.0230074,0.00186116,0.103712,-0.0352859,-0.00283122,0.0140672,0.19057,5,0.1,8,4,-4.62268,3.26483,1.03855,0.0082612,-0.506067,0.01342,-0.0758171,0.354886,-0.0118017,0.018312,0.22697,5,0.1,9,4,-0.452403,3.84228,0.593505,0.299267,-0.18841,0.00637323,-0.317097,0.515103,-0.00685453,0.0110528,0.138795,5,0.1
0,4.1,-0.77604,-0.434631,0.601644,0.866026,-0.010588,-0.00113137,-3.72529e-06,0.00156835,0.000171363,0.0150633,2.03196,5,0.1,1,4.1,-2.49548,-2.52145,0.58565,0.477358,-0.0181891,0.00770465,-0.0670105,-0.0140369,0.0134557,0.00878527,0.251564,5,0.1,2,4.1,-2.00167,3.58356,1.34566,-0.302418,-0.526697,0.00299476,0.155777,-0.0698268,-0.00882149,0.0139324,0.610938,5,0.1,3,4.1,1.31937,0.0327648,0.591978,-0.843879,0.166582,0.00730446,0.114374,0.0357876,-0.00474975,0.017187,0.730559,5,0.1,4,4.1,-5.23826,-0.941801,0.500091,0.0201061,0.596728,-0.00177547,-0.0141263,-0.360411,0.0232458,0.0133322,0.181803,5,0.1,5,4.1,-2.85546,2.46995,0.606786,-0.865821,0.0376441,-0.0083752,0.00819564,-0.0131428,0.00292063,0.00673045,1.38973,5,0.1,6,4.1,0.679465,-4.77649,0.640962,-0.00396315,-0.00467002,0.000364892,0.00779331,0.00953674,-0.000700355,0.00697954,8.73064e-06,5,0.1,7,4.1,2.56307,-5.40939,0.599243,-0.337552,0.0196628,0.00159219,-0.0681877,-0.0318587,-0.002563,0.0140672,0.19057,5,0.1,8,4.1,-4.62222,3.21573,1.03984,0.00114441,-0.477713,0.0122579,-0.0655055,0.237972,-0.0116751,0.018312,0.22697,5,0.1,9,4.1,-0.423808,3.82597,0.594114,0.274678,-0.138297,0.00584451,-0.193065,0.480428,-0.00411645,0.0110528,0.138795,5,0.1
0,4.2,-0.689438,-0.43568,0.601532,0.866026,-0.0103652,-0.00110567,0,0.00329316,0.000327826,0.0215323,1.59899,5,0.1,1,4.2,-2.44817,-2.52332,0.586478,0.467652,-0.0191569,0.00874847,-0.14472,-0.00452995,0.00721216,0.00671003,0.178989,5,0.1,2,4.2,-2.03126,3.53064,1.34593,-0.290161,-0.529969,0.00228286,0.109196,0.028491,-0.00566244,0.00900405,0.450663,5,0.1,3,4.2,1.23576,0.0495483,0.592684,-0.825554,0.168376,0.00680387,0.279546,-0.00658989,-0.00545382,0.0174663,0.510619,5,0.1,4,4.2,-5.23635,-0.884023,0.500006,0.0178099,0.557587,-0.000149012,-0.0300407,-0.435024,0.010103,0.010782,2.18853,5,0.1,5,4.2,-2.94194,2.47364,0.605965,-0.862753,0.0360787,-0.00802875,0.0655651,-0.0190735,0.00426173,0.00634039,1.04608,5,0.1,6,4.2,0.679109,-4.77691,0.640995,-0.00314862,-0.00368357,0.000290573,0.00831485,0.0100136,-0.000745058,0.00704265,8.28455e-06,5,0.1,7,4.2,2.52892,-5.40758,0.59939,-0.345337,0.0165939,0.00134408,-0.0623465,-0.0295639,-0.00238419,0.0158089,0.118001,5,0.1,8,4.2,-4.62241,3.16913,1.041,-0.00464916,-0.454032,0.0110477,-0.0500679,0.254273,-0.0125766,0.0173872,0.929784,5,0.1,9,4.2,-0.397225,3.81444,0.59468,0.25745,-0.0934601,0.00548065,-0.16515,0.41151,-0.00348687,0.0123004,0.280366,5,0.1
0,4.3,-0.602837,-0.436702,0.601422,0.865956,-0.0100872,-0.0010781,-0.00277534,0.00271387,0.000275671,0.0215323,1.59899,5,0.1,1,4.3,-2.40203,-2.52526,0.587385,0.455472,-0.0194825,0.00934098,-0.119045,-0.0013113,0.00432134,0.00671003,0.178989,5,0.1,2,4.3,-2.05993,3.47768,1.34613,-0.284535,-0.529655,0.00186116,0.0238419,0.00487268,-0.00301003,0.00900405,0.450663,5,0.1,3,4.3,1.15448,0.0663713,0.593338,-0.800429,0.168071,0.00630105,0.255093,-0.00719305,-0.00480935,0.0174663,0.510619,5,0.1,4,4.3,-5.23458,-0.83,0.500029,0.01873,0.526497,0.000485685,0.0399053,-0.217296,0.00310317,0.010782,2.18853,5,0.1,5,4.3,-3.02816,2.47716,0.605182,-0.863135,0.0343259,-0.0076375,-0.0255257,-0.0172108,0.00384077,0.00634039,1.04608,5,0.1,6,4.3,0.678836,-4.77723,0.64102,-0.00230931,-0.00267848,0.000215229,0.00829995,0.00992417,-0.000748783,0.00704265,8.28455e-06,5,0.1,7,4.3,2.49397,-5.40606,0.599513,-0.35401,0.0138275,0.00112047,-0.0888854,-0.0259578,-0.00209734,0.0158089,0.118001,5,0.1,8,4.3,-4.62295,3.12421,1.04205,-0.00475347,-0.450752,0.00985377,0.0388622,-0.128463,-0.0115037,0.0173872,0.929784,5,0.1,9,4.3,-0.372197,3.807,0.595213,0.243869,-0.0568237,0.00519678,-0.118645,0.319675,-0.00245869,0.0123004,0.280366,5,0.1
0,4.4,-0.516277,-0.437695,0.601316,0.864917,-0.00974685,-0.00104308,-0.0221729,0.00438094,0.000476837,0.0201018,1.22274,5,0.1,1,4.4,-2.35717,-2.5272,0.588334,0.440425,-0.0193119,0.00956208,-0.195622,0.00524521,-8.9407e-05,0.0083791,0.124292,5,0.1,2,4.4,-2.08826,3.42488,1.3463,-0.281858,-0.524402,0.00163913,0.0447035,0.118732,-0.00160933,0.0111256,0.257042,5,0.1,3,4.4,1.07588,0.0830901,0.593944,-0.769126,0.165645,0.00580698,0.392914,-0.0465775,-0.0051856,0.0202118,0.349439,5,0.1,4,4.4,-5.23245,-0.778287,0.500085,0.0242829,0.508645,0.000566244,0.0646114,-0.164002,-0.00110269,0.00840415,1.99069,5,0.1,5,4.4,-3.11443,2.4805,0.604438,-0.859869,0.032419,-0.00721216,0.123143,-0.0216961,0.00479817,0.00843363,0.758268,5,0.1,6,4.4,0.678646,-4.77745,0.641038,-0.00151694,-0.00174046,0.000143051,0.00745058,0.00905991,-0.000685453,0.00671339,6.6197e-06,5,0.1,7,4.4,2.45823,-5.4048,0.599615,-0.359333,0.0113726,0.000922382,-0.00226498,-0.0228882,-0.00187755,0.0143026,0.111787,5,0.1,8,4.4,-4.62315,3.07827,1.04298,0.00149012,-0.469172,0.00871122,0.0793934,-0.19455,-0.0113845,0.015496,1.26829,5,0.1,9,4.4,-0.348409,3.80276,0.59572,0.231636,-0.0296652,0.00494421,-0.134692,0.223637,-0.00280142,0.0108383,0.260813,5,0.1
0,4.5,-0.429796,-0.43865,0.601214,0.865102,-0.00935006,-0.00100005,0.00185534,0.00391714,0.000424683,0.0201018,1.22274,5,0.1,1,4.5,-2.31403,-2.52911,0.589288,0.422716,-0.0187486,0.00949129,-0.174955,0.00655651,-0.00158697,0.0083791,0.124292,5,0.1,2,4.5,-2.11617,3.37297,1.34646,-0.275517,-0.514106,0.00155233,0.0884086,0.109017,-0.000312924,0.0111256,0.257042,5,0.1,3,4.5,1.00082,0.0994383,0.594501,-0.732777,0.161323,0.00533061,0.360433,-0.0461056,-0.00451133,0.0202118,0.349439,5,0.1,4,4.5,-5.22965,-0.728717,0.500134,0.0322409,0.47935,0.000393949,0.0881255,-0.370812,-0.00219047,0.00840415,1.99069,5,0.1,5,4.5,-3.19998,2.48364,0.60374,-0.851917,0.0304136,-0.00676829,0.0779033,-0.019446,0.00430644,0.00843363,0.758268,5,0.1,6,4.5,0.67853,-4.77758,0.641049,-0.000811927,-0.000889599,7.80448e-05,0.00654906,0.00780821,-0.000603497,0.00671339,6.6197e-06,5,0.1,7,4.5,2.4223,-5.40376,0.599698,-0.358918,0.00956878,0.000748876,0.0245422,-0.0141561,-0.0016056,0.0143026,0.111787,5,0.1,8,4.5,-4.62254,3.02972,1.04379,0.0113107,-0.506687,0.00765249,0.110179,-0.489533,-0.00996888,0.015496,1.26829,5,0.1,9,4.5,-0.325954,3.8008,0.5962,0.21702,-0.0107557,0.00463938,-0.160515,0.152498,-0.00335649,0.0108383,0.260813,5,0.1
0,4.6,-0.343397,-0.439564,0.601116,0.861226,-0.0089027,-0.000952184,-0.095979,0.00527501,0.000566244,0.014261,1.49892,5,0.1,1,4.6,-2.27271,-2.53094,0.590225,0.402665,-0.0178993,0.00920147,-0.237226,0.0106096,-0.00435114,0.00797091,0.114494,5,0.1,2,4.6,-2.14317,3.32223,1.34662,-0.263166,-0.498927,0.00154376,0.162125,0.209451,5.96046e-05,0.0110768,0.610676,5,0.1,3,4.6,0.929462,0.115299,0.595011,-0.69261,0.155378,0.00487417,0.460833,-0.0770092,-0.00470877,0.0143841,0.236015,5,0.1,4,4.6,-5.22599,-0.682664,0.500161,0.0407934,0.442116,0.000153482,0.0782013,-0.348628,-0.00244379,0.0122331,1.77456,5,0.1,5,4.6,-3.28458,2.48658,0.603085,-0.837171,0.0283539,-0.00631213,0.246286,-0.0224113,0.00494719,0.00915743,0.532891,5,0.1,6,4.6,0.678479,-4.77763,0.641054,-0.000223517,-0.000190735,2.38419e-05,0.0051558,0.00596046,-0.000476837,0.00672769,3.83424e-06,5,0.1,7,4.6,2.38667,-5.40287,0.599765,-0.352108,0.00836849,0.000600517,0.120997,-0.010252,-0.00140071,0.0142446,0.21388,5,0.1,8,4.6,-4.62085,2.97656,1.04451,0.0223398,-0.555557,0.00668764,0.105381,-0.439048,-0.00947714,0.0166397,0.983353,5,0.1,9,4.6,-0.305116,3.80035,0.596646,0.199091,0.000613928,0.00426173,-0.199571,0.0748634,-0.00420213,0.0119166,1.17573,5,0.1
0,4.7,-0.257379,-0.440429,0.601024,0.861695,-0.0084165,-0.00090003,0.0591047,0.00474788,0.00051409,0.014261,1.49892,5,0.1,1,4.7,-2.23351,-2.53261,0.591072,0.382134,-0.0146974,0.00729971,-0.189856,0.0490695,-0.030674,0.00797091,0.114494,5,0.1,2,4.7,-2.16898,3.273,1.34677,-0.255668,-0.488445,0.00158269,0.0130981,0.0377595,0.000573695,0.0110768,0.610676,5,0.1,3,4.7,0.862376,0.130469,0.595476,-0.649864,0.148053,0.00444343,0.415906,-0.0744057,-0.00404939,0.0143841,0.236015,5,0.1,4,4.7,-5.2215,-0.640247,0.500165,0.0489213,0.40827,-5.70901e-05,0.0794232,-0.236362,-0.00176951,0.0122331,1.77456,5,0.1,5,4.7,-3.36719,2.48931,0.602477,-0.81548,0.0262868,-0.00585523,0.221476,-0.0198036,0.00438094,0.00915743,0.532891,5,0.1,6,4.7,0.678481,-4.77762,0.641054,0.00023758,0.000339001,-1.88127e-05,0.00401959,0.00455976,-0.000372529,0.00672769,3.83424e-06,5,0.1,7,4.7,2.35209,-5.40209,0.599819,-0.338865,0.00723898,0.000473019,0.152394,-0.0121593,-0.00115857,0.0142446,0.21388,5,0.1,8,4.7,-4.61807,2.91857,1.04513,0.0332408,-0.605561,0.00581965,0.107497,-0.509858,-0.00804663,0.0166397,0.983353,5,0.1,9,4.7,-0.28619,3.80089,0.597051,0.179491,0.0102147,0.00384869,-0.195203,0.0783801,-0.00411645,0.0119166,1.17573,5,0.1
0,4.8,-0.170954,-0.441246,0.600937,0.865671,-0.00790358,-0.000844896,-0.00709772,0.00573695,0.000596046,0.0161702,1.13266,5,0.1,1,4.8,-2.19628,-2.5338,0.591625,0.361896,-0.00886321,0.00360608,-0.226378,0.0642538,-0.040859,0.00931777,0.139883,5,0.1,2,4.8,-2.19456,3.22432,1.34693,-0.256139,-0.484878,0.00163317,-0.00369549,0.0612736,0.000417233,0.0115448,0.325295,5,0.1,3,4.8,0.79954,0.144874,0.595901,-0.605759,0.139675,0.0040397,0.481158,-0.0964478,-0.00411272,0.0141839,0.16108,5,0.1,4,4.8,-5.21624,-0.6,0.500152,0.0558376,0.402595,-0.000201166,0.0555515,0.10848,-0.00113249,0.00853537,1.49508,5,0.1,5,4.8,-3.44745,2.49184,0.601914,-0.787157,0.0242472,-0.00540316,0.368118,-0.0214577,0.00479817,0.00954903,0.3661,5,0.1,6,4.8,0.678523,-4.77757,0.641051,0.000573695,0.000715256,-4.91738e-05,0.00271201,0.00309944,-0.000268221,0.0149044,1.68622e-06,5,0.1,7,4.8,2.31907,-5.40143,0.59986,-0.320244,0.00596046,0.000368059,0.225306,-0.013113,-0.000983477,0.014439,0.195437,5,0.1,8,4.8,-4.61424,2.85569,1.04568,0.0429511,-0.648773,0.00505447,0.0832081,-0.318289,-0.00739098,0.0272492,2.46548,5,0.1,9,4.8,-0.269228,3.80208,0.597415,0.159603,0.0107527,0.00342727,-0.20428,-0.0841618,-0.00432134,0.0068101,3.63835,5,0.1
0,4.9,-0.0843955,-0.442009,0.600855,0.865446,-0.00737407,-0.000789668,-0.0107414,0.00509806,0.000532717,0.0161702,1.13266,5,0.1,1,4.9,-2.1609,-2.53429,0.591732,0.348182,-0.000458956,-0.00186814,-0.0759661,0.097692,-0.0643469,0.00931777,0.139883,5,0.1,2,4.9,-2.22034,3.1761,1.3471,-0.26044,-0.479288,0.00168681,-0.0626594,0.0702143,0.000551343,0.0115448,0.325295,5,0.1,3,4.9,0.741232,0.158231,0.596285,-0.561285,0.12633,0.00366503,0.426482,-0.165016,-0.00349805,0.0141839,0.16108,5,0.1,4,4.9,-5.21038,-0.558304,0.500127,0.0612535,0.438327,-0.000276696,0.0489652,0.530373,-0.000420958,0.00853537,1.49508,5,0.1,5,4.9,-3.52444,2.49417,0.601396,-0.753213,0.0222743,-0.00496199,0.33851,-0.0187159,0.0041835,0.00954903,0.3661,5,0.1,6,4.9,0.678592,-4.77748,0.641044,0.000795163,0.000967085,-7.10599e-05,0.00171363,0.00190735,-0.000167638,0.0149044,1.68622e-06,5,0.1,7,4.9,2.28819,-5.40091,0.599893,-0.297168,0.0043571,0.000280142,0.241324,-0.0178218,-0.000782311,0.014439,0.195437,5,0.1,8,4.9,-4.60956,2.78832,1.04615,0.0504576,-0.705191,0.00436399,0.064224,-0.717789,-0.00650436,0.0272492,2.46548,5,0.1,9,4.9,-0.254304,3.80274,0.597736,0.138744,-0.00146516,0.00298498,-0.212105,-0.309095,-0.00451133,0.0068101,3.63835,5,0.1
0,5,0.00196604,-0.442721,0.600779,0.859955,-0.00684187,-0.000733137,-0.121411,0.00572205,0.000596046,0.0129142,2.29428,5,0.1,1,5,-2.1264,-2.53383,0.591213,0.341833,0.00959635,-0.00850856,-0.0715256,0.0985861,-0.0652671,0.0114401,0.0848728,5,0.1,2,5,-2.24666,3.12867,1.34727,-0.265288,-0.467539,0.00172555,-0.0201464,0.178218,5.96046e-05,0.00740317,0.344126,5,0.1,3,5,0.687267,0.169963,0.596635,-0.517395,0.107678,0.00331998,0.463814,-0.203393,-0.00348687,0.0139792,0.111062,5,0.1,4,5,-5.20405,-0.511636,0.500099,0.064981,0.495399,-0.000292063,0.0228882,0.554129,5.96046e-05,0.0103671,1.17947,5,0.1,5,5,-3.59793,2.4963,0.600921,-0.714791,0.0203848,-0.00453889,0.448823,-0.0196695,0.00435114,0.00974449,0.247851,5,0.1,6,5,0.678678,-4.77738,0.641037,0.000914931,0.00109673,-8.34465e-05,0.000715256,0.000476837,-5.96046e-05,0.00668242,4.92958e-07,5,0.1,7,5,2.25974,-5.40056,0.599917,-0.271165,0.00259876,0.000210106,0.28193,-0.0164509,-0.000625849,0.0172585,0.276676,5,0.1,8,5,-4.60424,2.71418,1.04655,0.0553608,-0.776279,0.00374019,0.0319481,-0.635982,-0.00602007,0.0206713,2.39148,5,0.1,9,5,-0.241497,3.8,0.598012,0.117351,-0.0638664,0.00252873,-0.21489,-0.918269,-0.00455976,0.00891907,3.176,5,0.1
0,5.1,0.0878282,-0.443088,0.600709,0.860538,0.00190586,-0.000665337,0.0758822,0.151169,0.000752509,0.0129142,2.29428,5,0.1,1,5.1,-2.09247,-2.53237,0.590029,0.337397,0.0196349,-0.0151766,-0.0355244,0.0981838,-0.0652857,0.0114401,0.0848728,5,0.1,2,5.1,-2.27336,3.0826,1.34744,-0.268945,-0.455119,0.00173729,-0.0375062,0.0962019,9.68575e-05,0.00740317,0.344126,5,0.1,3,5.1,0.637709,0.17968,0.59695,-0.47474,0.0864101,0.0030037,0.404473,-0.217778,-0.00293553,0.0139792,0.111062,5,0.1,4,5.1,-5.19744,-0.459039,0.50007,0.0670806,0.557988,-0.000267848,0.0160336,0.642985,0.00038743,0.0103671,1.17947,5,0.1,5,5.1,-3.6673,2.49825,0.600488,-0.673148,0.0185862,-0.00414057,0.406951,-0.0168979,0.00375137,0.00974449,0.247851,5,0.1,6,5.1,0.678772,-4.77727,0.641028,0.000951253,0.00110939,-8.62405e-05,2.23517e-05,-0.000208616,7.45058e-06,0.00668242,4.92958e-07,5,0.1,7,5.1,2.23398,-5.40044,0.599935,-0.24434,-0.000596046,0.000155717,0.260323,-0.039041,-0.000469387,0.0172585,0.276676,5,0.1,8,5.1,-4.59855,2.63389,1.0469,0.0582241,-0.823805,0.0031976,0.0227392,-0.29701,-0.00493973,0.0206713,2.39148,5,0.1,9,5.1,-0.230711,3.7877,0.598234,0.0994601,-0.192376,0.0018565,-0.148951,-1.53813,-0.008367,0.00891907,3.176,5,0.1
0,5.2,0.174222,-0.442025,0.600646,0.866025,0.0201792,-0.000584126,0,0.200212,0.000864267,0.0152447,2.27499,5,0.1,1,5.2,-2.05897,-2.52995,0.588204,0.33161,0.0285387,-0.0210881,-0.0932217,0.0772476,-0.0509024,0.00858758,0.0672592,5,0.1,2,5.2,-2.30037,3.03761,1.34762,-0.270152,-0.443846,0.00172555,0.0240803,0.14782,-0.000238419,0.0132508,0.247885,5,0.1,3,5.2,0.592261,0.187237,0.597236,-0.433928,0.0648666,0.00271499,0.422299,-0.209838,-0.00289083,0.0128214,0.241909,5,0.1,4,5.2,-5.19068,-0.400247,0.500046,0.0676751,0.61462,-0.000219047,-0.00619888,0.450567,0.000536442,0.00885968,1.01551,5,0.1,5,5.2,-3.73249,2.50002,0.600092,-0.629544,0.0168979,-0.00376701,0.480771,-0.0171661,0.0038445,0.00880992,0.166506,5,0.1,6,5.2,0.678867,-4.77716,0.64102,0.000922382,0.00106096,-8.34465e-05,-0.000566244,-0.000953674,2.98023e-05,0.00738487,1.3109e-07,5,0.1,7,5.2,2.21085,-5.40068,0.599949,-0.218153,-0.00385046,0.000114739,0.267267,-0.0209808,-0.000357628,0.0211219,0.783439,5,0.1,8,5.2,-4.59265,2.5507,1.04719,0.0594616,-0.833046,0.00273883,0.000476837,0.120997,-0.00435114,0.0145399,2.79814,5,0.1,9,5.2,-0.221442,3.76052,0.598375,0.0864934,-0.351489,0.000947714,-0.115015,-1.55807,-0.00935793,0.0136366,2.69436,5,0.1
0,5.3,0.260824,-0.438888,0.600592,0.866025,0.0433575,-0.000500306,8.9407e-07,0.249038,0.000812113,0.0152447,2.27499,5,0.1,1,5.3,-2.02615,-2.5267,0.585835,0.325464,0.0363477,-0.0262591,-0.0487119,0.0748336,-0.0496618,0.00858758,0.0672592,5,0.1,2,5.3,-2.3273,2.99385,1.34779,-0.268536,-0.432129,0.00170358,0.0206232,0.107318,-0.000268221,0.0132508,0.247885,5,0.1,3,5.3,0.550635,0.192709,0.597496,-0.401348,0.0449949,0.00249203,0.255667,-0.185262,-0.00174344,0.0128214,0.241909,5,0.1,4,5.3,-5.18395,-0.337627,0.500027,0.0669777,0.627831,-0.000161771,-0.010252,-0.147335,0.000584871,0.00885968,1.01551,5,0.1,5,5.3,-3.79318,2.50163,0.599734,-0.585055,0.015334,-0.00341702,0.428066,-0.0146031,0.0032708,0.00880992,0.166506,5,0.1,6,5.3,0.678955,-4.77706,0.641012,0.000846479,0.000951439,-7.82311e-05,-0.000927597,-0.0012219,7.45058e-05,0.00738487,1.3109e-07,5,0.1,7,5.3,2.19038,-5.40128,0.599959,-0.191109,-0.00853166,8.33534e-05,0.273496,-0.0400841,-0.000271946,0.0211219,0.783439,5,0.1,8,5.3,-4.58669,2.46923,1.04745,0.0595652,-0.785292,0.00235885,-0.00104308,0.783876,-0.00335276,0.0145399,2.79814,5,0.1,9,5.3,-0.213274,3.71715,0.598421,0.0776354,-0.517935,-3.75323e-05,-0.0679661,-1.68219,-0.0099726,0.0136366,2.69436,5,0.1
0,5.4,0.347427,-0.433324,0.600546,0.866026,0.0674941,-0.000421703,0,0.2231,0.000804663,0.0120599,2.27165,5,0.1,1,5.4,-1.9939,-2.52272,0.582982,0.318649,0.04282,-0.0305399,-0.100791,0.0517368,-0.0339448,0.00864395,0.0313069,5,0.1,2,5.4,-2.35397,2.95124,1.34796,-0.263941,-0.418854,0.00165999,0.0798702,0.172853,-0.000655651,0.00917078,0.173838,5,0.1,3,5.4,0.511681,0.196338,0.597737,-0.378209,0.0281882,0.00233799,0.226587,-0.149459,-0.00149012,0.0144007,0.201564,5,0.1,4,5.4,-5.17733,-0.276304,0.500013,0.0652194,0.592194,-0.000104308,-0.0267029,-0.534019,0.000506639,0.00864557,0.883156,5,0.1,5,5.4,-3.84951,2.50309,0.599408,-0.540709,0.0138938,-0.00309497,0.471711,-0.0146627,0.00327826,0.0111071,0.111579,5,0.1,6,5.4,0.679035,-4.77697,0.641004,0.000740588,0.000822544,-7.00355e-05,-0.00116229,-0.00166893,0.000119209,0.0142792,8.68139e-08,5,0.1,7,5.4,2.17265,-5.40217,0.599966,-0.163507,-0.0071764,5.81145e-05,0.278115,0.0815392,-0.000178814,0.0215772,2.48179,5,0.1,8,5.4,-4.58076,2.39537,1.04767,0.058794,-0.685483,0.00205338,-0.0157356,1.17028,-0.00286102,0.0139891,3.05221,5,0.1,9,5.4,-0.205812,3.65734,0.598369,0.0718784,-0.672656,-0.000983477,-0.0515729,-1.3485,-0.00864267,0.0109833,2.39344,5,0.1
0,5.5,0.434026,-0.42542,0.600507,0.865869,0.0906716,-0.000348501,-0.00627324,0.228485,0.000670552,0.0120599,2.27165,5,0.1,1,5.5,-1.96255,-2.5182,0.579773,0.308137,0.0473063,-0.0334753,-0.119284,0.0358969,-0.0233054,0.00864395,0.0313069,5,0.1,2,5.5,-2.38,2.91014,1.34812,-0.256622,-0.403681,0.00159778,0.0765622,0.147417,-0.00064075,0.00917078,0.173838,5,0.1,3,5.5,0.475007,0.198483,0.597963,-0.354939,0.0154221,0.00218796,0.246117,-0.106566,-0.0015609,0.0144007,0.201564,5,0.1,4,5.5,-5.17093,-0.220442,0.500005,0.0626214,0.519968,-5.7742e-05,-0.0272691,-0.841826,0.000409782,0.00864557,0.883156,5,0.1,5,5.5,-3.90136,2.50441,0.599114,-0.497268,0.0125639,-0.00279797,0.413045,-0.0123382,0.00275299,0.0111071,0.111579,5,0.1,6,5.5,0.679103,-4.77689,0.640998,0.000618026,0.000659376,-5.76489e-05,-0.0012666,-0.00157952,0.000130385,0.0142792,8.68139e-08,5,0.1,7,5.5,2.15765,-5.40251,0.599971,-0.136819,0.0035733,4.24683e-05,0.256091,0.257909,-0.00013411,0.0215772,2.48179,5,0.1,8,5.5,-4.57495,2.33326,1.04786,0.0574335,-0.552356,0.00181012,-0.0139475,1.43012,-0.00210106,0.0139891,3.05221,5,0.1,9,5.5,-0.198816,3.58405,0.598228,0.0685601,-0.785558,-0.00183266,-0.0202535,-0.887051,-0.00805408,0.0109833,2.39344,5,0.1
0,5.6,0.520531,-0.415282,0.600476,0.863518,0.111143,-0.000286102,-0.0501573,0.172436,0.000566244,0.0146379,2.5391,5,0.1,1,5.6,-1.93243,-2.51333,0.576336,0.29318,0.0496626,-0.0349656,-0.186145,0.0101328,-0.00563264,0.01414,0.0122057,5,0.1,2,5.6,-2.40522,2.87058,1.34828,-0.246936,-0.38653,0.0015229,0.123739,0.207186,-0.000953674,0.00755559,0.119458,5,0.1,3,5.6,0.440824,0.199558,0.598174,-0.327804,0.00671409,0.00201911,0.301108,-0.0684932,-0.00190735,0.011921,0.325119,5,0.1,4,5.6,-5.16482,-0.172726,0.500001,0.0594139,0.434712,-2.38419e-05,-0.038147,-0.823118,0.000268221,0.00763375,0.789528,5,0.1,5,5.6,-3.94901,2.50561,0.598848,-0.455403,0.0113606,-0.00252724,0.435114,-0.0122786,0.00271201,0.0068719,0.129094,5,0.1,6,5.6,0.679158,-4.77684,0.640993,0.000491738,0.000500679,-4.61936e-05,-0.0012815,-0.00119209,0.000149012,0.00799276,8.6481e-08,5,0.1,7,5.6,2.14522,-5.4,0.599974,-0.112224,0.0551939,3.12924e-05,0.236154,0.757456,-8.9407e-05,0.0238732,2.16381,5,0.1,8,5.6,-4.56929,2.28519,1.04803,0.0555992,-0.410014,0.00161827,-0.0243187,1.37341,-0.00178814,0.0251672,2.96456,5,0.1,9,5.6,-0.192047,3.50193,0.598007,0.0668775,-0.847936,-0.00254512,-0.0174344,-0.3618,-0.00602007,0.0101028,2.28265,5,0.1
0,5.7,0.605566,-0.40329,0.60045,0.82772,0.128581,-0.000236649,-0.618681,0.165638,0.000435859,0.0146379,2.5391,5,0.1,1,5.7,-1.90407,-2.50834,0.572828,0.273462,0.0499208,-0.0350192,-0.212476,-0.00579655,0.00513345,0.01414,0.0122057,5,0.1,2,5.7,-2.42933,2.83289,1.34842,-0.235381,-0.367655,0.00143424,0.115603,0.184074,-0.000879169,0.00755559,0.119458,5,0.1,3,5.7,0.409508,0.199879,0.598366,-0.298741,-0.000206777,0.00183703,0.286624,-0.0633905,-0.00177696,0.011921,0.325119,5,0.1,4,5.7,-5.15906,-0.133244,0.5,0.0557952,0.358135,-5.21541e-06,-0.0359118,-0.638901,0.000111759,0.00763375,0.789528,5,0.1,5,5.7,-3.99273,2.50669,0.598606,-0.42192,0.010414,-0.00231788,0.26226,-0.00737607,0.00163168,0.0068719,0.129094,5,0.1,6,5.7,0.679201,-4.77679,0.640989,0.000366662,0.000382215,-3.22238e-05,-0.00121072,-0.00116229,0.00012666,0.00799276,8.6481e-08,5,0.1,7,5.7,2.13512,-5.3896,0.599977,-0.0902135,0.161209,2.36556e-05,0.204757,1.26889,-6.70552e-05,0.0238732,2.16381,5,0.1,8,5.7,-4.56385,2.25094,1.04819,0.0533625,-0.278134,0.00146702,-0.0224113,1.1964,-0.0013113,0.0251672,2.96456,5,0.1,9,5.7,-0.185399,3.41603,0.597723,0.0664248,-0.864895,-0.00312291,0.00325032,-0.045225,-0.00528991,0.0101028,2.28265,5,0.1
0,5.8,0.684622,-0.389686,0.600428,0.748113,0.14246,-0.000198185,-0.937223,0.104517,0.000357628,0.0191134,2.84701,5,0.1,1,5.8,-1.87786,-2.50341,0.569373,0.250024,0.0483811,-0.0338525,-0.258565,-0.0252724,0.0184178,0.00743458,0.00612854,5,0.1,2,5.8,-2.45224,2.79709,1.34856,-0.222427,-0.347406,0.0013411,0.149012,0.230551,-0.00107288,0.00727035,0.139346,5,0.1,3,5.8,0.381086,0.199591,0.598541,-0.269408,-0.00495203,0.00165552,0.304267,-0.0279173,-0.00184774,0.0206824,0.712232,5,0.1,4,5.8,-5.15367,-0.1,0.5,0.0519395,0.312952,0,-0.0424385,-0.274084,0,0.00855177,0.667005,5,0.1,5,5.8,-4.03371,2.5077,0.598382,-0.398135,0.00976324,-0.00217408,0.233889,-0.00631809,0.00140071,0.00678878,0.0752238,5,0.1,6,5.8,0.679232,-4.77676,0.640986,0.00025332,0.000274181,-2.08616e-05,-0.00107288,-0.000953674,0.000119209,0.00718181,7.30349e-08,5,0.1,7,5.8,2.12707,-5.36693,0.599979,-0.0711441,0.292444,1.78814e-05,0.177026,1.28484,-2.98023e-05,0.0133989,1.75451,5,0.1,8,5.8,-4.55863,2.2284,1.04833,0.0507712,-0.180411,0.00134408,-0.0302792,0.728965,-0.0012517,0.0221155,2.76083,5,0.1,9,5.8,-0.17874,3.32945,0.597387,0.0666413,-0.866026,-0.00356138,-0.00265986,0,-0.00330806,0.0141926,2.26875,5,0.1
0,5.9,0.754056,-0.3749,0.60041,0.63614,0.153201,-0.000168383,-1.20649,0.100287,0.000245869,0.0191134,2.84701,5,0.1,1,5.9,-1.85414,-2.49871,0.566088,0.224264,0.0454824,-0.0317641,-0.259794,-0.0332743,0.0237599,0.00743458,0.00612854,5,0.1,2,5.9,-2.4739,2.76324,1.34869,-0.212008,-0.331833,0.00126194,0.0740588,0.104964,-0.000588596,0.00727035,0.139346,5,0.1,3,5.9,0.3556,0.198874,0.598698,-0.240826,-0.009458,0.00148276,0.273032,-0.0331476,-0.00164285,0.0206824,0.712232,5,0.1,4,5.9,-5.14868,-0.0692923,0.5,0.0479735,0.307662,0,-0.038296,0.114759,0,0.00855177,0.667005,5,0.1,5,5.9,-4.0725,2.50865,0.59817,-0.37872,0.00924915,-0.0020599,0.172704,-0.00444055,0.000990927,0.00678878,0.0752238,5,0.1,6,5.9,0.679252,-4.77674,0.640985,0.000153482,0.000183284,-1.02445e-05,-0.000916421,-0.000834465,9.68575e-05,0.00718181,7.30349e-08,5,0.1,7,5.9,2.12079,-5.33094,0.599981,-0.054998,0.428738,1.53668e-05,0.146657,1.36995,-1.86265e-05,0.0133989,1.75451,5,0.1,8,5.9,-4.5537,2.2133,1.04845,0.0479586,-0.130782,0.00123791,-0.0276268,0.1892,-0.000938773,0.0221155,2.76083,5,0.1,9,5.9,-0.172053,3.24285,0.597015,0.0673406,-0.866026,-0.00388278,0.0117719,0,-0.0028871,0.0141926,2.26875,5,0.1
0,6,0.811793,-0.359152,0.600394,0.521557,0.160821,-0.000146031,-1.03343,0.0451803,0.000149012,0.0125765,3.00791,5,0.1,1,6,-1.83304,-2.49434,0.563041,0.19758,0.0416458,-0.0290453,-0.275433,-0.0436306,0.0308156,0.0133282,0.00181482,5,0.1,2,6,-2.49476,2.73053,1.34882,-0.205076,-0.322241,0.00120699,0.0752211,0.104427,-0.000596046,0.010552,0.117549,5,0.1,3,6,0.332869,0.197928,0.598838,-0.213845,-0.00744909,0.00132024,0.270486,0.0856146,-0.00163913,0.0120592,1.54288,5,0.1,4,6,-5.14408,-0.0376729,0.5,0.044024,0.326465,0,-0.0412464,0.220428,0,0.00681896,0.528454,5,0.1,5,6,-4.10949,2.50955,0.597969,-0.360477,0.00879169,-0.00195801,0.20504,-0.00488758,0.00110269,0.00747132,0.0586597,5,0.1,6,6,0.679263,-4.77672,0.640984,7.15256e-05,9.53674e-05,-1.49012e-06,-0.000745058,-0.000476837,2.98023e-05,0.00736597,4.56526e-08,5,0.1,7,6,2.11598,-5.28156,0.599982,-0.0416696,0.554204,1.3411e-05,0.120521,1.08838,0,0.0221153,1.346,5,0.1,8,6,-4.54905,2.2,1.04857,0.0449538,-0.146264,0.00114739,-0.0329018,-0.461578,-0.00089407,0.0253482,2.37706,5,0.1,9,6,-0.165269,3.15624,0.596614,0.0681587,-0.866026,-0.00409782,0.00108778,0,-0.0012815,0.0156367,2.26864,5,0.1
0,6.1,0.859091,-0.342817,0.60038,0.430817,0.165925,-0.000134762,-0.66261,0.0473522,8.56817e-05,0.0125765,3.00791,5,0.1,1,6.1,-1.81465,-2.4904,0.560296,0.170312,0.0370644,-0.0258207,-0.270329,-0.0479221,0.0336394,0.0133282,0.00181482,5,0.1,2,6.1,-2.51495,2.69874,1.34866,-0.199014,-0.314195,-0.0067424,0.0555962,0.0721961,-0.140771,0.010552,0.117549,5,0.1,3,6.1,0.312763,0.197647,0.598962,-0.188867,0.0046616,0.00116946,0.233997,0.245174,-0.00140443,0.0120592,1.54288,5,0.1,4,6.1,-5.13987,-0.00358663,0.5,0.0402048,0.357584,0,-0.0362992,0.360899,0,0.00681896,0.528454,5,0.1,5,6.1,-4.14467,2.51041,0.597778,-0.344202,0.00841543,-0.0018728,0.139356,-0.00309944,0.00070408,0.00747132,0.0586597,5,0.1,6,6.1,0.679267,-4.77672,0.640984,5.58794e-06,4.84288e-05,1.39698e-06,-0.000573695,-0.000447035,2.6077e-05,0.00736597,4.56526e-08,5,0.1,7,6.1,2.11237,-5.22071,0.599984,-0.0308946,0.661333,1.3411e-05,0.0956953,0.99951,0,0.0221153,1.346,5,0.1,8,6.1,-4.54471,2.18179,1.04868,0.0418983,-0.22811,0.00107046,-0.0295341,-1.07498,-0.000692904,0.0253482,2.37706,5,0.1,9,6.1,-0.158417,3.06964,0.596197,0.0690671,-0.866026,-0.00423603,0.0123903,0,-0.00124425,0.0156367,2.26864,5,0.1
0,6.2,0.9,-0.326048,0.600367,0.398539,0.168675,-0.00012666,-0.00670552,0.00104308,8.9407e-05,0.018414,2.84341,5,0.1,1,6.2,-1.79896,-2.48694,0.557886,0.143483,0.0320852,-0.0223309,-0.266075,-0.0516176,0.0360608,0.00768925,0.00086042,5,0.1,2,6.2,-2.53454,2.66773,1.34717,-0.192332,-0.305128,-0.023815,0.0846386,0.120044,-0.187039,0.00913448,0.360503,5,0.1,3,6.2,0.295019,0.2,0.599073,-0.166207,0.0488706,0.00103265,0.222653,0.623278,-0.0013411,0.0147465,3.51403,5,0.1,4,6.2,-5.13603,0.033931,0.5,0.0365496,0.391539,0,-0.0374317,0.288226,0,0.00831593,0.404938,5,0.1,5,6.2,-4.17838,2.51124,0.597594,-0.329375,0.00808239,-0.00179857,0.170231,-0.0038147,0.000864267,0.00726017,0.0267194,5,0.1,6,6.2,0.679265,-4.77671,0.640984,-4.17233e-05,0,2.98023e-06,-0.000417233,-0.000238419,2.98023e-05,0.00879478,2.41361e-08,5,0.1,7,6.2,2.10973,-5.15009,0.599985,-0.0223994,0.744879,1.19209e-05,0.0751019,0.633717,2.98023e-05,0.0203784,0.973817,5,0.1,8,6.2,-4.54067,2.15327,1.04879,0.0388145,-0.343585,0.000998378,-0.0331402,-1.15812,-0.000655651,0.0218903,1.92417,5,0.1,9,6.2,-0.151461,2.98304,0.595769,0.0698335,-0.866026,-0.00430644,-0.000402331,0,-2.98023e-05,0.00928387,2.26856,5,0.1
0,6.3,0.941307,-0.309139,0.600355,0.43966,0.169636,-0.00012042,0.719648,0.00911951,4.84288e-05,0.018414,2.84341,5,0.1,1,6.3,-1.78592,-2.48399,0.555833,0.117672,0.0269257,-0.01873,-0.24946,-0.0512898,0.0357553,0.00768925,0.00086042,5,0.1,2,6.3,-2.55361,2.63759,1.34382,-0.191244,-0.299461,-0.0430791,-0.0410974,0.0163764,-0.189953,0.00913448,0.360503,5,0.1,3,6.3,0.279465,0.207797,0.599169,-0.145256,0.105115,0.000906456,0.19913,0.505584,-0.00119582,0.0147465,3.51403,5,0.1,4,6.3,-5.13255,0.0746438,0.5,0.0331119,0.423075,0,-0.0323057,0.310631,0,0.00831593,0.404938,5,0.1,5,6.3,-4.21049,2.51203,0.597419,-0.31279,0.00771247,-0.00171484,0.171423,-0.0038296,0.000867993,0.00726017,0.0267194,5,0.1,6,6.3,0.679259,-4.77671,0.640985,-7.56234e-05,-2.38419e-05,5.4948e-06,-0.000268221,-0.000238419,1.86265e-05,0.00879478,2.41361e-08,5,0.1,7,6.3,2.10783,-5.07253,0.599986,-0.0158306,0.804243,1.43424e-05,0.0568777,0.510603,1.49012e-05,0.0203784,0.973817,5,0.1,8,6.3,-4.53694,2.1127,1.04889,0.0357546,-0.470296,0.000940077,-0.0291765,-1.30007,-0.000558794,0.0218903,1.92417,5,0.1,9,6.3,-0.144452,2.89644,0.595337,0.0705292,-0.866026,-0.00433549,0.00974443,0,-0.000312924,0.00928387,2.26856,5,0.1
0,6.4,0.989328,-0.292177,0.600343,0.52318,0.168964,-0.000117719,0.867426,-0.0288635,8.9407e-05,0.0111616,2.53604,5,0.1,1,6.4,-1.77536,-2.48155,0.554137,0.0937194,0.0218809,-0.0152156,-0.229001,-0.0492334,0.0342727,0.0080414,0.000742026,5,0.1,2,6.4,-2.573,2.60771,1.33862,-0.196743,-0.297844,-0.0603884,-0.0526905,0.0325441,-0.150323,0.00777147,0.891593,5,0.1,3,6.4,0.265915,0.220662,0.599254,-0.125914,0.150467,0.000789762,0.189632,0.402287,-0.00116229,0.0138163,3.38426,5,0.1,4,6.4,-5.1294,0.118327,0.5,0.0299096,0.448242,0,-0.0324249,0.17032,0,0.0119306,0.296457,5,0.1,5,6.4,-4.24084,2.51278,0.597252,-0.293434,0.00727177,-0.00161678,0.221968,-0.005126,0.00119209,0.00810916,0.0103707,5,0.1,6,6.4,0.67925,-4.77672,0.640985,-9.38773e-05,-3.57628e-05,5.96046e-06,-0.000149012,-0.000476837,2.98023e-05,0.0071411,2.02481e-08,5,0.1,7,6.4,2.10651,-4.99004,0.599988,-0.0109076,0.839829,1.49012e-05,0.0422001,0.172377,0,0.0197091,0.673325,5,0.1,8,6.4,-4.53351,2.05945,1.04898,0.0327826,-0.590491,0.000882149,-0.0309944,-1.04868,-0.000596046,0.0219931,1.48204,5,0.1,9,6.4,-0.137364,2.80983,0.594903,0.0710007,-0.866026,-0.0043273,-0.00356138,0,0.000625849,0.00933876,2.26852,5,0.1
0,6.5,1.04665,-0.27538,0.600331,0.62766,0.167194,-0.000111572,1.13273,-0.0152159,4.47035e-05,0.0111616,2.53604,5,0.1,1,6.5,-1.7671,-2.47961,0.552783,0.0720257,0.0171274,-0.0119089,-0.204064,-0.0455081,0.0316538,0.0080414,0.000742026,5,0.1,2,6.5,-2.59337,2.57781,1.33203,-0.214,-0.302026,-0.0695257,-0.255823,-0.0881404,-0.0387654,0.00777147,0.891593,5,0.1,3,6.5,0.254013,0.237153,0.599327,-0.114296,0.175421,0.00067614,0.0582645,0.162622,-0.00111014,0.0138163,3.38426,5,0.1,4,6.5,-5.12656,0.164035,0.5,0.0269532,0.465589,0,-0.0275373,0.151508,0,0.0119306,0.296457,5,0.1,5,6.5,-4.26906,2.51348,0.597096,-0.270759,0.00674389,-0.00149533,0.236005,-0.00555813,0.00125915,0.00810916,0.0103707,5,0.1,6,6.5,0.67924,-4.77672,0.640986,-0.000103097,-7.37607e-05,8.3819e-06,-4.09782e-05,-0.000327826,1.49012e-05,0.0071411,2.02481e-08,5,0.1,7,6.5,2.1056,-4.90527,0.599989,-0.00731908,0.854155,1.4808e-05,0.0300556,0.0795722,-3.72529e-06,0.0197091,0.673325,5,0.1,8,6.5,-4.53038,1.99511,1.04906,0.0299394,-0.695256,0.00082776,-0.0268221,-0.988118,-0.000521541,0.0219931,1.48204,5,0.1,9,6.5,-0.130254,2.72323,0.594472,0.0713705,-0.866026,-0.00430178,0.00646105,0,0.00012666,0.00933876,2.26852,5,0.1
0,6.6,1.11491,-0.258772,0.60032,0.734246,0.164445,-0.000108778,0.933647,-0.0458434,5.96046e-05,0.015186,2.32856,5,0.1,1,6.6,-1.76087,-2.47811,0.551745,0.0530362,0.0128269,-0.00891984,-0.175238,-0.0402927,0.0279844,0.00675914,0.000602212,5,0.1,2,6.6,-2.61614,2.54716,1.32502,-0.241488,-0.310612,-0.0693142,-0.266552,-0.0629425,0.0376105,0.00812868,0.754707,5,0.1,3,6.6,0.242763,0.255513,0.599389,-0.111515,0.19268,0.000567734,0.00929087,0.213593,-0.00110269,0.0123168,3.20259,5,0.1,4,6.6,-5.124,0.211153,0.5,0.0242472,0.474316,0,-0.0267029,0.00587106,0,0.00801845,0.208783,5,0.1,5,6.6,-4.29491,2.51412,0.596953,-0.245523,0.00614524,-0.00136048,0.27132,-0.0064373,0.00146031,0.0102716,0.00537466,5,0.1,6,6.6,0.67923,-4.77673,0.640987,-0.000102818,-9.53674e-05,8.9407e-06,5.96046e-05,-0.000238419,0,0.00730116,1.16959e-08,5,0.1,7,6.6,2.10501,-4.81984,0.599991,-0.00479817,0.850022,1.3411e-05,0.0207424,-0.185013,0,0.0107598,0.451986,5,0.1,8,6.6,-4.52752,1.92113,1.04914,0.0272512,-0.778213,0.00077188,-0.0276566,-0.630438,-0.000536442,0.0202935,0.501488,5,0.1,9,6.6,-0.123098,2.63663,0.594044,0.0715243,-0.866026,-0.00426024,-0.00657514,0,0.00089407,0.0131951,2.26852,5,0.1
0,6.7,1.19255,-0.242504,0.60031,0.813226,0.161234,-0.000105239,0.619464,-0.0269003,1.49012e-05,0.015186,2.32856,5,0.1,1,6.7,-1.7564,-2.47702,0.550987,0.0368653,0.00905879,-0.00630291,-0.147693,-0.0348836,0.0242107,0.00675914,0.000602212,5,0.1,2,6.7,-2.64179,2.51566,1.31845,-0.272347,-0.319952,-0.0609253,-0.322491,-0.101924,0.116646,0.00812868,0.754707,5,0.1,3,6.7,0.23152,0.27582,0.599441,-0.114403,0.216222,0.00046622,-0.0541592,0.366198,-0.000931323,0.0123168,3.20259,5,0.1,4,6.7,-5.1217,0.25863,0.5,0.021822,0.474882,0,-0.0225008,-0.0147279,0,0.00801845,0.208783,5,0.1,5,6.7,-4.31812,2.51471,0.596825,-0.21887,0.00550896,-0.00121724,0.265151,-0.0063777,0.00142306,0.0102716,0.00537466,5,0.1,6,6.7,0.67922,-4.77674,0.640988,-9.41567e-05,-0.000111759,8.47504e-06,0.000115484,-5.96046e-05,-1.11759e-05,0.00730116,1.16959e-08,5,0.1,7,6.7,2.10462,-4.73576,0.599992,-0.00311248,0.8308,1.30385e-05,0.0133663,-0.227779,-7.45058e-06,0.0107598,0.451986,5,0.1,8,6.7,-4.52493,1.84145,1.04922,0.0247277,-0.803419,0.000721961,-0.0235736,0.0946447,-0.000476837,0.0202935,0.501488,5,0.1,9,6.7,-0.11595,2.55003,0.593621,0.0716042,-0.866026,-0.00421414,0.00372669,0,0.000271946,0.0131951,2.26852,5,0.1
0,6.8,1.27631,-0.226541,0.600299,0.855187,0.157614,-0.000104308,0.216782,-0.0514984,2.98023e-05,0.0102011,2.26265,5,0.1,1,6.8,-1.7534,-2.47628,0.55047,0.0235677,0.00588298,-0.00409931,-0.118077,-0.0283718,0.0197887,0.00786556,0.000375246,5,0.1,2,6.8,-2.67054,2.48324,1.31298,-0.301152,-0.327259,-0.0482529,-0.233412,-0.0286102,0.127435,0.0110986,0.62804,5,0.1,3,6.8,0.219791,0.3,0.599483,-0.120102,0.27438,0.000378489,-0.0502765,0.77261,-0.00077486,0.0142077,2.88016,5,0.1,4,6.8,-5.11963,0.305876,0.5,0.0196338,0.467998,0,-0.0221729,-0.136539,0,0.00601302,0.143177,5,0.1,5,6.8,-4.33867,2.51522,0.59671,-0.191963,0.00485778,-0.00107139,0.274658,-0.00679493,0.00146031,0.00634481,0.00162457,5,0.1,6,6.8,0.679211,-4.77675,0.640989,-8.19564e-05,-0.000107288,8.9407e-06,0.000149012,0,-5.96046e-05,0.0103224,6.46367e-09,5,0.1,7,6.8,2.10436,-4.65408,0.599993,-0.0020504,0.799775,1.19209e-05,0.00822544,-0.411272,0,0.0176047,0.30629,5,0.1,8,6.8,-4.52257,1.76256,1.04929,0.0223875,-0.765386,0.000670552,-0.023365,0.636756,-0.000536442,0.0145393,1.81533,5,0.1,9,6.8,-0.108784,2.46342,0.593201,0.0715096,-0.866026,-0.00416338,-0.00877678,0,0.00089407,0.00920549,2.26855,5,0.1
0,6.9,1.36249,-0.210978,0.600289,0.865348,0.154028,-0.000103284,0.0270978,-0.0286931,-3.72529e-06,0.0102011,2.26265,5,0.1,1,6.9,-1.75159,-2.47583,0.550153,0.0130139,0.00331588,-0.00231033,-0.0928938,-0.0228733,0.0159331,0.00786556,0.000375246,5,0.1,2,6.9,-2.70186,2.45032,1.30884,-0.325241,-0.331296,-0.034642,-0.226483,-0.0347644,0.124924,0.0110986,0.62804,5,0.1,3,6.9,0.207457,0.332402,0.599518,-0.127045,0.382012,0.000309572,-0.0776406,1.27606,-0.000610948,0.0142077,2.88016,5,0.1,4,6.9,-5.11777,0.352024,0.5,0.0176333,0.454843,0,-0.0184476,-0.143019,0,0.00601302,0.143177,5,0.1,5,6.9,-4.35651,2.51568,0.59661,-0.164978,0.00418872,-0.000927038,0.265658,-0.00658631,0.00143051,0.00634481,0.00162457,5,0.1,6,6.9,0.679204,-4.77676,0.640989,-6.64964e-05,-0.000102818,3.91155e-06,0.000163913,0.000119209,-3.72529e-05,0.0103224,6.46367e-09,5,0.1,7,6.9,2.10419,-4.57639,0.599994,-0.00144616,0.751401,1.15484e-05,0.00417233,-0.558466,-7.45058e-06,0.0176047,0.30629,5,0.1,8,6.9,-4.52044,1.69023,1.04935,0.0202641,-0.672702,0.00062082,-0.0197887,1.14964,-0.000469387,0.0145393,1.81533,5,0.1,9,6.9,-0.101648,2.37682,0.592788,0.0713844,-0.866026,-0.00411943,0.00186497,0,0.000230968,0.00920549,2.26855,5,0.1
0,7,1.44908,-0.195737,0.600279,0.866026,0.150428,-0.000102818,0,-0.0493079,0,0.0140097,2.25831,5,0.1,1,7,-1.75071,-2.4756,0.549995,0.00498891,0.00131726,-0.000920892,-0.0677109,-0.0170469,0.0118613,0.00717309,0.000176524,5,0.1,2,7,-2.73536,2.41712,1.30587,-0.342739,-0.331277,-0.0261188,-0.108361,0.0469685,0.0368953,0.00730046,0.610317,5,0.1,3,7,0.194392,0.37711,0.599546,-0.133749,0.511402,0.00025332,-0.048548,1.23382,-0.000476837,0.0128015,2.51932,5,0.1,4,7,-5.11609,0.396673,0.5,0.0158429,0.436644,0,-0.017643,-0.232011,0,0.00912882,0.166083,5,0.1,5,7,-4.37169,2.51606,0.596525,-0.138748,0.00353456,-0.000785291,0.259161,-0.00655651,0.00143051,0.00916906,0.000754276,5,0.1,6,7,0.679198,-4.77677,0.640989,-5.06639e-05,-9.53674e-05,1.49012e-06,0.000149012,0.000238419,-5.96046e-05,0.0074821,5.31264e-09,5,0.1,7,7,2.10406,-4.5043,0.599996,-0.00116229,0.687885,1.04308e-05,0.00178814,-0.711441,0,0.0112297,0.264365,5,0.1,8,7,-4.51851,1.6291,1.04941,0.0183225,-0.547168,0.000572205,-0.0197887,1.31124,-0.000536442,0.0210357,0.530585,5,0.1,9,7,-0.0945121,2.29022,0.592377,0.0711286,-0.866026,-0.00407398,-0.0101104,0,0.000834465,0.0119619,2.26861,5,0.1
0,7.1,1.53568,-0.180879,0.600268,0.866026,0.147129,-0.000104215,0,-0.025061,-1.86265e-05,0.0140097,2.25831,5,0.1,1,7.1,-1.75052,-2.47555,0.549957,-0.000780821,-0.000155345,0.000102539,-0.0478923,-0.0124127,0.0086166,0.00717309,0.000176524,5,0.1,2,7.1,-2.77018,2.38404,1.30333,-0.353305,-0.331691,-0.0267072,-0.0856072,-0.0314265,-0.0742599,0.00730046,0.610317,5,0.1,3,7.1,0.180729,0.434832,0.599569,-0.139741,0.645003,0.000212155,-0.0615586,1.3541,-0.000350177,0.0128015,2.51932,5,0.1,4,7.1,-5.11458,0.439479,0.5,0.0144802,0.421723,0,-0.0105798,-0.0960194,0,0.00912882,0.166083,5,0.1,5,7.1,-4.3843,2.51638,0.596453,-0.113709,0.00290126,-0.000646804,0.241101,-0.00607967,0.00133738,0.00916906,0.000754276,5,0.1,6,7.1,0.679194,-4.77678,0.640989,-3.59491e-05,-7.15256e-05,-2.8871e-06,0.000141561,0.000238419,-3.35276e-05,0.0074821,5.31264e-09,5,0.1,7,7.1,2.1038,-4.43954,0.599997,-0.00553764,0.603759,1.00583e-05,-0.0791699,-0.929922,-7.45058e-06,0.0112297,0.264365,5,0.1,8,7.1,-4.51677,1.58095,1.04947,0.0165328,-0.416921,0.000522658,-0.0165701,1.25047,-0.000461936,0.0210357,0.530585,5,0.1,9,7.1,-0.0874206,2.20362,0.591972,0.0708808,-0.866026,-0.00403645,0.00078138,0,0.000160187,0.0119619,2.26861,5,0.1
0,7.2,1.62229,-0.166308,0.600258,0.866026,0.143981,-0.000105798,0,-0.0438765,2.98023e-05,0.00910006,2.25925,5,0.1,1,7.2,-1.75081,-2.47562,0.550005,-0.00464022,-0.00116229,0.000806153,-0.0295639,-0.00810623,0.00548363,0.00804709,6.24569e-05,5,0.1,2,7.2,-2.80579,2.35074,1.3,-0.356954,-0.333464,-0.0425249,0.0245571,0.013113,-0.232041,0.00949096,0.477377,5,0.1,3,7.2,0.166491,0.505734,0.599588,-0.144399,0.767776,0.000180304,-0.0247359,1.04105,-0.000268221,0.0154786,2.32976,5,0.1,4,7.2,-5.11318,0.481196,0.5,0.0135422,0.412323,0,-0.00882149,-0.113532,0,0.0063685,0.142765,5,0.1,5,7.2,-4.3945,2.51664,0.596395,-0.090611,0.00231266,-0.00051707,0.220537,-0.00548363,0.00119209,0.00658572,0.000618317,5,0.1,6,7.2,0.679191,-4.77679,0.640989,-2.23517e-05,-4.76837e-05,-5.96046e-06,0.000119209,0,0,0.00864457,7.14718e-09,5,0.1,7,7.2,2.10278,-4.38391,0.599998,-0.0152051,0.508583,8.9407e-06,-0.106096,-0.948191,0,0.0147652,0.221115,5,0.1,8,7.2,-4.5152,1.54514,1.04952,0.0149131,-0.303605,0.000476837,-0.0162125,0.993729,-0.000476837,0.0123793,2.01169,5,0.1,9,7.2,-0.08034,2.11701,0.59157,0.0705367,-0.866026,-0.00399947,-0.0107698,0,0.00077486,0.0115752,2.26867,5,0.1
0,7.3,1.70889,-0.152069,0.600247,0.866026,0.141197,-0.000104401,0,-0.0200225,3.72529e-06,0.00910006,2.25925,5,0.1,1,7.3,-1.75139,-2.47577,0.550109,-0.00690445,-0.00179857,0.00123624,-0.0160933,-0.00467896,0.0031665,0.00804709,6.24569e-05,5,0.1,2,7.3,-2.84137,2.31737,1.29424,-0.354388,-0.334477,-0.075225,0.0408292,-0.0145584,-0.391595,0.00949096,0.477377,5,0.1,3,7.3,0.151885,0.586757,0.599605,-0.147893,0.843166,0.000158418,-0.0359789,0.47227,-0.000182539,0.0154786,2.32976,5,0.1,4,7.3,-5.11181,0.521763,0.5,0.0143595,0.39785,0,0.0210702,-0.182578,0,0.0063685,0.142765,5,0.1,5,7.3,-4.40249,2.51685,0.596349,-0.069765,0.00179186,-0.000403449,0.195771,-0.00491738,0.00107288,0.00658572,0.000618317,5,0.1,6,7.3,0.679189,-4.77679,0.640988,-1.10827e-05,-4.39584e-05,-5.4948e-06,0.000100583,8.9407e-05,1.11759e-05,0.00864457,7.14718e-09,5,0.1,7,7.3,2.10067,-4.33775,0.599998,-0.0274137,0.416191,8.56817e-06,-0.130445,-0.85187,-7.45058e-06,0.0147652,0.221115,5,0.1,8,7.3,-4.51378,1.51947,1.04956,0.013452,-0.215688,0.000433251,-0.0135005,0.64496,-0.000402331,0.0123793,2.01169,5,0.1,9,7.3,-0.0733108,2.03041,0.591172,0.0702272,-0.866026,-0.00396762,0.000244472,0,0.000104308,0.0115752,2.26867,5,0.1
0,7.4,1.79549,-0.138065,0.600237,0.866026,0.138567,-0.000104308,0,-0.0384301,2.98023e-05,0.0138147,2.26006,5,0.1,1,7.4,-1.75215,-2.47596,0.550245,-0.00793338,-0.00211596,0.00144988,-0.00494719,-0.00166893,0.00113249,0.00881163,1.87019e-05,5,0.1,2,7.4,-2.87648,2.28393,1.28471,-0.346452,-0.333172,-0.115514,0.127316,0.0537634,-0.391245,0.00827428,0.358266,5,0.1,3,7.4,0.136959,0.672589,0.59962,-0.150036,0.865678,0.000141561,-0.000454485,0.00694394,-0.000119209,0.0111556,2.28775,5,0.1,4,7.4,-5.11025,0.560478,0.5,0.0170231,0.374779,0,0.0290871,-0.282437,0,0.0081343,0.241276,5,0.1,5,7.4,-4.40854,2.517,0.596314,-0.051558,0.00133514,-0.000302494,0.167847,-0.00417233,0.000953674,0.0107753,0.000489345,5,0.1,6,7.4,0.679188,-4.7768,0.640988,-1.49012e-06,-3.57628e-05,-4.47035e-06,5.96046e-05,0,0,0.00777719,6.94699e-09,5,0.1,7,7.4,2.09729,-4.3,0.599999,-0.0399709,0.342929,7.45058e-06,-0.115156,-0.613451,0,0.00967196,0.179452,5,0.1,8,7.4,-4.5125,1.5,1.0496,0.0121474,-0.185007,0.000393391,-0.0133514,-0.0156164,-0.000417233,0.0181913,1.74076,5,0.1,9,7.4,-0.0662978,1.94381,0.590777,0.0698434,-0.866026,-0.00393689,-0.0110008,0,0.000715256,0.0139101,2.29578,5,0.1
0,7.5,1.88209,-0.124343,0.600227,0.866026,0.136257,-0.000102911,0,-0.0157803,3.72529e-06,0.0138147,2.26006,5,0.1,1,7.5,-1.75295,-2.47618,0.550393,-0.00802297,-0.00217743,0.00149133,0.00274926,0.000342727,-0.000242144,0.00881163,1.87019e-05,5,0.1,2,7.5,-2.91051,2.25083,1.2711,-0.33417,-0.329025,-0.157138,0.129849,0.0442415,-0.418201,0.00827428,0.358266,5,0.1,3,7.5,0.122057,0.759166,0.599638,-0.146975,0.865394,0.000241026,0.0611264,-0.0235327,0.00185519,0.0111556,2.28775,5,0.1,4,7.5,-5.10843,0.596154,0.5,0.0191569,0.335454,0,0.0135899,-0.480093,0,0.0081343,0.241276,5,0.1,5,7.5,-4.4129,2.51712,0.596288,-0.0360824,0.000947341,-0.000214297,0.141293,-0.00356138,0.000808388,0.0107753,0.000489345,5,0.1,6,7.5,0.679189,-4.7768,0.640987,4.00469e-06,-3.20375e-05,-4.00469e-06,4.84288e-05,8.9407e-05,1.11759e-05,0.00777719,6.94699e-09,5,0.1,7,7.5,2.0927,-4.26826,0.6,-0.0516672,0.29637,7.07805e-06,-0.112966,-0.34532,-7.45058e-06,0.00967196,0.179452,5,0.1,8,7.5,-4.51135,1.48014,1.04964,0.0109501,-0.222763,0.000355579,-0.0109971,-0.650756,-0.000350177,0.0181913,1.74076,5,0.1,9,7.5,-0.0594815,1.85722,0.590381,0.0654714,-0.865483,-0.0040126,-0.0717633,0.0217259,-0.00176206,0.0139101,2.29578,5,0.1
0,7.6,1.9687,-0.110812,0.600216,0.866026,0.134038,-0.000101328,0,-0.0343102,-2.98023e-05,0.0100119,2.26075,5,0.1,1,7.6,-1.75373,-2.47639,0.550539,-0.0074625,-0.00206232,0.00141263,0.00810623,0.00178814,-0.0012517,0.00788622,9.17873e-06,5,0.1,2,7.6,-2.9432,2.21823,1.2534,-0.318563,-0.321782,-0.195196,0.190139,0.110984,-0.326395,0.00883806,0.259701,5,0.1,3,7.6,0.107762,0.84539,0.599673,-0.137977,0.856267,0.000469387,0.117749,-0.195205,0.00247359,0.0123259,2.66647,5,0.1,4,7.6,-5.10647,0.627133,0.5,0.019753,0.282936,0,-0.00143051,-0.552535,0,0.00914966,0.217218,5,0.1,5,7.6,-4.41585,2.5172,0.59627,-0.023365,0.000625849,-0.000141561,0.113249,-0.00286102,0.000685453,0.00673631,0.000303135,5,0.1,6,7.6,0.679189,-4.7768,0.640987,7.45058e-06,-2.38419e-05,-2.98023e-06,5.96046e-05,0,0,0.00691263,6.78682e-09,5,0.1,7,7.6,2.08702,-4.24009,0.600001,-0.0615776,0.268984,5.96046e-06,-0.0811815,-0.223637,0,0.0134069,0.243346,5,0.1,8,7.6,-4.51031,1.45416,1.04967,0.00988245,-0.299466,0.000321865,-0.0104904,-0.815213,-0.000357628,0.0203676,1.40915,5,0.1,9,7.6,-0.0533613,1.77095,0.58997,0.0563507,-0.857335,-0.0042066,-0.106726,0.173748,-0.00178814,0.00921335,2.64573,5,0.1
0,7.7,2.0553,-0.0975249,0.600206,0.866026,0.132057,-0.000104588,0,-0.0130814,-3.35276e-05,0.0100119,2.26075,5,0.1,1,7.7,-1.75443,-2.47659,0.550673,-0.00647344,-0.0018321,0.00125319,0.0113249,0.00271201,-0.00187755,0.00788622,9.17873e-06,5,0.1,2,7.7,-2.97415,2.18656,1.23225,-0.300564,-0.311682,-0.227388,0.179395,0.10322,-0.299685,0.00883806,0.259701,5,0.1,3,7.7,0.0952773,0.929334,0.599758,-0.105594,0.815954,0.00144038,0.486133,-0.59472,0.0152439,0.0123259,2.66647,5,0.1,4,7.7,-5.10453,0.652536,0.5,0.018914,0.224715,0,-0.0146031,-0.578549,0,0.00914966,0.217218,5,0.1,5,7.7,-4.41766,2.51725,0.596259,-0.0132456,0.000368431,-8.028e-05,0.0891089,-0.00227988,0.000536442,0.00673631,0.000303135,5,0.1,6,7.7,0.67919,-4.7768,0.640987,1.22003e-05,-2.01166e-05,-2.51457e-06,4.09782e-05,8.9407e-05,1.11759e-05,0.00691263,6.78682e-09,5,0.1,7,7.7,2.08038,-4.21373,0.600001,-0.0716843,0.263085,5.4948e-06,-0.111252,0.0646412,-1.11759e-05,0.0134069,0.243346,5,0.1,8,7.7,-4.50937,1.41966,1.0497,0.00894219,-0.393756,0.000289455,-0.00864267,-1.00329,-0.000298023,0.0203676,1.40915,5,0.1,9,7.7,-0.0489831,1.68674,0.589514,0.0251729,-0.820618,-0.00512721,-0.470203,0.548221,-0.014741,0.00921335,2.64573,5,0.1
0,7.8,2.1419,-0.0844017,0.600195,0.866026,0.130091,-0.000107288,0,-0.0317693,2.98023e-05,0.00984578,2.26139,5,0.1,1,7.8,-1.75502,-2.47676,0.550788,-0.00526309,-0.00153184,0.00104755,0.0125766,0.00321865,-0.00217557,0.0138041,8.53893e-06,5,0.1,2,7.8,-3.00326,2.15598,1.20818,-0.281078,-0.299078,-0.252134,0.216722,0.157118,-0.183046,0.00872349,0.181773,5,0.1,3,7.8,0.0874585,1.00741,0.599987,-0.0485651,0.740567,0.00321418,0.62006,-0.896931,0.0189245,0.0104586,2.72497,5,0.1,4,7.8,-5.10272,0.672279,0.5,0.0169754,0.172265,0,-0.0231266,-0.453413,0,0.00688399,0.188224,5,0.1,5,7.8,-4.41858,2.51727,0.596254,-0.00553131,0.000166893,-3.42727e-05,0.0650883,-0.00166893,0.00038743,0.00671726,0.000141523,5,0.1,6,7.8,0.679192,-4.77681,0.640987,1.49012e-05,-1.19209e-05,-1.49012e-06,0,0,0,0.0101902,6.05581e-09,5,0.1,7,7.8,2.07267,-4.1869,0.600002,-0.0821471,0.274694,5.96046e-06,-0.0907183,0.136137,-5.96046e-05,0.0183744,0.157777,5,0.1,8,7.8,-4.50852,1.37541,1.04973,0.00809431,-0.488478,0.00026226,-0.00834465,-0.841916,-0.000357628,0.0119565,1.09482,5,0.1,9,7.8,-0.0490997,1.60795,0.588919,-0.0293993,-0.750235,-0.00682175,-0.584964,0.846326,-0.0177026,0.0108093,2.67763,5,0.1
0,7.9,2.2285,-0.0714994,0.600185,0.866026,0.128283,-0.000105705,0,-0.0119106,1.11759e-05,0.00984578,2.26139,5,0.1,1,7.9,-1.75548,-2.47689,0.550882,-0.00397731,-0.00119992,0.000822451,0.0128672,0.00335276,-0.00227615,0.0138041,8.53893e-06,5,0.1,2,7.9,-3.03034,2.12681,1.18207,-0.260817,-0.284483,-0.26929,0.196517,0.144824,-0.146098,0.00872349,0.181773,5,0.1,3,7.9,0.0861235,1.07802,0.600406,0.0247741,0.680194,0.00516828,0.795997,-0.373721,0.0191182,0.0104586,2.72497,5,0.1,4,7.9,-5.10115,0.687462,0.5,0.0144266,0.134525,0,-0.0273287,-0.269614,0,0.00688399,0.188224,5,0.1,5,7.9,-4.41884,2.51728,0.596252,2.38419e-05,2.27243e-05,-1.21072e-06,0.0461936,-0.0012368,0.000279397,0.00671726,0.000141523,5,0.1,6,7.9,0.679193,-4.77681,0.640986,1.44355e-05,-8.9407e-06,-1.11759e-06,-1.11759e-05,5.96046e-05,7.45058e-06,0.0101902,6.05581e-09,5,0.1,7,7.9,2.064,-4.15856,0.600002,-0.0911154,0.29327,9.31323e-07,-0.0824034,0.20811,-3.72529e-05,0.0183744,0.157777,5,0.1,8,7.9,-4.50775,1.32225,1.04976,0.00734404,-0.574438,0.000230782,-0.00688434,-0.825591,-0.000275671,0.0119565,1.09482,5,0.1,9,7.9,-0.0553277,1.5361,0.588145,-0.0975496,-0.695508,-0.00865469,-0.729652,0.315204,-0.0178181,0.0108093,2.67763,5,0.1
0,8,2.31511,-0.0587482,0.600174,0.866026,0.126425,-0.000104308,0,-0.0305811,2.98023e-05,0.0105291,2.26201,5,0.1,1,8,-1.75581,-2.477,0.550953,-0.00273585,-0.000870228,0.000599027,0.0118017,0.00309944,-0.00214577,0.006772,7.21366e-06,5,0.1,2,8,-3.05542,2.09913,1.15457,-0.240427,-0.268424,-0.279018,0.216842,0.183105,-0.0391006,0.0071787,0.212583,5,0.1,3,8,0.0925319,1.1446,0.601012,0.101966,0.654581,0.00686347,0.711903,-0.187755,0.0141263,0.0180566,2.64369,5,0.1,4,8,-5.09985,0.7,0.5,0.011611,0.120406,0,-0.0281334,-0.0239015,0,0.00644691,0.141742,5,0.1,5,8,-4.41863,2.51728,0.596253,0.00376701,-7.7486e-05,2.08616e-05,0.0288486,-0.000715256,0.000178814,0.00657809,4.99338e-05,5,0.1,6,8,0.679195,-4.77681,0.640986,1.49012e-05,0,0,-5.96046e-05,0,0,0.00702974,5.3106e-09,5,0.1,7,8,2.05453,-4.12826,0.600002,-0.0975847,0.311625,-1.49012e-06,-0.0426769,0.139713,-5.96046e-05,0.00942527,0.0957834,5,0.1,8,8,-4.50705,1.26105,1.04978,0.0066638,-0.644815,0.000205636,-0.00667572,-0.54574,-0.000298023,0.0166433,0.804513,5,0.1,9,8,-0.0686461,1.46771,0.587198,-0.167081,-0.675312,-0.0101954,-0.626881,0.140548,-0.012219,0.00764633,1.02987,5,0.1
0,8.1,2.40171,-0.0462094,0.600164,0.866026,0.124658,-0.000102445,0,-0.0119703,1.49012e-05,0.0105291,2.26201,5,0.1,1,8.1,-1.75603,-2.47707,0.551002,-0.00160933,-0.000570714,0.000392273,0.0105649,0.00286102,-0.0019595,0.006772,7.21366e-06,5,0.1,2,8.1,-3.07844,2.07316,1.12633,-0.220352,-0.251415,-0.286577,0.191391,0.165373,-0.090912,0.0071787,0.212583,5,0.1,3,8.1,0.10534,1.21036,0.601748,0.145571,0.670544,0.00765845,0.194251,0.408232,0.00239909,0.0180566,2.64369,5,0.1,4,8.1,-5.09883,0.712364,0.5,0.00881851,0.130489,0,-0.0273585,0.193283,0,0.00644691,0.141742,5,0.1,5,8.1,-4.41813,2.51727,0.596256,0.00599399,-0.000133738,3.47383e-05,0.0160635,-0.000432134,0.000100583,0.00657809,4.99338e-05,5,0.1,6,8.1,0.679196,-4.77681,0.640986,9.87202e-06,2.98023e-06,3.72529e-07,-3.72529e-05,5.96046e-05,7.45058e-06,0.00702974,5.3106e-09,5,0.1,7,8.1,2.04466,-4.09639,0.600002,-0.0988875,0.325385,-6.14673e-06,0.0156015,0.118136,-3.72529e-05,0.00942527,0.0957834,5,0.1,8,8.1,-4.50641,1.19387,1.0498,0.00606328,-0.697433,0.000179932,-0.00554323,-0.46616,-0.000223517,0.0166433,0.804513,5,0.1,9,8.1,-0.088092,1.40286,0.586111,-0.217844,-0.604419,-0.0115869,-0.387547,1.17432,-0.0143982,0.00764633,1.02987,5,0.1
0,8.2,2.48831,-0.0338212,0.600154,0.866026,0.122796,-0.000101328,0,-0.0304012,2.98023e-05,0.01044,1.91364,5,0.1,1,8.2,-1.75614,-2.47711,0.551032,-0.000652671,-0.000309944,0.000211596,0.00858307,0.00238419,-0.00163913,0.00694394,4.58317e-06,5,0.1,2,8.2,-3.09951,2.04887,1.09728,-0.201005,-0.233942,-0.293574,0.200033,0.189662,-0.033915,0.00766498,0.24453,5,0.1,3,8.2,0.120246,1.27977,0.602511,0.147075,0.718915,0.00746101,-0.135668,0.484824,-0.00578165,0.0170942,2.41797,5,0.1,4,8.2,-5.09808,0.72652,0.5,0.00619888,0.153378,0,-0.0245571,0.239968,0,0.006533,0.255731,5,0.1,5,8.2,-4.41747,2.51725,0.59626,0.00705719,-0.000166893,4.17233e-05,0.00524521,-0.000119209,2.98023e-05,0.00639602,1.4763e-05,5,0.1,6,8.2,0.679197,-4.77681,0.640986,5.96046e-06,1.19209e-05,1.49012e-06,-2.98023e-05,-0.000238419,-2.98023e-05,0.00801351,9.09534e-09,5,0.1,7,8.2,2.03494,-4.06341,0.600001,-0.0947058,0.332344,-8.9407e-06,0.066638,0.00905991,0,0.00993457,0.0757939,5,0.1,8,8.2,-4.50583,1.1222,1.04981,0.00550747,-0.73126,0.000160933,-0.00524521,-0.183046,-0.000238419,0.0157493,0.564116,5,0.1,9,8.2,-0.111415,1.34929,0.584885,-0.244658,-0.459,-0.0128686,-0.150256,1.65135,-0.0103116,0.00674123,0.332475,5,0.1
0,8.3,2.57491,-0.0216603,0.600144,0.866026,0.120598,-9.93721e-05,0,-0.0196319,1.86265e-05,0.01044,1.91364,5,0.1,1,8.3,-1.75617,-2.47713,0.551045,0.000121444,-9.20147e-05,6.1933e-05,0.00682473,0.00195205,-0.00134483,0.00694394,4.58317e-06,5,0.1,2,8.3,-3.1189,2.02635,1.06769,-0.189017,-0.217003,-0.298447,0.0595748,0.157386,-0.0467747,0.00766498,0.24453,5,0.1,3,8.3,0.133845,1.35453,0.603219,0.121234,0.778916,0.00663437,-0.35571,0.642911,-0.0103265,0.0170942,2.41797,5,0.1,4,8.3,-5.09757,0.743307,0.5,0.00394881,0.184132,0,-0.0203848,0.345882,0,0.006533,0.255731,5,0.1,5,8.3,-4.41675,2.51724,0.596264,0.00720024,-0.000170618,4.24683e-05,-0.00196695,2.98023e-05,-1.49012e-05,0.00639602,1.4763e-05,5,0.1,6,8.3,0.679197,-4.77681,0.640986,3.44589e-06,-4.47035e-06,-5.58794e-07,-1.86265e-05,-5.96046e-05,-7.45058e-06,0.00801351,9.09534e-09,5,0.1,7,8.3,2.0259,-4.03007,0.6,-0.0852183,0.334544,-8.47504e-06,0.11903,0.0168085,1.11759e-05,0.00993457,0.0757939,5,0.1,8,8.3,-4.50531,1.0482,1.04983,0.00503287,-0.74758,0.00014063,-0.00444055,-0.110984,-0.000171363,0.0157493,0.564116,5,0.1,9,8.3,-0.136942,1.31146,0.583511,-0.268089,-0.299988,-0.0148765,-0.284209,1.50847,-0.0267737,0.00674123,0.332475,5,0.1
0,8.4,2.66152,-0.00972154,0.600134,0.866026,0.117837,-9.68575e-05,0,-0.0398381,2.98023e-05,0.010908,1.49292,5,0.1,1,8.4,-1.75612,-2.47713,0.551045,0.000703335,8.34465e-05,-5.36442e-05,0.00464916,0.0013113,-0.00101328,0.00659253,2.0999e-06,5,0.1,2,8.4,-3.1376,2.00544,1.0377,-0.185609,-0.201055,-0.300083,0.0237226,0.16737,0.0256896,0.00692983,0.179289,5,0.1,3,8.4,0.144,1.43542,0.603827,0.0804905,0.835374,0.0054732,-0.439033,0.437438,-0.0125766,0.0118009,2.31416,5,0.1,4,8.4,-5.09727,0.763427,0.5,0.00213385,0.217482,0,-0.015974,0.299543,0,0.00805401,0.0823554,5,0.1,5,8.4,-4.41605,2.51722,0.596268,0.00673532,-0.000160933,4.02331e-05,-0.00715256,0.000119209,-5.96046e-05,0.00878765,7.20525e-06,5,0.1,6,8.4,0.679197,-4.77681,0.640986,2.98023e-06,-1.19209e-05,-1.49012e-06,-2.98023e-05,0,0,0.00695808,6.8883e-09,5,0.1,7,8.4,2.01803,-3.99664,0.599999,-0.0716567,0.332659,-7.45058e-06,0.148416,-0.0668764,2.98023e-05,0.0101029,0.15083,5,0.1,8,8.4,-4.50483,0.973219,1.04984,0.00458956,-0.748068,0.00012517,-0.00429153,0.122666,-0.000178814,0.0151212,0.431676,5,0.1,9,8.4,-0.165162,1.28863,0.581883,-0.295581,-0.160766,-0.0176877,-0.240571,1.26165,-0.0270903,0.0167125,3.73826,5,0.1
0,8.5,2.74812,0.00188529,0.600124,0.865883,0.114396,-9.42498e-05,-0.00572205,-0.0338751,2.23517e-05,0.010908,1.49292,5,0.1,1,8.5,-1.75603,-2.47712,0.551035,0.0010917,0.000196695,-0.000140071,0.00310689,0.000953674,-0.000707805,0.00659253,2.0999e-06,5,0.1,2,8.5,-3.15618,1.98611,1.00778,-0.186998,-0.185988,-0.298231,-0.0360757,0.140786,0.0247769,0.00692983,0.179289,5,0.1,3,8.5,0.149706,1.52055,0.604309,0.032644,0.861915,0.00416581,-0.498387,0.120528,-0.0132844,0.0118009,2.31416,5,0.1,4,8.5,-5.09714,0.786669,0.5,0.000604242,0.246843,0,-0.0143349,0.269186,0,0.00805401,0.0823554,5,0.1,5,8.5,-4.41542,2.5172,0.596272,0.00585318,-0.000144541,3.3807e-05,-0.0101924,0.000178814,-7.07805e-05,0.00878765,7.20525e-06,5,0.1,6,8.5,0.679197,-4.77681,0.640986,5.58794e-07,-8.19564e-06,-1.11759e-06,-1.49012e-05,8.9407e-05,7.45058e-06,0.00695808,6.8883e-09,5,0.1,7,8.5,2.01163,-3.96375,0.599999,-0.0561111,0.32439,-4.56348e-06,0.159085,-0.107467,2.6077e-05,0.0101029,0.15083,5,0.1,8,8.5,-4.50423,0.899541,1.04985,0.00864491,-0.720519,0.000110455,0.0753701,0.42145,-0.00012666,0.0151212,0.431676,5,0.1,9,8.5,-0.195135,1.2761,0.580021,-0.296765,-0.113857,-0.019181,0.186295,-0.181206,-0.00385195,0.0167125,3.73826,5,0.1
0,8.6,2.83463,0.0131327,0.600115,0.863731,0.110235,-9.08971e-05,-0.0456572,-0.0527324,2.98023e-05,0.00740559,1.13114,5,0.1,1,8.6,-1.75591,-2.4771,0.551018,0.00132024,0.000274181,-0.000195205,0.00149012,0.000476837,-0.000417233,0.00653792,7.10161e-07,5,0.1,2,8.6,-3.17506,1.96821,0.978172,-0.190157,-0.171742,-0.292864,-0.0158548,0.149012,0.0916719,0.00800705,0.128299,5,0.1,3,8.6,0.150513,1.60705,0.60466,-0.01578,0.866026,0.00286549,-0.455536,0,-0.0124872,0.0107309,2.27641,5,0.1,4,8.6,-5.09714,0.812526,0.5,-0.000691414,0.268225,0,-0.0112057,0.146002,0,0.00948418,0.112257,5,0.1,5,8.6,-4.41489,2.51719,0.596275,0.00476837,-0.000119209,2.5332e-05,-0.0114441,0.000119209,-2.98023e-05,0.00670314,6.67169e-06,5,0.1,6,8.6,0.679197,-4.77681,0.640986,0,-1.19209e-05,0,-2.98023e-05,0.000238419,0,0.00683113,6.52862e-09,5,0.1,7,8.6,2.00681,-3.93198,0.599998,-0.0404418,0.309724,-2.98023e-06,0.151396,-0.19145,2.98023e-05,0.0100827,0.254381,5,0.1,8,8.6,-4.50293,0.830039,1.04986,0.0178814,-0.665289,0.000101328,0.101566,0.674844,-0.000119209,0.0108158,0.380483,5,0.1,9,8.6,-0.223385,1.2624,0.578114,-0.263946,-0.171506,-0.0186652,0.444427,-0.859141,0.0131726,0.0097031,3.07696,5,0.1
0,8.7,2.92098,0.0239115,0.600106,0.864137,0.10543,-8.79169e-05,0.0147074,-0.0473648,2.98023e-05,0.00740559,1.13114,5,0.1,1,8.7,-1.75577,-2.47707,0.550997,0.00141282,0.000309199,-0.00022538,0.00037998,0.000208616,-0.000186265,0.00653792,7.10161e-07,5,0.1,2,8.7,-3.19421,1.95173,0.949312,-0.193349,-0.158268,-0.284376,-0.035882,0.126079,0.0890121,0.00800705,0.128299,5,0.1,3,8.7,0.146634,1.69365,0.604885,-0.0616264,0.866026,0.00165077,-0.445398,0,-0.0115968,0.0107309,2.27641,5,0.1,4,8.7,-5.09726,0.84018,0.5,-0.00166297,0.285304,0,-0.00816584,0.173841,0,0.00948418,0.112257,5,0.1,5,8.7,-4.41447,2.51718,0.596277,0.00359789,-0.000102818,2.12342e-05,-0.0117123,0.000178814,-4.47035e-05,0.00670314,6.67169e-06,5,0.1,6,8.7,0.679197,-4.77681,0.640986,-2.04891e-06,8.19564e-06,3.72529e-07,-7.45058e-06,0.000149012,7.45058e-06,0.00683113,6.52862e-09,5,0.1,7,8.7,2.0035,-3.90205,0.599998,-0.0261579,0.287859,-4.65661e-07,0.131592,-0.246733,1.86265e-05,0.0100827,0.254381,5,0.1,8,8.7,-4.50057,0.767476,1.04987,0.0296235,-0.581008,9.16421e-05,0.125706,0.972848,-8.9407e-05,0.0108158,0.380483,5,0.1,9,8.7,-0.247291,1.23975,0.576328,-0.212019,-0.290623,-0.0169129,0.574305,-1.41449,0.0212751,0.0097031,3.07696,5,0.1
0,8.8,3.00731,0.0341999,0.600098,0.860453,0.100089,-8.49366e-05,-0.111222,-0.06219,5.96046e-05,0.00917021,0.828864,5,0.1,1,8.8,-1.75563,-2.47703,0.550974,0.00140071,0.000321865,-0.000233948,-0.000596046,-0.000119209,2.98023e-05,0.0104695,1.92416e-07,5,0.1,2,8.8,-3.21368,1.93653,0.921388,-0.195265,-0.145569,-0.273231,0.00596046,0.131905,0.141323,0.00747592,0.154385,5,0.1,3,8.8,0.138369,1.78026,0.604995,-0.102124,0.866026,0.000581145,-0.353195,0,-0.00965595,0.0107738,2.25936,5,0.1,4,8.8,-5.09747,0.869479,0.5,-0.00232458,0.299284,0,-0.00476837,0.0903904,0,0.00989202,0.0957182,5,0.1,5,8.8,-4.41417,2.51717,0.596279,0.00246763,-8.34465e-05,1.63913e-05,-0.0109673,0.000238419,-2.98023e-05,0.00657758,5.61346e-06,5,0.1,6,8.8,0.679197,-4.77681,0.640986,-2.98023e-06,2.38419e-05,1.49012e-06,0,0.000238419,0,0.00761701,6.29659e-09,5,0.1,7,8.8,2.00149,-3.8746,0.599998,-0.0145316,0.260311,1.49012e-06,0.099659,-0.303984,0,0.0100752,0.248203,5,0.1,8,8.8,-4.49699,0.714476,1.04988,0.0417113,-0.477393,8.64267e-05,0.110626,1.07062,-0.000119209,0.00925776,0.350516,5,0.1,9,8.8,-0.265543,1.20344,0.574753,-0.152625,-0.435343,-0.0145242,0.597998,-1.39809,0.0259876,0.00793902,2.63369,5,0.1
0,8.9,3.09302,0.0439167,0.600089,0.854665,0.0943511,-7.94418e-05,-0.0491142,-0.0558557,4.84288e-05,0.00917021,0.828864,5,0.1,1,8.9,-1.75549,-2.477,0.550951,0.00130851,0.000303611,-0.000224449,-0.00121444,-0.000223517,0.000156462,0.0104695,1.92416e-07,5,0.1,2,8.9,-3.23338,1.92251,0.894571,-0.200132,-0.135826,-0.264606,-0.0829399,0.0725985,0.0505522,0.00747592,0.154385,5,0.1,3,8.9,0.126402,1.86686,0.605007,-0.136727,0.866026,-0.000330154,-0.324765,0,-0.00840053,0.0107738,2.25936,5,0.1,4,8.9,-5.09772,0.899964,0.5,-0.00271946,0.310885,0,-0.00303984,0.119299,0,0.00989202,0.0957182,5,0.1,5,8.9,-4.41397,2.51716,0.596281,0.00142381,-5.96046e-05,1.28523e-05,-0.00974536,0.000238419,-4.47035e-05,0.00657758,5.61346e-06,5,0.1,6,8.9,0.679197,-4.7768,0.640986,-2.51457e-06,4.32134e-05,1.58325e-06,1.11759e-05,0.000119209,3.72529e-06,0.00761701,6.29659e-09,5,0.1,7,8.9,2.00047,-3.8501,0.599998,-0.00639074,0.229472,1.49012e-06,0.0642389,-0.313044,0,0.0100752,0.248203,5,0.1,8,8.9,-4.49225,0.672175,1.04989,0.0529684,-0.368802,7.69272e-05,0.108808,1.06148,-8.19564e-05,0.00925776,0.350516,5,0.1,9,8.9,-0.277806,1.15249,0.573431,-0.0928678,-0.585432,-0.0119057,0.584418,-1.51742,0.026118,0.00793902,2.63369,5,0.1
0,9,3.17804,0.0530611,0.600082,0.843054,0.0883632,-7.45058e-05,-0.2141,-0.0661573,8.9407e-05,0.00858076,0.587117,5,0.1,1,9,-1.75537,-2.47697,0.55093,0.00116229,0.000274181,-0.000202656,-0.00160933,-0.000357628,0.000238419,0.00830405,9.89699e-08,5,0.1,2,9,-3.25381,1.90926,0.868344,-0.208324,-0.129375,-0.259767,-0.0659227,0.0635386,0.0604093,0.00692128,0.093166,5,0.1,3,9,0.111248,1.95346,0.604935,-0.164694,0.866026,-0.00107288,-0.224847,-5.96046e-05,-0.00628829,0.0108434,2.24783,5,0.1,4,9,-5.098,0.931547,0.5,-0.00292063,0.319357,0,-0.00119209,0.0346601,0,0.00665663,0.160769,5,0.1,5,9,-4.41388,2.51716,0.596282,0.000548363,-3.57628e-05,8.9407e-06,-0.00786781,0.000119209,-5.96046e-05,0.0117542,3.49153e-06,5,0.1,6,9,0.679197,-4.7768,0.640987,-2.98023e-06,4.76837e-05,1.49012e-06,2.98023e-05,0.000238419,2.98023e-05,0.00724654,7.62445e-09,5,0.1,7,9,2.0001,-3.82873,0.599998,-0.00146031,0.197715,1.49012e-06,0.0354052,-0.321984,0,0.0103275,0.494904,5,0.1,8,9,-4.48646,0.640337,1.0499,0.0624776,-0.2712,6.85453e-05,0.0777245,0.869274,0,0.00944397,0.322321,5,0.1,9,9,-0.284279,1.08675,0.572369,-0.0379398,-0.723994,-0.00935048,0.504911,-1.19174,0.0247955,0.00785441,2.37467,5,0.1
0,9.1,3.26141,0.061586,0.600075,0.824874,0.0822571,-6.67758e-05,-0.185385,-0.0586964,7.07805e-05,0.00858076,0.587117,5,0.1,1,9.1,-1.75526,-2.47695,0.550911,0.000988506,0.000236556,-0.000175647,-0.00182539,-0.000402331,0.000290573,0.00830405,9.89699e-08,5,0.1,2,9.1,-3.27502,1.89659,0.842607,-0.215882,-0.124314,-0.255282,-0.0720322,0.0440329,0.0419095,0.00692128,0.093166,5,0.1,3,9.1,0.0936584,2.04006,0.604797,-0.186708,0.866025,-0.00165785,-0.20228,1.49012e-05,-0.00525638,0.0108434,2.24783,5,0.1,4,9.1,-5.0983,0.963754,0.5,-0.00294819,0.325251,0,0.000625849,0.0632145,0,0.00665663,0.160769,5,0.1,5,9.1,-4.41386,2.51715,0.596282,-0.000157952,-2.34693e-05,3.44589e-06,-0.00619888,0.00013411,-4.84288e-05,0.0117542,3.49153e-06,5,0.1,6,9.1,0.679196,-4.77679,0.640987,-4.65661e-07,6.4075e-05,3.91155e-06,1.86265e-05,5.96046e-05,1.49012e-05,0.00724654,7.62445e-09,5,0.1,7,9.1,2.00021,-3.81054,0.599999,0.00403337,0.166469,1.49012e-06,0.0615269,-0.303015,0,0.0103275,0.494904,5,0.1,8,9.1,-4.47983,0.617196,1.04991,0.0699498,-0.196177,6.85453e-05,0.0672638,0.599403,0,0.00944397,0.322321,5,0.1,9,9.1,-0.285628,1.00926,0.571553,0.0099529,-0.816971,-0.0070204,0.444053,-0.662055,0.0217296,0.00785441,2.37467,5,0.1
0,9.2,3.34278,0.0695124,0.600068,0.799924,0.0761628,-5.96046e-05,-0.338078,-0.0650659,5.96046e-05,0.0102718,0.405713,5,0.1,1,9.2,-1.75517,-2.47693,0.550894,0.000798702,0.000196695,-0.000144541,-0.00178814,-0.000357628,0.000298023,0.00950181,1.04389e-07,5,0.1,2,9.2,-3.29689,1.88439,0.817342,-0.220495,-0.119483,-0.249252,-0.0110865,0.056982,0.0874698,0.0098941,0.0726837,5,0.1,3,9.2,0.0741017,2.12667,0.604608,-0.202935,0.866026,-0.00209957,-0.113262,0,-0.00348687,0.00964324,2.12949,5,0.1,4,9.2,-5.09859,0.996509,0.5,-0.00281334,0.328594,0,0.00214577,-0.0103116,0,0.00738848,0.790987,5,0.1,5,9.2,-4.4139,2.51715,0.596282,-0.000679493,-1.19209e-05,-1.49012e-06,-0.00429153,0.000238419,-2.98023e-05,0.00769578,1.5958e-06,5,0.1,6,9.2,0.679196,-4.77679,0.640987,2.98023e-06,7.15256e-05,5.96046e-06,-2.98023e-05,-0.000238419,0,0.0100413,4.7558e-09,5,0.1,7,9.2,2.00088,-3.79538,0.599999,0.00878572,0.137109,1.49012e-06,0.0257492,-0.284076,0,0.0108334,1.16551,5,0.1,8,9.2,-4.47254,0.6,1.04991,0.0751734,-0.153324,6.85453e-05,0.0343323,0.269383,-5.96046e-05,0.0099482,0.269276,5,0.1,9,9.2,-0.282573,0.925116,0.570955,0.0493854,-0.857605,-0.00501573,0.338599,-0.168413,0.0183284,0.00807003,2.27244,5,0.1
0,9.3,3.42121,0.0768226,0.600063,0.768973,0.0701773,-5.4203e-05,-0.310168,-0.0569224,4.47035e-05,0.0102718,0.405713,5,0.1,1,9.3,-1.7551,-2.47691,0.550882,0.000619143,0.000160933,-0.000114087,-0.00177324,-0.000357628,0.000301749,0.00950181,1.04389e-07,5,0.1,2,9.3,-3.31906,1.87268,0.792772,-0.223093,-0.115152,-0.24264,-0.0272095,0.0362098,0.0578687,0.0098941,0.0726837,5,0.1,3,9.3,0.0532326,2.21327,0.604382,-0.214227,0.866026,-0.00242013,-0.100429,0,-0.00278652,0.00964324,2.12949,5,0.1,4,9.3,-5.09886,1.02999,0.5,-0.00256673,0.346416,0,0.00277162,0.311323,0,0.00738848,0.790987,5,0.1,5,9.3,-4.41399,2.51715,0.596282,-0.00103638,9.31323e-06,-4.37722e-06,-0.00283122,0.000163913,-2.6077e-05,0.00769578,1.5958e-06,5,0.1,6,9.3,0.679197,-4.77678,0.640988,5.58794e-07,4.84288e-05,5.86733e-06,-1.49012e-05,-0.000208616,-3.72529e-06,0.0100413,4.7558e-09,5,0.1,7,9.3,2.00198,-3.78303,0.599999,0.0130359,0.110273,1.49012e-06,0.0236779,-0.252739,0,0.0108334,1.16551,5,0.1,8,9.3,-4.46486,0.585418,1.04992,0.0782818,-0.143385,6.35162e-05,0.0243187,-0.0350289,-3.72529e-05,0.0099482,0.269276,5,0.1,9,9.3,-0.276021,0.838839,0.570539,0.0806727,-0.865499,-0.00336273,0.27987,-0.0210479,0.0147484,0.00807003,2.27244,5,0.1
0,9.4,3.4964,0.0835541,0.600057,0.73297,0.0643929,-4.91738e-05,-0.429749,-0.0603423,2.98023e-05,0.00841544,0.275691,5,0.1,1,9.4,-1.75505,-2.47689,0.550872,0.000450015,0.00012517,-8.49366e-05,-0.00166893,-0.000357628,0.000298023,0.0100616,9.77243e-08,5,0.1,2,9.4,-3.34144,1.86135,0.768836,-0.223631,-0.111124,-0.235459,0.0258684,0.0488758,0.094831,0.00810751,0.033388,5,0.1,3,9.4,0.0314103,2.29987,0.604128,-0.220978,0.866026,-0.00263304,-0.0263056,0,-0.00143051,0.0119212,1.67259,5,0.1,4,9.4,-5.0991,1.06635,0.5,-0.00226498,0.381145,0,0.00309944,0.341535,0,0.00733439,0.876986,5,0.1,5,9.4,-4.41411,2.51715,0.596282,-0.00123978,2.38419e-05,-5.96046e-06,-0.00119209,0.000119209,-2.98023e-05,0.00821658,5.0097e-07,5,0.1,6,9.4,0.679197,-4.77678,0.640988,0,3.57628e-05,5.96046e-06,0,-0.000238419,-2.98023e-05,0.0101039,5.40371e-09,5,0.1,7,9.4,2.00318,-3.77322,0.599999,0.00850558,0.086534,1.49012e-06,-0.128984,-0.222206,0,0.0111832,3.60769,5,0.1,8,9.4,-4.45695,0.570643,1.04992,0.0794411,-0.154015,5.96046e-05,-0.00357628,-0.149965,-5.96046e-05,0.00989935,0.214508,5,0.1,9,9.4,-0.2667,0.752248,0.57027,0.104163,-0.866026,-0.00206083,0.185221,0,0.0113547,0.00819008,2.26263,5,0.1
0,9.5,3.56768,0.0897102,0.600053,0.693135,0.0588662,-4.62867e-05,-0.391051,-0.0520954,2.6077e-05,0.00841544,0.275691,5,0.1,1,9.5,-1.75501,-2.47688,0.550865,0.000292435,9.12696e-05,-5.6345e-05,-0.00147521,-0.000312924,0.000264496,0.0100616,9.77243e-08,5,0.1,2,9.5,-3.36364,1.85048,0.745767,-0.220096,-0.106295,-0.22572,0.0517517,0.0511482,0.106681,0.00810751,0.033388,5,0.1,3,9.5,0.0091795,2.38647,0.603858,-0.223403,0.865972,-0.00275495,-0.0124773,-0.00216067,-0.000897795,0.0119212,1.67259,5,0.1,4,9.5,-5.09915,1.10659,0.5,0.00249296,0.426723,0,0.0821948,0.517532,0,0.00733439,0.876986,5,0.1,5,9.5,-4.41423,2.51716,0.596281,-0.00130981,3.35276e-05,-8.3819e-06,-0.000238419,5.96046e-05,-1.49012e-05,0.00821658,5.0097e-07,5,0.1,6,9.5,0.679197,-4.77678,0.640989,9.31323e-08,1.56462e-05,3.44589e-06,3.72529e-06,-0.000149012,-1.86265e-05,0.0101039,5.40371e-09,5,0.1,7,9.5,2.0034,-3.76562,0.600686,-0.00775643,0.0659823,0.0194962,-0.333115,-0.189036,0.346567,0.0111832,3.60769,5,0.1,8,9.5,-4.44903,0.554232,1.04993,0.0789292,-0.176108,5.45755e-05,-0.00956655,-0.26479,-3.72529e-05,0.00989935,0.214508,5,0.1,9,9.5,-0.255404,0.665645,0.570116,0.12111,-0.866026,-0.00107381,0.146863,3.72529e-06,0.00844151,0.00819008,2.26263,5,0.1
0,9.6,3.63494,0.0953373,0.600048,0.65071,0.0536509,-4.32134e-05,-0.473857,-0.0535324,2.98023e-05,0.0103159,0.185566,5,0.1,1,9.6,-1.75499,-2.47688,0.55086,0.000157952,5.96046e-05,-3.27826e-05,-0.00119209,-0.000238419,0.000238419,0.0142198,6.44473e-08,5,0.1,2,9.6,-3.38531,1.84013,0.723792,-0.212151,-0.100327,-0.213023,0.111341,0.0704527,0.151545,0.00929921,0.0128087,5,0.1,3,9.6,-0.0131355,2.47304,0.603579,-0.221849,0.865167,-0.00279397,0.0500774,-0.0172853,0.000178814,0.00921948,1.27729,5,0.1,4,9.6,-5.09843,1.15179,0.5,0.0124097,0.475568,0,0.10848,0.420988,0,0.00691586,0.680352,5,0.1,5,9.6,-4.41436,2.51716,0.59628,-0.00127554,3.57628e-05,-1.04308e-05,0.000238419,0.000119209,2.98023e-05,0.0108086,1.96585e-07,5,0.1,6,9.6,0.679197,-4.77677,0.640989,0,0,1.49012e-06,2.98023e-05,-0.000238419,0,0.0069434,6.98162e-09,5,0.1,7,9.6,2,-3.75991,0.604646,-0.0697762,0.0486791,0.0616133,-0.886977,-0.157237,0.462115,0.0106194,3.1382,5,0.1,8,9.6,-4.44121,0.535291,1.04994,0.077045,-0.202256,5.06639e-05,-0.0300407,-0.238091,-5.96046e-05,0.00976653,0.166848,5,0.1,9,9.6,-0.242668,0.579042,0.570046,0.132402,-0.866026,-0.000363588,0.0744984,0,0.00587106,0.00833164,2.25984,5,0.1
0,9.7,3.69777,0.100452,0.600044,0.606826,0.0487697,-4.03263e-05,-0.423804,-0.0456818,2.6077e-05,0.0103159,0.185566,5,0.1,1,9.7,-1.75498,-2.47687,0.550858,5.01052e-05,3.76254e-05,-1.1269e-05,-0.000946224,-0.000193715,0.00018999,0.0142198,6.44473e-08,5,0.1,2,9.7,-3.40593,1.83046,0.703267,-0.199778,-0.0930397,-0.197212,0.138968,0.0768229,0.167545,0.00929921,0.0128087,5,0.1,3,9.7,-0.0350794,2.55955,0.603301,-0.216918,0.865252,-0.0027664,0.0564584,-0.000804663,0.000461936,0.00921948,1.27729,5,0.1,4,9.7,-5.09659,1.20138,0.5,0.0247948,0.51466,0,0.131816,0.333905,0,0.00691586,0.680352,5,0.1,5,9.7,-4.41449,2.51716,0.596279,-0.0012137,4.39584e-05,-7.91624e-06,0.000983477,2.98023e-05,1.86265e-05,0.0108086,1.96585e-07,5,0.1,6,9.7,0.679197,-4.77678,0.640989,2.51457e-06,-1.93715e-05,1.49012e-06,1.86265e-05,-0.000119209,0,0.0069434,6.98162e-09,5,0.1,7,9.7,1.98736,-3.75578,0.613374,-0.192441,0.0345048,0.114678,-1.45932,-0.126675,0.566468,0.0106194,3.1382,5,0.1,8,9.7,-4.43367,0.513787,1.04994,0.0737146,-0.228157,4.56348e-05,-0.0380874,-0.259053,-3.72529e-05,0.00976653,0.166848,5,0.1,9,9.7,-0.229064,0.49244,0.570036,0.139397,-0.866026,0.000123214,0.0584144,3.57628e-06,0.00391528,0.00833164,2.25984,5,0.1
0,9.8,3.75629,0.105103,0.60004,0.562578,0.0442442,-3.72529e-05,-0.474811,-0.0459515,2.98023e-05,0.0101743,0.124428,5,0.1,1,9.8,-1.75498,-2.47687,0.550858,-3.27826e-05,1.78814e-05,4.47035e-06,-0.000655651,-0.000238419,0.000149012,0.0104252,3.12694e-08,5,0.1,2,9.8,-3.42515,1.82156,0.684428,-0.183922,-0.084722,-0.179067,0.179648,0.0905395,0.196874,0.0100208,0.00635523,5,0.1,3,9.8,-0.0564257,2.64596,0.603028,-0.209236,0.8614,-0.00268519,0.102477,-0.0925064,0.00116229,0.00838425,0.947115,5,0.1,4,9.8,-5.09346,1.25419,0.5,0.0374794,0.537857,0,0.116348,0.112176,0,0.00695486,0.622705,5,0.1,5,9.8,-4.41461,2.51717,0.596278,-0.0010848,4.17233e-05,-5.96046e-06,0.00119209,0.000119209,0,0.00748271,1.2641e-07,5,0.1,6,9.8,0.679197,-4.77678,0.640989,2.98023e-06,-2.38419e-05,1.49012e-06,2.98023e-05,-0.000238419,0,0.0109564,7.8049e-09,5,0.1,7,9.8,1.9606,-3.75291,0.627625,-0.342846,0.0232518,0.169219,-1.4677,-0.0988245,0.500202,0.0103322,2.6667,5,0.1,8,9.8,-4.42651,0.489782,1.04994,0.0691772,-0.250502,4.17233e-05,-0.0536442,-0.173062,0,0.00961738,0.226593,5,0.1,9,9.8,-0.214906,0.405837,0.570065,0.14292,-0.866025,0.000429153,0.00736117,-1.43051e-05,0.00226498,0.00945595,2.25916,5,0.1
0,9.9,3.81031,0.109313,0.600036,0.518798,0.0400716,-3.43658e-05,-0.417486,-0.038825,2.6077e-05,0.0101743,0.124428,5,0.1,1,9.9,-1.75498,-2.47687,0.550859,-8.84756e-05,-2.23517e-06,1.70432e-05,-0.000454485,-0.000149012,0.000100583,0.0104252,3.12694e-08,5,0.1,2,9.9,-3.44264,1.81353,0.667497,-0.165768,-0.0757823,-0.159574,0.185505,0.0894293,0.195153,0.0100208,0.00635523,5,0.1,3,9.9,-0.0768579,2.7319,0.602765,-0.199448,0.85886,-0.00256868,0.0998421,-0.00660121,0.00124797,0.00838425,0.947115,5,0.1,4,9.9,-5.08912,1.30766,0.5,0.0492617,0.523753,0,0.113666,-0.363246,0,0.00695486,0.622705,5,0.1,5,9.9,-4.41471,2.51717,0.596278,-0.000944734,4.88013e-05,-5.86733e-06,0.00160933,4.47035e-05,3.72529e-06,0.00748271,1.2641e-07,5,0.1,6,9.9,0.679198,-4.77678,0.64099,5.40167e-06,-4.02331e-05,1.49012e-06,1.49012e-05,-5.96046e-05,0,0.0109564,7.8049e-09,5,0.1,7,9.9,1.91858,-3.75104,0.647111,-0.499501,0.0145733,0.220447,-1.58166,-0.0752211,0.49841,0.0103322,2.6667,5,0.1,8,9.9,-4.42008,0.463564,1.04995,0.0574477,-0.276004,4.24683e-05,-0.167876,-0.302317,1.49012e-05,0.00961738,0.226593,5,0.1,9,9.9,-0.200556,0.319235,0.570117,0.14409,-0.866025,0.000599027,0.00880565,1.78814e-06,0.00116974,0.00945595,2.25916,5,0.1
0,10,3.86009,0.113129,0.600033,0.476259,0.0362527,-3.12924e-05,-0.44477,-0.0384897,2.98023e-05,0.0126527,0.108983,5,0.1,1,10,-1.755,-2.47687,0.550861,-0.00012219,-1.78814e-05,2.5332e-05,-0.000298023,0,2.98023e-05,0.00805085,1.25373e-08,5,0.1,2,10,-3.45826,1.80641,0.652526,-0.146508,-0.0666559,-0.13971,0.200629,0.0936985,0.203222,0.00861395,0.00190019,5,0.1,3,10,-0.0962642,2.81757,0.602515,-0.188173,0.851858,-0.00242442,0.130054,-0.16737,0.00169873,0.00860121,0.96424,5,0.1,4,10,-5.08367,1.35765,0.5,0.059247,0.47096,0,0.082016,-0.666142,0,0.00700958,0.577022,5,0.1,5,10,-4.41479,2.51718,0.596277,-0.00077486,4.76837e-05,-5.96046e-06,0.00166893,-0.000119209,0,0.00746912,1.2143e-07,5,0.1,6,10,0.679198,-4.77679,0.64099,5.96046e-06,-4.76837e-05,1.49012e-06,0,0,-2.98023e-05,0.00991688,4.90566e-09,5,0.1,7,10,1.8611,-3.74993,0.671469,-0.644767,0.00810623,0.264475,-1.26344,-0.0543594,0.363827,0.00981496,2.34413,5,0.1,8,10,-4.41528,0.434472,1.04995,0.0379205,-0.304961,4.47035e-05,-0.211954,-0.251412,-5.96046e-05,0.00983594,0.139499,5,0.1,9,10,-0.18615,0.232632,0.570181,0.14346,-0.866025,0.000669062,-0.0263974,0,0.000298023,0.00801955,2.25951,5,0.1
