id,t,px,py,pz,vx,vy,vz,ax,ay,az,planning_time,qp_cost,planning_report,size,id,t,px,py,pz,vx,vy,vz,ax,ay,az,planning_time,qp_cost,planning_report,size,id,t,px,py,pz,vx,vy,vz,ax,ay,az,planning_time,qp_cost,planning_report,size,id,t,px,py,pz,vx,vy,vz,ax,ay,az,planning_time,qp_cost,planning_report,size,id,t,px,py,pz,vx,vy,vz,ax,ay,az,planning_time,qp_cost,planning_report,size,id,t,px,py,pz,vx,vy,vz,ax,ay,az,planning_time,qp_cost,planning_report,size,id,t,px,py,pz,vx,vy,vz,ax,ay,az,planning_time,qp_cost,planning_report,size,id,t,px,py,pz,vx,vy,vz,ax,ay,az,planning_time,qp_cost,planning_report,size,id,t,px,py,pz,vx,vy,vz,ax,ay,az,planning_time,qp_cost,planning_report,size,id,t,px,py,pz,vx,vy,vz,ax,ay,az,planning_time,qp_cost,planning_report,size
0,0,-3.45239,2.07224,0.56834,0,0,0,0,0,0,0.0120596,1.89433,5,0.1,1,0,1.62662,2.06204,0.609672,0,0,0,0,0,0,0.0162645,3.5122,5,0.1,2,0,-4.11526,-2.54241,0.671261,0,0,0,0,0,0,0.0112113,1.62073,5,0.1,3,0,-1.84145,4.75221,0.624446,0,0,0,0,0,0,0.0180836,3.5122,5,0.1,4,0,-4.68683,0.902541,0.557955,0,0,0,0,0,0,0.0119453,0.389576,5,0.1,5,0,4.85305,-5.6526,0.633457,0,0,0,0,0,0,0.0460931,3.5122,5,0.1,6,0,-0.678183,5.74636,0.60399,0,0,0,0,0,0,0.0091145,3.51219,5,0.1,7,0,-1.3677,2.26929,0.661334,0,0,0,0,0,0,0.00750357,1.00786,5,0.1,8,0,3.82384,-1.04947,0.607824,0,0,0,0,0,0,0.0108334,0.714285,5,0.1,9,0,1.44255,4.531,0.677392,0,0,0,0,0,0,0.0144308,0.872961,5,0.1
0,0.1,-3.45098,2.07164,0.568373,0.0400774,-0.0169575,0.000938214,0.712484,-0.30145,0.0166818,0.0120596,1.89433,5,0.1,1,0.1,1.62506,2.06342,0.609665,-0.0443816,0.039281,-0.00020666,-0.789002,0.698328,-0.00367686,0.0162645,3.5122,5,0.1,2,0.1,-4.11577,-2.54373,0.671148,-0.0145063,-0.0374198,-0.00319928,-0.25785,-0.665247,-0.0568777,0.0112113,1.62073,5,0.1,3,0.1,-1.83963,4.75119,0.624429,0.0517013,-0.0289723,-0.000487641,0.919141,-0.515103,-0.00867248,0.0180836,3.5122,5,0.1,4,0.1,-4.68679,0.903008,0.558469,0.00109076,0.0132602,0.0145813,0.0194311,0.235736,0.259221,0.0119453,0.389576,5,0.1,5,0.1,4.85097,-5.65241,0.633432,-0.0590175,0.00541508,-0.000717212,-1.04916,0.0962615,-0.0127517,0.0460931,3.5122,5,0.1,6,0.1,-0.677843,5.7443,0.603988,0.00966275,-0.0584759,-7.29226e-05,0.171784,-1.03959,-0.00130013,0.0091145,3.51219,5,0.1,7,0.1,-1.3688,2.26912,0.661207,-0.0311906,-0.00471771,-0.00359342,-0.554495,-0.0838935,-0.0638813,0.00750357,1.00786,5,0.1,8,0.1,3.82314,-1.04885,0.607815,-0.0199683,0.017765,-0.000231713,-0.355005,0.315823,-0.00412017,0.0108334,0.714285,5,0.1,9,0.1,1.44323,4.53065,0.678094,0.0194833,-0.00980943,0.019932,0.346363,-0.174403,0.35435,0.0144308,0.872961,5,0.1
0,0.2,-3.44284,2.0682,0.568563,0.126666,-0.0535965,0.00296533,0.94986,-0.401974,0.0222325,0.0112086,1.55421,5,0.1,1,0.2,1.61604,2.0714,0.609623,-0.140265,0.124151,-0.000652671,-1.05208,0.931025,-0.00491738,0.0189655,2.92579,5,0.1,2,0.2,-4.11871,-2.55133,0.670498,-0.0458479,-0.118268,-0.0101119,-0.3438,-0.887036,-0.0758171,0.00717686,1.32973,5,0.1,3,0.2,-1.82913,4.74531,0.62433,0.163403,-0.0915647,-0.00154227,1.22553,-0.686884,-0.0115335,0.0234443,2.92579,5,0.1,4,0.2,-4.68657,0.905702,0.561431,0.00344515,0.041908,0.0460848,0.0259876,0.314325,0.345618,0.0163094,0.319627,5,0.1,5,0.2,4.83898,-5.65131,0.633286,-0.186515,0.0171065,-0.00226647,-1.39904,0.128508,-0.0170171,0.0506882,2.92578,5,0.1,6,0.2,-0.67588,5.73242,0.603973,0.0305384,-0.18481,-0.000230968,0.229061,-1.38593,-0.00172853,0.00793748,2.92583,5,0.1,7,0.2,-1.37513,2.26817,0.660477,-0.0985771,-0.0149131,-0.0113577,-0.739276,-0.111699,-0.0851452,0.00704609,0.826901,5,0.1,8,0.2,3.81908,-1.04524,0.607768,-0.0631154,0.0561446,-0.000733137,-0.473261,0.421166,-0.00548363,0.00950477,0.586034,5,0.1,9,0.2,1.44719,4.52866,0.682143,0.0615746,-0.0310063,0.0629961,0.461876,-0.23222,0.472426,0.0139639,0.716225,5,0.1
0,0.3,-3.4249,2.06061,0.568983,0.235629,-0.0997066,0.00551594,1.16239,-0.491887,0.0272132,0.0112086,1.55421,5,0.1,1,0.3,1.59616,2.08899,0.60953,-0.261261,0.231229,-0.0012177,-1.29293,1.14426,-0.0060387,0.0189655,2.92579,5,0.1,2,0.3,-4.12521,-2.56808,0.669066,-0.085289,-0.220019,-0.0188095,-0.420719,-1.08543,-0.0927895,0.00717686,1.32973,5,0.1,3,0.3,-1.80597,4.73233,0.624112,0.30435,-0.170559,-0.00286978,1.50615,-0.844061,-0.0141934,0.0234443,2.92579,5,0.1,4,0.3,-4.68608,0.911637,0.567958,0.00642091,0.0779642,0.0857315,0.0317097,0.384621,0.422936,0.0163094,0.319627,5,0.1,5,0.3,4.81255,-5.64889,0.632965,-0.347412,0.0318818,-0.00422299,-1.71927,0.157863,-0.0208989,0.0506882,2.92578,5,0.1,6,0.3,-0.671567,5.70623,0.60394,0.0564577,-0.344277,-0.000426546,0.273958,-1.7046,-0.00206381,0.00793748,2.92583,5,0.1,7,0.3,-1.38909,2.26605,0.658869,-0.183382,-0.0277307,-0.0211257,-0.904679,-0.136778,-0.104211,0.00704609,0.826901,5,0.1,8,0.3,3.81014,-1.03729,0.607665,-0.117406,0.104454,-0.00136262,-0.579149,0.515334,-0.0067167,0.00950477,0.586034,5,0.1,9,0.3,1.45591,4.52427,0.691065,0.114555,-0.0576533,0.11719,0.565149,-0.284344,0.578124,0.0139639,0.716225,5,0.1
0,0.4,-3.39563,2.04822,0.569668,0.347501,-0.147045,0.00813454,1.02544,-0.433922,0.0239909,0.0126056,1.22971,5,0.1,1,0.4,1.56368,2.11774,0.609379,-0.385833,0.341475,-0.00179857,-1.1431,1.01173,-0.00530481,0.018212,2.51008,5,0.1,2,0.4,-4.1358,-2.59542,0.666729,-0.125778,-0.324482,-0.02774,-0.371218,-0.957489,-0.081867,0.00831227,1.0521,5,0.1,3,0.4,-1.76813,4.71112,0.623755,0.449461,-0.251889,-0.00423789,1.33175,-0.746012,-0.0125468,0.019272,2.51007,5,0.1,4,0.4,-4.68528,0.921323,0.578608,0.00947714,0.114979,0.126435,0.027895,0.339359,0.373095,0.0201536,0.252893,5,0.1,5,0.4,4.76936,-5.64492,0.63244,-0.513065,0.0470757,-0.00623763,-1.51992,0.139952,-0.0184476,0.047562,2.51475,5,0.1,6,0.4,-0.664582,5.66342,0.603888,0.0826627,-0.508547,-0.000624359,0.238866,-1.50776,-0.00181794,0.00761943,2.51327,5,0.1,7,0.4,-1.41187,2.26261,0.656245,-0.270447,-0.0408947,-0.0311568,-0.798106,-0.120759,-0.0919104,0.0110065,0.654257,5,0.1,8,0.4,3.79556,-1.02431,0.607495,-0.173146,0.154048,-0.00200868,-0.510931,0.454605,-0.00593066,0.00763207,0.463677,5,0.1,9,0.4,1.47014,4.51711,0.705623,0.168943,-0.085032,0.172828,0.498593,-0.250578,0.510037,0.0133323,0.566689,5,0.1
0,0.5,-3.35566,2.03131,0.570604,0.451545,-0.19107,0.010569,1.0044,-0.425011,0.0235066,0.0126056,1.22971,5,0.1,1,0.5,1.51922,2.15709,0.609172,-0.503462,0.445586,-0.00234488,-1.14898,1.01696,-0.00533462,0.018212,2.51008,5,0.1,2,0.5,-4.15027,-2.63274,0.663538,-0.16344,-0.42163,-0.0360462,-0.363588,-0.937819,-0.0801869,0.00831227,1.0521,5,0.1,3,0.5,-1.71634,4.6821,0.623267,0.586501,-0.32866,-0.00552926,1.33856,-0.749946,-0.0126213,0.019272,2.51007,5,0.1,4,0.5,-4.68419,0.934548,0.593151,0.0123084,0.149409,0.16429,0.0272989,0.332359,0.365432,0.0201536,0.252893,5,0.1,5,0.5,4.71046,-5.63949,0.631721,-0.663182,0.0614643,-0.00813641,-1.4137,0.140488,-0.0185519,0.047562,2.51475,5,0.1,6,0.5,-0.655091,5.60499,0.603816,0.107113,-0.658557,-0.000810158,0.237696,-1.42223,-0.00180677,0.00761943,2.51327,5,0.1,7,0.5,-1.44298,2.25791,0.652661,-0.351424,-0.0531469,-0.0404834,-0.7817,-0.118271,-0.0900365,0.0110065,0.654257,5,0.1,8,0.5,3.77564,-1.00659,0.607264,-0.224986,0.200172,-0.0026105,-0.500455,0.445243,-0.00581145,0.00763207,0.463677,5,0.1,9,0.5,1.48958,4.50733,0.725503,0.21953,-0.110467,0.224577,0.488319,-0.245631,0.499554,0.0133323,0.566689,5,0.1
0,0.6,-3.30586,2.01023,0.57177,0.539684,-0.228363,0.0126317,0.722647,-0.305891,0.0169277,0.0181289,0.915501,5,0.1,1,0.6,1.46353,2.20638,0.608912,-0.6053,0.535727,-0.0028193,-0.844955,0.7478,-0.0039041,0.0236779,2.21915,5,0.1,2,0.6,-4.1683,-2.67924,0.659563,-0.195348,-0.503933,-0.0430837,-0.261545,-0.674605,-0.0576675,0.00729399,0.783264,5,0.1,3,0.6,-1.65146,4.64574,0.622655,0.705141,-0.395131,-0.0066489,0.984371,-0.551701,-0.00926852,0.0168825,2.22824,5,0.1,4,0.6,-4.68283,0.951026,0.611269,0.0147104,0.178576,0.196359,0.0195503,0.239074,0.262916,0.0103628,0.188272,5,0.1,5,0.6,4.6377,-5.63269,0.630821,-0.784469,0.0739098,-0.00978112,-0.966787,0.103235,-0.0136197,0.0603733,2.33072,5,0.1,6,0.6,-0.643277,5.53263,0.603727,0.128081,-0.781322,-0.000968575,0.172883,-0.986814,-0.0013411,0.00748821,2.32289,5,0.1,7,0.6,-1.48174,2.25204,0.648196,-0.420025,-0.0635266,-0.0483856,-0.56231,-0.0851154,-0.0647604,0.00935923,0.487082,5,0.1,8,0.6,3.75083,-0.984514,0.606976,-0.268906,0.239244,-0.0031203,-0.359893,0.320256,-0.00420213,0.0137256,0.381821,5,0.1,9,0.6,1.51379,4.49515,0.75027,0.262383,-0.132024,0.268416,0.35125,-0.176668,0.359356,0.0126465,0.422618,5,0.1
0,0.7,-3.24834,1.98589,0.573116,0.609061,-0.257728,0.014257,0.625253,-0.264615,0.0146441,0.0181289,0.915501,5,0.1,1,0.7,1.39872,2.26374,0.608611,-0.690119,0.610794,-0.00321176,-0.79792,0.706181,-0.00369549,0.0236779,2.21915,5,0.1,2,0.7,-4.18912,-2.73295,0.654971,-0.220458,-0.568699,-0.0486203,-0.226319,-0.583693,-0.0499003,0.00729399,0.783264,5,0.1,3,0.7,-1.57631,4.60343,0.621943,0.793917,-0.450511,-0.00757994,0.750966,-0.520974,-0.00876561,0.0168825,2.22824,5,0.1,4,0.7,-4.68127,0.970058,0.632197,0.0165887,0.201527,0.2216,0.0169575,0.206839,0.22747,0.0103628,0.188272,5,0.1,5,0.7,4.55548,-5.62478,0.629774,-0.850005,0.0842646,-0.0111487,-0.369966,0.0973344,-0.0128672,0.0603733,2.33072,5,0.1,6,0.7,-0.629595,5.45062,0.603623,0.145393,-0.848926,-0.00110213,0.162318,-0.388592,-0.00124425,0.00748821,2.32289,5,0.1,7,0.7,-1.5265,2.24527,0.643039,-0.47401,-0.0716969,-0.0546038,-0.486523,-0.0736415,-0.0560433,0.00935923,0.487082,5,0.1,8,0.7,3.72274,-0.959016,0.606644,-0.287221,0.26999,-0.00352338,-0.0227094,0.277087,-0.00363588,0.0137256,0.381821,5,0.1,9,0.7,1.54175,4.48116,0.778878,0.296104,-0.146638,0.302916,0.303902,-0.111163,0.310928,0.0126465,0.422618,5,0.1
0,0.8,-3.18474,1.95898,0.574605,0.658077,-0.278473,0.0154048,0.328541,-0.138998,0.007689,0.0217558,0.646395,5,0.1,1,0.8,1.32615,2.32797,0.608273,-0.755832,0.668955,-0.00351667,-0.479162,0.424147,-0.00223517,0.0221629,2.04192,5,0.1,2,0.8,-4.21214,-2.79234,0.649894,-0.238204,-0.614464,-0.0525326,-0.118732,-0.306487,-0.026226,0.0145772,0.553033,5,0.1,3,0.8,-1.49381,4.55606,0.621146,0.849259,-0.493407,-0.00830144,0.335336,-0.313044,-0.00527501,0.0172899,2.11105,5,0.1,4,0.8,-4.67954,0.991104,0.655339,0.0179172,0.217745,0.239435,0.00882149,0.10857,0.119418,0.00975033,0.13293,5,0.1,5,0.8,4.46937,-5.61592,0.628602,-0.86602,0.0922799,-0.0122085,-0.000238419,0.0581741,-0.0077188,0.0667092,2.26526,5,0.1,6,0.8,-0.614335,5.36455,0.603507,0.158679,-0.866032,-0.00120401,0.0957847,0.000238419,-0.000715256,0.0093105,2.25423,5,0.1,7,0.8,-1.57601,2.23779,0.637337,-0.512156,-0.0774741,-0.0589982,-0.255525,-0.0386238,-0.0294447,0.00749036,0.343911,5,0.1,8,0.8,3.69435,-0.930821,0.606276,-0.276554,0.291714,-0.00380725,0.221372,0.145525,-0.00193715,0.00882382,0.206176,5,0.1,9,0.8,1.57267,4.46608,0.810512,0.319931,-0.153589,0.327294,0.159562,-0.025034,0.163287,0.0161876,0.30581,5,0.1
0,0.9,-3.11736,1.93047,0.576182,0.687846,-0.291066,0.0161015,0.235334,-0.0995472,0.00550225,0.0217558,0.646395,5,0.1,1,0.9,1.24807,2.39707,0.60791,-0.805479,0.712901,-0.00374839,-0.462592,0.409484,-0.00216067,0.0221629,2.04192,5,0.1,2,0.9,-4.23653,-2.85524,0.644516,-0.248964,-0.642237,-0.054909,-0.0850558,-0.219554,-0.0187866,0.0145772,0.553033,5,0.1,3,0.9,-1.40785,4.50509,0.620288,0.864978,-0.525814,-0.00884766,0.041917,-0.301689,-0.00509247,0.0172899,2.11105,5,0.1,4,0.9,-4.6777,1.0134,0.679852,0.0187188,0.227583,0.250256,0.00631809,0.0777766,0.0855438,0.00975033,0.13293,5,0.1,5,0.9,4.38276,-5.60639,0.627341,-0.866026,0.0982754,-0.0130044,0,0.0555813,-0.00738353,0.0667092,2.26526,5,0.1,6,0.9,-0.597998,5.27795,0.603383,0.167753,-0.866023,-0.00127172,0.0770241,-2.98023e-05,-0.00057742,0.0093105,2.25423,5,0.1,7,0.9,-1.62844,2.22985,0.631297,-0.535311,-0.0809755,-0.0616667,-0.183038,-0.0276715,-0.0210963,0.00749036,0.343911,5,0.1,8,0.9,3.66815,-0.900955,0.605886,-0.24457,0.304901,-0.00398215,0.400871,0.104234,-0.00138581,0.00882382,0.206176,5,0.1,9,0.9,1.60543,4.45085,0.84402,0.33439,-0.148802,0.34209,0.114292,0.109851,0.11697,0.0161876,0.30581,5,0.1
0,1,-3.04776,1.90102,0.577811,0.699902,-0.296164,0.0163853,-0.0150204,0.00631809,-0.00038743,0.0112803,0.43956,5,0.1,1,1,1.16558,2.47008,0.607526,-0.839689,0.743181,-0.00390857,-0.186265,0.164986,-0.000864267,0.018928,1.95506,5,0.1,2,1,-4.26171,-2.92023,0.63896,-0.25332,-0.653487,-0.0558719,0.00548363,0.0141859,0.00119209,0.00781462,0.37609,5,0.1,3,1,-1.32127,4.45125,0.619382,0.866026,-0.548112,-0.00922233,-5.96046e-05,-0.120878,-0.00208616,0.0181314,2.07882,5,0.1,4,1,-4.67581,1.03642,0.705173,0.0190377,0.231564,0.254638,-0.000238419,-0.00500679,-0.00551343,0.0132152,0.153083,5,0.1,5,1,4.29616,-5.59633,0.62601,-0.866032,0.102353,-0.0135466,0.000238419,0.0216961,-0.00289083,0.0364006,2.26464,5,0.1,6,1,-0.580926,5.19134,0.603254,0.172637,-0.866032,-0.00130832,0.014782,0.000238419,-8.9407e-05,0.0132251,2.25391,5,0.1,7,1,-1.6826,2.22166,0.625057,-0.544688,-0.0823915,-0.0627488,0.0117421,0.00178814,0.00137091,0.0175469,0.233874,5,0.1,8,1,3.64587,-0.870105,0.605483,-0.199556,0.310239,-0.00405312,0.485063,-0.00670552,5.96046e-05,0.0112258,0.167629,5,0.1,9,1,1.63926,4.43666,0.878633,0.340241,-0.133574,0.348082,-0.00733137,0.185728,-0.00751019,0.0114088,0.21591,5,0.1
0,1.1,-2.97788,1.87145,0.579447,0.69684,-0.29487,0.0163107,-0.0717938,0.030376,-0.00170246,0.0112803,0.43956,5,0.1,1,1.1,1.08067,2.54539,0.60713,-0.857906,0.763597,-0.00401577,-0.146095,0.197962,-0.00103936,0.018928,1.95506,5,0.1,2,1.1,-4.28701,-2.98548,0.633381,-0.252209,-0.650617,-0.0556283,0.0260174,0.0671297,0.0057295,0.00781462,0.37609,5,0.1,3,1.1,-1.23467,4.39571,0.618448,0.865968,-0.562929,-0.00947611,-0.00225753,-0.142336,-0.00243261,0.0181314,2.07882,5,0.1,4,1.1,-4.67389,1.05971,0.730777,0.0193477,0.235158,0.25859,0.00488758,0.0580028,0.0637844,0.0132152,0.153083,5,0.1,5,1.1,4.20956,-5.58597,0.624638,-0.866023,0.104951,-0.0138928,-2.98023e-05,0.0242889,-0.00323728,0.0364006,2.26464,5,0.1,6,1.1,-0.563578,5.10474,0.603123,0.174217,-0.866023,-0.00131819,0.00882149,-2.98023e-05,-5.21541e-05,0.0132251,2.25391,5,0.1,7,1.1,-1.73699,2.21343,0.618792,-0.542302,-0.0820298,-0.0624728,0.0559017,0.00844896,0.00644103,0.0175469,0.233874,5,0.1,8,1.1,3.62838,-0.839128,0.605078,-0.150077,0.308879,-0.00403738,0.493333,-0.0318512,0.000406057,0.0112258,0.167629,5,0.1,9,1.1,1.67323,4.42435,0.913389,0.338751,-0.111913,0.346557,-0.0349283,0.233024,-0.0357255,0.0114088,0.21591,5,0.1
0,1.2,-2.90882,1.84222,0.581064,0.681299,-0.288293,0.0159457,-0.255942,0.108302,-0.00599027,0.00915935,0.292275,5,0.1,1,1.2,0.994413,2.62249,0.606724,-0.864081,0.775063,-0.00407696,0.038892,-0.000119209,2.98023e-05,0.0148926,1.75918,5,0.1,2,1.2,-4.312,-3.04996,0.627868,-0.246584,-0.636101,-0.0543877,0.0927448,0.239015,0.0204146,0.00769583,0.250087,5,0.1,3,1.2,-1.1481,4.33889,0.617491,0.865117,-0.570965,-0.00961423,-0.0181794,0.00452995,5.96046e-05,0.0184405,2.07351,5,0.1,4,1.2,-4.67194,1.08349,0.75693,0.0197411,0.239915,0.263821,0.00214577,0.0234842,0.0258088,0.0131842,0.196011,5,0.1,5,1.2,4.12296,-5.57539,0.623237,-0.866032,0.106204,-0.0140592,0.000238419,-0.00357628,0.00038743,0.0395655,2.30277,5,0.1,6,1.2,-0.546176,5.01814,0.602991,0.173062,-0.866032,-0.00130832,-0.0373721,0.000238419,0.000298023,0.0125493,2.25389,5,0.1,7,1.2,-1.79073,2.2053,0.612601,-0.530204,-0.080198,-0.0610799,0.199139,0.03016,0.0229478,0.00965477,0.155515,5,0.1,8,1.2,3.61578,-0.808517,0.604678,-0.1028,0.301985,-0.00394881,0.444055,-0.113428,0.00149012,0.00755255,0.255122,5,0.1,9,1.2,1.70681,4.41431,0.947734,0.331196,-0.089252,0.338827,-0.124454,0.211477,-0.127286,0.012361,0.152286,5,0.1
0,1.3,-2.84194,1.81392,0.582629,0.655997,-0.277585,0.0153537,-0.271246,0.114806,-0.00634417,0.00915935,0.292275,5,0.1,1,1.3,0.908022,2.70019,0.606316,-0.864454,0.779726,-0.00409931,-0.00586733,0.0502765,-0.00025332,0.0148926,1.75918,5,0.1,2,1.3,-4.33621,-3.1124,0.622529,-0.237419,-0.612475,-0.0523693,0.0982583,0.253275,0.0216402,0.00769583,0.250087,5,0.1,3,1.3,-1.06159,4.28165,0.616527,0.865483,-0.574617,-0.009677,0.0101179,-0.0445247,-0.000752509,0.0184405,2.07351,5,0.1,4,1.3,-4.66995,1.1079,0.783471,0.0199921,0.250663,0.26695,0.00187755,0.161678,0.0234619,0.0131842,0.196011,5,0.1,5,1.3,4.03639,-5.56476,0.62183,-0.864567,0.106495,-0.0141053,0.0473708,0.00360608,-0.000536442,0.0395655,2.30277,5,0.1,6,1.3,-0.529003,4.93154,0.602861,0.17069,-0.866023,-0.00128923,-0.0191964,-2.98023e-05,0.000152737,0.0125493,2.25389,5,0.1,7,1.3,-1.84278,2.19743,0.606605,-0.510518,-0.0772174,-0.0588116,0.211067,0.0319332,0.024315,0.00965477,0.155515,5,0.1,8,1.3,3.60758,-0.778873,0.60429,-0.0627492,0.290772,-0.00380129,0.353709,-0.120223,0.00158697,0.00755255,0.255122,5,0.1,9,1.3,1.73932,4.40638,0.980995,0.318894,-0.070183,0.326244,-0.13189,0.15676,-0.134896,0.012361,0.152286,5,0.1
0,1.4,-2.77786,1.78681,0.584129,0.62353,-0.263843,0.0145942,-0.392079,0.16588,-0.00917912,0.0100986,0.192376,5,0.1,1,1.4,0.821738,2.77821,0.605906,-0.85865,0.777799,-0.00408739,0.147551,-0.11909,0.000596046,0.0110419,1.26213,5,0.1,2,1.4,-4.3594,-3.17222,0.617413,-0.225663,-0.582159,-0.0497773,0.141859,0.365973,0.0312626,0.0104115,0.164618,5,0.1,3,1.4,-0.975026,4.22411,0.615558,0.865528,-0.574231,-0.00967085,-0.00995398,0.0753403,0.0012517,0.0170549,1.97022,5,0.1,4,1.4,-4.66795,1.13381,0.81019,0.0199556,0.267071,0.26627,-0.00357628,0.144422,-0.0461638,0.0119672,0.157528,5,0.1,5,1.4,3.95042,-5.55412,0.62042,-0.851411,0.105929,-0.0140354,0.248671,-0.0185966,0.00247359,0.051496,2.20889,5,0.1,6,1.4,-0.512061,4.84493,0.602733,0.167668,-0.866032,-0.00126511,-0.0477284,0.000238419,0.000357628,0.00841408,2.26018,5,0.1,7,1.4,-1.89265,2.18989,0.60086,-0.485253,-0.0733912,-0.0559032,0.305057,0.0460148,0.0351965,0.0110255,0.102363,5,0.1,8,1.4,3.6029,-0.75047,0.603919,-0.0324726,0.276382,-0.00361353,0.250936,-0.173807,0.00232458,0.00696558,0.391278,5,0.1,9,1.4,1.77047,4.4,1.01286,0.303108,-0.0589728,0.310099,-0.190556,0.0700951,-0.195026,0.0121833,0.183831,5,0.1
0,1.5,-2.71739,1.76122,0.585544,0.58613,-0.248018,0.0137189,-0.373647,0.158094,-0.00873953,0.0100986,0.192376,5,0.1,1,1.5,0.73644,2.85551,0.605499,-0.847984,0.768387,-0.00404054,0.106346,-0.103697,0.000517815,0.0110419,1.26213,5,0.1,2,1.5,-4.38128,-3.22868,0.612586,-0.212131,-0.54725,-0.0467948,0.135154,0.348747,0.029806,0.0104115,0.164618,5,0.1,3,1.5,-0.888477,4.16714,0.614594,0.865665,-0.564036,-0.00961944,0.00297651,0.144213,0.000312924,0.0170549,1.97022,5,0.1,4,1.5,-4.66598,1.16107,0.836479,0.0193521,0.276302,0.258351,-0.00864267,0.0358522,-0.114642,0.0119672,0.157528,5,0.1,5,1.5,3.86758,-5.5436,0.619026,-0.796245,0.1045,-0.0138453,0.801578,-0.0148118,0.00196323,0.051496,2.20889,5,0.1,6,1.5,-0.495389,4.75833,0.602607,0.166837,-0.865915,-0.00128066,0.0168029,0.00432134,-0.000517815,0.00841408,2.26018,5,0.1,7,1.5,-1.93971,2.18277,0.595439,-0.456154,-0.0690009,-0.052547,0.290714,0.0438839,0.0335164,0.0110255,0.102363,5,0.1,8,1.5,3.60078,-0.723668,0.603569,-0.0112042,0.259803,-0.00339234,0.171661,-0.165623,0.00220165,0.00696558,0.391278,5,0.1,9,1.5,1.80002,4.39414,1.0431,0.289442,-0.0609405,0.296113,-0.101551,-0.0891387,-0.103943,0.0121833,0.183831,5,0.1
0,1.6,-2.66074,1.73725,0.58687,0.545847,-0.230971,0.0127763,-0.444055,0.187814,-0.010401,0.0131528,0.376587,5,0.1,1,1.6,0.652376,2.93162,0.605099,-0.830515,0.751239,-0.00395328,0.271171,-0.263095,0.00140071,0.00997964,0.881672,5,0.1,2,1.6,-4.40179,-3.28158,0.608063,-0.197554,-0.509644,-0.0435799,0.160456,0.414371,0.035435,0.00855509,0.108197,5,0.1,3,1.6,-0.801933,4.11167,0.613636,0.864728,-0.542843,-0.00951886,-0.025928,0.289679,0.00205636,0.0177284,1.87045,5,0.1,4,1.6,-4.6641,1.18867,0.861612,0.0182033,0.273621,0.24302,-0.014782,-0.0913739,-0.192732,0.0104178,0.268168,5,0.1,5,1.6,3.79252,-5.53325,0.617655,-0.700438,0.10215,-0.0135332,1.07431,-0.0352859,0.00467896,0.0426074,2.04524,5,0.1,6,1.6,-0.478612,4.6718,0.602476,0.16855,-0.864279,-0.0013411,0.00698864,0.0348091,-0.000566244,0.0134934,2.37773,5,0.1,7,1.6,-1.9838,2.1761,0.59036,-0.424808,-0.0642657,-0.0489339,0.345469,0.0522137,0.0397861,0.0130144,0.115021,5,0.1,8,1.6,3.60038,-0.698554,0.603241,0.00154376,0.241947,-0.00315607,0.0829697,-0.196815,0.0025928,0.00851768,0.563746,5,0.1,9,1.6,1.82848,4.38747,1.07221,0.279552,-0.0731945,0.285992,-0.109971,-0.14019,-0.112474,0.0127854,0.111401,5,0.1
0,1.7,-2.60795,1.71505,0.588098,0.513111,-0.213363,0.0118014,-0.245363,0.170656,-0.00944361,0.0131528,0.376587,5,0.1,1,1.7,0.570555,3.00533,0.60471,-0.806327,0.721569,-0.00382503,0.245415,-0.341237,0.00130758,0.00997964,0.881672,5,0.1,2,1.7,-4.42078,-3.33057,0.603873,-0.182509,-0.470797,-0.0402579,0.145853,0.376478,0.0322014,0.00855509,0.108197,5,0.1,3,1.7,-0.715467,4.05942,0.612692,0.865196,-0.497249,-0.00935402,0.0122152,0.592887,0.00166893,0.0177284,1.87045,5,0.1,4,1.7,-4.66234,1.21523,0.884999,0.0168264,0.254547,0.225007,-0.0132918,-0.276998,-0.174452,0.0104178,0.268168,5,0.1,5,1.7,3.72835,-5.5232,0.616323,-0.580097,0.0989541,-0.0131097,1.24991,-0.0325441,0.00431389,0.0426074,2.04524,5,0.1,6,1.7,-0.461697,4.58584,0.602333,0.169766,-0.851468,-0.00154488,0.00883825,0.236064,-0.00310689,0.0134934,2.37773,5,0.1,7,1.7,-2.02484,2.16989,0.585632,-0.398306,-0.0602599,-0.0458824,0.209481,0.031665,0.0241138,0.0130144,0.115021,5,0.1,8,1.7,3.60093,-0.675296,0.602938,0.0088729,0.223497,-0.00291346,0.0428855,-0.178788,0.00235066,0.00851768,0.563746,5,0.1,9,1.7,1.85595,4.37935,1.10032,0.270285,-0.0898533,0.276514,-0.087589,-0.17938,-0.0895858,0.0127854,0.111401,5,0.1
0,1.8,-2.55777,1.69458,0.58923,0.490761,-0.19578,0.0108287,-0.227213,0.185311,-0.010252,0.0148683,0.278165,5,0.1,1,1.8,0.491326,3.07557,0.604335,-0.775902,0.681114,-0.00366718,0.385523,-0.475645,0.00199676,0.00877612,0.622349,5,0.1,2,1.8,-4.43829,-3.37574,0.600011,-0.167477,-0.432009,-0.03694,0.15831,0.408888,0.0349581,0.00830968,0.122496,5,0.1,3,1.8,-0.628947,4.01296,0.611768,0.864427,-0.429487,-0.00911206,-0.0319779,0.739813,0.00342727,0.0193435,1.48251,5,0.1,4,1.8,-4.66073,1.23908,0.906611,0.0154614,0.220665,0.206967,-0.0143051,-0.389516,-0.191092,0.0109892,0.255742,5,0.1,5,1.8,3.67636,-5.51349,0.615037,-0.46314,0.094986,-0.0125825,1.04499,-0.0495911,0.00652671,0.0469438,1.87369,5,0.1,6,1.8,-0.44473,4.5023,0.602162,0.168885,-0.814843,-0.00189245,-0.0323057,0.504017,-0.00354648,0.0120854,2.59633,5,0.1,7,1.8,-2.06368,2.16402,0.581157,-0.378603,-0.0572801,-0.0436157,0.202775,0.0306368,0.023365,0.00936029,0.0663397,5,0.1,8,1.8,3.60185,-0.653855,0.602658,0.00731349,0.205077,-0.00267178,-0.0814199,-0.194103,0.0025332,0.00698721,1.01078,5,0.1,9,1.8,1.8825,4.3695,1.12747,0.259963,-0.106728,0.265956,-0.127316,-0.148058,-0.130236,0.0142858,0.0660467,5,0.1
0,1.9,-2.5096,1.67587,0.590265,0.474361,-0.178611,0.00987891,-0.128239,0.163399,-0.00903755,0.0148683,0.278165,5,0.1,1,1.9,0.415542,3.14089,0.603978,-0.7403,0.622525,-0.00348166,0.353407,-0.636354,0.00183284,0.00877612,0.622349,5,0.1,2,1.9,-4.45437,-3.41721,0.596465,-0.155041,-0.399886,-0.0341933,0.100017,0.258341,0.022091,0.00830968,0.122496,5,0.1,3,1.9,-0.542778,3.97394,0.610872,0.85742,-0.349742,-0.00880156,-0.124026,0.815377,0.00312924,0.0193435,1.48251,5,0.1,4,1.9,-4.65925,1.25908,0.926383,0.0140913,0.178325,0.188661,-0.0133812,-0.445984,-0.179432,0.0109892,0.255742,5,0.1,5,1.9,3.63488,-5.50422,0.613809,-0.37278,0.090389,-0.0119769,0.675678,-0.0455976,0.00601634,0.0469438,1.87369,5,0.1,6,1.9,-0.428558,4.4234,0.601951,0.149767,-0.76237,-0.00235215,-0.320831,0.559032,-0.00522286,0.0120854,2.59633,5,0.1,7,1.9,-2.10065,2.15842,0.576899,-0.361334,-0.0546705,-0.0416266,0.158876,0.0240058,0.0182986,0.00936029,0.0663397,5,0.1,8,1.9,3.6021,-0.634265,0.602403,-0.00464283,0.187095,-0.00243718,-0.223413,-0.171125,0.00223145,0.00698721,1.01078,5,0.1,9,1.9,1.90787,4.35824,1.15344,0.247581,-0.116749,0.253291,-0.128053,-0.0536442,-0.130981,0.0142858,0.0660467,5,0.1
0,2,-2.46283,1.65883,0.591207,0.460404,-0.162202,0.00897199,-0.170708,0.168502,-0.00929832,0.00953846,0.200928,5,0.1,1,2,0.343405,3.2,0.603639,-0.700699,0.560492,-0.00328124,0.456959,-0.597715,0.00232458,0.0116922,0.443539,5,0.1,2,2,-4.4694,-3.45599,0.593149,-0.145805,-0.376052,-0.0321552,0.0915527,0.23663,0.0202656,0.00748391,0.0706156,5,0.1,3,2,-0.457922,3.94291,0.61001,0.836705,-0.272608,-0.0084281,-0.303566,0.705123,0.00455976,0.014331,2.58167,5,0.1,4,2,-4.65791,1.27467,0.944342,0.0127196,0.133476,0.170347,-0.0140667,-0.442088,-0.189811,0.0154607,0.255541,5,0.1,5,2,3.6,-5.49542,0.612644,-0.334454,0.0853181,-0.0113085,0.112653,-0.0574589,0.00762939,0.038183,1.59451,5,0.1,6,2,-0.415462,4.35013,0.60169,0.10998,-0.700879,-0.00286251,-0.45152,0.678778,-0.00464916,0.00904406,2.63339,5,0.1,7,2,-2.13595,2.15308,0.572832,-0.344056,-0.0520587,-0.0396371,0.198126,0.0300407,0.0227988,0.00962845,0.0507082,5,0.1,8,2,3.6,-0.61641,0.60217,-0.04251,0.169909,-0.00221282,-0.519514,-0.176489,0.00229478,0.0106269,2.35332,5,0.1,9,2,1.93194,4.34645,1.17806,0.233069,-0.117755,0.238442,-0.167429,0.0317097,-0.171185,0.0164795,0.147268,5,0.1
0,2.1,-2.4175,1.6434,0.592061,0.446928,-0.146731,0.00811834,-0.120759,0.145391,-0.00802428,0.00953846,0.200928,5,0.1,1,2.1,0.27549,3.25297,0.603322,-0.658324,0.498857,-0.00306619,0.412786,-0.60147,0.00208244,0.0116922,0.443539,5,0.1,2,2.1,-4.48358,-3.49254,0.590024,-0.138022,-0.355939,-0.0304326,0.0704527,0.181928,0.0155792,0.00748391,0.0706156,5,0.1,3,2.1,-0.376523,3.91898,0.60919,0.784622,-0.20951,-0.00795154,-0.703409,0.506371,0.00513718,0.014331,2.58167,5,0.1,4,2.1,-4.65671,1.28587,0.960426,0.011304,0.0914738,0.151278,-0.0143051,-0.392124,-0.192441,0.0154607,0.255541,5,0.1,5,2.1,3.56596,-5.48716,0.611549,-0.355738,0.0799812,-0.0105997,-0.455514,-0.0519454,0.00689551,0.038183,1.59451,5,0.1,6,2.1,-0.406851,4.28233,0.601384,0.0614027,-0.664245,-0.00322983,-0.502501,0.131071,-0.00264496,0.00904406,2.63339,5,0.1,7,2.1,-2.1695,2.14801,0.568967,-0.327831,-0.0495989,-0.0377706,0.143304,0.0217408,0.0164844,0.00962845,0.0507082,5,0.1,8,2.1,3.5931,-0.60025,0.60196,-0.0957381,0.153706,-0.00200206,-0.532433,-0.152279,0.00197813,0.0106269,2.35332,5,0.1,9,2.1,1.95442,4.335,1.20106,0.216464,-0.109684,0.221463,-0.169478,0.122994,-0.173323,0.0164795,0.147268,5,0.1
0,2.2,-2.37348,1.62945,0.592833,0.432521,-0.132361,0.00732392,-0.182629,0.145197,-0.00798702,0.00939485,0.14174,5,0.1,1,2.2,0.211796,3.3,0.603026,-0.614398,0.443369,-0.00284761,0.48092,-0.509858,0.00235438,0.00969164,0.318209,5,0.1,2,2.2,-4.49702,-3.52721,0.58706,-0.130641,-0.336891,-0.028801,0.0817776,0.210762,0.0180006,0.00733219,0.0544731,5,0.1,3,2.2,-0.302006,3.9,0.608423,0.702123,-0.1755,-0.00737607,-0.920236,0.182867,0.00652671,0.00726284,0.298673,5,0.1,4,2.2,-4.65565,1.29318,0.974582,0.00984669,0.0559777,0.131735,-0.0145435,-0.314295,-0.198781,0.0127066,0.423407,5,0.1,5,2.2,3.52773,-5.47943,0.610524,-0.410956,0.074482,-0.00987053,-0.585675,-0.0600815,0.00795722,0.0356126,1.2742,5,0.1,6,2.2,-0.403188,4.21618,0.601051,0.0125416,-0.661111,-0.00338554,-0.461593,-0.0100136,-0.00038743,0.00968666,2.36962,5,0.1,7,2.2,-2.20154,2.14316,0.565275,-0.312513,-0.0472784,-0.0360087,0.174761,0.0264645,0.0201166,0.0151911,0.0227056,5,0.1,8,2.2,3.58093,-0.585632,0.60177,-0.146627,0.138654,-0.00180751,-0.474095,-0.152022,0.00199676,0.0162913,3.15968,5,0.1,9,2.2,1.97518,4.32475,1.2223,0.198385,-0.0944138,0.202972,-0.195146,0.177145,-0.199556,0.016918,0.329886,5,0.1
0,2.3,-2.33104,1.61689,0.593528,0.416655,-0.119128,0.00659553,-0.152394,0.12324,-0.00678375,0.00939485,0.14174,5,0.1,1,2.3,0.152624,3.34213,0.602752,-0.569936,0.402126,-0.00263043,0.426829,-0.338957,0.00207126,0.00969164,0.318209,5,0.1,2,2.3,-4.50973,-3.55999,0.584257,-0.123974,-0.319713,-0.0273334,0.0581443,0.149712,0.0127926,0.00733219,0.0544731,5,0.1,3,2.3,-0.236695,3.88266,0.607747,0.601574,-0.177054,-0.00589155,-1.07168,-0.167996,0.0214055,0.00726284,0.298673,5,0.1,4,2.3,-4.65474,1.29731,0.986791,0.00845045,0.0278248,0.112719,-0.0134706,-0.243075,-0.182614,0.0127066,0.423407,5,0.1,5,2.3,3.48325,-5.47227,0.609575,-0.481664,0.0689283,-0.00913497,-0.765264,-0.0532269,0.00704825,0.0356126,1.2742,5,0.1,6,2.3,-0.403659,4.1508,0.600715,-0.0167415,-0.639378,-0.003302,-0.147227,0.4206,0.00194088,0.00968666,2.36962,5,0.1,7,2.3,-2.23194,2.13856,0.561773,-0.295374,-0.044683,-0.0340358,0.176832,0.0267774,0.0203587,0.0151911,0.0227056,5,0.1,8,2.3,3.5645,-0.572478,0.601598,-0.177644,0.124798,-0.00162581,-0.210956,-0.129044,0.00169501,0.0162913,3.15968,5,0.1,9,2.3,1.99406,4.31625,1.24161,0.179255,-0.075119,0.183408,-0.190429,0.203043,-0.194773,0.016918,0.329886,5,0.1
0,2.4,-2.29021,1.60558,0.594154,0.399041,-0.107071,0.00592917,-0.211954,0.12064,-0.00661612,0.00944434,0.169192,5,0.1,1,2.4,0.0977987,3.38077,0.6025,-0.525907,0.371408,-0.00241846,0.46648,-0.293136,0.00220537,0.0125199,0.354891,5,0.1,2,2.4,-4.52183,-3.5912,0.581589,-0.117898,-0.304067,-0.0259966,0.0679493,0.175118,0.0149608,0.00707014,0.0245602,5,0.1,3,2.4,-0.182014,3.86385,0.607277,0.491279,-0.200975,-0.00341088,-1.11838,-0.275135,0.0268817,0.00594972,0.182758,5,0.1,4,2.4,-4.65396,1.29903,0.99717,0.00714064,0.00816584,0.0950381,-0.0128746,-0.147641,-0.171751,0.0120263,0.874365,5,0.1,5,2.4,3.43139,-5.46565,0.608697,-0.553083,0.063467,-0.00841171,-0.617266,-0.0576973,0.0076592,0.0408138,0.113395,5,0.1,6,2.4,-0.405709,4.08951,0.600397,-0.0211179,-0.581515,-0.00302047,0.04071,0.715494,0.00360608,0.00713352,1.48278,5,0.1,7,2.4,-2.26053,2.13423,0.558478,-0.275689,-0.0417054,-0.0317693,0.222564,0.0337362,0.02563,0.0170684,0.0135557,5,0.1,8,2.4,3.54572,-0.560632,0.601444,-0.198388,0.112171,-0.00146031,-0.234604,-0.126272,0.00163913,0.0139198,2.86872,5,0.1,9,2.4,2.01102,4.30976,1.25897,0.159818,-0.0548244,0.163522,-0.200272,0.198603,-0.204861,0.0179745,0.304324,5,0.1
0,2.5,-2.25103,1.59539,0.594719,0.387004,-0.0975849,0.00540894,-0.0594407,0.0754818,-0.00414252,0.00944434,0.169192,5,0.1,1,2.5,0.0471935,3.41643,0.60211,-0.488931,0.341576,-0.0067112,0.301699,-0.308603,-0.0780039,0.0125199,0.354891,5,0.1,2,2.5,-4.53329,-3.62075,0.579062,-0.111313,-0.287094,-0.0245461,0.067234,0.173271,0.0148043,0.00707014,0.0245602,5,0.1,3,2.5,-0.137806,3.84252,0.607077,0.398889,-0.223905,-0.000547059,-0.757504,-0.176087,0.0292733,0.00594972,0.182758,5,0.1,4,2.5,-4.65331,1.29911,1.00586,0.00594035,-0.00593774,0.0790467,-0.0111759,-0.105068,-0.149194,0.0120263,0.874365,5,0.1,5,2.5,3.37372,-5.45954,0.607888,-0.593182,0.0590652,-0.00782702,-0.189438,-0.0342727,0.0045523,0.0408138,0.113395,5,0.1,6,2.5,-0.407349,4.0355,0.600115,-0.009439,-0.494004,-0.00261962,0.175541,0.988707,0.00432879,0.00713352,1.48278,5,0.1,7,2.5,-2.28701,2.13023,0.555427,-0.25399,-0.0384174,-0.0292704,0.218317,0.0330508,0.0251457,0.0170684,0.0135557,5,0.1,8,2.5,3.52477,-0.550004,0.601305,-0.222988,0.100731,-0.00131177,-0.361413,-0.105843,0.00137463,0.0139198,2.86872,5,0.1,9,2.5,2.02601,4.30529,1.2743,0.139884,-0.034681,0.143131,-0.198901,0.194788,-0.20349,0.0179745,0.304324,5,0.1
0,2.6,-2.21258,1.58598,0.595241,0.381845,-0.0908524,0.00503808,-0.0661612,0.0638366,-0.00351667,0.00816995,0.101208,5,0.1,1,2.6,-0.00027062,3.44899,0.600985,-0.460601,0.308883,-0.0162303,0.285913,-0.34821,-0.104576,0.00910915,1.00809,5,0.1,2,2.6,-4.54407,-3.64854,0.576686,-0.103879,-0.267947,-0.022909,0.0836849,0.21565,0.0184476,0.00897154,0.0148337,5,0.1,3,2.6,-0.101298,3.81947,0.607165,0.334758,-0.235033,0.00224859,-0.547212,-0.0424385,0.0258088,0.00675696,0.20445,5,0.1,4,2.6,-4.65277,1.29823,1.01304,0.00488758,-0.00877678,0.0650078,-0.0100136,0.059545,-0.132382,0.0130512,1.41722,5,0.1,5,2.6,3.31412,-5.45379,0.607126,-0.592196,0.0559449,-0.00741184,0.201583,-0.0309944,0.00411272,0.0341105,0.0861768,5,0.1,6,2.6,-0.40731,3.99119,0.599875,0.0109091,-0.391692,-0.00216961,0.217974,1.0246,0.00464916,0.00998219,0.817563,5,0.1,7,2.6,-2.31128,2.12656,0.55263,-0.23092,-0.0349283,-0.0266135,0.247121,0.0375509,0.0284612,0.0133472,0.00426235,5,0.1,8,2.6,3.5,-0.540448,0.601181,-0.278807,0.0904381,-0.00117868,-0.732183,-0.102431,0.0013411,0.00659347,2.44737,5,0.1,9,2.6,2.039,4.30273,1.2876,0.119972,-0.0173807,0.122762,-0.199318,0.145435,-0.204027,0.015088,0.476228,5,0.1
0,2.7,-2.17462,1.57717,0.595729,0.377828,-0.0855669,0.0047463,-0.0341535,0.046134,-0.00255182,0.00816995,0.101208,5,0.1,1,2.7,-0.045296,3.47833,0.598933,-0.442967,0.279537,-0.0239193,0.101342,-0.252694,-0.0512935,0.00910915,1.00809,5,0.1,2,2.7,-4.55405,-3.67429,0.574485,-0.0957608,-0.247025,-0.0211193,0.0814199,0.209779,0.0179447,0.00897154,0.0148337,5,0.1,3,2.7,-0.0703878,3.79577,0.607514,0.285246,-0.238446,0.00465252,-0.439877,-0.0162721,0.0217333,0.00675696,0.20445,5,0.1,4,2.7,-4.65232,1.29778,1.01892,0.00397339,0.00313614,0.0529235,-0.00831485,0.253148,-0.110351,0.0130512,1.41722,5,0.1,5,2.7,3.256,-5.44833,0.606403,-0.569121,0.0533722,-0.0070706,0.27211,-0.0230372,0.00305474,0.0341105,0.0861768,5,0.1,6,2.7,-0.405035,3.9571,0.599681,0.0351849,-0.291475,-0.00170795,0.254551,0.940084,0.00453368,0.00998219,0.817563,5,0.1,7,2.7,-2.33314,2.12325,0.550111,-0.206136,-0.0311673,-0.0237587,0.250787,0.0380278,0.0288896,0.0133472,0.00426235,5,0.1,8,2.7,3.46747,-0.531881,0.601069,-0.379192,0.0812023,-0.00105789,-1.17977,-0.0850447,0.00111386,0.00659347,2.44737,5,0.1,9,2.7,2.05003,4.30172,1.29888,0.10099,-0.00338107,0.103332,-0.181064,0.112116,-0.185326,0.015088,0.476228,5,0.1
0,2.8,-2.13709,1.56884,0.596191,0.371629,-0.0808954,0.00448674,-0.103831,0.0502467,-0.00280142,0.0101424,0.167913,5,0.1,1,2.8,-0.0891577,3.50509,0.596358,-0.434325,0.255913,-0.0268936,0.0969958,-0.229955,-0.010103,0.00929302,0.706239,5,0.1,2,2.8,-4.5632,-3.6979,0.572466,-0.0871778,-0.224876,-0.0192255,0.0925064,0.237584,0.0203252,0.0084507,0.00471192,5,0.1,3,2.8,-0.0438736,3.77195,0.608078,0.246889,-0.236708,0.00650585,-0.329352,0.0574589,0.0149906,0.00698688,0.588358,5,0.1,4,2.8,-4.65197,1.3,1.02369,0.00320673,0.0474453,0.0427514,-0.00715256,0.614583,-0.0938773,0.0124265,2.86524,5,0.1,5,2.8,3.20064,-5.44311,0.605712,-0.535828,0.0509143,-0.00674278,0.400901,-0.0283718,0.00369549,0.0414082,0.129433,5,0.1,6,2.8,-0.400272,3.93227,0.599533,0.0595622,-0.209481,-0.00127256,0.223443,0.68152,0.00417233,0.0129013,0.758926,5,0.1,7,2.8,-2.35248,2.12033,0.547881,-0.180429,-0.0272691,-0.0207976,0.264168,0.0398159,0.030458,0.0109366,0.00130636,5,0.1,8,2.8,3.42356,-0.524175,0.600969,-0.498027,0.0729561,-0.000950694,-1.12534,-0.0818074,0.00107288,0.00641394,1.94706,5,0.1,9,2.8,2.05925,4.30175,1.30832,0.0836372,0.00190735,0.0855684,-0.166655,-0.0152588,-0.170529,0.0167186,1.20677,5,0.1
0,2.9,-2.10016,1.56099,0.596627,0.369202,-0.0762887,0.00422969,0.0249743,0.0446439,-0.00249594,0.0101424,0.167913,5,0.1,1,2.9,-0.13177,3.52959,0.593663,-0.414736,0.234538,-0.0266056,0.288029,-0.204548,0.0144355,0.00929302,0.706239,5,0.1,2,2.9,-4.57146,-3.7192,0.570645,-0.0779182,-0.201068,-0.0171888,0.0935793,0.240907,0.0206046,0.0084507,0.00471192,5,0.1,3,2.9,-0.0208767,3.74988,0.608819,0.212671,-0.193544,0.00844207,-0.351963,0.730306,0.0219867,0.00698688,0.588358,5,0.1,4,2.9,-4.65137,1.30923,1.02753,0.011456,0.1485,0.0343284,0.152349,1.29672,-0.0754967,0.0124265,2.86524,5,0.1,5,2.9,3.14882,-5.43816,0.605055,-0.502447,0.0482529,-0.00639502,0.291556,-0.0265241,0.00347197,0.0414082,0.129433,5,0.1,6,2.9,-0.393283,3.91424,0.59943,0.0792716,-0.156285,-0.000748318,0.166886,0.375926,0.00599399,0.0129013,0.758926,5,0.1,7,2.9,-2.36921,2.1178,0.545953,-0.154294,-0.0233285,-0.0177846,0.258505,0.0390112,0.0297986,0.0109366,0.00130636,5,0.1,8,2.9,3.36784,-0.517259,0.600879,-0.617633,0.0656061,-0.000854395,-1.19381,-0.0674799,0.000879169,0.00641394,1.94706,5,0.1,9,2.9,2.06682,4.30181,1.31606,0.0681762,-0.00340417,0.0697482,-0.143424,-0.170976,-0.146732,0.0167186,1.20677,5,0.1
0,3,-2.0631,1.55359,0.597037,0.371391,-0.0715047,0.00396222,-0.00321865,0.0529885,-0.00292063,0.00881799,0.142362,5,0.1,1,3,-0.171536,3.55201,0.591105,-0.378094,0.213826,-0.0242725,0.437841,-0.214577,0.0309348,0.00868231,0.536373,5,0.1,2,3,-4.57878,-3.73809,0.569031,-0.0683188,-0.176346,-0.0150755,0.0989437,0.254512,0.0217855,0.0113548,0.00142794,5,0.1,3,3,-0.00138502,3.73477,0.609773,0.177075,-0.104153,0.0106007,-0.357224,0.99802,0.0198781,0.0115582,1.08594,5,0.1,4,3,-4.64933,1.33095,1.03061,0.0301361,0.287428,0.0274837,0.206232,1.39797,-0.0621676,0.010508,2.79052,5,0.1,5,3,3.10002,-5.43347,0.604434,-0.473249,0.0453472,-0.00601113,0.309944,-0.0331402,0.00432134,0.0360545,0.0710931,5,0.1,6,3,-0.38464,3.9,0.599386,0.0923291,-0.133103,-0.00013113,0.0920445,0.106096,0.00613928,0.0088796,0.725861,5,0.1,7,3,-2.38335,2.11566,0.544322,-0.128758,-0.0194788,-0.0148416,0.251532,0.0380278,0.0290275,0.00986071,0.000743445,5,0.1,8,3,3.30048,-0.511028,0.600798,-0.72428,0.0590667,-0.0007689,-0.887036,-0.0649393,0.000834465,0.00649258,1.47274,5,0.1,9,3,2.07296,4.3,1.32234,0.0548124,-0.038898,0.0560671,-0.124812,-0.524998,-0.127435,0.019245,2.51248,5,0.1
0,3.1,-2.02594,1.54672,0.597418,0.371923,-0.0658702,0.00365106,-0.00359118,0.0602603,-0.00333413,0.00881799,0.142362,5,0.1,1,3.1,-0.206871,3.57219,0.588841,-0.32617,0.188382,-0.0209271,0.584386,-0.287548,0.0354461,0.00868231,0.536373,5,0.1,2,3.1,-4.58512,-3.75446,0.567632,-0.0585325,-0.15115,-0.0129195,0.0967681,0.24946,0.0213459,0.0113548,0.00142794,5,0.1,3,3.1,0.0156336,3.72832,0.610892,0.172597,-0.0342026,0.0114184,0.202267,0.439554,-0.00201166,0.0115582,1.08594,5,0.1,4,3.1,-4.64519,1.3673,1.03307,0.0533298,0.443588,0.0219619,0.244021,1.63167,-0.0489727,0.010508,2.79052,5,0.1,5,3.1,3.05414,-5.4291,0.603854,-0.44493,0.0421144,-0.00558794,0.272527,-0.0325739,0.00428408,0.0360545,0.0710931,5,0.1,6,3.1,-0.375058,3.88718,0.599416,0.0982348,-0.12356,0.000835024,0.0265371,0.0893176,0.0122041,0.0088796,0.725861,5,0.1,7,3.1,-2.395,2.1139,0.54298,-0.10443,-0.0158016,-0.0120349,0.234216,0.0354201,0.0270158,0.00986071,0.000743445,5,0.1,8,3.1,3.22389,-0.505422,0.600725,-0.80398,0.0532462,-0.000693928,-0.668824,-0.0533648,0.000689179,0.00649258,1.47274,5,0.1,9,3.1,2.07785,4.2921,1.32735,0.0434656,-0.13032,0.0444787,-0.102922,-1.19838,-0.105165,0.019245,2.51248,5,0.1
0,3.2,-1.98888,1.54045,0.597765,0.367728,-0.0593692,0.00329167,-0.0923276,0.0699759,-0.0039041,0.0129714,0.169239,5,0.1,1,3.2,-0.236437,3.58951,0.58693,-0.264175,0.157565,-0.0172809,0.642166,-0.323176,0.0369549,0.00997125,0.540901,5,0.1,2,3.2,-4.59049,-3.76833,0.566446,-0.0489593,-0.126481,-0.0108093,0.0944138,0.243902,0.0208616,0.00711511,0.000778116,5,0.1,3,3.2,0.0343842,3.72644,0.611998,0.205902,-0.00920892,0.0104755,0.412948,0.0921488,-0.0155568,0.0116126,0.907182,5,0.1,4,3.2,-4.63866,1.41957,1.03504,0.07658,0.597575,0.0175625,0.210762,1.37955,-0.0395179,0.0110705,0.238334,5,0.1,5,3.2,3.01106,-5.42506,0.603317,-0.416023,0.0386596,-0.00513345,0.31662,-0.0369549,0.00491738,0.0333716,0.0515096,5,0.1,6,3.2,-0.365206,3.87527,0.599564,0.0977807,-0.114459,0.00213832,-0.0346452,0.0959635,0.013113,0.00790382,0.721564,5,0.1,7,3.2,-2.40431,2.11249,0.541908,-0.0820577,-0.0124156,-0.00945479,0.212431,0.0320673,0.0244677,0.0116232,0.000664805,5,0.1,8,3.2,3.14075,-0.500357,0.600659,-0.852221,0.0480689,-0.000627339,-0.276089,-0.0515878,0.000655651,0.00947747,1.08472,5,0.1,9,3.2,2.08172,4.27268,1.3313,0.034076,-0.260031,0.0348836,-0.0855923,-1.31559,-0.0873804,0.0190545,2.83913,5,0.1
0,3.3,-1.95228,1.53484,0.598076,0.366488,-0.0529198,0.0029319,0.0369474,0.0604913,-0.00337884,0.0129714,0.169239,5,0.1,1,3.3,-0.259278,3.60277,0.585352,-0.189825,0.100264,-0.0145726,0.812545,-0.763118,0.0189543,0.00997125,0.540901,5,0.1,2,3.3,-4.59492,-3.77979,0.565467,-0.0398234,-0.102874,-0.00879047,0.0879765,0.227496,0.0194497,0.00711511,0.000778116,5,0.1,3,3.3,0.0568382,3.72548,0.612951,0.240976,-0.0142153,0.00844989,0.28104,-0.163242,-0.0238568,0.0116126,0.907182,5,0.1,4,3.3,-4.63023,1.4849,1.03662,0.0895165,0.696044,0.0141501,0.0560582,0.607885,-0.0293851,0.0110705,0.238334,5,0.1,5,3.3,2.97089,-5.42137,0.602827,-0.38828,0.0352405,-0.00467813,0.255153,-0.0325143,0.00433251,0.0333716,0.0515096,5,0.1,6,3.3,-0.355618,3.86441,0.599854,0.0937665,-0.101926,0.0037306,-0.0474267,0.149921,0.0175945,0.00790382,0.721564,5,0.1,7,3.3,-2.41149,2.1114,0.54108,-0.0620157,-0.00938997,-0.00714622,0.187635,0.028342,0.0216067,0.0116232,0.000664805,5,0.1,8,3.3,3.05469,-0.495789,0.600599,-0.864817,0.0434517,-0.000568572,-0.0206828,-0.0423249,0.000540167,0.00947747,1.08472,5,0.1,9,3.3,2.08472,4.23935,1.33438,0.0263937,-0.411477,0.0270383,-0.0686646,-1.61573,-0.070177,0.0190545,2.83913,5,0.1
0,3.4,-1.91544,1.52984,0.598353,0.369832,-0.0470191,0.00260323,0.00756979,0.058651,-0.00327826,0.00833686,0.101764,5,0.1,1,3.4,-0.274137,3.60866,0.583971,-0.107376,0.015533,-0.0131786,0.811622,-0.884891,0.010252,0.00544032,0.344973,5,0.1,2,3.4,-4.59848,-3.78897,0.564682,-0.0313997,-0.0811219,-0.00693053,0.0798702,0.207067,0.0176728,0.0105036,0.000690475,5,0.1,3,3.4,0.0820735,3.72302,0.613671,0.260943,-0.0366867,0.00590235,0.114128,-0.263333,-0.026226,0.0119553,0.841845,5,0.1,4,3.4,-4.6212,1.5564,1.0379,0.0892997,0.722939,0.0115633,-0.0531673,-0.0503063,-0.0228286,0.0105138,0.270873,5,0.1,5,3.4,2.93335,-5.418,0.602381,-0.362128,0.03196,-0.00424087,0.279784,-0.033617,0.00450015,0.0372366,0.0881537,5,0.1,6,3.4,-0.346511,3.85502,0.600315,0.0880122,-0.0853539,0.0054583,-0.0686795,0.177503,0.0161529,0.00729283,0.668036,5,0.1,7,3.4,-2.4168,2.1106,0.540468,-0.0446558,-0.00676513,-0.00514686,0.158906,0.0240803,0.0183284,0.0110923,0.000511817,5,0.1,8,3.4,2.96831,-0.491651,0.600545,-0.860494,0.0393346,-0.00051558,0.110507,-0.0411421,0.000536442,0.0104868,0.78548,5,0.1,9,3.4,2.08704,4.19029,1.33676,0.0202239,-0.566232,0.0207305,-0.0551939,-1.4081,-0.0564456,0.021008,0.76139,5,0.1
0,3.5,-1.87834,1.52542,0.598597,0.372268,-0.0415482,0.00229776,0.0213757,0.0517517,-0.00289083,0.00833686,0.101764,5,0.1,1,3.5,-0.280999,3.60557,0.582662,-0.0319272,-0.0783697,-0.0133519,0.688331,-0.952929,-0.0108071,0.00544032,0.344973,5,0.1,2,3.5,-4.60123,-3.79609,0.564074,-0.0238538,-0.0615682,-0.00526132,0.0707507,0.183269,0.0156499,0.0105036,0.000690475,5,0.1,3,3.5,0.108205,3.71783,0.614126,0.257042,-0.0683311,0.00318494,-0.165112,-0.347719,-0.0273138,0.0119553,0.841845,5,0.1,4,3.5,-4.61266,1.62829,1.03895,0.0804454,0.713034,0.00963416,-0.118077,-0.165872,-0.0162944,0.0105138,0.270873,5,0.1,5,3.5,2.89828,-5.41498,0.60198,-0.34126,0.0286013,-0.00379169,0.15983,-0.0338554,0.00451878,0.0372366,0.0881537,5,0.1,6,3.5,-0.337927,3.84711,0.600921,0.0846737,-0.0751801,0.00648377,-0.00743568,0.0406802,0.00492111,0.00729283,0.668036,5,0.1,7,3.5,-2.42051,2.11004,0.54004,-0.0300668,-0.00455454,-0.00346461,0.132442,0.020057,0.01527,0.0110923,0.000511817,5,0.1,8,3.5,2.88263,-0.487907,0.600496,-0.854039,0.0356538,-0.000467524,0.0616014,-0.0337716,0.000439584,0.0104868,0.78548,5,0.1,9,3.5,2.08881,4.12724,1.33857,0.0154074,-0.68784,0.0158021,-0.041768,-0.997454,-0.0427589,0.021008,0.76139,5,0.1
0,3.6,-1.84112,1.52152,0.598813,0.370762,-0.0365049,0.00201762,-0.0652671,0.0498891,-0.00280142,0.00789005,0.0786361,5,0.1,1,3.6,-0.281014,3.59313,0.581258,0.0288203,-0.168097,-0.0148267,0.52093,-0.812411,-0.0164509,0.00490726,0.244897,5,0.1,2,3.6,-4.60328,-3.80137,0.563623,-0.0172973,-0.0445962,-0.00381172,0.0603199,0.155926,0.0132918,0.00847481,0.000538694,5,0.1,3,3.6,0.132803,3.70927,0.614312,0.232631,-0.102425,0.000579655,-0.30306,-0.317812,-0.0241995,0.0147987,0.772488,5,0.1,4,3.6,-4.60527,1.69846,1.03984,0.0667453,0.686863,0.00820756,-0.151157,-0.368536,-0.0126362,0.0109405,0.896757,5,0.1,5,3.6,2.86491,-5.41229,0.601623,-0.326306,0.0251532,-0.0033319,0.155568,-0.0355244,0.00473857,0.0333255,0.165644,5,0.1,6,3.6,-0.329459,3.83967,0.601579,0.0848874,-0.0746012,0.00654608,0.00467896,-0.0175238,-0.00312924,0.0120933,0.918894,5,0.1,7,3.6,-2.4229,2.10967,0.539764,-0.0182331,-0.00276566,-0.00209957,0.104308,0.015974,0.0119805,0.0144197,0.000300904,5,0.1,8,3.6,2.79774,-0.484507,0.600451,-0.840896,0.0323579,-0.000424683,0.231147,-0.0330806,0.000447035,0.00695358,1.0258,5,0.1,9,3.6,2.09016,4.05432,1.33996,0.011754,-0.761557,0.012058,-0.0319481,-0.461698,-0.0326037,0.0138872,0.219,5,0.1
0,3.7,-1.80426,1.5181,0.599002,0.366926,-0.0319941,0.00176476,-0.03203,0.0413731,-0.00231341,0.00789005,0.0786361,5,0.1,1,3.7,-0.275817,3.57231,0.579659,0.0722606,-0.24704,-0.0174081,0.349069,-0.737995,-0.0319183,0.00490726,0.244897,5,0.1,2,3.7,-4.60473,-3.80509,0.563304,-0.0117518,-0.0302672,-0.00258982,0.0503957,0.130236,0.0111088,0.00847481,0.000538694,5,0.1,3,3.7,0.15429,3.6974,0.614251,0.195601,-0.135125,-0.00176951,-0.396142,-0.3196,-0.0221878,0.0147987,0.772488,5,0.1,4,3.7,-4.59923,1.76591,1.04061,0.0551365,0.667083,0.00716485,-0.0867546,-0.0821427,-0.00865757,0.0109405,0.896757,5,0.1,5,3.7,2.83268,-5.40995,0.601313,-0.321197,0.0217132,-0.00287369,-0.0211298,-0.0334084,0.004448,0.0333255,0.165644,5,0.1,6,3.7,-0.320888,3.83222,0.602209,0.0869383,-0.0735164,0.00597313,0.0290871,0.035584,-0.00792742,0.0120933,0.918894,5,0.1,7,3.7,-2.42425,2.10947,0.53961,-0.0089813,-0.00135079,-0.00103666,0.0806898,0.0123084,0.00927225,0.0144197,0.000300904,5,0.1,8,3.7,2.71436,-0.481424,0.600411,-0.829642,0.0293972,-0.000384729,0.0483543,-0.0272077,0.000368804,0.00695358,1.0258,5,0.1,9,3.7,2.0912,3.97653,1.34102,0.00903271,-0.78756,0.00927877,-0.0229925,-0.0561476,-0.0235066,0.0138872,0.219,5,0.1
0,3.8,-1.76781,1.5151,0.599167,0.360882,-0.0280499,0.00154525,-0.102997,0.0382066,-0.00214577,0.0102097,0.108438,5,0.1,1,3.8,-0.26712,3.54423,0.577755,0.0989757,-0.310904,-0.0206411,0.187457,-0.519514,-0.0302792,0.00534584,0.186315,5,0.1,2,3.8,-4.60567,-3.80751,0.563097,-0.007236,-0.0186026,-0.00159293,0.0398159,0.102758,0.00873208,0.00931258,0.00031922,5,0.1,3,3.8,0.171973,3.68239,0.61397,0.159673,-0.163507,-0.00375807,-0.30113,-0.236273,-0.0171065,0.0149895,0.693015,5,0.1,4,3.8,-4.59408,1.83231,1.04128,0.0483632,0.660869,0.00640452,-0.0529289,-0.0827312,-0.00697374,0.00919677,0.95822,5,0.1,5,3.8,2.80038,-5.40794,0.601048,-0.324917,0.0184417,-0.00243932,-0.0294447,-0.0319481,0.00429153,0.0343918,0.102633,5,0.1,6,3.8,-0.312057,3.82511,0.602762,0.0894539,-0.06814,0.0050351,0.0159889,0.0691414,-0.0105202,0.0105842,1.20876,5,0.1,7,3.8,-2.42478,2.10939,0.539548,-0.00208616,-0.000303984,-0.000244379,0.0573397,0.00882149,0.00661612,0.0142976,0.000132798,5,0.1,8,3.8,2.6317,-0.478618,0.600374,-0.821877,0.0267334,-0.000350177,0.146151,-0.0268519,0.00038743,0.0136655,0.752315,5,0.1,9,3.8,2.092,3.89817,1.34184,0.00706315,-0.772834,0.00725985,-0.0168085,0.347972,-0.0172853,0.0126735,1.18693,5,0.1
0,3.9,-1.73206,1.51248,0.599311,0.355451,-0.0243973,0.00134101,-0.028573,0.0351816,-0.00196323,0.0102097,0.108438,5,0.1,1,3.9,-0.256474,3.51063,0.575521,0.112133,-0.359806,-0.0241512,0.07788,-0.435174,-0.0369772,0.00534584,0.186315,5,0.1,2,3.9,-4.60621,-3.8089,0.562978,-0.00369772,-0.00947192,-0.000816304,0.0309646,0.0798106,0.00679865,0.00931258,0.00031922,5,0.1,3,3.9,0.186598,3.66488,0.613512,0.135756,-0.186393,-0.00535464,-0.130614,-0.208586,-0.0143684,0.0149895,0.693015,5,0.1,4,3.9,-4.58929,1.89845,1.04189,0.049369,0.665125,0.0058407,0.0587106,0.114761,-0.00464171,0.00919677,0.95822,5,0.1,5,3.9,2.76763,-5.40625,0.600824,-0.330669,0.0154108,-0.00203326,-0.0644773,-0.028789,0.0038445,0.0343918,0.102633,5,0.1,6,3.9,-0.303006,3.81882,0.60321,0.0916818,-0.0563052,0.00391155,0.0228789,0.147924,-0.0116602,0.0105842,1.20876,5,0.1,7,3.9,-2.42473,2.1094,0.539553,0.00272989,0.000434741,0.000311434,0.0392199,0.00597537,0.0045225,0.0142976,0.000132798,5,0.1,8,3.9,2.55001,-0.476069,0.600341,-0.813191,0.0243281,-0.000315811,0.0707209,-0.0221375,0.00031665,0.0136655,0.752315,5,0.1,9,3.9,2.09263,3.82195,1.34249,0.00567734,-0.756814,0.00583343,-0.0113249,0.0355691,-0.0116527,0.0126735,1.18693,5,0.1
0,4,-1.69668,1.51022,0.599436,0.351232,-0.02096,0.00115037,-0.0722408,0.0337958,-0.00187755,0.0084267,0.182766,5,0.1,1,4,-0.245036,3.47277,0.57293,0.115026,-0.394046,-0.0275299,-0.0174642,-0.234246,-0.0284612,0.00655208,0.157729,5,0.1,2,4,-4.60644,-3.80948,0.562927,-0.00104904,-0.00263453,-0.000232458,0.0221729,0.0571012,0.00485778,0.00990193,0.000142876,5,0.1,3,4,0.2,3.64533,0.612912,0.136917,-0.203055,-0.00655651,0.140913,-0.11611,-0.00932813,0.0100013,0.60255,5,0.1,4,4,-4.58397,1.96551,1.04246,0.0575662,0.674659,0.00541508,0.0941753,0.0374317,-0.00405312,0.00990526,2.32443,5,0.1,5,4,2.73432,-5.40485,0.60064,-0.334221,0.0126719,-0.00166893,0.00834465,-0.026226,0.00351667,0.0384141,0.0826859,5,0.1,6,4,-0.293751,3.81393,0.603543,0.0930615,-0.0417709,0.00275224,0.000715256,0.130296,-0.0112951,0.00695568,2.3163,5,0.1,7,4,-2.42429,2.10947,0.539604,0.00581741,0.000905991,0.000667572,0.0226498,0.00333786,0.0026226,0.0111036,4.38304e-05,5,0.1,8,4,2.46921,-0.473745,0.600311,-0.800389,0.0221543,-0.000286102,0.21565,-0.0219792,0.000298023,0.010187,2.35689,5,0.1,9,4,2.09315,3.74636,1.34302,0.00473261,-0.754762,0.00484884,-0.00822544,0.0519753,-0.00822544,0.0158572,0.186172,5,0.1
0,4.1,-1.6616,1.50828,0.599542,0.352836,-0.0177721,0.000973977,0.0719279,0.0301823,-0.00166893,0.0084267,0.182766,5,0.1,1,4.1,-0.233692,3.4322,0.570027,0.111167,-0.416639,-0.0305515,-0.0593364,-0.195026,-0.0294819,0.00655208,0.157729,5,0.1,2,4.1,-4.60644,-3.80949,0.562926,0.000821054,0.00217967,0.000177976,0.0153184,0.0393838,0.00336394,0.00990193,0.000142876,5,0.1,3,4.1,0.214481,3.62446,0.612213,0.153239,-0.213712,-0.00739107,0.173813,-0.086844,-0.00699982,0.0100013,0.60255,5,0.1,4,4.1,-4.57765,2.03416,1.04298,0.0694305,0.706039,0.00508856,0.132203,0.49907,-0.00274926,0.00990526,2.32443,5,0.1,5,4.1,2.70082,-5.4037,0.600489,-0.33647,0.0102483,-0.00134511,-0.0315458,-0.0223815,0.00297651,0.0384141,0.0826859,5,0.1,6,4.1,-0.284428,3.81059,0.603762,0.093393,-0.0247497,0.00164229,0.00138395,0.154123,-0.010699,0.00695568,2.3163,5,0.1,7,4.1,-2.42362,2.10957,0.539681,0.00746846,0.00114702,0.000858866,0.0107586,0.00153482,0.0012517,0.0111036,4.38304e-05,5,0.1,8,4.1,2.38927,-0.471562,0.600275,-0.805948,0.0221524,-0.000498164,-0.239715,0.0168364,-0.00399724,0.010187,2.35689,5,0.1,9,4.1,2.09358,3.67143,1.34347,0.00408702,-0.740481,0.00420213,-0.00502169,0.243634,-0.00503659,0.0158572,0.186172,5,0.1
0,4.2,-1.62594,1.50665,0.599631,0.360003,-0.0148863,0.000815094,0.0477433,0.0277758,-0.00151992,0.008717,0.111537,5,0.1,1,4.2,-0.222937,3.38978,0.566839,0.103276,-0.429267,-0.0330016,-0.0977144,-0.0425577,-0.0177622,0.0140011,0.875078,5,0.1,2,4.2,-4.60629,-3.8091,0.562958,0.00203848,0.00529885,0.000444055,0.00882149,0.0232458,0.00202656,0.00661451,4.79178e-05,5,0.1,3,4.2,0.230647,3.60277,0.611445,0.16958,-0.218725,-0.00789762,0.143714,-0.00667572,-0.00292063,0.010465,0.539853,5,0.1,4,4.2,-4.57006,2.1074,1.04348,0.0821114,0.758582,0.00481904,0.113487,0.48399,-0.00292063,0.0102674,1.95456,5,0.1,5,4.2,2.66709,-5.40279,0.600369,-0.336844,0.00816584,-0.0010699,0.0393391,-0.0193119,0.002563,0.0324887,0.153953,5,0.1,6,4.2,-0.275111,3.80859,0.603875,0.0925742,-0.018996,0.000648201,-0.0208616,-0.0635386,-0.00905991,0.00696822,3.56145,5,0.1,7,4.2,-2.42283,2.10969,0.539771,0.00804067,0.00122786,0.000925362,0.00119209,0,0.000149012,0.00755154,1.35316e-05,5,0.1,8,4.2,2.30732,-0.469233,0.600202,-0.833154,0.0246182,-0.000989437,-0.239611,0.0285506,-0.00542402,0.00789235,2.6309,5,0.1,9,4.2,2.09397,3.59898,1.34387,0.00367165,-0.704575,0.00378191,-0.00357628,0.478864,-0.00357628,0.013391,1.26461,5,0.1
0,4.3,-1.58962,1.5053,0.599705,0.366605,-0.0123009,0.000673905,0.0632778,0.0240952,-0.0013113,0.008717,0.111537,5,0.1,1,4.3,-0.213416,3.34799,0.56386,0.0844519,-0.394664,-0.0231105,-0.259867,0.667766,0.191625,0.0140011,0.875078,5,0.1,2,4.3,-4.60605,-3.80848,0.563011,0.0026904,0.0070177,0.000594743,0.00438094,0.0115037,0.00102073,0.00661451,4.79178e-05,5,0.1,3,4.3,0.248017,3.58088,0.610643,0.175467,-0.218857,-0.00812802,0.000616536,0.0122935,-0.00139326,0.010465,0.539853,5,0.1,4,4.3,-4.56125,2.18473,1.04394,0.0940286,0.779121,0.00457671,0.116497,-0.0492632,-0.00213832,0.0102674,1.95456,5,0.1,5,4.3,2.63348,-5.40206,0.600274,-0.336137,0.00638217,-0.000833627,-0.00506639,-0.0164509,0.00216439,0.0324887,0.153953,5,0.1,6,4.3,-0.265949,3.80619,0.603897,0.0906568,-0.0339981,-0.00020517,-0.0210982,-0.357047,-0.00785664,0.00696822,3.56145,5,0.1,7,4.3,-2.42203,2.10982,0.539863,0.00781566,0.00117831,0.000900403,-0.00530481,-0.000938773,-0.000603497,0.00755154,1.35316e-05,5,0.1,8,4.3,2.22401,-0.46659,0.600072,-0.821884,0.0285153,-0.00162823,0.427648,0.045117,-0.00691786,0.00789235,2.6309,5,0.1,9,4.3,2.09432,3.53004,1.34423,0.00341162,-0.681223,0.00352059,-0.00187755,0.0570267,-0.0019148,0.013391,1.26461,5,0.1
0,4.4,-1.55276,1.50418,0.599766,0.369105,-0.0100404,0.000551343,-0.0280142,0.0212789,-0.00119209,0.0151751,0.0619445,5,0.1,1,4.4,-0.206409,3.31258,0.562689,0.054688,-0.307804,0.00104457,-0.320464,1.01566,0.272661,0.015815,0.596029,5,0.1,2,4.4,-4.60577,-3.80774,0.563074,0.00294447,0.00766516,0.000654161,0.000476837,0.00202656,0.000178814,0.006753,1.46156e-05,5,0.1,3,4.4,0.265494,3.55914,0.609827,0.173708,-0.214893,-0.00812858,-0.0223666,0.0722408,0.00151992,0.0108455,0.472388,5,0.1,4,4.4,-4.55132,2.26168,1.04439,0.103974,0.753129,0.00435114,0.0765324,-0.450373,-0.00244379,0.0103675,1.72393,5,0.1,5,4.4,2.5999,-5.4015,0.600201,-0.334424,0.00487566,-0.000634789,0.0536442,-0.0138283,0.00181794,0.0339055,0.192759,5,0.1,6,4.4,-0.257014,3.8,0.60384,0.0877492,-0.0996351,-0.00089854,-0.0395179,-0.927448,-0.00593066,0.00764411,3.23119,5,0.1,7,4.4,-2.42129,2.10993,0.539949,0.00705719,0.001055,0.000813603,-0.00965595,-0.00154972,-0.00113249,0.0078113,8.03201e-06,5,0.1,8,4.4,2.1448,-0.463515,0.599875,-0.754637,0.0328988,-0.00229776,0.884652,0.0393987,-0.00616908,0.0124852,3.04525,5,0.1,9,4.4,2.09466,3.46197,1.34458,0.00325441,-0.681138,0.00335574,-0.00154972,-0.00393391,-0.00154972,0.0184253,1.2602,5,0.1
0,4.5,-1.516,1.50328,0.599816,0.365551,-0.00808556,0.000442471,-0.0562146,0.0179484,-0.000994653,0.0151751,0.0619445,5,0.1,1,4.5,-0.202487,3.2872,0.564465,0.0244067,-0.197457,0.0368532,-0.281067,1.15204,0.415698,0.015815,0.596029,5,0.1,2,4.5,-4.60548,-3.80697,0.563139,0.00286624,0.00752322,0.000642613,-0.00187755,-0.00448525,-0.000372529,0.006753,1.46156e-05,5,0.1,3,4.5,0.282676,3.53801,0.609023,0.170466,-0.207698,-0.00795256,0.0041835,0.0784695,0.00224262,0.0108455,0.472388,5,0.1,4,4.5,-4.54054,2.33383,1.04482,0.111498,0.682831,0.0041388,0.0674129,-0.87212,-0.00196695,0.0103675,1.72393,5,0.1,5,4.5,2.56639,-5.40108,0.600146,-0.338534,0.00362992,-0.000471715,-0.102103,-0.0111461,0.00145659,0.0339055,0.192759,5,0.1,6,4.5,-0.248647,3.78506,0.603705,0.0777682,-0.201109,-0.00192421,-0.149135,-1.04852,-0.0133924,0.00764411,3.23119,5,0.1,7,4.5,-2.42063,2.11002,0.540025,0.00595599,0.000881031,0.000684988,-0.0120401,-0.00186265,-0.00139698,0.0078113,8.03201e-06,5,0.1,8,4.5,2.07462,-0.460009,0.599613,-0.642274,0.0373165,-0.00294382,1.29518,0.0452362,-0.00639632,0.0124852,3.04525,5,0.1,9,4.5,2.09498,3.39327,1.34491,0.00315122,-0.697089,0.00325106,-0.000700355,-0.251606,-0.000745058,0.0184253,1.2602,5,0.1
0,4.6,-1.47986,1.50255,0.599855,0.355685,-0.00642836,0.000351667,-0.149786,0.0151992,-0.000864267,0.00886349,0.0430856,5,0.1,1,4.6,-0.201359,3.27317,0.570277,-0.000844151,-0.084281,0.079301,-0.221245,1.08171,0.412226,0.0148526,0.515871,5,0.1,2,4.6,-4.6052,-3.80625,0.563201,0.00259876,0.00683665,0.000585616,-0.00357628,-0.00870228,-0.000745058,0.00742307,8.41653e-06,5,0.1,3,4.6,0.3,3.51768,0.608241,0.178538,-0.198066,-0.00763983,0.150517,0.118613,0.00414252,0.0107815,0.393848,5,0.1,4,4.6,-4.52911,2.39758,1.04522,0.116348,0.59188,0.00392497,0.025034,-0.8986,-0.00238419,0.00914869,1.52223,5,0.1,5,4.6,2.53199,-5.40077,0.600106,-0.348991,0.00263453,-0.000342727,-0.0823736,-0.00882149,0.00116229,0.0343703,0.118965,5,0.1,6,4.6,-0.241721,3.75987,0.603441,0.0599019,-0.30008,-0.00336617,-0.199355,-0.891924,-0.0145733,0.0087787,3.23134,5,0.1,7,4.6,-2.4201,2.1101,0.540086,0.00470281,0.000691414,0.000540912,-0.012517,-0.00202656,-0.00149012,0.00910016,7.70187e-06,5,0.1,8,4.6,2.01709,-0.456066,0.599289,-0.507188,0.0413075,-0.00351518,1.35833,0.0319332,-0.00476837,0.0113024,3.37747,5,0.1,9,4.6,2.09529,3.32232,1.34523,0.0030756,-0.720489,0.00317097,-0.000834465,-0.169873,-0.00101328,0.0194168,0.952553,5,0.1
0,4.7,-1.44498,1.50198,0.599887,0.342076,-0.00506267,0.00027474,-0.136383,0.0122339,-0.000685453,0.00886349,0.0430856,5,0.1,1,4.7,-0.202458,3.26971,0.580371,-0.0201921,0.0104841,0.123059,-0.164719,0.812098,0.440676,0.0148526,0.515871,5,0.1,2,4.7,-4.60496,-3.80561,0.563255,0.00219494,0.00582188,0.00049891,-0.00441074,-0.0112653,-0.0009574,0.00742307,8.41653e-06,5,0.1,3,4.7,0.319017,3.49845,0.607498,0.204939,-0.186722,-0.00723163,0.339899,0.113979,0.0042282,0.0107815,0.393848,5,0.1,4,4.7,-4.51735,2.45231,1.0456,0.11864,0.505763,0.00371132,0.0155568,-0.725597,-0.00203401,0.00914869,1.52223,5,0.1,5,4.7,2.4966,-5.40054,0.600077,-0.359163,0.00185445,-0.000240747,-0.0991672,-0.00682473,0.000890344,0.0343703,0.118965,5,0.1,6,4.7,-0.236912,3.72626,0.602934,0.0348247,-0.364063,-0.00757789,-0.286869,-0.402361,-0.0629239,0.0087787,3.23134,5,0.1,7,4.7,-2.41969,2.11016,0.540132,0.00344329,0.000491738,0.000392366,-0.0124127,-0.00193715,-0.00145659,0.00910016,7.70187e-06,5,0.1,8,4.7,1.97326,-0.451764,0.598913,-0.370607,0.0447572,-0.00399873,1.2906,0.0337176,-0.00458956,0.0113024,3.37747,5,0.1,9,4.7,2.09559,3.24917,1.34554,0.00301786,-0.743647,0.00309721,-0.000491738,-0.243679,-0.000625849,0.0194168,0.952553,5,0.1
0,4.8,-1.41153,1.50153,0.599911,0.32607,-0.00395477,0.000214577,-0.193179,0.00995398,-0.000566244,0.00805677,0.080323,5,0.1,1,4.8,-0.205201,3.27436,0.594777,-0.0336606,0.0780702,0.163604,-0.104375,0.540614,0.354171,0.0109834,0.444958,5,0.1,2,4.8,-4.60477,-3.80509,0.5633,0.00174046,0.00463724,0.000397861,-0.00476837,-0.0119209,-0.00101328,0.00821662,8.0176e-06,5,0.1,3,4.8,0.341268,3.48038,0.606797,0.239944,-0.17432,-0.00676066,0.332072,0.137687,0.00527501,0.0113467,0.30847,5,0.1,4,4.8,-4.50546,2.5,1.04596,0.118577,0.455481,0.00349581,-0.0200272,-0.290751,-0.00244379,0.0115953,1.29274,5,0.1,5,4.8,2.4603,-5.40039,0.600057,-0.365108,0.00126362,-0.000163913,-0.00452995,-0.00524521,0.000655651,0.0341018,0.111805,5,0.1,6,4.8,-0.234905,3.68854,0.601828,0.00523441,-0.383478,-0.0147596,-0.293203,-0.000715256,-0.0755191,0.0119545,3.20761,5,0.1,7,4.8,-2.41941,2.1102,0.540165,0.00225902,0.000309944,0.00025481,-0.0110865,-0.00166893,-0.0012815,0.0128822,6.1364e-06,5,0.1,8,4.8,1.94204,-0.44714,0.598493,-0.261205,0.0474826,-0.00437945,0.858903,0.0184327,-0.00280142,0.00797564,3.40423,5,0.1,9,4.8,2.09589,3.1738,1.34585,0.00295639,-0.76077,0.00301898,-0.00107288,-0.0635386,-0.00107288,0.0114103,0.692213,5,0.1
0,4.9,-1.37967,1.50118,0.59993,0.312645,-0.00305846,0.000164099,-0.0961423,0.00804663,-0.000447035,0.00805677,0.080323,5,0.1,1,4.9,-0.208959,3.28439,0.612972,-0.0402971,0.117988,0.200379,-0.0320179,0.268444,0.359993,0.0109834,0.444958,5,0.1,2,4.9,-4.60462,-3.80469,0.563335,0.0012666,0.00342987,0.000295229,-0.00464916,-0.0119656,-0.00101328,0.00821662,8.0176e-06,5,0.1,3,4.9,0.367068,3.4636,0.606146,0.276751,-0.161389,-0.00625858,0.375232,0.125706,0.00494346,0.0113467,0.30847,5,0.1,4,4.9,-4.4937,2.54474,1.0463,0.116535,0.444457,0.00327379,-0.0251234,0.0206679,-0.00211596,0.0115953,1.29274,5,0.1,5,4.9,2.42379,-5.40028,0.600043,-0.364663,0.000876933,-0.000107847,0.0271499,-0.00271201,0.000476837,0.0341018,0.111805,5,0.1,6,4.9,-0.236034,3.65077,0.599739,-0.0291787,-0.366871,-0.0289147,-0.374516,0.312001,-0.189852,0.0119545,3.20761,5,0.1,7,4.9,-2.41924,2.11022,0.540184,0.00121146,0.000154227,0.000134297,-0.00971556,-0.00143051,-0.00111759,0.0128822,6.1364e-06,5,0.1,8,4.9,1.91954,-0.44229,0.59804,-0.19802,0.04953,-0.00466518,0.309475,0.0194609,-0.00263005,0.00797564,3.40423,5,0.1,9,4.9,2.09618,3.0973,1.34614,0.00286698,-0.769452,0.00292882,-0.000864267,-0.0707507,-0.000864267,0.0114103,0.692213,5,0.1
0,5,-1.34887,1.50092,0.599944,0.303251,-0.00233352,0.00012517,-0.10699,0.00649691,-0.000357628,0.0113436,0.0672177,5,0.1,1,5,-0.213055,3.29716,0.634676,-0.0407536,0.133818,0.23196,0.0196621,0.0580549,0.256568,0.00551685,0.541819,5,0.1,2,5,-4.60451,-3.8044,0.56336,0.000834465,0.00228286,0.000198185,-0.00429153,-0.0107288,-0.000923872,0.00881919,6.48895e-06,5,0.1,3,5,0.396496,3.4481,0.605546,0.310046,-0.148374,-0.00574291,0.270039,0.137925,0.00545382,0.0123873,0.236937,5,0.1,4,5,-4.48221,2.58947,1.04662,0.112844,0.450921,0.00305176,-0.0514984,0.0714064,-0.00232458,0.0110657,1.18074,5,0.1,5,5,2.3876,-5.40021,0.600035,-0.357413,0.000679493,-6.70552e-05,0.127077,-0.00143051,0.000298023,0.030603,0.213589,5,0.1,6,5,-0.24082,3.61601,0.59583,-0.0660788,-0.324953,-0.0496015,-0.348151,0.508428,-0.210315,0.00996583,3.12236,5,0.1,7,5,-2.41916,2.11023,0.540192,0.000339746,2.98023e-05,3.42727e-05,-0.00762939,-0.00119209,-0.000864267,0.0108312,3.63657e-06,5,0.1,8,5,1.9,-0.437258,0.597563,-0.205114,0.0508577,-0.0048548,-0.414014,0.00497699,-0.00101328,0.0118708,3.06689,5,0.1,9,5,2.09646,3.02025,1.34643,0.00277162,-0.76828,0.00282228,-0.00143051,0.121236,-0.0012517,0.0127534,0.48585,5,0.1
0,5.1,-1.3189,1.50071,0.599955,0.29747,-0.00176281,9.42498e-05,-0.0298843,0.00497699,-0.00026077,0.0113436,0.0672177,5,0.1,1,5.1,-0.216891,3.30961,0.658629,-0.0347713,0.104978,0.242244,0.0920929,-0.564933,-0.0347309,0.00551685,0.541819,5,0.1,2,5.1,-4.60445,-3.80423,0.563375,0.000435859,0.00126399,0.000110641,-0.00360608,-0.00949204,-0.000819564,0.00881919,6.48895e-06,5,0.1,3,5.1,0.428638,3.43392,0.604998,0.330481,-0.135578,-0.00523301,0.13171,0.122011,0.00489131,0.0123873,0.236937,5,0.1,4,5.1,-4.47117,2.63434,1.04691,0.107884,0.441427,0.00283867,-0.0512004,-0.236899,-0.00204146,0.0110657,1.18074,5,0.1,5,5.1,2.35253,-5.40015,0.600029,-0.343466,0.000545382,-4.23752e-05,0.160232,-0.0013113,0.000204891,0.030603,0.213589,5,0.1,6,5.1,-0.248884,3.58613,0.589524,-0.0924502,-0.272299,-0.0787568,-0.183231,0.535995,-0.345301,0.00996583,3.12236,5,0.1,7,5.1,-2.41916,2.11023,0.540192,-0.000341982,-7.37607e-05,-4.25614e-05,-0.00593066,-0.00089407,-0.000666827,0.0108312,3.63657e-06,5,0.1,8,5.1,1.87594,-0.432137,0.597072,-0.288059,0.0515894,-0.00496907,-1.13055,0.00682846,-0.0010021,0.0118708,3.06689,5,0.1,9,5.1,2.09673,2.94395,1.34671,0.0026457,-0.757579,0.00270847,-0.00119209,0.124469,-0.00112504,0.0127534,0.48585,5,0.1
0,5.2,-1.28931,1.50056,0.599963,0.293633,-0.0013262,7.15256e-05,-0.0619888,0.0038743,-0.000178814,0.0117177,0.106297,5,0.1,1,5.2,-0.219842,3.31674,0.68231,-0.0237498,0.0333309,0.228047,0.122078,-0.813127,-0.235081,0.00579221,0.310665,5,0.1,2,5.2,-4.60442,-3.80414,0.563382,0.000107288,0.000405312,3.72529e-05,-0.0026226,-0.00751019,-0.000655651,0.00786695,3.86756e-06,5,0.1,3,5.2,0.462071,3.42097,0.604499,0.335345,-0.123286,-0.00474155,-0.0379235,0.1266,0.0050962,0.01108,0.207971,5,0.1,4,5.2,-4.46067,2.67695,1.04718,0.102019,0.407821,0.00263155,-0.0686646,-0.416517,-0.00232458,0.0123678,1.09331,5,0.1,5,5.2,2.31909,-5.4001,0.600026,-0.324017,0.000429153,-2.68221e-05,0.233769,-0.00119209,0.000149012,0.0304998,0.195156,5,0.1,6,5.2,-0.258801,3.56156,0.579885,-0.103555,-0.21928,-0.113857,-0.0431985,0.517964,-0.33617,0.0124352,0.622062,5,0.1,7,5.2,-2.41922,2.11022,0.540184,-0.000834465,-0.000143051,-9.83477e-05,-0.00405312,-0.000715256,-0.000447035,0.0135205,1.62356e-06,5,0.1,8,5.2,1.84107,-0.42696,0.596572,-0.411087,0.0517443,-0.00500977,-1.24288,-0.00569224,0.000327826,0.0076201,2.65191,5,0.1,9,5.2,2.09699,2.86903,1.34697,0.00251532,-0.738066,0.00258088,-0.00166893,0.287294,-0.00154972,0.0102769,0.332469,5,0.1
0,5.3,-1.26004,1.50044,0.59997,0.293487,-0.000987016,5.58794e-05,0.0349954,0.00295788,-0.00013411,0.0117177,0.106297,5,0.1,1,5.3,-0.221525,3.31574,0.704054,-0.00927909,-0.0548549,0.207732,0.159316,-0.910163,-0.180461,0.00579221,0.310665,5,0.1,2,5.3,-4.60442,-3.80414,0.563383,-0.000125915,-0.000268593,-2.14204e-05,-0.00205636,-0.00591576,-0.00051409,0.00786695,3.86756e-06,5,0.1,3,5.3,0.494922,3.40924,0.604049,0.317335,-0.111651,-0.00427179,-0.299035,0.109494,0.00442564,0.01108,0.207971,5,0.1,4,5.3,-4.45079,2.71523,1.04744,0.0955373,0.354954,0.00241995,-0.0638962,-0.58578,-0.00199676,0.0123678,1.09331,5,0.1,5,5.3,2.28788,-5.40007,0.600024,-0.300089,6.10948e-05,-1.52737e-05,0.249773,-0.00530481,8.9407e-05,0.0304998,0.195156,5,0.1,6,5.3,-0.269123,3.54167,0.567186,-0.10067,-0.183546,-0.13667,0.0906177,0.224978,-0.128455,0.0124352,0.622062,5,0.1,7,5.3,-2.41933,2.1102,0.540173,-0.00116564,-0.000198931,-0.000134576,-0.0025481,-0.000417233,-0.000279397,0.0135205,1.62356e-06,5,0.1,8,5.3,1.79317,-0.421801,0.596071,-0.550308,0.051487,-0.00500111,-1.45096,-0.00214577,0.000100583,0.0076201,2.65191,5,0.1,9,5.3,2.09724,2.79658,1.34722,0.0023663,-0.711139,0.00243858,-0.00140071,0.277191,-0.00138581,0.0102769,0.332469,5,0.1
0,5.4,-1.23052,1.50036,0.599975,0.296476,-0.000730157,4.32134e-05,0.00739098,0.00226498,-8.9407e-05,0.0112991,0.0911686,5,0.1,1,5.4,-0.221649,3.30582,0.723953,0.00670515,-0.141692,0.190365,0.154309,-0.796914,-0.173539,0.00550943,0.232137,5,0.1,2,5.4,-4.60444,-3.80419,0.563379,-0.000298023,-0.0007689,-6.4075e-05,-0.00119209,-0.00393391,-0.000357628,0.00888861,1.69675e-06,5,0.1,3,5.4,0.524886,3.39861,0.603643,0.279671,-0.100803,-0.00383407,-0.436246,0.109792,0.00435114,0.0163488,0.332461,5,0.1,4,5.4,-4.44157,2.74786,1.04767,0.0887513,0.299096,0.00221729,-0.0741482,-0.50211,-0.00202656,0.00790012,0.994019,5,0.1,5,5.4,2.25917,-5.40009,0.600023,-0.273263,-0.000464916,-8.9407e-06,0.28944,-0.00500679,2.98023e-05,0.0306413,0.276369,5,0.1,6,5.4,-0.278587,3.52414,0.553161,-0.0873141,-0.169241,-0.14116,0.167951,0.0832081,0.0308156,0.0124228,1.02457,5,0.1,7,5.4,-2.41945,2.11018,0.540158,-0.00134706,-0.000220537,-0.000153482,-0.000953674,-0.000238419,-0.000119209,0.0121532,4.98325e-07,5,0.1,8,5.4,1.73116,-0.416676,0.595573,-0.685632,0.0508569,-0.00494719,-1.18965,-0.0123084,0.00116229,0.0074854,2.37899,5,0.1,9,5.4,2.09747,2.72701,1.34746,0.00221133,-0.678289,0.00228882,-0.00143051,0.397325,-0.00166893,0.0115396,0.244118,5,0.1
0,5.5,-1.20065,1.5003,0.599979,0.301987,-0.000539608,3.54834e-05,0.078328,0.00158697,-7.07805e-05,0.0112991,0.0911686,5,0.1,1,5.5,-0.220155,3.28784,0.742463,0.0234719,-0.215438,0.182647,0.172731,-0.659347,-0.00486895,0.00550943,0.232137,5,0.1,2,5.5,-4.60448,-3.80429,0.563371,-0.000395626,-0.00109375,-9.32254e-05,-0.000745058,-0.0025332,-0.000227243,0.00888861,1.69675e-06,5,0.1,3,5.5,0.550428,3.38905,0.60328,0.229692,-0.0907872,-0.00343639,-0.52629,0.0933856,0.00371039,0.0163488,0.332461,5,0.1,4,5.5,-4.43305,2.77541,1.04788,0.0818424,0.255276,0.00203233,-0.066489,-0.309035,-0.00175089,0.00790012,0.994019,5,0.1,5,5.5,2.23324,-5.40022,0.600022,-0.245701,-0.00259876,-7.63685e-06,0.267431,-0.0292659,0,0.0306413,0.276369,5,0.1,6,5.5,-0.286417,3.50712,0.539442,-0.0688192,-0.175545,-0.131081,0.195991,-0.172302,0.160158,0.0124228,1.02457,5,0.1,7,5.5,-2.41959,2.11016,0.540142,-0.00139177,-0.000232086,-0.000159256,2.98023e-05,1.49012e-05,0,0.0121532,4.98325e-07,5,0.1,8,5.5,1.65716,-0.411636,0.595083,-0.788227,0.0500312,-0.004867,-0.831328,-0.00685453,0.000689179,0.0074854,2.37899,5,0.1,9,5.5,2.09784,2.66106,1.34768,0.00652522,-0.641071,0.00213515,0.0777543,0.368461,-0.00148267,0.0115396,0.244118,5,0.1
0,5.6,-1.17011,1.50025,0.599982,0.307953,-0.000402331,2.98023e-05,0.023663,0.00107288,-2.98023e-05,0.0116082,0.0455266,5,0.1,1,5.6,-0.21697,3.26336,0.76082,0.0398155,-0.270486,0.185168,0.148088,-0.429749,0.0370741,0.00564058,0.195873,5,0.1,2,5.6,-4.60452,-3.80441,0.56336,-0.000441074,-0.00127554,-0.000110269,-0.000476837,-0.00119209,-5.96046e-05,0.0088862,5.84797e-07,5,0.1,3,5.6,0.57085,3.38043,0.602955,0.180149,-0.0816405,-0.00307262,-0.444263,0.0916719,0.00357628,0.0107478,0.305177,5,0.1,4,5.6,-4.4252,2.8,1.04808,0.0750303,0.242406,0.00185966,-0.0715256,0.0375509,-0.00184774,0.0133873,0.845949,5,0.1,5,5.6,2.21001,-5.40062,0.600021,-0.21885,-0.00498295,-8.9407e-06,0.273228,-0.013113,-2.98023e-05,0.0297371,0.783165,5,0.1,6,5.6,-0.292313,3.48853,0.527275,-0.0491634,-0.19719,-0.111069,0.192598,-0.232458,0.231296,0.00707475,0.439189,5,0.1,7,5.6,-2.41973,2.11014,0.540127,-0.00134706,-0.000220537,-0.000154972,0.000953674,0.000119209,0.000119209,0.0122411,1.33969e-07,5,0.1,8,5.6,1.57495,-0.406676,0.5946,-0.848091,0.0490338,-0.00476688,-0.358701,-0.014931,0.00151992,0.0125052,2.28408,5,0.1,9,5.6,2.09894,2.59889,1.34789,0.0159919,-0.601,0.00197887,0.103831,0.447512,-0.00160933,0.0110615,0.166219,5,0.1
0,5.7,-1.1392,1.50021,0.599985,0.309711,-0.000313856,2.69152e-05,-0.00168383,0.000722706,-2.6077e-05,0.0116082,0.0455266,5,0.1,1,5.7,-0.21223,3.23438,0.779797,0.0549712,-0.306593,0.196451,0.147732,-0.282243,0.162534,0.00564058,0.195873,5,0.1,2,5.7,-4.60457,-3.80454,0.563349,-0.000467896,-0.00134371,-0.00011269,-5.96046e-05,-0.000193715,7.45058e-06,0.0088862,5.84797e-07,5,0.1,3,5.7,0.586818,3.37269,0.602664,0.141934,-0.073329,-0.00274777,-0.285055,0.0769347,0.00301003,0.0107478,0.305177,5,0.1,4,5.7,-4.41803,2.82519,1.04825,0.0684284,0.267573,0.00169165,-0.0625551,0.406772,-0.00156462,0.0133873,0.845949,5,0.1,5,5.7,2.1895,-5.4013,0.60002,-0.191283,-0.00900552,-1.14553e-05,0.277996,-0.0346601,-1.86265e-05,0.0297371,0.783165,5,0.1,6,5.7,-0.29621,3.46734,0.517376,-0.0284084,-0.228777,-0.0865373,0.215048,-0.364944,0.253458,0.00707475,0.439189,5,0.1,7,5.7,-2.41986,2.11011,0.540112,-0.00122599,-0.000201911,-0.00014035,0.00144541,0.000238419,0.000175089,0.0122411,1.33969e-07,5,0.1,8,5.7,1.48904,-0.401829,0.594129,-0.864905,0.0480199,-0.00466052,-0.0448376,-0.00800379,0.000864267,0.0125052,2.28408,5,0.1,9,5.7,2.10112,2.54091,1.34808,0.0279378,-0.559353,0.00183024,0.127599,0.403285,-0.00141561,0.0110615,0.166219,5,0.1
0,5.8,-1.10837,1.50019,0.599987,0.305441,-0.00025332,2.38419e-05,-0.092268,0.000476837,-2.98023e-05,0.00895827,0.0809574,5,0.1,1,5.8,-0.206044,3.20262,0.800285,0.0681181,-0.325352,0.213136,0.11006,-0.0872612,0.151902,0.00869201,0.173047,5,0.1,2,5.8,-4.60461,-3.80467,0.563338,-0.000464916,-0.00131726,-0.000108778,0.000476837,0.000715256,8.9407e-05,0.00704652,1.54605e-07,5,0.1,3,5.8,0.6,3.36574,0.602404,0.125732,-0.0658393,-0.0024572,-0.0480413,0.0743866,0.00292063,0.0101939,0.259876,5,0.1,4,5.8,-4.4115,2.85419,1.04841,0.0621557,0.313383,0.0015378,-0.0641346,0.464559,-0.00154972,0.00841732,0.674152,5,0.1,5,5.8,2.17177,-5.40221,0.600019,-0.163305,-0.00720024,-1.3411e-05,0.281096,0.0844002,0,0.0298414,2.48121,5,0.1,6,5.8,-0.297989,3.44265,0.509986,-0.00745654,-0.26421,-0.0614196,0.198364,-0.318408,0.24429,0.00731811,0.209043,5,0.1,7,5.8,-2.41997,2.1101,0.540099,-0.00106692,-0.000172853,-0.000120699,0.00166893,0.000357628,0.000178814,0.00788948,9.2023e-08,5,0.1,8,5.8,1.40246,-0.397073,0.593668,-0.866026,0.0469804,-0.00455081,0,-0.0146776,0.00149012,0.0078434,2.27057,5,0.1,9,5.8,2.10454,2.48704,1.34825,0.0402033,-0.517333,0.00168383,0.112414,0.449061,-0.00154972,0.0155395,0.112925,5,0.1
0,5.9,-1.07812,1.50016,0.599989,0.300704,-0.000213087,2.08616e-05,-0.0225529,0.000342727,-2.98023e-05,0.00895827,0.0809574,5,0.1,1,5.9,-0.198677,3.16975,0.822534,0.0791129,-0.330729,0.232959,0.103375,-0.0110418,0.220153,0.00869201,0.173047,5,0.1,2,5.9,-4.60466,-3.8048,0.563328,-0.000412762,-0.0012178,-9.81614e-05,0.000596046,0.0012666,0.000119209,0.00704652,1.54605e-07,5,0.1,3,5.9,0.612809,3.3595,0.602172,0.134356,-0.0591267,-0.00219373,0.186924,0.0618547,0.00241771,0.0101939,0.259876,5,0.1,4,5.9,-4.40559,2.88815,1.04856,0.0562817,0.367439,0.00139717,-0.0551343,0.571474,-0.00130385,0.00841732,0.674152,5,0.1,5,5.9,2.1568,-5.40254,0.600017,-0.136365,0.00379086,-1.3411e-05,0.258133,0.259817,0,0.0298414,2.48121,5,0.1,6,5.9,-0.297722,3.41464,0.505004,0.0128259,-0.295464,-0.0389073,0.200216,-0.286579,0.203207,0.00731811,0.209043,5,0.1,7,5.9,-2.42007,2.11008,0.540088,-0.000891834,-0.000135601,-0.000101328,0.00181794,0.00038743,0.000201166,0.00788948,9.2023e-08,5,0.1,8,5.9,1.31586,-0.392429,0.593219,-0.866026,0.0460251,-0.00445116,0,-0.00707991,0.000752509,0.0078434,2.27057,5,0.1,9,5.9,2.10913,2.43743,1.34842,0.0516202,-0.475832,0.00154153,0.110224,0.395894,-0.0013411,0.0155395,0.112925,5,0.1
0,6,-1.04818,1.50014,0.599991,0.297478,-0.000181794,1.78814e-05,-0.0563264,0.000238419,0,0.016277,0.0670184,5,0.1,1,6,-0.190303,3.13681,0.846879,0.0877008,-0.326085,0.252961,0.0639185,0.109315,0.162303,0.0122169,0.79171,5,0.1,2,6,-4.6047,-3.80491,0.563318,-0.000357628,-0.00107288,-8.49366e-05,0.000953674,0.00154972,0.000119209,0.00704324,9.94733e-08,5,0.1,3,6,0.62734,3.35389,0.601965,0.157188,-0.0531256,-0.00196099,0.244051,0.0597239,0.00229478,0.0100323,0.20802,5,0.1,4,6,-4.40023,2.92762,1.04869,0.0508308,0.419903,0.00126958,-0.0550747,0.445127,-0.00137091,0.0104451,0.514319,5,0.1,5,6,2.14442,-5.4,0.600016,-0.11161,0.0555515,-1.3411e-05,0.237226,0.758648,2.98023e-05,0.0308014,2.16317,5,0.1,6,6,-0.295483,3.38385,0.502044,0.0313707,-0.318134,-0.0211731,0.165612,-0.153184,0.150293,0.00720495,0.265978,5,0.1,7,6,-2.42015,2.11007,0.540078,-0.000703335,-0.000101328,-8.04663e-05,0.00166893,0.000476837,0.000208616,0.00988507,9.74605e-08,5,0.1,8,6,1.22926,-0.387867,0.592778,-0.866026,0.045111,-0.00435561,5.96046e-05,-0.0130683,0.0013113,0.00793308,2.27065,5,0.1,9,6,2.1148,2.39183,1.34856,0.0612736,-0.435627,0.00140667,0.0789165,0.418544,-0.00137091,0.0167018,0.131616,5,0.1
0,6.1,-1.01857,1.50013,0.599993,0.295831,-0.000162236,1.74157e-05,0.00282004,0.000156462,-1.11759e-05,0.016277,0.0670184,5,0.1,1,6.1,-0.181504,3.10594,0.872551,0.0857145,-0.280923,0.25645,-0.090789,0.72813,-0.0801161,0.0122169,0.79171,5,0.1,2,6.1,-4.60473,-3.80501,0.563311,-0.000269711,-0.000906736,-7.18981e-05,0.00077486,0.00172853,0.00013411,0.00704324,9.94733e-08,5,0.1,3,6.1,0.644467,3.34885,0.601779,0.186593,-0.0477575,-0.0017548,0.318442,0.0493228,0.001885,0.0100323,0.20802,5,0.1,4,6.1,-4.39541,2.97191,1.04881,0.0458181,0.465696,0.00114627,-0.0466108,0.435829,-0.00113249,0.0104451,0.514319,5,0.1,5,6.1,2.13439,-5.38956,0.600015,-0.089518,0.161646,-1.08965e-05,0.205278,1.26928,1.86265e-05,0.0308014,2.16317,5,0.1,6,6.1,-0.291533,3.35114,0.500585,0.0473442,-0.336807,-0.00894722,0.148507,-0.19446,0.0947863,0.00720495,0.265978,5,0.1,7,6.1,-2.42021,2.11006,0.540071,-0.000537187,-5.7742e-05,-6.00703e-05,0.00163913,0.000372529,0.00019744,0.00988507,9.74605e-08,5,0.1,8,6.1,1.14265,-0.383402,0.592347,-0.866025,0.0443151,-0.00427384,-1.49012e-05,-0.00546686,0.000573695,0.00793308,2.27065,5,0.1,9,6.1,2.1214,2.35003,1.3487,0.071127,-0.403221,0.00130106,0.10857,0.255689,-0.000827014,0.0167018,0.131616,5,0.1
0,6.2,-0.989009,1.50011,0.599995,0.294535,-0.000149012,1.63913e-05,-0.0433326,0.000119209,-2.98023e-05,0.0119541,0.105141,5,0.1,1,6.2,-0.173554,3.08207,0.897481,0.0718817,-0.192285,0.23929,-0.175342,0.992298,-0.251949,0.0137634,0.657637,5,0.1,2,6.2,-4.60475,-3.80509,0.563304,-0.000190735,-0.000733137,-5.96046e-05,0.000476837,0.00190735,0.000178814,0.00764956,1.00643e-07,5,0.1,3,6.2,0.664669,3.34432,0.601613,0.216447,-0.0429809,-0.00157356,0.259995,0.0473261,0.00178814,0.0109288,0.160112,5,0.1,4,6.2,-4.39105,3.02041,1.04892,0.0412464,0.501144,0.00103414,-0.0457764,0.24879,-0.00107288,0.0132751,0.373044,5,0.1,5,6.2,2.12642,-5.36685,0.600014,-0.0704229,0.292897,-1.04308e-05,0.177264,1.28436,5.96046e-05,0.0277778,1.7539,5,0.1,6,6.2,-0.28612,3.31659,0.500079,0.0601701,-0.352609,-0.0019744,0.104368,-0.103354,0.0464916,0.00724654,0.195918,5,0.1,7,6.2,-2.42026,2.11006,0.540066,-0.000375509,-2.38419e-05,-4.17233e-05,0.0013113,0.000357628,0.000178814,0.00908531,8.07594e-08,5,0.1,8,6.2,1.05605,-0.379003,0.591923,-0.866026,0.0435688,-0.00419617,2.98023e-05,-0.0113249,0.00110269,0.012687,2.27072,5,0.1,9,6.2,2.12904,2.31089,1.34882,0.0813365,-0.37995,0.00122786,0.0885725,0.229001,-0.00077486,0.0184096,0.0773494,5,0.1
0,6.3,-0.959567,1.5001,0.599996,0.295754,-0.000137836,1.3411e-05,0.0441261,0.000104308,-2.98023e-05,0.0119541,0.105141,5,0.1,1,6.3,-0.167352,3.06821,0.919984,0.0512871,-0.0818871,0.209333,-0.227134,1.167,-0.338588,0.0137634,0.657637,5,0.1,2,6.3,-4.60477,-3.80516,0.563299,-0.000143796,-0.000547245,-4.27477e-05,0.000447035,0.00177324,0.000152737,0.00764956,1.00643e-07,5,0.1,3,6.3,0.687664,3.34024,0.601464,0.243461,-0.0387371,-0.00141365,0.260513,0.0389218,0.00146404,0.0109288,0.160112,5,0.1,4,6.3,-4.38714,3.07176,1.04902,0.0371031,0.525289,0.000937283,-0.0383556,0.206575,-0.00089407,0.0132751,0.373044,5,0.1,5,6.3,2.12021,-5.33082,0.600013,-0.05427,0.429132,-5.68107e-06,0.146568,1.36921,4.09782e-05,0.0277778,1.7539,5,0.1,6,6.3,-0.279604,3.28076,0.500061,0.0698238,-0.363901,0.00112597,0.0845399,-0.102133,0.0175461,0.00724654,0.195918,5,0.1,7,6.3,-2.42029,2.11006,0.540063,-0.000248849,6.70552e-06,-2.49594e-05,0.00119209,0.000268221,0.000149012,0.00908531,8.07594e-08,5,0.1,8,6.3,0.96945,-0.374684,0.591507,-0.866025,0.0429302,-0.00413312,-3.72529e-06,-0.00402145,0.000406057,0.012687,2.27072,5,0.1,9,6.3,2.13762,2.2739,1.34894,0.0900943,-0.360827,0.00116359,0.0804514,0.170663,-0.000558794,0.0184096,0.0773494,5,0.1
0,6.4,-0.929786,1.50008,0.599998,0.299294,-0.00012517,1.19209e-05,0.00956655,0.000119209,-5.96046e-05,0.0106657,0.0895441,5,0.1,1,6.4,-0.163381,3.06582,0.939141,0.0281218,0.0325918,0.173151,-0.228919,1.08624,-0.377893,0.0111167,0.541996,5,0.1,2,6.4,-4.60478,-3.80521,0.563295,-9.53674e-05,-0.00038147,-2.83122e-05,0.000238419,0.00166893,0.000119209,0.00818088,8.86122e-08,5,0.1,3,6.4,0.713181,3.33655,0.601329,0.265189,-0.0349641,-0.00127256,0.160217,0.0376701,0.00140071,0.0117391,0.210184,5,0.1,4,6.4,-4.38362,3.12507,1.04911,0.0333667,0.537843,0.000852346,-0.0371933,0.0257492,-0.000953674,0.0120069,0.259709,5,0.1,5,6.4,2.11547,-5.2814,0.600013,-0.0409722,0.554526,-2.98023e-06,0.120163,1.08743,0,0.027916,1.34544,5,0.1,6,6.4,-0.27226,3.244,0.500227,0.0763878,-0.369596,0.00190437,0.044018,0.00226498,-0.000327826,0.00687536,0.600878,5,0.1,7,6.4,-2.42031,2.11006,0.540061,-0.000137091,2.98023e-05,-1.04308e-05,0.00107288,0,8.9407e-05,0.00985456,5.55667e-08,5,0.1,8,6.4,0.882847,-0.370416,0.591096,-0.866026,0.0423245,-0.00407398,0,-0.00993907,0.00101328,0.0115556,2.27078,5,0.1,9,6.4,2.14697,2.23869,1.34906,0.0963926,-0.342876,0.00110567,0.0414848,0.20051,-0.000655651,0.0186083,0.118341,5,0.1
0,6.5,-0.899638,1.50007,0.599998,0.304742,-0.00011418,6.89179e-06,0.075344,9.68575e-05,-3.72529e-05,0.0106657,0.0895441,5,0.1,1,6.5,-0.16173,3.07454,0.954547,0.00489198,0.141219,0.134902,-0.228737,1.04994,-0.381216,0.0111167,0.541996,5,0.1,2,6.5,-4.60479,-3.80524,0.563293,-7.15256e-05,-0.000227615,-1.73226e-05,0.000238419,0.00138581,9.68575e-05,0.00818088,8.86122e-08,5,0.1,3,6.5,0.740506,3.33321,0.601208,0.28096,-0.0321079,-0.0011663,0.139087,0.0217408,0.000808388,0.0117391,0.210184,5,0.1,4,6.5,-4.38046,3.17898,1.04919,0.0300147,0.539799,0.00076741,-0.030905,-0.00876188,-0.00077486,0.0120069,0.259709,5,0.1,5,6.5,2.11193,-5.22052,0.600012,-0.03024,0.661561,-3.07336e-06,0.0952035,0.998616,-3.72529e-06,0.027916,1.34544,5,0.1,6,6.5,-0.264418,3.20655,0.500404,0.080197,-0.38305,0.00154478,0.0288375,-0.225395,-0.00621006,0.00687536,0.600878,5,0.1,7,6.5,-2.42032,2.11006,0.540061,-3.91155e-05,2.98023e-05,-2.04891e-06,0.000879169,0,7.45058e-05,0.00985456,5.55667e-08,5,0.1,8,6.5,0.796245,-0.366216,0.590692,-0.866026,0.0418023,-0.00401875,3.72529e-06,-0.00301749,0.000331551,0.0115556,2.27078,5,0.1,9,6.5,2.15672,2.20535,1.34916,0.0975769,-0.324142,0.00104513,-0.0168532,0.185221,-0.000588596,0.0186083,0.118341,5,0.1
0,6.6,-0.86884,1.50006,0.599999,0.310256,-0.000104308,2.98023e-06,0.017941,0.000119209,-2.98023e-05,0.00875337,0.0444308,5,0.1,1,6.6,-0.162337,3.0936,0.966166,-0.0164304,0.236362,0.0979483,-0.192694,0.827312,-0.353336,0.00980682,0.415905,5,0.1,2,6.6,-4.60479,-3.80525,0.563292,-4.76837e-05,-0.000107288,-8.9407e-06,0.000238419,0.00107288,8.9407e-05,0.00823796,5.33329e-08,5,0.1,3,6.6,0.769155,3.3301,0.601095,0.290301,-0.0302076,-0.00109673,0.0368059,0.0178814,0.000685453,0.0118856,0.19477,5,0.1,4,6.6,-4.3776,3.23272,1.04927,0.0270128,0.532395,0.000691414,-0.0300407,-0.154138,-0.000715256,0.0107554,0.175829,5,0.1,5,6.6,2.10935,-5.14988,0.600012,-0.0217974,0.74501,-2.98023e-06,0.0742674,0.63324,-2.98023e-05,0.0277206,0.973379,5,0.1,6,6.6,-0.256301,3.16706,0.500522,0.0816077,-0.406677,0.000779331,-0.00277907,-0.213027,-0.00855327,0.00975072,1.32023,5,0.1,7,6.6,-2.42032,2.11006,0.540061,3.57628e-05,2.98023e-05,4.47035e-06,0.000596046,-0.000119209,5.96046e-05,0.0130354,2.74825e-08,5,0.1,8,6.6,0.709642,-0.362056,0.590293,-0.866026,0.0412904,-0.00396669,0,-0.0090152,0.000923872,0.0141008,2.27083,5,0.1,9,6.6,2.16631,2.17391,1.34927,0.0932574,-0.303978,0.000980496,-0.0683069,0.225663,-0.000715256,0.0108329,0.147096,5,0.1
0,6.7,-0.837737,1.50005,0.599999,0.311348,-9.31323e-05,5.58794e-07,-0.00894815,0.000104308,-1.49012e-05,0.00875337,0.0444308,5,0.1,1,6.7,-0.164923,3.12127,0.974238,-0.0349388,0.315108,0.0640458,-0.172261,0.71983,-0.320639,0.00980682,0.415905,5,0.1,2,6.7,-4.6048,-3.80526,0.563291,-2.45869e-05,-1.2666e-05,-1.21072e-06,0.000208616,0.000804663,7.07805e-05,0.00823796,5.33329e-08,5,0.1,3,6.7,0.797931,3.32715,0.600988,0.281216,-0.0287864,-0.00104252,-0.203904,0.012055,0.000454485,0.0118856,0.19477,5,0.1,4,6.7,-4.37504,3.28521,1.04933,0.0243157,0.517269,0.000627153,-0.0247359,-0.16652,-0.000588596,0.0107554,0.175829,5,0.1,5,6.7,2.10751,-5.07231,0.600012,-0.0153087,0.804324,-5.4948e-06,0.0561178,0.510067,-1.86265e-05,0.0277206,0.973379,5,0.1,6,6.7,-0.248363,3.12459,0.500641,0.0753139,-0.448158,0.00230065,-0.113084,-0.547737,0.0339411,0.00975072,1.32023,5,0.1,7,6.7,-2.42031,2.11007,0.540061,8.64267e-05,2.01166e-05,9.77889e-06,0.000417233,-5.96046e-05,4.09782e-05,0.0130354,2.74825e-08,5,0.1,8,6.7,0.623039,-0.357955,0.589899,-0.866026,0.0408387,-0.00391845,3.72529e-06,-0.00247173,0.000275671,0.0141008,2.27083,5,0.1,9,6.7,2.17521,2.14455,1.34936,0.0840288,-0.283898,0.000917353,-0.11377,0.187621,-0.000588596,0.0108329,0.147096,5,0.1
0,6.8,-0.806776,1.50004,0.599999,0.306344,-8.34465e-05,-1.49012e-06,-0.09951,0.000119209,0,0.0128105,0.079823,5,0.1,1,6.8,-0.169209,3.15601,0.979121,-0.0500064,0.375676,0.0345081,-0.125542,0.472903,-0.267297,0.0112258,0.298272,5,0.1,2,6.8,-4.6048,-3.80525,0.563292,0,5.36442e-05,4.47035e-06,0,0.000596046,2.98023e-05,0.00851338,2.6862e-08,5,0.1,3,6.8,0.824737,3.32434,0.600886,0.252263,-0.0275314,-0.000995398,-0.362337,0.0141859,0.000506639,0.0152798,0.185366,5,0.1,4,6.8,-4.37273,3.33596,1.04939,0.0219107,0.496066,0.000572205,-0.0238419,-0.269771,-0.000655651,0.00726034,0.117166,5,0.1,5,6.8,2.10623,-4.98982,0.600011,-0.0104606,0.839865,-7.45058e-06,0.0414848,0.1719,0,0.0301483,0.672989,5,0.1,6,6.8,-0.241511,3.07695,0.501077,0.0608064,-0.504202,0.00666976,-0.168912,-0.522017,0.0495315,0.0124664,1.03418,5,0.1,7,6.8,-2.4203,2.11007,0.540063,0.000119209,1.19209e-05,1.3411e-05,0.000357628,0,2.98023e-05,0.0129007,1.4975e-08,5,0.1,8,6.8,0.536437,-0.353889,0.589509,-0.866026,0.0403769,-0.00387281,0,-0.00852346,0.000864267,0.00745621,2.27088,5,0.1,9,6.8,2.18298,2.11711,1.34945,0.0710011,-0.264478,0.000858307,-0.144005,0.208735,-0.000715256,0.0120129,0.131445,5,0.1
0,6.9,-0.776471,1.50003,0.599999,0.300919,-7.17118e-05,-1.39698e-06,-0.0289641,0.000111759,3.72529e-06,0.0128105,0.079823,5,0.1,1,6.9,-0.174809,3.19582,0.981454,-0.0616001,0.418775,0.01414,-0.102309,0.367299,-0.147048,0.0112258,0.298272,5,0.1,2,6.9,-4.6048,-3.80525,0.563292,7.45058e-07,0.000102445,6.98492e-06,2.98023e-05,0.000372529,1.86265e-05,0.00851338,2.6862e-08,5,0.1,3,6.9,0.847959,3.32165,0.600789,0.210591,-0.0262354,-0.000949483,-0.457771,0.0127405,0.00045076,0.0152798,0.185366,5,0.1,4,6.9,-4.37065,3.38428,1.04945,0.0197746,0.470354,0.00051409,-0.0195801,-0.259519,-0.000521541,0.00726034,0.117166,5,0.1,5,6.9,2.10537,-4.90504,0.60001,-0.00693984,0.854145,-7.45058e-06,0.0294298,0.079155,0,0.0301483,0.672989,5,0.1,6,6.9,-0.236347,3.02365,0.502023,0.0419185,-0.563102,0.0124838,-0.201534,-0.603005,0.0629574,0.0124664,1.03418,5,0.1,7,6.9,-2.42029,2.11007,0.540064,0.000146031,1.19209e-05,1.58325e-05,0.000178814,0,1.49012e-05,0.0129007,1.4975e-08,5,0.1,8,6.9,0.449834,-0.349878,0.589124,-0.866026,0.0399549,-0.00382885,3.57628e-06,-0.00230223,0.000245869,0.00745621,2.27088,5,0.1,9,6.9,2.18931,2.09168,1.34953,0.0552248,-0.244113,0.000789762,-0.166133,0.204489,-0.000670552,0.0120129,0.131445,5,0.1
0,7,-0.746542,1.50003,0.599999,0.29712,-5.96046e-05,-1.49012e-06,-0.0613034,5.96046e-05,0,0.0118145,0.1551,5,0.1,1,7,-0.181415,3.23922,0.982283,-0.0698034,0.445533,0.0038147,-0.0591278,0.153661,-0.0653565,0.0114399,0.203001,5,0.1,2,7,-4.6048,-3.80524,0.563293,0,0.00012517,7.45058e-06,0.000238419,0.000238419,2.98023e-05,0.00868358,1.36478e-08,5,0.1,3,7,0.866663,3.31909,0.600697,0.163105,-0.0248194,-0.00089854,-0.481278,0.0163317,0.000566244,0.0143926,0.274583,5,0.1,4,7,-4.36877,3.42993,1.04949,0.0178695,0.441647,0.000464916,-0.0190735,-0.324726,-0.000536442,0.00808714,0.132698,5,0.1,5,7,2.10481,-4.81961,0.60001,-0.00447631,0.849962,-7.45058e-06,0.0201464,-0.185251,0,0.0278803,0.451751,5,0.1,6,7,-0.233167,2.96455,0.503583,0.0217892,-0.615722,0.0186011,-0.195473,-0.41151,0.0565946,0.00963429,0.773808,5,0.1,7,7,-2.42027,2.11007,0.540066,0.000154972,1.19209e-05,1.49012e-05,0,0,2.98023e-05,0.0128248,5.02525e-09,5,0.1,8,7,0.363232,-0.345899,0.588743,-0.866025,0.0395082,-0.00378489,-1.43051e-05,-0.00832975,0.000804663,0.00726274,2.27093,5,0.1,9,7,2.19401,2.06833,1.34961,0.0387192,-0.222611,0.000718236,-0.160217,0.229597,-0.000655651,0.0105665,0.24852,5,0.1
0,7.1,-0.716815,1.50002,0.599999,0.299852,-5.34579e-05,-1.39698e-06,0.0854172,6.70552e-05,3.72529e-06,0.0118145,0.1551,5,0.1,1,7.1,-0.188669,3.28446,0.982451,-0.074972,0.458105,0.000525545,-0.041048,0.0802428,-0.00569597,0.0114399,0.203001,5,0.1,2,7.1,-4.6048,-3.80522,0.563294,2.01166e-05,0.000140443,9.49949e-06,0.000149012,7.45058e-05,7.45058e-06,0.00868358,1.36478e-08,5,0.1,3,7.1,0.880601,3.31663,0.600609,0.116198,-0.024977,-0.000849366,-0.448994,-0.0148863,0.000454485,0.0143926,0.274583,5,0.1,4,7.1,-4.36706,3.47278,1.04954,0.0164278,0.417595,0.000425242,-0.0109375,-0.183448,-0.000290573,0.00808714,0.132698,5,0.1,5,7.1,2.10445,-4.73554,0.600009,-0.00284538,0.83072,-7.45058e-06,0.0128448,-0.227958,0,0.0278803,0.451751,5,0.1,6,7.1,-0.23197,2.90085,0.505733,0.00223876,-0.657838,0.0243846,-0.19015,-0.389412,0.0561923,0.00963429,0.773808,5,0.1,7,7.1,-2.42026,2.11007,0.540067,0.000149757,1.19209e-05,1.66707e-05,-8.9407e-05,0,1.11759e-05,0.0128248,5.02525e-09,5,0.1,8,7.1,0.276629,-0.341974,0.588367,-0.866025,0.0390882,-0.00374448,1.78814e-06,-0.00238791,0.000230968,0.00726274,2.27093,5,0.1,9,7.1,2.19712,2.04723,1.34968,0.0240155,-0.199186,0.000649318,-0.132173,0.239894,-0.000715256,0.0105665,0.24852,5,0.1
0,7.2,-0.686366,1.50002,0.599999,0.308903,-4.76837e-05,-1.49012e-06,0.0731051,0.000119209,0,0.00989864,0.14105,5,0.1,1,7.2,-0.19632,3.33044,0.982537,-0.0774883,0.458694,0.00172555,-0.00723451,-0.0799894,0.025481,0.0112812,0.13486,5,0.1,2,7.2,-4.6048,-3.80521,0.563295,2.38419e-05,0.000137091,1.04308e-05,0.000476837,0,0,0.00793445,2.1343e-08,5,0.1,3,7.2,0.890082,3.31404,0.600527,0.0746161,-0.0269949,-0.000800192,-0.377446,-0.0218153,0.000536442,0.0126028,0.272119,5,0.1,4,7.2,-4.36547,3.51367,1.04958,0.0154734,0.400269,0.000399351,-0.00882149,-0.182986,-0.000178814,0.0109777,0.116711,5,0.1,5,7.2,2.10422,-4.65387,0.600008,-0.00182986,0.79968,-7.45058e-06,0.00786781,-0.411749,2.98023e-05,0.0252273,0.306219,5,0.1,6,7.2,-0.232652,2.83344,0.508432,-0.0153173,-0.68661,0.0293478,-0.15711,-0.157475,0.041008,0.0120675,0.55289,5,0.1,7,7.2,-2.42024,2.11007,0.540069,0.000137091,1.19209e-05,1.63913e-05,-0.000119209,0,0,0.0135323,3.93872e-09,5,0.1,8,7.2,0.190027,-0.338083,0.587994,-0.866025,0.0386342,-0.00370294,0,-0.00832975,0.000834465,0.00742729,2.27097,5,0.1,9,7.2,2.19892,2.02853,1.34974,0.0125289,-0.17451,0.000575185,-0.0967979,0.254154,-0.00077486,0.01277,0.495504,5,0.1
0,7.3,-0.655029,1.50001,0.599999,0.318132,-3.7998e-05,-1.39698e-06,0.0916161,8.9407e-05,3.72529e-06,0.00989864,0.14105,5,0.1,1,7.3,-0.204094,3.37588,0.982887,-0.077811,0.44965,0.00565173,0.00339374,-0.115335,0.0490882,0.0112812,0.13486,5,0.1,2,7.3,-4.60479,-3.80519,0.563296,5.88596e-05,0.000130758,9.96515e-06,0.000268221,-0.000104308,-1.11759e-05,0.00793445,2.1343e-08,5,0.1,3,7.3,0.895785,3.31126,0.600449,0.040841,-0.0281885,-0.0007472,-0.293437,-0.00232458,0.000540167,0.0126028,0.272119,5,0.1,4,7.3,-4.36368,3.55289,1.04962,0.0226751,0.384914,0.000386499,0.134408,-0.141814,-0.000111759,0.0109777,0.116711,5,0.1,5,7.3,2.10407,-4.5762,0.600007,-0.0012584,0.751218,-4.93601e-06,0.0038743,-0.559628,1.86265e-05,0.0252273,0.306219,5,0.1,6,7.3,-0.234948,2.76398,0.511569,-0.0302815,-0.701855,0.0333034,-0.138125,-0.114501,0.0358671,0.0120675,0.55289,5,0.1,7,7.3,-2.42023,2.11007,0.540071,0.000121444,1.19209e-05,1.58325e-05,-0.000208616,0,-1.49012e-05,0.0135323,3.93872e-09,5,0.1,8,7.3,0.103424,-0.334246,0.587627,-0.866025,0.0381983,-0.00365861,0,-0.00263564,0.000268221,0.00742729,2.27097,5,0.1,9,7.3,2.19964,2.01233,1.34979,0.00183471,-0.149711,0.00049863,-0.10474,0.242382,-0.000752509,0.01277,0.495504,5,0.1
0,7.4,-0.622861,1.50001,0.599998,0.323856,-2.98023e-05,-1.49012e-06,0.0090301,0,2.98023e-05,0.0121396,0.0992046,5,0.1,1,7.4,-0.211824,3.42012,0.983709,-0.0763807,0.433236,0.0108466,0.0268817,-0.222206,0.0517964,0.0102995,0.15007,5,0.1,2,7.4,-4.60478,-3.80518,0.563297,7.15256e-05,0.000119209,8.9407e-06,0.000238419,-0.000238419,-2.98023e-05,0.00769877,1.75252e-08,5,0.1,3,7.4,0.898569,3.30846,0.600377,0.0165612,-0.0275314,-0.000688434,-0.190467,0.0151396,0.000625849,0.0140658,0.257356,5,0.1,4,7.4,-4.36063,3.59063,1.04966,0.0390768,0.368893,0.000375509,0.179291,-0.190854,-0.000178814,0.0101079,0.0689449,5,0.1,5,7.4,2.10396,-4.50413,0.600007,-0.00100136,0.687575,-4.47035e-06,0.00143051,-0.712633,2.98023e-05,0.0231529,0.2644,5,0.1,6,7.4,-0.238608,2.69351,0.515055,-0.0422642,-0.703996,0.0361457,-0.0987872,0.0941753,0.0194609,0.00829462,0.38124,5,0.1,7,7.4,-2.42022,2.11007,0.540072,0.000101328,1.19209e-05,1.3411e-05,-0.000119209,0,-2.98023e-05,0.0104914,4.9498e-09,5,0.1,8,7.4,0.0168217,-0.330445,0.587263,-0.866025,0.0377238,-0.00361204,1.19209e-06,-0.00844896,0.000804663,0.00775041,2.27102,5,0.1,9,7.4,2.19937,1.99856,1.34984,-0.00647306,-0.125957,0.000423193,-0.0542402,0.232995,-0.00077486,0.0151802,0.869542,5,0.1
0,7.5,-0.590444,1.50001,0.599998,0.324017,-2.66358e-05,1.02445e-06,-0.0182502,5.21541e-05,1.86265e-05,0.0121396,0.0992046,5,0.1,1,7.5,-0.219369,3.46259,0.985115,-0.0748282,0.418017,0.017722,0.0090953,-0.109091,0.0797734,0.0102995,0.15007,5,0.1,2,7.5,-4.60478,-3.80517,0.563298,8.56817e-05,9.49949e-05,6.0536e-06,8.9407e-05,-0.00025332,-2.6077e-05,0.00769877,1.75252e-08,5,0.1,3,7.5,0.899326,3.30581,0.600312,-0.000337232,-0.025278,-0.000625104,-0.126828,0.028953,0.000648201,0.0140658,0.257356,5,0.1,4,7.5,-4.35575,3.6266,1.04969,0.058955,0.350581,0.000359677,0.206411,-0.186652,-0.000156462,0.0101079,0.0689449,5,0.1,5,7.5,2.1037,-4.43941,0.600007,-0.005408,0.603352,-2.04891e-06,-0.0794679,-0.930637,1.49012e-05,0.0231529,0.2644,5,0.1,6,7.5,-0.243304,2.62356,0.518763,-0.051318,-0.69459,0.037922,-0.079155,0.120685,0.0142902,0.00829462,0.38124,5,0.1,7,7.5,-2.42021,2.11008,0.540073,8.71718e-05,1.19209e-05,1.04308e-05,-0.000178814,0,-2.98023e-05,0.0104914,4.9498e-09,5,0.1,8,7.5,-0.0697809,-0.326701,0.586904,-0.866025,0.0372606,-0.00356864,-4.47035e-07,-0.00298582,0.000275671,0.00775041,2.27102,5,0.1,9,7.5,2.19842,1.98709,1.34988,-0.0119571,-0.103705,0.00034906,-0.0274628,0.21217,-0.000715256,0.0151802,0.869542,5,0.1
0,7.6,-0.558261,1.5,0.599999,0.318141,-2.08616e-05,1.49012e-06,-0.107467,0.000119209,2.98023e-05,0.0130651,0.207395,5,0.1,1,7.6,-0.226803,3.50385,0.987292,-0.0737153,0.406772,0.0257611,0.0167191,-0.135064,0.076592,0.0132712,0.0871809,5,0.1,2,7.6,-4.60477,-3.80516,0.563298,8.34465e-05,7.15256e-05,2.98023e-06,-0.000238419,-0.000238419,0,0.00789194,1.01628e-08,5,0.1,3,7.6,0.898884,3.30344,0.600253,-0.00603795,-0.0219226,-0.000557303,0.0197291,0.0371933,0.000685453,0.0115851,0.219225,5,0.1,4,7.6,-4.34886,3.66065,1.04973,0.0783086,0.329679,0.000342727,0.172138,-0.238657,-0.000238419,0.0125659,0.0634077,5,0.1,5,7.6,2.1027,-4.38382,0.600007,-0.0150979,0.508118,-1.49012e-06,-0.106454,-0.948191,2.98023e-05,0.027798,0.221223,5,0.1,6,7.6,-0.248778,2.55492,0.522606,-0.0575785,-0.675404,0.0387073,-0.0440255,0.280976,0.000298023,0.00771022,0.256856,5,0.1,7,7.6,-2.4202,2.11008,0.540074,6.55651e-05,5.96046e-06,7.45058e-06,-0.000119209,0.000119209,-2.98023e-05,0.0131106,5.44848e-09,5,0.1,8,7.6,-0.156383,-0.322995,0.586549,-0.866026,0.0367559,-0.00352114,7.15256e-06,-0.00862777,0.000804663,0.0137988,2.27108,5,0.1,9,7.6,2.1973,1.97775,1.34991,-0.00810027,-0.0835001,0.000283122,0.115275,0.191927,-0.000655651,0.0170304,1.4088,5,0.1
0,7.7,-0.527015,1.5,0.599999,0.306278,-1.13621e-05,3.91155e-06,-0.137378,8.19564e-05,1.49012e-05,0.0130651,0.207395,5,0.1,1,7.7,-0.234102,3.54393,0.990258,-0.0722973,0.395256,0.0335416,0.0148118,-0.112683,0.075154,0.0132712,0.0871809,5,0.1,2,7.7,-4.60476,-3.80516,0.563298,5.96046e-05,4.80562e-05,2.8871e-06,-0.000238419,-0.000223517,-3.72529e-06,0.00789194,1.01628e-08,5,0.1,3,7.7,0.898552,3.30144,0.6002,0.00206307,-0.0179969,-0.000488758,0.173852,0.040561,0.000685453,0.0115851,0.219225,5,0.1,4,7.7,-4.34037,3.69251,1.04976,0.0894554,0.308114,0.000322796,0.0546873,-0.204623,-0.000171363,0.0125659,0.0634077,5,0.1,5,7.7,2.1006,-4.33771,0.600007,-0.0273369,0.415735,9.31323e-07,-0.130713,-0.851631,1.49012e-05,0.027798,0.221223,5,0.1,6,7.7,-0.254738,2.48873,0.526477,-0.0613747,-0.648445,0.0386452,-0.0293991,0.280216,-0.00298023,0.00771022,0.256856,5,0.1,7,7.7,-2.42019,2.11008,0.540075,5.17815e-05,1.56462e-05,4.56348e-06,-0.000163913,5.96046e-05,-2.6077e-05,0.0131106,5.44848e-09,5,0.1,8,7.7,-0.242986,-0.319349,0.5862,-0.866025,0.036259,-0.0034756,1.78814e-06,-0.00339933,0.000301749,0.0137988,2.27108,5,0.1,9,7.7,2.19715,1.97031,1.34993,0.00814311,-0.0656752,0.000222027,0.285074,0.164963,-0.000566244,0.0170304,1.4088,5,0.1
0,7.8,-0.497174,1.5,0.599999,0.289437,-5.96046e-06,4.47035e-06,-0.204116,5.96046e-05,2.98023e-05,0.0074388,0.192405,5,0.1,1,7.8,-0.24124,3.58281,0.99396,-0.0702195,0.381297,0.0401348,0.0289157,-0.178456,0.053972,0.00971708,0.0957834,5,0.1,2,7.8,-4.60476,-3.80515,0.563299,3.57628e-05,2.98023e-05,1.49012e-06,-0.000238419,-0.000238419,2.98023e-05,0.00708264,1.00133e-08,5,0.1,3,7.8,0.9,3.29985,0.600155,0.0303358,-0.0139475,-0.000420213,0.376105,0.0399351,0.000715256,0.0134595,0.156737,5,0.1,4,7.8,-4.33132,3.72228,1.04979,0.0900269,0.28674,0.000303984,-0.0393391,-0.231028,-0.000238419,0.0101578,0.201035,5,0.1,5,7.8,2.09722,-4.3,0.600007,-0.0399172,0.342512,1.49012e-06,-0.115275,-0.613213,0,0.0241749,0.179579,5,0.1,6,7.8,-0.260981,2.42543,0.530311,-0.0630483,-0.615692,0.0378728,-0.00248849,0.389576,-0.013411,0.00782476,0.17093,5,0.1,7,7.8,-2.42019,2.11008,0.540075,3.57628e-05,1.78814e-05,1.49012e-06,-0.000238419,0,0,0.00810006,4.07481e-09,5,0.1,8,7.8,-0.329589,-0.315745,0.585854,-0.866025,0.0357196,-0.00342578,-1.43051e-05,-0.00886619,0.000834465,0.0122617,2.00538,5,0.1,9,7.8,2.2,1.96452,1.34995,0.0547051,-0.0504375,0.000172853,0.628352,0.14025,-0.000536442,0.0148894,1.91863,5,0.1
0,7.9,-0.469264,1.50001,0.6,0.268501,0.000253692,6.51926e-06,-0.219153,0.00424683,7.45058e-06,0.0074388,0.192405,5,0.1,1,7.9,-0.248297,3.62007,0.998229,-0.0723867,0.363675,0.0450514,-0.0588261,-0.184938,0.0419691,0.00971708,0.0957834,5,0.1,2,7.9,-4.60475,-3.80515,0.563299,1.2666e-05,8.19564e-06,3.53903e-06,-0.000208616,-0.000178814,7.45058e-06,0.00708264,1.00133e-08,5,0.1,3,7.9,0.905283,3.29865,0.600116,0.078042,-0.0100568,-0.000351015,0.540681,0.0374019,0.000666827,0.0134595,0.156737,5,0.1,4,7.9,-4.32265,3.74982,1.04982,0.0821576,0.26406,0.000282191,-0.112653,-0.228524,-0.000216067,0.0101578,0.201035,5,0.1,5,7.9,2.09264,-4.2683,0.600007,-0.0516236,0.29599,1.39698e-06,-0.11304,-0.344843,-3.72529e-06,0.0241749,0.179579,5,0.1,6,7.9,-0.26729,2.36572,0.534033,-0.0629869,-0.578924,0.0365416,0.00577234,0.364095,-0.014402,0.00782476,0.17093,5,0.1,7,7.9,-2.42019,2.11008,0.540075,1.37836e-05,1.63913e-05,1.11759e-06,-0.000193715,-2.98023e-05,-7.45058e-06,0.00810006,4.07481e-09,5,0.1,8,7.9,-0.416191,-0.312207,0.585515,-0.866025,0.0351003,-0.00336813,3.57628e-06,-0.00533648,0.000495464,0.0122617,2.00538,5,0.1,9,7.9,2.20969,1.96014,1.34997,0.147641,-0.0376943,0.000124611,1.14092,0.115067,-0.000424683,0.0148894,1.91863,5,0.1
0,8,-0.443564,1.50006,0.600001,0.244885,0.000688434,7.45058e-06,-0.255838,0.00393391,0,0.0126145,0.405133,5,0.1,1,8,-0.255884,3.65543,1.00291,-0.0796251,0.342488,0.0481337,-0.0757724,-0.245929,0.0181198,0.00994437,0.101185,5,0.1,2,8,-4.60475,-3.80515,0.563299,0,-5.96046e-06,4.47035e-06,-0.000238419,-0.000119209,0,0.00827972,7.97053e-09,5,0.1,3,8,0.91581,3.29782,0.600084,0.131978,-0.00655055,-0.000286102,0.510365,0.0323057,0.000596046,0.0173383,0.0956541,5,0.1,4,8,-4.31508,3.77505,1.04985,0.0685334,0.240058,0.00025928,-0.155449,-0.255346,-0.000238419,0.00773123,0.1924,5,0.1,5,8,2.08696,-4.24017,0.600007,-0.0615418,0.268662,0,-0.0811815,-0.223398,2.98023e-05,0.0259917,0.24358,5,0.1,6,8,-0.273533,2.30973,0.537605,-0.0615582,-0.539804,0.0347957,0.0241399,0.430584,-0.0213385,0.0094742,0.113278,5,0.1,7,8,-2.42019,2.11008,0.540075,0,1.19209e-05,0,-0.000238419,0,0,0.0132745,3.93252e-09,5,0.1,8,8,-0.502794,-0.30873,0.585181,-0.866026,0.0343435,-0.00329614,0,-0.0110716,0.00101328,0.015427,1.57548,5,0.1,9,8,2.2304,1.95691,1.34998,0.267148,-0.0273317,8.64267e-05,1.18136,0.092566,-0.000298023,0.0103095,1.55807,5,0.1
0,8.1,-0.420343,1.50024,0.600001,0.219572,0.00372808,6.98492e-06,-0.253163,0.043951,-1.11759e-05,0.0126145,0.405133,5,0.1,1,8.1,-0.264112,3.68853,1.00781,-0.0838167,0.319947,0.049841,-0.00867061,-0.216603,0.0135005,0.00994437,0.101185,5,0.1,2,8.1,-4.60475,-3.80515,0.5633,-2.01166e-05,-1.60187e-05,4.00469e-06,-0.000149012,-7.45058e-05,-1.11759e-05,0.00827972,7.97053e-09,5,0.1,3,8.1,0.931557,3.29732,0.600059,0.182391,-0.00355169,-0.000229292,0.476178,0.0274181,0.000536442,0.0173383,0.0956541,5,0.1,4,8.1,-4.30905,3.79778,1.04987,0.0517391,0.214712,0.000235438,-0.174433,-0.254124,-0.000238419,0.00773123,0.1924,5,0.1,5,8.1,2.08032,-4.21383,0.600007,-0.071647,0.262804,1.86265e-06,-0.111222,0.0651777,1.49012e-05,0.0259917,0.24358,5,0.1,6,8.1,-0.279568,2.25779,0.540982,-0.0590974,-0.499634,0.0327574,0.0267923,0.388116,-0.020422,0.0094742,0.113278,5,0.1,7,8.1,-2.42019,2.11008,0.540075,-2.01166e-05,1.15484e-05,-9.31323e-08,-0.000149012,-1.49012e-05,-3.72529e-06,0.0132745,3.93252e-09,5,0.1,8,8.1,-0.589394,-0.305344,0.584856,-0.865941,0.0334021,-0.0032099,0.00338256,-0.00921637,0.000856817,0.015427,1.57548,5,0.1,9,8.1,2.26335,1.9546,1.34998,0.393515,-0.0190971,5.99772e-05,1.27833,0.0725761,-0.000238419,0.0103095,1.55807,5,0.1
0,8.2,-0.399665,1.50082,0.600002,0.193819,0.00739992,5.96046e-06,-0.263482,0.0216365,0,0.0100099,1.06357,5,0.1,1,8.2,-0.272432,3.71941,1.01284,-0.0815541,0.297201,0.0504166,0.0525862,-0.246167,-0.00369549,0.0114821,0.231819,5,0.1,2,8.2,-4.60476,-3.80515,0.5633,-2.38419e-05,-1.78814e-05,2.98023e-06,-0.000476837,-0.000119209,0,0.00890614,1.81621e-08,5,0.1,3,8.2,0.951975,3.29709,0.600038,0.223555,-0.00110865,-0.000178814,0.332266,0.0211,0.000506639,0.0163023,0.126264,5,0.1,4,8.2,-4.30474,3.81797,1.0499,0.0346541,0.188845,0.000211596,-0.162363,-0.264645,-0.000238419,0.00794555,0.189557,5,0.1,5,8.2,2.07262,-4.18703,0.600007,-0.0821054,0.274467,1.49012e-06,-0.0908375,0.136852,2.98023e-05,0.0279308,0.157951,5,0.1,6,8.2,-0.285328,2.2098,0.544151,-0.0559159,-0.459599,0.0305459,0.0379384,0.423312,-0.0244677,0.0105733,0.129152,5,0.1,7,8.2,-2.42019,2.11009,0.540075,-2.98023e-05,5.96046e-06,0,-0.000119209,0.000119209,-2.98023e-05,0.0120924,4.33066e-09,5,0.1,8,8.2,-0.675945,-0.302057,0.58454,-0.864674,0.0322528,-0.00310242,0.0270307,-0.014782,0.00140071,0.0105025,1.20257,5,0.1,9,8.2,2.3088,1.95302,1.34999,0.511169,-0.0127286,4.17233e-05,1.02603,0.0551343,-0.000238419,0.010013,1.19912,5,0.1
0,8.3,-0.38159,1.50177,0.600003,0.167783,0.011701,5.58794e-06,-0.257637,0.0289753,-7.45058e-06,0.0100099,1.06357,5,0.1,1,8.3,-0.280204,3.74787,1.01812,-0.0728389,0.271747,0.0572613,0.115789,-0.265732,0.12242,0.0114821,0.231819,5,0.1,2,8.3,-4.60476,-3.80516,0.5633,-5.88596e-05,-2.75671e-05,2.51457e-06,-0.000268221,-5.96046e-05,-1.11759e-05,0.00890614,1.81621e-08,5,0.1,3,8.3,0.976048,3.29708,0.600023,0.257889,0.000721961,-0.000132155,0.331588,0.0154972,0.000428408,0.0163023,0.126264,5,0.1,4,8.3,-4.30204,3.83555,1.04992,0.0198647,0.162943,0.000187755,-0.130534,-0.254184,-0.000238419,0.00794555,0.189557,5,0.1,5,8.3,2.06395,-4.15871,0.600007,-0.0910826,0.293118,3.25963e-06,-0.0824928,0.208855,1.11759e-05,0.0279308,0.157951,5,0.1,6,8.3,-0.290763,2.16562,0.547104,-0.0530384,-0.426781,0.0286749,0.02281,0.260204,-0.0147447,0.0105733,0.129152,5,0.1,7,8.3,-2.42019,2.11009,0.540075,-3.91155e-05,1.41561e-05,-2.51457e-06,-4.47035e-05,2.98023e-05,-1.86265e-05,0.0120924,4.33066e-09,5,0.1,8,8.3,-0.762401,-0.2989,0.584236,-0.864955,0.0309119,-0.00297502,-0.00446662,-0.0132285,0.00125915,0.0105025,1.20257,5,0.1,9,8.3,2.36505,1.952,1.34999,0.612566,-0.00794362,2.14204e-05,0.949949,0.0409558,-0.000171363,0.010013,1.19912,5,0.1
0,8.4,-0.366092,1.50289,0.600003,0.142251,0.00816882,4.47035e-06,-0.253022,-0.11462,0,0.00766528,3.60757,5,0.1,1,8.4,-0.286845,3.77367,1.02454,-0.059475,0.24364,0.0716925,0.146613,-0.297904,0.152349,0.0116033,3.02776,5,0.1,2,8.4,-4.60477,-3.80516,0.5633,-7.15256e-05,-2.98023e-05,2.98023e-06,-0.000238419,0,-5.96046e-05,0.00858549,1.5147e-08,5,0.1,3,8.4,1.00334,3.29722,0.600012,0.285995,0.00199676,-9.38773e-05,0.214577,0.00989437,0.000327826,0.0127002,0.199064,5,0.1,4,8.4,-4.30064,3.85059,1.04993,0.0089407,0.137901,0.000163913,-0.0870228,-0.247121,-0.000298023,0.0125958,0.188477,5,0.1,5,8.4,2.05449,-4.12842,0.600008,-0.0975549,0.311553,2.98023e-06,-0.0426769,0.14019,2.98023e-05,0.0260495,0.0959046,5,0.1,6,8.4,-0.295956,2.12416,0.549902,-0.050801,-0.40285,0.0272855,0.0242442,0.23818,-0.0143349,0.00853102,0.0747836,5,0.1,7,8.4,-2.4202,2.11009,0.540075,-4.17233e-05,1.78814e-05,-2.98023e-06,0,-0.000119209,-2.98023e-05,0.0100201,2.3163e-09,5,0.1,8,8.4,-0.848789,-0.29588,0.583945,-0.861053,0.029406,-0.00283122,0.0993907,-0.0176728,0.00169873,0.0132489,0.889981,5,0.1,9,8.4,2.43058,1.95139,1.34999,0.692374,-0.00446439,8.9407e-06,0.610352,0.0289083,-0.000178814,0.00951776,1.43513,5,0.1
0,8.5,-0.352875,1.50319,0.600063,0.124305,-0.00581574,0.00170544,-0.1201,-0.315659,0.0302345,0.00766528,3.60757,5,0.1,1,8.5,-0.292041,3.79747,1.03244,-0.0443617,0.240228,0.0857864,0.151731,0.17035,0.124127,0.0116033,3.02776,5,0.1,2,8.5,-4.60478,-3.80516,0.5633,-8.56817e-05,-2.83122e-05,-1.95578e-06,-8.9407e-05,2.98023e-05,-3.35276e-05,0.00858549,1.5147e-08,5,0.1,3,8.5,1.03323,3.29746,0.600004,0.313121,0.00279285,-6.42613e-05,0.296056,0.00606477,0.00026077,0.0127002,0.199064,5,0.1,4,8.5,-4.3001,3.86318,1.04995,0.00252724,0.114428,0.000135973,-0.0425577,-0.222981,-0.00025332,0.0125958,0.188477,5,0.1,5,8.5,2.04462,-4.09655,0.600008,-0.0988513,0.325363,4.74975e-06,0.0157058,0.118643,1.11759e-05,0.0260495,0.0959046,5,0.1,6,8.5,-0.300927,2.08492,0.552567,-0.0486908,-0.382787,0.0260652,0.0200439,0.180915,-0.0112467,0.00853102,0.0747836,5,0.1,7,8.5,-2.4202,2.11009,0.540074,-3.98606e-05,7.45058e-06,-5.40167e-06,4.47035e-05,-8.9407e-05,-1.49012e-05,0.0100201,2.3163e-09,5,0.1,8,8.5,-0.934646,-0.293022,0.58367,-0.857364,0.0277767,-0.00267439,0.0214428,-0.0158902,0.00152737,0.0132489,0.889981,5,0.1,9,8.5,2.5031,1.95107,1.34999,0.758649,-0.00204444,-5.40167e-06,0.654638,0.0197887,-0.000111759,0.00951776,1.43513,5,0.1
0,8.6,-0.340921,1.5,0.600409,0.115713,-0.0680804,0.00538081,-0.0627041,-0.910282,0.0403225,0.0084143,3.16062,5,0.1,1,8.6,-0.295737,3.82272,1.04155,-0.0298001,0.267214,0.0956237,0.136718,0.323415,0.0690818,0.0129086,2.86977,5,0.1,2,8.6,-4.60478,-3.80517,0.5633,-8.34465e-05,-2.38419e-05,-5.96046e-06,0.000238419,0,0,0.00771525,7.07783e-09,5,0.1,3,8.6,1.06594,3.29777,0.599999,0.339726,0.00321865,-4.02331e-05,0.212967,0.0025034,0.000178814,0.0128167,0.121754,5,0.1,4,8.6,-4.3,3.87355,1.04996,0,0.0931978,0.000110269,-0.0109673,-0.202179,-0.000238419,0.00965856,0.316426,5,0.1,5,8.6,2.0349,-4.06358,0.600009,-0.0946581,0.332367,4.47035e-06,0.0668764,0.00953674,0,0.0271762,0.0758949,5,0.1,6,8.6,-0.305689,2.04757,0.555114,-0.0464395,-0.363624,0.0248358,0.0264049,0.215054,-0.0141263,0.00884101,0.0578063,5,0.1,7,8.6,-2.42021,2.11009,0.540074,-3.57628e-05,0,-5.96046e-06,0,-0.000119209,0,0.0133939,2.42802e-09,5,0.1,8,8.6,-1.02009,-0.290328,0.583411,-0.848761,0.0260636,-0.00250936,0.183582,-0.0190735,0.00184774,0.0125907,0.634996,5,0.1,9,8.6,2.5819,1.95096,1.34999,0.812978,-0.000447035,-1.49012e-05,0.389218,0.0124574,0,0.00906807,0.417886,5,0.1
0,8.7,-0.329523,1.48733,0.601172,0.113358,-0.195415,0.0100136,0.00403263,-1.52352,0.0494719,0.0084143,3.16062,5,0.1,1,8.7,-0.298052,3.85145,1.05144,-0.0167888,0.310131,0.10165,0.120167,0.489727,0.0471324,0.0129086,2.86977,5,0.1,2,8.7,-4.60479,-3.80517,0.5633,-5.96046e-05,-2.23517e-05,-5.86733e-06,0.000238419,2.98023e-05,3.72529e-06,0.00771525,7.07783e-09,5,0.1,3,8.7,1.10098,3.2981,0.599995,0.360521,0.00335425,-2.42144e-05,0.182629,0.000238419,0.000141561,0.0128167,0.121754,5,0.1,4,8.7,-4.30014,3.88189,1.04997,-0.0032492,0.0740435,8.77306e-05,-0.0428259,-0.180677,-0.000201166,0.00965856,0.316426,5,0.1,5,8.7,2.02587,-4.03023,0.600009,-0.0851538,0.334615,3.53903e-06,0.119135,0.0172555,-2.23517e-05,0.0271762,0.0758949,5,0.1,6,8.7,-0.310217,2.01213,0.557537,-0.044229,-0.346256,0.0236789,0.0199769,0.150815,-0.0102296,0.00884101,0.0578063,5,0.1,7,8.7,-2.42021,2.11009,0.540073,-3.39001e-05,-1.00583e-05,-5.58794e-06,4.47035e-05,-7.45058e-05,7.45058e-06,0.0133939,2.42802e-09,5,0.1,8,8.7,-1.1042,-0.287811,0.583169,-0.83391,0.0243031,-0.00233864,0.151165,-0.0169501,0.00164285,0.0125907,0.634996,5,0.1,9,8.7,2.66473,1.95096,1.34999,0.838904,0.000522472,-1.39698e-05,0.111341,0.00716001,2.23517e-05,0.00906807,0.417886,5,0.1
0,8.8,-0.318135,1.45993,0.602416,0.114501,-0.352949,0.014779,0.0102222,-1.54167,0.0436604,0.00885481,2.68561,5,0.1,1,8.8,-0.299179,3.88488,1.06177,-0.0063017,0.357312,0.104344,0.087589,0.42069,0.00399351,0.0127875,0.399676,5,0.1,2,8.8,-4.6048,-3.80517,0.563299,-3.57628e-05,-1.78814e-05,-5.96046e-06,0.000238419,0,2.98023e-05,0.00775477,7.11483e-09,5,0.1,3,8.8,1.13776,3.29843,0.599994,0.372848,0.00327229,-1.19209e-05,0.0501275,-0.00166893,0.000119209,0.0125641,0.0664833,5,0.1,4,8.8,-4.30066,3.88843,1.04998,-0.00677109,0.0570953,6.85453e-05,-0.0202656,-0.158072,-0.000178814,0.0138198,0.299234,5,0.1,5,8.8,2.018,-3.99679,0.600009,-0.0715911,0.332767,1.49012e-06,0.148416,-0.0665188,0,0.0241329,0.150881,5,0.1,6,8.8,-0.314536,1.97828,0.559852,-0.0420757,-0.330311,0.0225812,0.0246167,0.181079,-0.0125468,0.00902631,0.0261239,5,0.1,7,8.8,-2.42021,2.11009,0.540073,-2.98023e-05,-1.19209e-05,-4.47035e-06,0.000119209,-0.000119209,0,0.0110769,2.345e-09,5,0.1,8,8.8,-1.18663,-0.285468,0.582943,-0.812161,0.0225365,-0.00216812,0.309765,-0.0189394,0.00181794,0.0130668,0.441138,5,0.1,9,8.8,2.7486,1.95105,1.34999,0.832492,0.00102818,-1.19209e-05,-0.249028,0.00315905,0,0.0133438,1.33764,5,0.1
0,8.9,-0.306557,1.4165,0.604118,0.117569,-0.517714,0.0192553,0.0414234,-1.6655,0.0435859,0.00885481,2.68561,5,0.1,1,8.9,-0.299403,3.92163,1.07197,0.0013872,0.367954,0.0973357,0.0617616,-0.165656,-0.131883,0.0127875,0.399676,5,0.1,2,8.9,-4.6048,-3.80517,0.563299,-1.2666e-05,-1.63913e-05,-3.44589e-06,0.000208616,2.98023e-05,1.86265e-05,0.00775477,7.11483e-09,5,0.1,3,8.9,1.17523,3.29875,0.599993,0.375582,0.0030499,-1.76951e-06,-0.00789016,-0.00272691,8.56817e-05,0.0125641,0.0664833,5,0.1,4,8.9,-4.30148,3.89339,1.04999,-0.0094533,0.0424936,5.17815e-05,-0.0103712,-0.133932,-0.000149012,0.0138198,0.299234,5,0.1,5,8.9,2.01161,-3.96389,0.60001,-0.0560492,0.324529,9.31323e-07,0.158995,-0.107214,-1.49012e-05,0.0241329,0.150881,5,0.1,6,8.9,-0.318623,1.94613,0.562048,-0.0396458,-0.312679,0.0213487,0.0251029,0.181302,-0.0127405,0.00902631,0.0261239,5,0.1,7,8.9,-2.42021,2.11009,0.540072,-1.82539e-05,-2.16067e-05,-4.09782e-06,0.000104308,-5.96046e-05,7.45058e-06,0.0110769,2.345e-09,5,0.1,8,8.9,-1.26642,-0.283303,0.582735,-0.784032,0.0207934,-0.00200076,0.28345,-0.016598,0.00159815,0.0130668,0.441138,5,0.1,9,8.9,2.83123,1.95116,1.34999,0.824746,0.00120141,-1.09896e-05,0.0288785,0.000476837,2.23517e-05,0.0133438,1.33764,5,0.1
0,9,-0.294607,1.35679,0.606246,0.121113,-0.670883,0.0231102,0.0224411,-1.33425,0.0318289,0.00719782,2.38486,5,0.1,1,9,-0.299026,3.95692,1.0809,0.00541136,0.331903,0.0801861,0.0167936,-0.520229,-0.201285,0.0116535,0.438024,5,0.1,2,9,-4.6048,-3.80517,0.563298,0,-1.19209e-05,-1.49012e-06,0.000238419,0,0,0.00947569,6.84059e-09,5,0.1,3,9,1.21257,3.29904,0.599993,0.369242,0.00272989,4.47035e-06,-0.126898,-0.00345707,8.9407e-05,0.0125943,0.0444153,5,0.1,4,9,-4.30232,3.89701,1.04999,-0.0056386,0.030297,3.8743e-05,0.0956059,-0.110149,-0.000119209,0.00871319,0.260805,5,0.1,5,9,2.0068,-3.9321,0.60001,-0.0403941,0.309879,-1.49012e-06,0.151515,-0.191212,0,0.0275916,0.254398,5,0.1,6,9,-0.322454,1.91583,0.564115,-0.0368714,-0.292441,0.0199288,0.0311136,0.229657,-0.0160635,0.0089794,0.0100677,5,0.1,7,9,-2.42022,2.11008,0.540072,-1.19209e-05,-2.38419e-05,-2.98023e-06,0.000119209,0,0,0.0133894,2.11334e-09,5,0.1,8,9,-1.34325,-0.281307,0.582543,-0.750315,0.0191025,-0.00183731,0.411749,-0.0177026,0.00169873,0.0127785,0.300765,5,0.1,9,9,2.91387,1.95128,1.34999,0.826979,0.00115633,-8.9407e-06,-0.0317097,-0.0013113,0,0.00892895,1.00197,5,0.1
0,9.1,-0.282334,1.2837,0.608717,0.124628,-0.783613,0.0262828,0.0391919,-0.89518,0.0296421,0.00719782,2.38486,5,0.1,1,9.1,-0.298321,3.98719,1.08787,0.00874107,0.271046,0.058784,0.0215415,-0.674367,-0.220776,0.0116535,0.438024,5,0.1,2,9.1,-4.6048,-3.80517,0.563298,2.01166e-05,-1.04308e-05,-1.49012e-06,0.000149012,2.98023e-05,0,0.00947569,6.84059e-09,5,0.1,3,9.1,1.24889,3.29929,0.599994,0.357054,0.00234619,1.1269e-05,-0.130236,-0.00414252,4.84288e-05,0.0125943,0.0444153,5,0.1,4,9.1,-4.30228,3.89952,1.04999,0.00856444,0.0203688,2.79397e-05,0.219852,-0.0885576,-8.9407e-05,0.00871319,0.260805,5,0.1,5,9.1,2.00349,-3.90216,0.600009,-0.0261124,0.288031,-1.95578e-06,0.131473,-0.246629,-1.11759e-05,0.0275916,0.254398,5,0.1,6,9.1,-0.325984,1.88774,0.566027,-0.0337147,-0.26908,0.0182941,0.0325106,0.241965,-0.0169091,0.0089794,0.0100677,5,0.1,7,9.1,-2.42022,2.11008,0.540072,-1.86265e-06,-2.23517e-05,-2.6077e-06,7.45058e-05,2.98023e-05,7.45058e-06,0.0133894,2.11334e-09,5,0.1,8,9.1,-1.41634,-0.27948,0.582367,-0.712184,0.0174804,-0.0016815,0.376046,-0.0153072,0.00147149,0.0127785,0.300765,5,0.1,9,9.1,2.99671,1.95139,1.34999,0.831638,0.000965782,-8.00937e-06,0.0735819,-0.00237674,2.23517e-05,0.00892895,1.00197,5,0.1
0,9.2,-0.269706,1.20172,0.611477,0.127471,-0.847238,0.0287041,0.0115037,-0.375748,0.0174344,0.00774048,2.27486,5,0.1,1,9.2,-0.2975,4.01083,1.09265,0.00572056,0.201058,0.037083,-0.0936836,-0.707388,-0.208735,0.0131684,3.52383,5,0.1,2,9.2,-4.6048,-3.80518,0.563298,2.38419e-05,-5.96046e-06,-1.49012e-06,0.000476837,0,0,0.00700945,1.74537e-08,5,0.1,3,9.2,1.28385,3.2995,0.599995,0.340977,0.00191331,1.49012e-05,-0.200093,-0.00429153,2.98023e-05,0.0103498,0.0794954,5,0.1,4,9.2,-4.3,3.90115,1.05,0.040102,0.0125468,1.78814e-05,0.396967,-0.0679493,0,0.00804606,0.199831,5,0.1,5,9.2,2.00148,-3.87469,0.600009,-0.0145018,0.260484,-2.98023e-06,0.0995398,-0.303984,0,0.0265895,0.248207,5,0.1,6,9.2,-0.329188,1.86209,0.567769,-0.0302926,-0.243357,0.016503,0.0362098,0.275016,-0.0191033,0.00771511,0.00520725,5,0.1,7,9.2,-2.42022,2.11008,0.540071,5.96046e-06,-1.78814e-05,-1.49012e-06,0,0,0,0.0076536,1.72198e-09,5,0.1,8,9.2,-1.48557,-0.277808,0.582206,-0.670871,0.0159457,-0.00153333,0.4673,-0.0157952,0.00151992,0.00768939,0.202779,5,0.1,9,9.2,3.08008,1.95147,1.34999,0.832945,0.000703335,-8.9407e-06,-0.0840425,-0.00268221,0.000119209,0.00877407,0.518332,5,0.1
0,9.3,-0.256858,1.11584,0.614438,0.129708,-0.864851,0.0304881,0.025061,-0.0469685,0.0163838,0.00774048,2.27486,5,0.1,1,9.3,-0.297338,4.02874,1.09501,-0.00539366,0.168964,0.00773147,-0.254788,-0.00610948,-0.35429,0.0131684,3.52383,5,0.1,2,9.3,-4.60479,-3.80518,0.563298,5.88596e-05,-5.58794e-06,-1.49012e-06,0.000268221,1.49012e-05,0,0.00700945,1.74537e-08,5,0.1,3,9.3,1.31715,3.29967,0.599997,0.326459,0.0014849,1.66707e-05,-0.110611,-0.00420213,1.11759e-05,0.0103498,0.0794954,5,0.1,4,9.3,-4.29365,3.9021,1.05,0.0894338,0.00659749,1.69501e-05,0.553489,-0.05126,-2.23517e-05,0.00804606,0.199831,5,0.1,5,9.3,2.00047,-3.85017,0.600009,-0.00637136,0.22964,-3.35276e-06,0.0641495,-0.313118,-7.45058e-06,0.0265895,0.248207,5,0.1,6,9.3,-0.332039,1.83911,0.569325,-0.0267511,-0.216399,0.0146315,0.0349898,0.267483,-0.0185408,0.00771511,0.00520725,5,0.1,7,9.3,-2.42022,2.11008,0.540071,5.96046e-06,-1.63913e-05,-1.39698e-06,0,2.98023e-05,3.72529e-06,0.0076536,1.72198e-09,5,0.1,8,9.3,-1.55045,-0.276288,0.58206,-0.627562,0.0145047,-0.00139475,0.419758,-0.0134949,0.0012964,0.00768939,0.202779,5,0.1,9,9.3,3.16295,1.95153,1.34999,0.823869,0.000419095,1.11759e-06,-0.128433,-0.00290573,7.45058e-05,0.00877407,0.518332,5,0.1
0,9.4,-0.243794,1.02927,0.617554,0.131091,-0.866024,0.031665,-0.0031516,-2.98023e-05,0.00590086,0.00955874,2.25988,5,0.1,1,9.4,-0.3,4.04628,1.09394,-0.0563025,0.187051,-0.0295401,-0.747845,0.311613,-0.372708,0.0166199,3.06734,5,0.1,2,9.4,-4.60478,-3.80518,0.563298,7.15256e-05,0,-1.49012e-06,0.000238419,-0.000119209,2.98023e-05,0.00825313,1.68647e-08,5,0.1,3,9.4,1.34925,3.2998,0.599999,0.315353,0.00107884,1.63913e-05,-0.126243,-0.0038147,-2.98023e-05,0.0129821,0.154814,5,0.1,4,9.4,-4.28193,3.90253,1.05,0.144482,0.00224113,1.78814e-05,0.520468,-0.035882,-0.000119209,0.0117672,0.135744,5,0.1,5,9.4,2.0001,-3.82879,0.600008,-0.00145435,0.19787,-4.47035e-06,0.0354052,-0.322104,0,0.0253136,0.494904,5,0.1,6,9.4,-0.334539,1.81882,0.570695,-0.0232369,-0.189346,0.0127614,0.0354797,0.275433,-0.0189543,0.010978,0.00158624,5,0.1,7,9.4,-2.42022,2.11008,0.540071,5.96046e-06,-1.19209e-05,-1.49012e-06,0,0,2.98023e-05,0.0118089,2.13787e-09,5,0.1,8,9.4,-1.61105,-0.274904,0.581927,-0.583404,0.0131667,-0.00126511,0.477731,-0.0136197,0.0012815,0.01106,0.136027,5,0.1,9,9.4,3.24442,1.95155,1.34999,0.8021,0.000137091,8.9407e-06,-0.327349,-0.00268221,0,0.00916776,0.984782,5,0.1
0,9.5,-0.230657,0.942663,0.620756,0.131878,-0.866026,0.0323864,0.0110213,0,0.00671297,0.00955874,2.25988,5,0.1,1,9.5,-0.310463,4.06715,1.08903,-0.16149,0.235015,-0.0690389,-1.26186,0.592411,-0.399053,0.0166199,3.06734,5,0.1,2,9.5,-4.60478,-3.80518,0.563298,8.56817e-05,-8.19564e-06,9.31323e-07,8.9407e-05,-2.98023e-05,1.49012e-05,0.00825313,1.68647e-08,5,0.1,3,9.5,1.3805,3.29989,0.6,0.31234,0.000726432,1.3411e-05,0.035122,-0.00321865,-2.98023e-05,0.0129821,0.154814,5,0.1,4,9.5,-4.26485,3.90259,1.05,0.196679,-0.00076443,7.82311e-06,0.500083,-0.0244677,-7.45058e-05,0.0117672,0.135744,5,0.1,5,9.5,2.00021,-3.81058,0.600008,0.00403747,0.16661,-4.56348e-06,0.0614822,-0.303194,-3.72529e-06,0.0253136,0.494904,5,0.1,6,9.5,-0.336688,1.80124,0.571878,-0.0197735,-0.162344,0.0109062,0.0338461,0.265226,-0.0181869,0.010978,0.00158624,5,0.1,7,9.5,-2.42021,2.11007,0.540071,5.96046e-06,-1.04308e-05,1.02445e-06,0,2.98023e-05,1.86265e-05,0.0118089,2.13787e-09,5,0.1,8,9.5,-1.66714,-0.273651,0.581806,-0.539303,0.0119296,-0.00114841,0.42171,-0.0115186,0.00109151,0.01106,0.136027,5,0.1,9,9.5,3.32352,1.95155,1.34999,0.783702,-0.00012517,8.9407e-06,-0.0957847,-0.0025034,0,0.00916776,0.984782,5,0.1
0,9.6,-0.217444,0.85606,0.624017,0.131951,-0.866026,0.0326991,-0.0151247,0,-0.00169873,0.00779612,2.26011,5,0.1,1,9.6,-0.333132,4.0937,1.08021,-0.292149,0.295854,-0.10621,-1.28007,0.582933,-0.331223,0.0145889,2.65342,5,0.1,2,9.6,-4.60477,-3.80518,0.563298,8.34465e-05,-1.19209e-05,2.98023e-06,-0.000238419,0,-2.98023e-05,0.00824129,8.79726e-09,5,0.1,3,9.6,1.41197,3.29995,0.600001,0.31701,0.000441074,8.9407e-06,0.0354052,-0.0025034,0,0.0117067,0.095666,5,0.1,4,9.6,-4.24288,3.90241,1.05,0.240505,-0.00270009,0,0.360489,-0.0145435,0,0.0123515,0.113452,5,0.1,5,9.6,2.00088,-3.79541,0.600007,0.00878572,0.137234,-4.47035e-06,0.0258684,-0.284314,-2.98023e-05,0.0227755,1.1655,5,0.1,6,9.6,-0.338499,1.78632,0.572878,-0.0164613,-0.136223,0.00911951,0.0324398,0.257373,-0.0175536,0.0076904,0.000752393,5,0.1,7,9.6,-2.42021,2.11007,0.540071,5.96046e-06,-5.96046e-06,2.98023e-06,0,0,0,0.00842073,1.52389e-09,5,0.1,8,9.6,-1.71894,-0.272515,0.581697,-0.496125,0.0107951,-0.0010401,0.453949,-0.0114143,0.00107288,0.0122525,0.157148,5,0.1,9,9.6,3.40142,1.95153,1.34999,0.773418,-0.000351667,8.9407e-06,-0.149965,-0.00196695,0,0.0176303,2.49391,5,0.1
0,9.7,-0.20428,0.769458,0.627287,0.131588,-0.866026,0.0327355,0.000218861,3.72529e-06,0.000644475,0.00779612,2.26011,5,0.1,1,9.7,-0.369116,4.12591,1.06793,-0.429326,0.345121,-0.139095,-1.38951,0.39497,-0.311866,0.0145889,2.65342,5,0.1,2,9.7,-4.60476,-3.80518,0.563298,5.96046e-05,-1.00583e-05,4.65661e-07,-0.000238419,4.47035e-05,-1.86265e-05,0.00824129,8.79726e-09,5,0.1,3,9.7,1.44395,3.29998,0.600002,0.322998,0.000224635,8.47504e-06,0.0641868,-0.00183284,-1.11759e-05,0.0117067,0.095666,5,0.1,4,9.7,-4.21699,3.90208,1.05,0.277015,-0.00376552,0,0.345677,-0.00706315,0,0.0123515,0.113452,5,0.1,5,9.7,2.00198,-3.78305,0.600007,0.0130393,0.110375,-6.89179e-06,0.0236332,-0.252962,-1.49012e-05,0.0227755,1.1655,5,0.1,6,9.7,-0.339987,1.77395,0.573705,-0.0133461,-0.111398,0.00742925,0.029806,0.238687,-0.0162236,0.0076904,0.000752393,5,0.1,7,9.7,-2.42021,2.11007,0.540072,5.96046e-06,-5.58794e-06,2.98023e-06,0,1.49012e-05,0,0.00842073,1.52389e-09,5,0.1,8,9.7,-1.76667,-0.271483,0.581598,-0.461468,0.00991379,-0.00095712,0.269637,-0.0068862,0.000651926,0.0122525,0.157148,5,0.1,9,9.7,3.47889,1.95082,1.34946,0.782622,-0.0194132,-0.015098,0.252441,-0.337258,-0.268571,0.0176303,2.49391,5,0.1
0,9.8,-0.191146,0.682855,0.630556,0.130692,-0.866026,0.0325263,-0.0235066,0,-0.00613928,0.0128617,2.2606,5,0.1,1,9.8,-0.418677,4.16204,1.05259,-0.557318,0.373673,-0.1661,-1.11693,0.171661,-0.218093,0.00936631,2.41736,5,0.1,2,9.8,-4.60476,-3.80518,0.563298,3.57628e-05,-5.96046e-06,0,-0.000238419,0,-2.98023e-05,0.00782237,8.86129e-09,5,0.1,3,9.8,1.47648,3.3,0.600003,0.326416,7.15256e-05,5.96046e-06,-0.00989437,-0.00119209,2.98023e-05,0.0114905,0.0765943,5,0.1,4,9.8,-4.18774,3.90168,1.05,0.305605,-0.00417233,0,0.20957,-0.00107288,0,0.0115548,0.0564108,5,0.1,5,9.8,2.00318,-3.77323,0.600006,0.00849962,0.0866115,-8.9407e-06,-0.128865,-0.222325,2.98023e-05,0.0223647,3.51502,5,0.1,6,9.8,-0.341177,1.76397,0.574369,-0.0105105,-0.0885725,0.00588298,0.0268519,0.217497,-0.0147521,0.00835202,0.000615517,5,0.1,7,9.8,-2.42021,2.11007,0.540072,5.96046e-06,-5.96046e-06,2.98023e-06,0,0.000119209,-2.98023e-05,0.0095037,2.30594e-09,5,0.1,8,9.8,-1.81156,-0.270523,0.581505,-0.436914,0.0093013,-0.00089854,0.243902,-0.00587106,0.000566244,0.0100097,0.0916092,5,0.1,9,9.8,3.55853,1.94692,1.34639,0.809717,-0.0603378,-0.0477344,0.228763,-0.448585,-0.358164,0.0151335,2.32977,5,0.1
0,9.9,-0.178148,0.596253,0.633788,0.129523,-0.866026,0.032168,-0.00726618,3.72529e-06,-0.00276789,0.0128617,2.2606,5,0.1,1,9.9,-0.480098,4.19959,1.0349,-0.670514,0.371819,-0.187387,-1.08414,-0.161558,-0.194773,0.00936631,2.41736,5,0.1,2,9.9,-4.60475,-3.80518,0.563298,1.2666e-05,-4.47035e-06,-2.42144e-06,-0.000208616,2.98023e-05,-1.49012e-05,0.00782237,8.86129e-09,5,0.1,3,9.9,1.50918,3.3,0.600004,0.328268,-2.30968e-05,7.63685e-06,0.0261366,-0.000715256,7.45058e-06,0.0114905,0.0765943,5,0.1,4,9.9,-4.15625,3.90126,1.05,0.322787,-0.00402182,0,0.122011,0.00372529,0,0.0115548,0.0564108,5,0.1,5,9.9,2.00333,-3.76436,0.600005,-0.00912808,0.101811,-6.42613e-06,-0.32638,0.446647,1.86265e-05,0.0223647,3.51502,5,0.1,6,9.9,-0.342099,1.75616,0.574886,-0.00798623,-0.0680387,0.00449345,0.0235643,0.192568,-0.0129938,0.00835202,0.000615517,5,0.1,7,9.9,-2.42021,2.11007,0.540072,5.96046e-06,4.09782e-06,5.58794e-07,0,7.45058e-05,-1.49012e-05,0.0095037,2.30594e-09,5,0.1,8,9.9,-1.85419,-0.269619,0.581417,-0.416689,0.00882088,-0.000851601,0.180639,-0.00418164,0.000409782,0.0100097,0.0916092,5,0.1,9,9.9,3.64089,1.93836,1.33959,0.838695,-0.113022,-0.0898192,0.297517,-0.570707,-0.456043,0.0151335,2.32977,5,0.1
