id,t,px,py,pz,vx,vy,vz,ax,ay,az,planning_time,qp_cost,planning_report,size,id,t,px,py,pz,vx,vy,vz,ax,ay,az,planning_time,qp_cost,planning_report,size,id,t,px,py,pz,vx,vy,vz,ax,ay,az,planning_time,qp_cost,planning_report,size,id,t,px,py,pz,vx,vy,vz,ax,ay,az,planning_time,qp_cost,planning_report,size,id,t,px,py,pz,vx,vy,vz,ax,ay,az,planning_time,qp_cost,planning_report,size,id,t,px,py,pz,vx,vy,vz,ax,ay,az,planning_time,qp_cost,planning_report,size,id,t,px,py,pz,vx,vy,vz,ax,ay,az,planning_time,qp_cost,planning_report,size,id,t,px,py,pz,vx,vy,vz,ax,ay,az,planning_time,qp_cost,planning_report,size,id,t,px,py,pz,vx,vy,vz,ax,ay,az,planning_time,qp_cost,planning_report,size,id,t,px,py,pz,vx,vy,vz,ax,ay,az,planning_time,qp_cost,planning_report,size
0,0,-1.89211,4.0383,0.573296,0,0,0,0,0,0,0.00758552,2.68225,5,0.1,1,0,1.87827,5.36031,0.530473,0,0,0,0,0,0,0.0104184,1.43141,5,0.1,2,0,-4.67727,-3.03386,0.673423,0,0,0,0,0,0,0.0221216,2.09645,5,0.1,3,0,2.20502,-2.40709,0.695352,0,0,0,0,0,0,0.00794708,0.941985,5,0.1,4,0,3.76627,-3.26636,0.640106,0,0,0,0,0,0,0.0136356,3.5122,5,0.1,5,0,-4.05308,4.48201,0.651975,0,0,0,0,0,0,0.0533061,3.51558,5,0.1,6,0,-4.96255,-5.68326,0.696806,0,0,0,0,0,0,0.038975,0.58351,5,0.1,7,0,-3.44566,4.28378,0.584971,0,0,0,0,0,0,0.0284677,3.5122,5,0.1,8,0,5.39151,1.78442,0.513024,0,0,0,0,0,0,0.00918908,3.51219,5,0.1,9,0,0.615957,-5.32852,0.55024,0,0,0,0,0,0,0.023038,3.5122,5,0.1
0,0.1,-1.89029,4.03816,0.573324,0.0516256,-0.00409856,0.000791345,0.9178,-0.0728667,0.0140704,0.00758552,2.68225,5,0.1,1,0.1,1.87725,5.36035,0.531328,-0.0289902,0.0011757,0.0242861,-0.515386,0.0209212,0.431754,0.0104184,1.43141,5,0.1,2,0.1,-4.6763,-3.03257,0.673346,0.0274777,0.0365637,-0.00217585,0.48852,0.650018,-0.0386797,0.0221216,2.09645,5,0.1,3,0.1,2.20608,-2.40728,0.695315,0.0301525,-0.0056427,-0.00106394,0.536025,-0.10033,-0.0189096,0.00794708,0.941985,5,0.1,4,0.1,3.76434,-3.26556,0.640069,-0.0548415,0.0224505,-0.00103936,-0.974953,0.399128,-0.0184774,0.0136356,3.5122,5,0.1,5,0.1,-4.05119,4.48175,0.651952,0.0539199,-0.00720844,-0.000651274,0.958562,-0.12812,-0.0115745,0.0533061,3.51558,5,0.1,6,0.1,-4.96176,-5.68296,0.696862,0.0225984,0.00839382,0.00157636,0.401765,0.14919,0.0280216,0.038975,0.58351,5,0.1,7,0.1,-3.44359,4.28353,0.58498,0.0588704,-0.00685453,0.000268407,1.04658,-0.121891,0.00477582,0.0284677,3.5122,5,0.1,8,0.1,5.38942,1.78443,0.512975,-0.0592515,0.000343099,-0.0013872,-1.05333,0.00609457,-0.0246651,0.00918908,3.51219,5,0.1,9,0.1,0.615784,-5.32644,0.550251,-0.0049023,0.0590645,0.000318512,-0.0871494,1.05003,0.00566244,0.023038,3.5122,5,0.1
0,0.2,-1.8798,4.03733,0.573485,0.163162,-0.0129461,0.00250041,1.22374,-0.0972748,0.0187755,0.00918615,2.20065,5,0.1,1,0.2,1.87136,5.36059,0.536262,-0.0916243,0.00371933,0.0767544,-0.687122,0.027895,0.575721,0.0107836,1.1744,5,0.1,2,0.2,-4.67072,-3.02514,0.672904,0.086844,0.115561,-0.00687689,0.65136,0.866771,-0.051558,0.0223293,1.72003,5,0.1,3,0.2,2.2122,-2.40843,0.695099,0.0952959,-0.0178337,-0.0033617,0.71466,-0.133753,-0.0252128,0.00865033,0.772855,5,0.1,4,0.2,3.7532,-3.261,0.639858,-0.173324,0.0709534,-0.00328422,-1.29998,0.532269,-0.0246465,0.0132898,2.92579,5,0.1,5,0.2,-4.04023,4.48029,0.651819,0.17041,-0.0227809,-0.00205636,1.27816,-0.170946,-0.0154674,0.0551242,2.96242,5,0.1,6,0.2,-4.95717,-5.68126,0.697182,0.0714183,0.0265241,0.00498146,0.535727,0.19908,0.0373721,0.0414532,0.478737,5,0.1,7,0.2,-3.43163,4.28214,0.585035,0.186056,-0.0216603,0.000847876,1.39546,-0.162601,0.0063777,0.028762,2.92579,5,0.1,8,0.2,5.37738,1.7845,0.512694,-0.187266,0.0010848,-0.00438541,-1.40452,0.00810623,-0.032872,0.0078773,2.92578,5,0.1,9,0.2,0.614788,-5.31444,0.550316,-0.0154927,0.18667,0.00100583,-0.116229,1.40023,0.00756979,0.0242715,2.92577,5,0.1
0,0.3,-1.85669,4.03549,0.573839,0.303538,-0.0240996,0.00465363,1.49745,-0.118911,0.0229701,0.00918615,2.20065,5,0.1,1,0.3,1.85839,5.36111,0.547133,-0.170447,0.00691861,0.142794,-0.84085,0.0340939,0.704467,0.0107836,1.1744,5,0.1,2,0.3,-4.65842,-3.00877,0.67193,0.161563,0.214988,-0.0127918,0.797033,1.06059,-0.0631027,0.0223293,1.72003,5,0.1,3,0.3,2.2257,-2.41096,0.694623,0.177278,-0.0331771,-0.00625392,0.874564,-0.163659,-0.0308491,0.00865033,0.772855,5,0.1,4,0.3,3.72864,-3.25095,0.639393,-0.322833,0.132166,-0.00611851,-1.59764,0.654072,-0.0302829,0.0132898,2.92579,5,0.1,5,0.3,-4.01592,4.47701,0.651523,0.322103,-0.0439741,-0.0039638,1.65427,-0.237316,-0.0212975,0.0551242,2.96242,5,0.1,6,0.3,-4.94705,-5.6775,0.697887,0.13287,0.0493579,0.00926834,0.655502,0.243574,0.0457242,0.0414532,0.478737,5,0.1,7,0.3,-3.40526,4.27907,0.585155,0.346546,-0.0403561,0.00158083,1.71496,-0.199765,0.00783056,0.028762,2.92579,5,0.1,8,0.3,5.35085,1.78465,0.512072,-0.348797,0.00201799,-0.00816658,-1.72606,0.00998378,-0.0404045,0.0078773,2.92578,5,0.1,9,0.3,0.612593,-5.28799,0.550459,-0.0288592,0.347702,0.00187568,-0.142831,1.72073,0.00929087,0.0242715,2.92577,5,0.1
0,0.4,-1.81899,4.0325,0.574417,0.447649,-0.0355482,0.00686347,1.32114,-0.104904,0.0202358,0.00913914,1.78885,5,0.1,1,0.4,1.83721,5.36197,0.564872,-0.251371,0.0102043,0.210589,-0.741839,0.0300407,0.621498,0.0122006,0.9292,5,0.1,2,0.4,-4.63835,-2.98207,0.670341,0.238276,0.317061,-0.0188649,0.702858,0.935674,-0.0556707,0.0247742,1.3609,5,0.1,3,0.4,2.24772,-2.41508,0.693846,0.261438,-0.0489295,-0.00922382,0.771761,-0.144482,-0.0272095,0.00839555,0.611492,5,0.1,4,0.4,3.68851,-3.23452,0.638632,-0.47676,0.195187,-0.00903606,-1.41251,0.578165,-0.0267923,0.0243016,2.51007,5,0.1,5,0.4,-3.9755,4.47142,0.65102,0.483584,-0.0675321,-0.00607371,1.50025,-0.221729,-0.0198185,0.0784308,2.54175,5,0.1,6,0.4,-4.93055,-5.67137,0.699039,0.195944,0.0727892,0.0136688,0.578642,0.215054,0.0403523,0.0402768,0.378776,5,0.1,7,0.4,-3.36218,4.27405,0.585351,0.511777,-0.0596046,0.00233501,1.51646,-0.176668,0.00691414,0.0283002,2.51427,5,0.1,8,0.4,5.30748,1.7849,0.511057,-0.515103,0.00298023,-0.012061,-1.52612,0.00876188,-0.0357032,0.00782165,2.51565,5,0.1,9,0.4,0.609005,-5.24476,0.550692,-0.0426188,0.513482,0.00277013,-0.126302,1.52159,0.00822544,0.0239071,2.51491,5,0.1
0,0.5,-1.76749,4.02825,0.575206,0.58169,-0.0506356,0.00891695,1.29394,-0.181735,0.0198223,0.00913914,1.78885,5,0.1,1,0.5,1.8083,5.36315,0.589095,-0.326638,0.0132538,0.273646,-0.726581,0.0294149,0.608701,0.0122006,0.9292,5,0.1,2,0.5,-4.61094,-2.9456,0.668171,0.309595,0.411993,-0.0245137,0.688523,0.916421,-0.0545308,0.0247742,1.3609,5,0.1,3,0.5,2.2778,-2.42071,0.692785,0.339737,-0.063587,-0.0119847,0.755817,-0.141472,-0.0266545,0.00839555,0.611492,5,0.1,4,0.5,3.63357,-3.21203,0.637591,-0.622113,0.254684,-0.0117925,-1.4198,0.581175,-0.0269152,0.0243016,2.51007,5,0.1,5,0.5,-3.91948,4.46351,0.65031,0.636554,-0.0908069,-0.00815177,1.48286,-0.231355,-0.0206344,0.0784308,2.54175,5,0.1,6,0.5,-4.90801,-5.66299,0.700611,0.254645,0.0946023,0.0177626,0.566572,0.210553,0.0395142,0.0402768,0.378776,5,0.1,7,0.5,-3.30341,4.26719,0.58562,0.661864,-0.0777826,0.00304664,1.41616,-0.177503,0.00694767,0.0283002,2.51427,5,0.1,8,0.5,5.24836,1.78525,0.509689,-0.665312,0.00388343,-0.0151137,-1.4101,0.00884384,-0.0248402,0.00782165,2.51565,5,0.1,9,0.5,0.604093,-5.18581,0.551011,-0.0556148,0.663641,0.00361586,-0.126939,1.41305,0.00825897,0.0239071,2.51491,5,0.1
0,0.6,-1.70334,4.02225,0.57619,0.695238,-0.0692487,0.0106573,0.930905,-0.179291,0.0142455,0.00796032,1.33524,5,0.1,1,0.6,1.77228,5.36461,0.619273,-0.390401,0.015831,0.327061,-0.522673,0.0214577,0.437856,0.0117149,0.691766,5,0.1,2,0.6,-4.5768,-2.90016,0.665468,0.370026,0.492412,-0.0292987,0.495195,0.659227,-0.0392199,0.0214615,1.01317,5,0.1,3,0.6,2.31526,-2.42772,0.691463,0.406063,-0.0760019,-0.014323,0.543714,-0.101805,-0.0191927,0.0148159,0.455234,5,0.1,4,0.6,3.56475,-3.18385,0.636286,-0.747955,0.306195,-0.0141785,-1.04415,0.427485,-0.0197887,0.0186499,2.26337,5,0.1,5,0.6,-3.84895,4.45334,0.649397,0.767273,-0.111663,-0.0100106,1.07896,-0.177145,-0.0157356,0.0584902,2.33658,5,0.1,6,0.6,-4.87992,-5.65256,0.70257,0.304365,0.113082,0.0212297,0.407457,0.151157,0.0284314,0.0475349,0.281969,5,0.1,7,0.6,-3.23077,4.25858,0.585957,0.783569,-0.0935197,0.00366122,0.972509,-0.130415,0.0051558,0.0275164,2.32831,5,0.1,8,0.6,5.17542,1.78568,0.508075,-0.785911,0.00466704,-0.0169531,-0.958204,0.00655651,-0.0116229,0.00864346,2.33711,5,0.1,9,0.6,0.597941,-5.11301,0.551411,-0.066866,0.784779,0.00434667,-0.0933111,0.965118,0.00607967,0.0234235,2.33156,5,0.1
0,0.7,-1.62929,4.01438,0.577325,0.78319,-0.0884324,0.0120253,0.780046,-0.192881,0.012327,0.00796032,1.33524,5,0.1,1,0.7,1.73067,5.3663,0.654131,-0.44058,0.0178866,0.369097,-0.452228,0.0185072,0.378828,0.0117149,0.691766,5,0.1,2,0.7,-4.53736,-2.84768,0.662345,0.417572,0.555701,-0.0330643,0.428528,0.570357,-0.0339411,0.0214615,1.01317,5,0.1,3,0.7,2.35854,-2.43582,0.689937,0.458259,-0.0857748,-0.0161653,0.4704,-0.0880659,-0.0166073,0.0148159,0.455234,5,0.1,4,0.7,3.48552,-3.15107,0.634768,-0.828512,0.349106,-0.0161649,-0.560567,0.403672,-0.0186823,0.0186499,2.26337,5,0.1,5,0.7,-3.76787,4.44127,0.648316,0.844207,-0.12956,-0.0116006,0.470906,-0.169992,-0.0150949,0.0584902,2.33658,5,0.1,6,0.7,-4.84748,-5.64051,0.704833,0.34348,0.127594,0.0239589,0.352472,0.130832,0.0245981,0.0475349,0.281969,5,0.1,7,0.7,-3.1486,4.24857,0.58635,0.849696,-0.106609,0.00417773,0.375301,-0.123143,0.00485033,0.0275164,2.32831,5,0.1,8,0.7,5.0931,1.78629,0.506357,-0.850514,0.00868328,-0.0170871,-0.361294,0.0658929,0.00775233,0.00864346,2.33711,5,0.1,9,0.7,0.590782,-5.03077,0.551877,-0.076232,0.850119,0.00495641,-0.0881068,0.368088,0.00573322,0.0234235,2.33156,5,0.1
0,0.8,-1.54765,4.00463,0.578581,0.843281,-0.105858,0.0129923,0.390351,-0.147104,0.0064671,0.00841386,0.959777,5,0.1,1,0.8,1.68466,5.36816,0.692676,-0.476035,0.0193357,0.398798,-0.237525,0.00953674,0.198901,0.0112737,0.646961,5,0.1,2,0.8,-4.49376,-2.78965,0.658892,0.451171,0.600415,-0.035724,0.225067,0.299573,-0.0178516,0.0238886,0.715369,5,0.1,3,0.8,2.4064,-2.44478,0.688248,0.495142,-0.0926733,-0.0174671,0.246882,-0.0463724,-0.00870228,0.00817886,0.321413,5,0.1,4,0.8,3.40066,-3.11436,0.633068,-0.860912,0.382352,-0.0177026,-0.102162,0.242352,-0.0112355,0.0131996,1.88041,5,0.1,5,0.8,-3.68196,4.42755,0.647088,0.866026,-0.143826,-0.0128657,0,-0.107765,-0.00953674,0.0504567,2.25534,5,0.1,6,0.8,-4.81161,-5.62718,0.707335,0.37111,0.137842,0.0258878,0.185251,0.068903,0.0129044,0.040593,0.701375,5,0.1,7,0.8,-3.0625,4.23736,0.586789,0.866026,-0.116742,0.00457764,0,-0.0741482,0.00289083,0.0235634,2.26142,5,0.1,8,0.8,5.00697,1.78754,0.504711,-0.86602,0.0164479,-0.0156254,0,0.0833869,0.0204742,0.00733133,2.27225,5,0.1,9,0.8,0.582766,-4.94465,0.552398,-0.0834867,0.866032,0.00542849,-0.0528991,-0.000238419,0.00342727,0.0253163,2.26651,5,0.1
0,0.9,-1.46204,3.99331,0.579911,0.863391,-0.120423,0.0135786,0.0567436,-0.135317,0.00463799,0.00841386,0.959777,5,0.1,1,0.9,1.63576,5.37014,0.733505,-0.502004,0.0202,0.416822,-0.249162,0.00679493,0.14247,0.0112737,0.646961,5,0.1,2,0.9,-4.44757,-2.72818,0.655235,0.47157,0.62756,-0.0373417,0.16129,0.214577,-0.0127889,0.0238886,0.715369,5,0.1,3,0.9,2.45709,-2.45427,0.68646,0.517514,-0.0968739,-0.0182558,0.176817,-0.0331998,-0.00623614,0.00817886,0.321413,5,0.1,4,0.9,3.31426,-3.07491,0.631242,-0.865683,0.406183,-0.018807,-0.0119358,0.211209,-0.00978634,0.0131996,1.88041,5,0.1,5,0.9,-3.59536,4.41261,0.645752,0.866026,-0.154884,-0.0138452,0,-0.103235,-0.00914931,0.0504567,2.25534,5,0.1,6,0.9,-4.77315,-5.61307,0.709985,0.401228,0.144085,0.027057,0.369698,0.0493228,0.00923872,0.040593,0.701375,5,0.1,7,0.9,-2.9759,4.2253,0.587262,0.866026,-0.124385,0.00487585,0,-0.0708997,0.00276417,0.0235634,2.26142,5,0.1,8,0.9,4.92037,1.78965,0.503265,-0.866023,0.0262016,-0.013167,-5.96046e-05,0.105165,0.0277534,0.00733133,2.27225,5,0.1,9,0.9,0.574142,-4.85805,0.552958,-0.0889598,0.866023,0.00578305,-0.050921,2.98023e-05,0.00329688,0.0253163,2.26651,5,0.1
0,1,-1.37574,3.98067,0.581285,0.859523,-0.131422,0.0138164,-0.129998,-0.0784397,-0.000327826,0.00718079,0.673218,5,0.1,1,1,1.58452,5.37219,0.775679,-0.520325,0.0205517,0.424118,-0.0944138,-0.000715256,-0.00914931,0.0112122,0.457671,5,0.1,2,1,-4.39985,-2.66468,0.651456,0.479829,0.638551,-0.037998,-0.010252,-0.0137091,0.000834465,0.0205349,0.486484,5,0.1,3,1,2.50945,-2.46407,0.684613,0.526571,-0.0985742,-0.0185743,-0.0114441,0.00214577,0.00038743,0.0102209,0.218572,5,0.1,4,1,3.22768,-3.03344,0.629321,-0.86568,0.420719,-0.0194788,0.00715256,0.063777,-0.00298023,0.0117638,1.43618,5,0.1,5,1,-3.50876,4.39668,0.644329,0.866026,-0.162756,-0.0145406,0,-0.0472069,-0.00417233,0.0532305,2.2532,5,0.1,6,1,-4.73119,-5.59849,0.712723,0.436831,0.146616,0.0275314,0.30756,-0.00333786,-0.000625849,0.0447573,0.536844,5,0.1,7,1,-2.8893,4.21256,0.587761,0.866026,-0.129592,0.00507832,0,-0.0281334,0.00110269,0.0236625,2.2604,5,0.1,8,1,4.83377,1.79279,0.502093,-0.866032,0.0363439,-0.0102416,0.000238419,0.0929236,0.0299811,0.0107453,2.27072,5,0.1,9,1,0.565033,-4.77145,0.553551,-0.092718,0.866032,0.00602752,-0.0203848,-0.000238419,0.0012815,0.0257758,2.27802,5,0.1
0,1.1,-1.29033,3.96714,0.582665,0.848835,-0.138791,0.0137536,-0.120983,-0.0618994,-0.00143051,0.00718079,0.673218,5,0.1,1,1.1,1.53198,5.37424,0.818027,-0.530191,0.0204384,0.42226,-0.0769496,-0.00226498,-0.0435337,0.0112122,0.457671,5,0.1,2,1.1,-4.35194,-2.60092,0.647662,0.477738,0.635757,-0.0378304,-0.049144,-0.0655353,0.00390783,0.0205349,0.486484,5,0.1,3,1.1,2.56203,-2.47391,0.682758,0.524257,-0.0981394,-0.018494,-0.0541061,0.0101477,0.00189245,0.0102209,0.218572,5,0.1,4,1.1,3.14112,-2.99138,0.627345,-0.865412,0.417135,-0.0201394,0.0122637,-0.133142,-0.00850484,0.0117638,1.43618,5,0.1,5,1.1,-3.42215,4.38014,0.642851,0.866026,-0.168165,-0.0150194,0,-0.0510514,-0.0045225,0.0532305,2.2532,5,0.1,6,1.1,-4.68582,-5.58386,0.715472,0.471357,0.145956,0.0274083,0.346243,-0.0151694,-0.00284612,0.0447573,0.536844,5,0.1,7,1.1,-2.8027,4.19944,0.588275,0.866026,-0.132973,0.00521066,0,-0.0317991,0.00124797,0.0236625,2.2604,5,0.1,8,1.1,4.74717,1.79689,0.501217,-0.866023,0.0454873,-0.0073039,-2.98023e-05,0.0857413,0.028234,0.0107453,2.27072,5,0.1,9,1.1,0.555639,-4.68485,0.554161,-0.0952195,0.865612,0.0061864,-0.024043,-0.0164211,0.00153482,0.0257758,2.27802,5,0.1
0,1.2,-1.20628,3.95303,0.584028,0.829056,-0.142634,0.0134453,-0.29999,-0.0101328,-0.00503659,0.00716328,0.464334,5,0.1,1,1.2,1.47877,5.37626,0.859875,-0.531352,0.0199676,0.41284,0.0713468,-0.00762939,-0.155091,0.0112934,0.313911,5,0.1,2,1.2,-4.30459,-2.53791,0.643913,0.467086,0.621575,-0.0369847,-0.175238,-0.233412,0.0138581,0.0207004,0.323484,5,0.1,3,1.2,2.61399,-2.48364,0.680925,0.512552,-0.0959516,-0.0180811,-0.192404,0.0362396,0.00676513,0.0113872,0.145339,5,0.1,4,1.2,3.05478,-2.95064,0.625291,-0.859368,0.394708,-0.0208825,0.133157,-0.311732,-0.005126,0.0103403,1.06394,5,0.1,5,1.2,-3.33555,4.36313,0.641332,0.866026,-0.17128,-0.0152931,0,-0.00452995,-0.000417233,0.054078,2.25261,5,0.1,6,1.2,-4.63713,-5.56939,0.718188,0.499809,0.142694,0.0267938,0.196934,-0.0536442,-0.0100434,0.0424439,0.393002,5,0.1,7,1.2,-2.71609,4.18603,0.588801,0.866026,-0.134671,0.0052765,0,0.00357628,-0.000149012,0.0238966,2.26027,5,0.1,8,1.2,4.66056,1.80182,0.500621,-0.866032,0.0527829,-0.00468343,0.000238419,0.0573397,0.0237823,0.00800049,2.30017,5,0.1,9,1.2,0.546028,-4.59851,0.554785,-0.0965759,0.859439,0.00627339,0.000745058,-0.131607,-8.9407e-05,0.0259671,2.46135,5,0.1
0,1.3,-1.12478,3.93872,0.585348,0.801302,-0.143339,0.0129475,-0.285417,0.00168383,-0.00533834,0.00716328,0.464334,5,0.1,1,1.3,1.42597,5.37822,0.900401,-0.524594,0.0192173,0.397508,0.0847727,-0.00795722,-0.164367,0.0112934,0.313911,5,0.1,2,1.3,-4.25874,-2.4769,0.640283,0.44976,0.598499,-0.0356142,-0.185788,-0.247434,0.0147037,0.0207004,0.323484,5,0.1,3,1.3,2.6643,-2.49305,0.67915,0.493529,-0.0923723,-0.0174117,-0.203997,0.0383258,0.00717863,0.0113872,0.145339,5,0.1,4,1.3,2.96921,-2.91251,0.623185,-0.853745,0.369646,-0.0211404,0.0284016,-0.209719,0.00045076,0.0103403,1.06394,5,0.1,5,1.3,-3.24895,4.34593,0.639797,0.866026,-0.172829,-0.015432,0,-0.0166595,-0.00148267,0.054078,2.25261,5,0.1,6,1.3,-4.58612,-5.55538,0.720818,0.520162,0.137389,0.0258005,0.181258,-0.056833,-0.0106506,0.0424439,0.393002,5,0.1,7,1.3,-2.62949,4.17254,0.589329,0.866026,-0.135189,0.00529615,0,-0.0064373,0.000242144,0.0238966,2.26027,5,0.1,8,1.3,4.57401,1.80739,0.500262,-0.864171,0.0584491,-0.00260156,0.0566542,0.0520498,0.0177249,0.00800049,2.30017,5,0.1,9,1.3,0.536345,-4.5142,0.555414,-0.09722,0.818751,0.00631204,-0.00797957,-0.607222,0.000495464,0.0259671,2.46135,5,0.1
0,1.4,-1.04625,3.92445,0.586612,0.766882,-0.141352,0.0123069,-0.423521,0.0417233,-0.007689,0.0093168,0.314477,5,0.1,1,1.4,1.37409,5.3801,0.939229,-0.510889,0.0182629,0.377834,0.20349,-0.0116825,-0.237554,0.0134582,0.211092,5,0.1,2,1.4,-4.21481,-2.41844,0.636804,0.42752,0.568879,-0.0338525,-0.268936,-0.357628,0.0212491,0.0194124,0.212918,5,0.1,3,1.4,2.71251,-2.50208,0.67745,0.469112,-0.0877917,-0.0165522,-0.295043,0.0553131,0.0104308,0.00949086,0.162921,5,0.1,4,1.4,2.88414,-2.87656,0.621086,-0.845319,0.349277,-0.0207186,0.174999,-0.212312,0.00831485,0.0118809,0.765766,5,0.1,5,1.4,-3.16235,4.32861,0.63825,0.866026,-0.172937,-0.0154406,0,0.0212193,0.00187755,0.0484461,2.25293,5,0.1,6,1.4,-4.53342,-5.54196,0.723338,0.531185,0.130582,0.0245243,0.0190735,-0.082016,-0.015378,0.0440158,0.318246,5,0.1,7,1.4,-2.54289,4.15903,0.589859,0.866026,-0.134683,0.00527501,0,0.0219345,-0.000864267,0.0214242,2.26067,5,0.1,8,1.4,4.48813,1.81346,0.50008,-0.850308,0.0625342,-0.00114739,0.244856,0.0268817,0.0113249,0.0099543,2.51307,5,0.1,9,1.4,0.526607,-4.43568,0.556046,-0.0972092,0.749719,0.00630915,0.0121295,-0.730753,-0.000804663,0.0254324,2.61338,5,0.1
0,1.5,-0.971565,3.91052,0.587806,0.727347,-0.137193,0.0115728,-0.39218,0.0461191,-0.00734627,0.0093168,0.314477,5,0.1,1,1.5,1.32397,5.38187,0.975871,-0.491529,0.0171535,0.355174,0.200942,-0.0109971,-0.226386,0.0134582,0.211092,5,0.1,2,1.5,-4.17335,-2.36327,0.633521,0.40187,0.534763,-0.0318249,-0.256211,-0.340849,0.0202619,0.0194124,0.212918,5,0.1,3,1.5,2.75825,-2.51064,0.675836,0.447952,-0.0838239,-0.0158038,-0.157267,0.0294894,0.00556558,0.00949086,0.162921,5,0.1,4,1.5,2.80031,-2.84255,0.619058,-0.831955,0.331772,-0.0198033,0.131518,-0.153989,0.0104085,0.0118809,0.765766,5,0.1,5,1.5,-3.07574,4.31137,0.636711,0.866026,-0.172214,-0.0153769,0,0.00298023,0.00026077,0.0484461,2.25293,5,0.1,6,1.5,-4.48018,-5.52914,0.725717,0.533156,0.127202,0.0230568,-0.00286102,0.000864267,-0.0146665,0.0440158,0.318246,5,0.1,7,1.5,-2.45629,4.14563,0.590383,0.866026,-0.133571,0.00523105,0,0.007689,-0.000305474,0.0214242,2.26067,5,0.1,8,1.5,4.4053,1.81986,0.500012,-0.798503,0.0653502,-0.000306778,0.710398,0.0256449,0.0058189,0.0099543,2.51307,5,0.1,9,1.5,0.516912,-4.36463,0.556675,-0.0968894,0.672463,0.00628727,-3.72529e-05,-0.674963,-3.72529e-06,0.0254324,2.61338,5,0.1
0,1.6,-0.900906,3.89707,0.588925,0.684251,-0.131357,0.010781,-0.486732,0.0736713,-0.00876188,0.0062907,0.210875,5,0.1,1,1.6,1.27593,5.38353,1.0102,-0.467828,0.015974,0.330767,0.284791,-0.0133514,-0.269055,0.0123356,0.140519,5,0.1,2,1.6,-4.1345,-2.31158,0.630444,0.374246,0.498015,-0.0296399,-0.304461,-0.405073,0.0241101,0.0211464,0.139943,5,0.1,3,1.6,2.80229,-2.51888,0.674282,0.43264,-0.080955,-0.0152633,-0.17035,0.0319481,0.00604987,0.00961394,0.0944049,5,0.1,4,1.6,2.71796,-2.81016,0.617136,-0.812376,0.315714,-0.0185683,0.287294,-0.178814,0.0145137,0.00890152,0.536596,5,0.1,5,1.6,-2.98914,4.2942,0.635177,0.866026,-0.170684,-0.0152409,0,0.0343323,0.00309944,0.0511418,2.25371,5,0.1,6,1.6,-4.42707,-5.51637,0.727946,0.526738,0.128365,0.0214741,-0.141382,0.0126362,-0.0174642,0.0435891,0.221983,5,0.1,7,1.6,-2.36968,4.13233,0.590904,0.866026,-0.131893,0.00516474,0,0.0312328,-0.0012219,0.0190603,2.2613,5,0.1,8,1.6,4.32926,1.82649,0.500003,-0.720894,0.0670224,7.59959e-05,0.796556,0.00524521,0.00214577,0.00816018,2.67304,5,0.1,9,1.6,0.507241,-4.3,0.557303,-0.0962436,0.62784,0.00624508,0.0169724,-0.226259,-0.00107288,0.0242663,2.57764,5,0.1
0,1.7,-0.834783,3.88429,0.589961,0.638982,-0.124305,0.00995956,-0.439409,0.0712276,-0.00796467,0.0062907,0.210875,5,0.1,1,1.7,1.23051,5.38506,1.042,-0.441018,0.0147291,0.305545,0.265703,-0.0120103,-0.244424,0.0123356,0.140519,5,0.1,2,1.7,-4.09853,-2.2637,0.627595,0.345707,0.460041,-0.0273797,-0.276506,-0.368029,0.0219084,0.0211464,0.139943,5,0.1,3,1.7,2.84481,-2.52683,0.672782,0.418287,-0.0782643,-0.0147537,-0.13566,0.0254065,0.00480935,0.00961394,0.0944049,5,0.1,4,1.7,2.63803,-2.77939,0.615351,-0.786679,0.300308,-0.0171413,0.258431,-0.142366,0.0143982,0.00890152,0.536596,5,0.1,5,1.7,-2.90254,4.27724,0.633663,0.866026,-0.168829,-0.0150722,0,0.012368,0.00112876,0.0511418,2.25371,5,0.1,6,1.7,-4.37507,-5.50339,0.73001,0.513148,0.131753,0.0198366,-0.149339,0.0445843,-0.0158697,0.0435891,0.221983,5,0.1,7,1.7,-2.28308,4.11925,0.591416,0.866026,-0.129962,0.00508903,0,0.0146031,-0.000569969,0.0190603,2.2613,5,0.1,8,1.7,4.26134,1.83323,0.500018,-0.639655,0.0678426,0.000194274,0.690818,0.00750273,0.000365078,0.00816018,2.67304,5,0.1,9,1.7,0.497664,-4.23703,0.557925,-0.0955251,0.642267,0.00620093,0.00309013,0.413239,-0.000178814,0.0242663,2.57764,5,0.1
0,1.8,-0.773142,3.87223,0.590917,0.592871,-0.116462,0.00913888,-0.496984,0.0880957,-0.00864267,0.00721614,0.140893,5,0.1,1,1.8,1.1878,5.38647,1.07131,-0.412294,0.0135064,0.280362,0.318468,-0.0128746,-0.26536,0.01104,0.180191,5,0.1,2,1.8,-4.06536,-2.21957,0.624968,0.317216,0.422126,-0.0251219,-0.300407,-0.39959,0.0237525,0.0183405,0.0923426,5,0.1,3,1.8,2.88589,-2.53452,0.671333,0.402302,-0.0752687,-0.0141874,-0.197053,0.0368357,0.00694394,0.0100199,0.0716196,5,0.1,4,1.8,2.56082,-2.7501,0.613711,-0.755334,0.285017,-0.0156283,0.390053,-0.172615,0.0161231,0.0123109,0.537255,5,0.1,5,1.8,-2.81594,4.26045,0.632164,0.866026,-0.166571,-0.0148684,0,0.0395775,0.00354648,0.0472606,2.25466,5,0.1,6,1.8,-4.32464,-5.49001,0.731913,0.493705,0.135481,0.0182018,-0.25177,0.0216961,-0.0172257,0.0442527,0.151873,5,0.1,7,1.8,-2.19648,4.10635,0.591921,0.866026,-0.127745,0.00500232,0,0.0348091,-0.00137091,0.0162079,2.26203,5,0.1,8,1.8,4.2,1.84003,0.500037,-0.595415,0.0679046,0.000172853,0.204802,-0.00882149,-0.000625849,0.00855758,2.62253,5,0.1,9,1.8,0.488142,-4.17036,0.558543,-0.0946529,0.692666,0.00614673,0.0184029,0.517845,-0.00119209,0.0219567,2.3846,5,0.1
0,1.9,-0.7162,3.86101,0.59179,0.546924,-0.108179,0.00833804,-0.439312,0.0807941,-0.00761822,0.00721614,0.140893,5,0.1,1,1.9,1.14827,5.38777,1.09822,-0.377182,0.0125006,0.259515,0.383936,-0.00798702,-0.167653,0.01104,0.180191,5,0.1,2,1.9,-4.03506,-2.17925,0.622568,0.289389,0.385105,-0.022921,-0.264794,-0.352308,0.020951,0.0183405,0.0923426,5,0.1,3,1.9,2.92527,-2.54189,0.669944,0.386242,-0.0722677,-0.0136218,-0.143856,0.0268817,0.00506267,0.0100199,0.0716196,5,0.1,4,1.9,2.48696,-2.72239,0.612225,-0.723799,0.269634,-0.0140993,0.276595,-0.145704,0.014782,0.0123109,0.537255,5,0.1,5,1.9,-2.72933,4.24393,0.630689,0.866026,-0.164271,-0.0146618,0,0.015825,0.00143051,0.0472606,2.25466,5,0.1,6,1.9,-4.27647,-5.47632,0.733652,0.469824,0.138418,0.0166056,-0.241488,0.0289083,-0.015188,0.0442527,0.151873,5,0.1,7,1.9,-2.10988,4.0937,0.592417,0.866026,-0.125486,0.00491319,0,0.0173151,-0.000689179,0.0162079,2.26203,5,0.1,8,1.9,4.14013,1.8468,0.500051,-0.613008,0.0674028,9.99309e-05,-0.453532,-0.00464916,-0.000800937,0.00855758,2.62253,5,0.1,9,1.9,0.47873,-4.09796,0.559154,-0.0938268,0.758848,0.00609336,0.00377558,0.727385,-0.000242144,0.0219567,2.3846,5,0.1
0,2,-0.663724,3.8506,0.592586,0.502075,-0.0997543,0.00757128,-0.469565,0.0898838,-0.00783801,0.00717532,0.131708,5,0.1,1,2,1.11258,5.38898,1.12339,-0.335601,0.011754,0.244045,0.446677,-0.00691414,-0.153542,0.00986909,0.156221,5,0.1,2,2,-4.00745,-2.1425,0.620381,0.262797,0.349724,-0.0208169,-0.27287,-0.363231,0.0216365,0.0163155,0.122305,5,0.1,3,2,2.96313,-2.54897,0.668609,0.370187,-0.0692666,-0.0130564,-0.190854,0.0356436,0.00673532,0.0110672,0.0319292,5,0.1,4,2,2.41601,-2.69618,0.610889,-0.693876,0.254071,-0.0126168,0.347137,-0.172973,0.01508,0.00969356,0.380977,5,0.1,5,2,-2.64273,4.2276,0.629233,0.866026,-0.161779,-0.0144392,0,0.0402927,0.00363588,0.0424482,2.25564,5,0.1,6,2,-4.23078,-5.46238,0.735236,0.442803,0.13988,0.01508,-0.309706,-0.00500679,-0.015676,0.0447768,0.107529,5,0.1,7,2,-2.02327,4.08126,0.592904,0.866026,-0.123084,0.00481904,-5.96046e-05,0.0355244,-0.00140071,0.0145462,1.94299,5,0.1,8,2,4.07617,1.8535,0.500057,-0.668001,0.0663936,2.08616e-05,-0.56839,-0.0178814,-0.000804663,0.00797565,2.35209,5,0.1,9,2,0.46938,-4.01862,0.559761,-0.0929303,0.824827,0.00603646,0.0181943,0.537634,-0.00119209,0.0232784,2.28966,5,0.1
0,2.1,-0.615725,3.84104,0.593306,0.458926,-0.0916779,0.00685137,-0.407942,0.0749826,-0.00677258,0.00717532,0.131708,5,0.1,1,2.1,1.08145,5.39013,1.14711,-0.285422,0.0111677,0.230995,0.544012,-0.00533462,-0.11804,0.00986909,0.156221,5,0.1,2,2.1,-3.98233,-2.10945,0.618391,0.241206,0.310235,-0.0191045,-0.174031,-0.422344,0.0138097,0.0163155,0.122305,5,0.1,3,2.1,2.99921,-2.55572,0.667337,0.351129,-0.0657067,-0.012384,-0.20045,0.0374615,0.0070706,0.0110672,0.0319292,5,0.1,4,2.1,2.34817,-2.67157,0.609699,-0.66405,0.238386,-0.0112151,0.278339,-0.149474,0.013236,0.00969356,0.380977,5,0.1,5,2.1,-2.55613,4.21156,0.627801,0.866026,-0.159411,-0.0142246,0,0.0162721,0.00147894,0.0424482,2.25564,5,0.1,6,2.1,-4.18798,-5.44861,0.736671,0.413771,0.133821,0.0136408,-0.283957,-0.109553,-0.0135191,0.0447768,0.107529,5,0.1,7,2.1,-1.93667,4.0691,0.59338,0.866025,-0.120395,0.00471296,1.49012e-05,0.0241995,-0.000949949,0.0145462,1.94299,5,0.1,8,2.1,4.00592,1.86006,0.500056,-0.741031,0.0650065,-4.5076e-05,-0.809535,-0.0129864,-0.000521541,0.00797565,2.35209,5,0.1,9,2.1,0.460139,-3.9341,0.560362,-0.0921443,0.859456,0.00598477,0.00316091,0.174582,-0.000212342,0.0232784,2.28966,5,0.1
0,2.2,-0.571867,3.83225,0.593957,0.418022,-0.0841856,0.006181,-0.420243,0.0772476,-0.00676513,0.00652118,0.110569,5,0.1,1,2.2,1.0557,5.39122,1.16961,-0.229129,0.0106096,0.21863,0.57143,-0.00667572,-0.136554,0.0113801,0.33602,5,0.1,2,2.2,-3.95901,-2.0806,0.616545,0.225365,0.266063,-0.0178471,-0.153899,-0.456929,0.0121891,0.0149742,0.262144,5,0.1,3,2.2,3.03323,-2.56209,0.666137,0.328434,-0.0614643,-0.0115842,-0.260115,0.0486374,0.00917912,0.00765031,0.012044,5,0.1,4,2.2,2.28324,-2.6485,0.608643,-0.633287,0.222695,-0.00992119,0.357151,-0.170231,0.0128448,0.011303,0.265109,5,0.1,5,2.2,-2.46952,4.19572,0.626388,0.866026,-0.156939,-0.0140011,0,0.0395775,0.00351667,0.0401508,2.25659,5,0.1,6,2.2,-4.14806,-5.4359,0.737968,0.383818,0.119209,0.0123039,-0.323772,-0.177145,-0.0135005,0.0393895,0.139949,5,0.1,7,2.2,-1.85007,4.0572,0.593846,0.866026,-0.11723,0.00458807,-5.96046e-05,0.0433922,-0.00166893,0.0156316,1.56532,5,0.1,8,2.2,3.92792,1.86649,0.500049,-0.815707,0.0632703,-8.49366e-05,-0.624657,-0.0240207,-0.000268221,0.00896521,1.84736,5,0.1,9,2.2,0.450953,-3.84768,0.560958,-0.0913337,0.866026,0.00593215,0.0170618,0,-0.00113249,0.0225835,2.2665,5,0.1
0,2.3,-0.531831,3.82428,0.594547,0.385388,-0.0747908,0.00564577,-0.257634,0.108048,-0.00429526,0.00652118,0.110569,5,0.1,1,2.3,1.03568,5.39227,1.19076,-0.171227,0.0107512,0.203891,0.570826,0.00751019,-0.160657,0.0113801,0.33602,5,0.1,2,2.3,-3.93716,-2.05643,0.614814,0.212372,0.216316,-0.0168176,-0.115946,-0.519484,0.00919402,0.0149742,0.262144,5,0.1,3,2.3,3.06476,-2.56799,0.665025,0.301787,-0.0564814,-0.0106442,-0.277251,0.051856,0.00977889,0.00765031,0.012044,5,0.1,4,2.3,2.22155,-2.62703,0.607711,-0.601336,0.207156,-0.00874391,0.305474,-0.147775,0.0109486,0.011303,0.265109,5,0.1,5,2.3,-2.38292,4.18017,0.625,0.866026,-0.154606,-0.0137943,0,0.0160635,0.00141934,0.0401508,2.25659,5,0.1,6,2.3,-4.11102,-5.42494,0.739141,0.359178,0.0993118,0.0112366,-0.192195,-0.215232,-0.00856817,0.0393895,0.139949,5,0.1,7,2.3,-1.76347,4.04551,0.594297,0.865898,-0.117908,0.00444297,-0.00504404,-0.0422299,-0.00142306,0.0156316,1.56532,5,0.1,8,2.3,3.84395,1.8727,0.50004,-0.857005,0.0611501,-0.000100303,-0.221223,-0.0209138,-5.58794e-05,0.00896521,1.84736,5,0.1,9,2.3,0.441866,-3.76107,0.561548,-0.0906665,0.866026,0.00588708,0.00189617,0,-0.00013411,0.0225835,2.2665,5,0.1
0,2.4,-0.494481,3.81737,0.595091,0.362116,-0.0630617,0.00525862,-0.226408,0.124574,-0.00369549,0.00610809,0.141494,5,0.1,1,2.4,1.02131,5.3934,1.21029,-0.117579,0.011754,0.186136,0.491679,0.0107288,-0.195682,0.0120213,0.324401,5,0.1,2,2.4,-3.91651,-2.03738,0.613179,0.200474,0.165284,-0.0158742,-0.129223,-0.48852,0.0102222,0.0209933,0.411662,5,0.1,3,2.4,3.09349,-2.57337,0.664011,0.272292,-0.0509679,-0.0096038,-0.314832,0.0590086,0.0110865,0.00846319,0.00608494,5,0.1,4,2.4,2.16302,-2.60706,0.60689,-0.568199,0.191921,-0.00769049,0.373602,-0.162005,0.0103116,0.0107238,0.181875,5,0.1,5,2.4,-2.29632,4.16481,0.62363,0.866026,-0.152194,-0.0135809,0,0.0383854,0.00342727,0.0416859,2.25752,5,0.1,6,2.4,-4.076,-5.41611,0.740225,0.341368,0.0771523,0.0104636,-0.181198,-0.223398,-0.00733137,0.0392994,0.235356,5,0.1,7,2.4,-1.67694,4.03347,0.594733,0.864005,-0.123096,0.00427216,-0.0404119,-0.0510216,-0.00214577,0.014605,1.19006,5,0.1,8,2.4,3.75761,1.8787,0.50003,-0.866026,0.0586629,-9.83477e-05,0,-0.0305772,8.9407e-05,0.0076851,1.41836,5,0.1,9,2.4,0.432821,-3.67447,0.562135,-0.0899933,0.866026,0.00584126,0.0155866,0,-0.000983477,0.0233752,2.26663,5,0.1
0,2.5,-0.45926,3.8117,0.595601,0.343294,-0.0502393,0.00494914,-0.166671,0.12967,-0.00273064,0.00610809,0.141494,5,0.1,1,2.5,1.01188,5.3946,1.22794,-0.0725679,0.0122517,0.16694,0.390977,-0.000298023,-0.190638,0.0120213,0.324401,5,0.1,2,2.5,-3.89713,-2.02327,0.611645,0.186678,0.117945,-0.0147824,-0.149086,-0.43349,0.011798,0.0209933,0.411662,5,0.1,3,2.5,3.11917,-2.57817,0.663105,0.241356,-0.045171,-0.00851415,-0.307232,0.0575334,0.0108182,0.00846319,0.00608494,5,0.1,4,2.5,2.10794,-2.58863,0.606169,-0.53418,0.177117,-0.00675553,0.326157,-0.140041,0.00859424,0.0107238,0.181875,5,0.1,5,2.5,-2.20972,4.14972,0.622283,0.866026,-0.149919,-0.0133778,0,0.0157356,0.00141189,0.0416859,2.25752,5,0.1,6,2.5,-4.04266,-5.4095,0.741239,0.326161,0.0553243,0.00984985,-0.138104,-0.209421,-0.00541657,0.0392994,0.235356,5,0.1,7,2.5,-1.59057,4.02083,0.595151,0.86441,-0.130233,0.00407677,0.0117272,-0.0803471,-0.0019148,0.014605,1.19006,5,0.1,8,2.5,3.67101,1.88443,0.50002,-0.865838,0.0558624,-8.51229e-05,0.00751019,-0.0274852,0.000171363,0.0076851,1.41836,5,0.1,9,2.5,0.423861,-3.58787,0.562717,-0.089463,0.866026,0.0058094,0.00060536,0,-1.49012e-05,0.0233752,2.26663,5,0.1
0,2.6,-0.425777,3.80732,0.596082,0.325939,-0.0375152,0.00467151,-0.19221,0.123024,-0.00301003,0.00669315,0.278623,5,0.1,1,2.6,1.00631,5.39581,1.24367,-0.0417739,0.0117779,0.147626,0.21857,-0.00882149,-0.197053,0.0123765,0.687639,5,0.1,2,2.6,-3.87926,-2.0134,0.610229,0.170302,0.0821352,-0.0134856,-0.179768,-0.271916,0.0142455,0.0181748,0.379551,5,0.1,3,2.6,3.14176,-2.5824,0.662308,0.210345,-0.0393629,-0.00742078,-0.31507,0.0588894,0.0110865,0.00818314,0.00188192,5,0.1,4,2.6,2.0562,-2.57162,0.605535,-0.49969,0.162894,-0.00593662,0.37694,-0.148535,0.00795722,0.00923084,0.123625,5,0.1,5,2.6,-2.12311,4.13483,0.620954,0.866026,-0.147557,-0.0131667,0,0.0374317,0.00333786,0.0430825,2.25597,5,0.1,6,2.6,-4.01077,-5.40497,0.742197,0.31116,0.035882,0.00929832,-0.172615,-0.176668,-0.00596046,0.0393706,0.210051,5,0.1,7,2.6,-1.50421,4.00743,0.595548,0.860617,-0.13721,0.00386238,-0.108123,-0.0510216,-0.00244379,0.012175,0.875496,5,0.1,8,2.6,3.58453,1.88987,0.500013,-0.863016,0.0528157,-6.70552e-05,0.0599623,-0.0348091,0.000238419,0.00859679,1.07023,5,0.1,9,2.6,0.41493,-3.50127,0.563297,-0.0889167,0.866026,0.00577569,0.0142902,0,-0.000923872,0.0216309,2.26609,5,0.1
0,2.7,-0.394089,3.80416,0.596535,0.308079,-0.0258844,0.00439407,-0.175694,0.108287,-0.00269338,0.00669315,0.278623,5,0.1,1,2.7,1.00305,5.39693,1.25749,-0.0266049,0.0103675,0.128981,0.0306815,-0.0182688,-0.178076,0.0123765,0.687639,5,0.1,2,2.7,-3.86311,-2.0063,0.608951,0.152723,0.0629593,-0.0120926,-0.174075,-0.0828952,0.0137947,0.0181748,0.379551,5,0.1,3,2.7,3.16124,-2.58605,0.661621,0.179489,-0.0335954,-0.00633439,-0.302538,0.0565648,0.0106581,0.00818314,0.00188192,5,0.1,4,2.7,2.008,-2.55603,0.604978,-0.465175,0.14934,-0.00522146,0.32936,-0.127509,0.00651553,0.00923084,0.123625,5,0.1,5,2.7,-2.03651,4.12005,0.61965,0.866026,-0.149645,-0.0129586,0,-0.061214,0.00154972,0.0430825,2.25597,5,0.1,6,2.7,-3.98048,-5.40219,0.743099,0.294812,0.0204906,0.00874894,-0.164077,-0.131071,-0.00533834,0.0393706,0.210051,5,0.1,7,2.7,-1.41847,3.99342,0.595923,0.855407,-0.142971,0.00363719,-0.0413656,-0.0552833,-0.00219047,0.012175,0.875496,5,0.1,8,2.7,3.49827,1.89499,0.500007,-0.863411,0.0496028,-4.5076e-05,-0.0225604,-0.0311509,0.000201166,0.00859679,1.07023,5,0.1,9,2.7,0.406034,-3.41466,0.563872,-0.0895736,0.866026,0.00574253,-0.0194963,0,-8.19564e-05,0.0216309,2.26609,5,0.1
0,2.8,-0.364204,3.80208,0.596961,0.289002,-0.0160694,0.00410825,-0.213102,0.0874996,-0.00318885,0.00750485,0.259234,5,0.1,1,2.8,1,5.39787,1.26951,-0.0397712,0.00832081,0.111634,-0.281155,-0.0214577,-0.17041,0.010199,0.836929,5,0.1,2,2.8,-3.84871,-2,0.607811,0.135118,0.0670969,-0.0106975,-0.179648,0.152469,0.0142455,0.0150886,0.513426,5,0.1,3,2.8,3.1777,-2.58913,0.66104,0.149786,-0.028038,-0.00528842,-0.291467,0.0544786,0.0102818,0.00982132,0.000970084,5,0.1,4,2.8,1.96315,-2.54173,0.604487,-0.431108,0.136548,-0.00460297,0.363052,-0.131965,0.00596046,0.0101693,0.144326,5,0.1,5,2.8,-1.94991,4.10474,0.618363,0.866026,-0.156653,-0.0127316,-5.96046e-05,-0.0658035,0.00348687,0.0369386,1.81253,5,0.1,6,2.8,-3.95187,-5.40072,0.743946,0.276726,0.00962019,0.00817925,-0.204206,-0.0865459,-0.00625849,0.0414139,0.414855,5,0.1,7,2.8,-1.33333,3.9789,0.596275,0.844648,-0.146759,0.00340194,-0.205457,-0.0141859,-0.0025332,0.0113575,0.621875,5,0.1,8,2.8,3.41198,1.89978,0.500004,-0.860029,0.0462979,-2.83122e-05,0.119925,-0.0361204,0.000178814,0.00739814,0.778929,5,0.1,9,2.8,0.396977,-3.32806,0.564445,-0.091444,0.866026,0.00569969,-0.0120699,0,-0.00101328,0.0212938,2.26556,5,0.1
0,2.9,-0.336343,3.80094,0.597356,0.268297,-0.00654086,0.00380129,-0.207752,0.0939071,-0.00304729,0.00750485,0.259234,5,0.1,1,2.9,0.994074,5.39857,1.27987,-0.083094,0.00574514,0.0958564,-0.542458,-0.0274479,-0.147156,0.010199,0.836929,5,0.1,2,2.9,-3.83607,-1.9922,0.60681,0.118149,0.0914076,-0.00935225,-0.161842,0.306167,0.0128336,0.0150886,0.513426,5,0.1,3,2.9,3.19125,-2.59167,0.660562,0.12173,-0.0227917,-0.00429861,-0.26907,0.0503212,0.00949204,0.00982132,0.000970084,5,0.1,4,2.9,1.92152,-2.52862,0.604052,-0.404325,0.126502,-0.00413312,0.200517,-0.0775605,0.00372157,0.0101693,0.144326,5,0.1,5,2.9,-1.86331,4.08865,0.617105,0.866025,-0.165626,-0.0124568,1.49012e-05,-0.0995994,0.0025928,0.0369386,1.81253,5,0.1,6,2.9,-3.92519,-5.40022,0.744733,0.256719,0.000266731,0.00757547,-0.20203,-0.0898838,-0.00600889,0.0414139,0.414855,5,0.1,7,2.9,-1.24975,3.96414,0.596603,0.827415,-0.148372,0.0031678,-0.17561,-0.011012,-0.00225753,0.0113575,0.621875,5,0.1,8,2.9,3.32639,1.90424,0.500001,-0.852668,0.0429669,-1.42492e-05,0.0700355,-0.0319108,0.000108033,0.00739814,0.778929,5,0.1,9,2.9,0.387719,-3.24146,0.565013,-0.0940505,0.866026,0.0056603,-0.0327006,0,-0.000115484,0.0212938,2.26556,5,0.1
0,3,-0.310588,3.80071,0.597721,0.246333,0.0012517,0.0034824,-0.23593,0.0567436,-0.00339746,0.00601304,0.876615,5,0.1,1,3,0.982912,5.39902,1.28874,-0.140676,0.00324249,0.0818521,-0.576138,-0.0209808,-0.134408,0.00959803,1.32051,5,0.1,2,3,-3.82504,-1.98146,0.605937,0.102395,0.123483,-0.00810325,-0.154972,0.314474,0.0122488,0.0182483,0.979149,5,0.1,3,3,3.20212,-2.5937,0.660178,0.0960827,-0.0179946,-0.00339299,-0.243425,0.0455379,0.00858307,0.00863181,0.000811966,5,0.1,4,3,1.88201,-2.51633,0.603656,-0.386161,0.119549,-0.00380874,0.183225,-0.0680685,0.00298023,0.00865013,0.238286,5,0.1,5,3,-1.7767,4.07163,0.615875,0.866026,-0.174165,-0.0121117,-5.96046e-05,-0.0607967,0.00470877,0.0358759,1.39862,5,0.1,6,3,-3.90057,-5.40058,0.74546,0.235313,-0.00669956,0.00694394,-0.229955,-0.0429153,-0.00673532,0.0442582,1.39319,5,0.1,7,3,-1.16808,3.9493,0.596909,0.803384,-0.147766,0.00293255,-0.330031,0.027895,-0.0025034,0.00978698,0.43051,5,0.1,8,3,3.24167,1.90838,0.5,-0.838774,0.0396758,-4.47035e-06,0.237465,-0.0348687,2.98023e-05,0.00843075,0.549406,5,0.1,9,3,0.378166,-3.15486,0.565577,-0.0967182,0.866026,0.00561625,-0.0153929,0,-0.000983477,0.0260385,2.26608,5,0.1
0,3.1,-0.287157,3.8012,0.598052,0.222017,0.00859164,0.00313399,-0.251582,0.0574142,-0.00358745,0.00601304,0.876615,5,0.1,1,3.1,0.966474,5.39924,1.29629,-0.183959,0.00119209,0.0696074,-0.326417,-0.0154376,-0.112265,0.00959803,1.32051,5,0.1,2,3.1,-3.81554,-1.96793,0.605185,0.0880655,0.143663,-0.00697011,-0.133559,0.106737,0.0105612,0.0182483,0.979149,5,0.1,3,3.1,3.21056,-2.59528,0.65988,0.073158,-0.013705,-0.00258442,-0.214368,0.0401288,0.00756234,0.00863181,0.000811966,5,0.1,4,3.1,1.84403,-2.50472,0.60329,-0.375449,0.112533,-0.00352003,0.058338,-0.0746548,0.00287592,0.00865013,0.238286,5,0.1,5,3.1,-1.69011,4.05387,0.614685,0.865792,-0.181013,-0.0116939,-0.00929087,-0.0651777,0.00412762,0.0358759,1.39862,5,0.1,6,3.1,-3.87821,-5.40158,0.74612,0.211642,-0.0133023,0.00625243,-0.244498,-0.0482798,-0.00713393,0.0442582,1.39319,5,0.1,7,3.1,-1.08927,3.93466,0.59719,0.773238,-0.145154,0.00270205,-0.302531,0.0300705,-0.0021942,0.00978698,0.43051,5,0.1,8,3.1,3.15885,1.91218,0.5,-0.818045,0.0364725,-1.95578e-06,0.211582,-0.0303835,1.86265e-05,0.00843075,0.549406,5,0.1,9,3.1,0.368375,-3.06825,0.566223,-0.0993341,0.866026,0.00803461,-0.0299532,0,0.0435524,0.0260385,2.26608,5,0.1
0,3.2,-0.266246,3.80216,0.598347,0.195862,0.00808239,0.00276268,-0.271872,-0.0811815,-0.0038743,0.00673868,3.2635,5,0.1,1,3.2,0.946634,5.39931,1.30272,-0.211456,0.000786781,0.0590891,-0.241637,0.00905991,-0.0994205,0.0106506,1.50139,5,0.1,2,3.2,-3.80738,-1.95326,0.604539,0.0753522,0.147846,-0.00596493,-0.12207,-0.0106692,0.00965595,0.0143487,1.23137,5,0.1,3,3.2,3.21686,-2.59646,0.659657,0.0533223,-0.0099957,-0.00188351,-0.182152,0.0342131,0.0064075,0.00917879,0.000622314,5,0.1,4,3.2,1.80675,-2.49386,0.602952,-0.369769,0.104231,-0.00321716,0.0751615,-0.092864,0.00315905,0.00958573,0.176883,5,0.1,5,3.2,-1.60365,4.03551,0.613538,0.862303,-0.185323,-0.0112057,-0.0744462,-0.0135899,0.00596046,0.0348437,1.04867,5,0.1,6,3.2,-3.8583,-5.40291,0.746709,0.186282,-0.01055,0.00551194,-0.262856,0.120401,-0.0076592,0.0391954,3.62941,5,0.1,7,3.2,-1.01361,3.92033,0.597449,0.737894,-0.140792,0.00247955,-0.424564,0.0610352,-0.00235438,0.0101787,0.292821,5,0.1,8,3.2,3.07829,1.91568,0.5,-0.79065,0.0333965,0,0.360012,-0.0318289,0,0.00933733,0.378862,5,0.1,9,3.2,0.358315,-2.98165,0.567278,-0.101516,0.866026,0.0132978,-0.00871718,0,0.0572503,0.031552,2.26688,5,0.1
0,3.3,-0.247671,3.80261,0.598546,0.178587,-0.00253469,0.000737514,-0.0951663,-0.274599,-0.03298,0.00673868,3.2635,5,0.1,1,3.3,0.924545,5.39947,1.30817,-0.230232,0.00275671,0.0501527,-0.225134,0.0370145,-0.0808313,0.0106506,1.50139,5,0.1,2,3.3,-3.80042,-1.93888,0.603988,0.0642393,0.13757,-0.00508577,-0.101849,-0.146545,0.00806153,0.0143487,1.23137,5,0.1,3,3.3,3.22133,-2.5973,0.659499,0.0366017,-0.00685677,-0.001295,-0.151873,0.0285208,0.00535324,0.00917879,0.000622314,5,0.1,4,3.3,1.77001,-2.48389,0.602646,-0.366015,0.095256,-0.00291867,0.02148,-0.0887066,0.00287965,0.00958573,0.176883,5,0.1,5,3.3,-1.51758,4.01691,0.612446,0.860005,-0.186449,-0.0106451,-0.0169724,-0.00117719,0.00560656,0.0348437,1.04867,5,0.1,6,3.3,-3.84108,-5.40335,0.747439,0.157233,0.00586137,0.0109095,-0.31139,0.349373,0.101924,0.0391954,3.62941,5,0.1,7,3.3,-0.941817,3.90654,0.597686,0.69855,-0.135019,0.00226414,-0.386696,0.0591427,-0.00202283,0.0101787,0.292821,5,0.1,8,3.3,3.00091,1.91887,0.5,-0.757515,0.0304842,0,0.33085,-0.0273958,0,0.00933733,0.378862,5,0.1,9,3.3,0.348122,-2.89505,0.568979,-0.102209,0.866026,0.0213603,-0.000977889,0,0.0963993,0.031552,2.26688,5,0.1
0,3.4,-0.230142,3.8,0.598431,0.173026,-0.0593901,-0.00318587,-0.0325218,-0.844598,-0.0425875,0.00697635,2.83693,5,0.1,1,3.4,0.9,5.4,1.3128,-0.264627,0.00858307,0.0426561,-0.452965,0.0762939,-0.0702739,0.0124395,1.27137,5,0.1,2,3.4,-3.79448,-1.92578,0.603518,0.0546932,0.12576,-0.00433028,-0.0905991,-0.0658035,0.00715256,0.0207214,1.45864,5,0.1,3,3.4,3.22428,-2.59785,0.659395,0.0229955,-0.00430346,-0.000815094,-0.120163,0.0225306,0.00426173,0.00866256,0.000368601,5,0.1,4,3.4,1.73357,-2.47482,0.602368,-0.361791,0.0861406,-0.00262856,0.0783205,-0.095129,0.00295043,0.0100391,0.127496,5,0.1,5,3.4,-1.43187,3.99834,0.611411,0.851196,-0.184268,-0.0100225,-0.190854,0.0499487,0.00703335,0.0352401,0.767007,5,0.1,6,3.4,-3.82695,-5.4,0.749127,0.125229,0.0712633,0.0234649,-0.323176,0.93627,0.138551,0.0419231,3.16732,5,0.1,7,3.4,-0.873995,3.89337,0.597903,0.656451,-0.128174,0.00206083,-0.47192,0.0809431,-0.00205636,0.00964776,0.197155,5,0.1,8,3.4,2.92695,1.92178,0.5,-0.719756,0.027746,0,0.443816,-0.0279546,0,0.0101408,0.257577,5,0.1,9,3.4,0.337937,-2.80845,0.57161,-0.101016,0.866026,0.0312448,0.027582,0,0.095576,0.0308341,2.2651,5,0.1
0,3.5,-0.212832,3.7886,0.597879,0.174455,-0.178273,-0.00799922,0.0444409,-1.42685,-0.0509359,0.00697635,2.83693,5,0.1,1,3.5,0.870608,5.40133,1.31674,-0.32816,0.018651,0.0364132,-0.751436,0.116855,-0.0558645,0.0124395,1.27137,5,0.1,2,3.5,-3.78943,-1.91346,0.603118,0.0465542,0.123499,-0.00368748,-0.0736117,0.0992715,0.0058189,0.0207214,1.45864,5,0.1,3,3.5,3.22603,-2.59818,0.659333,0.0123143,-0.00230074,-0.000436325,-0.0934601,0.0175238,0.00331178,0.00866256,0.000368601,5,0.1,4,3.5,1.6977,-2.46666,0.60212,-0.355962,0.0771988,-0.00235448,0.0554696,-0.0855476,0.00258908,0.0100391,0.127496,5,0.1,5,3.5,-1.34768,3.98017,0.610443,0.832159,-0.178842,-0.00935206,-0.219792,0.063777,0.00664964,0.0352401,0.767007,5,0.1,6,3.5,-3.81602,-5.3869,0.75225,0.093732,0.200674,0.0395535,-0.303447,1.53923,0.172801,0.0419231,3.16732,5,0.1,7,3.5,-0.810576,3.88093,0.598099,0.612739,-0.120578,0.00187336,-0.422575,0.0748783,-0.00175461,0.00964776,0.197155,5,0.1,8,3.5,2.85707,1.92442,0.5,-0.678591,0.0251988,0,0.402704,-0.0238046,0,0.0101408,0.257577,5,0.1,9,3.5,0.327951,-2.72184,0.575245,-0.0988138,0.866026,0.0416175,0.0210796,0,0.105664,0.0308341,2.2651,5,0.1
0,3.6,-0.195149,3.7634,0.596829,0.179023,-0.326091,-0.012897,0.0346452,-1.44899,-0.0450015,0.00659212,2.29726,5,0.1,1,3.6,0.833991,5.40379,1.32012,-0.403351,0.0305057,0.0312626,-0.703007,0.114202,-0.0482202,0.00990244,0.406905,5,0.1,2,3.6,-3.78512,-1.9,0.602777,0.0397205,0.151801,-0.00314713,-0.0641346,0.450015,0.0050962,0.0153082,1.25579,5,0.1,3,3.6,3.22683,-2.59833,0.659304,0.00429153,-0.000798702,-0.000150502,-0.0673532,0.0126362,0.00235438,0.00847242,0.000166071,5,0.1,4,3.6,1.66246,-2.45936,0.601897,-0.347784,0.0687242,-0.00209957,0.120103,-0.0853539,0.002563,0.00934843,0.15422,5,0.1,5,3.6,-1.26581,3.96266,0.609542,0.802261,-0.17066,-0.00864714,-0.398099,0.103354,0.00759959,0.0298313,0.560934,5,0.1,6,3.6,-3.80811,-5.35891,0.757055,0.0651121,0.359321,0.0562146,-0.266671,1.54829,0.152737,0.0396944,2.69485,5,0.1,7,3.6,-0.751468,3.86927,0.598278,0.568525,-0.11254,0.00169873,-0.475585,0.0885725,-0.00175834,0.00996854,0.170821,5,0.1,8,3.6,2.79131,1.92683,0.5,-0.635302,0.0228435,0,0.478983,-0.0238419,0,0.00725569,0.197339,5,0.1,9,3.6,0.318195,-2.63524,0.579909,-0.0960194,0.866026,0.0513092,0.0380129,0,0.0836849,0.0284351,2.264,5,0.1
0,3.7,-0.176998,3.72318,0.595311,0.184433,-0.479934,-0.0174366,0.0605555,-1.54752,-0.0437051,0.00659212,2.29726,5,0.1,1,3.7,0.790984,5.40743,1.32302,-0.448846,0.0425026,0.0270229,-0.226684,0.119448,-0.0376254,0.00990244,0.406905,5,0.1,2,3.7,-3.78145,-1.88176,0.602486,0.0340249,0.219166,-0.0026946,-0.0510067,0.826672,0.00404939,0.0153082,1.25579,5,0.1,3,3.7,3.22696,-2.59835,0.6593,-0.00140332,0.000269711,4.88013e-05,-0.0468045,0.00876188,0.00164658,0.00847242,0.000166071,5,0.1,4,3.7,1.62798,-2.45287,0.601698,-0.344103,0.0615854,-0.00188947,-0.0168979,-0.0606924,0.00175089,0.00934843,0.15422,5,0.1,5,3.7,-1.18754,3.94611,0.608714,0.76295,-0.160387,-0.00793235,-0.410281,0.106126,0.00691786,0.0298313,0.560934,5,0.1,6,3.7,-3.8028,-5.31481,0.763242,0.0423115,0.524785,0.0656894,-0.192091,1.67233,0.0423528,0.0396944,2.69485,5,0.1,7,3.7,-0.696856,3.85833,0.598439,0.524659,-0.107166,0.0015391,-0.418633,0.0285357,-0.00149012,0.00996854,0.170821,5,0.1,8,3.7,2.73004,1.92916,0.5,-0.590972,0.0251247,0,0.426933,0.0589117,0,0.00725569,0.197339,5,0.1,9,3.7,0.308748,-2.54864,0.585472,-0.0931473,0.866026,0.0599256,0.0243206,0,0.0832304,0.0284351,2.264,5,0.1
0,3.8,-0.158296,3.66783,0.593365,0.18891,-0.621778,-0.0212833,0.0197589,-1.23167,-0.0317991,0.00856376,1.76338,5,0.1,1,3.8,0.745618,5.41225,1.32555,-0.452408,0.0533223,0.0235498,0.138074,0.0925064,-0.0326037,0.0106796,0.320019,5,0.1,2,3.8,-3.77829,-1.85557,0.602235,0.0293136,0.30475,-0.00232011,-0.0443459,0.831842,0.00351667,0.0153437,1.00808,5,0.1,3,3.8,3.22662,-2.59829,0.659312,-0.00513792,0.000965595,0.000178814,-0.0281334,0.00536442,0.00101328,0.00887618,5.63861e-05,5,0.1,4,3.8,1.59346,-2.44699,0.601517,-0.346041,0.0560164,-0.00173002,-0.000178814,-0.0532866,0.00151992,0.0108482,0.0932635,5,0.1,5,3.8,-1.11346,3.93063,0.607955,0.716534,-0.148773,-0.00722706,-0.532568,0.128746,0.00736117,0.0272757,0.416628,5,0.1,6,3.8,-3.79942,-5.25436,0.769879,0.0261724,0.678515,0.065738,-0.133157,1.33824,-0.0364482,0.0410286,2.39563,5,0.1,7,3.8,-0.646502,3.84772,0.598586,0.481945,-0.105149,0.00139326,-0.447333,0.0189543,-0.00149012,0.00764505,0.153251,5,0.1,8,3.8,2.67312,1.93203,0.5,-0.546658,0.0327498,0,0.472784,0.0855327,0,0.00862706,0.136389,5,0.1,9,3.8,0.299565,-2.46204,0.591843,-0.0903189,0.866026,0.0670344,0.0357181,0,0.0551343,0.0270542,2.26338,5,0.1
0,3.9,-0.139273,3.59966,0.591081,0.191636,-0.738491,-0.0243244,0.0244714,-1.05044,-0.027407,0.00856376,1.76338,5,0.1,1,3.9,0.70175,5.41804,1.32775,-0.419409,0.0623867,0.0207055,0.472255,0.0839233,-0.0251532,0.0106796,0.320019,5,0.1,2,3.9,-3.77556,-1.82068,0.60202,0.0254143,0.394234,-0.00201091,-0.0346452,0.904165,0.00274926,0.0153437,1.00808,5,0.1,3,3.9,3.22599,-2.59817,0.659334,-0.00724941,0.00136755,0.000255182,-0.0145137,0.00275671,0.000528991,0.00887618,5.63861e-05,5,0.1,4,3.9,1.55877,-2.44163,0.601351,-0.348041,0.0513736,-0.00159983,-0.0206158,-0.041768,0.00115484,0.0108482,0.0932635,5,0.1,5,3.9,-1.04436,3.91638,0.607267,0.666183,-0.136367,-0.00654869,-0.494014,0.122547,0.00640005,0.0272757,0.416628,5,0.1,6,3.9,-3.79738,-5.18056,0.776189,0.0154074,0.789477,0.0597342,-0.0846237,0.861228,-0.0799857,0.0410286,2.39563,5,0.1,7,3.9,-0.600169,3.83742,0.598719,0.447703,-0.0999216,0.00127805,-0.266999,0.0820607,-0.000897795,0.00764505,0.153251,5,0.1,8,3.9,2.62068,1.9358,0.5,-0.503108,0.0430424,0,0.414342,0.11231,0,0.00862706,0.136389,5,0.1,9,3.9,0.290672,-2.37543,0.598833,-0.0878137,0.866026,0.0727407,0.0194199,0,0.0539534,0.0270542,2.26338,5,0.1
0,4,-0.120048,3.5212,0.58853,0.192066,-0.823379,-0.0264928,-0.0229812,-0.614762,-0.014931,0.00707694,1.3143,5,0.1,1,4,0.662403,5.42465,1.3297,-0.366037,0.0693083,0.0183702,0.564069,0.0507832,-0.0222325,0.0105968,0.26961,5,0.1,2,4,-3.77318,-1.77698,0.601831,0.0222087,0.476363,-0.00175685,-0.0300407,0.699878,0.00238419,0.013798,0.156107,5,0.1,3,4,3.22521,-2.59802,0.659361,-0.00812411,0.0015378,0.000287592,-0.00345707,0.000596046,0.000149012,0.00874307,1.72843e-05,5,0.1,4,4,1.52396,-2.4367,0.601197,-0.346908,0.0472844,-0.00148565,0.0566244,-0.0414848,0.00119209,0.0135638,0.0728581,5,0.1,5,4,-0.980276,3.90336,0.606644,0.614457,-0.123739,-0.00591427,-0.553697,0.132203,0.0064671,0.0301006,0.312392,5,0.1,6,4,-3.7962,-5.09819,0.781716,0.00879169,0.849187,0.0504076,-0.0499487,0.336647,-0.103444,0.0389608,2.28514,5,0.1,7,4,-0.556634,3.82791,0.598843,0.423422,-0.089401,0.00119805,-0.240326,0.124931,-0.00077486,0.00910739,0.166243,5,0.1,8,4,2.57245,1.94065,0.5,-0.46106,0.053823,0,0.437975,0.0974536,0,0.00812691,0.163841,5,0.1,9,4,0.281994,-2.28883,0.606341,-0.0855729,0.866026,0.0769719,0.0289977,0,0.0271499,0.01838,2.27,5,0.1
0,4.1,-0.100936,3.43664,0.58581,0.190166,-0.860383,-0.0278425,-0.0232631,-0.166163,-0.0107847,0.00707694,1.3143,5,0.1,1,4.1,0.628631,5.43183,1.33144,-0.310148,0.0740439,0.016439,0.521768,0.0401139,-0.0170916,0.0105968,0.26961,5,0.1,2,4.1,-3.7711,-1.72645,0.601667,0.019585,0.528027,-0.00154888,-0.0232309,0.331454,0.00184402,0.013798,0.156107,5,0.1,3,4.1,3.22439,-2.59787,0.65939,-0.00807084,0.00152327,0.000287872,0.00406802,-0.000819564,-0.000130385,0.00874307,1.72843e-05,5,0.1,4,4.1,1.48944,-2.43216,0.601053,-0.343992,0.0438116,-0.00138814,0.0215992,-0.0302494,0.00083074,0.0135638,0.0728581,5,0.1,5,4.1,-0.921342,3.89159,0.606083,0.566173,-0.112114,-0.00533927,-0.435822,0.1048,0.00523776,0.0301006,0.312392,5,0.1,6,4.1,-3.79552,-5.01224,0.786221,0.0052873,0.864971,0.0395808,-0.0222176,0.0421405,-0.11082,0.0389608,2.28514,5,0.1,7,4.1,-0.51534,3.81966,0.598959,0.403487,-0.0752211,0.00113482,-0.177799,0.154704,-0.000547618,0.00910739,0.166243,5,0.1,8,4.1,2.52817,1.94662,0.5,-0.4274,0.0662146,0,0.263333,0.138976,0,0.00812691,0.163841,5,0.1,9,4.1,0.273541,-2.20223,0.614039,-0.0837587,0.866026,0.0757477,0.0123754,0,-0.0470094,0.01838,2.27,5,0.1
0,4.2,-0.0820911,3.35018,0.582987,0.186026,-0.866026,-0.0284374,-0.0651628,0,-0.000268221,0.00694486,0.951334,5,0.1,1,4.2,0.6,5.43939,1.333,-0.264794,0.0766993,0.0148267,0.386119,0.010252,-0.0156164,0.0098941,0.910002,5,0.1,2,4.2,-3.76925,-1.67261,0.601521,0.0174165,0.542673,-0.00137687,-0.0206232,-0.0362992,0.00163913,0.0118878,0.143391,5,0.1,3,4.2,3.22362,-2.59772,0.659418,-0.00739098,0.00138879,0.000265241,0.00917912,-0.00166893,-0.000327826,0.00875364,9.63731e-06,5,0.1,4,4.2,1.45523,-2.42792,0.600919,-0.339216,0.0408471,-0.00130534,0.087738,-0.0306368,0.00089407,0.0127457,0.146286,5,0.1,5,4.2,-0.866869,3.88089,0.605574,0.523202,-0.102007,-0.00483394,-0.440627,0.100851,0.00506639,0.0281972,0.233358,5,0.1,6,4.2,-3.79507,-4.92566,0.789629,0.00396967,0.866032,0.028649,-0.00572205,-0.000238419,-0.106096,0.0393025,2.27252,5,0.1,7,4.2,-0.475907,3.81293,0.59907,0.384549,-0.0591874,0.00107884,-0.214681,0.16284,-0.000625849,0.00708198,0.127057,5,0.1,8,4.2,2.48665,1.95393,0.5,-0.403506,0.0796407,0,0.235319,0.121117,0,0.00899975,0.105144,5,0.1,9,4.2,0.265234,-2.11563,0.621288,-0.0822239,0.866026,0.0684336,0.0219643,0,-0.0952482,0.018322,2.26871,5,0.1
0,4.3,-0.0637939,3.26359,0.580143,0.179947,-0.865478,-0.0283885,-0.0631301,0.0219047,0.00229105,0.00694486,0.951334,5,0.1,1,4.3,0.575457,5.44711,1.33441,-0.22605,0.0774994,0.0134692,0.387192,0.00268221,-0.0120997,0.0098941,0.910002,5,0.1,2,4.3,-3.7676,-1.61865,0.60139,0.0156216,0.535038,-0.00123419,-0.0159442,-0.129253,0.0012666,0.0118878,0.143391,5,0.1,3,4.3,3.22293,-2.59759,0.659443,-0.00630692,0.001188,0.000226591,0.0121295,-0.00225008,-0.000435859,0.00875364,9.63731e-06,5,0.1,4,4.3,1.4216,-2.424,0.600793,-0.334255,0.03752,-0.00120644,0.0314489,-0.0360757,0.00108778,0.0127457,0.146286,5,0.1,5,4.3,-0.816525,3.87114,0.605114,0.485382,-0.0933468,-0.00438793,-0.33753,0.076592,0.00403449,0.0281972,0.233358,5,0.1,6,4.3,-3.79468,-4.83906,0.791973,0.00416525,0.866023,0.0183735,0.00794232,2.98023e-05,-0.0979453,0.0393025,2.27252,5,0.1,7,4.3,-0.43847,3.80782,0.599175,0.364433,-0.0431877,0.00102147,-0.200093,0.154451,-0.000558794,0.00708198,0.127057,5,0.1,8,4.3,2.44733,1.96231,0.5,-0.38398,0.0863828,0,0.173733,0.0182837,0,0.00899975,0.105144,5,0.1,9,4.3,0.257083,-2.02902,0.627616,-0.0810597,0.866026,0.0578145,0.00637397,0,-0.114523,0.018322,2.26871,5,0.1
0,4.4,-0.0461563,3.17732,0.577327,0.172272,-0.85727,-0.0278071,-0.0949353,0.175238,0.0100434,0.00730643,0.68102,5,0.1,1,4.4,0.554778,5.45484,1.3357,-0.187662,0.0767112,0.0123054,0.378996,-0.0197887,-0.0116229,0.00935021,0.42796,5,0.1,2,4.4,-3.76611,-1.56603,0.601273,0.0141144,0.514773,-0.00111461,-0.014782,-0.283718,0.00116229,0.0132074,0.181675,5,0.1,3,4.4,3.22236,-2.59749,0.659463,-0.00503063,0.000947714,0.000180304,0.013113,-0.00238419,-0.000447035,0.0094016,9.02892e-06,5,0.1,4,4.4,1.38837,-2.42044,0.600678,-0.329509,0.033623,-0.00108629,0.0777841,-0.0420809,0.0012815,0.00927795,0.184146,5,0.1,5,4.4,-0.76965,3.86218,0.604695,0.451961,-0.0859678,-0.00399798,-0.346482,0.0742674,0.0039041,0.0269281,0.173275,5,0.1,6,4.4,-3.79421,-4.75245,0.793344,0.00526309,0.866032,0.00931025,0.012517,-0.000238419,-0.082314,0.0391282,2.27212,5,0.1,7,4.4,-0.403086,3.80424,0.599274,0.342443,-0.0287473,0.000961125,-0.248119,0.132561,-0.000685453,0.0098894,0.268626,5,0.1,8,4.4,2.40982,1.9709,0.5,-0.365597,0.0841737,0,0.207067,-0.0582933,0,0.00833582,0.17305,5,0.1,9,4.4,0.249017,-1.94242,0.632811,-0.0800811,0.866026,0.0460029,0.016816,0,-0.119627,0.0244421,2.27018,5,0.1
0,4.5,-0.029379,3.09232,0.574596,0.163379,-0.843449,-0.0268074,-0.0884611,0.139967,0.0108108,0.00730643,0.68102,5,0.1,1,4.5,0.537907,5.46241,1.33688,-0.149869,0.0746928,0.0112895,0.372801,-0.0230968,-0.00916421,0.00935021,0.42796,5,0.1,2,4.5,-3.76477,-1.51582,0.601167,0.0128262,0.490188,-0.00101328,-0.0115335,-0.228986,0.000908971,0.0132074,0.181675,5,0.1,3,4.5,3.22193,-2.5974,0.659479,-0.00370294,0.000703707,0.000134576,0.0131726,-0.00245869,-0.000458211,0.0094016,9.02892e-06,5,0.1,4,4.5,1.35546,-2.41728,0.600576,-0.331427,0.0296526,-0.000964943,-0.0829026,-0.0379384,0.00116602,0.00927795,0.184146,5,0.1,5,4.5,-0.726027,3.85392,0.604313,0.421619,-0.079589,-0.00365349,-0.277858,0.0568777,0.00312552,0.0269281,0.173275,5,0.1,6,4.5,-3.79361,-4.66585,0.793881,0.00686459,0.866023,0.00161957,0.0181049,2.98023e-05,-0.0704378,0.0391282,2.27212,5,0.1,7,4.5,-0.370056,3.80198,0.599367,0.318207,-0.0171158,0.000894815,-0.244424,0.10024,-0.000663102,0.0098894,0.268626,5,0.1,8,4.5,2.37424,1.97892,0.5,-0.346243,0.0751259,0,0.191897,-0.11722,0,0.00833582,0.17305,5,0.1,9,4.5,0.241056,-1.85582,0.636768,-0.0793681,0.866026,0.0327896,0.00243634,0,-0.139944,0.0244421,2.27018,5,0.1
0,4.6,-0.0135096,3.00887,0.571976,0.153648,-0.822723,-0.0255018,-0.109927,0.301123,0.0158548,0.00820861,0.473777,5,0.1,1,4.6,0.524745,5.46974,1.33796,-0.113826,0.0716805,0.0103921,0.344902,-0.0391006,-0.00917912,0.00909884,0.906352,5,0.1,2,4.6,-3.76354,-1.468,0.60107,0.0117183,0.465408,-0.000925362,-0.0109673,-0.281334,0.000864267,0.0136409,0.126518,5,0.1,3,4.6,3.22162,-2.59734,0.65949,-0.00244975,0.000470877,9.08971e-05,0.0120401,-0.00226498,-0.000447035,0.00850144,7.30405e-06,5,0.1,4,4.6,1.32186,-2.4145,0.600485,-0.340319,0.0259399,-0.000850856,-0.0703931,-0.0368357,0.00119209,0.0100947,0.113822,5,0.1,5,4.6,-0.685258,3.84624,0.603963,0.393404,-0.0739753,-0.0033468,-0.298768,0.0576973,0.00309944,0.0295613,0.128956,5,0.1,6,4.6,-3.79283,-4.57925,0.793717,0.00864267,0.866032,-0.00460446,0.0164509,-0.000238419,-0.0533462,0.037891,2.27182,5,0.1,7,4.6,-0.339503,3.80071,0.599453,0.292265,-0.00864863,0.000824034,-0.279531,0.069499,-0.00077486,0.00946627,0.255637,5,0.1,8,4.6,2.34063,1.98579,0.5,-0.325227,0.0617236,0,0.23675,-0.146389,0,0.00799911,0.151549,5,0.1,9,4.6,0.233142,-1.76922,0.639346,-0.0787385,0.866026,0.018841,0.0137165,-5.96046e-05,-0.135452,0.0227131,2.26833,5,0.1
0,4.7,0.00133464,2.92798,0.569502,0.143408,-0.795503,-0.0239861,-0.0994845,0.274718,0.0151806,0.00820861,0.473777,5,0.1,1,4.7,0.515035,5.47672,1.33896,-0.0809961,0.0679187,0.00958331,0.307981,-0.0382364,-0.00739098,0.00909884,0.906352,5,0.1,2,4.7,-3.76242,-1.42275,0.600981,0.0107568,0.44022,-0.000849366,-0.00868738,-0.239559,0.000685453,0.0136409,0.126518,5,0.1,3,4.7,3.22143,-2.59731,0.659497,-0.00131242,0.000255927,4.87082e-05,0.0105649,-0.00201166,-0.000391155,0.00850144,7.30405e-06,5,0.1,4,4.7,1.28739,-2.41208,0.600406,-0.349508,0.022475,-0.000739098,-0.0917763,-0.0328571,0.00105798,0.0100947,0.113822,5,0.1,5,4.7,-0.647311,3.8391,0.603642,0.366224,-0.0689715,-0.00307085,-0.257812,0.0453293,0.00253692,0.0295613,0.128956,5,0.1,6,4.7,-3.79188,-4.49265,0.793005,0.0104316,0.866023,-0.00948105,0.01809,2.98023e-05,-0.0432879,0.037891,2.27182,5,0.1,7,4.7,-0.311703,3.80021,0.599531,0.263416,-0.0015676,0.000744127,-0.298806,0.0658929,-0.000827014,0.00946627,0.255637,5,0.1,8,4.7,2.30926,1.99121,0.5,-0.302139,0.0466116,0,0.232503,-0.152081,0,0.00799911,0.151549,5,0.1,9,4.7,0.225301,-1.68261,0.640609,-0.0782863,0.866025,0.00698669,0.000252388,1.49012e-05,-0.101823,0.0227131,2.26833,5,0.1
0,4.8,0.0151646,2.84997,0.567183,0.132974,-0.76248,-0.0223458,-0.11236,0.4071,0.0181496,0.00632757,0.323347,5,0.1,1,4.8,0.50839,5.48331,1.33988,-0.0528336,0.0636935,0.00884831,0.252932,-0.0479221,-0.00756979,0.00986664,1.55374,5,0.1,2,4.8,-3.76139,-1.37997,0.6009,0.00990033,0.414595,-0.000782311,-0.00870228,-0.284851,0.000685453,0.0155443,2.598,5,0.1,3,4.8,3.22135,-2.59729,0.6595,-0.000363588,7.7486e-05,1.3411e-05,0.00834465,-0.00166893,-0.000298023,0.00925695,4.3533e-06,5,0.1,4,4.8,1.25209,-2.40999,0.600337,-0.355002,0.0193,-0.00063628,-0.00292063,-0.0308752,0.00101328,0.00920562,0.0641566,5,0.1,5,4.8,-0.611996,3.83243,0.603348,0.339645,-0.0644028,-0.0028193,-0.282824,0.0482798,0.002563,0.0255033,0.189472,5,0.1,6,4.8,-3.79075,-4.40604,0.791863,0.012058,0.866032,-0.0131175,0.0133514,-0.000238419,-0.0288486,0.0371039,2.27164,5,0.1,7,4.8,-0.286895,3.80033,0.599601,0.232334,0.0035584,0.000658631,-0.323191,0.0331402,-0.000923872,0.00852996,0.271147,5,0.1,8,4.8,2.28025,1.99512,0.5,-0.277489,0.031957,0,0.26536,-0.138342,0,0.00812186,0.335095,5,0.1,9,4.8,0.217485,-1.59601,0.640853,-0.077844,0.866026,-0.00157803,0.0121072,-5.96046e-05,-0.0698566,0.0204808,2.26807,5,0.1
0,4.9,0.0279315,2.77564,0.565035,0.122579,-0.724809,-0.0206427,-0.0994065,0.372171,0.0165142,0.00632757,0.323347,5,0.1,1,4.9,0.504402,5.48945,1.34073,-0.0270559,0.0591777,0.00817496,0.245258,-0.0441372,-0.00620633,0.00986664,1.55374,5,0.1,2,4.9,-3.75966,-1.33875,0.601607,0.0313565,0.419814,0.0215039,0.388056,0.306003,0.395678,0.0155443,2.598,5,0.1,3,4.9,3.22135,-2.59729,0.6595,0.000380725,-7.1153e-05,-1.31316e-05,0.0064671,-0.0012964,-0.000227243,0.00925695,4.3533e-06,5,0.1,4,4.9,1.21658,-2.40821,0.600278,-0.354548,0.0164144,-0.00054203,0.0255778,-0.0271201,0.000886619,0.00920562,0.0641566,5,0.1,5,4.9,-0.579396,3.82622,0.603077,0.312645,-0.0597693,-0.0026213,-0.265572,0.0460446,0.00156462,0.0255033,0.189472,5,0.1,6,4.9,-3.78947,-4.31944,0.790415,0.0134658,0.866023,-0.0157215,0.013724,2.98023e-05,-0.0223741,0.0371039,2.27164,5,0.1,7,4.9,-0.264532,3.80075,0.599652,0.221181,0.00393614,0.00025006,0.0533666,-0.020802,-0.00653788,0.00852996,0.271147,5,0.1,8,4.9,2.25381,1.99767,0.5,-0.251613,0.019546,0,0.256851,-0.109352,0,0.00812186,0.335095,5,0.1,9,4.9,0.209728,-1.50941,0.640383,-0.0775142,0.866025,-0.00743596,-0.00065472,1.49012e-05,-0.0474937,0.0204808,2.26807,5,0.1
0,5,0.0396881,2.70513,0.563055,0.11244,-0.683707,-0.0189409,-0.106027,0.467539,0.0179708,0.00761368,0.21814,5,0.1,1,5,0.502799,5.49514,1.34152,-0.00651777,0.054574,0.00754893,0.155479,-0.0491142,-0.0063777,0.0109775,1.89156,5,0.1,2,5,-3.75426,-1.29482,0.606053,0.0786722,0.461119,0.069578,0.519514,0.456572,0.527382,0.0151629,2.09106,5,0.1,3,5,3.22142,-2.59731,0.659498,0.000923872,-0.000178814,-3.27826e-05,0.00429153,-0.000953674,-0.000178814,0.00818755,1.89526e-06,5,0.1,4,5,1.18139,-2.4067,0.600228,-0.347635,0.0138342,-0.000457466,0.121534,-0.0247955,0.000804663,0.0091223,0.112936,5,0.1,5,5,-0.549486,3.82048,0.602822,0.285134,-0.0549197,-0.00247657,-0.290155,0.0519753,0.00143051,0.0282559,0.209641,5,0.1,6,5,-3.78807,-4.23284,0.788748,0.0146151,0.866032,-0.0174507,0.00834465,-0.000238419,-0.0116825,0.0386388,2.27155,5,0.1,7,5,-0.241843,3.80099,0.599639,0.234731,0.000274181,-0.000521541,0.18166,-0.0481606,-0.00840425,0.00538116,0.228446,5,0.1,8,5,2.22995,1.99913,0.5,-0.225347,0.0101477,0,0.271201,-0.0786781,0,0.00965582,1.6616,5,0.1,9,5,0.201984,-1.42281,0.639438,-0.0771444,0.866026,-0.0111252,0.0115186,-5.96046e-05,-0.0266433,0.0189539,2.26902,5,0.1
0,5.1,0.0504333,2.63896,0.561246,0.102695,-0.64037,-0.0172755,-0.0921178,0.420585,0.0158548,0.00761368,0.21814,5,0.1,1,5.1,0.502945,5.50037,1.34225,0.00853501,0.0500061,0.00697616,0.103526,-0.04372,-0.00534207,0.0109775,1.89156,5,0.1,2,5.1,-3.74351,-1.24593,0.615937,0.138453,0.520046,0.13006,0.638649,0.658296,0.645131,0.0151629,2.09106,5,0.1,3,5.1,3.22153,-2.59733,0.659494,0.00127293,-0.0002563,-4.72181e-05,0.00269711,-0.000596046,-0.000115484,0.00818755,1.89526e-06,5,0.1,4,5.1,1.14718,-2.4054,0.600186,-0.336767,0.0124685,-0.000384543,0.110224,-0.00569224,0.000666827,0.0091223,0.112936,5,0.1,5,5.1,-0.522041,3.81529,0.60258,0.266907,-0.0486739,-0.00237757,-0.101287,0.0714064,0.00070408,0.0282559,0.209641,5,0.1,6,5.1,-3.78656,-4.14624,0.786947,0.0155173,0.866023,-0.0185098,0.00867248,2.98023e-05,-0.00863522,0.0386388,2.27155,5,0.1,7,5.1,-0.217119,3.80076,0.599543,0.26223,-0.00492483,-0.00140974,0.331514,-0.0539422,-0.00895187,0.00538116,0.228446,5,0.1,8,5.1,2.20804,1.99967,0.500129,-0.218834,0.000165775,0.00365973,-0.0943542,-0.105128,0.0650659,0.00965582,1.6616,5,0.1,9,5.1,0.194295,-1.3362,0.638271,-0.0768466,0.866025,-0.011513,-0.000779517,1.49012e-05,0.0151619,0.0189539,2.26902,5,0.1
0,5.2,0.0602436,2.5771,0.559597,0.0934674,-0.595981,-0.0156835,-0.0946727,0.481725,0.0163317,0.0089931,0.146376,5,0.1,1,5.2,0.503981,5.50515,1.34292,0.00837296,0.0455737,0.00644028,-0.122905,-0.0457764,-0.00566244,0.00854852,1.75732,5,0.1,2,5.2,-3.72652,-1.19073,0.632112,0.199896,0.581768,0.19215,0.562429,0.529587,0.569195,0.0136669,1.62313,5,0.1,3,5.2,3.22167,-2.59736,0.659488,0.00146031,-0.000298023,-5.51343e-05,0.00119209,-0.000238419,-2.98023e-05,0.0126753,6.23354e-07,5,0.1,4,5.2,1.11413,-2.40417,0.600151,-0.323182,0.0121593,-0.000321865,0.171125,-0.0025034,0.000566244,0.00843687,0.0866581,5,0.1,5,5.2,-0.495727,3.8108,0.602345,0.260162,-0.0409186,-0.00230819,-0.0538975,0.0821352,0.000804663,0.0258178,0.164099,5,0.1,6,5.2,-3.78497,-4.05963,0.785064,0.0161707,0.866032,-0.0190318,0.0038147,-0.000119209,-0.0012517,0.0380539,2.27152,5,0.1,7,5.2,-0.189239,3.8,0.599359,0.294641,-0.0101447,-0.00224262,0.289604,-0.0486374,-0.00742078,0.00586474,0.198752,5,0.1,8,5.2,2.1854,1.99922,0.500872,-0.235981,-0.00835657,0.0115678,-0.212669,-0.0558496,0.0867248,0.00888789,1.5276,5,0.1,9,5.2,0.186618,-1.2496,0.637239,-0.0764813,0.866026,-0.00876933,0.0114813,-5.96046e-05,0.0367761,0.0169299,2.26813,5,0.1
0,5.3,0.0691466,2.51977,0.558106,0.0848169,-0.551492,-0.0141838,-0.0810491,0.42589,0.0141002,0.0089931,0.146376,5,0.1,1,5.3,0.503937,5.50949,1.34353,-0.0137007,0.0413582,0.00592992,-0.380397,-0.0398159,-0.00476837,0.00854852,1.75732,5,0.1,2,5.3,-3.70367,-1.12975,0.654225,0.257035,0.638179,0.249896,0.551805,0.549331,0.557434,0.0136669,1.62313,5,0.1,3,5.3,3.22182,-2.59739,0.659483,0.00152178,-0.000309572,-5.6345e-05,7.45058e-05,1.49012e-05,3.72529e-06,0.0126753,6.23354e-07,5,0.1,4,5.3,1.08269,-2.40299,0.600121,-0.305336,0.011304,-0.000269618,0.192776,-0.0139475,0.000480562,0.00843687,0.0866581,5,0.1,5,5.3,-0.469782,3.80713,0.602118,0.260152,-0.0323303,-0.00224495,0.032315,0.0877678,0.000569969,0.0258178,0.164099,5,0.1,6,5.3,-3.78333,-3.97303,0.783153,0.0166386,0.866026,-0.0191774,0.00452995,-1.49012e-05,-0.00077486,0.0380539,2.27152,5,0.1,7,5.3,-0.158342,3.79877,0.599099,0.322687,-0.0142522,-0.00294652,0.252548,-0.03317,-0.0064075,0.00586474,0.198752,5,0.1,8,5.3,2.16042,1.99807,0.502511,-0.26569,-0.0139955,0.0215171,-0.34593,-0.0251979,0.106141,0.00888789,1.5276,5,0.1,9,5.3,0.178996,-1.163,0.636517,-0.0761709,0.866025,-0.00593336,-0.000551343,1.49012e-05,0.0209995,0.0169299,2.26813,5,0.1
0,5.4,0.0772275,2.46677,0.556757,0.0767961,-0.50779,-0.0127912,-0.0812672,0.460267,0.0140667,0.00685434,0.0981299,5,0.1,1,5.4,0.5,5.51343,1.3441,-0.0712499,0.037396,0.00545382,-0.744194,-0.0400543,-0.00500679,0.0103427,1.51888,5,0.1,2,5.4,-3.67542,-1.06348,0.681791,0.30539,0.683245,0.298819,0.395417,0.317454,0.401139,0.0115634,1.19458,5,0.1,3,5.4,3.22197,-2.59742,0.659477,0.00147223,-0.000298023,-5.36442e-05,-0.000715256,0.000238419,5.96046e-05,0.00953825,2.03461e-07,5,0.1,4,5.4,1.0532,-2.40194,0.600097,-0.283507,0.00950098,-0.000225008,0.247896,-0.0214577,0.000417233,0.0104321,0.276776,5,0.1,5,5.4,-0.443607,3.80433,0.601897,0.26293,-0.0236928,-0.00217557,0.0077039,0.0834465,0.00089407,0.0270623,0.295493,5,0.1,6,5.4,-3.78165,-3.88643,0.781238,0.0169039,0.866026,-0.0190362,0.000238419,0,0.00417233,0.0378045,2.27153,5,0.1,7,5.4,-0.124998,3.7972,0.598776,0.341975,-0.016737,-0.00348091,0.120237,-0.0165701,-0.00417233,0.00631618,0.212904,5,0.1,8,5.4,2.13215,1.99679,0.505184,-0.298995,-0.0090152,0.031732,-0.294089,0.136733,0.0936389,0.00775806,1.35752,5,0.1,9,5.4,0.171387,-1.0764,0.63601,-0.0757836,0.866026,-0.00437796,0.0116453,-5.96046e-05,0.0109673,0.0186468,2.26819,5,0.1
0,5.5,0.0845273,2.41816,0.555544,0.0694088,-0.465493,-0.011509,-0.068746,0.400558,0.0119396,0.00685434,0.0981299,5,0.1,1,5.5,0.48834,5.51698,1.34463,-0.168129,0.0337332,0.00500176,-1.11649,-0.0342131,-0.00420958,0.0103427,1.51888,5,0.1,2,5.5,-3.64293,-0.993542,0.713644,0.343383,0.714881,0.337328,0.342235,0.276428,0.347059,0.0115634,1.19458,5,0.1,3,5.5,3.22211,-2.59744,0.659472,0.00136383,-0.000268966,-4.72181e-05,-0.00138581,0.000327826,7.07805e-05,0.00953825,2.03461e-07,5,0.1,4,5.5,1.02611,-2.40111,0.600076,-0.258022,0.00705011,-0.000186544,0.264473,-0.0262409,0.000361353,0.0104321,0.276776,5,0.1,5,5.5,-0.417229,3.80236,0.601683,0.264749,-0.0158716,-0.00208924,0.0148453,0.0719875,0.000905246,0.0270623,0.295493,5,0.1,6,5.5,-3.77995,-3.79983,0.779351,0.0170372,0.866026,-0.0187213,0.00146031,0,0.00302494,0.0378045,2.27153,5,0.1,7,5.5,-0.0907392,3.79547,0.598408,0.338688,-0.0176899,-0.00387011,-0.151689,-0.00280142,-0.00339374,0.00631618,0.212904,5,0.1,8,5.5,2.10067,1.99675,0.508834,-0.330822,0.0114681,0.041233,-0.314996,0.321515,0.0917241,0.00775806,1.35752,5,0.1,9,5.5,0.163836,-0.989793,0.63561,-0.0754439,0.866025,-0.00375714,-0.000192784,1.11759e-05,0.00233948,0.0186468,2.26819,5,0.1
0,5.6,0.0911301,2.37361,0.554452,0.0626599,-0.425154,-0.0103414,-0.0678338,0.416756,0.0116825,0.00635858,0.113787,5,0.1,1,5.6,0.465851,5.52018,1.3451,-0.281074,0.0303626,0.0045836,-1.08457,-0.033617,-0.00435114,0.0116116,2.84083,5,0.1,2,5.6,-3.60712,-0.921,0.748876,0.370109,0.732002,0.364546,0.177503,0.0395179,0.18245,0.0167187,0.839721,5,0.1,3,5.6,3.22224,-2.59747,0.659468,0.00119805,-0.000232458,-4.02331e-05,-0.00178814,0.000357628,8.9407e-05,0.00847307,1.31784e-07,5,0.1,4,5.6,1.00168,-2.40054,0.600059,-0.230211,0.00447631,-0.000153482,0.293046,-0.0243187,0.000327826,0.00892261,0.27219,5,0.1,5,5.6,-0.39076,3.80111,0.601479,0.263565,-0.00944138,-0.00198185,-0.0480264,0.0559092,0.0012517,0.0248125,0.272472,5,0.1,6,5.6,-3.77825,-3.71322,0.777498,0.017035,0.866026,-0.0182793,-0.00226498,0,0.0064373,0.036554,2.27155,5,0.1,7,5.6,-0.0578604,3.79371,0.598006,0.317118,-0.0173688,-0.00412166,-0.259194,0.00882149,-0.00151992,0.00685255,0.232013,5,0.1,8,5.6,2.06616,2,0.513381,-0.357306,0.0581443,0.0492811,-0.195265,0.591993,0.0660121,0.011211,1.1344,5,0.1,9,5.6,0.156302,-0.90319,0.635238,-0.0750255,0.866026,-0.00375211,0.0118762,0,-0.00154972,0.0153506,2.26825,5,0.1
0,5.7,0.0971107,2.33284,0.553467,0.0573914,-0.392983,-0.00942228,-0.0413945,0.252515,0.0073202,0.00635858,0.113787,5,0.1,1,5.7,0.431437,5.52306,1.34554,-0.413475,0.0270732,0.00415258,-1.46344,-0.0325143,-0.00432134,0.0116116,2.84083,5,0.1,2,5.7,-3.56926,-0.84759,0.786201,0.386193,0.735501,0.381079,0.126511,-0.00070408,0.130735,0.0167187,0.839721,5,0.1,3,5.7,3.22235,-2.59749,0.659464,0.0010062,-0.000194833,-3.17581e-05,-0.00201166,0.000402331,7.82311e-05,0.00847307,1.31784e-07,5,0.1,4,5.7,0.980117,-2.4002,0.600045,-0.200986,0.00232197,-0.0001234,0.292018,-0.0183135,0.000271946,0.00892261,0.27219,5,0.1,5,5.7,-0.364652,3.80042,0.601287,0.258292,-0.00461265,-0.00185641,-0.0660568,0.0405908,0.00130013,0.0248125,0.272472,5,0.1,6,5.7,-3.77655,-3.62662,0.775697,0.0169389,0.866026,-0.0177809,-0.000596046,0,0.00442192,0.036554,2.27155,5,0.1,7,5.7,-0.027631,3.79202,0.597586,0.287311,-0.0163373,-0.00428986,-0.275021,0.0119358,-0.00157952,0.00685255,0.232013,5,0.1,8,5.7,2.02944,2.00939,0.518633,-0.376921,0.134364,0.0556182,-0.175461,0.873044,0.0571087,0.011211,1.1344,5,0.1,9,5.7,0.148828,-0.816588,0.634847,-0.0746523,0.866026,-0.00414727,0.000182539,-3.72529e-06,-0.00560656,0.0153506,2.26825,5,0.1
0,5.8,0.102661,2.29471,0.552558,0.0537088,-0.370151,-0.00876933,-0.035122,0.223041,0.00616908,0.00797614,0.066332,5,0.1,1,5.8,0.382825,5.5256,1.34593,-0.556345,0.0238061,0.00370443,-1.31983,-0.0333786,-0.00452995,0.00872288,2.48104,5,0.1,2,5.8,-3.53021,-0.774318,0.82476,0.392485,0.726652,0.387792,-0.012517,-0.197172,-0.00804663,0.0114538,0.571393,5,0.1,3,5.8,3.22244,-2.59751,0.659461,0.000798702,-0.000149012,-2.38419e-05,-0.00190735,0.000238419,8.9407e-05,0.0088894,1.39202e-07,5,0.1,4,5.8,0.961479,-2.40005,0.600034,-0.171748,0.000864267,-9.68575e-05,0.292778,-0.0106096,0.000208616,0.0107184,0.270941,5,0.1,5,5.8,-0.33924,3.80014,0.601109,0.248928,-0.00132322,-0.00171512,-0.126883,0.0252724,0.00154972,0.0276113,0.257151,5,0.1,6,5.8,-3.77486,-3.54002,0.773944,0.0167549,0.866026,-0.0172451,-0.00357628,0,0.00694394,0.0369064,1.97255,5,0.1,7,5.8,0,3.79045,0.597151,0.268188,-0.0149727,-0.00439286,-0.108625,0.0156164,-0.000327826,0.00517888,0.243337,5,0.1,8,5.8,1.99104,2.02726,0.524442,-0.388765,0.222361,0.0600964,-0.0465512,0.842333,0.0299811,0.00820426,0.891322,5,0.1,9,5.8,0.141375,-0.729985,0.634402,-0.0742026,0.866026,-0.00474453,0.0120699,0,-0.00575185,0.0167499,2.26833,5,0.1
0,5.9,0.107879,2.25867,0.551708,0.0508257,-0.351654,-0.00825822,-0.0250987,0.163972,0.0044629,0.00797614,0.066332,5,0.1,1,5.9,0.320513,5.52783,1.34628,-0.688873,0.0208274,0.00330042,-1.2612,-0.0268817,-0.00367314,0.00872288,2.48104,5,0.1,2,5.9,-3.49104,-0.7026,0.863483,0.390409,0.707446,0.386121,-0.0433475,-0.212412,-0.0395663,0.0114538,0.571393,5,0.1,3,5.9,3.22251,-2.59752,0.659459,0.000607222,-0.000121817,-1.58325e-05,-0.00190735,0.000312924,6.70552e-05,0.0088894,1.39202e-07,5,0.1,4,5.9,0.945738,-2.40001,0.600026,-0.143389,0.000146404,-7.76723e-05,0.274274,-0.00412762,0.000178814,0.0107184,0.270941,5,0.1,5,5.9,-0.315058,3.80017,0.600945,0.233914,0.00209399,-0.00155279,-0.17466,0.0362247,0.00170246,0.0276113,0.257151,5,0.1,6,5.9,-3.7732,-3.45341,0.772249,0.0164934,0.866026,-0.0166711,-0.00244379,0,0.00530854,0.0369064,1.97255,5,0.1,7,5.9,0.0262923,3.78902,0.596707,0.257919,-0.0137158,-0.0044873,-0.0934704,0.0103414,-0.0012219,0.00517888,0.243337,5,0.1,8,5.9,1.95193,2.05387,0.530594,-0.393128,0.310402,0.0628133,-0.0234321,0.873491,0.0214763,0.00820426,0.891322,5,0.1,9,5.9,0.133985,-0.643383,0.633895,-0.0738,0.866026,-0.00543268,0.000513159,-3.72529e-06,-0.00737235,0.0167499,2.26833,5,0.1
0,6,0.112835,2.22434,0.550905,0.0482513,-0.334442,-0.00780672,-0.0282153,0.192165,0.00488758,0.00865226,0.0518457,5,0.1,1,6,0.245877,5.52978,1.3466,-0.797069,0.0182986,0.00295043,-0.857122,-0.0243187,-0.00345707,0.0084066,0.232586,5,0.1,2,6,-3.45236,-0.633111,0.901751,0.381446,0.679922,0.377528,-0.145674,-0.355035,-0.14165,0.0135923,0.525624,5,0.1,3,6,3.22256,-2.59753,0.659458,0.000423193,-8.9407e-05,-8.9407e-06,-0.00166893,0.000238419,2.98023e-05,0.00967104,1.18981e-07,5,0.1,4,6,0.932738,-2.4,0.600019,-0.116925,-5.36442e-05,-6.10948e-05,0.25481,-0.000476837,0.000178814,0.00823746,0.268519,5,0.1,5,6,-0.292626,3.80053,0.600799,0.213856,0.0048399,-0.00137389,-0.226662,0.0146627,0.00187755,0.0247514,3.81828,5,0.1,6,6,-3.77157,-3.36681,0.770611,0.016129,0.866026,-0.0160515,-0.00548363,0,0.00759959,0.0352765,1.54687,5,0.1,7,6,0.0516536,3.7877,0.596253,0.249641,-0.0127673,-0.00457913,-0.0739115,0.00929832,-0.000417233,0.00609246,0.261621,5,0.1,8,6,1.91265,2.08902,0.53695,-0.390565,0.389344,0.0639126,0.0861883,0.673294,-0.0013411,0.012099,0.665411,5,0.1,9,6,0.126619,-0.55678,0.633316,-0.0733247,0.866026,-0.00610948,0.012219,0,-0.00569224,0.0143865,2.26841,5,0.1
0,6.1,0.117543,2.19171,0.550145,0.0460537,-0.31922,-0.00742236,-0.0183755,0.129923,0.00322238,0.00865226,0.0518457,5,0.1,1,6.1,0.162956,5.5315,1.34688,-0.850873,0.0162035,0.00265352,-0.228589,-0.0182986,-0.0026077,0.0084066,0.232586,5,0.1,2,6.1,-3.41493,-0.566662,0.938811,0.367079,0.650581,0.363523,-0.153512,-0.262752,-0.150185,0.0135923,0.525624,5,0.1,3,6.1,3.2226,-2.59754,0.659457,0.000264123,-6.4075e-05,-6.0536e-06,-0.00150502,0.000268221,2.6077e-05,0.00967104,1.18981e-07,5,0.1,4,6.1,0.922277,-2.40008,0.600013,-0.0927468,-0.00206083,-4.49829e-05,0.228364,-0.0306964,0.000145286,0.00823746,0.268519,5,0.1,5,6.1,-0.272192,3.80148,0.600671,0.196316,0.0159737,-0.00118464,-0.137256,0.126049,0.0018999,0.0247514,3.81828,5,0.1,6,6.1,-3.76998,-3.28021,0.76904,0.015647,0.865924,-0.0153784,-0.00479817,-0.00408292,0.00648946,0.0352765,1.54687,5,0.1,7,6.1,0.0762267,3.78645,0.59579,0.241743,-0.0123437,-0.00471054,-0.079667,0.000551343,-0.00179932,0.00609246,0.261621,5,0.1,8,6.1,1.87401,2.1313,0.543332,-0.382104,0.455129,0.0636356,0.0971034,0.607714,-0.00654161,0.012099,0.665411,5,0.1,9,6.1,0.119317,-0.470178,0.632674,-0.072897,0.866026,-0.00673709,0.000801869,-3.57628e-06,-0.00628456,0.0143865,2.26841,5,0.1
0,6.2,0.122055,2.16045,0.549419,0.0441255,-0.30545,-0.00708848,-0.0220463,0.157952,0.00369549,0.00898742,0.0236612,5,0.1,1,6.2,0.0776924,5.53303,1.34713,-0.845044,0.0145078,0.00240803,0.332217,-0.015974,-0.00232458,0.0102923,2.31932,5,0.1,2,6.2,-3.37908,-0.502973,0.97432,0.348771,0.62209,0.345543,-0.220537,-0.328898,-0.21717,0.0114556,0.364135,5,0.1,3,6.2,3.22262,-2.59755,0.659457,0.00013113,-4.17233e-05,-2.98023e-06,-0.0013113,0.000357628,0,0.0102702,8.44285e-08,5,0.1,4,6.2,0.914097,-2.40044,0.60001,-0.0713155,-0.00474453,-3.27826e-05,0.199944,-0.0171661,0.000119209,0.0103216,0.253498,5,0.1,5,6.2,-0.253187,3.8034,0.600562,0.184118,0.0180244,-0.000993907,-0.116475,-0.123501,0.00187755,0.0251519,3.55862,5,0.1,6,6.2,-3.76844,-3.19367,0.767537,0.0150561,0.864393,-0.0146464,-0.00739098,-0.0326633,0.00852346,0.0357571,1.17834,5,0.1,7,6.2,0.1,3.78521,0.59531,0.233579,-0.0124216,-0.00486821,-0.08928,-0.000953674,-0.00110269,0.00579599,0.325176,5,0.1,8,6.2,1.8364,2.17951,0.549638,-0.368798,0.505036,0.0622183,0.178337,0.366807,-0.023365,0.00916284,0.472599,5,0.1,9,6.2,0.112042,-0.383575,0.631972,-0.0724001,0.866025,-0.00727028,0.0123121,1.43051e-05,-0.00393391,0.0156651,2.26933,5,0.1
0,6.3,0.126361,2.13067,0.548728,0.0419982,-0.290095,-0.00673383,-0.0219052,0.158474,0.00362843,0.00898742,0.0236612,5,0.1,1,6.3,-0.00614803,5.53441,1.34736,-0.839507,0.0130646,0.00219531,-0.134661,-0.0133216,-0.00199676,0.0102923,2.31932,5,0.1,2,6.3,-3.34526,-0.442246,1.00783,0.327753,0.593421,0.324826,-0.209749,-0.269532,-0.20697,0.0114556,0.364135,5,0.1,3,6.3,3.22262,-2.59755,0.659457,1.3411e-05,-9.68575e-06,-2.6077e-06,-0.00101328,0.000268221,7.45058e-06,0.0102702,8.44285e-08,5,0.1,4,6.3,0.907917,-2.40107,0.600007,-0.0527926,-0.00802912,-2.2538e-05,0.170328,-0.0235885,8.9407e-05,0.0103216,0.253498,5,0.1,5,6.3,-0.235231,3.80422,0.600471,0.175961,-0.00791997,-0.000812951,-0.0584451,-0.489235,0.00173971,0.0251519,3.55862,5,0.1,6,6.3,-3.76697,-3.10725,0.766112,0.0143774,0.864784,-0.0138696,-0.00670552,0.00748038,0.00751764,0.0357571,1.17834,5,0.1,7,6.3,0.12268,3.78394,0.594814,0.217912,-0.0131764,-0.00508009,-0.216494,-0.0120997,-0.00266358,0.00579599,0.325176,5,0.1,8,6.3,1.80037,2.23179,0.555746,-0.351772,0.539118,0.0599083,0.1738,0.287458,-0.0247732,0.00916284,0.472599,5,0.1,9,6.3,0.104834,-0.296973,0.631223,-0.0719521,0.866025,-0.0077093,0.00104913,-1.78814e-06,-0.00431389,0.0156651,2.26933,5,0.1
0,6.4,0.130442,2.10252,0.548074,0.0395119,-0.272214,-0.00632554,-0.0287369,0.205159,0.00467896,0.00883399,0.0143824,5,0.1,1,6.4,-0.0909601,5.53565,1.34757,-0.856977,0.011766,0.00199676,-0.151559,-0.0128746,-0.00202656,0.0127449,2.32474,5,0.1,2,6.4,-3.31358,-0.384321,1.03923,0.305158,0.563934,0.302508,-0.248551,-0.337646,-0.245988,0.0117289,0.24906,5,0.1,3,6.4,3.22262,-2.59755,0.659456,-7.15256e-05,1.19209e-05,-1.49012e-06,-0.000715256,0.000238419,0,0.00842399,3.98333e-08,5,0.1,4,6.4,0.903439,-2.40185,0.600005,-0.0372693,-0.00593662,-1.49012e-05,0.140131,0.0759363,5.96046e-05,0.00880225,0.215192,5,0.1,5,6.4,-0.217911,3.8,0.600399,0.170391,-0.0856161,-0.00064671,-0.0615492,-1.02866,0.00157952,0.0225226,3.10203,5,0.1,6,6.4,-3.76557,-3.02087,0.764765,0.0136256,0.860858,-0.0130549,-0.00882149,-0.103474,0.00908971,0.0343384,0.869718,5,0.1,7,6.4,0.143232,3.78256,0.594293,0.191721,-0.0144839,-0.0053212,-0.300504,-0.0126362,-0.00175834,0.00534162,0.39485,5,0.1,8,6.4,1.76613,2.28682,0.561598,-0.332099,0.557971,0.0569433,0.227571,0.0712872,-0.0357926,0.0096744,0.323332,5,0.1,9,6.4,0.0976549,-0.21037,0.630434,-0.0714375,0.866025,-0.00804216,0.0123754,0,-0.00196695,0.0145361,2.41055,5,0.1
0,6.5,0.134253,2.0763,0.547464,0.0367164,-0.252227,-0.00587152,-0.028274,0.201881,0.00457838,0.00883399,0.0143824,5,0.1,1,6.5,-0.177164,5.53644,1.34732,-0.865092,0.00121221,-0.0106465,-0.0299701,-0.177711,-0.223219,0.0127449,2.32474,5,0.1,2,6.5,-3.28425,-0.329486,1.06831,0.281866,0.533552,0.279448,-0.225648,-0.290444,-0.223495,0.0117289,0.24906,5,0.1,3,6.5,3.22261,-2.59755,0.659456,-0.000131503,3.1665e-05,-1.11759e-06,-0.000461936,0.00013411,7.45058e-06,0.00842399,3.98333e-08,5,0.1,4,6.5,0.900367,-2.40195,0.600004,-0.0246213,0.00612177,-9.87202e-06,0.112895,0.19972,3.72529e-05,0.00880225,0.215192,5,0.1,5,6.5,-0.201092,3.7851,0.600341,0.166589,-0.221412,-0.000501517,-0.0249445,-1.5773,0.00132993,0.0225226,3.10203,5,0.1,6,6.5,-3.76425,-2.93506,0.763502,0.0128105,0.856497,-0.0122196,-0.00792742,-0.0300407,0.00803545,0.0343384,0.869718,5,0.1,7,6.5,0.16079,3.78104,0.593748,0.158538,-0.0159383,-0.00561271,-0.354589,-0.0149906,-0.00352412,0.00534162,0.39485,5,0.1,8,6.5,1.73401,2.34294,0.56712,-0.310696,0.563399,0.0535287,0.210181,0.0151843,-0.0341162,0.0096744,0.323332,5,0.1,9,6.5,0.0905437,-0.12471,0.629618,-0.0709713,0.839437,-0.00829035,0.00127917,-0.466883,-0.00247732,0.0145361,2.41055,5,0.1
0,6.6,0.137777,2.05213,0.546901,0.0336803,-0.23067,-0.0053823,-0.0331178,0.23365,0.00533462,0.00935179,0.00459746,5,0.1,1,6.6,-0.263744,5.53554,1.34496,-0.866026,-0.0201225,-0.0377357,0,-0.233173,-0.29701,0.0122261,2.29481,5,0.1,2,6.6,-3.25721,-0.277641,1.09512,0.258625,0.502384,0.256422,-0.244737,-0.34701,-0.24271,0.0115235,0.168929,5,0.1,3,6.6,3.2226,-2.59754,0.659456,-0.000166893,4.76837e-05,0,-0.000238419,-0.000119209,0,0.0092091,1.46892e-08,5,0.1,4,6.6,0.898425,-2.4,0.600003,-0.0146613,0.0360548,-5.96046e-06,0.0864565,0.385046,2.98023e-05,0.0113891,0.153507,5,0.1,5,6.6,-0.184568,3.75492,0.600298,0.163609,-0.381804,-0.000378489,-0.0421405,-1.54757,0.00107288,0.0229175,2.64401,5,0.1,6,6.6,-3.76301,-2.84975,0.762321,0.0119686,0.84697,-0.011377,-0.00917912,-0.192761,0.00914931,0.0385956,1.11577,5,0.1,7,6.6,0.17484,3.77938,0.59317,0.122342,-0.0172317,-0.00593215,-0.362478,-0.0100136,-0.0025034,0.0048152,0.453926,5,0.1,8,6.6,1.70403,2.39912,0.572294,-0.288436,0.557351,0.0498503,0.241637,-0.1508,-0.040561,0.00910405,0.216074,5,0.1,9,6.6,0.0834637,-0.0434661,0.628779,-0.0704406,0.782771,-0.00845045,0.0124201,-0.630082,-0.000357628,0.0154248,2.54962,5,0.1
0,6.7,0.140979,2.03023,0.546389,0.0303343,-0.207119,-0.00484437,-0.0341795,0.239789,0.00548363,0.00935179,0.00459746,5,0.1,1,6.7,-0.350347,5.53222,1.33987,-0.866026,-0.0471719,-0.0623573,3.57628e-06,-0.291139,-0.198126,0.0122261,2.29481,5,0.1,2,6.7,-3.23251,-0.229021,1.11961,0.235953,0.470741,0.233936,-0.215709,-0.302686,-0.213981,0.0115235,0.168929,5,0.1,3,6.7,3.22258,-2.59754,0.659456,-0.000182167,3.76254e-05,9.31323e-08,-7.45058e-05,-7.45058e-05,3.72529e-06,0.0092091,1.46892e-08,5,0.1,4,6.7,0.897354,-2.39412,0.600003,-0.00711391,0.0840809,-3.44589e-06,0.0647493,0.5389,1.86265e-05,0.0113891,0.153507,5,0.1,5,6.7,-0.16835,3.70862,0.600265,0.16119,-0.545727,-0.000282936,-0.0157747,-1.64455,0.000849366,0.0229175,2.64401,5,0.1,6,6.7,-3.76185,-2.76556,0.761227,0.0111207,0.840011,-0.0105363,-0.00813603,-0.00333786,0.0080131,0.0385956,1.11577,5,0.1,7,6.7,0.185291,3.77771,0.592559,0.0871055,-0.0152778,-0.00632377,-0.336456,0.0435263,-0.00468269,0.0048152,0.453926,5,0.1,8,6.7,1.67633,2.4541,0.577086,-0.265957,0.542037,0.0460478,0.216067,-0.173628,-0.0368468,0.00910405,0.216074,5,0.1,9,6.7,0.076453,0.0312836,0.627929,-0.0699518,0.71235,-0.00854852,0.00160327,-0.637143,-0.00109896,0.0154248,2.54962,5,0.1
0,6.8,0.143837,2.01074,0.545933,0.0267889,-0.182348,-0.00427663,-0.0368953,0.256658,0.00590086,0.00780435,0.00137211,5,0.1,1,6.8,-0.43695,5.52606,1.33279,-0.866025,-0.0754476,-0.0778466,-1.43051e-05,-0.26226,-0.113785,0.011596,2.28265,5,0.1,2,6.8,-3.20999,-0.1835,1.14194,0.214291,0.439002,0.212446,-0.222445,-0.34371,-0.220656,0.0125129,0.210919,5,0.1,3,6.8,3.22256,-2.59753,0.659456,-0.000178814,2.98023e-05,0,0,0,2.98023e-05,0.00875343,7.29379e-09,5,0.1,4,6.8,0.896932,-2.38301,0.600002,-0.00165105,0.137478,-2.98023e-06,0.0447929,0.50211,2.98023e-05,0.00842234,0.0931328,5,0.1,5,6.8,-0.15233,3.64625,0.60024,0.158821,-0.695878,-0.000207126,-0.0383854,-1.29628,0.000655651,0.0236739,2.36916,5,0.1,6,6.8,-3.76078,-2.68165,0.760213,0.0102818,0.836521,-0.00971556,-0.00905991,-0.107527,0.00864267,0.0342579,1.38564,5,0.1,7,6.8,0.192401,3.77645,0.591904,0.0560101,-0.00951886,-0.0067547,-0.281654,0.0671148,-0.00351667,0.0105182,3.51782,5,0.1,8,6.8,1.65082,2.50728,0.581504,-0.243849,0.519615,0.0422522,0.231624,-0.286937,-0.0399947,0.0104218,0.142739,5,0.1,9,6.8,0.0694765,0.1,0.627071,-0.0693932,0.66887,-0.00858307,0.012584,-0.238392,0.000745058,0.0110672,2.52752,5,0.1
0,6.9,0.146332,1.99379,0.545535,0.0231134,-0.156841,-0.00368925,-0.0366289,0.253536,0.00584498,0.00780435,0.00137211,5,0.1,1,6.9,-0.523552,5.51716,1.32467,-0.866026,-0.102838,-0.0828331,1.93715e-06,-0.27135,-0.00566989,0.011596,2.28265,5,0.1,2,6.9,-3.18961,-0.141052,1.16214,0.193869,0.411987,0.192187,-0.191912,-0.220403,-0.190392,0.0125129,0.210919,5,0.1,3,6.9,3.22254,-2.59753,0.659456,-0.000172108,2.94298e-05,2.51457e-06,0.000119209,-1.49012e-05,1.86265e-05,0.00875343,7.29379e-09,5,0.1,4,6.9,0.896965,-2.36676,0.600002,0.00204938,0.186843,-5.58794e-07,0.0295676,0.464022,1.49012e-05,0.00842234,0.0931328,5,0.1,5,6.9,-0.136598,3.57099,0.600223,0.156019,-0.800598,-0.000150315,-0.025433,-0.785157,0.000484288,0.0236739,2.36916,5,0.1,6,6.9,-3.7598,-2.59798,0.759282,0.00944994,0.840612,-0.00892337,-0.00788271,0.124514,0.00748783,0.0342579,1.38564,5,0.1,7,6.9,0.196713,3.77381,0.591233,0.0314558,-0.0602692,-0.00646515,-0.208417,-0.956208,0.00828132,0.0105182,3.51782,5,0.1,8,6.9,1.62753,2.55786,0.58554,-0.222489,0.492021,0.0385469,0.20241,-0.280082,-0.0352636,0.0104218,0.142739,5,0.1,9,6.9,0.0625727,0.166968,0.626214,-0.0688512,0.680678,-0.00857851,0.00237348,0.374777,-0.000160187,0.0110672,2.52752,5,0.1
0,7,0.148461,1.97936,0.545195,0.0194661,-0.13167,-0.00310689,-0.0362694,0.249624,0.00578165,0.00972197,0.000727303,5,0.1,1,7,-0.610155,5.5056,1.31642,-0.866026,-0.12728,-0.082019,0,-0.207186,0.0113845,0.0129218,2.27147,5,0.1,2,7,-3.17117,-0.100912,1.18042,0.174904,0.390808,0.173369,-0.191689,-0.2205,-0.190139,0.00983146,0.15604,5,0.1,3,7,3.22253,-2.59753,0.659457,-0.000154972,2.98023e-05,2.98023e-06,0.000119209,-0.000119209,2.98023e-05,0.0106572,7.07639e-09,5,0.1,4,7,0.897295,-2.34596,0.600002,0.00433326,0.226724,0,0.0165403,0.319004,2.98023e-05,0.00908668,0.123777,5,0.1,5,7,-0.121154,3.4879,0.60021,0.152415,-0.852674,-0.000108778,-0.0520647,-0.267029,0.000327826,0.0208905,2.26589,5,0.1,6,7,-3.75889,-2.51335,0.758428,0.00864863,0.850242,-0.00816733,-0.00822544,0.0212193,0.00780821,0.0323761,1.03866,5,0.1,7,7,0.198942,3.76217,0.590641,0.0143625,-0.178355,-0.00528544,-0.13411,-1.30761,0.0145137,0.0129819,2.95306,5,0.1,8,7,1.60629,2.60557,0.589218,-0.202209,0.461078,0.0350058,0.207961,-0.349045,-0.0363588,0.00860793,0.0940408,5,0.1,9,7,0.0557102,0.237247,0.625357,-0.0682147,0.726332,-0.00853091,0.013275,0.463144,0.00143051,0.0117531,2.35693,5,0.1
0,7.1,0.150229,1.96742,0.544913,0.0159389,-0.107442,-0.00254475,-0.0341553,0.234097,0.00543892,0.00972197,0.000727303,5,0.1,1,7.1,-0.696757,5.49181,1.30831,-0.866026,-0.148349,-0.0805762,3.72529e-06,-0.201344,-0.0135899,0.0129218,2.27147,5,0.1,2,7.1,-3.15457,-0.0629591,1.19687,0.157434,0.367809,0.156039,-0.162691,-0.246778,-0.161387,0.00983146,0.15604,5,0.1,3,7.1,3.22251,-2.59753,0.659457,-0.000138208,1.9744e-05,5.40167e-06,0.000193715,-7.45058e-05,1.49012e-05,0.0106572,7.07639e-09,5,0.1,4,7.1,0.897789,-2.32164,0.600002,0.00534756,0.259761,2.42144e-06,0.00445172,0.319138,1.49012e-05,0.00908668,0.123777,5,0.1,5,7.1,-0.106109,3.40181,0.6002,0.148905,-0.865191,-8.19564e-05,-0.0266583,-0.0333786,0.000216067,0.0208905,2.26589,5,0.1,6,7.1,-3.75807,-2.42821,0.757647,0.0078965,0.851851,-0.00745412,-0.00707805,-0.0242442,0.00669807,0.0323761,1.03866,5,0.1,7,7.1,0.199822,3.73699,0.590192,0.00429195,-0.330729,-0.0036289,-0.0709333,-1.64218,0.0179149,0.0129819,2.95306,5,0.1,8,7.1,1.58705,2.65001,0.592548,-0.18317,0.428199,0.0316675,0.178546,-0.321224,-0.0313781,0.00860793,0.0940408,5,0.1,9,7.1,0.0489287,0.312634,0.624508,-0.0675748,0.783931,-0.00846311,0.00350343,0.617334,0.000409782,0.0117531,2.35693,5,0.1
0,7.2,0.151657,1.95782,0.544685,0.012657,-0.0849962,-0.0020206,-0.0313818,0.21404,0.00497699,0.0102499,0.000651515,5,0.1,1,7.2,-0.78336,5.47607,1.3,-0.866026,-0.165367,-0.0874251,0,-0.130415,-0.11915,0.0103454,2.25316,5,0.1,2,7.2,-3.13963,-0.0275031,1.21168,0.141513,0.340282,0.14025,-0.159144,-0.308171,-0.157952,0.011724,0.275419,5,0.1,3,7.2,3.2225,-2.59752,0.659458,-0.000119209,1.19209e-05,5.96046e-06,0.000357628,0,0,0.011289,5.75076e-09,5,0.1,4,7.2,0.898331,-2.29422,0.600003,0.00535548,0.286716,2.98023e-06,-0.00372529,0.203967,0,0.00810591,0.196534,5,0.1,5,7.2,-0.0913675,3.31523,0.600193,0.145623,-0.866026,-6.4075e-05,-0.0450498,0,0.000149012,0.0248127,2.25849,5,0.1,6,7.2,-3.75731,-2.34345,0.756935,0.00718832,0.83952,-0.00678599,-0.00727177,-0.246167,0.00682473,0.034203,2.71844,5,0.1,7,7.2,0.199976,3.69582,0.58992,-0.000495836,-0.489789,-0.00182539,-0.0278875,-1.46699,0.0175834,0.0102682,2.56561,5,0.1,8,7.2,1.56961,2.69119,0.59556,-0.165522,0.394696,0.028567,0.178456,-0.357509,-0.031352,0.00874138,0.106643,5,0.1,9,7.2,0.0421994,0.393896,0.623666,-0.0668338,0.837866,-0.008367,0.0141393,0.413553,0.00184774,0.0128843,2.28426,5,0.1
0,7.3,0.152771,1.95035,0.544507,0.00968205,-0.0647401,-0.00154832,-0.0279946,0.190265,0.00444427,0.0102499,0.000651515,5,0.1,1,7.3,-0.869962,5.45885,1.29035,-0.866026,-0.178793,-0.108051,3.72529e-06,-0.126064,-0.266485,0.0103454,2.25316,5,0.1,2,7.3,-3.12615,0.00472554,1.22504,0.129004,0.302002,0.127831,-0.0995398,-0.445656,-0.0988245,0.011724,0.275419,5,0.1,3,7.3,3.22249,-2.59752,0.659458,-8.53091e-05,1.19209e-05,5.58794e-06,0.000312924,0,-7.45058e-06,0.011289,5.75076e-09,5,0.1,4,7.3,0.898839,-2.26431,0.600003,0.00471966,0.312861,2.6077e-06,-0.00849739,0.287175,-7.45058e-06,0.00810591,0.196534,5,0.1,5,7.3,-0.0769557,3.22862,0.600187,0.143123,-0.866026,-5.33648e-05,-0.0141035,0,7.07805e-05,0.0248127,2.25849,5,0.1,6,7.3,-3.75588,-2.26181,0.75629,0.0277087,0.784092,-0.00612307,0.370383,-0.807375,0.00654161,0.034203,2.71844,5,0.1,7,7.3,0.199796,3.63965,0.589823,-0.00293963,-0.630769,-0.000125077,-0.0186171,-1.29734,0.0160672,0.0102682,2.56561,5,0.1,8,7.3,1.55381,2.72915,0.598283,-0.151523,0.366776,0.0260879,0.111394,-0.223622,-0.0198968,0.00874138,0.106643,5,0.1,9,7.3,0.0355605,0.479164,0.622835,-0.0661058,0.862395,-0.00826316,0.00431007,0.107804,0.00070408,0.0128843,2.28426,5,0.1
0,7.4,0.153605,1.94478,0.544373,0.00707842,-0.0470787,-0.00113398,-0.0239983,0.162423,0.0038147,0.0102666,0.000516549,5,0.1,1,7.4,-0.956565,5.44043,1.27815,-0.866026,-0.188541,-0.136006,0,-0.0605583,-0.272393,0.0109622,2.22609,5,0.1,2,7.4,-3.11371,0.0325523,1.23737,0.120127,0.253337,0.119019,-0.084281,-0.517561,-0.0836253,0.0124823,0.470924,5,0.1,3,7.4,3.22248,-2.59752,0.659459,-5.36442e-05,1.19209e-05,4.47035e-06,0.000238419,-0.000119209,0,0.00942531,5.21449e-09,5,0.1,4,7.4,0.899264,-2.23166,0.600003,0.00374615,0.338691,1.49012e-06,-0.0106394,0.20659,0,0.00802855,0.120212,5,0.1,5,7.4,-0.0627243,3.14202,0.600182,0.14123,-0.866026,-4.76837e-05,-0.0303257,0,2.98023e-05,0.0261257,2.73017,5,0.1,6,7.4,-3.75096,-2.18799,0.755711,0.0728607,0.687706,-0.0054583,0.495911,-1.07872,0.00679493,0.0301615,2.94599,5,0.1,7,7.4,0.199439,3.57073,0.589886,-0.00387244,-0.739986,0.0013262,0.00105798,-0.849366,0.0126958,0.0134093,2.35552,5,0.1,8,7.4,1.53918,2.76478,0.6008,-0.141525,0.346023,0.0242978,0.0959039,-0.207901,-0.0171661,0.00793158,0.0615637,5,0.1,9,7.4,0.0289813,0.565675,0.622013,-0.0653066,0.866026,-0.00814497,0.0144336,0,0.00196695,0.0114422,2.26919,5,0.1
0,7.5,0.154199,1.94084,0.544278,0.00486474,-0.0321221,-0.000781659,-0.0202013,0.136226,0.00321493,0.0102666,0.000516549,5,0.1,1,7.5,-1.04317,5.42109,1.26304,-0.866026,-0.199571,-0.167024,0,-0.139087,-0.325061,0.0109622,2.22609,5,0.1,2,7.5,-3.10196,0.0552344,1.24885,0.11618,0.199927,0.110693,-0.00698864,-0.540452,-0.0852942,0.0124823,0.470924,5,0.1,3,7.5,3.22248,-2.59752,0.659459,-3.1665e-05,2.23517e-06,4.09782e-06,0.000193715,-5.96046e-05,-7.45058e-06,0.00942531,5.21449e-09,5,0.1,4,7.5,0.899585,-2.19676,0.600003,0.00267578,0.358928,1.39698e-06,-0.0105165,0.17792,-3.72529e-06,0.00802855,0.120212,5,0.1,5,7.5,-0.0472016,3.05553,0.600177,0.182114,-0.861823,-4.68455e-05,0.745423,0.111267,-1.11759e-05,0.0261257,2.73017,5,0.1,6,7.5,-3.74086,-2.12514,0.755197,0.131252,0.566407,-0.00483403,0.633299,-1.25781,0.00582263,0.0301615,2.94599,5,0.1,7,7.5,0.199039,3.4928,0.590079,-0.00407086,-0.814596,0.00249743,0.00464916,-0.607848,0.010483,0.0134093,2.35552,5,0.1,8,7.5,1.52544,2.79846,0.603154,-0.133551,0.328332,0.0228616,0.0701025,-0.160843,-0.0126697,0.00793158,0.0615637,5,0.1,9,7.5,0.0224965,0.652278,0.621206,-0.0645536,0.866026,-0.00803256,0.00445154,-3.72529e-06,0.000748783,0.0114422,2.26919,5,0.1
0,7.6,0.154592,1.93827,0.544214,0.00304878,-0.019902,-0.000493228,-0.0160858,0.108063,0.0025928,0.00998326,0.000311798,5,0.1,1,7.6,-1.12977,5.40045,1.24478,-0.866026,-0.212729,-0.197065,5.96046e-05,-0.108719,-0.259101,0.00876103,1.79832,5,0.1,2,7.6,-3.09033,0.0725568,1.25948,0.116575,0.147042,0.101566,0.00572205,-0.509489,-0.0988841,0.00877693,0.459939,5,0.1,3,7.6,3.22247,-2.59752,0.65946,-1.19209e-05,-5.96046e-06,2.98023e-06,0.000238419,0.000119209,0,0.0123098,5.20706e-09,5,0.1,4,7.6,0.899802,-2.16016,0.600003,0.00168532,0.370878,0,-0.00914931,0.0474453,2.98023e-05,0.00887352,0.0656825,5,0.1,5,7.6,-0.0246792,2.97027,0.600173,0.272135,-0.839323,-4.76837e-05,0.975772,0.356317,-2.98023e-05,0.0246568,2.41258,5,0.1,6,7.6,-3.72461,-2.07452,0.754742,0.192803,0.449836,-0.00427067,0.568986,-1.02627,0.00557303,0.0306054,3.02414,5,0.1,7,7.6,0.198718,3.40893,0.590376,-0.00160038,-0.856018,0.00338405,0.0485256,-0.200152,0.00703335,0.0106011,2.41038,5,0.1,8,7.6,1.51244,2.83046,0.605377,-0.126383,0.311309,0.0215769,0.0778437,-0.190139,-0.0138879,0.00935735,0.0475031,5,0.1,9,7.6,0.0160726,0.73888,0.620407,-0.0637618,0.866026,-0.0079155,0.0141029,0,0.00193715,0.013151,2.26913,5,0.1
0,7.7,0.154822,1.93678,0.544177,0.00161335,-0.0102801,-0.000261795,-0.0126073,0.0842884,0.00203028,0.00998326,0.000311798,5,0.1,1,7.7,-1.21637,5.37856,1.22374,-0.865928,-0.225507,-0.223637,0.0038743,-0.130117,-0.254191,0.00876103,1.79832,5,0.1,2,7.7,-3.07857,0.0848215,1.26916,0.119154,0.099454,0.0921344,0.0362992,-0.437537,-0.0918582,0.00877693,0.459939,5,0.1,3,7.7,3.22247,-2.59752,0.65946,8.19564e-06,4.09782e-06,2.6077e-06,0.000149012,7.45058e-05,-7.45058e-06,0.0123098,5.20706e-09,5,0.1,4,7.7,0.899928,-2.1229,0.600003,0.000880938,0.373403,2.04891e-06,-0.00691786,-0.00934303,7.45058e-06,0.00887352,0.0656825,5,0.1,5,7.7,0.00801841,2.88791,0.600168,0.385848,-0.80913,-5.20609e-05,1.2197,0.283584,-4.84288e-05,0.0246568,2.41258,5,0.1,6,7.7,-3.70237,-2.03427,0.75434,0.252255,0.362306,-0.00377512,0.58791,-0.619009,0.00447407,0.0306054,3.02414,5,0.1,7,7.7,0.198882,3.3229,0.590744,0.0055409,-0.858772,0.00392944,0.0877175,0.14931,0.00385195,0.0106011,2.41038,5,0.1,8,7.7,1.50013,2.86077,0.607476,-0.12022,0.295779,0.0204699,0.0521541,-0.135958,-0.00939518,0.00935735,0.0475031,5,0.1,9,7.7,0.00964282,0.825483,0.619622,-0.0658208,0.866026,-0.00780523,-0.0453349,-3.72529e-06,0.000722706,0.013151,2.26913,5,0.1
0,7.8,0.154926,1.93613,0.54416,0.000527874,-0.00304282,-8.79169e-05,-0.00911951,0.0606179,0.00149012,0.00832994,0.000141566,5,0.1,1,7.8,-1.30291,5.35543,1.20024,-0.864473,-0.235903,-0.244826,0.0311136,-0.0658035,-0.156879,0.00864484,1.36307,5,0.1,2,7.8,-3.06649,0.0927292,1.27791,0.12219,0.0602681,0.0828385,0.0174046,-0.343591,-0.0953674,0.00959794,0.447229,5,0.1,3,7.8,3.22248,-2.59752,0.65946,2.38419e-05,5.96046e-06,1.49012e-06,0,0.000119209,0,0.0117004,3.39062e-09,5,0.1,4,7.8,0.899985,-2.08578,0.600004,0.000301003,0.366986,2.98023e-06,-0.00467896,-0.126958,0,0.0089174,0.0439377,5,0.1,5,7.8,0.0525712,2.80854,0.600162,0.502405,-0.776488,-5.66244e-05,1.05355,0.394106,-5.96046e-05,0.0243537,2.22861,5,0.1,6,7.8,-3.67439,-2,0.753984,0.304878,0.33403,-0.00335127,0.44179,0.0282526,0.00411272,0.0293767,2.81522,5,0.1,7,7.8,0.199895,3.23837,0.591151,0.0147831,-0.825828,0.00415444,0.0921115,0.508547,0.000685453,0.0104176,2.47374,5,0.1,8,7.8,1.48837,2.88966,0.609475,-0.114799,0.281477,0.0195011,0.0609756,-0.160933,-0.0107288,0.00796762,0.0214287,5,0.1,9,7.8,0.00280325,0.912085,0.618846,-0.0710856,0.866026,-0.00769198,-0.0524773,0,0.00187755,0.0121281,2.26726,5,0.1
0,7.9,0.154938,1.9361,0.544158,-0.000246079,0.00208225,3.84636e-05,-0.00638608,0.0421032,0.00103936,0.00832994,0.000141566,5,0.1,1,7.9,-1.38935,5.33148,1.17498,-0.864832,-0.242984,-0.260006,-0.00663847,-0.0625849,-0.132449,0.00864484,1.36307,5,0.1,2,7.9,-3.05415,0.0971643,1.28574,0.12474,0.0298311,0.073939,0.0260919,-0.260182,-0.0844672,0.00959794,0.447229,5,0.1,3,7.9,3.22248,-2.59752,0.65946,2.38419e-05,1.56462e-05,1.39698e-06,0,5.96046e-05,-3.72529e-06,0.0117004,3.39062e-09,5,0.1,4,7.9,0.899995,-2.04969,0.600004,-6.98492e-05,0.354817,2.51457e-06,-0.00281632,-0.129759,-1.11759e-05,0.0089174,0.0439377,5,0.1,5,7.9,0.108331,2.73259,0.600156,0.613569,-0.744209,-6.28643e-05,1.10167,0.287399,-6.33299e-05,0.0243537,2.22861,5,0.1,6,7.9,-3.64167,-1.96504,0.753668,0.349104,0.376743,-0.00299402,0.415534,0.722334,0.00315905,0.0293767,2.81522,5,0.1,7,7.9,0.201508,3.15798,0.591571,0.0146592,-0.784321,0.00424143,-0.0774357,0.360861,0.000812113,0.0104176,2.47374,5,0.1,8,7.9,1.47719,2.91702,0.611374,-0.108928,0.265821,0.0184717,0.0600219,-0.160336,-0.0104681,0.00796762,0.0214287,5,0.1,9,7.9,-0.00463533,0.998688,0.618083,-0.0781387,0.866026,-0.00758702,-0.0798799,0,0.000674278,0.0121281,2.26726,5,0.1
0,8,0.154886,1.93649,0.544167,-0.000756606,0.005427,0.000120699,-0.00386685,0.0251532,0.000655651,0.0083252,4.83617e-05,5,0.1,1,8,-1.47573,5.30697,1.14845,-0.860912,-0.246203,-0.268924,0.102341,0.00715256,-0.0362992,0.00975954,1.00017,5,0.1,2,8,-3.04158,0.0990146,1.29271,0.126123,0.00890661,0.0656337,-0.00345707,-0.156533,-0.0829101,0.0115802,0.784159,5,0.1,3,8,3.22248,-2.59752,0.65946,2.38419e-05,1.78814e-05,1.49012e-06,0,0,-2.98023e-05,0.00895728,2.66205e-09,5,0.1,4,8,0.899977,-2.01495,0.600004,-0.000277162,0.338823,1.49012e-06,-0.00140071,-0.198841,0,0.00847776,0.0792395,5,0.1,5,8,0.174817,2.65967,0.60015,0.711094,-0.712878,-6.85453e-05,0.800468,0.364661,0,0.0236393,2.09295,5,0.1,6,8,-3.60491,-1.92331,0.753384,0.383377,0.460225,-0.00269711,0.251174,0.86832,0.00289083,0.0278089,2.50573,5,0.1,7,8,0.202424,3.08138,0.591998,0.00237226,-0.746936,0.00427663,-0.154704,0.414968,-0.000238419,0.0103818,2.46341,5,0.1,8,8,1.46662,2.94275,0.613165,-0.102195,0.248063,0.0173062,0.0768304,-0.199914,-0.0132322,0.0115939,0.012929,5,0.1,9,8,-0.0128351,1.08529,0.617329,-0.0855574,0.866026,-0.00748187,-0.0621578,-5.96046e-05,0.00175834,0.0121189,2.26552,5,0.1
0,8.1,0.154794,1.93713,0.544181,-0.00104825,0.00730306,0.000170153,-0.00201724,0.0127256,0.000346452,0.0083252,4.83617e-05,5,0.1,1,8.1,-1.56155,5.28237,1.12138,-0.856738,-0.245678,-0.272068,0.0276342,0.0139475,-0.0151247,0.00975954,1.00017,5,0.1,2,8.1,-3.02865,0.0991667,1.29889,0.135019,-0.00483646,0.0580097,0.155628,-0.0963123,-0.0711456,0.0115802,0.784159,5,0.1,3,8.1,3.22248,-2.59752,0.65946,2.34693e-05,1.63913e-05,-1.02445e-06,-1.49012e-05,-2.98023e-05,-1.86265e-05,0.00895728,2.66205e-09,5,0.1,4,8.1,0.899944,-1.98186,0.600004,-0.000368245,0.324453,1.11759e-06,-0.000469387,-0.108883,-7.45058e-06,0.00847776,0.0792395,5,0.1,5,8.1,0.249917,2.58991,0.600143,0.789414,-0.684298,-6.95698e-05,0.713367,0.242785,-1.11759e-05,0.0236393,2.09295,5,0.1,6,8.1,-3.5653,-1.87231,0.753127,0.408342,0.56388,-0.00245171,0.224173,1.11997,0.00213459,0.0278089,2.50573,5,0.1,7,8.1,0.202028,3.00752,0.592429,-0.0089806,-0.740111,0.00438606,-0.076618,-0.18324,0.00195578,0.0103818,2.46341,5,0.1,8,8.1,1.45677,2.96658,0.614831,-0.0947384,0.228634,0.0160252,0.0751242,-0.195026,-0.0128634,0.0115939,0.012929,5,0.1,9,8.1,-0.0217423,1.17189,0.616587,-0.0927908,0.866025,-0.00738651,-0.0746328,1.49012e-05,0.000588596,0.0121189,2.26552,5,0.1
0,8.2,0.154682,1.93791,0.5442,-0.00117086,0.00804663,0.000190735,-0.000491738,0.0025034,8.9407e-05,0.00850532,1.45347e-05,5,0.1,1,8.2,-1.6469,5.25795,1.09421,-0.847471,-0.241637,-0.270042,0.190198,0.0739098,0.0631809,0.00934585,1.01415,5,0.1,2,8.2,-3.01429,0.0984299,1.30434,0.152725,-0.00738874,0.0511348,0.178933,0.0529252,-0.0675321,0.00898694,0.706237,5,0.1,3,8.2,3.22249,-2.59751,0.65946,2.38419e-05,1.19209e-05,-2.98023e-06,0,0,0,0.0097996,2.7714e-09,5,0.1,4,8.2,0.899906,-1.94994,0.600004,-0.00038296,0.313541,0,0.000208616,-0.123978,0,0.00753814,0.0655094,5,0.1,5,8.2,0.331935,2.52273,0.600136,0.845166,-0.658178,-7.15256e-05,0.368208,0.305176,2.98023e-05,0.0222575,2.05188,5,0.1,6,8.2,-3.52355,-1.81048,0.752892,0.424182,0.669545,-0.00225008,0.0762939,0.931263,0.00199676,0.0284596,2.09044,5,0.1,7,8.2,0.200847,2.93225,0.592878,-0.013743,-0.766897,0.00458658,-0.0222921,-0.280857,0.00169873,0.0158343,2.33628,5,0.1,8,8.2,1.44769,2.98844,0.616367,-0.0867218,0.208032,0.0146568,0.0870824,-0.220895,-0.0148118,0.00983317,0.0041032,5,0.1,9,8.2,-0.0313621,1.2585,0.615852,-0.0991355,0.866026,-0.00728965,-0.0466555,0,0.00166893,0.012245,2.28009,5,0.1
0,8.3,0.154564,1.93872,0.544219,-0.00116508,0.00793263,0.000190269,0.00054948,-0.00438094,-8.56817e-05,0.00850532,1.45347e-05,5,0.1,1,8.3,-1.731,5.23414,1.06736,-0.836346,-0.234612,-0.268163,0.0794828,0.0752509,-0.0063777,0.00934585,1.01415,5,0.1,2,8.3,-2.99799,0.098132,1.30914,0.173996,0.00416551,0.044995,0.226751,0.212051,-0.0566021,0.00898694,0.706237,5,0.1,3,8.3,3.22249,-2.59751,0.65946,2.34693e-05,1.15484e-05,-2.98023e-06,-1.49012e-05,-1.49012e-05,0,0.0097996,2.7714e-09,5,0.1,4,8.3,0.899869,-1.91903,0.600004,-0.000336766,0.305916,-3.72529e-07,0.000663102,-0.0493526,-7.45058e-06,0.00753814,0.0655094,5,0.1,5,8.3,0.41765,2.45814,0.600129,0.864109,-0.635707,-7.01286e-05,0.0643955,0.180066,3.72529e-06,0.0222575,2.05188,5,0.1,6,8.3,-3.48072,-1.73884,0.752676,0.431971,0.761987,-0.00208272,0.0587702,0.860132,0.00144914,0.0284596,2.09044,5,0.1,7,8.3,0.199479,2.85367,0.593348,-0.0126097,-0.807805,0.0048398,0.0387821,-0.466436,0.0029318,0.0158343,2.33628,5,0.1,8,8.3,1.43945,3.00813,0.617759,-0.0779515,0.185892,0.0131675,0.0892952,-0.224009,-0.0151433,0.00983317,0.0041032,5,0.1,9,8.3,-0.0418281,1.34509,0.615149,-0.112721,0.865854,-0.0066028,-0.199552,-0.00687689,0.0111647,0.012245,2.28009,5,0.1
0,8.4,0.154452,1.93948,0.544237,-0.00107177,0.00724494,0.000175834,0.00125915,-0.00911951,-0.000238419,0.00921295,7.96151e-06,5,0.1,1,8.4,-1.8141,5.21111,1.04052,-0.823516,-0.225151,-0.268006,0.210464,0.119925,0.0234842,0.00874429,0.729606,5,0.1,2,8.4,-2.97951,0.1,1.31336,0.194681,0.0368377,0.0395834,0.172734,0.425663,-0.0526905,0.0104147,0.596971,5,0.1,3,8.4,3.22249,-2.59751,0.65946,2.38419e-05,5.96046e-06,-2.98023e-06,-0.000119209,0.000119209,0,0.00978694,4.07397e-09,5,0.1,4,8.4,0.899839,-1.8887,0.600004,-0.00025779,0.300112,-1.49012e-06,0.000834465,-0.0815392,0,0.010113,0.104376,5,0.1,5,8.4,0.504208,2.39551,0.600122,0.866026,-0.61602,-6.85453e-05,0,0.239372,-2.98023e-05,0.0194996,1.63642,5,0.1,6,8.4,-3.4374,-1.65884,0.752475,0.432456,0.832155,-0.00194162,-0.0630617,0.50652,0.00146031,0.0252275,1.58162,5,0.1,7,8.4,0.19847,2.77072,0.593846,-0.00709519,-0.848383,0.00509769,0.0666082,-0.298023,0.00193715,0.00909129,2.33458,5,0.1,8,8.4,1.43211,3.02558,0.618998,-0.0687212,0.162911,0.0116035,0.0957847,-0.236273,-0.0162125,0.0104704,0.00124322,5,0.1,9,8.4,-0.0541775,1.43159,0.614554,-0.134565,0.863278,-0.00522137,-0.218015,-0.0550151,0.0157952,0.0130122,2.26527,5,0.1
0,8.5,0.154351,1.94015,0.544253,-0.000922219,0.00618268,0.000148732,0.00168104,-0.0117794,-0.000294298,0.00921295,7.96151e-06,5,0.1,1,8.5,-1.89558,5.18917,1.01376,-0.80687,-0.213831,-0.267741,0.16021,0.113636,-0.00299886,0.00874429,0.729606,5,0.1,2,8.5,-2.95914,0.106283,1.31708,0.212638,0.0923953,0.0348365,0.171095,0.641347,-0.0433847,0.0104147,0.596971,5,0.1,3,8.5,3.22249,-2.59751,0.659459,1.37836e-05,1.41561e-05,-2.98023e-06,-7.45058e-05,2.98023e-05,0,0.00978694,4.07397e-09,5,0.1,4,8.5,0.899818,-1.85887,0.600004,-0.00017155,0.298084,-1.58325e-06,0.000871718,0.017114,-3.72529e-06,0.010113,0.104376,5,0.1,5,8.5,0.590805,2.3349,0.600115,0.865748,-0.597383,-7.14324e-05,-0.0111014,0.163436,-2.6077e-05,0.0194996,1.63642,5,0.1,6,8.5,-3.39445,-1.57383,0.752287,0.426393,0.861773,-0.00181729,-0.0749379,0.127397,0.00111386,0.0252275,1.58162,5,0.1,7,8.5,0.198243,2.6849,0.594395,0.00374187,-0.863449,0.00613453,0.139005,-0.0262856,0.0166483,0.00909129,2.33458,5,0.1,8,8.5,1.42572,3.0407,0.620078,-0.0591984,0.139524,0.0099929,0.0947043,-0.23149,-0.0160038,0.0104704,0.00124322,5,0.1,9,8.5,-0.068574,1.51787,0.614095,-0.151797,0.863862,-0.00410518,-0.12408,0.0343621,0.00726804,0.0130122,2.26527,5,0.1
0,8.6,0.154268,1.94071,0.544267,-0.000744686,0.00494719,0.000117719,0.00184029,-0.0125766,-0.000298023,0.00844826,7.61911e-06,5,0.1,1,8.6,-1.97529,5.16839,0.987026,-0.78508,-0.201237,-0.266019,0.301898,0.14329,0.0481009,0.0115226,0.609824,5,0.1,2,8.6,-2.93713,0.118786,1.32035,0.226307,0.157371,0.0307113,0.0915527,0.62494,-0.0399351,0.00879137,0.429876,5,0.1,3,8.6,3.22249,-2.59751,0.659459,5.96046e-06,1.78814e-05,-1.49012e-06,0,0,-2.98023e-05,0.0106857,1.62842e-09,5,0.1,4,8.6,0.899805,-1.82898,0.600004,-8.64267e-05,0.299412,-1.49012e-06,0.000745058,-0.00792742,0,0.011363,0.0893316,5,0.1,5,8.6,0.677235,2.27605,0.600108,0.861587,-0.578207,-7.30157e-05,-0.0887811,0.24128,-2.98023e-05,0.0176997,1.20862,5,0.1,6,8.6,-3.35232,-1.48733,0.752111,0.414664,0.866026,-0.00170469,-0.170827,-5.96046e-05,0.00119209,0.0225005,1.16574,5,0.1,7,8.6,0.199356,2.59883,0.595102,0.0187393,-0.853413,0.00804812,0.152409,0.252247,0.0199378,0.00952256,2.56382,5,0.1,8,8.6,1.42027,3.05351,0.620997,-0.0497848,0.11664,0.00840276,0.0934005,-0.225902,-0.0157654,0.00993288,0.000680305,5,0.1,9,8.6,-0.0842027,1.6044,0.613712,-0.159035,0.866026,-0.00363439,-0.0197738,0,0.00274181,0.0114008,2.26043,5,0.1
0,8.7,0.154203,1.94114,0.544277,-0.000557955,0.00367574,8.75443e-05,0.00185706,-0.0126064,-0.000305474,0.00844826,7.61911e-06,5,0.1,1,8.7,-2.0525,5.14901,0.96057,-0.760226,-0.186147,-0.263676,0.230454,0.160694,0.0139214,0.0115226,0.609824,5,0.1,2,8.7,-2.91419,0.137529,1.32324,0.230834,0.215844,0.0271389,-0.00323355,0.526678,-0.0324622,0.00879137,0.429876,5,0.1,3,8.7,3.22249,-2.59751,0.659459,5.96046e-06,1.60187e-05,-3.91155e-06,0,-4.47035e-05,-1.49012e-05,0.0106857,1.62842e-09,5,0.1,4,8.7,0.8998,-1.79889,0.600004,-1.10827e-05,0.303475,-1.58325e-06,0.000733882,0.0648946,-3.72529e-06,0.011363,0.0893316,5,0.1,5,8.7,0.763232,2.21931,0.6001,0.859886,-0.557499,-7.54371e-05,0.00530854,0.197098,-1.49012e-05,0.0176997,1.20862,5,0.1,6,8.7,-3.31166,-1.40074,0.751946,0.398379,0.86559,-0.00160076,-0.168636,-0.0173748,0.000953674,0.0225005,1.16574,5,0.1,7,8.7,0.202279,2.51524,0.596062,0.0420039,-0.813472,0.0115935,0.28935,0.541776,0.0465438,0.00952256,2.56382,5,0.1,8,8.7,1.41575,3.06406,0.62176,-0.0407128,0.0947792,0.00687195,0.0877455,-0.210598,-0.0148006,0.00993288,0.000680305,5,0.1,9,8.7,-0.100152,1.691,0.613353,-0.159325,0.866026,-0.00361595,0.0175688,0,-0.00174344,0.0114008,2.26043,5,0.1
0,8.8,0.154156,1.94145,0.544284,-0.000379607,0.00246763,5.96046e-05,0.00167638,-0.0113249,-0.000298023,0.00660631,0.423591,5,0.1,1,8.8,-2.12725,5.13124,0.934317,-0.733,-0.168765,-0.260645,0.338674,0.187874,0.0573695,0.00932774,0.428225,5,0.1,2,8.8,-2.89129,0.161465,1.3258,0.225389,0.259742,0.0240564,-0.106335,0.339508,-0.0299215,0.00983721,0.423575,5,0.1,3,8.8,3.22249,-2.59751,0.659458,5.96046e-06,1.19209e-05,-4.47035e-06,-0.000119209,0,0,0.0104801,4.14207e-09,5,0.1,4,8.8,0.899803,-1.76827,0.600004,5.81145e-05,0.308233,-1.49012e-06,0.000596046,0.0130534,-2.98023e-05,0.00859523,0.122497,5,0.1,5,8.8,0.84907,2.16463,0.600093,0.854217,-0.534683,-7.59959e-05,-0.153512,0.276208,2.98023e-05,0.0176309,0.862084,5,0.1,6,8.8,-3.27276,-1.3144,0.75179,0.378633,0.859073,-0.00150204,-0.235438,-0.139058,0.00107288,0.024011,0.851921,5,0.1,7,8.8,0.207993,2.43705,0.597468,0.0724677,-0.746232,0.0165761,0.302054,0.79608,0.0497699,0.00884961,2.84448,5,0.1,8,8.8,1.41211,3.07252,0.622375,-0.0322908,0.0746489,0.00545084,0.0804067,-0.191569,-0.0135601,0.00870697,0.000606491,5,0.1,9,8.8,-0.115911,1.77761,0.61298,-0.154956,0.866026,-0.00387132,0.0718719,0,-0.00286102,0.0136405,2.26155,5,0.1
0,8.9,0.154695,1.94169,0.544062,0.0159099,0.00285637,-0.00640042,0.287876,0.0157282,-0.114523,0.00660631,0.423591,5,0.1,1,8.9,-2.19901,5.11528,0.908485,-0.702986,-0.150461,-0.256243,0.29023,0.180304,0.0428036,0.00932774,0.428225,5,0.1,2,8.9,-2.86954,0.188504,1.32806,0.207418,0.2752,0.0213936,-0.242874,-0.0111656,-0.0241101,0.00983721,0.423575,5,0.1,3,8.9,3.22249,-2.59751,0.659458,-3.72529e-06,1.00583e-05,-4.09782e-06,-5.96046e-05,-4.47035e-05,7.45058e-06,0.0104801,4.14207e-09,5,0.1,4,8.9,0.899811,-1.73719,0.600003,0.000110921,0.314575,-3.91155e-06,0.000458211,0.0889301,-1.49012e-05,0.00859523,0.122497,5,0.1,5,8.9,0.933885,2.11243,0.600085,0.842656,-0.509795,-7.30157e-05,-0.117235,0.241324,2.98023e-05,0.0176309,0.862084,5,0.1,6,8.9,-3.23625,-1.22898,0.751645,0.349704,0.850321,-0.00140648,-0.339568,-0.0792369,0.00089407,0.024011,0.851921,5,0.1,7,8.9,0.217231,2.36631,0.599427,0.116025,-0.669077,0.0230091,0.526622,0.758335,0.073351,0.00884961,2.84448,5,0.1,8,8.9,1.40926,3.07906,0.622855,-0.0246741,0.0565652,0.00416646,0.071615,-0.169381,-0.0120811,0.00870697,0.000606491,5,0.1,9,8.9,-0.131052,1.86421,0.612573,-0.147798,0.866026,-0.00429126,0.0755713,0,-0.00498816,0.0136405,2.26155,5,0.1
0,9,0.157951,1.94208,0.542759,0.0507627,0.00501573,-0.0202894,0.38109,0.0248551,-0.152111,0.0049258,0.338892,5,0.1,1,9,-2.26775,5.10114,0.883131,-0.670123,-0.132358,-0.250031,0.386715,0.183344,0.0897646,0.00849168,0.295146,5,0.1,2,9,-2.85017,0.215521,1.33009,0.178707,0.261112,0.0191003,-0.32258,-0.253774,-0.0224113,0.00992936,0.402226,5,0.1,3,9,3.22249,-2.5975,0.659458,-1.19209e-05,5.96046e-06,-2.98023e-06,0.000119209,0,0,0.0115611,3.55965e-09,5,0.1,4,9,0.899824,-1.70533,0.600003,0.000147521,0.321746,-5.96046e-06,0.000298023,0.0366569,0,0.00798046,0.0726808,5,0.1,5,9,1.01736,2.06274,0.600078,0.824085,-0.48309,-7.00355e-05,-0.281513,0.306487,5.96046e-05,0.0172344,0.599351,5,0.1,6,9,-3.20313,-1.14454,0.751509,0.31147,0.835893,-0.00131428,-0.421166,-0.239551,0.000983477,0.0224911,0.619192,5,0.1,7,9,0.231549,2.30321,0.602096,0.170343,-0.592709,0.0302806,0.527695,0.776291,0.0679195,0.0124114,3.02614,5,0.1,8,9,1.40714,3.08391,0.623214,-0.0180185,0.0408769,0.00304431,0.0613332,-0.143766,-0.0103414,0.00872799,0.000472213,5,0.1,9,9,-0.14542,1.95081,0.61212,-0.139131,0.866026,-0.00477284,0.100575,0,-0.00423193,0.00979769,2.14569,5,0.1
0,9.1,0.165156,1.94234,0.539913,0.0948497,-0.00288934,-0.0369533,0.472548,-0.160888,-0.172105,0.0049258,0.338892,5,0.1,1,9.1,-2.33296,5.08878,0.858536,-0.634865,-0.115079,-0.242022,0.341862,0.164241,0.0802279,0.00849168,0.295146,5,0.1,2,9.1,-2.83399,0.240056,1.33189,0.144346,0.226946,0.0171125,-0.356868,-0.412625,-0.0179857,0.00992936,0.402226,5,0.1,3,9.1,3.22249,-2.5975,0.659457,-1.86265e-06,4.47035e-06,-2.6077e-06,7.45058e-05,-2.98023e-05,7.45058e-06,0.0115611,3.55965e-09,5,0.1,4,9.1,0.89984,-1.67294,0.600002,0.000171736,0.32585,-5.86733e-06,0.000178814,0.0295267,3.72529e-06,0.00798046,0.0726808,5,0.1,5,9.1,1.09848,2.01586,0.600071,0.798775,-0.455013,-6.45407e-05,-0.25671,0.271268,4.84288e-05,0.0172344,0.599351,5,0.1,6,9.1,-3.17426,-1.06201,0.751382,0.264371,0.815207,-0.00122543,-0.509292,-0.208993,0.000834465,0.0224911,0.619192,5,0.1,7,9.1,0.251704,2.2472,0.605575,0.23615,-0.532806,0.0401315,0.73285,0.458375,0.118371,0.0124114,3.02614,5,0.1,8,9.1,1.40563,3.08732,0.623469,-0.0123648,0.0276692,0.00209119,0.0515655,-0.120014,-0.00869483,0.00872799,0.000472213,5,0.1,9,9.1,-0.15886,2.03741,0.611619,-0.129857,0.865799,-0.00526011,0.0892896,-0.00905991,-0.00502914,0.00979769,2.14569,5,0.1
0,9.2,0.176965,1.94109,0.535385,0.140393,-0.0232339,-0.053145,0.41765,-0.228763,-0.145137,0.00672907,0.443315,5,0.1,1,9.2,-2.39466,5.07808,0.834785,-0.597793,-0.0991702,-0.232331,0.415444,0.155687,0.120312,0.00847497,0.200798,5,0.1,2,9.2,-2.82134,0.260542,1.33352,0.108707,0.181648,0.0153899,-0.349522,-0.479624,-0.0169277,0.00963354,0.246998,5,0.1,3,9.2,3.22249,-2.5975,0.659457,0,0,-1.49012e-06,0.000119209,0,0,0.00878966,3.56201e-09,5,0.1,4,9.2,0.899858,-1.64033,0.600002,0.000183284,0.324979,-5.96046e-06,5.96046e-05,-0.0578165,2.98023e-05,0.0109587,0.0546322,5,0.1,5,9.2,1.1769,1.97176,0.600065,0.767353,-0.42609,-5.96046e-05,-0.393748,0.318229,5.96046e-05,0.0153546,0.409125,5,0.1,6,9.2,-3.15044,-0.981714,0.751264,0.211698,0.788218,-0.00113994,-0.534773,-0.354677,0.000953674,0.0211422,0.394757,5,0.1,7,9.2,0.278947,2.19593,0.610191,0.307296,-0.494534,0.0520915,0.649512,0.335336,0.112921,0.0111959,3.00143,5,0.1,8,9.2,1.40463,3.08953,0.623638,-0.0077337,0.0169277,0.00130981,0.041008,-0.0946522,-0.00691414,0.00871643,0.000280495,5,0.1,9,9.2,-0.171389,2.12387,0.611069,-0.120535,0.862402,-0.00569671,0.100151,-0.0724792,-0.00336766,0.0117188,1.92105,5,0.1
0,9.3,0.192165,1.93701,0.529514,0.155372,-0.0631053,-0.0627064,-0.0777002,-0.522196,-0.0500716,0.00672907,0.443315,5,0.1,1,9.3,-2.45249,5.0689,0.812115,-0.559614,-0.0848003,-0.221249,0.367478,0.133544,0.109386,0.00847497,0.200798,5,0.1,2,9.3,-2.81216,0.276291,1.33527,0.0754625,0.133432,0.0220276,-0.311047,-0.474196,0.130922,0.00963354,0.246998,5,0.1,3,9.3,3.22249,-2.5975,0.659457,9.68575e-06,-1.49012e-06,-1.39698e-06,5.96046e-05,-2.98023e-05,3.72529e-06,0.00878966,3.56201e-09,5,0.1,4,9.3,0.899877,-1.60804,0.600001,0.000186451,0.320958,-3.44589e-06,0,-0.0392348,1.86265e-05,0.0109587,0.0546322,5,0.1,5,9.3,1.25179,1.93065,0.600059,0.730931,-0.396835,-5.41098e-05,-0.360966,0.280306,4.84288e-05,0.0153546,0.409125,5,0.1,6,9.3,-3.13192,-0.904543,0.751154,0.159167,0.755708,-0.00105379,-0.508875,-0.323944,0.000808388,0.0211422,0.394757,5,0.1,7,9.3,0.312975,2.14719,0.615979,0.372677,-0.488263,0.0636022,0.616323,-0.143826,0.109706,0.0111959,3.00143,5,0.1,8,9.3,1.40405,3.09078,0.623737,-0.00407677,0.00852123,0.000693183,0.0320897,-0.0734031,-0.00541285,0.00871643,0.000280495,5,0.1,9,9.3,-0.182971,2.20871,0.610482,-0.111321,0.825037,-0.00604512,0.0877818,-0.629961,-0.00322983,0.0117188,1.92105,5,0.1
0,9.4,0.206772,1.92792,0.523122,0.13218,-0.119483,-0.0639275,-0.353232,-0.56988,0.0220239,0.00542002,0.358946,5,0.1,1,9.4,-2.50656,5.06106,0.790573,-0.521034,-0.0721455,-0.209101,0.417233,0.120878,0.139028,0.00862804,0.135585,5,0.1,2,9.4,-2.80608,0.287343,1.33824,0.047195,0.0885881,0.0382513,-0.25177,-0.415415,0.178933,0.010975,0.233611,5,0.1,3,9.4,3.22249,-2.5975,0.659457,1.19209e-05,-5.96046e-06,-1.49012e-06,0.000119209,0.000119209,2.98023e-05,0.00856791,5.27812e-09,5,0.1,4,9.4,0.899895,-1.57623,0.600001,0.000181794,0.314334,-1.49012e-06,-5.96046e-05,-0.104606,0,0.00850028,0.091302,5,0.1,5,9.4,1.32296,1.89239,0.600054,0.690743,-0.367758,-5.06639e-05,-0.460684,0.31054,8.9407e-05,0.0165774,0.276191,5,0.1,6,9.4,-3.11845,-0.830731,0.751053,0.111109,0.718646,-0.000971556,-0.447154,-0.436634,0.000864267,0.0202578,0.264054,5,0.1,7,9.4,0.352992,2.0973,0.622832,0.423627,-0.511557,0.0727728,0.375092,-0.270724,0.0686944,0.0107424,2.80129,5,0.1,8,9.4,1.40379,3.0913,0.623782,-0.00131726,0.00223517,0.000227988,0.0232458,-0.0523329,-0.00393391,0.00810109,0.000125362,5,0.1,9,9.4,-0.193661,2.28744,0.609864,-0.102363,0.744379,-0.00627935,0.0938922,-0.94831,-0.00116229,0.0106262,1.74774,5,0.1
0,9.5,0.217703,1.91316,0.516946,0.0822209,-0.174916,-0.0586533,-0.607342,-0.518613,0.0786446,0.00542002,0.358946,5,0.1,1,9.5,-2.55671,5.05441,0.770317,-0.482686,-0.0611618,-0.196232,0.365794,0.100374,0.124983,0.00862804,0.135585,5,0.1,2,9.5,-2.8025,0.294276,1.34305,0.0255272,0.0516731,0.0584191,-0.181109,-0.320155,0.211887,0.010975,0.233611,5,0.1,3,9.5,3.2225,-2.5975,0.659457,2.01166e-05,2.23517e-06,1.02445e-06,2.98023e-05,2.98023e-05,1.86265e-05,0.00856791,5.27812e-09,5,0.1,4,9.5,0.899913,-1.54512,0.600001,0.00017304,0.30911,-1.49012e-06,-0.000119209,-0.0216067,0,0.00850028,0.091302,5,0.1,5,9.5,1.38986,1.85708,0.600049,0.648017,-0.339253,-4.33065e-05,-0.415601,0.270747,6.33299e-05,0.0165774,0.276191,5,0.1,6,9.5,-3.10945,-0.760922,0.75096,0.0703022,0.678204,-0.000893325,-0.367969,-0.39563,0.000730157,0.0202578,0.264054,5,0.1,7,9.5,0.396225,2.04366,0.630283,0.431862,-0.570101,0.0747047,-0.17531,-0.799887,-0.0243708,0.0107424,2.80129,5,0.1,8,9.5,1.40376,3.09129,0.623787,0.000652857,-0.00217259,-0.000105519,0.0162348,-0.0360012,-0.00274554,0.00810109,0.000125362,5,0.1,9,9.5,-0.203456,2.35651,0.60923,-0.0937582,0.632993,-0.00639427,0.0812486,-1.19749,-0.000834465,0.0106262,1.74774,5,0.1
0,9.6,0.222732,1.8933,0.511534,0.0175476,-0.219807,-0.0490785,-0.656351,-0.365376,0.108868,0.00542903,0.347326,5,0.1,1,9.6,-2.60312,5.04878,0.75134,-0.445163,-0.0517845,-0.182983,0.395894,0.0882149,0.144511,0.00811398,0.157363,5,0.1,2,9.6,-2.80074,0.298016,1.34992,0.0109255,0.0248559,0.0784546,-0.112057,-0.215918,0.179768,0.00951454,0.220579,5,0.1,3,9.6,3.2225,-2.5975,0.659457,2.38419e-05,5.96046e-06,2.98023e-06,-0.000119209,0,0,0.00817218,3.41495e-09,5,0.1,4,9.6,0.89993,-1.51433,0.600001,0.000157952,0.30627,-1.49012e-06,-0.000149012,-0.0508428,0,0.01058,0.0764536,5,0.1,5,9.6,1.45251,1.82451,0.600045,0.603965,-0.311714,-3.72529e-05,-0.480354,0.287771,5.96046e-05,0.0135187,0.467624,5,0.1,6,9.6,-3.10412,-0.695168,0.750874,0.0376463,0.635578,-0.000819564,-0.284672,-0.472963,0.000745058,0.0215698,0.336422,5,0.1,7,9.6,0.437867,1.98245,0.637517,0.395072,-0.654,0.0689566,-0.530466,-0.802934,-0.0856519,0.008406,2.84044,5,0.1,8,9.6,1.40389,3.09092,0.623764,0.00194907,-0.00501871,-0.000324845,0.00977516,-0.0211,-0.00166893,0.00865823,4.21408e-05,5,0.1,9,9.6,-0.212426,2.41393,0.608589,-0.0855982,0.517607,-0.00639558,0.0840798,-1.06478,0.00101328,0.0123886,1.58687,5,0.1
0,9.7,0.220939,1.86988,0.507194,-0.0551237,-0.244786,-0.037566,-0.760726,-0.138812,0.118054,0.00542903,0.347326,5,0.1,1,9.7,-2.64601,5.04399,0.733626,-0.415348,-0.0444114,-0.172376,0.228405,0.06181,0.0793487,0.00811398,0.157363,5,0.1,2,9.7,-2.8001,0.299595,1.35865,0.00275783,0.00832966,0.0958944,-0.0550002,-0.119682,0.161029,0.00951454,0.220579,5,0.1,3,9.7,3.2225,-2.5975,0.659457,1.22935e-05,4.09782e-06,2.98023e-06,-0.000104308,-4.47035e-05,0,0.00817218,3.41495e-09,5,0.1,4,9.7,0.899945,-1.48379,0.600001,0.00014184,0.305632,-1.49012e-06,-0.000167638,0.0158772,0,0.01058,0.0764536,5,0.1,5,9.7,1.51096,1.79469,0.600042,0.56846,-0.285386,-3.241e-05,-0.267603,0.248134,4.47035e-05,0.0135187,0.467624,5,0.1,6,9.7,-3.10156,-0.63384,0.750796,0.0154801,0.591823,-0.000751764,-0.164717,-0.421595,0.000633299,0.0215698,0.336422,5,0.1,7,9.7,0.474248,1.91427,0.643909,0.328571,-0.698066,0.0582447,-0.769248,-0.107206,-0.12397,0.008406,2.84044,5,0.1,8,9.7,1.40413,3.09033,0.623725,0.00268407,-0.00657178,-0.000450574,0.00505149,-0.0102967,-0.000864267,0.00865823,4.21408e-05,5,0.1,9,9.7,-0.220593,2.46066,0.607954,-0.0779255,0.422234,-0.00629658,0.071913,-0.755668,0.00121072,0.0123886,1.58687,5,0.1
0,9.8,0.211697,1.84505,0.504021,-0.128282,-0.248569,-0.0260398,-0.675611,0.0578165,0.11,0.00658311,0.32576,5,0.1,1,9.8,-2.68649,5.03983,0.716756,-0.394624,-0.0389695,-0.165083,0.206828,0.0493526,0.0750422,0.00815268,0.0920526,5,0.1,2,9.8,-2.80003,0.299953,1.36896,-0.000745058,-2.75671e-05,0.109318,-0.0183582,-0.051856,0.101984,0.0133751,0.312162,5,0.1,3,9.8,3.2225,-2.5975,0.659458,5.96046e-06,5.96046e-06,2.98023e-06,-0.000119209,-0.000119209,-2.98023e-05,0.00938692,3.51622e-09,5,0.1,4,9.8,0.899958,-1.45318,0.6,0.00012368,0.305656,-1.49012e-06,-0.000178814,-0.0312924,0,0.00800829,0.112368,5,0.1,5,9.8,1.56656,1.76739,0.600039,0.543875,-0.260505,-2.83122e-05,-0.252008,0.256062,0,0.0151819,0.34433,5,0.1,6,9.8,-3.10068,-0.57681,0.750724,0.00357032,0.547974,-0.000688434,-0.0785589,-0.468731,0.000655651,0.0197281,0.602244,5,0.1,7,9.8,0.503072,1.84488,0.649082,0.246668,-0.680992,0.0449955,-0.844598,0.42206,-0.137299,0.00997804,1.47679,5,0.1,8,9.8,1.40442,3.08964,0.623677,0.00298917,-0.0071466,-0.000502169,0.00113249,-0.00143051,-0.000208616,0.00718328,1.26921e-05,5,0.1,9,9.8,-0.228029,2.5,0.607333,-0.0707835,0.373435,-0.00611395,0.0727028,-0.237942,0.0026226,0.00928142,1.34528,5,0.1
0,9.9,0.195437,1.8209,0.501938,-0.19671,-0.230663,-0.0159568,-0.663569,0.281885,0.0901558,0.00658311,0.32576,5,0.1,1,9.9,-2.72506,5.03615,0.700571,-0.377651,-0.0347994,-0.158949,0.151068,0.0357926,0.0552982,0.00815268,0.0920526,5,0.1,2,9.9,-2.80016,0.299701,1.38041,-0.00144131,-0.00479356,0.11949,0.00204146,-0.0384431,0.0931844,0.0133751,0.312162,5,0.1,3,9.9,3.2225,-2.5975,0.659458,-4.09782e-06,-4.09782e-06,5.58794e-07,-7.45058e-05,-7.45058e-05,-1.49012e-05,0.00938692,3.51622e-09,5,0.1,4,9.9,0.899969,-1.42257,0.6,0.000104588,0.307942,-1.49012e-06,-0.00019744,0.0528768,0,0.00800829,0.112368,5,0.1,5,9.9,1.61994,1.74254,0.600036,0.525496,-0.237166,-2.83122e-05,-0.145577,0.218496,0,0.0151819,0.34433,5,0.1,6,9.9,-3.10071,-0.524219,0.750658,-0.00370219,0.504795,-0.000629108,-0.0602901,-0.41109,0.000555068,0.0197281,0.602244,5,0.1,7,9.9,0.5234,1.77987,0.652878,0.159317,-0.610978,0.0308322,-0.879206,0.919156,-0.142477,0.00997804,1.47679,5,0.1,8,9.9,1.40472,3.08893,0.623626,0.00296403,-0.00697784,-0.000499096,-0.00149757,0.00445545,0.000242144,0.00718328,1.26921e-05,5,0.1,9,9.9,-0.234767,2.53724,0.606734,-0.0641762,0.380248,-0.00586361,0.0615632,0.298083,0.00258535,0.00928142,1.34528,5,0.1
0,10,0.172666,1.79948,0.500751,-0.255984,-0.19556,-0.00822097,-0.501208,0.404954,0.0640154,0.00796644,0.217749,5,0.1,1,10,-2.76204,5.03284,0.684971,-0.361276,-0.0314951,-0.152718,0.189662,0.0317097,0.0747144,0.0106144,0.0716736,5,0.1,2,10,-2.80027,0.299083,1.39275,-0.000751019,-0.00696704,0.126567,0.0100136,-0.0025928,0.0427365,0.00911714,0.297533,5,0.1,3,10,3.2225,-2.5975,0.659458,-5.96046e-06,-1.19209e-05,-1.49012e-06,-0.000238419,-0.000119209,0,0.00831041,6.13139e-09,5,0.1,4,10,0.899979,-1.39154,0.6,8.49366e-05,0.312072,-1.49012e-06,-0.000238419,0.0123382,2.98023e-05,0.0100987,1.34679,5,0.1,5,10,1.67174,1.7199,0.600033,0.509611,-0.21548,-2.68221e-05,-0.193596,0.220716,0,0.0115563,0.248069,5,0.1,6,10,-3.10131,-0.475808,0.750598,-0.00750422,0.463007,-0.000572205,-0.012517,-0.435904,0.000536442,0.0216396,3.73403,5,0.1,7,10,0.535036,1.72379,0.655264,0.0748783,-0.507489,0.0171095,-0.792265,1.10644,-0.129402,0.00673014,0.805812,5,0.1,8,10,1.405,3.08826,0.623578,0.00271797,-0.00632405,-0.000458956,-0.00327826,0.00846386,0.000566244,0.00869306,7.22636e-06,5,0.1,9,10,-0.240882,2.57712,0.606162,-0.0581093,0.419635,-0.00556409,0.0612661,0.431538,0.00357628,0.00948485,1.0702,5,0.1
