id,t,px,py,pz,vx,vy,vz,ax,ay,az,planning_time,qp_cost,planning_report,size,id,t,px,py,pz,vx,vy,vz,ax,ay,az,planning_time,qp_cost,planning_report,size,id,t,px,py,pz,vx,vy,vz,ax,ay,az,planning_time,qp_cost,planning_report,size,id,t,px,py,pz,vx,vy,vz,ax,ay,az,planning_time,qp_cost,planning_report,size,id,t,px,py,pz,vx,vy,vz,ax,ay,az,planning_time,qp_cost,planning_report,size,id,t,px,py,pz,vx,vy,vz,ax,ay,az,planning_time,qp_cost,planning_report,size,id,t,px,py,pz,vx,vy,vz,ax,ay,az,planning_time,qp_cost,planning_report,size,id,t,px,py,pz,vx,vy,vz,ax,ay,az,planning_time,qp_cost,planning_report,size,id,t,px,py,pz,vx,vy,vz,ax,ay,az,planning_time,qp_cost,planning_report,size,id,t,px,py,pz,vx,vy,vz,ax,ay,az,planning_time,qp_cost,planning_report,size
0,0,-1.77062,1.99403,0.669767,0,0,0,0,0,0,0.00946833,1.42181,5,0.1,1,0,4.03751,-1.00086,0.591274,0,0,0,0,0,0,0.0520988,1.36392,5,0.1,2,0,-4.35826,-3.11561,0.668128,0,0,0,0,0,0,0.00934479,0.53428,5,0.1,3,0,0.16942,-0.214061,0.609374,0,0,0,0,0,0,0.0164165,3.5122,5,0.1,4,0,-0.293847,-1.87082,0.587177,0,0,0,0,0,0,0.00852231,2.65437,5,0.1,5,0,-5.04742,-2.2387,0.545781,0,0,0,0,0,0,0.0171357,0.985948,5,0.1,6,0,0.182465,2.60198,0.573229,0,0,0,0,0,0,0.0123845,3.5122,5,0.1,7,0,-2.15997,5.60443,0.547096,0,0,0,0,0,0,0.0208962,3.5122,5,0.1,8,0,1.43402,2.90869,0.55392,0,0,0,0,0,0,0.0105656,0.611409,5,0.1,9,0,-1.63057,-1.03397,0.535981,0,0,0,0,0,0,0.0129028,3.5122,5,0.1
0,0.1,-1.76939,1.99352,0.669694,0.0346901,-0.0146404,-0.00206763,0.616722,-0.260279,-0.0367574,0.00946833,1.42181,5,0.1,1,0.1,4.03689,-1.00201,0.591283,-0.0174105,-0.0325719,0.000258721,-0.309527,-0.579067,0.00459701,0.0520988,1.36392,5,0.1,2,0.1,-4.35746,-3.11569,0.668025,0.0228256,-0.00217706,-0.00292808,0.405788,-0.0386834,-0.0520572,0.00934479,0.53428,5,0.1,3,0.1,0.169259,-0.21198,0.609369,-0.00458783,0.0590903,-0.000134576,-0.0815615,1.05049,-0.00239536,0.0164165,3.5122,5,0.1,4,0.1,-0.295576,-1.87137,0.58719,-0.0490787,-0.015682,0.000380166,-0.87251,-0.278786,0.00675768,0.00852231,2.65437,5,0.1,5,0.1,-5.04763,-2.23762,0.545838,-0.00600219,0.0307806,0.00160653,-0.106752,0.54723,0.0285655,0.0171357,0.985948,5,0.1,6,0.1,0.182559,2.5999,0.573251,0.00267436,-0.0592049,0.000609085,0.0475431,-1.05254,0.0108331,0.0123845,3.5122,5,0.1,7,0.1,-2.15849,5.60295,0.547135,0.0419591,-0.0418447,0.00110436,0.745937,-0.743896,0.0196323,0.0208962,3.5122,5,0.1,8,0.1,1.43409,2.90894,0.554751,0.0019554,0.00715032,0.0235911,0.0347644,0.127137,0.419401,0.0105656,0.611409,5,0.1,9,0.1,-1.62916,-1.03243,0.536032,0.0401322,0.0435894,0.00144299,0.713468,0.774927,0.0256523,0.0129028,3.5122,5,0.1
0,0.2,-1.76235,1.99054,0.669274,0.109637,-0.0462681,-0.00653416,0.822306,-0.347078,-0.048995,0.00913398,1.16652,5,0.1,1,0.2,4.03336,-1.00862,0.591336,-0.055027,-0.102943,0.000816584,-0.412464,-0.772059,0.00616908,0.0578736,1.11904,5,0.1,2,0.2,-4.35282,-3.11613,0.66743,0.0721455,-0.00687838,-0.00925362,0.540972,-0.0516176,-0.0694394,0.00877885,0.438353,5,0.1,3,0.2,0.168327,-0.199977,0.609342,-0.0144999,0.186755,-0.000426173,-0.108749,1.40066,-0.00318885,0.0148671,3.03817,5,0.1,4,0.2,-0.305545,-1.87456,0.587267,-0.155113,-0.0495613,0.00120103,-1.16335,-0.371754,0.0090003,0.00919711,2.17778,5,0.1,5,0.2,-5.04885,-2.23137,0.546164,-0.0189662,0.0972807,0.00507832,-0.142574,0.72968,0.0380874,0.0184453,0.808916,5,0.1,6,0.2,0.183102,2.58787,0.573375,0.00845231,-0.187117,0.00192523,0.063397,-1.40333,0.0144243,0.0100503,2.9258,5,0.1,7,0.2,-2.14997,5.59445,0.54736,0.132614,-0.132251,0.00349134,0.994563,-0.991821,0.0261664,0.0213075,2.92579,5,0.1,8,0.2,1.43448,2.9104,0.559543,0.00617802,0.0226021,0.0745595,0.046432,0.169396,0.559211,0.0090406,0.501631,5,0.1,9,0.2,-1.62101,-1.02358,0.536325,0.126836,0.137764,0.00455976,0.95135,1.03325,0.0342131,0.0126108,2.92579,5,0.1
0,0.3,-1.74682,1.98399,0.668348,0.203964,-0.0860799,-0.0121548,1.00622,-0.424683,-0.059966,0.00913398,1.16652,5,0.1,1,0.3,4.02556,-1.0232,0.591452,-0.102349,-0.191507,0.00152299,-0.504881,-0.944763,0.00752136,0.0578736,1.11904,5,0.1,2,0.3,-4.3426,-3.1171,0.66612,0.134206,-0.0127986,-0.0172178,0.662029,-0.0631511,-0.0849478,0.00877885,0.438353,5,0.1,3,0.3,0.166272,-0.174546,0.609281,-0.027007,0.318508,-0.000793021,-0.13365,1.20093,-0.00392273,0.0148671,3.03817,5,0.1,4,0.3,-0.327514,-1.88158,0.587437,-0.288562,-0.0922043,0.00223378,-1.42356,-0.454888,0.0110157,0.00919711,2.17778,5,0.1,5,0.3,-5.05154,-2.21759,0.546884,-0.0353128,0.180982,0.00944734,-0.174284,0.892863,0.0466034,0.0184453,0.808916,5,0.1,6,0.3,0.1843,2.56135,0.573647,0.0157434,-0.348514,0.00358457,0.0779107,-1.72468,0.0177361,0.0100503,2.9258,5,0.1,7,0.3,-2.13118,5.57571,0.547854,0.246999,-0.246321,0.00650119,1.2223,-1.21897,0.0321642,0.0213075,2.92579,5,0.1,8,0.3,1.43536,2.9136,0.570103,0.0115013,0.042038,0.138707,0.056766,0.20735,0.684284,0.0090406,0.501631,5,0.1,9,0.3,-1.60303,-1.00406,0.536971,0.236247,0.256596,0.00849431,1.16914,1.26984,0.0420399,0.0126108,2.92579,5,0.1
0,0.4,-1.72148,1.9733,0.666838,0.300804,-0.126952,-0.0179246,0.887632,-0.374615,-0.0529289,0.0102141,0.922962,5,0.1,1,0.4,4.01285,-1.04699,0.591641,-0.150943,-0.282431,0.0022471,-0.445366,-0.833511,0.00661612,0.052605,0.885412,5,0.1,2,0.4,-4.32593,-3.11869,0.663981,0.197923,-0.0188768,-0.0253931,0.583887,-0.0556707,-0.074923,0.00911741,0.346834,5,0.1,3,0.4,0.162914,-0.137246,0.609183,-0.0398837,0.421358,-0.00117123,-0.118174,0.833682,-0.00345707,0.0161132,3.06311,5,0.1,4,0.4,-0.363362,-1.89303,0.587715,-0.425563,-0.135979,0.00329465,-1.25593,-0.401378,0.00968575,0.00935843,1.72308,5,0.1,5,0.4,-5.05592,-2.19511,0.548057,-0.0520825,0.266904,0.0139326,-0.153542,0.787854,0.0410974,0.020111,0.203535,5,0.1,6,0.4,0.186257,2.51802,0.574093,0.0232499,-0.514686,0.00529289,0.0688806,-1.52481,0.0157058,0.0123609,2.51543,5,0.1,7,0.4,-2.10047,5.54509,0.548663,0.364769,-0.363767,0.00959933,1.08075,-1.07765,0.0284612,0.0197483,2.51008,5,0.1,8,0.4,1.43679,2.91882,0.587335,0.0169635,0.0619948,0.204562,0.0500679,0.182986,0.603676,0.0107328,0.396896,5,0.1,9,0.4,-1.57366,-0.972157,0.538028,0.348893,0.378941,0.0125438,1.03366,1.12277,0.0371933,0.0141797,2.51007,5,0.1
0,0.5,-1.68688,1.95869,0.664777,0.390865,-0.164961,-0.0232944,0.869401,-0.366904,-0.0518337,0.0102141,0.922962,5,0.1,1,0.5,3.99549,-1.07947,0.591899,-0.196134,-0.366649,0.00291802,-0.436276,-0.810236,0.00647455,0.052605,0.885412,5,0.1,2,0.5,-4.30317,-3.12086,0.66106,0.257169,-0.0245251,-0.0329947,0.571936,-0.0545382,-0.0733808,0.00911741,0.346834,5,0.1,3,0.5,0.158319,-0.0922376,0.609048,-0.0520362,0.467238,-0.0015269,-0.118641,0.13794,-0.0034757,0.0161132,3.06311,5,0.1,4,0.5,-0.412312,-1.90867,0.588094,-0.552989,-0.176701,0.00427812,-1.23008,-0.393078,0.00949949,0.00935843,1.72308,5,0.1,5,0.5,-5.06191,-2.16525,0.54966,-0.0676632,0.322874,0.0181027,-0.150383,0.345975,0.0402629,0.020111,0.203535,5,0.1,6,0.5,0.188942,2.45895,0.574704,0.030507,-0.664873,0.0069472,0.072239,-1.41078,0.0164695,0.0123609,2.51543,5,0.1,7,0.5,-2.05843,5.50317,0.549769,0.475982,-0.474664,0.0125278,1.08629,-1.08328,0.0286028,0.0197483,2.51008,5,0.1,8,0.5,1.43874,2.92595,0.610864,0.0220424,0.0805613,0.265811,0.0490174,0.179246,0.591256,0.0107328,0.396896,5,0.1,9,0.5,-1.53346,-0.928489,0.539473,0.45526,0.494477,0.0163703,1.03898,1.12854,0.0373758,0.0141797,2.51007,5,0.1
0,0.6,-1.64378,1.9405,0.662207,0.46716,-0.19716,-0.0278428,0.625432,-0.263929,-0.0372827,0.00786261,0.687127,5,0.1,1,0.6,3.97386,-1.11987,0.592221,-0.234419,-0.437564,0.00348687,-0.313997,-0.579536,0.00461936,0.0529885,0.699577,5,0.1,2,0.6,-4.27481,-3.12357,0.657421,0.307369,-0.0293136,-0.0394344,0.41151,-0.0392199,-0.0527799,0.00685843,0.258219,5,0.1,3,0.6,0.152563,-0.0456122,0.608879,-0.0625469,0.458448,-0.00183582,-0.0871569,-0.272729,-0.0025332,0.0143031,3.14691,5,0.1,4,0.6,-0.473298,-1.92816,0.588565,-0.660934,-0.211194,0.00511259,-0.884891,-0.282764,0.00685453,0.00916549,1.28279,5,0.1,5,0.6,-5.06937,-2.13186,0.551656,-0.0808597,0.338948,0.021635,-0.108004,-0.0103712,0.0289679,0.0156246,0.280357,5,0.1,6,0.6,0.192333,2.38605,0.575477,0.0370089,-0.785613,0.00842959,0.0549182,-0.959992,0.0124872,0.0141876,2.33663,5,0.1,7,0.6,-2.00578,5.45066,0.551155,0.572267,-0.570667,0.0150636,0.798821,-0.797033,0.0210106,0.017947,2.21916,5,0.1,8,0.6,1.44117,2.93483,0.640179,0.0263453,0.0962913,0.317697,0.0351667,0.128984,0.425309,0.00896764,0.29548,5,0.1,9,0.6,-1.4831,-0.87379,0.541284,0.547349,0.594501,0.0196829,0.764012,0.829935,0.0274479,0.0124866,2.21914,5,0.1
0,0.7,-1.59399,1.91949,0.65924,0.527205,-0.222499,-0.031422,0.541128,-0.22836,-0.0322573,0.00786261,0.687127,5,0.1,1,0.7,3.94887,-1.16563,0.592592,-0.264564,-0.469673,0.00393065,-0.271678,-0.103578,0.00400469,0.0529885,0.699577,5,0.1,2,0.7,-4.24205,-3.12669,0.653218,0.34688,-0.0330791,-0.0445015,0.356078,-0.033915,-0.0456609,0.00685843,0.258219,5,0.1,3,0.7,0.145869,-0.0019266,0.608683,-0.0712449,0.409793,-0.00208924,-0.0813939,-0.605359,-0.00237301,0.0143031,3.14691,5,0.1,4,0.7,-0.543739,-1.95067,0.58911,-0.745887,-0.23834,0.00577075,-0.765597,-0.244632,0.00593439,0.00916549,1.28279,5,0.1,5,0.7,-5.0781,-2.09869,0.553991,-0.0942759,0.318627,0.025231,-0.147492,-0.360176,0.0395179,0.0156246,0.280357,5,0.1,6,0.7,0.196314,2.30375,0.576523,0.0425789,-0.850407,0.0136557,0.0529764,-0.363097,0.0824444,0.0141876,2.33663,5,0.1,7,0.7,-1.94451,5.38956,0.552768,0.652456,-0.650667,0.0171729,0.754371,-0.752568,0.0198446,0.017947,2.21916,5,0.1,8,0.7,1.44398,2.9451,0.674038,0.0297222,0.108675,0.358529,0.0304282,0.111595,0.36798,0.00896764,0.29548,5,0.1,9,0.7,-1.42449,-0.810135,0.543391,0.624044,0.677811,0.0224385,0.721499,0.783723,0.0259206,0.0124866,2.21914,5,0.1
0,0.8,-1.53893,1.89625,0.655958,0.569633,-0.240403,-0.0339508,0.284135,-0.119865,-0.0169277,0.0106348,0.485152,5,0.1,1,0.8,3.92124,-1.21259,0.593003,-0.285864,-0.465003,0.00424534,-0.142813,0.170708,0.00208616,0.0521399,0.534882,5,0.1,2,0.8,-4.20582,-3.13015,0.648571,0.374794,-0.0357389,-0.0480831,0.187159,-0.0178814,-0.0239313,0.0101128,0.182324,5,0.1,3,0.8,0.138383,0.0360696,0.608463,-0.0779107,0.351947,-0.00228286,-0.0481978,-0.500862,-0.00143051,0.014939,3.15032,5,0.1,4,0.8,-0.621634,-1.97556,0.589713,-0.805911,-0.257519,0.00623614,-0.402033,-0.128448,0.00309944,0.010492,0.926034,5,0.1,5,0.8,-5.08824,-2.06896,0.556706,-0.108147,0.273228,0.0289455,-0.120401,-0.520825,0.0322759,0.0213502,0.236208,5,0.1,6,0.8,0.20081,2.21762,0.578351,0.0470098,-0.866026,0.0232175,0.0331849,0,0.101417,0.0151316,2.27079,5,0.1,7,0.8,-1.8759,5.32114,0.554573,0.714579,-0.712633,0.0188068,0.453115,-0.45228,0.0119507,0.0188535,2.04189,5,0.1,8,0.8,1.44708,2.95645,0.71148,0.032109,0.117421,0.387381,0.015974,0.058651,0.193208,0.00867532,0.262615,5,0.1,9,0.8,-1.35887,-0.738864,0.545751,0.68346,0.742352,0.0245735,0.433385,0.470698,0.0155866,0.01263,2.04376,5,0.1
0,0.9,-1.48061,1.87164,0.652483,0.595381,-0.251266,-0.0354847,0.203528,-0.0858605,-0.0121221,0.0106348,0.485152,5,0.1,1,0.9,3.89197,-1.2578,0.593437,-0.298804,-0.436798,0.00443468,-0.102296,0.320256,0.00150129,0.0521399,0.534882,5,0.1,2,0.9,-4.16745,-3.13381,0.643649,0.391753,-0.037358,-0.0502523,0.134051,-0.0127852,-0.0171438,0.0101128,0.182324,5,0.1,3,0.9,0.130345,0.0689481,0.608227,-0.082771,0.310778,-0.00242675,-0.0440744,-0.205692,-0.00130758,0.014939,3.15032,5,0.1,4,0.9,-0.704142,-2.0015,0.590351,-0.842341,-0.257062,0.00651749,-0.287969,0.123046,0.002224,0.010492,0.926034,5,0.1,5,0.9,-5.09966,-2.04445,0.559762,-0.120041,0.216069,0.0321331,-0.109315,-0.583351,0.0292808,0.0213502,0.236208,5,0.1,6,0.9,0.205699,2.13102,0.581082,0.0509036,-0.866026,0.0304745,0.0403579,0,0.0458844,0.0151316,2.27079,5,0.1,7,0.9,-1.80208,5.24752,0.556516,0.761526,-0.759482,0.0200442,0.437416,-0.436455,0.0115298,0.0188535,2.04189,5,0.1,8,0.9,1.45037,2.96862,0.75114,0.033557,0.12718,0.404889,0.0114441,0.121042,0.138406,0.00867532,0.262615,5,0.1,9,0.9,-1.28834,-0.662116,0.548287,0.726433,0.792823,0.0261188,0.384063,0.484645,0.0138097,0.01263,2.04376,5,0.1
0,1,-1.42037,1.84622,0.648892,0.605807,-0.255665,-0.0361055,-0.0130534,0.00560284,0.00077486,0.00886385,0.329925,5,0.1,1,1,3.86174,-1.3,0.593886,-0.304049,-0.40876,0.00451058,0.0064373,0.235438,-8.9407e-05,0.0485175,0.413425,5,0.1,2,1,-4.12781,-3.13759,0.638564,0.398624,-0.0380158,-0.0511304,-0.00858307,0.000834465,0.00116229,0.00783261,0.123987,5,0.1,3,1,0.121888,0.1,0.607979,-0.0858942,0.32002,-0.00251979,-0.0150017,0.365819,-0.000447035,0.0141246,2.90008,5,0.1,4,1,-0.789371,-2.02628,0.591011,-0.857091,-0.235641,0.00663102,0.0184774,0.292659,-0.000119209,0.0100177,0.586024,5,0.1,5,1,-5.11214,-2.02562,0.563102,-0.128627,0.16253,0.0344321,-0.0565052,-0.466585,0.0151992,0.0172599,0.373223,5,0.1,6,1,0.210974,2.04442,0.584282,0.0543397,-0.866026,0.0328109,0.0252724,0,0.00289083,0.0148003,2.48552,5,0.1,7,1,-1.72409,5.16974,0.558569,0.793874,-0.791752,0.0208974,0.176132,-0.175953,0.00461936,0.0169658,1.95377,5,0.1,8,1,1.45376,2.98195,0.792106,0.0341415,0.138938,0.411978,-0.000715256,0.102639,-0.00891089,0.00733963,0.185049,5,0.1,9,1,-1.21414,-0.58075,0.550955,0.753206,0.830105,0.0270814,0.122666,0.223249,0.00444055,0.0126125,1.95583,5,0.1
0,1.1,-1.35988,1.82069,0.645287,0.603154,-0.254538,-0.0359476,-0.0621751,0.0262856,0.00370294,0.00886385,0.329925,5,0.1,1,1.1,3.83138,-1.3401,0.594336,-0.302726,-0.396476,0.00449168,0.0311434,0.044927,-0.000458211,0.0485175,0.413425,5,0.1,2,1.1,-4.08801,-3.14138,0.633459,0.396878,-0.0378475,-0.0509017,-0.0409186,0.0039041,0.00528619,0.00783261,0.123987,5,0.1,3,1.1,0.113212,0.135176,0.607725,-0.0876243,0.394163,-0.0025712,-0.0149799,1.00827,-0.000439584,0.0141246,2.90008,5,0.1,4,1.1,-0.874951,-2.04817,0.591673,-0.853336,-0.200395,0.00660401,0.0879765,0.399351,-0.000663102,0.0100177,0.586024,5,0.1,5,1.1,-5.1252,-2.01147,0.566598,-0.131644,0.12372,0.0352448,-0.00241399,-0.273928,0.000685453,0.0172599,0.373223,5,0.1,6,1.1,0.216552,1.95852,0.587535,0.0572914,-0.845126,0.0318496,0.0297101,0.406563,-0.0208169,0.0148003,2.48552,5,0.1,7,1.1,-1.64364,5.08951,0.560687,0.815674,-0.813513,0.0214698,0.211366,-0.210881,0.00555068,0.0169658,1.95377,5,0.1,8,1.1,1.45717,2.99641,0.833242,0.0339936,0.150475,0.410171,-0.00348687,0.11611,-0.0422969,0.00733963,0.185049,5,0.1,9,1.1,-1.13806,-0.496533,0.55369,0.768607,0.854052,0.0276376,0.142626,0.213591,0.00514835,0.0126125,1.95583,5,0.1
0,1.2,-1.30011,1.79546,0.641725,0.589699,-0.248855,-0.0351459,-0.221431,0.0935197,0.0132024,0.0106167,0.521632,5,0.1,1,1.2,3.80138,-1.37961,0.594782,-0.295985,-0.393736,0.00439137,0.111341,0.035584,-0.00160933,0.0491626,0.307136,5,0.1,2,1.2,-4.04868,-3.14513,0.628415,0.388038,-0.0370026,-0.0497639,-0.146151,0.0139475,0.0187159,0.0104841,0.139922,5,0.1,3,1.2,0.104405,0.179957,0.607466,-0.0881102,0.50256,-0.00258684,0.00844151,1.07733,0.000268221,0.0166638,2.55307,5,0.1,4,1.2,-0.959521,-2.06612,0.592328,-0.834298,-0.158101,0.00645965,0.313371,0.436068,-0.00244379,0.0101975,0.137957,5,0.1,5,1.2,-5.13828,-2,0.5701,-0.128925,0.110203,0.0345215,0.056982,-0.00756979,-0.0152588,0.0169139,0.510162,5,0.1,6,1.2,0.22241,1.87663,0.590585,0.0595912,-0.787094,0.0288934,0.0134259,0.74172,-0.0371039,0.0244703,2.91227,5,0.1,7,1.2,-1.56129,5.00737,0.562854,0.827917,-0.825727,0.0217915,-0.000238419,0.000238419,-2.98023e-05,0.0149724,1.90654,5,0.1,8,1.2,1.46054,3.01198,0.873892,0.0332385,0.160104,0.401022,-0.012517,0.0681877,-0.150681,0.00856067,0.126955,5,0.1,9,1.2,-1.06074,-0.41035,0.556471,0.7745,0.866026,0.0278503,-0.054419,0,-0.00196695,0.0145555,1.69755,5,0.1
0,1.3,-1.24191,1.77104,0.638275,0.576698,-0.239612,-0.0338409,-0.0766665,0.0990853,0.0139922,0.0106167,0.521632,5,0.1,1,1.3,3.77233,-1.419,0.595213,-0.284981,-0.395432,0.00423156,0.117928,-0.0423267,-0.00172108,0.0491626,0.307136,5,0.1,2,1.3,-4.01036,-3.14879,0.6235,0.380087,-0.036243,-0.0487467,-0.0395626,0.00376999,0.00505149,0.0104841,0.139922,5,0.1,3,1.3,0.0956175,0.236158,0.607209,-0.0877184,0.624775,-0.00257352,0.00384729,1.27885,0.000122935,0.0166638,2.55307,5,0.1,4,1.3,-1.04111,-2.07977,0.592962,-0.794429,-0.115356,0.00621844,0.490189,0.412494,-0.0025779,0.0101975,0.137957,5,0.1,5,1.3,-5.15085,-1.98873,0.573467,-0.12224,0.117568,0.0327311,0.0781417,0.132397,-0.0209287,0.0169139,0.510162,5,0.1,6,1.3,0.228454,1.80249,0.593278,0.0613579,-0.688502,0.0248774,0.0180155,1.16851,-0.0425614,0.0244703,2.91227,5,0.1,7,1.3,-1.47824,4.92454,0.56504,0.834272,-0.832059,0.0219569,0.0782087,-0.0778735,0.00204891,0.0149724,1.90654,5,0.1,8,1.3,1.4638,3.02834,0.913258,0.0320019,0.167139,0.386127,-0.0132397,0.0630766,-0.15967,0.00856067,0.126955,5,0.1,9,1.3,-0.983399,-0.323825,0.559252,0.772944,0.862975,0.0277933,-0.016287,-0.0894192,-0.000596046,0.0145555,1.69755,5,0.1
0,1.4,-1.18464,1.74763,0.634969,0.567809,-0.227752,-0.0321656,-0.128627,0.14323,0.0202358,0.0107871,0.381066,5,0.1,1,1.4,3.74449,-1.4587,0.595626,-0.270867,-0.397545,0.0040248,0.17035,0.0196099,-0.0025332,0.054541,0.222054,5,0.1,2,1.4,-3.97255,-3.15239,0.618651,0.375515,-0.0358045,-0.0481635,-0.0712872,0.00679493,0.00911951,0.0136912,0.081921,5,0.1,3,1.4,0.0868871,0.304767,0.606952,-0.0865864,0.743129,-0.00253916,0.0218898,1.02432,0.000655651,0.0124502,2.34261,5,0.1,4,1.4,-1.11777,-2.08933,0.593569,-0.735465,-0.0766814,0.0059098,0.690877,0.356555,-0.00372529,0.00805193,0.624071,5,0.1,5,1.4,-5.16264,-1.97623,0.576624,-0.113094,0.13274,0.0302821,0.105381,0.154078,-0.0282824,0.0144923,0.727626,5,0.1,6,1.4,0.234661,1.73978,0.595549,0.062532,-0.564015,0.0205025,0.00273436,1.27655,-0.0443757,0.0163958,3.25111,5,0.1,7,1.4,-1.39462,4.84115,0.567241,0.835195,-0.832975,0.0219807,-0.0943542,0.0944138,-0.0025034,0.0114314,1.36987,5,0.1,8,1.4,1.46693,3.0453,0.950974,0.0304163,0.171131,0.367017,-0.0191331,0.0101328,-0.230819,0.0119571,0.14586,5,0.1,9,1.4,-0.906388,-0.238315,0.562021,0.764538,0.843304,0.0274912,-0.179291,-0.323989,-0.00649691,0.00957052,1.37087,5,0.1
0,1.5,-1.12832,1.72554,0.63185,0.559611,-0.214091,-0.0302354,-0.0655204,0.136472,0.0192821,0.0107871,0.381066,5,0.1,1,1.5,3.71822,-1.49846,0.596017,-0.254619,-0.397988,0.00378313,0.162303,-0.00696629,-0.00241771,0.054541,0.222054,5,0.1,2,1.5,-3.93529,-3.15595,0.613872,0.369972,-0.0352759,-0.0474547,-0.0568181,0.00543892,0.00727549,0.0136912,0.081921,5,0.1,3,1.5,0.0783122,0.383489,0.606701,-0.0850567,0.823856,-0.00249324,0.01312,0.579139,0.000391155,0.0124502,2.34261,5,0.1,4,1.5,-1.18831,-2.09532,0.594142,-0.678827,-0.0442509,0.00555487,0.478342,0.28722,-0.00354275,0.00805193,0.624071,5,0.1,5,1.5,-5.17343,-1.96245,0.579511,-0.102564,0.140337,0.0274572,0.106603,0.00561774,-0.0285916,0.0144923,0.727626,5,0.1,6,1.5,0.240946,1.68998,0.597382,0.0632635,-0.432039,0.0162058,0.00815,1.27794,-0.041306,0.0163958,3.25111,5,0.1,7,1.5,-1.31144,4.75818,0.56943,0.828908,-0.826674,0.0218136,-0.0706017,0.0706613,-0.0018701,0.0114314,1.36987,5,0.1,8,1.5,1.46989,3.06261,0.986759,0.0290442,0.176057,0.350464,-0.0101924,0.0720173,-0.122998,0.0119571,0.14586,5,0.1,9,1.5,-0.830723,-0.156575,0.564741,0.749028,0.782963,0.0269293,-0.162784,-0.83653,-0.00588968,0.00957052,1.37087,5,0.1
0,1.6,-1.07278,1.70485,0.628927,0.549561,-0.199378,-0.0281572,-0.15676,0.162125,0.0228882,0.00823329,0.270816,5,0.1,1,1.6,3.69361,-1.53819,0.596382,-0.237119,-0.395289,0.00352412,0.192881,0.0758767,-0.00292063,0.0595771,0.161722,5,0.1,2,1.6,-3.89867,-3.15944,0.609175,0.361234,-0.0344455,-0.0463367,-0.1297,0.012517,0.0166595,0.0088169,0.0619036,5,0.1,3,1.6,0.0698872,0.468006,0.606454,-0.0832111,0.859105,-0.00243932,0.0268929,0.138416,0.000804663,0.0166205,2.2694,5,0.1,4,1.6,-1.2539,-2.09845,0.594679,-0.63349,-0.0199378,0.00517368,0.455022,0.197053,-0.00423193,0.0115203,0.502679,5,0.1,5,1.6,-5.18314,-1.94858,0.582111,-0.0915527,0.135311,0.024505,0.114441,-0.0995398,-0.0306964,0.0219255,0.713552,5,0.1,6,1.6,0.247297,1.65264,0.598803,0.0635244,-0.321046,0.0122845,-0.00557303,0.900686,-0.0368953,0.0186909,3.31502,5,0.1,7,1.6,-1.22912,4.67609,0.571596,0.81445,-0.812232,0.0214338,-0.245452,0.245094,-0.00649691,0.0133616,0.955449,5,0.1,8,1.6,1.47275,3.08057,1.02122,0.0280529,0.182694,0.338486,-0.0110269,0.048995,-0.133097,0.0149875,0.0860475,5,0.1,9,1.6,-0.756819,-0.0829944,0.567398,0.726613,0.684242,0.0261202,-0.307292,-1.10175,-0.0110567,0.0128183,1.1302,5,0.1
0,1.7,-1.0185,1.68568,0.62622,0.536621,-0.18418,-0.0260115,-0.12628,0.147291,0.0207946,0.00823329,0.270816,5,0.1,1,1.7,3.67104,-1.5774,0.596721,-0.2127,-0.389054,0.00325115,0.287905,0.0660717,-0.00263378,0.0595771,0.161722,5,0.1,2,1.7,-3.86309,-3.16283,0.604611,0.350975,-0.033455,-0.0450191,-0.093475,0.0090152,0.0119992,0.0088169,0.0619036,5,0.1,3,1.7,0.0615797,0.554341,0.606213,-0.0838872,0.865593,-0.00238242,-0.0302906,0.0172983,0.000465661,0.0166205,2.2694,5,0.1,4,1.7,-1.31526,-2.09956,0.595176,-0.595706,-0.00345968,0.00477759,0.329897,0.122413,-0.00383332,0.0115203,0.502679,5,0.1,5,1.7,-5.19174,-1.9358,0.584413,-0.0806265,0.118242,0.0215754,0.105411,-0.220917,-0.0282526,0.0219255,0.713552,5,0.1,6,1.7,0.253641,1.62445,0.599856,0.063441,-0.25148,0.00887932,0.000350177,0.39006,-0.0311695,0.0186909,3.31502,5,0.1,7,1.7,-1.1488,4.59599,0.57371,0.792281,-0.790097,0.0208477,-0.229694,0.229299,-0.00606477,0.0133616,0.955449,5,0.1,8,1.7,1.47551,3.09908,1.05448,0.0271238,0.187477,0.32727,-0.00877678,0.0375062,-0.106014,0.0149875,0.0860475,5,0.1,9,1.7,-0.685594,-0.0204982,0.569958,0.698243,0.563176,0.0250995,-0.28614,-1.25496,-0.0102893,0.0128183,1.1302,5,0.1
0,1.8,-0.965579,1.66801,0.623725,0.520207,-0.169003,-0.0238687,-0.218749,0.15986,0.0225902,0.0111886,0.187994,5,0.1,1,1.8,3.65131,-1.61588,0.597033,-0.180948,-0.379166,0.00298023,0.340343,0.143528,-0.00283122,0.055256,0.118572,5,0.1,2,1.8,-3.82852,-3.16612,0.600176,0.33949,-0.0323534,-0.0435457,-0.148416,0.0141859,0.0190735,0.0100202,0.0275971,5,0.1,3,1.8,0.0530136,0.640935,0.605978,-0.0875,0.866026,-0.00232607,-0.0344031,0,0.000804663,0.0160337,2.26545,5,0.1,4,1.8,-1.37319,-2.09947,0.595635,-0.562495,0.00327826,0.00438243,0.355303,0.00989437,-0.00411272,0.0158868,0.401314,5,0.1,5,1.8,-5.19928,-1.92515,0.586431,-0.07025,0.0946522,0.0187948,0.102997,-0.23663,-0.027597,0.0175511,1.26572,5,0.1,6,1.8,0.259973,1.6,0.600598,0.0629894,-0.249654,0.00605434,-0.0118911,-0.319183,-0.025332,0.0261195,3.26084,5,0.1,7,1.8,-1.0709,4.51831,0.575759,0.763175,-0.761056,0.0200793,-0.374138,0.373363,-0.00980496,0.0124435,0.652383,5,0.1,8,1.8,1.47817,3.11794,1.08662,0.026089,0.188667,0.314775,-0.0127554,-0.0197887,-0.154078,0.016469,0.0785505,5,0.1,9,1.8,-0.617338,0.0297012,0.572412,0.665015,0.443361,0.0239044,-0.396103,-1.10483,-0.0142157,0.0105574,0.966489,5,0.1
0,1.9,-0.914563,1.65187,0.621445,0.500478,-0.154192,-0.0217759,-0.195503,0.140965,0.0199191,0.0111886,0.187994,5,0.1,1,1.9,3.63497,-1.65313,0.597317,-0.14557,-0.366007,0.00271816,0.360787,0.133693,-0.00248849,0.055256,0.118572,5,0.1,2,1.9,-3.79532,-3.16929,0.595918,0.324211,-0.0308946,-0.0415832,-0.166327,0.0158548,0.0213534,0.0100202,0.0275971,5,0.1,3,1.9,0.0440206,0.727537,0.605748,-0.0928376,0.866026,-0.0022714,-0.0633304,-3.72529e-06,0.000420958,0.0160337,2.26545,5,0.1,4,1.9,-1.42785,-2.09923,0.596053,-0.532047,-0.000315905,0.00400105,0.277266,-0.0989735,-0.00363216,0.0158868,0.401314,5,0.1,5,1.9,-5.20582,-1.91701,0.588179,-0.0606574,0.0677515,0.016225,0.0900924,-0.256523,-0.0241287,0.0175511,1.26572,5,0.1,6,1.9,0.266151,1.57346,0.601086,0.0599998,-0.280502,0.00379616,-0.0461787,-0.280887,-0.0198819,0.0261195,3.26084,5,0.1,7,1.9,-0.996347,4.44396,0.577721,0.728407,-0.726362,0.0191678,-0.347264,0.346512,-0.00910833,0.0124435,0.652383,5,0.1,8,1.9,1.48072,3.13647,1.11744,0.0250492,0.179727,0.302217,-0.00932813,-0.151619,-0.112511,0.016469,0.0785505,5,0.1,9,1.9,-0.552707,0.068952,0.574735,0.628174,0.346439,0.0225822,-0.362178,-0.820426,-0.013005,0.0105574,0.966489,5,0.1
0,2,-0.865586,1.63715,0.619367,0.477789,-0.140032,-0.0197753,-0.271767,0.145316,0.0205338,0.0118822,0.168947,5,0.1,1,2,3.62221,-1.68898,0.597577,-0.109941,-0.350067,0.00246912,0.347018,0.194609,-0.0025928,0.0594369,0.156639,5,0.1,2,2,-3.76382,-3.17229,0.591878,0.304735,-0.0290334,-0.0390843,-0.229001,0.0216961,0.0293553,0.0115952,0.0103263,5,0.1,3,2,0.0344332,0.81414,0.605523,-0.0986092,0.866026,-0.00222027,-0.045552,0,0.000715256,0.0130165,2.26402,5,0.1,4,2,-1.47964,-2.1,0.596435,-0.503021,-0.0172615,0.00363588,0.319958,-0.230074,-0.00375509,0.015941,0.311642,5,0.1,5,2,-5.21144,-1.91128,0.589685,-0.0520229,0.0498652,0.0139132,0.0834465,-0.0808835,-0.0223219,0.0181323,1.5289,5,0.1,6,2,0.271875,1.54418,0.601375,0.054086,-0.30297,0.00206679,-0.0705123,-0.15676,-0.0148118,0.0219393,3.3634,5,0.1,7,2,-0.925372,4.37318,0.579589,0.689347,-0.687397,0.0181422,-0.451654,0.450373,-0.0118613,0.0165484,0.439736,5,0.1,8,2,1.48318,3.15352,1.14706,0.0240088,0.159758,0.289658,-0.0123382,-0.241041,-0.14925,0.0124666,0.141049,5,0.1,9,2,-0.491787,0.1,0.576925,0.588969,0.279332,0.0211746,-0.436529,-0.534333,-0.015676,0.0125046,1.9227,5,0.1
0,2.1,-0.819081,1.62368,0.617486,0.452751,-0.131134,-0.0178901,-0.245176,0.0464022,0.0177138,0.0118822,0.168947,5,0.1,1,2.1,3.61289,-1.72328,0.597812,-0.0770427,-0.33784,0.00226423,0.307292,0.0747219,-0.00164658,0.0594369,0.156639,5,0.1,2,2.1,-3.73451,-3.17508,0.58812,0.280958,-0.0267785,-0.0360362,-0.250384,0.0237674,0.0320971,0.0115952,0.0103263,5,0.1,3,2.1,0.0242979,0.900742,0.605304,-0.10435,0.866026,-0.00217455,-0.061,-3.72529e-06,0.000331551,0.0130165,2.26402,5,0.1,4,2.1,-1.52849,-2.10315,0.596781,-0.474741,-0.0479251,0.0032912,0.264846,-0.358045,-0.00324473,0.015941,0.311642,5,0.1,5,2.1,-5.21625,-1.90649,0.590814,-0.0443846,0.0501219,0.00742506,0.0703931,0.156835,-0.0978485,0.0181323,1.5289,5,0.1,6,2.1,0.276985,1.51377,0.601732,0.0485508,-0.299556,0.00697887,-0.0435729,0.185005,0.0992306,0.0219393,3.3634,5,0.1,7,2.1,-0.858571,4.30657,0.581347,0.64734,-0.645509,0.0170385,-0.410058,0.408888,-0.0107735,0.0165484,0.439736,5,0.1,8,2.1,1.48552,3.16817,1.17524,0.0226486,0.132277,0.273219,-0.0151992,-0.299811,-0.183634,0.0124666,0.141049,5,0.1,9,2.1,-0.434795,0.125319,0.578969,0.552934,0.227912,0.0197208,-0.3119,-0.48324,-0.0140443,0.0125046,1.9227,5,0.1
0,2.2,-0.775095,1.61073,0.615784,0.426032,-0.128341,-0.016138,-0.300258,0.019908,0.0176728,0.0104389,0.118678,5,0.1,1,2.2,3.60663,-1.75672,0.598031,-0.0490665,-0.33083,0.00211596,0.249982,0.0835657,-0.00149012,0.0423005,0.246262,5,0.1,2,2.2,-3.70773,-3.17763,0.584684,0.254065,-0.0242174,-0.0325888,-0.289559,0.0274181,0.0371337,0.0105659,0.00512088,5,0.1,3,2.2,0.013588,0.987345,0.605088,-0.109394,0.866026,-0.00213385,-0.0339803,0,0.000625849,0.0141177,2.26295,5,0.1,4,2.2,-1.5746,-2.10978,0.597094,-0.446796,-0.0844598,0.0029698,0.3075,-0.353575,-0.00324845,0.0102484,0.234195,5,0.1,5,2.2,-5.22035,-1.9,0.591008,-0.0377536,0.0862122,-0.00395179,0.0629425,0.543892,-0.12219,0.0211561,2.45798,5,0.1,6,2.2,0.281644,1.48504,0.603021,0.0447795,-0.272784,0.0194564,-0.0344217,0.322342,0.139475,0.0191391,3.42934,5,0.1,7,2.2,-0.795962,4.24414,0.582995,0.603707,-0.602007,0.0158921,-0.477344,0.476122,-0.0125468,0.0124072,0.4152,5,0.1,8,2.2,1.4877,3.17986,1.20156,0.0209153,0.10137,0.252295,-0.0196099,-0.311375,-0.237048,0.0126129,0.196757,5,0.1,9,2.2,-0.381041,0.145847,0.580869,0.521824,0.184309,0.0182584,-0.33021,-0.383355,-0.015676,0.0123362,1.78011,5,0.1
0,2.3,-0.733906,1.59789,0.614253,0.39829,-0.129008,-0.0145269,-0.267971,-0.0225753,0.0150092,0.0104389,0.118678,5,0.1,1,2.3,3.60286,-1.78947,0.598236,-0.0274759,-0.32459,0.0019907,0.181958,0.0573695,-0.00110641,0.0423005,0.246262,5,0.1,2,2.3,-3.68376,-3.17992,0.581609,0.225464,-0.0215046,-0.028921,-0.285357,0.0271201,0.0365935,0.0105659,0.00512088,5,0.1,3,2.3,0.00244107,1.07395,0.604877,-0.113723,0.866026,-0.00209631,-0.0448166,0,0.000249594,0.0141177,2.26295,5,0.1,4,2.3,-1.61786,-2.12007,0.597376,-0.419088,-0.121655,0.00267383,0.262395,-0.371277,-0.00275671,0.0102484,0.234195,5,0.1,5,2.3,-5.22384,-1.88736,0.58995,-0.0320733,0.177092,-0.017557,0.0516176,1.17146,-0.142727,0.0211561,2.45798,5,0.1,6,2.3,0.285919,1.45977,0.605706,0.0404545,-0.230617,0.0344693,-0.0508968,0.444129,0.153098,0.0191391,3.42934,5,0.1,7,2.3,-0.737845,4.18603,0.584525,0.559515,-0.562376,0.0147302,-0.424486,0.344336,-0.011161,0.0124072,0.4152,5,0.1,8,2.3,1.48969,3.18847,1.22563,0.0190062,0.0711896,0.22923,-0.0189617,-0.286996,-0.228979,0.0126129,0.196757,5,0.1,9,2.3,-0.330326,0.162324,0.582621,0.493731,0.145938,0.0168124,-0.253985,-0.344161,-0.0137761,0.0123362,1.78011,5,0.1
0,2.4,-0.695452,1.58488,0.612874,0.370182,-0.131008,-0.0130579,-0.303447,-0.00971556,0.0146925,0.0104149,0.14579,5,0.1,1,2.4,3.60091,-1.82158,0.59843,-0.0125587,-0.316623,0.00187755,0.117421,0.113308,-0.00119209,0.0435886,0.224281,5,0.1,2,2.4,-3.66265,-3.18193,0.578901,0.196558,-0.0187576,-0.0252143,-0.294089,0.0280142,0.0377297,0.00973791,0.00158522,5,0.1,3,2.4,-0.00912088,1.16055,0.604669,-0.11703,0.866026,-0.00206232,-0.0158314,0,0.000506639,0.0136571,2.26237,5,0.1,4,2.4,-1.65842,-2.13399,0.59763,-0.391653,-0.155449,0.00240356,0.297129,-0.29099,-0.00271201,0.00843825,0.170535,5,0.1,5,2.4,-5.2268,-1.86345,0.587495,-0.0272751,0.302485,-0.0312477,0.0452995,1.25843,-0.125855,0.017335,1.99712,5,0.1,6,2.4,0.289691,1.43866,0.609889,0.0348218,-0.195298,0.0487491,-0.0607073,0.225663,0.126958,0.0147569,3.32473,5,0.1,7,2.4,-0.684048,4.13148,0.585942,0.515775,-0.528347,0.0135794,-0.462651,0.355721,-0.0121593,0.0123829,0.295933,5,0.1,8,2.4,1.4915,3.19423,1.24739,0.0170588,0.0448167,0.205725,-0.020206,-0.237107,-0.244081,0.011368,0.320305,5,0.1,9,2.4,-0.282247,0.1755,0.584233,0.467213,0.121073,0.0154123,-0.292174,-0.137091,-0.0146031,0.010133,1.6001,5,0.1
0,2.5,-0.659669,1.5717,0.611631,0.347701,-0.132782,-0.0119025,-0.169694,-0.0179708,0.00920147,0.0104149,0.14579,5,0.1,1,2.5,3.6002,-1.85258,0.598611,-0.00235066,-0.302418,0.00174996,0.0834167,0.174105,-0.00137836,0.0435886,0.224281,5,0.1,2,2.5,-3.64444,-3.18367,0.576566,0.167685,-0.0160053,-0.0215103,-0.283644,0.0270605,0.0363849,0.00973791,0.00158522,5,0.1,3,2.5,-0.0209396,1.24715,0.604464,-0.11952,0.866026,-0.00203466,-0.0265091,0,0.000167638,0.0136571,2.26237,5,0.1,4,2.5,-1.6962,-2.15098,0.597858,-0.364636,-0.183973,0.00215778,0.256173,-0.264809,-0.00227615,0.00843825,0.170535,5,0.1,5,2.5,-5.22932,-1.82648,0.583735,-0.0232369,0.439135,-0.0438678,0.0362396,1.39723,-0.121091,0.017335,1.99712,5,0.1,6,2.5,0.292858,1.41997,0.615405,0.0284262,-0.184368,0.0614746,-0.0659898,-0.109822,0.12134,0.0147569,3.32473,5,0.1,7,2.5,-0.634648,4.0805,0.587242,0.473185,-0.490579,0.0124597,-0.404187,0.403762,-0.0106283,0.0123829,0.295933,5,0.1,8,2.5,1.4931,3.19756,1.26674,0.015034,0.0224359,0.181277,-0.0203624,-0.201732,-0.245646,0.011368,0.320305,5,0.1,9,2.5,-0.236853,0.187168,0.585706,0.441518,0.116488,0.0140727,-0.239863,0.106707,-0.0126399,0.010133,1.6001,5,0.1
0,2.6,-0.625685,1.55837,0.610483,0.332162,-0.133282,-0.011082,-0.15834,0.0133514,0.00777841,0.00851905,0.103306,5,0.1,1,2.6,3.6003,-1.88183,0.598779,0.00365376,-0.281325,0.00159889,0.0354052,0.249207,-0.00169873,0.0435998,0.358914,5,0.1,2,2.6,-3.62908,-3.18514,0.574595,0.139809,-0.0133455,-0.0179335,-0.273824,0.0261068,0.0350773,0.00760337,0.000851712,5,0.1,3,2.6,-0.0329917,1.33376,0.604262,-0.121059,0.866026,-0.00200868,0.000974089,0,0.000476837,0.00992537,2.26222,5,0.1,4,2.6,-1.73137,-2.17056,0.598062,-0.338224,-0.20594,0.00193715,0.281036,-0.164509,-0.00217557,0.0102113,0.119982,5,0.1,5,2.6,-5.23147,-1.77587,0.578788,-0.019896,0.568599,-0.0545397,0.0314713,1.13595,-0.0885129,0.0144653,0.206077,5,0.1,6,2.6,0.29537,1.4,0.622108,0.0218406,-0.224462,0.0719607,-0.0647455,-0.661194,0.0841022,0.012227,0.624378,5,0.1,7,2.6,-0.589354,4.03356,0.588435,0.432391,-0.446963,0.011386,-0.42215,0.470519,-0.0111163,0.0122794,0.371406,5,0.1,8,2.6,1.4945,3.19891,1.28363,0.0129819,0.00581741,0.156501,-0.020802,-0.126243,-0.250041,0.0165764,0.474477,5,0.1,9,2.6,-0.193935,0.2,0.58705,0.416158,0.146286,0.012809,-0.280015,0.46663,-0.0129342,0.00936248,1.35257,5,0.1
0,2.7,-0.593152,1.54528,0.609409,0.31919,-0.12687,-0.0104378,-0.11652,0.108957,0.00562891,0.00851905,0.103306,5,0.1,1,2.7,3.60087,-1.90871,0.598931,0.00740699,-0.256174,0.00143312,0.021413,0.257134,-0.00163913,0.0435998,0.358914,5,0.1,2,2.7,-3.61643,-3.18635,0.572973,0.113429,-0.0108287,-0.0145534,-0.253141,0.0241697,0.0324398,0.00760337,0.000851712,5,0.1,3,2.7,-0.0451313,1.42036,0.604063,-0.121933,0.866026,-0.00198316,-0.0112085,0,0.000156462,0.00992537,2.26222,5,0.1,4,2.7,-1.76388,-2.19195,0.598246,-0.312596,-0.221285,0.00174064,0.242241,-0.130862,-0.00181049,0.0102113,0.119982,5,0.1,5,2.7,-5.23331,-1.7144,0.573058,-0.0171229,0.650525,-0.058527,0.0246763,0.512339,0.00311807,0.0144653,0.206077,5,0.1,6,2.7,0.297238,1.37538,0.629572,0.0156264,-0.2578,0.0759133,-0.0587497,-0.0478551,-0.000875443,0.012227,0.624378,5,0.1,7,2.7,-0.548096,3.99154,0.589521,0.393746,-0.391157,0.0103683,-0.363346,0.611201,-0.00957027,0.0122794,0.371406,5,0.1,8,2.7,1.4957,3.19891,1.29805,0.0109555,-0.00486635,0.132131,-0.0197217,-0.0693649,-0.237323,0.0165764,0.474477,5,0.1,9,2.7,-0.153613,0.217763,0.58827,0.390987,0.215192,0.0116289,-0.238244,0.84084,-0.0110492,0.00936248,1.35257,5,0.1
0,2.8,-0.561849,1.53326,0.608393,0.306231,-0.112605,-0.00986755,-0.153512,0.171125,0.00613928,0.00884753,0.211312,5,0.1,1,2.8,3.60158,-1.93301,0.599066,0.00540614,-0.229374,0.00126809,-0.0686646,0.280797,-0.00169873,0.0397148,0.740098,5,0.1,2,2.8,-3.60632,-3.18731,0.571675,0.0893056,-0.00852346,-0.0114605,-0.229001,0.0218153,0.0293255,0.00994477,0.000729003,5,0.1,3,2.8,-0.0573522,1.50696,0.603865,-0.122068,0.866026,-0.00195801,0.0136048,0,0.000447035,0.0133807,2.26239,5,0.1,4,2.8,-1.79392,-2.2146,0.598411,-0.287956,-0.230193,0.00156611,0.258029,-0.0393391,-0.00178814,0.01624,0.140306,5,0.1,5,2.8,-5.23491,-1.64774,0.567333,-0.0148535,0.673306,-0.0549659,0.0214577,-0.0439882,0.0632703,0.0126586,0.204803,5,0.1,6,2.8,0.298522,1.35008,0.637048,0.0102207,-0.241792,0.0725761,-0.0488907,0.332713,-0.062108,0.0122692,0.251424,5,0.1,7,2.8,-0.510525,3.9555,0.590511,0.357584,-0.330144,0.00941604,-0.368744,0.589252,-0.00971556,0.00970482,0.314184,5,0.1,8,2.8,1.4967,3.19827,1.3101,0.00903606,-0.00566244,0.109059,-0.018537,0.0593662,-0.223994,0.00900419,1.20218,5,0.1,9,2.8,-0.115735,0.243626,0.589379,0.365994,0.302064,0.0105351,-0.271931,0.843376,-0.0110865,0.010356,1.07507,5,0.1
0,2.9,-0.531959,1.52293,0.607435,0.291671,-0.0933822,-0.00930466,-0.147525,0.207841,0.00545382,0.00884753,0.211312,5,0.1,1,2.9,3.60175,-1.95458,0.599184,-0.0040181,-0.20245,0.0011079,-0.179797,0.26089,-0.00151992,0.0397148,0.740098,5,0.1,2,2.9,-3.59849,-3.18806,0.57067,0.0677425,-0.00646785,-0.00869809,-0.201568,0.0192225,0.0258349,0.00994477,0.000729003,5,0.1,3,2.9,-0.0695319,1.59356,0.603671,-0.121752,0.866026,-0.00193436,-0.000247937,0,0.000141561,0.0133807,2.26239,5,0.1,4,2.9,-1.82166,-2.23798,0.59856,-0.268703,-0.238411,0.00142809,0.145584,-0.104308,-0.00107288,0.01624,0.140306,5,0.1,5,2.9,-5.2363,-1.58081,0.562222,-0.0129782,0.663181,-0.0466757,0.0165403,-0.172801,0.098452,0.0126586,0.204803,5,0.1,6,2.9,0.299166,1.32705,0.643895,0.00154241,-0.223094,0.0634934,-0.115113,0.0731125,-0.114229,0.0122692,0.251424,5,0.1,7,2.9,-0.476491,3.92535,0.591407,0.323999,-0.27446,0.00853119,-0.313472,0.48691,-0.00825897,0.00970482,0.314184,5,0.1,8,2.9,1.49751,3.19804,1.31993,0.00729132,0.00351779,0.0879807,-0.0163838,0.203446,-0.19788,0.00900419,1.20218,5,0.1,9,2.9,-0.080402,0.278301,0.59038,0.341288,0.392593,0.00952827,-0.234402,0.91351,-0.00936911,0.010356,1.07507,5,0.1
0,3,-0.503585,1.51465,0.606533,0.27508,-0.0720263,-0.00872016,-0.190914,0.214875,0.0064671,0.0107701,0.19587,5,0.1,1,3,3.6,-1.97354,0.599288,-0.035423,-0.176668,0.000959635,-0.43726,0.256896,-0.00143051,0.0456136,1.19446,5,0.1,2,3,-3.59267,-3.18861,0.569923,0.0491083,-0.00469089,-0.00630766,-0.170827,0.0163317,0.0218749,0.010586,0.000556272,5,0.1,3,3,-0.081684,1.68017,0.603479,-0.120918,0.866026,-0.00191033,0.0218935,0,0.000447035,0.0134943,2.26278,5,0.1,4,3,-1.84786,-2.26231,0.598698,-0.255612,-0.247496,0.00133365,0.129819,-0.0624657,-0.00089407,0.0101977,0.0835952,5,0.1,5,3,-5.23752,-1.51566,0.558077,-0.0114441,0.636497,-0.0360116,0.0143051,-0.369072,0.11158,0.0137977,0.566477,5,0.1,6,3,0.2987,1.30489,0.649623,-0.0111073,-0.221536,0.0506952,-0.130519,-0.0174642,-0.137448,0.0138756,0.334791,5,0.1,7,3,-0.445638,3.9,0.592219,0.293095,-0.236052,0.00771731,-0.31203,0.286102,-0.00822544,0.0106863,0.282268,5,0.1,8,3,1.49816,3.2,1.32778,0.00575483,0.0415742,0.0694245,-0.0144243,0.543714,-0.173569,0.0124236,1.04666,5,0.1,9,3,-0.0474646,0.321882,0.591287,0.317044,0.475544,0.0086084,-0.25897,0.706985,-0.00926852,0.00901929,0.813482,5,0.1
0,3.1,-0.477017,1.5085,0.605692,0.256271,-0.051157,-0.00809645,-0.191433,0.199132,0.00622496,0.0107701,0.19587,5,0.1,1,3.1,3.59397,-1.98998,0.599377,-0.0873253,-0.152677,0.000827387,-0.571221,0.225887,-0.0012368,0.0456136,1.19446,5,0.1,2,3.1,-3.58857,-3.18901,0.569395,0.0334375,-0.00319257,-0.00429982,-0.142217,0.0136197,0.0182353,0.010586,0.000556272,5,0.1,3,3.1,-0.0937086,1.76677,0.603289,-0.119822,0.866026,-0.00188565,0.00685127,0,0.000152737,0.0134943,2.26278,5,0.1,4,3.1,-1.87286,-2.28739,0.598828,-0.245098,-0.254037,0.00126138,0.092648,-0.0550896,-0.000618398,0.0101977,0.0835952,5,0.1,5,3.1,-5.2386,-1.45341,0.554892,-0.0102006,0.611841,-0.0289101,0.0109971,-0.166252,0.0373945,0.0137977,0.566477,5,0.1,6,3.1,0.296893,1.28226,0.653979,-0.025288,-0.234311,0.0362603,-0.145912,-0.203602,-0.147432,0.0138756,0.334791,5,0.1,7,3.1,-0.417784,3.87782,0.592953,0.264802,-0.207682,0.00697142,-0.262607,0.282586,-0.00691786,0.0106863,0.282268,5,0.1,8,3.1,1.49867,3.20762,1.3339,0.00442993,0.116571,0.0534801,-0.0121072,0.891104,-0.1458,0.0124236,1.04666,5,0.1,9,3.1,-0.0169703,0.372986,0.592105,0.293429,0.545615,0.00777021,-0.223445,0.652971,-0.00775605,0.00901929,0.813482,5,0.1
0,3.2,-0.452388,1.50434,0.604915,0.23578,-0.0327587,-0.00743866,-0.222355,0.166655,0.00700355,0.00914919,0.408333,5,0.1,1,3.2,3.58237,-2.00415,0.599454,-0.144386,-0.130993,0.000709295,-0.547051,0.210166,-0.00110269,0.0459087,2.75889,5,0.1,2,3.2,-3.58588,-3.18926,0.56905,0.0207126,-0.00197291,-0.00266731,-0.112176,0.0106096,0.0143647,0.00964098,0.000326745,5,0.1,3,3.2,-0.105636,1.85337,0.603101,-0.118382,0.866026,-0.00186116,0.0267662,0,0.000447035,0.0112919,2.26329,5,0.1,4,3.2,-1.89689,-2.31297,0.598951,-0.234994,-0.256288,0.00119954,0.117898,0.0190735,-0.000685453,0.00992147,0.156527,5,0.1,5,3.2,-5.23956,-1.39301,0.552113,-0.00916719,0.595942,-0.0272915,0.0100136,-0.182509,0.000506639,0.0143336,1.78417,5,0.1,6,3.2,0.293658,1.25773,0.656878,-0.039047,-0.25624,0.0218809,-0.124007,-0.209212,-0.137269,0.0134452,3.13056,5,0.1,7,3.2,-0.392593,3.85846,0.593616,0.239072,-0.17935,0.00629276,-0.258237,0.284672,-0.00679493,0.0100533,0.271436,5,0.1,8,3.2,1.49906,3.22386,1.33857,0.00332594,0.20836,0.0401706,-0.0100732,0.8955,-0.120759,0.010938,0.847868,5,0.1,9,3.2,0.0112467,0.430444,0.592844,0.27064,0.599135,0.00701249,-0.239353,0.388876,-0.00759959,0.00876176,0.587051,5,0.1
0,3.3,-0.429904,1.50191,0.604205,0.213992,-0.0157557,-0.00675777,-0.217242,0.161827,0.0067465,0.00914919,0.408333,5,0.1,1,3.3,3.56583,-2.01657,0.599519,-0.181457,-0.120611,0.000608619,-0.255555,0.0198632,-0.000927597,0.0459087,2.75889,5,0.1,2,3.3,-3.58433,-3.18941,0.56885,0.0107557,-0.00102967,-0.00139102,-0.0869334,0.00825524,0.0111535,0.00964098,0.000326745,5,0.1,3,3.3,-0.117383,1.93997,0.602917,-0.116815,0.866026,-0.00183592,0.0111824,-7.45058e-06,0.000167638,0.0112919,2.26329,5,0.1,4,3.3,-1.91962,-2.33848,0.599068,-0.217992,-0.253433,0.00113733,0.216946,0.0462383,-0.000603497,0.00992147,0.156527,5,0.1,5,3.3,-5.24043,-1.33331,0.54932,-0.00829771,0.606264,-0.0291091,0.00777841,0.306167,-0.0315718,0.0143336,1.78417,5,0.1,6,3.3,0.28956,1.23037,0.658631,-0.0392017,-0.296501,0.0153738,0.0993423,-0.535451,-0.00541285,0.0134452,3.13056,5,0.1,7,3.3,-0.369888,3.84202,0.594213,0.215745,-0.149035,0.00567902,-0.215622,0.315338,-0.00567734,0.0100533,0.271436,5,0.1,8,3.3,1.49934,3.24939,1.34202,0.00242051,0.303135,0.0293061,-0.00808388,0.950739,-0.0970215,0.010938,0.847868,5,0.1,9,3.3,0.0371373,0.492112,0.593504,0.247277,0.631705,0.00617392,-0.2329,0.238733,-0.009045,0.00876176,0.587051,5,0.1
0,3.4,-0.409607,1.50107,0.603563,0.191707,-0.00221431,-0.00606775,-0.230864,0.102341,0.00715256,0.00834949,0.78408,5,0.1,1,3.4,3.54652,-2.02869,0.599576,-0.204623,-0.123048,0.000521541,-0.237823,-0.0513792,-0.000864267,0.0386589,2.483,5,0.1,2,3.4,-3.58365,-3.18948,0.568761,0.00330806,-0.000321865,-0.000433624,-0.0622272,0.00596046,0.00795722,0.00781566,0.000145306,5,0.1,3,3.4,-0.12899,2.02658,0.602734,-0.115019,0.866026,-0.001809,0.0294074,0,0.000417233,0.0115715,1.94693,5,0.1,4,3.4,-1.94021,-2.36349,0.599178,-0.192612,-0.245702,0.00107139,0.285745,0.113845,-0.000715256,0.00819783,0.140377,5,0.1,5,3.4,-5.24123,-1.2709,0.546234,-0.00755787,0.642684,-0.0326782,0.00715256,0.360131,-0.0357926,0.0243625,1.39399,5,0.1,6,3.4,0.286358,1.19791,0.660273,-0.0230573,-0.352731,0.0185475,0.206307,-0.543654,0.0589192,0.0135852,1.20143,5,0.1,7,3.4,-0.34937,3.8287,0.594754,0.194695,-0.117415,0.00512451,-0.210583,0.312328,-0.00551343,0.0102977,0.433902,5,0.1,8,3.4,1.49955,3.28422,1.3445,0.00170171,0.390041,0.0206679,-0.00631809,0.751972,-0.0762343,0.010959,0.64955,5,0.1,9,3.4,0.0606785,0.55607,0.594075,0.223241,0.643004,0.00522733,-0.251023,-0.0276864,-0.00980496,0.0104897,0.475107,5,0.1
0,3.5,-0.391591,1.50136,0.602992,0.168617,0.00754725,-0.00535194,-0.231583,0.0660792,0.00718981,0.00834949,0.78408,5,0.1,1,3.5,3.52498,-2.04142,0.599624,-0.22779,-0.132817,0.000443868,-0.32419,-0.126883,-0.000707805,0.0386589,2.483,5,0.1,2,3.5,-3.5836,-3.18948,0.568754,-0.00193678,0.000181049,0.000238232,-0.0429302,0.00414252,0.00551343,0.00781566,0.000145306,5,0.1,3,3.5,-0.140375,2.11317,0.602555,-0.112853,0.865703,-0.00177985,0.0195503,-0.0128895,0.000257045,0.0115715,1.94693,5,0.1,4,3.5,-1.95793,-2.38747,0.599282,-0.160953,-0.233492,0.00100192,0.339516,0.135273,-0.000700355,0.00819783,0.140377,5,0.1,5,3.5,-5.24195,-1.2044,0.542761,-0.00693426,0.69,-0.0369418,0.00563264,0.522316,-0.0454262,0.0243625,1.39399,5,0.1,6,3.5,0.285041,1.16055,0.662421,-0.00376198,-0.388509,0.024318,0.176892,-0.180796,0.05408,0.0135852,1.20143,5,0.1,7,3.5,-0.330878,3.81856,0.59524,0.17573,-0.0854023,0.00462774,-0.174811,0.315368,-0.00458211,0.0102977,0.433902,5,0.1,8,3.5,1.49969,3.32697,1.34622,0.00114609,0.463976,0.0139592,-0.00483543,0.688836,-0.0583902,0.010959,0.64955,5,0.1,9,3.5,0.0813073,0.619774,0.594484,0.185611,0.626572,0.00240477,-0.475076,-0.296865,-0.0424571,0.0104897,0.475107,5,0.1
0,3.6,-0.375892,1.50223,0.602493,0.145309,0.00730455,-0.00462681,-0.234723,-0.0812411,0.00733137,0.00731846,3.6445,5,0.1,1,3.6,3.5,-2.05535,0.599665,-0.277412,-0.145441,0.00037998,-0.649095,-0.112891,-0.000655651,0.0436667,2.10786,5,0.1,2,3.6,-3.58398,-3.18945,0.568801,-0.00533462,0.000506639,0.000676513,-0.02563,0.0025034,0.00327826,0.00774391,4.93725e-05,5,0.1,3,3.6,-0.151541,2.19957,0.602379,-0.110153,0.860864,-0.00174195,0.0383779,-0.102997,0.000566244,0.0134988,1.64823,5,0.1,4,3.6,-1.9723,-2.41008,0.599378,-0.126144,-0.217855,0.000926852,0.350296,0.180364,-0.000834465,0.0114123,0.197344,5,0.1,5,3.6,-5.24262,-1.13295,0.538851,-0.0063777,0.736165,-0.0410646,0.00572205,0.354886,-0.0340939,0.0158724,0.271997,5,0.1,6,3.6,0.285483,1.12133,0.665099,0.0118755,-0.390747,0.0289574,0.13411,0.126243,0.0369847,0.0136711,1.12035,5,0.1,7,3.6,-0.314161,3.81152,0.595681,0.158691,-0.05638,0.00417978,-0.170305,0.257254,-0.00447035,0.0143529,0.881714,5,0.1,8,3.6,1.49978,3.37646,1.34735,0.000730157,0.521415,0.00890195,-0.00363588,0.433803,-0.0431538,0.00971165,0.469398,5,0.1,9,3.6,0.0973043,0.680533,0.594486,0.132981,0.584643,-0.0025183,-0.55648,-0.535756,-0.0527799,0.00966025,0.370846,5,0.1
0,3.7,-0.362507,1.50265,0.602067,0.12265,-0.00232495,-0.00391854,-0.218831,-0.271827,0.00685081,0.00731846,3.6445,5,0.1,1,3.7,3.46812,-2.07052,0.5997,-0.366886,-0.158293,0.000322051,-1.05315,-0.130877,-0.00051409,0.0436667,2.10786,5,0.1,2,3.7,-3.58461,-3.18938,0.568882,-0.00723526,0.000692904,0.000920612,-0.012815,0.0012815,0.00165775,0.00774391,4.93725e-05,5,0.1,3,3.7,-0.162385,2.28429,0.602207,-0.106822,0.826279,-0.00169333,0.0327788,-0.540257,0.000476837,0.0134988,1.64823,5,0.1,4,3.7,-1.98319,-2.43099,0.599467,-0.0920851,-0.200605,0.000850111,0.326321,0.170082,-0.000722706,0.0114123,0.197344,5,0.1,5,3.7,-5.24323,-1.05803,0.534566,-0.00587255,0.757197,-0.0446169,0.00458956,0.0553802,-0.0337958,0.0158724,0.271997,5,0.1,6,3.7,0.287221,1.08322,0.668343,0.021775,-0.368263,0.0372497,0.0668615,0.31396,0.116237,0.0136711,1.12035,5,0.1,7,3.7,-0.299082,3.80719,0.596078,0.143387,-0.0307009,0.00377772,-0.140825,0.22307,-0.00369921,0.0143529,0.881714,5,0.1,8,3.7,1.49984,3.4307,1.34804,0.00041984,0.562007,0.00521038,-0.0026077,0.348225,-0.0310466,0.00971165,0.469398,5,0.1,9,3.7,0.107708,0.736478,0.593955,0.0744747,0.535403,-0.00819508,-0.593629,-0.465475,-0.0579059,0.00966025,0.370846,5,0.1
0,3.8,-0.351312,1.5,0.601708,0.101488,-0.061366,-0.0032559,-0.204608,-0.891507,0.0064671,0.00754938,3.19797,5,0.1,1,3.8,3.42609,-2.08694,0.59973,-0.472808,-0.169355,0.000275671,-1.00005,-0.0809431,-0.000447035,0.0472032,1.67048,5,0.1,2,3.8,-3.58538,-3.18931,0.56898,-0.0079751,0.0007689,0.00101775,-0.00238419,0.000238419,0.000327826,0.00829247,1.51614e-05,5,0.1,3,3.8,-0.172883,2.36381,0.60204,-0.10283,0.760645,-0.00163317,0.0501797,-0.742555,0.000745058,0.0124968,1.44998,5,0.1,4,3.8,-1.99084,-2.45018,0.599548,-0.0616521,-0.182933,0.00077635,0.279188,0.186801,-0.00077486,0.00944384,0.321047,5,0.1,5,3.8,-5.24379,-0.982597,0.529957,-0.00542402,0.745797,-0.0472903,0.00476837,-0.287354,-0.017494,0.0133695,1.48192,5,0.1,6,3.8,0.289643,1.04821,0.672695,0.0258125,-0.329787,0.0499815,0.0165552,0.446796,0.128835,0.00778889,0.596311,5,0.1,7,3.8,-0.285432,3.80498,0.596438,0.12966,-0.0164866,0.00341684,-0.137284,0.0473261,-0.00360608,0.0108161,3.61062,5,0.1,8,3.8,1.49987,3.4883,1.34843,0.000202656,0.586092,0.00261962,-0.00172853,0.113606,-0.0210404,0.00995264,0.324298,5,0.1,9,3.8,0.112261,0.787697,0.592857,0.0177076,0.488748,-0.0136092,-0.527211,-0.479192,-0.0483394,0.0116651,0.295359,5,0.1
0,3.9,-0.342263,1.48806,0.601414,0.0789099,-0.187978,-0.00264598,-0.239944,-1.52615,0.00574067,0.00754938,3.19797,5,0.1,1,3.9,3.37354,-2.1043,0.599755,-0.579286,-0.177737,0.000236835,-1.06294,-0.0762939,-0.000339001,0.0472032,1.67048,5,0.1,2,3.9,-3.58618,-3.18923,0.569082,-0.00784174,0.000757724,0.00100313,0.00464916,-0.000447035,-0.000562519,0.00829247,1.51614e-05,5,0.1,3,3.9,-0.182933,2.43572,0.601881,-0.0982535,0.674477,-0.00156527,0.0450565,-0.926986,0.000674278,0.0124968,1.44998,5,0.1,4,3.9,-1.99563,-2.46753,0.599622,-0.0348808,-0.163963,0.000698678,0.246279,0.193655,-0.000782311,0.00944384,0.321047,5,0.1,5,3.9,-5.24431,-0.909657,0.525155,-0.00500083,0.710768,-0.0485629,0.0038743,-0.420474,-0.00645965,0.0133695,1.48192,5,0.1,6,3.9,0.292239,1.01847,0.678369,0.0255099,-0.256571,0.0636199,-0.0199415,0.953194,0.135921,0.00778889,0.596311,5,0.1,7,3.9,-0.272917,3.80358,0.596761,0.12258,-0.0156272,0.00306312,-0.0201426,-0.184581,-0.00350922,0.0108161,3.61062,5,0.1,8,3.9,1.49988,3.54743,1.3486,6.20261e-05,0.595454,0.000901893,-0.00111014,0.0496805,-0.0136048,0.00995264,0.324298,5,0.1,9,3.9,0.111657,0.834479,0.591277,-0.027025,0.449349,-0.017701,-0.361871,-0.331212,-0.0320636,0.0116651,0.295359,5,0.1
0,4,-0.335582,1.46136,0.601177,0.0547461,-0.346458,-0.00210553,-0.237897,-1.55652,0.00506639,0.00903421,2.71094,5,0.1,1,4,3.31064,-2.12238,0.599777,-0.673991,-0.182861,0.000205636,-0.783801,-0.0189543,-0.000298023,0.0372904,1.25543,5,0.1,2,4,-3.58693,-3.18916,0.569179,-0.00712872,0.000691414,0.000914931,0.00929832,-0.000834465,-0.00119209,0.0131841,8.78358e-06,5,0.1,3,4,-0.192517,2.49856,0.601728,-0.0931945,0.583476,-0.00148863,0.0586659,-0.864387,0.000923872,0.0116689,1.2843,5,0.1,4,4,-1.99801,-2.48294,0.599688,-0.0139385,-0.144041,0.000616908,0.166953,0.20504,-0.000804663,0.0116002,0.475465,5,0.1,5,4,-5.24479,-0.840949,0.520295,-0.0046134,0.660658,-0.0483394,0.00405312,-0.58496,0.0118613,0.0155295,2.22021,5,0.1,6,4,0.294648,0.997975,0.685368,0.0223152,-0.150621,0.0757948,-0.0417084,1.11541,0.101835,0.00670691,0.44602,5,0.1,7,4,-0.260674,3.8,0.59705,0.122845,-0.0669539,0.00270605,0.0134259,-0.823021,-0.00357628,0.0229304,3.18946,5,0.1,8,4,1.49988,3.60696,1.34863,-2.38419e-05,0.592053,-0.000157952,-0.000596046,-0.133514,-0.00780821,0.0102515,0.217592,5,0.1,9,4,0.107449,0.87785,0.589383,-0.0540862,0.418557,-0.019823,-0.179112,-0.301749,-0.00989437,0.00942847,0.229535,5,0.1
0,4.1,-0.33136,1.41849,0.600974,0.0292737,-0.512957,-0.00209128,-0.262458,-1.68458,-0.00376627,0.00903421,2.71094,5,0.1,1,4.1,3.23931,-2.14077,0.599797,-0.751452,-0.184747,0.000180025,-0.713751,-0.0104755,-0.000219792,0.0372904,1.25543,5,0.1,2,4.1,-3.58759,-3.1891,0.569264,-0.00604652,0.000592694,0.00077663,0.0119954,-0.00111759,-0.00152364,0.0131841,8.78358e-06,5,0.1,3,4.1,-0.20156,2.55265,0.601583,-0.0877823,0.501411,-0.0014036,0.0526328,-0.692725,0.00083074,0.0116689,1.2843,5,0.1,4,4.1,-1.99863,-2.49633,0.599746,0.000414997,-0.123759,0.000536442,0.101864,0.20057,-0.000804663,0.0116002,0.475465,5,0.1,5,4.1,-5.24508,-0.77848,0.515583,0.00019297,0.583198,-0.0453237,0.0824034,-0.917256,0.0460446,0.0155295,2.22021,5,0.1,6,4.1,0.296649,0.988347,0.693602,0.0175168,-0.0438876,0.0899329,-0.0521373,1.00017,0.165533,0.00670691,0.44602,5,0.1,7,4.1,-0.248381,3.7878,0.59731,0.122366,-0.18787,0.002544,-0.0245795,-1.48016,-9.68575e-05,0.0229304,3.18946,5,0.1,8,4.1,1.49988,3.6655,1.34858,-6.61239e-05,0.578238,-0.000723824,-0.00026077,-0.162467,-0.00372529,0.0102515,0.217592,5,0.1,9,4.1,0.101555,0.91845,0.587398,-0.06013,0.395376,-0.0194367,0.0399179,-0.185363,0.0157207,0.00942847,0.229535,5,0.1
0,4.2,-0.329724,1.35917,0.600739,0.00384226,-0.66807,-0.00267774,-0.239372,-1.35362,-0.00712276,0.0130384,2.40067,5,0.1,1,4.2,3.16105,-2.15923,0.599814,-0.80803,-0.183558,0.000159442,-0.382185,0.0398159,-0.000178814,0.0386278,1.16065,5,0.1,2,4.2,-3.58814,-3.18904,0.569333,-0.00479817,0.000476837,0.000618398,0.0128746,-0.0013113,-0.00163913,0.0104506,8.27984e-06,5,0.1,3,4.2,-0.210065,2.6,0.601447,-0.0821535,0.452191,-0.00131577,0.062041,-0.303268,0.00101328,0.00875296,1.07553,5,0.1,4,4.2,-1.99829,-2.50771,0.599795,0.00401139,-0.103951,0.000457466,-0.0360012,0.195384,-0.000834465,0.0100936,1.20417,5,0.1,5,4.2,-5.24459,-0.724982,0.511321,0.0101328,0.485295,-0.0395775,0.108719,-1.00684,0.0668466,0.0138931,2.11584,5,0.1,6,4.2,0.298137,0.988639,0.703424,0.0122562,0.0462025,0.106223,-0.0514984,0.788689,0.148922,0.00945819,0.451728,5,0.1,7,4.2,-0.23634,3.76131,0.597566,0.117708,-0.342721,0.00260919,-0.0692382,-1.52957,0.00110269,0.0099979,2.70563,5,0.1,8,4.2,1.49987,3.72233,1.3485,-8.04663e-05,0.556296,-0.000944734,-5.96046e-05,-0.289202,-0.000834465,0.0105164,0.143747,5,0.1,9,4.2,0.0959786,0.957095,0.585562,-0.0494227,0.377427,-0.0170276,0.159342,-0.190675,0.0308454,0.0108424,0.248257,5,0.1
0,4.3,-0.330535,1.28627,0.600427,-0.0198714,-0.782362,-0.00360468,-0.227846,-0.907287,-0.0105985,0.0130384,2.40067,5,0.1,1,4.3,3.07834,-2.17739,0.599829,-0.845071,-0.179708,0.000144076,-0.315577,0.0439435,-0.000130385,0.0386278,1.16065,5,0.1,2,4.3,-3.58855,-3.189,0.569387,-0.00350252,0.000346452,0.000453554,0.0127852,-0.0012815,-0.00162423,0.0104506,8.27984e-06,5,0.1,3,4.3,-0.217988,2.64462,0.60132,-0.0764289,0.447538,-0.00122264,0.0549844,0.143841,0.00089407,0.00875296,1.07553,5,0.1,4,4.3,-1.99812,-2.51716,0.599837,-0.00328589,-0.085409,0.000378396,-0.188775,0.175744,-0.000748783,0.0100936,1.20417,5,0.1,5,4.3,-5.24297,-0.681684,0.507719,0.0225216,0.380464,-0.0323031,0.131786,-1.02236,0.0767931,0.0138931,2.11584,5,0.1,6,4.3,0.299117,0.996614,0.714937,0.00748537,0.107687,0.125035,-0.0430141,0.452287,0.209164,0.00945819,0.451728,5,0.1,7,4.3,-0.224912,3.71893,0.597836,0.110819,-0.507324,0.00281669,-0.0713523,-1.67283,0.00268221,0.0099979,2.70563,5,0.1,8,4.3,1.49986,3.77656,1.3484,-7.78586e-05,0.528367,-0.000925362,0.000104308,-0.28576,0.00105798,0.0105164,0.143747,5,0.1,9,4.3,0.0921339,0.994041,0.584026,-0.025022,0.362558,-0.0136081,0.30681,-0.125837,0.0365227,0.0108424,0.248257,5,0.1
0,4.4,-0.333595,1.20437,0.600014,-0.0405245,-0.846905,-0.00465363,-0.180244,-0.382423,-0.00980496,0.00830831,2.28509,5,0.1,1,4.4,2.99265,-2.19509,0.599842,-0.864118,-0.17364,0.00013113,-0.038147,0.0821352,-0.000119209,0.0339118,0.833445,5,0.1,2,4.4,-3.58884,-3.18897,0.569424,-0.00228882,0.000220537,0.000298023,0.0115633,-0.000953674,-0.00143051,0.0102376,6.60585e-06,5,0.1,3,4.4,-0.225351,2.69038,0.601203,-0.0707284,0.469291,-0.001131,0.0607669,0.240922,0.000953674,0.0102803,0.870807,5,0.1,4,4.4,-2,-2.52485,0.599871,-0.0402153,-0.068748,0.000306964,-0.535846,0.157714,-0.000655651,0.00962645,2.9719,5,0.1,5,4.4,-5.24007,-0.648359,0.504876,0.0352144,0.290839,-0.0245467,0.116587,-0.737369,0.0768602,0.0117868,1.95575,5,0.1,6,4.4,0.29967,1.00917,0.728463,0.00378415,0.138861,0.144912,-0.0306219,0.181973,0.175178,0.00917706,0.433982,5,0.1,7,4.4,-0.214209,3.6602,0.598132,0.102973,-0.66185,0.00308305,-0.0873804,-1.35279,0.00235438,0.010129,2.54949,5,0.1,8,4.4,1.49985,3.82787,1.34832,-6.25849e-05,0.496417,-0.000762939,0.000119209,-0.364184,0.00214577,0.0116499,0.0944762,5,0.1,9,4.4,0.0912605,1.02965,0.58285,0.00806618,0.348985,-0.00990629,0.338081,-0.159204,0.0367761,0.0102534,0.191736,5,0.1
0,4.5,-0.338532,1.11851,0.599496,-0.0579,-0.864831,-0.00571962,-0.161193,-0.0478029,-0.0108108,0.00830831,2.28509,5,0.1,1,4.5,2.90613,-2.21206,0.599855,-0.865274,-0.165827,0.000120793,0.0205338,0.0796914,-9.31323e-05,0.0339118,0.833445,5,0.1,2,4.5,-3.58901,-3.18896,0.569447,-0.00119992,0.000127777,0.000162516,0.0100881,-0.000879169,-0.00125542,0.0102376,6.60585e-06,5,0.1,3,4.5,-0.232251,2.73844,0.601094,-0.0683523,0.490692,-0.00103265,-0.00399537,0.165492,0.00102073,0.0102803,0.870807,5,0.1,4,4.5,-2.00823,-2.53098,0.599899,-0.136879,-0.0541639,0.000246242,-1.28274,0.134423,-0.000558794,0.00962645,2.9719,5,0.1,5,4.5,-5.23596,-0.622507,0.502796,0.0470132,0.232877,-0.0171741,0.113845,-0.346631,0.0695065,0.0117868,1.95575,5,0.1,6,4.5,0.299918,1.02348,0.74395,0.00140807,0.143179,0.165531,-0.0173151,-0.0763908,0.21838,0.00917706,0.433982,5,0.1,7,4.5,-0.204004,3.58841,0.598453,0.103974,-0.762612,0.00333842,0.0842307,-0.667632,0.0025034,0.010129,2.54949,5,0.1,8,4.5,1.49985,3.87577,1.34825,-4.63799e-05,0.462035,-0.000511855,0.000201166,-0.337198,0.00275671,0.0116499,0.0944762,5,0.1,9,4.5,0.0938738,1.06384,0.582049,0.0449015,0.335479,-0.00608573,0.380663,-0.125892,0.0385456,0.0102534,0.191736,5,0.1
0,4.6,-0.345056,1.03193,0.598873,-0.0717402,-0.866024,-0.00669509,-0.111476,-2.98023e-05,-0.00819564,0.008688,2.26744,5,0.1,1,4.6,2.81993,-2.22822,0.599867,-0.855899,-0.156772,0.000111759,0.202298,0.105381,-8.9407e-05,0.0327782,0.584953,5,0.1,2,4.6,-3.58909,-3.18895,0.569458,-0.000298023,4.76837e-05,4.91738e-05,0.00786781,-0.000715256,-0.00101328,0.0098697,3.86978e-06,5,0.1,3,4.6,-0.239151,2.78807,0.600996,-0.0699006,0.498813,-0.000925362,-0.0199452,-0.0172853,0.00113249,0.010774,0.762425,5,0.1,4,4.6,-2.02879,-2.53576,0.599921,-0.276506,-0.0417769,0.000193715,-1.42205,0.113726,-0.000476837,0.00882997,2.82043,5,0.1,5,4.6,-5.23073,-0.6,0.501407,0.0570416,0.226386,-0.0108197,0.0824928,0.190258,0.0568628,0.0122519,1.67485,5,0.1,6,4.6,0.299991,1.03712,0.761539,0.000220537,0.127098,0.185351,-0.00704825,-0.229239,0.16439,0.00809639,0.386886,5,0.1,7,4.6,-0.19306,3.5099,0.598798,0.115726,-0.796884,0.00354201,0.133023,-0.0280142,0.0013411,0.0102599,2.58523,5,0.1,8,4.6,1.49985,3.92024,1.34821,-2.68221e-05,0.426668,-0.000232458,0.000238419,-0.379205,0.00274181,0.011839,0.106549,5,0.1,9,4.6,0.100216,1.09672,0.581629,0.0810843,0.321266,-0.00238568,0.329811,-0.16886,0.0346601,0.00875353,0.143223,5,0.1
0,4.7,-0.352731,0.945324,0.598161,-0.0811386,-0.866026,-0.00755498,-0.0737589,0,-0.00836328,0.008688,2.26744,5,0.1,1,4.7,2.73524,-2.24339,0.599877,-0.838035,-0.146874,0.000103936,0.189871,0.0972301,-7.45058e-05,0.0327782,0.584953,5,0.1,2,4.7,-3.58908,-3.18895,0.569458,0.000402704,-1.71363e-05,-4.14439e-05,0.00609457,-0.000596046,-0.000786036,0.0098697,3.86978e-06,5,0.1,3,4.7,-0.246369,2.83749,0.600909,-0.0754484,0.486093,-0.000820216,-0.0795219,-0.233188,0.000994653,0.010774,0.762425,5,0.1,4,4.7,-2.06414,-2.53986,0.599877,-0.434055,-0.0444293,-0.00158725,-1.63734,-0.137508,-0.0312813,0.00882997,2.82043,5,0.1,5,4.7,-5.22462,-0.575316,0.500584,0.0649504,0.276085,-0.00590691,0.0713766,0.719871,0.0412725,0.0122519,1.67485,5,0.1,6,4.7,0.299988,1.04843,0.781025,-0.000200048,0.0969408,0.205125,-0.00182539,-0.355683,0.210363,0.00809639,0.386886,5,0.1,7,4.7,-0.179954,3.43033,0.59916,0.15344,-0.791416,0.00371793,0.55784,0.153556,0.00189617,0.0102599,2.58523,5,0.1,8,4.7,1.49984,3.96131,1.34821,9.31323e-07,0.397128,8.47504e-05,0.000305474,-0.236228,0.00341982,0.011839,0.106549,5,0.1,9,4.7,0.109979,1.12807,0.581561,0.113878,0.306201,0.000982918,0.312434,-0.144623,0.0319108,0.00875353,0.143223,5,0.1
0,4.8,-0.361134,0.858722,0.597367,-0.0860624,-0.866026,-0.00825971,-0.0231564,0,-0.00530481,0.0074405,0.26022,5,0.1,1,4.8,2.6526,-2.25758,0.599887,-0.81206,-0.136554,9.68575e-05,0.353217,0.112653,-8.9407e-05,0.0439026,0.400818,5,0.1,2,4.8,-3.58901,-3.18895,0.56945,0.000911951,-6.55651e-05,-0.000107288,0.00393391,-0.000476837,-0.000536442,0.00741077,1.64937e-06,5,0.1,3,4.8,-0.254332,2.88461,0.600832,-0.0837982,0.453091,-0.000722706,-0.0788718,-0.421762,0.000923872,0.0141264,0.627674,5,0.1,4,4.8,-2.11547,-2.54521,0.599537,-0.588125,-0.064069,-0.00537634,-1.37734,-0.232458,-0.0415444,0.0118832,2.45193,5,0.1,5,4.8,-5.21782,-0.543803,0.500173,0.0706077,0.355597,-0.00255704,0.0383854,0.80654,0.0258982,0.0127638,1.34649,5,0.1,6,4.8,0.299964,1.05626,0.802526,-0.000227243,0.0592023,0.223865,0.000923872,-0.384867,0.149518,0.00856118,0.326099,5,0.1,7,4.8,-0.16155,3.35236,0.59954,0.2161,-0.763661,0.00386983,0.646845,0.410676,0.00101328,0.0109027,2.48725,5,0.1,8,4.8,1.49985,3.99991,1.34823,3.27826e-05,0.375158,0.000420213,0.000238419,-0.221372,0.00321865,0.0101948,0.0964531,5,0.1,9,4.8,0.122808,1.15793,0.581809,0.141256,0.290284,0.0038594,0.225607,-0.182092,0.0251234,0.00840228,0.185091,5,0.1
0,4.9,-0.369648,0.772497,0.596533,-0.0823842,-0.854393,-0.00824463,0.087779,0.243373,0.00491738,0.0074405,0.26022,5,0.1,1,4.9,2.57305,-2.2707,0.599897,-0.779262,-0.126081,8.90344e-05,0.331253,0.100717,-7.45058e-05,0.0439026,0.400818,5,0.1,2,4.9,-3.5889,-3.18896,0.569437,0.00123158,-0.000105798,-0.000151061,0.00244379,-0.000327826,-0.000335276,0.00741077,1.64937e-06,5,0.1,3,4.9,-0.262874,2.92849,0.600764,-0.0849253,0.43005,-0.000644289,0.0477955,-0.0869632,0.000678003,0.0141264,0.627674,5,0.1,4,4.9,-2.18097,-2.55299,0.598767,-0.718575,-0.0931323,-0.0101822,-1.17682,-0.32568,-0.0515617,0.0118832,2.45193,5,0.1,5,4.9,-5.21057,-0.503814,0.500024,0.0740901,0.446495,-0.000643544,0.0278354,0.947654,0.0131503,0.0127638,1.34649,5,0.1,6,4.9,0.299947,1.06014,0.825803,-0.000114087,0.017586,0.242535,0.0012517,-0.430465,0.201162,0.00856118,0.326099,5,0.1,7,4.9,-0.136915,3.27699,0.599934,0.27396,-0.752204,0.00401763,0.489506,-0.0996739,0.00164285,0.0109027,2.48725,5,0.1,8,4.9,1.49985,4.03645,1.34801,5.73695e-05,0.356312,-0.00716336,0.00025332,-0.171736,-0.137329,0.0101948,0.0964531,5,0.1,9,4.9,0.138188,1.18611,0.582315,0.167067,0.273692,0.00620605,0.270139,-0.159718,0.0212081,0.00840228,0.185091,5,0.1
0,5,-0.377326,0.688745,0.595746,-0.0701398,-0.81583,-0.00740588,0.149742,0.532329,0.0113249,0.0081226,0.14098,5,0.1,1,5,2.49693,-2.2828,0.599905,-0.741029,-0.115758,8.19564e-05,0.452995,0.10848,-5.96046e-05,0.0332307,0.270625,5,0.1,2,5,-3.58877,-3.18897,0.569421,0.00140667,-0.00013113,-0.000174344,0.000834465,-0.000119209,-0.000149012,0.0104797,4.97294e-07,5,0.1,3,5,-0.270977,2.97129,0.600703,-0.0758238,0.427282,-0.000582635,0.126928,-0.00452995,0.000596046,0.00791844,0.490615,5,0.1,4,5,-2.25803,-2.56393,0.597495,-0.814825,-0.125182,-0.0151634,-0.716209,-0.297785,-0.0458658,0.0093332,2.29371,5,0.1,5,5,-5.20306,-0.454624,0.50001,0.0756025,0.534129,0.000216067,0.000238419,0.758797,0.00464916,0.0110158,1.10498,5,0.1,6,5,0.299942,1.05979,0.850995,8.9407e-06,-0.0239313,0.260192,0.00114739,-0.387311,0.13563,0.00801956,0.262984,5,0.1,7,5,-0.107466,3.20099,0.600343,0.310766,-0.769168,0.00414699,0.235111,-0.177503,0.000715256,0.00687285,1.15632,5,0.1,8,5,1.49986,4.07119,1.3465,7.7486e-05,0.338054,-0.0239223,0.000238419,-0.204802,-0.184238,0.0103079,0.154353,5,0.1,9,5,0.156181,1.21265,0.583032,0.191761,0.256652,0.00800192,0.208966,-0.187933,0.0142455,0.00829836,0.138152,5,0.1
0,5.1,-0.383516,0.609918,0.595069,-0.0530858,-0.759504,-0.00607334,0.184853,0.604596,0.0148267,0.0081226,0.14098,5,0.1,1,5.1,2.42497,-2.29386,0.599913,-0.698824,-0.105755,7.64616e-05,0.41467,0.0948459,-4.84288e-05,0.0332307,0.270625,5,0.1,2,5.1,-3.58863,-3.18898,0.569403,0.00144094,-0.000138208,-0.000182167,-0.000119209,-4.47035e-05,-7.45058e-06,0.0104797,4.97294e-07,5,0.1,3,5.1,-0.277779,3.01434,0.600647,-0.0590245,0.436153,-0.000531599,0.199044,0.143334,0.000447035,0.00791844,0.490615,5,0.1,4,5.1,-2.34214,-2.57802,0.595741,-0.8589,-0.157019,-0.0199313,-0.204951,-0.319526,-0.0469722,0.0093332,2.29371,5,0.1,5,5.1,-5.19551,-0.398164,0.500047,0.0754379,0.587696,0.000463799,-0.00628829,0.315966,0.000625849,0.0110158,1.10498,5,0.1,6,5.1,0.299947,1.05539,0.877828,9.30391e-05,-0.0641586,0.277237,0.000562519,-0.400268,0.181954,0.00801956,0.262984,5,0.1,7,5.1,-0.075444,3.12552,0.600752,0.327237,-0.719673,0.00394369,0.0891603,1.05551,-0.00436977,0.00687285,1.15632,5,0.1,8,5.1,1.49987,4.1043,1.34316,9.90927e-05,0.326633,-0.0429329,0.000178814,-0.0516772,-0.187606,0.0103079,0.154353,5,0.1,9,5.1,0.176346,1.23743,0.583898,0.210735,0.23942,0.00928091,0.159966,-0.164956,0.0108592,0.00829836,0.138152,5,0.1
0,5.2,-0.387887,0.537176,0.594538,-0.0343204,-0.693302,-0.00452846,0.185445,0.725091,0.0156462,0.00952599,0.457639,5,0.1,1,5.2,2.35725,-2.30396,0.599921,-0.654131,-0.0962377,7.15256e-05,0.495076,0.0978708,-5.96046e-05,0.031067,0.18137,5,0.1,2,5.2,-3.58849,-3.189,0.569385,0.00138879,-0.00013113,-0.000177324,-0.000953674,-0.000119209,0.000119209,0.00995988,1.44296e-07,5,0.1,3,5.2,-0.282636,3.05865,0.600596,-0.0378005,0.449276,-0.000488758,0.217587,0.0908375,0.000447035,0.00699275,0.371955,5,0.1,4,5.2,-2.42856,-2.59523,0.593529,-0.866026,-0.185746,-0.0241265,0,-0.24116,-0.0351369,0.00793119,2.23948,5,0.1,5,5.2,-5.18802,-0.338519,0.500092,0.0738859,0.598317,0.000400841,-0.0267029,-0.0970221,-0.00160933,0.00990763,1.00191,5,0.1,6,5.2,0.299959,1.04707,0.906381,0.00012666,-0.101069,0.29259,0.000149012,-0.325799,0.10851,0.0127416,0.303568,5,0.1,7,5.2,-0.0425485,3.0601,0.601119,0.327875,-0.578326,0.00334978,-0.0784814,1.68073,-0.00718236,0.00965727,0.270315,5,0.1,8,5.2,1.49988,4.13677,1.33797,0.000116229,0.322855,-0.0600129,5.96046e-05,-0.0450611,-0.147998,0.0144772,0.206271,5,0.1,9,5.2,0.198068,1.26053,0.584872,0.222009,0.222266,0.010097,0.0585988,-0.183821,0.005126,0.00740032,0.225042,5,0.1
0,5.3,-0.390385,0.470933,0.594164,-0.0156833,-0.635929,-0.0029441,0.182562,0.461912,0.0156835,0.00952599,0.457639,5,0.1,1,5.3,2.29418,-2.31313,0.599927,-0.608204,-0.0872768,6.60308e-05,0.443086,0.0840724,-4.84288e-05,0.031067,0.18137,5,0.1,2,5.3,-3.58835,-3.18901,0.569368,0.00126734,-0.000135973,-0.000161957,-0.00146031,1.49012e-05,0.000182539,0.00995988,1.44296e-07,5,0.1,3,5.3,-0.285292,3.10418,0.600549,-0.0151642,0.462106,-0.000450388,0.227774,0.135526,0.000342727,0.00699275,0.371955,5,0.1,4,5.3,-2.51516,-2.61505,0.590936,-0.866026,-0.210722,-0.0276944,0,-0.240833,-0.0339448,0.00793119,2.23948,5,0.1,5,5.3,-5.18077,-0.280139,0.500123,0.0712343,0.560874,0.00022091,-0.02864,-0.601964,-0.0019148,0.00990763,1.00191,5,0.1,6,5.3,0.299815,1.0351,0.935667,-0.00431095,-0.14002,0.288395,-0.0790153,-0.424303,-0.174835,0.0127416,0.303568,5,0.1,7,5.3,-0.00977663,3.01042,0.601419,0.330439,-0.417989,0.00267504,0.095027,1.5133,-0.00632182,0.00965727,0.270315,5,0.1,8,5.3,1.49989,4.16893,1.33141,0.000121072,0.32105,-0.0694955,2.98023e-05,-0.00935793,-0.045903,0.0144772,0.206271,5,0.1,9,5.3,0.220205,1.28201,0.585913,0.217431,0.20875,0.0107402,-0.138541,-0.100888,0.00684708,0.00740032,0.225042,5,0.1
0,5.4,-0.391077,0.409481,0.593946,0.00137761,-0.594037,-0.00145286,0.15521,0.405238,0.0138581,0.00926597,1.75718,5,0.1,1,5.4,2.23562,-2.32144,0.599934,-0.562203,-0.0789523,6.10948e-05,0.490308,0.084281,-5.96046e-05,0.0295827,0.121306,5,0.1,2,5.4,-3.58823,-3.18903,0.569352,0.00110269,-0.00013113,-0.000141561,-0.00178814,0.000119209,0.000238419,0.00809318,9.2435e-08,5,0.1,3,5.4,-0.285703,3.15094,0.600506,0.00647604,0.471228,-0.000417233,0.199631,0.0257492,0.000327826,0.00980298,0.271207,5,0.1,4,5.4,-2.60177,-2.63721,0.588014,-0.866026,-0.230932,-0.0305325,0,-0.151157,-0.0211596,0.00755065,2.22964,5,0.1,5,5.4,-5.1738,-0.22756,0.500136,0.0677824,0.486716,3.12924e-05,-0.0422001,-0.843145,-0.00178814,0.00905635,0.921841,5,0.1,6,5.4,0.298926,1.019,0.963285,-0.0139192,-0.180903,0.260903,-0.10547,-0.372112,-0.359744,0.0160945,0.235259,5,0.1,7,5.4,0.0237945,2.97583,0.601657,0.340839,-0.277799,0.00208467,0.0873071,1.28198,-0.00548363,0.0105403,3.45597,5,0.1,8,5.4,1.4999,4.20093,1.32437,0.00012219,0.317848,-0.0700146,-5.96046e-05,-0.0674725,0.0315309,0.00881357,0.364636,5,0.1,9,5.4,0.24101,1.30242,0.587018,0.196486,0.199589,0.0113145,-0.270121,-0.092864,0.00399351,0.0109579,0.204121,5,0.1
0,5.5,-0.390433,0.35095,0.593847,0.00910591,-0.58597,-0.000732485,0.0116155,-0.159744,0.00164285,0.00926597,1.75718,5,0.1,1,5.5,2.18171,-2.32894,0.59994,-0.516981,-0.0712816,5.56e-05,0.430539,0.0714213,-4.84288e-05,0.0295827,0.121306,5,0.1,2,5.5,-3.58813,-3.18904,0.56934,0.000916049,-0.000115857,-0.000116695,-0.00192225,0.000193715,0.000249594,0.00809318,9.2435e-08,5,0.1,3,5.5,-0.284071,3.19827,0.600465,0.0258972,0.475271,-0.000388641,0.183294,0.0311285,0.000264496,0.00980298,0.271207,5,0.1,4,5.5,-2.68837,-2.6611,0.584851,-0.866026,-0.246909,-0.0327292,0,-0.151843,-0.0206195,0.00755065,2.22964,5,0.1,5,5.5,-5.16723,-0.183448,0.500131,0.0637531,0.393671,-0.000130758,-0.0402927,-0.957426,-0.00140816,0.00905635,0.921841,5,0.1,6,5.5,0.296948,0.998997,0.987389,-0.0260191,-0.219242,0.219606,-0.129089,-0.372522,-0.453796,0.0160945,0.235259,5,0.1,7,5.5,0.0578244,2.95185,0.601847,0.335226,-0.22446,0.00179056,-0.184894,-0.0784248,-0.000871718,0.0105403,3.45597,5,0.1,8,5.5,1.49991,4.23239,1.31766,0.000125729,0.311216,-0.0631569,9.68575e-05,-0.0768006,0.0988171,0.00881357,0.364636,5,0.1,9,5.5,0.259144,1.32199,0.588169,0.16484,0.192069,0.0116918,-0.351907,-0.0669956,0.00299513,0.0109579,0.204121,5,0.1
0,5.6,-0.389618,0.291191,0.593769,0.00591502,-0.611199,-0.000928342,-0.0655651,-0.281155,-0.00464916,0.00716448,1.37937,5,0.1,1,5.6,2.13218,-2.33572,0.599945,-0.47332,-0.0642717,5.21541e-05,0.453949,0.0704527,-8.9407e-05,0.0322457,0.146948,5,0.1,2,5.6,-3.58805,-3.18905,0.569329,0.000727177,-9.53674e-05,-9.23872e-05,-0.00190735,0.000238419,0.000268221,0.00905679,9.94435e-08,5,0.1,3,5.6,-0.280629,3.2458,0.600428,0.0422038,0.473404,-0.000362098,0.139028,-0.0849962,0.000268221,0.00945829,0.184712,5,0.1,4,5.6,-2.77497,-2.68644,0.58149,-0.866026,-0.258493,-0.0342935,0,-0.0684261,-0.00914931,0.00934863,2.22461,5,0.1,5,5.6,-5.16107,-0.148677,0.500111,0.059402,0.304528,-0.000244379,-0.0481606,-0.792779,-0.000834465,0.0100793,0.850078,5,0.1,6,5.6,0.293712,0.975359,1.00701,-0.038445,-0.251636,0.172383,-0.113934,-0.259757,-0.480592,0.0138427,0.437346,5,0.1,7,5.6,0.0900749,2.92769,0.602026,0.306639,-0.269008,0.0018239,-0.373728,-0.704527,0.0012219,0.0088386,2.922,5,0.1,8,5.6,1.49993,4.26303,1.3119,0.000140071,0.300562,-0.0514716,0.000119209,-0.144482,0.129521,0.00868301,0.383842,5,0.1,9,5.6,0.273808,1.34084,0.589348,0.128063,0.184581,0.0118181,-0.374928,-0.089407,-0.000834465,0.00784567,0.193814,5,0.1
0,5.7,-0.389419,0.228161,0.593643,-0.0024416,-0.652795,-0.00167862,-0.0960808,-0.485929,-0.00952929,0.00716448,1.37937,5,0.1,1,5.7,2.08698,-2.34185,0.59995,-0.43164,-0.0587754,4.53554e-05,0.393569,0.0433922,-4.84288e-05,0.0322457,0.146948,5,0.1,2,5.7,-3.58799,-3.18906,0.569321,0.000541285,-7.15256e-05,-6.66827e-05,-0.00177324,0.000238419,0.000238419,0.00905679,9.94435e-08,5,0.1,3,5.7,-0.275897,3.29276,0.600393,0.0507406,0.465846,-0.000338256,0.0373702,-0.0855029,0.000223517,0.00945829,0.184712,5,0.1,4,5.7,-2.86157,-2.71269,0.578008,-0.866026,-0.266642,-0.0353653,0,-0.0785142,-0.0101924,0.00934863,2.22461,5,0.1,5,5.7,-5.15535,-0.121858,0.500084,0.0548869,0.236743,-0.000296626,-0.0438094,-0.506232,-0.000212342,0.0100793,0.850078,5,0.1,6,5.7,0.289288,0.948595,1.02199,-0.0500051,-0.285719,0.128534,-0.1116,-0.384897,-0.397518,0.0138427,0.437346,5,0.1,7,5.7,0.11875,2.89609,0.602219,0.265837,-0.372061,0.00206623,-0.435596,-1.25004,0.003241,0.0088386,2.922,5,0.1,8,5.7,1.49994,4.29244,1.30748,0.000151433,0.287814,-0.0365948,9.68575e-05,-0.122279,0.156887,0.00868301,0.383842,5,0.1,9,5.7,0.284761,1.35887,0.590523,0.0913668,0.176114,0.0116752,-0.352437,-0.0859499,-0.00236556,0.00784567,0.193814,5,0.1
0,5.8,-0.390157,0.160551,0.593425,-0.0123262,-0.697196,-0.00268966,-0.0973493,-0.35501,-0.0100732,0.00905243,1.0474,5,0.1,1,5.8,2.04577,-2.34752,0.599954,-0.392264,-0.0549138,4.17233e-05,0.403762,0.0368357,-5.96046e-05,0.0305721,0.134867,5,0.1,2,5.8,-3.58794,-3.18906,0.569316,0.000369549,-5.36442e-05,-4.47035e-05,-0.00143051,0.000357628,0.000208616,0.0114156,7.971e-08,5,0.1,3,5.8,-0.270765,3.33879,0.60036,0.0507347,0.453055,-0.000315905,-0.0326037,-0.183344,0.000268221,0.00943585,0.126064,5,0.1,4,5.8,-2.94818,-2.73966,0.574433,-0.866026,-0.271475,-0.0359774,0,-0.00715256,-0.000596046,0.01157,2.24236,5,0.1,5,5.8,-5.15009,-0.1,0.500054,0.0503778,0.207358,-0.000286102,-0.0476837,-0.097394,0.000357628,0.0118598,0.725288,5,0.1,6,5.8,0.283771,0.918142,1.03298,-0.0598006,-0.322206,0.0926435,-0.0803173,-0.317693,-0.321448,0.016052,0.202707,5,0.1,7,5.8,0.143101,2.85246,0.602442,0.220767,-0.500357,0.00240654,-0.460058,-1.23572,0.00321865,0.0118736,2.54802,5,0.1,8,5.8,1.49996,4.32056,1.30457,0.000154972,0.274098,-0.0219166,0,-0.15974,0.12958,0.00712025,0.356575,5,0.1,9,5.8,0.292216,1.37602,0.591674,0.0586659,0.166383,0.0112891,-0.297233,-0.112712,-0.00560284,0.00854349,0.278564,5,0.1
0,5.9,-0.391811,0.0888679,0.593102,-0.0201942,-0.737037,-0.00378024,-0.0637043,-0.391299,-0.0111163,0.00905243,1.0474,5,0.1,1,5.9,2.00881,-2.35286,0.599958,-0.344751,-0.0518806,3.7346e-05,0.534445,0.0264347,-3.35276e-05,0.0305721,0.134867,5,0.1,2,5.9,-3.58791,-3.18907,0.569312,0.000233948,-2.27243e-05,-2.56114e-05,-0.0012815,0.000283122,0.000175089,0.0114156,7.971e-08,5,0.1,3,5.9,-0.265936,3.38323,0.60033,0.0451357,0.435889,-0.000292156,-0.0752714,-0.175789,0.000219792,0.00943585,0.126064,5,0.1,4,5.9,-3.03478,-2.76654,0.57082,-0.865894,-0.26353,-0.0363573,0.00527501,0.158519,-0.0047572,0.01157,2.24236,5,0.1,5,5.9,-5.14528,-0.0790448,0.500028,0.0459604,0.217595,-0.000225287,-0.0420511,0.254622,0.000815839,0.0118598,0.725288,5,0.1,6,5.9,0.277396,0.884393,1.04076,-0.0675116,-0.351677,0.0639375,-0.0695009,-0.252992,-0.253871,0.016052,0.202707,5,0.1,7,5.9,0.162934,2.79579,0.602701,0.176506,-0.635229,0.00278,-0.423545,-1.37565,0.00393391,0.0118736,2.54802,5,0.1,8,5.9,1.49998,4.34723,1.30302,0.000269897,0.25958,-0.00965446,0.0018701,-0.140309,0.0986606,0.00712025,0.356575,5,0.1,9,5.9,0.296682,1.39214,0.592776,0.0316532,0.156309,0.0107536,-0.237476,-0.0951663,-0.00547618,0.00854349,0.278564,5,0.1
0,6,-0.394115,0.013487,0.592671,-0.0256144,-0.766863,-0.00480562,-0.0465065,-0.169799,-0.00891089,0.00697684,0.761863,5,0.1,1,6,1.97714,-2.35791,0.599962,-0.287607,-0.0491798,3.57628e-05,0.598192,0.0293255,-5.96046e-05,0.0292602,0.194853,5,0.1,2,6,-3.58789,-3.18907,0.56931,0.00012517,0,-1.04308e-05,-0.00119209,0.000119209,0.000119209,0.00818551,5.90115e-08,5,0.1,3,6,-0.261841,3.42585,0.600302,0.0364251,0.415248,-0.000269711,-0.095576,-0.247836,0.000238419,0.00740834,0.146426,5,0.1,4,6,-3.1213,-2.79188,0.567168,-0.863916,-0.241238,-0.0365451,0.0422001,0.280142,0.0026226,0.00933303,2.25286,5,0.1,5,6,-5.14089,-0.0557555,0.50001,0.0417471,0.249801,-0.00013262,-0.0436306,0.352187,0.000983477,0.00920107,0.602328,5,0.1,6,6,0.270345,0.848193,1.04598,-0.0729635,-0.369687,0.0416279,-0.0365525,-0.0948012,-0.193596,0.0163908,0.598085,5,0.1,7,6,0.178539,2.72574,0.602998,0.136344,-0.760686,0.00313818,-0.378489,-1.07145,0.00295043,0.0102651,2.34939,5,0.1,8,6,1.50001,4.37246,1.3024,0.000455976,0.244415,-0.00454187,0.00160933,-0.169992,-0.00286102,0.00636232,0.322566,5,0.1,9,6,0.298794,1.40728,0.593822,0.0119768,0.146276,0.0101313,-0.153527,-0.109911,-0.00718236,0.00771581,0.386351,5,0.1
0,6.1,-0.396868,-0.0641152,0.592146,-0.02928,-0.784819,-0.00569206,-0.0358634,-0.149298,-0.0083372,0.00697684,0.761863,5,0.1,1,6.1,1.95141,-2.36271,0.599965,-0.22695,-0.0468876,3.18512e-05,0.606224,0.0192076,-2.23517e-05,0.0292602,0.194853,5,0.1,2,6.1,-3.58789,-3.18907,0.56931,2.01166e-05,1.00583e-05,1.86265e-07,-0.000923872,7.45058e-05,9.68575e-05,0.00818551,5.90115e-08,5,0.1,3,6.1,-0.258739,3.46643,0.600276,0.0251151,0.398736,-0.000252761,-0.125147,-0.110582,0.000119209,0.00740834,0.146426,5,0.1,4,6.1,-3.20766,-2.81461,0.563513,-0.864457,-0.213141,-0.0366445,-0.0263751,0.282794,-0.00235066,0.00933303,2.25286,5,0.1,5,6.1,-5.13692,-0.0292581,0.500001,0.0377439,0.278827,-4.20026e-05,-0.0375807,0.268176,0.000748783,0.00920107,0.602328,5,0.1,6,6.1,0.262874,0.810321,1.04926,-0.0762763,-0.390884,0.0247614,-0.0262037,-0.28443,-0.144787,0.0163908,0.598085,5,0.1,7,6.1,0.190394,2.64527,0.603327,0.101871,-0.839102,0.00345856,-0.312036,-0.501767,0.00317395,0.0102651,2.34939,5,0.1,8,6.1,1.50008,4.3961,1.3018,0.000995025,0.228825,-0.00935514,0.00703335,-0.149786,-0.11725,0.00636232,0.322566,5,0.1,9,6.1,0.299219,1.42134,0.594798,-0.00281064,0.134812,0.00935756,-0.115179,-0.120975,-0.008367,0.00771581,0.386351,5,0.1
0,6.2,-0.4,-0.143042,0.591539,-0.0336088,-0.789987,-0.0063926,-0.0498742,0.0732839,-0.00530481,0.00850608,0.534361,5,0.1,1,6.2,1.9317,-2.3673,0.599968,-0.167921,-0.0448823,2.98023e-05,0.567436,0.022769,0,0.0254088,0.325963,5,0.1,2,6.2,-3.58789,-3.18907,0.56931,-5.96046e-05,1.78814e-05,7.45058e-06,-0.000476837,0,5.96046e-05,0.00873649,2.12297e-08,5,0.1,3,6.2,-0.256865,3.50579,0.600251,0.0123627,0.388259,-0.000241399,-0.125691,-0.119448,8.9407e-05,0.00994194,0.140907,5,0.1,4,6.2,-3.29421,-2.8345,0.559844,-0.866026,-0.18456,-0.0366285,0,0.28944,0.00429153,0.00823477,2.25732,5,0.1,5,6.2,-5.13333,0,0.5,0.0340462,0.306596,0,-0.0376701,0.278977,0,0.00855878,0.487089,5,0.1,6,6.2,0.255156,0.769799,1.05109,-0.0776231,-0.418812,0.0124574,0.00157207,-0.24119,-0.102401,0.0125986,2.78554,5,0.1,7,6.2,0.199124,2.55971,0.603687,0.0737242,-0.864393,0.00372529,-0.251964,-0.0326633,0.00193715,0.0139338,2.27265,5,0.1,8,6.2,1.50021,4.41821,1.3,0.00151694,0.21311,-0.0293046,0.00220537,-0.169992,-0.270963,0.00714251,0.275787,5,0.1,9,6.2,0.298586,1.43419,0.595689,-0.00729933,0.121838,0.00844598,0.0359565,-0.139415,-0.00983477,0.0084612,0.337771,5,0.1
0,6.3,-0.40367,-0.221721,0.590874,-0.0402233,-0.783225,-0.0068943,-0.0757743,0.0942153,-0.00435486,0.00850608,0.534361,5,0.1,1,6.3,1.91764,-2.37167,0.599971,-0.114337,-0.0424288,2.98023e-05,0.497222,0.0270903,0,0.0254088,0.325963,5,0.1,2,6.3,-3.5879,-3.18906,0.569311,-9.87202e-05,1.78814e-05,1.23866e-05,-0.000312924,0,3.35276e-05,0.00873649,2.12297e-08,5,0.1,3,6.3,-0.256526,3.54412,0.600227,-0.00774646,0.37884,-0.0002346,-0.256047,-0.0872463,6.33299e-05,0.00994194,0.140907,5,0.1,4,6.3,-3.38081,-2.85191,0.556194,-0.866026,-0.167152,-0.0364024,0,0.0828058,0.00208616,0.00823477,2.25732,5,0.1,5,6.3,-5.1301,0.0323395,0.5,0.0306174,0.342048,0,-0.0318885,0.39133,0,0.00855878,0.487089,5,0.1,6,6.3,0.247434,0.725418,1.05188,-0.0764659,-0.479045,0.00385884,0.0225762,-0.857752,-0.0704452,0.0125986,2.78554,5,0.1,7,6.3,0.205345,2.47317,0.604071,0.051741,-0.865924,0.00394071,-0.189835,-0.00408292,0.00209734,0.0139338,2.27265,5,0.1,8,6.3,1.50038,4.43873,1.29538,0.0018483,0.197505,-0.0656279,-3.72529e-05,-0.148743,-0.425018,0.00714251,0.275787,5,0.1,9,6.3,0.298233,1.44568,0.596485,0.0031861,0.108018,0.00746185,0.20772,-0.137925,-0.00989065,0.0084612,0.337771,5,0.1
0,6.4,-0.408069,-0.299323,0.590167,-0.0476092,-0.765745,-0.00720024,-0.0670403,0.277102,-0.00151992,0.00734881,0.365083,5,0.1,1,6.4,1.90853,-2.37576,0.599974,-0.0695765,-0.039345,2.98023e-05,0.393927,0.0351667,-2.98023e-05,0.0294896,0.324347,5,0.1,2,6.4,-3.58791,-3.18906,0.569313,-0.00012517,1.78814e-05,1.63913e-05,-0.000119209,-0.000119209,-2.98023e-05,0.00629779,0.396115,5,0.1,3,6.4,-0.258657,3.5815,0.600204,-0.035239,0.367701,-0.000227988,-0.278175,-0.148296,8.9407e-05,0.00690509,0.095042,5,0.1,4,6.4,-3.46741,-2.86839,0.552573,-0.866026,-0.163734,-0.0358954,0,0.00429153,0.00935793,0.00917983,2.06694,5,0.1,5,6.4,-5.1272,0.0684251,0.5,0.0275016,0.378177,0,-0.0309944,0.303124,0,0.00812784,0.371855,5,0.1,6,6.4,0.239941,0.672923,1.05196,-0.0729632,-0.57181,-0.00180602,0.0479147,-0.917763,-0.0436306,0.0175898,2.50342,5,0.1,7,6.4,0.209658,2.38657,0.604474,0.0353545,-0.866026,0.0041008,-0.139788,0,0.00089407,0.0124065,2.27397,5,0.1,8,6.4,1.50054,4.45773,1.28665,0.00089407,0.182235,-0.108966,-0.0207424,-0.160694,-0.418723,0.00593954,0.222632,5,0.1,9,6.4,0.3,1.45579,0.597181,0.0359669,0.0941128,0.00646263,0.431135,-0.140786,-0.010103,0.00820889,0.272826,5,0.1
0,6.5,-0.413184,-0.374579,0.58944,-0.0547333,-0.739384,-0.00732923,-0.0703372,0.27653,-0.000763685,0.00734881,0.365083,5,0.1,1,6.5,1.90334,-2.37958,0.599977,-0.0362735,-0.0374317,2.72878e-05,0.273272,0.00727177,-1.86265e-05,0.0294896,0.324347,5,0.1,2,6.5,-3.58825,-3.18993,0.569359,-0.00937991,-0.024616,0.00129854,-0.164285,-0.437438,0.0227951,0.00629779,0.396115,5,0.1,3,6.5,-0.26337,3.61755,0.600182,-0.0570581,0.353196,-0.000219606,-0.160929,-0.153393,8.9407e-05,0.00690509,0.095042,5,0.1,4,6.5,-3.55402,-2.88496,0.549021,-0.866026,-0.169331,-0.0351793,0,-0.0960678,0.00666454,0.00917983,2.06694,5,0.1,5,6.5,-5.12459,0.107849,0.5,0.0246964,0.410432,0,-0.0258982,0.311925,0,0.00812784,0.371855,5,0.1,6,6.5,0.233107,0.610581,1.05159,-0.0618279,-0.678515,-0.00519436,0.162229,-1.12944,-0.0248328,0.0175898,2.50342,5,0.1,7,6.5,0.212517,2.29996,0.60489,0.0220689,-0.866026,0.00423668,-0.124453,0,0.00152364,0.0124065,2.27397,5,0.1,8,6.5,1.5005,4.47519,1.27356,-0.00205711,0.167511,-0.153086,-0.045076,-0.139266,-0.440583,0.00593954,0.222632,5,0.1,9,6.5,0.305848,1.46451,0.597778,0.0814144,0.080551,0.00548661,0.456844,-0.131033,-0.00944734,0.00820889,0.272826,5,0.1
0,6.6,-0.41898,-0.44696,0.588706,-0.0608049,-0.706025,-0.00730157,-0.0475049,0.408411,0.00146031,0.00973961,0.245473,5,0.1,1,6.6,1.90089,-2.3833,0.59998,-0.0145346,-0.0371695,2.5332e-05,0.164151,0.0013113,-2.98023e-05,0.0268386,0.316993,5,0.1,2,6.6,-3.59014,-3.19492,0.569621,-0.0293076,-0.0776827,0.00406504,-0.218153,-0.581264,0.030309,0.00750148,0.30593,5,0.1,3,6.6,-0.269706,3.65201,0.60016,-0.0679895,0.335097,-0.000208616,-0.0606328,-0.216246,0.000119209,0.00863453,0.204116,5,0.1,4,6.6,-3.64062,-2.9024,0.545544,-0.866026,-0.179434,-0.0342742,0,-0.0910759,0.0126362,0.00783307,1.61771,5,0.1,5,6.6,-5.12225,0.150264,0.5,0.0221729,0.435455,0,-0.025034,0.167504,0,0.0121304,0.270948,5,0.1,6,6.6,0.227838,0.53732,1.05097,-0.0427719,-0.782709,-0.00690222,0.208899,-0.891491,-0.00995398,0.0132596,2.34063,5,0.1,7,6.6,0.214137,2.21336,0.60532,0.0107106,-0.866026,0.00435263,-0.101738,0,0.000566244,0.0109446,2.34134,5,0.1,8,6.6,1.5,4.49125,1.25617,-0.00852942,0.153434,-0.193122,-0.081718,-0.145674,-0.343502,0.00663053,0.170688,5,0.1,9,6.6,0.316175,1.47193,0.59828,0.12373,0.0678092,0.00457168,0.374347,-0.124097,-0.00891089,0.0090336,0.257805,5,0.1
0,6.7,-0.4253,-0.515618,0.587983,-0.0655066,-0.667534,-0.0071492,-0.042541,0.38329,0.00183284,0.00973961,0.245473,5,0.1,1,6.7,1.90019,-2.38698,0.599982,-0.000386126,-0.0360761,2.28174e-05,0.113539,0.0199825,-1.86265e-05,0.0268386,0.316993,5,0.1,2,6.7,-3.59377,-3.2059,0.570223,-0.0399828,-0.143909,0.00829799,-0.0119209,-0.702918,0.0504963,0.00750148,0.30593,5,0.1,3,6.7,-0.276636,3.68445,0.60014,-0.0690353,0.313435,-0.000196602,0.0335965,-0.224173,0.000122935,0.00863453,0.204116,5,0.1,4,6.7,-3.72722,-2.92089,0.542173,-0.865912,-0.19084,-0.0331619,0.00452995,-0.12143,0.0109859,0.00783307,1.61771,5,0.1,5,6.7,-5.12015,0.194667,0.5,0.0199176,0.452182,0,-0.0207722,0.143306,0,0.0121304,0.270948,5,0.1,6,6.7,0.224779,0.455412,1.05025,-0.0170858,-0.84724,-0.0074083,0.28924,-0.402002,-0.000633299,0.0132596,2.34063,5,0.1,7,6.7,0.214325,2.1268,0.605764,-0.0100104,-0.864362,0.00456497,-0.286419,0.0530034,0.00312924,0.0109446,2.34134,5,0.1,8,6.7,1.49865,4.50591,1.23515,-0.0190269,0.140128,-0.226828,-0.120074,-0.125021,-0.312835,0.00663053,0.170688,5,0.1,9,6.7,0.329981,1.47815,0.598695,0.148308,0.0571063,0.00373162,0.128955,-0.0926629,-0.00791252,0.0090336,0.257805,5,0.1
0,6.8,-0.432028,-0.580351,0.58728,-0.0686407,-0.625701,-0.00689328,-0.0174195,0.468105,0.00345707,0.00733351,0.163751,5,0.1,1,6.8,1.9006,-2.39046,0.599984,0.00744164,-0.0332952,1.93715e-05,0.0408292,0.0351667,2.98023e-05,0.0301523,0.298631,5,0.1,2,6.8,-3.5976,-3.22374,0.571312,-0.0347018,-0.211263,0.0134885,0.10407,-0.614524,0.0504553,0.00554185,0.282942,5,0.1,3,6.8,-0.283258,3.71461,0.600121,-0.0624076,0.289088,-0.000181794,0.0937283,-0.267386,0.000119209,0.00720698,0.190552,5,0.1,4,6.8,-3.81375,-2.94053,0.538919,-0.864208,-0.201046,-0.0318453,0.0361204,-0.0714064,0.0163317,0.0133406,1.22894,5,0.1,5,6.8,-5.11826,0.240403,0.5,0.0179052,0.460128,0,-0.0200272,-0.00054419,0,0.00969579,0.190026,5,0.1,6,6.8,0.224543,0.369412,1.04952,0.0123333,-0.866026,-0.00711679,0.287287,1.43051e-05,0.00590086,0.0143669,2.28572,5,0.1,7,6.8,0.211766,2.0409,0.606237,-0.0419214,-0.85023,0.00488311,-0.331566,0.261784,0.00286102,0.0102334,2.49583,5,0.1,8,6.8,1.49614,4.5193,1.21107,-0.0311136,0.127661,-0.252688,-0.115514,-0.128031,-0.192165,0.00688977,0.211695,5,0.1,9,6.8,0.345132,1.48343,0.59903,0.151734,0.0488013,0.00298619,-0.050053,-0.0755191,-0.00703335,0.00780549,0.241203,5,0.1
0,6.9,-0.438978,-0.6407,0.586607,-0.0702575,-0.582009,-0.00655903,-0.0117365,0.424016,0.00343099,0.00733351,0.163751,5,0.1,1,6.9,1.90154,-2.3936,0.599986,0.0107747,-0.0292983,2.14204e-05,0.00606477,0.0439733,7.45058e-06,0.0301523,0.298631,5,0.1,2,6.9,-3.60001,-3.24779,0.572932,-0.00893101,-0.267788,0.0190115,0.375062,-0.497997,0.0567138,0.00554185,0.282942,5,0.1,3,6.9,-0.288962,3.7422,0.600103,-0.0511164,0.262699,-0.000169221,0.127058,-0.264823,0.000137836,0.00720698,0.190552,5,0.1,4,6.9,-3.90016,-2.96102,0.53581,-0.864622,-0.208853,-0.0303504,-0.00944734,-0.0724643,0.0146888,0.0133406,1.22894,5,0.1,5,6.9,-5.11656,0.286425,0.5,0.0161059,0.459931,0,-0.0165403,-0.0224961,0,0.00969579,0.190026,5,0.1,6,6.9,0.227434,0.28281,1.04884,0.0471039,-0.866025,-0.00633951,0.384918,0,0.00933558,0.0143669,2.28572,5,0.1,7,6.9,0.206106,1.95746,0.606739,-0.0693687,-0.815393,0.00515468,-0.217612,0.441954,0.00230968,0.0102334,2.49583,5,0.1,8,6.9,1.49233,4.53153,1.18461,-0.0459829,0.117817,-0.278024,-0.169359,-0.0768006,-0.283822,0.00688977,0.211695,5,0.1,9,6.9,0.35972,1.48793,0.599295,0.137251,0.0412611,0.0023365,-0.217132,-0.0749454,-0.00598282,0.00780549,0.241203,5,0.1
0,7,-0.446032,-0.696733,0.58597,-0.0704564,-0.537826,-0.00617355,0.00987947,0.472128,0.00444055,0.00882448,0.109029,5,0.1,1,7,1.90248,-2.3963,0.599988,0.00600219,-0.0246525,2.23517e-05,-0.108302,0.048399,-2.98023e-05,0.0282212,0.259549,5,0.1,2,7,-3.59883,-3.27674,0.575105,0.0338733,-0.3079,0.0242651,0.452876,-0.292778,0.0460148,0.010098,0.226436,5,0.1,3,7,-0.293417,3.76712,0.600087,-0.0378884,0.235415,-0.000154972,0.133634,-0.283837,0.000178814,0.00763101,0.361253,5,0.1,4,7,-3.98652,-2.98219,0.532853,-0.860745,-0.213456,-0.028716,0.105739,-0.0113249,0.0187159,0.00892389,0.903779,5,0.1,5,7,-5.11503,0.332142,0.5,0.0145078,0.452439,0,-0.0157356,-0.140145,0,0.00965156,0.129931,5,0.1,6,7,0.234073,0.196207,1.04826,0.0852615,-0.866025,-0.00530481,0.360876,0,0.0110865,0.0160355,2.27708,5,0.1,7,7,0.198267,1.87848,0.607263,-0.0855777,-0.760886,0.00530034,-0.107668,0.650644,0.00038743,0.00847279,2.90466,5,0.1,8,7,1.48688,4.54296,1.15544,-0.0628054,0.110936,-0.304151,-0.157714,-0.0669956,-0.216484,0.0088115,0.243914,5,0.1,9,7,0.372233,1.49169,0.5995,0.112168,0.0338763,0.00178665,-0.2684,-0.07236,-0.00503659,0.00674278,0.224412,5,0.1
0,7.1,-0.453029,-0.748285,0.585374,-0.0694367,-0.494131,-0.00575427,0.0131,0.417087,0.00411272,0.00882448,0.109029,5,0.1,1,7.1,1.90241,-2.39852,0.59999,-0.00942312,-0.0198018,1.93715e-05,-0.23067,0.0480562,-2.98023e-05,0.0282212,0.259549,5,0.1,2,7.1,-3.59361,-3.30778,0.57765,0.0664912,-0.302213,0.0256306,0.212014,0.347465,-0.0137202,0.010098,0.226436,5,0.1,3,7.1,-0.296488,3.78924,0.600073,-0.0232913,0.206983,-0.000136998,0.147678,-0.285491,0.000182539,0.00763101,0.361253,5,0.1,4,7.1,-4.0723,-3.0036,0.53007,-0.855981,-0.214779,-0.0269881,0.0353605,-0.00530481,0.0167713,0.00892389,0.903779,5,0.1,5,7.1,-5.11365,0.376714,0.5,0.0130951,0.438889,0,-0.0129938,-0.146469,0,0.00965156,0.129931,5,0.1,6,7.1,0.244082,0.109605,1.04779,0.111918,-0.866025,-0.00417233,0.180842,0,0.0113696,0.0160355,2.27708,5,0.1,7,7.1,0.189413,1.80644,0.607795,-0.0893143,-0.673328,0.00531841,0.0243969,1.0457,-0.000216067,0.00847279,2.90466,5,0.1,8,7.1,1.47972,4.55387,1.12397,-0.0810031,0.108542,-0.324588,-0.193119,0.00700355,-0.175141,0.0088115,0.243914,5,0.1,9,7.1,0.382021,1.49472,0.599655,0.083472,0.026932,0.00133011,-0.277422,-0.0662655,-0.00411272,0.00674278,0.224412,5,0.1
0,7.2,-0.459885,-0.795602,0.584819,-0.0674061,-0.451821,-0.00531971,0.029251,0.439703,0.00461936,0.00827595,0.125247,5,0.1,1,7.2,1.9,-2.40027,0.599992,-0.0417829,-0.0151396,1.78814e-05,-0.40251,0.0449419,-5.96046e-05,0.0300082,0.198662,5,0.1,2,7.2,-3.58621,-3.33561,0.580079,0.0786185,-0.248963,0.0224173,0.041008,0.671148,-0.0466108,0.00788589,0.150271,5,0.1,3,7.2,-0.298124,3.8085,0.60006,-0.0100702,0.178236,-0.000117719,0.110194,-0.28944,0.000178814,0.0106805,1.76597,5,0.1,4,7.2,-4.15753,-3.02503,0.527458,-0.845885,-0.212878,-0.0252053,0.198841,0.0500679,0.0195205,0.00863749,0.641712,5,0.1,5,7.2,-5.11241,0.419756,0.5,0.0118375,0.420538,0,-0.0126362,-0.230998,0,0.00796123,0.183646,5,0.1,6,7.2,0.255938,0.0230021,1.04742,0.122988,-0.866025,-0.0030607,0.0475645,1.19209e-06,0.0106096,0.0137061,2.27828,5,0.1,7,7.2,0.180763,1.74462,0.608323,-0.0822783,-0.561193,0.00522584,0.109047,1.15734,-0.00175834,0.00953949,3.22015,5,0.1,8,7.2,1.47069,4.5648,1.09082,-0.0991583,0.110221,-0.336319,-0.160396,0.017643,-0.0479221,0.00717532,0.240035,5,0.1,9,7.2,0.389139,1.49709,0.599769,0.0608124,0.0206649,0.000959635,-0.162557,-0.0588298,-0.00327826,0.0075496,0.196291,5,0.1
0,7.3,-0.466524,-0.838933,0.584307,-0.0657123,-0.417603,-0.00496125,0.00930391,0.271473,0.0028573,0.00827595,0.125247,5,0.1,1,7.3,1.89346,-2.40156,0.599994,-0.0914497,-0.0108603,1.28523e-05,-0.554867,0.0403076,-3.72529e-05,0.0300082,0.198662,5,0.1,2,7.3,-3.57837,-3.35672,0.582045,0.0763439,-0.170013,0.0165471,-0.0763834,0.86683,-0.0672601,0.00788589,0.150271,5,0.1,3,7.3,-0.298402,3.82492,0.600049,0.00491082,0.150586,-0.000100303,0.137491,-0.26463,0.000167638,0.0106805,1.76597,5,0.1,4,7.3,-4.24127,-3.04609,0.525029,-0.829381,-0.208134,-0.0234046,0.168085,0.0527799,0.0172667,0.00863749,0.641712,5,0.1,5,7.3,-5.11128,0.460862,0.5,0.0107057,0.403068,0,-0.010401,-0.141226,0,0.00796123,0.183646,5,0.1,6,7.3,0.268196,-0.0636004,1.04717,0.119998,-0.866025,-0.00204183,-0.0837278,-4.47035e-07,0.00965595,0.0137061,2.27828,5,0.1,7,7.3,0.173164,1.69456,0.608838,-0.0689769,-0.439559,0.00507394,0.151616,1.19118,-0.00149384,0.00953949,3.22015,5,0.1,8,7.3,1.45987,4.57605,1.05695,-0.117742,0.115727,-0.340649,-0.196271,0.0789165,-0.0239611,0.00717532,0.240035,5,0.1,9,7.3,0.394588,1.49888,0.59985,0.0508279,0.0151888,0.000668317,-0.00803545,-0.0505745,-0.002563,0.0075496,0.196291,5,0.1
0,7.4,-0.47305,-0.879434,0.583824,-0.0647373,-0.392869,-0.00469387,0.0135899,0.242919,0.00268221,0.00972613,0.0727166,5,0.1,1,7.4,1.88154,-2.40246,0.599995,-0.146484,-0.00712872,8.9407e-06,-0.518918,0.0338554,-2.98023e-05,0.0356686,0.13478,5,0.1,2,7.4,-3.57124,-3.36934,0.583353,0.0651598,-0.0827074,0.00958145,-0.139236,0.849128,-0.0693798,0.0101389,0.0793132,5,0.1,3,7.4,-0.297494,3.83869,0.60004,0.00991225,0.125128,-8.49366e-05,-0.0607073,-0.244975,0.000178814,0.0076712,3.58979,5,0.1,4,7.4,-4.32317,-3.06658,0.522776,-0.806057,-0.200993,-0.0216231,0.323772,0.0954866,0.0189543,0.0079988,0.444162,5,0.1,5,7.4,-5.11026,0.500458,0.5,0.00969172,0.388372,0,-0.0100136,-0.169128,0,0.00781606,0.137929,5,0.1,6,7.4,0.279709,-0.150203,1.04701,0.109952,-0.866026,-0.00115037,-0.103757,7.15256e-06,0.00804663,0.0170087,2.28062,5,0.1,7,7.4,0.167058,1.65609,0.609337,-0.0529215,-0.33547,0.00488907,0.165202,0.849664,-0.00229478,0.00825775,3.28087,5,0.1,8,7.4,1.44716,4.58803,1.0229,-0.135824,0.123656,-0.338656,-0.154495,0.0696182,0.0737011,0.00628853,0.17441,5,0.1,9,7.4,0.4,1.50016,0.599905,0.0608914,0.0105649,0.000445545,0.197053,-0.0417233,-0.00196695,0.00745366,0.329486,5,0.1
0,7.5,-0.479469,-0.917653,0.583367,-0.0636954,-0.372514,-0.00446551,0.0102799,0.18185,0.00209361,0.00972613,0.0727166,5,0.1,1,7.5,1.86427,-2.40301,0.599996,-0.198434,-0.00401698,6.42613e-06,-0.496812,0.0281781,-1.86265e-05,0.0356686,0.13478,5,0.1,2,7.5,-3.56548,-3.37345,0.583966,0.0494212,-0.000739098,0.00275839,-0.169545,0.771999,-0.065431,0.0101389,0.0793132,5,0.1,3,7.5,-0.296936,3.85048,0.600067,-0.0036146,0.114867,0.00092499,-0.336805,0.0107437,0.0178143,0.0076712,3.58979,5,0.1,4,7.5,-4.40228,-3.08622,0.520703,-0.776538,-0.19196,-0.0198816,0.296593,0.0917315,0.0165217,0.0079988,0.444162,5,0.1,5,7.5,-5.10929,0.538382,0.5,0.0102758,0.369285,0,0.0180602,-0.218529,0,0.00781606,0.137929,5,0.1,6,7.5,0.290162,-0.236806,1.04694,0.0997492,-0.866025,-0.000401773,-0.0684708,1.78814e-06,0.00683218,0.0170087,2.28062,5,0.1,7,7.5,0.162597,1.62627,0.609816,-0.0363404,-0.269198,0.00470383,0.163195,0.372984,-0.00164285,0.00825775,3.28087,5,0.1,8,7.5,1.43278,4.6008,0.989395,-0.151678,0.13198,-0.331322,-0.150956,0.0863671,0.0849739,0.00628853,0.17441,5,0.1,9,7.5,0.407732,1.50102,0.599941,0.0990381,0.00678524,0.000275765,0.515603,-0.0338405,-0.00144914,0.00745366,0.329486,5,0.1
0,7.6,-0.485773,-0.953977,0.582931,-0.0621691,-0.353482,-0.00424236,0.0223368,0.211328,0.0025332,0.00886719,0.0565202,5,0.1,1,7.6,1.84214,-2.40328,0.599996,-0.241899,-0.00151992,4.47035e-06,-0.356257,0.0216961,0,0.027941,0.112384,5,0.1,2,7.6,-3.5614,-3.36991,0.583933,0.0323057,0.0686288,-0.00322461,-0.168324,0.602841,-0.0530481,0.00955476,0.0463726,5,0.1,3,7.6,-0.3,3.86225,0.600263,-0.0675954,0.122112,0.00308603,-0.917315,0.111818,0.0236928,0.00753596,3.13831,5,0.1,4,7.6,-4.4783,-3.10492,0.518798,-0.741708,-0.18155,-0.0182107,0.42057,0.120878,0.0174046,0.00775675,0.302094,5,0.1,5,7.6,-5.10815,0.574098,0.5,0.0126362,0.343744,0,0.0269413,-0.295609,0,0.00859419,0.240726,5,0.1,6,7.6,0.3,-0.323408,1.04693,0.0990696,-0.866025,0.000202656,0.0511706,-1.43051e-05,0.00524521,0.0142473,2.27179,5,0.1,7,7.6,0.159753,1.6,0.610278,-0.0208423,-0.267869,0.00452101,0.144385,-0.31364,-0.00214577,0.00976191,2.99565,5,0.1,8,7.6,1.41694,4.61438,0.956786,-0.164047,0.139129,-0.31966,-0.0883937,0.0493526,0.156254,0.00688924,0.122703,5,0.1,9,7.6,0.420399,1.50154,0.599962,0.155153,0.00379682,0.000153482,0.56839,-0.025928,-0.00101328,0.00903878,0.2271,5,0.1
0,7.7,-0.491897,-0.988424,0.582518,-0.0604278,-0.33654,-0.00403505,0.0156481,0.145823,0.00182539,0.00886719,0.0565202,5,0.1,1,7.7,1.81613,-2.40333,0.599997,-0.277952,0.000444055,4.47035e-06,-0.340946,0.0174046,0,0.027941,0.112384,5,0.1,2,7.7,-3.559,-3.36024,0.58336,0.015717,0.122653,-0.00806125,-0.15977,0.468597,-0.0428222,0.00955476,0.0463726,5,0.1,3,7.7,-0.312607,3.87524,0.600703,-0.194343,0.139571,0.00580512,-1.50742,0.214681,0.02902,0.00753596,3.13831,5,0.1,4,7.7,-4.55049,-3.1225,0.517058,-0.702745,-0.170219,-0.0166191,0.383347,0.111207,0.0149608,0.00775675,0.302094,5,0.1,5,7.7,-5.10677,0.606659,0.5,0.0147223,0.304691,0,0.0146627,-0.463381,0,0.00859419,0.240726,5,0.1,6,7.7,0.310491,-0.410011,1.04697,0.113354,-0.866025,0.000679865,0.208313,1.78814e-06,0.00423193,0.0142473,2.27179,5,0.1,7,7.7,0.158366,1.57018,0.610721,-0.00719891,-0.340281,0.00435719,0.126476,-1.02197,-0.00136718,0.00976191,2.99565,5,0.1,8,7.7,1.4001,4.62856,0.925571,-0.172605,0.144417,-0.304697,-0.0736266,0.0481904,0.152934,0.00688924,0.122703,5,0.1,9,7.7,0.438904,1.50181,0.599973,0.215592,0.00152234,6.95698e-05,0.607215,-0.0196025,-0.000674278,0.00903878,0.2271,5,0.1
0,7.8,-0.497851,-1.02134,0.582124,-0.0585049,-0.321198,-0.00384152,0.0249445,0.173807,0.00217557,0.00747842,0.0256657,5,0.1,1,7.8,1.78682,-2.40321,0.599997,-0.306073,0.00193119,4.47035e-06,-0.2051,0.0120401,0,0.0300791,0.0557704,5,0.1,2,7.8,-3.55819,-3.34591,0.582362,0.000977516,0.160927,-0.0116512,-0.132442,0.291586,-0.0284612,0.00710712,0.0287394,5,0.1,3,7.8,-0.339805,3.89029,0.601426,-0.349718,0.161088,0.00859946,-1.51666,0.198722,0.02563,0.00867158,2.6709,5,0.1,4,7.8,-4.61874,-3.13895,0.515471,-0.660896,-0.158399,-0.0151247,0.4704,0.129104,0.0152588,0.00854997,0.203407,5,0.1,5,7.8,-5.10524,0.634682,0.5,0.0155568,0.254893,0,0.00214577,-0.516325,0,0.0105722,0.219031,5,0.1,6,7.8,0.32295,-0.496613,1.04706,0.13613,-0.866026,0.00103712,0.227362,0,0.00292063,0.0120605,2.25762,5,0.1,7,7.8,0.158236,1.53064,0.61115,0.00411943,-0.452429,0.0042066,0.0985488,-1.13517,-0.00175834,0.00959707,2.61352,5,0.1,8,7.8,1.38255,4.64319,0.895926,-0.177237,0.147367,-0.287414,-0.0128746,0.00524521,0.199348,0.00606747,0.14369,5,0.1,9,7.8,0.46334,1.50187,0.599977,0.270903,-0.00013113,1.49012e-05,0.475258,-0.0135899,-0.00038743,0.0119641,0.0663319,5,0.1
0,7.9,-0.503576,-1.05261,0.58175,-0.0559406,-0.304331,-0.00362908,0.0279471,0.173174,0.00218675,0.00747842,0.0256657,5,0.1,1,7.9,1.7553,-2.40296,0.599998,-0.322823,0.00294708,4.47035e-06,-0.117935,0.00821054,0,0.0300791,0.0557704,5,0.1,2,7.9,-3.55873,-3.32852,0.581068,-0.0114877,0.185143,-0.0140951,-0.113979,0.186101,-0.0197776,0.00710712,0.0287394,5,0.1,3,7.9,-0.382772,3.90749,0.602417,-0.511536,0.183352,0.0112264,-1.63352,0.228032,0.0255741,0.00867158,2.6709,5,0.1,4,7.9,-4.68261,-3.15418,0.51403,-0.617319,-0.146406,-0.0137351,0.421584,0.11535,0.0129864,0.00854997,0.203407,5,0.1,5,7.9,-5.1037,0.657486,0.5,0.015156,0.200963,0,-0.00953674,-0.530791,0,0.0105722,0.219031,5,0.1,6,7.9,0.33795,-0.583216,1.04718,0.16565,-0.866026,0.00129249,0.334898,3.72529e-06,0.00213832,0.0120605,2.25762,5,0.1,7,7.9,0.159113,1.47912,0.611563,0.0131208,-0.581453,0.00408115,0.0800248,-1.35517,-0.000987202,0.00959707,2.61352,5,0.1,8,7.9,1.36463,4.65808,0.867985,-0.182174,0.15137,-0.272904,-0.0697225,0.0605583,0.108775,0.00606747,0.14369,5,0.1,9,7.9,0.492541,1.5018,0.599977,0.310217,-0.00128075,-1.35973e-05,0.301752,-0.00941753,-0.000193715,0.0119641,0.0663319,5,0.1
0,8,-0.509015,-1.08212,0.581399,-0.0526518,-0.284964,-0.00338703,0.0388622,0.220418,0.00274181,0.00888296,0.0155493,5,0.1,1,8,1.72265,-2.40263,0.599998,-0.327739,0.00356436,4.47035e-06,0.0268221,0.00417233,-2.98023e-05,0.0282701,0.0832068,5,0.1,2,8,-3.5604,-3.30929,0.579578,-0.0213385,0.19716,-0.0155091,-0.0814199,0.0509024,-0.00816584,0.0108042,0.0104536,5,0.1,3,8,-0.441704,3.92689,0.603659,-0.661589,0.203526,0.0134885,-1.30543,0.161886,0.0187159,0.00741988,2.3638,5,0.1,4,8,-4.74218,-3.16823,0.51272,-0.573123,-0.134557,-0.0124514,0.475883,0.124574,0.0129938,0.00948484,0.136377,5,0.1,5,8,-5.10225,0.675099,0.5,0.0137687,0.153458,0,-0.0174046,-0.403613,0,0.00909859,0.190095,5,0.1,6,8,0.356176,-0.669818,1.04731,0.198216,-0.866026,0.00145435,0.295639,0,0.00113249,0.013179,2.23358,5,0.1,7,8,0.160785,1.41445,0.611966,0.0198901,-0.707892,0.00397116,0.0544637,-1.10805,-0.00143051,0.00829395,2.36514,5,0.1,8,8,1.34608,4.67351,0.84121,-0.188392,0.157022,-0.26256,-0.0430346,0.0419617,0.111133,0.00899563,0.0857319,5,0.1,9,8,0.524724,1.50163,0.599975,0.329855,-0.00202358,-2.5332e-05,0.0862777,-0.00536442,-8.9407e-05,0.00813148,0.0830149,5,0.1
0,8.1,-0.514088,-1.10954,0.581073,-0.0487884,-0.26353,-0.0031203,0.0396557,0.215814,0.00268221,0.00888296,0.0155493,5,0.1,1,8.1,1.68991,-2.40226,0.599998,-0.327564,0.00382885,1.95578e-06,-0.00460446,0.00119209,-1.86265e-05,0.0282701,0.0832068,5,0.1,2,8.1,-3.56291,-3.28946,0.577999,-0.0283178,0.197896,-0.0159452,-0.0569671,-0.0372529,-0.000409782,0.0108042,0.0104536,5,0.1,3,8.1,-0.513864,3.9481,0.605102,-0.775428,0.220831,0.015354,-0.937048,0.167906,0.0174344,0.00741988,2.3638,5,0.1,4,8.1,-4.79725,-3.1811,0.511536,-0.529214,-0.123072,-0.0112726,0.419289,0.108972,0.0109561,0.00948484,0.136377,5,0.1,5,8.1,-5.10096,0.688645,0.5,0.0118069,0.120528,0,-0.0213683,-0.224028,0,0.00909859,0.190095,5,0.1,6,8.1,0.377602,-0.756421,1.04746,0.230919,-0.866026,0.00155084,0.333553,3.72529e-06,0.000730157,0.013179,2.23358,5,0.1,7,8.1,0.163028,1.33868,0.612358,0.0247564,-0.801241,0.00387784,0.0415575,-0.733852,-0.000663102,0.00829395,2.36514,5,0.1,8,8.1,1.327,4.68945,0.815439,-0.193117,0.161722,-0.253277,-0.0410601,0.0427961,0.0862069,0.00899563,0.0857319,5,0.1,9,8.1,0.558152,1.5014,0.599972,0.338375,-0.00241101,-2.95229e-05,0.0674836,-0.00245869,3.72529e-06,0.00813148,0.0830149,5,0.1
0,8.2,-0.518759,-1.13477,0.580775,-0.0445232,-0.240585,-0.00283718,0.0463724,0.247598,0.00303984,0.00834313,0.00495464,5,0.1,1,8.2,1.6572,-2.40188,0.599998,-0.325474,0.0038147,1.49012e-06,0.0594854,-0.00143051,-2.98023e-05,0.0292302,0.153662,5,0.1,2,8.2,-3.56597,-3.27001,0.576416,-0.0325561,0.18965,-0.0155777,-0.0270605,-0.127077,0.0077486,0.00850049,0.00292662,5,0.1,3,8.2,-0.59528,3.97092,0.606715,-0.844435,0.234342,0.0167787,-0.431806,0.0908375,0.0102818,0.0100573,2.25095,5,0.1,4,8.2,-4.84806,-3.19287,0.510463,-0.486374,-0.112116,-0.0101954,0.449181,0.112772,0.0108182,0.0103983,0.157584,5,0.1,5,8.2,-5.09989,0.7,0.5,0.00958443,0.110607,0,-0.0226498,0.0141859,0,0.00883469,0.14359,5,0.1,6,8.2,0.402257,-0.843023,1.04762,0.260658,-0.866026,0.00159144,0.24344,0,0,0.0121118,2.214,5,0.1,7,8.2,0.165682,1.25564,0.612742,0.0279907,-0.852013,0.00379682,0.022307,-0.280261,-0.00107288,0.00735332,2.28003,5,0.1,8,8.2,1.30756,4.70578,0.790579,-0.194857,0.164044,-0.243336,0.013411,-0.00309944,0.120789,0.00685351,0.0658575,5,0.1,9,8.2,0.592185,1.50115,0.599969,0.340565,-0.00253022,-2.68221e-05,-0.0349879,0,5.96046e-05,0.00898267,0.0620118,5,0.1
0,8.3,-0.522978,-1.15759,0.580507,-0.039827,-0.215686,-0.00253273,0.0479259,0.252917,0.00307336,0.00834313,0.00495464,5,0.1,1,8.3,1.62467,-2.4015,0.599998,-0.327372,0.00359714,-9.31323e-07,-0.067912,-0.00286102,-1.49012e-05,0.0292302,0.153662,5,0.1,2,8.3,-3.56933,-3.25177,0.574905,-0.0342555,0.17428,-0.0145537,-0.00676513,-0.178605,0.0126176,0.00850049,0.00292662,5,0.1,3,8.3,-0.681046,3.99486,0.608446,-0.864676,0.244565,0.0178313,-0.053972,0.0982881,0.00967085,0.0100573,2.25095,5,0.1,4,8.3,-4.89483,-3.2036,0.509488,-0.45202,-0.103316,-0.0093611,0.267655,0.0698715,0.00650436,0.0103983,0.157584,5,0.1,5,8.3,-5.09905,0.711563,0.5,0.00732243,0.124141,0,-0.0222325,0.224192,0,0.00883469,0.14359,5,0.1,6,8.3,0.42962,-0.929626,1.04778,0.286819,-0.866026,0.00158995,0.25689,0,-8.9407e-05,0.0121118,2.214,5,0.1,7,8.3,0.168585,1.16958,0.613118,0.029976,-0.86515,0.00373665,0.016043,-0.0350326,-0.000357628,0.00735332,2.28003,5,0.1,8,8.3,1.28809,4.72221,0.766761,-0.194624,0.164744,-0.233587,0.00206381,0.00753999,0.0863522,0.00685351,0.0658575,5,0.1,9,8.3,0.62613,1.5009,0.599967,0.338535,-0.00243317,-1.84402e-05,-0.023026,0.00184029,0.000104308,0.00898267,0.0620118,5,0.1
0,8.4,-0.526716,-1.17787,0.580269,-0.0348881,-0.189629,-0.00221729,0.0510514,0.269413,0.00324845,0.00924503,0.00148804,5,0.1,1,8.4,1.59158,-2.40116,0.599998,-0.33395,0.00324845,-1.49012e-06,-0.0420213,-0.00393391,-2.98023e-05,0.0299384,0.0934927,5,0.1,2,8.4,-3.57276,-3.23531,0.57352,-0.0339091,0.154305,-0.0130817,0.0135899,-0.218987,0.0166595,0.0126944,0.00112181,5,0.1,3,8.4,-0.767621,4.01972,0.610269,-0.866026,0.251389,0.0185296,0,0.0276566,0.00351667,0.00706847,2.22947,5,0.1,4,8.4,-4.93879,-3.21361,0.508582,-0.427663,-0.0969768,-0.00878423,0.241518,0.0616312,0.00554323,0.00796943,0.0918415,5,0.1,5,8.4,-5.09842,0.725226,0.5,0.0051856,0.149761,0,-0.0200272,0.263721,0,0.00805631,0.257434,5,0.1,6,8.4,0.459454,-1.01623,1.04794,0.308137,-0.866026,0.00156462,0.153378,0,-0.000536442,0.0124596,2.00324,5,0.1,7,8.4,0.171644,1.08299,0.61349,0.0309758,-0.866026,0.00368506,0.00307709,0,-0.000834465,0.00912087,2.27133,5,0.1,8,8.4,1.26869,4.73867,0.743858,-0.192624,0.163925,-0.224003,0.0453591,-0.0298023,0.113755,0.00912242,0.0298485,5,0.1,9,8.4,0.659772,1.50067,0.599965,0.333032,-0.00218153,-7.45058e-06,-0.0988841,0.00303984,0.000119209,0.00729664,0.0958139,5,0.1
0,8.5,-0.529951,-1.19549,0.580063,-0.0298189,-0.162894,-0.00189636,0.0502765,0.265323,0.00317395,0.00924503,0.00148804,5,0.1,1,8.5,1.55791,-2.40086,0.599998,-0.339714,0.00280552,-3.53903e-06,-0.0541508,-0.00481308,-7.45058e-06,0.0299384,0.0934927,5,0.1,2,8.5,-3.57606,-3.221,0.572299,-0.0319079,0.131506,-0.0113145,0.0260472,-0.234455,0.0184737,0.0126944,0.00112181,5,0.1,3,8.5,-0.854224,4.04506,0.612143,-0.866026,0.255705,0.0189607,3.72529e-06,0.0436902,0.00403449,0.00706847,2.22947,5,0.1,4,8.5,-4.9805,-3.22304,0.507727,-0.407631,-0.0918243,-0.0083317,0.178725,0.0458211,0.00393018,0.00796943,0.0918415,5,0.1,5,8.5,-5.098,0.74176,0.5,0.00334531,0.182573,0,-0.0167489,0.363395,0,0.00805631,0.257434,5,0.1,6,8.5,0.491086,-1.10283,1.04809,0.324488,-0.866026,0.00151657,0.153448,0,-0.000491738,0.0124596,2.00324,5,0.1,7,8.5,0.174759,0.996389,0.613856,0.0313073,-0.866026,0.0036465,0.00209268,3.72529e-06,-0.000163913,0.00912087,2.27133,5,0.1,8,8.5,1.24968,4.7549,0.72202,-0.187372,0.16029,-0.212684,0.0651181,-0.0477135,0.118934,0.00912242,0.0298485,5,0.1,9,8.5,0.692761,1.50047,0.599965,0.327972,-0.0018334,3.91155e-06,-0.024125,0.00382215,0.000104308,0.00729664,0.0958139,5,0.1
0,8.6,-0.532683,-1.21046,0.579889,-0.0248462,-0.13659,-0.00158399,0.0490546,0.260472,0.00309944,0.00838652,0.000799861,5,0.1,1,8.6,1.52377,-2.4006,0.599998,-0.341544,0.00230074,-4.47035e-06,0.030756,-0.005126,0,0.0283049,0.0729287,5,0.1,2,8.6,-3.5791,-3.20903,0.571261,-0.0287771,0.10789,-0.00942647,0.0360012,-0.235677,0.0191331,0.00837619,0.00106768,5,0.1,3,8.6,-0.940826,4.07078,0.614053,-0.866026,0.257587,0.019154,2.98023e-05,-0.0164509,-0.00089407,0.0121919,2.22953,5,0.1,4,8.6,-5.02035,-3.23199,0.506914,-0.388563,-0.0870645,-0.00792593,0.216246,0.0524521,0.00450015,0.00727393,0.0714872,5,0.1,5,8.6,-5.09774,0.761802,0.5,0.00184774,0.217387,0,-0.013113,0.311434,0,0.00791314,0.0834902,5,0.1,6,8.6,0.524167,-1.18943,1.04824,0.335406,-0.866026,0.00145733,0.0509024,0,-0.00077486,0.0113616,1.54597,5,0.1,7,8.6,0.177889,0.909786,0.614219,0.0311494,-0.866026,0.00361353,-0.00624359,0,-0.000655651,0.0094056,2.27134,5,0.1,8,8.6,1.23133,4.77063,0.701396,-0.178725,0.153601,-0.199184,0.111282,-0.0889301,0.155121,0.00710102,0.0113034,5,0.1,9,8.6,0.725414,1.50031,0.599966,0.324462,-0.00143647,1.3411e-05,-0.0617206,0.00405312,8.9407e-05,0.00839944,1.19896,5,0.1
0,8.7,-0.534927,-1.22284,0.579746,-0.0200968,-0.111334,-0.00128467,0.0457466,0.243813,0.00287592,0.00838652,0.000799861,5,0.1,1,8.7,1.48967,-2.4004,0.599997,-0.3409,0.00178888,-4.00469e-06,0.00193715,-0.00503659,1.11759e-05,0.0283049,0.0729287,5,0.1,2,8.7,-3.58179,-3.19941,0.570414,-0.0249099,0.084734,-0.00752872,0.0408143,-0.225186,0.0186302,0.00837619,0.00106768,5,0.1,3,8.7,-1.02743,4.09653,0.615969,-0.866025,0.257871,0.0191886,-7.45058e-06,0.00748038,0.000536442,0.0121919,2.22953,5,0.1,4,8.7,-5.05829,-3.24047,0.50614,-0.371392,-0.0828743,-0.00757761,0.147462,0.0359118,0.00289828,0.00727393,0.0714872,5,0.1,5,8.7,-5.09762,0.785088,0.5,0.000582635,0.247766,0,-0.0119209,0.277657,0,0.00791314,0.0834902,5,0.1,6,8.7,0.55798,-1.27603,1.04838,0.340625,-0.865842,0.00138655,0.0373907,0.00734627,-0.000700355,0.0113616,1.54597,5,0.1,7,8.7,0.18098,0.823184,0.614579,0.0307223,-0.866026,0.00359062,-0.00385009,3.72529e-06,-2.98023e-05,0.0094056,2.27134,5,0.1,8,8.7,1.21404,4.78552,0.682264,-0.166719,0.143885,-0.183282,0.131026,-0.107318,0.165682,0.00710102,0.0113034,5,0.1,9,8.7,0.758175,1.501,0.59989,0.335713,0.0222132,-0.0021928,0.236299,0.417218,-0.0392981,0.00839944,1.19896,5,0.1
0,8.8,-0.536715,-1.23279,0.579632,-0.0157282,-0.0879794,-0.0010103,0.0414252,0.222504,0.0025928,0.0115089,0.000714604,5,0.1,1,8.8,1.45568,-2.40024,0.599997,-0.337803,0.00130534,-2.98023e-06,0.0736117,-0.00464916,0,0.0306994,0.105311,5,0.1,2,8.8,-3.58407,-3.19203,0.569752,-0.0207186,0.0632465,-0.00573397,0.0426769,-0.202775,0.0170767,0.00832557,0.00102165,5,0.1,3,8.8,-1.11403,4.1223,0.617886,-0.866026,0.256598,0.0190809,0,-0.0433922,-0.00339746,0.00775387,2.23104,5,0.1,4,8.8,-5.09467,-3.24858,0.505397,-0.355601,-0.0791073,-0.00727177,0.182152,0.0424385,0.00354648,0.00722996,0.0325156,5,0.1,5,8.8,-5.09762,0.811074,0.5,-0.000488758,0.269826,0,-0.00953674,0.151128,0,0.00843191,0.112794,5,0.1,6,8.8,0.592099,-1.36252,1.04852,0.340183,-0.863087,0.00130832,-0.0571012,0.0587106,-0.000834465,0.0121507,1.55664,5,0.1,7,8.8,0.184027,0.736581,0.614937,0.0301156,-0.866026,0.00356883,-0.00935793,0,-0.000566244,0.00846806,2.27137,5,0.1,8,8.8,1.19807,4.79933,0.664799,-0.152186,0.131834,-0.165619,0.160694,-0.134468,0.189155,0.00907888,0.00558316,5,0.1,9,8.8,0.793079,1.50564,0.599442,0.362886,0.072813,-0.00697076,0.269324,0.554502,-0.0524223,0.00675589,0.960559,5,0.1
0,8.9,-0.538089,-1.24052,0.579543,-0.0118203,-0.0669373,-0.00076564,0.0365712,0.197507,0.00229105,0.0115089,0.000714604,5,0.1,1,8.9,1.42209,-2.40013,0.599997,-0.335236,0.000878796,-2.6077e-06,0.000484288,-0.0038594,7.45058e-06,0.0306994,0.105311,5,0.1,2,8.9,-3.58593,-3.18668,0.569261,-0.0164714,0.0441018,-0.00410965,0.0417978,-0.17859,0.0152774,0.00832557,0.00102165,5,0.1,3,8.9,-1.20063,4.14783,0.619783,-0.866026,0.254444,0.018894,0,-0.0139773,-0.00137463,0.00775387,2.23104,5,0.1,4,8.9,-5.12934,-3.25628,0.504687,-0.337797,-0.0749949,-0.00692904,0.184596,0.042215,0.00354648,0.00722996,0.0325156,5,0.1,5,8.9,-5.09771,0.838909,0.5,-0.0013195,0.287288,0,-0.00706315,0.176422,0,0.00843191,0.112794,5,0.1,6,8.9,0.626008,-1.44878,1.04865,0.339148,-0.863536,0.00123065,0.0134856,-0.0306144,-0.000752509,0.0121507,1.55664,5,0.1,7,8.9,0.187002,0.649979,0.615293,0.029469,-0.866026,0.00355318,-0.0051856,3.72529e-06,2.98023e-05,0.00846806,2.27137,5,0.1,8,8.9,1.18366,4.81184,0.64917,-0.136091,0.118309,-0.147025,0.162803,-0.137478,0.184804,0.00907888,0.00558316,5,0.1,9,8.9,0.83097,1.516,0.598454,0.396483,0.136353,-0.0129859,0.363808,0.677377,-0.064183,0.00675589,0.960559,5,0.1
0,9,-0.539097,-1.24627,0.579478,-0.00844151,-0.0486165,-0.000552833,0.0309348,0.168383,0.00193715,0.00828361,0.000562609,5,0.1,1,9,1.3886,-2.40006,0.599996,-0.333801,0.000536442,-1.49012e-06,0.0445247,-0.00309944,0,0.029244,0.180664,5,0.1,2,9,-3.58737,-3.18312,0.568923,-0.0124454,0.0277817,-0.00270307,0.0382662,-0.147104,0.012815,0.00759689,0.000721921,5,0.1,3,9,-1.28724,4.17315,0.621662,-0.866026,0.251353,0.0186294,5.96046e-05,-0.0574589,-0.00464916,0.00752514,2.12412,5,0.1,4,9,-5.16212,-3.26355,0.504014,-0.316918,-0.0702679,-0.00652522,0.240088,0.0540018,0.00470877,0.00617505,0.0125907,5,0.1,5,9,-5.09788,0.868416,0.5,-0.00188351,0.301413,0,-0.00405312,0.0908077,0,0.00767868,0.0959218,5,0.1,6,9,0.659953,-1.5352,1.04877,0.338945,-0.863591,0.00114739,-0.0339746,0.0487566,-0.000834465,0.0112471,1.16402,5,0.1,7,9,0.18992,0.563376,0.615648,0.0288028,-0.866026,0.00353605,-0.00926852,0,-0.000536442,0.00967536,2.27141,5,0.1,8,9,1.17088,4.82297,0.635398,-0.119385,0.104129,-0.128341,0.171959,-0.146866,0.190049,0.00680285,0.00169372,5,0.1,9,9,0.872332,1.53296,0.59684,0.428969,0.201526,-0.0191644,0.257939,0.597298,-0.0566542,0.00749012,0.740562,5,0.1
0,9.1,-0.539795,-1.25033,0.579431,-0.00560489,-0.0331203,-0.000374857,0.0257045,0.141062,0.0016205,0.00828361,0.000562609,5,0.1,1,9.1,1.35512,-2.40002,0.599996,-0.338048,0.000273436,-1.11759e-06,-0.0971928,-0.00220537,7.45058e-06,0.029244,0.180664,5,0.1,2,9.1,-3.58843,-3.18103,0.568713,-0.00880286,0.0144206,-0.00153016,0.0342727,-0.119418,0.0105724,0.00759689,0.000721921,5,0.1,3,9.1,-1.37384,4.19808,0.623507,-0.866025,0.247671,0.0183147,-1.49012e-05,-0.0295639,-0.00261888,0.00752514,2.12412,5,0.1,4,9.1,-5.1926,-3.27031,0.503385,-0.292376,-0.0647727,-0.00604317,0.255555,0.0569969,0.00503659,0.00617505,0.0125907,5,0.1,5,9.1,-5.09808,0.899114,0.5,-0.00222176,0.312989,0,-0.0026226,0.118416,0,0.00767868,0.0959218,5,0.1,6,9.1,0.693767,-1.62153,1.04888,0.337768,-0.86397,0.00106916,-0.00771508,-0.0137165,-0.000759959,0.0112471,1.16402,5,0.1,7,9.1,0.192766,0.476773,0.616,0.0282015,-0.866026,0.00352226,-0.00439771,3.57628e-06,4.47035e-05,0.00967536,2.27141,5,0.1,8,9.1,1.15979,4.83265,0.623501,-0.102363,0.0895485,-0.10971,0.16854,-0.144839,0.182889,0.00680285,0.00169372,5,0.1,9,9.1,0.916602,1.55615,0.594635,0.456494,0.262106,-0.0249129,0.262287,0.584647,-0.0554919,0.00749012,0.740562,5,0.1
0,9.2,-0.540236,-1.25299,0.579401,-0.00331104,-0.0204742,-0.000229478,0.0201166,0.111699,0.0012517,0.00892462,0.000337131,5,0.1,1,9.2,1.32081,-2.40001,0.599996,-0.34765,8.9407e-05,0,-0.0711679,-0.0013113,0,0.0262326,0.110789,5,0.1,2,9.2,-3.58915,-3.18013,0.568608,-0.00565052,0.00400543,-0.000599027,0.028491,-0.0885725,0.00801682,0.0088073,0.000375679,5,0.1,3,9.2,-1.46044,4.22266,0.625323,-0.866026,0.243163,0.017941,5.96046e-05,-0.0696182,-0.00554323,0.0110696,1.66834,5,0.1,4,9.2,-5.2205,-3.27649,0.502807,-0.265038,-0.0586927,-0.00550002,0.293493,0.0650883,0.00584126,0.0067974,0.00651032,5,0.1,5,9.2,-5.09831,0.930901,0.5,-0.00240803,0.32132,0,-0.000953674,0.0327229,0,0.00754651,0.160724,5,0.1,6,9.2,0.727427,-1.70782,1.04898,0.334318,-0.859329,0.000989437,-0.0739396,0.133872,-0.00089407,0.00928807,0.847372,5,0.1,7,9.2,0.195561,0.390171,0.616352,0.0276424,-0.866025,0.00350624,-0.00795722,-1.43051e-05,-0.000506639,0.0103868,2.27144,5,0.1,8,9.2,1.15039,4.84088,0.613434,-0.0856876,0.0751853,-0.0917286,0.164747,-0.142336,0.176758,0.010246,0.000883147,5,0.1,9,9.2,0.963367,1.58507,0.591888,0.476293,0.31341,-0.0297844,0.112623,0.42057,-0.0399053,0.00814727,0.541874,5,0.1
0,9.3,-0.540474,-1.25452,0.579384,-0.001531,-0.0105342,-0.000117812,0.0154786,0.0870153,0.000979751,0.00892462,0.000337131,5,0.1,1,9.3,1.28562,-2.4,0.599996,-0.356447,-1.56462e-05,9.31323e-08,-0.0838637,-0.000804663,3.72529e-06,0.0262326,0.110789,5,0.1,2,9.3,-3.58958,-3.18014,0.568585,-0.00304356,-0.00364073,0.000100769,0.0234842,-0.0642687,0.00596792,0.0088073,0.000375679,5,0.1,3,9.3,-1.54704,4.24668,0.627093,-0.865967,0.237409,0.0174769,0.00228733,-0.0561774,-0.00451878,0.0110696,1.66834,5,0.1,4,9.3,-5.24556,-3.28204,0.502286,-0.236195,-0.0523079,-0.00492446,0.286996,0.0634342,0.00575185,0.0067974,0.00651032,5,0.1,5,9.3,-5.09856,0.963294,0.5,-0.00242963,0.326996,0,0.000506639,0.0608452,0,0.00754651,0.160724,5,0.1,6,9.3,0.760318,-1.79326,1.04907,0.321781,-0.850314,0.000907108,-0.177104,0.0881031,-0.00077486,0.00928807,0.847372,5,0.1,7,9.3,0.198298,0.303568,0.616702,0.0271773,-0.866025,0.00349451,-0.00298955,1.78814e-06,5.21541e-05,0.0103868,2.27144,5,0.1,8,9.3,1.14263,4.8477,0.605124,-0.0697378,0.0613742,-0.074697,0.15375,-0.133425,0.163522,0.010246,0.000883147,5,0.1,9,9.3,1.01158,1.61847,0.588713,0.487682,0.353777,-0.0336162,0.0911392,0.36373,-0.0345372,0.00814727,0.541874,5,0.1
0,9.4,-0.540558,-1.25518,0.579377,-0.000213087,-0.00306666,-3.42727e-05,0.0109076,0.0625253,0.000715256,0.0092849,0.000152332,5,0.1,1,9.4,1.24968,-2.40001,0.599996,-0.360879,-7.7486e-05,0,0.00971556,-0.000357628,2.98023e-05,0.0255954,0.209209,5,0.1,2,9.4,-3.58978,-3.18078,0.568622,-0.000983477,-0.00884533,0.000593066,0.0177622,-0.0401735,0.0038743,0.0105158,0.000145395,5,0.1,3,9.4,-1.63361,4.27009,0.628814,-0.865108,0.230122,0.0169069,0.0184178,-0.0970364,-0.00748038,0.007977,1.27404,5,0.1,4,9.4,-5.26773,-3.28695,0.501822,-0.207078,-0.0458717,-0.00433922,0.297546,0.0655651,0.00604987,0.00701689,0.00197042,5,0.1,5,9.4,-5.0988,0.99621,0.5,-0.00231266,0.330089,0,0.00166893,-0.012964,0,0.00866943,0.790624,5,0.1,6,9.4,0.79144,-1.87765,1.04916,0.298975,-0.83465,0.000828505,-0.277936,0.254035,-0.000834465,0.0118,0.619896,5,0.1,7,9.4,0.200998,0.216966,0.617051,0.0267621,-0.866025,0.00347793,-0.00647455,0,-0.000476837,0.0111983,2.27146,5,0.1,8,9.4,1.1364,4.85319,0.598447,-0.05503,0.0485897,-0.0590906,0.140011,-0.122309,0.148326,0.00782287,0.000767155,5,0.1,9,9.4,1.06061,1.65542,0.585202,0.490487,0.382295,-0.0363246,-0.0513196,0.191092,-0.0181496,0.00833835,0.379331,5,0.1
0,9.5,-0.54053,-1.2552,0.579377,0.000698213,0.00221543,2.61702e-05,0.0073649,0.0433475,0.000495464,0.0092849,0.000152332,5,0.1,1,9.5,1.21348,-2.40002,0.599996,-0.363917,-0.000102445,2.51457e-06,-0.0466481,-0.00013411,1.86265e-05,0.0255954,0.209209,5,0.1,2,9.5,-3.58979,-3.18184,0.568698,0.000562146,-0.0119586,0.000902265,0.0130981,-0.0223666,0.00233203,0.0105158,0.000145395,5,0.1,3,9.5,-1.72011,4.29265,0.63047,-0.865217,0.221367,0.0162315,0.000178814,-0.0867844,-0.00666082,0.007977,1.27404,5,0.1,4,9.5,-5.28697,-3.29121,0.501418,-0.177854,-0.0394326,-0.00374345,0.287622,0.0633746,0.00588223,0.00701689,0.00197042,5,0.1,5,9.5,-5.09902,1.02983,0.5,-0.0021182,0.347647,0,0.00217557,0.308711,0,0.00866943,0.790624,5,0.1,6,9.5,0.81969,-1.95998,1.04924,0.263774,-0.812222,0.000752322,-0.413299,0.228167,-0.000707805,0.0118,0.619896,5,0.1,7,9.5,0.203654,0.130363,0.617398,0.0264357,-0.866025,0.00346769,-0.00168756,-1.49012e-07,5.96046e-05,0.0111983,2.27146,5,0.1,8,9.5,1.13158,4.85746,0.593252,-0.0418046,0.0370204,-0.0451088,0.123985,-0.1086,0.130884,0.00782287,0.000767155,5,0.1,9,9.5,1.10943,1.69456,0.581483,0.485512,0.399606,-0.0379696,-0.0675842,0.136822,-0.0130162,0.00833835,0.379331,5,0.1
0,9.6,-0.540429,-1.2548,0.579382,0.00127107,0.00565648,6.55651e-05,0.00417233,0.0257492,0.000298023,0.0087981,5.16136e-05,5,0.1,1,9.6,1.17692,-2.40003,0.599997,-0.366127,-0.000107288,2.98023e-06,0.0193715,0,2.98023e-05,0.0272275,0.908715,5,0.1,2,9.6,-3.58968,-3.18312,0.568797,0.00163913,-0.0133872,0.00106394,0.00834465,-0.00655651,0.000923872,0.00742635,4.3263e-05,5,0.1,3,9.6,-1.80652,4.31431,0.632057,-0.861359,0.211298,0.0154689,0.0932813,-0.120163,-0.00908971,0.00812816,0.944565,5,0.1,4,9.6,-5.30333,-3.29484,0.501073,-0.149477,-0.0331759,-0.00316054,0.280142,0.0617504,0.00578165,0.00720677,0.000922176,5,0.1,5,9.6,-5.09922,1.06629,0.5,-0.00187159,0.382122,0,0.00238419,0.33915,0,0.0102254,1.44388,5,0.1,6,9.6,0.843866,-2.03988,1.04931,0.218663,-0.783342,0.000682473,-0.478327,0.37241,-0.00077486,0.0099402,0.247844,5,0.1,7,9.6,0.206286,0.0437608,0.617744,0.0261445,-0.866025,0.0034526,-0.00530481,-1.19209e-06,-0.000506639,0.0115626,2.27147,5,0.1,8,9.6,1.12798,4.86065,0.589364,-0.0303119,0.0269413,-0.0329822,0.105441,-0.0925064,0.111401,0.00639483,0.000597675,5,0.1,9,9.6,1.15748,1.73499,0.577641,0.473726,0.40662,-0.0386372,-0.181139,-0.00864267,0.000804663,0.00808035,0.257457,5,0.1
0,9.7,-0.540285,-1.25412,0.579389,0.00156844,0.00757165,8.76375e-05,0.00185147,0.0129342,0.000152737,0.0087981,5.16136e-05,5,0.1,1,9.7,1.14002,-2.40014,0.599683,-0.374872,-0.00308976,-0.00890326,-0.155695,-0.0530183,-0.158355,0.0272275,0.908715,5,0.1,2,9.7,-3.58948,-3.18447,0.568907,0.00229664,-0.0134841,0.00110632,0.00484288,0.00414252,-4.09782e-05,0.00742635,4.3263e-05,5,0.1,3,9.7,-1.89245,4.33488,0.633562,-0.858685,0.200223,0.0146328,0.00834465,-0.10851,-0.00815839,0.00812816,0.944565,5,0.1,4,9.7,-5.31691,-3.29786,0.500786,-0.122419,-0.0272088,-0.0025983,0.260532,0.0574887,0.00544265,0.00720677,0.000922176,5,0.1,5,9.7,-5.09939,1.10694,0.5,-0.0016287,0.436363,0,0.0025034,0.673436,0,0.0102254,1.44388,5,0.1,6,9.7,0.863305,-2.11631,1.04938,0.170001,-0.744564,0.000612438,-0.486229,0.420824,-0.00064075,0.0099402,0.247844,5,0.1,7,9.7,0.208885,-0.0428418,0.618089,0.0259216,-0.866025,0.00343928,-0.000769272,-5.96046e-07,2.6077e-05,0.0115626,2.27147,5,0.1,8,9.7,1.12545,4.8629,0.586593,-0.0206167,0.0184231,-0.0227443,0.0881627,-0.0775754,0.0931136,0.00639483,0.000597675,5,0.1,9,9.7,1.20399,1.7756,0.573783,0.456403,0.404846,-0.0384705,-0.181235,-0.0417009,0.00394136,0.00808035,0.257457,5,0.1
0,9.8,-0.540123,-1.25332,0.579399,0.00165552,0.00832081,9.68575e-05,0,0.00244379,0,0.00905682,1.56129e-05,5,0.1,1,9.8,1.10172,-2.40076,0.597874,-0.390568,-0.00953078,-0.0281483,-0.129759,-0.0706911,-0.211179,0.0249378,1.37508,5,0.1,2,9.8,-3.58923,-3.18578,0.569016,0.0026226,-0.0126481,0.00106245,0.00166893,0.0122786,-0.000804663,0.00816236,1.63471e-05,5,0.1,3,9.8,-1.97809,4.35433,0.634982,-0.851491,0.188398,0.0137493,0.169218,-0.132799,-0.00986457,0.0112868,0.674984,5,0.1,4,9.8,-5.32788,-3.3003,0.500552,-0.0974655,-0.0217021,-0.00207424,0.237703,0.0525713,0.00500679,0.00680665,0.000756096,5,0.1,5,9.8,-5.09954,1.15401,0.5,-0.00137091,0.504211,0,0.00238419,0.629902,0,0.00752317,1.19016,5,0.1,6,9.8,0.87792,-2.18847,1.04943,0.122932,-0.696307,0.000551343,-0.448614,0.555515,-0.000596046,0.011005,0.345735,5,0.1,7,9.8,0.21147,-0.129444,0.618432,0.0257138,-0.866025,0.0034228,-0.0045374,0,-0.000566244,0.0114218,2.27148,5,0.1,8,9.8,1.1238,4.86438,0.584752,-0.0127167,0.011456,-0.0143915,0.0696778,-0.061512,0.0738502,0.00732564,0.00035774,5,0.1,9,9.8,1.24862,1.81572,0.569971,0.434819,0.395814,-0.037615,-0.261188,-0.148654,0.0140965,0.00723319,0.171603,5,0.1
0,9.9,-0.539959,-1.25249,0.579408,0.00158921,0.00819024,9.31323e-05,-0.0012517,-0.00465661,-6.70552e-05,0.00905682,1.56129e-05,5,0.1,1,9.9,1.06123,-2.40191,0.594201,-0.425574,-0.0122156,-0.0434639,-0.500739,0.00993907,-0.100039,0.0249378,1.37508,5,0.1,2,9.9,-3.58897,-3.18698,0.569117,0.00267774,-0.0111621,0.00095712,-0.000506639,0.0170022,-0.00126287,0.00816236,1.63471e-05,5,0.1,3,9.9,-2.06255,4.37255,0.636311,-0.838192,0.176125,0.0128392,0.135295,-0.118583,-0.00876933,0.0112868,0.674984,5,0.1,4,9.9,-5.33648,-3.30221,0.500369,-0.0749961,-0.0167299,-0.00159377,0.210941,0.0467151,0.00457838,0.00680665,0.000756096,5,0.1,5,9.9,-5.09967,1.2071,0.5,-0.00113323,0.552511,0,0.00235438,0.327945,0,0.00752317,1.19016,5,0.1,6,9.9,0.888079,-2.25555,1.04949,0.0814212,-0.646918,0.000497885,-0.377722,0.457481,-0.000499189,0.011005,0.345735,5,0.1,7,9.9,0.21403,-0.216047,0.618773,0.0255551,-0.866025,0.00340417,-0.000231899,-8.9407e-07,-1.49012e-05,0.0114218,2.27148,5,0.1,8,9.9,1.12285,4.86524,0.583655,-0.00652075,0.00597537,-0.00781752,0.0541955,-0.0480413,0.0576153,0.00732564,0.00035774,5,0.1,9,9.9,1.29085,1.85457,0.566278,0.410176,0.381115,-0.0362213,-0.244908,-0.15761,0.0149496,0.00723319,0.171603,5,0.1
0,10,-0.539808,-1.2517,0.579417,0.00142157,0.00746846,8.34465e-05,-0.00208616,-0.00947714,-0.000119209,0.0096359,8.70777e-06,5,0.1,1,10,1.01602,-2.403,0.589504,-0.478539,-0.00882149,-0.0490859,-0.506461,0.0523329,-0.0168085,0.0279118,1.09811,5,0.1,2,10,-3.5887,-3.188,0.569206,0.00254512,-0.00932813,0.000816584,-0.00226498,0.0191927,-0.00151992,0.00797819,1.42926e-05,5,0.1,3,10,-2.14549,4.38955,0.63755,-0.817919,0.163686,0.0119224,0.296831,-0.13423,-0.00986457,0.00851045,0.469547,5,0.1,4,10,-5.34298,-3.30366,0.500232,-0.0553846,-0.0123858,-0.00116378,0.18096,0.0401735,0.00396371,0.00891958,0.000599159,5,0.1,5,10,-5.09977,1.26344,0.5,-0.00089407,0.568688,0,0.00214577,-0.00733137,0,0.0106157,1.09375,5,0.1,6,10,0.894474,-2.31795,1.04953,0.0479653,-0.600523,0.000450015,-0.289559,0.488281,-0.000476837,0.0110589,1.84543,5,0.1,7,10,0.216581,-0.302649,0.619113,0.0253942,-0.866025,0.00338256,-0.00412017,-1.43051e-05,-0.000536442,0.01032,2.27149,5,0.1,8,10,1.12245,4.86562,0.583134,-0.00187457,0.00184774,-0.00285953,0.0388622,-0.0345707,0.0416338,0.00745799,0.000161979,5,0.1,9,10,1.33059,1.8918,0.56274,0.383621,0.36225,-0.0344306,-0.295103,-0.227869,0.0216365,0.00681375,0.113489,5,0.1
