id,t,px,py,pz,vx,vy,vz,ax,ay,az,planning_time,qp_cost,planning_report,size,id,t,px,py,pz,vx,vy,vz,ax,ay,az,planning_time,qp_cost,planning_report,size,id,t,px,py,pz,vx,vy,vz,ax,ay,az,planning_time,qp_cost,planning_report,size,id,t,px,py,pz,vx,vy,vz,ax,ay,az,planning_time,qp_cost,planning_report,size,id,t,px,py,pz,vx,vy,vz,ax,ay,az,planning_time,qp_cost,planning_report,size,id,t,px,py,pz,vx,vy,vz,ax,ay,az,planning_time,qp_cost,planning_report,size,id,t,px,py,pz,vx,vy,vz,ax,ay,az,planning_time,qp_cost,planning_report,size,id,t,px,py,pz,vx,vy,vz,ax,ay,az,planning_time,qp_cost,planning_report,size,id,t,px,py,pz,vx,vy,vz,ax,ay,az,planning_time,qp_cost,planning_report,size,id,t,px,py,pz,vx,vy,vz,ax,ay,az,planning_time,qp_cost,planning_report,size
0,0,-1.70228,-4.71739,0.631404,0,0,0,0,0,0,0.0195564,3.5122,5,0.1,1,0,-1.83232,1.78201,0.618205,0,0,0,0,0,0,0.021196,0.833337,5,0.1,2,0,2.31951,-2.66492,0.5671,0,0,0,0,0,0,0.0125665,3.5122,5,0.1,3,0,-3.7509,5.36727,0.586656,0,0,0,0,0,0,0.0200665,3.51219,5,0.1,4,0,-3.63797,1.83411,0.679752,0,0,0,0,0,0,0.022372,0.52349,5,0.1,5,0,4.23613,-5.7455,0.519452,0,0,0,0,0,0,0.0147924,2.88371,5,0.1,6,0,-4.72021,-3.8724,0.696987,0,0,0,0,0,0,0.0119204,3.08677,5,0.1,7,0,-5.59291,-0.798407,0.574951,0,0,0,0,0,0,0.0113214,2.21055,5,0.1,8,0,1.33997,1.8908,0.514008,0,0,0,0,0,0,0.00817575,3.4782,5,0.1,9,0,0.720454,2.77587,0.579932,0,0,0,0,0,0,0.0108404,3.51219,5,0.1
0,0.1,-1.7022,-4.71533,0.6317,0.00236351,0.0586219,0.00839587,0.0420138,1.04222,0.149265,0.0195564,3.5122,5,0.1,1,0.1,-1.83134,1.78172,0.618186,0.0276282,-0.00835713,-0.000539422,0.491172,-0.148572,-0.0095889,0.021196,0.833337,5,0.1,2,0.1,2.31747,-2.66448,0.567125,-0.0579312,0.0124939,0.000727549,-1.02991,0.222117,0.0129342,0.0125665,3.5122,5,0.1,3,0.1,-3.7521,5.36556,0.586534,-0.0340499,-0.0483893,-0.00344897,-0.605315,-0.860244,-0.0613146,0.0200665,3.51219,5,0.1,4,0.1,-3.63777,1.83377,0.680452,0.00557005,-0.00990108,0.0198622,0.0990331,-0.176027,0.353102,0.022372,0.52349,5,0.1,5,0.1,4.23547,-5.74373,0.519379,-0.0188515,0.050246,-0.00205813,-0.335097,0.893265,-0.0365861,0.0147924,2.88371,5,0.1,6,0.1,-4.71826,-3.87227,0.697042,0.0554219,0.00362732,0.00157095,0.985324,0.0644773,0.0279248,0.0119204,3.08677,5,0.1,7,0.1,-5.5913,-0.798043,0.57482,0.0457227,0.0103247,-0.00370285,0.812829,0.183549,-0.0658296,0.0113214,2.21055,5,0.1,8,0.1,1.3379,1.89088,0.514064,-0.0589216,0.00211746,0.00157682,-1.0475,0.0376403,0.0280328,0.00817575,3.4782,5,0.1,9,0.1,0.719924,2.77386,0.579951,-0.0150299,-0.0573285,0.000528712,-0.267193,-1.01918,0.00939891,0.0108404,3.51219,5,0.1
0,0.2,-1.70172,-4.70342,0.633405,0.00746846,0.185275,0.026536,0.0560284,1.3895,0.19899,0.0215289,2.92594,5,0.1,1,0.2,-1.82573,1.78002,0.618077,0.0873178,-0.0264138,-0.00170618,0.654936,-0.198066,-0.0127554,0.0137738,0.68371,5,0.1,2,0.2,2.3057,-2.66194,0.567273,-0.183094,0.0394881,0.00229925,-1.37329,0.295997,0.0172555,0.0179878,2.92579,5,0.1,3,0.2,-3.75902,5.35574,0.585834,-0.10761,-0.152934,-0.0109002,-0.807166,-1.14703,-0.0817776,0.0256264,2.92578,5,0.1,4,0.2,-3.63664,1.83175,0.684486,0.0176013,-0.0312924,0.0627756,0.132084,-0.234723,0.470787,0.0255154,0.429497,5,0.1,5,0.2,4.23164,-5.73353,0.518961,-0.0595808,0.158799,-0.00650585,-0.446796,1.1909,-0.0487566,0.0118076,2.36595,5,0.1,6,0.2,-4.707,-3.87154,0.697361,0.175154,0.0114679,0.00496507,1.31392,0.0858307,0.0372529,0.0159094,2.53253,5,0.1,7,0.2,-5.58201,-0.795946,0.574068,0.144506,0.0326306,-0.0117034,1.08385,0.244766,-0.087738,0.00697634,1.81364,5,0.1,8,0.2,1.32593,1.89131,0.514384,-0.186223,0.0066936,0.00498295,-1.39666,0.0501871,0.0374019,0.00809483,2.85369,5,0.1,9,0.2,0.716871,2.76221,0.580058,-0.0475019,-0.181186,0.00167191,-0.356287,-1.35887,0.012517,0.0122998,2.9258,5,0.1
0,0.3,-1.70066,-4.6772,0.637165,0.0139121,0.344062,0.0494227,0.0688583,1.68961,0.244573,0.0215289,2.92594,5,0.1,1,0.3,-1.81336,1.77628,0.617835,0.162445,-0.0491353,-0.00317041,0.801407,-0.24239,-0.0156313,0.0137738,0.68371,5,0.1,2,0.3,2.27975,-2.65634,0.567599,-0.341031,0.0735357,0.00428353,-1.68769,0.363857,0.0212044,0.0179878,2.92579,5,0.1,3,0.3,-3.77427,5.33406,0.584289,-0.20044,-0.284851,-0.0203044,-0.99194,-1.40968,-0.10049,0.0256264,2.92578,5,0.1,4,0.3,-3.63415,1.82732,0.693377,0.0327509,-0.058217,0.116781,0.161603,-0.287205,0.576109,0.0255154,0.429497,5,0.1,5,0.3,4.2232,-5.71104,0.51804,-0.110836,0.295412,-0.0120996,-0.546753,1.4573,-0.0596829,0.0118076,2.36595,5,0.1,6,0.3,-4.6822,-3.86991,0.698064,0.32587,0.0213187,0.00923788,1.60769,0.105128,0.0455789,0.0159094,2.53253,5,0.1,7,0.3,-5.56154,-0.791324,0.572411,0.268833,0.0607068,-0.0217691,1.32626,0.299498,-0.107385,0.00697634,1.81364,5,0.1,8,0.3,1.29956,1.89226,0.51509,-0.346435,0.0124512,0.00927253,-1.70905,0.0614151,0.0457577,0.00809483,2.85369,5,0.1,9,0.3,0.71014,2.73653,0.580295,-0.0884773,-0.337469,0.00311211,-0.437856,-1.67005,0.0153929,0.0122998,2.9258,5,0.1
0,0.4,-1.69893,-4.63451,0.64331,0.0205457,0.506401,0.0729874,0.0608563,1.48582,0.216246,0.0221145,2.78306,5,0.1,1,0.4,-1.79318,1.77018,0.617442,0.239572,-0.0724643,-0.00467598,0.706971,-0.213802,-0.0137687,0.0142391,0.540959,5,0.1,2,0.4,2.23735,-2.6472,0.568132,-0.503635,0.108594,0.00632554,-1.49214,0.321865,0.0187755,0.0127965,2.7555,5,0.1,3,0.4,-3.79919,5.29865,0.581765,-0.296009,-0.420666,-0.0299856,-0.877023,-1.24645,-0.0888407,0.0131499,2.51006,5,0.1,4,0.4,-3.63008,1.82009,0.707884,0.0483036,-0.0858575,0.172225,0.142574,-0.253379,0.508249,0.0387595,0.339822,5,0.1,5,0.4,4.20943,-5.67434,0.516537,-0.163448,0.435662,-0.0178441,-0.482559,1.28579,-0.0526309,0.0192309,1.87206,5,0.1,6,0.4,-4.64171,-3.86727,0.699212,0.480592,0.0314355,0.0136241,1.41811,0.092864,0.0402033,0.0123451,2.00375,5,0.1,7,0.4,-5.52815,-0.783782,0.569706,0.396466,0.0895292,-0.0321046,1.17016,0.264227,-0.0947118,0.0112684,1.53745,5,0.1,8,0.4,1.25652,1.8938,0.516242,-0.510913,0.0183612,0.0136763,-1.50782,0.0541806,0.0403225,0.00830169,2.25919,5,0.1,9,0.4,0.69914,2.69458,0.580682,-0.130664,-0.498372,0.00459552,-0.387132,-1.47665,0.0135899,0.010403,2.51076,5,0.1
0,0.5,-1.69656,-4.57801,0.65172,0.0268085,0.608934,0.0952398,0.0611767,0.610888,0.217363,0.0221145,2.78306,5,0.1,1,0.5,-1.76563,1.76184,0.616904,0.311302,-0.0941578,-0.00607381,0.692427,-0.209421,-0.0135042,0.0142391,0.540959,5,0.1,2,0.5,2.18105,-2.63469,0.568861,-0.608303,0.141713,0.00825683,-0.643253,0.323489,0.0188537,0.0127965,2.7555,5,0.1,3,0.5,-3.8333,5.25017,0.578309,-0.386256,-0.548927,-0.0391275,-0.881508,-1.25283,-0.0892952,0.0131499,2.51006,5,0.1,4,0.5,-3.62452,1.81021,0.727695,0.0627678,-0.111565,0.223792,0.139639,-0.248156,0.497803,0.0387595,0.339822,5,0.1,5,0.5,4.19063,-5.62423,0.514512,-0.212404,0.566118,-0.0223922,-0.472605,1.25936,-0.037469,0.0192309,1.87206,5,0.1,6,0.5,-4.58643,-3.86365,0.700779,0.624476,0.0408579,0.017703,1.38897,0.0909418,0.0393763,0.0123451,2.00375,5,0.1,7,0.5,-5.4835,-0.773484,0.566014,0.488023,0.116337,-0.0417151,0.663072,0.258781,-0.0927821,0.0112684,1.53745,5,0.1,8,0.5,1.19787,1.89592,0.517815,-0.660552,0.0238586,0.017768,-1.41616,0.053063,0.039503,0.00830169,2.25919,5,0.1,9,0.5,0.684083,2.63723,0.581211,-0.170501,-0.647916,0.00599492,-0.389121,-1.44058,0.0136718,0.010403,2.51076,5,0.1
0,0.6,-1.69359,-4.5152,0.662256,0.0322312,0.636911,0.114504,0.0449419,-0.0140667,0.159889,0.0215849,2.82473,5,0.1,1,0.6,-1.7313,1.75146,0.616234,0.372067,-0.11254,-0.00725985,0.498056,-0.150621,-0.00971556,0.0213367,0.402732,5,0.1,2,0.6,2.11812,-2.61901,0.569774,-0.639933,0.170392,0.00992864,-0.0237226,0.237823,0.0138283,0.0117338,2.78706,5,0.1,3,0.6,-3.87603,5.18945,0.573981,-0.464392,-0.659966,-0.0470415,-0.648141,-0.921249,-0.0656545,0.0151141,2.25644,5,0.1,4,0.6,-3.6176,1.79791,0.752375,0.0750184,-0.133342,0.267477,0.100493,-0.178516,0.358105,0.0256095,0.252989,5,0.1,5,0.6,4.1672,-5.56179,0.512116,-0.253868,0.676632,-0.0252038,-0.340223,0.905991,-0.0183284,0.0153377,1.39426,5,0.1,6,0.6,-4.51756,-3.85914,0.702731,0.746369,0.04884,0.0211582,0.998974,0.0654459,0.0283122,0.0145751,1.51243,5,0.1,7,0.6,-5.4322,-0.760654,0.561413,0.529897,0.139046,-0.0498578,0.180483,0.186175,-0.0667572,0.0076433,1.11587,5,0.1,8,0.6,1.12534,1.89855,0.519774,-0.782636,0.0285149,0.0212342,-0.979125,0.0382066,0.0284314,0.00965961,1.77226,5,0.1,9,0.6,0.665222,2.56579,0.581874,-0.204989,-0.774062,0.0072062,-0.286162,-1.03152,0.0100732,0.00989403,2.35672,5,0.1
0,0.7,-1.69014,-4.45281,0.674516,0.0367377,0.601324,0.13053,0.0423491,-0.590861,0.15058,0.0215849,2.82473,5,0.1,1,0.7,-1.69164,1.73946,0.61546,0.419884,-0.127001,-0.00819303,0.430934,-0.130333,-0.00841171,0.0213367,0.402732,5,0.1,2,0.7,2.05526,-2.60077,0.570837,-0.607703,0.194209,0.0113138,0.562944,0.223592,0.013005,0.0117338,2.78706,5,0.1,3,0.7,-3.92517,5.11879,0.568944,-0.513065,-0.752444,-0.0536324,-0.320703,-0.86996,-0.062,0.0151141,2.25644,5,0.1,4,0.7,-3.6096,1.7837,0.780883,0.0846647,-0.150479,0.301857,0.0869036,-0.154451,0.30984,0.0256095,0.252989,5,0.1,5,0.7,4.14015,-5.48968,0.509557,-0.286525,0.763609,-0.0254937,-0.294298,0.783831,0.0107624,0.0153377,1.39426,5,0.1,6,0.7,-4.43861,-3.85394,0.704986,0.825689,0.055122,0.0238764,0.573426,0.0566095,0.0244938,0.0145751,1.51243,5,0.1,7,0.7,-5.37936,-0.745835,0.556099,0.517308,0.156919,-0.0562673,-0.390917,0.161067,-0.0577681,0.0076433,1.11587,5,0.1,8,0.7,1.04325,1.90114,0.522011,-0.849198,0.0195563,0.0232026,-0.380643,-0.191405,0.0110716,0.00965961,1.77226,5,0.1,9,0.7,0.64281,2.48428,0.58269,-0.246875,-0.846113,0.00947295,-0.504192,-0.431851,0.0318326,0.00989403,2.35672,5,0.1
0,0.8,-1.68628,-4.39591,0.688239,0.0402212,0.535583,0.142916,0.0253916,-0.662565,0.090152,0.019201,2.89521,5,0.1,1,0.8,-1.64779,1.7262,0.614605,0.453672,-0.137222,-0.00885278,0.226259,-0.0684261,-0.00441074,0.0142413,0.284355,5,0.1,2,0.8,1.9976,-2.58035,0.572026,-0.543982,0.21258,0.0123814,0.650585,0.133634,0.00777841,0.0195262,2.85435,5,0.1,3,0.8,-3.97751,5.03967,0.563305,-0.528061,-0.824094,-0.0587374,0.0207424,-0.522375,-0.0372529,0.0197068,1.3067,5,0.1,4,0.8,-3.60076,1.76798,0.812406,0.0914812,-0.162587,0.326148,0.0455379,-0.0811815,0.16275,0.0238293,0.178624,5,0.1,5,0.8,4.11022,-5.40993,0.507098,-0.309587,0.825071,-0.0233829,-0.154734,0.411272,0.0299215,0.016268,1.15242,5,0.1,6,0.8,-4.35394,-3.84818,0.70748,0.860083,0.0595629,0.0257969,0.118732,0.0298023,0.0128746,0.0117395,1.10731,5,0.1,7,0.8,-5.33025,-0.729448,0.550223,0.459313,0.169547,-0.0607952,-0.734329,0.0845492,-0.0303686,0.0085018,1.04352,5,0.1,8,0.8,0.95717,1.90194,0.524359,-0.866026,-0.00512898,0.0234872,0,-0.28199,-0.005126,0.0110308,1.45439,5,0.1,9,0.8,0.615562,2.39831,0.583809,-0.297563,-0.866026,0.0129685,-0.474274,0,0.0354946,0.0107525,2.40362,5,0.1
0,0.9,-1.68213,-4.3457,0.702996,0.0428194,0.471817,0.15214,0.0239238,-0.479519,0.0849366,0.019201,2.89521,5,0.1,1,0.9,-1.60135,1.71215,0.613698,0.474175,-0.143423,-0.00925297,0.162087,-0.0490248,-0.00317022,0.0142413,0.284355,5,0.1,2,0.9,1.94653,-2.55841,0.573304,-0.480558,0.226101,0.0131682,0.48469,0.123143,0.00717118,0.0195262,2.85435,5,0.1,3,0.9,-4.02939,4.95525,0.557866,-0.501934,-0.858487,-0.0447254,0.469506,-0.178337,0.281762,0.0197068,1.3067,5,0.1,4,0.9,-3.5914,1.75134,0.845797,0.0956081,-0.169942,0.340895,0.0326335,-0.0581443,0.116579,0.0238293,0.178624,5,0.1,5,0.9,4.07853,-5.32673,0.504931,-0.323603,0.826544,-0.019762,-0.110805,-0.340462,0.0410937,0.016268,1.15242,5,0.1,6,0.9,-4.26757,-3.84208,0.710121,0.865278,0.0622623,0.0269636,-5.96046e-05,0.0213385,0.00922009,0.0117395,1.10731,5,0.1,7,0.9,-5.28845,-0.71209,0.543999,0.373171,0.177208,-0.063547,-0.9453,0.0605583,-0.021752,0.0085018,1.04352,5,0.1,8,0.9,0.870909,1.89943,0.526611,-0.855434,-0.0498494,0.0209437,0.224866,-0.566401,-0.0420548,0.0110308,1.45439,5,0.1,9,0.9,0.582904,2.31195,0.585353,-0.359365,-0.858291,0.0184369,-0.701986,0.17406,0.0679232,0.0107525,2.40362,5,0.1
0,1,-1.67775,-4.3,0.718563,0.0445604,0.451446,0.158314,0.0090003,0.0567436,0.0320673,0.0243638,2.75334,5,0.1,1,1,-1.55337,1.69764,0.612762,0.482479,-0.145936,-0.00941604,-0.0104904,0.00315905,0.000208616,0.0161847,0.193376,5,0.1,2,1,1.9,-2.53529,0.57465,-0.45892,0.234908,0.0136808,-0.0375509,0.0437498,0.0025332,0.0123796,2.7266,5,0.1,3,1,-4.07671,4.86895,0.555086,-0.440121,-0.863802,-0.00877231,0.739574,0.0441074,0.409156,0.0207256,1.46134,5,0.1,4,1,-3.58172,1.73414,0.880289,0.0972748,-0.172919,0.346868,-0.00202656,0.00369549,-0.00748038,0.0249347,0.12147,5,0.1,5,1,4.04578,-5.24673,0.503169,-0.329268,0.76474,-0.0154182,0.00691414,-0.858784,0.0446737,0.020393,0.999428,5,0.1,6,1,-4.18121,-3.83578,0.712849,0.860035,0.0633597,0.027436,-0.119686,-0.00143051,-0.000596046,0.0171703,0.809581,5,0.1,7,1,-5.25592,-0.69416,0.537569,0.27765,0.18031,-0.0646636,-0.934362,-0.00393391,0.00140071,0.00625306,1.00167,5,0.1,8,1,0.786945,1.89145,0.528459,-0.819121,-0.110292,0.0157416,0.507653,-0.607371,-0.0590682,0.00666115,1.29781,5,0.1,9,1,0.543486,2.22741,0.587549,-0.427568,-0.828153,0.0255078,-0.617951,0.440001,0.0689626,0.00989834,2.4343,5,0.1
0,1.1,-1.67324,-4.25321,0.734582,0.0456266,0.495248,0.162108,0.00979006,0.713646,0.0347905,0.0243638,2.75334,5,0.1,1,1.1,-1.50519,1.68307,0.611822,0.480359,-0.145296,-0.00937469,-0.0495613,0.0149757,0.000968575,0.0161847,0.193376,5,0.1,2,1.1,1.85258,-2.51171,0.576033,-0.500357,0.235323,0.0139639,-0.686869,-0.0379682,0.00240654,0.0123796,2.7266,5,0.1,3,1.1,-4.11673,4.7826,0.556486,-0.358005,-0.864232,0.0384008,0.876009,-0.0168383,0.507589,0.0207256,1.46134,5,0.1,4,1.1,-3.57201,1.71688,0.914924,0.0968538,-0.172164,0.345348,-0.00995398,0.0177324,-0.0356063,0.0249347,0.12147,5,0.1,5,1.1,4.01291,-5.17538,0.501849,-0.327838,0.655409,-0.0110315,0.0337511,-1.26907,0.0422522,0.020393,0.999428,5,0.1,6,1.1,-4.09559,-3.82946,0.715588,0.853261,0.0630766,0.0273153,-0.0597835,-0.00652671,-0.00281632,0.0171703,0.809581,5,0.1,7,1.1,-5.23275,-0.676156,0.531124,0.187722,0.179516,-0.0640403,-0.822306,-0.018537,0.0126734,0.00625306,1.00167,5,0.1,8,1.1,0.708029,1.87733,0.529674,-0.754902,-0.171996,0.00805678,0.76507,-0.600338,-0.0894405,0.00666115,1.29781,5,0.1,9,1.1,0.497443,2.14625,0.590467,-0.493856,-0.799231,0.0329327,-0.653522,0.188395,0.0743642,0.00989834,2.4343,5,0.1
0,1.2,-1.66864,-4.19975,0.750911,0.0460863,0.575614,0.163746,-0.00232458,0.813723,-0.00828505,0.0205159,2.47743,5,0.1,1,1.2,-1.45759,1.66867,0.610893,0.46964,-0.142056,-0.00916719,-0.17643,0.0533462,0.00348687,0.0133571,0.12859,5,0.1,2,1.2,1.79874,-2.48852,0.577436,-0.577959,0.226974,0.0140384,-0.786066,-0.1297,-0.00137091,0.010801,1.97832,5,0.1,3,1.2,-4.14811,4.69621,0.562845,-0.269616,-0.861681,0.0880823,0.872135,0.0867844,0.466108,0.0190385,2.27504,5,0.1,4,1.2,-3.56241,1.69982,0.949149,0.0946939,-0.168324,0.337644,-0.0355244,0.0632405,-0.126868,0.0193736,0.170053,5,0.1,5,1.2,3.98042,-5.11647,0.500947,-0.320524,0.521183,-0.00710189,0.120401,-1.37162,0.035733,0.0111648,0.925969,5,0.1,6,1.2,-4.01076,-3.82321,0.718296,0.840616,0.061661,0.0267059,-0.224113,-0.0230074,-0.0100434,0.0171644,0.572609,5,0.1,7,1.2,-5.21764,-0.658365,0.524813,0.119221,0.175509,-0.0618711,-0.529289,-0.0659525,0.0316799,0.0121204,1.22265,5,0.1,8,1.2,0.636706,1.85732,0.530018,-0.668435,-0.225857,-0.00122935,0.952721,-0.458062,-0.0922978,0.0133664,1.19374,5,0.1,9,1.2,0.445093,2.06719,0.594106,-0.549144,-0.781733,0.0395089,-0.415192,0.199199,0.0536442,0.00851454,0.988512,5,0.1
0,1.3,-1.66403,-4.13749,0.767284,0.0461308,0.673579,0.163901,0.000722706,1.05819,0.0025481,0.0205159,2.47743,5,0.1,1,1.3,-1.41149,1.65473,0.609993,0.4522,-0.136783,-0.00882363,-0.186957,0.056535,0.00366941,0.0133571,0.12859,5,0.1,2,1.3,1.73656,-2.46673,0.578837,-0.668247,0.206673,0.0139983,-0.944003,-0.265419,-0.000193715,0.010801,1.97832,5,0.1,3,1.3,-4.17086,4.61013,0.573829,-0.187283,-0.862263,0.129827,0.763386,-0.0542998,0.360873,0.0190385,2.27504,5,0.1,4,1.3,-3.55296,1.68314,0.982293,0.0956263,-0.166517,0.325102,0.0413507,-0.011988,-0.134449,0.0193736,0.170053,5,0.1,5,1.3,3.94895,-5.07124,0.500401,-0.308619,0.384584,-0.00396352,0.127673,-1.30618,0.0267997,0.0111648,0.925969,5,0.1,6,1.3,-3.92768,-3.81715,0.720917,0.821422,0.0593834,0.0257134,-0.19519,-0.0244677,-0.0106432,0.0171644,0.572609,5,0.1,7,1.3,-5.20795,-0.641137,0.518852,0.080625,0.16899,-0.0567263,-0.184208,-0.0698902,0.0684187,0.0121204,1.22265,5,0.1,8,1.3,0.57477,1.83325,0.529426,-0.569129,-0.248136,-0.0106121,1.02196,-0.0155121,-0.0919886,0.0133664,1.19374,5,0.1,9,1.3,0.38885,1.99199,0.598413,-0.568563,-0.705158,0.047276,0.0142792,1.23238,0.0928938,0.00851454,0.988512,5,0.1
0,1.4,-1.65943,-4.06503,0.783646,0.0458091,0.772142,0.162756,-0.00882149,0.849962,-0.0315905,0.0185623,2.3084,5,0.1,1,1.4,-1.36732,1.64136,0.609131,0.429821,-0.130016,-0.00838637,-0.270247,0.0817776,0.00530481,0.0154663,0.176818,5,0.1,2,1.4,1.66526,-2.44753,0.580233,-0.753736,0.175893,0.01387,-0.711143,-0.340939,-0.00292063,0.0118903,0.156987,5,0.1,3,1.4,-4.18602,4.52367,0.588389,-0.118601,-0.866032,0.158991,0.604153,0.000238419,0.217617,0.01306,1.27617,5,0.1,4,1.4,-3.54315,1.6664,1.01405,0.100714,-0.168097,0.309011,0.0510216,-0.00846386,-0.194311,0.0236399,0.123892,5,0.1,5,1.4,3.91881,-5.03886,0.500123,-0.293338,0.268102,-0.00176132,0.184536,-0.99659,0.0172555,0.0110765,0.848276,5,0.1,6,1.4,-3.84671,-3.81135,0.723429,0.795603,0.0564516,0.0244409,-0.345469,-0.0354052,-0.0154078,0.0126787,0.804997,5,0.1,7,1.4,-5.2,-0.62463,0.513563,0.0859976,0.160626,-0.0487074,0.269413,-0.10103,0.0896156,0.00835609,1.78918,5,0.1,8,1.4,0.523001,1.8089,0.527928,-0.466162,-0.234133,-0.0190511,1.02763,0.271678,-0.0743568,0.0168409,1.05451,5,0.1,9,1.4,0.332685,1.92865,0.60361,-0.548851,-0.55331,0.0565529,0.366822,1.724,0.0860989,0.0110871,0.359541,5,0.1
0,1.5,-1.65488,-3.9842,0.799816,0.0453001,0.837826,0.160928,-0.00383705,0.452995,-0.0137947,0.0185623,2.3084,5,0.1,1,1.5,-1.32548,1.62876,0.608318,0.408488,-0.122216,-0.00788122,-0.178494,0.0779107,0.00503659,0.0154663,0.176818,5,0.1,2,1.5,1.58745,-2.43171,0.581618,-0.791952,0.140186,0.0139363,-0.0715181,-0.365809,0.00295043,0.0118903,0.156987,5,0.1,3,1.5,-4.19495,4.43722,0.604839,-0.0633754,-0.86075,0.165172,0.409573,0.130266,-0.0730976,0.01306,1.27617,5,0.1,4,1.5,-3.53275,1.64947,1.04402,0.107614,-0.170941,0.290477,0.0771135,-0.0365973,-0.185162,0.0236399,0.123892,5,0.1,5,1.5,3.89036,-5.01648,0.500018,-0.275734,0.186279,-0.000478514,0.175878,-0.59557,0.00889599,0.0110765,0.848276,5,0.1,6,1.5,-3.76844,-3.80588,0.725799,0.772835,0.053072,0.0229718,-0.158519,-0.033766,-0.0146702,0.0126787,0.804997,5,0.1,7,1.5,-5.18989,-0.609053,0.50916,0.117522,0.150989,-0.0392076,0.345916,-0.0962652,0.0982806,0.00835609,1.78918,5,0.1,8,1.5,0.480935,1.78686,0.525693,-0.38041,-0.206316,-0.0252101,0.711778,0.284359,-0.0484549,0.0168409,1.05451,5,0.1,9,1.5,0.279625,1.88208,0.609818,-0.512133,-0.377877,0.0684929,0.378947,1.74542,0.140037,0.0110871,0.359541,5,0.1
0,1.6,-1.65038,-3.89883,0.81581,0.04462,0.862938,0.158498,-0.0115037,0.0617504,-0.0410378,0.0209033,2.25604,5,0.1,1,1.6,-1.28552,1.61694,0.607556,0.390327,-0.113815,-0.00733882,-0.200629,0.0925064,0.00596046,0.0143666,0.240944,5,0.1,2,1.6,1.50882,-2.41951,0.583027,-0.771791,0.10404,0.0142336,0.455499,-0.35131,0.00208616,0.0179925,0.060113,5,0.1,3,1.6,-4.2,4.35218,0.620654,-0.045228,-0.835943,0.148205,-0.041008,0.38147,-0.24879,0.0117851,1.00115,5,0.1,4,1.6,-3.52163,1.63223,1.0721,0.114423,-0.173393,0.270513,0.0522137,-0.00405312,-0.220001,0.0216361,0.152717,5,0.1,5,1.6,3.86371,-5,0.500004,-0.256777,0.151348,0.000108778,0.209093,-0.123978,0.00330806,0.0172127,0.714494,5,0.1,6,1.6,-3.69197,-3.80075,0.728019,0.755525,0.0494242,0.0213906,-0.222564,-0.0400543,-0.0174046,0.0145362,0.589322,5,0.1,7,1.6,-5.17639,-0.594458,0.505731,0.152361,0.14061,-0.0294253,0.337601,-0.114352,0.0957251,0.00800737,3.4172,5,0.1,8,1.6,0.446096,1.76767,0.522975,-0.319452,-0.17736,-0.0287026,0.526562,0.29403,-0.0213981,0.00820192,0.926095,5,0.1,9,1.6,0.230402,1.85279,0.617371,-0.471199,-0.211063,0.0823542,0.446945,1.56188,0.127822,0.00961534,0.225701,5,0.1
0,1.7,-1.64595,-3.81235,0.831514,0.0439102,0.865833,0.155964,-0.00517815,0.0077188,-0.0184998,0.0209033,2.25604,5,0.1,1,1.7,-1.2472,1.606,0.606851,0.378174,-0.105143,-0.00678049,-0.070028,0.0840425,0.00541285,0.0143666,0.240944,5,0.1,2,1.7,1.43415,-2.41079,0.584464,-0.719243,0.0710979,0.0145167,0.597902,-0.304639,0.00273436,0.0179925,0.060113,5,0.1,3,1.7,-4.20557,4.2705,0.634016,-0.0731826,-0.79693,0.117265,-0.461876,0.419885,-0.354793,0.0117851,1.00115,5,0.1,4,1.7,-3.50977,1.61467,1.09823,0.123904,-0.179181,0.253635,0.121281,-0.092119,-0.133388,0.0216361,0.152717,5,0.1,5,1.7,3.83903,-4.98463,0.500027,-0.237177,0.163285,0.000292435,0.189915,0.306219,0.000581145,0.0172127,0.714494,5,0.1,6,1.7,-3.61728,-3.79599,0.730075,0.739539,0.0456657,0.0197592,-0.135824,-0.0364631,-0.0158064,0.0145362,0.589322,5,0.1,7,1.7,-5.16002,-0.580954,0.503252,0.171158,0.129534,-0.0203374,0.106782,-0.110231,0.0848435,0.00800737,3.4172,5,0.1,8,1.7,0.416078,1.75145,0.520052,-0.286915,-0.146881,-0.0292425,0.165412,0.311166,0.00894442,0.00820192,0.926095,5,0.1,9,1.7,0.185244,1.83896,0.62634,-0.434107,-0.0709321,0.0976247,0.317484,1.23487,0.164349,0.00961534,0.225701,5,0.1
0,1.8,-1.6416,-3.72575,0.846996,0.0431597,0.866026,0.153284,-0.0116825,0,-0.0413358,0.0179449,2.25626,5,0.1,1,1.8,-1.2097,1.59591,0.6062,0.371546,-0.096482,-0.00622422,-0.0827909,0.0912547,0.00590086,0.0163664,0.179216,5,0.1,2,1.8,1.36546,-2.40511,0.585925,-0.652018,0.0435591,0.0146374,0.746131,-0.24426,-0.000864267,0.0109161,0.0817625,5,0.1,3,1.8,-4.21551,4.19311,0.643898,-0.127625,-0.748503,0.0799656,-0.583649,0.562191,-0.379264,0.0128329,0.823647,5,0.1,4,1.8,-3.49677,1.59628,1.12296,0.135881,-0.188416,0.241089,0.106454,-0.0782609,-0.129104,0.0236562,0.105195,5,0.1,5,1.8,3.81627,-4.96644,0.500056,-0.217617,0.202596,0.000263751,0.206232,0.436306,-0.000953674,0.012594,0.573827,5,0.1,6,1.8,-3.54412,-3.79161,0.731971,0.721771,0.041908,0.0181302,-0.246525,-0.0395775,-0.0171363,0.0133131,2.77472,5,0.1,7,1.8,-5.14234,-0.568565,0.501616,0.183797,0.118059,-0.0126451,0.178337,-0.121236,0.0682473,0.00741945,3.24053,5,0.1,8,1.8,0.387897,1.73831,0.517212,-0.279064,-0.115916,-0.0272259,0.0234097,0.30452,0.0299811,0.00762831,0.786636,5,0.1,9,1.8,0.143358,1.83746,0.636895,-0.403802,0.035128,0.112937,0.305019,0.884354,0.132293,0.0101829,0.185345,5,0.1
0,1.9,-1.63732,-3.63915,0.862181,0.0424614,0.866026,0.150818,-0.00477582,0,-0.0168234,0.0179449,2.25626,5,0.1,1,1.9,-1.17281,1.5867,0.605606,0.367203,-0.0880271,-0.00567809,-0.0258237,0.0804663,0.00519305,0.0163664,0.179216,5,0.1,2,1.9,1.30376,-2.40186,0.587384,-0.584023,0.0225402,0.01452,0.632122,-0.177264,-0.00201538,0.0109161,0.0817625,5,0.1,3,1.9,-4.2315,4.12172,0.649954,-0.194208,-0.673646,0.0410118,-0.70551,0.906259,-0.388678,0.0128329,0.823647,5,0.1,4,1.9,-3.48262,1.57731,1.1465,0.147049,-0.188541,0.230095,0.106484,0.0692904,-0.101157,0.0236562,0.105195,5,0.1,5,1.9,3.79549,-4.94366,0.500077,-0.198513,0.255342,0.000152737,0.181764,0.575781,-0.00120699,0.012594,0.573827,5,0.1,6,1.9,-3.47368,-3.78762,0.734216,0.682471,0.0380222,0.0311158,-0.527784,-0.0387877,0.243973,0.0133131,2.77472,5,0.1,7,1.9,-5.12305,-0.557343,0.50066,0.205071,0.106544,-0.00680443,0.355959,-0.111494,0.0485927,0.00741945,3.24053,5,0.1,8,1.9,0.359616,1.72828,0.514675,-0.290403,-0.0845047,-0.0232074,-0.208752,0.316657,0.0483096,0.00762831,0.786636,5,0.1,9,1.9,0.104233,1.84494,0.648917,-0.380778,0.110041,0.127843,0.17951,0.613905,0.152953,0.0101829,0.185345,5,0.1
0,2,-1.6331,-3.55254,0.87716,0.0417799,0.866026,0.148405,-0.0106692,0,-0.0376999,0.0280457,2.25705,5,0.1,1,2,-1.13627,1.5783,0.605064,0.362659,-0.0799447,-0.0051558,-0.0805259,0.0829697,0.00530481,0.0133914,0.129433,5,0.1,2,2,1.24845,-2.40039,0.588821,-0.522456,0.00784397,0.0141487,0.612259,-0.118256,-0.00581145,0.0110638,0.178523,5,0.1,3,2,-4.25436,4.05925,0.652172,-0.261366,-0.572538,0.00415891,-0.606537,1.09172,-0.340223,0.0150905,0.677995,5,0.1,4,2,-3.46745,1.559,1.16898,0.155407,-0.175816,0.219092,0.053525,0.179112,-0.126123,0.0194708,0.112507,5,0.1,5,2,3.77654,-4.9153,0.500086,-0.180262,0.310314,3.12924e-05,0.187397,0.492096,-0.00119209,0.0136071,0.445601,5,0.1,6,2,-3.40845,-3.78401,0.738755,0.618523,0.0340462,0.0610828,-0.739932,-0.0412464,0.329882,0.015044,3.10862,5,0.1,7,2,-5.1,-0.547246,0.500191,0.263309,0.0953525,-0.00289083,0.783205,-0.113934,0.0300109,0.0117875,2.9091,5,0.1,8,2,0.329429,1.72139,0.512611,-0.31357,-0.05382,-0.017941,-0.223517,0.291646,0.0553727,0.0124135,0.647094,5,0.1,9,2,0.0670073,1.85857,0.662413,-0.363742,0.158122,0.141321,0.178739,0.349939,0.107408,0.0109985,0.161848,5,0.1
0,2.1,-1.62896,-3.46594,0.891875,0.0411844,0.866026,0.146306,-0.00371784,0,-0.013046,0.0280457,2.25705,5,0.1,1,2.1,-1.10033,1.57069,0.604573,0.356699,-0.0723263,-0.00466853,-0.0560358,0.0716075,0.00458211,0.0133914,0.129433,5,0.1,2,2.1,1.19891,-2.40012,0.590201,-0.471221,-0.00176765,0.0134178,0.436977,-0.0754148,-0.00888109,0.0110638,0.178523,5,0.1,3,2.1,-4.28359,4.00769,0.650917,-0.322866,-0.457343,-0.0287284,-0.59104,1.18198,-0.309255,0.0150905,0.677995,5,0.1,4,2.1,-3.45161,1.54247,1.19034,0.161634,-0.153492,0.208763,0.0602305,0.260055,-0.0912249,0.0194708,0.112507,5,0.1,5,2.1,3.7594,-4.88172,0.500084,-0.16306,0.361313,-6.67758e-05,0.161648,0.494957,-0.000778586,0.0136071,0.445601,5,0.1,6,2.1,-3.3509,-3.7808,0.74674,0.527686,0.0302289,0.100181,-1.02562,-0.0358969,0.425294,0.015044,3.10862,5,0.1,7,2.1,-5.06863,-0.538248,0.500025,0.372739,0.0848812,-0.000681821,1.29986,-0.0978969,0.0150837,0.0117875,2.9091,5,0.1,8,2.1,0.29667,1.71748,0.511112,-0.343497,-0.0243489,-0.0119207,-0.337748,0.289977,0.0629276,0.0124135,0.647094,5,0.1,9,2.1,0.0313316,1.87594,0.677152,-0.351168,0.187277,0.153792,0.0943118,0.228092,0.128612,0.0109985,0.161848,5,0.1
0,2.2,-1.62487,-3.37934,0.906422,0.0406176,0.866026,0.144295,-0.00947714,0,-0.0334084,0.0175411,2.25772,5,0.1,1,2.2,-1.06501,1.56381,0.604129,0.348508,-0.0652462,-0.00421554,-0.119925,0.0715256,0.00461936,0.0168963,0.156916,5,0.1,2,2.2,1.15385,-2.40062,0.591493,-0.430796,-0.00751615,0.0123635,0.389636,-0.0408888,-0.0122488,0.0111041,0.858986,5,0.1,3,2.2,-4.31859,3.96781,0.646605,-0.374055,-0.34135,-0.0562966,-0.409603,1.11616,-0.236422,0.00985557,0.552659,5,0.1,4,2.2,-3.4352,1.5285,1.21075,0.165635,-0.12517,0.199014,0.012517,0.300109,-0.111401,0.0235511,0.196128,5,0.1,5,2.2,3.74389,-4.84334,0.500074,-0.14708,0.403702,-0.00012666,0.16129,0.329494,-0.000417233,0.0110657,0.328646,5,0.1,6,2.2,-3.3034,-3.77796,0.75886,0.42212,0.0267327,0.141481,-1.04964,-0.0345707,0.380874,0.0118076,3.32776,5,0.1,7,2.2,-5.02471,-0.530239,0.500014,0.504827,0.0753626,0.000293553,1.2629,-0.0941753,0.00521541,0.0144789,2.53783,5,0.1,8,2.2,0.260694,1.71644,0.510233,-0.374682,0.00283122,-0.00572354,-0.258841,0.247836,0.0594258,0.0153244,0.511094,5,0.1,9,2.2,-0.00330827,1.89558,0.693119,-0.341172,0.202993,0.164753,0.121117,0.0837445,0.0810623,0.00913801,0.155045,5,0.1
0,2.3,-1.62083,-3.29274,0.920746,0.0401298,0.866026,0.142584,-0.00270456,0,-0.00946596,0.0175411,2.25772,5,0.1,1,2.3,-1.03045,1.55759,0.603727,0.344936,-0.059591,-0.00385055,0.01866,0.0453964,0.00292435,0.0168963,0.156916,5,0.1,2,2.3,1.11186,-2.40147,0.592668,-0.415945,-0.00872649,0.0111244,-0.0334159,0.011906,-0.012625,0.0111041,0.858986,5,0.1,3,2.3,-4.35801,3.93905,0.639843,-0.413363,-0.23627,-0.0782789,-0.351191,0.962615,-0.196915,0.00985557,0.552659,5,0.1,4,2.3,-3.41865,1.51752,1.23007,0.164748,-0.0942193,0.187031,-0.0329763,0.311181,-0.131242,0.0235511,0.196128,5,0.1,5,2.3,3.72994,-4.80132,0.50006,-0.13238,0.435802,-0.000150967,0.136897,0.286728,-9.31323e-05,0.0110657,0.328646,5,0.1,6,2.3,-3.26655,-3.77544,0.774992,0.315592,0.023631,0.181367,-1.00651,-0.0282526,0.394616,0.0118076,3.32776,5,0.1,7,2.3,-4.96751,-0.523138,0.50006,0.641036,0.0669249,0.000563357,1.37705,-0.0769086,0.000555068,0.0144789,2.53783,5,0.1,8,2.3,0.221756,1.71799,0.509972,-0.404968,0.0283798,0.000597537,-0.312952,0.253327,0.0644848,0.0153244,0.511094,5,0.1,9,2.3,-0.0369439,1.9163,0.710088,-0.332319,0.211251,0.175145,0.0738631,0.0702962,0.111982,0.00913801,0.155045,5,0.1
0,2.4,-1.61684,-3.20613,0.934939,0.0396609,0.866026,0.140923,-0.00846386,0,-0.0298619,0.0202607,2.25829,5,0.1,1,2.4,-0.99584,1.55184,0.603356,0.347073,-0.0555038,-0.00358671,0.00226498,0.0391603,0.0025034,0.0128761,0.094996,5,0.1,2,2.4,1.0698,-2.40223,0.593716,-0.427052,-0.00599027,0.00982285,-0.143826,0.0388622,-0.0134408,0.0107558,1.26973,5,0.1,3,2.4,-4.40083,3.91985,0.631138,-0.440061,-0.152117,-0.0946358,-0.165224,0.710249,-0.126094,0.0131483,0.434063,5,0.1,4,2.4,-3.40243,1.50962,1.24806,0.158644,-0.0642627,0.172299,-0.0904799,0.282407,-0.164986,0.0218976,0.408896,5,0.1,5,2.4,3.71737,-4.75655,0.500045,-0.118989,0.456727,-0.000147521,0.133991,0.113726,8.9407e-05,0.0127675,0.231872,5,0.1,6,2.4,-3.2395,-3.77322,0.794974,0.231665,0.0209451,0.216596,-0.638008,-0.026226,0.294179,0.0175438,3.29966,5,0.1,7,2.4,-4.89691,-0.516818,0.500114,0.765789,0.0595808,0.000472367,1.05786,-0.0716448,-0.00199676,0.0136036,2.34591,5,0.1,8,2.4,0.179833,1.72204,0.510346,-0.431462,0.0518113,0.00673532,-0.192747,0.208259,0.0564754,0.0138624,0.385773,5,0.1,9,2.4,-0.0697645,1.93768,0.728114,-0.323344,0.215185,0.184616,0.118271,0.000834465,0.0669062,0.00686884,0.156995,5,0.1
0,2.5,-1.6129,-3.11953,0.948942,0.0392586,0.866026,0.139508,-0.00198185,0,-0.00692531,0.0202607,2.25829,5,0.1,1,2.5,-0.961038,1.54647,0.603008,0.349303,-0.0522265,-0.00337744,0.0229627,0.0289008,0.00184402,0.0128761,0.094996,5,0.1,2,2.5,1.02568,-2.40264,0.594633,-0.460655,-0.00239313,0.00853296,-0.462841,0.0330508,-0.0124574,0.0107558,1.26973,5,0.1,3,2.5,-4.44563,3.90776,0.621086,-0.454912,-0.0942059,-0.105854,-0.11161,0.432491,-0.0932999,0.0131483,0.434063,5,0.1,4,2.5,-3.38705,1.5046,1.26447,0.148512,-0.0366302,0.155689,-0.113577,0.258289,-0.168949,0.0218976,0.408896,5,0.1,5,2.5,3.7061,-4.71033,0.500031,-0.10685,0.46704,-0.000129919,0.112295,0.071913,0.000242144,0.0127675,0.231872,5,0.1,6,2.5,-3.21898,-3.77124,0.81812,0.186694,0.0186391,0.245986,-0.16816,-0.0206232,0.275068,0.0175438,3.29966,5,0.1,7,2.5,-4.81601,-0.511185,0.500151,0.842377,0.0533365,0.000252761,0.480205,-0.0554919,-0.00230968,0.0136036,2.34591,5,0.1,8,2.5,0.135635,1.72829,0.51131,-0.452666,0.0730665,0.0125675,-0.202626,0.206985,0.0576526,0.0138624,0.385773,5,0.1,9,2.5,-0.101582,1.95931,0.747023,-0.313399,0.217965,0.19426,0.0948001,0.0395253,0.109296,0.00686884,0.156995,5,0.1
0,2.6,-1.60899,-3.03293,0.962839,0.0388563,0.866026,0.138088,-0.007689,0,-0.0275075,0.0193963,2.25879,5,0.1,1,2.6,-0.926088,1.54139,0.602679,0.348383,-0.0492901,-0.00318885,-0.0548661,0.0315905,0.00202656,0.0159325,0.0742901,5,0.1,2,2.6,0.977217,-2.40273,0.595425,-0.508222,0.000607967,0.00731498,-0.439823,0.0269413,-0.0120103,0.0105954,1.00891,5,0.1,3,2.6,-4.49145,3.9,0.610122,-0.459039,-0.0658691,-0.112483,0.0429153,0.147223,-0.0361204,0.00884709,0.324594,5,0.1,4,2.6,-3.37282,1.50211,1.27917,0.135732,-0.0144839,0.138241,-0.142455,0.17792,-0.18096,0.0217546,0.350814,5,0.1,5,2.6,3.69596,-4.66347,0.500019,-0.0959277,0.467682,-0.000102818,0.1086,-0.0727177,0.000327826,0.0114629,0.158677,5,0.1,6,2.6,-3.2,-3.76948,0.843937,0.203919,0.0166953,0.26847,0.478268,-0.0189543,0.161797,0.0126712,2.97949,5,0.1,7,2.6,-4.73023,-0.506117,0.500165,0.865459,0.0480935,2.68221e-05,0.0112057,-0.0510812,-0.00217557,0.00727988,1.95028,5,0.1,8,2.6,0.0895312,1.73656,0.51284,-0.467116,0.0915259,0.0178352,-0.0663894,0.15527,0.0458658,0.00876064,0.278421,5,0.1,9,2.6,-0.132392,1.98126,0.766953,-0.301988,0.220478,0.203614,0.143238,-5.96046e-05,0.0658333,0.0142862,3.96,5,0.1
0,2.7,-1.60512,-2.94633,0.976567,0.0385124,0.866026,0.13685,-0.00151992,0,-0.00554696,0.0193963,2.25879,5,0.1,1,2.7,-0.891415,1.53659,0.602369,0.345659,-0.0467706,-0.00302717,-0.0196993,0.021413,0.00137091,0.0159325,0.0742901,5,0.1,2,2.7,0.923931,-2.40258,0.596099,-0.55885,0.00191554,0.00619413,-0.522338,0.0038743,-0.010509,0.0105954,1.00891,5,0.1,3,2.7,-4.53713,3.89367,0.598718,-0.454049,-0.0648223,-0.115248,0.0733733,-0.0978708,-0.0151582,0.00884709,0.324594,5,0.1,4,2.7,-3.35998,1.50145,1.29209,0.120891,-0.000248663,0.12021,-0.154182,0.0943467,-0.179805,0.0217546,0.350814,5,0.1,5,2.7,3.68687,-4.61706,0.50001,-0.0861354,0.460128,-7.06874e-05,0.090152,-0.0951588,0.000309199,0.0114629,0.158677,5,0.1,6,2.7,-3.17584,-3.76789,0.871592,0.290201,0.0150517,0.284219,1.1379,-0.0145733,0.137586,0.0126712,2.97949,5,0.1,7,2.7,-4.64365,-0.501538,0.500158,0.865988,0.0436858,-0.000149291,0.00146031,-0.0390112,-0.00137463,0.00727988,1.95028,5,0.1,8,2.7,0.0424533,1.74648,0.51485,-0.474195,0.106489,0.0222851,-0.052349,0.136375,0.0412017,0.00876064,0.278421,5,0.1,9,2.7,-0.162288,2.00175,0.787525,-0.29918,0.176068,0.206561,-0.0533546,-0.798792,-0.00952557,0.0142862,3.96,5,0.1
0,2.8,-1.60129,-2.85972,0.990205,0.0381529,0.866026,0.135556,-0.00733137,0,-0.026226,0.0153367,2.25927,5,0.1,1,2.8,-0.857023,1.53202,0.602073,0.341046,-0.0445634,-0.00288635,-0.0864267,0.0245571,0.00160933,0.0159683,0.147073,5,0.1,2,2.8,0.865638,-2.40238,0.596668,-0.604054,0.00213981,0.00519603,-0.345767,0.00357628,-0.00950694,0.0114679,0.771458,5,0.1,3,2.8,-4.58201,3.88649,0.587178,-0.441647,-0.0803828,-0.114855,0.185966,-0.191331,0.0255704,0.0116966,0.242887,5,0.1,4,2.8,-3.34867,1.50168,1.30322,0.104958,0.00285506,0.102273,-0.164151,-0.0352859,-0.178814,0.0264002,1.00425,5,0.1,5,2.8,3.6787,-4.57167,0.500005,-0.0773966,0.445855,-4.32134e-05,0.0869036,-0.201225,0.000268221,0.0101798,0.106791,5,0.1,6,2.8,-3.14079,-3.76646,0.900558,0.412238,0.0136673,0.293371,1.21951,-0.0135899,0.0348687,0.0113003,2.57247,5,0.1,7,2.8,-4.55705,-0.497358,0.500137,0.866032,0.0399552,-0.00025183,-0.000238419,-0.0369847,-0.000715256,0.00782599,1.52757,5,0.1,8,2.8,-0.00505213,1.75773,0.517264,-0.473748,0.117522,0.0257507,0.0768328,0.0790954,0.0268221,0.011283,0.203544,5,0.1,9,2.8,-0.192569,2.01466,0.807992,-0.306765,0.0767112,0.201344,-0.0731498,-1.11806,-0.0957847,0.00967993,3.39875,5,0.1
0,2.9,-1.59749,-2.77312,1.00369,0.0378303,0.866026,0.134394,-0.00141561,0,-0.00513345,0.0153367,2.25927,5,0.1,1,2.9,-0.823208,1.5277,0.601794,0.336163,-0.0416759,-0.00269786,-0.0311993,0.033319,0.00216812,0.0159683,0.147073,5,0.1,2,2.9,0.803428,-2.40218,0.597143,-0.639887,0.00180677,0.00432553,-0.331439,-0.000655651,-0.00799075,0.0114679,0.771458,5,0.1,3,2.9,-4.62508,3.87729,0.575828,-0.418042,-0.104902,-0.111995,0.287443,-0.277504,0.0349879,0.0116966,0.242887,5,0.1,4,2.9,-3.33898,1.50176,1.31258,0.0890154,-0.00366233,0.0852374,-0.154868,-0.168681,-0.162326,0.0264002,1.00425,5,0.1,5,2.9,3.67136,-4.52806,0.500002,-0.0695907,0.426422,-2.08616e-05,0.0716448,-0.201344,0.000178814,0.0101798,0.106791,5,0.1,6,2.9,-3.09293,-3.76515,0.930081,0.547869,0.0125024,0.296867,1.40601,-0.0102967,0.021521,0.0113003,2.57247,5,0.1,7,2.9,-4.47045,-0.49353,0.50011,0.865907,0.0367435,-0.000290852,-0.00461936,-0.02883,-0.000100583,0.00782599,1.52757,5,0.1,8,2.9,-0.051876,1.76968,0.519834,-0.460901,0.119744,0.0244532,0.186156,-0.0295267,-0.0458807,0.011283,0.203544,5,0.1,9,2.9,-0.223822,2.01578,0.827691,-0.319697,-0.0616096,0.192846,-0.157695,-1.55666,-0.0820048,0.00967993,3.39875,5,0.1
0,3,-1.59372,-2.68652,1.01708,0.0374824,0.866026,0.133139,-0.00727177,0,-0.0256896,0.0149318,2.25974,5,0.1,1,3,-0.789791,1.52372,0.601536,0.331388,-0.0378907,-0.00245124,-0.0785291,0.0423789,0.00271201,0.0144525,0.184873,5,0.1,2,3,0.73807,-2.40195,0.597537,-0.663675,0.0033617,0.00358224,-0.117183,0.035882,-0.00697374,0.00944643,0.568231,5,0.1,3,3,-4.66527,3.86542,0.564841,-0.384068,-0.132138,-0.107306,0.391483,-0.251174,0.0609457,0.00857868,0.305291,5,0.1,4,3,-3.33084,1.5,1.32032,0.0739515,-0.0370085,0.0697345,-0.14627,-0.485897,-0.147939,0.0209166,2.34623,5,0.1,5,3,3.66475,-4.48652,0.5,-0.0626445,0.403285,-7.45058e-06,0.0687838,-0.270844,0.000119209,0.0110304,0.122907,5,0.1,6,3,-3.0314,-3.76395,0.959763,0.678414,0.0115156,0.295407,1.14155,-0.0100136,-0.0598431,0.00969259,0.461797,5,0.1,7,3,-4.38392,-0.489997,0.500081,0.864172,0.0339188,-0.000280142,-0.0374317,-0.028789,0.000268221,0.00826526,1.1623,5,0.1,8,3,-0.0968162,1.78136,0.521977,-0.435634,0.112596,0.0178188,0.321958,-0.108659,-0.0813305,0.0138398,0.144323,5,0.1,9,3,-0.256533,2.00173,0.846536,-0.333516,-0.218529,0.183623,-0.098601,-1.51265,-0.107825,0.0151747,2.90448,5,0.1
0,3.1,-1.58999,-2.59992,1.03032,0.0371544,0.866026,0.131984,-0.00152737,0,-0.00534952,0.0149318,2.25974,5,0.1,1,3.1,-0.756693,1.52013,0.601304,0.333222,-0.0338392,-0.0021914,0.0819303,0.0393167,0.00252575,0.0144525,0.184873,5,0.1,2,3.1,0.671095,-2.4014,0.597863,-0.675223,0.00854395,0.00295416,-0.082355,0.0819117,-0.00566989,0.00944643,0.568231,5,0.1,3,3.1,-4.70142,3.85074,0.554409,-0.336245,-0.16296,-0.101329,0.545889,-0.338942,0.0614338,0.00857868,0.305291,5,0.1,4,3.1,-3.32415,1.49372,1.32659,0.0602126,-0.0895552,0.0560107,-0.128895,-0.547364,-0.127085,0.0209166,2.34623,5,0.1,5,3.1,3.65878,-4.44727,0.5,-0.0573896,0.383674,2.79397e-07,0.0403821,-0.146508,4.09782e-05,0.0110304,0.122907,5,0.1,6,3.1,-2.95871,-3.76285,0.988551,0.766614,0.0106499,0.276287,0.614703,-0.00777841,-0.303894,0.00969259,0.461797,5,0.1,7,3.1,-4.29752,-0.486736,0.500055,0.86457,0.0313909,-0.000240002,0.0100136,-0.0230502,0.000510365,0.00826526,1.1623,5,0.1,8,3.1,-0.138813,1.79219,0.523351,-0.40448,0.104789,0.00969693,0.31101,-0.0554472,-0.0789687,0.0138398,0.144323,5,0.1,9,3.1,-0.28964,1.97214,0.864358,-0.322007,-0.37334,0.172707,0.298664,-1.51776,-0.114538,0.0151747,2.90448,5,0.1
0,3.2,-1.58629,-2.51331,1.04347,0.0367939,0.866026,0.130713,-0.00727177,0,-0.0257492,0.0143982,2.26022,5,0.1,1,3.2,-0.722921,1.51695,0.601097,0.341997,-0.0299215,-0.00194013,0.0691116,0.0395179,0.002563,0.0149308,0.116028,5,0.1,2,3.2,0.603429,-2.4,0.598132,-0.674883,0.0206411,0.00243485,0.110388,0.154972,-0.00479817,0.00944213,0.405351,5,0.1,3,3.2,-4.73219,3.83278,0.544603,-0.278258,-0.195354,-0.0945523,0.598907,-0.289559,0.0759959,0.00723809,0.405012,5,0.1,4,3.2,-3.31875,1.48205,1.33158,0.0481009,-0.143206,0.0442147,-0.113368,-0.510633,-0.109255,0.0226226,3.38996,5,0.1,5,3.2,3.65322,-4.4096,0.5,-0.0538528,0.369644,2.98023e-06,0.0331402,-0.152349,-2.98023e-05,0.0107878,0.123805,5,0.1,6,3.2,-2.87989,-3.76182,1.01439,0.800532,0.00988245,0.238061,0.0630617,-0.00798702,-0.444949,0.00924874,0.48638,5,0.1,7,3.2,-4.21116,-0.483711,0.500033,0.860715,0.0290886,-0.000184774,-0.106096,-0.0239164,0.000625849,0.00772091,0.856575,5,0.1,8,3.2,-0.177659,1.80242,0.523944,-0.371785,0.100115,0.00238717,0.349485,-0.0439286,-0.0657439,0.0120118,0.187956,5,0.1,9,3.2,-0.319898,1.92765,0.881018,-0.279308,-0.510809,0.160052,0.530168,-1.18482,-0.141114,0.0141165,2.67734,5,0.1
0,3.3,-1.58263,-2.42671,1.05647,0.0364538,0.866026,0.129511,-0.00171363,0,-0.00604242,0.0143982,2.26022,5,0.1,1,3.3,-0.688389,1.51411,0.600864,0.348111,-0.0271661,-0.00316789,0.0380501,0.0182316,-0.0238307,0.0149308,0.116028,5,0.1,2,3.3,0.536462,-2.39699,0.598353,-0.66409,0.040818,0.00200924,0.130953,0.232279,-0.00377744,0.00944213,0.405351,5,0.1,3,3.3,-4.75697,3.81206,0.535432,-0.217316,-0.21632,-0.0895318,0.598848,-0.13043,0.0357926,0.00723809,0.405012,5,0.1,4,3.3,-3.31447,1.4658,1.33549,0.0376053,-0.177512,0.0342,-0.0967979,-0.241518,-0.0914037,0.0226226,3.38996,5,0.1,5,3.3,3.64778,-4.3733,0.5,-0.0568639,0.356888,5.58794e-07,-0.077948,-0.11912,-1.49012e-05,0.0107878,0.123805,5,0.1,6,3.3,-2.79962,-3.76087,1.03598,0.803209,0.00918284,0.193981,-0.0372678,-0.0064075,-0.433281,0.00924874,0.48638,5,0.1,7,3.3,-4.12538,-0.480912,0.500018,0.855866,0.026964,-0.000124518,-0.0365973,-0.0196267,0.000562519,0.00772091,0.856575,5,0.1,8,3.3,-0.213545,1.81236,0.523982,-0.34965,0.099745,-0.0005031,0.126397,0.0246763,0.00172853,0.0120118,0.187956,5,0.1,9,3.3,-0.344977,1.87126,0.896379,-0.220711,-0.610341,0.147622,0.624079,-0.788175,-0.113431,0.0141165,2.67734,5,0.1
0,3.4,-1.579,-2.34011,1.06937,0.0360817,0.866026,0.128183,-0.00739098,0,-0.0259876,0.0162619,2.26071,5,0.1,1,3.4,-0.65354,1.51147,0.600407,0.347093,-0.0258058,-0.0061214,-0.0684559,0.0109076,-0.0326335,0.014028,0.122231,5,0.1,2,3.4,0.470912,-2.39173,0.598536,-0.644436,0.0642538,0.00166446,0.279188,0.224233,-0.00309944,0.00850217,0.282144,5,0.1,3,3.4,-4.77584,3.79004,0.526666,-0.161755,-0.221699,-0.0855133,0.500441,0.0209808,0.0519753,0.00796339,0.380756,5,0.1,4,3.4,-3.31117,1.44688,1.33848,0.0286937,-0.201249,0.0258625,-0.0816584,-0.264585,-0.0756979,0.022644,3.1987,5,0.1,5,3.4,3.64162,-4.33826,0.5,-0.0667155,0.343037,0,-0.107527,-0.169039,-2.98023e-05,0.0115154,0.0879233,5,0.1,6,3.4,-2.71983,-3.75998,1.05325,0.78851,0.00854135,0.15201,-0.274658,-0.00679493,-0.403523,0.00908481,0.483791,5,0.1,7,3.4,-4.04017,-0.478314,0.500008,0.845623,0.0249833,-7.30157e-05,-0.200033,-0.0206977,0.000447035,0.00737752,1.10172,5,0.1,8,3.4,-0.248023,1.82249,0.52401,-0.340702,0.102982,0.00161678,0.0774264,0.0312924,0.0357032,0.00801968,0.116399,5,0.1,9,3.4,-0.363894,1.80706,0.91058,-0.157644,-0.665802,0.136347,0.62345,-0.31215,-0.116229,0.0128697,2.96336,5,0.1
0,3.5,-1.57542,-2.25351,1.08211,0.0357194,0.866026,0.126915,-0.0019744,0,-0.00689924,0.0162619,2.26071,5,0.1,1,3.5,-0.619337,1.50896,0.599498,0.335295,-0.0241963,-0.0131281,-0.169128,0.0210032,-0.0979006,0.014028,0.122231,5,0.1,2,3.5,0.407804,-2.38414,0.598689,-0.617764,0.0877567,0.00139307,0.275241,0.233471,-0.00238419,0.00850217,0.282144,5,0.1,3,3.5,-4.7897,3.76835,0.518447,-0.117927,-0.20863,-0.0780491,0.359386,0.219405,0.100747,0.00796339,0.380756,5,0.1,4,3.5,-3.30869,1.42551,1.34071,0.0212662,-0.228501,0.019031,-0.0671148,-0.392042,-0.0612289,0.022644,3.1987,5,0.1,5,3.5,3.63454,-4.30478,0.5,-0.0735298,0.326686,-1.39698e-06,-0.031054,-0.168383,-3.72529e-06,0.0115154,0.0879233,5,0.1,6,3.5,-2.6422,-3.75916,1.0665,0.764883,0.00793785,0.113716,-0.230864,-0.00557303,-0.360347,0.00908481,0.483791,5,0.1,7,3.5,-3.95615,-0.475911,0.500003,0.837867,0.0231273,-3.51109e-05,-0.0115633,-0.0172853,0.000309199,0.00737752,1.10172,5,0.1,8,3.5,-0.281873,1.83299,0.524399,-0.337403,0.107167,0.00654254,0.0105351,0.044629,0.0585467,0.00801968,0.116399,5,0.1,9,3.5,-0.376826,1.74024,0.92351,-0.10372,-0.658747,0.121162,0.460314,0.404105,-0.181563,0.0128697,2.96336,5,0.1
0,3.6,-1.57186,-2.1669,1.09474,0.0353217,0.866026,0.125515,-0.00745058,0,-0.0264049,0.0176104,2.26123,5,0.1,1,3.6,-0.586828,1.50666,0.597654,0.313121,-0.0216663,-0.0240043,-0.274181,0.0292659,-0.112206,0.0126058,0.232218,5,0.1,2,3.6,0.347537,-2.37426,0.598817,-0.585882,0.108838,0.00117719,0.376493,0.179291,-0.00193715,0.0108528,0.193111,5,0.1,3,3.6,-4.8,3.74878,0.511242,-0.0910044,-0.181478,-0.0650704,0.185013,0.308037,0.15828,0.00853886,0.349736,5,0.1,4,3.6,-3.30687,1.4,1.34233,0.015229,-0.288466,0.0135601,-0.0540018,-0.783801,-0.0484586,0.0173573,2.87651,5,0.1,5,3.6,3.62715,-4.27302,0.5,-0.0733972,0.307631,-1.49012e-06,0.031352,-0.219345,0,0.0148817,0.100758,5,0.1,6,3.6,-2.56701,-3.75839,1.07616,0.736767,0.00736713,0.0802755,-0.35429,-0.00584126,-0.307143,0.0163741,1.02767,5,0.1,7,3.6,-3.87249,-0.473685,0.500001,0.833601,0.0213794,-1.19209e-05,-0.114322,-0.0182837,0.000178814,0.00964614,0.810655,5,0.1,8,3.6,-0.315523,1.8439,0.525355,-0.334831,0.110582,0.0125781,0.0566095,0.0181198,0.058949,0.00914938,0.0673438,5,0.1,9,3.6,-0.38513,1.67723,0.934651,-0.0645734,-0.594026,0.101119,0.327379,0.848949,-0.214398,0.0134685,3.30549,5,0.1
0,3.7,-1.56835,-2.0803,1.10721,0.0349408,0.866026,0.124165,-0.00222772,0,-0.00791997,0.0176104,2.26123,5,0.1,1,3.7,-0.556885,1.50465,0.594628,0.285648,-0.0182761,-0.0369205,-0.279691,0.0374988,-0.137765,0.0126058,0.232218,5,0.1,2,3.7,0.290743,-2.36249,0.598926,-0.55042,0.126385,0.00100983,0.350229,0.16214,-0.00145659,0.0108528,0.193111,5,0.1,3,3.7,-4.80849,3.73231,0.505608,-0.0814691,-0.147025,-0.0468925,0.0235438,0.353038,0.200786,0.00853886,0.349736,5,0.1,4,3.7,-3.3056,1.36614,1.34347,0.010477,-0.396934,0.00933092,-0.0413656,-1.28128,-0.0365153,0.0173573,2.87651,5,0.1,5,3.7,3.62005,-4.24327,0.5,-0.0675887,0.28774,-1.02445e-06,0.0817478,-0.189543,1.11759e-05,0.0148817,0.100758,5,0.1,6,3.7,-2.49451,-3.75768,1.08304,0.717908,0.00684224,0.0608332,-0.0794232,-0.00493228,-0.100255,0.0163741,1.02767,5,0.1,7,3.7,-3.78947,-0.471632,0.5,0.828122,0.0197302,4.65661e-07,-0.0400096,-0.0154153,7.82311e-05,0.00964614,0.810655,5,0.1,8,3.7,-0.348759,1.85504,0.526914,-0.329889,0.112217,0.0186218,0.0562742,0.0096783,0.0591427,0.00914938,0.0673438,5,0.1,9,3.7,-0.390025,1.62278,0.94367,-0.0341429,-0.489592,0.0791566,0.278536,1.1759,-0.221051,0.0134685,3.30549,5,0.1
0,3.8,-1.56487,-1.9937,1.11957,0.034523,0.866026,0.122681,-0.00756979,0,-0.0269413,0.0137497,2.26225,5,0.1,1,3.8,-0.529756,1.50302,0.590262,0.256479,-0.0143528,-0.0501066,-0.306249,0.0400543,-0.119805,0.00642954,0.438762,5,0.1,2,3.8,0.237525,-2.34913,0.59902,-0.512909,0.13966,0.000877678,0.411809,0.0967979,-0.0012219,0.0143576,0.130429,5,0.1,3,3.8,-4.81666,3.71928,0.50195,-0.0831366,-0.115108,-0.0262082,-0.0431538,0.270724,0.204444,0.00571233,0.314966,5,0.1,4,3.8,-3.30474,1.31993,1.34423,0.00688434,-0.526482,0.00618696,-0.030756,-1.23155,-0.0267625,0.0182443,0.547425,5,0.1,5,3.8,3.61377,-4.21547,0.5,-0.0576437,0.267863,0,0.114441,-0.21553,0,0.0096125,0.192964,5,0.1,6,3.8,-2.42304,-3.75702,1.08884,0.711095,0.00634193,0.0568986,-0.0985861,-0.00536442,0.00679493,0.0122952,0.773773,5,0.1,7,3.8,-3.70703,-0.469736,0.5,0.81799,0.0181749,5.96046e-06,-0.193954,-0.0161678,-2.98023e-05,0.0117138,2.33386,5,0.1,8,3.8,-0.381374,1.86627,0.529054,-0.321217,0.111702,0.0239283,0.126719,-0.023365,0.0450611,0.0113534,0.0497116,5,0.1,9,3.8,-0.392146,1.57981,0.950496,-0.0093013,-0.369707,0.0575811,0.216648,1.17689,-0.207543,0.00927814,3.55089,5,0.1
0,3.9,-1.56145,-1.9071,1.13174,0.0340167,0.866026,0.120875,-0.00433624,0,-0.0154749,0.0137497,2.26225,5,0.1,1,3.9,-0.506201,1.50179,0.584291,0.209894,-0.0103777,-0.0721773,-0.590712,0.0386313,-0.292823,0.00642954,0.438762,5,0.1,2,3.9,0.188187,-2.3347,0.599102,-0.474537,0.148664,0.000773184,0.370256,0.0757575,-0.000908971,0.0143576,0.130429,5,0.1,3,3.9,-4.82534,3.70897,0.500284,-0.0913627,-0.093206,-0.00809208,-0.107735,0.137836,0.14545,0.00571233,0.314966,5,0.1,4,3.9,-3.30419,1.26173,1.34473,0.00431463,-0.630879,0.00399128,-0.0210404,-0.836156,-0.0176132,0.0182443,0.547425,5,0.1,5,3.9,3.60862,-4.18979,0.5,-0.0448953,0.24555,0,0.135645,-0.233501,0,0.0096125,0.192964,5,0.1,6,3.9,-2.35212,-3.75641,1.09475,0.70915,0.0058569,0.0627356,0.0152439,-0.00452995,0.0958517,0.0122952,0.773773,5,0.1,7,3.9,-3.62527,-0.46806,0.500099,0.824495,0.014837,0.00279816,0.237912,-0.0470113,0.0496618,0.0117138,2.33386,5,0.1,8,3.9,-0.412942,1.87734,0.531678,-0.310577,0.109788,0.0285414,0.100836,-0.0200942,0.044357,0.0113534,0.0497116,5,0.1,9,3.9,-0.392042,1.54873,0.955231,0.0107973,-0.253883,0.0373447,0.182217,1.06331,-0.19408,0.00927814,3.55089,5,0.1
0,4,-1.55808,-1.82049,1.14373,0.0333548,0.866026,0.118518,-0.0101328,-5.96046e-05,-0.0360608,0.0170341,2.26298,5,0.1,1,4,-0.488398,1.50093,0.575519,0.144552,-0.00676215,-0.103611,-0.688717,0.0331402,-0.314057,0.005586,0.384984,5,0.1,2,4,0.142613,-2.31954,0.599175,-0.436394,0.153565,0.000691414,0.402629,0.0171661,-0.000804663,0.00928399,0.156029,5,0.1,3,4,-4.83503,3.7,0.5,-0.102329,-0.0895977,0,-0.101089,-0.0567436,0,0.00678711,0.264989,5,0.1,4,4,-3.30385,1.19525,1.34506,0.0025928,-0.690624,0.0025779,-0.0137091,-0.348091,-0.0110865,0.0205694,1.50924,5,0.1,5,4,3.60481,-4.16645,0.5,-0.031358,0.220764,0,0.131249,-0.263691,0,0.0106531,0.281704,5,0.1,6,4,-2.28124,-3.75585,1.10155,0.706542,0.00540018,0.0735939,-0.0990629,-0.00488758,0.110626,0.00920426,0.779623,5,0.1,7,4,-3.54149,-0.466837,0.500667,0.850701,0.00941306,0.0088349,0.223756,-0.0586212,0.0662506,0.00885117,2.39496,5,0.1,8,4,-0.44344,1.88819,0.534734,-0.298565,0.106817,0.0323206,0.149533,-0.0428557,0.0292361,0.0127948,0.0217871,5,0.1,9,4,-0.390129,1.52801,0.958039,0.0266343,-0.168043,0.019297,0.132516,0.619709,-0.164688,0.0135276,2.44018,5,0.1
0,4.1,-1.55478,-1.73389,1.15544,0.0326404,0.866025,0.115972,-0.00590831,1.49012e-05,-0.0210553,0.0170341,2.26298,5,0.1,1,4.1,-0.47734,1.50041,0.563895,0.0773831,-0.00385251,-0.125936,-0.642233,0.0249073,-0.137702,0.005586,0.384984,5,0.1,2,4.1,0.100995,-2.30399,0.599241,-0.395989,0.15813,0.000635814,0.402268,0.0606328,-0.000368804,0.00928399,0.156029,5,0.1,3,4.1,-4.84582,3.69045,0.5,-0.113738,-0.10395,0,-0.116646,-0.205413,0,0.00678711,0.264989,5,0.1,4,4.1,-3.30365,1.124,1.34527,0.0015188,-0.737145,0.00174362,-0.00809133,-0.51593,-0.00596792,0.0205694,1.50924,5,0.1,5,4.1,3.6023,-4.14565,0.5,-0.0191987,0.195384,0,0.109583,-0.247121,0,0.0106531,0.281704,5,0.1,6,4.1,-2.21076,-3.75533,1.10953,0.704996,0.00495836,0.0864932,0.0229478,-0.00411272,0.136606,0.00920426,0.779623,5,0.1,7,4.1,-3.45626,-0.466212,0.501925,0.844813,0.00294992,0.0166092,-0.320211,-0.0678133,0.0841767,0.00885117,2.39496,5,0.1,8,4.1,-0.472542,1.89865,0.538099,-0.283223,0.102186,0.0348167,0.164701,-0.0522956,0.0192374,0.0127948,0.0217871,5,0.1,9,4.1,-0.386845,1.51357,0.959176,0.0385714,-0.129725,0.00381777,0.103749,0.0913814,-0.1426,0.0135276,2.44018,5,0.1
0,4.2,-1.55155,-1.64729,1.16691,0.0318766,0.866026,0.113252,-0.0106096,-5.96046e-05,-0.0377893,0.0148526,2.26374,5,0.1,1,4.2,-0.472652,1.50013,0.550867,0.0182219,-0.00179112,-0.132212,-0.532269,0.0163913,0.00685453,0.0166811,0.266905,5,0.1,2,4.2,0.0633908,-2.28789,0.599303,-0.356255,0.16337,0.000607967,0.392456,0.0343323,-0.000238419,0.00757648,0.109479,5,0.1,3,4.2,-4.85773,3.67895,0.5,-0.12387,-0.126302,0,-0.0782013,-0.222921,0,0.00672274,0.242113,5,0.1,4,4.2,-3.30353,1.04787,1.34542,0.000911951,-0.782385,0.00132024,-0.00417233,-0.341207,-0.00280142,0.0205281,0.204778,5,0.1,5,4.2,3.60088,-4.12734,0.5,-0.00977516,0.170803,0,0.0776052,-0.246048,0,0.00837248,0.360817,5,0.1,6,4.2,-2.14025,-3.75486,1.11884,0.703388,0.00454783,0.0990599,-0.0876188,-0.00429153,0.106931,0.00791632,0.569856,5,0.1,7,4.2,-3.37413,-0.466252,0.504002,0.790834,-0.003656,0.0247896,-0.738859,-0.0621974,0.0756383,0.00866644,2.27144,5,0.1,8,4.2,-0.499968,1.90857,0.541651,-0.264424,0.0959516,0.0359342,0.215888,-0.0739098,0.00220537,0.010394,0.0124508,5,0.1,9,4.2,-0.382533,1.5,0.958897,0.0469863,-0.151393,-0.00884384,0.0630319,-0.485718,-0.109136,0.00966492,2.51625,5,0.1
0,4.3,-1.5484,-1.56069,1.17809,0.0311293,0.866025,0.110588,-0.00603497,1.49012e-05,-0.0215247,0.0148526,2.26374,5,0.1,1,4.3,-0.472782,1.50002,0.537926,-0.0144798,-0.00056047,-0.124405,-0.151167,0.00857562,0.138845,0.0166811,0.266905,5,0.1,2,4.3,0.0297514,-2.27137,0.599363,-0.316576,0.167053,0.000593439,0.390973,0.0306815,-8.9407e-05,0.00757648,0.109479,5,0.1,3,4.3,-4.87052,3.66549,0.5,-0.131887,-0.140146,0,-0.0739694,-0.0602305,0,0.00672274,0.242113,5,0.1,4,4.3,-3.30345,0.968548,1.34554,0.000649691,-0.797844,0.00117943,-0.0013113,0.0346005,-0.000298023,0.0205281,0.204778,5,0.1,5,4.3,3.60031,-4.11148,0.5,-0.00172369,0.146459,0,0.0758022,-0.240684,0,0.00837248,0.360817,5,0.1,6,4.3,-2.07018,-3.75442,1.1293,0.698699,0.00416003,0.110066,-0.0420958,-0.00359118,0.104874,0.00791632,0.569856,5,0.1,7,4.3,-3.29965,-0.466929,0.506868,0.69139,-0.00985768,0.0325193,-1.18747,-0.0597201,0.0751056,0.00866644,2.27144,5,0.1,8,4.3,-0.525342,1.9178,0.545246,-0.243033,0.0885095,0.0358406,0.217643,-0.0768751,-0.00517443,0.010394,0.0124508,5,0.1,9,4.3,-0.377548,1.48113,0.957497,0.0523702,-0.236396,-0.0187811,0.0426751,-1.11135,-0.0878833,0.00966492,2.51625,5,0.1
0,4.4,-1.54533,-1.47408,1.18903,0.0303775,0.866026,0.107911,-0.0101328,-5.96046e-05,-0.03618,0.0204572,2.07498,5,0.1,1,4.4,-0.474557,1.5,0.526326,-0.0173442,0,-0.106357,0.0699311,0.00298023,0.213414,0.0114048,0.249224,5,0.1,2,4.4,0,-2.25457,0.599422,-0.27893,0.168049,0.000582635,0.3634,-0.0165701,-0.000149012,0.00866662,0.141449,5,0.1,3,4.4,-4.88402,3.6514,0.5,-0.137281,-0.139564,0,-0.0281334,0.0659227,0,0.0112386,0.22398,5,0.1,4,4.4,-3.30339,0.88957,1.34566,0.000602007,-0.775434,0.00121295,0.000238419,0.411302,0.00077486,0.0160016,2.24967,5,0.1,5,4.4,3.60046,-4.09803,0.5,0.00419021,0.122714,0,0.038147,-0.234127,0,0.0117998,1.06723,5,0.1,6,4.4,-2.00069,-3.75402,1.14077,0.688878,0.00379682,0.118622,-0.17935,-0.00357628,0.0604391,0.0138195,0.403367,5,0.1,7,4.4,-3.23677,-0.468195,0.510468,0.564176,-0.0152387,0.0391528,-1.31094,-0.0464022,0.0548363,0.0127982,2.16567,5,0.1,8,4.4,-0.548518,1.92625,0.548785,-0.219993,0.0802785,0.0347286,0.246465,-0.0889301,-0.0176728,0.0115805,0.00379122,5,0.1,9,4.4,-0.372144,1.4516,0.955227,0.0552058,-0.355524,-0.0261441,0.0128448,-1.19293,-0.0583231,0.00813517,2.44369,5,0.1
0,4.5,-1.54233,-1.38748,1.19968,0.0296243,0.866025,0.10522,-0.0064671,1.49012e-05,-0.0230968,0.0204572,2.07498,5,0.1,1,4.5,-0.475641,1.50001,0.516924,-0.00184914,0.000159256,-0.080355,0.219408,0.000454485,0.293788,0.0114048,0.249224,5,0.1,2,4.5,-0.0260013,-2.23781,0.59948,-0.240432,0.167289,0.000576023,0.403273,-0.0076443,-2.6077e-05,0.00866662,0.141449,5,0.1,3,4.5,-4.89801,3.63797,0.5,-0.14338,-0.127308,0,-0.0797212,0.170559,0,0.0112386,0.22398,5,0.1,4,4.5,-3.30333,0.8129,1.34579,0.000695512,-0.76741,0.00135042,0.00144541,-0.157766,0.00177324,0.0160016,2.24967,5,0.1,5,4.5,3.60119,-4.08689,0.5,0.0106197,0.100498,0,0.0529736,-0.210524,0,0.0117998,1.06723,5,0.1,6,4.5,-1.93259,-3.75366,1.15293,0.67347,0.00347234,0.12449,-0.157714,-0.00302494,0.050351,0.0138195,0.403367,5,0.1,7,4.5,-3.18707,-0.469945,0.514654,0.430157,-0.0196465,0.0444424,-1.29588,-0.0401326,0.0479631,0.0127982,2.16567,5,0.1,8,4.5,-0.569282,1.93383,0.552158,-0.195225,0.0712829,0.0326331,0.250492,-0.0914708,-0.0245161,0.0115805,0.00379122,5,0.1,9,4.5,-0.366575,1.40949,0.952344,0.0559886,-0.490335,-0.0312415,0.00118278,-1.41536,-0.0422709,0.00813517,2.44369,5,0.1
0,4.6,-1.5394,-1.30088,1.21007,0.0288248,0.866026,0.102362,-0.0107288,-5.96046e-05,-0.0378489,0.016124,1.63468,5,0.1,1,4.6,-0.474622,1.50003,0.510402,0.0228927,0.00013113,-0.0498772,0.259578,-0.00077486,0.305772,0.0107962,0.223489,5,0.1,2,4.6,-0.0479868,-2.22117,0.599537,-0.198949,0.165004,0.000570714,0.422949,-0.0442266,-8.9407e-05,0.0128577,0.13039,5,0.1,3,4.6,-4.91273,3.6262,0.5,-0.150788,-0.107044,0,-0.0581741,0.227451,0,0.00593156,0.208428,5,0.1,4,4.6,-3.30325,0.735059,1.34593,0.000858307,-0.790697,0.00152886,0.00154972,-0.238121,0.00166893,0.0140693,0.293754,5,0.1,5,4.6,3.60232,-4.07786,0.5,0.00941753,0.0805616,0,-0.0931025,-0.188351,0,0.00889671,3.56368,5,0.1,6,4.6,-1.86619,-3.75333,1.16557,0.652456,0.00317097,0.127593,-0.282288,-0.00309944,0.00721216,0.00814454,0.278403,5,0.1,7,4.6,-3.15005,-0.472089,0.519307,0.31597,-0.022994,0.0482425,-0.951529,-0.0257194,0.026077,0.00967577,2.00944,5,0.1,8,4.6,-0.587536,1.94049,0.555286,-0.169675,0.0619203,0.0297919,0.261158,-0.0957847,-0.0323653,0.00956184,0.00122719,5,0.1,9,4.6,-0.361,1.35361,0.949044,0.0551805,-0.623387,-0.0343829,-0.0183731,-1.18142,-0.0197887,0.0125003,0.40702,5,0.1
0,4.7,-1.53657,-1.21428,1.22014,0.0279156,0.865972,0.0991538,-0.00867993,-0.00209361,-0.0307113,0.016124,1.63468,5,0.1,1,4.7,-0.470959,1.50003,0.506699,0.0507526,5.06639e-05,-0.0264199,0.283942,-0.000789762,0.171497,0.0107962,0.223489,5,0.1,2,4.7,-0.0657376,-2.2049,0.599594,-0.155948,0.159985,0.000561308,0.430286,-0.0606626,-0.000122935,0.0128577,0.13039,5,0.1,3,4.7,-4.92812,3.61669,0.5,-0.156946,-0.0829831,0,-0.0559092,0.24724,0,0.00593156,0.208428,5,0.1,4,4.7,-3.30315,0.655213,1.34609,0.00103973,-0.80177,0.00171475,0.00192225,0.0294223,0.00189245,0.0140693,0.293754,5,0.1,5,4.7,3.60278,-4.06973,0.500039,-0.00379831,0.0903621,0.00111507,-0.297755,0.323415,0.0198223,0.00889671,3.56368,5,0.1,6,4.7,-1.80226,-3.75303,1.17837,0.626539,0.00289008,0.128161,-0.259653,-0.0025928,-0.00112504,0.00814454,0.278403,5,0.1,7,4.7,-3.12263,-0.47451,0.524256,0.240209,-0.0253301,0.0506222,-0.489458,-0.0197273,0.019148,0.00967577,2.00944,5,0.1,8,4.7,-0.603209,1.94621,0.558098,-0.143901,0.0524443,0.0263826,0.254009,-0.0935495,-0.0356995,0.00956184,0.00122719,5,0.1,9,4.7,-0.355578,1.2862,0.94552,0.0531826,-0.716251,-0.0359183,-0.0229627,-0.667647,-0.00981241,0.0125003,0.40702,5,0.1
0,4.8,-1.53382,-1.12771,1.22988,0.0268757,0.865182,0.0954807,-0.0128746,-0.0168681,-0.045836,0.0217262,1.25184,5,0.1,1,4.8,-0.464517,1.50004,0.504748,0.0773199,-2.08616e-05,-0.0140876,0.23751,-0.000655651,0.0819266,0.0109071,0.208509,5,0.1,2,4.8,-0.0792158,-2.18926,0.599649,-0.114099,0.152141,0.000543892,0.401396,-0.0989437,-0.000298023,0.00795521,0.0180216,5,0.1,3,4.8,-4.94403,3.60961,0.5,-0.160432,-0.0587285,0,-0.00786781,0.232935,0,0.00692982,0.423284,5,0.1,4,4.8,-3.30304,0.575706,1.34627,0.00121593,-0.78295,0.00188053,0.00166893,0.35277,0.0012517,0.0189008,2.40101,5,0.1,5,4.8,3.6,-4.05865,0.500266,-0.0608325,0.134408,0.00352412,-0.823259,0.509501,0.0264347,0.0092397,3.09769,5,0.1,6,4.8,-1.74102,-3.75275,1.19113,0.596562,0.00262856,0.12649,-0.356078,-0.0025034,-0.0359416,0.00899458,0.18893,5,0.1,7,4.8,-3.1,-0.477124,0.529386,0.222635,-0.026729,0.0516772,0.109196,-0.00740588,0.000417233,0.00868681,1.56522,5,0.1,8,4.8,-0.616343,1.95099,0.560553,-0.118954,0.0432521,0.0226825,0.244498,-0.0900626,-0.0380874,0.00970538,0.000808245,5,0.1,9,4.8,-0.350391,1.21213,0.941903,0.0503622,-0.755993,-0.0361696,-0.0343025,-0.126243,0.00548363,0.0132363,0.914488,5,0.1
0,4.9,-1.5312,-1.0412,1.23922,0.0257161,0.865263,0.0913527,-0.0113249,-0.000990927,-0.0402927,0.0217262,1.25184,5,0.1,1,4.9,-0.455625,1.50003,0.50367,0.100008,-6.66827e-05,-0.00820542,0.207612,-0.000283122,0.0388585,0.0109071,0.208509,5,0.1,2,4.9,-0.0886967,-2.17481,0.599701,-0.0763842,0.134543,0.000485033,0.349583,-0.237882,-0.000819564,0.00795521,0.0180216,5,0.1,3,4.9,-4.9601,3.60484,0.5,-0.160563,-0.0373319,0,0.0109076,0.192851,0,0.00692982,0.423284,5,0.1,4,4.9,-3.30291,0.497983,1.34647,0.00136159,-0.780992,0.00198092,0.00120699,-0.217866,0.000692904,0.0189008,2.40101,5,0.1,5,4.9,3.58865,-4.04225,0.500765,-0.175201,0.196485,0.00656331,-1.3638,0.685215,0.0324659,0.0092397,3.09769,5,0.1,6,4.9,-1.68304,-3.7525,1.2036,0.563534,0.00240132,0.12296,-0.323936,-0.00214577,-0.0389889,0.00899458,0.18893,5,0.1,7,4.9,-3.07608,-0.47976,0.534553,0.264647,-0.0253622,0.05159,0.64905,0.0314228,-0.00407174,0.00868681,1.56522,5,0.1,8,4.9,-0.627046,1.95487,0.562631,-0.095399,0.0345709,0.0188781,0.225741,-0.0832006,-0.0377446,0.00970538,0.000808245,5,0.1,9,4.9,-0.345523,1.13568,0.938319,0.0470053,-0.773903,-0.035432,-0.0340194,-0.184223,0.0101998,0.0132363,0.914488,5,0.1
0,5,-1.52868,-0.954788,1.24814,0.0244439,0.861414,0.0868201,-0.0149012,-0.0922382,-0.0528097,0.0211652,0.930419,5,0.1,1,5,-0.444694,1.50002,0.502994,0.117395,-8.04663e-05,-0.00574738,0.134274,-5.96046e-05,0.0128746,0.0126921,0.423173,5,0.1,2,5,-0.0946947,-2.16268,0.599745,-0.0447035,0.107241,0.00039041,0.282157,-0.296712,-0.00107288,0.00735647,0.250122,5,0.1,3,5,-4.97603,3.60199,0.5,-0.157332,-0.0204742,0,0.0574589,0.143409,0,0.00671087,0.565497,5,0.1,4,5,-3.30277,0.418499,1.34667,0.00144839,-0.809774,0.00200868,0.000357628,-0.286028,-0.000238419,0.0193214,0.415181,5,0.1,5,5,3.5641,-4.0192,0.501581,-0.315976,0.263298,0.00969023,-1.37556,0.616312,0.0287294,0.00934043,2.64295,5,0.1,6,5,-1.62839,-3.75227,1.21567,0.528502,0.00218749,0.117972,-0.389874,-0.00214577,-0.0636578,0.00803094,0.444098,5,0.1,7,5,-3.04604,-0.482098,0.539672,0.337982,-0.0210471,0.0505462,0.755191,0.0521541,-0.0180304,0.00709322,0.51762,5,0.1,8,5,-0.635494,1.95793,0.564332,-0.0739604,0.0266731,0.0151813,0.202388,-0.0743866,-0.0359714,0.0100597,0.000729507,5,0.1,9,5,-0.341,1.0576,0.934841,0.0433624,-0.784716,-0.0339806,-0.0396073,0.00146031,0.0194609,0.00804987,2.36045,5,0.1
0,5.1,-1.52631,-0.868842,1.25657,0.0230772,0.858917,0.0819745,-0.0132695,-0.00604615,-0.0470355,0.0211652,0.930419,5,0.1,1,5.1,-0.432341,1.50003,0.502468,0.128954,0.000306033,-0.0048806,0.0917166,0.00641495,0.00527874,0.0126921,0.423173,5,0.1,2,5.1,-0.0979442,-2.15328,0.599779,-0.0220687,0.0819862,0.000300538,0.175214,-0.213176,-0.000748783,0.00735647,0.250122,5,0.1,3,5.1,-4.99142,3.60066,0.5,-0.149758,-0.0065621,0,0.0947714,0.12593,0,0.00671087,0.565497,5,0.1,4,5.1,-3.30262,0.336429,1.34687,0.00149757,-0.827746,0.00200272,0.000506639,-0.0536329,0,0.0193214,0.415181,5,0.1,5,5.1,3.52524,-3.98966,0.502698,-0.462928,0.327984,0.0126394,-1.48493,0.639647,0.0287555,0.00934043,2.64295,5,0.1,6,5.1,-1.57777,-3.75206,1.22716,0.481305,0.00199191,0.111903,-0.545591,-0.00183284,-0.0613183,0.00803094,0.444098,5,0.1,7,5.1,-3.00853,-0.483916,0.544638,0.410851,-0.015099,0.0487539,0.669464,0.0643861,-0.0193901,0.00709322,0.51762,5,0.1,8,5.1,-0.641918,1.96024,0.565675,-0.0549529,0.0196891,0.0117187,0.177018,-0.0649914,-0.0330471,0.0100597,0.000729507,5,0.1,9,5.1,-0.337135,0.978306,0.931544,0.031641,-0.807249,-0.0319058,-0.17813,-0.368316,0.0225529,0.00804987,2.36045,5,0.1
0,5.2,-1.52407,-0.783162,1.26453,0.0216544,0.851971,0.0769168,-0.0158548,-0.166833,-0.056088,0.0225226,0.665991,5,0.1,1,5.2,-0.419091,1.50009,0.502,0.134898,0.000971556,-0.00454783,0.0239611,0.00602007,0.00196695,0.0144262,0.564958,5,0.1,2,5.2,-0.0994191,-2.14605,0.599806,-0.00875834,0.0637293,0.000236928,0.0953414,-0.155807,-0.000506639,0.0115861,0.246856,5,0.1,3,5.2,-5.00585,3.60054,0.5,-0.138307,0.00334382,0,0.13423,0.067234,0,0.0114764,0.785426,5,0.1,4,5.2,-3.30247,0.2539,1.34707,0.00153184,-0.817407,0.00198781,0.000119209,0.271566,-0.000298023,0.0141563,2.34547,5,0.1,5,5.2,3.47187,-3.95388,0.504095,-0.59945,0.384772,0.0151843,-1.18876,0.469208,0.0210404,0.00947927,2.31482,5,0.1,6,5.2,-1.53256,-3.75187,1.23803,0.421041,0.00181794,0.105107,-0.651538,-0.00202656,-0.07689,0.0086363,0.436276,5,0.1,7,5.2,-2.96445,-0.4851,0.549404,0.466383,-0.00859797,0.0464052,0.418782,0.0637919,-0.0286102,0.0070435,0.233534,5,0.1,8,5.2,-0.646576,1.9619,0.566688,-0.0386745,0.013721,0.00861287,0.148118,-0.0542998,-0.0289381,0.0131951,0.000538758,5,0.1,9,5.2,-0.334976,0.895691,0.928475,0.0107139,-0.843965,-0.0293881,-0.227302,-0.305653,0.0281036,0.00775806,2.28738,5,0.1
0,5.3,-1.52198,-0.698645,1.27195,0.0201954,0.838934,0.0717519,-0.0140145,-0.132598,-0.0496432,0.0225226,0.665991,5,0.1,1,5.3,-0.405573,1.50031,0.501559,0.134533,0.00381432,-0.00423426,-0.0315942,0.0393689,0.00417605,0.0144262,0.564958,5,0.1,2,5.3,-0.0999131,-2.14036,0.599828,-0.00197918,0.0507586,0.000195485,0.0438811,-0.10711,-0.000339001,0.0115861,0.246856,5,0.1,3,5.3,-5.01901,3.60124,0.5,-0.124633,0.0102118,0,0.14019,0.0427663,0,0.0114764,0.785426,5,0.1,4,5.3,-3.30221,0.172454,1.34727,0.00469461,-0.819774,0.00194144,0.0560582,-0.227478,-0.000663102,0.0141563,2.34547,5,0.1,5,5.3,3.40596,-3.913,0.50572,-0.717573,0.432484,0.0172874,-1.11151,0.451922,0.0197068,0.00947927,2.31482,5,0.1,6,5.3,-1.4939,-3.7517,1.24817,0.350665,0.00163652,0.0978865,-0.741102,-0.00165403,-0.0705123,0.0086363,0.436276,5,0.1,7,5.3,-2.91597,-0.485638,0.553907,0.500473,-0.00218013,0.0436709,0.247136,0.062786,-0.0273995,0.0070435,0.233534,5,0.1,8,5.3,-0.649745,1.96302,0.567411,-0.0251532,0.00877138,0.00591697,0.121944,-0.0445619,-0.0248291,0.0131951,0.000538758,5,0.1,9,5.3,-0.335153,0.810164,0.925671,-0.0150302,-0.862952,-0.0267216,-0.27401,-0.0890419,0.0258796,0.00775806,2.28738,5,0.1
0,5.4,-1.52003,-0.615616,1.27887,0.0187367,0.818913,0.0665814,-0.0156164,-0.294536,-0.0555515,0.0135873,0.463789,5,0.1,1,5.4,-0.392371,1.50087,0.501159,0.128585,0.00700355,-0.0037387,-0.0869483,0.0174046,0.00563264,0.0155091,1.76272,5,0.1,2,5.4,-0.0999519,-2.13577,0.599846,0.000676326,0.0416815,0.000166893,0.012178,-0.0771284,-0.000238419,0.00781603,0.245816,5,0.1,3,5.4,-5.03075,3.60228,0.5,-0.110137,0.00810027,0,0.150442,-0.0958443,0,0.00755393,0.729107,5,0.1,4,5.4,-3.30141,0.0891328,1.34746,0.0114858,-0.846976,0.00184774,0.0742674,-0.248743,-0.0012517,0.0198422,2.27878,5,0.1,5,5.4,3.32918,-3.86774,0.507536,-0.811332,0.469542,0.0189021,-0.721812,0.266194,0.0117123,0.00958446,2.15345,5,0.1,6,5.4,-1.46259,-3.75154,1.2576,0.275505,0.00147223,0.0905007,-0.750065,-0.00154972,-0.0793338,0.00973143,0.433815,5,0.1,7,5.4,-2.86507,-0.485556,0.55813,0.513291,0.00365376,0.0407055,-0.000238419,0.052616,-0.0327528,0.00757676,0.145906,5,0.1,8,5.4,-0.651697,1.96369,0.567886,-0.0143319,0.00482798,0.00367165,0.0944138,-0.0343323,-0.020057,0.0141174,0.000300985,5,0.1,9,5.4,-0.338011,0.72364,0.923129,-0.0417218,-0.866026,-0.0241026,-0.249714,0,0.0269711,0.0117517,2.10836,5,0.1
0,5.5,-1.51823,-0.535076,1.28527,0.0173017,0.792298,0.061476,-0.0136495,-0.269156,-0.0485703,0.0135873,0.463789,5,0.1,1,5.5,-0.379977,1.50184,0.500815,0.118989,0.0131629,-0.00311797,-0.105605,0.0558197,0.00662729,0.0155091,1.76272,5,0.1,2,5.5,-0.0998486,-2.13193,0.599861,0.00117107,0.0353947,0.000147894,-0.000926666,-0.0510812,-0.000156462,0.00781603,0.245816,5,0.1,3,5.5,-5.04103,3.60245,0.5,-0.0956602,-0.00746772,0,0.14016,-0.255674,0,0.00755393,0.729107,5,0.1,4,5.5,-3.29984,0.00348327,1.34763,0.0202212,-0.863182,0.00172723,0.0946671,-0.0806837,-0.00119954,0.0198422,2.27878,5,0.1,5,5.5,3.24534,-3.81939,0.509487,-0.857226,0.497517,0.0201074,-0.229746,0.261888,0.0111386,0.00958446,2.15345,5,0.1,6,5.5,-1.43871,-3.7514,1.26627,0.202837,0.00133328,0.0831343,-0.69458,-0.0012666,-0.0705272,0.00973143,0.433815,5,0.1,7,5.5,-2.81386,-0.484934,0.562045,0.509522,0.00868291,0.0376315,-0.088498,0.0466332,-0.0298433,0.00757676,0.145906,5,0.1,8,5.5,-0.652695,1.96401,0.56816,-0.00602426,0.00181608,0.00186954,0.0717528,-0.0259131,-0.0159293,0.0141174,0.000300985,5,0.1,9,5.5,-0.343406,0.637037,0.920845,-0.0657176,-0.866026,-0.0216379,-0.222566,3.72529e-06,0.0229888,0.0117517,2.10836,5,0.1
0,5.6,-1.51657,-0.457359,1.29117,0.0159085,0.759799,0.0565231,-0.0145435,-0.402256,-0.051856,0.0228573,0.691263,5,0.1,1,5.6,-0.368641,1.5032,0.500537,0.107391,0.0109583,-0.00243932,-0.126451,-0.121951,0.00676513,0.00971564,3.56263,5,0.1,2,5.6,-0.0997486,-2.12862,0.599875,0.000730343,0.0310302,0.00013411,-0.00685081,-0.0380278,-0.000119209,0.0073443,0.245457,5,0.1,3,5.6,-5.04991,3.6,0.5,-0.0819325,-0.045377,0,0.135183,-0.485539,0,0.00712431,0.639186,5,0.1,4,5.6,-3.29735,-0.0830459,1.3478,0.0294089,-0.866026,0.0015974,0.0847578,4.76837e-06,-0.00137091,0.0181251,2.4159,5,0.1,5,5.6,3.15899,-3.76854,0.511544,-0.866026,0.516605,0.0209197,0,0.09799,0.00420213,0.00931891,2.09928,5,0.1,6,5.6,-1.42175,-3.75128,1.27423,0.138056,0.00120997,0.0759691,-0.595033,-0.0013113,-0.0745058,0.00804804,0.429761,5,0.1,7,5.6,-2.76358,-0.483851,0.565656,0.493455,0.0127569,0.0345513,-0.24116,0.0339448,-0.0325441,0.00702678,0.185954,5,0.1,8,5.6,-0.652976,1.96408,0.568274,3.72529e-05,-0.000363588,0.000491738,0.0496805,-0.0177026,-0.0115931,0.0129138,0.000126212,5,0.1,9,5.6,-0.350995,0.550435,0.918794,-0.08495,-0.866026,-0.0193909,-0.156909,0,0.0223815,0.0103094,1.29831,5,0.1
0,5.7,-1.51505,-0.382956,1.29658,0.0145761,0.731456,0.0517735,-0.012584,-0.210121,-0.0448152,0.0228573,0.691263,5,0.1,1,5.7,-0.357996,1.50359,0.500327,0.109987,-0.00756383,-0.00177994,0.144046,-0.373378,0.00632554,0.00971564,3.56263,5,0.1,2,5.7,-0.0997081,-2.12568,0.599888,0.000101735,0.0279419,0.000124238,-0.00560051,-0.0254214,-8.19564e-05,0.0073443,0.245457,5,0.1,3,5.7,-5.05746,3.59285,0.5,-0.0692934,-0.0989366,0,0.118613,-0.559345,0,0.00712431,0.639186,5,0.1,4,5.7,-3.29397,-0.169013,1.34795,0.0383396,-0.847351,0.00147372,0.0888556,0.358238,-0.00114739,0.0181251,2.4159,5,0.1,5,5.7,3.07239,-3.71627,0.513662,-0.866015,0.529188,0.0214421,0.000432134,0.122517,0.00499561,0.00931891,2.09928,5,0.1,6,5.7,-1.41075,-3.75116,1.28148,0.0837946,0.00109337,0.0691108,-0.483043,-0.00105798,-0.0647902,0.00804804,0.429761,5,0.1,7,5.7,-2.7153,-0.482414,0.568957,0.473053,0.0158796,0.031534,-0.188217,0.0274796,-0.0287369,0.00702678,0.185954,5,0.1,8,5.7,-0.652753,1.96397,0.568271,0.0041456,-0.0018172,-0.000497419,0.0327565,-0.0114739,-0.00819936,0.0129138,0.000126212,5,0.1,9,5.7,-0.360037,0.463838,0.91696,-0.0936906,-0.865755,-0.0173598,-0.0247024,0.010833,0.0187941,0.0103094,1.29831,5,0.1
0,5.8,-1.51365,-0.310849,1.30154,0.0133127,0.709929,0.0472754,-0.0129938,-0.253351,-0.0463724,0.0176352,0.987528,5,0.1,1,5.8,-0.346064,1.5,0.500179,0.130117,-0.0737339,-0.0011906,0.232026,-0.925362,0.00539422,0.0122526,3.11275,5,0.1,2,5.8,-0.0997231,-2.12301,0.5999,-0.000371225,0.0256479,0.000116229,-0.00378862,-0.0215769,-8.9407e-05,0.00855621,0.245262,5,0.1,3,5.8,-5.06381,3.58021,0.5,-0.0580072,-0.152618,0,0.107288,-0.494361,0,0.00889037,0.571146,5,0.1,4,5.8,-3.28972,-0.251467,1.3481,0.0463307,-0.797158,0.00135899,0.0673532,0.633061,-0.00119209,0.0158239,2.69747,5,0.1,5,5.8,2.98579,-3.66291,0.515824,-0.865859,0.535822,0.021708,0.00357628,-0.0116825,-0.000566244,0.00899968,2.09498,5,0.1,6,5.8,-1.40456,-3.75106,1.28806,0.0424773,0.000989437,0.0626504,-0.340044,-0.00107288,-0.0658035,0.00890583,0.627016,5,0.1,7,5.8,-2.66899,-0.480706,0.571967,0.452197,0.0180833,0.0286445,-0.244141,0.0159144,-0.0296831,0.00755026,0.130234,5,0.1,8,5.8,-0.652201,1.96374,0.568186,0.0066489,-0.00268519,-0.00115484,0.017643,-0.00584126,-0.00497699,0.012217,4.01645e-05,5,0.1,9,5.8,-0.369358,0.377403,0.915316,-0.0911728,-0.861694,-0.0155374,0.0690371,0.0866354,0.0181198,0.0132052,2.37831,5,0.1
0,5.9,-1.51238,-0.240976,1.30605,0.0121268,0.68824,0.0430455,-0.0111237,-0.210344,-0.0396296,0.0176352,0.987528,5,0.1,1,5.9,-0.331659,1.48678,0.500085,0.159623,-0.200062,-0.000712182,0.331122,-1.49319,0.0041537,0.0122526,3.11275,5,0.1,2,5.9,-0.0997744,-2.12054,0.599911,-0.00061132,0.0238169,0.000108406,-0.00118557,-0.0161678,-7.45058e-05,0.00855621,0.245262,5,0.1,3,5.9,-5.06911,3.56296,0.5,-0.0481702,-0.188467,0,0.09045,-0.250056,0,0.00889037,0.571146,5,0.1,4,5.9,-3.28474,-0.327184,1.34823,0.0532325,-0.711217,0.00125635,0.0661761,0.995401,-0.000916421,0.0158239,2.69747,5,0.1,5,5.9,2.89921,-3.60922,0.517998,-0.865928,0.538702,0.0218108,-0.00211596,0.0380576,0.00136346,0.00899968,2.09498,5,0.1,6,5.9,-1.40189,-3.75096,1.29402,0.0128144,0.000894815,0.0566356,-0.231944,-0.000864267,-0.0562668,0.00890583,0.627016,5,0.1,7,5.9,-2.62489,-0.478824,0.574692,0.430523,0.0194688,0.0259177,-0.206634,0.0109747,-0.0256412,0.00755026,0.130234,5,0.1,8,5.9,-0.651467,1.96345,0.56805,0.00785282,-0.00306759,-0.00153175,0.00682101,-0.0019446,-0.00261143,0.012217,4.01645e-05,5,0.1,9,5.9,-0.377987,0.291322,0.91369,-0.080177,-0.862234,-0.018339,0.142613,-0.0541462,-0.0638254,0.0132052,2.37831,5,0.1
0,6,-1.51123,-0.173333,1.31016,0.0110239,0.662802,0.0391096,-0.0113249,-0.319104,-0.0400543,0.0174028,0.935335,5,0.1,1,6,-0.31406,1.4591,0.500032,0.191655,-0.353408,-0.000362098,0.289604,-1.49196,0.00286102,0.0103719,2.65327,5,0.1,2,6,-0.0998383,-2.11824,0.599922,-0.000639819,0.0222206,9.98378e-05,0.000469387,-0.0165701,-2.98023e-05,0.00793594,0.245558,5,0.1,3,6,-5.07349,3.54309,0.5,-0.0397563,-0.206846,0,0.0789165,-0.132561,0,0.00685296,0.494545,5,0.1,4,6,-3.27912,-0.393298,1.34835,0.0588,-0.612094,0.00116527,0.0422001,0.937239,-0.000953674,0.0202609,2.86514,5,0.1,5,6,2.81261,-3.55529,0.520181,-0.866008,0.538111,0.0217691,0.000119209,-0.0718832,-0.00309944,0.00960074,2.09707,5,0.1,6,6,-1.40146,-3.75088,1.29941,-0.00111163,0.000810623,0.0510931,-0.0398159,-0.000953674,-0.0559092,0.00842767,0.823722,5,0.1,7,6,-2.58292,-0.476836,0.577157,0.40794,0.0201449,0.0233814,-0.257134,0.00201166,-0.02563,0.00845439,0.188602,5,0.1,8,6,-0.650662,1.96313,0.567887,0.00808984,-0.00310242,-0.0016883,-0.00172853,0.00107288,-0.000625849,0.0136509,1.30469e-05,5,0.1,9,6,-0.385226,0.204862,0.911472,-0.0641242,-0.866025,-0.0264689,0.171989,-7.15256e-06,-0.0908077,0.0118086,1.94512,5,0.1
0,6.1,-1.51018,-0.109358,1.31388,0.00999495,0.610336,0.0354702,-0.00958145,-0.700956,-0.0339076,0.0174028,0.935335,5,0.1,1,6.1,-0.293354,1.41591,0.500008,0.222798,-0.512331,-0.00013914,0.310985,-1.60188,0.00165403,0.0103719,2.65327,5,0.1,2,6.1,-0.0998877,-2.11603,0.599932,-0.000255264,0.0225395,9.62988e-05,0.00609411,0.0180602,-4.47035e-05,0.00793594,0.245558,5,0.1,3,6.1,-5.0771,3.52199,0.5,-0.0326425,-0.214441,0,0.0642538,-0.0748187,0,0.00685296,0.494545,5,0.1,4,6.1,-3.27302,-0.449917,1.34846,0.0631388,-0.524795,0.00108574,0.0404567,0.680996,-0.000692904,0.0202609,2.86514,5,0.1,5,6.1,2.72601,-3.50165,0.52235,-0.866019,0.535823,0.0216559,-0.000163913,-0.0051707,-0.000417233,0.00960074,2.09707,5,0.1,6,6.1,-1.40157,-3.7508,1.30426,0.00245888,0.000727922,0.0460142,0.159346,-0.000745058,-0.0471547,0.00842767,0.823722,5,0.1,7,6.1,-2.54316,-0.474815,0.579375,0.389036,0.0202357,0.0210445,-0.145003,-0.000867993,-0.0217706,0.00845439,0.188602,5,0.1,8,6.1,-0.649872,1.96283,0.567717,0.00761813,-0.00288896,-0.0016788,-0.00731274,0.00305474,0.000752509,0.0136509,1.30469e-05,5,0.1,9,6.1,-0.390698,0.118264,0.908233,-0.0448684,-0.865822,-0.039354,0.199445,0.00813097,-0.154391,0.0118086,1.94512,5,0.1
0,6.2,-1.50922,-0.0522578,1.31726,0.00905097,0.528004,0.0321299,-0.00947714,-0.921007,-0.0337958,0.0154319,3.37854,5,0.1,1,6.2,-0.269634,1.35706,0.500001,0.250041,-0.659233,-2.08616e-05,0.218049,-1.27512,0.000745058,0.0111897,2.34626,5,0.1,2,6.2,-0.099881,-2.11366,0.599941,0.000388175,0.0249803,9.08971e-05,0.00598654,0.0269413,-5.96046e-05,0.0152284,0.242062,5,0.1,3,6.2,-5.08006,3.5,0.5,-0.0267506,-0.226998,0,0.0538826,-0.172853,0,0.00980037,0.41135,5,0.1,4,6.2,-3.26653,-0.5,1.34856,0.0661969,-0.486869,0.00101924,0.0178814,0.095576,-0.00077486,0.0214946,2.75326,5,0.1,5,6.2,2.6394,-3.44819,0.524509,-0.866026,0.531739,0.0214711,0,-0.0985861,-0.00417233,0.00953565,2.1021,5,0.1,6,6.2,-1.4,-3.75073,1.30863,0.0338554,0.000655651,0.0414044,0.451446,-0.000715256,-0.0460148,0.00743485,0.970394,5,0.1,7,6.2,-2.50496,-0.472805,0.581372,0.374782,0.0198618,0.0189126,-0.157475,-0.00704825,-0.0212789,0.00756331,0.258365,5,0.1,8,6.2,-0.649154,1.96256,0.567555,0.00669956,-0.0025183,-0.0015527,-0.0107586,0.00429153,0.00175834,0.00825762,9.03543e-06,5,0.1,9,6.2,-0.394231,0.0317871,0.903506,-0.0264645,-0.862773,-0.0551581,0.160038,0.0650406,-0.15229,0.0131067,1.57897,5,0.1
0,6.3,-1.50805,-0.00452571,1.3203,0.0171812,0.423362,0.0287605,0.151835,-1.11929,-0.0338927,0.0154319,3.37854,5,0.1,1,6.3,-0.243489,1.28521,0.500002,0.272876,-0.772233,2.72878e-05,0.218768,-0.946276,0.000249594,0.0111897,2.34626,5,0.1,2,6.3,-0.0997396,-2.11106,0.59995,0.0029108,0.0267144,8.4471e-05,0.034661,0.00785291,-7.07805e-05,0.0152284,0.242062,5,0.1,3,6.3,-5.08249,3.47606,0.5,-0.0219636,-0.254561,0,0.0425875,-0.340402,0,0.00980037,0.41135,5,0.1,4,6.3,-3.25982,-0.549646,1.34866,0.0681307,-0.51769,0.000956096,0.0170916,-0.604782,-0.000528991,0.0214946,2.75326,5,0.1,5,6.3,2.5528,-3.39531,0.526644,-0.866026,0.52724,0.0212706,0,-0.0225902,-0.00109151,0.00953565,2.1021,5,0.1,6,6.3,-1.39359,-3.75067,1.31255,0.100456,0.000592694,0.0372445,0.816904,-0.000551343,-0.0384375,0.00743485,0.970394,5,0.1,7,6.3,-2.46797,-0.470854,0.583164,0.367259,0.0191337,0.016984,-0.0219941,-0.00807457,-0.0178516,0.00756331,0.258365,5,0.1,8,6.3,-0.648541,1.96233,0.56741,0.0055179,-0.0020545,-0.00134585,-0.0125617,0.00485778,0.00231341,0.00825762,9.03543e-06,5,0.1,9,6.3,-0.396089,-0.0544355,0.897186,-0.0113809,-0.863158,-0.0714068,0.119723,-0.0252917,-0.163186,0.0131067,1.57897,5,0.1
0,6.4,-1.50544,0.0322345,1.32301,0.0358194,0.312984,0.0253111,0.205219,-1.05241,-0.0354052,0.0181847,3.56856,5,0.1,1,6.4,-0.21524,1.20403,0.500005,0.290422,-0.843018,3.57628e-05,0.1183,-0.453353,-2.98023e-05,0.011351,2.23196,5,0.1,2,6.4,-0.099291,-2.10838,0.599958,0.0057444,0.0265956,7.59959e-05,0.0160597,-0.00989437,-5.96046e-05,0.00855035,0.228808,5,0.1,3,6.4,-5.08449,3.44888,0.5,-0.0181079,-0.288463,0,0.0350475,-0.309467,0,0.0114535,0.321978,5,0.1,4,6.4,-3.25294,-0.604869,1.34876,0.0689924,-0.588962,0.00090301,-0.00238419,-0.739217,-0.000536442,0.0120302,2.33756,5,0.1,5,6.4,2.4662,-3.34278,0.528762,-0.866026,0.521898,0.0210389,0,-0.106573,-0.00447035,0.00962289,2.10806,5,0.1,6,6.4,-1.37929,-3.75061,1.31609,0.186035,0.000536442,0.0335038,0.846326,-0.000476837,-0.0373125,0.00811656,1.04939,5,0.1,7,6.4,-2.43133,-0.468987,0.584775,0.365353,0.0181548,0.0152469,-0.0374317,-0.0118762,-0.0172853,0.00743232,0.332604,5,0.1,8,6.4,-0.648053,1.96215,0.567287,0.00424534,-0.00156462,-0.00109971,-0.012666,0.00482798,0.0025034,0.0117148,8.60396e-06,5,0.1,9,6.4,-0.396825,-0.140712,0.889276,-0.00554621,-0.859882,-0.086163,-0.0113845,0.122882,-0.12517,0.0159032,1.24825,5,0.1
0,6.5,-1.50066,0.0583198,1.32537,0.0609508,0.211043,0.022072,0.279047,-0.917152,-0.0299811,0.0181847,3.56856,5,0.1,1,6.5,-0.185546,1.11833,0.500008,0.303556,-0.864503,2.73809e-05,0.125398,-0.0592172,-0.00012666,0.011351,2.23196,5,0.1,2,6.5,-0.0985981,-2.10579,0.599965,0.00796138,0.0248387,6.95698e-05,0.00811974,-0.0243485,-7.07805e-05,0.00855035,0.228808,5,0.1,3,6.5,-5.08622,3.41836,0.5,-0.0172563,-0.322607,0,-0.012368,-0.344142,0,0.0114535,0.321978,5,0.1,4,6.5,-3.24605,-0.668086,1.34884,0.0689022,-0.679438,0.000858679,-0.0025928,-0.984825,-0.00038743,0.0120302,2.33756,5,0.1,5,6.5,2.37959,-3.29091,0.530852,-0.866026,0.516772,0.0208163,0,-0.026837,-0.00122562,0.00962289,2.10806,5,0.1,6,6.5,-1.35606,-3.75056,1.31927,0.280961,0.000494719,0.0301439,0.994191,-0.00038743,-0.0309199,0.00811656,1.04939,5,0.1,7,6.5,-2.39468,-0.467229,0.58622,0.369923,0.0170074,0.0136877,0.0961572,-0.0115447,-0.014361,0.00743232,0.332604,5,0.1,8,6.5,-0.647692,1.96202,0.56719,0.00299178,-0.00109002,-0.000844896,-0.0121817,0.00458956,0.0025481,0.0117148,8.60396e-06,5,0.1,9,6.5,-0.397599,-0.226268,0.880032,-0.0124664,-0.85198,-0.0985327,-0.158293,0.0772394,-0.114884,0.0159032,1.24825,5,0.1
0,6.6,-1.49317,0.0754798,1.32744,0.0884235,0.139401,0.0192165,0.256777,-0.486489,-0.0277162,0.0152617,3.46665,5,0.1,1,6.6,-0.154679,1.03176,0.50001,0.312285,-0.866024,1.3411e-05,0.0359786,-2.98023e-05,-0.000178814,0.0104718,2.20719,5,0.1,2,6.6,-0.0978941,-2.10345,0.599972,0.00456199,0.0218928,6.10948e-05,-0.0840165,-0.033617,-5.96046e-05,0.00837675,0.199421,5,0.1,3,6.6,-5.08804,3.38452,0.5,-0.019598,-0.352287,0,-0.0298023,-0.228763,0,0.00799354,0.239556,5,0.1,4,6.6,-3.23919,-0.740783,1.34893,0.0679374,-0.771157,0.000819564,-0.0187159,-0.787377,-0.000476837,0.0155281,1.81856,5,0.1,5,6.6,2.29299,-3.23944,0.532925,-0.866026,0.511253,0.02058,0,-0.105739,-0.00432134,0.00885007,2.11408,5,0.1,6,6.6,-1.32314,-3.75051,1.32213,0.374833,0.000452995,0.027141,0.840843,-0.000238419,-0.0298619,0.00866856,0.273626,5,0.1,7,6.6,-2.3572,-0.465588,0.587518,0.378931,0.0157677,0.0122964,0.0598431,-0.0135899,-0.0138283,0.00737082,0.25108,5,0.1,8,6.6,-0.647451,1.96193,0.567118,0.00184625,-0.000661612,-0.000597537,-0.0105798,0.00399351,0.00232458,0.00907991,6.50294e-06,5,0.1,9,6.6,-0.4,-0.310874,0.869671,-0.038936,-0.837305,-0.107899,-0.357151,0.245452,-0.0674129,0.0180094,0.952802,5,0.1
0,6.7,-1.483,0.0875959,1.32923,0.11525,0.111515,0.0167493,0.265203,0.0165151,-0.0222176,0.0152617,3.46665,5,0.1,1,6.7,-0.123189,0.945157,0.500011,0.317857,-0.866026,-1.86265e-06,0.056732,0,-0.00012666,0.0104718,2.20719,5,0.1,2,6.7,-0.0979663,-2.10144,0.599978,-0.00787644,0.0183117,5.46686e-05,-0.192279,-0.0373572,-7.07805e-05,0.00837675,0.199421,5,0.1,3,6.7,-5.09013,3.34811,0.5,-0.0219144,-0.375453,0,-0.0160635,-0.211686,0,0.00799354,0.239556,5,0.1,4,6.7,-3.23249,-0.821345,1.34901,0.0662018,-0.834643,0.000778772,-0.0185519,-0.462808,-0.000365078,0.0155281,1.81856,5,0.1,5,6.7,2.20639,-3.18864,0.53497,-0.866026,0.506194,0.0203703,0,-0.0258833,-0.00109524,0.00885007,2.11408,5,0.1,6,6.7,-1.28186,-3.75047,1.3247,0.446245,0.000430271,0.0244595,0.572637,-0.000223517,-0.0246316,0.00866856,0.273626,5,0.1,7,6.7,-2.31887,-0.464076,0.588684,0.388363,0.0144873,0.0110539,0.103205,-0.0124183,-0.0114068,0.00737082,0.25108,5,0.1,8,6.7,-0.647317,1.96188,0.567069,0.000857934,-0.000290759,-0.00037523,-0.00905991,0.00337511,0.00208989,0.00907991,6.50294e-06,5,0.1,9,6.7,-0.406113,-0.393504,0.858553,-0.0866412,-0.815702,-0.114222,-0.557156,0.220588,-0.0532418,0.0180094,0.952802,5,0.1
0,6.8,-1.47023,0.1,1.3308,0.138971,0.147619,0.0146657,0.198841,0.66698,-0.0197887,0.0105206,3.07589,5,0.1,1,6.8,-0.0912108,0.858554,0.50001,0.320448,-0.866026,-1.19209e-05,-0.0180155,0,-8.9407e-05,0.0108647,2.20665,5,0.1,2,6.8,-0.1,-2.09979,0.599983,-0.0354415,0.0145376,4.76837e-05,-0.34697,-0.0375509,-8.9407e-05,0.0117948,0.332947,5,0.1,3,6.8,-5.09238,3.30969,0.5,-0.0227571,-0.390762,0,-0.000715256,-0.0785589,0,0.00673391,0.170826,5,0.1,4,6.8,-3.22598,-0.906489,1.34908,0.0637949,-0.861877,0.000739098,-0.031352,-0.0829697,-0.000476837,0.0126696,1.38658,5,0.1,5,6.8,2.11979,-3.13822,0.536998,-0.866026,0.50087,0.0201508,0,-0.102162,-0.00417233,0.0147076,2.03438,5,0.1,6,6.8,-1.23491,-3.75043,1.32703,0.487089,0.000405312,0.0220686,0.236332,-0.000357628,-0.0237823,0.00714573,0.440836,5,0.1,7,6.8,-2.27962,-0.462691,0.589734,0.395209,0.0132158,0.00994951,0.015378,-0.0132769,-0.0109971,0.00715923,0.238497,5,0.1,8,6.8,-0.647273,1.96187,0.567042,5.36442e-05,5.96046e-06,-0.000183284,-0.00691414,0.002563,0.00166893,0.00884247,3.6321e-06,5,0.1,9,6.8,-0.417623,-0.473786,0.846927,-0.143389,-0.787465,-0.117579,-0.547796,0.367463,-0.0100136,0.0108108,0.702836,5,0.1
0,6.9,-1.45536,0.119455,1.33217,0.158092,0.252184,0.0129156,0.173002,1.31245,-0.0157058,0.0105206,3.07589,5,0.1,1,6.9,-0.0591545,0.771952,0.500008,0.321214,-0.866026,-1.81608e-05,0.0146893,3.72529e-06,-3.35276e-05,0.0108647,2.20665,5,0.1,2,6.9,-0.105865,-2.09853,0.599987,-0.0864605,0.0108611,3.92087e-05,-0.624082,-0.0355691,-7.82311e-05,0.0117948,0.332947,5,0.1,3,6.9,-5.09463,3.27022,0.5,-0.0220634,-0.398268,0,0.0138581,-0.0532866,0,0.00673391,0.170826,5,0.1,4,6.9,-3.21974,-0.992927,1.34916,0.0608522,-0.865583,0.000697374,-0.0296086,-0.00304729,-0.00038743,0.0126696,1.38658,5,0.1,5,6.9,2.03318,-3.08845,0.539,-0.866026,0.495643,0.0199351,0,-0.0313073,-0.00130758,0.0147076,2.03438,5,0.1,6,6.9,-1.18494,-3.75039,1.32913,0.512498,0.000371784,0.0199366,0.239722,-0.000298023,-0.0195652,0.00714573,0.440836,5,0.1,7,6.9,-2.23989,-0.461501,0.590678,0.400085,0.0100279,0.0089705,0.0575334,-0.0464786,-0.00891834,0.00715923,0.238497,5,0.1,8,6.9,-0.6473,1.96188,0.567031,-0.000555813,0.000230409,-3.11993e-05,-0.00522286,0.0019148,0.00135973,0.00884247,3.6321e-06,5,0.1,9,6.9,-0.434824,-0.550815,0.835124,-0.201072,-0.753587,-0.118306,-0.57569,0.337876,0.000163913,0.0108108,0.702836,5,0.1
0,7,-1.4388,0.151542,1.33339,0.171798,0.390434,0.0114411,0.0938773,1.36767,-0.0141859,0.0147268,2.69092,5,0.1,1,7,-0.0270308,0.685349,0.500007,0.320207,-0.866026,-1.93715e-05,-0.0479531,0,2.98023e-05,0.0159452,2.20802,5,0.1,2,7,-0.117754,-2.09761,0.599991,-0.151591,0.00749826,3.12924e-05,-0.641171,-0.031352,-5.96046e-05,0.00854955,0.229823,5,0.1,3,7,-5.09675,3.23029,0.5,-0.0201344,-0.398374,0,0.0245571,0.0636578,0,0.00698961,0.226436,5,0.1,4,7,-3.21382,-1.07941,1.34922,0.0575244,-0.863096,0.000655651,-0.0386238,0.0585318,-0.000417233,0.0162032,1.04195,5,0.1,5,7,1.94658,-3.03912,0.540984,-0.866026,0.489658,0.0196904,0,-0.108838,-0.00441074,0.00847446,1.55325,5,0.1,6,7,-1.1327,-3.75035,1.33102,0.52959,0.000339746,0.0180334,0.0798106,-0.000357628,-0.0190735,0.007469,0.315701,5,0.1,7,7,-2.19969,-0.460758,0.591531,0.402522,0.00463501,0.00810921,-0.026226,-0.0582486,-0.00858307,0.00800704,0.172571,5,0.1,8,7,-0.647378,1.96192,0.567034,-0.000984967,0.00038445,8.49366e-05,-0.00330806,0.00119209,0.000983477,0.00930154,1.4956e-06,5,0.1,9,7,-0.457652,-0.624348,0.823342,-0.253352,-0.715218,-0.11677,-0.448331,0.448406,0.0336468,0.0122743,0.503481,5,0.1
0,7.1,-1.42153,0.197939,1.33447,0.170087,0.540362,0.0103064,-0.113718,1.54109,-0.00916421,0.0147268,2.69092,5,0.1,1,7.1,0.00486516,0.598747,0.500005,0.318383,-0.866026,-1.62981e-05,-0.007108,3.72529e-06,3.35276e-05,0.0159452,2.20802,5,0.1,2,7.1,-0.136222,-2.09701,0.599994,-0.217942,0.00456236,2.54251e-05,-0.653522,-0.0271052,-5.58794e-05,0.00854955,0.229823,5,0.1,3,7.1,-5.09863,3.1906,0.5,-0.0174396,-0.396477,0,0.0288785,-0.00102818,0,0.00698961,0.226436,5,0.1,4,7.1,-3.20825,-1.16568,1.34929,0.0539199,-0.863481,0.000617653,-0.0352263,-0.0207126,-0.000357628,0.0162032,1.04195,5,0.1,5,7.1,1.85998,-2.99059,0.542936,-0.865778,0.48145,0.0193575,0.00991672,-0.0784546,-0.00317395,0.00847446,1.55325,5,0.1,6,7.1,-1.07931,-3.75032,1.33274,0.537858,0.000308082,0.0163257,0.0599846,-0.000312924,-0.015676,0.007469,0.315701,5,0.1,7,7.1,-2.1595,-0.460608,0.592303,0.401448,-0.0017745,0.00734506,-0.0148267,-0.0669602,-0.00697002,0.00800704,0.172571,5,0.1,8,7.1,-0.647491,1.96196,0.567047,-0.00124658,0.000477023,0.000168663,-0.00192598,0.000663102,0.000681728,0.00930154,1.4956e-06,5,0.1,9,7.1,-0.48522,-0.693755,0.81183,-0.297328,-0.673616,-0.113403,-0.407962,0.406593,0.0375323,0.0122743,0.503481,5,0.1
0,7.2,-1.40533,0.25936,1.33546,0.151709,0.683165,0.00949204,-0.241697,1.24988,-0.00762939,0.0128539,0.326207,5,0.1,1,7.2,0.0366107,0.512144,0.500003,0.315615,-0.866026,-1.3411e-05,-0.0613928,0,2.98023e-05,0.00984343,2.21025,5,0.1,2,7.2,-0.161086,-2.09668,0.599996,-0.276766,0.00212193,1.93715e-05,-0.500008,-0.0216961,-2.98023e-05,0.00883042,0.0675417,5,0.1,3,7.2,-5.10023,3.15101,0.5,-0.0144601,-0.39435,0,0.030756,0.0611544,0,0.00694534,0.165446,5,0.1,4,7.2,-3.20304,-1.25196,1.34935,0.0501812,-0.859669,0.000581145,-0.0406504,0.127077,-0.000476837,0.0145952,0.755311,5,0.1,5,7.2,1.77354,-2.94294,0.544851,-0.862062,0.470054,0.0188977,0.0793338,-0.165462,-0.00667572,0.0086025,1.15264,5,0.1,6,7.2,-1.02543,-3.75029,1.3343,0.537297,0.000280142,0.0147998,-0.0886917,-0.000357628,-0.015378,0.00860304,0.542068,5,0.1,7,7.2,-2.11954,-0.461114,0.593003,0.396246,-0.00823811,0.00666678,-0.102758,-0.0601113,-0.00676513,0.011161,0.12105,5,0.1,8,7.2,-0.647623,1.96201,0.567067,-0.00137091,0.00051856,0.000220537,-0.000566244,0.000178814,0.00038743,0.00735016,4.5225e-07,5,0.1,9,7.2,-0.51677,-0.759,0.800709,-0.331023,-0.630039,-0.108625,-0.250041,0.480622,0.0605285,0.0143088,0.350083,5,0.1
0,7.3,-1.39136,0.332835,1.33638,0.127872,0.775497,0.00891704,-0.234388,0.600217,-0.004448,0.0128539,0.326207,5,0.1,1,7.3,0.0679873,0.425542,0.500002,0.312663,-0.866026,-1.04308e-05,-0.0160788,3.57628e-06,2.98023e-05,0.00984343,2.21025,5,0.1,2,7.3,-0.190969,-2.09657,0.599998,-0.317744,0.000118092,1.62981e-05,-0.311042,-0.0181049,-3.35276e-05,0.00883042,0.0675417,5,0.1,3,7.3,-5.10148,3.11179,0.5,-0.0102781,-0.390473,0,0.0499785,0.0360459,0,0.00694534,0.165446,5,0.1,4,7.3,-3.19821,-1.33747,1.3494,0.0464119,-0.851347,0.000538491,-0.0362098,0.0813007,-0.000409782,0.0145952,0.755311,5,0.1,5,7.3,1.68743,-2.89669,0.546711,-0.861689,0.455389,0.0183063,-0.0212342,-0.146538,-0.00590086,0.0086025,1.15264,5,0.1,6,7.3,-0.971796,-3.75027,1.3357,0.537714,0.000248849,0.0134239,0.0565723,-0.000298023,-0.0126287,0.00860304,0.542068,5,0.1,7,7.3,-2.08038,-0.46224,0.593639,0.387057,-0.0142321,0.00606375,-0.0968724,-0.0575203,-0.00552461,0.011161,0.12105,5,0.1,8,7.3,-0.647762,1.96206,0.567091,-0.00138115,0.000518933,0.000247732,0.000335276,-0.000163913,0.000156462,0.00735016,4.5225e-07,5,0.1,9,7.3,-0.551082,-0.819737,0.790138,-0.354351,-0.585563,-0.102825,-0.198197,0.427984,0.0586584,0.0143088,0.350083,5,0.1
0,7.4,-1.37973,0.412342,1.33725,0.104958,0.804403,0.00850558,-0.223219,-0.0136197,-0.00423193,0.0144482,0.691466,5,0.1,1,7.4,0.0991243,0.338939,0.500001,0.309249,-0.866025,-7.45058e-06,-0.0652593,-1.43051e-05,2.98023e-05,0.0141393,2.21274,5,0.1,2,7.4,-0.223931,-2.09664,0.599999,-0.337721,-0.00146031,1.3411e-05,-0.084452,-0.0133514,-2.98023e-05,0.00744888,0.0817456,5,0.1,3,7.4,-5.10224,3.07301,0.5,-0.00497103,-0.383812,0,0.0538826,0.110984,0,0.00990377,0.123937,5,0.1,4,7.4,-3.19376,-1.42199,1.34945,0.0426948,-0.836307,0.000497699,-0.0392199,0.24873,-0.000417233,0.0148209,0.530756,5,0.1,5,7.4,1.60133,-2.85197,0.548508,-0.857669,0.437593,0.0175893,0.137269,-0.222206,-0.00891089,0.00907453,0.824616,5,0.1,6,7.4,-0.917774,-3.75024,1.33699,0.541636,0.000226498,0.0121891,-0.00739098,-0.000357628,-0.0123978,0.00735571,0.593333,5,0.1,7,7.4,-2.04226,-0.463931,0.594218,0.37421,-0.0193603,0.00552237,-0.170827,-0.0434518,-0.00542402,0.0100741,0.142306,5,0.1,8,7.4,-0.647897,1.96211,0.567116,-0.00130832,0.000488758,0.00025332,0.00107288,-0.000476837,-5.96046e-05,0.0079198,1.36379e-07,5,0.1,9,7.4,-0.5873,-0.876113,0.780167,-0.36761,-0.541224,-0.0963584,-0.0548065,0.47195,0.0728071,0.0124234,0.237952,5,0.1
0,7.5,-1.37031,0.492832,1.33808,0.0838153,0.805569,0.0081867,-0.199482,-0.00222027,-0.0025928,0.0144482,0.691466,5,0.1,1,7.5,0.129847,0.252336,0.500001,0.305985,-0.866025,-4.84288e-06,-0.0182275,0,2.23517e-05,0.0141393,2.21274,5,0.1,2,7.5,-0.258125,-2.09685,0.6,-0.345717,-0.00258088,1.04308e-05,-0.0593141,-0.00905991,-2.98023e-05,0.00744888,0.0817456,5,0.1,3,7.5,-5.10249,3.0354,0.5,-0.000152737,-0.366164,0,0.0421703,0.238016,0,0.00990377,0.123937,5,0.1,4,7.5,-3.18967,-1.50451,1.3495,0.0390843,-0.814393,0.000459887,-0.0342429,0.223421,-0.000350177,0.0148209,0.530756,5,0.1,5,7.5,1.51608,-2.80925,0.550226,-0.847831,0.417165,0.0167701,0.0999123,-0.201643,-0.00809133,0.00907453,0.824616,5,0.1,6,7.5,-0.863325,-3.75022,1.33815,0.549507,0.000195578,0.0110794,0.123046,-0.000283122,-0.0102073,0.00735571,0.593333,5,0.1,7,7.5,-2.0054,-0.46611,0.594748,0.364944,-0.0243854,0.00512311,-0.0424087,-0.0532884,-0.00293925,0.0100741,0.142306,5,0.1,8,7.5,-0.648021,1.96216,0.567141,-0.00117719,0.000433438,0.00024084,0.00151992,-0.000618398,-0.000186265,0.0079198,1.36379e-07,5,0.1,9,7.5,-0.62431,-0.928014,0.770879,-0.371949,-0.497761,-0.0895109,-0.017222,0.413243,0.0668317,0.0124234,0.237952,5,0.1
0,7.6,-1.36288,0.573135,1.33889,0.0650793,0.797357,0.00790656,-0.175059,-0.188947,-0.00327826,0.0138206,0.319867,5,0.1,1,7.6,0.16031,0.165734,0.5,0.302491,-0.866025,-2.98023e-06,-0.0645888,0,0,0.0141887,2.21521,5,0.1,2,7.6,-0.292844,-2.09715,0.600001,-0.346886,-0.00327229,7.45058e-06,0.0467896,-0.00476837,-2.98023e-05,0.00945727,0.0602192,5,0.1,3,7.6,-5.10232,3.00016,0.5,0.00342131,-0.336999,0,0.0286102,0.341535,0,0.0131135,0.200374,5,0.1,4,7.6,-3.18593,-1.58465,1.34955,0.0356376,-0.785917,0.000423193,-0.0354052,0.369251,-0.000357628,0.00960905,0.364632,5,0.1,5,7.6,1.43201,-2.76861,0.551859,-0.830847,0.39469,0.0158682,0.267684,-0.258446,-0.010401,0.00866287,0.574334,5,0.1,6,7.6,-0.807825,-3.7502,1.3392,0.55906,0.000172853,0.0100791,0.0378788,-0.000238419,-0.0100732,0.00873434,0.875078,5,0.1,7,7.6,-1.9691,-0.468806,0.595248,0.360903,-0.029368,0.00486821,-0.0588298,-0.0436455,-0.00241399,0.00828447,0.0847629,5,0.1,8,7.6,-0.648131,1.9622,0.567164,-0.0010103,0.000366569,0.000216067,0.00175834,-0.000715256,-0.000238419,0.00964106,1.05763e-07,5,0.1,9,7.6,-0.661431,-0.975715,0.76227,-0.368606,-0.455877,-0.0825435,0.0937283,0.435501,0.0743866,0.0157694,0.159509,5,0.1
0,7.7,-1.35721,0.651857,1.33967,0.0489274,0.775845,0.00763983,-0.148095,-0.26305,-0.00241399,0.0138206,0.319867,5,0.1,1,7.7,0.19036,0.0791314,0.5,0.299277,-0.866025,-1.49012e-06,-0.0175832,-4.47035e-07,2.23517e-05,0.0141887,2.21521,5,0.1,2,7.7,-0.327357,-2.09749,0.600002,-0.343527,-0.0036303,4.56348e-06,0.0373609,-0.00236928,-2.6077e-05,0.00945727,0.0602192,5,0.1,3,7.7,-5.10186,2.9685,0.5,0.00554398,-0.293811,0,0.0144541,0.484779,0,0.0131135,0.200374,5,0.1,4,7.7,-3.18254,-1.66151,1.34959,0.0323966,-0.751876,0.00039041,-0.030458,0.339255,-0.000312924,0.00960905,0.364632,5,0.1,5,7.7,1.35014,-2.73036,0.553397,-0.806898,0.370783,0.0149064,0.244014,-0.232324,-0.00935048,0.00866287,0.574334,5,0.1,6,7.7,-0.751267,-3.75019,1.34017,0.575372,0.000153482,0.00917632,0.235699,-0.000178814,-0.0083074,0.00873434,0.875078,5,0.1,7,7.7,-1.93322,-0.471959,0.595724,0.357091,-0.0336092,0.00468111,-0.0355467,-0.038784,-0.0015758,0.00828447,0.0847629,5,0.1,8,7.7,-0.648223,1.96223,0.567184,-0.000827946,0.000294298,0.0001885,0.00186265,-0.000730157,-0.000305474,0.00964106,1.05763e-07,5,0.1,9,7.7,-0.697827,-1.01926,0.754368,-0.35904,-0.41598,-0.0756331,0.109695,0.375785,0.0660792,0.0157694,0.159509,5,0.1
0,7.8,-1.35301,0.72786,1.34042,0.035429,0.74119,0.00736117,-0.12207,-0.443846,-0.00339746,0.0136754,0.72782,5,0.1,1,7.8,0.220157,-0.00747117,0.5,0.295912,-0.866025,1.49012e-06,-0.0624585,1.19209e-06,-2.98023e-05,0.01321,2.21761,5,0.1,2,7.8,-0.361425,-2.09786,0.600002,-0.336568,-0.00374317,1.49012e-06,0.113264,0.000238419,0,0.00751193,0.093962,5,0.1,3,7.8,-5.10125,2.94154,0.5,0.00641346,-0.245893,0,0.0038147,0.452638,0,0.0070129,0.165546,5,0.1,4,7.8,-3.17945,-1.73487,1.34962,0.0293732,-0.713408,0.000360608,-0.030756,0.448883,-0.000357628,0.0111782,0.271191,5,0.1,5,7.8,1.27085,-2.69448,0.554839,-0.776538,0.346088,0.0139132,0.385582,-0.270009,-0.010848,0.0129662,0.392338,5,0.1,6,7.8,-0.692579,-3.75017,1.34104,0.597095,0.000137091,0.00835955,0.160426,-0.000119209,-0.00828505,0.00746848,1.85252,5,0.1,7,7.8,-1.89777,-0.47549,0.596184,0.350726,-0.0367217,0.00450909,-0.104368,-0.0218302,-0.00202656,0.00843013,0.065415,5,0.1,8,7.8,-0.648296,1.96226,0.567201,-0.00064522,0.000223517,0.000156462,0.00181794,-0.000655651,-0.000327826,0.00735073,1.10364e-07,5,0.1,9,7.8,-0.733075,-1.05899,0.747136,-0.344656,-0.378454,-0.0689447,0.185996,0.383914,0.0692308,0.00927148,0.106285,5,0.1
0,7.9,-1.35004,0.800268,1.34114,0.0244148,0.710816,0.00706296,-0.0984222,-0.211764,-0.00285357,0.0136754,0.72782,5,0.1,1,7.9,0.249557,-0.0940737,0.5,0.292844,-0.866025,0,-0.0164452,-7.45058e-07,-7.45058e-06,0.01321,2.21761,5,0.1,2,7.9,-0.394697,-2.09823,0.600002,-0.330127,-0.00363514,1.39698e-06,0.0371765,0.00187755,-3.72529e-06,0.00751193,0.093962,5,0.1,3,7.9,-5.10061,2.91913,0.5,0.00635013,-0.20448,0,-0.00426173,0.337183,0,0.0070129,0.165546,5,0.1,4,7.9,-3.1765,-1.80409,1.34966,0.0310179,-0.671767,0.000328012,0.052914,0.406824,-0.000305474,0.0111782,0.271191,5,0.1,5,7.9,1.195,-2.66115,0.55618,-0.74088,0.321157,0.0129117,0.354379,-0.239119,-0.00961125,0.0129662,0.392338,5,0.1,6,7.9,-0.631244,-3.75016,1.34184,0.635768,0.000127032,0.00761673,0.532348,-7.45058e-05,-0.00685453,0.00746848,1.85252,5,0.1,7,7.9,-1.86311,-0.479275,0.596627,0.343191,-0.0389518,0.00436082,-0.0651702,-0.0202823,-0.00119954,0.00843013,0.065415,5,0.1,8,7.9,-0.648352,1.96228,0.567215,-0.000468828,0.000160187,0.000123121,0.00168383,-0.000596046,-0.000327826,0.00735073,1.10364e-07,5,0.1,9,7.9,-0.766643,-1.09504,0.740568,-0.326748,-0.343455,-0.062573,0.182271,0.327222,0.0601038,0.00927148,0.106285,5,0.1
0,8,-1.34805,0.870351,1.34183,0.0156969,0.690512,0.00674129,-0.0762939,-0.229418,-0.0038147,0.0112987,0.360276,5,0.1,1,8,0.278717,-0.180676,0.5,0.289622,-0.866025,0,-0.060454,0,0,0.0161113,2.21527,5,0.1,2,8,-0.427505,-2.09859,0.600002,-0.32542,-0.00336766,1.49012e-06,0.0724792,0.00309944,-2.98023e-05,0.00763079,0.169251,5,0.1,3,8,-5.1,2.9,0.5,0.00568628,-0.181615,0,-0.00834465,0.126958,0,0.00707855,0.122609,5,0.1,4,8,-3.17307,-1.86915,1.34969,0.0380516,-0.628197,0.000298023,0.0795126,0.480235,-0.000298023,0.011289,0.185532,5,0.1,5,8,1.12282,-2.63024,0.557422,-0.701156,0.296491,0.0119209,0.458419,-0.261545,-0.0105202,0.0131497,0.264848,5,0.1,6,8,-0.564937,-3.75015,1.34257,0.689526,0.000119209,0.00694096,0.483066,-0.000119209,-0.00679493,0.00758154,1.13038,5,0.1,7,8,-1.82917,-0.483252,0.597057,0.334507,-0.0403613,0.00422597,-0.121653,-0.00621378,-0.00166893,0.00714903,0.029714,5,0.1,8,8,-0.648391,1.96229,0.567226,-0.000311434,0.000104308,9.08971e-05,0.00146031,-0.000536442,-0.000327826,0.0077994,8.77707e-08,5,0.1,9,8,-0.798345,-1.12776,0.734608,-0.306518,-0.311112,-0.0565991,0.229001,0.327468,0.0606775,0.00975993,0.121714,5,0.1
0,8.1,-1.34683,0.938376,1.34249,0.00897553,0.67048,0.00639521,-0.0583604,-0.199463,-0.00335276,0.0112987,0.360276,5,0.1,1,8.1,0.307574,-0.267279,0.5,0.288923,-0.866025,0,0.0243168,8.9407e-07,0,0.0161113,2.21527,5,0.1,2,8.1,-0.46001,-2.09891,0.600002,-0.327129,-0.00301898,-1.02445e-06,-0.075087,0.0038147,-1.86265e-05,0.00763079,0.169251,5,0.1,3,8.1,-5.09948,2.88206,0.5,0.00473782,-0.180482,0,-0.0103414,-0.0748038,0,0.00707855,0.122609,5,0.1,4,8.1,-3.1688,-1.92971,1.34972,0.0477955,-0.583763,0.000271201,0.107199,0.427477,-0.00025332,0.011289,0.185532,5,0.1,5,8.1,1.05486,-2.60183,0.558565,-0.65862,0.272444,0.0109538,0.414502,-0.228152,-0.00917539,0.0131497,0.264848,5,0.1,6,8.1,-0.493407,-3.75013,1.34323,0.74135,0.000109151,0.00633039,0.500921,-7.45058e-05,-0.00564754,0.00758154,1.13038,5,0.1,7,8.1,-1.79634,-0.487309,0.597471,0.321826,-0.0406381,0.00406066,-0.141606,0.00189804,-0.00176951,0.00714903,0.029714,5,0.1,8,8.1,-0.648415,1.9623,0.567233,-0.000176206,5.51343e-05,5.9884e-05,0.00122935,-0.000447035,-0.000294298,0.0077994,8.77707e-08,5,0.1,9,8.1,-0.828057,-1.1575,0.729207,-0.289285,-0.285717,-0.0518074,0.133973,0.199512,0.0384524,0.00975993,0.121714,5,0.1
0,8.2,-1.3462,1.00429,1.34311,0.00397861,0.645858,0.00603199,-0.0419617,-0.312388,-0.00411272,0.0122398,1.8257,5,0.1,1,8.2,0.336579,-0.353881,0.5,0.290661,-0.866025,0,-0.00564754,-1.43051e-05,0,0.0164244,2.21378,5,0.1,2,8.2,-0.493129,-2.09919,0.600002,-0.334959,-0.00261068,-2.98023e-06,-0.0583231,0.00429153,0,0.00779688,0.104065,5,0.1,3,8.2,-5.09906,2.86351,0.5,0.00367165,-0.191391,0,-0.0107288,-0.120997,0,0.00818463,0.236616,5,0.1,4,8.2,-3.16349,-1.98591,1.34974,0.0580788,-0.539494,0.000247359,0.0923872,0.471115,-0.000298023,0.0147087,0.126522,5,0.1,5,8.2,0.991149,-2.57573,0.559614,-0.614524,0.249374,0.0100255,0.482559,-0.239372,-0.00962615,0.00819458,0.177778,5,0.1,6,8.2,-0.41709,-3.75012,1.34384,0.780791,0.000101328,0.00577271,0.251219,-0.000119209,-0.00560284,0.00763435,0.60075,5,0.1,7,8.2,-1.76496,-0.491342,0.597867,0.30461,-0.0397868,0.00384897,-0.208855,0.0158697,-0.002563,0.00762292,0.0113073,5,0.1,8,8.2,-0.648427,1.9623,0.567238,-6.55651e-05,1.78814e-05,3.42727e-05,0.000923872,-0.000417233,-0.000268221,0.00819807,5.08878e-08,5,0.1,9,8.2,-0.856349,-1.18516,0.724204,-0.276557,-0.267887,-0.0483349,0.133961,0.171185,0.0334382,0.00897321,0.0707184,5,0.1
0,8.3,-1.34568,1.06836,1.34369,0.00929032,0.643923,0.00565462,0.128262,0.191368,-0.00362098,0.0122398,1.8257,5,0.1,1,8.3,0.365767,-0.440484,0.5,0.294056,-0.866025,0,0.05267,3.57628e-06,0,0.0164244,2.21378,5,0.1,2,8.3,-0.526998,-2.09943,0.600002,-0.342724,-0.00215657,-2.98023e-06,-0.0764579,0.00469387,0,0.00779688,0.104065,5,0.1,3,8.3,-5.09874,2.84349,0.5,0.00264496,-0.210879,0,-0.00971556,-0.240371,0,0.00818463,0.236616,5,0.1,4,8.3,-3.1572,-2.03764,1.34977,0.0676919,-0.496114,0.00022091,0.093624,0.412375,-0.000238419,0.0147087,0.126522,5,0.1,5,8.3,0.931972,-2.55191,0.560571,-0.569899,0.227471,0.00914484,0.428408,-0.206038,-0.00828505,0.00819458,0.177778,5,0.1,6,8.3,-0.337869,-3.75011,1.34439,0.801674,9.12696e-05,0.00526793,0.134798,-7.45058e-05,-0.00467896,0.00763435,0.60075,5,0.1,7,8.3,-1.73558,-0.49523,0.598239,0.282665,-0.0378608,0.00358233,-0.234149,0.0231136,-0.0028275,0.00762292,0.0113073,5,0.1,8,8.3,-0.648429,1.9623,0.56724,1.61119e-05,-1.75089e-05,1.03377e-05,0.00071153,-0.000283122,-0.000204891,0.00819807,5.08878e-08,5,0.1,9,8.3,-0.883413,-1.2112,0.719517,-0.265177,-0.253792,-0.0455311,0.105586,0.123344,0.0248179,0.00897321,0.0707184,5,0.1
0,8.4,-1.34396,1.13398,1.34424,0.026077,0.669715,0.00527203,0.191867,0.262558,-0.00411272,0.0135449,1.76583,5,0.1,1,8.4,0.395392,-0.527086,0.5,0.297608,-0.866026,0,0.00341237,0,0,0.0166137,2.21213,5,0.1,2,8.4,-0.561545,-2.09962,0.600002,-0.346771,-0.00168085,-2.98023e-06,0.00986457,0.00452995,2.98023e-05,0.0151707,0.0822443,5,0.1,3,8.4,-5.09852,2.8212,0.5,0.00174046,-0.234526,0,-0.00834465,-0.211596,0,0.00608807,0.150237,5,0.1,4,8.4,-3.15001,-2.08518,1.34979,0.0757337,-0.454324,0.000196695,0.0628233,0.434279,-0.000178814,0.00910307,0.15045,5,0.1,5,8.4,0.877158,-2.53019,0.561445,-0.525725,0.206923,0.00831932,0.467777,-0.210047,-0.00846386,0.0079817,0.119199,5,0.1,6,8.4,-0.25743,-3.75011,1.34489,0.802528,8.34465e-05,0.00480711,-0.138298,-0.000119209,-0.00476837,0.0112337,1.36669,5,0.1,7,8.4,-1.70855,-0.498886,0.598582,0.257149,-0.0350982,0.00327379,-0.278413,0.0323355,-0.00342727,0.00845117,0.00562828,5,0.1,8,8.4,-0.648424,1.9623,0.56724,7.45058e-05,-4.17233e-05,-7.45058e-06,0.000476837,-0.000178814,-0.000149012,0.0130491,2.17751e-08,5,0.1,9,8.4,-0.909369,-1.23596,0.715089,-0.253411,-0.241056,-0.0429988,0.138104,0.140369,0.0274479,0.0150126,0.0547995,5,0.1
0,8.5,-1.3404,1.20288,1.34475,0.0447905,0.712511,0.00489391,0.176303,0.519879,-0.00360608,0.0135449,1.76583,5,0.1,1,8.5,0.425295,-0.613689,0.5,0.301206,-0.866026,0,0.0486318,3.72529e-06,0,0.0166137,2.21213,5,0.1,2,8.5,-0.596279,-2.09976,0.600001,-0.348417,-0.00124238,-5.58794e-07,-0.0215657,0.00418723,1.49012e-05,0.0151707,0.0822443,5,0.1,3,8.5,-5.09839,2.79651,0.5,0.000927597,-0.260236,0,-0.0077188,-0.275508,0,0.00608807,0.150237,5,0.1,4,8.5,-3.14217,-2.1288,1.34981,0.0804737,-0.42091,0.000183098,0.0301003,0.261679,-9.68575e-05,0.00910307,0.15045,5,0.1,5,8.5,0.826786,-2.51048,0.562237,-0.482685,0.187791,0.00754874,0.408456,-0.178725,-0.00719726,0.0079817,0.119199,5,0.1,6,8.5,-0.177271,-3.7501,1.34535,0.80494,7.33882e-05,0.00437815,0.121023,-7.45058e-05,-0.00395626,0.0112337,1.36669,5,0.1,7,8.5,-1.68422,-0.502231,0.598893,0.229509,-0.0317682,0.00293516,-0.277467,0.034593,-0.00339001,0.00845117,0.00562828,5,0.1,8,8.5,-0.648415,1.96229,0.567239,0.000113249,-5.51343e-05,-1.9744e-05,0.000298023,-8.9407e-05,-9.68575e-05,0.0130491,2.17751e-08,5,0.1,9,8.5,-0.934114,-1.25947,0.710906,-0.242113,-0.230066,-0.0408031,0.100296,0.0924766,0.0187233,0.0150126,0.0547995,5,0.1
0,8.6,-1.33511,1.27666,1.34522,0.060308,0.760981,0.00452399,0.129759,0.395894,-0.00399351,0.014891,1.35488,5,0.1,1,8.6,0.4556,-0.700291,0.5,0.303928,-0.866026,0,-0.00837445,0,0,0.0086277,2.22085,5,0.1,2,8.6,-0.631139,-2.09987,0.600001,-0.347492,-0.000846386,1.49012e-06,0.0547171,0.00357628,-2.98023e-05,0.00800201,0.112063,5,0.1,3,8.6,-5.09833,2.76919,0.5,0.000214577,-0.284976,0,-0.0064373,-0.199676,0,0.00728422,0.134505,5,0.1,4,8.6,-3.13404,-2.16968,1.34983,0.0814617,-0.397182,0.000175834,-0.0112057,0.233412,-0.000119209,0.0109775,0.0958449,5,0.1,5,8.6,0.780565,-2.49258,0.562956,-0.44142,0.170135,0.00683814,0.427544,-0.178814,-0.00721216,0.013316,0.13821,5,0.1,6,8.6,-0.0961855,-3.75009,1.34577,0.81541,6.55651e-05,0.00398755,0.040673,0,-0.00399351,0.00830083,1.02459,5,0.1,7,8.6,-1.66267,-0.50523,0.599169,0.201192,-0.0281349,0.00258833,-0.290334,0.0381768,-0.00357628,0.00767645,0.00170198,5,0.1,8,8.6,-0.648402,1.96229,0.567237,0.000135601,-6.25849e-05,-2.68221e-05,8.9407e-05,5.96046e-05,-5.96046e-05,0.00792161,5.83127e-09,5,0.1,9,8.6,-0.957804,-1.28201,0.70692,-0.231239,-0.220335,-0.0388697,0.125855,0.111282,0.0215769,0.00976802,0.0248398,5,0.1
0,8.7,-1.32862,1.35497,1.34565,0.0679001,0.806113,0.00415854,0.0294596,0.449538,-0.00345707,0.014891,1.35488,5,0.1,1,8.7,0.485962,-0.786894,0.5,0.303111,-0.866026,0,-0.0205766,3.72529e-06,0,0.0086277,2.22085,5,0.1,2,8.7,-0.665785,-2.09994,0.600001,-0.346543,-0.000524893,-1.02445e-06,-0.0125654,0.00284612,-1.86265e-05,0.00800201,0.112063,5,0.1,3,8.7,-5.09834,2.73972,0.5,-0.000349432,-0.30384,0,-0.00479817,-0.161618,0,0.00728422,0.134505,5,0.1,4,8.7,-3.12606,-2.20838,1.34984,0.0769679,-0.377811,0.000166148,-0.0743717,0.172228,-8.9407e-05,0.0109775,0.0958449,5,0.1,5,8.7,0.738211,-2.47632,0.56361,-0.408452,0.156293,0.00627991,0.258647,-0.108525,-0.00437349,0.013316,0.13821,5,0.1,6,8.7,-0.0141613,-3.75008,1.34615,0.826547,6.55651e-05,0.00362881,0.130619,0,-0.00330806,0.00830083,1.02459,5,0.1,7,8.7,-1.64399,-0.507852,0.59941,0.172558,-0.0243019,0.00223555,-0.282675,0.038445,-0.00349432,0.00767645,0.00170198,5,0.1,8,8.7,-0.648389,1.96228,0.567234,0.000139605,-5.56931e-05,-3.07336e-05,-1.11759e-05,8.19564e-05,-2.23517e-05,0.00792161,5.83127e-09,5,0.1,9,8.7,-0.980309,-1.30351,0.703137,-0.218819,-0.209572,-0.0367962,0.129003,0.110894,0.0210926,0.00976802,0.0248398,5,0.1
0,8.8,-1.32179,1.43754,1.34605,0.0675023,0.841144,0.00380874,-0.0317693,0.210881,-0.00357628,0.0126574,0.999437,5,0.1,1,8.8,0.516066,-0.873497,0.5,0.297704,-0.866026,0,-0.0960231,0,0,0.0116374,0.890121,5,0.1,2,8.8,-0.700458,-2.09998,0.600001,-0.346033,-0.000280142,-1.49012e-06,0.0392795,0.00214577,-2.98023e-05,0.00956878,0.186425,5,0.1,3,8.8,-5.0984,2.70869,0.5,-0.000751019,-0.314617,0,-0.00309944,-0.043273,0,0.00698171,0.160229,5,0.1,4,8.8,-3.11881,-2.24528,1.34986,0.067395,-0.359619,0.000160933,-0.113487,0.204444,-0.000178814,0.0113993,0.166153,5,0.1,5,8.8,0.698561,-2.46119,0.564218,-0.385028,0.146604,0.00589043,0.229657,-0.0929832,-0.00375509,0.0109967,0.0805793,5,0.1,6,8.8,0.0689497,-3.75008,1.34649,0.832759,6.55651e-05,0.0033021,-0.0426888,-0.000119209,-0.00327826,0.0094095,1.27735,5,0.1,7,8.8,-1.62814,-0.51009,0.599616,0.144637,-0.0204593,0.00188947,-0.275671,0.0383556,-0.00345707,0.00772036,0.000868654,5,0.1,8,8.8,-0.648375,1.96228,0.56723,0.00013411,-4.76837e-05,-3.12924e-05,-0.000119209,5.96046e-05,0,0.00893017,1.85618e-09,5,0.1,9,8.8,-1.0015,-1.32386,0.69957,-0.204378,-0.197008,-0.0344515,0.164032,0.144839,0.0265837,0.0154342,0.014989,5,0.1
0,8.9,-1.31532,1.52263,1.34641,0.0611518,0.859216,0.00348222,-0.082165,0.122614,-0.00307709,0.0126574,0.999437,5,0.1,1,8.9,0.545232,-0.960087,0.5,0.284349,-0.86543,0,-0.172216,0.0238121,0,0.0116374,0.890121,5,0.1,2,8.9,-0.735175,-2.09999,0.600001,-0.350596,-0.000100955,-3.91155e-06,-0.0980534,0.00144541,-1.49012e-05,0.00956878,0.186425,5,0.1,3,8.9,-5.09849,2.67679,0.5,-0.00103265,-0.325059,0,-0.00244379,-0.137046,0,0.00698171,0.160229,5,0.1,4,8.9,-3.11268,-2.28027,1.34987,0.0548467,-0.340522,0.000146218,-0.133842,0.1892,-0.00012666,0.0113993,0.166153,5,0.1,5,8.9,0.661061,-2.44693,0.564791,-0.365967,0.138963,0.00558225,0.169266,-0.066787,-0.00269338,0.0109967,0.0805793,5,0.1,6,8.9,0.152468,-3.75007,1.34681,0.840603,5.55068e-05,0.00300687,0.138874,-7.45058e-05,-0.00273436,0.0094095,1.27735,5,0.1,7,8.9,-1.61502,-0.511947,0.599788,0.117982,-0.016718,0.00155466,-0.256725,0.0363141,-0.00323728,0.00772036,0.000868654,5,0.1,8,8.9,-0.648362,1.96227,0.567227,0.000120047,-4.09782e-05,-3.00817e-05,-0.000160187,7.45058e-05,1.86265e-05,0.00893017,1.85618e-09,5,0.1,9,8.9,-1.02113,-1.34286,0.696254,-0.188342,-0.182912,-0.0318774,0.161722,0.142522,0.0258423,0.0154342,0.014989,5,0.1
0,9,-1.30962,1.60884,1.34675,0.0530839,0.86152,0.00317395,-0.0721216,-0.0901222,-0.00315905,0.013171,1.22935,5,0.1,1,9,0.572674,-1.04632,0.5,0.263169,-0.856504,0,-0.251114,0.190556,0,0.0100412,0.629009,5,0.1,2,9,-0.770733,-2.1,0.6,-0.36002,1.19209e-05,-4.47035e-06,-0.066638,0.000953674,-2.98023e-05,0.0108566,0.113798,5,0.1,3,9,-5.0986,2.64363,0.5,-0.00123978,-0.337112,0,-0.00119209,-0.0833273,0,0.00917324,0.255509,5,0.1,4,9,-3.10788,-2.31333,1.34989,0.0412822,-0.319815,0.00013411,-0.134945,0.232935,-0.000119209,0.00970839,0.145759,5,0.1,5,9,0.625329,-2.43337,0.565335,-0.348152,0.13206,0.00530481,0.199556,-0.0762939,-0.00306964,0.00749119,0.0629794,5,0.1,6,9,0.237114,-3.75007,1.3471,0.850102,4.76837e-05,0.00273883,0.00749588,0,-0.00274181,0.00791848,0.943223,5,0.1,7,9,-1.60447,-0.513442,0.599928,0.0934213,-0.0132263,0.00124425,-0.233889,0.0333786,-0.00298023,0.00804046,0.000748753,5,0.1,8,9,-0.648351,1.96227,0.567225,0.000102818,-3.27826e-05,-2.68221e-05,-0.000149012,5.96046e-05,2.98023e-05,0.013358,1.86524e-09,5,0.1,9,9,-1.03913,-1.36041,0.6932,-0.171229,-0.167635,-0.0291318,0.183582,0.166416,0.0296831,0.0166635,0.00476207,5,0.1
0,9.1,-1.30465,1.6949,1.34705,0.0469662,0.861929,0.00288635,-0.0352412,0.0462011,-0.00269711,0.013171,1.22935,5,0.1,1,9.1,0.597716,-1.13115,0.5,0.237436,-0.840537,0,-0.265192,0.165679,0,0.0100412,0.629009,5,0.1,2,9.1,-0.807138,-2.09999,0.6,-0.368244,8.45641e-05,-6.51926e-06,-0.0768416,0.000521541,-7.45058e-06,0.0108566,0.113798,5,0.1,3,9.1,-5.09873,2.60934,0.5,-0.00132248,-0.349778,0,-0.000447035,-0.143424,0,0.00917324,0.255509,5,0.1,4,9.1,-3.1044,-2.34417,1.3499,0.0283767,-0.297104,0.000123307,-0.121132,0.228658,-8.9407e-05,0.00970839,0.145759,5,0.1,5,9.1,0.591359,-2.42048,0.565853,-0.332323,0.126101,0.00506546,0.135344,-0.050053,-0.00200421,0.00749119,0.0629794,5,0.1,6,9.1,0.32238,-3.75006,1.34736,0.856162,4.76837e-05,0.00249185,0.0657567,0,-0.00227988,0.00791848,0.943223,5,0.1,7,9.1,-1.59625,-0.514603,0.600038,0.0713279,-0.0100591,0.000962056,-0.207208,0.0298135,-0.00265986,0.00804046,0.000748753,5,0.1,8,9.1,-0.648341,1.96226,0.567222,8.67061e-05,-2.66358e-05,-2.32831e-05,-0.000167638,6.70552e-05,4.47035e-05,0.013358,1.86524e-09,5,0.1,9,9.1,-1.05533,-1.37633,0.690436,-0.152802,-0.150835,-0.0261491,0.186585,0.171416,0.0302941,0.0166635,0.00476207,5,0.1
0,9.2,-1.3,1.78121,1.34732,0.0472188,0.861979,0.0026226,0.0372529,-0.0810027,-0.00280142,0.0124067,1.4871,5,0.1,1,9.2,0.620101,-1.21417,0.5,0.209901,-0.817147,0,-0.286162,0.327349,0,0.0118476,1.54491,5,0.1,2,9.2,-0.844223,-2.09998,0.599999,-0.371829,0.000119209,-7.45058e-06,0.0196695,0.000238419,0,0.00739829,0.180879,5,0.1,3,9.2,-5.09886,2.57372,0.5,-0.00132322,-0.361246,0,0.000238419,-0.0669956,0,0.00712891,1.59203,5,0.1,4,9.2,-3.10214,-2.37269,1.34991,0.0173867,-0.27287,0.000113249,-0.0975132,0.261068,-0.000119209,0.0105795,1.11138,5,0.1,5,9.2,0.558819,-2.40813,0.566349,-0.317965,0.120825,0.0048548,0.164747,-0.0604391,-0.00244379,0.0118143,0.0287423,5,0.1,6,9.2,0.4081,-3.75006,1.3476,0.855112,4.76837e-05,0.00226796,-0.120252,-0.000119209,-0.00226498,0.00749913,2.36305,5,0.1,7,9.2,-1.59011,-0.515467,0.600122,0.0521064,-0.00728816,0.000715256,-0.176787,0.0255108,-0.00229478,0.00739652,0.000587639,5,0.1,8,9.2,-0.648334,1.96226,0.56722,7.00355e-05,-2.08616e-05,-1.93715e-05,-0.000208616,0.000119209,5.96046e-05,0.00752241,1.98081e-09,5,0.1,9,9.2,-1.06967,-1.39054,0.687975,-0.133684,-0.133082,-0.0230268,0.196636,0.184596,0.0323951,0.00954733,0.00143646,5,0.1
0,9.3,-1.29493,1.86732,1.34757,0.055531,0.862436,0.00236966,0.115603,0.0474975,-0.00233948,0.0124067,1.4871,5,0.1,1,9.3,0.640008,-1.29499,0.5,0.19118,-0.804928,0,-0.10987,-0.0134334,0,0.0118476,1.54491,5,0.1,2,9.3,-0.881566,-2.09997,0.599998,-0.376827,0.00012964,-6.98492e-06,-0.0888221,0,1.11759e-05,0.00739829,0.180879,5,0.1,3,9.3,-5.09899,2.53625,0.5,-0.0012815,-0.396193,0,0.000596046,-0.551775,0,0.00712891,1.59203,5,0.1,4,9.3,-3.10084,-2.39928,1.34992,0.00908002,-0.26372,0.000101328,-0.0685453,-0.0372678,-0.000119209,0.0105795,1.11138,5,0.1,5,9.3,0.527823,-2.39634,0.566823,-0.301938,0.114976,0.00461889,0.165472,-0.0603348,-0.00242516,0.0118143,0.0287423,5,0.1,6,9.3,0.492046,-3.7499,1.34734,0.814974,0.00448301,-0.0112712,-0.650484,0.0789464,-0.238955,0.00749913,2.36305,5,0.1,7,9.3,-1.58573,-0.516074,0.600182,0.035839,-0.0049361,0.00050338,-0.14811,0.0214465,-0.00194088,0.00739652,0.000587639,5,0.1,8,9.3,-0.648328,1.96226,0.567218,5.01983e-05,-1.00583e-05,-1.35042e-05,-0.000182539,8.9407e-05,5.58794e-05,0.00752241,1.98081e-09,5,0.1,9,9.3,-1.08206,-1.40293,0.685834,-0.114232,-0.114709,-0.0198118,0.192359,0.182934,0.0319183,0.00954733,0.00143646,5,0.1
0,9.4,-1.28876,1.95374,1.3478,0.067988,0.864783,0.00214279,0.123441,-0.0248551,-0.00238419,0.0144883,1.12209,5,0.1,1,9.4,0.658722,-1.37565,0.5,0.18411,-0.807759,0,-0.0480711,0.00792742,0,0.013847,1.17127,5,0.1,2,9.4,-0.919665,-2.09996,0.599998,-0.384282,0.00012517,-5.96046e-06,-0.037998,-0.000238419,0,0.00840339,0.108141,5,0.1,3,9.4,-5.09912,2.49362,0.5,-0.00120401,-0.457519,0,0.00119209,-0.614285,0,0.00659359,1.26759,5,0.1,4,9.4,-3.10022,-2.42605,1.34993,0.00363588,-0.273132,9.23872e-05,-0.0411272,-0.120044,-0.000178814,0.0112635,1.02827,5,0.1,5,9.4,0.498522,-2.38517,0.567272,-0.283273,0.108129,0.00434518,0.214145,-0.079155,-0.00318885,0.0120019,0.0111837,5,0.1,6,9.4,0.569637,-3.74899,1.34483,0.731015,0.0140846,-0.0402689,-1.0007,0.105143,-0.317931,0.00725089,2.24325,5,0.1,7,9.4,-1.58284,-0.516468,0.600224,0.0225455,-0.00301152,0.000327826,-0.1176,0.0169575,-0.00151992,0.00769353,0.000354285,5,0.1,8,9.4,-0.648323,1.96226,0.567217,3.27826e-05,-2.98023e-06,-8.9407e-06,-0.000149012,5.96046e-05,5.96046e-05,0.00759861,1.77126e-09,5,0.1,9,9.4,-1.09253,-1.41349,0.684012,-0.0952423,-0.0965118,-0.0166446,0.187099,0.18084,0.0314116,0.00930492,0.000783723,5,0.1
0,9.5,-1.28128,2.04021,1.348,0.0818459,0.864805,0.00192877,0.143506,-0.00534207,-0.0019595,0.0144883,1.12209,5,0.1,1,9.5,0.677065,-1.45674,0.5,0.184047,-0.816242,0,0.0300482,-0.123121,0,0.013847,1.17127,5,0.1,2,9.5,-0.958332,-2.09995,0.599997,-0.389053,9.72301e-05,-5.4948e-06,-0.0376254,-0.000283122,1.11759e-05,0.00840339,0.108141,5,0.1,3,9.5,-5.09923,2.44455,0.5,-0.0010848,-0.524881,0,0.00119209,-0.680774,0,0.00659359,1.26759,5,0.1,4,9.5,-3.10005,-2.45423,1.34994,-5.40167e-05,-0.292319,7.63685e-05,-0.031516,-0.232309,-0.00013411,0.0112635,1.02827,5,0.1,5,9.5,0.471276,-2.37475,0.56769,-0.26141,0.100033,0.00401987,0.227515,-0.0844896,-0.00339374,0.0120019,0.0111837,5,0.1,6,9.5,0.637076,-3.747,1.33904,0.612642,0.0261541,-0.076694,-1.30994,0.128791,-0.388339,0.00725089,2.24325,5,0.1,7,9.5,-1.58113,-0.516691,0.600249,0.0120699,-0.00150073,0.000191387,-0.0918508,0.0132322,-0.00121072,0.00769353,0.000354285,5,0.1,8,9.5,-0.648321,1.96226,0.567217,1.89058e-05,2.04891e-06,-3.53903e-06,-0.000122935,3.72529e-05,4.47035e-05,0.00759861,1.77126e-09,5,0.1,9,9.5,-1.10114,-1.42225,0.682501,-0.0771541,-0.0789376,-0.0135973,0.17406,0.170045,0.0294447,0.00930492,0.000783723,5,0.1
0,9.6,-1.27242,2.12647,1.34819,0.0949323,0.857675,0.00173748,0.110865,-0.167131,-0.00184774,0.0140169,2.70344,5,0.1,1,9.6,0.695636,-1.53883,0.5,0.187209,-0.82306,0,0.0208616,0.02563,0,0.0124016,1.2042,5,0.1,2,9.6,-0.997293,-2.09994,0.599997,-0.388469,6.55651e-05,-4.47035e-06,0.0628531,-0.000238419,0,0.00730388,0.12425,5,0.1,3,9.6,-5.09934,2.3889,0.5,-0.000953674,-0.584745,0,0.000953674,-0.479221,0,0.00746638,1.10953,5,0.1,4,9.6,-3.10019,-2.4846,1.34995,-0.00249147,-0.31417,6.25849e-05,-0.0165701,-0.181794,-0.000119209,0.0105225,3.20139,5,0.1,5,9.6,0.446323,-2.36519,0.568074,-0.23708,0.0909567,0.00365525,0.261635,-0.0982285,-0.00393391,0.0117676,0.00580983,5,0.1,6,9.6,0.69166,-3.74375,1.32946,0.478777,0.0385523,-0.114071,-1.32671,0.113606,-0.342786,0.00750147,2.13617,5,0.1,7,9.6,-1.58034,-0.516781,0.600263,0.00416934,-0.000365078,8.64267e-05,-0.0663996,0.00947714,-0.00089407,0.00768529,0.00016173,5,0.1,8,9.6,-0.64832,1.96226,0.567216,7.45058e-06,5.96046e-06,0,-5.96046e-05,0,5.96046e-05,0.00772591,1.19637e-09,5,0.1,9,9.6,-1.10801,-1.42932,0.681285,-0.0605434,-0.0626117,-0.010775,0.157714,0.156045,0.0269413,0.00893955,0.000701742,5,0.1
0,9.7,-1.26239,2.21031,1.34835,0.105104,0.809339,0.00156295,0.0870153,-0.758052,-0.00167638,0.0140169,2.70344,5,0.1,1,9.7,0.714697,-1.62134,0.5,0.195778,-0.829107,0,0.127532,-0.0935122,0,0.0124016,1.2042,5,0.1,2,9.7,-1.03582,-2.09993,0.599996,-0.381797,2.68221e-05,-4.09782e-06,0.0840984,-0.000506639,7.45058e-06,0.00730388,0.12425,5,0.1,3,9.7,-5.09943,2.32912,0.5,-0.000920892,-0.600966,0,-0.000178814,0.11535,0,0.00746638,1.10953,5,0.1,4,9.7,-3.10068,-2.51749,1.34933,-0.00812225,-0.348049,-0.0177283,-0.0745505,-0.44176,-0.316188,0.0105225,3.20139,5,0.1,5,9.7,0.423905,-2.35658,0.568421,-0.211384,0.0813004,0.00326876,0.255607,-0.0962168,-0.00385195,0.0117676,0.00580983,5,0.1,6,9.7,0.732914,-3.73932,1.31631,0.348102,0.0500828,-0.148833,-1.22327,0.111341,-0.335515,0.00750147,2.13617,5,0.1,7,9.7,-1.58022,-0.516775,0.600267,-0.00145771,0.000435486,9.40636e-06,-0.0463724,0.00656396,-0.000651926,0.00768529,0.00016173,5,0.1,8,9.7,-0.648319,1.96226,0.567217,1.58325e-06,5.96046e-06,4.74975e-06,-5.58794e-05,0,4.09782e-05,0.00772591,1.19637e-09,5,0.1,9,9.7,-1.1133,-1.43482,0.680337,-0.0456721,-0.0478286,-0.00822544,0.139132,0.139013,0.0239536,0.00893955,0.000701742,5,0.1
0,9.8,-1.25153,2.28676,1.3485,0.111413,0.713736,0.00139773,0.0356436,-1.11854,-0.00172853,0.0106708,3.15437,5,0.1,1,9.8,0.734933,-1.70456,0.5,0.208718,-0.832686,0,0.114292,0.0594258,0,0.0151517,0.883043,5,0.1,2,9.8,-1.07346,-2.09993,0.599996,-0.369406,-2.98023e-05,-2.98023e-06,0.172675,-0.000476837,0,0.00962073,0.371573,5,0.1,3,9.8,-5.09952,2.27032,0.5,-0.000965595,-0.568771,0,-0.000238419,0.496864,0,0.00721361,0.975931,5,0.1,4,9.8,-3.10182,-2.55457,1.34572,-0.0139594,-0.393105,-0.0561535,-0.0292063,-0.419021,-0.421464,0.0106108,2.90649,5,0.1,5,9.8,0.404056,-2.34894,0.568728,-0.185442,0.0715077,0.00287592,0.265032,-0.100374,-0.00402331,0.0114094,0.00175428,5,0.1,6,9.8,0.762169,-3.73379,1.29988,0.243405,0.059855,-0.178289,-0.841349,0.0802279,-0.241756,0.00710997,1.96328,5,0.1,7,9.8,-1.58057,-0.516703,0.600266,-0.00516474,0.000953674,-4.32134e-05,-0.0280738,0.0039041,-0.000417233,0.00741459,5.55568e-05,5,0.1,8,9.8,-0.648319,1.96226,0.567217,-2.98023e-06,5.96046e-06,7.45058e-06,-2.98023e-05,-5.96046e-05,2.98023e-05,0.00777148,7.42098e-10,5,0.1,9,9.8,-1.11721,-1.43894,0.679629,-0.0328094,-0.0349104,-0.0060007,0.117719,0.11903,0.0204742,0.00871682,0.000549553,5,0.1
0,9.9,-1.24022,2.35191,1.34863,0.114478,0.584563,0.00123959,0.0209138,-1.40285,-0.00146776,0.0106708,3.15437,5,0.1,1,9.9,0.756471,-1.7877,0.5,0.222538,-0.830755,0,0.14431,0.0213459,0,0.0151517,0.883043,5,0.1,2,9.9,-1.10988,-2.09994,0.599996,-0.361559,-7.0408e-05,-2.6077e-06,0.0152364,-0.000342727,7.45058e-06,0.00962073,0.371573,5,0.1,3,9.9,-5.09962,2.21661,0.5,-0.000968575,-0.50039,0,0.000178814,0.80137,0,0.00721361,0.975931,5,0.1,4,9.9,-3.10343,-2.59618,1.33777,-0.0179287,-0.440159,-0.104501,-0.00686944,-0.480533,-0.515744,0.0106108,2.90649,5,0.1,5,9.9,0.386821,-2.34228,0.568996,-0.159406,0.0616308,0.00248002,0.256334,-0.0974089,-0.00390038,0.0114094,0.00175428,5,0.1,6,9.9,0.78291,-3.72741,1.28086,0.179361,0.067557,-0.201491,-0.373967,0.0694245,-0.209123,0.00710997,1.96328,5,0.1,7,9.9,-1.5812,-0.516592,0.600259,-0.00728145,0.00124266,-7.60891e-05,-0.0146478,0.00193343,-0.000242144,0.00741459,5.55568e-05,5,0.1,8,9.9,-0.64832,1.96226,0.567218,-5.86733e-06,1.11759e-06,9.49949e-06,-2.6077e-05,-2.98023e-05,7.45058e-06,0.00777148,7.42098e-10,5,0.1,9,9.9,-1.11993,-1.44187,0.679126,-0.0220096,-0.023938,-0.00411468,0.0979528,0.100061,0.0171848,0.00871682,0.000549553,5,0.1
0,10,-1.22872,2.4033,1.34875,0.114807,0.443727,0.00109971,-0.017345,-1.37031,-0.00149012,0.00971507,3.47196,5,0.1,1,10,0.779377,-1.87045,0.5,0.234531,-0.821277,0,0.0829101,0.197351,0,0.0139107,0.639652,5,0.1,2,10,-1.14601,-2.09995,0.599995,-0.360981,-9.53674e-05,-1.49012e-06,0.0191331,-0.000238419,0,0.0122067,0.560298,5,0.1,3,10,-5.09971,2.17064,0.5,-0.000929832,-0.41945,0,0.000715256,0.777125,0,0.00692194,0.875925,5,0.1,4,10,-3.10497,-2.64242,1.32478,-0.00932217,-0.482088,-0.154135,0.195622,-0.328541,-0.455081,0.0117415,2.54744,5,0.1,5,10,0.372151,-2.33661,0.569224,-0.134098,0.0519872,0.00209361,0.249922,-0.0953674,-0.0038445,0.011796,0.000805682,5,0.1,6,10,0.8,-3.72036,1.25981,0.172183,0.0730038,-0.217909,0.200599,0.0363588,-0.110269,0.00739501,1.75079,5,0.1,7,10,-1.58198,-0.516461,0.600251,-0.00817478,0.00135005,-9.23872e-05,-0.00363588,0.000327826,-0.000119209,0.00782599,1.68042e-05,5,0.1,8,10,-0.64832,1.96226,0.567219,-8.9407e-06,-2.98023e-06,8.9407e-06,2.98023e-05,5.96046e-05,2.98023e-05,0.00783697,1.07337e-09,5,0.1,9,10,-1.12168,-1.4438,0.678794,-0.0132591,-0.0149518,-0.00257045,0.07689,0.0795722,0.0136197,0.0102609,0.000327407,5,0.1
0,10.1,-1.21733,2.44086,1.34885,0.112937,0.309878,0.000966527,-0.0240505,-1.23057,-0.00119954,0.00971507,3.47196,5,0.1,1,10.1,0.802938,-1.95171,0.5,0.233817,-0.804088,0,-0.0897534,0.180416,0,0.0139107,0.639652,5,0.1,2,10.1,-1.18233,-2.09994,0.599995,-0.367848,0.000274926,-1.39698e-06,-0.122339,0.00625849,3.72529e-06,0.0122067,0.560298,5,0.1,3,10.1,-5.0998,2.13245,0.5,-0.000841916,-0.347572,0,0.00101328,0.589073,0,0.00692194,0.875925,5,0.1,4,10.1,-3.1047,-2.69233,1.30705,0.0188228,-0.515624,-0.200306,0.432983,-0.309736,-0.445694,0.0117415,2.54744,5,0.1,5,10.1,0.359963,-2.33187,0.569415,-0.109948,0.0427544,0.00172164,0.232629,-0.0891089,-0.00358373,0.011796,0.000805682,5,0.1,6,10.1,0.819317,-3.71288,1.23728,0.223005,0.0764418,-0.233903,0.733756,0.0285953,-0.18581,0.00739501,1.75079,5,0.1,7,10.1,-1.58281,-0.516326,0.600241,-0.00814255,0.00132443,-9.83477e-05,0.00386685,-0.000778586,-7.45058e-06,0.00782599,1.68042e-05,5,0.1,8,10.1,-0.648321,1.96226,0.56722,-6.89179e-06,2.04891e-06,1.07102e-05,7.45058e-06,3.72529e-05,1.11759e-05,0.00783697,1.07337e-09,5,0.1,9,10.1,-1.12265,-1.44492,0.6786,-0.00644419,-0.00785701,-0.0013561,0.0593737,0.0622422,0.0106506,0.0102609,0.000327407,5,0.1
