id,t,px,py,pz,vx,vy,vz,ax,ay,az,planning_time,qp_cost,planning_report,size,id,t,px,py,pz,vx,vy,vz,ax,ay,az,planning_time,qp_cost,planning_report,size,id,t,px,py,pz,vx,vy,vz,ax,ay,az,planning_time,qp_cost,planning_report,size,id,t,px,py,pz,vx,vy,vz,ax,ay,az,planning_time,qp_cost,planning_report,size,id,t,px,py,pz,vx,vy,vz,ax,ay,az,planning_time,qp_cost,planning_report,size,id,t,px,py,pz,vx,vy,vz,ax,ay,az,planning_time,qp_cost,planning_report,size,id,t,px,py,pz,vx,vy,vz,ax,ay,az,planning_time,qp_cost,planning_report,size,id,t,px,py,pz,vx,vy,vz,ax,ay,az,planning_time,qp_cost,planning_report,size,id,t,px,py,pz,vx,vy,vz,ax,ay,az,planning_time,qp_cost,planning_report,size,id,t,px,py,pz,vx,vy,vz,ax,ay,az,planning_time,qp_cost,planning_report,size
0,0,-2.58369,4.97712,0.659451,0,0,0,0,0,0,0.0132112,1.74189,5,0.1,1,0,1.92659,4.73194,0.584611,0,0,0,0,0,0,0.0104342,0.789241,5,0.1,2,0,3.26908,-3.52181,0.669877,0,0,0,0,0,0,0.00888894,3.5122,5,0.1,3,0,-1.55054,4.08004,0.641374,0,0,0,0,0,0,0.0253795,0.471617,5,0.1,4,0,-2.95287,1.74955,0.66541,0,0,0,0,0,0,0.0246252,3.5122,5,0.1,5,0,-1.40524,1.72236,0.61209,0,0,0,0,0,0,0.0185763,0.524199,5,0.1,6,0,2.0228,1.96815,0.615483,0,0,0,0,0,0,0.0116576,3.51219,5,0.1,7,0,0.571537,2.16215,0.663045,0,0,0,0,0,0,0.0131622,3.20424,5,0.1,8,0,3.5985,-5.74031,0.510201,0,0,0,0,0,0,0.0173655,3.34738,5,0.1,9,0,0.273366,-4.4622,0.576119,0,0,0,0,0,0,0.00896932,3.5122,5,0.1
0,0.1,-2.58366,4.97584,0.660172,0.00099875,-0.036364,0.0204639,0.0177473,-0.646442,0.363801,0.0132112,1.74189,5,0.1,1,0.1,1.92677,4.73139,0.58541,0.00513867,-0.0157624,0.0226817,0.091359,-0.280261,0.403229,0.0104342,0.789241,5,0.1,2,0.1,3.26725,-3.52081,0.669815,-0.0520799,0.028237,-0.00175871,-0.925884,0.50199,-0.0312701,0.00888894,3.5122,5,0.1,3,0.1,-1.55049,4.07985,0.642114,0.00149775,-0.00533387,0.0209996,0.0266209,-0.0948608,0.373323,0.0253795,0.471617,5,0.1,4,0.1,-2.95086,1.75012,0.665363,0.056975,0.0162713,-0.00132956,1.01291,0.289261,-0.0236407,0.0246252,3.5122,5,0.1,5,0.1,-1.40518,1.72212,0.61286,0.00163689,-0.00658929,0.0218675,0.029102,-0.117138,0.388756,0.0185763,0.524199,5,0.1,6,0.1,2.02082,1.9675,0.615469,-0.0562701,-0.0186086,-0.00037495,-1.00036,-0.330821,-0.00666827,0.0116576,3.51219,5,0.1,7,0.1,0.571096,2.16021,0.662979,-0.0124919,-0.0551835,-0.00186842,-0.222076,-0.981033,-0.0332147,0.0131622,3.20424,5,0.1,8,0.1,3.59646,-5.74042,0.510139,-0.0577416,-0.00324994,-0.00178386,-1.02653,-0.0578165,-0.0317171,0.0173655,3.34738,5,0.1,9,0.1,0.273126,-4.46012,0.57614,-0.006813,0.058873,0.000595301,-0.12112,1.0466,0.0105798,0.00896932,3.5122,5,0.1
0,0.2,-2.58345,4.96845,0.664328,0.00315905,-0.11493,0.0646755,0.0234842,-0.862122,0.485092,0.0125716,1.42912,5,0.1,1,0.2,1.92781,4.72819,0.590017,0.0162423,-0.0498176,0.071685,0.121772,-0.37384,0.537634,0.0114139,0.647529,5,0.1,2,0.2,3.25667,-3.51508,0.669457,-0.164598,0.0892401,-0.00555962,-1.23453,0.66936,-0.0416636,0.00979833,2.92579,5,0.1,3,0.2,-1.55018,4.07877,0.64638,0.00473261,-0.0168562,0.0663698,0.0355244,-0.1266,0.497729,0.0245612,0.386939,5,0.1,4,0.2,-2.93929,1.75343,0.665093,0.180072,0.0514239,-0.00420213,1.35052,0.385702,-0.0315309,0.0218126,2.92579,5,0.1,5,0.2,-1.40485,1.72078,0.617302,0.00517368,-0.0208259,0.0691116,0.0388026,-0.156164,0.518322,0.0207153,0.43008,5,0.1,6,0.2,2.00939,1.96372,0.615393,-0.177836,-0.0588119,-0.00118464,-1.33395,-0.441074,-0.00891089,0.0113571,2.92578,5,0.1,7,0.2,0.568559,2.149,0.6626,-0.0394806,-0.174409,-0.00590533,-0.296086,-1.30796,-0.0442564,0.0137635,2.62892,5,0.1,8,0.2,3.58473,-5.74109,0.509776,-0.182498,-0.0102758,-0.0056386,-1.36852,-0.0770092,-0.0422895,0.0158924,2.74645,5,0.1,9,0.2,0.271743,-4.44817,0.576261,-0.0215329,0.186074,0.00188053,-0.161484,1.39523,0.0141263,0.00808031,2.92582,5,0.1
0,0.3,-2.58301,4.95218,0.673489,0.00585951,-0.213818,0.12032,0.0288635,-1.05488,0.59358,0.0125716,1.42912,5,0.1,1,0.3,1.93011,4.72113,0.60017,0.0302123,-0.0926949,0.133358,0.149034,-0.457376,0.657894,0.0114139,0.647529,5,0.1,2,0.3,3.23334,-3.50243,0.66867,-0.306579,0.16622,-0.0103523,-1.51718,0.822604,-0.051219,0.00979833,2.92579,5,0.1,3,0.3,-1.54951,4.07638,0.655779,0.00880696,-0.0313744,0.123466,0.0434667,-0.154853,0.609085,0.0245612,0.386939,5,0.1,4,0.3,-2.91377,1.76072,0.664498,0.335395,0.0957822,-0.00782777,1.65978,0.474013,-0.038743,0.0218126,2.92579,5,0.1,5,0.3,-1.40412,1.71784,0.627091,0.00962485,-0.0387408,0.128569,0.0474826,-0.191107,0.634268,0.0207153,0.43008,5,0.1,6,0.3,1.98419,1.95538,0.615225,-0.331248,-0.10954,-0.00220891,-1.63931,-0.542074,-0.0109375,0.0113571,2.92578,5,0.1,7,0.3,0.562967,2.1243,0.661763,-0.0734456,-0.32445,-0.010983,-0.362322,-1.60059,-0.0541694,0.0137635,2.62892,5,0.1,8,0.3,3.55889,-5.74254,0.509004,-0.339488,-0.0191107,-0.00974033,-1.67474,-0.0942349,-0.0384226,0.0158924,2.74645,5,0.1,9,0.3,0.268691,-4.4218,0.576527,-0.0401053,0.346548,0.00350438,-0.198467,1.71486,0.0173524,0.00808031,2.92582,5,0.1
0,0.4,-2.58228,4.92561,0.688436,0.00863671,-0.315332,0.177446,0.0255108,-0.930786,0.523657,0.0112944,1.13073,5,0.1,1,0.4,1.93387,4.70961,0.616737,0.0445545,-0.136697,0.196671,0.131547,-0.403643,0.58046,0.012042,0.512329,5,0.1,2,0.4,3.19523,-3.48176,0.667383,-0.452757,0.245476,-0.0152871,-1.34146,0.727296,-0.0452995,0.0087458,2.51007,5,0.1,3,0.4,-1.54842,4.07248,0.671117,0.0129879,-0.0462651,0.182085,0.0383258,-0.136852,0.537336,0.0252517,0.30615,5,0.1,4,0.4,-2.87208,1.77262,0.663525,0.495309,0.141451,-0.0115603,1.46747,0.41914,-0.0342727,0.0220055,2.51038,5,0.1,5,0.4,-1.40292,1.71302,0.643063,0.0141948,-0.057134,0.18961,0.0419021,-0.168622,0.559598,0.0184893,0.340284,5,0.1,6,0.4,1.94301,1.94177,0.614951,-0.48919,-0.16177,-0.00326186,-1.44935,-0.479281,-0.00968575,0.0123945,2.51006,5,0.1,7,0.4,0.553843,2.08399,0.660399,-0.108317,-0.478488,-0.0161976,-0.31963,-1.41203,-0.0477731,0.0145932,2.09812,5,0.1,8,0.4,3.51671,-5.74491,0.507853,-0.500667,-0.0281811,-0.0131026,-1.47748,-0.0832081,-0.0278652,0.0161906,2.17357,5,0.1,9,0.4,0.263705,-4.37872,0.576963,-0.0592269,0.511777,0.00517517,-0.175491,1.5161,0.0153482,0.00852074,2.51431,5,0.1
0,0.5,-2.58128,4.88934,0.708847,0.0112277,-0.409764,0.230576,0.025019,-0.911534,0.512879,0.0112944,1.13073,5,0.1,1,0.5,1.93899,4.69389,0.639359,0.0579005,-0.177644,0.255564,0.128828,-0.395238,0.568502,0.012042,0.512329,5,0.1,2,0.5,3.14306,-3.45348,0.665621,-0.590797,0.320316,-0.0199487,-1.34833,0.731036,-0.0455342,0.0087458,2.51007,5,0.1,3,0.5,-1.54692,4.06716,0.692062,0.0168759,-0.0601426,0.236604,0.037536,-0.133872,0.526294,0.0252517,0.30615,5,0.1,4,0.5,-2.81505,1.78892,0.662192,0.644724,0.184581,-0.0150864,1.44614,0.421286,-0.0344403,0.0220055,2.51038,5,0.1,5,0.5,-1.40129,1.70645,0.664873,0.018446,-0.0742424,0.246386,0.0410303,-0.16515,0.548076,0.0184893,0.340284,5,0.1,6,0.5,1.88664,1.92312,0.614575,-0.638333,-0.21109,-0.00425801,-1.45679,-0.481762,-0.00972301,0.0123945,2.51006,5,0.1,7,0.5,0.541384,2.02935,0.658536,-0.140747,-0.610345,-0.0210455,-0.31307,-1.18016,-0.0468045,0.0145932,2.09812,5,0.1,8,0.5,3.45915,-5.74816,0.506443,-0.649898,-0.0366241,-0.0147449,-1.43483,-0.0814795,-0.00607222,0.0161906,2.17357,5,0.1,9,0.5,0.25688,-4.31995,0.57756,-0.0772855,0.661845,0.00675414,-0.176391,1.41606,0.0154153,0.00852074,2.51431,5,0.1
0,0.6,-2.58005,4.84415,0.734275,0.013423,-0.489748,0.275585,0.0180006,-0.65589,0.368923,0.00973015,0.841785,5,0.1,1,0.6,1.94538,4.6743,0.667544,0.069207,-0.212324,0.305453,0.0926256,-0.284433,0.408947,0.0111702,0.381406,5,0.1,2,0.6,3.0777,-3.41804,0.663414,-0.710303,0.385106,-0.0239849,-0.991702,0.537753,-0.0334978,0.0120132,2.23087,5,0.1,3,0.6,-1.54506,4.06053,0.718155,0.0201702,-0.0718951,0.28279,0.0270009,-0.0960827,0.378609,0.0274492,0.227919,5,0.1,4,0.6,-2.74389,1.80934,0.660523,0.77188,0.22192,-0.0181377,1.04511,0.309825,-0.025332,0.0224087,2.29902,5,0.1,5,0.6,-1.39926,1.69826,0.692045,0.0220478,-0.0887334,0.294484,0.0295043,-0.118852,0.394225,0.0187664,0.253333,5,0.1,6,0.6,1.81602,1.89977,0.614104,-0.767452,-0.253791,-0.00512004,-1.07127,-0.35423,-0.00712276,0.0110559,2.28907,5,0.1,7,0.6,0.525862,1.9631,0.656215,-0.168219,-0.70706,-0.0251547,-0.225276,-0.724494,-0.0336468,0.0138231,1.91329,5,0.1,8,0.6,3.38754,-5.75219,0.504966,-0.775373,-0.0437737,-0.0145227,-1.02413,-0.058651,0.00953674,0.0166007,1.66984,5,0.1,9,0.6,0.248331,-4.24731,0.578307,-0.0929195,0.783551,0.00812113,-0.129715,0.972748,0.0113249,0.0084767,2.32839,5,0.1
0,0.7,-2.57862,4.79195,0.763647,0.0151526,-0.55271,0.311004,0.0156015,-0.567347,0.319194,0.00973015,0.841785,5,0.1,1,0.7,1.95275,4.65167,0.700099,0.0781,-0.239625,0.344713,0.0801533,-0.246018,0.353817,0.0111702,0.381406,5,0.1,2,0.7,3.00206,-3.37681,0.660846,-0.798086,0.439084,-0.0273474,-0.727922,0.507757,-0.0316314,0.0120132,2.23087,5,0.1,3,0.7,-1.54291,4.05287,0.748295,0.0227623,-0.0811189,0.319138,0.0233501,-0.0831485,0.327576,0.0274492,0.227919,5,0.1,4,0.7,-2.66251,1.8331,0.658581,0.845641,0.253017,-0.0206799,0.444815,0.292517,-0.0239126,0.0224087,2.29902,5,0.1,5,0.7,-1.39691,1.68881,0.723431,0.0248805,-0.100143,0.332332,0.0255257,-0.102825,0.341088,0.0187664,0.253333,5,0.1,6,0.7,1.73495,1.8726,0.613555,-0.844073,-0.28935,-0.00583511,-0.471488,-0.334531,-0.00672787,0.0110559,2.28907,5,0.1,7,0.7,0.507933,1.89036,0.653534,-0.189846,-0.733189,-0.0283858,-0.194896,0.150368,-0.0291243,0.0138231,1.91329,5,0.1,8,0.7,3.30593,-5.75686,0.503583,-0.84679,-0.0494018,-0.0129662,-0.423864,-0.0507236,0.020545,0.0166007,1.66984,5,0.1,9,0.7,0.238382,-4.16515,0.579176,-0.105936,0.849693,0.00925744,-0.122412,0.37539,0.0106879,0.0084767,2.32839,5,0.1
0,0.8,-2.57703,4.73423,0.796125,0.0163794,-0.597191,0.33603,0.00810623,-0.297785,0.167608,0.00989496,0.594326,5,0.1,1,0.8,1.96091,4.62664,0.736098,0.0843823,-0.258911,0.372453,0.0421405,-0.129223,0.185788,0.00992546,0.269284,5,0.1,2,0.8,2.91927,-3.33064,0.65797,-0.85066,0.480896,-0.0299528,-0.307322,0.304937,-0.0189841,0.0100926,2.00102,5,0.1,3,0.8,-1.54054,4.04439,0.781623,0.0245959,-0.0876307,0.344822,0.012219,-0.043869,0.172019,0.0248264,0.160925,5,0.1,4,0.8,-2.57655,1.85971,0.656407,0.866026,0.277105,-0.0226483,0,0.175714,-0.0143647,0.0213686,2.21361,5,0.1,5,0.8,-1.39431,1.67835,0.758137,0.0268817,-0.108203,0.359075,0.013411,-0.0540614,0.179112,0.0231695,0.178868,5,0.1,6,0.8,1.64905,1.84217,0.612942,-0.866026,-0.316903,-0.00638962,0,-0.200868,-0.00402331,0.0092212,2.19673,5,0.1,7,0.8,0.488107,1.81888,0.65057,-0.205126,-0.686577,-0.0306696,-0.102356,0.737369,-0.0152886,0.0118478,1.38454,5,0.1,8,0.8,3.21993,-5.76202,0.5024,-0.866026,-0.0533819,-0.0106037,0,-0.0267029,0.0258684,0.0232695,1.23547,5,0.1,9,0.8,0.227243,-4.07905,0.58015,-0.116014,0.866032,0.0101373,-0.0734702,-0.000238419,0.0064075,0.0120856,2.23942,5,0.1
0,0.9,-2.57536,4.67309,0.830527,0.0171155,-0.624172,0.351218,0.00584126,-0.213265,0.120062,0.00989496,0.594326,5,0.1,1,0.9,1.96955,4.60014,0.774229,0.0882003,-0.270615,0.389288,0.0301898,-0.0924766,0.133082,0.00992546,0.269284,5,0.1,2,0.9,2.83326,-3.28098,0.654878,-0.86506,0.511832,-0.0318791,-0.0382215,0.282645,-0.017602,0.0100926,2.00102,5,0.1,3,0.9,-1.53802,4.03542,0.816925,0.0257038,-0.0916034,0.360409,0.00876188,-0.0314116,0.123221,0.0248264,0.160925,5,0.1,4,0.9,-2.48995,1.88833,0.654067,0.866026,0.295252,-0.0241313,0,0.168577,-0.0137761,0.0213686,2.21361,5,0.1,5,0.9,-1.39156,1.66727,0.794898,0.0280967,-0.113101,0.375305,0.0096038,-0.0387058,0.128299,0.0231695,0.178868,5,0.1,6,0.9,1.56244,1.80944,0.612282,-0.866026,-0.337655,-0.00680583,0,-0.192843,-0.00387058,0.0092212,2.19673,5,0.1,7,0.9,0.467107,1.75479,0.64743,-0.214401,-0.588101,-0.0320555,-0.0733119,1.16929,-0.0109635,0.0118478,1.38454,5,0.1,8,0.9,3.13334,-5.76749,0.501472,-0.865711,-0.0558011,-0.00795005,0.0125915,-0.0191629,0.0265576,0.0232695,1.23547,5,0.1,9,0.9,0.215262,-3.99244,0.581196,-0.12355,0.866025,0.0107947,-0.0695726,1.49012e-05,0.0060685,0.0120856,2.23942,5,0.1
0,1,-2.57362,4.60994,0.866064,0.0174165,-0.635087,0.357369,-0.000476837,0.0138283,-0.0077486,0.0143073,0.404159,5,0.1,1,1,1.97847,4.57276,0.813617,0.0897467,-0.27535,0.396104,-0.00190735,0.00596046,-0.00855327,0.0120764,0.183115,5,0.1,2,1,2.74668,-3.22863,0.651617,-0.865942,0.532174,-0.0331461,0.00143051,0.102997,-0.0064075,0.0114547,1.49448,5,0.1,3,1,-1.53542,4.02615,0.853392,0.0261486,-0.0932097,0.366722,-0.000476837,0.00214577,-0.00789762,0.0286369,0.185315,5,0.1,4,1,-2.40335,1.91856,0.651597,0.866026,0.30767,-0.0251457,0,0.066936,-0.00548363,0.0228496,2.20767,5,0.1,5,1,-1.38871,1.65583,0.832872,0.0285894,-0.115085,0.381878,-0.000655651,0.00244379,-0.00828505,0.0203811,0.121637,5,0.1,6,1,1.47584,1.77487,0.611585,-0.866026,-0.351864,-0.00708997,0,-0.0766516,-0.00154972,0.0093414,1.84611,5,0.1,7,1,0.445413,1.70212,0.644187,-0.218157,-0.463632,-0.0326186,0.00470877,1.27387,0.000715256,0.013728,1.30964,5,0.1,8,1,3.04693,-5.77313,0.500806,-0.860983,-0.0567794,-0.00540167,0.100732,0.00119209,0.0239313,0.015865,0.918326,5,0.1,9,1,0.202617,-3.90584,0.582301,-0.128629,0.866026,0.011237,-0.0267178,0,0.00232458,0.00970844,1.77697,5,0.1
0,1.1,-2.57189,4.54653,0.901747,0.0173334,-0.632293,0.3558,-0.00183284,0.0652969,-0.0367053,0.0143073,0.404159,5,0.1,1,1.1,1.98743,4.54526,0.853168,0.0893559,-0.274139,0.394368,-0.00919402,0.028342,-0.0406727,0.0120764,0.183115,5,0.1,2,1.1,2.6601,-3.17489,0.64827,-0.865635,0.542033,-0.0337597,0.0129044,0.06935,-0.00431389,0.0114547,1.49448,5,0.1,3,1.1,-1.53279,4.01678,0.890266,0.0265613,-0.0946432,0.372417,0.00660121,-0.0231862,0.0918843,0.0286369,0.185315,5,0.1,4,1.1,-2.31675,1.94973,0.64905,0.866026,0.315742,-0.0258062,0,0.076279,-0.00623614,0.0228496,2.20767,5,0.1,5,1.1,-1.38586,1.64433,0.871002,0.0284607,-0.114583,0.380201,-0.00295788,0.0118017,-0.0392236,0.0203811,0.121637,5,0.1,6,1.1,1.38924,1.73957,0.610868,-0.866009,-0.351463,-0.00725128,0.000663102,0.0819489,-0.00131875,0.0093414,1.84611,5,0.1,7,1.1,0.423631,1.66217,0.64093,-0.2172,-0.336586,-0.0324754,0.0223983,1.2078,0.00334531,0.013728,1.30964,5,0.1,8,1.1,2.96107,-5.7788,0.500378,-0.857604,-0.056532,-0.0032465,0.0148118,0.00578165,0.0189729,0.015865,0.918326,5,0.1,9,1.1,0.189617,-3.81924,0.583437,-0.131224,0.866026,0.0114628,-0.0190614,0,0.00165775,0.00970844,1.77697,5,0.1
0,1.2,-2.57017,4.48386,0.937008,0.0169456,-0.618184,0.34786,-0.0064373,0.232458,-0.130683,0.00986864,0.268743,5,0.1,1,1.2,1.99629,4.5181,0.892252,0.0873625,-0.268006,0.385569,-0.0327826,0.100613,-0.144839,0.00914077,0.121757,5,0.1,2,1.2,2.57371,-3.12056,0.644886,-0.860471,0.541896,-0.0337511,0.111103,-0.0888109,0.00551343,0.00913242,1.08888,5,0.1,3,1.2,-1.5301,4.00721,0.927931,0.0271052,-0.0965476,0.37995,0.0026226,-0.00917912,0.0371933,0.0234014,0.110391,5,0.1,4,1.2,-2.23014,1.98158,0.646446,0.866026,0.319839,-0.0261411,0,-0.00691414,0.000566244,0.0220882,2.20681,5,0.1,5,1.2,-1.38304,1.63298,0.908682,0.0278264,-0.112027,0.371717,-0.01055,0.0420809,-0.139624,0.0174788,0.137257,5,0.1,6,1.2,1.30265,1.70507,0.610139,-0.86576,-0.336069,-0.00729114,0.00530481,0.222862,0.000715256,0.0104238,1.43036,5,0.1,7,1.2,0.402105,1.63407,0.637711,-0.212354,-0.230891,-0.0317514,0.0797808,0.877082,0.0119209,0.00977551,1.21207,5,0.1,8,1.2,2.87556,-5.7844,0.500139,-0.849849,-0.0552654,-0.00163168,0.174046,0.020504,0.0132322,0.0134412,0.657695,5,0.1,9,1.2,0.176453,-3.73264,0.584587,-0.131416,0.866026,0.0114784,0.0193417,0,-0.00166893,0.00816223,1.37284,5,0.1
0,1.3,-2.56851,4.42318,0.971155,0.016313,-0.595209,0.334942,-0.00676513,0.246286,-0.138499,0.00986864,0.268743,5,0.1,1,1.3,2.00486,4.49179,0.930101,0.0841212,-0.258058,0.371251,-0.0347644,0.106722,-0.153501,0.00914077,0.121757,5,0.1,2,1.3,2.48797,-3.0668,0.641537,-0.855611,0.533072,-0.0332031,0.0327379,-0.10778,0.00669807,0.00913242,1.08888,5,0.1,3,1.3,-1.52737,3.9975,0.966155,0.0274239,-0.0976712,0.384459,0.00237674,-0.00840425,0.0337996,0.0234014,0.110391,5,0.1,4,1.3,-2.14354,2.01361,0.643828,0.866026,0.321221,-0.0262535,0,0.0166744,-0.00135228,0.0220882,2.20681,5,0.1,5,1.3,-1.38029,1.62192,0.94539,0.0272509,-0.109738,0.364129,-0.00287592,0.0113994,-0.0377186,0.0174788,0.137257,5,0.1,6,1.3,1.21608,1.67293,0.609413,-0.865614,-0.304078,-0.00722315,0.00718981,0.389285,0.000938773,0.0104238,1.43036,5,0.1,7,1.3,0.38126,1.6148,0.634594,-0.204468,-0.161697,-0.0305734,0.0845511,0.454113,0.012625,0.00977551,1.21207,5,0.1,8,1.3,2.79129,-5.78983,0.500032,-0.836112,-0.0532322,-0.000598934,0.139117,0.0218451,0.00763312,0.0134412,0.657695,5,0.1,9,1.3,0.163403,-3.64604,0.585727,-0.1295,0.865801,0.0113124,0.0239573,-0.0089705,-0.00207871,0.00816223,1.37284,5,0.1
0,1.4,-2.56691,4.36504,1.00387,0.0155032,-0.565732,0.318366,-0.00965595,0.355721,-0.200212,0.00861793,0.176895,5,0.1,1,1.4,2.01308,4.46658,0.966364,0.0799596,-0.245285,0.352876,-0.0503063,0.154257,-0.221878,0.010988,0.136477,5,0.1,2,1.4,2.40276,-3.0142,0.638261,-0.845993,0.516969,-0.0322014,0.192404,-0.227451,0.0141561,0.00897475,0.767731,5,0.1,3,1.4,-1.52463,3.98772,1.00464,0.0273526,-0.0974059,0.383478,-0.00476837,0.0169277,-0.0664592,0.0222874,0.114481,5,0.1,4,1.4,-2.05694,2.04573,0.641203,0.866026,0.320131,-0.0261649,-5.96046e-05,-0.0510216,0.00420213,0.0210339,2.1345,5,0.1,5,1.4,-1.37758,1.611,0.98161,0.0269204,-0.108421,0.359765,-0.005126,0.0205636,-0.0681281,0.0178013,0.143994,5,0.1,6,1.4,1.12964,1.64456,0.608698,-0.861821,-0.262678,-0.0070557,0.0839829,0.421882,0.00265241,0.00903021,1.09025,5,0.1,7,1.4,0.361287,1.6,0.631608,-0.194348,-0.142884,-0.0290602,0.122219,-0.0534058,0.0182092,0.0109475,1.68736,5,0.1,8,1.4,2.70858,-5.79503,0.500002,-0.815535,-0.0506163,-5.96046e-05,0.298977,0.0319481,0.00339746,0.0142098,0.893639,5,0.1,9,1.4,0.150614,-3.55957,0.586844,-0.125797,0.862443,0.0109911,0.0534356,-0.071764,-0.00467896,0.00799161,1.03015,5,0.1
0,1.5,-2.56541,4.31018,1.03475,0.0145819,-0.5318,0.299269,-0.00919402,0.338972,-0.19078,0.00861793,0.176895,5,0.1,1,1.5,2.02088,4.44266,1.00077,0.0763509,-0.234217,0.336964,-0.0268072,0.0823438,-0.118244,0.010988,0.136477,5,0.1,2,1.5,2.31897,-2.96359,0.635109,-0.830303,0.495173,-0.0308447,0.158802,-0.225067,0.0140071,0.00897475,0.767731,5,0.1,3,1.5,-1.52192,3.9778,1.04263,0.0268031,-0.103276,0.375809,-0.00706315,-0.113785,-0.098832,0.0222874,0.114481,5,0.1,4,1.5,-1.97034,2.07758,0.6386,0.866025,0.31736,-0.0259357,1.49012e-05,-0.0214577,0.00177324,0.0210339,2.1345,5,0.1,5,1.5,-1.37491,1.59996,1.01731,0.0265222,-0.114721,0.354464,-0.00406802,-0.123903,-0.0544041,0.0178013,0.143994,5,0.1,6,1.5,1.04385,1.62041,0.608003,-0.853336,-0.221088,-0.0068604,0.119202,0.380836,0.0016205,0.00903021,1.09025,5,0.1,7,1.5,0.34244,1.58449,0.628789,-0.18269,-0.175276,-0.0273226,0.11646,-0.52689,0.0173673,0.0109475,1.68736,5,0.1,8,1.5,2.62808,-5.79994,0.500009,-0.797397,-0.0475697,0.000155065,0.114709,0.0304282,0.00106916,0.0142098,0.893639,5,0.1,9,1.5,0.13829,-3.47339,0.587921,-0.120677,0.862819,0.010543,0.053037,0.028953,-0.00463799,0.00799161,1.03015,5,0.1
0,1.6,-2.564,4.25877,1.06368,0.0135899,-0.495243,0.278702,-0.0110865,0.402451,-0.226736,0.00815073,0.116264,5,0.1,1,1.6,2.02838,4.41964,1.0339,0.0737369,-0.226212,0.325447,-0.0289679,0.089407,-0.127971,0.010065,0.0800839,5,0.1,2,1.6,2.23693,-2.91531,0.632101,-0.807917,0.469184,-0.0292256,0.314832,-0.30601,0.0190139,0.00923222,0.52896,5,0.1,3,1.6,-1.51928,3.96683,1.07958,0.0257999,-0.116557,0.361753,-0.0135899,-0.136375,-0.19002,0.023307,0.0766255,5,0.1,4,1.6,-1.88373,2.10915,0.63602,0.866026,0.312942,-0.0255719,-5.96046e-05,-0.0789165,0.0064373,0.0194557,1.66953,5,0.1,5,1.6,-1.37228,1.58779,1.0524,0.0258982,-0.12922,0.346097,-0.00929832,-0.148952,-0.124335,0.0215351,0.0909661,5,0.1,6,1.6,0.959396,1.6,0.607326,-0.832392,-0.189307,-0.00666827,0.322104,0.255764,0.00247359,0.00956682,0.847972,5,0.1,7,1.6,0.32478,1.564,0.626148,-0.170133,-0.236318,-0.0254497,0.138357,-0.64218,0.0206828,0.0108636,2.83143,5,0.1,8,1.6,2.54896,-5.80454,0.500027,-0.783837,-0.0442863,0.000184774,0.193238,0.0360012,-0.000327826,0.0143213,0.655181,5,0.1,9,1.6,0.126514,-3.38714,0.588949,-0.114507,0.859678,0.0100031,0.0731274,-0.126719,-0.0064075,0.00794551,0.743395,5,0.1
0,1.7,-2.56269,4.21117,1.09047,0.0125516,-0.457511,0.257449,-0.0100285,0.365704,-0.205964,0.00815073,0.116264,5,0.1,1,1.7,2.03563,4.3975,1.06588,0.0712954,-0.216128,0.314663,-0.0230968,0.116467,-0.101946,0.010065,0.0800839,5,0.1,2,1.7,2.15759,-2.86985,0.629269,-0.779329,0.440334,-0.0274325,0.287339,-0.284821,0.01771,0.00923222,0.52896,5,0.1,3,1.7,-1.51677,3.9547,1.11478,0.0243766,-0.123797,0.341839,-0.0153854,-0.0131726,-0.215471,0.023307,0.0766255,5,0.1,4,1.7,-1.79713,2.14011,0.633491,0.865947,0.306409,-0.0250387,-0.00309199,-0.065431,0.00533834,0.0194557,1.66953,5,0.1,5,1.7,-1.36974,1.57424,1.08639,0.0249567,-0.140425,0.333499,-0.0103042,-0.0729412,-0.137985,0.0215351,0.0909661,5,0.1,6,1.7,0.877954,1.58222,0.606667,-0.794274,-0.167499,-0.00652662,0.451908,0.188515,0.000793487,0.00956682,0.847972,5,0.1,7,1.7,0.308426,1.53783,0.623702,-0.157162,-0.281109,-0.0235105,0.125697,-0.279017,0.0187904,0.0108636,2.83143,5,0.1,8,1.7,2.4713,-5.80879,0.500043,-0.77063,-0.0409111,0.000130665,0.111341,0.0327229,-0.00070408,0.0143213,0.655181,5,0.1,9,1.7,0.115413,-3.30163,0.589919,-0.10761,0.85106,0.00939919,0.0682049,-0.086844,-0.00597164,0.00794551,0.743395,5,0.1
0,1.8,-2.56149,4.16727,1.11516,0.0115156,-0.419819,0.236231,-0.010848,0.396967,-0.223637,0.0104903,0.131612,5,0.1,1,1.8,2.04263,4.37654,1.09679,0.0685751,-0.20225,0.302649,-0.033617,0.163794,-0.148237,0.0112552,0.0749039,5,0.1,2,1.8,2.08125,-2.82729,0.626618,-0.745332,0.409901,-0.0255376,0.413179,-0.333309,0.0207126,0.00891317,0.358827,5,0.1,3,1.8,-1.51442,3.94243,1.1478,0.0226408,-0.120115,0.317499,-0.0197291,0.082016,-0.27585,0.0240731,0.0859305,5,0.1,4,1.8,-1.71058,2.17035,0.631019,0.864786,0.297546,-0.0243142,-0.0248551,-0.121236,0.00989437,0.0252593,1.35283,5,0.1,5,1.8,-1.3673,1.55997,1.11896,0.0237077,-0.14351,0.31679,-0.0151396,0.0120997,-0.203013,0.017612,0.0983955,5,0.1,6,1.8,0.801076,1.56635,0.606019,-0.740241,-0.150186,-0.00643432,0.634819,0.163794,0.00137091,0.0126924,0.626825,5,0.1,7,1.8,0.293348,1.50875,0.621446,-0.144211,-0.296479,-0.0215739,0.13648,-0.0466704,0.0204146,0.0142306,3.28683,5,0.1,8,1.8,2.39493,-5.81272,0.500053,-0.754678,-0.037539,5.21541e-05,0.236154,0.0357628,-0.000804663,0.0154021,2.50275,5,0.1,9,1.8,0.105007,-3.21717,0.590828,-0.100295,0.835335,0.0087589,0.0803992,-0.2563,-0.00700355,0.0111475,0.520795,5,0.1
0,1.9,-2.56038,4.12697,1.13784,0.0106648,-0.38863,0.218663,-0.00682473,0.250846,-0.141278,0.0104903,0.131612,5,0.1,1,1.9,2.04935,4.3573,1.12642,0.0658348,-0.181166,0.290566,-0.0245571,0.251442,-0.108242,0.0112552,0.0749039,5,0.1,2,1.9,2.00866,-2.78789,0.624162,-0.707087,0.378838,-0.0236065,0.376709,-0.299573,0.0186376,0.00891317,0.358827,5,0.1,3,1.9,-1.51225,3.93096,1.17822,0.0207655,-0.108002,0.291257,-0.0183582,0.154823,-0.256941,0.0240731,0.0859305,5,0.1,4,1.9,-1.62411,2.1997,0.628633,0.865022,0.290982,-0.0234152,0.00327826,-0.0310838,0.00898913,0.0252593,1.35283,5,0.1,5,1.9,-1.365,1.54588,1.14969,0.022316,-0.136592,0.298127,-0.0135154,0.12029,-0.181295,0.017612,0.0983955,5,0.1,6,1.9,0.730232,1.55231,0.60538,-0.676314,-0.129412,-0.00636289,0.653517,0.242971,0.000428408,0.0126924,0.626825,5,0.1,7,1.9,0.27959,1.47954,0.619388,-0.131072,-0.283152,-0.0196087,0.12912,0.232019,0.0193156,0.0142306,3.28683,5,0.1,8,1.9,2.32003,-5.81629,0.500716,-0.747776,-0.0339471,0.0187597,-0.0367165,0.0365078,0.333231,0.0154021,2.50275,5,0.1,9,1.9,0.0953589,-3.1348,0.591671,-0.0927991,0.812547,0.00810577,0.0723796,-0.232786,-0.00630692,0.0111475,0.520795,5,0.1
0,2,-2.55935,4.08928,1.15905,0.0100374,-0.365472,0.205627,-0.00619888,0.229597,-0.129342,0.00875948,0.0771861,5,0.1,1,2,2.0558,4.34054,1.1549,0.0630975,-0.153196,0.278488,-0.0325441,0.302553,-0.143707,0.0115799,0.140313,5,0.1,2,2,1.93994,-2.75152,0.621896,-0.66579,0.348037,-0.0216901,0.466347,-0.324607,0.0202358,0.0124264,0.555251,5,0.1,3,2,-1.51027,3.92102,1.20604,0.0188768,-0.0901699,0.264788,-0.0198483,0.196934,-0.277638,0.0291817,0.185641,5,0.1,4,2,-1.53772,2.22865,0.626341,0.861132,0.287706,-0.0223622,-0.0978112,-0.0499487,0.012666,0.0229849,1.00259,5,0.1,5,2,-1.36284,1.53296,1.17855,0.0208616,-0.120604,0.278679,-0.0160336,0.193775,-0.215292,0.0174454,0.189554,5,0.1,6,2,0.665962,1.54065,0.604747,-0.607981,-0.10317,-0.00628382,0.718951,0.274897,0.00140071,0.0109489,0.508297,5,0.1,7,2,0.267135,1.45235,0.617524,-0.117919,-0.262308,-0.01764,0.135794,0.143707,0.0202954,0.0144232,3.20891,5,0.1,8,2,2.24503,-5.8195,0.504525,-0.751382,-0.0301838,0.0592798,0.00917912,0.0391006,0.44471,0.013352,2.75878,5,0.1,9,2,0.0864466,-3.05489,0.592449,-0.0853391,0.783169,0.00745505,0.0787713,-0.377536,-0.00688434,0.00718458,0.356988,5,0.1
0,2.1,-2.55837,4.05386,1.17903,0.00951141,-0.343025,0.194634,-0.00476837,0.228614,-0.099428,0.00875948,0.0771861,5,0.1,1,2.1,2.06194,4.32679,1.18198,0.059513,-0.12135,0.262666,-0.0400245,0.32708,-0.176683,0.0115799,0.140313,5,0.1,2,2.1,1.87524,-2.71825,0.619823,-0.631478,0.318061,-0.0198212,0.260368,-0.284672,0.0177473,0.0124264,0.555251,5,0.1,3,2.1,-1.50848,3.91304,1.23112,0.0168739,-0.0691153,0.236746,-0.0203326,0.217646,-0.284843,0.0291817,0.185641,5,0.1,4,2.1,-1.45184,2.25728,0.624165,0.857704,0.285432,-0.0211907,-0.0180826,-0.0120848,0.0115149,0.0229849,1.00259,5,0.1,5,2.1,-1.36084,1.52197,1.20531,0.0191789,-0.0983557,0.256113,-0.0178069,0.24312,-0.238597,0.0174454,0.189554,5,0.1,6,2.1,0.608374,1.53171,0.604126,-0.54695,-0.0756724,-0.00611795,0.528309,0.270538,0.00207499,0.0109489,0.508297,5,0.1,7,2.1,0.256126,1.42674,0.615857,-0.101378,-0.254024,-0.0157325,0.189047,-0.0909418,0.0182167,0.0144232,3.20891,5,0.1,8,2.1,2.17093,-5.82233,0.512961,-0.721812,-0.026533,0.111393,0.548065,0.0345111,0.56373,0.013352,2.75878,5,0.1,9,2.1,0.0782845,-2.97834,0.593162,-0.078061,0.748285,0.00681914,0.0691875,-0.347406,-0.00604987,0.00718458,0.356988,5,0.1
0,2.2,-2.55744,4.02076,1.19799,0.00900626,-0.318193,0.184223,-0.00548363,0.273943,-0.115156,0.00836848,0.215236,5,0.1,1,2.2,2.06767,4.31628,1.20729,0.0549555,-0.0890613,0.24254,-0.0517368,0.312805,-0.227988,0.00961462,0.196538,5,0.1,2,2.2,1.81333,-2.68787,0.617929,-0.606716,0.289452,-0.0180379,0.264406,-0.294328,0.0183582,0.00953936,0.406527,5,0.1,3,2.2,-1.50689,3.9072,1.25335,0.0147939,-0.0477612,0.207582,-0.0213385,0.204444,-0.299096,0.0228664,0.403869,5,0.1,4,2.2,-1.36635,2.28571,0.622106,0.849462,0.282454,-0.0199333,-0.179887,-0.059247,0.0140965,0.0177273,0.716561,5,0.1,5,2.2,-1.35901,1.51337,1.22968,0.0172704,-0.0734091,0.230581,-0.0203848,0.249505,-0.273287,0.01725,0.275167,5,0.1,6,2.2,0.556185,1.52546,0.603527,-0.497691,-0.0498533,-0.00584275,0.47642,0.242591,0.00357628,0.010524,0.584072,5,0.1,7,2.2,0.24698,1.4,0.614374,-0.0811946,-0.289261,-0.0139341,0.209741,-0.588596,0.017941,0.00528243,0.352412,5,0.1,8,2.2,2.10214,-5.82482,0.526886,-0.648123,-0.0231862,0.16614,0.896335,0.0331402,0.506163,0.0128936,3.0804,5,0.1,9,2.2,0.0708244,-2.90538,0.593814,-0.071096,0.709099,0.0062108,0.0717714,-0.454903,-0.00628829,0.00734603,0.241351,5,0.1
0,2.3,-2.55657,3.99057,1.21581,0.00841096,-0.283327,0.171797,-0.00652671,0.411406,-0.135422,0.00836848,0.215236,5,0.1,1,2.3,2.07291,4.30888,1.23043,0.0499234,-0.0597,0.22036,-0.0499189,0.270665,-0.220172,0.00961462,0.196538,5,0.1,2,2.3,1.75373,-2.6603,0.616212,-0.58704,0.262475,-0.016355,0.161245,-0.253394,0.0158064,0.00953936,0.406527,5,0.1,3,2.3,-1.50552,3.90348,1.27264,0.01272,-0.0267703,0.178501,-0.020206,0.202641,-0.283509,0.0228664,0.403869,5,0.1,4,2.3,-1.28215,2.31372,0.620179,0.835009,0.277985,-0.018628,-0.147089,-0.0433773,0.0126325,0.0177273,0.716561,5,0.1,5,2.3,-1.35739,1.50725,1.2514,0.0152966,-0.0495162,0.204142,-0.0193194,0.22395,-0.258602,0.01725,0.275167,5,0.1,6,2.3,0.508289,1.5214,0.602963,-0.464341,-0.0338614,-0.00541601,0.228019,0.0895709,0.00493228,0.010524,0.584072,5,0.1,7,2.3,0.239035,1.36879,0.613113,-0.0851081,-0.328622,-0.0109483,-0.235667,-0.210769,0.039123,0.00528243,0.352412,5,0.1,8,2.3,2.04246,-5.82698,0.546134,-0.540414,-0.0202142,0.21912,1.19963,0.0269711,0.524849,0.0128936,3.0804,5,0.1,9,2.3,0.0640521,-2.83662,0.594405,-0.0645145,0.66688,0.00563422,0.0618722,-0.412017,-0.0054203,0.00734603,0.241351,5,0.1
0,2.4,-2.55577,3.96444,1.23226,0.007689,-0.238127,0.156832,-0.00810623,0.48244,-0.164866,0.00894016,0.387778,5,0.1,1,2.4,2.07765,4.30417,1.25134,0.0447989,-0.0355244,0.197762,-0.0531673,0.211,-0.234604,0.0106761,0.319803,5,0.1,2,2.4,1.69587,-2.63531,0.614655,-0.568965,0.237381,-0.0147894,0.2231,-0.254393,0.0158548,0.00975624,0.291089,5,0.1,3,2.4,-1.50435,3.90173,1.2891,0.0107408,-0.0092566,0.150731,-0.0194311,0.140071,-0.272453,0.0228174,1.41563,5,0.1,4,2.4,-1.19958,2.34124,0.618382,0.813636,0.271535,-0.0173017,-0.306427,-0.0948906,0.0142455,0.020618,0.498487,5,0.1,5,2.4,-1.35595,1.50335,1.27053,0.0133663,-0.0293195,0.178355,-0.0193119,0.177443,-0.259101,0.0165089,0.359345,5,0.1,6,2.4,0.462837,1.51829,0.602448,-0.445551,-0.029704,-0.00486225,0.175729,0.00357628,0.00610948,0.00874485,1.37285,5,0.1,7,2.4,0.228966,1.33541,0.61223,-0.119021,-0.333837,-0.00658482,-0.401869,0.0944734,0.0460744,0.00597755,0.204003,5,0.1,8,2.4,1.99453,-5.82887,0.570508,-0.418124,-0.0176787,0.266218,1.20503,0.0245571,0.396699,0.0112823,3.31203,5,0.1,9,2.4,0.057907,-2.77207,0.594942,-0.0583794,0.622898,0.00509769,0.0622384,-0.482917,-0.00542402,0.00779553,0.162031,5,0.1
0,2.5,-2.55488,3.94309,1.24714,0.0113394,-0.188563,0.140659,0.0711232,0.500098,-0.160597,0.00894016,0.387778,5,0.1,1,2.5,2.08186,4.30163,1.26995,0.0394743,-0.0158258,0.174263,-0.0534803,0.17491,-0.236094,0.0106761,0.319803,5,0.1,2,2.5,1.63994,-2.61276,0.61325,-0.550669,0.214213,-0.0133453,0.168577,-0.215828,0.0134557,0.00975624,0.291089,5,0.1,3,2.5,-1.50337,3.90158,1.303,0.0088837,0.00582524,0.129131,-0.0177324,0.120863,-0.169672,0.0228174,1.41563,5,0.1,4,2.5,-1.11963,2.36796,0.616718,0.785838,0.263088,-0.015987,-0.280328,-0.0847727,0.0125654,0.020618,0.498487,5,0.1,5,2.5,-1.35471,1.50126,1.28708,0.0114538,-0.0128394,0.152726,-0.0189245,0.145636,-0.25329,0.0165089,0.359345,5,0.1,6,2.5,0.418892,1.51544,0.601992,-0.435279,-0.0267958,-0.00424692,0.0590738,0.041686,0.00619516,0.00874485,1.37285,5,0.1,7,2.5,0.214866,1.30248,0.611808,-0.164122,-0.324731,-0.00182856,-0.47101,0.0995919,0.0474975,0.00597755,0.204003,5,0.1,8,2.5,1.95877,-5.83053,0.599146,-0.298691,-0.0155434,0.306218,1.11034,0.0188351,0.378545,0.0112823,3.31203,5,0.1,9,2.5,0.0523604,-2.71206,0.595426,-0.0527082,0.57822,0.00460353,0.0528737,-0.429392,-0.00461191,0.00779553,0.162031,5,0.1
0,2.6,-2.55333,3.9267,1.26039,0.0201464,-0.139648,0.124389,0.0971556,0.471234,-0.166059,0.00974553,0.382312,5,0.1,1,2.6,2.08554,4.30081,1.28619,0.034076,-0.00177622,0.150451,-0.0543594,0.101805,-0.240386,0.010755,0.473723,5,0.1,2,2.6,1.5858,-2.5924,0.611981,-0.530875,0.193042,-0.0120252,0.245333,-0.21255,0.0132322,0.00922968,0.203944,5,0.1,3,2.6,-1.50257,3.90249,1.31517,0.0071913,0.00914931,0.115004,-0.0160933,-0.0711679,-0.120819,0.023163,3.62236,5,0.1,4,2.6,-1.04261,2.39379,0.615183,0.752386,0.252777,-0.0147015,-0.409693,-0.128984,0.0135005,0.0173781,0.343546,5,0.1,5,2.6,-1.35366,1.50062,1.30109,0.00958741,-0.00117719,0.127754,-0.0184178,0.0843406,-0.24575,0.0154974,0.783233,5,0.1,6,2.6,0.375665,1.51295,0.601599,-0.428673,-0.0234097,-0.00362396,0.0943094,0.0183582,0.00625849,0.00908737,2.09557,5,0.1,7,2.6,0.196182,1.27059,0.611855,-0.208189,-0.311929,0.00264794,-0.389151,0.164449,0.0408888,0.00542593,0.17687,5,0.1,8,2.6,1.93385,-5.832,0.631464,-0.206691,-0.0137925,0.337733,0.69654,0.0164509,0.234544,0.0126982,3.28967,5,0.1,9,2.6,0.0473497,-2.65642,0.595864,-0.0475168,0.533843,0.00414997,0.0521448,-0.470757,-0.00452995,0.0057746,0.108562,5,0.1
0,2.7,-2.55077,3.915,1.27203,0.0314571,-0.0955008,0.108678,0.121534,0.407368,-0.150055,0.00974553,0.382312,5,0.1,1,2.7,2.08868,4.3011,1.30005,0.0287764,0.00675917,0.127023,-0.0516176,0.0508428,-0.228137,0.010755,0.473723,5,0.1,2,2.7,1.53382,-2.57409,0.610841,-0.509201,0.173787,-0.0108263,0.208996,-0.178307,0.0111051,0.00922968,0.203944,5,0.1,3,2.7,-1.50192,3.903,1.32617,0.00569168,-0.0034254,0.105782,-0.0139251,-0.321075,-0.070937,0.023163,3.62236,5,0.1,4,2.7,-0.969298,2.41826,0.613777,0.71445,0.235186,-0.0134618,-0.374343,-0.217497,0.0117235,0.0173781,0.343546,5,0.1,5,2.7,-1.35279,1.50097,1.31268,0.00783894,0.00790488,0.104434,-0.0165626,0.0678673,-0.22091,0.0154974,0.783233,5,0.1,6,2.7,0.332969,1.51087,0.601267,-0.42738,-0.0177532,-0.00302466,-0.0353102,0.0487119,0.00573322,0.00908737,2.09557,5,0.1,7,2.7,0.173564,1.23993,0.612318,-0.242416,-0.303582,0.00653444,-0.284352,0.0285655,0.0358559,0.00542593,0.17687,5,0.1,8,2.7,1.91605,-5.8333,0.666423,-0.158025,-0.0123933,0.361011,0.188291,0.0120997,0.209585,0.0126982,3.28967,5,0.1,9,2.7,0.0428413,-2.60525,0.596258,-0.0427905,0.490506,0.00373917,0.0437922,-0.411674,-0.00381097,0.0057746,0.108562,5,0.1
0,2.8,-2.54703,3.90735,1.28216,0.0431478,-0.0588477,0.0940591,0.106692,0.323176,-0.143528,0.00904365,0.575799,5,0.1,1,2.8,2.09131,4.30184,1.31163,0.0237584,0.00599623,0.104842,-0.0487566,-0.0720024,-0.215292,0.0115626,1.53839,5,0.1,2,2.8,1.48403,-2.55758,0.609812,-0.485545,0.156397,-0.00974238,0.278473,-0.173569,0.0107884,0.00871737,0.140449,5,0.1,3,2.8,-1.50142,3.9,1.33643,0.00439882,-0.0668287,0.0995398,-0.0118613,-0.923872,-0.0593662,0.0232061,3.17526,5,0.1,4,2.8,-0.899835,2.44059,0.612489,0.673261,0.210273,-0.012283,-0.466645,-0.276327,0.0121295,0.0161075,0.23857,5,0.1,5,2.8,-1.35209,1.50189,1.32206,0.00627041,0.00825226,0.083527,-0.0148416,-0.0727773,-0.197411,0.0170862,3.2917,5,0.1,6,2.8,0.290064,1.50911,0.600992,-0.430011,-0.0202477,-0.00247508,0.00675023,-0.118434,0.00527501,0.00852282,1.87895,5,0.1,7,2.8,0.148147,1.20967,0.613136,-0.263277,-0.301683,0.00965446,-0.126094,0.0285506,0.0258088,0.00473061,0.178129,5,0.1,8,2.8,1.9,-5.83448,0.703387,-0.174296,-0.0112653,0.376043,-0.47785,0.0109673,0.076443,0.0129301,2.97222,5,0.1,9,2.8,0.0387768,-2.55826,0.596613,-0.0385171,0.448853,0.00336617,0.0426807,-0.432134,-0.00369549,0.00729481,0.172312,5,0.1
0,2.9,-2.54216,3.90299,1.29089,0.0540368,-0.0294678,0.0807704,0.105321,0.256956,-0.123955,0.00904365,0.575799,5,0.1,1,2.9,2.09345,4.3021,1.32108,0.0191696,-0.00350699,0.0845825,-0.0430942,-0.21413,-0.190191,0.0115626,1.53839,5,0.1,2,2.9,1.43677,-2.54275,0.608888,-0.460194,0.14074,-0.00876877,0.245623,-0.144377,0.00897795,0.00871737,0.140449,5,0.1,3,2.9,-1.50104,3.88738,1.34604,0.00329372,-0.195763,0.0923155,-0.0102296,-1.541,-0.0845417,0.0232061,3.17526,5,0.1,4,2.9,-0.83471,2.4601,0.611317,0.630009,0.179142,-0.0111747,-0.419371,-0.331447,0.0103973,0.0161075,0.23857,5,0.1,5,2.9,-1.35216,1.50228,1.32948,-0.0128822,-0.00368785,0.0652755,-0.328727,-0.249468,-0.168093,0.0170862,3.2917,5,0.1,6,2.9,0.246952,1.50629,0.60077,-0.433,-0.0398509,-0.00198418,-0.0404539,-0.337616,0.00455603,0.00852282,1.87895,5,0.1,7,2.9,0.121384,1.17934,0.614226,-0.26996,-0.306941,0.012075,-0.00549495,-0.103608,0.0217035,0.00473061,0.178129,5,0.1,8,2.9,1.87879,-5.83556,0.741392,-0.260881,-0.0103489,0.383773,-1.14486,0.00786781,0.059627,0.0129301,2.97222,5,0.1,9,2.9,0.0348263,-2.51518,0.596934,-0.0431024,0.415554,0.00307886,-0.114316,-0.261128,-0.00226125,0.00729481,0.172312,5,0.1
0,3,-2.53628,3.90117,1.29837,0.0632286,-0.00855327,0.0689745,0.0747442,0.157952,-0.113189,0.00780882,0.794404,5,0.1,1,3,2.09516,4.3,1.32863,0.0151336,-0.0450611,0.0667453,-0.0379086,-0.603676,-0.166833,0.0113848,3.27916,5,0.1,2,3,1.39203,-2.52938,0.608055,-0.43354,0.126702,-0.00789613,0.299275,-0.139713,0.00873208,0.00991428,0.164812,5,0.1,3,3,-1.50076,3.85985,1.35481,0.00235736,-0.355035,0.082764,-0.00858307,-1.55818,-0.105739,0.0216243,2.698,5,0.1,4,3,-0.773868,2.47636,0.610252,0.585853,0.146359,-0.0101417,-0.478059,-0.315309,0.0104904,0.0143892,0.16715,5,0.1,5,3,-1.35534,1.5,1.33521,-0.052458,-0.0483096,0.0498176,-0.432134,-0.626266,-0.141501,0.0157479,3.43502,5,0.1,6,3,0.203547,1.5,0.600593,-0.433655,-0.091815,-0.00156015,0.0457543,-0.678182,0.00393391,0.00908693,1.59866,5,0.1,7,3,0.0945723,1.14812,0.615529,-0.264154,-0.317186,0.0138476,0.121754,-0.0792742,0.0131726,0.00491493,0.177385,5,0.1,8,3,1.84662,-5.83656,0.779916,-0.38408,-0.00960827,0.38486,-1.23614,0.00786781,-0.0505447,0.0107662,2.59308,5,0.1,9,3,0.0298215,-2.47484,0.597232,-0.0578236,0.391889,0.0028789,-0.16461,-0.232458,-0.00190735,0.00716526,0.105309,5,0.1
0,3.1,-2.52958,3.90107,1.30473,0.0704296,0.00559501,0.0586623,0.0648201,0.0994951,-0.0945553,0.00780882,0.794404,5,0.1,1,3.1,2.09649,4.29089,1.33451,0.0116315,-0.149805,0.051325,-0.0322014,-1.37123,-0.141822,0.0113848,3.27916,5,0.1,2,3.1,1.34984,-2.5173,0.607302,-0.413036,0.115943,-0.00722334,0.140667,-0.0834912,0.00523031,0.00991428,0.164812,5,0.1,3,3.1,-1.5007,3.81614,1.36251,-0.00237711,-0.521335,0.0708742,-0.0773072,-1.67932,-0.129215,0.0216243,2.698,5,0.1,4,3.1,-0.717535,2.48947,0.609286,0.541714,0.116758,-0.0091875,-0.422198,-0.261664,0.00889599,0.0143892,0.16715,5,0.1,5,3.1,-1.3631,1.49223,1.33953,-0.105291,-0.1053,0.0369919,-0.587016,-0.515372,-0.115491,0.0157479,3.43502,5,0.1,6,3.1,0.160353,1.48701,0.60045,-0.430288,-0.170957,-0.00135377,0.0410998,-0.853769,0.000543892,0.00908693,1.59866,5,0.1,7,3.1,0.068889,1.11577,0.616981,-0.2483,-0.331226,0.0151748,0.194402,-0.171721,0.0123233,0.00491493,0.177385,5,0.1,8,3.1,1.80149,-5.83749,0.818193,-0.5217,-0.00896379,0.380684,-1.42907,0.00551343,-0.0495538,0.0107662,2.59308,5,0.1,9,3.1,0.0231213,-2.43666,0.597511,-0.0767847,0.372589,0.00272263,-0.201195,-0.171512,-0.00135601,0.00716526,0.105309,5,0.1
0,3.2,-2.52226,3.90189,1.31015,0.0754416,0.00787973,0.0498027,0.0323057,-0.0629425,-0.0838041,0.00870047,1.312,5,0.1,1,3.2,2.0975,4.26861,1.33897,0.00867844,-0.298131,0.0383288,-0.0268221,-1.50371,-0.118375,0.00995598,2.76968,5,0.1,2,3.2,1.30918,-2.50608,0.606604,-0.40023,0.1086,-0.00676364,0.137269,-0.069499,0.00432134,0.00847772,0.0973752,5,0.1,3,3.2,-1.50138,3.756,1.36893,-0.0115424,-0.675672,0.057438,-0.0992417,-1.34361,-0.13715,0.0221209,2.4052,5,0.1,4,3.2,-0.665499,2.5,0.608411,0.498459,0.0953734,-0.00831038,-0.454932,-0.16737,0.00882149,0.0145089,0.180269,5,0.1,5,3.2,-1.37656,1.4793,1.34269,-0.163311,-0.151515,0.0266254,-0.545323,-0.408411,-0.0924468,0.0158985,3.28064,5,0.1,6,3.2,0.117653,1.4657,0.600314,-0.422147,-0.25371,-0.00138879,0.135083,-0.763655,-0.000923872,0.00901287,1.32731,5,0.1,7,3.2,0.0451433,1.08184,0.618552,-0.225529,-0.346398,0.016138,0.25941,-0.110269,0.00619888,0.00519604,0.173704,5,0.1,8,3.2,1.74245,-5.83836,0.855905,-0.654843,-0.00841618,0.372164,-1.17046,0.00524521,-0.132143,0.0122076,0.377811,5,0.1,9,3.2,0.0144671,-2.40028,0.597777,-0.0957426,0.354511,0.00258386,-0.168178,-0.202775,-0.00151992,0.00603451,0.14531,5,0.1
0,3.3,-2.51456,3.90224,1.31474,0.0783723,-0.00398606,0.0422701,0.0227243,-0.245959,-0.0681281,0.00870047,1.312,5,0.1,1,3.3,2.09825,4.23072,1.34226,0.00626408,-0.462721,0.0276731,-0.021562,-1.69542,-0.0951663,0.00995598,2.76968,5,0.1,2,3.3,1.26972,-2.49552,0.605946,-0.389586,0.102979,-0.00641393,0.095129,-0.0482798,0.00300631,0.00847772,0.0973752,5,0.1,3,3.3,-1.50308,3.68243,1.374,-0.0228574,-0.787972,0.0440385,-0.120275,-0.880972,-0.129551,0.0221209,2.4052,5,0.1,4,3.3,-0.617792,2.50905,0.607622,0.456666,0.0885181,-0.00751112,-0.395522,0.00965595,0.00741333,0.0145089,0.180269,5,0.1,5,3.3,-1.39572,1.46267,1.34493,-0.219952,-0.176996,0.0184359,-0.558347,-0.164188,-0.071831,0.0158985,3.28064,5,0.1,6,3.3,0.0760069,1.43656,0.600164,-0.41133,-0.32784,-0.00166204,0.100701,-0.688605,-0.00405312,0.00901287,1.32731,5,0.1,7,3.3,0.0239314,1.04647,0.620205,-0.198311,-0.361946,0.0169675,0.283276,-0.172198,0.00903383,0.00519604,0.173704,5,0.1,8,3.3,1.67205,-5.83917,0.892055,-0.743687,-0.00799,0.347158,-0.603713,0.00369549,-0.353225,0.0122076,0.377811,5,0.1,9,3.3,0.00379378,-2.36579,0.598028,-0.119653,0.335584,0.00244454,-0.284601,-0.187322,-0.00135601,0.00603451,0.14531,5,0.1
0,3.4,-2.50665,3.9,1.31864,0.0793993,-0.0467062,0.0359505,-0.00464916,-0.59092,-0.059247,0.00913744,1.81158,5,0.1,1,3.4,2.09877,4.17628,1.34458,0.00435114,-0.621212,0.0192106,-0.0170469,-1.40715,-0.0745058,0.012819,2.42842,5,0.1,2,3.4,1.2313,-2.48546,0.605319,-0.377887,0.0980258,-0.00610501,0.152528,-0.0544786,0.00339746,0.0086122,0.10847,5,0.1,3,3.4,-1.50596,3.60012,1.37778,-0.0344217,-0.849158,0.0317544,-0.105977,-0.337362,-0.115156,0.0270596,2.68399,5,0.1,4,3.4,-0.574102,2.5181,0.606907,0.416876,0.0936508,-0.0067845,-0.410438,0.0770092,0.00730157,0.0148757,0.132465,5,0.1,5,3.4,-1.42033,1.44417,1.34644,-0.269991,-0.193653,0.0121623,-0.421703,-0.19902,-0.054121,0.0206196,3.11505,5,0.1,6,3.4,0.0354507,1.40066,0.599976,-0.398706,-0.386319,-0.00211149,0.165343,-0.460088,-0.00461936,0.00708697,1.06962,5,0.1,7,3.4,0.00554386,1.00951,0.621942,-0.169213,-0.375959,0.0177115,0.296948,-0.087738,0.00488758,0.00563152,0.169892,5,0.1,8,3.4,1.59561,-5.83995,0.924742,-0.775659,-0.00760555,0.304279,-0.0391603,0.00429153,-0.491589,0.0147955,1.35287,5,0.1,9,3.4,-0.00961463,-2.33322,0.598265,-0.148226,0.315112,0.00229776,-0.267913,-0.230074,-0.00163913,0.0065183,0.1109,5,0.1
0,3.5,-2.49874,3.89131,1.32196,0.0787959,-0.135562,0.0306876,-0.0103414,-1.09906,-0.0470951,0.00913744,1.81158,5,0.1,1,3.5,2.09913,4.10756,1.34616,0.00285879,-0.747807,0.0126809,-0.0129044,-1.08236,-0.056535,0.012819,2.42842,5,0.1,2,3.5,1.19424,-2.47564,0.604725,-0.363181,0.100943,-0.00579413,0.153974,0.0917017,0.00303239,0.0086122,0.10847,5,0.1,3,3.5,-1.50994,3.51502,1.38041,-0.0453407,-0.839269,0.0210967,-0.106819,0.482738,-0.0975281,0.0270596,2.68399,5,0.1,4,3.5,-0.534338,2.52796,0.606262,0.379363,0.10423,-0.00612531,-0.352049,0.121742,0.00609457,0.0148757,0.132465,5,0.1,5,3.5,-1.44899,1.42386,1.34741,-0.298906,-0.215042,0.00749659,-0.161074,-0.334032,-0.0396296,0.0206196,3.11505,5,0.1,6,3.5,-0.00372674,1.35972,0.599739,-0.385682,-0.431681,-0.00263043,0.114448,-0.417456,-0.00539422,0.00708697,1.06962,5,0.1,7,3.5,-0.00988253,0.971322,0.623753,-0.139288,-0.388547,0.0185994,0.298598,-0.136584,0.0110641,0.00563152,0.169892,5,0.1,8,3.5,1.51735,-5.8407,0.952753,-0.792808,-0.00724122,0.256358,-0.240393,0.00336766,-0.466589,0.0147955,1.35287,5,0.1,9,3.5,-0.0254191,-2.30283,0.598487,-0.164495,0.292693,0.00213888,-0.0657481,-0.225559,-0.00159442,0.0065183,0.1109,5,0.1
0,3.6,-2.49094,3.87201,1.32481,0.0768542,-0.251174,0.0263453,-0.0303984,-1.14691,-0.0406504,0.00753238,1.47192,5,0.1,1,3.6,2.09936,4.02816,1.34717,0.00174642,-0.831592,0.00781417,-0.00929832,-0.574827,-0.0412464,0.015981,0.437731,5,0.1,2,3.6,1.15878,-2.46499,0.604161,-0.345024,0.112647,-0.00546277,0.217378,0.126123,0.00378489,0.00809508,0.108594,5,0.1,3,3.6,-1.51498,3.4345,1.38206,-0.0548333,-0.76232,0.0123203,-0.0790358,1.01161,-0.0778437,0.0290669,3.09338,5,0.1,4,3.6,-0.498147,2.53898,0.60568,0.344387,0.115776,-0.00553131,-0.356033,0.0998974,0.00596046,0.0181311,0.201097,5,0.1,5,3.6,-1.47929,1.4,1.34798,-0.303215,-0.268745,0.00415444,0.0693798,-0.71764,-0.0276566,0.0159575,2.72307,5,0.1,6,3.6,-0.0416774,1.31474,0.599451,-0.372524,-0.464803,-0.00312775,0.162308,-0.22471,-0.00426173,0.00735316,0.836885,5,0.1,7,3.6,-0.0223363,0.931888,0.625666,-0.110027,-0.398591,0.0196129,0.284236,-0.0449121,0.00786781,0.00611623,0.167691,5,0.1,8,3.6,1.43696,-5.8414,0.976099,-0.812817,-0.0068903,0.21103,-0.114024,0.00429153,-0.439554,0.0114509,0.248581,5,0.1,9,3.6,-0.0419211,-2.27473,0.598693,-0.162978,0.268793,0.00197142,0.0883341,-0.257254,-0.00187755,0.00630437,0.137253,5,0.1
0,3.7,-2.4834,3.84083,1.32726,0.0738714,-0.374109,0.0227714,-0.0316352,-1.24592,-0.0317171,0.00753238,1.47192,5,0.1,1,3.7,2.09949,3.9431,1.34777,0.000960007,-0.861595,0.00432432,-0.00651181,-0.0803173,-0.028953,0.015981,0.437731,5,0.1,2,3.7,1.12528,-2.45327,0.603632,-0.325486,0.120042,-0.00513196,0.186533,0.0234395,0.00305474,0.00809508,0.108594,5,0.1,3,3.7,-1.52086,3.36418,1.38293,-0.0627847,-0.637416,0.00537839,-0.0750348,1.41506,-0.0608787,0.0290669,3.09338,5,0.1,4,3.7,-0.465204,2.55084,0.605151,0.31678,0.119601,-0.00507403,-0.217127,-0.0180751,0.00353903,0.0181311,0.201097,5,0.1,5,3.7,-1.5088,1.36852,1.34828,-0.283003,-0.368418,0.00186451,0.315927,-1.17933,-0.0184774,0.0159575,2.72307,5,0.1,6,3.7,-0.0781925,1.26694,0.59912,-0.358142,-0.491942,-0.0034526,0.139945,-0.280842,-0.00219047,0.00735316,0.836885,5,0.1,7,3.7,-0.031891,0.891662,0.627687,-0.0809515,-0.406693,0.0209511,0.29127,-0.0905618,0.0165664,0.00611623,0.167691,5,0.1,8,3.7,1.35552,-5.84207,0.995091,-0.811771,-0.00651404,0.169666,0.145264,0.00354648,-0.388235,0.0114509,0.248581,5,0.1,9,3.7,-0.0575651,-2.24906,0.598881,-0.147997,0.245037,0.00179969,0.20275,-0.225708,-0.00161678,0.00630437,0.137253,5,0.1
0,3.8,-2.47619,3.79747,1.32939,0.0701249,-0.489008,0.0198454,-0.0448227,-1.00458,-0.0274777,0.00793109,0.178794,5,0.1,1,3.8,2.09956,3.85711,1.34808,0.000423193,-0.85234,0.00194013,-0.00417233,0.273943,-0.0189543,0.012311,2.04829,5,0.1,2,3.8,1.0937,-2.4413,0.603135,-0.30551,0.117737,-0.00481308,0.222027,-0.0669956,0.00345707,0.00871147,0.08433,5,0.1,3,3.8,-1.52747,3.3077,1.38319,-0.0689983,-0.491554,0.000151992,-0.0457764,1.45113,-0.0436902,0.0184016,3.43401,5,0.1,4,3.8,-0.434524,2.56256,0.60466,0.297305,0.113189,-0.00476241,-0.187919,-0.105262,0.00298023,0.0148731,0.168481,5,0.1,5,3.8,-1.53525,1.32568,1.34838,-0.243515,-0.487736,0.00039041,0.458002,-1.13475,-0.0112057,0.0140656,0.575934,5,0.1,6,3.8,-0.113246,1.2165,0.598767,-0.342068,-0.514609,-0.00356138,0.191599,-0.146031,5.96046e-05,0.00806263,0.636074,5,0.1,7,3.8,-0.0385593,0.850642,0.629863,-0.0528263,-0.412178,0.0225231,0.266718,-0.000447035,0.0132024,0.00578817,0.167915,5,0.1,8,3.8,1.27556,-5.84271,1.0102,-0.782314,-0.00613928,0.133291,0.448048,0.00405312,-0.339746,0.00946148,1.1291,5,0.1,9,3.8,-0.0712217,-2.22569,0.599053,-0.124035,0.222325,0.00163764,0.268966,-0.233769,-0.00169873,0.00709969,0.127002,5,0.1
0,3.9,-2.46936,3.74433,1.33126,0.0669047,-0.565754,0.0177495,-0.0239313,-0.529841,-0.0158399,0.00793109,0.178794,5,0.1,1,3.9,2.09958,3.77241,1.34819,9.08971e-05,-0.848121,0.000425987,-0.0025332,-0.111565,-0.0116602,0.012311,2.04829,5,0.1,2,3.9,1.06425,-2.43002,0.60267,-0.283474,0.106487,-0.004475,0.225224,-0.151411,0.00341982,0.00871147,0.08433,5,0.1,3,3.9,-1.53461,3.26582,1.38301,-0.0736963,-0.347923,-0.00360385,-0.0435263,1.33979,-0.0313967,0.0184016,3.43401,5,0.1,4,3.9,-0.405612,2.57322,0.604197,0.281785,0.0989377,-0.00452148,-0.136374,-0.172883,0.00207499,0.0148731,0.168481,5,0.1,5,3.9,-1.5572,1.2717,1.34838,-0.194684,-0.58636,-0.000458024,0.507206,-0.813581,-0.00602752,0.0140656,0.575934,5,0.1,6,3.9,-0.146483,1.16406,0.598418,-0.322355,-0.535647,-0.00336757,0.209707,-0.234008,0.00354275,0.00806263,0.636074,5,0.1,7,3.9,-0.0424363,0.809288,0.632206,-0.0242672,-0.415608,0.0245012,0.293819,-0.0429787,0.0234991,0.00578817,0.167915,5,0.1,8,3.9,1.19891,-5.8433,1.02224,-0.755877,-0.00577495,0.110973,0.140101,0.00348687,-0.127204,0.00946148,1.1291,5,0.1,9,3.9,-0.0822038,-2.2046,0.599209,-0.0950831,0.19976,0.00147484,0.300658,-0.221416,-0.00159442,0.00709969,0.127002,5,0.1
0,4,-2.46278,3.68589,1.33296,0.0645816,-0.595337,0.016427,-0.02563,-0.0659227,-0.0116229,0.00919502,0.0963344,5,0.1,1,4,2.09958,3.68692,1.34818,-0.000101328,-0.861257,-0.000450015,-0.0013113,-0.0953674,-0.00613928,0.00985264,1.59435,5,0.1,2,4,1.03707,-2.42022,0.602241,-0.259405,0.0886917,-0.00410825,0.260353,-0.198722,0.0039041,0.00862454,0.185093,5,0.1,3,4,-1.54216,3.23705,1.38251,-0.0769168,-0.23551,-0.00613034,-0.017643,0.870824,-0.0191927,0.0200825,3.53624,5,0.1,4,4,-0.378123,2.58218,0.603755,0.267652,0.0798643,-0.00430793,-0.156134,-0.202775,0.00235438,0.0139229,0.343809,5,0.1,5,4,-1.57413,1.20969,1.34831,-0.1441,-0.646627,-0.000864267,0.495613,-0.377655,-0.00232458,0.0143511,0.753879,5,0.1,6,4,-0.177594,1.10946,0.598103,-0.298985,-0.55443,-0.00290126,0.262082,-0.112534,0.00554323,0.00695996,0.464891,5,0.1,7,4,-0.0434215,0.767611,0.634771,0.00408301,-0.416486,0.0267267,0.265285,0.0430942,0.0189543,0.00533065,0.170375,5,0.1,8,4,1.12391,-5.84386,1.03291,-0.743979,-0.0054121,0.104177,0.141501,0.00405312,-0.0249147,0.0108763,0.851308,5,0.1,9,4,-0.0902201,-2.18573,0.599348,-0.0655323,0.177401,0.00131428,0.283476,-0.228167,-0.00163913,0.00848906,0.248169,5,0.1
0,4.1,-2.45646,3.62639,1.33455,0.061664,-0.590904,0.015316,-0.0338256,0.157341,-0.0110343,0.00919502,0.0963344,5,0.1,1,4.1,2.09957,3.6005,1.34811,-0.00018701,-0.865684,-0.000859238,-0.000476837,-0.0101626,-0.00227243,0.00985264,1.59435,5,0.1,2,4.1,1.01246,-2.4124,0.60185,-0.232618,0.0674088,-0.00370461,0.276323,-0.219896,0.00418723,0.00862454,0.185093,5,0.1,3,4.1,-1.54996,3.21685,1.38182,-0.0789709,-0.17773,-0.00769105,-0.0189841,0.317588,-0.0119433,0.0200825,3.53624,5,0.1,4,4.1,-0.352092,2.58915,0.603335,0.253204,0.0594065,-0.00409177,-0.141781,-0.202149,0.00211969,0.0139229,0.343809,5,0.1,5,4.1,-1.58614,1.14353,1.34821,-0.0970749,-0.672454,-0.000959449,0.438355,-0.12593,0.000230968,0.0143511,0.753879,5,0.1,6,4.1,-0.206217,1.05335,0.597843,-0.273675,-0.567962,-0.00228528,0.250302,-0.125982,0.00657886,0.00695996,0.464891,5,0.1,7,4.1,-0.0415677,0.726063,0.637566,0.0337758,-0.415024,0.0293493,0.312685,0.00889227,0.0301152,0.00533065,0.170375,5,0.1,8,4.1,1.04988,-5.84438,1.0434,-0.738763,-0.0050433,0.107156,0.00952557,0.00348687,0.068754,0.0108763,0.851308,5,0.1,9,4.1,-0.0954311,-2.16912,0.599471,-0.0395507,0.154817,0.00115186,0.232026,-0.224188,-0.00161678,0.00848906,0.248169,5,0.1
0,4.2,-2.45049,3.56847,1.33602,0.0576377,-0.563657,0.0141472,-0.0472069,0.386953,-0.0125766,0.00776978,0.108033,5,0.1,1,4.2,2.09955,3.51394,1.34802,-0.000202656,-0.865322,-0.000950694,0,0.0140667,0.000298023,0.0118944,0.497343,5,0.1,2,4.2,0.990611,-2.40674,0.601501,-0.204037,0.0459254,-0.00326782,0.29543,-0.204682,0.00452995,0.0103773,0.27275,5,0.1,3,4.2,-1.55792,3.2,1.381,-0.0799596,-0.164849,-0.00850856,0.00238419,-0.0214577,-0.00452995,0.0185341,3.59742,5,0.1,4,4.2,-0.327516,2.59411,0.602937,0.237793,0.0401556,-0.0038594,-0.172585,-0.179887,0.0026226,0.0138592,0.495225,5,0.1,5,4.2,-1.59379,1.07615,1.34812,-0.0574648,-0.669888,-0.000855327,0.349939,0.183702,0.00172853,0.0110788,0.893281,5,0.1,6,4.2,-0.232312,0.996114,0.597647,-0.247901,-0.574194,-0.00161976,0.269197,0.0236034,0.00658631,0.00740771,0.328406,5,0.1,7,4.2,-0.0366561,0.684701,0.640647,0.06386,-0.410846,0.0321642,0.27729,0.0905693,0.0237525,0.00608436,0.173818,5,0.1,8,4.2,0.976149,-5.84487,1.0545,-0.73407,-0.00468493,0.115168,0.11766,0.0038147,0.0796318,0.0109457,0.623908,5,0.1,9,4.2,-0.0983365,-2.15476,0.599578,-0.0197072,0.132471,0.000990927,0.163171,-0.222802,-0.00163913,0.0061875,0.246597,5,0.1
0,4.3,-2.44496,3.514,1.33738,0.0529591,-0.525981,0.0129677,-0.0473708,0.380158,-0.0113696,0.00776978,0.108033,5,0.1,1,4.3,2.09953,3.42757,1.34793,-0.000180677,-0.860177,-0.00082776,0.000402331,0.116631,0.00198185,0.0118944,0.497343,5,0.1,2,4.3,0.971651,-2.40312,0.601196,-0.175475,0.0272781,-0.00282908,0.277199,-0.165194,0.00427291,0.0103773,0.27275,5,0.1,3,4.3,-1.56592,3.18348,1.38013,-0.0801817,-0.16486,-0.00880305,-0.0025034,0.0221729,-0.00121444,0.0185341,3.59742,5,0.1,4,4.3,-0.304639,2.59721,0.602565,0.219318,0.0219561,-0.00357535,-0.198677,-0.173628,0.00309199,0.0138592,0.495225,5,0.1,5,4.3,-1.59784,1.01097,1.34805,-0.0246478,-0.625684,-0.000627339,0.282951,0.665318,0.00268221,0.0110788,0.893281,5,0.1,6,4.3,-0.255814,0.938757,0.597519,-0.222598,-0.572829,-0.000963453,0.242257,0.0293963,0.00639632,0.00740771,0.328406,5,0.1,7,4.3,-0.028733,0.643986,0.644011,0.0955778,-0.403804,0.0353018,0.336393,0.0693575,0.0351518,0.00608436,0.173818,5,0.1,8,4.3,0.90315,-5.84532,1.0665,-0.726772,-0.00433698,0.125247,0.0654347,0.00330806,0.109814,0.0109457,0.623908,5,0.1,9,4.3,-0.099617,-2.1426,0.59967,-0.00709717,0.1111,0.00083372,0.0915714,-0.205055,-0.00150502,0.0061875,0.246597,5,0.1
0,4.4,-2.4399,3.46338,1.33862,0.0479937,-0.485379,0.0118107,-0.0523329,0.441074,-0.0119805,0.00979398,0.156617,5,0.1,1,4.4,2.09951,3.34249,1.34786,-0.00013113,-0.837445,-0.000587106,0.000596046,0.35584,0.00274181,0.0117035,0.937539,5,0.1,2,4.4,0.955468,-2.40113,0.600934,-0.148378,0.0133097,-0.00240952,0.265509,-0.11313,0.00414252,0.00828449,0.27134,5,0.1,3,4.4,-1.57393,3.16718,1.37925,-0.0797272,-0.160277,-0.0087291,0.0146627,0.0702143,0.00286102,0.0193394,3.67263,5,0.1,4,4.4,-0.283755,2.59861,0.602224,0.197809,0.00708699,-0.00323802,-0.232249,-0.11766,0.00372529,0.0127774,2.23931,5,0.1,5,4.4,-1.59914,0.952283,1.348,-0.00416636,-0.54331,-0.000342727,0.117302,0.952363,0.00292063,0.0119342,0.66159,5,0.1,6,4.4,-0.276872,0.881803,0.597453,-0.198543,-0.563999,-0.000363588,0.242531,0.164747,0.00551343,0.00744519,0.225846,5,0.1,7,4.4,-0.0175355,0.604045,0.64771,0.127558,-0.393747,0.0385299,0.288081,0.144988,0.0266433,0.0061467,0.176422,5,0.1,8,4.4,0.830962,-5.84574,1.07954,-0.714682,-0.00399351,0.135046,0.202239,0.00333786,0.0773072,0.00963309,0.443354,5,0.1,9,4.4,-0.0999673,-2.13249,0.599746,-0.000816584,0.0913918,0.000688434,0.0372604,-0.189304,-0.00140071,0.00798652,0.245409,5,0.1
0,4.5,-2.43536,3.4168,1.33974,0.0430118,-0.448135,0.0107011,-0.0482053,0.325322,-0.0105128,0.00979398,0.156617,5,0.1,1,4.5,2.0995,3.26005,1.34782,-6.37025e-05,-0.814909,-0.000283122,0.000730157,0.14776,0.00320375,0.0117035,0.937539,5,0.1,2,4.5,0.941891,-2.40027,0.600713,-0.123755,0.00472367,-0.00201352,0.229005,-0.0603497,0.00379235,0.00828449,0.27134,5,0.1,3,4.5,-1.58186,3.15187,1.37839,-0.0788592,-0.143063,-0.00841841,0.00691414,0.2397,0.00357628,0.0193394,3.67263,5,0.1,4,4.5,-0.264804,2.5986,0.602701,0.183955,-0.00728294,0.0193528,-0.06653,-0.122696,0.398736,0.0127774,2.23931,5,0.1,5,4.5,-1.59921,0.902996,1.34798,-0.000431389,-0.440293,-3.94881e-05,-0.0686646,1.08189,0.00303984,0.0119342,0.66159,5,0.1,6,4.5,-0.295579,0.826173,0.597443,-0.176127,-0.548598,0.00016056,0.210449,0.164144,0.00486523,0.00744519,0.225846,5,0.1,7,4.5,-0.00317887,0.565344,0.651724,0.160556,-0.380394,0.0419392,0.347687,0.136729,0.0373684,0.0061467,0.176422,5,0.1,8,4.5,0.760386,-5.84612,1.09346,-0.697269,-0.00368729,0.14335,0.175923,0.00289083,0.0792965,0.00963309,0.443354,5,0.1,9,4.5,-0.0998997,-2.12423,0.599808,0.00182136,0.074238,0.00055721,0.0163848,-0.155494,-0.00122562,0.00798652,0.245409,5,0.1
0,4.6,-2.4313,3.37357,1.34076,0.0382006,-0.416601,0.00965595,-0.0485182,0.320911,-0.0106096,0.00810254,0.559988,5,0.1,1,4.6,2.0995,3.17931,1.3478,5.96046e-06,-0.79878,2.98023e-05,0.000596046,0.212908,0.00303984,0.00986373,0.688877,5,0.1,2,4.6,0.930614,-2.40003,0.600531,-0.102222,0.000786781,-0.00164956,0.203192,-0.0209808,0.00348687,0.00857059,0.268142,5,0.1,3,4.6,-1.58969,3.13882,1.37757,-0.0776231,-0.117999,-0.0079751,0.0207424,0.239134,0.00530481,0.0189587,3.65229,5,0.1,4,4.6,-0.246614,2.59754,0.606947,0.180683,-0.010711,0.0677332,-0.0154078,0.0743866,0.530511,0.0122193,2.01465,5,0.1,5,4.6,-1.6,0.864411,1.34799,-0.0190616,-0.331573,0.000247359,-0.28944,1.07223,0.0026226,0.0125408,0.607255,5,0.1,6,4.6,-0.312161,0.772272,0.597482,-0.155661,-0.527668,0.000591576,0.202119,0.268519,0.00372529,0.00694082,0.152584,5,0.1,7,4.6,0.0145502,0.528072,0.656095,0.192921,-0.363943,0.0452831,0.282055,0.202209,0.0265539,0.00908484,2.62902,5,0.1,8,4.6,0.691695,-5.84647,1.10813,-0.674455,-0.00338554,0.149301,0.300914,0.00309944,0.0330806,0.0113271,0.307138,5,0.1,9,4.6,-0.0996639,-2.11754,0.599858,0.0026349,0.0599802,0.000441074,0.000748783,-0.130892,-0.00104308,0.00759709,0.241701,5,0.1
0,4.7,-2.42771,3.33287,1.34167,0.0336826,-0.402413,0.00868328,-0.0426471,0.00989437,-0.00910461,0.00810254,0.559988,5,0.1,1,4.7,2.0995,3.10023,1.34782,6.70552e-05,-0.784288,0.000332668,0.000625849,0.118911,0.00292063,0.00986373,0.688877,5,0.1,2,4.7,0.921381,-2.4001,0.600382,-0.0827026,-0.00248924,-0.00132136,0.186734,-0.0367463,0.00307709,0.00857059,0.268142,5,0.1,3,4.7,-1.59738,3.1284,1.3768,-0.0762299,-0.0902805,-0.00748914,0.0112355,0.249162,0.00467151,0.0189587,3.65229,5,0.1,4,4.7,-0.228464,2.5971,0.616662,0.18349,0.00629984,0.128514,0.0547543,0.32492,0.647981,0.0122193,2.01465,5,0.1,5,4.7,-1.60379,0.83646,1.34803,-0.0602376,-0.229366,0.000502169,-0.496775,0.9575,0.00239909,0.0125408,0.607255,5,0.1,6,4.7,-0.326779,0.720779,0.597559,-0.137208,-0.502429,0.000933465,0.170903,0.253484,0.00303611,0.00694082,0.152584,5,0.1,7,4.7,0.0363049,0.492057,0.660611,0.250578,-0.361465,0.0437673,0.788411,-0.104366,-0.0503734,0.00908484,2.62902,5,0.1,8,4.7,0.625649,-5.8468,1.12324,-0.646889,-0.00310093,0.152673,0.274803,0.00268221,0.0268593,0.0113271,0.307138,5,0.1,9,4.7,-0.099335,-2.11217,0.599897,0.00432596,0.0476208,0.000344682,0.0241068,-0.116244,-0.000890344,0.00759709,0.241701,5,0.1
0,4.8,-2.42455,3.29249,1.3425,0.0295401,-0.406379,0.00779033,-0.0407696,-0.0536442,-0.0090003,0.00712915,0.434539,5,0.1,1,4.8,2.09951,3.02252,1.34787,0.00012517,-0.767845,0.000596046,0.000357628,0.239491,0.00226498,0.00940912,0.491809,5,0.1,2,4.8,0.914014,-2.40051,0.600265,-0.0649557,-0.00532269,-0.00103414,0.167787,-0.0154972,0.00271201,0.0097561,0.252988,5,0.1,3,4.8,-1.60493,3.12024,1.37608,-0.0746697,-0.0775814,-0.00699759,0.022769,-0.0232458,0.00542402,0.017799,3.45071,5,0.1,4,4.8,-0.209838,2.6,0.632696,0.188725,0.0577331,0.190875,0.0376478,0.679135,0.571847,0.0128853,1.70444,5,0.1,5,4.8,-1.61239,0.818026,1.34809,-0.111854,-0.142385,0.000715256,-0.507236,0.77334,0.00172853,0.0121756,1.87134,5,0.1,6,4.8,-0.33967,0.671893,0.597666,-0.120798,-0.474086,0.00118613,0.160128,0.324994,0.00196695,0.00872849,0.102117,5,0.1,7,4.8,0.0655799,0.455209,0.664654,0.336052,-0.37635,0.0363916,0.858247,-0.156969,-0.0918508,0.0093748,2.77862,5,0.1,8,4.8,0.562453,-5.8471,1.13858,-0.615391,-0.00283718,0.15341,0.371814,0.00286102,-0.0171661,0.0103901,0.209032,5,0.1,9,4.8,-0.0988008,-2.10797,0.599927,0.00602715,0.0367463,0.000263751,0.00458583,-0.101328,-0.00077486,0.00602369,0.228187,5,0.1
0,4.9,-2.42179,3.25129,1.34324,0.0258014,-0.419639,0.00697263,-0.0346899,-0.175133,-0.00758469,0.00712915,0.434539,5,0.1,1,4.9,2.09953,2.94677,1.34794,0.000162423,-0.747944,0.000811741,0.00038743,0.19224,0.00198185,0.00940912,0.491809,5,0.1,2,4.9,0.908322,-2.40119,0.600174,-0.0492488,-0.00826307,-0.00078408,0.146043,-0.0189692,0.0022985,0.0097561,0.252988,5,0.1,3,4.9,-1.61231,3.11204,1.3754,-0.0731042,-0.0924461,-0.00653062,0.0125393,-0.368476,0.00420958,0.017799,3.45071,5,0.1,4,4.9,-0.190707,2.60995,0.654694,0.194265,0.147119,0.248866,0.0600144,1.03654,0.559703,0.0128853,1.70444,5,0.1,5,4.9,-1.62624,0.807286,1.34833,-0.165793,-0.0761414,0.00532232,-0.543326,0.551,0.0804663,0.0121756,1.87134,5,0.1,6,4.9,-0.351003,0.626026,0.597793,-0.106321,-0.443732,0.00135908,0.132777,0.296418,0.00143424,0.00872849,0.102117,5,0.1,7,4.9,0.102553,0.416512,0.667779,0.394686,-0.399387,0.0257043,0.334668,-0.266524,-0.117138,0.0093748,2.77862,5,0.1,8,4.9,0.502664,-5.84737,1.15384,-0.580956,-0.00257641,0.151759,0.336993,0.00244379,-0.0219345,0.0103901,0.209032,5,0.1,9,4.9,-0.098133,-2.10477,0.59995,0.00722072,0.0274073,0.000193994,-0.000697095,-0.085488,-0.000629574,0.00602369,0.228187,5,0.1
0,5,-2.41937,3.20849,1.3439,0.0224829,-0.43512,0.00623763,-0.0321865,-0.108123,-0.00733137,0.00742727,0.326298,5,0.1,1,5,2.09954,2.87309,1.34803,0.000190735,-0.723696,0.000977516,0.000357628,0.316024,0.0013113,0.0096915,0.34254,5,0.1,2,5,0.904089,-2.40197,0.600107,-0.0357911,-0.00569224,-0.000575185,0.122964,0.0804663,0.00190735,0.0105625,0.214579,5,0.1,3,5,-1.61955,3.1,1.37477,-0.0714809,-0.157273,-0.0061065,0.0228286,-0.893831,0.00447035,0.0178157,3.28312,5,0.1,4,5,-0.171032,2.62994,0.682168,0.198487,0.252408,0.298001,0.015147,1.01519,0.403076,0.0124874,1.35092,5,0.1,5,5,-1.64541,0.802063,1.34932,-0.21567,-0.0318706,0.0150412,-0.433743,0.338048,0.106275,0.0123067,1.69293,5,0.1,6,5,-0.360994,0.583183,0.597935,-0.0936657,-0.412397,0.0014618,0.122771,0.340015,0.000625849,0.00854835,0.117778,5,0.1,7,5,0.14297,0.375311,0.669755,0.406884,-0.423232,0.0138074,-0.0719726,-0.183418,-0.117153,0.00887152,3.03559,5,0.1,8,5,0.44633,-5.84761,1.16886,-0.54461,-0.0023365,0.14801,0.403688,0.00238419,-0.0571609,0.00968712,0.140793,5,0.1,9,5,-0.0975417,-2.10243,0.599966,0.00310615,0.0196278,0.000138581,-0.0894181,-0.0699759,-0.000506639,0.00786124,0.198603,5,0.1
0,5.1,-2.41728,3.16431,1.34449,0.0195667,-0.448939,0.00557546,-0.0267327,-0.139743,-0.00608712,0.00742727,0.326298,5,0.1,1,5.1,2.09957,2.80217,1.34813,0.000224262,-0.695247,0.00109728,0.000298023,0.280336,0.00102073,0.0096915,0.34254,5,0.1,2,5.1,0.901089,-2.40202,0.600058,-0.0245767,0.00674836,-0.000402797,0.101261,0.2027,0.00153854,0.0105625,0.214579,5,0.1,3,5.1,-1.62661,3.08012,1.37418,-0.0699142,-0.236977,-0.0057403,0.0123754,-0.687867,0.00314415,0.0178157,3.28312,5,0.1,4,5.1,-0.151075,2.66047,0.713949,0.200692,0.358961,0.336686,0.0185389,1.06131,0.348657,0.0124874,1.35092,5,0.1,5,5.1,-1.66898,0.800259,1.35142,-0.253969,-0.00703335,0.0272084,-0.320435,0.168703,0.12958,0.0123067,1.69293,5,0.1,6,5.1,-0.369759,0.543341,0.598085,-0.0817303,-0.386814,0.00153929,0.116751,0.197023,0.000812113,0.00854835,0.117778,5,0.1,7,5.1,0.182445,0.331966,0.670542,0.375484,-0.443972,0.00194907,-0.501438,-0.202268,-0.116505,0.00887152,3.03559,5,0.1,8,5.1,0.393772,-5.84783,1.18339,-0.507261,-0.00211969,0.142552,0.359986,0.00205636,-0.056982,0.00968712,0.140793,5,0.1,9,5.1,-0.0977802,-2.1008,0.599978,-0.00968907,0.013328,9.40636e-05,-0.194177,-0.0561327,-0.00038743,0.00786124,0.198603,5,0.1
0,5.2,-2.41545,3.11886,1.34501,0.017041,-0.458205,0.00498593,-0.0243187,-0.0257492,-0.00578165,0.00815181,0.235493,5,0.1,1,5.2,2.09959,2.73417,1.34825,0.000244379,-0.663012,0.00117123,0.000238419,0.383139,0.000476837,0.0095405,0.254158,5,0.1,2,5.2,0.899101,-2.4,0.600025,-0.0155404,0.0368834,-0.000266731,0.0795722,0.386119,0.00119209,0.00907847,0.153002,5,0.1,3,5.2,-1.63353,3.0534,1.37362,-0.0683427,-0.292879,-0.005427,0.0218153,-0.422835,0.00333786,0.0189071,3.34256,5,0.1,4,5.2,-0.130978,2.70138,0.749123,0.200437,0.455308,0.36405,-0.0307932,0.826716,0.183731,0.0114528,1.01377,5,0.1,5,5.2,-1.69572,0.800189,1.35477,-0.277853,0.0037685,0.039658,-0.149906,0.0563264,0.113964,0.0146727,1.60048,5,0.1,6,5.2,-0.377353,0.505579,0.598243,-0.0701874,-0.368593,0.00160336,0.11459,0.185996,0.000417233,0.00707369,0.0706345,5,0.1,7,5.2,0.217141,0.286722,0.670179,0.315985,-0.45874,-0.00889003,-0.649221,-0.0727475,-0.0977218,0.00802712,2.82413,5,0.1,8,5.2,0.344885,-5.84804,1.19732,-0.469797,-0.00193119,0.135782,0.400782,0.00238419,-0.0817776,0.0102968,0.162439,5,0.1,9,5.2,-0.1,-2.09972,0.599985,-0.0373086,0.00837445,5.96046e-05,-0.346314,-0.043273,-0.000268221,0.00771082,0.33176,5,0.1
0,5.3,-2.41386,3.07285,1.34548,0.0148598,-0.461911,0.00446606,-0.0198036,-0.0256896,-0.00477582,0.00815181,0.235493,5,0.1,1,5.3,2.09977,2.66966,1.34837,0.00470988,-0.627774,0.00121016,0.0791699,0.344098,0.00026077,0.0095405,0.254158,5,0.1,2,5.3,0.897914,-2.39404,0.600004,-0.00850605,0.0849385,-0.000161957,0.0612475,0.538513,0.000912696,0.00907847,0.153002,5,0.1,3,5.3,-1.64028,3.0229,1.37309,-0.066876,-0.309473,-0.0051694,0.0112802,0.0438541,0.00210851,0.0189071,3.34256,5,0.1,4,5.3,-0.111067,2.75103,0.786405,0.197764,0.536256,0.380698,-0.031055,0.750214,0.131764,0.0114528,1.01377,5,0.1,5,5.3,-1.724,0.80075,1.35932,-0.285264,0.00658091,0.0512136,0.00141561,0.00421703,0.111438,0.0146727,1.60048,5,0.1,6,5.3,-0.383783,0.469532,0.598405,-0.058273,-0.353103,0.00164127,0.122003,0.14044,0.000264496,0.00707369,0.0706345,5,0.1,7,5.3,0.245229,0.240443,0.668813,0.245018,-0.466643,-0.0182632,-0.698795,-0.0622058,-0.0871047,0.00802712,2.82413,5,0.1,8,5.3,0.299552,-5.84822,1.21059,-0.439697,-0.00174791,0.130202,0.230562,0.00143051,-0.0387803,0.0102968,0.162439,5,0.1,9,5.3,-0.106046,-2.09908,0.59999,-0.0881763,0.00458807,3.6601e-05,-0.621844,-0.0326037,-0.00019744,0.00771082,0.33176,5,0.1
0,5.4,-2.41246,3.02669,1.34591,0.0129938,-0.459516,0.00400841,-0.0178814,0.0891685,-0.00458956,0.00748628,0.164365,5,0.1,1,5.4,2.1007,2.60869,1.34849,0.014323,-0.590402,0.00121593,0.105381,0.418663,-0.000178814,0.00896473,0.174795,5,0.1,2,5.4,0.897341,-2.38284,0.599992,-0.00325739,0.138253,-8.49366e-05,0.0439584,0.500917,0.000685453,0.0104076,0.0927666,5,0.1,3,5.4,-1.64691,2.99263,1.37258,-0.0654399,-0.292224,-0.00495613,0.0201464,0.267386,0.00238419,0.0169368,3.39293,5,0.1,4,5.4,-0.0915023,2.80799,0.824931,0.19282,0.598258,0.387502,-0.0735,0.461221,-0.00724196,0.0125078,0.721815,5,0.1,5,5.4,-1.75227,0.801372,1.36495,-0.277779,0.00538975,0.0609756,0.146508,-0.0245869,0.0798106,0.012227,1.22945,5,0.1,6,5.4,-0.388999,0.43496,0.59857,-0.046096,-0.337673,0.0016436,0.120163,0.179842,-0.000238419,0.00662482,0.115561,5,0.1,7,5.4,0.266593,0.19364,0.666586,0.18677,-0.467293,-0.0258669,-0.432089,0.0649917,-0.0632107,0.00874165,2.56545,5,0.1,8,5.4,0.256651,-5.84839,1.22342,-0.418594,-0.00162125,0.126478,0.213057,0.000953674,-0.0421405,0.0108251,2.3353,5,0.1,9,5.4,-0.118094,-2.09877,0.599993,-0.153035,0.0018239,2.08616e-05,-0.638086,-0.0231266,-0.000149012,0.00666005,0.228852,5,0.1
0,5.5,-2.41125,2.98114,1.34629,0.0114027,-0.45141,0.00359789,-0.0143498,0.0912696,-0.00375509,0.00748628,0.164365,5,0.1,1,5.5,2.10272,2.55162,1.34861,0.0264097,-0.551765,0.0011947,0.12891,0.372708,-0.000283122,0.00896473,0.174795,5,0.1,2,5.5,0.897212,-2.36652,0.599986,0.000450853,0.187468,-2.73809e-05,0.0304468,0.462279,0.000469387,0.0104076,0.0927666,5,0.1,3,5.5,-1.65338,2.96524,1.3721,-0.0641266,-0.252538,-0.00478551,0.00979751,0.444382,0.0013113,0.0169368,3.39293,5,0.1,4,5.5,-0.0725659,2.87005,0.863628,0.185949,0.641223,0.385901,-0.0707619,0.364974,-0.0389479,0.0125078,0.721815,5,0.1,5,5.5,-1.77907,0.801814,1.37144,-0.255794,0.00364594,0.0686346,0.283889,-0.012517,0.0689402,0.012227,1.22945,5,0.1,6,5.5,-0.393019,0.402052,0.598733,-0.0344511,-0.320609,0.00161175,0.111483,0.172049,-0.000447035,0.00662482,0.115561,5,0.1,7,5.5,0.283591,0.147204,0.663698,0.159447,-0.461254,-0.0316965,-0.0643991,0.0744323,-0.0513457,0.00874165,2.56545,5,0.1,8,5.5,0.21556,-5.84854,1.23599,-0.405437,-0.00152439,0.125949,0.0789975,0.00101328,0.0194013,0.0108251,2.3353,5,0.1,9,5.5,-0.136689,-2.09869,0.599994,-0.219053,-0.000112876,8.6613e-06,-0.65005,-0.0157803,-9.31323e-05,0.00666005,0.228852,5,0.1
0,5.6,-2.41018,2.93658,1.34663,0.0100493,-0.438184,0.00323653,-0.0128746,0.185609,-0.00363588,0.0070418,0.112039,5,0.1,1,5.6,2.10599,2.49835,1.34873,0.0388086,-0.512719,0.00115335,0.113726,0.420809,-0.000596046,0.00976423,0.119528,5,0.1,2,5.6,0.897388,-2.34567,0.599986,0.00288486,0.227165,1.04308e-05,0.0184476,0.317216,0.000298023,0.00932604,0.123423,5,0.1,3,5.6,-1.65973,2.942,1.37163,-0.0628531,-0.215578,-0.0046432,0.0182986,0.25475,0.00166893,0.0168333,3.3037,5,0.1,4,5.6,-0.0543658,2.93562,0.901877,0.177522,0.665736,0.377361,-0.102406,0.103116,-0.141144,0.0113307,0.546641,5,0.1,5,5.6,-1.80306,0.802121,1.3786,-0.22274,0.00251681,0.074017,0.368953,-0.0115037,0.035882,0.012228,0.0248356,5,0.1,6,5.6,-0.39593,0.370909,0.598891,-0.0240117,-0.301488,0.00154674,0.0964254,0.217497,-0.000834465,0.00759591,0.144936,5,0.1,7,5.6,0.3,0.101591,0.660305,0.176097,-0.449282,-0.0358,0.369519,0.177596,-0.0293851,0.00899734,2.2792,5,0.1,8,5.6,0.175385,-5.84869,1.24871,-0.397792,-0.00141859,0.128239,0.0950098,0.00143051,0.0174046,0.00996809,2.29166,5,0.1,9,5.6,-0.161647,-2.09877,0.599995,-0.277532,-0.00136495,0,-0.496641,-0.00941753,-2.98023e-05,0.00624144,0.0670116,5,0.1
0,5.7,-2.40923,2.89364,1.34694,0.0089094,-0.420747,0.00291206,-0.0102818,0.178128,-0.00295043,0.0070418,0.112039,5,0.1,1,5.7,2.11045,2.44906,1.34884,0.0503447,-0.473969,0.00109505,0.111356,0.369668,-0.000603497,0.00976423,0.119528,5,0.1,2,5.7,0.897751,-2.32131,0.599988,0.00420911,0.260026,3.36207e-05,0.00847504,0.317439,0.000167638,0.00932604,0.123423,5,0.1,3,5.7,-1.66595,2.92145,1.37117,-0.0616917,-0.20109,-0.00453405,0.00848621,-0.0708401,0.00077486,0.0168333,3.3037,5,0.1,4,5.7,-0.0369425,3.00266,0.938922,0.17238,0.673908,0.3634,-0.0159533,0.0336617,-0.149816,0.0113307,0.546641,5,0.1,5,5.7,-1.82329,0.802319,1.38598,-0.180183,0.00148639,0.0717511,0.465497,-0.00909716,-0.0717714,0.012228,0.0248356,5,0.1,6,5.7,-0.39788,0.341763,0.599041,-0.0153015,-0.281966,0.00146627,0.0772886,0.184186,-0.000827014,0.00759591,0.144936,5,0.1,7,5.7,0.319415,0.0575065,0.656589,0.212122,-0.432444,-0.0383618,0.363588,0.174454,-0.0202246,0.00899734,2.2792,5,0.1,8,5.7,0.136565,-5.84883,1.26168,-0.374259,-0.00128448,0.131563,0.356432,0.0013113,0.0395551,0.00996809,2.29166,5,0.1,9,5.7,-0.19159,-2.09895,0.599995,-0.318168,-0.00203103,-1.76951e-06,-0.307672,-0.00417233,-1.11759e-05,0.00624144,0.0670116,5,0.1
0,5.8,-2.40839,2.85254,1.34721,0.00793934,-0.400037,0.00262558,-0.00941753,0.246048,-0.00280142,0.00859941,0.163844,5,0.1,1,5.8,2.116,2.40353,1.34894,0.0601113,-0.436169,0.00102818,0.0799894,0.397205,-0.00077486,0.011139,0.139953,5,0.1,2,5.8,0.898201,-2.29387,0.599992,0.00466406,0.286818,4.47035e-05,0.00101328,0.202656,5.96046e-05,0.00966199,0.196172,5,0.1,3,5.8,-1.67207,2.9,1.37072,-0.0605494,-0.237358,-0.00444055,0.0169277,-0.624895,0.0012517,0.017098,2.9751,5,0.1,4,5.8,-0.0197462,3.06992,0.974421,0.171627,0.668037,0.345451,-0.0106257,-0.168443,-0.216931,0.0115285,0.371453,5,0.1,5,5.8,-1.83893,0.802427,1.39268,-0.132534,0.000697374,0.0613451,0.475168,-0.00673532,-0.129044,0.011937,0.267581,5,0.1,6,5.8,-0.399058,0.314507,0.599184,-0.00861511,-0.262754,0.00137389,0.0563562,0.207812,-0.00107288,0.00753319,0.252701,5,0.1,7,5.8,0.342494,0.015231,0.652678,0.249951,-0.411832,-0.0395805,0.391737,0.248083,-0.00309944,0.00885597,2.00166,5,0.1,8,5.8,0.101221,-5.84895,1.275,-0.330034,-0.00115633,0.134525,0.512007,0.00143051,0.0129342,0.00839485,2.24723,5,0.1,9,5.8,-0.224578,-2.09916,0.599995,-0.337828,-0.0022471,-2.98023e-06,-0.0815392,-0.000357628,2.98023e-05,0.00700505,0.0813122,5,0.1
0,5.9,-2.40763,2.81348,1.34719,0.00722893,-0.383347,-0.00548549,-0.00531971,0.11453,-0.141919,0.00859941,0.163844,5,0.1,1,5.9,2.12249,2.36156,1.34904,0.0700466,-0.405986,0.000968389,0.109226,0.233486,-0.000469387,0.011139,0.139953,5,0.1,2,5.9,0.898662,-2.26396,0.599997,0.00446318,0.312838,4.73112e-05,-0.00458583,0.286043,0,0.00966199,0.196172,5,0.1,3,5.9,-1.67807,2.87186,1.37028,-0.0594886,-0.335467,-0.00436548,0.00769645,-1.22799,0.000499189,0.017098,2.9751,5,0.1,4,5.9,-0.00254775,3.13589,1.00792,0.172919,0.650805,0.324753,0.0243364,-0.198141,-0.206813,0.0115285,0.371453,5,0.1,5,5.9,-1.84987,0.802456,1.39836,-0.0868756,-0.000157952,0.0537824,0.432357,-0.0101477,-0.0325888,0.011937,0.267581,5,0.1,6,5.9,-0.399673,0.289293,0.599316,-0.00403593,-0.241258,0.00126036,0.035705,0.224954,-0.00121072,0.00753319,0.252701,5,0.1,7,5.9,0.369224,-0.0247721,0.64871,0.284745,-0.388503,-0.0396901,0.387805,0.231175,0.00223145,0.00885597,2.00166,5,0.1,8,5.9,0.0711331,-5.84906,1.28855,-0.269136,-0.00102594,0.136448,0.668163,0.0012219,0.0180453,0.00839485,2.24723,5,0.1,9,5.9,-0.258768,-2.09938,0.599994,-0.345561,-0.00213571,-9.31323e-08,-0.0569951,0.00236928,2.6077e-05,0.00700505,0.0813122,5,0.1
0,6,-2.40693,2.77568,1.34582,0.00677705,-0.372499,-0.0226468,-0.00417233,0.121951,-0.187755,0.00904282,0.138109,5,0.1,1,6,2.13002,2.32204,1.34914,0.0803113,-0.384772,0.000923872,0.0892878,0.210524,-0.000476837,0.00934731,0.0825135,5,0.1,2,6,0.899079,-2.23132,0.600001,0.00382811,0.338566,4.47035e-05,-0.00777841,0.205755,-5.96046e-05,0.0087554,0.119986,5,0.1,3,6,-1.68397,2.83192,1.36984,-0.0584275,-0.46376,-0.00429451,0.0160336,-1.25551,0.00113249,0.0189125,2.58617,5,0.1,4,6,0.014842,3.19979,1.03932,0.17441,0.624776,0.302449,-0.00321746,-0.336885,-0.245869,0.0108527,0.248989,5,0.1,5,6,-1.8565,0.802386,1.40366,-0.0470161,-0.00128597,0.0529826,0.360906,-0.0120997,0.00852346,0.0127998,0.25673,5,0.1,6,6,-0.399929,0.266338,0.599435,-0.00135601,-0.217327,0.00112951,0.0185817,0.255153,-0.0013411,0.00771072,0.247923,5,0.1,7,6,0.4,-0.0624101,0.644769,0.334259,-0.36347,-0.0389174,0.586271,0.278067,0.0140965,0.00785365,1.66686,5,0.1,8,6,0.0475689,-5.84915,1.30224,-0.202733,-0.000905991,0.136861,0.634383,0.000953674,-0.0149608,0.00857475,3.63916,5,0.1,9,6,-0.293461,-2.09958,0.599995,-0.346532,-0.00181198,1.49012e-06,0.0483841,0.00393391,2.98023e-05,0.00803499,0.0599118,5,0.1
0,6.1,-2.406,2.73894,1.34259,0.0143569,-0.362767,-0.0418967,0.137702,0.0901222,-0.189073,0.00904282,0.138109,5,0.1,1,6.1,2.1385,2.28448,1.34923,0.0891279,-0.367392,0.000882708,0.080958,0.154838,-0.00037998,0.00934731,0.0825135,5,0.1,2,6.1,0.899421,-2.19643,0.600005,0.00298601,0.358727,3.76254e-05,-0.00880659,0.177249,-7.45058e-05,0.0087554,0.119986,5,0.1,3,6.1,-1.68975,2.77878,1.36942,-0.0574384,-0.601702,-0.00422858,0.00706315,-1.41577,0.000447035,0.0189125,2.58617,5,0.1,4,6.1,0.0323102,3.26064,1.06839,0.17514,0.592319,0.279397,0.00822004,-0.330508,-0.223421,0.0108527,0.248989,5,0.1,5,6.1,-1.85949,0.802279,1.40908,-0.0138232,-0.000294298,0.0558412,0.2997,0.0221953,0.0416264,0.0127998,0.25673,5,0.1,6,6.1,-0.39998,0.245869,0.599541,0.000244658,-0.192124,0.000995304,0.0130795,0.250575,-0.00134483,0.00771072,0.247923,5,0.1,7,6.1,0.437056,-0.097439,0.640949,0.41192,-0.337556,-0.0374707,0.891648,0.250798,0.0159405,0.00785365,1.66686,5,0.1,8,6.1,0.0305937,-5.84924,1.31587,-0.137443,-0.000818819,0.135665,0.598159,0.000864267,-0.0149161,0.00857475,3.63916,5,0.1,9,6.1,-0.327932,-2.09974,0.599995,-0.343031,-0.00138991,4.00469e-06,0.038581,0.00436604,1.86265e-05,0.00803499,0.0599118,5,0.1
0,6.2,-2.40376,2.70318,1.33751,0.0311136,-0.351512,-0.0590622,0.183463,0.146985,-0.148535,0.00868838,0.289068,5,0.1,1,6.2,2.14776,2.24854,1.34932,0.0954807,-0.350761,0.000840425,0.0418425,0.190139,-0.000476837,0.00917437,0.121261,5,0.1,2,6.2,0.899675,-2.15986,0.600009,0.00211149,0.370622,2.83122e-05,-0.00849366,0.0470877,-5.96046e-05,0.00937176,0.0655611,5,0.1,3,6.2,-1.69546,2.71185,1.369,-0.0564486,-0.731826,-0.00416636,0.01508,-1.12355,0.00107288,0.0188781,2.35651,5,0.1,4,6.2,0.0498199,3.31811,1.09519,0.174425,0.555629,0.256377,-0.029223,-0.415444,-0.242651,0.0107489,0.165783,5,0.1,5,6.2,-1.8595,0.802354,1.41488,0.0124067,0.0015825,0.0600845,0.222981,0.00944734,0.0380278,0.012991,0.237066,5,0.1,6,6.2,-0.399901,0.227913,0.599634,0.00121072,-0.166955,0.000858307,0.00612438,0.253715,-0.0013411,0.0079899,0.494797,5,0.1,7,6.2,0.482701,-0.129915,0.637292,0.499481,-0.311527,-0.0355467,0.803769,0.277042,0.0232756,0.00832233,3.13064,5,0.1,8,6.2,0.0193365,-5.84932,1.32932,-0.0936432,-0.000739098,0.132874,0.245666,0.000953674,-0.0449419,0.0102153,3.49484,5,0.1,9,6.2,-0.361946,-2.09986,0.599995,-0.335976,-0.000959635,5.96046e-06,0.113994,0.00405312,0,0.00752982,0.0937765,5,0.1
0,6.3,-2.39937,2.66874,1.33104,0.0594944,-0.337179,-0.0686059,0.354409,0.15074,-0.0466034,0.00868838,0.289068,5,0.1,1,6.3,2.15742,2.21437,1.3494,0.0966314,-0.332915,0.000794418,-0.0176877,0.178173,-0.000469387,0.00917437,0.121261,5,0.1,2,6.3,0.899846,-2.12262,0.600011,0.00132266,0.373118,2.18861e-05,-0.00718236,-0.00956655,-7.07805e-05,0.00937176,0.0655611,5,0.1,3,6.3,-1.70105,2.63386,1.36859,-0.0555569,-0.819799,-0.00410601,0.00601262,-0.628039,0.000372529,0.0188781,2.35651,5,0.1,4,6.3,0.067142,3.37168,1.11968,0.172075,0.516457,0.233896,-0.0254608,-0.383332,-0.213958,0.0107489,0.165783,5,0.1,5,6.3,-1.85723,0.802609,1.42109,0.0319649,0.00345912,0.0642305,0.166535,0.00757724,0.0403151,0.012991,0.237066,5,0.1,6,6.3,-0.399645,0.212452,0.599714,0.00457666,-0.142566,0.000728201,0.0472311,0.235132,-0.00126287,0.0079899,0.494797,5,0.1,7,6.3,0.535591,-0.161499,0.633855,0.548145,-0.335286,-0.0331636,0.192992,-0.633632,0.0250153,0.00832233,3.13064,5,0.1,8,6.3,0.0107084,-5.84939,1.34238,-0.0864677,-0.000650436,0.1281,-0.194287,0.000804663,-0.0540689,0.0102153,3.49484,5,0.1,9,6.3,-0.395155,-2.09994,0.599996,-0.329484,-0.000582263,5.96046e-06,0.0374746,0.00341237,0,0.00752982,0.0937765,5,0.1
0,6.4,-2.39157,2.63586,1.32409,0.0967681,-0.319535,-0.069207,0.368357,0.20957,0.0306964,0.00842882,0.558241,5,0.1,1,6.4,2.1669,2.18202,1.34947,0.0922024,-0.313216,0.000745058,-0.0692606,0.223637,-0.000655651,0.010265,0.149094,5,0.1,2,6.4,0.899945,-2.08553,0.600013,0.000688434,0.366682,1.49012e-05,-0.00542402,-0.126839,-8.9407e-05,0.011143,0.04386,5,0.1,3,6.4,-1.70657,2.54956,1.36818,-0.0546843,-0.858217,-0.00404716,0.0137091,-0.156164,0.00089407,0.0179252,2.27506,5,0.1,4,6.4,0.0841771,3.42136,1.14201,0.168036,0.47639,0.212407,-0.060614,-0.428438,-0.220656,0.0102321,0.25852,5,0.1,5,6.4,-1.85331,0.802867,1.42769,0.0454754,0.000226498,0.0673711,0.102937,-0.0804365,0.0193715,0.0113127,0.203163,5,0.1,6,6.4,-0.398974,0.199347,0.59978,0.0084132,-0.119756,0.000604987,0.0210404,0.221722,-0.00116229,0.0076784,0.868333,5,0.1,7,6.4,0.590526,-0.198895,0.63067,0.542656,-0.417248,-0.0304446,-0.280499,-0.914127,0.0298321,0.00874392,2.97853,5,0.1,8,6.4,0,-5.84945,1.35488,-0.137997,-0.000572205,0.121477,-0.79912,0.000953674,-0.0805259,0.00959184,3.11735,5,0.1,9,6.4,-0.427897,-2.09998,0.599997,-0.324769,-0.000280142,4.47035e-06,0.0723302,0.0025034,2.98023e-05,0.00658141,0.169128,5,0.1
0,6.5,-2.37984,2.60503,1.31745,0.139083,-0.296384,-0.0623226,0.449821,0.255287,0.0997782,0.00842882,0.558241,5,0.1,1,6.5,2.1757,2.15173,1.34955,0.0829019,-0.293289,0.000686571,-0.114202,0.186965,-0.000536442,0.010265,0.149094,5,0.1,2,6.5,0.89999,-2.04947,0.600014,0.000235997,0.354524,6.42613e-06,-0.00366569,-0.129625,-7.82311e-05,0.011143,0.04386,5,0.1,3,6.5,-1.71193,2.46326,1.36784,-0.0523208,-0.865538,-0.00231601,0.0332221,-0.0195205,0.0302196,0.0179252,2.27506,5,0.1,4,6.5,0.100856,3.46713,1.16221,0.166922,0.440976,0.192148,0.0221976,-0.302672,-0.190392,0.0102321,0.25852,5,0.1,5,6.5,-1.84832,0.802385,1.43452,0.0537131,-0.0117105,0.0690168,0.0611246,-0.186186,0.0106916,0.0113127,0.203163,5,0.1,6,6.5,-0.397968,0.188443,0.599835,0.0115006,-0.098679,0.000494439,0.0113938,0.200167,-0.00105426,0.0076784,0.868333,5,0.1,7,6.5,0.642945,-0.244354,0.627769,0.501675,-0.483826,-0.027622,-0.524245,-0.427253,0.0273027,0.00874392,2.97853,5,0.1,8,6.5,-0.0185587,-5.8495,1.36664,-0.238813,-0.000486523,0.113767,-1.13917,0.000804663,-0.0769645,0.00959184,3.11735,5,0.1,9,6.5,-0.460339,-2.1,0.599997,-0.326504,-7.33882e-05,6.89179e-06,-0.0754558,0.00165403,1.49012e-05,0.00658141,0.169128,5,0.1
0,6.6,-2.36374,2.57675,1.31178,0.181854,-0.268245,-0.0505418,0.384927,0.308156,0.130117,0.00887144,0.495931,5,0.1,1,6.6,2.18336,2.12335,1.34961,0.0698686,-0.273788,0.000631809,-0.143766,0.211239,-0.000596046,0.0113657,0.132275,5,0.1,2,6.6,0.899998,-2.01476,0.600014,-5.21541e-05,0.338542,-1.49012e-06,-0.00220537,-0.198722,-5.96046e-05,0.00928533,0.0791875,5,0.1,3,6.6,-1.71697,2.37667,1.36778,-0.0481218,-0.866026,0.00137389,0.0503063,0,0.0407696,0.0181938,2.27157,5,0.1,4,6.6,0.117687,3.50977,1.18048,0.169668,0.411916,0.173327,0.0207871,-0.295043,-0.190079,0.00978684,0.208499,5,0.1,5,6.6,-1.84271,0.8,1.44144,0.0576228,-0.0386134,0.0690401,0.0169873,-0.339985,-0.012219,0.0108336,0.155416,5,0.1,6,6.6,-0.396952,0.179542,0.599879,0.006596,-0.0796653,0.000394881,-0.121146,0.180341,-0.000953674,0.0100106,1.40722,5,0.1,7,6.6,0.690193,-0.294138,0.625144,0.440627,-0.504787,-0.02487,-0.683367,-0.00305533,0.028193,0.00853545,1.16647,5,0.1,8,6.6,-0.0481683,-5.84955,1.37761,-0.352198,-0.000417233,0.105533,-1.07023,0.000476837,-0.0899434,0.00824118,3.13876,5,0.1,9,6.6,-0.493397,-2.1,0.599998,-0.334382,5.36442e-05,7.45058e-06,-0.0588596,0.00107288,0,0.00689604,0.104019,5,0.1
0,6.7,-2.34359,2.55145,1.30745,0.221002,-0.237798,-0.0357766,0.376508,0.303015,0.154421,0.00887144,0.495931,5,0.1,1,6.7,2.18958,2.09701,1.34967,0.0541855,-0.253098,0.000575185,-0.164613,0.208661,-0.000551343,0.0113657,0.132275,5,0.1,2,6.7,0.899983,-1.9817,0.600014,-0.000218302,0.324188,-6.89179e-06,-0.00116974,-0.108697,-4.47035e-05,0.00928533,0.0791875,5,0.1,3,6.7,-1.72153,2.29007,1.36814,-0.0430794,-0.866026,0.00605974,0.0509247,0,0.0502244,0.0181938,2.27157,5,0.1,4,6.7,0.134547,3.54936,1.19692,0.165567,0.378637,0.156002,-0.0968999,-0.370011,-0.161357,0.00978684,0.208499,5,0.1,5,6.7,-1.83691,0.794237,1.44827,0.0580547,-0.0780338,0.0674494,-0.00851601,-0.423521,-0.0213236,0.0108336,0.155416,5,0.1,6,6.7,-0.396974,0.172433,0.599914,-0.00993307,-0.0629675,0.000306685,-0.285709,0.154138,-0.000808388,0.0100106,1.40722,5,0.1,7,6.7,0.731274,-0.34375,0.622787,0.384757,-0.479532,-0.0223364,-0.457574,0.472779,0.023257,0.00853545,1.16647,5,0.1,8,6.7,-0.0875849,-5.84959,1.38774,-0.425297,-0.000373274,0.0972405,-0.419789,0.00038743,-0.0790209,0.00824118,3.13876,5,0.1,9,6.7,-0.527212,-2.09999,0.599999,-0.342205,0.000132993,7.07805e-06,-0.0770837,0.000521541,-7.45058e-06,0.00689604,0.104019,5,0.1
0,6.8,-2.31977,2.52919,1.30461,0.253487,-0.207305,-0.0214189,0.258327,0.308275,0.125825,0.00951884,0.435007,5,0.1,1,6.8,2.19418,2.07278,1.34973,0.0378668,-0.231057,0.00051856,-0.157833,0.235915,-0.000596046,0.0089791,0.248743,5,0.1,2,6.8,0.899957,-1.94981,0.600013,-0.000295043,0.313297,-1.04308e-05,-0.000357628,-0.123799,-2.98023e-05,0.00817936,0.0654772,5,0.1,3,6.8,-1.72558,2.20346,1.369,-0.0378817,-0.866026,0.0109434,0.0533462,0,0.0454187,0.0181444,2.27138,5,0.1,4,6.8,0.150466,3.58525,1.21173,0.151416,0.338113,0.140217,-0.180721,-0.43869,-0.157952,0.00933719,0.326559,5,0.1,5,6.8,-1.84271,0.8,1.44144,0.0576228,-0.0386134,0.0690401,0.0169873,-0.339985,-0.012219,0.0133429,0.155416,5,0.1,6,6.8,-0.4,0.166867,0.599941,-0.0564396,-0.0487402,0.000230968,-0.627115,0.130862,-0.000655651,0.0108516,1.91671,5,0.1,7,6.8,0.767676,-0.388798,0.620667,0.344954,-0.416748,-0.0200853,-0.356555,0.753105,0.0223219,0.00795729,1.08895,5,0.1,8,6.8,-0.131333,-5.84962,1.39707,-0.441484,-0.000333786,0.0891984,0.0708181,0.000238419,-0.0838637,0.0103594,3.30648,5,0.1,9,6.8,-0.561711,-2.09997,0.599999,-0.346318,0.000166893,5.96046e-06,0.00914931,0.000119209,0,0.00808035,0.0822333,5,0.1
0,6.9,-2.29315,2.50995,1.30309,0.278323,-0.178048,-0.00951774,0.22158,0.279188,0.0952929,0.00951884,0.435007,5,0.1,1,6.9,2.19722,2.05087,1.34978,0.0234049,-0.206926,0.000458956,-0.129774,0.247717,-0.000596046,0.0089791,0.248743,5,0.1,2,6.9,0.899927,-1.91892,0.600012,-0.000300538,0.30569,-1.29454e-05,0.00019744,-0.049144,-1.86265e-05,0.00817936,0.0654772,5,0.1,3,6.9,-1.72912,2.11686,1.37033,-0.0329698,-0.866026,0.0156242,0.0457093,0,0.0459552,0.0181444,2.27138,5,0.1,4,6.9,0.16458,3.61668,1.22502,0.1298,0.288799,0.125907,-0.244264,-0.535637,-0.132382,0.00933719,0.326559,5,0.1,5,6.9,-1.83691,0.794237,1.44827,0.0580547,-0.0780338,0.0674494,-0.00851601,-0.423521,-0.0213236,0.0133429,0.155416,5,0.1,6,6.9,-0.409858,0.162606,0.599961,-0.149204,-0.0368765,0.000171456,-1.13879,0.106971,-0.000540167,0.0108516,1.91671,5,0.1,7,6.9,0.800175,-0.426466,0.618762,0.303355,-0.334772,-0.0180848,-0.456717,0.864055,0.0183359,0.00795729,1.08895,5,0.1,8,6.9,-0.17416,-5.84965,1.4056,-0.406983,-0.000310689,0.0816694,0.55708,0.000208616,-0.0696853,0.0103594,3.30648,5,0.1,9,6.9,-0.596403,-2.09996,0.6,-0.348035,0.00016354,5.58794e-06,-0.0222586,-0.000163913,-7.45058e-06,0.00808035,0.0822333,5,0.1
0,7,-2.26438,2.49351,1.30246,0.294983,-0.151086,-0.00469983,0.100255,0.261784,-0.00536442,0.00949396,0.371591,5,0.1,1,7,2.19896,2.03144,1.34982,0.0121474,-0.181395,0.000399351,-0.0947714,0.263214,-0.000596046,0.00856374,0.495569,5,0.1,2,7,0.899898,-1.88861,0.600011,-0.00026226,0.29991,-1.49012e-05,0.000506639,-0.0813007,0,0.00964172,0.104364,5,0.1,3,7,-1.73219,2.03026,1.3721,-0.0285953,-0.866026,0.019756,0.0422597,0,0.0349879,0.0169676,2.31757,5,0.1,4,7,0.176284,3.6428,1.23696,0.103895,0.233167,0.113034,-0.267871,-0.567317,-0.12809,0.0101738,0.322867,5,0.1,5,7,-1.84271,0.8,1.44144,0.0576228,-0.0386134,0.0690401,0.0169873,-0.339985,-0.012219,0.015275,0.155416,5,0.1,6,7,-0.43071,0.159417,0.599976,-0.268474,-0.0272393,0.00012368,-1.17873,0.0862703,-0.000476837,0.00950025,1.55629,5,0.1,7,7,0.828184,-0.455592,0.617043,0.256747,-0.247908,-0.0163078,-0.46277,0.855908,0.017643,0.0085152,1.03837,5,0.1,8,7,-0.211683,-5.84968,1.41342,-0.34075,-0.000286102,0.0747561,0.722855,0.000238419,-0.0707507,0.0103388,3.45682,5,0.1,9,7,-0.631227,-2.09994,0.6,-0.347178,0.000143051,4.47035e-06,0.0540912,-0.000476837,0,0.00856816,0.112075,5,0.1
0,7.1,-2.2344,2.47964,1.30184,0.303987,-0.12683,-0.00970308,0.0664294,0.225529,-0.118606,0.00949396,0.371591,5,0.1,1,7.1,2.19966,2.0146,1.34986,0.00162274,-0.155681,0.000341609,-0.103354,0.251591,-0.000551343,0.00856374,0.495569,5,0.1,2,7.1,0.899875,-1.8588,0.600009,-0.00020368,0.297906,-1.4808e-05,0.000637025,0.0173524,3.72529e-06,0.00964172,0.104364,5,0.1,3,7.1,-1.73486,1.9437,1.37426,-0.0249015,-0.864219,0.0232598,0.0326559,0.0567734,0.0331029,0.0169676,2.31757,5,0.1,4,7.1,0.185337,3.6633,1.24767,0.0773063,0.177098,0.101485,-0.259387,-0.546351,-0.106327,0.0101738,0.322867,5,0.1,5,7.1,-1.83691,0.794237,1.44827,0.0580547,-0.0780338,0.0674494,-0.00851601,-0.423521,-0.0213236,0.015275,0.155416,5,0.1,6,7.1,-0.463783,0.157092,0.599986,-0.394568,-0.0195773,8.1677e-05,-1.27556,0.0674855,-0.000368804,0.00950025,1.55629,5,0.1,7,7.1,0.851419,-0.476265,0.615494,0.207753,-0.167358,-0.0147293,-0.47661,0.747392,0.0144653,0.0085152,1.03837,5,0.1,8,7.1,-0.241839,-5.84971,1.42058,-0.261493,-0.000265241,0.0685144,0.779477,0.000178814,-0.0568181,0.0103388,3.45682,5,0.1,9,7.1,-0.665845,-2.09993,0.600001,-0.346289,9.574e-05,4.37722e-06,-0.0131465,-0.000461936,-3.72529e-06,0.00856816,0.112075,5,0.1
0,7.2,-2.20382,2.46804,1.3,0.306034,-0.10559,-0.0297427,-0.0343323,0.200868,-0.27144,0.00862301,0.302482,5,0.1,1,7.2,2.19937,2.00027,1.34989,-0.00657439,-0.131002,0.000286102,-0.0532866,0.242114,-0.000476837,0.00951039,0.869559,5,0.1,2,7.2,0.899858,-1.82893,0.600008,-0.000138581,0.29926,-1.3411e-05,0.000655651,-0.00762939,0,0.0118073,0.0893283,5,0.1,3,7.2,-1.73719,1.85784,1.37673,-0.0218868,-0.849506,0.0260442,0.0283718,0.26834,0.0212193,0.0153788,2.77194,5,0.1,4,7.2,0.191815,3.67836,1.2573,0.0527855,0.125229,0.0911772,-0.227846,-0.48542,-0.102282,0.0117673,0.275545,5,0.1,5,7.2,-1.84271,0.8,1.44144,0.0576228,-0.0386134,0.0690401,0.0169873,-0.339985,-0.012219,0.0124438,0.155416,5,0.1,6,7.2,-0.509321,0.155444,0.599993,-0.511952,-0.0136435,4.91738e-05,-1.02338,0.0516549,-0.000238419,0.0084887,1.19759,5,0.1,7,7.2,0.870036,-0.489494,0.614091,0.167345,-0.0996478,-0.0133231,-0.312805,0.60232,0.0140071,0.00772964,0.953429,5,0.1,8,7.2,-0.264506,-5.84974,1.42715,-0.197091,-0.000238419,0.0629276,0.468984,0,-0.0569224,0.0102141,3.37502,5,0.1,9,7.2,-0.700495,-2.09992,0.600001,-0.345834,4.76837e-05,2.98023e-06,0.038743,-0.000238419,0,0.00713985,0.186449,5,0.1
0,7.3,-2.17339,2.45842,1.29534,0.302202,-0.0873111,-0.0660842,-0.0532568,0.166714,-0.424959,0.00862301,0.302482,5,0.1,1,7.3,2.19842,1.98834,1.34991,-0.0119865,-0.107869,0.000239536,-0.0269413,0.220679,-0.000447035,0.00951039,0.869559,5,0.1,2,7.3,0.899847,-1.79885,0.600006,-7.05943e-05,0.303351,-1.30385e-05,0.000685453,0.0651479,7.45058e-06,0.0118073,0.0893283,5,0.1,3,7.3,-1.73926,1.77525,1.37944,-0.0195377,-0.793158,0.0281977,0.0196993,0.820257,0.0199899,0.0153788,2.77194,5,0.1,4,7.3,0.196029,3.6886,1.26599,0.0322712,0.0809886,0.0832807,-0.180794,-0.396371,-0.0614226,0.0117673,0.275545,5,0.1,5,7.3,-1.83691,0.794237,1.44827,0.0580547,-0.0780338,0.0674494,-0.00851601,-0.423521,-0.0213236,0.0124438,0.155416,5,0.1,6,7.3,-0.565637,0.154315,0.599996,-0.613092,-0.00916419,2.86847e-05,-0.947487,0.0383677,-0.000178814,0.0084887,1.19759,5,0.1,7,7.3,0.885436,-0.496698,0.612824,0.144447,-0.0469103,-0.0120701,-0.0923835,0.453882,0.0114888,0.00772964,0.953429,5,0.1,8,7.3,-0.282525,-5.84976,1.43318,-0.17035,-0.000235438,0.0579217,0.050649,5.96046e-05,-0.0455454,0.0102141,3.37502,5,0.1,9,7.3,-0.735196,-2.09992,0.600002,-0.350447,2.23517e-05,2.8871e-06,-0.0985116,-0.000268221,-3.72529e-06,0.00713985,0.186449,5,0.1
0,7.4,-2.14354,2.45048,1.28656,0.293571,-0.0718951,-0.109392,-0.1266,0.14329,-0.418365,0.00862266,0.234446,5,0.1,1,7.4,2.19729,1.97863,1.34993,-0.00809431,-0.0868529,0.000196695,0.115514,0.199854,-0.000417233,0.0104271,1.4088,5,0.1,2,7.4,0.899844,-1.76824,0.600005,-5.96046e-06,0.308138,-1.19209e-05,0.000625849,0.0131726,0,0.00822246,0.122502,5,0.1,3,7.4,-1.74112,1.70068,1.38235,-0.0177562,-0.692591,0.0297308,0.0168085,1.15794,0.00935793,0.0149826,3.26693,5,0.1,4,7.4,0.198439,3.69488,1.27404,0.0168316,0.0463665,0.0778824,-0.127576,-0.294924,-0.0508428,0.0117127,0.315106,5,0.1,5,7.4,-1.84271,0.8,1.44144,0.0576228,-0.0386134,0.0690401,0.0169873,-0.339985,-0.012219,0.0137109,0.155416,5,0.1,6,7.4,-0.63121,0.153571,0.599998,-0.692672,-0.0058867,1.3411e-05,-0.608295,0.0275671,-8.9407e-05,0.0109118,1.43363,5,0.1,7,7.4,0.9,-0.499355,0.611673,0.152391,-0.00852346,-0.0109494,0.233769,0.315905,0.0112355,0.00710556,0.58167,5,0.1,8,7.4,-0.3,-5.84978,1.43875,-0.185425,-0.000226498,0.0534177,-0.321582,0.000238419,-0.0461936,0.00892404,3.11013,5,0.1,9,7.4,-0.770741,-2.09992,0.600002,-0.359911,0,1.49012e-06,-0.0670552,-0.000238419,2.98023e-05,0.00782549,0.113818,5,0.1
0,7.5,-2.1148,2.44396,1.27343,0.281239,-0.0590608,-0.153463,-0.129059,0.115156,-0.439994,0.00862266,0.234446,5,0.1,1,7.5,2.19715,1.97089,1.34995,0.0081677,-0.0682876,0.000157394,0.285223,0.171825,-0.00037998,0.0104271,1.4088,5,0.1,2,7.5,0.899846,-1.73717,0.600004,5.05708e-05,0.314493,-1.14553e-05,0.000495464,0.0890568,1.11759e-05,0.00822246,0.122502,5,0.1,3,7.5,-1.74289,1.63761,1.38537,-0.0183929,-0.565509,0.0307228,-0.0241846,1.34815,0.00880659,0.0149826,3.26693,5,0.1,4,7.5,0.199554,3.69818,1.28157,0.00618803,0.0211105,0.0728061,-0.084728,-0.208229,-0.0523403,0.0117127,0.315106,5,0.1,5,7.5,-1.83691,0.794237,1.44827,0.0580547,-0.0780338,0.0674494,-0.00851601,-0.423521,-0.0213236,0.0137109,0.155416,5,0.1,6,7.5,-0.703745,0.153105,0.599999,-0.758754,-0.00357563,6.0536e-06,-0.652842,0.0190046,-6.33299e-05,0.0109118,1.43363,5,0.1,7,7.5,0.916953,-0.498794,0.61063,0.190895,0.0181123,-0.0099442,0.488725,0.218,0.00922754,0.00710556,0.58167,5,0.1,8,7.5,-0.320015,-5.8498,1.44388,-0.214298,-0.000203401,0.049318,-0.285227,0.000208616,-0.0377148,0.00892404,3.11013,5,0.1,9,7.5,-0.807137,-2.09992,0.600002,-0.368173,-2.30968e-05,3.53903e-06,-0.0771657,-0.000208616,7.45058e-06,0.00782549,0.113818,5,0.1
0,7.6,-2.08738,2.43859,1.256,0.266248,-0.0485599,-0.193432,-0.176668,0.0963211,-0.342786,0.0125142,0.174134,5,0.1,1,7.6,2.2,1.96488,1.34997,0.0547349,-0.0524133,0.00012517,0.628591,0.146091,-0.000357628,0.0114209,1.91858,5,0.1,2,7.6,0.899853,-1.70532,0.600003,9.23872e-05,0.321677,-1.04308e-05,0.000327826,0.0367761,0,0.00916892,0.0726876,5,0.1,3,7.6,-1.74489,1.58788,1.38848,-0.0216424,-0.429267,0.031206,-0.0367761,1.34903,-0.000238419,0.0189171,3.6641,5,0.1,4,7.6,0.199823,3.69941,1.28858,-9.16421e-05,0.00490546,0.0671387,-0.0412092,-0.115991,-0.0620484,0.0110572,0.303515,5,0.1,5,7.6,-1.84271,0.8,1.44144,0.0576228,-0.0386134,0.0690401,0.0169873,-0.339985,-0.012219,0.0145102,0.155416,5,0.1,6,7.6,-0.782551,0.152831,0.6,-0.812924,-0.00201985,1.49012e-06,-0.387907,0.0124201,-5.96046e-05,0.00821161,0.589369,5,0.1,7,7.6,0.938584,-0.496046,0.609681,0.241797,0.0353552,-0.00904053,0.493497,0.128433,0.00908971,0.00827341,0.297763,5,0.1,8,7.6,-0.342973,-5.84982,1.44862,-0.246134,-0.000178814,0.0455469,-0.35882,0,-0.0391603,0.0101939,2.79797,5,0.1,9,7.6,-0.844216,-2.09992,0.600002,-0.371787,-4.17233e-05,4.47035e-06,0.0194311,-0.000238419,0,0.00882283,0.180894,5,0.1
0,7.7,-2.0616,2.43418,1.23495,0.249491,-0.0400599,-0.227064,-0.166044,0.0751466,-0.312082,0.0125142,0.174134,5,0.1,1,7.7,2.2097,1.96032,1.34998,0.147688,-0.0391373,9.27597e-05,1.14104,0.119902,-0.000298023,0.0114209,1.91858,5,0.1,2,7.7,0.899864,-1.67294,0.600002,0.000120141,0.325794,-9.96515e-06,0.000223517,0.0296533,1.11759e-05,0.00916892,0.0726876,5,0.1,3,7.7,-1.74727,1.55167,1.39153,-0.0263402,-0.296009,0.0293378,-0.0528172,1.27719,-0.0343323,0.0189171,3.6641,5,0.1,4,7.7,0.199637,3.69939,1.29499,-0.0031874,-0.00421591,0.0612115,-0.0153165,-0.0556558,-0.0579432,0.0110572,0.303515,5,0.1,5,7.7,-1.83691,0.794237,1.44827,0.0580547,-0.0780338,0.0674494,-0.00851601,-0.423521,-0.0213236,0.0145102,0.155416,5,0.1,6,7.7,-0.865523,0.152682,0.6,-0.843176,-0.00104189,-3.25963e-06,-0.189282,0.00741053,-4.09782e-05,0.00821161,0.589369,5,0.1,7,7.7,0.965259,-0.491966,0.608819,0.29128,0.0452919,-0.00822647,0.469774,0.071127,0.00749156,0.00827341,0.297763,5,0.1,8,7.7,-0.369244,-5.84984,1.453,-0.280655,-0.000175834,0.042044,-0.429623,5.96046e-05,-0.0324696,0.0101939,2.79797,5,0.1,9,7.7,-0.881556,-2.09993,0.600003,-0.376806,-6.18398e-05,4.00469e-06,-0.0890009,-0.000149012,-1.11759e-05,0.00882283,0.180894,5,0.1
0,7.8,-2.03752,2.43053,1.21086,0.231773,-0.0332773,-0.252849,-0.193477,0.0618696,-0.19145,0.0111389,0.210345,5,0.1,1,7.8,2.23041,1.95697,1.34999,0.267202,-0.028342,6.85453e-05,1.18148,0.0964403,-0.000298023,0.0101313,1.55801,5,0.1,2,7.8,0.899877,-1.64033,0.600001,0.000137091,0.324935,-8.9407e-06,0.000119209,-0.0576377,0,0.0102252,0.0546396,5,0.1,3,7.8,-1.75017,1.52808,1.39426,-0.0314474,-0.180116,0.0248492,-0.0460744,1.0168,-0.0531673,0.015024,3.79291,5,0.1,4,7.8,0.199315,3.69885,1.30082,-0.00247508,-0.00488162,0.0553071,0.0309721,0.0451803,-0.0610948,0.0106411,0.527309,5,0.1,5,7.8,-1.84271,0.8,1.44144,0.0576228,-0.0386134,0.0690401,0.0169873,-0.339985,-0.012219,0.0134338,0.155416,5,0.1,6,7.8,-0.950274,0.152609,0.599999,-0.846277,-0.000487268,-5.96046e-06,0.144422,0.00389665,0,0.0107998,1.31264,5,0.1,7,7.8,0.996519,-0.487169,0.608033,0.331274,0.0497721,-0.00749081,0.311673,0.0195801,0.00742078,0.00784688,0.185777,5,0.1,8,7.8,-0.4,-5.84986,1.45704,-0.33965,-0.000166893,0.0387818,-0.72813,0.000238419,-0.0338554,0.0114353,2.36833,5,0.1,9,7.8,-0.919653,-2.09993,0.600003,-0.384276,-7.15256e-05,4.47035e-06,-0.038147,-0.000238419,-2.98023e-05,0.0079176,0.108149,5,0.1
0,7.9,-2.01515,2.42746,1.18438,0.2169,-0.0283401,-0.27811,-0.1176,0.0390857,-0.28307,0.0111389,0.210345,5,0.1,1,7.9,2.26337,1.95458,1.34999,0.393575,-0.0197617,4.30271e-05,1.27836,0.0756159,-0.000216067,0.0101313,1.55801,5,0.1,2,7.9,0.899891,-1.60805,0.6,0.000146218,0.32093,-8.47504e-06,5.96046e-05,-0.0390857,1.11759e-05,0.0102252,0.0546396,5,0.1,3,7.9,-1.75356,1.51486,1.39653,-0.036421,-0.0889404,0.0210393,-0.0497699,0.750236,-0.0257045,0.015024,3.79291,5,0.1,4,7.9,0.199233,3.69866,1.30606,0.0016951,0.0028342,0.0495989,0.0793766,0.146031,-0.0543296,0.0106411,0.527309,5,0.1,5,7.9,-1.83691,0.794237,1.44827,0.0580547,-0.0780338,0.0674494,-0.00851601,-0.423521,-0.0213236,0.0134338,0.155416,5,0.1,6,7.9,-1.03471,0.152574,0.599998,-0.846107,-0.000237674,-5.86733e-06,-0.0782274,0.00130013,3.72529e-06,0.0107998,1.31264,5,0.1,7,7.9,1.03127,-0.482134,0.607314,0.363751,0.050536,-0.00693938,0.310667,-0.00439025,0.004109,0.00784688,0.185777,5,0.1,8,7.9,-0.438506,-5.84987,1.46076,-0.43711,-0.000143796,0.035736,-1.12851,0.000208616,-0.0283569,0.0114353,2.36833,5,0.1,9,7.9,-0.958321,-2.09994,0.600003,-0.38906,-8.90344e-05,1.86265e-06,-0.0377223,-0.00013411,-2.23517e-05,0.0079176,0.108149,5,0.1
0,8,-1.99401,2.4248,1.15521,0.205895,-0.0250697,-0.304165,-0.112414,0.0280142,-0.215828,0.00963925,0.209183,5,0.1,1,8,2.30882,1.95295,1.34999,0.511235,-0.0131279,2.08616e-05,1.0258,0.0575185,-5.96046e-05,0.00831593,1.19904,5,0.1,2,8,0.899906,-1.57623,0.599999,0.000149012,0.314316,-7.45058e-06,-2.98023e-05,-0.104427,2.98023e-05,0.00879847,0.0913055,5,0.1,3,8,-1.75743,1.50894,1.39853,-0.0407785,-0.0376463,0.0192285,-0.0349283,0.2563,-0.0125766,0.016894,3.60203,5,0.1,4,8,0.2,3.7,1.31075,0.015606,0.0270188,0.0442266,0.193946,0.327468,-0.0538826,0.00955321,0.756874,5,0.1,5,8,-1.84271,0.8,1.44144,0.0576228,-0.0386134,0.0690401,0.0169873,-0.339985,-0.012219,0.014327,0.155416,5,0.1,6,8,-1.11966,0.152554,0.599998,-0.851104,-0.000189617,-4.47035e-06,0.0237226,-0.000178814,0,0.0105668,0.974505,5,0.1,7,8,1.06902,-0.477142,0.606639,0.388792,0.0489049,-0.00658035,0.171304,-0.0280291,0.00345707,0.00840258,0.424378,5,0.1,8,8,-0.487894,-5.84989,1.46419,-0.549207,-0.00013113,0.0328839,-1.04453,0.000238419,-0.0294447,0.0099585,1.87125,5,0.1,9,8,-0.997282,-2.09995,0.600004,-0.388484,-9.53674e-05,0,0.0627935,0,-2.98023e-05,0.0084847,0.308761,5,0.1
0,8.1,-1.97385,2.42243,1.12374,0.198446,-0.0225313,-0.324544,-0.0500754,0.0234842,-0.174634,0.00963925,0.209183,5,0.1,1,8.1,2.36508,1.9519,1.35,0.612609,-0.00813641,1.56462e-05,0.949755,0.0427067,-4.47035e-05,0.00831593,1.19904,5,0.1,2,8.1,0.899921,-1.54513,0.599999,0.000143703,0.309107,-4.56348e-06,-7.82311e-05,-0.0214949,2.6077e-05,0.00879847,0.0913055,5,0.1,3,8.1,-1.76162,1.50578,1.40042,-0.0423748,-0.0342894,0.0188459,0.00163913,-0.255838,0.002563,0.016894,3.60203,5,0.1,4,8.1,0.20294,3.7049,1.31492,0.0464672,0.0752851,0.0392646,0.390889,0.591695,-0.046432,0.00955321,0.756874,5,0.1,5,8.1,-1.83691,0.794237,1.44827,0.0580547,-0.0780338,0.0674494,-0.00851601,-0.423521,-0.0213236,0.014327,0.155416,5,0.1,6,8.1,-1.20491,0.152532,0.599998,-0.855186,-0.000271224,-4.37722e-06,-0.0558496,-0.00129919,3.72529e-06,0.0105668,0.974505,5,0.1,7,8.1,1.10897,-0.472415,0.605998,0.411705,0.0454141,-0.00622384,0.252165,-0.0414178,0.0038147,0.00840258,0.424378,5,0.1,8,8.1,-0.548307,-5.8499,1.46734,-0.659937,-0.000110269,0.030225,-1.09928,0.000178814,-0.0248179,0.0099585,1.87125,5,0.1,9,8.1,-1.03608,-2.09983,0.599997,-0.389239,0.00363626,-0.000180304,-0.0478812,0.0663549,-0.0031814,0.0084847,0.308761,5,0.1
0,8.2,-1.95424,2.42029,1.0906,0.193548,-0.0202477,-0.33623,-0.0576973,0.0228882,-0.0476241,0.0078031,0.147654,5,0.1,1,8.2,2.43061,1.95128,1.35,0.692397,-0.00451207,1.19209e-05,0.610232,0.0302196,-5.96046e-05,0.010606,1.43505,5,0.1,2,8.2,0.899935,-1.51433,0.599998,0.00013411,0.306275,-2.98023e-06,-0.000149012,-0.0507832,2.98023e-05,0.00975593,0.0764546,5,0.1,3,8.2,-1.7658,1.5,1.40233,-0.0407219,-0.0912964,0.0193328,0.0302196,-0.842512,0.00530481,0.0158748,3.26139,5,0.1,4,8.2,0.209647,3.71551,1.31862,0.0880759,0.137234,0.0347555,0.416584,0.61202,-0.0445247,0.0103216,0.615151,5,0.1,5,8.2,-1.84271,0.8,1.44144,0.0576228,-0.0386134,0.0690401,0.0169873,-0.339985,-0.012219,0.0148903,0.155416,5,0.1,6,8.2,-1.2905,0.152498,0.599997,-0.853845,-0.000421703,-2.98023e-06,0.117481,-0.00159442,-2.98023e-05,0.011788,0.699049,5,0.1,7,8.2,1.1513,-0.4681,0.605396,0.433251,0.0407018,-0.00579506,0.15384,-0.0523925,0.00488758,0.00877625,0.316063,5,0.1,8,8.2,-0.619411,-5.84991,1.47024,-0.756954,-9.53674e-05,0.02774,-0.790745,0.000238419,-0.0256896,0.010424,1.40982,5,0.1,9,8.2,-1.07522,-2.09908,0.599961,-0.392884,0.0117004,-0.000566244,-0.00327826,0.0885725,-0.00420213,0.0063934,0.231183,5,0.1
0,8.3,-1.9351,2.41837,1.05675,0.189746,-0.018185,-0.340112,-0.0290349,0.018999,-0.0162423,0.0078031,0.147654,5,0.1,1,8.3,2.50313,1.95096,1.35,0.758662,-0.00198353,6.89179e-06,0.654534,0.0206754,-3.72529e-05,0.010606,1.43505,5,0.1,2,8.3,0.899947,-1.48379,0.599998,0.000119209,0.305643,-4.65661e-07,-0.000149012,0.015907,1.86265e-05,0.00975593,0.0764546,5,0.1,3,8.3,-1.7697,1.48671,1.40431,-0.0370879,-0.174025,0.0202993,0.0418425,-0.818193,0.0120774,0.0158748,3.26139,5,0.1,4,8.3,0.220668,3.73246,1.32189,0.133032,0.202668,0.0307005,0.458072,0.661746,-0.0374913,0.0103216,0.615151,5,0.1,5,8.3,-1.83691,0.794237,1.44827,0.0580547,-0.0780338,0.0674494,-0.00851601,-0.423521,-0.0213236,0.0148903,0.155416,5,0.1,6,8.3,-1.37544,0.152447,0.599997,-0.845385,-0.000602868,-5.02914e-06,0.0912994,-0.00191201,-7.45058e-06,0.011788,0.699049,5,0.1,7,8.3,1.19548,-0.464295,0.604841,0.45045,0.0353809,-0.00532325,0.162855,-0.0538714,0.00467896,0.00877625,0.316063,5,0.1,8,8.3,-0.698698,-5.84992,1.4729,-0.824394,-7.52509e-05,0.0254167,-0.528991,0.000149012,-0.0216588,0.010424,1.40982,5,0.1,9,8.3,-1.11465,-2.09742,0.599881,-0.39633,0.0218574,-0.00104867,-0.0420138,0.108317,-0.00514835,0.0063934,0.231183,5,0.1
0,8.4,-1.91629,2.41664,1.02281,0.185913,-0.0163436,-0.337189,-0.0550747,0.0183582,0.0838041,0.00911925,0.173301,5,0.1,1,8.4,2.58193,1.95085,1.35,0.812978,-0.000318885,2.98023e-06,0.389218,0.0128746,0,0.00978978,0.417853,5,0.1,2,8.4,0.899958,-1.45319,0.599998,0.000102818,0.305668,1.49012e-06,-0.000119209,-0.0312328,0,0.0072434,0.112365,5,0.1,3,8.4,-1.77318,1.46525,1.40639,-0.0324726,-0.254822,0.02141,0.0498891,-0.790417,0.00864267,0.0154196,3.00072,5,0.1,4,8.4,0.236165,3.75588,1.32477,0.175472,0.263572,0.0270993,0.373006,0.531197,-0.0351071,0.0125318,0.259925,5,0.1,5,8.4,-1.84271,0.8,1.44144,0.0576228,-0.0386134,0.0690401,0.0169873,-0.339985,-0.012219,0.0140393,0.155416,5,0.1,6,8.4,-1.4593,0.152377,0.599996,-0.828904,-0.000783801,-5.96046e-06,0.265598,-0.00161678,0,0.0103388,0.198206,5,0.1,7,8.4,1.24117,-0.461027,0.604332,0.4612,0.0299603,-0.00483841,0.0331998,-0.0543445,0.00506639,0.00723362,0.225936,5,0.1,8,8.4,-0.783174,-5.84993,1.47533,-0.858717,-5.96046e-05,0.0232548,-0.14618,0,-0.0221729,0.0102914,1.0338,5,0.1,9,8.4,-1.1544,-2.0947,0.599751,-0.397262,0.0322819,-0.00154525,0.0399351,0.0956059,-0.00450015,0.00848147,0.167176,5,0.1
0,8.5,-1.89779,2.41509,0.989286,0.18565,-0.0149276,-0.334776,0.0319406,0.0109822,-0.0105202,0.00911925,0.173301,5,0.1,1,8.5,2.66476,1.95088,1.35,0.838903,0.000680424,2.98023e-06,0.111312,0.00735372,0,0.00978978,0.417853,5,0.1,2,8.5,0.899968,-1.42258,0.599998,9.03383e-05,0.307958,1.49012e-06,-0.00013411,0.0528917,0,0.0072434,0.112365,5,0.1,3,8.5,-1.77618,1.43624,1.40859,-0.0275457,-0.324051,0.0225039,0.0485554,-0.701278,0.0115409,0.0154196,3.00072,5,0.1,4,8.5,0.255427,3.78474,1.32732,0.208033,0.311608,0.0239296,0.269322,0.412583,-0.0290647,0.0125318,0.259925,5,0.1,5,8.5,-1.83691,0.794237,1.44827,0.0580547,-0.0780338,0.0674494,-0.00851601,-0.423521,-0.0213236,0.0140393,0.155416,5,0.1,6,8.5,-1.54067,0.152291,0.599996,-0.795987,-0.000947621,-5.4948e-06,0.405058,-0.00157021,1.11759e-05,0.0103388,0.198206,5,0.1,7,8.5,1.2875,-0.458296,0.603873,0.465066,0.0247365,-0.00436194,0.0223517,-0.0501126,0.00457466,0.00723362,0.225936,5,0.1,8,8.5,-0.869485,-5.84993,1.47755,-0.865149,-5.96046e-05,0.0212487,-0.00147894,0,-0.0186861,0.0102914,1.0338,5,0.1,9,8.5,-1.19399,-2.09099,0.599573,-0.394781,0.0419799,-0.00200272,0.0285506,0.093624,-0.00442564,0.00848147,0.167176,5,0.1
0,8.6,-1.87904,2.41364,0.955768,0.189194,-0.0139594,-0.334983,0.0258088,0.00905991,0.0244975,0.00919828,0.177116,5,0.1,1,8.6,2.74863,1.95097,1.35,0.832486,0.00119507,2.98023e-06,-0.249028,0.00321865,0,0.00827449,1.33758,5,0.1,2,8.6,0.899976,-1.39154,0.599998,7.7486e-05,0.31209,1.49012e-06,-0.000149012,0.0122786,0,0.00913083,0.190647,5,0.1,3,8.6,-1.7787,1.4,1.41089,-0.0227869,-0.403988,0.0234276,0.0466704,-0.879586,0.00572205,0.0142925,2.77458,5,0.1,4,8.6,0.277346,3.81765,1.32957,0.227915,0.343305,0.0211567,0.123024,0.210762,-0.0270605,0.0121014,0.158091,5,0.1,5,8.6,-1.84271,0.8,1.44144,0.0576228,-0.0386134,0.0690401,0.0169873,-0.339985,-0.012219,0.0158696,0.155416,5,0.1,6,8.6,-1.61793,0.152189,0.599995,-0.746012,-0.00108257,-5.96046e-06,0.600874,-0.00106543,5.96046e-05,0.00813071,1.57554,5,0.1,7,8.6,1.33395,-0.456066,0.603459,0.462013,0.0199422,-0.0039041,-0.0981092,-0.0457466,0.00458956,0.00794321,0.15635,5,0.1,8,8.6,-0.955818,-5.84994,1.47959,-0.859308,-5.96046e-05,0.0193924,0.134349,0.000238419,-0.0189543,0.00913267,1.28938,5,0.1,9,8.6,-1.23322,-2.08636,0.599352,-0.388372,0.0501931,-0.00239313,0.112653,0.0673532,-0.00315905,0.0092373,0.11714,5,0.1
0,8.7,-1.85997,2.41221,0.922156,0.192169,-0.0155002,-0.338923,0.023894,-0.0340939,-0.0755042,0.00919828,0.177116,5,0.1,1,8.7,2.83126,1.9511,1.35,0.82474,0.00136811,2.98023e-06,0.0288635,0.000409782,0,0.00827449,1.33758,5,0.1,2,8.7,0.899984,-1.35995,0.599998,6.25849e-05,0.322022,1.49012e-06,-0.000149012,0.153176,0,0.00913083,0.190647,5,0.1,3,8.7,-1.78071,1.35514,1.41324,-0.0171399,-0.492604,0.0233755,0.0635609,-0.845879,-0.00655651,0.0142925,2.77458,5,0.1,4,8.7,0.300827,3.85294,1.33157,0.242001,0.361014,0.0190124,0.140974,0.129446,-0.0171065,0.0121014,0.158091,5,0.1,5,8.7,-1.83691,0.794237,1.44827,0.0580547,-0.0780338,0.0674494,-0.00851601,-0.423521,-0.0213236,0.0158696,0.155416,5,0.1,6,8.7,-1.6905,0.151593,0.599938,-0.713289,-0.0148782,-0.00161789,0.126526,-0.244347,-0.0286996,0.00813071,1.57554,5,0.1,7,8.7,1.3797,-0.45429,0.60309,0.452783,0.0156756,-0.00347905,-0.104152,-0.0396371,0.00400841,0.00794321,0.15635,5,0.1,8,8.7,-1.04157,-5.84994,1.48144,-0.859207,-3.94881e-05,0.0176784,-0.0707507,0.000149012,-0.0159293,0.00913267,1.28938,5,0.1,9,8.7,-1.27154,-2.08101,0.599097,-0.378224,0.0566583,-0.00269739,0.105537,0.0582784,-0.00275299,0.0092373,0.11714,5,0.1
0,8.8,-1.8407,2.41045,0.887908,0.192326,-0.0197589,-0.34529,-0.0275373,-0.0464916,-0.0317395,0.00790901,0.104774,5,0.1,1,8.8,2.9139,1.95124,1.35,0.826973,0.00130832,2.98023e-06,-0.0318289,-0.0013113,0,0.0105302,1.00193,5,0.1,2,8.8,0.899989,-1.32697,0.599999,4.91738e-05,0.336972,1.49012e-06,-0.000178814,0.121415,0,0.0099496,0.117954,5,0.1,3,8.8,-1.78209,1.30202,1.41552,-0.0105619,-0.565204,0.022167,0.0659823,-0.573516,-0.017345,0.0113912,2.81215,5,0.1,4,8.8,0.325643,3.88946,1.3334,0.253092,0.366914,0.0175118,0.0683963,-0.0203848,-0.0138879,0.0111865,0.97523,5,0.1,5,8.8,-1.84271,0.8,1.44144,0.0576228,-0.0386134,0.0690401,0.0169873,-0.339985,-0.012219,0.0141709,0.155416,5,0.1,6,8.8,-1.76149,0.148689,0.599609,-0.707939,-0.0445303,-0.00510961,0.0353456,-0.324987,-0.0382662,0.00722312,1.22207,5,0.1,7,8.8,1.42433,-0.452911,0.602762,0.438234,0.0120036,-0.00308752,-0.198662,-0.0338405,0.0038743,0.00799098,0.105863,5,0.1,8,8.8,-1.12777,-5.84995,1.48313,-0.862858,-3.57628e-05,0.0160992,0.0419617,0.000238419,-0.015974,0.00993081,2.27393,5,0.1,9,8.8,-1.30875,-2.07509,0.598816,-0.364697,0.0612259,-0.00291318,0.175297,0.0306368,-0.00146031,0.00687113,0.137514,5,0.1
0,8.9,-1.82162,2.40822,0.853173,0.189023,-0.0250764,-0.349409,-0.0446141,-0.0559986,-0.0327639,0.00790901,0.104774,5,0.1,1,8.9,2.99674,1.95136,1.35,0.831622,0.00111274,2.98023e-06,0.0735074,-0.00245869,0,0.0105302,1.00193,5,0.1,2,8.9,0.899993,-1.2926,0.599999,3.34345e-05,0.350524,1.49012e-06,-0.000137836,0.128135,0,0.0099496,0.117954,5,0.1,3,8.9,-1.78272,1.24335,1.41761,-0.00106655,-0.601088,0.0190632,0.115812,-0.149518,-0.0420585,0.0113912,2.81215,5,0.1,4,8.9,0.351785,3.92648,1.33508,0.273538,0.376587,0.0161633,0.297386,0.172958,-0.0134557,0.0111865,0.97523,5,0.1,5,8.9,-1.83691,0.794237,1.44827,0.0580547,-0.0780338,0.0674494,-0.00851601,-0.423521,-0.0213236,0.0141709,0.155416,5,0.1,6,8.9,-1.83257,0.142432,0.598886,-0.717004,-0.0817995,-0.00950154,-0.159889,-0.397447,-0.0468642,0.00722312,1.22207,5,0.1,7,8.9,1.46721,-0.45187,0.602472,0.419447,0.00891848,-0.00273287,-0.191577,-0.0279453,0.00329316,0.00799098,0.105863,5,0.1,8,8.9,-1.21405,-5.84995,1.48466,-0.863983,-1.63913e-05,0.0146499,-0.0342503,0.000119209,-0.0135079,0.00993081,2.27393,5,0.1,9,8.9,-1.34462,-2.06876,0.598515,-0.354776,0.0655755,-0.00312123,0.0500157,0.0498891,-0.00238419,0.00687113,0.137514,5,0.1
0,9,-1.80301,2.40544,0.818186,0.182402,-0.030297,-0.348829,-0.0916719,-0.0455379,0.0566244,0.00864821,0.0562051,5,0.1,1,9,3.0801,1.95146,1.35,0.832921,0.000837445,2.98023e-06,-0.0839233,-0.00298023,-5.96046e-05,0.0113288,0.518307,5,0.1,2,9,0.899996,-1.25704,0.599999,2.08616e-05,0.358963,1.49012e-06,-8.9407e-05,0.0256896,0,0.0100052,0.0661049,5,0.1,3,9,-1.78222,1.18316,1.41928,0.0111669,-0.59644,0.0142336,0.122666,0.234544,-0.0523329,0.0112221,3.04307,5,0.1,4,9,0.380712,3.96504,1.33663,0.30503,0.394404,0.0147551,0.300214,0.153184,-0.0149012,0.0115145,0.247961,5,0.1,5,9,-1.84271,0.8,1.44144,0.0576228,-0.0386134,0.0690401,0.0169873,-0.339985,-0.012219,0.014698,0.155416,5,0.1,6,9,-1.90501,0.132301,0.597706,-0.730133,-0.120031,-0.0140131,-0.0616908,-0.350252,-0.0413656,0.010565,0.918699,5,0.1,7,9,1.50811,-0.451108,0.602214,0.397491,0.00639781,-0.00241548,-0.257313,-0.0225306,0.00312924,0.0079,0.157005,5,0.1,8,9,-1.30058,-5.84995,1.48606,-0.866026,0,0.0133157,0,-0.000238419,-0.0135899,0.0104649,1.86724,5,0.1,9,9,-1.37987,-2.06197,0.598191,-0.35004,0.0700831,-0.00333786,0.0642538,0.0355244,-0.00169873,0.00739907,0.0818439,5,0.1
0,9.1,-1.78524,2.40219,0.783606,0.172733,-0.0347078,-0.342309,-0.105388,-0.0402033,0.0848882,0.00864821,0.0562051,5,0.1,1,9.1,3.16298,1.95153,1.35,0.823855,0.000524335,-2.04891e-06,-0.128374,-0.0031814,-3.72529e-05,0.0113288,0.518307,5,0.1,2,9.1,0.899997,-1.22105,0.599999,1.31316e-05,0.360302,1.49012e-06,-7.07805e-05,-0.0123233,0,0.0100052,0.0661049,5,0.1,3,9.1,-1.78027,1.12519,1.42039,0.0294257,-0.558176,0.00755284,0.224769,0.515446,-0.0769719,0.0112221,3.04307,5,0.1,4,9.1,0.41259,4.00511,1.33803,0.330935,0.405399,0.0133496,0.204464,0.0547171,-0.0135452,0.0115145,0.247961,5,0.1,5,9.1,-1.83691,0.794237,1.44827,0.0580547,-0.0780338,0.0674494,-0.00851601,-0.423521,-0.0213236,0.014698,0.155416,5,0.1,6,9.1,-1.97855,0.118515,0.596094,-0.741615,-0.155566,-0.0182106,-0.123322,-0.342962,-0.0405274,0.010565,0.918699,5,0.1,7,9.1,1.54685,-0.450852,0.601986,0.379515,-0.00351849,-0.0021616,-0.128157,-0.158181,0.00208616,0.0079,0.157005,5,0.1,8,9.1,-1.38719,-5.84995,1.48733,-0.866026,-2.01166e-05,0.0120915,0,-0.000149012,-0.01131,0.0104649,1.86724,5,0.1,9,9.1,-1.41464,-2.05478,0.597849,-0.34568,0.0736374,-0.00350811,0.0404269,0.0314265,-0.00150502,0.00739907,0.0818439,5,0.1
0,9.2,-1.76854,2.39854,0.74992,0.160733,-0.0379264,-0.330019,-0.136852,-0.0225306,0.168145,0.00872111,0.0377738,5,0.1,1,9.2,3.24444,1.95156,1.35,0.802094,0.000217557,-2.98023e-06,-0.327349,-0.00292063,-5.96046e-05,0.0103063,0.984743,5,0.1,2,9.2,0.899998,-1.18523,0.599999,7.45058e-06,0.354287,1.49012e-06,-2.98023e-05,-0.116765,0,0.00886842,0.0459942,5,0.1,3,9.2,-1.77616,1.07231,1.42075,0.0530005,-0.49628,-0.000402331,0.233233,0.708401,-0.0787973,0.0142786,3.30378,5,0.1,4,9.2,0.446459,4.04569,1.3393,0.343743,0.40344,0.0119925,0.0433028,-0.101566,-0.0138879,0.0103417,0.105342,5,0.1,5,9.2,-1.84271,0.8,1.44144,0.0576228,-0.0386134,0.0690401,0.0169873,-0.339985,-0.012219,0.0140881,0.155416,5,0.1,6,9.2,-2.05313,0.101373,0.594085,-0.747198,-0.185645,-0.0217676,0.0427961,-0.24635,-0.0291765,0.00911698,0.663788,5,0.1,7,9.2,1.5842,-0.452099,0.60178,0.36737,-0.0221141,-0.00197589,-0.133634,-0.200048,0.00175834,0.00759074,0.0964011,5,0.1,8,9.2,-1.47379,-5.84995,1.48848,-0.866026,-3.57628e-05,0.0109792,0,0,-0.0112057,0.00819692,1.4549,5,0.1,9,9.2,-1.44893,-2.04729,0.597492,-0.338995,0.0756621,-0.00360757,0.105321,0.00655651,-0.000268221,0.00786998,0.0631192,5,0.1
0,9.3,-1.75313,2.39463,0.717707,0.147698,-0.0402179,-0.314436,-0.127897,-0.0207573,0.155415,0.00872111,0.0377738,5,0.1,1,9.3,3.32354,1.95157,1.35,0.783696,-6.74278e-05,-7.82311e-06,-0.0957847,-0.00271201,-2.98023e-05,0.0103063,0.984743,5,0.1,2,9.3,0.899999,-1.15034,0.599999,4.93601e-06,0.343637,1.49012e-06,-1.86265e-05,-0.1105,0,0.00886842,0.0459942,5,0.1,3,9.3,-1.76929,1.02614,1.42028,0.0873184,-0.427833,-0.00926964,0.418939,0.663992,-0.0938028,0.0142786,3.30378,5,0.1,4,9.3,0.480829,4.08548,1.34043,0.341421,0.391652,0.0107054,-0.0908747,-0.144333,-0.0121444,0.0103417,0.105342,5,0.1,5,9.3,-1.83691,0.794237,1.44827,0.0580547,-0.0780338,0.0674494,-0.00851601,-0.423521,-0.0213236,0.0140881,0.155416,5,0.1,6,9.3,-2.12775,0.0815981,0.591765,-0.745354,-0.209295,-0.0245686,0.0296831,-0.213056,-0.0252463,0.00911698,0.663788,5,0.1,7,9.3,1.62037,-0.455337,0.60159,0.356499,-0.0426967,-0.00182781,-0.100702,-0.202835,0.0012964,0.00759074,0.0964011,5,0.1,8,9.3,-1.56039,-5.84996,1.48953,-0.865865,-3.57628e-05,0.00997037,0.0064373,0,-0.00931323,0.00819692,1.4549,5,0.1,9,9.3,-1.48241,-2.03968,0.597129,-0.331311,0.0766292,-0.00365069,0.0665113,0.00846386,-0.000391155,0.00786998,0.0631192,5,0.1
0,9.4,-1.73901,2.39053,0.687098,0.13448,-0.0416517,-0.296949,-0.139117,-0.00619888,0.202298,0.00976769,0.0153625,5,0.1,1,9.4,3.40144,1.95155,1.35,0.773412,-0.000312924,-8.9407e-06,-0.150084,-0.00214577,-5.96046e-05,0.00897865,2.46336,5,0.1,2,9.4,0.899999,-1.11661,0.6,2.98023e-06,0.32981,1.49012e-06,-2.98023e-05,-0.175536,0,0.0124222,0.0821869,5,0.1,3,9.4,-1.75839,0.986625,1.41889,0.130785,-0.362933,-0.0183374,0.424623,0.636041,-0.0839233,0.0149279,3.42711,5,0.1,4,9.4,0.514289,4.12378,1.34144,0.325531,0.372934,0.00951588,-0.2262,-0.236511,-0.0118017,0.00877624,0.816361,5,0.1,5,9.4,-1.84271,0.8,1.44144,0.0576228,-0.0386134,0.0690401,0.0169873,-0.339985,-0.012219,0.0151707,0.155416,5,0.1,6,9.4,-2.20192,0.0597493,0.589199,-0.735259,-0.225978,-0.0265479,0.196457,-0.111418,-0.013262,0.00956755,0.463617,5,0.1,7,9.4,1.65546,-0.460566,0.601414,0.344366,-0.061179,-0.0017032,-0.15384,-0.160545,0.0013113,0.00686333,0.088065,5,0.1,8,9.4,-1.64689,-5.84996,1.49048,-0.863451,-3.57628e-05,0.00905693,0.0514984,0,-0.00929832,0.00947389,1.17774,5,0.1,9,9.4,-1.51515,-2.032,0.596764,-0.322622,0.0766218,-0.00364929,0.119925,-0.0113249,0.000536442,0.00788977,0.0286512,5,0.1
0,9.5,-1.72625,2.38634,0.658421,0.120817,-0.0419132,-0.276401,-0.136025,0.00220537,0.214349,0.00976769,0.0153625,5,0.1,1,9.5,3.47896,1.95107,1.34941,0.783992,-0.0130031,-0.0166696,0.277013,-0.22386,-0.296131,0.00897865,2.46336,5,0.1,2,9.5,0.9,-1.08431,0.6,4.65661e-07,0.317804,1.49012e-06,-1.86265e-05,-0.0853837,0,0.0124222,0.0821869,5,0.1,3,9.5,-1.74271,0.953575,1.41664,0.185302,-0.300127,-0.0264674,0.572562,0.525154,-0.0692904,0.0149279,3.42711,5,0.1,4,9.5,0.546269,4.16038,1.34234,0.318595,0.362876,0.00843536,0.0461675,-0.00298023,-0.0100508,0.00877624,0.816361,5,0.1,5,9.5,-1.83691,0.794237,1.44827,0.0580547,-0.0780338,0.0674494,-0.00851601,-0.423521,-0.0213236,0.0151707,0.155416,5,0.1,6,9.5,-2.27455,0.0366201,0.586481,-0.71745,-0.236071,-0.0277498,0.188515,-0.0796396,-0.00950322,0.00956755,0.463617,5,0.1,7,9.5,1.68924,-0.467306,0.601249,0.332191,-0.0718873,-0.00159843,-0.107229,-0.0570025,0.000875443,0.00686333,0.088065,5,0.1,8,9.5,-1.73246,-5.84996,1.49134,-0.842618,-3.57628e-05,0.00822134,0.364214,0,-0.0077039,0.00947389,1.17774,5,0.1,9,9.5,-1.54681,-2.02441,0.596402,-0.310172,0.0750981,-0.00357777,0.138387,-0.0213087,0.000998378,0.00788977,0.0286512,5,0.1
0,9.6,-1.71485,2.38218,0.631909,0.106975,-0.041014,-0.253163,-0.141978,0.0166893,0.253826,0.0108629,0.00833579,5,0.1,1,9.6,3.55888,1.94847,1.34603,0.814068,-0.0401437,-0.0526577,0.261784,-0.297248,-0.394821,0.00912824,2.27835,5,0.1,2,9.6,0.9,-1.05294,0.6,0,0.309154,1.49012e-06,-2.98023e-05,-0.102699,0,0.0109329,0.158338,5,0.1,3,9.6,-1.72158,0.92559,1.41371,0.233766,-0.265324,-0.0312209,0.374675,0.191569,-0.0255704,0.0135544,4.51501,5,0.1,4,9.6,0.57853,4.19678,1.34313,0.327514,0.365639,0.0074625,0.10106,0.0295639,-0.00953674,0.0107452,0.365259,5,0.1,5,9.6,-1.84271,0.8,1.44144,0.0576228,-0.0386134,0.0690401,0.0169873,-0.339985,-0.012219,0.0152337,0.155416,5,0.1,6,9.6,-2.34517,0.0127393,0.583673,-0.692719,-0.240111,-0.0282377,0.32568,0.00598639,0.000625849,0.00867745,0.31609,5,0.1,7,9.6,1.72189,-0.474633,0.601093,0.319937,-0.0732653,-0.00151247,-0.150025,0.0259429,0.000923872,0.00764122,0.144044,5,0.1,8,9.6,-1.81439,-5.84997,1.49213,-0.791124,-3.57628e-05,0.0074625,0.661373,0.000238419,-0.00756979,0.00874303,1.08789,5,0.1,9,9.6,-1.57704,-2.01703,0.596051,-0.293425,0.0720203,-0.00343323,0.202537,-0.041604,0.00199676,0.00780464,0.0108966,5,0.1
0,9.7,-1.70484,2.37817,0.607843,0.0933295,-0.039148,-0.228231,-0.132389,0.0215918,0.249181,0.0108629,0.00833579,5,0.1,1,9.7,3.64174,1.94278,1.33853,0.843421,-0.0750583,-0.0990711,0.277996,-0.378236,-0.503108,0.00912824,2.27835,5,0.1,2,9.7,0.899999,-1.0222,0.6,-2.42144e-06,0.308398,1.49012e-06,-1.49012e-05,0.056427,0,0.0109329,0.158338,5,0.1,3,9.7,-1.69333,0.903758,1.41027,0.336588,-0.164469,-0.0375139,0.826016,0.764031,-0.0255033,0.0135544,4.51501,5,0.1,4,9.7,0.61188,4.23356,1.34384,0.339844,0.370181,0.00659749,0.123508,0.0413358,-0.00797212,0.0107452,0.365259,5,0.1,5,9.7,-1.83691,0.794237,1.44827,0.0580547,-0.0780338,0.0674494,-0.00851601,-0.423521,-0.0213236,0.0152337,0.155416,5,0.1,6,9.7,-2.41291,-0.0112319,0.580854,-0.662338,-0.238986,-0.0281128,0.305548,0.0252912,0.002902,0.00867745,0.31609,5,0.1,7,9.7,1.75307,-0.481697,0.600947,0.303126,-0.0668642,-0.00141729,-0.190921,0.0958666,0.00100583,0.00764122,0.144044,5,0.1,8,9.7,-1.88939,-5.84997,1.49284,-0.702058,-1.56462e-05,0.00678189,1.07022,0.000149012,-0.00628829,0.00874303,1.08789,5,0.1,9,9.7,-1.60534,-2.01005,0.595718,-0.272178,0.0674397,-0.00321446,0.226371,-0.0508726,0.00242516,0.00780464,0.0108966,5,0.1
0,9.8,-1.69617,2.37438,0.586286,0.0802666,-0.0365496,-0.202641,-0.129759,0.030756,0.265151,0.0097397,0.0025151,5,0.1,1,9.8,3.7272,1.9334,1.32613,0.86233,-0.111821,-0.147992,0.0739098,-0.340044,-0.452876,0.00863258,1.77419,5,0.1,2,9.8,0.899999,-0.991024,0.6,-2.98023e-06,0.315022,1.49012e-06,-2.98023e-05,0.0531077,-2.98023e-05,0.0120613,0.0980705,5,0.1,3,9.8,-1.65791,0.888316,1.40664,0.355554,-0.16254,-0.0332445,-0.0250936,-0.164211,0.0667572,0.013547,3.43728,5,0.1,4,9.8,0.646371,4.27067,1.34446,0.348468,0.370538,0.00583231,0.0335276,-0.0479221,-0.00739098,0.0107701,0.491762,5,0.1,5,9.8,-1.84271,0.8,1.44144,0.0576228,-0.0386134,0.0690401,0.0169873,-0.339985,-0.012219,0.0134849,0.155416,5,0.1,6,9.8,-2.47749,-0.0349139,0.578068,-0.627649,-0.233598,-0.0274852,0.404358,0.0882354,0.0103414,0.00859628,0.212412,5,0.1,7,9.8,1.78233,-0.487832,0.60081,0.281021,-0.0552222,-0.00130683,-0.253677,0.131845,0.0012517,0.00911825,0.197757,5,0.1,8,9.8,-1.9539,-5.84997,1.49348,-0.585786,-1.19209e-05,0.0061661,1.21778,0.000238419,-0.00625849,0.0080729,1.01945,5,0.1,9,9.8,-1.63136,-2.00358,0.595409,-0.247535,0.0617266,-0.00294298,0.268519,-0.0639558,0.00303984,0.00782043,0.00542476,5,0.1
0,9.9,-1.68877,2.37088,0.567337,0.0677556,-0.0332769,-0.176422,-0.120819,0.0349134,0.260297,0.0097397,0.0025151,5,0.1,1,9.9,3.81366,1.92048,1.30902,0.865651,-0.146581,-0.194294,0.00350177,-0.337787,-0.45006,0.00863258,1.77419,5,0.1,2,9.9,0.899999,-0.959162,0.6,-5.02914e-06,0.322632,-9.31323e-07,-7.45058e-06,0.078775,-1.49012e-05,0.0120613,0.0980705,5,0.1,3,9.9,-1.62315,0.871056,1.40371,0.333743,-0.184578,-0.0249827,-0.382438,-0.278253,0.092797,0.013547,3.43728,5,0.1,4,9.9,0.681582,4.30768,1.34501,0.357032,0.371042,0.00516642,0.11038,0.0321269,-0.00608712,0.0107701,0.491762,5,0.1,5,9.9,-1.83691,0.794237,1.44827,0.0580547,-0.0780338,0.0674494,-0.00851601,-0.423521,-0.0213236,0.0134849,0.155416,5,0.1,6,9.9,-2.53834,-0.0578423,0.57537,-0.589954,-0.224881,-0.0264634,0.369102,0.0933697,0.0109486,0.00859628,0.212412,5,0.1,7,9.9,1.80919,-0.492671,0.600686,0.256277,-0.0414185,-0.00118846,-0.246629,0.140319,0.00115111,0.00911825,0.197757,5,0.1,8,9.9,-2.0062,-5.84997,1.49407,-0.459637,7.45058e-06,0.00560395,1.24539,0.000119209,-0.0051856,0.0080729,1.01945,5,0.1,9,9.9,-1.65478,-1.99773,0.59513,-0.22089,0.055285,-0.00263732,0.267349,-0.0654832,0.00310689,0.00782043,0.00542476,5,0.1
0,10,-1.68259,2.36774,0.550995,0.0560492,-0.0295401,-0.150439,-0.113428,0.0396967,0.259757,0.0103962,0.00104537,5,0.1,1,10,3.90016,1.90426,1.2875,0.863731,-0.176421,-0.234064,-0.0457764,-0.246644,-0.329077,0.00875814,1.33798,5,0.1,2,10,0.899998,-0.926599,0.6,-5.96046e-06,0.327322,-2.98023e-06,0,0.000804663,0,0.00792667,0.0784779,5,0.1,3,10,-1.59208,0.851031,1.40168,0.28432,-0.217494,-0.0156403,-0.582218,-0.371397,0.0900626,0.013617,3.36621,5,0.1,4,10,0.71778,4.34491,1.34549,0.36584,0.372505,0.0045836,0.0461042,-0.0209808,-0.00572205,0.0124199,0.363463,5,0.1,5,10,-1.84271,0.8,1.44144,0.0576228,-0.0386134,0.0690401,0.0169873,-0.339985,-0.012219,0.0145702,0.155416,5,0.1,6,10,-2.59542,-0.0798069,0.572785,-0.550544,-0.213719,-0.0251532,0.432611,0.134669,0.015825,0.0106265,0.141802,5,0.1,7,10,1.83356,-0.496123,0.600573,0.23081,-0.0278331,-0.00107139,-0.266075,0.128567,0.00116229,0.00695239,0.323033,5,0.1,8,10,-2.04626,-5.84997,1.49461,-0.34582,1.19209e-05,0.00509322,0.99957,0.000238419,-0.005126,0.00811489,0.94308,5,0.1,9,10,-1.67552,-1.99254,0.594882,-0.193623,0.048542,-0.00231713,0.279665,-0.0697374,0.00330806,0.00801104,0.00164198,5,0.1
