id,t,px,py,pz,vx,vy,vz,ax,ay,az,planning_time,qp_cost,planning_report,size,id,t,px,py,pz,vx,vy,vz,ax,ay,az,planning_time,qp_cost,planning_report,size,id,t,px,py,pz,vx,vy,vz,ax,ay,az,planning_time,qp_cost,planning_report,size,id,t,px,py,pz,vx,vy,vz,ax,ay,az,planning_time,qp_cost,planning_report,size,id,t,px,py,pz,vx,vy,vz,ax,ay,az,planning_time,qp_cost,planning_report,size,id,t,px,py,pz,vx,vy,vz,ax,ay,az,planning_time,qp_cost,planning_report,size,id,t,px,py,pz,vx,vy,vz,ax,ay,az,planning_time,qp_cost,planning_report,size,id,t,px,py,pz,vx,vy,vz,ax,ay,az,planning_time,qp_cost,planning_report,size,id,t,px,py,pz,vx,vy,vz,ax,ay,az,planning_time,qp_cost,planning_report,size,id,t,px,py,pz,vx,vy,vz,ax,ay,az,planning_time,qp_cost,planning_report,size
0,0,-0.100853,1.33785,0.617694,0,0,0,0,0,0,0.0110665,3.5122,5,0.1,1,0,-4.33331,4.12646,0.508261,0,0,0,0,0,0,0.0546634,3.5122,5,0.1,2,0,-1.67538,-1.88259,0.548506,0,0,0,0,0,0,0.025396,3.51219,5,0.1,3,0,0.196947,-0.757386,0.696585,0,0,0,0,0,0,0.00783085,0.448394,5,0.1,4,0,4.67592,1.31005,0.523293,0,0,0,0,0,0,0.007423,0.380402,5,0.1,5,0,-1.53154,-3.94077,0.653054,0,0,0,0,0,0,0.0150426,3.00663,5,0.1,6,0,2.29576,-2.9529,0.521914,0,0,0,0,0,0,0.00884911,2.89394,5,0.1,7,0,-0.933268,-0.0612526,0.645695,0,0,0,0,0,0,0.0102951,3.51219,5,0.1,8,0,3.87348,-0.983346,0.668736,0,0,0,0,0,0,0.0185074,0.713507,5,0.1,9,0,4.03741,-4.48265,0.530968,0,0,0,0,0,0,0.0236862,0.471515,5,0.1
0,0.1,-0.100306,1.33584,0.617687,0.0155397,-0.0571944,-0.00021141,0.276261,-1.0168,-0.00375509,0.0110665,3.5122,5,0.1,1,0.1,-4.33123,4.12635,0.508232,0.0591762,-0.003203,-0.00082422,1.05199,-0.0569522,-0.0146553,0.0546634,3.5122,5,0.1,2,0.1,-1.67578,-1.88069,0.549258,-0.011307,0.0541238,0.0213421,-0.201002,0.962205,0.379417,0.025396,3.51219,5,0.1,3,0.1,0.19705,-0.756674,0.696388,0.00290903,0.0202179,-0.00558859,0.0517163,0.359431,-0.0993498,0.00783085,0.448394,5,0.1,4,0.1,4.67527,1.31024,0.523216,-0.018549,0.00562947,-0.00217212,-0.329733,0.100069,-0.0386126,0.007423,0.380402,5,0.1,5,0.1,-1.53135,-3.93885,0.652999,0.00538025,0.0545491,-0.00157226,0.0956431,0.969782,-0.0279546,0.0150426,3.00663,5,0.1,6,0.1,2.294,-2.95359,0.521982,-0.0501506,-0.0193786,0.00193771,-0.891566,-0.3445,0.0344515,0.00884911,2.89394,5,0.1,7,0.1,-0.935337,-0.0615109,0.645601,-0.0587526,-0.00733259,-0.00266349,-1.04449,-0.130357,-0.0473522,0.0102951,3.51219,5,0.1,8,0.1,3.87272,-0.98279,0.668664,-0.0214398,0.0158052,-0.0020368,-0.381172,0.28098,-0.0362098,0.0185074,0.713507,5,0.1,9,0.1,4.0368,-4.4822,0.53104,-0.0174068,0.0128217,0.00204584,-0.309438,0.227958,0.03637,0.0236862,0.471515,5,0.1
0,0.2,-0.0971495,1.32422,0.617644,0.0491131,-0.180763,-0.000669062,0.368346,-1.35571,-0.00497699,0.0121652,2.92579,5,0.1,1,0.2,-4.31921,4.1257,0.508065,0.187027,-0.0101328,-0.00260472,1.40262,-0.0755787,-0.0195205,0.0563199,2.9258,5,0.1,2,0.2,-1.67808,-1.86969,0.553593,-0.035736,0.171059,0.0674516,-0.267982,1.28293,0.505894,0.021998,2.92579,5,0.1,3,0.2,0.19764,-0.752567,0.695253,0.00919402,0.0638992,-0.0176623,0.0689551,0.479251,-0.132471,0.00822591,0.367884,5,0.1,4,0.2,4.6715,1.31139,0.522775,-0.0586271,0.017792,-0.00686347,-0.439405,0.133395,-0.0514984,0.00827361,0.31211,5,0.1,5,0.2,-1.53026,-3.92777,0.652679,0.0170022,0.172406,-0.00496954,0.127554,1.29294,-0.0372529,0.0130592,2.4668,5,0.1,6,0.2,2.28381,-2.95752,0.522376,-0.158501,-0.0612497,0.00612438,-1.18876,-0.459194,0.0459552,0.00906207,2.37434,5,0.1,7,0.2,-0.947272,-0.0630003,0.64506,-0.185686,-0.0231747,-0.00841767,-1.39269,-0.173807,-0.0631511,0.0112751,2.92579,5,0.1,8,0.2,3.86837,-0.979579,0.66825,-0.0677586,0.0499517,-0.00643879,-0.508189,0.374675,-0.04825,0.0175187,0.585397,5,0.1,9,0.2,4.03326,-4.4796,0.531456,-0.0550151,0.0405192,0.00646412,-0.412703,0.303984,0.0485182,0.0235953,0.386851,5,0.1
0,0.3,-0.0901898,1.2986,0.617549,0.0914762,-0.336682,-0.00124276,0.452689,-1.66613,-0.00613928,0.0121652,2.92579,5,0.1,1,0.3,-4.2927,4.12426,0.507696,0.348344,-0.0188373,-0.00485023,1.7238,-0.0931323,-0.0239946,0.0563199,2.9258,5,0.1,2,0.3,-1.68314,-1.84545,0.563152,-0.0665575,0.318608,0.125634,-0.32936,1.57669,0.621729,0.021998,2.92579,5,0.1,3,0.3,0.198943,-0.743517,0.692752,0.0171039,0.118874,-0.0328582,0.0843788,0.586443,-0.162102,0.00822591,0.367884,5,0.1,4,0.3,4.6632,1.31391,0.521803,-0.109041,0.0330953,-0.0127704,-0.537843,0.16325,-0.0630058,0.00827361,0.31211,5,0.1,5,0.3,-1.52785,-3.90335,0.651976,0.0316331,0.320725,-0.00924347,0.156067,1.58221,-0.0455938,0.0130592,2.4668,5,0.1,6,0.3,2.26136,-2.9662,0.523243,-0.294864,-0.11393,0.0113951,-1.45467,-0.562012,0.0562146,0.00906207,2.37434,5,0.1,7,0.3,-0.973585,-0.0662844,0.643867,-0.345857,-0.0431641,-0.01568,-1.71156,-0.213606,-0.0776015,0.0112751,2.92579,5,0.1,8,0.3,3.85877,-0.972504,0.667338,-0.126053,0.0929298,-0.0119748,-0.62187,0.458464,-0.0590682,0.0175187,0.585397,5,0.1,9,0.3,4.02547,-4.47386,0.532371,-0.102354,0.0753872,0.0120289,-0.504941,0.371903,0.0593551,0.0235953,0.386851,5,0.1
0,0.4,-0.0788171,1.25675,0.617395,0.135092,-0.497213,-0.00183433,0.400257,-1.47313,-0.00542402,0.0102541,2.5106,5,0.1,1,0.4,-4.24939,4.12192,0.507093,0.514424,-0.0278115,-0.00716299,1.52445,-0.0824928,-0.0212193,0.0518525,2.51535,5,0.1,2,0.4,-1.69141,-1.80584,0.578771,-0.098291,0.470519,0.185536,-0.291228,1.39403,0.549734,0.0276717,2.51008,5,0.1,3,0.4,0.201067,-0.728749,0.68867,0.0252247,0.175312,-0.0484586,0.0744313,0.517398,-0.143021,0.00711247,0.291073,5,0.1,4,0.4,4.64966,1.31802,0.520216,-0.160813,0.0488073,-0.0188351,-0.474453,0.144005,-0.0555515,0.0125164,0.246955,5,0.1,5,0.4,-1.52392,-3.86351,0.650827,0.0466526,0.472993,-0.0136316,0.137627,1.39594,-0.0402033,0.0164513,1.95176,5,0.1,6,0.4,2.22473,-2.98035,0.524659,-0.434858,-0.16802,0.0168055,-1.28341,-0.495791,0.0496209,0.00853747,1.8786,5,0.1,7,0.4,-1.01658,-0.0716507,0.641918,-0.510761,-0.0637446,-0.0231564,-1.51336,-0.188868,-0.0686049,0.0106642,2.5139,5,0.1,8,0.4,3.84311,-0.96096,0.665851,-0.185907,0.13705,-0.0176594,-0.548482,0.404477,-0.0520945,0.0171521,0.62898,5,0.1,9,0.4,4.01275,-4.46449,0.533866,-0.150955,0.111187,0.0177413,-0.445366,0.328064,0.0523329,0.0257566,0.306077,5,0.1
0,0.5,-0.0632497,1.19952,0.617184,0.17628,-0.646705,-0.00239303,0.402315,-1.44268,-0.005465,0.0102541,2.5106,5,0.1,1,0.5,-4.19035,4.11872,0.506276,0.664627,-0.036303,-0.0091047,1.41135,-0.0829399,-0.0170283,0.0518525,2.51535,5,0.1,2,0.5,-1.70274,-1.75162,0.600152,-0.12826,0.613971,0.242105,-0.292733,1.40122,0.55255,0.0276717,2.51008,5,0.1,3,0.5,0.203969,-0.708584,0.683096,0.0327767,0.227807,-0.062969,0.0729039,0.506747,-0.140075,0.00711247,0.291073,5,0.1,4,0.5,4.63116,1.32363,0.518056,-0.208957,0.0634193,-0.0243065,-0.464797,0.141054,-0.0514798,0.0125164,0.246955,5,0.1,5,0.5,-1.51856,-3.8091,0.649259,0.060617,0.614625,-0.0177114,0.134803,1.36721,-0.0393875,0.0164513,1.95176,5,0.1,6,0.5,2.17471,-2.99968,0.526592,-0.565071,-0.218325,0.0218392,-1.25697,-0.485629,0.0485815,0.00853747,1.8786,5,0.1,7,0.5,-1.07524,-0.0789964,0.639249,-0.660802,-0.0831797,-0.0302159,-1.41799,-0.189839,-0.0689588,0.0106642,2.5139,5,0.1,8,0.5,3.82157,-0.945195,0.66382,-0.246005,0.178088,-0.0229456,-0.616282,0.396144,-0.0510365,0.0171521,0.62898,5,0.1,9,0.5,3.99539,-4.45171,0.535906,-0.196143,0.144472,0.0230513,-0.436231,0.321299,0.0512563,0.0257566,0.306077,5,0.1
0,0.6,-0.0437496,1.12819,0.616919,0.211938,-0.77323,-0.00287741,0.295866,-1.03676,-0.00402331,0.012391,2.30219,5,0.1,1,0.6,-4.11747,4.1147,0.505291,0.785458,-0.0436544,-0.0104725,0.960588,-0.0610352,-0.00995398,0.0548379,2.33352,5,0.1,2,0.6,-1.71693,-1.6837,0.626933,-0.154203,0.738165,0.291079,-0.215352,1.0305,0.406325,0.0247706,2.25269,5,0.1,3,0.6,0.207584,-0.68346,0.676151,0.0391744,0.272276,-0.0752613,0.0524521,0.364512,-0.100762,0.00845049,0.216696,5,0.1,4,0.6,4.60811,1.33063,0.515391,-0.249743,0.0757992,-0.028725,-0.334501,0.101507,-0.0352263,0.00688086,0.184377,5,0.1,5,0.6,-1.51187,-3.74132,0.647306,0.0724494,0.734603,-0.0211686,0.0969172,0.983596,-0.028342,0.0150744,1.46564,5,0.1,6,0.6,2.11239,-3.02375,0.529001,-0.67538,-0.260943,0.0261024,-0.904083,-0.349402,0.0349581,0.0078548,1.39857,5,0.1,7,0.6,-1.14779,-0.0881977,0.635907,-0.782844,-0.100006,-0.0363275,-0.977039,-0.139609,-0.0507236,0.00970363,2.32638,5,0.1,8,0.6,3.79403,-0.925555,0.661289,-0.302756,0.212851,-0.0274241,-0.491858,0.28497,-0.0367463,0.0197699,0.521276,5,0.1,9,0.6,3.97376,-4.43577,0.538449,-0.234425,0.172675,0.0275493,-0.313759,0.231028,0.0368655,0.0286562,0.227867,5,0.1
0,0.7,-0.0210567,1.04672,0.616611,0.241636,-0.846111,-0.00328152,0.279365,-0.436783,-0.00380352,0.012391,2.30219,5,0.1,1,0.7,-4.03518,4.11003,0.504217,0.850347,-0.0497803,-0.0107971,0.36414,-0.0575781,0.00273064,0.0548379,2.33352,5,0.1,2,0.7,-1.73344,-1.60541,0.6581,-0.175819,0.820552,0.331867,-0.203341,0.603467,0.383705,0.0247706,2.25269,5,0.1,3,0.7,0.211759,-0.654441,0.66813,0.04421,0.30727,-0.0849345,0.0453806,0.315372,-0.0871755,0.00845049,0.216696,5,0.1,4,0.7,4.5815,1.33871,0.512408,-0.281857,0.0855446,-0.0303105,-0.28944,0.0878274,0.00155717,0.00688086,0.184377,5,0.1,5,0.7,-1.50415,-3.66349,0.64505,0.0817554,0.816085,-0.0238898,0.0838861,0.623897,-0.0245236,0.0150744,1.46564,5,0.1,6,0.7,2.04041,-3.05156,0.531783,-0.762177,-0.294489,0.0294579,-0.782229,-0.302315,0.0302345,0.0078548,1.39857,5,0.1,7,0.7,-1.22991,-0.0989056,0.632017,-0.849446,-0.114017,-0.0414182,-0.3796,-0.131793,-0.0478774,0.00970363,2.32638,5,0.1,8,0.7,3.76188,-0.90287,0.658366,-0.334524,0.240209,-0.0309519,-0.153571,0.246543,-0.0317916,0.0197699,0.521276,5,0.1,9,0.7,3.94877,-4.41737,0.541385,-0.264548,0.194855,0.0310889,-0.271484,0.199914,0.0319034,0.0286562,0.227867,5,0.1
0,0.8,0.00435064,0.960744,0.616266,0.264641,-0.866024,-0.00359565,0.167771,-2.98023e-05,-0.00226498,0.0107601,2.2189,5,0.1,1,0.8,-3.94905,4.10479,0.503167,0.866026,-0.0545382,-0.0100628,0,-0.0343323,0.0113249,0.0603395,2.2697,5,0.1,2,0.8,-1.75193,-1.5211,0.692995,-0.192565,0.858197,0.363466,-0.12213,0.156581,0.230461,0.0258219,1.71643,5,0.1,3,0.8,0.216376,-0.622353,0.65926,0.0477679,0.331996,-0.0917688,0.0238419,0.165612,-0.0457764,0.00819447,0.152999,5,0.1,4,0.8,4.55206,1.34764,0.509432,-0.304556,0.0924319,-0.0287816,-0.151873,0.0460744,0.0272989,0.00866918,0.130796,5,0.1,5,0.8,-1.49561,-3.57948,0.642555,0.0883311,0.856757,-0.0258133,0.0440478,0.18537,-0.0128746,0.0155225,1.06909,5,0.1,6,0.8,1.96082,-3.08232,0.534859,-0.823507,-0.318193,0.0318289,-0.410795,-0.158787,0.0158548,0.00768565,0.98898,5,0.1,7,0.8,-1.316,-0.110894,0.627662,-0.866026,-0.124869,-0.0453591,0,-0.0791252,-0.0287592,0.00994856,2.25835,5,0.1,8,0.8,3.72815,-0.877784,0.655134,-0.335503,0.259539,-0.0334442,0.123501,0.129461,-0.0167191,0.01741,0.461969,5,0.1,9,0.8,3.92115,-4.39702,0.544631,-0.285834,0.210524,0.0335887,-0.142574,0.105143,0.0167787,0.0228874,0.160891,5,0.1
0,0.9,0.0316881,0.874142,0.615894,0.281992,-0.866026,-0.00383034,0.161385,0,-0.00219047,0.0107601,2.2189,5,0.1,1,0.9,-3.86245,4.09916,0.502228,0.866026,-0.0580907,-0.00862759,0,-0.033021,0.0167489,0.0603395,2.2697,5,0.1,2,0.9,-1.77179,-1.4348,0.730477,-0.204226,0.865416,0.385472,-0.10024,0.0147447,0.189193,0.0258219,1.71643,5,0.1,3,0.9,0.221266,-0.588363,0.649865,0.0499282,0.347003,-0.0959166,0.0170777,0.118628,-0.0327863,0.00819447,0.152999,5,0.1,4,0.9,4.52088,1.3571,0.506724,-0.318322,0.0966076,-0.0250852,-0.108838,0.0330061,0.0447854,0.00866918,0.130796,5,0.1,5,0.9,-1.48657,-3.49324,0.639912,0.0923229,0.865057,-0.0269801,0.0315681,0.00758469,-0.00922754,0.0155225,1.06909,5,0.1,6,0.9,1.8767,-3.1149,0.538117,-0.855373,-0.332582,0.0332654,-0.20849,-0.113755,0.0113547,0.00768565,0.98898,5,0.1,7,0.9,-1.4026,-0.123792,0.622977,-0.866026,-0.133041,-0.0483288,0,-0.0759214,-0.0275858,0.00994856,2.25835,5,0.1,8,0.9,3.69571,-0.851213,0.651709,-0.308983,0.27127,-0.0349588,0.385582,0.0927299,-0.0119768,0.01741,0.461969,5,0.1,9,0.9,3.89188,-4.37547,0.54807,-0.298754,0.220051,0.0351091,-0.102147,0.0753105,0.0120141,0.0228874,0.160891,5,0.1
0,1,0.0605638,0.787539,0.615502,0.293899,-0.866026,-0.00399351,0.0644255,0,-0.000834465,0.0079415,2.21321,5,0.1,1,1,-3.77585,4.09321,0.501454,0.866026,-0.0605106,-0.00682473,0,-0.0133514,0.0187755,0.05085,2.26956,5,0.1,2,1,-1.7926,-1.34828,0.769765,-0.210801,0.864094,0.397879,-0.0239015,-0.0385642,0.0451803,0.0224876,1.2782,5,0.1,3,1,0.226318,-0.553253,0.64016,0.0508033,0.35308,-0.0975952,-0.00109524,-0.0076592,0.00208616,0.00893747,0.176191,5,0.1,4,1,4.48867,1.36688,0.504456,-0.323892,0.0983,-0.0201568,0.00667572,-0.00214577,0.0522733,0.00896533,0.162121,5,0.1,5,1,-1.47723,-3.40689,0.637183,0.0939399,0.859791,-0.0274524,-0.00202656,-0.124574,0.000566244,0.0122151,0.775176,5,0.1,6,1,1.79056,-3.14855,0.541483,-0.862944,-0.338411,0.033845,0.0616312,0.00727177,-0.000715256,0.00876634,0.679351,5,0.1,7,1,-1.48921,-0.137415,0.618028,-0.866026,-0.138633,-0.05036,0,-0.0301152,-0.0109673,0.0106573,2.25697,5,0.1,8,1,3.66703,-0.823766,0.648172,-0.262296,0.27602,-0.0355735,0.530481,-0.00599027,0.00077486,0.0147075,0.425027,5,0.1,9,1,3.86166,-4.3532,0.551623,-0.303984,0.223911,0.0357255,0.0064373,-0.00476837,-0.00077486,0.0218167,0.185274,5,0.1
0,1.1,0.0903384,0.700937,0.615098,0.301764,-0.866026,-0.00409754,0.0752364,3.72529e-06,-0.0010021,0.0079415,2.21321,5,0.1,1,1.1,-3.68924,4.08708,0.500865,0.866026,-0.0621222,-0.00496311,0,-0.0152886,0.0181012,0.05085,2.26956,5,0.1,2,1.1,-1.81379,-1.26189,0.809766,-0.212761,0.86449,0.401586,-0.00660121,0.00882894,0.0125021,0.0224876,1.2782,5,0.1,3,1.1,0.231426,-0.517751,0.630347,0.0515919,0.358558,-0.0991115,0.0127265,0.0884216,-0.0244528,0.00893747,0.176191,5,0.1,4,1.1,4.45638,1.37676,0.502704,-0.32115,0.0998249,-0.0148921,0.0572801,0.0246242,0.0518747,0.00896533,0.162121,5,0.1,5,1.1,-1.46785,-3.32135,0.634441,0.0935288,0.851923,-0.0273342,-0.0096336,-0.0752807,0.00279769,0.0122151,0.775176,5,0.1,6,1.1,1.70456,-3.18234,0.544863,-0.856335,-0.336931,0.0336976,0.10401,0.0347048,-0.00346825,0.00876634,0.679351,5,0.1,7,1.1,-1.57581,-0.151457,0.612927,-0.866026,-0.142291,-0.0516905,0,-0.0347765,-0.0126474,0.0106573,2.25697,5,0.1,8,1.1,3.64356,-0.796206,0.64462,-0.206126,0.274807,-0.0354171,0.578791,-0.0283606,0.00365824,0.0147075,0.425027,5,0.1,9,1.1,3.83109,-4.33069,0.555215,-0.308712,0.22739,0.0362799,-0.0762343,0.0561476,0.00894815,0.0218167,0.185274,5,0.1
0,1.2,0.120791,0.614334,0.614684,0.305954,-0.866026,-0.00415295,-0.00372529,0,5.96046e-05,0.00820342,2.21708,5,0.1,1,1.2,-3.60264,4.08081,0.500455,0.866026,-0.0629544,-0.00326484,0,0.00119209,0.0156164,0.0528341,2.26958,5,0.1,2,1.2,-1.83502,-1.17556,0.849823,-0.21067,0.859907,0.397642,0.0542402,-0.122368,-0.102311,0.0198355,0.923695,5,0.1,3,1.2,0.236644,-0.481488,0.620323,0.0526354,0.365807,-0.101116,0.00514835,0.0358075,-0.00989437,0.00945515,0.104956,5,0.1,4,1.2,4.42469,1.38686,0.501466,-0.310969,0.101843,-0.00997633,0.152111,0.00995398,0.045687,0.00601277,0.147069,5,0.1,5,1.2,-1.45858,-3.23673,0.631732,0.0914425,0.837541,-0.0267267,-0.0343323,-0.241995,0.0100434,0.0117059,0.545437,5,0.1,6,1.2,1.61974,-3.21573,0.548202,-0.836563,-0.329417,0.032945,0.313699,0.123739,-0.0123382,0.0100633,0.457017,5,0.1,7,1.2,-1.66241,-0.165812,0.607712,-0.866026,-0.144188,-0.0523806,0,0.00255555,0.000923872,0.0082183,2.26898,5,0.1,8,1.2,3.62583,-0.768971,0.64111,-0.149029,0.268674,-0.0346273,0.552535,-0.100911,0.0130236,0.0182477,0.403672,5,0.1,9,1.2,3.79987,-4.30769,0.558884,-0.314963,0.231993,0.037013,-0.0308752,0.0226498,0.00363588,0.0256683,0.110372,5,0.1
0,1.3,0.151337,0.527734,0.614273,0.304405,-0.865886,-0.00404175,-0.0373125,0.00560269,0.00210106,0.00820342,2.21708,5,0.1,1,1.3,-3.51604,4.07451,0.500201,0.866026,-0.0632636,-0.00188053,0,-0.0038445,0.0119582,0.0528341,2.26958,5,0.1,2,1.3,-1.85582,-1.08998,0.889087,-0.205242,0.852761,0.387404,0.0614375,-0.0642389,-0.115931,0.0198355,0.923695,5,0.1,3,1.3,0.241939,-0.444687,0.610151,0.0532596,0.370148,-0.102316,0.00467896,0.0325348,-0.00898167,0.00945515,0.104956,5,0.1,4,1.3,4.3947,1.3971,0.50068,-0.285775,0.103052,-0.00589974,0.338048,0.00905991,0.0355095,0.00601277,0.147069,5,0.1,5,1.3,-1.4496,-3.15406,0.629109,0.0880487,0.816361,-0.0257342,-0.0363886,-0.215858,0.0106432,0.0117059,0.545437,5,0.1,6,1.3,1.5376,-3.24807,0.551436,-0.806227,-0.317185,0.031724,0.320546,0.13113,-0.0130981,0.0100633,0.457017,5,0.1,7,1.3,-1.74898,-0.180259,0.602464,-0.864812,-0.144928,-0.0526493,0.0372455,-0.00913348,-0.00331551,0.0082183,2.26898,5,0.1,8,1.3,3.6136,-0.742597,0.637711,-0.0966016,0.258698,-0.0333401,0.485435,-0.106961,0.0137947,0.0182477,0.403672,5,0.1,9,1.3,3.76819,-4.28435,0.562608,-0.318465,0.234741,0.0374534,-0.0237972,0.0205636,0.00329688,0.0256683,0.110372,5,0.1
0,1.4,0.181469,0.441219,0.613882,0.296834,-0.863786,-0.00374466,-0.12061,0.0447929,0.00375509,0.0100925,2.45393,5,0.1,1,1.4,-3.42944,4.06818,0.500066,0.866026,-0.0631094,-0.000882149,0,0.00929832,0.00792742,0.0512799,2.26969,5,0.1,2,1.4,-1.87598,-1.00522,0.927136,-0.197193,0.839652,0.372215,0.104249,-0.228435,-0.196815,0.0217599,0.921079,5,0.1,3,1.4,0.24727,-0.407639,0.59991,0.0531238,0.369205,-0.102055,-0.00921637,-0.0640154,0.0177324,0.0112558,0.0566121,5,0.1,4,1.4,4.36803,1.40742,0.500249,-0.245905,0.102788,-0.00291467,0.447989,-0.0177622,0.0241995,0.00715532,0.205468,5,0.1,5,1.4,-1.441,-3.07369,0.626595,0.0836939,0.788593,-0.0244603,-0.0526309,-0.362992,0.015378,0.0142941,0.596132,5,0.1,6,1.4,1.45877,-3.27905,0.554535,-0.767866,-0.301486,0.0301555,0.465095,0.189543,-0.0189543,0.00775429,0.303593,5,0.1,7,1.4,-1.83511,-0.194761,0.597195,-0.855646,-0.144618,-0.052537,0.162363,0.0211,0.007689,0.00967443,2.3474,5,0.1,8,1.4,3.60619,-0.717327,0.634455,-0.0536144,0.245894,-0.0316888,0.368476,-0.154585,0.019908,0.016512,0.577448,5,0.1,9,1.4,3.73634,-4.26086,0.566356,-0.317138,0.234139,0.0373587,0.0609159,-0.0407696,-0.0064671,0.0244355,0.0785958,5,0.1
0,1.5,0.210181,0.355706,0.61359,0.274252,-0.840222,-0.00155317,-0.311231,0.41911,0.0360794,0.0100925,2.45393,5,0.1,1,1.5,-3.34283,4.06189,0.500011,0.866026,-0.0627115,-0.000275485,0,0.00220537,0.00434369,0.0512799,2.26969,5,0.1,2,1.5,-1.89534,-0.922102,0.963411,-0.191518,0.82444,0.353353,0.0247881,-0.120848,-0.191618,0.0217599,0.921079,5,0.1,3,1.5,0.25253,-0.371088,0.589798,0.0519722,0.361048,-0.100047,-0.015269,-0.108888,0.025671,0.0112558,0.0566121,5,0.1,4,1.5,4.34578,1.41763,0.50006,-0.198349,0.101609,-0.00104802,0.493139,-0.0111833,0.0133701,0.00715532,0.205468,5,0.1,5,1.5,-1.43291,-2.99746,0.625004,0.0779474,0.728505,-0.00080904,-0.0630543,-0.807509,0.409041,0.0142941,0.596132,5,0.1,6,1.5,1.38421,-3.30829,0.55746,-0.723811,-0.283406,0.028347,0.438891,0.180617,-0.0180677,0.00775429,0.303593,5,0.1,7,1.5,-1.9192,-0.209166,0.591963,-0.823027,-0.143747,-0.0522183,0.360467,0.00450294,0.00165403,0.00967443,2.3474,5,0.1,8,1.5,3.60256,-0.693481,0.631381,-0.0207283,0.231148,-0.0297898,0.267506,-0.14732,0.0189766,0.016512,0.577448,5,0.1,9,1.5,3.70533,-4.23766,0.570058,-0.299298,0.229443,0.0366122,0.281364,-0.0604689,-0.00962615,0.0244355,0.0785958,5,0.1
0,1.6,0.235869,0.274343,0.613642,0.238059,-0.78165,0.0027597,-0.397719,0.742822,0.0470579,0.0107706,2.9396,5,0.1,1,1.6,-3.25623,4.05564,0.500001,0.866026,-0.0620723,1.93715e-05,0,0.0133514,0.00169873,0.0578976,2.26983,5,0.1,2,1.6,-1.9144,-0.840387,0.997722,-0.189543,0.807796,0.332023,0.0261664,-0.243872,-0.242501,0.0245414,0.669287,5,0.1,3,1.6,0.257631,-0.335666,0.579956,0.0498332,0.345846,-0.0963837,-0.0284165,-0.20121,0.0496805,0.00972012,0.0598574,5,0.1,4,1.6,4.32841,1.42771,0.500007,-0.149071,0.099647,-0.000165403,0.484467,-0.0317693,0.00479817,0.00820418,0.201703,5,0.1,5,1.6,-1.42545,-2.92917,0.627288,0.0709713,0.632924,0.0487,-0.0767708,-1.07718,0.543296,0.0133653,0.510159,5,0.1,6,1.6,1.31413,-3.33568,0.5602,-0.676256,-0.263929,0.0263989,0.52762,0.214577,-0.0214875,0.00723665,0.200856,5,0.1,7,1.6,-2,-0.223491,0.586759,-0.796294,-0.142323,-0.0516981,0.176191,0.0297502,0.0107884,0.00970412,2.34063,5,0.1,8,1.6,3.60153,-0.671137,0.628502,-0.00303388,0.215264,-0.027743,0.0787973,-0.175059,0.0225306,0.0176703,0.758373,5,0.1,9,1.6,3.67707,-4.2151,0.573658,-0.263578,0.220847,0.0352427,0.420451,-0.115871,-0.0185072,0.0237984,0.214627,5,0.1
0,1.7,0.257462,0.200519,0.614313,0.192649,-0.689332,0.011985,-0.469,1.07245,0.125766,0.0107706,2.9396,5,0.1,1,1.7,-3.16963,4.04948,0.500009,0.866026,-0.0613317,0.000119396,0,0.00494719,0.000402331,0.0578976,2.26983,5,0.1,2,1.7,-1.933,-0.760647,1.02977,-0.180401,0.787852,0.309203,0.149004,-0.191141,-0.22329,0.0245414,0.669287,5,0.1,3,1.7,0.262407,-0.302401,0.570513,0.0451067,0.316616,-0.0928468,-0.0632554,-0.372194,0.0268705,0.00972012,0.0598574,5,0.1,4,1.7,4.31587,1.43751,0.500006,-0.102549,0.0961717,9.52743e-05,0.438064,-0.0404269,0.000853091,0.00820418,0.201703,5,0.1,5,1.7,-1.41879,-2.87148,0.634584,0.0618821,0.519133,0.0944242,-0.102393,-1.17715,0.374869,0.0133653,0.510159,5,0.1,6,1.7,1.24901,-3.36105,0.562737,-0.626928,-0.243813,0.0243844,0.478134,0.194952,-0.0195242,0.00723665,0.200856,5,0.1,7,1.7,-2.07978,-0.237627,0.581624,-0.807187,-0.140707,-0.0511126,-0.302717,0.010632,0.00384822,0.00970412,2.34063,5,0.1,8,1.7,3.60141,-0.650444,0.625835,-0.00284649,0.198852,-0.0256304,-0.121132,-0.159048,0.0204742,0.0176703,0.758373,5,0.1,9,1.7,3.65298,-4.19366,0.577079,-0.217066,0.207186,0.033061,0.497162,-0.15837,-0.0252873,0.0237984,0.214627,5,0.1
0,1.8,0.274522,0.137278,0.616191,0.150539,-0.572866,0.0258476,-0.351861,1.2309,0.142515,0.010759,3.32576,5,0.1,1,1.8,-3.08303,4.04338,0.500021,0.866026,-0.0604749,0.000119209,0,0.0145435,-0.00038743,0.0517461,2.26999,5,0.1,2,1.8,-1.95014,-0.682972,1.05954,-0.161174,0.763451,0.285792,0.228882,-0.321865,-0.251353,0.0203944,0.481963,5,0.1,3,1.8,0.266564,-0.272804,0.561364,0.0377104,0.273535,-0.0900149,-0.0822842,-0.479355,0.0339746,0.00933837,0.0475638,5,0.1,4,1.8,4.30768,1.44689,0.500017,-0.0627279,0.0911266,8.19564e-05,0.353575,-0.0622272,-0.000834465,0.0111003,0.199166,5,0.1,5,1.8,-1.41314,-2.82547,0.645646,0.0509739,0.40136,0.124343,-0.113666,-1.16146,0.226587,0.0109492,0.380678,5,0.1,6,1.8,1.18875,-3.38444,0.565077,-0.577402,-0.223726,0.0223726,0.525415,0.211716,-0.0211596,0.00804485,0.133091,5,0.1,7,1.8,-2.16218,-0.251622,0.57654,-0.840926,-0.138818,-0.050427,-0.303984,0.0328571,0.0119507,0.0114829,2.26756,5,0.1,8,1.8,3.6,-0.631367,0.623376,-0.0302196,0.182466,-0.02352,-0.41008,-0.172704,0.0222623,0.0172154,1.54597,5,0.1,9,1.8,3.6338,-4.17381,0.580246,-0.166416,0.189078,0.0301689,0.506043,-0.204086,-0.0325143,0.0215389,0.414146,5,0.1
0,1.9,0.287938,0.0861291,0.619647,0.12127,-0.450817,0.0444159,-0.151968,1.18901,0.212342,0.010759,3.32576,5,0.1,1,1.9,-2.99642,4.03738,0.500031,0.866026,-0.0596359,7.26432e-05,0,0.00566244,-0.00051409,0.0517461,2.26999,5,0.1,2,1.9,-1.96498,-0.608099,1.08693,-0.134516,0.734615,0.262424,0.292629,-0.28415,-0.223912,0.0203944,0.481963,5,0.1,3,1.9,0.26985,-0.247911,0.552506,0.0274145,0.223872,-0.0873195,-0.117902,-0.506311,0.0243708,0.00933837,0.0475638,5,0.1,4,1.9,4.303,1.45568,0.500021,-0.0325218,0.0845255,3.91155e-06,0.249147,-0.0708923,-0.000692904,0.0111003,0.199166,5,0.1,5,1.9,-1.40861,-2.79013,0.658818,0.0395315,0.314464,0.13546,-0.113375,-0.620991,0.00885129,0.0109492,0.380678,5,0.1,6,1.9,1.1335,-3.40581,0.567214,-0.528764,-0.204111,0.0204119,0.463486,0.186652,-0.0186674,0.00804485,0.133091,5,0.1,7,1.9,-2.24747,-0.265393,0.571538,-0.86166,-0.136933,-0.049741,-0.11225,0.0127554,0.00464916,0.0114829,2.26756,5,0.1,8,1.9,3.59457,-0.613937,0.621129,-0.0811756,0.166466,-0.0214574,-0.57748,-0.152268,0.0196286,0.0172154,1.54597,5,0.1,9,1.9,3.61963,-4.15589,0.583107,-0.117723,0.169713,0.027083,0.461027,-0.18695,-0.0298023,0.0215389,0.414146,5,0.1
0,2,0.3,0.0467834,0.625154,0.126795,-0.33855,0.0654608,0.247374,1.04256,0.196546,0.0113828,3.41435,5,0.1,1,2,-2.90982,4.03146,0.500036,0.866026,-0.0587463,1.93715e-05,0,0.0143051,-0.000506639,0.0480291,2.27015,5,0.1,2,2,-1.97694,-0.536192,1.11204,-0.104657,0.701678,0.239679,0.296116,-0.394762,-0.236392,0.0182511,0.503307,5,0.1,3,2,0.271982,-0.228047,0.543909,0.0151455,0.173647,-0.0843912,-0.123069,-0.492066,0.0373125,0.0067212,0.459932,5,0.1,4,2,4.30082,1.46376,0.500018,-0.0128865,0.0767827,-5.06639e-05,0.145197,-0.0844598,-0.000357628,0.00922002,0.326202,5,0.1,5,2,-1.40521,-2.7612,0.672139,0.0286132,0.269169,0.128548,-0.103652,-0.320315,-0.135869,0.0107885,0.288317,5,0.1,6,2,1.08294,-3.42529,0.569162,-0.481981,-0.185359,0.018537,0.483334,0.192404,-0.0192523,0.00925315,0.152595,5,0.1,7,2,-2.33395,-0.279002,0.566594,-0.866026,-0.134914,-0.0490069,0,0.0332594,0.0120997,0.0121571,2.25913,5,0.1,8,2,3.5835,-0.598051,0.619081,-0.140065,0.151174,-0.0194862,-0.575066,-0.157028,0.0202656,0.0186529,3.154,5,0.1,9,2,3.61004,-4.13985,0.585666,-0.0753403,0.15105,0.0241071,0.382304,-0.188589,-0.0301003,0.0221294,0.407076,5,0.1
0,2.1,0.314968,0.0174767,0.632739,0.18069,-0.254341,0.086337,0.73811,0.638396,0.203531,0.0113828,3.41435,5,0.1,1,2.1,-2.82322,4.02563,0.500035,0.866026,-0.0579268,-2.29105e-05,0,0.00542402,-0.000342727,0.0480291,2.27015,5,0.1,2,2.1,-1.98594,-0.467714,1.1349,-0.0756964,0.669858,0.217904,0.271305,-0.275554,-0.205748,0.0182511,0.503307,5,0.1,3,2.1,0.27286,-0.213963,0.535668,0.00232719,0.101381,-0.0802703,-0.128794,-0.893031,0.0467077,0.0067212,0.459932,5,0.1,4,2.1,4.30013,1.47105,0.500012,-0.00207499,0.0691799,-6.43544e-05,0.074774,-0.070028,4.09782e-05,0.00922002,0.326202,5,0.1,5,2.1,-1.40284,-2.73535,0.684149,0.0190347,0.252083,0.110236,-0.0870824,-0.055626,-0.220913,0.0107885,0.288317,5,0.1,6,2.1,1.03679,-3.44301,0.570933,-0.444082,-0.170132,0.0170128,0.302836,0.122771,-0.0122935,0.00925315,0.152595,5,0.1,7,2.1,-2.42056,-0.292381,0.561735,-0.866026,-0.133006,-0.0483122,0,0.0126846,0.00461936,0.0121571,2.25913,5,0.1,8,2.1,3.56727,-0.583673,0.617228,-0.179877,0.136757,-0.0176258,-0.285357,-0.135489,0.0174791,0.0186529,3.154,5,0.1,9,2.1,3.60432,-4.12565,0.587932,-0.0402052,0.133145,0.0212489,0.311419,-0.171959,-0.0274554,0.0221294,0.407076,5,0.1
0,2.2,0.336923,-0.00542933,0.642289,0.258671,-0.210204,0.103365,0.756517,0.254234,0.126451,0.0103675,3.16624,5,0.1,1,2.2,-2.73662,4.01987,0.500032,0.866026,-0.0570774,-5.06639e-05,0,0.0140667,-0.000178814,0.0507496,2.27033,5,0.1,2,2.2,-1.99227,-0.402136,1.15567,-0.0521272,0.640761,0.197402,0.19449,-0.330523,-0.208974,0.0208507,0.371542,5,0.1,3,2.2,0.27247,-0.208542,0.527901,-0.00983477,0.00569969,-0.0747964,-0.111163,-0.974208,0.063628,0.00740152,0.333978,5,0.1,4,2.2,4.30021,1.47762,0.500006,0.00276566,0.0623584,-5.06639e-05,0.025034,-0.0681281,0.000238419,0.00793456,0.320503,5,0.1,5,2.2,-1.40134,-2.71022,0.693992,0.0113189,0.251997,0.0860721,-0.0667572,0.0277758,-0.25478,0.012075,0.220462,5,0.1,6,2.2,0.993787,-3.45945,0.572578,-0.416511,-0.158954,0.0158951,0.269383,0.10848,-0.0109076,0.00741003,0.0883745,5,0.1,7,2.2,-2.50716,-0.3056,0.556933,-0.866026,-0.131048,-0.0475988,0,0.0319928,0.0116229,0.00891843,2.25981,5,0.1,8,2.2,3.54794,-0.570667,0.615552,-0.206649,0.123364,-0.0158995,-0.280976,-0.135243,0.017494,0.0178203,2.85485,5,0.1,9,2.2,3.60169,-4.11318,0.589921,-0.0143945,0.116253,0.0185519,0.200391,-0.167847,-0.0267625,0.022436,0.546293,5,0.1
0,2.3,0.366099,-0.0270794,0.652988,0.320122,-0.238725,0.108164,0.472561,-0.704104,-0.02148,0.0103675,3.16624,5,0.1,1,2.3,-2.65001,4.01421,0.500026,0.866026,-0.0562713,-6.16536e-05,0,0.00530481,-4.47035e-05,0.0507496,2.27033,5,0.1,2,2.3,-1.99663,-0.339525,1.17443,-0.0367828,0.612622,0.178297,0.101283,-0.259586,-0.178687,0.0208507,0.371542,5,0.1,3,2.3,0.27079,-0.21286,0.5208,-0.0248434,-0.0914186,-0.0666802,-0.176262,-0.937391,0.0960864,0.00740152,0.333978,5,0.1,4,2.3,4.30064,1.4835,0.500002,0.00612363,0.0549372,-2.76603e-05,0.0334084,-0.0793785,0.000212342,0.00793456,0.320503,5,0.1,5,2.3,-1.40051,-2.68464,0.701259,0.00573937,0.261471,0.0588153,-0.0451878,0.135303,-0.281639,0.012075,0.220462,5,0.1,6,2.3,0.953324,-3.47487,0.574119,-0.393865,-0.149792,0.0149739,0.202164,0.0817776,-0.00822172,0.00741003,0.0883745,5,0.1,7,2.3,-2.59376,-0.318598,0.552212,-0.866026,-0.129244,-0.0469435,0,0.0116732,0.00423938,0.00891843,2.25981,5,0.1,8,2.3,3.52598,-0.558963,0.614044,-0.234453,0.111037,-0.0143058,-0.380889,-0.114806,0.0148304,0.0178203,2.85485,5,0.1,9,2.3,3.60114,-4.10238,0.591645,0.00208616,0.0999667,0.0159547,0.111789,-0.158519,-0.0252798,0.022436,0.546293,5,0.1
0,2.4,0.4,-0.0552357,0.663515,0.353151,-0.329629,0.100744,0.187635,-1.02056,-0.119239,0.00894343,2.73047,5,0.1,1,2.4,-2.56341,4.00862,0.50002,0.866026,-0.0554442,-6.10948e-05,0,0.0133514,2.98023e-05,0.04548,2.27051,5,0.1,2,2.4,-2,-0.279627,1.19138,-0.0324368,0.584199,0.160709,-0.00905991,-0.328041,-0.176907,0.0170597,0.268387,5,0.1,3,2.4,0.267403,-0.22642,0.514648,-0.0428528,-0.17653,-0.0560671,-0.174329,-0.743121,0.113934,0.00646683,0.31255,5,0.1,4,2.4,4.30138,1.48858,0.500001,0.00810623,0.0466585,-1.04308e-05,0.000953674,-0.0854135,0.000149012,0.00767379,0.30259,5,0.1,5,2.4,-1.40013,-2.65781,0.705747,0.00219345,0.274479,0.0312716,-0.0263453,0.1055,-0.262678,0.0122976,0.16908,5,0.1,6,2.4,0.914962,-3.48943,0.575575,-0.3729,-0.141394,0.0141308,0.230372,0.0910759,-0.00914931,0.00805922,0.0687797,5,0.1,7,2.4,-2.68036,-0.331447,0.547545,-0.866026,-0.127412,-0.0462785,0,0.0303686,0.0110567,0.00838818,2.26045,5,0.1,8,2.4,3.5,-0.548423,0.612686,-0.291258,0.0998035,-0.0128552,-0.733614,-0.112385,0.0144839,0.0177454,2.43163,5,0.1,9,2.4,3.60167,-4.09316,0.593116,0.00572801,0.0844598,0.0134811,-0.043869,-0.151873,-0.0242293,0.0192325,1.00037,5,0.1
0,2.5,0.436007,-0.0941193,0.672892,0.364404,-0.453763,0.0859289,0.0331663,-1.36626,-0.171047,0.00894343,2.73047,5,0.1,1,2.5,-2.47681,4.00312,0.500014,0.866026,-0.0546858,-5.47618e-05,0,0.00497699,8.9407e-05,0.04548,2.27051,5,0.1,2,2.5,-2.0035,-0.222706,1.20662,-0.0391673,0.555045,0.144636,-0.110969,-0.27723,-0.149228,0.0170597,0.268387,5,0.1,3,2.5,0.261997,-0.247472,0.50963,-0.0671876,-0.241103,-0.0441615,-0.289422,-0.538434,0.121545,0.00646683,0.31255,5,0.1,4,2.5,4.30224,1.49282,0.5,0.00885725,0.038185,-4.65661e-07,-0.00810623,-0.0834167,6.33299e-05,0.00767379,0.30259,5,0.1,5,2.5,-1.40002,-2.62974,0.707667,0.000188313,0.287542,0.00820737,-0.0140592,0.135183,-0.197969,0.0122976,0.16908,5,0.1,6,2.5,0.878657,-3.50318,0.576949,-0.354378,-0.134038,0.013392,0.159353,0.063315,-0.00635535,0.00805922,0.0687797,5,0.1,7,2.5,-2.76697,-0.344087,0.542954,-0.866026,-0.125728,-0.0456647,0,0.0107177,0.00390783,0.00838818,2.26045,5,0.1,8,2.5,3.46624,-0.538967,0.611468,-0.391221,0.0896215,-0.0115434,-1.17059,-0.0942014,0.0121295,0.0177454,2.43163,5,0.1,9,2.5,3.60192,-4.08545,0.594348,-0.00352338,0.0701956,0.0112049,-0.204712,-0.13414,-0.0214055,0.0192325,1.00037,5,0.1
0,2.6,0.472331,-0.146249,0.680585,0.359225,-0.586211,0.0676215,-0.138119,-1.21188,-0.190198,0.0108031,2.40543,5,0.1,1,2.6,-2.39021,3.99768,0.500009,0.866026,-0.0538945,-4.32134e-05,0,0.0128746,8.9407e-05,0.0413562,2.2707,5,0.1,2,2.6,-2.00804,-0.168652,1.22035,-0.0520468,0.524991,0.130063,-0.135422,-0.339262,-0.145614,0.0161234,0.491797,5,0.1,3,2.6,0.253796,-0.273872,0.505816,-0.0967201,-0.282703,-0.0322193,-0.284001,-0.288337,0.115275,0.00920092,0.347509,5,0.1,4,2.6,4.30294,1.49623,0.5,0.00343323,0.0300884,1.49012e-06,-0.108957,-0.0780225,2.98023e-05,0.00971857,0.263782,5,0.1,5,2.6,-1.40005,-2.60039,0.707608,-0.000691414,0.298005,-0.00827163,-0.0038147,0.0594854,-0.131816,0.0100154,0.215654,5,0.1,6,2.6,0.844027,-3.51627,0.578256,-0.337744,-0.127494,0.012736,0.186861,0.0729561,-0.00730157,0.0102802,0.0312505,5,0.1,7,2.6,-2.85357,-0.356589,0.538413,-0.866026,-0.124001,-0.0450358,0,0.0290871,0.01055,0.00768377,2.26106,5,0.1,8,2.6,3.42119,-0.530466,0.610373,-0.508773,0.0804603,-0.0103623,-1.10948,-0.0911057,0.0116825,0.0160555,1.93165,5,0.1,9,2.6,3.6,-4.07907,0.595366,-0.0400484,0.0575185,0.00918061,-0.510693,-0.120401,-0.0191927,0.0227495,2.7483,5,0.1
0,2.7,0.507511,-0.211006,0.68648,0.343673,-0.707986,0.0510726,-0.179762,-1.15676,-0.142999,0.0108031,2.40543,5,0.1,1,2.7,-2.3036,3.99234,0.500005,0.866026,-0.053158,-3.23169e-05,0,0.00496209,0.000122935,0.0413562,2.2707,5,0.1,2,2.7,-2.014,-0.117836,1.23268,-0.067623,0.491177,0.116901,-0.165015,-0.348499,-0.121541,0.0161234,0.491797,5,0.1,3,2.7,0.243253,-0.302238,0.503149,-0.109233,-0.272872,-0.0213635,0.0110734,0.418257,0.100929,0.00920092,0.347509,5,0.1,4,2.7,4.30262,1.49886,0.5,-0.0117555,0.0226755,2.79397e-06,-0.226319,-0.0698566,0,0.00971857,0.263782,5,0.1,5,2.7,-1.40015,-2.56997,0.706223,-0.00116117,0.312787,-0.0184283,-0.0026226,0.201702,-0.0709593,0.0100154,0.215654,5,0.1,6,2.7,0.811158,-3.52867,0.579494,-0.319675,-0.120473,0.0120337,0.184711,0.0713617,-0.00712648,0.0102802,0.0312505,5,0.1,7,2.7,-2.94017,-0.368893,0.533944,-0.866026,-0.122392,-0.0444531,0,0.0102669,0.00372157,0.00768377,2.26106,5,0.1,8,2.7,3.36447,-0.522843,0.609391,-0.626604,0.072245,-0.00930848,-1.17463,-0.0756495,0.00970438,0.0160555,1.93165,5,0.1,9,2.7,3.59199,-4.07358,0.596193,-0.13178,0.0553526,0.00741743,-1.21541,0.0565946,-0.0161827,0.0227495,2.7483,5,0.1
0,2.8,0.540866,-0.287056,0.690936,0.322184,-0.80653,0.0386164,-0.254095,-0.770658,-0.108004,0.009696,2.27498,5,0.1,1,2.8,-2.217,3.98705,0.500002,0.866026,-0.0523746,-2.08616e-05,0,0.0127554,0.000149012,0.0434009,2.27091,5,0.1,2,2.8,-2.02156,-0.0705513,1.24378,-0.0831366,0.453407,0.105086,-0.137091,-0.414246,-0.11754,0.0165465,0.468775,5,0.1,3,2.8,0.232718,-0.326722,0.501487,-0.0986237,-0.211036,-0.0121832,0.182599,0.765339,0.0821054,0.0109695,0.226858,5,0.1,4,2.8,4.3,1.5008,0.500001,-0.0436306,0.0161827,1.49012e-06,-0.397682,-0.0597239,-2.98023e-05,0.00848747,0.203049,5,0.1,5,2.8,-1.40026,-2.53768,0.704125,-0.000804663,0.332379,-0.022538,0.0109673,0.165105,-0.0123382,0.0103677,0.137047,5,0.1,6,2.8,0.780177,-3.54033,0.58066,-0.299114,-0.112587,0.0112459,0.233144,0.0889301,-0.00888109,0.00907496,0.0121387,5,0.1,7,2.8,-3.02677,-0.381064,0.529524,-0.866026,-0.120717,-0.0438467,0,0.0283122,0.0103116,0.00792446,2.26165,5,0.1,8,2.8,3.29632,-0.515988,0.608508,-0.731277,0.0649109,-0.008367,-0.867128,-0.0728071,0.00938773,0.0158202,1.45966,5,0.1,9,2.8,3.57231,-4.06761,0.596858,-0.263977,0.0651956,0.00592321,-1.3454,0.124216,-0.0137985,0.020602,2.24233,5,0.1
0,2.9,0.571873,-0.370621,0.69432,0.298308,-0.856124,0.0296266,-0.232246,-0.253554,-0.0739656,0.009696,2.27498,5,0.1,1,2.9,-2.1304,3.98186,0.500001,0.866026,-0.0516232,-9.31323e-06,0,0.00523031,8.9407e-05,0.0434009,2.27091,5,0.1,2,2.9,-2.03057,-0.0276319,1.25374,-0.097112,0.401901,0.0945037,-0.133917,-0.599265,-0.0973567,0.0165465,0.468775,5,0.1,3,2.9,0.223984,-0.343557,0.500653,-0.0743092,-0.122387,-0.00476893,0.287974,0.963276,0.0657812,0.0109695,0.226858,5,0.1,4,2.9,4.2933,1.50213,0.500001,-0.0928268,0.0106856,-9.31323e-07,-0.55033,-0.0500381,-1.49012e-05,0.00848747,0.203049,5,0.1,5,2.9,-1.40027,-2.50356,0.701894,0.000893138,0.350094,-0.0212872,0.0269189,0.166923,0.0350997,0.0103677,0.137047,5,0.1,6,2.9,0.75144,-3.55114,0.58174,-0.275438,-0.103585,0.0103471,0.245031,0.0928938,-0.00927225,0.00907496,0.0121387,5,0.1,7,2.9,-3.11338,-0.393042,0.525174,-0.866026,-0.11913,-0.0432679,0,0.0103842,0.00379235,0.00792446,2.26165,5,0.1,8,2.9,3.21914,-0.509834,0.607714,-0.808328,0.0583694,-0.0075236,-0.638187,-0.0600554,0.00774115,0.0158202,1.45966,5,0.1,9,2.9,3.53871,-4.06032,0.597386,-0.41085,0.0815712,0.00467906,-1.51016,0.187725,-0.0111945,0.020602,2.24233,5,0.1
0,3,0.60052,-0.456942,0.696954,0.274253,-0.866025,0.0234306,-0.254869,-1.43051e-05,-0.051707,0.00942149,2.23997,5,0.1,1,3,-2.0438,3.97673,0.5,0.866026,-0.0508249,-2.98023e-06,0,0.0129938,5.96046e-05,0.0377871,1.9871,5,0.1,2,3,-2.04089,0.00937144,1.26271,-0.108469,0.336616,0.0850588,-0.0873804,-0.692429,-0.0939369,0.0145211,0.672432,5,0.1,3,3,0.21806,-0.350953,0.500476,-0.0438098,-0.0261411,0.000916421,0.309914,0.928387,0.0477433,0.0171958,0.153512,5,0.1,4,3,4.28126,1.50297,0.500001,-0.147438,0.00620186,-1.49012e-06,-0.514746,-0.0394583,0,0.00801378,0.139293,5,0.1,5,3,-1.4,-2.46786,0.7,0.00480115,0.362003,-0.0160977,0.0494123,0.0556707,0.0651181,0.0112635,0.146278,5,0.1,6,3,0.725171,-3.56102,0.582726,-0.249372,-0.0937223,0.00936389,0.27898,0.105143,-0.0105202,0.00822025,0.00632961,5,0.1,7,3,-3.19998,-0.404886,0.520872,-0.866026,-0.117452,-0.0426576,0,0.0281036,0.0101924,0.00945618,2.2625,5,0.1,8,3,3.13572,-0.50429,0.607,-0.853574,0.0525489,-0.00677407,-0.248909,-0.0577569,0.00745058,0.0157631,1.074,5,0.1,9,3,3.49035,-4.05122,0.597802,-0.551867,0.10004,0.00366569,-1.25051,0.169992,-0.00917912,0.0208579,1.74295,5,0.1
0,3.1,0.626779,-0.543545,0.69908,0.251749,-0.866026,0.0194589,-0.205208,1.93715e-06,-0.0297129,0.00942149,2.23997,5,0.1,1,3.1,-1.95719,3.9717,0.5,0.866026,-0.0499021,9.31323e-07,0,0.00803173,2.23517e-05,0.0377871,1.9871,5,0.1,2,3.1,-2.05217,0.0394924,1.27078,-0.116884,0.265366,0.0766266,-0.0742227,-0.718972,-0.0774115,0.0145211,0.672432,5,0.1,3,3.1,0.215256,-0.348958,0.500783,-0.0122522,0.0650496,0.00499533,0.311408,0.868985,0.0337772,0.0171958,0.153512,5,0.1,4,3.1,4.26392,1.5034,0.5,-0.199001,0.00268463,-1.49012e-06,-0.493258,-0.0308231,0,0.00801378,0.139293,5,0.1,5,3.1,-1.39895,-2.43142,0.698509,0.0188639,0.366046,-0.0155007,0.209622,0.0113398,-0.0413731,0.0112635,0.146278,5,0.1,6,3.1,0.701607,-3.56988,0.583611,-0.222039,-0.0834323,0.00833496,0.271216,0.102013,-0.0101924,0.00822025,0.00632961,5,0.1,7,3.1,-3.28658,-0.416536,0.516688,-0.866026,-0.115829,-0.040733,0,0.0110604,0.0277571,0.00945618,2.2625,5,0.1,8,3.1,3.04961,-0.499303,0.606357,-0.864885,0.0473721,-0.0061064,-0.0167191,-0.0474695,0.00612065,0.0157631,1.074,5,0.1,9,3.1,3.42887,-4.04033,0.598126,-0.676532,0.118033,0.00285292,-1.18007,0.17795,-0.00716373,0.0208579,1.74295,5,0.1
0,3.2,0.650943,-0.630147,0.7009,0.231498,-0.866026,0.0171334,-0.206858,0,-0.0183582,0.00900329,2.24652,5,0.1,1,3.2,-1.87059,3.96676,0.5,0.866026,-0.0487864,1.49012e-06,-5.96046e-05,0.0162125,2.98023e-05,0.035531,1.55957,5,0.1,2,3.2,-2.06416,0.0624833,1.27807,-0.122195,0.195211,0.0691146,-0.0275373,-0.673847,-0.0748038,0.014417,0.661835,5,0.1,3,3.2,0.215523,-0.338384,0.501428,0.0167869,0.143189,0.0076741,0.26235,0.675589,0.019908,0.0117505,0.0879664,5,0.1,4,3.2,4.24175,1.50353,0.5,-0.242162,3.8743e-05,0,-0.353098,-0.0219941,-2.98023e-05,0.0101657,0.11948,5,0.1,5,3.2,-1.3959,-2.39493,0.696656,0.0427902,0.361985,-0.0222683,0.25177,-0.101566,-0.0846982,0.0106295,0.0879208,5,0.1,6,3.2,0.680768,-3.57771,0.584393,-0.194576,-0.0731111,0.00730306,0.279933,0.105143,-0.0104904,0.0073931,0.00191957,5,0.1,7,3.2,-3.37318,-0.428047,0.512778,-0.866026,-0.114097,-0.0372186,0,0.0283271,0.0419617,0.00805947,2.04692,5,0.1,8,3.2,2.96325,-0.494797,0.605776,-0.860244,0.0427656,-0.00551194,0.115395,-0.0458658,0.00590086,0.0155051,0.777949,5,0.1,9,3.2,3.35586,-4.0277,0.598378,-0.777251,0.133598,0.0022158,-0.790715,0.124693,-0.00569224,0.0183672,1.2874,5,0.1
0,3.3,0.673177,-0.71675,0.702548,0.214102,-0.866026,0.0160358,-0.1515,3.72529e-06,-0.00536069,0.00900329,2.24652,5,0.1,1,3.3,-1.78399,3.96195,0.500001,0.865928,-0.0474025,2.8871e-06,-0.00385195,0.0135154,3.72529e-06,0.035531,1.55957,5,0.1,2,3.3,-2.07651,0.0787164,1.28464,-0.124633,0.130638,0.0624124,-0.0158846,-0.603274,-0.0614822,0.014417,0.661835,5,0.1,3,3.3,0.218457,-0.320904,0.502278,0.0411718,0.203898,0.00916496,0.219985,0.525119,0.0100434,0.0117505,0.0879664,5,0.1,4,3.3,4.21573,1.50344,0.5,-0.277932,-0.00187345,-1.39698e-06,-0.338435,-0.0161678,-3.72529e-06,0.0101657,0.11948,5,0.1,5,3.3,-1.39028,-2.35928,0.693935,0.0700949,0.350132,-0.0326472,0.279553,-0.143856,-0.114907,0.0106295,0.0879208,5,0.1,6,3.3,0.662692,-3.5845,0.585072,-0.167118,-0.0628024,0.00627479,0.269949,0.101328,-0.0101067,0.0073931,0.00191957,5,0.1,7,3.3,-3.45931,-0.439347,0.509295,-0.851736,-0.112083,-0.0322104,0.282288,0.0176802,0.0566244,0.00805947,2.04692,5,0.1,8,3.3,2.87761,-0.490733,0.605252,-0.853267,0.0386601,-0.00498379,0.0669062,-0.0376385,0.00483915,0.0155051,0.777949,5,0.1,9,3.3,3.2747,-4.01372,0.598574,-0.840045,0.1459,0.00172192,-0.445932,0.112027,-0.00425801,0.0183672,1.2874,5,0.1
0,3.4,0.693851,-0.803352,0.704134,0.199404,-0.866026,0.015749,-0.149995,0,-0.00172853,0.0122979,2.25091,5,0.1,1,3.4,-1.69745,3.95729,0.500001,0.864479,-0.0457346,1.49012e-06,-0.0308752,0.0213385,2.98023e-05,0.0363189,1.18926,5,0.1,2,3.4,-2.089,0.0889735,1.29058,-0.124478,0.0768246,0.0564367,0.0224113,-0.464655,-0.0596642,0.0136494,0.63909,5,0.1,3,3.4,0.223568,-0.298226,0.50323,0.0599056,0.246058,0.00971556,0.151269,0.310004,0.00116229,0.0101107,0.0400849,5,0.1,4,3.4,4.18643,1.50318,0.5,-0.305843,-0.00318587,0,-0.203371,-0.0100732,-2.98023e-05,0.00903416,0.139085,5,0.1,5,3.4,-1.38193,-2.32512,0.6901,0.0961483,0.331873,-0.0438616,0.230908,-0.226498,-0.103474,0.00887469,0.15646,5,0.1,6,3.4,0.647317,-3.59028,0.585649,-0.140499,-0.0528157,0.0052765,0.262618,0.0987053,-0.00980496,0.00795407,0.000883262,5,0.1,7,3.4,-3.54263,-0.450446,0.50637,-0.810319,-0.109588,-0.0261843,0.541925,0.0362247,0.0626147,0.00869969,1.82126,5,0.1,8,3.4,2.79283,-0.487051,0.604778,-0.839621,0.0349976,-0.00451207,0.235677,-0.0365824,0.00470877,0.0130161,1.01813,5,0.1,9,3.4,3.18915,-3.99865,0.598727,-0.864249,0.154442,0.00134856,-0.0355244,0.0525713,-0.00324845,0.0218905,1.19674,5,0.1
0,3.5,0.713152,-0.889955,0.705716,0.187456,-0.866026,0.0160167,-0.0993423,3.72529e-06,0.00549108,0.0122979,2.25091,5,0.1,1,3.5,-1.61101,3.95281,0.500001,0.864837,-0.0437979,2.79397e-06,0.00654906,0.0190586,0,0.0363189,1.18926,5,0.1,2,3.5,-2.10134,0.0945037,1.29594,-0.12216,0.0360489,0.0510955,0.0283122,-0.329984,-0.0490025,0.0136494,0.63909,5,0.1,3,3.5,0.230238,-0.272303,0.504197,0.0726608,0.269948,0.0095374,0.101502,0.1627,-0.00451878,0.0101107,0.0400849,5,0.1,4,3.5,4.15475,1.50282,0.5,-0.327861,-0.00395309,-3.72529e-07,-0.213563,-0.00534207,7.45058e-06,0.00903416,0.139085,5,0.1,5,3.5,-1.37126,-2.29308,0.685194,0.115947,0.308394,-0.0541655,0.160627,-0.248,-0.0974685,0.00887469,0.15646,5,0.1,6,3.5,0.634551,-3.59508,0.586129,-0.115145,-0.0432909,0.00432935,0.244029,0.0916421,-0.00911951,0.00795407,0.000883262,5,0.1,7,3.5,-3.62013,-0.461245,0.504066,-0.73359,-0.106482,-0.0199222,0.915721,0.0304859,0.0616051,0.00869969,1.82126,5,0.1,8,3.5,2.7096,-0.48372,0.604348,-0.827919,0.0317242,-0.00409056,0.0525564,-0.0300389,0.00386685,0.0130161,1.01813,5,0.1,9,3.5,3.10262,-3.98295,0.598847,-0.865566,0.159326,0.00107354,0.00950694,0.0377148,-0.00231341,0.0218905,1.19674,5,0.1
0,3.6,0.731415,-0.976557,0.707347,0.177749,-0.866026,0.0165731,-0.102311,0,0.00441074,0.00975844,2.25371,5,0.1,1,3.6,-1.52463,3.94854,0.500001,0.860918,-0.0416338,2.98023e-06,-0.102162,0.0251532,-5.96046e-05,0.0348826,0.90673,5,0.1,2,3.6,-2.11337,0.096802,1.30081,-0.118089,0.013545,0.0463188,0.0560284,-0.113789,-0.0478625,0.0151957,0.831726,5,0.1,3,3.6,0.237914,-0.24477,0.50512,0.0798579,0.277884,0.00885278,0.0412911,-0.00602007,-0.0089705,0.00925869,0.0140835,5,0.1,4,3.6,4.12104,1.5024,0.5,-0.344574,-0.00427067,0,-0.104666,-0.00113249,0,0.00689257,0.0820685,5,0.1,5,3.6,-1.35901,-2.26355,0.679334,0.127584,0.281489,-0.062485,0.0695586,-0.292897,-0.0653565,0.0109569,0.139952,5,0.1,6,3.6,0.624222,-3.59896,0.586517,-0.0917777,-0.034517,0.00345558,0.222921,0.0836849,-0.00834465,0.0100795,0.00071566,5,0.1,7,3.6,-3.68878,-0.471719,0.502373,-0.639236,-0.102712,-0.0140414,0.927448,0.0481308,0.0552833,0.00829798,1.60686,5,0.1,8,3.6,2.62713,-0.480695,0.603958,-0.819784,0.028792,-0.00371337,0.149012,-0.0294298,0.0038147,0.0153132,0.746654,5,0.1,9,3.6,3.01623,-3.9669,0.598944,-0.860447,0.160754,0.000874698,0.111699,-0.0140667,-0.00175834,0.0173954,0.881946,5,0.1
0,3.7,0.748775,-1.06316,0.709037,0.170153,-0.866026,0.0172876,-0.0596568,0,0.00842661,0.00975844,2.25371,5,0.1,1,3.7,-1.43881,3.94433,0.500001,0.856769,-0.0437595,-1.30385e-06,-0.0273511,-0.0564158,-2.98023e-05,0.0348826,0.90673,5,0.1,2,3.7,-2.12491,0.0978315,1.30522,-0.112681,0.0108256,0.0420343,0.0557452,0.106552,-0.039354,0.0151957,0.831726,5,0.1,3,3.7,0.246043,-0.217182,0.505956,0.0820594,0.272168,0.00782982,0.00221189,-0.10875,-0.0112951,0.00925869,0.0140835,5,0.1,4,3.7,4.08609,1.50197,0.5,-0.353484,-0.00425279,0,-0.0588894,0.00141561,0,0.00689257,0.0820685,5,0.1,5,3.7,-1.34615,-2.23686,0.672781,0.127311,0.252406,-0.0682911,-0.0668317,-0.291735,-0.0476018,0.0109569,0.139952,5,0.1,6,3.7,0.616119,-3.60201,0.586823,-0.0707104,-0.0266094,0.00266638,0.197794,0.0742525,-0.00741333,0.0100795,0.00071566,5,0.1,7,3.7,-3.74808,-0.481768,0.501229,-0.549794,-0.0983361,-0.00899257,0.761062,0.04315,0.0452586,0.00829798,1.60686,5,0.1,8,3.7,2.54566,-0.477951,0.603604,-0.810828,0.0261578,-0.00337223,0.07312,-0.0242107,0.00313297,0.0153132,0.746654,5,0.1,9,3.7,2.93051,-3.9509,0.599024,-0.855321,0.159194,0.000730716,0.0369847,-0.0231415,-0.00117719,0.0173954,0.881946,5,0.1
0,3.8,0.765495,-1.14976,0.710804,0.164083,-0.866026,0.018011,-0.0689626,0,0.00491738,0.0107834,2.25549,5,0.1,1,3.8,-1.35346,3.93962,0.500001,0.847533,-0.0509262,-4.47035e-06,-0.19002,-0.0783205,2.98023e-05,0.0309395,0.64935,5,0.1,2,3.8,-2.13588,0.1,1.30923,-0.106341,0.0377927,0.0381857,0.0735521,0.41502,-0.0386834,0.013602,0.975771,5,0.1,3,3.8,0.254192,-0.19068,0.50668,0.0802547,0.256187,0.00663102,-0.0382364,-0.209897,-0.0124574,0.0100227,0.0053439,5,0.1,4,3.8,4.05062,1.50156,0.5,-0.353932,-0.00400245,0,0.0593662,0.00345707,0,0.00676731,0.141731,5,0.1,5,3.8,-1.33392,-2.21309,0.665764,0.115746,0.222677,-0.0714883,-0.157237,-0.304341,-0.0142753,0.00834852,0.195432,5,0.1,6,3.8,0.60999,-3.60432,0.587054,-0.0523195,-0.0197113,0.00197738,0.169605,0.063777,-0.0063777,0.0099219,0.000565496,5,0.1,7,3.8,-3.8,-0.491369,0.500537,-0.495958,-0.0934497,-0.00505,0.326753,0.057146,0.0334382,0.0103624,1.34809,5,0.1,8,3.8,2.46511,-0.475454,0.603282,-0.797838,0.0237867,-0.00306517,0.216722,-0.0238866,0.00306964,0.0127351,2.41766,5,0.1,9,3.8,2.84535,-3.93515,0.599091,-0.8452,0.155133,0.000630319,0.197768,-0.0622272,-0.000864267,0.0165906,0.627198,5,0.1
0,3.9,0.781641,-1.23637,0.712638,0.159414,-0.866026,0.018697,-0.0340566,0,0.00744686,0.0107834,2.25549,5,0.1,1,3.9,-1.26951,3.93407,0.500001,0.831986,-0.0605151,-2.04891e-06,-0.158273,-0.104874,1.49012e-05,0.0309395,0.64935,5,0.1,2,3.9,-2.14616,0.106645,1.31287,-0.0993934,0.101364,0.034721,0.0684112,0.792392,-0.031881,0.013602,0.975771,5,0.1,3,3.9,0.261995,-0.166182,0.50728,0.075468,0.233071,0.00536777,-0.0577383,-0.252292,-0.0126362,0.0100227,0.0053439,5,0.1,4,3.9,4.01531,1.50118,0.5,-0.353951,-0.00357274,0,-0.0332147,0.00499934,0,0.00676731,0.141731,5,0.1,5,3.9,-1.32324,-2.19229,0.658545,0.0971761,0.193875,-0.0727754,-0.20802,-0.275135,-0.00811368,0.00834852,0.195432,5,0.1,6,3.9,0.605563,-3.60598,0.587222,-0.036682,-0.0138324,0.00138907,0.142746,0.0536591,-0.00536814,0.0099219,0.000565496,5,0.1,7,3.9,-3.84898,-0.500445,0.500179,-0.492033,-0.08818,-0.00232626,-0.173941,0.051342,0.0213236,0.0103624,1.34809,5,0.1,8,3.9,2.38545,-0.47255,0.602991,-0.802717,0.0397034,-0.0027596,-0.228599,0.301305,0.00307336,0.0127351,2.41766,5,0.1,9,3.9,2.76167,-3.91993,0.599151,-0.828904,0.149091,0.000562426,0.165209,-0.0635535,-0.000532717,0.0165906,0.627198,5,0.1
0,4,0.797405,-1.32297,0.71454,0.155611,-0.866026,0.0192702,-0.0489354,0,0.00303984,0.00932894,2.23819,5,0.1,1,4,-1.1873,3.92751,0.500001,0.809574,-0.0704229,-1.49012e-06,-0.315607,-0.0867844,0,0.032006,0.453219,5,0.1,2,4,-2.15575,0.120931,1.31619,-0.0921488,0.185,0.0315934,0.0784397,0.831652,-0.0315309,0.0128324,1.14973,5,0.1,3,4,0.269219,-0.144203,0.507755,0.0687003,0.205843,0.00413209,-0.0774413,-0.291266,-0.0118911,0.0112948,0.00173981,5,0.1,4,4,3.97977,1.50085,0.5,-0.356019,-0.00302494,0,0.0109673,0.00584126,0,0.00736872,0.0856656,5,0.1,5,4,-1.3146,-2.17425,0.65126,0.0752658,0.167078,-0.0725538,-0.225067,-0.262976,0.0146925,0.00890912,0.191069,5,0.1,6,4,0.602561,-3.60712,0.587335,-0.0238225,-0.0090003,0.0009045,0.114292,0.0430346,-0.00429153,0.00932823,0.00034957,5,0.1,7,4,-3.89938,-0.508996,0.500035,-0.517684,-0.0826597,-0.000716746,-0.282764,0.0611544,0.0112653,0.00676397,1.06035,5,0.1,8,4,2.30388,-0.466815,0.602731,-0.82863,0.076779,-0.00244528,-0.225902,0.408471,0.00324845,0.0141762,2.61123,5,0.1,9,4,2.6798,-3.90538,0.599204,-0.805902,0.141591,0.00051707,0.320315,-0.0895262,-0.000417233,0.0172784,0.434734,5,0.1
0,4.1,0.812791,-1.40957,0.716488,0.152591,-0.866026,0.0197348,-0.0206269,0,0.00498071,0.00932894,2.23819,5,0.1,1,4.1,-1.1078,3.92001,0.500001,0.780865,-0.0794832,-1.49012e-06,-0.288926,-0.0878125,0,0.032006,0.453219,5,0.1,2,4.1,-2.16459,0.143039,1.3192,-0.0848364,0.25171,0.0287667,0.0703484,0.505488,-0.0260472,0.0128324,1.14973,5,0.1,3,4.1,0.275686,-0.125097,0.50811,0.0604928,0.176104,0.0029875,-0.0861567,-0.301572,-0.0108778,0.0112948,0.00173981,5,0.1,4,4.1,3.94418,1.50058,0.5,-0.355902,-0.00242181,0,0.00837445,0.00610948,0,0.00736872,0.0856656,5,0.1,5,4.1,-1.3082,-2.15881,0.644094,0.0528287,0.142104,-0.070563,-0.217944,-0.238135,0.0266619,0.00890912,0.191069,5,0.1,6,4.1,0.60071,-3.60782,0.587406,-0.0136028,-0.00515431,0.000520516,0.0900365,0.0338852,-0.00338629,0.00932823,0.00034957,5,0.1,7,4.1,-3.953,-0.516974,0.500008,-0.557749,-0.0770148,6.63102e-05,-0.46134,0.0543073,0.00482798,0.00676397,1.06035,5,0.1,8,4.1,2.22108,-0.456812,0.602502,-0.816444,0.125253,-0.002144,0.432789,0.52765,0.0028275,0.0141762,2.61123,5,0.1,9,4.1,2.60069,-3.89165,0.599254,-0.776758,0.133102,0.000485778,0.292704,-0.0843853,-0.000238419,0.0172784,0.434734,5,0.1
0,4.2,0.827933,-1.49617,0.718481,0.149916,-0.866026,0.0200495,-0.0393987,0,0.000476837,0.00976323,0.118123,5,0.1,1,4.2,-1.03131,3.91167,0.5,0.746685,-0.0868559,-1.49012e-06,-0.415444,-0.0550747,0,0.0296744,0.310526,5,0.1,2,4.2,-2.17272,0.17022,1.32195,-0.0776529,0.286863,0.0262052,0.0752211,0.202298,-0.025928,0.0155817,0.562214,5,0.1,3,4.2,0.281295,-0.108998,0.508357,0.0515841,0.145905,0.00197738,-0.0914484,-0.30059,-0.00926852,0.00966864,0.00141944,5,0.1,4,4.2,3.90874,1.50036,0.5,-0.351477,-0.0018239,0,0.0917912,0.00590086,0,0.00736473,0.151236,5,0.1,5,4.2,-1.30396,-2.14576,0.637201,0.0326186,0.119179,-0.0669792,-0.182509,-0.221372,0.0459254,0.0133118,0.321784,5,0.1,6,4.2,0.59976,-3.60818,0.587443,-0.00580847,-0.00222325,0.000226498,0.0660121,0.0249147,-0.00247359,0.00870269,0.000164502,5,0.1,7,4.2,-4.011,-0.524398,0.500031,-0.600088,-0.0713661,0.000327826,-0.3438,0.0604987,0.000745058,0.00852922,0.804822,5,0.1,8,4.2,2.14243,-0.441677,0.602301,-0.748998,0.176504,-0.00187159,0.883818,0.47271,0.00268221,0.0140304,2.92823,5,0.1,9,4.2,2.52463,-3.87878,0.599302,-0.742298,0.124031,0.000463426,0.417113,-0.100017,-0.000238419,0.0183925,0.296007,5,0.1
0,4.3,0.842611,-1.58213,0.720492,0.142539,-0.846839,0.0201626,-0.105571,0.377662,0.00077486,0.00976323,0.118123,5,0.1,1,4.3,-0.958597,3.90271,0.5,0.708206,-0.092252,-1.49012e-06,-0.379089,-0.0476688,0,0.0296744,0.310526,5,0.1,2,4.3,-2.18013,0.199236,1.32445,-0.0707112,0.287452,0.023878,0.0657737,-0.158141,-0.0214726,0.0155817,0.562214,5,0.1,3,4.3,0.285996,-0.0958897,0.508511,0.0424582,0.116515,0.00112224,-0.0903271,-0.285061,-0.00777096,0.00966864,0.00141944,5,0.1,4,4.3,3.87378,1.50021,0.5,-0.34957,-0.00127256,0,-0.0253767,0.0050962,0,0.00736473,0.151236,5,0.1,5,4.3,-1.30152,-2.13488,0.630752,0.0170374,0.0992291,-0.0617906,-0.129364,-0.180453,0.0578761,0.0133118,0.321784,5,0.1,6,4.3,0.599477,-3.60829,0.587454,-0.000169314,-9.61125e-05,1.47149e-05,0.0469834,0.0177324,-0.00176579,0.00870269,0.000164502,5,0.1,7,4.3,-4.07288,-0.53125,0.500064,-0.638109,-0.0657997,0.00031637,-0.372142,0.0529625,-0.000815839,0.00852922,0.804822,5,0.1,8,4.3,2.07278,-0.421448,0.602126,-0.637473,0.22932,-0.00163233,1.28204,0.548599,0.00216439,0.0140304,2.92823,5,0.1,9,4.3,2.45236,-3.86685,0.599347,-0.703678,0.114683,0.000445638,0.380069,-0.0904202,-0.000145286,0.0183925,0.296007,5,0.1
0,4.4,0.856246,-1.66435,0.722506,0.129318,-0.791958,0.0200346,-0.156224,0.711441,-0.00402331,0.0073063,0.0456293,5,0.1,1,4.4,-0.889778,3.89329,0.5,0.666672,-0.0955224,0,-0.468642,-0.0139475,-2.98023e-05,0.0314728,0.210472,5,0.1,2,4.4,-2.18687,0.226812,1.32673,-0.0641406,0.260939,0.0217617,0.067234,-0.347495,-0.0213981,0.015082,0.328295,5,0.1,3,4.4,0.289797,-0.085623,0.508587,0.0336528,0.0892667,0.000433624,-0.0852048,-0.258304,-0.00593066,0.00984639,0.00140167,5,0.1,4,4.4,3.83869,1.50011,0.5,-0.351661,-0.000813603,0,0.00405312,0.00417233,0,0.00847183,0.0925633,5,0.1,5,4.4,-1.30038,-2.12581,0.624882,0.00662506,0.0825942,-0.0554189,-0.079751,-0.154257,0.0694096,0.00872657,0.3165,5,0.1,6,4.4,0.599665,-3.60822,0.587448,0.00363886,0.0013411,-0.00012964,0.0295341,0.0110865,-0.00110269,0.0102722,5.85066e-05,5,0.1,7,4.4,-4.1383,-0.537563,0.50009,-0.66694,-0.0604108,0.000192225,-0.17333,0.0562966,-0.00154972,0.00650427,0.584528,5,0.1,8,4.4,2.01567,-0.395885,0.601973,-0.503716,0.280185,-0.00142902,1.34659,0.443295,0.00193715,0.014496,3.18916,5,0.1,9,4.4,2.384,-3.85584,0.599391,-0.662118,0.105363,0.000430644,0.467896,-0.0983477,-0.000178814,0.0185164,0.511299,5,0.1
0,4.5,0.868306,-1.73988,0.724506,0.111124,-0.717475,0.0200896,-0.202369,0.781395,0.00337511,0.0073063,0.0456293,5,0.1,1,4.5,-0.825321,3.88367,0.5,0.623247,-0.0967737,-1.02445e-06,-0.420544,-0.00692904,3.72529e-06,0.0314728,0.210472,5,0.1,2,4.5,-2.19297,0.25091,1.32881,-0.0579845,0.219349,0.0198392,0.0576824,-0.448827,-0.0177696,0.015082,0.328295,5,0.1,3,4.5,0.292747,-0.0779418,0.508603,0.025477,0.064859,-8.81031e-05,-0.0776984,-0.228283,-0.00448525,0.00984639,0.00140167,5,0.1,4,4.5,3.80348,1.50004,0.5,-0.352782,-0.00045374,0,-0.00818074,0.00303984,0,0.00847183,0.0925633,5,0.1,5,4.5,-1.30013,-2.1183,0.61969,-0.0015486,0.0676543,-0.0484071,-0.0751019,-0.144154,0.0707768,0.00872657,0.3165,5,0.1,6,4.5,0.600154,-3.60804,0.58743,0.00592535,0.00219829,-0.000215601,0.0165515,0.00621378,-0.000622123,0.0102722,5.85066e-05,5,0.1,7,4.5,-4.20592,-0.54334,0.500102,-0.68494,-0.0552534,4.73112e-05,-0.151426,0.0486337,-0.00133365,0.00650427,0.584528,5,0.1,8,4.5,1.97211,-0.36556,0.601839,-0.368534,0.326416,-0.00126213,1.27953,0.450985,0.00146031,0.014496,3.18916,5,0.1,9,4.5,2.31968,-3.84577,0.599433,-0.627666,0.0962652,0.000416301,0.261441,-0.0865459,-0.00013411,0.0185164,0.511299,5,0.1
0,4.6,0.878367,-1.80759,0.726532,0.0898063,-0.635311,0.0204071,-0.219584,0.862479,0.00169873,0.00754485,0.0755958,5,0.1,1,4.6,-0.765158,3.874,0.5,0.579077,-0.0962138,0,-0.477046,0.0209808,0,0.0349838,0.182296,5,0.1,2,4.6,-2.19848,0.270656,1.33071,-0.0522971,0.176665,0.018084,0.0572205,-0.385404,-0.0177026,0.0174479,0.699557,5,0.1,3,4.6,0.294923,-0.072537,0.508574,0.0182152,0.0438645,-0.000460446,-0.0671148,-0.190638,-0.00295043,0.00948056,0.00104474,5,0.1,4,4.6,3.76827,1.50001,0.5,-0.350207,-0.000199676,0,0.07236,0.00208616,0,0.0103059,0.159866,5,0.1,5,4.6,-1.3006,-2.11224,0.615205,-0.00705719,0.0538468,-0.0412822,-0.0303984,-0.131965,0.0715852,0.0121863,0.299051,5,0.1,6,4.6,0.60081,-3.6078,0.587406,0.00702292,0.00261068,-0.00025779,0.00575185,0.00226498,-0.000238419,0.0136018,1.76653e-05,5,0.1,7,4.6,-4.27489,-0.548623,0.500101,-0.691307,-0.0503793,-7.00355e-05,0.048399,0.0500381,-0.000983477,0.00954775,0.409203,5,0.1,8,4.6,1.94107,-0.330855,0.60172,-0.259218,0.365211,-0.00112653,0.870228,0.303566,0.0012517,0.0194778,3.20834,5,0.1,9,4.6,2.25815,-3.83658,0.599474,-0.602853,0.0875652,0.000400841,0.264168,-0.0896454,-0.000149012,0.0160415,0.450986,5,0.1
0,4.7,0.886255,-1.86712,0.728585,0.0680704,-0.558086,0.0206683,-0.212111,0.701256,0.00239909,0.00754485,0.0755958,5,0.1,1,4.7,-0.709498,3.86432,0.5,0.53505,-0.0985362,0,-0.420753,-0.0542402,0,0.0349838,0.182296,5,0.1,2,4.7,-2.20345,0.286458,1.33243,-0.047091,0.141903,0.0164913,0.0484139,-0.241058,-0.0147447,0.0174479,0.699557,5,0.1,3,4.7,0.296425,-0.0690494,0.508515,0.0119926,0.026451,-0.000698585,-0.0569727,-0.156843,-0.00182167,0.00948056,0.00104474,5,0.1,4,4.7,3.73334,1.5,0.5,-0.35036,-2.94298e-05,0,-0.0463128,0.0013411,0,0.0103059,0.159866,5,0.1,5,4.7,-1.30147,-2.10749,0.611426,-0.0101065,0.0414584,-0.0343592,-0.00903755,-0.115618,0.0668354,0.0121863,0.299051,5,0.1,6,4.7,0.601528,-3.60753,0.58738,0.00720713,0.00268854,-0.000266917,-0.00167638,-0.000581145,4.47035e-05,0.0136018,1.76653e-05,5,0.1,7,4.7,-4.34382,-0.553427,0.50009,-0.686802,-0.0458152,-0.000143703,0.0700355,0.0427328,-0.000510365,0.00954775,0.409203,5,0.1,8,4.7,1.91886,-0.292774,0.601613,-0.19384,0.396148,-0.00102203,0.348307,0.288676,0.00089407,0.0194778,3.20834,5,0.1,9,4.7,2.19977,-3.82824,0.599514,-0.559391,0.0793416,0.000387337,0.583261,-0.0772625,-0.000130385,0.0160415,0.450986,5,0.1
0,4.8,0.892034,-1.91956,0.730658,0.0479072,-0.491729,0.0206947,-0.188977,0.639796,-0.0026226,0.0114684,0.140753,5,0.1,1,4.8,-0.658118,3.85416,0.5,0.492011,-0.104749,0,-0.451893,-0.0600815,0,0.0337579,0.134231,5,0.1,2,4.8,-2.20792,0.3,1.33401,-0.0423551,0.134484,0.0150353,0.0473261,0.0841916,-0.014782,0.0178696,1.11726,5,0.1,3,4.8,0.297359,-0.0671275,0.508438,0.00687689,0.0126069,-0.000827014,-0.0451654,-0.11972,-0.000745058,0.0118956,0.000575007,5,0.1,4,4.8,3.69807,1.5,0.5,-0.354433,7.45058e-05,0,-0.0139475,0.000715256,0,0.0130585,0.098067,5,0.1,5,4.8,-1.30237,-2.10389,0.608316,-0.0059098,0.03075,-0.0279248,0.10103,-0.0984669,0.06181,0.0108297,0.260355,5,0.1,6,4.8,0.602231,-3.60727,0.587354,0.00676066,0.00252724,-0.00025183,-0.00685453,-0.0026226,0.000238419,0.0100068,8.59629e-06,5,0.1,7,4.8,-4.41192,-0.557797,0.500073,-0.672555,-0.0415787,-0.000175834,0.234365,0.0430644,-0.000178814,0.0081755,0.279317,5,0.1,8,4.8,1.9,-0.251918,0.601515,-0.195014,0.418466,-0.000938773,-0.337481,0.1394,0.000804663,0.0132275,2.95855,5,0.1,9,4.8,2.14712,-3.82069,0.599552,-0.49026,0.0716865,0.000371039,0.780463,-0.0772476,-0.000178814,0.0229347,1.54964,5,0.1
0,4.9,0.895938,-1.96602,0.732713,0.030777,-0.441355,0.0203917,-0.153139,0.398301,-0.00414252,0.0114684,0.140753,5,0.1,1,4.9,-0.611041,3.84355,0.5,0.450515,-0.105901,0,-0.392448,0.0326186,0,0.0337579,0.134231,5,0.1,2,4.9,-2.21193,0.314863,1.33545,-0.0380713,0.170898,0.0137046,0.0395924,0.573492,-0.0123233,0.0178696,1.11726,5,0.1,3,4.9,0.297837,-0.0664157,0.508353,0.00284873,0.00213165,-0.000864081,-0.035271,-0.0896682,-2.23517e-05,0.0118956,0.000575007,5,0.1,4,4.9,3.66249,1.50001,0.5,-0.357277,0.00012517,0,-0.0241101,0.000312924,0,0.0130585,0.098067,5,0.1,5,4.9,-1.30233,-2.10128,0.605821,0.00882614,0.0217404,-0.0221118,0.224657,-0.0817031,0.0544563,0.0108297,0.260355,5,0.1,6,4.9,0.602866,-3.60703,0.58733,0.00589909,0.00219904,-0.000221003,-0.0100322,-0.0037998,0.000361353,0.0100068,8.59629e-06,5,0.1,7,4.9,-4.47806,-0.561754,0.500055,-0.650188,-0.0376672,-0.000178069,0.236154,0.0364147,0.000111759,0.0081755,0.279317,5,0.1,8,4.9,1.87736,-0.209458,0.601424,-0.269631,0.429511,-0.000874046,-1.04492,0.0657691,0.000532717,0.0132275,2.95855,5,0.1,9,4.9,2.10241,-3.81388,0.599588,-0.401034,0.0646461,0.000354461,0.962526,-0.0656098,-0.000163913,0.0229347,1.54964,5,0.1
0,5,0.898313,-2.00835,0.734725,0.0173315,-0.406706,0.01975,-0.115722,0.317693,-0.00917912,0.0148663,0.0826665,5,0.1,1,5,-0.56795,3.83325,0.5,0.411075,-0.0990748,0,-0.406355,0.0998974,0,0.0303248,0.114605,5,0.1,2,5,-2.21555,0.335149,1.33676,-0.034219,0.236709,0.0124872,0.0382662,0.688598,-0.0123382,0.0207001,0.300924,5,0.1,3,5,0.297962,-0.0666006,0.508268,-0.000164658,-0.00533164,-0.000835955,-0.0249743,-0.0597574,0.000566244,0.0103593,0.000234569,5,0.1,4,5,3.62675,1.50003,0.5,-0.356078,0.000143051,0,0.0612736,0,0,0.00976943,0.0792066,5,0.1,5,5,-1.3,-2.09949,0.60387,0.0407338,0.0144064,-0.017032,0.39953,-0.0652075,0.0471771,0.0130261,0.199397,5,0.1,6,5,0.603403,-3.60683,0.58731,0.00481606,0.00178814,-0.000181794,-0.0113547,-0.00417233,0.000417233,0.0153379,7.87309e-06,5,0.1,7,5,-4.54174,-0.565341,0.500038,-0.621438,-0.0340834,-0.000156462,0.354528,0.0361204,0.000268221,0.00899305,0.219112,5,0.1,8,5,1.84475,-0.166404,0.60134,-0.384617,0.429041,-0.000824034,-1.17099,-0.0852269,0.000536442,0.0172804,2.58863,5,0.1,9,5,2.06714,-3.80774,0.599623,-0.304806,0.0582099,0.000335276,0.932932,-0.0646114,-0.000208616,0.0157533,1.16259,5,0.1
0,5.1,0.89953,-2.04765,0.736652,0.00760974,-0.380955,0.0187813,-0.0798367,0.21781,-0.0106208,0.0148663,0.0826665,5,0.1,1,5.1,-0.528545,3.82394,0.5,0.379675,-0.0862684,0,-0.246637,0.150934,0,0.0303248,0.114605,5,0.1,2,5.1,-2.21879,0.362159,1.33795,-0.0307702,0.301834,0.0113757,0.0317693,0.590015,-0.0102893,0.0207001,0.300924,5,0.1,3,5.1,0.297834,-0.0673943,0.508188,-0.00226283,-0.010167,-0.000759959,-0.0170358,-0.0372715,0.000923872,0.0103593,0.000234569,5,0.1,4,5.1,3.59135,1.50004,0.5,-0.352439,0.000132248,0,0.0310689,-0.000193715,0,0.00976943,0.0792066,5,0.1,5,5.1,-1.29358,-2.09835,0.602389,0.090229,0.00860021,-0.0126966,0.554286,-0.0510216,0.0395812,0.0130261,0.199397,5,0.1,6,5.1,0.603827,-3.60667,0.587294,0.00364846,0.00135712,-0.000138674,-0.0117384,-0.00433624,0.000435859,0.0153379,7.87309e-06,5,0.1,7,5.1,-4.60174,-0.568425,0.500024,-0.575195,-0.0263694,-0.000124518,0.557959,0.109319,0.000353903,0.00899305,0.219112,5,0.1,8,5.1,1.79984,-0.123919,0.601259,-0.51707,0.420349,-0.000782218,-1.38997,-0.103607,0.000339001,0.0172804,2.58863,5,0.1,9,5.1,2.04124,-3.80222,0.599655,-0.215179,0.0523549,0.000315811,0.817597,-0.0541955,-0.00018999,0.0157533,1.16259,5,0.1
0,5.2,0.899943,-2.08469,0.738472,0.00114888,-0.359613,0.0175565,-0.0504553,0.223756,-0.0141859,0.00923841,0.507389,5,0.1,1,5.2,-0.491715,3.81611,0.5,0.357401,-0.0698507,0,-0.217289,0.173092,0,0.033977,0.146012,5,0.1,2,5.2,-2.22171,0.394969,1.33903,-0.0276864,0.350725,0.0103623,0.030756,0.371799,-0.0103116,0.0220728,1.00189,5,0.1,3,5.2,0.297535,-0.0685626,0.508117,-0.00358671,-0.012861,-0.000655651,-0.00956655,-0.0170469,0.00116229,0.0104961,7.21718e-05,5,0.1,4,5.2,3.55634,1.50005,0.5,-0.346553,0.000104308,0,0.0998974,-0.000238419,0,0.00698517,0.10887,5,0.1,5,5.2,-1.28177,-2.09772,0.601305,0.145286,0.00417829,-0.00910461,0.520051,-0.0375509,0.0323057,0.0102032,0.135374,5,0.1,6,5.2,0.604134,-3.60656,0.587282,0.00251234,0.000929832,-9.68575e-05,-0.0108182,-0.00393391,0.000417233,0.0104064,6.5984e-06,5,0.1,7,5.2,-4.65622,-0.570454,0.500014,-0.512159,-0.0137985,-8.79169e-05,0.692368,0.135154,0.000357628,0.0137097,0.173729,5,0.1,8,5.2,1.74142,-0.0825317,0.601183,-0.647381,0.405826,-0.000746548,-1.15216,-0.196792,0.000357628,0.0160753,2.32446,5,0.1,9,5.2,2.02337,-3.79725,0.599686,-0.147289,0.0470698,0.000295043,0.522137,-0.0525713,-0.000238419,0.0203618,1.08004,5,0.1
0,5.3,0.899841,-2.12012,0.740153,-0.00286093,-0.353768,0.0160324,-0.0304617,-0.0621527,-0.0163503,0.00923841,0.507389,5,0.1,1,5.3,-0.456923,3.81,0.5,0.339388,-0.0524014,0,-0.159482,0.172436,0,0.033977,0.146012,5,0.1,2,5.3,-2.22434,0.432423,1.34002,-0.0249229,0.402097,0.00943374,0.0253618,0.597322,-0.00859052,0.0220728,1.00189,5,0.1,3,5.3,0.297138,-0.069909,0.508057,-0.00426765,-0.0138327,-0.000534486,-0.00419281,-0.00290712,0.00124052,0.0104961,7.21718e-05,5,0.1,4,5.3,3.522,1.50006,0.5,-0.341531,7.72998e-05,0,0.0232011,-0.000290573,0,0.00698517,0.10887,5,0.1,5,5.3,-1.26462,-2.09747,0.600546,0.1974,0.000953302,-0.00620354,0.498876,-0.0271052,0.0257939,0.0102032,0.135374,5,0.1,6,5.3,0.604332,-3.60648,0.587274,0.0014768,0.00055097,-5.70901e-05,-0.00973418,-0.00359118,0.000376254,0.0104064,6.5984e-06,5,0.1,7,5.3,-4.70368,-0.571267,0.500006,-0.434915,-0.00346946,-5.45755e-05,0.817865,0.074733,0.000305474,0.0137097,0.173729,5,0.1,8,5.3,1.67111,-0.0428601,0.60111,-0.755656,0.387956,-0.000719912,-0.962853,-0.175425,0.000216067,0.0160753,2.32446,5,0.1,9,5.3,2.0108,-3.79279,0.599714,-0.109718,0.042326,0.000273064,0.181705,-0.0437498,-0.000208616,0.0203618,1.08004,5,0.1
0,5.4,0.899431,-2.15598,0.741671,-0.00508279,-0.364202,0.0142843,-0.0146925,-0.11301,-0.0186563,0.00812559,0.840661,5,0.1,1,5.4,-0.423797,3.8056,0.5,0.322687,-0.0359654,0,-0.186235,0.154018,0,0.0347493,0.283434,5,0.1,2,5.4,-2.22671,0.475598,1.34092,-0.022465,0.460058,0.00858605,0.0245571,0.518918,-0.00858307,0.0227155,0.560432,5,0.1,3,5.4,0.296698,-0.0712871,0.50801,-0.0044547,-0.0135453,-0.000411272,0.000298023,0.00815466,0.00119209,0.0101987,2.39453e-05,5,0.1,4,5.4,3.48799,1.50007,0.5,-0.338024,5.06639e-05,0,0.0631809,-0.000357628,0,0.00700755,0.184095,5,0.1,5,5.4,-1.24258,-2.0975,0.600044,0.241092,-0.00126958,-0.00392944,0.358701,-0.0177622,0.0197589,0.0111723,0.11302,5,0.1,6,5.4,0.604434,-3.60644,0.58727,0.000593066,0.000226498,-2.38419e-05,-0.00789762,-0.00298023,0.000327826,0.0108774,4.18155e-06,5,0.1,7,5.4,-4.7431,-0.571318,0.500002,-0.354123,0.00175983,-2.83122e-05,0.777006,0.0326931,0.000238419,0.0115157,0.284067,5,0.1,8,5.4,1.59136,-0.0050051,0.601039,-0.832134,0.368244,-0.000695884,-0.538945,-0.228966,0.000298023,0.0168822,2.08249,5,0.1,9,5.4,2,-3.78877,0.59974,-0.113395,0.0380754,0.00025183,-0.23216,-0.0422001,-0.000238419,0.0212014,1.21749,5,0.1
0,5.5,0.8989,-2.19354,0.743007,-0.00507692,-0.391385,0.0124545,0.0122152,-0.376329,-0.0180192,0.00812559,0.840661,5,0.1,1,5.5,-0.392407,3.80272,0.5,0.305357,-0.0221465,0,-0.170976,0.121757,0,0.0347493,0.283434,5,0.1,2,5.5,-2.22884,0.524212,1.34174,-0.0202645,0.511468,0.00781342,0.0201613,0.474205,-0.00715256,0.0227155,0.560432,5,0.1,3,5.5,0.29626,-0.072588,0.507974,-0.00426904,-0.0123561,-0.000295229,0.00324659,0.0150944,0.00111759,0.0101987,2.39453e-05,5,0.1,4,5.5,3.45418,1.50007,0.5,-0.34058,1.69501e-05,0,-0.0820756,-0.000305474,0,0.00700755,0.184095,5,0.1,5,5.5,-1.21664,-2.0977,0.599742,0.27741,-0.00270866,-0.00219708,0.343725,-0.0111312,0.014957,0.0111723,0.11302,5,0.1,6,5.5,0.604457,-3.60644,0.587269,-0.000121351,-4.35859e-05,5.30854e-06,-0.00631437,-0.00239909,0.000257045,0.0108774,4.18155e-06,5,0.1,7,5.5,-4.77467,-0.571061,0.500001,-0.279671,0.00266032,-1.04308e-05,0.64069,-0.0105165,0.00012666,0.0115157,0.284067,5,0.1,8,5.5,1.5063,0.0307742,0.60097,-0.862172,0.34798,-0.000673532,-0.119448,-0.190339,0.000186265,0.0168822,2.08249,5,0.1,9,5.5,1.98653,-3.78516,0.599764,-0.163814,0.0342797,0.000230037,-0.703499,-0.0349134,-0.000201166,0.0212014,1.21749,5,0.1
0,5.6,0.89848,-2.23462,0.744163,-0.0031054,-0.43,0.0106663,0.0251532,-0.355601,-0.0177324,0.00787779,1.00957,5,0.1,1,5.6,-0.362771,3.80106,0.5,0.286711,-0.0116825,0,-0.209153,0.0873804,0,0.0279029,0.263928,5,0.1,2,5.6,-2.23077,0.577421,1.34249,-0.0183046,0.548983,0.00711083,0.0194311,0.252038,-0.00715256,0.0149569,0.585683,5,0.1,3,5.6,0.295853,-0.0737404,0.50795,-0.00383705,-0.0106253,-0.000190735,0.00523031,0.019066,0.000923872,0.0122223,1.84227e-05,5,0.1,4,5.6,3.41969,1.50007,0.5,-0.348848,-1.19209e-05,0,-0.0598431,-0.000238419,0,0.0168213,0.114759,5,0.1,5,5.6,-1.18737,-2.09802,0.599589,0.305802,-0.00352263,-0.000923872,0.207782,-0.00536442,0.0106096,0.0137521,0.0561504,5,0.1,6,5.6,0.604416,-3.60645,0.587271,-0.000658631,-0.00025034,2.68221e-05,-0.00435114,-0.00166893,0.000178814,0.0085919,1.93765e-06,5,0.1,7,5.6,-4.8,-0.57089,0.5,-0.232768,0.000403821,-1.49012e-06,0.301123,-0.0313222,5.96046e-05,0.0129345,0.212356,5,0.1,8,5.6,1.41979,0.0645907,0.600904,-0.866026,0.327796,-0.000652671,5.96046e-05,-0.2231,0.000268221,0.0103331,1.62266,5,0.1,9,5.6,1.96635,-3.7819,0.599786,-0.241271,0.0308931,0.000208616,-0.79,-0.0337362,-0.000178814,0.0173043,0.986485,5,0.1
0,5.7,0.89828,-2.27976,0.744959,-0.00102744,-0.475072,0.00371439,0.0170991,-0.495076,-0.109676,0.00787779,1.00957,5,0.1,1,5.7,-0.335122,3.80034,0.5,0.266357,-0.00265725,0,-0.204608,0.0849217,0,0.0279029,0.263928,5,0.1,2,5.7,-2.23251,0.633707,1.34317,-0.0165652,0.577055,0.00646766,0.0159591,0.271723,-0.00595301,0.0149569,0.585683,5,0.1,3,5.7,0.295497,-0.0747035,0.507936,-0.00325232,-0.0086077,-0.000104494,0.00631623,0.0208449,0.000789762,0.0122223,1.84227e-05,5,0.1,4,5.7,3.38443,1.50007,0.5,-0.356652,-3.35276e-05,0,-0.0753403,-0.000178814,0,0.0168213,0.114759,5,0.1,5,5.7,-1.15586,-2.09839,0.599544,0.322809,-0.00380389,-3.66941e-05,0.120357,-0.000491738,0.00721216,0.0137521,0.0561504,5,0.1,6,5.7,0.604331,-3.60648,0.587274,-0.00102259,-0.000390038,4.14439e-05,-0.00291318,-0.00111759,0.000108033,0.0085919,1.93765e-06,5,0.1,7,5.7,-4.82241,-0.571037,0.5,-0.220778,-0.00355281,1.95578e-06,-0.020653,-0.0449643,1.11759e-05,0.0129345,0.212356,5,0.1,8,5.7,1.33319,0.0960019,0.60084,-0.865927,0.298142,-0.000630226,0.00389665,-0.360319,0.000204891,0.0103331,1.62266,5,0.1,9,5.7,1.93793,-3.77897,0.599806,-0.329025,0.027867,0.000191852,-0.909984,-0.0277907,-0.000163913,0.0173043,0.986485,5,0.1
0,5.8,0.898254,-2.32963,0.744709,0.000432134,-0.520265,-0.00919998,0.0125766,-0.372052,-0.139594,0.0121608,0.799357,5,0.1,1,5.8,-0.309545,3.80045,0.5,0.244683,0.00402331,0,-0.233248,0.0442266,0,0.0260641,1.17594,5,0.1,2,5.8,-2.23409,0.692551,1.34378,-0.0150084,0.59693,0.00588298,0.0154972,0.0994802,-0.00596046,0.016831,0.843983,5,0.1,3,5.8,0.295205,-0.0754601,0.507929,-0.00260174,-0.00653397,-3.42727e-05,0.00658631,0.0202879,0.000625849,0.0134801,1.78792e-05,5,0.1,4,5.8,3.3485,1.50007,0.5,-0.36037,-5.06639e-05,0,0.015378,-0.000119209,0,0.011483,0.0662052,5,0.1,5,5.8,-1.1232,-2.09877,0.599571,0.327945,-0.00367165,0.000536442,-0.0249147,0.00298023,0.00432134,0.0162203,0.0834904,5,0.1,6,5.8,0.604216,-3.60653,0.587279,-0.00123829,-0.000476837,4.91738e-05,-0.00143051,-0.000476837,5.96046e-05,0.00759145,6.55631e-07,5,0.1,7,5.8,-4.84485,-0.57162,0.5,-0.229716,-0.00808984,1.49012e-06,-0.126362,-0.0436604,0,0.0089868,0.188958,5,0.1,8,5.8,1.24665,0.123855,0.600778,-0.864461,0.257548,-0.000607967,0.0312924,-0.443078,0.000327826,0.00939858,1.19782,5,0.1,9,5.8,1.90065,-3.77631,0.599825,-0.413755,0.0251651,0.000175834,-0.744641,-0.0269413,-0.000178814,0.0224297,0.149631,5,0.1
0,5.9,0.898311,-2.38364,0.743026,0.000360701,-0.559949,-0.0248872,-0.00843033,-0.382155,-0.165425,0.0121608,0.799357,5,0.1,1,5.9,-0.286267,3.80119,0.5,0.220617,0.0110965,0,-0.249233,0.0580698,0,0.0260641,1.17594,5,0.1,2,5.9,-2.23552,0.753103,1.34434,-0.0136204,0.616447,0.00534747,0.0127554,0.241183,-0.00493973,0.016831,0.843983,5,0.1,3,5.9,0.294977,-0.0760134,0.507928,-0.00194325,-0.00455297,2.10479e-05,0.00646897,0.0190292,0.000476837,0.0134801,1.78792e-05,5,0.1,4,5.9,3.31255,1.50006,0.5,-0.358034,-6.0536e-05,0,0.0444502,-6.70552e-05,0,0.011483,0.0662052,5,0.1,5,5.9,-1.09044,-2.09911,0.599643,0.327934,-0.00324026,0.000861473,0.00597537,0.00539422,0.00225008,0.0162203,0.0834904,5,0.1,6,5.9,0.604087,-3.60658,0.587284,-0.00132835,-0.000506267,5.2806e-05,-0.000383705,-0.000104308,1.11759e-05,0.00759145,6.55631e-07,5,0.1,7,5.9,-4.86867,-0.572794,0.5,-0.248305,-0.0165715,1.11759e-06,-0.218153,-0.114921,-7.45058e-06,0.0089868,0.188958,5,0.1,8,5.9,1.16021,0.147296,0.600719,-0.864825,0.210518,-0.00057919,-0.00675023,-0.487963,0.000271946,0.00939858,1.19782,5,0.1,9,5.9,1.85613,-3.77392,0.599841,-0.470834,0.0227511,0.000159536,-0.394128,-0.0221431,-0.000152737,0.0224297,0.149631,5,0.1
0,6,0.898307,-2.44129,0.739727,-0.000354648,-0.589997,-0.0407681,-0.00244379,-0.191212,-0.145793,0.0135876,0.61326,5,0.1,1,6,-0.265485,3.80238,0.5,0.194685,0.0100315,0,-0.269756,-0.0962019,0,0.0241256,3.59531,5,0.1,2,6,-2.23681,0.815853,1.34485,-0.0123739,0.636624,0.00486076,0.0126362,0.12657,-0.00488758,0.0151445,2.51101,5,0.1,3,6,0.294814,-0.0763777,0.507933,-0.0013262,-0.00277888,6.10948e-05,0.00576675,0.0162385,0.000298023,0.014678,1.33306e-05,5,0.1,4,6,3.27711,1.50005,0.5,-0.349319,-6.55651e-05,0,0.13864,-5.96046e-05,0,0.00690913,0.125976,5,0.1,5,6,-1.05769,-2.09941,0.599737,0.325951,-0.00262856,0.00100136,-0.0587106,0.0064373,0.000655651,0.00916161,0.153895,5,0.1,6,6,0.603954,-3.60663,0.587289,-0.00131875,-0.000500679,5.21541e-05,0.000536442,0.000238419,-2.98023e-05,0.00826274,1.80336e-07,5,0.1,7,6,-4.89456,-0.575068,0.500001,-0.26865,-0.0291273,0,-0.1688,-0.127703,0,0.00820523,0.135278,5,0.1,8,6,1.07384,0.165899,0.600662,-0.860906,0.161668,-0.000549853,0.10246,-0.481464,0.000327826,0.0133826,0.120472,5,0.1,9,6,1.80767,-3.77176,0.599857,-0.492424,0.0205934,0.000143051,-0.0389814,-0.0214577,-0.000119209,0.0212673,0.258414,5,0.1
0,6.1,0.898231,-2.50128,0.734912,-0.00113659,-0.609184,-0.0554428,-0.00183284,-0.161305,-0.141066,0.0135876,0.61326,5,0.1,1,6.1,-0.247109,3.80292,0.5,0.174999,-0.00316352,0,-0.139703,-0.314146,0,0.0241256,3.59531,5,0.1,2,6.1,-2.23799,0.881207,1.34532,-0.0112362,0.678572,0.00441894,0.0105202,0.616346,-0.00409782,0.0151445,2.51101,5,0.1,3,6.1,0.29471,-0.0765782,0.50794,-0.000781333,-0.001274,8.54023e-05,0.00506453,0.0136923,0.000182539,0.014678,1.33306e-05,5,0.1,4,6.1,3.24262,1.50005,0.5,-0.342271,-6.94767e-05,0,0.0279844,-7.45058e-06,0,0.00690913,0.125976,5,0.1,5,6.1,-1.0251,-2.09964,0.599839,0.327907,-0.00197254,0.00101123,0.0683106,0.00654161,-0.000394881,0.00916161,0.153895,5,0.1,6,6.1,0.603826,-3.60668,0.587294,-0.00123447,-0.000466406,4.79631e-05,0.00112131,0.000447035,-4.84288e-05,0.00826274,1.80336e-07,5,0.1,7,6.1,-4.92229,-0.578513,0.500001,-0.285766,-0.0387309,0,-0.156015,-0.0659004,0,0.00820523,0.135278,5,0.1,8,6.1,0.988799,0.17974,0.600609,-0.834485,0.116048,-0.000520051,0.423063,-0.427669,0.000283122,0.0133826,0.120472,5,0.1,9,6.1,1.7582,-3.7698,0.59987,-0.496854,0.0186719,0.000131596,-0.02639,-0.017643,-0.000108033,0.0212673,0.258414,5,0.1
0,6.2,0.898177,-2.56275,0.728715,0.000870228,-0.617015,-0.0678554,0.0464916,0.0259876,-0.10246,0.0163741,0.458217,5,0.1,1,6.2,-0.230199,3.8,0.5,0.163976,-0.0653923,0,-0.092715,-0.909805,0,0.0241926,3.15243,5,0.1,2,6.2,-2.23907,0.952305,1.34574,-0.0102043,0.743128,0.00401139,0.0104904,0.603169,-0.00399351,0.0181232,0.201481,5,0.1,3,6.2,0.294655,-0.0766424,0.507949,-0.000324845,-6.6869e-05,9.83477e-05,0.00403821,0.0103563,5.96046e-05,0.0102186,7.34095e-06,5,0.1,4,6.2,3.20852,1.50004,0.5,-0.339299,-7.15256e-05,0,0.0504255,5.96046e-05,0,0.0080615,0.0766577,5,0.1,5,6.2,-0.991956,-2.0998,0.599937,0.334504,-0.00134706,0.000932813,0.0420809,0.00584126,-0.00110269,0.0139219,0.0936107,5,0.1,6,6.2,0.603709,-3.60672,0.587299,-0.00109971,-0.000411272,4.17233e-05,0.00154972,0.000476837,-8.9407e-05,0.00820673,9.281e-08,5,0.1,7,6.2,-4.95151,-0.582624,0.500001,-0.296915,-0.0426263,0,-0.0548363,-0.0136197,-2.98023e-05,0.0161686,0.232211,5,0.1,8,6.2,0.907971,0.189318,0.600558,-0.777169,0.0766706,-0.000488758,0.717431,-0.357777,0.000327826,0.0182983,0.059613,5,0.1,9,6.2,1.70856,-3.76802,0.599883,-0.493801,0.0169456,0.000120699,0.103295,-0.0174046,-0.000119209,0.0147384,2.94634,5,0.1
0,6.3,0.898549,-2.62434,0.721428,0.0076022,-0.61439,-0.0776412,0.10515,0.0516921,-0.0881106,0.0163741,0.458217,5,0.1,1,6.3,-0.214109,3.78761,0.5,0.15904,-0.192559,0,-0.0195755,-1.52104,0,0.0241926,3.15243,5,0.1,2,6.3,-2.24004,1.02883,1.34612,-0.00926852,0.779353,0.0036519,0.00858307,0.124041,-0.00332296,0.0181232,0.201481,5,0.1,3,6.3,0.294642,-0.0766016,0.507959,3.73926e-05,0.000839401,0.000100862,0.00317581,0.00770763,-3.72529e-06,0.0102186,7.34095e-06,5,0.1,4,6.3,3.17477,1.50003,0.5,-0.335944,-6.53788e-05,0,0.0332892,6.70552e-05,0,0.0080615,0.0766577,5,0.1,5,6.3,-0.958227,-2.09991,0.600024,0.340263,-0.000816211,0.000801124,0.0539795,0.00472367,-0.00148267,0.0139219,0.0936107,5,0.1,6,6.3,0.603607,-3.60676,0.587303,-0.000933651,-0.000357255,3.28757e-05,0.00174716,0.000581145,-8.56817e-05,0.00820673,9.281e-08,5,0.1,7,6.3,-4.98143,-0.586865,0.5,-0.300764,-0.0413833,-1.76951e-06,-0.0113845,0.0350401,-1.11759e-05,0.0161686,0.232211,5,0.1,8,6.3,0.833876,0.195264,0.600511,-0.704203,0.0430174,-0.000466406,0.74897,-0.311676,0.000149012,0.0182983,0.059613,5,0.1,9,6.3,1.65879,-3.76503,0.599895,-0.508655,0.054441,0.000108778,-0.326887,0.679955,-0.000119209,0.0147384,2.94634,5,0.1
0,6.4,0.9,-2.68531,0.713282,0.0229478,-0.602478,-0.0846162,0.195235,0.20349,-0.0479221,0.00898853,0.333623,5,0.1,1,6.4,-0.198273,3.7605,0.5,0.1577,-0.349838,0,-0.0172406,-1.53923,0,0.0293352,2.68563,5,0.1,2,6.4,-2.24092,1.10662,1.34647,-0.0084281,0.768885,0.00332594,0.00846386,-0.326574,-0.00333786,0.01621,1.73222,5,0.1,3,6.4,0.29466,-0.0764839,0.507969,0.000305474,0.00146683,9.68575e-05,0.00219047,0.00482053,-8.9407e-05,0.0177271,2.96884e-06,5,0.1,4,6.4,3.14143,1.50003,0.5,-0.329834,-5.96046e-05,0,0.100493,0.000119209,0,0.0107704,0.0623747,5,0.1,5,6.4,-0.924039,-2.09997,0.600096,0.342065,-0.000405312,0.00064224,-0.031203,0.00345707,-0.00160933,0.0143436,0.0729911,5,0.1,6,6.4,0.603522,-3.60679,0.587306,-0.000755489,-0.000292063,2.38419e-05,0.00175834,0.000596046,-5.96046e-05,0.0132915,9.77967e-08,5,0.1,7,6.4,-5.01142,-0.590771,0.5,-0.297403,-0.0362545,-1.49012e-06,0.0851154,0.0646114,-2.98023e-05,0.00757326,0.208203,5,0.1,8,6.4,0.767297,0.198108,0.600465,-0.626302,0.0149306,-0.000452995,0.81268,-0.247709,0.000149012,0.0105253,0.136942,5,0.1,9,6.4,1.60608,-3.75562,0.599905,-0.546312,0.137407,9.68575e-05,-0.371039,0.911713,-0.000119209,0.0141292,2.6023,5,0.1
0,6.5,0.903479,-2.74458,0.704592,0.0482112,-0.582903,-0.0889443,0.290021,0.208601,-0.0345483,0.00898853,0.333623,5,0.1,1,6.5,-0.182564,3.71739,0.5,0.156559,-0.514589,0,-0.0129864,-1.66737,0,0.0293352,2.68563,5,0.1,2,6.5,-2.24173,1.1828,1.34679,-0.00767149,0.761981,0.00302568,0.00692904,0.109337,-0.00277162,0.01621,1.73222,5,0.1,3,6.5,0.2947,-0.0763166,0.507978,0.000487082,0.00184334,8.6613e-05,0.00143796,0.0027176,-0.000111759,0.0177271,2.96884e-06,5,0.1,4,6.5,3.10885,1.50002,0.5,-0.322368,-4.88013e-05,0,0.0661165,8.9407e-05,0,0.0107704,0.0623747,5,0.1,5,6.5,-0.889891,-2.1,0.600152,0.341375,-0.000117347,0.000474043,-0.00244007,0.00233948,-0.00171363,0.0143436,0.0729911,5,0.1,6,6.5,0.603456,-3.60682,0.587308,-0.000580773,-0.000230968,1.78814e-05,0.00170618,0.000625849,-5.96046e-05,0.0132915,9.77967e-08,5,0.1,7,6.5,-5.04069,-0.59404,0.5,-0.287341,-0.0288513,-1.76951e-06,0.122607,0.0804514,1.11759e-05,0.00757326,0.208203,5,0.1,8,6.5,0.708416,0.198471,0.60042,-0.553958,-0.00658708,-0.00043558,0.654276,-0.182522,0.000204891,0.0105253,0.136942,5,0.1,9,6.5,1.54915,-3.73676,0.599914,-0.595183,0.243778,8.54954e-05,-0.545204,1.14675,-0.000104308,0.0141292,2.6023,5,0.1
0,6.6,0.909771,-2.80168,0.695574,0.0774473,-0.557321,-0.0908479,0.279665,0.316978,-0.000834465,0.014416,0.23727,5,0.1,1,6.6,-0.167015,3.65798,0.5,0.153854,-0.668085,0,-0.0461936,-1.33884,0,0.0285288,2.3844,5,0.1,2,6.6,-2.24246,1.25973,1.34708,-0.00698566,0.776944,0.00275373,0.00679493,0.131071,-0.00274181,0.013008,1.33061,5,0.1,3,6.6,0.294755,-0.0761221,0.507986,0.000593066,0.00201371,7.45058e-05,0.000670552,0.000715256,-0.000119209,0.0117976,8.80957e-07,5,0.1,4,6.6,3.077,1.50002,0.5,-0.313687,-3.8743e-05,0,0.119567,5.96046e-05,0,0.0120779,0.0975266,5,0.1,5,6.6,-0.85585,-2.1,0.600191,0.338227,6.55651e-05,0.000306964,-0.0742078,0.0013113,-0.00157952,0.0136291,0.10533,5,0.1,6,6.6,0.603406,-3.60684,0.587309,-0.000417233,-0.000172853,1.19209e-05,0.00151992,0.000596046,-2.98023e-05,0.00907051,8.8274e-08,5,0.1,7,6.6,-5.06871,-0.596517,0.5,-0.271857,-0.0206918,0,0.191212,0.0804365,2.98023e-05,0.0102527,0.415853,5,0.1,8,6.6,0.656164,0.197008,0.600378,-0.491972,-0.0216004,-0.000411272,0.6001,-0.118144,0.000327826,0.0150547,0.529773,5,0.1,9,6.6,1.48703,-3.70673,0.599922,-0.644803,0.354761,7.45058e-05,-0.402868,1.02198,-5.96046e-05,0.0134765,2.37315,5,0.1
0,6.7,0.918971,-2.8559,0.686491,0.106718,-0.52732,-0.0906863,0.290573,0.300124,0.00738725,0.014416,0.23727,5,0.1,1,6.7,-0.151818,3.58512,0.5,0.150333,-0.781725,0,-0.0316733,-0.907466,0,0.0285288,2.3844,5,0.1,2,6.7,-2.24313,1.3385,1.34734,-0.00637695,0.801096,0.00250675,0.00563264,0.290409,-0.00227988,0.013008,1.33061,5,0.1,3,6.7,0.294816,-0.0759195,0.507993,0.000633858,0.00201619,6.21192e-05,0.000152737,-0.00062352,-0.000130385,0.0117976,8.80957e-07,5,0.1,4,6.7,3.04602,1.50001,0.5,-0.307392,-3.29688e-05,0,0.0285059,5.21541e-05,0,0.0120779,0.0975266,5,0.1,5,6.7,-0.822219,-2.09999,0.600214,0.3356,0.00016205,0.000159349,-0.00108406,0.00064075,-0.00135973,0.0136291,0.10533,5,0.1,6,6.7,0.603372,-3.60685,0.58731,-0.000273343,-0.000115484,8.56817e-06,0.00134483,0.000536442,-3.72529e-05,0.00907051,8.8274e-08,5,0.1,7,6.7,-5.09492,-0.5981,0.5,-0.252026,-0.0104843,1.76951e-06,0.209212,0.110231,1.11759e-05,0.0102527,0.415853,5,0.1,8,6.7,0.609256,0.194482,0.600338,-0.452116,-0.0269013,-0.000379048,0.243239,0.00236928,0.000327826,0.0150547,0.529773,5,0.1,9,6.7,1.42052,-3.66649,0.599912,-0.684321,0.445943,-0.000421982,-0.348985,0.778228,-0.00878051,0.0134765,2.37315,5,0.1
0,6.8,0.931011,-2.90705,0.677495,0.13296,-0.494432,-0.0888214,0.223398,0.369191,0.0320673,0.015223,0.172568,5,0.1,1,6.8,-0.136969,3.50327,0.5,0.146253,-0.846636,0,-0.0551343,-0.387788,0,0.0203388,2.27547,5,0.1,2,6.8,-2.24374,1.41991,1.34758,-0.00582337,0.824454,0.00228286,0.00572205,0.13262,-0.00226498,0.0207358,0.98546,5,0.1,3,6.8,0.29488,-0.0757229,0.507999,0.000625849,0.00189748,4.91738e-05,-0.000283122,-0.00169873,-0.000119209,0.00560031,0.400033,5,0.1,4,6.8,3.01542,1.50001,0.5,-0.304163,-2.68221e-05,0,0.0520945,5.96046e-05,0,0.00703406,0.0854976,5,0.1,5,6.8,-0.788697,-2.09997,0.600224,0.334105,0.000202656,3.72529e-05,-0.0450909,0.000238419,-0.00107288,0.0116594,0.180661,5,0.1,6,6.8,0.603351,-3.60686,0.587311,-0.000150502,-7.15256e-05,5.96046e-06,0.00107288,0.000596046,-5.96046e-05,0.0083867,6.20395e-08,5,0.1,7,6.8,-5.11902,-0.598635,0.5,-0.229418,-0.000816584,2.98023e-06,0.245094,0.0748634,-2.98023e-05,0.0112734,0.61553,5,0.1,8,6.8,0.564984,0.191936,0.600302,-0.435193,-0.0228964,-0.000345707,0.130355,0.0697747,0.00038743,0.0122611,0.55792,5,0.1,9,6.8,1.35069,-3.61856,0.599819,-0.70813,0.506628,-0.00148863,-0.101089,0.420928,-0.0117123,0.0190697,2.41207,5,0.1
0,6.9,0.945399,-2.95449,0.66878,0.154266,-0.452824,-0.0853463,0.192214,0.461519,0.0395589,0.015223,0.172568,5,0.1,1,6.9,-0.122565,3.41742,0.5,0.142173,-0.864814,0,-0.0340659,-0.0484735,0,0.0203388,2.27547,5,0.1,2,6.9,-2.24429,1.5032,1.3478,-0.00531003,0.841948,0.00207927,0.00473857,0.168756,-0.001885,0.0207358,0.98546,5,0.1,3,6.9,0.294299,-0.0761787,0.507931,-0.0176087,-0.01635,-0.00201287,-0.323679,-0.322816,-0.036452,0.00560031,0.400033,5,0.1,4,6.9,2.98509,1.50001,0.5,-0.303639,-2.16067e-05,0,-0.0189841,4.47035e-05,0,0.00703406,0.0854976,5,0.1,5,6.9,-0.755194,-2.09995,0.600222,0.338297,0.000208989,-5.86733e-05,0.0966713,-0.000104308,-0.000841916,0.0116594,0.180661,5,0.1,6,6.9,0.603341,-3.60687,0.587311,-5.29923e-05,-1.8999e-05,5.58794e-07,0.000867993,0.000461936,-4.47035e-05,0.0083867,6.20395e-08,5,0.1,7,6.9,-5.14094,-0.598342,0.500107,-0.210666,0.00611823,0.00303742,0.144571,0.0423118,0.0539646,0.0112734,0.61553,5,0.1,8,6.9,0.521759,0.190088,0.600269,-0.431955,-0.013323,-0.000309385,-0.0296533,0.11497,0.000342727,0.0122611,0.55792,5,0.1,9,6.9,1.27912,-3.56667,0.59957,-0.724569,0.522893,-0.00381861,-0.180461,-0.0731647,-0.0318736,0.0190697,2.41207,5,0.1
0,7,0.961664,-2.99732,0.660469,0.169642,-0.402522,-0.0805646,0.108212,0.542045,0.0573695,0.0149764,0.123103,5,0.1,1,7,-0.108534,3.33084,0.5,0.138145,-0.866026,0,-0.0518522,0,0,0.020589,2.2608,5,0.1,2,7,-2.2448,1.58797,1.348,-0.00484586,0.849983,0.00189245,0.00476837,-0.0417829,-0.00184774,0.0187475,1.22466,5,0.1,3,7,0.290663,-0.0796831,0.507519,-0.0568755,-0.0554841,-0.00641346,-0.430062,-0.428479,-0.0479221,0.00777476,0.300007,5,0.1,4,7,2.95467,1.50001,0.5,-0.304097,-1.78814e-05,0,0.0261068,5.96046e-05,0,0.00696972,0.118916,5,0.1,5,7,-0.720865,-2.09993,0.600213,0.347848,0.000184774,-0.00012964,0.0707209,-0.000238419,-0.000566244,0.00805968,0.110777,5,0.1,6,7,0.603339,-3.60687,0.587311,2.23517e-05,1.78814e-05,-2.98023e-06,0.000596046,0.000238419,-2.98023e-05,0.00995687,2.79468e-08,5,0.1,7,7,-5.16135,-0.597699,0.500724,-0.197971,0.00469834,0.00959635,0.120401,-0.0786483,0.0719726,0.0107458,0.559767,5,0.1,8,7,0.478393,0.189359,0.60024,-0.434899,-0.00110045,-0.000275671,-0.00286102,0.124216,0.000357628,0.0154497,0.781802,5,0.1,9,7,1.20595,-3.51541,0.599016,-0.736162,0.496298,-0.00732988,-0.0181794,-0.437975,-0.036031,0.02052,2.22402,5,0.1
0,7.1,0.979161,-3.03512,0.652684,0.179963,-0.355676,-0.0752321,0.0886731,0.410751,0.0517294,0.0149764,0.123103,5,0.1,1,7.1,-0.0949199,3.24424,0.5,0.134525,-0.866026,0,-0.0281949,0,0,0.020589,2.2608,5,0.1,2,7.1,-2.24526,1.67317,1.34818,-0.00441708,0.856598,0.00172537,0.00394881,0.115544,-0.00154227,0.0187475,1.22466,5,0.1,3,7.1,0.282762,-0.0876621,0.506668,-0.101271,-0.106115,-0.010314,-0.438321,-0.550412,-0.0301152,0.00777476,0.300007,5,0.1,4,7.1,2.92418,1.50001,0.5,-0.306944,-1.28523e-05,0,-0.0586808,3.72529e-05,0,0.00696972,0.118916,5,0.1,5,7.1,-0.685652,-2.09991,0.600197,0.356603,0.000152737,-0.000177231,0.0834577,-0.00038743,-0.000383705,0.00805968,0.110777,5,0.1,6,7.1,0.603344,-3.60686,0.587311,7.34814e-05,3.76254e-05,-5.4948e-06,0.000428408,0.00013411,-1.86265e-05,0.00995687,2.79468e-08,5,0.1,7,7.1,-5.18066,-0.59776,0.502083,-0.189102,-0.00823289,0.0178528,0.0684857,-0.213176,0.088077,0.0107458,0.559767,5,0.1,8,7.1,0.434718,0.189733,0.600214,-0.439569,0.0074733,-0.000243075,-0.0623539,0.0574999,0.000305474,0.0154497,0.781802,5,0.1,9,7.1,1.1317,-3.46733,0.598123,-0.752684,0.470421,-0.0103168,-0.246286,-0.123173,-0.0234768,0.02052,2.22402,5,0.1
0,7.2,0.997505,-3.06875,0.645427,0.18578,-0.317609,-0.069806,0.0212491,0.362515,0.0584722,0.00945042,0.150671,5,0.1,1,7.2,-0.0816206,3.15764,0.5,0.131198,-0.866026,0,-0.0437835,0,0,0.0211653,2.25982,5,0.1,2,7.2,-2.24568,1.75928,1.34834,-0.00402927,0.863057,0.00157356,0.00393391,-0.0282526,-0.00160933,0.0144045,0.898365,5,0.1,3,7.2,0.270562,-0.100999,0.505515,-0.141194,-0.159698,-0.0124604,-0.346214,-0.496294,-0.0129938,0.00818633,0.249998,5,0.1,4,7.2,2.89322,1.5,0.5,-0.311643,-8.9407e-06,0,-0.0177622,5.96046e-05,0,0.00709415,0.0727883,5,0.1,5,7.2,-0.649694,-2.0999,0.600178,0.360999,0.000107288,-0.000205636,-0.0100434,-0.000357628,-0.000178814,0.00856959,0.0617254,5,0.1,6,7.2,0.603353,-3.60686,0.58731,0.000105798,5.36442e-05,-5.96046e-06,0.000268221,0,-2.98023e-05,0.0125553,1.17368e-08,5,0.1,7,7.2,-5.19924,-0.6,0.504301,-0.182283,-0.0398442,0.0263304,0.0762939,-0.404924,0.0776649,0.0129443,0.477585,5,0.1,8,7.2,0.390541,0.190724,0.600191,-0.44255,0.0120737,-0.000213087,0.0227094,0.0410005,0.000268221,0.0096564,1.83692,5,0.1,9,7.2,1.05526,-3.42069,0.596996,-0.774071,0.463945,-0.0119999,-0.133991,-0.0398159,-0.0101626,0.00831018,1.28864,5,0.1
0,7.3,1.01633,-3.09907,0.638686,0.191613,-0.291883,-0.0654118,0.0784956,0.177324,0.0337437,0.00945042,0.150671,5,0.1,1,7.3,-0.0685766,3.07103,0.5,0.130782,-0.866026,0,0.0225256,0,0,0.0211653,2.25982,5,0.1,2,7.3,-2.24607,1.84561,1.34849,-0.00367574,0.864188,0.00142921,0.00326335,0.00815094,-0.00133365,0.0144045,0.898365,5,0.1,3,7.3,0.254912,-0.119579,0.504238,-0.169687,-0.21243,-0.0127626,-0.22008,-0.528438,0.00572577,0.00818633,0.249998,5,0.1,4,7.3,2.86193,1.5,0.5,-0.314208,-3.91155e-06,0,-0.0178963,3.72529e-05,0,0.00709415,0.0727883,5,0.1,5,7.3,-0.613662,-2.09989,0.600157,0.3591,6.92904e-05,-0.000217371,-0.0410043,-0.000417233,-5.96046e-05,0.00856959,0.0617254,5,0.1,6,7.3,0.603365,-3.60685,0.587309,0.000125542,5.32717e-05,-8.00937e-06,0.00012666,-1.49012e-05,-7.45058e-06,0.0125553,1.17368e-08,5,0.1,7,7.3,-5.21715,-0.606387,0.50733,-0.176428,-0.0907311,0.0342112,0.0499785,-0.575379,0.0760853,0.0129443,0.477585,5,0.1,8,7.3,0.346313,0.191877,0.600171,-0.442281,0.00972874,-0.000188407,0.00506453,-0.0372399,0.000227243,0.0096564,1.83692,5,0.1,9,7.3,0.978928,-3.37607,0.595652,-0.73716,0.41471,-0.0156609,0.797011,-0.861987,-0.0562891,0.00831018,1.28864,5,0.1
0,7.4,1.03586,-3.12751,0.632302,0.198561,-0.27771,-0.0623077,0.0482202,0.125289,0.0315309,0.0147862,0.0913558,5,0.1,1,7.4,-0.0553636,2.98443,0.5,0.133452,-0.866026,0,0.021314,0,0,0.0193946,2.25829,5,0.1,2,7.4,-2.24642,1.93185,1.34863,-0.00334978,0.857553,0.00129938,0.00321865,-0.169337,-0.00137091,0.0138388,1.14116,5,0.1,3,7.4,0.237074,-0.143315,0.503013,-0.184716,-0.260258,-0.0115409,-0.0791475,-0.406757,0.017643,0.00929878,0.221161,5,0.1,4,7.4,2.83052,1.5,0.5,-0.312585,-2.98023e-06,0,0.0609159,5.96046e-05,0,0.00710665,0.0588961,5,0.1,5,7.4,-0.578095,-2.09988,0.600135,0.350635,2.98023e-05,-0.000217557,-0.136852,-0.000357628,5.96046e-05,0.00778379,0.0429508,5,0.1,6,7.4,0.603378,-3.60685,0.587308,0.00013262,4.76837e-05,-8.9407e-06,0,0,0,0.00834819,4.36012e-09,5,0.1,7,7.4,-5.23453,-0.618365,0.511103,-0.17072,-0.148359,0.0408888,0.0708103,-0.549078,0.0547469,0.0117182,0.404474,5,0.1,8,7.4,0.302231,0.192842,0.600154,-0.437745,0.0120278,-0.000166893,0.101149,0.106558,0.000208616,0.0154936,1.65701,5,0.1,9,7.4,0.910219,-3.3397,0.593774,-0.628401,0.306457,-0.0220656,1.3161,-1.23656,-0.066638,0.00720762,0.420052,5,0.1
0,7.5,1.05598,-3.1548,0.626209,0.203749,-0.269238,-0.0596939,0.0446811,0.0609905,0.0235885,0.0147862,0.0913558,5,0.1,1,7.5,-0.0418198,2.89783,0.5,0.138039,-0.866026,0,0.0586485,0,0,0.0193946,2.25829,5,0.1,2,7.5,-2.24674,2.0172,1.34875,-0.00305958,0.852526,0.00117682,0.00269711,0.0116006,-0.00111759,0.0138388,1.14116,5,0.1,3,7.5,0.218446,-0.171441,0.501961,-0.185603,-0.302225,-0.00939174,0.0561299,-0.40535,0.0242926,0.00929878,0.221161,5,0.1,4,7.5,2.79949,1.5,0.5,-0.308406,1.86265e-06,0,0.0389814,2.98023e-05,0,0.00710665,0.0588961,5,0.1,5,7.5,-0.543663,-2.09988,0.600114,0.338191,-7.45058e-06,-0.000209175,-0.125933,-0.00038743,0.000111759,0.00778379,0.0429508,5,0.1,6,7.5,0.603391,-3.60684,0.587308,0.000128616,4.58211e-05,-8.47504e-06,-7.82311e-05,-4.47035e-05,1.11759e-05,0.00834819,4.36012e-09,5,0.1,7,7.5,-5.25129,-0.635493,0.515461,-0.164743,-0.190187,0.0461452,0.056088,-0.307165,0.0473708,0.0117182,0.404474,5,0.1,8,7.5,0.258905,0.194769,0.600138,-0.428906,0.0302098,-0.000147987,0.0937013,0.320244,0.000175089,0.0154936,1.65701,5,0.1,9,7.5,0.853743,-3.31541,0.591183,-0.503321,0.17867,-0.0300988,1.1842,-1.28271,-0.0878535,0.00720762,0.420052,5,0.1
0,7.6,1.0765,-3.18141,0.620363,0.205669,-0.262606,-0.0571072,-0.0137091,0.0835657,0.0301301,0.0099806,0.073117,5,0.1,1,7.6,-0.0277403,2.81123,0.5,0.143152,-0.866026,0,0.0350878,0,0,0.022809,2.25666,5,0.1,2,7.6,-2.24703,2.10243,1.34886,-0.0027895,0.85004,0.00106692,0.0026226,-0.102162,-0.00107288,0.0125128,2.6492,5,0.1,3,7.6,0.200352,-0.203505,0.501147,-0.174527,-0.336701,-0.00686646,0.160307,-0.265121,0.0254214,0.013434,0.380034,5,0.1,4,7.6,2.76892,1.5,0.5,-0.302041,2.98023e-06,0,0.0995398,0,0,0.00889283,0.0945172,5,0.1,5,7.6,-0.510548,-2.09988,0.600093,0.323125,-4.17233e-05,-0.000195205,-0.18473,-0.000357628,0.000178814,0.0110636,0.0802147,5,0.1,6,7.6,0.603403,-3.60684,0.587307,0.000117719,4.17233e-05,-7.45058e-06,-0.000119209,0,0,0.00583156,0.396227,5,0.1,7,7.6,-5.26746,-0.65577,0.52028,-0.15825,-0.21286,0.0498593,0.0789165,-0.157326,0.0248849,0.0124074,0.335031,5,0.1,8,7.6,0.216591,0.2,0.600124,-0.415967,0.0801489,-0.00013113,0.177406,0.656113,0.000149012,0.00974908,1.40544,5,0.1,9,7.6,0.809103,-3.30378,0.587741,-0.391781,0.0562608,-0.0385642,1.04561,-1.13857,-0.0769198,0.0113613,1.90763,5,0.1
0,7.7,1.09705,-3.20739,0.61478,0.205421,-0.257884,-0.0547073,-0.002563,0.0281781,0.0208132,0.0099806,0.073117,5,0.1,1,7.7,-0.0131834,2.72462,0.5,0.148368,-0.866026,0,0.0582582,0,0,0.022809,2.25666,5,0.1,2,7.7,-2.24784,2.18601,1.34896,-0.0178214,0.813212,0.000965968,-0.269249,-0.60606,-0.000968575,0.0125128,2.6492,5,0.1,3,7.7,0.184244,-0.237123,0.500602,-0.143103,-0.323663,-0.00393763,0.433517,0.456101,0.0316277,0.013434,0.380034,5,0.1,4,7.7,2.73901,1.5,0.5,-0.297486,2.79397e-06,0,0.0133067,-7.45058e-06,0,0.00889283,0.0945172,5,0.1,5,7.7,-0.478948,-2.09989,0.600075,0.310456,-7.33882e-05,-0.000175741,-0.0894219,-0.00025332,0.000204891,0.0110636,0.0802147,5,0.1,6,7.7,0.602893,-3.6076,0.587305,-0.0146881,-0.0217512,-3.82774e-05,-0.262886,-0.387073,-0.000547618,0.00583156,0.396227,5,0.1,7,7.7,-5.28292,-0.677546,0.525384,-0.151197,-0.221049,0.0521145,0.0681579,-0.0556111,0.0178255,0.0124074,0.335031,5,0.1,8,7.7,0.175825,0.211945,0.600112,-0.399534,0.163684,-0.00011744,0.166016,0.952911,0.000130385,0.00974908,1.40544,5,0.1,9,7.7,0.774123,-3.30184,0.583625,-0.316871,0.000112504,-0.0425902,0.501335,-0.0783205,-0.00764057,0.0113613,1.90763,5,0.1
0,7.8,1.11752,-3.23301,0.609418,0.203249,-0.254023,-0.0524431,-0.0486374,0.0613928,0.0264943,0.0122934,0.0343287,5,0.1,1,7.8,0.00190919,2.63802,0.5,0.152925,-0.866026,0,0.0250754,0,0,0.0231551,2.25545,5,0.1,2,7.8,-2.25118,2.26366,1.34906,-0.0505924,0.73418,0.000867248,-0.359535,-0.949502,-0.000953674,0.0133644,3.03058,5,0.1,3,7.8,0.172318,-0.266491,0.500366,-0.0939246,-0.257919,-0.000804663,0.523701,0.804201,0.0298917,0.0119354,0.19753,5,0.1,4,7.8,2.70933,1.5,0.5,-0.295633,2.98023e-06,0,0.0393391,-5.96046e-05,0,0.00942287,0.172214,5,0.1,5,7.8,-0.448331,-2.0999,0.600058,0.301655,-9.53674e-05,-0.000153482,-0.101656,-0.000119209,0.000238419,0.0135772,0.190211,5,0.1,6,7.8,0.599901,-3.61202,0.587298,-0.0465795,-0.0687122,-0.000104308,-0.349253,-0.514269,-0.000745058,0.00876881,0.287814,5,0.1,7,7.8,-5.29768,-0.7,0.530657,-0.1436,-0.22887,0.0530288,0.087738,-0.100553,-0.00116229,0.0067965,0.270298,5,0.1,8,7.8,0.136781,0.233148,0.600101,-0.380287,0.259835,-0.000104308,0.228938,0.922814,8.9407e-05,0.0113903,1.15159,5,0.1,9,7.8,0.744375,-3.30111,0.579415,-0.28279,0.023669,-0.0408441,0.218719,0.474095,0.039041,0.0113665,1.51541,5,0.1
0,7.9,1.13758,-3.25812,0.604303,0.197616,-0.24786,-0.0498337,-0.0696927,0.0710785,0.0272356,0.0122934,0.0343287,5,0.1,1,7.9,0.0173835,2.55142,0.5,0.156857,-0.866026,0,0.0431225,0,0,0.0231551,2.25545,5,0.1,2,7.9,-2.25828,2.33162,1.34914,-0.0930116,0.61942,0.00078138,-0.460744,-1.28546,-0.000797212,0.0133644,3.03058,5,0.1,3,7.9,0.165615,-0.287902,0.500431,-0.0398865,-0.167683,0.00204137,0.5397,0.962237,0.0263862,0.0119354,0.19753,5,0.1,4,7.9,2.67964,1.5,0.5,-0.300803,-2.04891e-06,0,-0.111029,-3.72529e-05,0,0.00942287,0.172214,5,0.1,5,7.9,-0.41842,-2.09991,0.600044,0.298487,-0.000103563,-0.000129733,0.0132825,-2.98023e-05,0.000234693,0.0135772,0.190211,5,0.1,6,7.9,0.593471,-3.62177,0.587306,-0.0819298,-0.128297,0.000449456,-0.343449,-0.639528,0.0104457,0.00876881,0.287814,5,0.1,7,7.9,-5.31163,-0.723662,0.535952,-0.135584,-0.246348,0.0527953,0.077486,-0.219602,-0.0054501,0.0067965,0.270298,5,0.1,8,7.9,0.0998339,0.263165,0.600091,-0.358969,0.336383,-9.574e-05,0.209599,0.668332,8.19564e-05,0.0113903,1.15159,5,0.1,9,7.9,0.716669,-3.2955,0.575579,-0.275564,0.0954811,-0.0354194,-0.0367761,0.891641,0.0665374,0.0113665,1.51541,5,0.1
0,8,1.15692,-3.28247,0.599467,0.188392,-0.238281,-0.0467435,-0.118196,0.1266,0.0356138,0.00974596,0.013557,5,0.1,1,8,0.0332445,2.46482,0.5,0.159769,-0.866026,0,0.00775397,0,0,0.028912,2.25959,5,0.1,2,8,-2.26986,2.38698,1.34921,-0.137854,0.487411,0.000703335,-0.415206,-1.3119,-0.00077486,0.0142979,2.96681,5,0.1,3,8,0.164233,-0.299858,0.500757,0.0110261,-0.0721708,0.00436306,0.466026,0.919282,0.0196993,0.00961255,0.134817,5,0.1,4,8,2.64897,1.5,0.5,-0.312334,-5.96046e-06,0,-0.0959635,0,0,0.00769191,0.108966,5,0.1,5,8,-0.388483,-2.09992,0.600032,0.299977,-0.000107288,-0.000107288,-0.00181794,0.000119209,0.000208616,0.0119926,1.14914,5,0.1,6,8,0.583666,-3.63774,0.587412,-0.11283,-0.190026,0.00174046,-0.264436,-0.567198,0.0142753,0.00707186,0.226286,5,0.1,7,8,-5.32478,-0.749393,0.541184,-0.127268,-0.267689,0.0516161,0.0920296,-0.185579,-0.0193715,0.0114862,0.206817,5,0.1,8,8,0.0650341,0.3,0.600081,-0.33632,0.398868,-8.79169e-05,0.25169,0.574887,0.000119209,0.00833264,0.904328,5,0.1,9,8,0.68876,-3.28129,0.572395,-0.283565,0.189573,-0.0280619,-0.0948906,0.936747,0.0782013,0.01437,1.2232,5,0.1
0,8.1,1.17514,-3.30564,0.594973,0.175647,-0.224679,-0.0430965,-0.138998,0.149667,0.0380166,0.00974596,0.013557,5,0.1,1,8.1,0.0492313,2.37821,0.5,0.159552,-0.866026,0,-0.0169002,0,0,0.028912,2.25959,5,0.1,2,8.1,-2.28582,2.42913,1.34928,-0.181749,0.357037,0.000635535,-0.438228,-1.22328,-0.000610948,0.0142979,2.96681,5,0.1,3,8.1,0.167579,-0.302532,0.501284,0.054767,0.0175794,0.00609132,0.399128,0.852864,0.0145622,0.00961255,0.134817,5,0.1,4,8.1,2.61717,1.5,0.5,-0.323793,-5.96046e-06,0,-0.112608,0,0,0.00769191,0.108966,5,0.1,5,8.1,-0.35759,-2.09993,0.600022,0.325173,-9.53674e-05,-8.70787e-05,0.436738,0.000119209,0.00018999,0.0119926,1.14914,5,0.1,6,8.1,0.57122,-3.65967,0.587681,-0.134436,-0.248463,0.00380399,-0.165101,-0.571162,0.0250302,0.00707186,0.226286,5,0.1,7,8.1,-5.33708,-0.777192,0.546251,-0.118811,-0.288718,0.0497011,0.0811517,-0.21223,-0.0205375,0.0114862,0.206817,5,0.1,8,8.1,0.0325911,0.343008,0.600073,-0.312972,0.462497,-7.72066e-05,0.225409,0.648679,0.000100583,0.00833264,0.904328,5,0.1,9,8.1,0.659697,-3.25737,0.569993,-0.299286,0.290025,-0.019901,-0.190649,1.01905,0.0829212,0.01437,1.2232,5,0.1
0,8.2,1.19196,-3.32729,0.590862,0.160247,-0.207692,-0.0390336,-0.170112,0.192523,0.0436902,0.0115793,0.00691267,5,0.1,1,8.2,0.0650296,2.29161,0.5,0.155611,-0.866026,0,-0.0649133,0,0,0.0317016,2.27058,5,0.1,2,8.2,-2.30606,2.4593,1.34934,-0.2213,0.253302,0.000578165,-0.335336,-0.818014,-0.000596046,0.0106667,2.72138,5,0.1,3,8.2,0.174876,-0.296773,0.501955,0.089258,0.0945456,0.00722706,0.284426,0.670731,0.00801682,0.00954132,0.0763498,5,0.1,4,8.2,2.58434,1.5,0.5,-0.33136,-5.96046e-06,0,-0.0240803,5.96046e-05,0,0.0114347,0.179288,5,0.1,5,8.2,-0.322632,-2.09994,0.600015,0.37519,-8.9407e-05,-6.85453e-05,0.511274,0.000238419,0.000149012,0.0128447,1.2863,5,0.1,6,8.2,0.557132,-3.68717,0.588191,-0.145499,-0.299072,0.00640303,-0.0552833,-0.419378,0.0254512,0.00930491,0.258622,5,0.1,7,8.2,-5.34854,-0.807016,0.551106,-0.11034,-0.306246,0.0472426,0.0905991,-0.122249,-0.0296831,0.0110852,0.151556,5,0.1,8,8.2,0.00244497,0.392292,0.600066,-0.28953,0.520197,-6.70552e-05,0.250382,0.470221,5.96046e-05,0.00915227,0.676377,5,0.1,9,8.2,0.628852,-3.2235,0.568411,-0.316708,0.384212,-0.0118449,-0.136822,0.826001,0.0766516,0.0134063,1.79474,5,0.1
0,8.3,1.20713,-3.3471,0.587174,0.143213,-0.188398,-0.0347396,-0.172235,0.196531,0.0427142,0.0115793,0.00691267,5,0.1,1,8.3,0.0803717,2.20501,0.500299,0.152007,-0.866026,0.00847522,-0.0180564,0,0.150673,0.0317016,2.27058,5,0.1,2,8.3,-2.32987,2.48118,1.3494,-0.254278,0.192699,0.000526011,-0.30531,-0.315994,-0.000461936,0.0106667,2.72138,5,0.1,3,8.3,0.185094,-0.284177,0.502711,0.113683,0.154967,0.0078111,0.199716,0.526112,0.0035651,0.00954132,0.0763498,5,0.1,4,8.3,2.55083,1.5,0.5,-0.340775,-1.11759e-06,0,-0.133589,2.98023e-05,0,0.0114347,0.179288,5,0.1,5,8.3,-0.282049,-2.09994,0.600009,0.439953,0.000177696,-5.4203e-05,0.721364,0.00421703,0.00013411,0.0128447,1.2863,5,0.1,6,8.3,0.542823,-3.71789,0.588919,-0.13618,-0.304073,0.00781445,0.214808,0.259727,0.00428781,0.00930491,0.258622,5,0.1,7,8.3,-5.35915,-0.838283,0.555688,-0.102018,-0.318943,0.044411,0.0792742,-0.113774,-0.0282899,0.0110852,0.151556,5,0.1,8,8.3,-0.0253281,0.446711,0.600059,-0.266433,0.567676,-6.14673e-05,0.220024,0.441234,5.21541e-05,0.00915227,0.676377,5,0.1,9,8.3,0.596093,-3.18063,0.567604,-0.341418,0.474811,-0.00438197,-0.315089,0.925392,0.0710823,0.0134063,1.79474,5,0.1
0,8.4,1.22058,-3.36493,0.583915,0.125554,-0.167906,-0.0304118,-0.181794,0.215173,0.044167,0.0104596,0.00204744,5,0.1,1,8.4,0.0954862,2.11841,0.50202,0.150117,-0.866026,0.0267848,-0.0276676,0,0.200927,0.0201672,2.2667,5,0.1,2,8.4,-2.35664,2.5,1.34945,-0.27917,0.19452,0.000479817,-0.179648,0.318646,-0.000417233,0.0155268,2.31488,5,0.1,3,8.4,0.197292,-0.266365,0.503502,0.12854,0.19792,0.0079304,0.0951812,0.326104,-0.0012219,0.0113264,0.0340895,5,0.1,4,8.4,2.51611,1.5,0.5,-0.352806,2.98023e-06,0,-0.0845194,0,0,0.0121015,0.110599,5,0.1,5,8.4,-0.234523,-2.0999,0.600004,0.508612,0.000613928,-4.17233e-05,0.605911,0.00369549,0.000119209,0.0106443,1.01471,5,0.1,6,8.4,0.530543,-3.74628,0.589697,-0.107324,-0.257814,0.00753552,0.341356,0.617981,-0.00870228,0.00839708,0.173477,5,0.1,7,8.4,-5.36895,-0.870612,0.559981,-0.093925,-0.325979,0.0413612,0.0851154,-0.0146031,-0.0336468,0.00734368,0.182874,5,0.1,8,8.4,-0.050865,0.505381,0.600054,-0.244092,0.601999,-5.66244e-05,0.232652,0.218958,8.9407e-05,0.0099483,0.483065,5,0.1,9,8.4,0.560367,-3.12877,0.567502,-0.372379,0.558865,0.00211298,-0.272989,0.712037,0.0577867,0.0114607,1.56263,5,0.1
0,8.5,1.23223,-3.38065,0.581092,0.107568,-0.146427,-0.026077,-0.177987,0.214964,0.0426248,0.0104596,0.00204744,5,0.1,1,8.5,0.110359,2.0318,0.505466,0.147211,-0.866026,0.0399685,-0.0356021,0,0.0705011,0.0201672,2.2667,5,0.1,2,8.5,-2.38543,2.5223,1.34949,-0.295945,0.261593,0.00044331,-0.140905,0.926107,-0.000342727,0.0155268,2.31488,5,0.1,3,8.5,0.21051,-0.245164,0.504284,0.134658,0.223763,0.00766385,0.0260416,0.186461,-0.00409037,0.0113264,0.0340895,5,0.1,4,8.5,2.48036,1.5,0.5,-0.362099,2.79397e-06,0,-0.0816435,-7.45058e-06,0,0.0121015,0.110599,5,0.1,5,8.5,-0.180482,-2.09979,0.6,0.572483,0.00174865,-3.07336e-05,0.623222,0.0146627,9.68575e-05,0.0106443,1.01471,5,0.1,6,8.5,0.521687,-3.7685,0.59039,-0.068583,-0.182853,0.00618622,0.415087,0.839368,-0.0171736,0.00839708,0.173477,5,0.1,7,8.5,-5.37799,-0.903558,0.563977,-0.0874862,-0.334909,0.0387799,0.0495315,-0.132885,-0.0203997,0.00734368,0.182874,5,0.1,8,8.5,-0.0741813,0.566669,0.600048,-0.222753,0.622893,-4.88013e-05,0.201212,0.168674,7.45058e-05,0.0099483,0.483065,5,0.1,9,8.5,0.521457,-3.06927,0.567991,-0.407814,0.630229,0.00752341,-0.393117,0.668347,0.049293,0.0114607,1.56263,5,0.1
0,8.6,1.24211,-3.39421,0.578696,0.0899732,-0.124854,-0.0218764,-0.173688,0.216484,0.0413954,0.00905299,0.00092733,5,0.1,1,8.6,0.124855,1.9452,0.509654,0.142145,-0.866026,0.0423178,-0.0691077,0,-0.0168979,0.0203519,2.47057,5,0.1,2,8.6,-2.41557,2.55344,1.34953,-0.304866,0.362694,0.000408292,-0.0274181,1.02258,-0.000298023,0.0118937,1.85516,5,0.1,3,8.6,0.223985,-0.222114,0.505025,0.133631,0.234624,0.00711977,-0.0466183,0.0291765,-0.00673532,0.0138874,0.0159992,5,0.1,4,8.6,2.44388,1.5,0.5,-0.365818,2.98023e-06,0,0.0207424,0,0,0.0075864,0.0627886,5,0.1,5,8.6,-0.120413,-2.09955,0.599998,0.625033,0.00285506,-2.08616e-05,0.393823,0.00500679,5.96046e-05,0.00859114,0.766792,5,0.1,6,8.6,0.516902,-3.78251,0.590917,-0.0274807,-0.0972211,0.004296,0.393599,0.842452,-0.0197887,0.00971561,0.0918908,5,0.1,7,8.6,-5.38651,-0.937699,0.567758,-0.0829935,-0.347182,0.0368625,0.0443459,-0.0899434,-0.0197589,0.00743504,0.111247,5,0.1,8,8.6,-0.0954553,0.629516,0.600044,-0.202646,0.630672,-4.32134e-05,0.205882,-0.0334382,8.9407e-05,0.010129,0.332913,5,0.1,9,8.6,0.478799,-3.0033,0.568968,-0.443655,0.684607,0.0117838,-0.292823,0.386715,0.0351667,0.0126725,1.14936,5,0.1
0,8.7,1.25025,-3.40563,0.57671,0.0731653,-0.103699,-0.0178816,-0.161938,0.206083,0.0384226,0.00905299,0.00092733,5,0.1,1,8.7,0.138846,1.8593,0.513699,0.138601,-0.845347,0.0377167,-0.0130157,0.402652,-0.0698939,0.0203519,2.47057,5,0.1,2,8.7,-2.44618,2.59526,1.34957,-0.306839,0.476262,0.00038147,-1.49012e-05,1.1754,-0.00025332,0.0118937,1.85516,5,0.1,3,8.7,0.237056,-0.198639,0.505702,0.127187,0.233468,0.00639027,-0.0828514,-0.055111,-0.00782683,0.0138874,0.0159992,5,0.1,4,8.7,2.40743,1.5,0.5,-0.362531,2.79397e-06,0,0.0572056,-7.45058e-06,0,0.0075864,0.0627886,5,0.1,5,8.7,-0.0559262,-2.09922,0.599996,0.663882,0.00357665,-1.52737e-05,0.345267,0.000491738,5.21541e-05,0.00859114,0.766792,5,0.1,6,8.7,0.516068,-3.78807,0.591246,0.0100499,-0.015182,0.00228062,0.349142,0.779271,-0.0199601,0.00971561,0.0918908,5,0.1,7,8.7,-5.39462,-0.972919,0.571357,-0.0793479,-0.357206,0.0351802,0.0323951,-0.0904948,-0.0154786,0.00743504,0.111247,5,0.1,8,8.7,-0.114756,0.692421,0.60004,-0.183862,0.626839,-3.58559e-05,0.175715,-0.0676923,6.33299e-05,0.010129,0.332913,5,0.1,9,8.7,0.432866,-2.93294,0.570311,-0.475178,0.721322,0.0149608,-0.304502,0.31057,0.0274926,0.0126725,1.14936,5,0.1
0,8.8,1.25679,-3.41499,0.575109,0.0576824,-0.0837386,-0.0142068,-0.147343,0.192523,0.0350177,0.00864334,0.000784415,5,0.1,1,8.8,0.152658,1.77736,0.51707,0.137588,-0.787789,0.0292823,-0.015527,0.736713,-0.0945628,0.0202708,2.89172,5,0.1,2,8.8,-2.47674,2.64852,1.34961,-0.302863,0.585115,0.000354648,0.0872612,0.94831,-0.000298023,0.00959805,1.42025,5,0.1,3,8.8,0.249298,-0.175724,0.5063,0.117022,0.223254,0.0055626,-0.120282,-0.149831,-0.00870228,0.00875346,0.00444816,5,0.1,4,8.8,2.3716,1.5,0.5,-0.352371,2.98023e-06,0,0.154138,-5.96046e-05,0,0.0121953,0.120932,5,0.1,5,8.8,0.0118543,-2.09892,0.599995,0.687714,0.00172257,-1.04308e-05,0.10556,-0.0411272,2.98023e-05,0.00750471,0.558672,5,0.1,6,8.8,0.518692,-3.78593,0.591377,0.0410348,0.0554144,0.000400841,0.26536,0.619531,-0.0172257,0.00769469,0.0537291,5,0.1,7,8.8,-5.40239,-1.00896,0.574794,-0.0758529,-0.361899,0.0334978,0.0405312,0.01055,-0.0192821,0.00721704,0.0612613,5,0.1,8,8.8,-0.132274,0.754547,0.600037,-0.166492,0.613058,-2.98023e-05,0.175856,-0.224233,5.96046e-05,0.00840679,0.224165,5,0.1,9,8.8,0.384029,-2.85962,0.571926,-0.498924,0.740528,0.0171393,-0.147254,0.0486374,0.0155568,0.0110567,0.810097,5,0.1
0,8.9,1.26184,-3.42243,0.573857,0.0437703,-0.0653781,-0.0109003,-0.13037,0.173956,0.0310056,0.00864334,0.000784415,5,0.1,1,8.9,0.166424,1.70313,0.519489,0.138316,-0.689674,0.0188342,0.0197189,1.16426,-0.110384,0.0202708,2.89172,5,0.1,2,8.9,-2.50659,2.71184,1.34965,-0.294103,0.68051,0.000327826,0.0978112,0.9031,-0.00025332,0.00959805,1.42025,5,0.1,3,8.9,0.260367,-0.154238,0.506812,0.104055,0.205582,0.00468325,-0.138173,-0.202673,-0.00882149,0.00875346,0.00444816,5,0.1,4,8.9,2.33689,1.5,0.5,-0.34368,-2.04891e-06,0,0.0447333,-3.72529e-05,0,0.0121953,0.120932,5,0.1,5,8.9,0.0811481,-2.099,0.599994,0.697322,-0.00414439,-7.45058e-06,0.0562736,-0.0898093,2.98023e-05,0.00750471,0.558672,5,0.1,6,8.9,0.524023,-3.77748,0.591335,0.0645057,0.111394,-0.00121193,0.200313,0.490397,-0.0147186,0.00769469,0.0537291,5,0.1,7,8.9,-5.40978,-1.04507,0.578051,-0.0720516,-0.359668,0.0316636,0.0379682,0.0465289,-0.0184141,0.00721704,0.0612613,5,0.1,8,8.9,-0.148102,0.814771,0.600034,-0.150523,0.59129,-2.49594e-05,0.148468,-0.231232,4.47035e-05,0.00840679,0.224165,5,0.1,9,8.9,0.333371,-2.78535,0.573711,-0.513842,0.744041,0.0184591,-0.124853,-0.00822544,0.0101365,0.0110567,0.810097,5,0.1
0,9,1.2656,-3.42814,0.572914,0.0316978,-0.0490665,-0.0080213,-0.110865,0.151634,0.0264943,0.0120664,0.000643356,5,0.1,1,9,0.180342,1.64028,0.520821,0.139744,-0.565517,0.00791103,0.0013411,1.27447,-0.105023,0.019346,3.22789,5,0.1,2,9,-2.53543,2.78395,1.34968,-0.281656,0.75615,0.000301003,0.157833,0.570655,-0.000238419,0.0118367,0.568378,5,0.1,3,9,0.270058,-0.134772,0.507237,0.0895754,0.182972,0.00381023,-0.150457,-0.247963,-0.00858307,0.0137286,0.00163341,5,0.1,4,9,2.30273,1.5,0.5,-0.339085,-2.98023e-06,0,0.0650883,-5.96046e-05,0,0.0077982,0.0733886,5,0.1,5,9,0.150878,-2.1,0.599993,0.693906,-0.0170588,-4.47035e-06,-0.144906,-0.163198,0,0.00884822,0.395331,5,0.1,6,9,0.531343,-3.76417,0.591146,0.0805169,0.151956,-0.00249147,0.117809,0.31507,-0.0106692,0.00952124,0.0331472,5,0.1,7,9,-5.41678,-1.08066,0.58112,-0.0678301,-0.350538,0.0296459,0.0476837,0.144184,-0.0226498,0.00753394,0.0420287,5,0.1,8,9,-0.162424,0.872598,0.600032,-0.135952,0.563458,-2.23517e-05,0.146478,-0.338882,5.96046e-05,0.00856472,0.149102,5,0.1,9,9,0.281575,-2.71128,0.575594,-0.519485,0.733924,0.0190526,0.0298464,-0.213981,0.0013411,0.0140279,0.553434,5,0.1
0,9.1,1.26825,-3.43232,0.572238,0.0215102,-0.0349782,-0.00558151,-0.0925809,0.12964,0.0222437,0.0120664,0.000643356,5,0.1,1,9.1,0.194384,1.59033,0.521082,0.141445,-0.433664,-0.00266572,0.0232467,1.27789,-0.103299,0.019346,3.22789,5,0.1,2,9.1,-2.56252,2.86206,1.34971,-0.257632,0.801662,0.000279211,0.311121,0.314951,-0.000216067,0.0118367,0.568378,5,0.1,3,9.1,0.27826,-0.117749,0.507576,0.0744415,0.157212,0.002978,-0.150943,-0.264888,-0.00800192,0.0137286,0.00163341,5,0.1,4,9.1,2.26908,1.5,0.5,-0.334313,-7.07805e-06,0,0.0465959,-1.49012e-05,0,0.0077982,0.0733886,5,0.1,5,9.1,0.219567,-2.10269,0.599993,0.67946,-0.0380348,-4.00469e-06,-0.16874,-0.239983,1.11759e-05,0.00884822,0.395331,5,0.1,6,9.1,0.53991,-3.74755,0.590847,0.089998,0.178568,-0.00344487,0.0690967,0.209972,-0.00816211,0.00952124,0.0331472,5,0.1,7,9.1,-5.42335,-1.11504,0.58398,-0.0635825,-0.337211,0.0276048,0.0399053,0.135653,-0.0192448,0.00753394,0.0420287,5,0.1,8,9.1,-0.175337,0.927322,0.60003,-0.122705,0.531312,-1.7602e-05,0.122598,-0.320777,4.09782e-05,0.00856472,0.149102,5,0.1,9,9.1,0.229755,-2.63893,0.577502,-0.516578,0.7127,0.0190655,0.0494392,-0.234962,-0.00166148,0.0140279,0.553434,5,0.1
0,9.2,1.26997,-3.43521,0.571783,0.0132203,-0.023216,-0.00358224,-0.0730753,0.1055,0.0177622,0.0117124,0.000408282,5,0.1,1,9.2,0.208617,1.55283,0.520324,0.142781,-0.322515,-0.0121966,-0.003241,0.904024,-0.085026,0.0160823,3.33485,5,0.1,2,9.2,-2.58656,2.94321,1.34973,-0.221568,0.815213,0.0002563,0.400305,-0.0581741,-0.000178814,0.0112091,0.746652,5,0.1,3,9.2,0.284957,-0.103363,0.507835,0.0596203,0.130439,0.00222027,-0.144437,-0.268452,-0.00709295,0.00921511,0.00152539,5,0.1,4,9.2,2.23596,1.5,0.5,-0.327021,-8.9407e-06,0,0.110507,0,0,0.0095347,0.0597511,5,0.1,5,9.2,0.286465,-2.10771,0.599992,0.656038,-0.0621974,-2.98023e-06,-0.316174,-0.231147,0,0.0108339,0.273776,5,0.1,6,9.2,0.549157,-3.72887,0.590468,0.0939399,0.192875,-0.0040859,0.00849366,0.0724792,-0.00452995,0.00700609,0.0118999,5,0.1,7,9.2,-5.4295,-1.14801,0.586643,-0.0594139,-0.321186,0.0256151,0.0455379,0.193775,-0.0212491,0.00811703,0.0173693,5,0.1,8,9.2,-0.187006,0.978768,0.600028,-0.110726,0.496502,-1.49012e-05,0.119932,-0.386745,2.98023e-05,0.00776854,0.136353,5,0.1,9,9.2,0.178518,-2.56903,0.579392,-0.506062,0.682855,0.018625,0.175081,-0.378132,-0.00745058,0.00980364,0.0815206,5,0.1
0,9.3,1.27095,-3.43704,0.571508,0.00672787,-0.0137109,-0.00199741,-0.0567436,0.0844151,0.0139289,0.0117124,0.000408282,5,0.1,1,9.3,0.222919,1.52429,0.518686,0.143444,-0.256553,-0.0204164,0.00838935,0.417992,-0.0767447,0.0160823,3.33485,5,0.1,2,9.3,-2.60695,3.0246,1.34976,-0.188452,0.812982,0.000239164,0.273839,-0.0269264,-0.000163913,0.0112091,0.746652,5,0.1,3,9.3,0.290213,-0.0916496,0.508023,0.0456854,0.104016,0.0015554,-0.133168,-0.257678,-0.00616536,0.00921511,0.00152539,5,0.1,4,9.3,2.20371,1.5,0.5,-0.318587,-8.00937e-06,0,0.0750571,2.23517e-05,0,0.0095347,0.0597511,5,0.1,5,9.3,0.35055,-2.11513,0.599992,0.625746,-0.0863478,-2.6077e-06,-0.310125,-0.239491,7.45058e-06,0.0108339,0.273776,5,0.1,6,9.3,0.55853,-3.70936,0.59004,0.0928589,0.195661,-0.00441708,-0.0303946,-0.0181347,-0.00202656,0.00700609,0.0118999,5,0.1,7,9.3,-5.43522,-1.17914,0.5891,-0.0549503,-0.301178,0.02354,0.0450313,0.212722,-0.0207983,0.00811703,0.0173693,5,0.1,8,9.3,-0.197678,1.02658,0.600027,-0.10436,0.460319,-1.27591e-05,0.0206977,-0.350971,1.11759e-05,0.00776854,0.136353,5,0.1,9,9.3,0.129061,-2.50287,0.581217,-0.48038,0.637821,0.0178532,0.33612,-0.52315,-0.00847504,0.00980364,0.0815206,5,0.1
0,9.4,1.27137,-3.43802,0.571371,0.00186563,-0.00634789,-0.000795722,-0.0405908,0.0630617,0.0101626,0.0113707,0.00019614,5,0.1,1,9.4,0.23727,1.5,0.516292,0.143078,-0.235701,-0.0271022,-0.0213981,0.028491,-0.0551939,0.0220361,3.15492,5,0.1,2,9.4,-2.62456,3.10554,1.34978,-0.164706,0.80297,0.000220537,0.210047,-0.201344,-0.000178814,0.0092317,0.525421,5,0.1,3,9.4,0.294142,-0.0825024,0.50815,0.0331715,0.0793114,0.000995398,-0.116333,-0.234671,-0.00506639,0.0103093,0.00147454,5,0.1,4,9.4,2.17228,1.5,0.5,-0.309145,-2.98023e-06,0,0.125408,-5.96046e-05,0,0.0105262,0.0956446,5,0.1,5,9.4,0.411448,-2.12489,0.599992,0.590597,-0.107974,-1.49012e-06,-0.406548,-0.184298,0,0.0098818,0.186859,5,0.1,6,9.4,0.567598,-3.69004,0.589593,0.0878692,0.189137,-0.00448078,-0.0690818,-0.112057,0.000745058,0.0085016,0.00324215,5,0.1,7,9.4,-5.44048,-1.20812,0.591347,-0.0501871,-0.277624,0.0213668,0.0510216,0.262141,-0.0229776,0.0087785,0.00944482,5,0.1,8,9.4,-0.208085,1.07082,0.600025,-0.104242,0.423947,-1.19209e-05,-0.00818819,-0.386,0,0.00911136,0.165616,5,0.1,9,9.4,0.0829507,-2.44195,0.582955,-0.439458,0.578338,0.0168502,0.478573,-0.664711,-0.0118911,0.0139004,0.0432475,5,0.1
0,9.5,1.27137,-3.43837,0.571337,-0.00155568,-0.000908971,6.91041e-05,-0.0279993,0.045836,0.00716746,0.0113707,0.00019614,5,0.1,1,9.5,0.251289,1.47661,0.513383,0.135631,-0.232709,-0.0303624,-0.121097,-0.00212342,-0.0121072,0.0220361,3.15492,5,0.1,2,9.5,-2.64012,3.18494,1.3498,-0.147839,0.78521,0.000203401,0.136659,-0.186518,-0.000163913,0.0092317,0.525421,5,0.1,3,9.5,0.296903,-0.075705,0.508225,0.0223331,0.0570762,0.000537559,-0.0997558,-0.208375,-0.00407547,0.0103093,0.00147454,5,0.1,4,9.5,2.14178,1.5,0.5,-0.3024,-2.79397e-06,0,0.0315905,3.72529e-05,0,0.0105262,0.0956446,5,0.1,5,9.5,0.468568,-2.13661,0.599992,0.552306,-0.125976,-1.11759e-06,-0.376366,-0.166222,7.45058e-06,0.0098818,0.186859,5,0.1,6,9.5,0.576002,-3.67179,0.589152,0.0798442,0.175115,-0.00431808,-0.0905357,-0.166833,0.00249222,0.0085016,0.00324215,5,0.1,7,9.5,-5.44525,-1.23459,0.593372,-0.0452526,-0.251685,0.0191518,0.0487268,0.261493,-0.0217445,0.0087785,0.00944482,5,0.1,8,9.5,-0.218797,1.1116,0.600024,-0.111967,0.394002,-1.24797e-05,-0.126148,-0.2378,-1.49012e-05,0.00911136,0.165616,5,0.1,9,9.5,0.0414799,-2.38736,0.58459,-0.389192,0.51407,0.015924,0.524585,-0.62865,-0.00755861,0.0139004,0.0432475,5,0.1
0,9.6,1.27109,-3.43826,0.571375,-0.00376999,0.00285506,0.00064671,-0.0165105,0.0295639,0.00441074,0.00769118,7.0561e-05,5,0.1,1,9.6,0.264126,1.45309,0.510343,0.120063,-0.24038,-0.0299215,-0.18467,-0.160456,0.0190735,0.0188543,2.83717,5,0.1,2,9.6,-2.65428,3.26233,1.34982,-0.135732,0.760162,0.000187755,0.112534,-0.336766,-0.000238419,0.0116823,0.361735,5,0.1,3,9.6,0.29867,-0.0709846,0.50826,0.0133269,0.0379076,0.000183284,-0.0800192,-0.173941,-0.00301003,0.00958263,0.00105112,5,0.1,4,9.6,2.11169,1.5,0.5,-0.299013,0,0,0.0519753,0,0,0.00648552,0.0841556,5,0.1,5,9.6,0.521854,-2.14994,0.599992,0.512458,-0.139606,0,-0.432134,-0.0997782,0,0.0112488,0.126033,5,0.1,6,9.6,0.583505,-3.65519,0.588735,0.069949,0.156122,-0.00398755,-0.106454,-0.21112,0.00405312,0.00775174,0.00123451,5,0.1,7,9.6,-5.44953,-1.25842,0.595178,-0.0402808,-0.224566,0.0169516,0.05126,0.283659,-0.0225306,0.00779188,0.00280802,5,0.1,8,9.6,-0.230683,1.14989,0.600023,-0.125938,0.372067,-1.3411e-05,-0.138082,-0.219226,-2.98023e-05,0.00862014,0.100357,5,0.1,9,9.6,0.00524296,-2.33909,0.586145,-0.335016,0.451303,0.0151813,0.556346,-0.631809,-0.00798702,0.0102656,0.0987936,5,0.1
0,9.7,1.27065,-3.43785,0.571459,-0.0049904,0.00519305,0.000984222,-0.00815094,0.0174642,0.00239909,0.00769118,7.0561e-05,5,0.1,1,9.7,0.275137,1.42823,0.507489,0.0995686,-0.259687,-0.0267834,-0.219798,-0.319377,0.0415854,0.0188543,2.83717,5,0.1,2,9.7,-2.66738,3.33677,1.34984,-0.126883,0.728955,0.000166334,0.0718981,-0.314102,-0.000201166,0.0116823,0.361735,5,0.1,3,9.7,0.29963,-0.0680143,0.508265,0.00614957,0.0220117,-7.58097e-05,-0.0632647,-0.143133,-0.00217557,0.00958263,0.00105112,5,0.1,4,9.7,2.08187,1.5,0.5,-0.298554,0,0,-0.0202954,0,0,0.00648552,0.0841556,5,0.1,5,9.7,0.571051,-2.16438,0.599992,0.472232,-0.148875,9.31323e-08,-0.386748,-0.0780523,3.72529e-06,0.0112488,0.126033,5,0.1,6,9.7,0.589956,-3.64067,0.588358,0.058989,0.133967,-0.00353828,-0.111558,-0.229448,0.00488013,0.00775174,0.00123451,5,0.1,7,9.7,-5.45331,-1.27946,0.596762,-0.0352338,-0.196357,0.0147448,0.0499487,0.281684,-0.0217296,0.00779188,0.00280802,5,0.1,8,9.7,-0.244029,1.18612,0.600021,-0.141257,0.353553,-1.62981e-05,-0.155055,-0.167429,-2.6077e-05,0.00862014,0.100357,5,0.1,9,9.7,-0.0253836,-2.29701,0.587627,-0.276819,0.391018,0.0144767,0.598263,-0.579074,-0.00670552,0.0102656,0.0987936,5,0.1
0,9.8,1.27012,-3.43726,0.571566,-0.00545084,0.00641346,0.00113845,-0.00137091,0.00703335,0.000745058,0.00788821,2.10585e-05,5,0.1,1,9.8,0.283974,1.4,0.505041,0.0770785,-0.311089,-0.0219867,-0.225678,-0.683308,0.0526011,0.0166643,2.4342,5,0.1,2,9.8,-2.67973,3.40796,1.34985,-0.120068,0.69285,0.000146031,0.0700951,-0.426173,-0.000119209,0.0115564,0.245444,5,0.1,3,9.8,0.299958,-0.0664723,0.508248,0.00070557,0.00940245,-0.00025332,-0.0455528,-0.108678,-0.0013411,0.00955443,0.000552393,5,0.1,4,9.8,2.05195,1.5,0.5,-0.299215,0,0,0.0230074,0,0,0.00646405,0.118237,5,0.1,5,9.8,0.61632,-2.17957,0.599992,0.432689,-0.153965,1.49012e-06,-0.413954,-0.0185966,-2.98023e-05,0.0115327,0.144571,5,0.1,6,9.8,0.595297,-3.62843,0.58803,0.0478581,0.110698,-0.00302345,-0.11012,-0.233531,0.00536442,0.00780016,0.00122141,5,0.1,7,9.8,-5.45658,-1.29769,0.598129,-0.0302315,-0.168082,0.0125855,0.0500679,0.284135,-0.0214875,0.00773234,0.00105705,5,0.1,8,9.8,-0.258869,1.22062,0.60002,-0.154683,0.335792,-1.78814e-05,-0.104085,-0.199318,-2.98023e-05,0.00967396,0.142418,5,0.1,9,9.8,-0.0500697,-2.26075,0.589039,-0.217052,0.334626,0.0137389,0.589527,-0.552177,-0.00843406,0.0113949,0.132946,5,0.1
0,9.9,1.26958,-3.43659,0.571682,-0.00534393,0.00674278,0.00115288,0.00323355,-8.9407e-05,-0.000391155,0.00788821,2.10585e-05,5,0.1,1,9.9,0.290465,1.3645,0.503112,0.0520853,-0.406252,-0.0165696,-0.264779,-1.12518,0.0544079,0.0166643,2.4342,5,0.1,2,9.9,-2.69143,3.47523,1.34987,-0.114468,0.653188,0.000134856,0.0478327,-0.389144,-0.000104308,0.0115564,0.245444,5,0.1,3,9.9,0.299824,-0.0660297,0.508217,-0.00315877,-8.70903e-05,-0.000357442,-0.0317805,-0.080952,-0.000752509,0.00955443,0.000552393,5,0.1,4,9.9,2.02194,1.5,0.5,-0.302421,0,0,-0.0627711,0,0,0.00646405,0.118237,5,0.1,5,9.9,0.657843,-2.19517,0.599992,0.400365,-0.158664,-3.72529e-07,-0.257835,-0.0618696,-1.49012e-05,0.0115327,0.144571,5,0.1,6,9.9,0.59954,-3.61852,0.587754,0.0371077,0.0876505,-0.00248095,-0.103865,-0.225112,0.0054203,0.00780016,0.00122141,5,0.1,7,9.9,-5.45936,-1.3131,0.599282,-0.0253551,-0.140319,0.0105014,0.0474155,0.270635,-0.0201911,0.00773234,0.00105705,5,0.1,8,9.9,-0.275118,1.25325,0.600018,-0.172255,0.317043,-2.03028e-05,-0.221342,-0.186145,-1.49012e-05,0.00967396,0.142418,5,0.1,9,9.9,-0.0688937,-2.22991,0.590376,-0.160242,0.283534,0.0130242,0.540894,-0.475451,-0.00648946,0.0113949,0.132946,5,0.1
0,10,1.26907,-3.43593,0.571793,-0.0048548,0.00645518,0.00107139,0.00631809,-0.00524521,-0.00119209,0.00858571,9.89194e-06,5,0.1,1,10,0.294349,1.31816,0.501721,0.0257798,-0.519568,-0.0113338,-0.254184,-1.0702,0.049293,0.0172439,0.207801,5,0.1,2,10,-2.70264,3.53851,1.34988,-0.109476,0.611305,0.00012219,0.0560284,-0.463486,-5.96046e-05,0.00904103,0.165196,5,0.1,3,10,0.299371,-0.0663965,0.508178,-0.00567064,-0.00678431,-0.000406802,-0.0186116,-0.0531077,-0.000208616,0.0109252,0.000214584,5,0.1,4,10,1.9914,1.5,0.5,-0.307575,0,0,-0.0227094,0,0,0.00744674,0.197033,5,0.1,5,10,0.696678,-2.21133,0.599992,0.37673,-0.164008,0,-0.233471,-0.0351667,-2.98023e-05,0.0113957,0.0846744,5,0.1,6,10,0.602749,-3.61085,0.587533,0.0272602,0.0660777,-0.00195056,-0.0923574,-0.204444,0.0051856,0.00777262,0.00118432,5,0.1,7,10,-5.46166,-1.3258,0.600233,-0.0207424,-0.114056,0.00855029,0.0445843,0.254035,-0.0188351,0.0075206,0.000801307,5,0.1,8,10,-0.293468,1.28397,0.600016,-0.194423,0.296804,-2.08616e-05,-0.20276,-0.225723,-2.98023e-05,0.0100818,0.108508,5,0.1,9,10,-0.0823332,-2.20384,0.591645,-0.10985,0.238544,0.0123337,0.462934,-0.428557,-0.007689,0.00894673,0.0267154,5,0.1
0,10.1,1.26862,-3.43532,0.571894,-0.00412315,0.00575148,0.000926107,0.00807643,-0.00850856,-0.00166148,0.00858571,9.89194e-06,5,0.1,1,10.1,0.295653,1.2618,0.500819,0.000437116,-0.598202,-0.00687782,-0.245737,-0.509143,0.0393912,0.0172439,0.207801,5,0.1,2,10.1,-2.71334,3.59746,1.34989,-0.104755,0.568336,0.000116043,0.0431538,-0.414297,-6.70552e-05,0.00904103,0.165196,5,0.1,3,10.1,0.298727,-0.0673051,0.508137,-0.00704401,-0.0110418,-0.000409968,-0.0090804,-0.0323229,0.00012666,0.0109252,0.000214584,5,0.1,4,10.1,1.96021,1.5,0.5,-0.318545,0,0,-0.163354,0,0,0.00744674,0.197033,5,0.1,5,10.1,0.733275,-2.22792,0.599991,0.355778,-0.167761,-1.76951e-06,-0.199441,-0.0312179,-1.11759e-05,0.0113957,0.0846744,5,0.1,6,10.1,0.605031,-3.60523,0.587363,0.0185873,0.0467077,-0.00145128,-0.0804365,-0.181377,0.00474975,0.00777262,0.00118432,5,0.1,7,10.1,-5.46352,-1.33598,0.600997,-0.0164829,-0.0897964,0.00675777,0.0404418,0.230305,-0.0169761,0.0075206,0.000801307,5,0.1,8,10.1,-0.313552,1.31255,0.600013,-0.203751,0.274805,-2.29105e-05,0.00682101,-0.220865,-7.45058e-06,0.0100818,0.108508,5,0.1,9,10.1,-0.0911441,-2.18232,0.592818,-0.0678083,0.190462,0.010932,0.37658,-0.516027,-0.019107,0.00894673,0.0267154,5,0.1
