id,t,px,py,pz,vx,vy,vz,ax,ay,az,planning_time,qp_cost,planning_report,size,id,t,px,py,pz,vx,vy,vz,ax,ay,az,planning_time,qp_cost,planning_report,size,id,t,px,py,pz,vx,vy,vz,ax,ay,az,planning_time,qp_cost,planning_report,size,id,t,px,py,pz,vx,vy,vz,ax,ay,az,planning_time,qp_cost,planning_report,size,id,t,px,py,pz,vx,vy,vz,ax,ay,az,planning_time,qp_cost,planning_report,size,id,t,px,py,pz,vx,vy,vz,ax,ay,az,planning_time,qp_cost,planning_report,size,id,t,px,py,pz,vx,vy,vz,ax,ay,az,planning_time,qp_cost,planning_report,size,id,t,px,py,pz,vx,vy,vz,ax,ay,az,planning_time,qp_cost,planning_report,size,id,t,px,py,pz,vx,vy,vz,ax,ay,az,planning_time,qp_cost,planning_report,size,id,t,px,py,pz,vx,vy,vz,ax,ay,az,planning_time,qp_cost,planning_report,size
0,0,-3.88822,1.78141,0.676976,0,0,0,0,0,0,0.0242011,0.467377,5,0.1,1,0,-0.768661,5.5719,0.63223,0,0,0,0,0,0,0.0271488,3.5122,5,0.1,2,0,-3.6698,-4.36309,0.507369,0,0,0,0,0,0,0.0135312,3.51219,5,0.1,3,0,0.256391,-1.50877,0.573545,0,0,0,0,0,0,0.0242804,3.5122,5,0.1,4,0,-5.06342,-5.81207,0.507108,0,0,0,0,0,0,0.0111813,1.66666,5,0.1,5,0,-5.53599,-1.46437,0.539998,0,0,0,0,0,0,0.0112684,1.21208,5,0.1,6,0,2.67948,-0.302743,0.552185,0,0,0,0,0,0,0.00971223,1.1839,5,0.1,7,0,1.15264,-3.16076,0.580468,0,0,0,0,0,0,0.00931404,0.784707,5,0.1,8,0,-3.55125,5.46968,0.540893,0,0,0,0,0,0,0.0246697,3.17356,5,0.1,9,0,-0.273734,2.41901,0.687459,0,0,0,0,0,0,0.0109965,3.5122,5,0.1
0,0.1,-3.88823,1.78111,0.677678,-0.00034906,-0.00833906,0.0199446,-0.00621378,-0.148252,0.354569,0.0242011,0.467377,5,0.1,1,0.1,-0.768173,5.56987,0.632204,0.0138604,-0.0576198,-0.000722054,0.246402,-1.02437,-0.0128336,0.0271488,3.5122,5,0.1,2,0.1,-3.66984,-4.361,0.507341,-0.00108853,0.059253,-0.000779051,-0.0193715,1.05339,-0.0138544,0.0135312,3.51219,5,0.1,3,0.1,0.256234,-1.50669,0.573556,-0.0044405,0.059101,0.000289176,-0.0789445,1.05068,0.00513718,0.0242804,3.5122,5,0.1,4,0.1,-5.06205,-5.81164,0.507048,0.0389226,0.0122122,-0.0016924,0.69198,0.21711,-0.0300854,0.0111813,1.66666,5,0.1,5,0.1,-5.53538,-1.46331,0.539904,0.0173643,0.0300597,-0.00266712,0.308692,0.534385,-0.0474155,0.0112684,1.21208,5,0.1,6,0.1,2.6806,-0.30321,0.552235,0.0317242,-0.0132541,0.00141701,0.563964,-0.23563,0.0251867,0.00971223,1.1839,5,0.1,7,0.1,1.15238,-3.15981,0.580489,-0.00748709,0.0269894,0.00057891,-0.133097,0.479802,0.0102893,0.00931404,0.784707,5,0.1,8,0.1,-3.5513,5.46789,0.541738,-0.00144392,-0.0509612,0.0239772,-0.0256896,-0.90602,0.426266,0.0246697,3.17356,5,0.1,9,0.1,-0.273914,2.41693,0.687493,-0.00511073,-0.0590388,0.000979751,-0.0908561,-1.04959,0.0174195,0.0109965,3.5122,5,0.1
0,0.2,-3.8883,1.77942,0.681729,-0.00110269,-0.0263572,0.0630349,-0.00834465,-0.197649,0.472754,0.0248335,0.383459,5,0.1,1,0.2,-0.765357,5.55816,0.632058,0.0438064,-0.182116,-0.00228286,0.328511,-1.36566,-0.0171065,0.0254186,2.9258,5,0.1,2,0.2,-3.67006,-4.34897,0.507183,-0.00343919,0.187266,-0.00246167,-0.0258684,1.40452,-0.0184774,0.0161877,2.9258,5,0.1,3,0.2,0.255332,-1.49469,0.573614,-0.0140347,0.186789,0.000913441,-0.105247,1.40089,0.00685453,0.0254691,2.9258,5,0.1,4,0.2,-5.05414,-5.80916,0.506704,0.123012,0.038588,-0.00534803,0.92268,0.289679,-0.0401139,0.0116575,1.36764,5,0.1,5,0.2,-5.53185,-1.4572,0.539362,0.054884,0.0950038,-0.00842959,0.411749,0.712574,-0.0632107,0.0128229,0.994445,5,0.1,6,0.2,2.68704,-0.305903,0.552523,0.100267,-0.0418894,0.00447929,0.751853,-0.314161,0.0335574,0.00804726,0.971339,5,0.1,7,0.2,1.15086,-3.15433,0.580606,-0.0236601,0.0853002,0.00182837,-0.177503,0.639796,0.0137389,0.0113137,0.643811,5,0.1,8,0.2,-3.5516,5.45753,0.546608,-0.00456572,-0.161064,0.0757799,-0.0342131,-1.20783,0.56833,0.0229639,2.60376,5,0.1,9,0.2,-0.274952,2.40494,0.687692,-0.0161529,-0.186598,0.00309497,-0.121132,-1.39928,0.0232756,0.0142495,2.92581,5,0.1
0,0.3,-3.88846,1.77569,0.690657,-0.00205785,-0.0490302,0.117265,-0.0101924,-0.241868,0.578504,0.0248335,0.383459,5,0.1,1,0.3,-0.75915,5.53236,0.631734,0.0815893,-0.339185,-0.00425046,0.403747,-1.67847,-0.0210293,0.0254186,2.9258,5,0.1,2,0.3,-3.67055,-4.32243,0.506834,-0.00641271,0.3488,-0.00458658,-0.0317693,1.72612,-0.0227019,0.0161877,2.9258,5,0.1,3,0.3,0.253343,-1.46822,0.573744,-0.0261393,0.347905,0.00170162,-0.129353,1.72167,0.00842288,0.0254691,2.9258,5,0.1,4,0.3,-5.03672,-5.80369,0.505994,0.228851,0.0718109,-0.00861464,1.129,0.35432,-0.0253506,0.0116575,1.36764,5,0.1,5,0.3,-5.52408,-1.44375,0.538168,0.102112,0.176742,-0.0156809,0.503749,0.871927,-0.0773519,0.0128229,0.994445,5,0.1,6,0.3,2.70124,-0.311835,0.553157,0.186517,-0.0779275,0.00832956,0.920102,-0.384437,0.0410825,0.00804726,0.971339,5,0.1,7,0.3,1.14751,-3.14225,0.580865,-0.0440205,0.15869,0.00340361,-0.217192,0.782892,0.0168011,0.0113137,0.643811,5,0.1,8,0.3,-3.55224,5.43472,0.557341,-0.00849105,-0.299621,0.140974,-0.0418872,-1.47808,0.695467,0.0229639,2.60376,5,0.1,9,0.3,-0.277241,2.3785,0.688131,-0.0300846,-0.347535,0.00576992,-0.148874,-1.7198,0.028573,0.0142495,2.92581,5,0.1
0,0.4,-3.88871,1.76959,0.705225,-0.00303388,-0.0723094,0.17294,-0.0089407,-0.213325,0.510365,0.0341145,0.303397,5,0.1,1,0.4,-0.749006,5.49019,0.631206,0.120491,-0.500894,-0.00627637,0.356972,-1.48439,-0.0185966,0.0220749,2.51121,5,0.1,2,0.4,-3.67134,-4.27907,0.506264,-0.00947118,0.515103,-0.00677258,-0.0281334,1.52636,-0.0200868,0.0134151,2.51563,5,0.1,3,0.4,0.250094,-1.42496,0.573955,-0.0386026,0.513786,0.00251383,-0.114374,1.52218,0.00742078,0.0351858,2.51506,5,0.1,4,0.4,-5.00829,-5.79477,0.505029,0.337505,0.105906,-0.0104547,0.995874,0.312567,-0.0116527,0.0113178,1.08258,5,0.1,5,0.4,-5.51139,-1.42179,0.53622,0.150585,0.260654,-0.0231251,0.444651,0.769258,-0.0682473,0.010953,0.78681,5,0.1,6,0.4,2.72441,-0.321516,0.554192,0.275064,-0.114925,0.012283,0.811934,-0.33918,0.0362694,0.0121173,0.768537,5,0.1,7,0.4,1.14204,-3.12253,0.581288,-0.0649214,0.234032,0.0050202,-0.191569,0.690699,0.0148416,0.00949045,0.509388,5,0.1,8,0.4,-3.5533,5.3975,0.574854,-0.0125229,-0.441873,0.207904,-0.0369549,-1.30391,0.6136,0.0266242,2.06014,5,0.1,9,0.4,-0.280981,2.33529,0.688848,-0.0444286,-0.513232,0.00852197,-0.131637,-1.52075,0.0252426,0.0114293,2.51486,5,0.1
0,0.5,-3.88906,1.76128,0.725117,-0.00394098,-0.0939552,0.224722,-0.00874698,-0.208974,0.499871,0.0341145,0.303397,5,0.1,1,0.5,-0.735122,5.43257,0.630483,0.157225,-0.650556,-0.00818996,0.358824,-1.43605,-0.0186972,0.0220749,2.51121,5,0.1,2,0.5,-3.67244,-4.21995,0.505495,-0.0123646,0.665326,-0.00850251,-0.0282377,1.4101,-0.0141971,0.0134151,2.51563,5,0.1,3,0.5,0.245645,-1.36598,0.574245,-0.0503722,0.66394,0.00327816,-0.114964,1.41244,0.00746921,0.0351858,2.51506,5,0.1,4,0.5,-4.96947,-5.78259,0.503953,0.438549,0.137615,-0.0108216,0.97546,0.30607,0.00335276,0.0113178,1.08258,5,0.1,5,0.5,-5.49407,-1.39181,0.533561,0.195693,0.338702,-0.0300496,0.435382,0.75341,-0.0668429,0.010953,0.78681,5,0.1,6,0.5,2.75605,-0.334736,0.555604,0.35744,-0.149338,0.0159627,0.795186,-0.332197,0.0355244,0.0121173,0.768537,5,0.1,7,0.5,1.13457,-3.09561,0.581866,-0.0843583,0.304109,0.00652522,-0.187628,0.676453,0.0145212,0.00949045,0.509388,5,0.1,8,0.5,-3.55474,5.34667,0.598769,-0.0162728,-0.574173,0.270159,-0.0362098,-1.27715,0.600968,0.0266242,2.06014,5,0.1,9,0.5,-0.286101,2.27637,0.68983,-0.0579745,-0.663376,0.0111191,-0.132315,-1.41352,0.0253618,0.0114293,2.51486,5,0.1
0,0.6,-3.8895,1.75092,0.7499,-0.00470877,-0.112292,0.268587,-0.00619888,-0.150383,0.359595,0.0225504,0.225873,5,0.1,1,0.6,-0.717729,5.3609,0.629577,0.18903,-0.775862,-0.00984669,0.26387,-1.02043,-0.0137389,0.0284278,2.30976,5,0.1,2,0.6,-3.6738,-4.14701,0.504586,-0.0148654,0.785923,-0.00956357,-0.0207424,0.957966,-0.00685453,0.0131417,2.33487,5,0.1,3,0.6,0.240073,-1.29316,0.574607,-0.0605617,0.784981,0.00393987,-0.0845492,0.963748,0.00551343,0.0209749,2.33218,5,0.1,4,0.6,-4.9211,-5.76741,0.502905,0.524139,0.164473,-0.00996143,0.701904,0.22006,0.0130534,0.0112977,0.806579,5,0.1,5,0.6,-5.47249,-1.35445,0.530247,0.233889,0.404817,-0.0359163,0.31352,0.541985,-0.0480711,0.0159743,0.58575,5,0.1,6,0.6,2.79547,-0.351205,0.557365,0.427222,-0.17849,0.0190794,0.571966,-0.238985,0.0255704,0.0147894,0.572152,5,0.1,7,0.6,1.12527,-3.06207,0.582585,-0.100824,0.363475,0.00779927,-0.134945,0.486493,0.0104308,0.00835106,0.379224,5,0.1,8,0.6,-3.55653,5.28335,0.628563,-0.019449,-0.686252,0.322896,-0.0261068,-0.918865,0.432342,0.0320969,1.53374,5,0.1,9,0.6,-0.292514,2.2036,0.69106,-0.0697024,-0.784594,0.0133663,-0.0972897,-0.966311,0.0186563,0.0132591,2.33117,5,0.1
0,0.7,-3.89,1.73895,0.778526,-0.00530593,-0.126729,0.30311,-0.00537932,-0.130109,0.311125,0.0225504,0.225873,5,0.1,1,0.7,-0.697517,5.27926,0.628524,0.214728,-0.847027,-0.0111848,0.23514,-0.421137,-0.0122413,0.0284278,2.30976,5,0.1,2,0.7,-3.6754,-4.06468,0.503615,-0.0169463,0.850515,-0.00966452,-0.0195503,0.361249,0.00415742,0.0131417,2.33487,5,0.1,3,0.7,0.233589,-1.21091,0.575029,-0.0690475,0.850187,0.00449326,-0.079819,0.366896,0.00520051,0.0209749,2.33218,5,0.1,4,0.7,-4.86524,-5.74988,0.501985,0.591524,0.1856,-0.00835853,0.607252,0.190377,0.0183098,0.0112977,0.806579,5,0.1,5,0.7,-5.44756,-1.31131,0.526419,0.263978,0.456849,-0.0405316,0.271112,0.468917,-0.0415929,0.0159743,0.58575,5,0.1,6,0.7,2.84101,-0.370228,0.559399,0.482134,-0.201433,0.0215339,0.494868,-0.206765,0.022117,0.0147894,0.572152,5,0.1,7,0.7,1.11452,-3.02334,0.583417,-0.11378,0.410182,0.00880063,-0.116758,0.420913,0.00902265,0.00835106,0.379224,5,0.1,8,0.7,-3.55861,5.21021,0.662977,-0.0219546,-0.774466,0.364402,-0.0225604,-0.795037,0.374049,0.0320969,1.53374,5,0.1,9,0.7,-0.299977,2.12136,0.692492,-0.0794668,-0.850055,0.0152384,-0.0918414,-0.369161,0.017602,0.0132591,2.33117,5,0.1
0,0.8,-3.89055,1.72571,0.81018,-0.00572801,-0.136933,0.327502,-0.00274181,-0.0683069,0.163376,0.0291085,0.159479,5,0.1,1,0.8,-0.675016,5.19325,0.627352,0.233543,-0.866032,-0.0121653,0.130922,0.000238419,-0.00679493,0.0337371,2.23209,5,0.1,2,0.8,-3.67718,-3.97855,0.502683,-0.0185549,0.866026,-0.00885576,-0.0118017,0,0.0113845,0.0141958,2.272,5,0.1,3,0.8,0.226328,-1.12479,0.575502,-0.07562,0.866026,0.00492185,-0.0479147,-5.96046e-05,0.00312924,0.0318301,2.26749,5,0.1,4,0.8,-4.80347,-5.7305,0.501245,0.639129,0.200534,-0.0064224,0.319004,0.0998974,0.0198781,0.011306,0.64843,5,0.1,5,0.8,-5.41999,-1.2636,0.522186,0.285232,0.493613,-0.043793,0.142336,0.246227,-0.0218451,0.0146874,0.414008,5,0.1,6,0.8,2.89136,-0.391264,0.561647,0.520927,-0.217643,0.0232682,0.259995,-0.108585,0.0116229,0.0115782,0.403973,5,0.1,7,0.8,1.10264,-2.9805,0.584336,-0.122935,0.443184,0.00950843,-0.0613332,0.221014,0.00470877,0.00904922,0.267757,5,0.1,8,0.8,-3.5609,5.12933,0.701032,-0.0237226,-0.836802,0.393729,-0.0119209,-0.417471,0.196397,0.0246783,1.09104,5,0.1,9,0.8,-0.308333,2.03525,0.694094,-0.087028,-0.866026,0.0166878,-0.0551492,0,0.01055,0.0111533,2.3042,5,0.1
0,0.9,-3.89114,1.71169,0.84371,-0.00597872,-0.143123,0.342306,-0.00198185,-0.0489354,0.117026,0.0291085,0.159479,5,0.1,1,0.9,-0.65099,5.10665,0.6261,0.246782,-0.866023,-0.0128531,0.119451,-2.98023e-05,-0.00621006,0.0337371,2.23209,5,0.1,2,0.9,-3.67912,-3.89195,0.501863,-0.0205398,0.866026,-0.00747899,-0.0249445,0,0.0156127,0.0141958,2.272,5,0.1,3,0.9,0.218517,-1.03818,0.57601,-0.0805714,0.866025,0.00524512,-0.0460204,1.11759e-05,0.00299886,0.0318301,2.26749,5,0.1,4,0.9,-4.73803,-5.70982,0.500701,0.668033,0.214034,-0.00448124,0.228494,0.150591,0.0185557,0.011306,0.64843,5,0.1,5,0.9,-5.39079,-1.21306,0.517766,0.298124,0.515924,-0.0439641,0.101835,0.176355,0.0164993,0.0146874,0.414008,5,0.1,6,0.9,2.94469,-0.413547,0.56403,0.544486,-0.227483,0.0243212,0.18622,-0.0777785,0.00832602,0.0115782,0.403973,5,0.1,7,0.9,1.09005,-2.93513,0.585309,-0.128493,0.463213,0.00993516,-0.0439435,0.15831,0.00337511,0.00904922,0.267757,5,0.1,8,0.9,-3.56333,5.04414,0.741342,-0.0248015,-0.861748,0.411525,-0.00852346,-0.100344,0.140678,0.0246783,1.09104,5,0.1,9,0.9,-0.317322,1.94867,0.695817,-0.0927195,-0.864875,0.0177767,-0.0528377,0.0395402,0.0101104,0.0111533,2.3042,5,0.1
0,1,-3.89174,1.69721,0.878344,-0.00607371,-0.145629,0.348301,0,0.00315905,-0.00751019,0.0232679,0.183654,5,0.1,1,1,-0.62583,5.02005,0.62479,0.255005,-0.866032,-0.0132799,0.0351369,0.000238419,-0.00184774,0.0257045,2.2337,5,0.1,2,1,-3.6813,-3.80535,0.501196,-0.0230312,0.866026,-0.00583082,-0.0225306,0,0.0169873,0.0128589,2.27197,5,0.1,3,1,0.210267,-0.951582,0.576547,-0.0839628,0.866026,0.00546724,-0.0183061,0,0.00116229,0.0291643,2.26703,5,0.1,4,1,-4.67044,-5.68771,0.500341,0.679731,0.227296,-0.0027746,-0.0145435,0.100613,0.0153184,0.00836793,0.450818,5,0.1,5,1,-5.36063,-1.16086,0.513502,0.30334,0.524956,-0.040859,-0.00667572,-0.0113249,0.043869,0.00847501,0.286228,5,0.1,6,1,2.99978,-0.436563,0.566491,0.554025,-0.231466,0.0247478,-0.0119209,0.00500679,-0.000536442,0.0120178,0.346655,5,0.1,7,1,1.07705,-2.88826,0.586314,-0.130743,0.471324,0.0101075,0.00280142,-0.010252,-0.000238419,0.0146371,0.182088,5,0.1,8,1,-3.56584,4.95786,0.78298,-0.0252426,-0.860238,0.41873,0.000596046,0.11611,-0.00905991,0.0218495,0.755636,5,0.1,9,1,-0.326816,1.86263,0.697637,-0.096608,-0.852811,0.0185207,-0.0208765,0.238359,0.00399351,0.0143892,2.73537,5,0.1
0,1.1,-3.89235,1.68257,0.913367,-0.00617951,-0.147888,0.353709,-0.00160933,-0.036478,0.0872575,0.0232679,0.183654,5,0.1,1,1.1,-0.60016,4.93344,0.623453,0.258057,-0.866023,-0.0134406,0.0150241,-2.98023e-05,-0.000793487,0.0257045,2.2337,5,0.1,2,1.1,-3.68373,-3.71875,0.500697,-0.0257019,0.866026,-0.00416571,-0.0282675,0,0.0160076,0.0128589,2.27197,5,0.1,3,1.1,0.201762,-0.864979,0.577101,-0.0861943,0.866026,0.00561019,-0.0212993,-3.72529e-06,0.00136718,0.0291643,2.26703,5,0.1,4,1.1,-4.60257,-5.66443,0.500133,0.676761,0.238437,-0.00145528,-0.0697076,0.106961,0.0110045,0.00836793,0.450818,5,0.1,5,1.1,-5.33053,-1.10845,0.509675,0.296618,0.522655,-0.0353552,-0.126898,-0.05389,0.0640228,0.00847501,0.286228,5,0.1,6,1.1,3.0551,-0.459832,0.568962,0.551599,-0.234896,0.0246391,-0.0568628,-0.0552554,-0.00254065,0.0120178,0.346655,5,0.1,7,1.1,1.064,-2.8412,0.587323,-0.130172,0.469252,0.0100615,0.0134036,-0.0484139,-0.00105053,0.0146371,0.182088,5,0.1,8,1.1,-3.56836,4.87234,0.82479,-0.0251278,-0.850081,0.416893,0.0026226,0.122875,-0.0429973,0.0218495,0.755636,5,0.1,9,1.1,-0.3366,1.7796,0.699513,-0.0991321,-0.798107,0.0190035,-0.023881,0.81332,0.00457093,0.0143892,2.73537,5,0.1
0,1.2,-3.89298,1.66761,0.949139,-0.00631809,-0.15088,0.360863,-0.000596046,-0.014782,0.0353158,0.0230018,0.188556,5,0.1,1,1.2,-0.574385,4.84684,0.62211,0.256197,-0.866032,-0.0133455,-0.0594258,0.000238419,0.00309944,0.0252356,2.23751,5,0.1,2,1.2,-3.68644,-3.63214,0.500357,-0.0282288,0.866026,-0.00267923,-0.020504,0,0.0135303,0.020824,2.22635,5,0.1,3,1.2,0.193065,-0.778377,0.577667,-0.0873704,0.866026,0.00568479,0.00127405,0,-8.9407e-05,0.0206331,2.26692,5,0.1,4,1.2,-4.5355,-5.64014,0.500035,0.661671,0.246108,-0.000576675,-0.248671,0.0355244,0.00667572,0.0112384,0.305822,5,0.1,5,1.2,-5.30169,-1.05665,0.506478,0.278246,0.510994,-0.0284493,-0.238419,-0.191927,0.0723004,0.00856339,0.210309,5,0.1,6,1.2,3.10977,-0.483574,0.571404,0.539297,-0.239357,0.0240892,-0.202656,-0.0207275,-0.00905991,0.00697867,0.25323,5,0.1,7,1.2,1.0511,-2.79469,0.58832,-0.127268,0.458783,0.00983626,0.0478029,-0.172377,-0.00369549,0.012647,0.121083,5,0.1,8,1.2,-3.57085,4.7882,0.866106,-0.0245631,-0.829661,0.407591,0.00929832,0.309944,-0.153154,0.0215532,0.514656,5,0.1,9,1.2,-0.346599,1.70452,0.70143,-0.100415,-0.697958,0.0192493,0.00220537,1.15395,-0.000447035,0.0188412,3.18964,5,0.1
0,1.3,-3.89361,1.65216,0.985443,-0.00639111,-0.160573,0.365144,-0.000566244,-0.153773,0.0320859,0.0230018,0.188556,5,0.1,1,1.3,-0.549039,4.76024,0.62079,0.250689,-0.866023,-0.0130583,-0.0606105,-2.98023e-05,0.00315905,0.0252356,2.23751,5,0.1,2,1.3,-3.68937,-3.54554,0.500151,-0.0305146,0.866026,-0.001493,-0.0228286,0,0.0101142,0.020824,2.22635,5,0.1,3,1.3,0.184309,-0.691774,0.578237,-0.0878638,0.866026,0.00571646,-0.006116,-3.72529e-06,0.000394881,0.0206331,2.26692,5,0.1,4,1.3,-4.47055,-5.61533,0.500004,0.637089,0.249921,-9.35048e-05,-0.263542,0.0286102,0.0032112,0.0112384,0.305822,5,0.1,5,1.3,-5.27532,-1.00649,0.503996,0.246876,0.49202,-0.0212074,-0.376314,-0.203423,0.0711493,0.00856339,0.210309,5,0.1,6,1.3,3.16271,-0.50733,0.573768,0.519264,-0.233124,0.0231938,-0.214756,0.137709,-0.00959635,0.00697867,0.25323,5,0.1,7,1.3,1.0386,-2.74966,0.589286,-0.122542,0.441743,0.00947099,0.0506639,-0.182658,-0.00391901,0.012647,0.121083,5,0.1,8,1.3,-3.57326,4.70669,0.906116,-0.0236448,-0.800563,0.392452,0.00984967,0.301272,-0.162296,0.0215532,0.514656,5,0.1,9,1.3,-0.356565,1.64107,0.703358,-0.0982454,-0.566631,0.0193291,0.0410248,1.41178,0.000972301,0.0188412,3.18964,5,0.1
0,1.4,-3.89425,1.63527,1.02199,-0.00637174,-0.177211,0.364214,0.00107288,-0.160038,-0.0631809,0.02474,0.112412,5,0.1,1,1.4,-0.524341,4.67364,0.619504,0.242421,-0.866032,-0.0126287,-0.111371,0.000238419,0.00584126,0.0214881,2.24142,5,0.1,2,1.4,-3.69253,-3.45894,0.500046,-0.0323892,0.866026,-0.000663102,-0.0128746,0,0.00649691,0.0180354,1.76988,5,0.1,3,1.4,0.175513,-0.605172,0.578809,-0.087738,0.866026,0.00570863,0.0121444,0,-0.000804663,0.0207079,2.26701,5,0.1,4,1.4,-4.40832,-5.59029,0.500007,0.605547,0.249791,0.000105798,-0.380754,-0.0391006,0.000923872,0.00993188,0.204679,5,0.1,5,1.4,-5.25266,-0.958427,0.50222,0.205302,0.46767,-0.0144541,-0.444412,-0.294089,0.0629127,0.0131802,0.107692,5,0.1,6,1.4,3.21343,-0.529746,0.576034,0.493562,-0.213292,0.0220448,-0.310421,0.25183,-0.0138581,0.0122739,0.12816,5,0.1,7,1.4,1.02663,-2.70651,0.590211,-0.116479,0.419879,0.00900328,0.0733137,-0.263929,-0.00569224,0.00897443,0.170201,5,0.1,8,1.4,-3.57557,4.62832,0.944451,-0.022471,-0.764501,0.373027,0.0141859,0.439405,-0.234544,0.0238405,0.345291,5,0.1,9,1.4,-0.366122,1.59149,0.705291,-0.0922829,-0.425923,0.0192598,0.07765,1.35994,-0.00306964,0.0106445,3.50605,5,0.1
0,1.5,-3.89488,1.61673,1.05807,-0.00624657,-0.193455,0.356925,0.00160933,-0.151522,-0.0938997,0.02474,0.112412,5,0.1,1,1.5,-0.500592,4.58703,0.618267,0.232923,-0.866023,-0.0121308,-0.0888743,-2.98023e-05,0.00464916,0.0214881,2.24142,5,0.1,2,1.5,-3.69583,-3.37234,0.500007,-0.0337172,0.866026,-0.000180025,-0.0118166,0,0.00334904,0.0180354,1.76988,5,0.1,3,1.5,0.16677,-0.518569,0.579378,-0.0872988,0.866026,0.0056793,0.00167638,-3.57628e-06,-0.000115484,0.0207079,2.26701,5,0.1,4,1.5,-4.34959,-5.56549,0.50002,0.569227,0.24611,0.000144355,-0.362813,-0.0443161,-6.70552e-05,0.00993188,0.204679,5,0.1,5,1.5,-5.23439,-0.913074,0.501068,0.159916,0.439618,-0.0087942,-0.455022,-0.280242,0.0498258,0.0131802,0.107692,5,0.1,6,1.5,3.26129,-0.549641,0.578171,0.463953,-0.183138,0.020723,-0.295788,0.341065,-0.0132062,0.0122739,0.12816,5,0.1,7,1.5,1.01534,-2.66563,0.591084,-0.109488,0.399148,0.00846088,0.0698343,-0.172481,-0.00540912,0.00897443,0.170201,5,0.1,8,1.5,-3.57775,4.55396,0.980626,-0.021119,-0.72329,0.350654,0.0134856,0.409037,-0.223503,0.0238405,0.345291,5,0.1,9,1.5,-0.374874,1.55563,0.707209,-0.0820018,-0.293841,0.0191428,0.123776,1.20686,-0.000409782,0.0106445,3.50605,5,0.1
0,1.6,-3.8955,1.59673,1.09317,-0.00602007,-0.205261,0.343573,0.00321865,-0.0754595,-0.180483,0.0226349,0.0777244,5,0.1,1,1.6,-0.477776,4.50043,0.617078,0.222901,-0.866032,-0.011608,-0.118762,0.000238419,0.00619888,0.0223782,2.24558,5,0.1,2,1.6,-3.69925,-3.28573,0.500002,-0.0344336,0.866026,4.17233e-05,-0.0013113,0,0.0012219,0.0169106,2.09751,5,0.1,3,1.6,0.158065,-0.431967,0.579944,-0.0865437,0.866025,0.00562966,0.0169724,1.43051e-05,-0.00110269,0.0189621,2.29293,5,0.1,4,1.6,-4.29457,-5.54117,0.500033,0.5301,0.239289,0.000108778,-0.431061,-0.0989437,-0.000625849,0.0144619,0.204405,5,0.1,5,1.6,-5.22063,-0.870578,0.500413,0.115752,0.409402,-0.00454634,-0.422001,-0.332981,0.0350475,0.0133793,0.236359,5,0.1,6,1.6,3.30614,-0.566173,0.580175,0.432062,-0.14693,0.0192985,-0.351429,0.374824,-0.015676,0.00712002,0.159602,5,0.1,7,1.6,1.00476,-2.62658,0.591902,-0.10196,0.381631,0.00787824,0.0829399,-0.193596,-0.0064075,0.0110966,0.122603,5,0.1,8,1.6,-3.57979,4.48378,1.01452,-0.0196636,-0.678647,0.326556,0.015974,0.500441,-0.265598,0.0259892,0.23008,5,0.1,9,1.6,-0.382409,1.53158,0.709118,-0.0682972,-0.195295,0.0189841,0.146791,0.731409,-0.00357628,0.0103973,3.48164,5,0.1
0,1.7,-3.89608,1.57617,1.1266,-0.00568442,-0.202806,0.324659,0.00362098,0.113584,-0.204653,0.0226349,0.0777244,5,0.1,1,1.7,-0.455999,4.41383,0.615945,0.213168,-0.866023,-0.0111002,-0.086233,-2.98023e-05,0.00449643,0.0223782,2.24558,5,0.1,2,1.7,-3.7027,-3.19913,0.50001,-0.0345662,0.866026,0.000109337,0.000149012,0,0.000208616,0.0169106,2.09751,5,0.1,3,1.7,0.149463,-0.345376,0.580504,-0.0857095,0.865435,0.00557564,0.00473671,-0.0236313,-0.000305474,0.0189621,2.29293,5,0.1,4,1.7,-4.24361,-5.51765,0.500041,0.489689,0.23181,4.63799e-05,-0.391632,-0.0629425,-0.000603497,0.0144619,0.204405,5,0.1,5,1.7,-5.21107,-0.831024,0.500109,0.0764735,0.383857,-0.00178181,-0.358909,-0.201914,0.0206083,0.0133793,0.236359,5,0.1,6,1.7,3.34767,-0.578994,0.58203,0.399118,-0.109675,0.0178287,-0.319242,0.363957,-0.0142455,0.00712002,0.159602,5,0.1,7,1.7,0.994955,-2.58925,0.592659,-0.094185,0.365691,0.00727763,0.0753403,-0.142649,-0.00581518,0.0110966,0.122603,5,0.1,8,1.7,-3.58168,4.41829,1.04591,-0.0181668,-0.632036,0.301658,0.0145137,0.451982,-0.24128,0.0259892,0.23008,5,0.1,9,1.7,-0.38843,1.515,0.711013,-0.0515562,-0.14576,0.0190261,0.1816,0.169687,0.0028424,0.0103973,3.48164,5,0.1
0,1.8,-3.89663,1.55669,1.15796,-0.00528097,-0.184605,0.30154,0.00476837,0.240743,-0.261903,0.0238305,0.193519,5,0.1,1,1.8,-0.435129,4.32723,0.614858,0.203887,-0.866032,-0.0106171,-0.106722,0.000238419,0.00554323,0.0261892,2.35525,5,0.1,2,1.8,-3.70614,-3.11253,0.500021,-0.0341535,0.866026,9.83477e-05,0.00917912,0,-0.000357628,0.0134373,1.65662,5,0.1,3,1.8,0.140929,-0.25914,0.581059,-0.0847377,0.856573,0.00551343,0.0182688,-0.189035,-0.00119209,0.0190187,2.61993,5,0.1,4,1.8,-4.19663,-5.4948,0.500043,0.449336,0.224602,-8.9407e-06,-0.4251,-0.0896454,-0.000536442,0.013065,0.163888,5,0.1,5,1.8,-5.20509,-0.793593,0.500013,0.0446558,0.364865,-0.000329316,-0.274658,-0.195384,0.00905991,0.0144943,0.201025,5,0.1,6,1.8,3.38596,-0.588202,0.58374,0.366229,-0.0752166,0.01636,-0.346661,0.320762,-0.0154674,0.00734916,0.248868,5,0.1,7,1.8,0.985919,-2.55343,0.593357,-0.0864238,0.350118,0.0066787,0.0818074,-0.181079,-0.00634789,0.00969478,0.193978,5,0.1,8,1.8,-3.58342,4.3574,1.07485,-0.0166655,-0.584865,0.276798,0.0156164,0.505447,-0.261962,0.0246755,0.153165,5,0.1,9,1.8,-0.392664,1.5,0.71293,-0.0331171,-0.166348,0.0192791,0.182196,-0.541747,0.00113249,0.0128136,1.34557,5,0.1
0,1.9,-3.89714,1.53959,1.18681,-0.00480674,-0.15609,0.275247,0.00478327,0.319697,-0.268079,0.0238305,0.193519,5,0.1,1,1.9,-0.415199,4.24149,0.61382,0.195225,-0.840615,-0.0101676,-0.0761431,0.486612,0.00394881,0.0261892,2.35525,5,0.1,2,1.9,-3.70951,-3.02593,0.500029,-0.0332706,0.86599,5.68107e-05,0.00971556,-0.00143051,-0.000447035,0.0134373,1.65662,5,0.1,3,1.9,0.132512,-0.175512,0.581606,-0.0838104,0.806518,0.00545308,0.0052643,-0.758305,-0.000342727,0.0190187,2.61993,5,0.1,4,1.9,-4.15371,-5.47303,0.500039,0.409947,0.208615,-5.04777e-05,-0.374854,-0.221074,-0.000305474,0.013065,0.163888,5,0.1,5,1.9,-5.20183,-0.758119,0.500015,0.0219308,0.344082,0.000266917,-0.181943,-0.226639,0.00327826,0.0144943,0.201025,5,0.1,6,1.9,3.42094,-0.594226,0.585303,0.334112,-0.0463727,0.0149267,-0.305623,0.254396,-0.013642,0.00734916,0.248868,5,0.1,7,1.9,0.977623,-2.51959,0.593998,-0.0799974,0.324342,0.00618026,0.0516698,-0.326663,-0.00400096,0.00969478,0.193978,5,0.1,8,1.9,-3.58502,4.3013,1.10129,-0.0152171,-0.53813,0.252528,0.0137985,0.446141,-0.230961,0.0246755,0.153165,5,0.1,9,1.9,-0.395052,1.47989,0.714873,-0.0146451,-0.241775,0.0196412,0.18221,-0.895098,0.00470132,0.0128136,1.34557,5,0.1
0,2,-3.89759,1.52565,1.21295,-0.00430942,-0.122443,0.24727,0.005126,0.34517,-0.293911,0.0243826,0.186506,5,0.1,1,2,-0.396071,4.16051,0.612824,0.187013,-0.772893,-0.00974089,-0.09498,0.848055,0.00494719,0.0238915,2.2429,5,0.1,2,2,-3.71278,-2.93935,0.500032,-0.0320017,0.865448,1.04308e-05,0.0162125,-0.0113249,-0.000417233,0.0126167,1.97354,5,0.1,3,2,0.124169,-0.0992309,0.582149,-0.0828316,0.714358,0.00538975,0.017859,-1.0442,-0.00116229,0.0279762,2.94773,5,0.1,4,2,-4.11459,-5.45343,0.500033,0.372303,0.182068,-7.15256e-05,-0.386715,-0.302076,-0.000119209,0.0108451,0.128441,5,0.1,5,2,-5.20041,-0.724937,0.500051,0.00777245,0.318529,0.000402331,-0.103951,-0.288129,-0.000298023,0.00852403,0.510254,5,0.1,6,2,3.45283,-0.597712,0.586728,0.303423,-0.0245452,0.0135571,-0.315309,0.181794,-0.0140965,0.00726347,0.387741,5,0.1,7,2,0.969865,-2.48897,0.594597,-0.0752285,0.286287,0.00581145,0.0472665,-0.427008,-0.00366569,0.0133436,0.187477,5,0.1,8,2,-3.58647,4.24973,1.12539,-0.0138223,-0.492787,0.229332,0.0141859,0.472546,-0.238121,0.0185332,0.10224,5,0.1,9,2,-0.39564,1.45114,0.716857,0.00245571,-0.332811,0.0199795,0.156164,-0.871837,0.00104308,0.0156995,0.273349,5,0.1
0,2.1,-3.898,1.51512,1.23624,-0.00380948,-0.0884028,0.218565,0.00491738,0.329383,-0.28272,0.0243826,0.186506,5,0.1,1,2.1,-0.377794,4.08826,0.611872,0.178838,-0.665907,-0.00931518,-0.076279,1.23265,0.00396743,0.0238915,2.2429,5,0.1,2,2.1,-3.71591,-2.8528,0.500031,-0.0304617,0.865703,-2.42144e-05,0.0155866,0.00716746,-0.000275671,0.0126167,1.97354,5,0.1,3,2.1,0.115942,-0.0336077,0.582685,-0.0819362,0.594677,0.00533154,0.00495138,-1.25437,-0.00031665,0.0279762,2.94773,5,0.1,4,2.1,-4.079,-5.43682,0.500026,0.341696,0.149427,-7.65547e-05,-0.246733,-0.343293,1.49012e-05,0.0108451,0.128441,5,0.1,5,2.1,-5.20014,-0.694497,0.500088,-0.00184104,0.290411,0.000311714,-0.0815094,-0.279933,-0.00138953,0.00852403,0.510254,5,0.1,6,2.1,3.48169,-0.59932,0.588017,0.274477,-0.00839327,0.012263,-0.272021,0.136197,-0.0121631,0.00726347,0.387741,5,0.1,7,2.1,0.962552,-2.46264,0.595162,-0.0712109,0.239119,0.00550039,0.0363477,-0.504732,-0.00280887,0.0133436,0.187477,5,0.1,8,2.1,-3.58778,4.20268,1.14721,-0.0125166,-0.449387,0.207469,0.0122935,0.409633,-0.205472,0.0185332,0.10224,5,0.1,9,2.1,-0.394631,1.41389,0.718864,0.0174484,-0.407805,0.0201882,0.139941,-0.612967,0.00202283,0.0156995,0.273349,5,0.1
0,2.2,-3.89836,1.50785,1.25668,-0.00331998,-0.0576198,0.190324,0.00488758,0.282049,-0.283659,0.0197442,0.4049,5,0.1,1,2.2,-0.360313,4.02807,0.610961,0.170437,-0.536561,-0.00887811,-0.0972152,1.31142,0.00506639,0.0257764,2.14247,5,0.1,2,2.2,-3.71887,-2.76621,0.500028,-0.0287116,0.866026,-4.61936e-05,0.0201464,0,-0.000149012,0.0172118,1.54797,5,0.1,3,2.2,0.107784,0.0198351,0.583215,-0.0810031,0.47802,0.00527054,0.0171959,-1.02845,-0.00110269,0.0154994,3.09615,5,0.1,4,2.2,-4.04598,-5.42361,0.500018,0.319231,0.114751,-7.15256e-05,-0.217915,-0.344038,0.000119209,0.00785566,0.231041,5,0.1,5,2.2,-5.20065,-0.666879,0.500111,-0.00749826,0.261603,0.000147521,-0.0283718,-0.299841,-0.00178814,0.00847816,0.978781,5,0.1,6,2.2,3.50779,-0.599585,0.589183,0.247592,0.00197291,0.0110611,-0.271559,0.0689328,-0.0121593,0.00752272,0.562319,5,0.1,7,2.2,0.955616,-2.44129,0.595698,-0.0674039,0.187433,0.00520647,0.0420809,-0.519514,-0.00327826,0.0155319,0.276222,5,0.1,8,2.2,-3.58897,4.15977,1.16694,-0.011301,-0.408471,0.187159,0.0123978,0.418901,-0.205219,0.0286688,0.118394,5,0.1,9,2.2,-0.392239,1.37057,0.720887,0.0298128,-0.453073,0.0201955,0.1048,-0.284016,-0.00265241,0.0148847,0.286481,5,0.1
0,2.3,-3.89866,1.50347,1.27434,-0.00285283,-0.0306718,0.163185,0.00450015,0.246227,-0.260763,0.0197442,0.4049,5,0.1,1,2.3,-0.343716,3.98107,0.610096,0.161737,-0.40423,-0.00842493,-0.0831094,1.26541,0.00432879,0.0257764,2.14247,5,0.1,2,2.3,-3.72164,-2.67961,0.500023,-0.0268225,0.865923,-5.51343e-05,0.0184625,-0.00412762,-3.72529e-05,0.0172118,1.54797,5,0.1,3,2.3,0.0997383,0.0628836,0.583739,-0.0801132,0.390071,0.0052141,0.00531087,-0.61536,-0.000335276,0.0154994,3.09615,5,0.1,4,2.3,-4.01502,-5.41382,0.500012,0.300827,0.0815228,-5.75557e-05,-0.164255,-0.315607,0.000156462,0.00785566,0.231041,5,0.1,5,2.3,-5.20162,-0.642158,0.500118,-0.0118785,0.233283,-1.01514e-05,-0.0265539,-0.271656,-0.00135973,0.00847816,0.978781,5,0.1,6,2.3,3.53128,-0.599034,0.590232,0.222843,0.00854302,0.00995304,-0.230476,0.0404492,-0.0103116,0.00752272,0.562319,5,0.1,7,2.3,0.949057,-2.42511,0.596205,-0.0639738,0.136852,0.00493992,0.0299104,-0.485003,-0.00231713,0.0155319,0.276222,5,0.1,8,2.3,-3.59005,4.12069,1.18478,-0.0103198,-0.375819,0.170933,0.00789762,0.258565,-0.130221,0.0286688,0.118394,5,0.1,9,2.3,-0.388757,1.32391,0.722896,0.0394997,-0.478812,0.0199854,0.0860654,-0.208423,-0.00244379,0.0148847,0.286481,5,0.1
0,2.4,-3.89893,1.50151,1.28938,-0.00241399,-0.0100255,0.137904,0.00429153,0.160933,-0.245988,0.0195688,0.545152,5,0.1,1,2.4,-0.327977,3.94647,0.609277,0.152743,-0.293815,-0.00795573,-0.101179,0.909328,0.00524521,0.0205707,2.41448,5,0.1,2,2.4,-3.72423,-2.59307,0.500017,-0.024873,0.864381,-5.36442e-05,0.0209808,-0.033021,2.98023e-05,0.0136807,2.27329,5,0.1,3,2.4,0.0917656,0.1,0.584258,-0.0791358,0.363807,0.00515133,0.0175796,0.0635201,-0.00113249,0.0190875,2.89899,5,0.1,4,2.4,-3.98577,-5.40717,0.500007,0.283962,0.0524521,-4.17233e-05,-0.182986,-0.262499,0.000178814,0.00978236,0.210412,5,0.1,5,2.4,-5.20274,-0.620175,0.500111,-0.00821352,0.20642,-0.00012368,0.113249,-0.269115,-0.000923872,0.00801439,2.34067,5,0.1,6,2.4,3.55243,-0.598155,0.591177,0.200289,0.00703037,0.00894368,-0.225425,-0.079006,-0.0100732,0.0146456,1.31999,5,0.1,7,2.4,0.942812,-2.41374,0.596687,-0.0608474,0.0916302,0.00469834,0.0350177,-0.41461,-0.00268221,0.0123219,0.27449,5,0.1,8,2.4,-3.59105,4.0843,1.20127,-0.00960827,-0.35249,0.15921,0.00691414,0.226259,-0.112355,0.0174756,0.221936,5,0.1,9,2.4,-0.384427,1.27526,0.724877,0.0465512,-0.491044,0.0195563,0.0531077,-0.0214577,-0.00670552,0.0105311,0.194776,5,0.1
0,2.5,-3.89915,1.50124,1.30198,-0.00200495,0.00348352,0.114479,0.0038743,0.0904649,-0.223033,0.0195688,0.545152,5,0.1,1,2.5,-0.313173,3.92102,0.608505,0.143531,-0.222962,-0.00747805,-0.088254,0.450566,0.00457838,0.0205707,2.41448,5,0.1,2,2.5,-3.72661,-2.50665,0.500012,-0.0227489,0.864967,-4.77768e-05,0.0218153,0.0205934,7.82311e-05,0.0136807,2.27329,5,0.1,3,2.5,0.083911,0.1382,0.584769,-0.07813,0.412367,0.00508679,0.00698166,0.796465,-0.00045076,0.0190875,2.89899,5,0.1,4,2.5,-3.95823,-5.40312,0.500003,0.266975,0.0296384,-2.59839e-05,-0.16588,-0.193477,0.000137836,0.00978236,0.210412,5,0.1,5,2.5,-5.20289,-0.600809,0.500094,0.00838712,0.181491,-0.000188127,0.290126,-0.233915,-0.000394881,0.00801439,2.34067,5,0.1,6,2.5,3.57141,-0.597873,0.592025,0.179866,-0.00397153,0.00803117,-0.188962,-0.223719,-0.00844151,0.0146456,1.31999,5,0.1,7,2.5,0.936897,-2.40651,0.597144,-0.0574524,0.0546429,0.00443831,0.0346601,-0.322238,-0.00265241,0.0123219,0.27449,5,0.1,8,2.5,-3.59197,4.05015,1.21663,-0.00891984,-0.330833,0.147977,0.00706315,0.216603,-0.115417,0.0174756,0.221936,5,0.1,9,2.5,-0.379526,1.22609,0.726802,0.0512305,-0.491715,0.018937,0.0382047,0.0261888,-0.0064075,0.0105311,0.194776,5,0.1
0,2.6,-3.89933,1.50182,1.31235,-0.00163317,0.0055939,0.0932157,0.00357628,-0.054121,-0.202596,0.0211133,1.66064,5,0.1,1,2.6,-0.299275,3.9,0.607781,0.134213,-0.206643,-0.00699461,-0.101715,-0.0964403,0.00530481,0.0195577,3.28002,5,0.1,2,2.6,-3.72878,-2.42008,0.500008,-0.0204623,0.866026,-3.8743e-05,0.0241995,0,0.000119209,0.0144195,2.56683,5,0.1,3,2.6,0.0761452,0.183875,0.585275,-0.0769803,0.503507,0.00501275,0.0191629,0.941604,-0.0012517,0.0163088,2.56692,5,0.1,4,2.6,-3.9324,-5.40101,0.500001,0.249261,0.0137091,-1.3411e-05,-0.194669,-0.126123,8.9407e-05,0.0121824,0.368037,5,0.1,5,2.6,-5.2,-0.583801,0.500074,0.0551462,0.158878,-0.000207126,0.627041,-0.221491,-2.98023e-05,0.0122598,3.51625,5,0.1,6,2.6,3.58847,-0.6,0.592786,0.161487,-0.0445575,0.00721067,-0.182748,-0.573754,-0.00816584,0.0093331,2.82845,5,0.1,7,2.6,0.931337,-2.40249,0.597573,-0.0536203,0.0275135,0.00414401,0.0431538,-0.219822,-0.00330806,0.0110072,0.272049,5,0.1,8,2.6,-3.59283,4.01819,1.23083,-0.00816584,-0.307536,0.135621,0.00810623,0.255704,-0.133634,0.0224066,0.572685,5,0.1,9,2.6,-0.374251,1.17724,0.728659,0.0538208,-0.482804,0.0181541,0.0121444,0.163913,-0.00974536,0.0100196,0.241114,5,0.1
0,2.7,-3.89948,1.50209,1.32071,-0.0013385,-0.00301842,0.0744304,0.00239909,-0.215463,-0.1738,0.0211133,1.66064,5,0.1,1,2.7,-0.286347,3.8788,0.607107,0.124402,-0.218618,-0.00648312,-0.097692,-0.165984,0.0050962,0.0195577,3.28002,5,0.1,2,2.7,-3.73084,-2.33441,0.500004,-0.0218678,0.838669,-2.72878e-05,-0.0437349,-0.521094,0.000108033,0.0144195,2.56683,5,0.1,3,2.7,0.0685155,0.23959,0.585772,-0.0757795,0.615051,0.00493424,0.00907714,1.19905,-0.000592321,0.0163088,2.56692,5,0.1,4,2.7,-3.90848,-5.40024,0.5,0.228706,0.00228286,-6.14673e-06,-0.218257,-0.0967979,5.96046e-05,0.0121824,0.368037,5,0.1,5,2.7,-5.19161,-0.568974,0.500054,0.1103,0.13805,-0.000195485,0.483215,-0.197578,0.000234693,0.0122598,3.51625,5,0.1,6,2.7,3.60377,-0.607256,0.593469,0.145008,-0.0997385,0.00647428,-0.151753,-0.524841,-0.0067763,0.0093331,2.82845,5,0.1,7,2.7,0.926191,-2.40066,0.597971,-0.0492489,0.0105295,0.00380855,0.0450835,-0.122711,-0.00346452,0.0110072,0.272049,5,0.1,8,2.7,-3.59361,3.98897,1.24374,-0.00739209,-0.274746,0.122852,0.00752509,0.388786,-0.124499,0.0224066,0.572685,5,0.1,9,2.7,-0.368819,1.12962,0.730428,0.0546705,-0.47081,0.0172441,0.00299327,0.100821,-0.00905618,0.0100196,0.241114,5,0.1
0,2.8,-3.8996,1.5,1.32732,-0.00113249,-0.0457287,0.0583321,0.00166893,-0.623763,-0.148773,0.0228185,3.52393,5,0.1,1,2.8,-0.27441,3.85587,0.606485,0.114144,-0.242335,-0.00594854,-0.109568,-0.310421,0.00572205,0.0190736,3.11127,5,0.1,2,2.8,-3.7333,-2.25383,0.500002,-0.0276864,0.766772,-1.78814e-05,-0.0659227,-0.893235,8.9407e-05,0.0156658,3.00285,5,0.1,3,2.8,0.0609946,0.306906,0.586261,-0.0744442,0.727709,0.00484735,0.020612,0.988259,-0.00137091,0.0132867,2.34684,5,0.1,4,2.8,-3.88675,-5.40041,0.5,0.20535,-0.00482798,-2.98023e-06,-0.249624,-0.0424385,5.96046e-05,0.0089534,3.13922,5,0.1,5,2.8,-5.17836,-0.556134,0.500036,0.152826,0.118937,-0.000163913,0.370264,-0.186354,0.00038743,0.00836999,3.41065,5,0.1,6,2.8,3.61753,-0.619733,0.594084,0.130296,-0.148456,0.00581741,-0.146151,-0.443906,-0.00652671,0.0125498,3.39798,5,0.1,7,2.8,0.9215,-2.40009,0.598334,-0.0444755,0.00222325,0.00344217,0.050813,-0.0479221,-0.00393391,0.0139955,0.270351,5,0.1,8,2.8,-3.59431,3.96358,1.2554,-0.00662804,-0.231868,0.110266,0.0077486,0.459313,-0.129104,0.0178912,0.568589,5,0.1,9,2.8,-0.363364,1.0831,0.732104,0.0541173,-0.458393,0.0162438,-0.0152439,0.165045,-0.0113845,0.012678,0.679866,5,0.1
0,2.9,-3.89971,1.49249,1.33246,-0.000967458,-0.102632,0.0447912,0.00162423,-0.516936,-0.122689,0.0228185,3.52393,5,0.1,1,2.9,-0.263562,3.83016,0.60592,0.102641,-0.274086,-0.00534812,-0.120569,-0.425205,0.00629202,0.0190736,3.11127,5,0.1,2,2.9,-3.73646,-2.18242,0.500001,-0.0360485,0.655076,-9.49949e-06,-0.0941008,-1.27737,7.45058e-05,0.0156658,3.00285,5,0.1,3,2.9,0.0536254,0.384115,0.586741,-0.0731124,0.810748,0.00475822,0.0101237,0.647591,-0.000674278,0.0132867,2.34684,5,0.1,4,2.9,-3.86744,-5.4014,0.5,0.181007,-0.0160918,9.31323e-07,-0.239238,-0.112116,2.23517e-05,0.0089534,3.13922,5,0.1,5,2.9,-5.16179,-0.545116,0.500022,0.174612,0.101908,-0.000122748,0.133157,-0.156805,0.000417233,0.00836999,3.41065,5,0.1,6,2.9,3.62983,-0.636195,0.594633,0.115746,-0.176549,0.00516772,-0.145793,-0.185508,-0.00650436,0.0125498,3.39798,5,0.1,7,2.9,0.917282,-2.40003,0.598659,-0.0401012,-0.000510737,0.00304934,0.0385307,-0.0107735,-0.00394136,0.0139955,0.270351,5,0.1,8,2.9,-3.59493,3.94276,1.26582,-0.00590384,-0.183975,0.0982091,0.00685453,0.488222,-0.114426,0.0178912,0.568589,5,0.1,9,2.9,-0.358031,1.03751,0.733675,0.0524807,-0.457901,0.0151844,-0.0190306,-0.105597,-0.010293,0.012678,0.679866,5,0.1
0,3,-3.89979,1.47981,1.33636,-0.000810623,-0.14936,0.0336736,0.00166893,-0.417531,-0.100195,0.0209367,3.41284,5,0.1,1,3,-0.253919,3.8,0.605418,0.0900425,-0.334942,-0.00469089,-0.131167,-0.767231,0.00682473,0.0239563,2.80725,5,0.1,2,3,-3.74053,-2.12351,0.5,-0.0452459,0.522155,-4.47035e-06,-0.0845194,-1.33538,8.9407e-05,0.0116417,3.33716,5,0.1,3,3,0.046375,0.467734,0.587213,-0.071719,0.854608,0.00466704,0.0206456,0.228345,-0.00137091,0.0188594,2.27475,5,0.1,4,3,-3.85053,-5.40326,0.5,0.157177,-0.0169754,1.49012e-06,-0.238419,0.127077,2.98023e-05,0.00785043,3.60009,5,0.1,5,3,-5.14364,-0.535678,0.500011,0.189412,0.0871256,-8.19564e-05,0.195265,-0.140697,0.00038743,0.00822984,3.23066,5,0.1,6,3,3.64067,-0.654762,0.595117,0.101,-0.195529,0.00450909,-0.149727,-0.226289,-0.00667572,0.0137104,3.20411,5,0.1,7,3,0.913456,-2.4001,0.598944,-0.0364497,-0.000631809,0.00264943,0.035882,0.00548363,-0.00402331,0.0149242,0.267837,5,0.1,8,3,-3.59549,3.92678,1.27507,-0.00522733,-0.136036,0.0869751,0.00667572,0.46277,-0.111878,0.0166944,0.564445,5,0.1,9,3,-0.352895,0.991081,0.735141,0.0500575,-0.470857,0.014101,-0.0304431,-0.116616,-0.0116825,0.0109371,2.73645,5,0.1
0,3.1,-3.89987,1.46336,1.33926,-0.000660494,-0.175756,0.024619,0.00141561,-0.175826,-0.0812262,0.0209367,3.41284,5,0.1,1,3.1,-0.245266,3.76166,0.604909,0.0855647,-0.439286,-0.00609094,0.0228398,-1.21939,-0.0302233,0.0239563,2.80725,5,0.1,2,3.1,-3.74551,-2.07808,0.5,-0.0543833,0.387278,1.76951e-06,-0.0920892,-1.2801,3.35276e-05,0.0116417,3.33716,5,0.1,3,3.1,0.0392776,0.553894,0.587675,-0.0704123,0.865312,0.00458006,0.00953484,0.0285394,-0.000633299,0.0188594,2.27475,5,0.1,4,3.1,-3.83601,-5.40403,0.5,0.133311,0.00723153,2.8871e-06,-0.237823,0.463068,3.72529e-06,0.00785043,3.60009,5,0.1,5,3.1,-5.12373,-0.527617,0.500005,0.211772,0.074558,-4.70318e-05,0.361443,-0.113137,0.000301749,0.00822984,3.23066,5,0.1,6,3.1,3.65022,-0.675407,0.595545,0.0915289,-0.220045,0.00414234,-0.0513494,-0.373486,-0.00130385,0.0137104,3.20411,5,0.1,7,3.1,0.910006,-2.40022,0.599189,-0.0324295,-0.00215918,0.00225594,0.0439398,-0.0269711,-0.00384822,0.0149242,0.267837,5,0.1,8,3.1,-3.59598,3.91547,1.28324,-0.00461265,-0.0909511,0.0766853,0.00572205,0.42583,-0.0959709,0.0166944,0.564445,5,0.1,9,3.1,-0.348039,0.942103,0.736495,0.0470589,-0.519101,0.013011,-0.0307634,-0.743333,-0.010509,0.0109371,2.73645,5,0.1
0,3.2,-3.89993,1.4449,1.34134,-0.00051856,-0.194147,0.0173599,0.00154972,-0.222921,-0.0643134,0.020303,3.23161,5,0.1,1,3.2,-0.236469,3.71157,0.604119,0.0912838,-0.561321,-0.00991672,0.0770539,-1.14644,-0.0427067,0.0253832,2.47803,5,0.1,2,3.2,-3.75138,-2.04516,0.5,-0.0626028,0.278199,2.98023e-06,-0.0679493,-0.863194,0,0.010951,3.39785,5,0.1,3,3.2,0.0322928,0.640482,0.588129,-0.0691198,0.866026,0.00449568,0.0191899,0,-0.0012815,0.0146917,2.26895,5,0.1,4,3.2,-3.82386,-5.4,0.500001,0.109833,0.0829458,2.98023e-06,-0.230908,1.01829,-2.98023e-05,0.0119577,3.13435,5,0.1,5,3.2,-5.1,-0.520698,0.500002,0.27014,0.0640646,-2.23517e-05,0.780821,-0.0986159,0.000208616,0.0129423,2.90165,5,0.1,6,3.2,3.6592,-0.7,0.595957,0.0886679,-0.278747,0.00413507,-0.0150204,-0.776321,0.000625849,0.00873224,2.88161,5,0.1,7,3.2,0.906992,-2.40056,0.599395,-0.0277728,-0.00454783,0.00187904,0.048697,-0.015378,-0.00366569,0.00893154,0.252875,5,0.1,8,3.2,-3.59642,3.90835,1.29044,-0.00405908,-0.0529528,0.0674278,0.00548363,0.326514,-0.0907183,0.0207023,0.548693,5,0.1,9,3.2,-0.343495,0.886153,0.737743,0.0437006,-0.601105,0.0119343,-0.0371933,-0.817418,-0.0113547,0.00968434,2.48204,5,0.1
0,3.3,-3.89997,1.42441,1.34279,-0.000364706,-0.218378,0.01173,0.00150502,-0.370719,-0.0487193,0.020303,3.23161,5,0.1,1,3.3,-0.226806,3.6494,0.603032,0.103067,-0.68301,-0.0107974,0.143208,-1.21008,0.0193566,0.0253832,2.47803,5,0.1,2,3.3,-3.75797,-2.02084,0.500001,-0.0691872,0.217059,2.51457e-06,-0.0593811,-0.344664,-1.11759e-05,0.010951,3.39785,5,0.1,3,3.3,0.025448,0.727085,0.588574,-0.0679628,0.866026,0.00441791,0.00794405,-3.72529e-06,-0.000532717,0.0146917,2.26895,5,0.1,4,3.3,-3.81398,-5.38539,0.500001,0.0881646,0.218611,4.65661e-07,-0.20282,1.58355,-1.86265e-05,0.0119577,3.13435,5,0.1,5,3.3,-5.06796,-0.514741,0.5,0.379117,0.0554381,-6.33299e-06,1.29348,-0.0761896,0.000111759,0.0129423,2.90165,5,0.1,6,3.3,3.6681,-0.732856,0.59638,0.0901487,-0.386691,0.00435123,0.0347644,-1.27842,0.00316277,0.00873224,2.88161,5,0.1,7,3.3,0.904459,-2.40117,0.599565,-0.0228671,-0.00770949,0.0015283,0.048928,-0.0228137,-0.00334531,0.00893154,0.252875,5,0.1,8,3.3,-3.5968,3.90459,1.29676,-0.00356026,-0.024011,0.0591818,0.00460446,0.231802,-0.0759661,0.0207023,0.548693,5,0.1,9,3.3,-0.339586,0.821372,0.738882,0.0321546,-0.698144,0.0108545,-0.176985,-1.03754,-0.010509,0.00968434,2.48204,5,0.1
0,3.4,-3.9,1.4,1.34374,-0.000220537,-0.276774,0.00753105,0.0013113,-0.773013,-0.0357032,0.0242452,2.92358,5,0.1,1,3.4,-0.215778,3.57547,0.602112,0.117246,-0.790226,-0.00707805,0.128962,-0.880718,0.0503659,0.0191928,2.31277,5,0.1,2,3.4,-3.76515,-2,0.500001,-0.0737429,0.207487,1.49012e-06,-0.0288486,0.120521,-2.98023e-05,0.016167,3.28564,5,0.1,3,3.4,0.0186997,0.813688,0.589013,-0.0668475,0.866026,0.00434518,0.017202,0,-0.00113249,0.012258,2.26888,5,0.1,4,3.4,-3.80613,-5.35544,0.500001,0.069201,0.380087,0,-0.176787,1.56212,-2.98023e-05,0.00927042,2.66372,5,0.1,5,3.4,-5.02345,-0.509557,0.5,0.51043,0.0484303,1.49012e-06,1.2536,-0.0656843,2.98023e-05,0.00961185,2.53317,5,0.1,6,3.4,3.6773,-0.77804,0.596831,0.0938952,-0.516213,0.00467449,0.0329018,-1.23397,0.00286102,0.010653,2.52051,5,0.1,7,3.4,0.902414,-2.40192,0.599702,-0.0180751,-0.00557899,0.00121146,0.0465214,0.0758171,-0.00301003,0.0138939,0.214744,5,0.1,8,3.4,-3.59713,3.90307,1.30231,-0.00312924,-0.00931621,0.0519305,0.00441074,0.0551939,-0.0702739,0.0224467,1.00491,5,0.1,9,3.4,-0.337373,0.746585,0.739914,0.0112928,-0.793821,0.00978857,-0.227138,-0.813842,-0.0109375,0.0125712,2.32553,5,0.1
0,3.5,-3.90002,1.36738,1.34433,-0.000107288,-0.383882,0.00451878,0.000953674,-1.26631,-0.0249445,0.0242452,2.92358,5,0.1,1,3.5,-0.203335,3.49297,0.601629,0.132024,-0.850726,-0.00285022,0.153317,-0.348315,0.0346601,0.0191928,2.31277,5,0.1,2,3.5,-3.77254,-1.97865,0.500001,-0.0729408,0.220153,-9.31323e-07,0.0407547,0.15974,-1.49012e-05,0.016167,3.28564,5,0.1,3,3.5,0.0119723,0.90029,0.589443,-0.0687222,0.866026,0.00428017,-0.0444387,-3.72529e-06,-0.000424683,0.012258,2.26888,5,0.1,4,3.5,-3.80004,-5.30923,0.500001,0.0532523,0.545742,-1.86265e-06,-0.14326,1.66363,-1.49012e-05,0.00927042,2.66372,5,0.1,5,3.5,-4.96575,-0.505008,0.5,0.645333,0.0428215,2.8871e-06,1.36098,-0.048548,3.72529e-06,0.00961185,2.53317,5,0.1,6,3.5,3.68692,-0.836221,0.597316,0.098804,-0.649173,0.00503836,0.0566691,-1.34215,0.00395253,0.010653,2.52051,5,0.1,7,3.5,0.900833,-2.40198,0.599809,-0.0136122,0.00645593,0.000930112,0.0424087,0.199407,-0.00261888,0.0138939,0.214744,5,0.1,8,3.5,-3.59742,3.90226,1.30718,-0.00273325,-0.010084,0.0456015,0.00359118,-0.133827,-0.0577942,0.0224467,1.00491,5,0.1,9,3.5,-0.33749,0.663953,0.740842,-0.0143945,-0.850855,0.00879345,-0.273159,-0.338078,-0.0092499,0.0125712,2.32553,5,0.1
0,3.6,-3.90002,1.32254,1.34467,-2.98023e-05,-0.512049,0.00246465,0.000715256,-1.22005,-0.0165701,0.0189967,0.554117,5,0.1,1,3.6,-0.189415,3.40684,0.601495,0.145628,-0.866026,-5.36442e-05,0.109218,0,0.0216961,0.0213693,2.25409,5,0.1,2,3.6,-3.77954,-1.95563,0.500001,-0.0663698,0.242603,-1.49012e-06,0.0870228,0.294089,0,0.0119765,2.9753,5,0.1,3,3.6,0.00484555,0.986893,0.589869,-0.0739377,0.866027,0.00421703,-0.0521535,-2.98023e-05,-0.00101328,0.0176735,2.26693,5,0.1,4,3.6,-3.79538,-5.24676,0.500001,0.0403523,0.697792,-1.49012e-06,-0.115752,1.31488,-2.98023e-05,0.00874565,2.38542,5,0.1,5,3.6,-4.8948,-0.500954,0.500001,0.768328,0.0383601,2.98023e-06,1.03974,-0.042215,-2.98023e-05,0.00875537,2.34436,5,0.1,6,3.6,3.69706,-0.907468,0.597838,0.103742,-0.770412,0.00538379,0.035882,-1.02344,0.00271201,0.0109153,2.33387,5,0.1,7,3.6,0.899675,-2.4,0.599889,-0.0096485,0.0363469,0.000689924,0.0365973,0.384569,-0.00223517,0.0136083,0.153239,5,0.1,8,3.6,-3.59768,3.9,1.31146,-0.00239611,-0.0408173,0.0401169,0.00321865,-0.465035,-0.0529885,0.0197154,1.15443,5,0.1,9,3.6,-0.340279,0.577825,0.741676,-0.0409938,-0.866026,0.00789165,-0.24879,2.98023e-05,-0.0090003,0.00881893,2.11866,5,0.1
0,3.7,-3.90002,1.26581,1.34485,2.42144e-05,-0.616237,0.00121556,0.000372529,-0.842392,-0.00888109,0.0189967,0.554117,5,0.1,1,3.7,-0.174259,3.32024,0.601581,0.157663,-0.866026,0.00162991,0.119343,0,0.0123568,0.0213693,2.25409,5,0.1,2,3.7,-3.78568,-1.92996,0.500001,-0.0558183,0.272976,-1.49012e-06,0.119895,0.4104,0,0.0119765,2.9753,5,0.1,3,3.7,-0.00287945,1.0735,0.590287,-0.081036,0.866026,0.00416189,-0.0808262,-3.72529e-06,-0.000342727,0.0176735,2.26693,5,0.1,4,3.7,-3.79187,-5.17127,0.5,0.0302825,0.802838,-2.79397e-06,-0.0869781,0.776321,0,0.00874565,2.38542,5,0.1,5,3.7,-4.81373,-0.497303,0.500001,0.843488,0.0348784,5.58794e-07,0.469357,-0.0293236,-1.49012e-05,0.00875537,2.34436,5,0.1,6,3.7,3.70766,-0.988678,0.598392,0.108394,-0.844362,0.0057023,0.0492483,-0.460867,0.003241,0.0109153,2.33387,5,0.1,7,3.7,0.898884,-2.39409,0.599948,-0.00626426,0.0843186,0.000486057,0.0309199,0.538304,-0.00184402,0.0136083,0.153239,5,0.1,8,3.7,-3.5979,3.89274,1.31523,-0.00211,-0.11115,0.03538,0.0025928,-0.871956,-0.0429824,0.0197154,1.15443,5,0.1,9,3.7,-0.345599,0.491223,0.742424,-0.0649466,-0.866025,0.0070937,-0.222633,-3.8743e-06,-0.00723451,0.00881893,2.11866,5,0.1
0,3.8,-3.90002,1.20074,1.34494,4.76837e-05,-0.677228,0.000602007,0.000119209,-0.365913,-0.0038743,0.0214373,1.29354,5,0.1,1,3.8,-0.157961,3.23364,0.601793,0.167427,-0.866026,0.00248998,0.0673756,0,0.00524521,0.0210802,2.25096,5,0.1,2,3.8,-3.79064,-1.9,0.5,-0.0431299,0.331911,-1.49012e-06,0.130415,0.743687,0,0.0133837,0.816535,5,0.1,3,3.8,-0.0113739,1.1601,0.590701,-0.0885498,0.866026,0.00410825,-0.0629032,0,-0.000983477,0.01236,2.26511,5,0.1,4,3.8,-3.78924,-5.08802,0.5,0.0227153,0.853491,-1.49012e-06,-0.0654459,0.250578,1.49012e-05,0.00840772,2.27918,5,0.1,5,3.8,-4.72788,-0.493953,0.500001,0.865757,0.0321656,-1.49012e-06,0.00524521,-0.0263602,0,0.0116156,1.94372,5,0.1,6,3.8,3.71871,-1.07458,0.598976,0.112242,-0.865993,0.00596046,0.0221729,-0.000655651,0.00157952,0.0118564,2.26283,5,0.1,7,3.8,0.898402,-2.38296,0.599988,-0.00349134,0.137663,0.000321865,0.0244379,0.501394,-0.00146031,0.0104787,0.0929914,5,0.1,8,3.8,-3.5981,3.87707,1.31856,-0.00186563,-0.202948,0.0313073,0.00226498,-0.910997,-0.0393987,0.0190211,1.22124,5,0.1,9,3.8,-0.353112,0.40462,0.743098,-0.0842348,-0.866025,0.00640005,-0.157937,-1.43051e-05,-0.00688434,0.0126786,2.30047,5,0.1
0,3.9,-3.90001,1.13175,1.34499,5.25266e-05,-0.696849,0.000422075,-1.49012e-05,-0.0247136,-8.9407e-05,0.0214373,1.29354,5,0.1,1,3.9,-0.140837,3.14704,0.60206,0.175201,-0.866026,0.00276668,0.0765543,0,0.000569969,0.0210802,2.25096,5,0.1,2,3.9,-3.79429,-1.86292,0.5,-0.0298373,0.410181,-1.39698e-06,0.132501,0.775054,3.72529e-06,0.0133837,0.816535,5,0.1,3,3.9,-0.0205859,1.2467,0.591109,-0.0959072,0.866026,0.00405507,-0.0761081,0,-0.0003241,0.01236,2.26511,5,0.1,4,3.9,-3.78726,-5.0019,0.5,0.0172786,0.86524,3.72529e-07,-0.0445843,0.0313818,1.49012e-05,0.00840772,2.27918,5,0.1,5,3.9,-4.64129,-0.490851,0.500001,0.866006,0.030021,-1.49012e-06,0.000715256,-0.0181366,0,0.0116156,1.94372,5,0.1,6,3.9,3.73009,-1.16118,0.599582,0.115405,-0.866024,0.00616293,0.0335276,-8.19564e-05,0.00207126,0.0118564,2.26283,5,0.1,7,3.9,0.898166,-2.3667,0.600013,-0.00131708,0.186959,0.000192598,0.018999,0.463381,-0.00113249,0.0104787,0.0929914,5,0.1,8,3.9,-3.59828,3.85179,1.32151,-0.00166483,-0.305126,0.0278044,0.00183284,-1.07001,-0.0316799,0.0190211,1.22124,5,0.1,9,3.9,-0.362056,0.318018,0.743706,-0.0922946,-0.866025,0.00577783,-0.0158492,1.78814e-06,-0.00575557,0.0126786,2.30047,5,0.1
0,4,-3.90001,1.06251,1.34503,4.76837e-05,-0.682214,0.000521541,-0.000119209,0.31513,0.00166893,0.0188028,2.97911,5,0.1,1,4,-0.122996,3.06043,0.602334,0.180775,-0.866026,0.00265539,0.0268519,0,-0.0025928,0.0206987,2.24941,5,0.1,2,4,-3.79662,-1.81829,0.5,-0.0171483,0.478944,-1.49012e-06,0.119328,0.567079,0,0.0105251,0.135225,5,0.1,3,4,-0.0305242,1.3333,0.591512,-0.102378,0.866026,0.00400394,-0.0475152,0,-0.000953674,0.01775,2.26374,5,0.1,4,4,-3.78573,-4.91531,0.5,0.013566,0.866032,1.49012e-06,-0.0309944,-0.000238419,0,0.00774701,2.27214,5,0.1,5,4,-4.55468,-0.487937,0.5,0.866032,0.0282623,-1.49012e-06,-0.000238419,-0.0181943,0,0.00781329,1.52192,5,0.1,6,4,3.74176,-1.24778,0.600207,0.11766,-0.866026,0.00630617,0.00631809,0,0.000506639,0.00960032,2.26244,5,0.1,7,4,0.89812,-2.34589,0.600028,0.000303984,0.226778,9.53674e-05,0.013411,0.318527,-0.000834465,0.00899303,0.123691,5,0.1,8,4,-3.59844,3.81609,1.32414,-0.00149012,-0.406128,0.0247955,0.00178814,-0.904202,-0.0292659,0.0268506,0.350648,5,0.1,9,4,-0.371214,0.231415,0.744256,-0.0895903,-0.866025,0.00521541,0.0606477,0,-0.00563264,0.00978077,2.45065,5,0.1
0,4.1,-3.90001,0.996853,1.34509,3.42727e-05,-0.62266,0.000743382,-0.000149012,0.816081,0.00257045,0.0188028,2.97911,5,0.1,1,4.1,-0.104734,2.97383,0.602583,0.184692,-0.866026,0.00229925,0.0402397,0,-0.00434369,0.0206987,2.24941,5,0.1,2,4.1,-3.79772,-1.76804,0.5,-0.00461489,0.521154,-1.02445e-06,0.126839,0.27068,1.11759e-05,0.0105251,0.135225,5,0.1,3,4.1,-0.0410323,1.41991,0.591909,-0.107915,0.866026,0.00395263,-0.055614,0,-0.000309199,0.01775,2.26374,5,0.1,4,4.1,-3.7845,-4.82871,0.5,0.0111993,0.866023,1.39698e-06,-0.0175387,2.98023e-05,-3.72529e-06,0.00774701,2.27214,5,0.1,5,4.1,-4.46808,-0.48519,0.5,0.865904,0.0267476,-1.49012e-06,-0.00473857,-0.013385,0,0.00781329,1.52192,5,0.1,6,4.1,3.7536,-1.33439,0.600842,0.119285,-0.866026,0.00640647,0.0188053,0,0.00110641,0.00960032,2.26244,5,0.1,7,4.1,0.89821,-2.32156,0.600033,0.00141459,0.259771,2.468e-05,0.00886992,0.318766,-0.000584871,0.00899303,0.123691,5,0.1,8,4.1,-3.59858,3.77136,1.32648,-0.00133254,-0.483931,0.022202,0.00141561,-0.633597,-0.0234544,0.0268506,0.350648,5,0.1,9,4.1,-0.379601,0.144813,0.744579,-0.0765577,-0.865985,-0.000165403,0.158297,0.00161737,-0.0913143,0.00978077,2.45065,5,0.1
0,4.2,-3.9,0.939094,1.34518,1.78814e-05,-0.529376,0.00100136,0,1.00568,0.00244379,0.0201603,0.373794,5,0.1,1,4.2,-0.0861165,2.88723,0.602789,0.186912,-0.866026,0.00181943,-0.00369936,0,-0.00506639,0.0171923,2.24904,5,0.1,2,4.2,-3.79756,-1.7151,0.5,0.00743866,0.532278,0,0.110984,-0.0497699,0,0.00952232,0.0913181,5,0.1,3,4.2,-0.0520641,1.50651,0.592303,-0.112206,0.866026,0.00390112,-0.0248756,0,-0.000864267,0.0157971,2.26295,5,0.1,4,4.2,-3.78346,-4.74211,0.5,0.00984669,0.866032,1.49012e-06,-0.0106096,-0.000238419,-2.98023e-05,0.00726148,2.27217,5,0.1,5,4.2,-4.38155,-0.482583,0.5,0.864112,0.0253662,0,-0.0383854,-0.0151843,-2.98023e-05,0.00820579,1.15756,5,0.1,6,4.2,3.76559,-1.42099,0.601487,0.120163,-0.866026,0.00646114,-0.0064373,0,-0.000327826,0.00824616,2.26237,5,0.1,7,4.2,0.898389,-2.29415,0.600033,0.00209361,0.286692,-2.23517e-05,0.00476837,0.203848,-0.000357628,0.00839966,0.196468,5,0.1,8,4.2,-3.5987,3.72037,1.32859,-0.00119805,-0.529987,0.0199586,0.00143051,-0.277162,-0.0219345,0.0248682,0.525413,5,0.1,9,4.2,-0.386561,0.058236,0.744037,-0.0641823,-0.865378,-0.0111505,0.0684261,0.0129473,-0.120074,0.0169667,2.43217,5,0.1
0,4.3,-3.9,0.89125,1.3453,1.15484e-05,-0.42771,0.00129323,-0.000104308,0.994768,0.0031665,0.0201603,0.373794,5,0.1,1,4.3,-0.067385,2.80062,0.602945,0.18802,-0.866026,0.00129482,0.0147881,0,-0.00530109,0.0171923,2.24904,5,0.1,2,4.3,-3.79631,-1.66233,0.5,0.0172455,0.520844,0,0.0841469,-0.185445,0,0.00952232,0.0913181,5,0.1,3,4.3,-0.063441,1.59311,0.59269,-0.115462,0.866026,0.00385568,-0.0329954,0,-0.000268221,0.0157971,2.26295,5,0.1,4,4.3,-3.78251,-4.65551,0.5,0.0092335,0.866023,-5.58794e-07,-0.00274181,2.98023e-05,-7.45058e-06,0.00726148,2.27217,5,0.1,5,4.3,-4.29516,-0.480115,0.5,0.864516,0.0240533,-1.02445e-06,0.01055,-0.0121146,3.72529e-06,0.00820579,1.15756,5,0.1,6,4.3,3.77762,-1.50759,0.602133,0.120603,-0.866026,0.00648499,0.00794232,0,0.000417233,0.00824616,2.26237,5,0.1,7,4.3,0.898617,-2.26424,0.600029,0.00243066,0.312825,-5.02914e-05,0.00204518,0.287056,-0.000208616,0.00839966,0.196468,5,0.1,8,4.3,-3.59882,3.6659,1.33048,-0.00107288,-0.559297,0.0180162,0.00113249,-0.274211,-0.0176132,0.0248682,0.525413,5,0.1,9,4.3,-0.392767,-0.0282981,0.742251,-0.0627412,-0.865598,-0.0250762,-0.0930205,-0.00558004,-0.149839,0.0169667,2.43217,5,0.1
0,4.4,-3.9,0.853229,1.34544,0,-0.335413,0.00159442,0,0.834167,0.00274181,0.0209426,3.34823,5,0.1,1,4.4,-0.0485527,2.71402,0.603049,0.187987,-0.866026,0.000782311,-0.0232199,0,-0.00488758,0.022982,2.3287,5,0.1,2,4.4,-3.79421,-1.61144,0.5,0.0241101,0.494257,0,0.0526905,-0.349104,0,0.00807077,0.0801846,5,0.1,3,4.4,-0.0751169,1.67971,0.593074,-0.117573,0.866026,0.00380725,-0.00412762,0,-0.000834465,0.0131491,2.35696,5,0.1,4,4.4,-3.78159,-4.5689,0.5,0.00911355,0.866032,-1.49012e-06,-0.000476837,-0.000238419,0,0.0105409,2.2722,5,0.1,5,4.4,-4.2088,-0.477772,0.5,0.860691,0.0227667,0,-0.10705,-0.0143498,0,0.0136569,0.852623,5,0.1,6,4.4,3.78969,-1.5942,0.602783,0.120515,-0.866026,0.00647902,-0.014782,0,-0.000834465,0.0109177,2.2625,5,0.1,7,4.4,0.898866,-2.2316,0.600024,0.00251681,0.33865,-6.55651e-05,-0.000268221,0.20647,-5.96046e-05,0.0157725,0.120172,5,0.1,8,4.4,-3.59892,3.60884,1.3322,-0.000965595,-0.578928,0.0163168,0.00107288,-0.0942945,-0.0168681,0.0294297,0.776781,5,0.1,9,4.4,-0.4,-0.114851,0.739003,-0.0866458,-0.86502,-0.0396192,-0.370234,0.0201094,-0.134706,0.0147693,2.35204,5,0.1
0,4.5,-3.9,0.823906,1.34561,0,-0.255543,0.00187289,0,0.583965,0.00265986,0.0209426,3.34823,5,0.1,1,4.5,-0.0292302,2.62746,0.60311,0.203656,-0.864355,0.000516418,0.289429,0.053212,-0.000800937,0.022982,2.3287,5,0.1,2,4.5,-3.79154,-1.56364,0.5,0.0291731,0.462399,0,0.0462681,-0.30461,0,0.00807077,0.0801846,5,0.1,3,4.5,-0.0875501,1.76626,0.593444,-0.136463,0.863725,0.00353809,-0.327524,-0.0697747,-0.00426918,0.0131491,2.35696,5,0.1,4,4.5,-3.78067,-4.4823,0.5,0.00932738,0.866023,-1.11759e-06,0.00378489,2.98023e-05,7.45058e-06,0.0105409,2.2722,5,0.1,5,4.5,-4.12304,-0.475561,0.5,0.855701,0.0214881,0,-0.0383854,-0.0120681,0,0.0136569,0.852623,5,0.1,6,4.5,3.80172,-1.6808,0.603429,0.120197,-0.866026,0.0064577,0.0012517,0,2.6077e-05,0.0109177,2.2625,5,0.1,7,4.5,0.899113,-2.1967,0.600017,0.00239974,0.358875,-6.77072e-05,-0.00197068,0.17783,1.11759e-05,0.0157725,0.120172,5,0.1,8,4.5,-3.59901,3.55013,1.33375,-0.000872463,-0.597368,0.0148209,0.000834465,-0.227019,-0.0136122,0.0294297,0.776781,5,0.1,9,4.5,-0.41119,-0.201347,0.734343,-0.142422,-0.865363,-0.0536529,-0.688029,-0.00869602,-0.138707,0.0147693,2.35204,5,0.1
0,4.6,-3.9,0.8,1.34581,0,-0.235502,0.00209808,0,-0.172704,0.00172853,0.0209004,1.7779,5,0.1,1,4.6,-0.00722105,2.54156,0.603162,0.237566,-0.850189,0.000555813,0.352862,0.26226,0.0012815,0.0199099,2.28192,5,0.1,2,4.6,-3.78842,-1.51896,0.5,0.0329852,0.430533,0,0.0283718,-0.344098,0,0.00812709,0.142489,5,0.1,3,4.6,-0.103055,1.85198,0.593772,-0.174925,0.847018,0.00300407,-0.406332,-0.291049,-0.00616908,0.0136217,2.30841,5,0.1,4,4.6,-3.77972,-4.3957,0.5,0.0097096,0.866032,0,0.00309944,-0.000238419,0,0.0114856,2.27223,5,0.1,5,4.6,-4.03785,-0.473474,0.5,0.845265,0.020209,0,-0.201821,-0.0140965,0,0.0122472,1.09763,5,0.1,6,4.6,3.81372,-1.7674,0.604073,0.119537,-0.866026,0.00641793,-0.0195503,0,-0.00107288,0.0129548,2.26274,5,0.1,7,4.6,0.899342,-2.1601,0.60001,0.0021413,0.370818,-6.4075e-05,-0.00306964,0.0473261,5.96046e-05,0.0136328,0.0656606,5,0.1,8,4.6,-3.59909,3.48936,1.33517,-0.000792742,-0.616157,0.0134945,0.000715256,-0.114799,-0.0132322,0.0222305,0.394049,5,0.1,9,4.6,-0.429008,-0.287874,0.728326,-0.214192,-0.864477,-0.0661165,-0.704065,0.0309503,-0.105381,0.0176275,2.24431,5,0.1
0,4.7,-3.9,0.774441,1.34603,0,-0.284914,0.00226814,0,-0.728603,0.00152737,0.0209004,1.7779,5,0.1,1,4.7,0.0180093,2.45702,0.603221,0.264081,-0.846965,0.000595208,0.175543,-0.119776,-0.000361353,0.0199099,2.28192,5,0.1,2,4.7,-3.78499,-1.47729,0.5,0.0353981,0.40554,0,0.0185221,-0.184022,0,0.00812709,0.142489,5,0.1,3,4.7,-0.122227,1.93614,0.594048,-0.205082,0.843314,0.00256989,-0.199595,0.13385,-0.00285357,0.0136217,2.30841,5,0.1,4,4.7,-3.77873,-4.3091,0.5,0.010179,0.866023,0,0.00542402,2.98023e-05,0,0.0114856,2.27223,5,0.1,5,4.7,-3.95388,-0.471519,0.5,0.837316,0.0189323,0,-0.0135303,-0.0121314,0,0.0122472,1.09763,5,0.1,6,4.7,3.82562,-1.854,0.604712,0.118794,-0.866026,0.00637555,-0.00241399,0,-0.000152737,0.0129548,2.26274,5,0.1,7,4.7,0.899539,-2.12285,0.600004,0.00179401,0.373336,-5.65313e-05,-0.00377372,-0.00940263,8.56817e-05,0.0136328,0.0656606,5,0.1,8,4.7,-3.59917,3.42718,1.33646,-0.000729412,-0.626628,0.0123169,0.000566244,-0.0671297,-0.0107884,0.0222305,0.394049,5,0.1,9,4.7,-0.454236,-0.374308,0.721177,-0.292002,-0.864942,-0.0767943,-0.803947,-0.014367,-0.101682,0.0176275,2.24431,5,0.1
0,4.8,-3.9,0.741978,1.34627,0,-0.365911,0.00238121,0,-0.825107,0.000655651,0.019388,2.58811,5,0.1,1,4.8,0.0449911,2.37161,0.603277,0.272518,-0.860858,0.00050813,-0.00644684,-0.103354,-0.0013113,0.00971344,1.34158,5,0.1,2,4.8,-3.78139,-1.43758,0.5,0.0364602,0.388828,0,0.00202656,-0.171065,0,0.012605,1.61261,5,0.1,3,4.8,-0.143413,2.02129,0.594294,-0.215508,0.859511,0.00237525,-0.0127628,0.130296,-0.0013113,0.0118928,2.06043,5,0.1,4,4.8,-3.77769,-4.2225,0.5,0.0106454,0.866032,0,0.00333786,-0.000238419,0,0.00711339,2.27228,5,0.1,5,4.8,-3.87028,-0.469688,0.5,0.832862,0.0176653,0,-0.115871,-0.0136942,0,0.00744838,0.80757,5,0.1,6,4.8,3.83747,-1.94061,0.605348,0.117838,-0.866026,0.00632107,-0.0218153,0,-0.00116229,0.00976295,2.26303,5,0.1,7,4.8,0.899699,-2.08574,0.599999,0.00140369,0.366908,-4.61936e-05,-0.00396371,-0.126839,8.9407e-05,0.0106556,0.0439276,5,0.1,8,4.8,-3.59924,3.36445,1.33764,-0.000673532,-0.625002,0.0112563,0.000715256,0.118136,-0.0106692,0.024203,0.153559,5,0.1,9,4.8,-0.487295,-0.460804,0.713039,-0.366668,-0.864033,-0.0853494,-0.654399,0.0398159,-0.0649095,0.0159294,2.15366,5,0.1
0,4.9,-3.9,0.700374,1.34651,0,-0.472589,0.00244118,0,-1.21271,0.000447035,0.019388,2.58811,5,0.1,1,4.9,0.0721453,2.28752,0.603342,0.269738,-0.798979,0.000974722,-0.0557908,1.21941,0.00932068,0.00971344,1.34158,5,0.1,2,4.9,-3.77806,-1.3985,0.500418,0.0270978,0.401347,0.0118535,-0.169635,0.344701,0.210732,0.012605,1.61261,5,0.1,3,4.9,-0.164864,2.10737,0.594529,-0.211923,0.856603,0.00233985,0.0831671,-0.192359,0.000327826,0.0118928,2.06043,5,0.1,4,4.9,-3.7766,-4.13589,0.5,0.0110894,0.866023,0,0.00473857,2.98023e-05,0,0.00711339,2.27228,5,0.1,5,4.9,-3.78734,-0.467985,0.5,0.827228,0.016417,0,-0.0414848,-0.0118483,0,0.00744838,0.80757,5,0.1,6,4.9,3.84919,-2.02721,0.605977,0.116893,-0.866026,0.0062705,-0.00412762,0,-0.000219792,0.00976295,2.26303,5,0.1,7,4.9,0.89982,-2.04965,0.599995,0.00101952,0.35475,-3.66941e-05,-0.00366941,-0.129625,0.000104308,0.0106556,0.0439276,5,0.1,8,4.9,-3.5993,3.30268,1.33871,-0.000610575,-0.608655,0.010303,0.000551343,0.221342,-0.00879169,0.024203,0.153559,5,0.1,9,4.9,-0.527366,-0.547182,0.704168,-0.434973,-0.86449,-0.0920349,-0.668757,-0.0191778,-0.062678,0.0159294,2.15366,5,0.1
0,5,-3.9,0.64706,1.34675,0,-0.591777,0.00244975,0,-1.10009,-0.000298023,0.0200506,2.53457,5,0.1,1,5,0.0987151,2.21507,0.603495,0.260302,-0.638974,0.00213981,-0.136897,1.88243,0.0129342,0.0164242,2.98471,5,0.1,2,5,-3.77635,-1.35631,0.502825,0.00604391,0.444263,0.037463,-0.235915,0.455201,0.280976,0.0129088,0.177698,5,0.1,3,5,-0.185492,2.19151,0.594765,-0.199202,0.820726,0.00239313,0.169247,-0.524282,0.000566244,0.0126716,1.92652,5,0.1,4,5,-3.77547,-4.04929,0.5,0.011456,0.866032,0,0.00202656,-0.000119209,0,0.010931,2.27233,5,0.1,5,5,-3.705,-0.466403,0.5,0.816971,0.0151992,0,-0.195026,-0.0129193,0,0.0139342,2.33626,5,0.1,6,5,3.86084,-2.11381,0.606602,0.115818,-0.866026,0.00621229,-0.0224113,0,-0.0012219,0.0126196,2.26334,5,0.1,7,5,0.899904,-2.01492,0.599992,0.000676513,0.338763,-2.68221e-05,-0.00309944,-0.198662,0.000119209,0.00933366,0.0792309,5,0.1,8,5,-3.59936,3.24317,1.3397,-0.000554323,-0.578767,0.00943542,0.000476837,0.383735,-0.00888109,0.0202379,0.320751,5,0.1,9,5,-0.573942,-0.63365,0.694696,-0.493096,-0.863741,-0.0968471,-0.463426,0.045687,-0.0293255,0.00992616,2.08638,5,0.1
0,5.1,-3.90002,0.582163,1.34699,-0.000448897,-0.706487,0.00238921,-0.00740588,-1.12213,-0.000946224,0.0200506,2.53457,5,0.1,1,5.1,0.12401,2.15808,0.603759,0.245018,-0.522684,0.00301776,-0.171811,0.569567,0.00504032,0.0164242,2.98471,5,0.1,2,5.1,-3.77674,-1.30996,0.507662,-0.0119604,0.478956,0.0563589,-0.129223,0.229284,0.106748,0.0129088,0.177698,5,0.1,3,5.1,-0.204516,2.26999,0.595009,-0.180775,0.740752,0.00249036,0.198911,-1.01802,0.00116974,0.0126716,1.92652,5,0.1,4,5.1,-3.77431,-3.96269,0.5,0.011754,0.866026,0,0.00315905,-1.49012e-05,0,0.010931,2.27233,5,0.1,5,5.1,-3.62334,-0.46478,0.500048,0.823582,0.0186805,0.00136895,0.240743,0.0717137,0.0243373,0.0139342,2.33626,5,0.1,6,5.1,3.87236,-2.20041,0.607219,0.114812,-0.866026,0.00615632,-0.00461936,0,-0.000264496,0.0126196,2.26334,5,0.1,7,5.1,0.899957,-1.98183,0.59999,0.000399631,0.324409,-1.58325e-05,-0.00242516,-0.108749,9.68575e-05,0.00933366,0.0792309,5,0.1,8,5.1,-3.59941,3.1869,1.3406,-0.0005126,-0.548838,0.00863895,0.00038743,0.245675,-0.00736117,0.0202379,0.320751,5,0.1,9,5.1,-0.625673,-0.719991,0.684845,-0.541523,-0.864193,-0.10021,-0.464734,-0.0224449,-0.0319481,0.00992616,2.08638,5,0.1
0,5.2,-3.9001,0.506348,1.34723,-0.00120997,-0.804085,0.00225902,-0.00679493,-0.780598,-0.00166893,0.0218341,0.733519,5,0.1,1,5.2,0.147576,2.10735,0.604076,0.225485,-0.502485,0.0032261,-0.220373,-0.0661612,-0.000506639,0.0158518,2.68518,5,0.1,2,5.2,-3.77844,-1.26135,0.513611,-0.0207603,0.488755,0.0606373,-0.0509024,-0.0376105,-0.0127554,0.0102482,0.191323,5,0.1,3,5.2,-0.221553,2.33855,0.595263,-0.159539,0.627118,0.00258982,0.225022,-1.21188,0.000715256,0.016564,1.80962,5,0.1,4,5.2,-3.77312,-3.87608,0.5,0.0119627,0.866026,0,0.000357628,0,0,0.00901156,2.27242,5,0.1,5,5.2,-3.53964,-0.462487,0.500326,0.850171,0.02762,0.0043273,0.228167,0.0986904,0.0324249,0.0138868,2.52188,5,0.1,6,5.2,3.8838,-2.28702,0.607833,0.113714,-0.866026,0.00609607,-0.0224113,0,-0.0012219,0.0123144,2.26365,5,0.1,7,5.2,0.899987,-1.94992,0.599989,0.000190735,0.313511,-7.45058e-06,-0.00169873,-0.123978,8.9407e-05,0.0127326,0.0655033,5,0.1,8,5.2,-3.59946,3.13323,1.34143,-0.000470877,-0.524318,0.00790954,0.000357628,0.26691,-0.00745058,0.0181903,0.382452,5,0.1,9,5.2,-0.68188,-0.806441,0.6747,-0.579186,-0.863582,-0.102222,-0.260293,0.0488758,-0.00408292,0.0130821,1.91847,5,0.1
0,5.3,-3.90025,0.422966,1.34745,-0.00168867,-0.854867,0.00211354,-0.00293553,-0.260163,-0.00133365,0.0218341,0.733519,5,0.1,1,5.3,0.16905,2.05548,0.604389,0.204175,-0.545164,0.00297185,-0.209854,-0.683933,-0.00423938,0.0158518,2.68518,5,0.1,2,5.3,-3.78067,-1.21267,0.519464,-0.023026,0.484473,0.0551543,0.00181794,-0.0662878,-0.0897013,0.0102482,0.191323,5,0.1,3,5.3,-0.236393,2.39489,0.595526,-0.137361,0.498708,0.00267532,0.218734,-1.28186,0.000834465,0.016564,1.80962,5,0.1,4,5.3,-3.77192,-3.78948,0.5,0.0120942,0.866026,0,0.00156462,0,0,0.00901156,2.27242,5,0.1,5,5.3,-3.45446,-0.459158,0.500941,0.844106,0.0394743,0.008104,-0.326812,0.129638,0.0406951,0.0138868,2.52188,5,0.1,6,5.3,3.89511,-2.37362,0.608439,0.112695,-0.866026,0.00603944,-0.00476837,0,-0.000275671,0.0123144,2.26365,5,0.1,7,5.3,0.899998,-1.91901,0.599988,5.0012e-05,0.305887,5.58794e-07,-0.00112131,-0.0493377,6.70552e-05,0.0127326,0.0655033,5,0.1,8,5.3,-3.59951,3.08179,1.34219,-0.000439212,-0.507082,0.00723954,0.000312924,0.112355,-0.00620633,0.0181903,0.382452,5,0.1,9,5.3,-0.741203,-0.892763,0.664434,-0.60735,-0.864016,-0.103184,-0.265412,-0.0219755,-0.00948831,0.0130821,1.91847,5,0.1
0,5.4,-3.90043,0.336826,1.34765,-0.00183582,-0.862331,0.00197887,-0.000119209,0.0738788,-0.00149012,0.0236678,2.34144,5,0.1,1,5.4,0.18841,1.99722,0.604661,0.182847,-0.62111,0.00243783,-0.219323,-0.756979,-0.00616908,0.0237055,2.66121,5,0.1,2,5.4,-3.7829,-1.16472,0.524454,-0.0210822,0.472456,0.0440001,0.0338554,-0.186086,-0.127524,0.0126682,0.240036,5,0.1,3,5.4,-0.249045,2.4387,0.595797,-0.115776,0.382054,0.0027284,0.212915,-1.01292,0.000119209,0.0142955,1.67804,5,0.1,4,5.4,-3.77071,-3.70288,0.5,0.0121415,0.866026,0,-0.000834465,0,0,0.013549,2.27252,5,0.1,5,5.4,-3.37244,-0.45457,0.501952,0.789213,0.0520252,0.0120476,-0.749469,0.114888,0.036329,0.0122735,2.93211,5,0.1,6,5.4,3.90634,-2.46022,0.609041,0.111598,-0.866026,0.00597835,-0.0219345,0,-0.00116229,0.0143302,2.34036,5,0.1,7,5.4,0.899998,-1.88869,0.599989,-3.57628e-05,0.300086,5.96046e-06,-0.000685453,-0.0815392,5.96046e-05,0.0134683,2.29589,5,0.1,8,5.4,-3.59955,3.03162,1.34288,-0.000405312,-0.495875,0.00662208,0.000238419,0.136852,-0.00625849,0.0173583,0.446353,5,0.1,9,5.4,-0.803021,-0.979171,0.654098,-0.625899,-0.862598,-0.103156,-0.0795424,0.0686049,0.0140071,0.0125709,1.41175,5,0.1
0,5.5,-3.9007,0.250663,1.34784,-0.00404418,-0.862896,0.00182372,-0.0241101,-0.0461787,-0.00163168,0.0236678,2.34144,5,0.1,1,5.5,0.205667,1.93218,0.604872,0.162864,-0.671557,0.00175852,-0.185327,-0.258952,-0.00718236,0.0237055,2.66121,5,0.1,2,5.5,-3.7848,-1.11822,0.528166,-0.0165462,0.458794,0.0298955,0.054121,-0.112109,-0.149317,0.0126682,0.240036,5,0.1,3,5.5,-0.259596,2.47242,0.596071,-0.0956089,0.29892,0.00274554,0.190963,-0.616029,8.9407e-05,0.0142955,1.67804,5,0.1,4,5.5,-3.76949,-3.61628,0.5,0.012153,0.866026,0,0.000372529,0,0,0.013549,2.27252,5,0.1,5,5.5,-3.2982,-0.448764,0.503345,0.688113,0.0642043,0.0158334,-1.20652,0.12126,0.0373721,0.0122735,2.93211,5,0.1,6,5.5,3.91743,-2.54651,0.609635,0.110599,-0.856503,0.00592563,-0.00470877,0.197902,-0.00025332,0.0143302,2.34036,5,0.1,7,5.5,0.89887,-1.85806,0.60002,-0.0319258,0.320769,0.000890344,-0.566382,0.421077,0.015676,0.0134683,2.29589,5,0.1,8,5.5,-3.59959,2.98237,1.34351,-0.00038296,-0.491503,0.00605788,0.000208616,-0.0121742,-0.00523776,0.0173583,0.446353,5,0.1,9,5.5,-0.866049,-1.06536,0.643838,-0.634279,-0.862687,-0.102047,-0.0581183,-0.0207201,0.0127181,0.0125709,1.41175,5,0.1
0,5.6,-3.90114,0.164177,1.34801,-0.00374913,-0.866025,0.00165105,0.0389814,0,-0.00196695,0.0188795,2.32696,5,0.1,1,5.6,0.22105,1.8645,0.605012,0.144928,-0.674555,0.00104308,-0.176936,0.189543,-0.00694394,0.016161,2.95076,5,0.1,2,5.6,-3.78617,-1.07295,0.530409,-0.0107527,0.445768,0.0150621,0.0596046,-0.166059,-0.143319,0.00847971,0.173139,5,0.1,3,5.6,-0.268235,2.5,0.596345,-0.077495,0.260025,0.00272393,0.171676,-0.18394,-0.000566244,0.0106812,1.51921,5,0.1,4,5.6,-3.76828,-3.52967,0.5,0.0120997,0.866026,0,-0.00202656,0,0,0.00819753,1.94767,5,0.1,5,5.6,-3.23573,-0.441777,0.505104,0.559312,0.075005,0.0191763,-1.32167,0.0894517,0.028044,0.0154983,3.27117,5,0.1,6,5.6,3.92845,-2.6308,0.610225,0.109518,-0.825268,0.00586808,-0.0216961,0.431299,-0.00113249,0.0119829,2.59102,5,0.1,7,5.6,0.892393,-1.82355,0.6002,-0.100736,0.371239,0.00279397,-0.754803,0.531852,0.0208616,0.00935323,1.85634,5,0.1,8,5.6,-3.59963,2.93316,1.34409,-0.000357628,-0.491887,0.00553727,0.000357628,0.0314713,-0.00530481,0.0135587,0.332716,5,0.1,9,5.6,-0.929532,-1.15155,0.633726,-0.632498,-0.858286,-0.0998467,0.114113,0.143766,0.0344515,0.00847925,1.00178,5,0.1
0,5.7,-3.90124,0.0775743,1.34817,0.00333935,-0.866025,0.00146795,0.129849,-4.47035e-07,-0.00173599,0.0188795,2.32696,5,0.1,1,5.7,0.234737,1.7991,0.605081,0.12947,-0.624056,0.000351388,-0.137623,0.756033,-0.0067167,0.016161,2.95076,5,0.1,2,5.7,-3.78694,-1.02908,0.531354,-0.00453964,0.432102,0.00522444,0.0626445,-0.127278,-0.0594445,0.00847971,0.173139,5,0.1,3,5.7,-0.275171,2.52521,0.596615,-0.0616363,0.245729,0.00267122,0.146147,-0.089854,-0.000596046,0.0106812,1.51921,5,0.1,4,5.7,-3.76708,-3.44307,0.5,0.0119649,0.866026,0,-0.0012815,0,0,0.00819753,1.94767,5,0.1,5,5.7,-3.18661,-0.433815,0.507164,0.423405,0.0841982,0.0220094,-1.31074,0.0878125,0.0268444,0.0154983,3.27117,5,0.1,6,5.7,3.93934,-2.71025,0.610809,0.108511,-0.757015,0.0058162,-0.00493228,0.848323,-0.000249594,0.0119829,2.59102,5,0.1,7,5.7,0.87813,-1.78337,0.600595,-0.187311,0.435115,0.00518626,-0.923455,0.689119,0.0255145,0.00935323,1.85634,5,0.1,8,5.7,-3.59966,2.88396,1.34462,-0.000325963,-0.493046,0.00505876,0.000312924,-0.0252873,-0.004448,0.0135587,0.332716,5,0.1,9,5.7,-0.992251,-1.23681,0.623901,-0.621638,-0.847549,-0.0966704,0.127323,0.110671,0.0327751,0.00847925,1.00178,5,0.1
0,5.8,-3.9,-0.00902825,1.34831,0.0240147,-0.866025,0.0012964,0.274539,1.19209e-06,-0.00160933,0.0193516,2.29836,5,0.1,1,5.8,0.247025,1.74097,0.605084,0.116472,-0.534543,-0.000269711,-0.126287,0.986755,-0.00560284,0.0141487,3.21632,5,0.1,2,5.8,-3.78709,-0.98658,0.531676,0.00142455,0.416918,0.00208318,0.0549555,-0.190318,-0.00837445,0.0138891,0.57139,5,0.1,3,5.8,-0.280642,2.54955,0.596878,-0.0481471,0.243175,0.00258684,0.124201,0.0376701,-0.00113249,0.010073,1.36191,5,0.1,4,5.8,-3.76589,-3.35647,0.5,0.0117421,0.866026,0,-0.00357628,0,0,0.00730065,1.52547,5,0.1,5,5.8,-3.15027,-0.425003,0.509485,0.309891,0.0914469,0.0242427,-0.918269,0.0525564,0.0166297,0.0101728,3.33162,5,0.1,6,5.8,3.95015,-2.78156,0.611388,0.107414,-0.668919,0.00575781,-0.0214577,0.865936,-0.00113249,0.00933787,2.75735,5,0.1,7,5.8,0.854864,-1.73653,0.601239,-0.276178,0.499287,0.00764132,-0.814557,0.553131,0.0225008,0.0130991,1.44438,5,0.1,8,5.8,-3.59969,2.83464,1.34511,-0.000298023,-0.491947,0.00461936,0.000357628,0.0679493,-0.00452995,0.0204314,0.38975,5,0.1,9,5.8,-1.05359,-1.3208,0.61442,-0.602973,-0.829443,-0.0926703,0.262201,0.278771,0.0497401,0.00887518,0.692374,5,0.1
0,5.9,-3.89587,-0.0956308,1.34843,0.0613239,-0.866025,0.0011526,0.439897,-7.45058e-07,-0.0013113,0.0193516,2.29836,5,0.1,1,5.9,0.258112,1.69287,0.60503,0.105867,-0.425823,-0.000805873,-0.0911672,1.09737,-0.00498071,0.0141487,3.21632,5,0.1,2,5.9,-3.78667,-0.945285,0.531917,0.00677817,0.413357,0.00336096,0.0506192,0.0732541,0.0294074,0.0138891,0.57139,5,0.1,3,5.9,-0.284875,2.57404,0.597132,-0.0369057,0.248486,0.00247965,0.101279,0.134051,-0.00109896,0.010073,1.36191,5,0.1,4,5.9,-3.76473,-3.26987,0.5,0.0114299,0.865909,0,-0.00315905,-0.00467896,0,0.00730065,1.52547,5,0.1,5,5.9,-3.12326,-0.415584,0.511995,0.239424,0.0969073,0.0259291,-0.391871,0.0506397,0.0154898,0.0101728,3.33162,5,0.1,6,5.9,3.96083,-2.84408,0.611961,0.10636,-0.584558,0.0057023,-0.00585616,0.688642,-0.000312924,0.00933787,2.75735,5,0.1,7,5.9,0.823099,-1.68373,0.602118,-0.358821,0.556774,0.00992389,-0.797752,0.552863,0.0220351,0.0130991,1.44438,5,0.1,8,5.9,-3.59972,2.78553,1.34555,-0.000266731,-0.491763,0.00421125,0.000298023,-0.0309944,-0.00379235,0.0204314,0.38975,5,0.1,9,5.9,-1.11264,-1.40247,0.605388,-0.578071,-0.804323,-0.0880286,0.255771,0.255793,0.0461414,0.00887518,0.692374,5,0.1
0,6,-3.88748,-0.182233,1.34854,0.106418,-0.866025,0.0010252,0.437975,0,-0.00119209,0.0198304,2.29972,5,0.1,1,6,0.268265,1.6554,0.604927,0.097312,-0.328642,-0.00124276,-0.0838339,0.800729,-0.00366569,0.0142671,3.2786,5,0.1,2,6,-3.78576,-0.903458,0.532432,0.0112891,0.423561,0.0071615,0.0385046,0.0965893,0.0430942,0.0134684,0.506753,5,0.1,3,6,-0.288093,2.6,0.597374,-0.0277698,0.274861,0.00235289,0.0820011,0.376463,-0.00149012,0.00975867,1.1693,5,0.1,4,6,-3.76361,-3.18334,0.5,0.0110269,0.864148,0,-0.00500679,-0.0373125,0,0.00921641,1.16063,5,0.1,5,6,-3.1,-0.405683,0.514652,0.237924,0.100559,0.027068,0.326872,0.0182539,0.00619888,0.0086418,3.02738,5,0.1,6,6,3.97142,-2.9,0.612529,0.105166,-0.543058,0.0056386,-0.0224113,0.155449,-0.0012219,0.00886572,2.68045,5,0.1,7,6,0.783529,-1.62558,0.603212,-0.428824,0.60243,0.0118583,-0.573844,0.329673,0.0157952,0.00967864,1.06341,5,0.1,8,6,-3.59975,2.73626,1.34595,-0.000238419,-0.49243,0.00383556,0.000238419,0.0413656,-0.00375509,0.0193853,1.35253,5,0.1,9,6,-1.16905,-1.48145,0.59683,-0.548482,-0.772873,-0.0829294,0.349343,0.395119,0.0578761,0.00807636,0.470027,5,0.1
0,6.1,-3.8745,-0.268782,1.34864,0.153881,-0.863856,0.000922941,0.484526,0.0661473,-0.00090152,0.0198304,2.29972,5,0.1,1,6.1,0.277521,1.62604,0.604784,0.0872979,-0.266173,-0.00159154,-0.114232,0.348195,-0.00318512,0.0142671,3.2786,5,0.1,2,6.1,-3.78468,-0.860369,0.533392,0.00824071,0.439784,0.0122413,-0.085935,0.192288,0.055097,0.0134684,0.506753,5,0.1,3,6.1,-0.290335,2.63005,0.597602,-0.016049,0.33118,0.0022131,0.143124,0.684708,-0.00138208,0.00975867,1.1693,5,0.1,4,6.1,-3.76253,-3.09694,0.5,0.0105649,0.864562,0,-0.00461936,0.010103,0,0.00921641,1.16063,5,0.1,5,6.1,-3.07308,-0.39552,0.517394,0.312445,0.102715,0.0277556,1.05,0.0193063,0.00606477,0.0086418,3.02738,5,0.1,6,6.1,3.98186,-2.95492,0.613088,0.103915,-0.566654,0.0055695,-0.00853837,-0.522479,-0.000476837,0.00886572,2.68045,5,0.1,7,6.1,0.737827,-1.56368,0.604476,-0.483914,0.634664,0.0133754,-0.496455,0.280574,0.0136755,0.00967864,1.06341,5,0.1,8,6.1,-3.5993,2.68647,1.34632,0.0131186,-0.509178,0.00349656,0.237271,-0.310466,-0.00314415,0.0193853,1.35253,5,0.1,9,6.1,-1.22223,-1.55688,0.588811,-0.515649,-0.736278,-0.0775445,0.323892,0.363171,0.0523478,0.00807636,0.470027,5,0.1
0,6.2,-3.8568,-0.354545,1.34872,0.198716,-0.847819,0.000837445,0.392675,0.281632,-0.000834465,0.0182716,2.59507,5,0.1,1,6.2,0.285645,1.6,0.604611,0.0748843,-0.26589,-0.00185668,-0.132084,-0.310957,-0.00202656,0.0141799,3.25867,5,0.1,2,6.2,-3.7844,-0.815511,0.534889,-0.00347495,0.455901,0.0175893,-0.137687,0.104517,0.0493526,0.0104673,0.843865,5,0.1,3,6.2,-0.291186,2.66666,0.597816,-0.000791252,0.400406,0.00206381,0.154853,0.65124,-0.00160933,0.0127833,0.209018,5,0.1,4,6.2,-3.7615,-3.01058,0.5,0.0100374,0.860709,0,-0.00631809,-0.106454,0,0.00731097,0.855259,5,0.1,5,6.2,-3.03616,-0.385188,0.520189,0.42792,0.103478,0.0280291,1.1729,-0.00786781,-0.00166893,0.00851838,2.63198,5,0.1,6,6.2,3.99219,-3.01461,0.613642,0.102448,-0.629109,0.00548959,-0.0249147,-0.647068,-0.00137091,0.00765633,2.44372,5,0.1,7,6.2,0.687292,-1.49913,0.605872,-0.522834,0.652763,0.0144482,-0.260592,0.0581145,0.00715256,0.0118472,0.746833,5,0.1,8,6.2,-3.59661,2.63387,1.34665,0.0419497,-0.543022,0.00318289,0.316262,-0.317216,-0.00309944,0.0198627,1.33883,5,0.1,9,6.2,-1.27211,-1.62857,0.581326,-0.480923,-0.695804,-0.0720337,0.381768,0.464261,0.0596344,0.00746221,0.315853,5,0.1
0,6.3,-3.8349,-0.436865,1.3488,0.239207,-0.78943,0.000768714,0.393391,0.831405,-0.000573695,0.0182716,2.59507,5,0.1,1,6.3,0.292376,1.57196,0.604416,0.0589595,-0.293677,-0.00204565,-0.179183,-0.232503,-0.00164285,0.0141799,3.25867,5,0.1,2,6.3,-3.78533,-0.769294,0.53737,-0.0143513,0.468755,0.0359767,-0.0858605,0.124618,0.286173,0.0104673,0.843865,5,0.1,3,6.3,-0.290455,2.70955,0.598015,0.0155872,0.453173,0.00191387,0.165777,0.393659,-0.00145286,0.0127833,0.209018,5,0.1,4,6.3,-3.76052,-2.92481,0.5,0.00945218,0.855816,0,-0.00570714,-0.0371039,0,0.00731097,0.855259,5,0.1,5,6.3,-2.98691,-0.374857,0.52299,0.560765,0.103231,0.0279964,1.39357,-0.00238605,-0.000413507,0.00851838,2.63198,5,0.1,6,6.3,4.00235,-3.08144,0.614186,0.100882,-0.712062,0.0054026,-0.0119805,-0.924036,-0.000670552,0.00765633,2.44372,5,0.1,7,6.3,0.633766,-1.43356,0.607351,-0.546447,0.657769,0.015097,-0.18663,0.0143647,0.00512972,0.0118472,0.746833,5,0.1,8,6.3,-3.59066,2.57751,1.34695,0.0782244,-0.587174,0.00290237,0.386924,-0.50503,-0.0026077,0.0198627,1.33883,5,0.1,9,6.3,-1.31839,-1.69596,0.574404,-0.445382,-0.652719,-0.0665179,0.342906,0.419289,0.0527948,0.00746221,0.315853,5,0.1
0,6.4,-3.80917,-0.51111,1.34888,0.273347,-0.691141,0.000715256,0.272632,1.09303,-0.000596046,0.018502,2.86116,5,0.1,1,6.4,0.297348,1.54164,0.604204,0.0403345,-0.310355,-0.00216514,-0.187695,-0.0930429,-0.000715256,0.012548,3.38484,5,0.1,2,6.4,-3.78715,-0.72195,0.542571,-0.0216246,0.47608,0.0691131,-0.0634193,0.00235438,0.351667,0.0101985,0.698175,5,0.1,3,6.4,-0.288097,2.75634,0.598199,0.0311643,0.477606,0.0017643,0.140697,0.0902414,-0.00160933,0.0163208,0.535483,5,0.1,4,6.4,-3.75961,-2.83961,0.5,0.00883937,0.845522,0,-0.00667572,-0.200629,0,0.00692006,1.1005,5,0.1,5,6.4,-2.92411,-0.364572,0.52578,0.691015,0.1021,0.0277042,1.14536,-0.0239164,-0.0063777,0.00895846,2.36888,5,0.1,6,6.4,4.01236,-3.15713,0.614722,0.0990987,-0.798702,0.00530481,-0.0276566,-0.744581,-0.00149012,0.00773053,2.30639,5,0.1,7,6.4,0.578477,-1.36797,0.608879,-0.556,0.651023,0.0153586,0.0121891,-0.167727,-0.000357628,0.00913836,0.507393,5,0.1,8,6.4,-3.58094,2.51637,1.34723,0.115466,-0.633544,0.00264347,0.341415,-0.378013,-0.0026226,0.0246158,1.02089,5,0.1,9,6.4,-1.36119,-1.75907,0.568019,-0.410005,-0.608271,-0.0611186,0.374079,0.484645,0.0567138,0.00841562,0.22736,5,0.1
0,6.5,-3.78031,-0.574248,1.34895,0.304916,-0.568832,0.000668317,0.328839,1.26426,-0.00038743,0.018502,2.86116,5,0.1,1,6.5,0.300386,1.5108,0.603984,0.0200646,-0.300863,-0.00223713,-0.210023,0.241347,-0.000607222,0.012548,3.38484,5,0.1,2,6.5,-3.78951,-0.674279,0.551412,-0.0249937,0.477275,0.108808,-0.0227094,-0.00076741,0.417911,0.0101985,0.698175,5,0.1,3,6.5,-0.284281,2.80482,0.598367,0.0449712,0.49369,0.00161575,0.130178,0.192657,-0.00141189,0.0163208,0.535483,5,0.1,4,6.5,-3.75875,-2.7556,0.5,0.00822172,0.837706,0,-0.00596046,-0.0121444,0,0.00692006,1.1005,5,0.1,5,6.5,-2.84977,-0.354452,0.528526,0.790293,0.100473,0.0272673,0.808075,-0.0138618,-0.00377744,0.00895846,2.36888,5,0.1,6,6.5,4.02217,-3.24,0.615247,0.0972651,-0.851567,0.005206,-0.0143349,-0.318781,-0.000771135,0.00773053,2.30639,5,0.1,7,6.5,0.522962,-1.30368,0.610412,-0.553546,0.634481,0.0152893,0.0572185,-0.185698,-0.00158697,0.00913836,0.507393,5,0.1,8,6.5,-3.56765,2.45096,1.34748,0.150105,-0.675112,0.00240654,0.334352,-0.406057,-0.00220537,0.0246158,1.02089,5,0.1,9,6.5,-1.40043,-1.81717,0.562174,-0.375465,-0.550997,-0.0559052,0.328362,0.648171,0.0493228,0.00841562,0.22736,5,0.1
0,6.6,-3.74828,-0.625083,1.34901,0.333983,-0.451867,0.000631809,0.231147,1.02818,-0.000417233,0.0130491,2.98424,5,0.1,1,6.6,0.301358,1.4822,0.603758,-0.000328571,-0.269139,-0.00226796,-0.192106,0.364006,8.9407e-05,0.0138183,3.22572,5,0.1,2,6.6,-3.79217,-0.626709,0.564327,-0.0288844,0.472173,0.148483,-0.0636578,-0.116497,0.357777,0.00994924,0.564842,5,0.1,3,6.6,-0.279186,2.85506,0.598522,0.0563085,0.509483,0.00147372,0.0929385,0.0952482,-0.00149012,0.0113314,0.583634,5,0.1,4,6.6,-3.75796,-2.67196,0.5,0.00760555,0.833392,0,-0.00667572,-0.114679,0,0.0118621,1.37074,5,0.1,5,6.6,-2.76744,-0.344492,0.531229,0.848573,0.0984356,0.0267103,0.349045,-0.0305474,-0.00837445,0.00776407,2.27868,5,0.1,6,6.6,4.03181,-3.32615,0.615763,0.0953078,-0.866026,0.00510067,-0.0283718,0,-0.00151992,0.00682876,2.26643,5,0.1,7,6.6,0.468103,-1.24134,0.611927,-0.541183,0.610116,0.0149474,0.203385,-0.316679,-0.00560284,0.0109769,0.338029,5,0.1,8,6.6,-3.5511,2.38169,1.34771,0.179452,-0.706708,0.00218749,0.240445,-0.192881,-0.00214577,0.0224181,0.742969,5,0.1,9,6.6,-1.43633,-1.86884,0.556829,-0.342366,-0.480956,-0.050953,0.341713,0.742197,0.0509322,0.00932513,0.183712,5,0.1
0,6.7,-3.71363,-0.665533,1.34907,0.359308,-0.364185,0.000600331,0.248909,0.618659,-0.000245869,0.0130491,2.98424,5,0.1,1,6.7,0.300347,1.45745,0.603531,-0.019886,-0.22429,-0.00227513,-0.192067,0.459857,-0.000108033,0.0138183,3.22572,5,0.1,2,6.7,-3.79542,-0.580031,0.580992,-0.0371169,0.46138,0.184614,-0.129148,-0.117462,0.346266,0.00994924,0.564842,5,0.1,3,6.7,-0.273106,2.90676,0.598662,0.0650243,0.526114,0.00133738,0.0772905,0.197023,-0.0012815,0.0113314,0.583634,5,0.1,4,6.7,-3.75723,-2.58864,0.5,0.00699162,0.836768,0,-0.00584126,0.117734,0,0.0118621,1.37074,5,0.1,5,6.7,-2.68151,-0.334766,0.533868,0.864935,0.0963178,0.0261244,0.0436306,-0.0170618,-0.00476465,0.00776407,2.27868,5,0.1,6,6.7,4.04123,-3.41275,0.616268,0.0934303,-0.866026,0.00500008,-0.0144243,0,-0.00076741,0.00682876,2.26643,5,0.1,7,6.7,0.414979,-1.18185,0.613395,-0.521079,0.579876,0.0143935,0.215525,-0.30686,-0.00593439,0.0109769,0.338029,5,0.1,8,6.7,-3.53197,2.31,1.34792,0.202536,-0.726615,0.00199284,0.208065,-0.167817,-0.00181049,0.0224181,0.742969,5,0.1,9,6.7,-1.46896,-1.91301,0.551973,-0.311037,-0.401174,-0.0462973,0.294633,0.822701,0.0436641,0.00932513,0.183712,5,0.1
0,6.8,-3.6766,-0.7,1.34913,0.379264,-0.336264,0.000575185,0.131369,-0.0346601,-0.000238419,0.0127216,2.60747,5,0.1,1,6.8,0.297446,1.43703,0.603304,-0.0375457,-0.187913,-0.00226796,-0.156105,0.233293,0.00038743,0.0167517,2.50073,5,0.1,2,6.8,-3.8,-0.534602,0.601041,-0.0567019,0.445649,0.214577,-0.254154,-0.209332,0.240028,0.00897989,0.439046,5,0.1,3,6.8,-0.26627,2.96025,0.59879,0.071086,0.541949,0.00120997,0.0412017,0.0909567,-0.0012517,0.0103765,0.431627,5,0.1,4,6.8,-3.75656,-2.50443,0.5,0.00640154,0.84582,0,-0.00607967,0.0164509,0,0.00824399,1.03129,5,0.1,5,6.8,-2.59493,-0.325232,0.536453,0.866026,0.0941269,0.0255153,0,-0.0305027,-0.00837445,0.0112256,2.26618,5,0.1,6,6.8,4.05049,-3.49935,0.616763,0.0915289,-0.866026,0.00489801,-0.0274181,0,-0.00146031,0.00673996,2.26683,5,0.1,7,6.8,0.36408,-1.1255,0.614801,-0.495283,0.545615,0.0136822,0.311479,-0.390887,-0.00858307,0.00995329,0.223255,5,0.1,8,6.8,-3.51082,2.23679,1.34811,0.21885,-0.733978,0.00181496,0.109315,0.0462532,-0.00184774,0.0123926,1.16037,5,0.1,9,6.8,-1.4986,-1.94908,0.547559,-0.281781,-0.321299,-0.0419676,0.297308,0.756681,0.0439584,0.0113981,0.154798,5,0.1
0,6.9,-3.63812,-0.735211,1.34919,0.388948,-0.379411,0.00055749,0.0497103,-0.724789,-0.000141561,0.0127216,2.60747,5,0.1,1,6.9,0.292926,1.41906,0.603078,-0.0525665,-0.177233,-0.00223825,-0.139005,-0.096783,0.000309199,0.0167517,2.50073,5,0.1,2,6.9,-3.80725,-0.491029,0.623676,-0.0905316,0.425971,0.237543,-0.393167,-0.199087,0.204813,0.00897989,0.439046,5,0.1,3,6.9,-0.258969,3.01502,0.598905,0.0747235,0.553737,0.00109589,0.0282899,0.112981,-0.00106916,0.0103765,0.431627,5,0.1,4,6.9,-3.75595,-2.4198,0.5,0.00584498,0.845485,0,-0.00524521,-0.0546724,0,0.00824399,1.03129,5,0.1,5,6.9,-2.50833,-0.315934,0.538973,0.866026,0.0920927,0.0249521,0,-0.015432,-0.00431016,0.0112256,2.26618,5,0.1,6,6.9,4.05954,-3.58595,0.617247,0.0897415,-0.866026,0.00480274,-0.0134408,0,-0.000718981,0.00673996,2.26683,5,0.1,7,6.9,0.316049,-1.0728,0.616128,-0.465573,0.508876,0.0128632,0.296807,-0.35955,-0.00818074,0.00995329,0.223255,5,0.1,8,6.9,-3.4881,2.16328,1.34828,0.237647,-0.738533,0.00164788,0.236392,-0.0874549,-0.00154227,0.0123926,1.16037,5,0.1,9,6.9,-1.52539,-1.97759,0.543568,-0.254687,-0.251208,-0.0379696,0.252731,0.615507,0.0372455,0.0113981,0.154798,5,0.1
0,7,-3.5992,-0.777213,1.34924,0.387174,-0.462981,0.000539422,-0.0931025,-0.867635,-0.000178814,0.0166783,2.07373,5,0.1,1,7,0.287038,1.4,0.602857,-0.064455,-0.211951,-0.00218898,-0.0951588,-0.567377,0.00077486,0.0122751,2.1432,5,0.1,2,7,-3.8183,-0.449509,0.6483,-0.130206,0.403342,0.253111,-0.378609,-0.263557,0.0967681,0.00947027,0.326965,5,0.1,3,7,-0.251398,3.07078,0.599009,0.0762064,0.559157,0.000989437,-0.00077486,-0.0267029,-0.00104308,0.0150436,0.310453,5,0.1,4,7,-3.75539,-2.33585,0.5,0.00532269,0.829649,0,-0.00548363,-0.282764,0,0.00710502,2.70769,5,0.1,5,7,-2.42173,-0.306812,0.541444,0.866026,0.0901423,0.0244111,0,-0.0272989,-0.00751019,0.0093821,2.26657,5,0.1,6,7,4.06844,-3.67256,0.617724,0.0879645,-0.866026,0.00470877,-0.0257492,0,-0.00140071,0.00700415,2.2672,5,0.1,7,7,0.271045,-1.02377,0.617371,-0.433572,0.471076,0.0119805,0.352628,-0.40713,-0.00971556,0.00917247,0.147309,5,0.1,8,7,-3.46315,2.0891,1.34844,0.260872,-0.742918,0.00149608,0.205755,0.0355244,-0.00154972,0.0177635,0.861002,5,0.1,9,7,-1.54961,-2,0.539954,-0.229838,-0.200766,-0.0343084,0.249982,0.397205,0.0368953,0.0100365,0.220381,5,0.1
0,7.1,-3.56098,-0.828386,1.3493,0.376596,-0.563828,0.000524335,-0.128984,-1.07051,-0.000141561,0.0166783,2.07373,5,0.1,1,7.1,0.280138,1.37492,0.602641,-0.0732291,-0.29781,-0.00211904,-0.0761859,-1.05786,0.00070408,0.0122751,2.1432,5,0.1,2,7.1,-3.8333,-0.410425,0.674071,-0.17012,0.378695,0.261777,-0.397429,-0.241708,0.064984,0.00947027,0.326965,5,0.1,3,7.1,-0.243944,3.12662,0.599103,0.0714423,0.557692,0.000894628,-0.0872845,-0.028044,-0.000886619,0.0150436,0.310453,5,0.1,4,7.1,-3.75482,-2.25537,0.500188,0.00667162,0.770777,0.00532772,0.0281781,-0.837371,0.0947118,0.00710502,2.70769,5,0.1,5,7.1,-2.33512,-0.297896,0.543858,0.866026,0.0884307,0.0239358,0,-0.012124,-0.00340119,0.0093821,2.26657,5,0.1,6,7.1,4.07714,-3.75916,0.618189,0.0863083,-0.866026,0.00461834,-0.0123084,0,-0.000674278,0.00700415,2.2672,5,0.1,7,7.1,0.229368,-0.978586,0.618523,-0.400515,0.433239,0.0110693,0.320356,-0.362787,-0.00883639,0.00917247,0.147309,5,0.1,8,7.1,-3.43592,2.01481,1.34858,0.28403,-0.743557,0.00135675,0.234038,-0.00876188,-0.0012964,0.0177635,0.861002,5,0.1,9,7.1,-1.57154,-2.01879,0.536679,-0.210328,-0.181053,-0.031445,0.154197,0.0374764,0.0224859,0.0100365,0.220381,5,0.1
0,7.2,-3.52409,-0.889924,1.34935,0.359654,-0.663471,0.00050962,-0.216365,-0.865072,-0.000298023,0.0116155,1.58497,5,0.1,1,7.2,0.272493,1.33966,0.602434,-0.0790052,-0.407398,-0.00203401,-0.036642,-1.0646,0.00110269,0.0129487,2.09242,5,0.1,2,7.2,-3.85218,-0.37381,0.700444,-0.205868,0.352928,0.264189,-0.301838,-0.282019,-0.0244081,0.0133123,0.235158,5,0.1,3,7.2,-0.237329,3.18208,0.599188,0.060067,0.549275,0.000807643,-0.134259,-0.157714,-0.000864267,0.0137569,0.215743,5,0.1,4,7.2,-3.75399,-2.18301,0.50127,0.0102043,0.672197,0.0168383,0.0392199,-1.09112,0.126302,0.0144885,2.94097,5,0.1,5,7.2,-2.24852,-0.289123,0.546232,0.866026,0.0868291,0.0234917,0,-0.0235885,-0.00649691,0.00740247,2.26688,5,0.1,6,7.2,4.0857,-3.84576,0.618647,0.0846624,-0.866026,0.00452995,-0.0240803,0,-0.0013113,0.00601957,2.11705,5,0.1,7,7.2,0.190943,-0.93709,0.619585,-0.367509,0.396299,0.0101581,0.347838,-0.385106,-0.00956655,0.00931014,0.0975635,5,0.1,8,7.2,-3.40646,1.94061,1.34871,0.303686,-0.737965,0.00123084,0.142336,0.148177,-0.0012517,0.0120656,0.616385,5,0.1,9,7.2,-1.59187,-2.03703,0.533637,-0.196567,-0.186092,-0.0294432,0.131428,-0.106812,0.0191331,0.00805718,0.14306,5,0.1
0,7.3,-3.48919,-0.960723,1.3494,0.338349,-0.752193,0.000483543,-0.218689,-0.848554,-0.000238419,0.0116155,1.58497,5,0.1,1,7.3,0.264424,1.29311,0.602235,-0.0821299,-0.526593,-0.00193231,-0.0225361,-1.23949,0.000998378,0.0129487,2.09242,5,0.1,2,7.3,-3.87427,-0.339851,0.726735,-0.23551,0.326747,0.261319,-0.273779,-0.251906,-0.0424013,0.0133123,0.235158,5,0.1,3,7.3,-0.23205,3.23628,0.599265,0.0450944,0.534646,0.000729226,-0.159966,-0.155494,-0.000730157,0.0137569,0.215743,5,0.1,4,7.3,-3.75274,-2.12175,0.503667,0.0149399,0.550441,0.031663,0.0519753,-1.25213,0.160534,0.0144885,2.94097,5,0.1,5,7.3,-2.16192,-0.280521,0.548558,0.866026,0.0854537,0.0231087,0,-0.00900775,-0.0025332,0.00740247,2.26688,5,0.1,6,7.3,4.09408,-3.93227,0.619095,0.0829875,-0.862522,0.0044385,-0.0138879,0.0928789,-0.000752509,0.00601957,2.11705,5,0.1,7,7.3,0.155838,-0.899275,0.620556,-0.335283,0.360824,0.00927104,0.306673,-0.335466,-0.00844523,0.00931014,0.0975635,5,0.1,8,7.3,-3.37535,1.86744,1.34883,0.318351,-0.725568,0.00111815,0.132591,0.131518,-0.00105053,0.0120656,0.616385,5,0.1,9,7.3,-1.61095,-2.05643,0.530776,-0.185722,-0.203865,-0.0278721,0.0947416,-0.221357,0.0136867,0.00805718,0.14306,5,0.1
0,7.4,-3.45651,-1.03975,1.34945,0.314438,-0.822857,0.000458956,-0.26536,-0.522375,-0.000298023,0.019183,1.16461,5,0.1,1,7.4,0.256144,1.2345,0.602047,-0.0829659,-0.641528,-0.00182241,0.00797957,-1.00124,0.0012219,0.0115459,0.776387,5,0.1,2,7.4,-3.89903,-0.308455,0.752562,-0.257725,0.30081,0.254147,-0.158548,-0.273928,-0.107259,0.0093485,0.264652,5,0.1,3,7.4,-0.228347,3.28883,0.599334,0.0290003,0.51471,0.000657141,-0.157893,-0.257134,-0.000685453,0.0144386,0.147418,5,0.1,4,7.4,-3.75099,-2.07266,0.507627,0.0199974,0.435746,0.0472635,0.0463724,-0.993967,0.144333,0.0071708,2.70481,5,0.1,5,7.4,-2.07532,-0.272031,0.550854,0.866026,0.0841551,0.0227496,0,-0.0205785,-0.00563264,0.00887024,2.26714,5,0.1,6,7.4,4.10229,-4.01775,0.619535,0.0811338,-0.843585,0.00433922,-0.026226,0.301123,-0.00143051,0.0072687,1.93737,5,0.1,7,7.4,0.123841,-0.864862,0.62144,-0.304484,0.327329,0.00842214,0.316225,-0.34216,-0.00873208,0.00876875,0.112042,5,0.1,8,7.4,-3.34299,1.79573,1.34894,0.327104,-0.706312,0.00101626,0.0299215,0.275493,-0.00107288,0.0139074,0.762502,5,0.1,9,7.4,-1.62905,-2.07793,0.528057,-0.176033,-0.225627,-0.026466,0.10556,-0.193715,0.0154376,0.0127396,0.0893845,5,0.1
0,7.5,-3.42634,-1.12406,1.34949,0.28922,-0.857897,0.000432134,-0.246674,-0.19253,-0.00025332,0.019183,1.16461,5,0.1,1,7.5,0.247893,1.16573,0.601871,-0.0819324,-0.72927,-0.00170916,0.0154125,-0.72179,0.00110269,0.0115459,0.776387,5,0.1,2,7.5,-3.92573,-0.279665,0.777455,-0.27695,0.275559,0.243656,-0.202492,-0.239722,-0.110347,0.0093485,0.264652,5,0.1,3,7.5,-0.226239,3.33908,0.599397,0.0132358,0.49059,0.000594929,-0.153588,-0.242263,-0.000581145,0.0144386,0.147418,5,0.1,4,7.5,-3.74875,-2.03359,0.513092,0.024787,0.352928,0.062013,0.0467449,-0.56453,0.143304,0.0071708,2.70481,5,0.1,5,7.5,-1.98871,-0.263683,0.55311,0.866026,0.0830341,0.0224403,0,-0.00680983,-0.00189617,0.00887024,2.26714,5,0.1,6,7.5,4.11029,-4.09987,0.619962,0.0789501,-0.792013,0.0042202,-0.0210106,0.706971,-0.00113994,0.0072687,1.93737,5,0.1,7,7.5,0.0947389,-0.83358,0.622245,-0.279459,0.300427,0.00773063,0.201749,-0.215098,-0.00557676,0.00876875,0.112042,5,0.1,8,7.5,-3.30981,1.72727,1.34903,0.338948,-0.655775,0.000919588,0.172511,0.704177,-0.000886619,0.0139074,0.762502,5,0.1,9,7.5,-1.64616,-2.1015,0.525483,-0.166324,-0.245769,-0.0250457,0.0946,-0.19145,0.013873,0.0127396,0.0893845,5,0.1
0,7.6,-3.39867,-1.21041,1.34953,0.263828,-0.865772,0.000405312,-0.266552,0.005126,-0.000238419,0.0192947,0.832044,5,0.1,1,7.6,0.239807,1.08986,0.601706,-0.0794344,-0.780731,-0.00159144,0.0363141,-0.287771,0.0012517,0.00973985,2.34083,5,0.1,2,7.6,-3.95435,-0.253308,0.801212,-0.294191,0.251403,0.230779,-0.125766,-0.249378,-0.15232,0.00966672,0.10895,5,0.1,3,7.6,-0.22565,3.38684,0.599454,-0.00106283,0.463408,0.000537932,-0.129633,-0.312686,-0.000566244,0.0103717,0.135855,5,0.1,4,7.6,-3.74606,-2,0.519958,0.0288904,0.329834,0.0746712,0.0333786,0.0746846,0.104725,0.0126601,2.3092,5,0.1,5,7.6,-1.90211,-0.255424,0.555342,0.866026,0.0819415,0.0221416,0,-0.0185743,-0.0050962,0.00889358,2.26737,5,0.1,6,7.6,4.11807,-4.17502,0.620378,0.0763178,-0.706625,0.00407994,-0.033617,0.980139,-0.00184774,0.00696529,1.86778,5,0.1,7,7.6,0.0677302,-0.804532,0.622993,-0.261096,0.280967,0.00722259,0.178404,-0.188261,-0.00491738,0.00906219,0.064881,5,0.1,8,7.6,-3.27505,1.6657,1.34912,0.355631,-0.571227,0.000834465,0.136018,0.96035,-0.00089407,0.0141166,0.643897,5,0.1,9,7.6,-1.6623,-2.12691,0.523051,-0.156108,-0.260931,-0.0235394,0.113726,-0.0994205,0.0168681,0.0134821,0.0708079,5,0.1
0,7.7,-3.37356,-1.29698,1.34957,0.238968,-0.865238,0.000383332,-0.237197,0.0225827,-0.000223517,0.0192947,0.832044,5,0.1,1,7.7,0.23234,1.00997,0.601552,-0.0673876,-0.819394,-0.00147196,0.188104,-0.420678,0.00117347,0.00973985,2.34083,5,0.1,2,7.7,-3.98428,-0.229339,0.823559,-0.303197,0.228562,0.216308,-0.0457913,-0.214692,-0.143617,0.00966672,0.10895,5,0.1,3,7.7,-0.226543,3.4317,0.599505,-0.0178459,0.434219,0.000486523,-0.193317,-0.285223,-0.000476837,0.0103717,0.135855,5,0.1,4,7.7,-3.743,-1.96532,0.527941,0.0321325,0.37435,0.0847715,0.0294,0.716969,0.0915788,0.0126601,2.3092,5,0.1,5,7.7,-1.81551,-0.247289,0.55754,0.866026,0.0809745,0.021874,0,-0.0056047,-0.00156462,0.00889358,2.26737,5,0.1,6,7.7,4.12554,-4.24021,0.620777,0.0732921,-0.592524,0.00391426,-0.0297725,1.25062,-0.0016205,0.00696529,1.86778,5,0.1,7,7.7,0.0424102,-0.777264,0.623693,-0.246032,0.265197,0.00680676,0.134436,-0.139859,-0.00371411,0.00906219,0.064881,5,0.1,8,7.7,-3.23867,1.61374,1.3492,0.372571,-0.465393,0.000754558,0.175983,1.12046,-0.000737607,0.0141166,0.643897,5,0.1,9,7.7,-1.67739,-2.15357,0.520774,-0.146104,-0.272264,-0.022056,0.0926331,-0.109017,0.01375,0.0134821,0.0708079,5,0.1
0,7.8,-3.35084,-1.38317,1.34961,0.215292,-0.85572,0.000360608,-0.241041,0.206053,-0.000298023,0.0131887,0.632952,5,0.1,1,7.8,0.226679,0.926127,0.601411,-0.0447769,-0.85426,-0.00135005,0.25098,-0.235319,0.0013113,0.0122837,2.25694,5,0.1,2,7.8,-4.01464,-0.207547,0.844443,-0.301993,0.207235,0.200963,0.0748634,-0.216916,-0.167668,0.0138151,0.139398,5,0.1,3,7.8,-0.229313,3.47365,0.599551,-0.0374962,0.403988,0.000441074,-0.190087,-0.328779,-0.000506639,0.0082266,0.166965,5,0.1,4,7.8,-3.73966,-1.92391,0.536817,0.0344157,0.455853,0.0920311,0.014782,0.837922,0.0497103,0.00767476,1.84971,5,0.1,5,7.8,-1.72891,-0.23923,0.559717,0.866026,0.0799924,0.0216037,0,-0.0174791,-0.00470877,0.00997693,2.26759,5,0.1,6,7.8,4.13271,-4.2931,0.62116,0.0698686,-0.465286,0.00373125,-0.0405312,1.2579,-0.00220537,0.00709857,1.79962,5,0.1,7,7.8,0.0184838,-0.751448,0.624355,-0.232235,0.250824,0.00642538,0.149705,-0.156641,-0.00417233,0.0129474,0.0506244,5,0.1,8,7.8,-3.20065,1.57283,1.34927,0.38625,-0.353324,0.000685453,0.0784397,1.09476,-0.00077486,0.0174688,0.559093,5,0.1,9,7.8,-1.69153,-2.18123,0.518638,-0.136518,-0.279659,-0.0206307,0.103474,-0.026226,0.0154972,0.00706498,0.0332273,5,0.1
0,7.9,-3.33029,-1.46782,1.34964,0.197542,-0.837477,0.000333227,-0.129402,0.193544,-0.00026077,0.0131887,0.632952,5,0.1,1,7.9,0.223573,0.83998,0.601282,-0.0165321,-0.86529,-0.00123093,0.300725,-0.0294112,0.00110641,0.0122837,2.25694,5,0.1,2,7.9,-4.04459,-0.187838,0.863742,-0.297566,0.187478,0.185283,0.0308156,-0.184288,-0.151433,0.0138151,0.139398,5,0.1,3,7.9,-0.23417,3.5127,0.599593,-0.060759,0.379362,0.000402145,-0.257849,-0.188738,-0.000305474,0.0082266,0.166965,5,0.1,4,7.9,-3.73615,-1.87364,0.546258,0.0357702,0.552656,0.0965682,0.0106692,1.02296,0.0365116,0.00767476,1.84971,5,0.1,5,7.9,-1.6423,-0.231286,0.561862,0.866026,0.0790929,0.021362,0,-0.00521075,-0.00138953,0.00997693,2.26759,5,0.1,6,7.9,4.13951,-4.33335,0.621523,0.0661418,-0.341296,0.00352943,-0.0364184,1.16223,-0.00196323,0.00709857,1.79962,5,0.1,7,7.9,-0.00409744,-0.727033,0.62498,-0.220147,0.238297,0.00608824,0.104015,-0.107035,-0.00290573,0.0129474,0.0506244,5,0.1,8,7.9,-3.16158,1.54284,1.34934,0.395153,-0.248607,0.000616722,0.0784397,0.969321,-0.000633299,0.0174688,0.559093,5,0.1,9,7.9,-1.70468,-2.20928,0.516651,-0.126439,-0.280466,-0.0191196,0.101328,0.019297,0.0152104,0.00706498,0.0332273,5,0.1
0,8,-3.31111,-1.55039,1.34968,0.186706,-0.811169,0.000306964,-0.0988245,0.356257,-0.000298023,0.0105575,0.438134,5,0.1,1,8,0.223416,0.753393,0.601165,0.013059,-0.866026,-0.00112057,0.281215,0,0.00110269,0.0144726,2.25113,5,0.1,2,8,-4.07415,-0.169999,0.881504,-0.292897,0.169344,0.169751,0.0743866,-0.182666,-0.162959,0.00894252,0.162286,5,0.1,3,8,-0.241529,3.54975,0.599632,-0.086049,0.361902,0.000375509,-0.235111,-0.178814,-0.000268221,0.00993818,0.114559,5,0.1,4,8,-3.73254,-1.81346,0.556045,0.0362754,0.647473,0.0985801,-0.00178814,0.818908,0.000745058,0.0131813,1.41865,5,0.1,5,8,-1.5557,-0.223414,0.563988,0.866026,0.0781465,0.021106,0,-0.0170618,-0.00455976,0.0104006,2.2678,5,0.1,6,8,4.14593,-4.36219,0.621866,0.0621915,-0.241566,0.003317,-0.0441074,0.804901,-0.00235438,0.0100727,1.67179,5,0.1,7,8,-0.0255876,-0.703745,0.625574,-0.209393,0.227177,0.0057891,0.119483,-0.124663,-0.00336766,0.00978892,0.0230485,5,0.1,8,8,-3.12181,1.52243,1.3494,0.398356,-0.163892,0.000557303,-0.0288486,0.711024,-0.000596046,0.0172786,0.477769,5,0.1,9,8,-1.7168,-2.23709,0.514818,-0.115722,-0.274312,-0.0175089,0.115037,0.109553,0.0173151,0.00968038,0.0128694,5,0.1
0,8.1,-3.29281,-1.62984,1.34971,0.18017,-0.778083,0.000280142,-0.0440031,0.333883,-0.00025332,0.0105575,0.438134,5,0.1,1,8.1,0.226296,0.66679,0.601058,0.0457436,-0.866026,-0.00102054,0.352723,3.72529e-06,0.000931323,0.0144726,2.25113,5,0.1,2,8.1,-4.10279,-0.154016,0.897709,-0.277419,0.14994,0.154679,0.224859,-0.204156,-0.143126,0.00894252,0.162286,5,0.1,3,8.1,-0.251047,3.58517,0.599668,-0.101818,0.347044,0.000353903,-0.0861082,-0.134721,-0.000178814,0.00993818,0.114559,5,0.1,4,8.1,-3.72892,-1.74451,0.565902,0.0360392,0.731305,0.0984216,-0.00429153,0.799686,-0.00758469,0.0131813,1.41865,5,0.1,5,8.1,-1.4691,-0.215654,0.566084,0.866026,0.0772513,0.0208681,0,-0.00539515,-0.00143051,0.0104006,2.2678,5,0.1,6,8.1,4.15194,-4.38289,0.622186,0.0581205,-0.179833,0.0031,-0.0392795,0.367105,-0.00208616,0.0100727,1.67179,5,0.1,7,8.1,-0.0459498,-0.681629,0.626136,-0.19789,0.215161,0.00546603,0.116929,-0.122633,-0.00327453,0.00978892,0.0230485,5,0.1,8,8.1,-3.08227,1.50916,1.34945,0.390949,-0.106496,0.000504218,-0.125125,0.413038,-0.000484288,0.0172786,0.477769,5,0.1,9,8.1,-1.7278,-2.26391,0.513153,-0.104276,-0.261255,-0.0157844,0.115313,0.15533,0.0173897,0.00968038,0.0128694,5,0.1
0,8.2,-3.275,-1.70582,1.34973,0.175804,-0.739619,0.0002563,-0.0520945,0.454545,-0.000298023,0.0126009,0.29886,5,0.1,1,8.2,0.232619,0.580187,0.60096,0.0801604,-0.866026,-0.000928342,0.320934,0,0.000923872,0.0144856,2.288,5,0.1,2,8.2,-4.12923,-0.140069,0.912463,-0.249803,0.128772,0.140342,0.318766,-0.217862,-0.146836,0.00832364,0.286527,5,0.1,3,8.2,-0.261454,3.61916,0.599703,-0.104403,0.332165,0.000335276,0.0289381,-0.174403,-0.000178814,0.00974328,0.118876,5,0.1,4,8.2,-3.72535,-1.6678,0.575668,0.0351965,0.797561,0.0964552,-0.0135899,0.485063,-0.0341535,0.0101853,1.03307,5,0.1,5,8.2,-1.38249,-0.207967,0.568161,0.866026,0.0762891,0.0206113,0,-0.0170767,-0.00458956,0.0127464,2.26802,5,0.1,6,8.2,4.15755,-4.4,0.622486,0.0540018,-0.171614,0.00288337,-0.0443459,-0.174522,-0.00238419,0.00793765,1.43332,5,0.1,7,8.2,-0.0651164,-0.660769,0.626666,-0.184957,0.201495,0.00510514,0.145878,-0.15524,-0.00405312,0.0088987,0.0140575,5,0.1,8,8.2,-3.04399,1.5,1.3495,0.372463,-0.0821531,0.000458956,-0.247478,0.0888705,-0.000476837,0.0103135,0.415766,5,0.1,9,8.2,-1.73764,-2.28916,0.511663,-0.0924379,-0.242698,-0.0139982,0.122249,0.217557,0.0184476,0.0105112,0.00624366,5,0.1
0,8.3,-3.25762,-1.77764,1.34976,0.172336,-0.697272,0.00022985,-0.0268817,0.415884,-0.000238419,0.0126009,0.29886,5,0.1,1,8.3,0.241961,0.493585,0.600872,0.104022,-0.866026,-0.000844337,0.161342,3.57628e-06,0.000782311,0.0144856,2.288,5,0.1,2,8.3,-4.15237,-0.128313,0.925872,-0.211392,0.106119,0.128729,0.416905,-0.23183,-0.0935048,0.00832364,0.286527,5,0.1,3,8.3,-0.27159,3.65163,0.599736,-0.0968718,0.318227,0.000321958,0.11565,-0.121355,-0.000108033,0.00974328,0.118876,5,0.1,4,8.3,-3.72189,-1.58572,0.585146,0.0338662,0.841909,0.0930658,-0.0141412,0.362433,-0.0366718,0.0101853,1.03307,5,0.1,5,8.3,-1.29589,-0.200394,0.570207,0.866026,0.0753577,0.0203616,0,-0.00594743,-0.00159815,0.0127464,2.26802,5,0.1,6,8.3,4.16274,-4.41909,0.622763,0.0499167,-0.218681,0.00266442,-0.0389516,-0.688165,-0.00208244,0.00793765,1.43332,5,0.1,7,8.3,-0.0829025,-0.641375,0.627157,-0.170833,0.186441,0.00471333,0.141574,-0.151306,-0.00392273,0.0088987,0.0140575,5,0.1,8,8.3,-3.00836,1.49166,1.34954,0.336736,-0.0894368,0.00041686,-0.450432,-0.198007,-0.00038743,0.0103135,0.415766,5,0.1,9,8.3,-1.74628,-2.31232,0.510353,-0.0806101,-0.220364,-0.0122122,0.115395,0.231788,0.0174306,0.0105112,0.00624366,5,0.1
0,8.4,-3.24054,-1.84519,1.34978,0.168782,-0.652492,0.000205636,-0.0510216,0.495613,-0.000178814,0.0146896,0.201975,5,0.1,1,8.4,0.252941,0.406982,0.600791,0.113422,-0.866025,-0.00076741,0.0315309,-1.43051e-05,0.00077486,0.0114118,1.84005,5,0.1,2,8.4,-4.17146,-0.11886,0.938311,-0.171459,0.0830203,0.120234,0.363588,-0.227384,-0.0823438,0.00903664,1.07243,5,0.1,3,8.4,-0.280598,3.68282,0.599767,-0.0824116,0.305003,0.000311434,0.168234,-0.15521,-0.000149012,0.0124915,0.197084,5,0.1,4,8.4,-3.71859,-1.50018,0.594245,0.0321865,0.863644,0.0886187,-0.0202656,0.0476241,-0.0542998,0.00925084,0.726166,5,0.1,5,8.4,-1.20929,-0.192899,0.572232,0.866026,0.0743479,0.0200897,-5.96046e-05,-0.0173524,-0.00467896,0.0106388,2.26824,5,0.1,6,8.4,4.16754,-4.44471,0.623019,0.0459433,-0.295365,0.00245124,-0.0422001,-0.785828,-0.00220537,0.00740099,1.15713,5,0.1,7,8.4,-0.0992528,-0.623517,0.627608,-0.155842,0.170353,0.00429899,0.161283,-0.173748,-0.00444055,0.00846962,0.00450613,5,0.1,8,8.4,-2.97716,1.4815,1.34958,0.285447,-0.115275,0.000378489,-0.561237,-0.290513,-0.000357628,0.0132551,0.27406,5,0.1,9,8.4,-1.75377,-2.33316,0.509219,-0.0691921,-0.19595,-0.0104859,0.113547,0.25773,0.0171959,0.0112564,0.00183216,5,0.1
0,8.5,-3.22388,-1.9081,1.3498,0.164677,-0.60652,0.000189804,-0.0387728,0.443392,-0.000156462,0.0146896,0.201975,5,0.1,1,8.5,0.264168,0.320381,0.600718,0.108791,-0.865982,-0.000697095,-0.108356,0.0017564,0.000651926,0.0114118,1.84005,5,0.1,2,8.5,-4.18697,-0.111672,0.949923,-0.140612,0.0610349,0.11193,0.2473,-0.209737,-0.086017,0.00903664,1.07243,5,0.1,3,8.5,-0.287934,3.7125,0.599798,-0.0638634,0.288027,0.000295416,0.196001,-0.189036,-0.000178814,0.0124915,0.197084,5,0.1,4,8.5,-3.71547,-1.41368,0.602846,0.0302605,0.865158,0.0834319,-0.0191629,-0.0228137,-0.0519641,0.00925084,0.726166,5,0.1,5,8.5,-1.12269,-0.185523,0.574226,0.866025,0.0733549,0.019822,1.49012e-05,-0.00673626,-0.00181422,0.0106388,2.26824,5,0.1,6,8.5,4.17194,-4.47856,0.623253,0.0420779,-0.383814,0.00224924,-0.036478,-0.923395,-0.00191107,0.00740099,1.15713,5,0.1,7,8.5,-0.11403,-0.607352,0.628015,-0.13966,0.152884,0.00385353,0.164054,-0.177491,-0.00451878,0.00846962,0.00450613,5,0.1,8,8.5,-2.95151,1.46829,1.34962,0.226897,-0.150386,0.000346638,-0.597715,-0.384003,-0.000290573,0.0132551,0.27406,5,0.1,9,8.5,-1.76014,-2.35146,0.508254,-0.0582173,-0.170049,-0.00882354,0.106141,0.260279,0.0160784,0.0112564,0.00183216,5,0.1
0,8.6,-3.20763,-1.96649,1.34982,0.159723,-0.560519,0.000172853,-0.0658035,0.490129,-0.000119209,0.0100324,0.13587,5,0.1,1,8.6,0.274379,0.233805,0.600652,0.0944838,-0.865323,-0.000633299,-0.166267,0.0140369,0.000655651,0.0195361,1.44815,5,0.1,2,8.6,-4.2,-0.106571,0.960665,-0.121891,0.0415072,0.102663,0.134468,-0.17906,-0.100732,0.00996606,1.38034,5,0.1,3,8.6,-0.29334,3.74028,0.599826,-0.0443801,0.266463,0.000274181,0.188693,-0.244856,-0.000208616,0.0102573,0.278261,5,0.1,4,8.6,-3.71254,-1.32753,0.610916,0.028193,0.854519,0.0778034,-0.022769,-0.230074,-0.0623465,0.00880999,0.499216,5,0.1,5,8.6,-1.03608,-0.178232,0.576196,0.866026,0.0722777,0.0195295,-2.98023e-05,-0.0177994,-0.00476837,0.0132105,1.97144,5,0.1,6,8.6,4.17596,-4.52138,0.623469,0.0384092,-0.469744,0.00205636,-0.0374317,-0.751734,-0.00196695,0.00721784,0.892545,5,0.1,7,8.6,-0.127161,-0.592968,0.628378,-0.12278,0.134578,0.00338852,0.174373,-0.189483,-0.00479817,0.00854345,0.00134808,5,0.1,8,8.6,-2.93179,1.45137,1.34965,0.168025,-0.187269,0.000318885,-0.570416,-0.33325,-0.000298023,0.0145445,0.224033,5,0.1,9,8.6,-1.76544,-2.36716,0.507451,-0.047937,-0.143945,-0.00726581,0.0994802,0.261426,0.01508,0.00985625,0.000917815,5,0.1
0,8.7,-3.19196,-2.02023,1.34983,0.153869,-0.515321,0.000161678,-0.0575185,0.430174,-0.000104308,0.0100324,0.13587,5,0.1,1,8.7,0.282899,0.147281,0.600592,0.0754609,-0.865349,-0.000574067,-0.193559,0.00250503,0.000551343,0.0195361,1.44815,5,0.1,2,8.7,-4.21175,-0.103269,0.970443,-0.115003,0.0250287,0.0930041,0.0186861,-0.148393,-0.0944585,0.00996606,1.38034,5,0.1,3,8.7,-0.296834,3.76573,0.599853,-0.0257156,0.242726,0.000253599,0.176189,-0.23523,-0.000204891,0.0102573,0.278261,5,0.1,4,8.7,-3.70983,-1.24316,0.6184,0.0260625,0.832709,0.0719537,-0.0206381,-0.237465,-0.0567771,0.00880999,0.499216,5,0.1,5,8.7,-0.949482,-0.171073,0.57813,0.866025,0.0710187,0.0191922,3.72529e-06,-0.0110175,-0.00296161,0.0132105,1.97144,5,0.1,6,8.7,4.17963,-4.57218,0.623665,0.0349909,-0.545777,0.00187634,-0.0320673,-0.722945,-0.00168756,0.00721784,0.892545,5,0.1,7,8.7,-0.138572,-0.580453,0.628693,-0.105491,0.115765,0.00291262,0.17147,-0.186853,-0.00472367,0.00854345,0.00134808,5,0.1,8,8.7,-2.91773,1.43092,1.34968,0.114417,-0.22176,0.000292249,-0.495613,-0.335336,-0.000245869,0.0145445,0.224033,5,0.1,9,8.7,-1.76975,-2.38027,0.506797,-0.0384571,-0.118391,-0.00582868,0.0899956,0.248656,0.0136457,0.00985625,0.000917815,5,0.1
0,8.8,-3.17689,-2.06961,1.34985,0.14717,-0.471711,0.000149012,-0.0808239,0.453115,-0.000119209,0.0112361,0.159068,5,0.1,1,8.8,0.289559,0.060865,0.600537,0.0588544,-0.861514,-0.000520051,-0.128388,0.0902355,0.000536442,0.00997685,1.11269,5,0.1,2,8.8,-4.22324,-0.101444,0.979268,-0.115442,0.0121515,0.0834391,-0.0157356,-0.108041,-0.0982285,0.00828893,0.531076,5,0.1,3,8.8,-0.2986,3.7888,0.599877,-0.0104703,0.21854,0.000232458,0.123858,-0.251889,-0.000238419,0.0105149,3.55201,5,0.1,4,8.8,-3.70733,-1.1613,0.625306,0.0239372,0.801784,0.0660911,-0.0224113,-0.402033,-0.0619888,0.0115341,0.336609,5,0.1,5,8.8,-0.86288,-0.164039,0.580031,0.866026,0.0694562,0.0187725,0,-0.0227764,-0.00619888,0.0100985,1.54503,5,0.1,6,8.8,4.18297,-4.63002,0.623844,0.0317931,-0.606537,0.00170767,-0.0324249,-0.460625,-0.00172853,0.00774253,0.651392,5,0.1,7,8.8,-0.148269,-0.569806,0.62896,-0.0884958,0.0972211,0.00244528,0.168256,-0.183851,-0.00464916,0.00859773,0.000706538,5,0.1,8,8.8,-2.9086,1.4072,1.34971,0.0698626,-0.250721,0.000268221,-0.39196,-0.228822,-0.000298023,0.0161406,1.27659,5,0.1,9,8.8,-1.77316,-2.39089,0.50628,-0.0299603,-0.0943959,-0.00454187,0.0798702,0.230312,0.0121295,0.0121976,0.00082524,5,0.1
0,8.9,-3.16258,-2.11488,1.34986,0.139038,-0.436733,0.000140071,-0.0854135,0.275001,-7.45058e-05,0.0112361,0.159068,5,0.1,1,8.9,0.294908,-0.0251056,0.600487,0.0498158,-0.85935,-0.000471622,-0.0294261,0.00175461,0.000447035,0.00997685,1.11269,5,0.1,2,8.9,-4.23497,-0.10076,0.987143,-0.119936,0.00182535,0.0742485,-0.0622869,-0.0909762,-0.0873469,0.00828893,0.531076,5,0.1,3,8.9,-0.2988,3.81054,0.599844,0.00710068,0.225829,-0.00136131,0.165377,0.324368,-0.028152,0.0105149,3.55201,5,0.1,4,8.9,-3.70504,-1.08303,0.631622,0.021863,0.763801,0.0603448,-0.0197589,-0.383459,-0.0547357,0.0115341,0.336609,5,0.1,5,8.9,-0.776279,-0.157194,0.581881,0.86592,0.0675066,0.0182416,-0.00422448,-0.0191443,-0.00520796,0.0100985,1.54503,5,0.1,6,8.9,4.186,-4.69294,0.624007,0.0288434,-0.650632,0.00155037,-0.0275075,-0.385225,-0.00146404,0.00774253,0.651392,5,0.1,7,8.9,-0.156294,-0.560986,0.629182,-0.0721852,0.079383,0.00199471,0.15744,-0.172339,-0.00435114,0.00859773,0.000706538,5,0.1,8,8.9,-2.90338,1.38037,1.34989,0.0365242,-0.290767,0.00468716,-0.274748,-0.51599,0.0787824,0.0161406,1.27659,5,0.1,9,8.9,-1.77578,-2.39922,0.505884,-0.0225004,-0.0724871,-0.00340929,0.0691712,0.206843,0.0105016,0.0121976,0.00082524,5,0.1
0,9,-3.14913,-2.15728,1.34988,0.129497,-0.411761,0.00013411,-0.107765,0.245571,-0.000119209,0.00972715,0.1007,5,0.1,1,9,0.3,-0.110851,0.600442,0.0544973,-0.852866,-0.000427663,0.115395,0.162179,0.000476837,0.0123289,0.822656,5,0.1,2,9,-4.24727,-0.100957,0.994138,-0.125849,-0.00490006,0.0656724,-0.0469685,-0.0395998,-0.0854135,0.0113042,0.729377,5,0.1,3,9,-0.297572,3.8352,0.599544,0.0135712,0.270426,-0.00477731,-0.0641197,0.51105,-0.0374913,0.0093664,3.25678,5,0.1,4,9,-3.70295,-1.00871,0.637383,0.0198781,0.720766,0.0548393,-0.0203848,-0.494629,-0.0566244,0.00807825,0.224707,5,0.1,5,9,-0.689742,-0.150552,0.583676,0.864336,0.0651326,0.0175968,-0.0337958,-0.0303462,-0.00822544,0.0136499,1.1762,5,0.1,6,9,4.18874,-4.75956,0.624155,0.0261307,-0.677538,0.00140518,-0.0276566,-0.128508,-0.00149012,0.0064672,0.454406,5,0.1,7,9,-0.162747,-0.553886,0.62936,-0.0571024,0.0628591,0.00157803,0.143774,-0.157654,-0.00396371,0.0079396,0.000627593,5,0.1,8,9,-2.90091,1.34862,1.35082,0.0146866,-0.344107,0.0142664,-0.164151,-0.508845,0.105202,0.0103719,2.09497,5,0.1,9,9,-1.7777,-2.40548,0.505592,-0.0161469,-0.0531971,-0.00244528,0.0577569,0.178337,0.00876188,0.00729597,0.000671316,5,0.1
0,9.1,-3.13683,-2.19738,1.34989,0.115624,-0.391322,0.000124425,-0.164911,0.182003,-8.9407e-05,0.00972715,0.1007,5,0.1,1,9.1,0.306332,-0.195483,0.600402,0.0745611,-0.840334,-0.000385195,0.260923,0.127438,0.00038743,0.0123289,0.822656,5,0.1,2,9.1,-4.26012,-0.101685,1.0003,-0.131246,-0.00939339,0.0578081,-0.0529587,-0.02426,-0.0733957,0.0113042,0.729377,5,0.1,3,9.1,-0.296858,3.86529,0.598858,-0.00463766,0.334839,-0.00908989,-0.374367,0.719756,-0.0460967,0.0093664,3.25678,5,0.1,4,9.1,-3.70106,-0.938986,0.6426,0.0180066,0.674459,0.049638,-0.0175834,-0.453025,-0.0489131,0.00807825,0.224707,5,0.1,5,9.1,-0.603322,-0.14418,0.585397,0.864746,0.0623739,0.0168491,0.00809878,-0.0272114,-0.00737607,0.0136499,1.1762,5,0.1,6,9.1,4.19122,-4.82793,0.624288,0.0233091,-0.688674,0.00127023,-0.0288188,-0.0652373,-0.00124797,0.0064672,0.454406,5,0.1,7,9.1,-0.167764,-0.548361,0.629499,-0.0435052,0.0479395,0.00120318,0.127636,-0.140138,-0.0035204,0.0079396,0.000627593,5,0.1,8,9.1,-2.90011,1.31113,1.35283,0.00274107,-0.409298,0.026338,-0.0800192,-0.732265,0.128798,0.0103719,2.09497,5,0.1,9,9.1,-1.77904,-2.40995,0.505389,-0.0108836,-0.0367031,-0.00164686,0.0474527,0.150919,0.00719354,0.00729597,0.000671316,5,0.1
0,9.2,-3.12615,-2.23558,1.3499,0.0974,-0.372154,0.000116229,-0.195503,0.214815,-0.000119209,0.0153035,0.168963,5,0.1,1,9.2,0.315164,-0.278676,0.600365,0.102293,-0.820792,-0.000347197,0.274822,0.290275,0.00038743,0.0159773,0.90473,5,0.1,2,9.2,-4.27347,-0.102566,1.00573,-0.135052,-0.00612959,0.0507325,-0.017643,0.0997521,-0.069201,0.00764053,0.67144,5,0.1,3,9.2,-0.3,3.90233,0.597722,-0.0657767,0.4044,-0.0135332,-0.818834,0.628948,-0.0408292,0.0100162,2.86211,5,0.1,4,9.2,-3.69935,-0.873879,0.647322,0.0162601,0.626548,0.0447974,-0.0175238,-0.519782,-0.0489056,0.00930788,0.149541,5,0.1,5,9.2,-0.516949,-0.138089,0.587042,0.860817,0.0592884,0.0160143,-0.104189,-0.0361353,-0.00977516,0.0116998,0.867514,5,0.1,6,9.2,4.1934,-4.89682,0.624409,0.0203609,-0.685787,0.00114888,-0.0305176,0.142574,-0.0012517,0.00671557,0.307427,5,0.1,7,9.2,-0.171506,-0.544234,0.629603,-0.0316612,0.0349268,0.000876188,0.108898,-0.119686,-0.00301003,0.00833685,0.000496644,5,0.1,8,9.2,-2.90014,1.2666,1.35609,-0.00228286,-0.479677,0.0387311,-0.0247955,-0.629127,0.113606,0.0098435,0.337107,5,0.1,9,9.2,-1.77991,-2.41292,0.505258,-0.0066638,-0.0231087,-0.00100732,0.0369549,0.120759,0.00560284,0.0077948,0.000415124,5,0.1
0,9.3,-3.11742,-2.27178,1.34991,0.0771444,-0.352093,0.000105985,-0.205651,0.198469,-8.19564e-05,0.0153035,0.168963,5,0.1,1,9.3,0.327027,-0.359582,0.600332,0.136827,-0.799046,-0.000312645,0.386998,0.186136,0.000309199,0.0159773,0.90473,5,0.1,2,9.3,-4.28693,-0.102538,1.01047,-0.133099,0.00920801,0.0444381,0.0421405,0.245314,-0.0579879,0.00764053,0.67144,5,0.1,3,9.3,-0.311661,3.9461,0.59616,-0.175034,0.471524,-0.0177192,-1.27632,0.666782,-0.0407696,0.0100162,2.86211,5,0.1,4,9.3,-3.6978,-0.813683,0.651573,0.0146613,0.578304,0.0403378,-0.014931,-0.463102,-0.0415593,0.00930788,0.149541,5,0.1,5,9.3,-0.43115,-0.13233,0.588598,0.85633,0.055956,0.0151129,-0.0317113,-0.0324752,-0.00878423,0.0116998,0.867514,5,0.1,6,9.3,4.19528,-4.9647,0.624518,0.0170857,-0.671214,0.00103619,-0.0342131,0.172555,-0.00103563,0.00671557,0.307427,5,0.1,7,9.3,-0.174157,-0.541309,0.629676,-0.021637,0.0239031,0.000599213,0.091278,-0.100441,-0.0025183,0.00833685,0.000496644,5,0.1,8,9.3,-2.90045,1.2162,1.36036,-0.0036601,-0.521248,0.0450233,-0.00394881,-0.209123,0.0182316,0.0098435,0.337107,5,0.1,9,9.3,-1.78041,-2.41466,0.505183,-0.00340454,-0.012308,-0.000513345,0.0282675,0.0950843,0.00428408,0.0077948,0.000415124,5,0.1
0,9.4,-3.11072,-2.30595,1.34992,0.0569642,-0.33043,9.83477e-05,-0.195026,0.24271,-0.000119209,0.0180003,0.147334,5,0.1,1,9.4,0.342635,-0.43845,0.600302,0.174672,-0.776491,-0.000281632,0.348523,0.294223,0.000268221,0.0116849,0.66255,5,0.1,2,9.4,-4.3,-0.1,1.01464,-0.12821,0.0452053,0.0389099,0.0545979,0.459038,-0.053525,0.00864708,0.804577,5,0.1,3,9.4,-0.335691,3.99633,0.594198,-0.305254,0.52976,-0.021328,-1.26018,0.465035,-0.0298619,0.00995385,2.51158,5,0.1,4,9.4,-3.69641,-0.758195,0.655403,0.0131965,0.530888,0.0362679,-0.0145435,-0.49752,-0.0407398,0.0122914,0.0996629,5,0.1,5,9.4,-0.345866,-0.126904,0.590063,0.846625,0.0524625,0.014168,-0.194683,-0.038743,-0.0104606,0.00752238,0.617437,5,0.1,6,9.4,4.19681,-5.03075,0.624617,0.0136614,-0.647342,0.000935793,-0.0338554,0.320435,-0.00104308,0.0067185,0.204404,5,0.1,7,9.4,-0.175895,-0.539387,0.629724,-0.0134487,0.0148878,0.000372529,0.0723675,-0.079751,-0.00199676,0.00970234,0.000299866,5,0.1,8,9.4,-2.90081,1.16367,1.36484,-0.00329614,-0.523072,0.0434846,0.0100136,0.163853,-0.0439286,0.00912099,0.776006,5,0.1,9,9.4,-1.78062,-2.41546,0.505151,-0.000998378,-0.0041008,-0.000149012,0.0200272,0.0691414,0.00303984,0.00997882,0.000193078,5,0.1
0,9.5,-3.10596,-2.3378,1.34993,0.0386544,-0.306784,8.75443e-05,-0.169039,0.237808,-8.9407e-05,0.0180003,0.147334,5,0.1,1,9.5,0.361915,-0.514808,0.600276,0.21108,-0.751596,-0.000257511,0.357572,0.237033,0.000227243,0.0116849,0.66255,5,0.1,2,9.5,-4.31261,-0.0925414,1.01828,-0.124359,0.108952,0.0340883,0.0296235,0.759552,-0.0440031,0.00864708,0.804577,5,0.1,3,9.5,-0.372855,4.0512,0.591915,-0.439558,0.563123,-0.0242926,-1.35399,0.197783,-0.0276119,0.00995385,2.51158,5,0.1,4,9.5,-3.69516,-0.70745,0.658839,0.0118755,0.48506,0.0325752,-0.0122786,-0.434149,-0.0341833,0.0122914,0.0996629,5,0.1,5,9.5,-0.262031,-0.12184,0.591431,0.83057,0.0488861,0.0132025,-0.163481,-0.0344133,-0.00928715,0.00752238,0.617437,5,0.1,6,9.5,4.19801,-5.09394,0.624706,0.0103518,-0.61648,0.000842474,-0.0314713,0.316441,-0.000849366,0.0067185,0.204404,5,0.1,7,9.5,-0.176905,-0.538268,0.629752,-0.00700529,0.00778297,0.00019474,0.0564465,-0.0622831,-0.0015609,0.00970234,0.000299866,5,0.1,8,9.5,-2.90116,1.11193,1.36892,-0.00414401,-0.513403,0.0377333,-0.0177026,0.0612661,-0.0684932,0.00912099,0.776006,5,0.1,9,9.5,-1.78063,-2.41556,0.505149,0.000675581,0.00178255,0.000104774,0.0135675,0.0487119,0.00205263,0.00997882,0.000193078,5,0.1
0,9.6,-3.10288,-2.36725,1.34994,0.0234842,-0.281614,8.04663e-05,-0.133038,0.270724,-0.000119209,0.0155447,0.3099,5,0.1,1,9.6,0.384677,-0.588654,0.600251,0.24242,-0.723432,-0.000235438,0.253603,0.349402,0.000238419,0.011531,0.85453,5,0.1,2,9.6,-4.32489,-0.0777347,1.02148,-0.121045,0.18722,0.0299186,0.0419617,0.763187,-0.0401735,0.00856257,0.963926,5,0.1,3,9.6,-0.42325,4.10803,0.589364,-0.563685,0.568748,-0.0265449,-1.07677,-0.0865459,-0.0161529,0.0136638,2.34211,5,0.1,4,9.6,-3.69403,-0.66111,0.66193,0.0106812,0.441499,0.0292495,-0.0120401,-0.447571,-0.0330806,0.0067687,0.115042,5,0.1,5,9.6,-0.179987,-0.117127,0.592704,0.807674,0.0453051,0.0122353,-0.319928,-0.0383295,-0.0103712,0.00804868,0.428165,5,0.1,6,9.6,4.1989,-5.15388,0.624786,0.00749826,-0.580776,0.000759959,-0.025034,0.410795,-0.000834465,0.00655549,0.134955,5,0.1,7,9.6,-0.177349,-0.537772,0.629765,-0.0021562,0.00243038,6.10948e-05,0.0406057,-0.0448823,-0.00113249,0.00894357,0.000136354,5,0.1,8,9.6,-2.90165,1.06094,1.37233,-0.0053525,-0.505376,0.0302553,-0.00107288,0.12207,-0.0789165,0.00850309,2.74331,5,0.1,9,9.6,-1.78051,-2.41517,0.505169,0.00174046,0.00569224,0.000265241,0.00780821,0.0296831,0.0012219,0.0104722,6.71139e-05,5,0.1
0,9.7,-3.10113,-2.39403,1.34995,0.0122242,-0.253712,6.94767e-05,-0.0923574,0.288665,-9.68575e-05,0.0155447,0.3099,5,0.1,1,9.7,0.410184,-0.659704,0.600228,0.267227,-0.700915,-0.000214018,0.225361,0.147827,0.000193715,0.011531,0.85453,5,0.1,2,9.7,-4.33682,-0.0556887,1.02428,-0.117755,0.248783,0.0263281,0.0295639,0.468381,-0.0325441,0.00856257,0.963926,5,0.1,3,9.7,-0.48511,4.16368,0.586627,-0.673011,0.537878,-0.0281816,-1.04759,-0.473797,-0.0148937,0.0136638,2.34211,5,0.1,4,9.7,-3.69301,-0.618849,0.664715,0.00974163,0.406555,0.0266688,-0.00739098,-0.277553,-0.0203326,0.0067687,0.115042,5,0.1,5,9.7,-0.100699,-0.112777,0.593879,0.778535,0.041778,0.0112811,-0.292982,-0.0335714,-0.00908226,0.00804868,0.428165,5,0.1,6,9.7,4.19954,-5.21,0.624858,0.00534803,-0.542016,0.000685453,-0.0172257,0.380814,-0.000678003,0.00655549,0.134955,5,0.1,7,9.7,-0.177383,-0.53773,0.629766,0.00127868,-0.00136914,-3.45521e-05,0.028233,-0.0312589,-0.000786036,0.00894357,0.000136354,5,0.1,8,9.7,-2.90238,1.01126,1.37495,-0.0100531,-0.485816,0.022101,-0.0459552,0.270192,-0.082314,0.00850309,2.74331,5,0.1,9,9.7,-1.7803,-2.41448,0.5052,0.00230726,0.00794567,0.000353903,0.00367314,0.0157505,0.000573695,0.0104722,6.71139e-05,5,0.1
0,9.8,-3.10031,-2.41792,1.34995,0.00490546,-0.223714,5.96046e-05,-0.0547171,0.311613,-0.000119209,0.016206,1.10621,5,0.1,1,9.8,0.437871,-0.729074,0.600208,0.284602,-0.685774,-0.000195205,0.110418,0.189036,0.000208616,0.0113405,0.626767,5,0.1,2,9.8,-4.34843,-0.0289512,1.02676,-0.114143,0.281201,0.0232458,0.04673,0.182719,-0.0296235,0.00887833,0.931501,5,0.1,3,9.8,-0.557183,4.21482,0.583747,-0.76264,0.483119,-0.0292376,-0.701606,-0.58651,-0.005126,0.0120862,2.25868,5,0.1,4,9.8,-3.69207,-0.579477,0.667289,0.00908375,0.381424,0.0248685,-0.00631809,-0.244409,-0.0169873,0.00624473,0.0668481,5,0.1,5,9.8,-0.0244664,-0.108768,0.594961,0.744008,0.0383614,0.0103578,-0.418121,-0.0357069,-0.00962615,0.00851694,0.291593,5,0.1,6,9.8,4.2,-5.26223,0.624923,0.00408888,-0.501859,0.000619888,-0.00810623,0.433445,-0.000655651,0.00692327,0.152695,5,0.1,7,9.8,-0.177133,-0.538002,0.629759,0.00352487,-0.0038594,-9.68575e-05,0.0169054,-0.0187457,-0.000476837,0.00843096,4.66042e-05,5,0.1,8,9.8,-2.90341,0.964279,1.37675,-0.0077486,-0.451344,0.0141144,0.11313,0.418067,-0.0759363,0.0086397,2.62638,5,0.1,9,9.8,-1.78006,-2.41363,0.505237,0.0025034,0.00891685,0.00038445,0.000417233,0.00405312,8.9407e-05,0.00990042,1.99098e-05,5,0.1
0,9.9,-3.10007,-2.43908,1.34996,9.90927e-05,-0.202469,4.88013e-05,-0.0402629,0.134736,-8.9407e-05,0.016206,1.10621,5,0.1,1,9.9,0.466867,-0.796953,0.60019,0.294782,-0.673302,-0.000176486,0.0795256,0.0975616,0.000167638,0.0113405,0.626767,5,0.1,2,9.9,-4.35963,-0.000559132,1.02895,-0.110077,0.280857,0.0206128,0.0392497,-0.164729,-0.0237972,0.00887833,0.931501,5,0.1,3,9.9,-0.636713,4.26005,0.580793,-0.824623,0.422173,-0.0298644,-0.503693,-0.547916,-0.00575557,0.0120862,2.25868,5,0.1,4,9.9,-3.69119,-0.542407,0.669702,0.00856556,0.361009,0.0234768,-0.00448525,-0.181224,-0.0120476,0.00624473,0.0668481,5,0.1,5,9.9,0.0479677,-0.105099,0.595952,0.705275,0.0350898,0.00947583,-0.381316,-0.0308589,-0.0083223,0.00851694,0.291593,5,0.1,6,9.9,4.2004,-5.31061,0.624983,0.00405163,-0.468395,0.000570714,0.00572205,0.26527,-0.000365078,0.00692327,0.152695,5,0.1,7,9.9,-0.176711,-0.538465,0.629747,0.00478863,-0.00526365,-0.000132434,0.00861287,-0.0096038,-0.000245869,0.00843096,4.66042e-05,5,0.1,8,9.9,-2.90339,0.921623,1.37779,0.0118379,-0.398391,0.00675377,0.330135,0.621822,-0.0699386,0.0086397,2.62638,5,0.1,9,9.9,-1.77981,-2.41273,0.505276,0.00242777,0.00890605,0.000374392,-0.00177324,-0.0038594,-0.00026077,0.00990042,1.99098e-05,5,0.1
0,10,-3.10023,-2.4588,1.34996,-0.00296831,-0.192988,4.17233e-05,-0.0208616,0.0714064,-0.000119209,0.0147232,1.07322,5,0.1,1,10,0.4966,-0.863697,0.600173,0.298229,-0.659919,-0.000159442,-0.0196695,0.196338,0.000149012,0.00996869,0.446221,5,0.1,2,10,-4.37043,0.0262995,1.0309,-0.105512,0.25281,0.0183553,0.0555515,-0.37553,-0.0219345,0.00833801,0.903069,5,0.1,3,10,-0.721153,4.3,0.577788,-0.858322,0.381708,-0.0301093,-0.154078,-0.263929,0.00199676,0.0108758,2.22072,5,0.1,4,10,-3.69036,-0.507224,0.67199,0.00811815,0.342216,0.0222534,-0.00500679,-0.206903,-0.0132322,0.00910651,0.0522168,5,0.1,5,10,0.116485,-0.101744,0.596858,0.663577,0.0319971,0.00864118,-0.469565,-0.0317842,-0.00855327,0.0139675,0.196489,5,0.1,6,10,4.20084,-5.3562,0.625038,0.00493526,-0.443709,0.000539422,0.0109673,0.250101,-0.000327826,0.00650865,0.0882327,5,0.1,7,10,-0.176201,-0.539027,0.629733,0.00529699,-0.0058338,-0.000146031,0.00178814,-0.00208616,-8.9407e-05,0.00787832,1.40134e-05,5,0.1,8,10,-2.9,0.885097,1.37814,0.0611842,-0.330499,0.000351667,0.634551,0.720024,-0.0571609,0.00971719,2.5112,5,0.1,9,10,-1.77958,-2.41187,0.505311,0.00217557,0.00822544,0.000335276,-0.00315905,-0.00929832,-0.000447035,0.00968709,1.02648e-05,5,0.1
0,10.1,-3.10071,-2.47792,1.34997,-0.00706576,-0.19071,3.1665e-05,-0.047639,-0.00920892,-7.45058e-05,0.0147232,1.07322,5,0.1,1,10.1,0.526321,-0.928856,0.600157,0.295869,-0.643991,-0.000146125,-0.0386052,0.151992,0.000122935,0.00996869,0.446221,5,0.1,2,10.1,-4.38072,0.049377,1.03263,-0.100472,0.206271,0.0164131,0.0490844,-0.524597,-0.0175312,0.00833801,0.903069,5,0.1,3,10.1,-0.807454,4.33767,0.574779,-0.865386,0.378285,-0.0301061,-0.0129305,0.136852,-0.000290573,0.0108758,2.22072,5,0.1,4,10.1,-3.68957,-0.473882,0.67416,0.00773035,0.325711,0.0212274,-0.00320375,-0.141144,-0.00851601,0.00910651,0.0522168,5,0.1,5,10.1,0.180627,-0.0986932,0.597682,0.620071,0.0290979,0.00786083,-0.421105,-0.0271471,-0.00731274,0.0139675,0.196489,5,0.1,6,10.1,4.2014,-5.39946,0.625091,0.00627115,-0.4225,0.000513904,0.0146329,0.193417,-0.000216067,0.00650865,0.0882327,5,0.1,7,10.1,-0.17567,-0.539611,0.629718,0.00523252,-0.00577318,-0.000147242,-0.00281353,0.00300631,5.58794e-05,0.00787832,1.40134e-05,5,0.1,8,10.1,-2.89092,0.855701,1.3779,0.118243,-0.257207,-0.00498611,0.504717,0.732761,-0.048615,0.00971719,2.5112,5,0.1,9,10.1,-1.77938,-2.4111,0.505342,0.00181422,0.00711381,0.000282098,-0.00394881,-0.0125468,-0.000592321,0.00968709,1.02648e-05,5,0.1
