id,t,px,py,pz,vx,vy,vz,ax,ay,az,planning_time,qp_cost,planning_report,size,id,t,px,py,pz,vx,vy,vz,ax,ay,az,planning_time,qp_cost,planning_report,size,id,t,px,py,pz,vx,vy,vz,ax,ay,az,planning_time,qp_cost,planning_report,size,id,t,px,py,pz,vx,vy,vz,ax,ay,az,planning_time,qp_cost,planning_report,size,id,t,px,py,pz,vx,vy,vz,ax,ay,az,planning_time,qp_cost,planning_report,size,id,t,px,py,pz,vx,vy,vz,ax,ay,az,planning_time,qp_cost,planning_report,size,id,t,px,py,pz,vx,vy,vz,ax,ay,az,planning_time,qp_cost,planning_report,size,id,t,px,py,pz,vx,vy,vz,ax,ay,az,planning_time,qp_cost,planning_report,size,id,t,px,py,pz,vx,vy,vz,ax,ay,az,planning_time,qp_cost,planning_report,size,id,t,px,py,pz,vx,vy,vz,ax,ay,az,planning_time,qp_cost,planning_report,size
0,0,2.39433,-2.26953,0.684583,0,0,0,0,0,0,0.0175848,1.6947,5,0.1,1,0,0.00968981,3.28033,0.557297,0,0,0,0,0,0,0.00844082,3.5122,5,0.1,2,0,3.20449,-2.51345,0.687303,0,0,0,0,0,0,0.0567221,2.13652,5,0.1,3,0,-1.68565,-2.84529,0.562947,0,0,0,0,0,0,0.0083405,0.587841,5,0.1,4,0,2.14814,-3.10231,0.55375,0,0,0,0,0,0,0.0325722,3.5122,5,0.1,5,0,2.91958,-3.67228,0.507496,0,0,0,0,0,0,0.00866878,0.733367,5,0.1,6,0,3.79068,-2.20489,0.502995,0,0,0,0,0,0,0.0110411,3.5122,5,0.1,7,0,4.62492,1.34272,0.629355,0,0,0,0,0,0,0.0154678,1.31622,5,0.1,8,0,-4.31806,-5.77742,0.545627,0,0,0,0,0,0,0.00807422,0.688873,5,0.1,9,0,-2.98214,5.18052,0.571297,0,0,0,0,0,0,0.016784,3.5122,5,0.1
0,0.1,2.39434,-2.26826,0.685277,0.000168011,0.0361394,0.0197191,0.00299513,0.642493,0.350557,0.0175848,1.6947,5,0.1,1,0.1,0.00954059,3.27825,0.557335,-0.00423597,-0.0591073,0.00107773,-0.0753061,-1.05079,0.0191629,0.00844082,3.5122,5,0.1,2,0.1,3.20287,-2.51333,0.687369,-0.0460658,0.00336133,0.0018579,-0.818953,0.0597686,0.0330321,0.0567221,2.13652,5,0.1,3,0.1,-1.6853,-2.84451,0.562985,0.0099469,0.0220861,0.00109794,0.176832,0.392631,0.0195242,0.0083405,0.587841,5,0.1,4,0.1,2.14792,-3.10023,0.553779,-0.00630729,0.0589263,0.000838097,-0.112131,1.04757,0.0148974,0.0325722,3.5122,5,0.1,5,0.1,2.92053,-3.6724,0.507532,0.0268485,-0.00339709,0.00103153,0.477329,-0.0603944,0.0183359,0.00866878,0.733367,5,0.1,6,0.1,3.78861,-2.20508,0.50297,-0.0590183,-0.00537373,-0.000727922,-1.04919,-0.0955313,-0.0129417,0.0110411,3.5122,5,0.1,7,0.1,4.62463,1.34148,0.629324,-0.00814497,-0.0353452,-0.000869948,-0.144839,-0.628367,-0.0154711,0.0154678,1.31622,5,0.1,8,0.1,-4.31747,-5.77671,0.545683,0.0168346,0.0200741,0.00161128,0.299305,0.356883,0.0286438,0.00807422,0.688873,5,0.1,9,0.1,-2.98028,5.17958,0.571316,0.0529006,-0.0267193,0.000536162,0.940442,-0.474989,0.00953302,0.016784,3.5122,5,0.1
0,0.2,2.39437,-2.26092,0.689283,0.000530481,0.11422,0.0623211,0.00393391,0.856638,0.467449,0.0204183,1.39041,5,0.1,1,0.2,0.00868015,3.26624,0.557554,-0.0133878,-0.186807,0.00340641,-0.100408,-1.40107,0.0255406,0.00665056,2.92579,5,0.1,2,0.2,3.19351,-2.51265,0.687746,-0.14559,0.0106275,0.00587255,-1.09196,0.0796318,0.044018,0.0757574,1.75291,5,0.1,3,0.2,-1.68328,-2.84002,0.563208,0.0314355,0.069803,0.00347048,0.235796,0.523448,0.0260174,0.0112603,0.482297,5,0.1,4,0.2,2.14663,-3.08826,0.55395,-0.0199318,0.186235,0.00264794,-0.149608,1.39678,0.0198781,0.0317136,2.92579,5,0.1,5,0.2,2.92598,-3.67309,0.507741,0.0848532,-0.0107348,0.00326037,0.636578,-0.0805855,0.0244379,0.0111537,0.601684,5,0.1,6,0.2,3.77662,-2.20617,0.502822,-0.186533,-0.0169814,-0.00229925,-1.3988,-0.127316,-0.0172853,0.0112558,3.08963,5,0.1,7,0.2,4.62298,1.3343,0.629148,-0.0257492,-0.111708,-0.00274926,-0.193119,-0.837803,-0.0206232,0.0142178,1.0799,5,0.1,8,0.2,-4.31405,-5.77263,0.546011,0.0532031,0.0634432,0.00509322,0.399113,0.475883,0.0381768,0.00763789,0.565183,5,0.1,9,0.2,-2.96953,5.17415,0.571425,0.167191,-0.0844598,0.00169426,1.25396,-0.633001,0.0127256,0.0135572,2.92581,5,0.1
0,0.3,2.39445,-2.24474,0.69811,0.000983104,0.212487,0.115942,0.00484288,1.04825,0.571985,0.0204183,1.39041,5,0.1,1,0.3,0.00678299,3.23977,0.558037,-0.0249356,-0.347942,0.00634389,-0.123399,-1.72187,0.031393,0.00665056,2.92579,5,0.1,2,0.3,3.17289,-2.51115,0.688578,-0.270849,0.0197645,0.0109226,-1.33617,0.0974983,0.0538789,0.0757574,1.75291,5,0.1,3,0.3,-1.67882,-2.83014,0.5637,0.0584828,0.129851,0.00645537,0.288524,0.640571,0.0318438,0.0112603,0.482297,5,0.1,4,0.3,2.14381,-3.06187,0.554325,-0.0371356,0.346876,0.00493368,-0.183806,1.7166,0.0244193,0.0317136,2.92579,5,0.1,5,0.3,2.938,-3.67461,0.508203,0.157871,-0.0199769,0.00606403,0.778869,-0.0985712,0.0299141,0.0111537,0.601684,5,0.1,6,0.3,3.75143,-2.20857,0.502517,-0.312015,-0.0316307,-0.00369139,-1.09117,-0.156581,-0.0106469,0.0112558,3.08963,5,0.1,7,0.3,4.61933,1.31848,0.628758,-0.0479028,-0.207814,-0.00511482,-0.236332,-1.02521,-0.0252351,0.0142178,1.0799,5,0.1,8,0.3,-4.30651,-5.76365,0.546732,0.0989839,0.118031,0.00947313,0.488341,0.582337,0.0467263,0.00763789,0.565183,5,0.1,9,0.3,-2.94584,5.16218,0.571665,0.311407,-0.157273,0.00315718,1.54108,-0.778139,0.0156313,0.0135572,2.92581,5,0.1
0,0.4,2.39457,-2.21835,0.712513,0.00144839,0.313371,0.170988,0.00429153,0.924706,0.504643,0.0189107,1.54486,5,0.1,1,0.4,0.0036829,3.19651,0.558826,-0.0368248,-0.513834,0.00936836,-0.109107,-1.52266,0.0277758,0.00936754,2.51508,5,0.1,2,0.4,3.13925,-2.50869,0.689935,-0.399446,0.0291467,0.0161082,-1.17874,0.0859499,0.0475347,0.0723461,1.38692,5,0.1,3,0.4,-1.67156,-2.81401,0.564502,0.0862509,0.191498,0.00952035,0.254512,0.565171,0.0280738,0.0073929,0.381601,5,0.1,4,0.4,2.13919,-3.01874,0.554938,-0.0548422,0.51226,0.00728518,-0.162482,1.51789,0.0216067,0.0348751,2.51446,5,0.1,5,0.4,2.95761,-3.67709,0.508956,0.232828,-0.0294626,0.00894219,0.687003,-0.0869036,0.0264049,0.0101092,0.476055,5,0.1,6,0.4,3.71542,-2.21251,0.502105,-0.401634,-0.0467181,-0.00444949,-0.689507,-0.138521,-0.00467896,0.0126429,3.13271,5,0.1,7,0.4,4.61338,1.29266,0.628123,-0.0706434,-0.306478,-0.00754297,-0.208378,-0.9045,-0.0222623,0.0138569,0.854428,5,0.1,8,0.4,-4.29422,-5.74899,0.547909,0.145984,0.174069,0.0139698,0.430584,0.513792,0.0412464,0.00728792,0.447177,5,0.1,9,0.4,-2.90713,5.14263,0.572057,0.459886,-0.232255,0.00466257,1.36256,-0.688076,0.0138283,0.0136625,2.5101,5,0.1
0,0.5,2.39474,-2.18341,0.732181,0.00188388,0.375757,0.222188,0.00421703,0.346839,0.494242,0.0189107,1.54486,5,0.1,1,0.5,-0.000560619,3.13753,0.559905,-0.0480522,-0.664009,0.0122262,-0.109668,-1.41244,0.0279173,0.00936754,2.51508,5,0.1,2,0.5,3.0933,-2.50534,0.691788,-0.519043,0.0378694,0.0209314,-1.1545,0.0842065,0.0465624,0.0723461,1.38692,5,0.1,3,0.5,-1.66164,-2.79198,0.565597,0.112074,0.24884,0.0123695,0.249274,0.553563,0.0275075,0.0073929,0.381601,5,0.1,4,0.5,2.13287,-2.95993,0.555778,-0.0715617,0.662367,0.00950815,-0.163302,1.41527,0.0217073,0.0348751,2.51446,5,0.1,5,0.5,2.98439,-3.68048,0.509985,0.302532,-0.03828,0.0116211,0.672892,-0.0851303,0.0258647,0.0101092,0.476055,5,0.1,6,0.5,3.67304,-2.21789,0.501648,-0.435071,-0.0609528,-0.00457997,-0.0348389,-0.138894,0.00165775,0.0126429,3.13271,5,0.1,7,0.5,4.60526,1.25741,0.627255,-0.0917867,-0.398248,-0.00980161,-0.204146,-0.885889,-0.0218004,0.0138569,0.854428,5,0.1,8,0.5,-4.27743,-5.72896,0.549516,0.189675,0.226196,0.0181546,0.421822,0.503212,0.0404008,0.00728792,0.447177,5,0.1,9,0.5,-2.85413,5.11587,0.572595,0.600098,-0.303067,0.00608508,1.36958,-0.691682,0.0138879,0.0136625,2.5101,5,0.1
0,0.6,2.39494,-2.14489,0.756685,0.00225902,0.387317,0.26556,0.00286102,-0.0936985,0.355542,0.0160226,3.33,5,0.1,1,0.6,-0.00587617,3.0647,0.561258,-0.0577724,-0.785035,0.0147,-0.0806499,-0.963449,0.020504,0.0122549,2.33227,5,0.1,2,0.6,3.03606,-2.50116,0.694096,-0.620359,0.0452638,0.0250176,-0.830531,0.0605583,0.0334978,0.0574056,1.03253,5,0.1,3,0.6,-1.64928,-2.76454,0.566961,0.13395,0.297415,0.0147834,0.17935,0.398278,0.0197887,0.00998793,0.284095,5,0.1,4,0.6,2.12496,-2.88724,0.55683,-0.0860333,0.783908,0.0114307,-0.120163,0.970602,0.0160038,0.0374351,2.32927,5,0.1,5,0.6,3.01776,-3.6847,0.511267,0.36158,-0.0457466,0.0138894,0.48399,-0.0612736,0.0186265,0.0113513,0.354411,5,0.1,6,0.6,3.63006,-2.22463,0.501206,-0.418317,-0.0732481,-0.00419319,0.327945,-0.102043,0.00569224,0.0133681,3.17834,5,0.1,7,0.6,4.59513,1.21349,0.626174,-0.109708,-0.475988,-0.0117153,-0.146627,-0.637352,-0.015676,0.0145046,0.636101,5,0.1,8,0.6,-4.25651,-5.70402,0.551518,0.226688,0.270355,0.0216991,0.303507,0.361919,0.0290573,0.00864443,0.468224,5,0.1,9,0.6,-2.78775,5.08234,0.573268,0.721484,-0.364375,0.00731647,1.00732,-0.508785,0.0101924,0.0127315,2.23812,5,0.1
0,0.7,2.39518,-2.10734,0.784976,0.00250489,0.357226,0.29935,0.00193715,-0.473142,0.301521,0.0160226,3.33,5,0.1,1,0.7,-0.012062,2.98244,0.562832,-0.065866,-0.850207,0.016758,-0.076122,-0.366569,0.0193566,0.0122549,2.33227,5,0.1,2,0.7,2.96994,-2.49634,0.696762,-0.700094,0.0510793,0.0282337,-0.718579,0.0524372,0.0289865,0.0574056,1.03253,5,0.1,3,0.7,-1.635,-2.73284,0.568536,0.151168,0.335651,0.0166835,0.155158,0.344589,0.0171289,0.00998793,0.284095,5,0.1,4,0.7,2.11574,-2.80505,0.558054,-0.0980902,0.849819,0.0130356,-0.113383,0.373229,0.0150837,0.0374351,2.32927,5,0.1,5,0.7,3.05629,-3.68957,0.512747,0.408045,-0.0516288,0.0156771,0.418752,-0.0530183,0.0161082,0.0113513,0.354411,5,0.1,6,0.7,3.59057,-2.23247,0.500819,-0.367051,-0.0833221,-0.00350047,0.605747,-0.0933409,0.00786781,0.0133681,3.17834,5,0.1,7,0.7,4.58344,1.16276,0.624926,-0.12379,-0.537175,-0.0132203,-0.126958,-0.551425,-0.0135601,0.0145046,0.636101,5,0.1,8,0.7,-4.23235,-5.67505,0.553831,0.255827,0.309546,0.0244887,0.262588,0.392169,0.025142,0.00864443,0.468224,5,0.1,9,0.7,-2.71104,5.04333,0.574051,0.807105,-0.415449,0.00833981,0.677958,-0.480473,0.00962615,0.0127315,2.23812,5,0.1
0,0.8,2.39544,-2.07437,0.816203,0.00263453,0.299007,0.322726,0.000476837,-0.663161,0.153422,0.0166174,3.53967,5,0.1,1,0.8,-0.0189875,2.89632,0.564594,-0.0721334,-0.866026,0.0183523,-0.0456935,0,0.0115931,0.00988281,2.26765,5,0.1,2,0.8,2.89683,-2.491,0.699711,-0.756437,0.0551879,0.0305071,-0.377178,0.0276566,0.0151992,0.0654507,0.729027,5,0.1,3,0.8,-1.61922,-2.69778,0.570279,0.163335,0.362664,0.0180274,0.0814199,0.181079,0.0089705,0.00906908,0.200586,5,0.1,4,0.8,2.10543,-2.71895,0.559425,-0.107425,0.866026,0.0142768,-0.0680685,0,0.00905991,0.034088,2.35333,5,0.1,5,0.8,3.0989,-3.69497,0.514385,0.440878,-0.055784,0.0169396,0.219941,-0.0277758,0.00846386,0.013377,0.250236,5,0.1,6,0.8,3.55678,-2.24121,0.50051,-0.31113,-0.0908911,-0.00267327,0.464797,-0.0537634,0.00846386,0.0104696,2.91453,5,0.1,7,0.8,4.57052,1.10666,0.623545,-0.133741,-0.580406,-0.0142843,-0.0667572,-0.289559,-0.00712276,0.0105334,0.449122,5,0.1,8,0.8,-4.20563,-5.64228,0.556388,0.276423,0.343692,0.0264585,0.137806,0.26989,0.0132322,0.00926576,0.34484,5,0.1,9,0.8,-2.62764,4.99964,0.574928,0.853688,-0.455022,0.00913292,0.246763,-0.288486,0.00578165,0.0102414,2.12954,5,0.1
0,0.9,2.39571,-2.0481,0.849234,0.00266917,0.224419,0.337358,0.000104308,-0.784561,0.122223,0.0166174,3.53967,5,0.1,1,0.9,-0.0264382,2.80971,0.566489,-0.0768463,-0.866026,0.0195487,-0.0437267,0,0.0111051,0.00988281,2.26765,5,0.1,2,0.9,2.81939,-2.48535,0.702834,-0.790617,0.0576932,0.0318849,-0.270188,0.0198036,0.0108965,0.0654507,0.729027,5,0.1,3,0.9,-1.60249,-2.66065,0.572124,0.170713,0.379071,0.0188406,0.0583231,0.1297,0.00643358,0.00906908,0.200586,5,0.1,4,0.9,2.09433,-2.633,0.560899,-0.114445,0.847482,0.0152105,-0.0651032,-0.331074,0.0086613,0.034088,2.35333,5,0.1,5,0.9,3.14404,-3.70068,0.516119,0.460808,-0.0583008,0.0177065,0.15755,-0.019908,0.00605732,0.013377,0.250236,5,0.1,6,0.9,3.52774,-2.25056,0.500284,-0.275183,-0.0959273,-0.00184979,0.149921,-0.0421554,0.00783801,0.0104696,2.91453,5,0.1,7,0.9,4.55682,1.04724,0.622083,-0.139792,-0.606644,-0.0149297,-0.0478327,-0.207402,-0.00510365,0.0105334,0.449122,5,0.1,8,0.9,-4.17733,-5.60665,0.559097,0.288912,0.367582,0.0276572,0.0987351,0.191569,0.00947341,0.00926576,0.34484,5,0.1,9,0.9,-2.54152,4.95264,0.575871,0.865255,-0.484883,0.00973148,0.0308454,-0.277966,0.00556931,0.0102414,2.12954,5,0.1
0,1,2.39597,-2.0295,0.883416,0.00264049,0.149381,0.34433,-0.000834465,-0.687242,0.00569224,0.0146349,3.62169,5,0.1,1,1,-0.0343058,2.72311,0.56849,-0.080061,-0.866026,0.0203654,-0.0172296,0,0.00438094,0.00780479,2.26724,5,0.1,2,1,2.73939,-2.47952,0.70606,-0.804454,0.0587165,0.0324428,0.0172853,-0.0013113,-0.000715256,0.0504835,0.495778,5,0.1,3,1,-1.58522,-2.6223,0.574031,0.1737,0.385714,0.0191703,-0.00375509,-0.00822544,-0.000417233,0.00900958,0.195324,5,0.1,4,1,2.08262,-2.55021,0.562457,-0.119233,0.805783,0.0158459,-0.02563,-0.483155,0.00342727,0.0291278,2.47789,5,0.1,5,1,3.19067,-3.70658,0.51791,0.46888,-0.0593185,0.018017,-0.0101328,0.0013113,-0.00038743,0.00894749,0.17017,5,0.1,6,1,3.5,-2.26031,0.500137,-0.288928,-0.0985146,-0.00113249,-0.398517,-0.0064373,0.0064075,0.0129136,2.49664,5,0.1,7,1,4.54268,0.985857,0.620572,-0.142252,-0.617266,-0.0151917,0.00309944,0.0132918,0.000327826,0.0119041,0.305418,5,0.1,8,1,-4.1481,-5.56917,0.561895,0.29397,0.379312,0.0281423,-0.0064373,0.0326633,-0.000596046,0.00778683,0.291525,5,0.1,9,1,-2.45493,4.90298,0.576868,0.866026,-0.505424,0.0101432,0,-0.111341,0.00220537,0.0106442,2.10563,5,0.1
0,1.1,2.39623,-2.01793,0.917901,0.00256188,0.0841238,0.345199,-0.000849366,-0.555634,-0.00369921,0.0146349,3.62169,5,0.1,1,1.1,-0.0424138,2.63651,0.570553,-0.0821366,-0.866026,0.0208933,-0.0195629,0,0.00497699,0.00780479,2.26724,5,0.1,2,1.1,2.65907,-2.47365,0.7093,-0.800936,0.0584561,0.0322998,0.0825077,-0.00606477,-0.00333786,0.0504835,0.495778,5,0.1,3,1.1,-1.56772,-2.58379,0.575945,0.177383,0.38403,0.0190862,0.0611842,-0.0395477,-0.00196323,0.00900958,0.195324,5,0.1,4,1.1,2.07054,-2.47252,0.564061,-0.12231,0.747208,0.0162561,-0.0288934,-0.551,0.00384822,0.0291278,2.47789,5,0.1,5,1.1,3.23748,-3.7125,0.519709,0.466824,-0.0590559,0.0179379,-0.0481606,0.00612438,-0.00185147,0.00894749,0.17017,5,0.1,6,1.1,3.4679,-2.27019,0.500052,-0.362676,-0.0989415,-0.000585057,-0.976086,0.00178814,0.00452995,0.0129136,2.49664,5,0.1,7,1.1,4.52848,0.924223,0.619055,-0.141629,-0.614562,-0.0151251,0.0145733,0.063356,0.0015609,0.0119041,0.305418,5,0.1,8,1.1,-4.11875,-5.53166,0.564705,0.292675,0.3657,0.0280197,-0.0302196,-0.284493,-0.0028871,0.00778683,0.291525,5,0.1,9,1.1,-2.36833,4.85178,0.577895,0.866026,-0.519041,0.010414,0,-0.130564,0.00260025,0.0106442,2.10563,5,0.1
0,1.2,2.39648,-2.01171,0.952284,0.00244975,0.0469387,0.341009,-0.00119209,-0.163317,-0.0905395,0.0147354,3.51614,5,0.1,1,1.2,-0.0506975,2.54991,0.57266,-0.0831741,-0.866026,0.0211582,0.00209004,0,-0.000536442,0.00673414,2.26719,5,0.1,2,1.2,2.57969,-2.46786,0.712501,-0.783068,0.0571489,0.0315785,0.29397,-0.0214577,-0.0118613,0.0456796,0.329667,5,0.1,3,1.2,-1.54968,-2.54573,0.577836,0.183129,0.375468,0.0186607,0.0418425,-0.141025,-0.00700355,0.0109377,0.137375,5,0.1,4,1.2,2.05821,-2.4,0.565701,-0.123829,0.708848,0.0164568,0.00345707,-0.220656,-0.000417233,0.0276134,2.49095,5,0.1,5,1.2,3.28375,-3.71835,0.521487,0.456411,-0.057739,0.0175372,-0.171542,0.0216961,-0.00658631,0.0108313,0.113154,5,0.1,6,1.2,3.42648,-2.28004,0.500013,-0.46652,-0.0975132,-0.000225008,-1.02472,0.0294447,0.00265241,0.0127848,1.99966,5,0.1,7,1.2,4.51444,0.863317,0.617556,-0.138462,-0.600851,-0.0147879,0.0517368,0.225693,0.00557303,0.0116554,0.203085,5,0.1,8,1.2,-4.08974,-5.4969,0.567482,0.286138,0.326228,0.0273943,-0.107527,-0.487328,-0.0102818,0.00642301,0.14217,5,0.1,9,1.2,-2.28172,4.79939,0.578946,0.866026,-0.526369,0.010559,0,0.00500679,-8.9407e-05,0.0108552,2.10103,5,0.1
0,1.3,2.39659,-2.00708,0.985977,-0.00139624,0.052733,0.332936,-0.0675023,0.25934,-0.0845827,0.0147354,3.51614,5,0.1,1,1.3,-0.0590264,2.4633,0.574779,-0.0835043,-0.866026,0.021242,-0.00405151,0,0.00103563,0.00673414,2.26719,5,0.1,2,1.3,2.50282,-2.46225,0.7156,-0.754004,0.0550281,0.0304062,0.311628,-0.0227243,-0.0125691,0.0456796,0.329667,5,0.1,3,1.3,-1.53109,-2.50887,0.579668,0.188936,0.361525,0.0179686,0.0616089,-0.149474,-0.00742078,0.0109377,0.137375,5,0.1,4,1.3,2.04581,-2.3296,0.567348,-0.124225,0.703852,0.0165124,-0.00463426,0.0640899,0.000629574,0.0276134,2.49095,5,0.1,5,1.3,3.32855,-3.72402,0.523209,0.439454,-0.0555951,0.0168858,-0.181764,0.0229925,-0.00698864,0.0108313,0.113154,5,0.1,6,1.3,3.37428,-2.28965,0.500001,-0.579661,-0.0945807,-3.25963e-05,-1.16168,0.0323951,0.00127405,0.0127848,1.99966,5,0.1,7,1.3,4.50085,0.804336,0.616105,-0.133342,-0.578539,-0.0142372,0.0549257,0.239212,0.00589713,0.0116554,0.203085,5,0.1,8,1.3,-4.06166,-5.46694,0.570171,0.27551,0.271133,0.0263775,-0.113934,-0.598222,-0.0109002,0.00642301,0.14217,5,0.1,9,1.3,-2.19512,4.74663,0.580005,0.866026,-0.529613,0.0106249,0,-0.0395179,0.000797212,0.0108552,2.10103,5,0.1
0,1.4,2.39606,-2,1.01877,-0.00959039,0.0930876,0.321797,-0.090003,0.510454,-0.147521,0.0171152,3.43841,5,0.1,1,1.4,-0.0673762,2.3767,0.576903,-0.0831956,-0.866026,0.0211626,0.0134744,0,-0.00339746,0.00651386,2.26735,5,0.1,2,1.4,2.42917,-2.45688,0.718571,-0.716698,0.0523031,0.0289023,0.450611,-0.0327826,-0.0181794,0.0473308,0.216988,5,0.1,3,1.4,-1.51194,-2.47355,0.581423,0.193289,0.343633,0.0170797,0.0163913,-0.216126,-0.0107288,0.0099802,0.162443,5,0.1,4,1.4,2.0334,-2.25881,0.568998,-0.123608,0.711739,0.0164315,0.0218153,0.0510216,-0.00292063,0.0219779,2.60112,5,0.1,5,1.4,3.37148,-3.72945,0.524858,0.417703,-0.0528395,0.01605,-0.262737,0.0331402,-0.0100732,0.0137774,0.126851,5,0.1,6,1.4,3.3108,-2.29892,0.500003,-0.685704,-0.0904977,4.47035e-05,-0.904083,0.0511408,0.000357628,0.0129931,1.52621,5,0.1,7,1.4,4.48782,0.747824,0.614714,-0.126755,-0.549906,-0.0135317,0.0793934,0.345826,0.00849366,0.00856281,0.174779,5,0.1,8,1.4,-4.03474,-5.44288,0.572748,0.261879,0.209522,0.0250712,-0.164747,-0.621557,-0.0157356,0.00892945,0.236108,5,0.1,9,1.4,-2.10852,4.6936,0.581069,0.866026,-0.529099,0.0106156,0,0.0710487,-0.00143051,0.00938929,2.10354,5,0.1
0,1.5,2.39473,-1.98848,1.05027,-0.016148,0.134291,0.308571,-0.0432879,0.328511,-0.129208,0.0171152,3.43841,5,0.1,1,1.5,-0.0756545,2.2901,0.579009,-0.0825156,-0.866026,0.0209923,0.00468781,0,-0.00117347,0.00651386,2.26735,5,0.1,2,1.5,2.35967,-2.4518,0.721373,-0.673715,0.0491749,0.0271684,0.429422,-0.0312775,-0.0173151,0.0473308,0.216988,5,0.1,3,1.5,-1.49233,-2.44005,0.583089,0.20051,0.328131,0.0163109,0.106759,-0.115216,-0.00571087,0.0099802,0.162443,5,0.1,4,1.5,2.02111,-2.18823,0.570632,-0.122318,0.693193,0.0162578,0.0104904,-0.356629,-0.00141189,0.0219779,2.60112,5,0.1,5,1.5,3.4122,-3.7346,0.526423,0.398861,-0.0504632,0.0153275,-0.140026,0.0176579,-0.00537187,0.0137774,0.126851,5,0.1,6,1.5,3.23774,-2.30772,0.500008,-0.773861,-0.0856031,5.89527e-05,-0.805646,0.0494272,-4.09782e-05,0.0129931,1.52621,5,0.1,7,1.5,4.47537,0.694496,0.613402,-0.123622,-0.516919,-0.0127213,-0.00324845,0.329539,0.00809878,0.00856281,0.174779,5,0.1,8,1.5,-4.00921,-5.42499,0.575193,0.250066,0.149132,0.0239424,-0.0877827,-0.576556,-0.00838935,0.00892945,0.236108,5,0.1,9,1.5,-2.02192,4.64087,0.582127,0.866026,-0.526588,0.0105646,0,0.00944734,-0.00018999,0.00938929,2.10354,5,0.1
0,1.6,2.39297,-1.97362,1.08043,-0.0186503,0.161177,0.293893,-0.00858307,0.218332,-0.172853,0.0160418,3.38093,5,0.1,1,1.6,-0.0838666,2.2035,0.581098,-0.0814812,-0.866026,0.0207305,0.0192113,0,-0.00485778,0.0109638,2.26761,5,0.1,2,1.6,2.29454,-2.44705,0.724,-0.627416,0.0458002,0.0253007,0.510335,-0.0371933,-0.0205338,0.0436096,0.142618,5,0.1,3,1.6,-1.47174,-2.40779,0.584692,0.210953,0.316912,0.0157535,0.0864267,-0.124693,-0.00613928,0.00751007,0.0973484,5,0.1,4,1.6,2.00896,-2.12096,0.572247,-0.120407,0.650465,0.0160009,0.0323057,-0.46277,-0.00429153,0.0251436,2.75467,5,0.1,5,1.6,3.45142,-3.73956,0.52793,0.385225,-0.0487447,0.0148043,-0.151396,0.0191927,-0.00584126,0.00979738,0.0735023,5,0.1,6,1.6,3.15684,-2.31602,0.500014,-0.837982,-0.0801682,4.47035e-05,-0.44179,0.0610352,-0.000268221,0.0130299,1.12853,5,0.1,7,1.6,4.46295,0.644528,0.612172,-0.125051,-0.481389,-0.0118479,-0.0152588,0.391543,0.00962615,0.00887987,0.120365,5,0.1,8,1.6,-3.98462,-5.41282,0.577547,0.241518,0.0958323,0.0231251,-0.0948906,-0.483513,-0.00908971,0.008657,0.214011,5,0.1,9,1.6,-1.93531,4.58836,0.58318,0.866026,-0.522065,0.010474,-5.96046e-05,0.102758,-0.00208616,0.0101115,2.03626,5,0.1
0,1.7,2.3911,-1.95691,1.10903,-0.0183452,0.169624,0.278491,0.0131577,0.0188127,-0.146218,0.0160418,3.38093,5,0.1,1,1.7,-0.091947,2.11689,0.583154,-0.0802961,-0.866026,0.0204313,0.00894861,0,-0.00226125,0.0109638,2.26761,5,0.1,2,1.7,2.23423,-2.44265,0.726432,-0.579576,0.0423122,0.0233754,0.463605,-0.0338107,-0.0186674,0.0436096,0.142618,5,0.1,3,1.7,-1.45017,-2.37665,0.586241,0.220469,0.306403,0.0152361,0.0901371,-0.0993311,-0.00489503,0.00751007,0.0973484,5,0.1,4,1.7,1.99704,-2.0585,0.573831,-0.118145,0.597121,0.0157,0.0191331,-0.559047,-0.0025481,0.0251436,2.75467,5,0.1,5,1.7,3.48928,-3.74435,0.529385,0.372467,-0.0471268,0.014312,-0.120595,0.0152737,-0.00464916,0.00979738,0.0735023,5,0.1,6,1.7,3.07152,-2.32374,0.500017,-0.862585,-0.0744313,1.84402e-05,-0.0919104,0.055939,-0.00025332,0.0130299,1.12853,5,0.1,7,1.7,4.45028,0.598254,0.611033,-0.128686,-0.444685,-0.0109456,-0.0469685,0.355706,0.00875071,0.00887987,0.120365,5,0.1,8,1.7,-3.96089,-5.40545,0.579819,0.233524,0.0535242,0.0223585,-0.0755489,-0.36034,-0.00724569,0.008657,0.214011,5,0.1,9,1.7,-1.84871,4.53648,0.584221,0.866022,-0.516487,0.0103603,-9.68575e-05,0.037998,-0.000778586,0.0101115,2.03626,5,0.1
0,1.8,2.38935,-1.93977,1.13611,-0.0163019,0.174969,0.262782,0.0265837,0.120103,-0.175595,0.0147471,3.31477,5,0.1,1,1.8,-0.0999189,2.03029,0.585182,-0.0789313,-0.866026,0.0200868,0.0214987,0,-0.00548363,0.00871374,2.29593,5,0.1,2,1.8,2.17863,-2.43859,0.728675,-0.531811,0.0388265,0.0214517,0.503421,-0.0367165,-0.0202656,0.0474183,0.0941056,5,0.1,3,1.8,-1.42776,-2.34655,0.587737,0.22665,0.294697,0.0146568,0.0238419,-0.144362,-0.00712276,0.0073731,0.160269,5,0.1,4,1.8,1.98534,-2.00147,0.575385,-0.115526,0.545079,0.0153512,0.0376105,-0.462651,-0.00503659,0.0225778,2.83069,5,0.1,5,1.8,3.52586,-3.74898,0.53079,0.358248,-0.0453234,0.0137627,-0.175357,0.0221729,-0.00670552,0.00999039,0.0557563,5,0.1,6,1.8,2.98512,-2.3309,0.500017,-0.862837,-0.0686049,-4.47035e-06,0.063777,0.0619888,-0.000208616,0.0118122,0.81255,5,0.1,7,1.8,4.4372,0.555592,0.609983,-0.132644,-0.408037,-0.0100434,-0.025034,0.386208,0.00947714,0.0100956,0.142409,5,0.1,8,1.8,-3.93795,-5.40169,0.582015,0.224614,0.0239372,0.0215039,-0.109911,-0.23222,-0.01055,0.0073865,0.368922,5,0.1,9,1.8,-1.76211,4.48511,0.585251,0.865981,-0.509489,0.0102177,-0.000953674,0.122547,-0.00244379,0.0134928,1.55204,5,0.1
0,1.9,2.38787,-1.92142,1.16159,-0.0132382,0.194125,0.247245,0.033617,0.246316,-0.145063,0.0147471,3.31477,5,0.1,1,1.9,-0.107733,1.9437,0.587171,-0.0775388,-0.8654,0.0197312,0.0106739,0.0250414,-0.00272691,0.00871374,2.29593,5,0.1,2,1.9,2.12783,-2.43488,0.730724,-0.485172,0.0354238,0.0195738,0.443801,-0.0323951,-0.0178814,0.0474183,0.0941056,5,0.1,3,1.9,-1.40509,-2.31778,0.589168,0.225497,0.280658,0.0139629,-0.0496507,-0.145197,-0.00718608,0.0073731,0.160269,5,0.1,4,1.9,1.97394,-1.94932,0.5769,-0.112712,0.500746,0.0149737,0.0244379,-0.307418,-0.00327453,0.0225778,2.83069,5,0.1,5,1.9,3.56093,-3.75342,0.532138,0.343955,-0.0435159,0.0132159,-0.128061,0.0162125,-0.00490621,0.00999039,0.0557563,5,0.1,6,1.9,2.89899,-2.33747,0.500016,-0.860449,-0.0628471,-2.08616e-05,0.0272244,0.0550449,-0.000119209,0.0118122,0.81255,5,0.1,7,1.9,4.42364,0.516424,0.609019,-0.139874,-0.377695,-0.00929879,-0.10252,0.244003,0.00598654,0.0100956,0.142409,5,0.1,8,1.9,-3.9161,-5.40032,0.584108,0.211935,0.0049524,0.0202877,-0.145853,-0.146002,-0.0139885,0.0073865,0.368922,5,0.1,9,1.9,-1.67552,4.43467,0.586263,0.865747,-0.499834,0.0100255,-0.00954419,0.0938773,-0.0018701,0.0134928,1.55204,5,0.1
0,2,2.38672,-1.90069,1.18557,-0.0097692,0.221053,0.23208,0.0349283,0.277042,-0.165224,0.0176377,3.2623,5,0.1,1,2,-0.115423,1.85749,0.589128,-0.0760581,-0.856009,0.0193536,0.0219904,0.200391,-0.00560284,0.0113737,2.41785,5,0.1,2,2,2.08153,-2.4315,0.732592,-0.440598,0.0321686,0.0177786,0.457525,-0.0332594,-0.0184774,0.0457186,0.116138,5,0.1,3,2,-1.38293,-2.2905,0.590526,0.216344,0.264198,0.0131458,-0.134349,-0.189662,-0.00938773,0.00771013,0.142197,5,0.1,4,2,1.96281,-1.9,0.578379,-0.109658,0.493404,0.0145659,0.0407696,0.142038,-0.00545382,0.0221254,2.693,5,0.1,5,2,3.59465,-3.75769,0.533433,0.329661,-0.0417054,0.0126675,-0.169873,0.0213385,-0.00652671,0.0101695,0.024855,5,0.1,6,2,2.81331,-2.34348,0.500014,-0.850075,-0.0572801,-2.98023e-05,0.210166,0.0576973,-2.98023e-05,0.0126793,0.572159,5,0.1,7,2,4.40912,0.479797,0.608117,-0.15018,-0.35518,-0.00874549,-0.0913143,0.223488,0.00548363,0.00852528,0.0847305,5,0.1,8,2,-3.8957,-5.4004,0.58606,0.195128,-0.00517368,0.0186771,-0.191212,-0.0567436,-0.0183284,0.00905391,1.76482,5,0.1,9,2,-1.58907,4.38526,0.587254,0.861976,-0.486755,0.00976324,-0.0808835,0.183582,-0.00366569,0.0101858,1.15003,5,0.1
0,2.1,2.38592,-1.87767,1.20803,-0.00625402,0.236092,0.21755,0.0346005,0.0823066,-0.134267,0.0176377,3.2623,5,0.1,1,2.1,-0.122943,1.77396,0.591041,-0.0744861,-0.805038,0.0189528,0.0133468,0.765845,-0.00340492,0.0113737,2.41785,5,0.1,2,2.1,2.03973,-2.42842,0.734291,-0.395631,0.0295356,0.0163161,0.445217,-0.0212193,-0.0117905,0.0457186,0.116138,5,0.1,3,2.1,-1.36219,-2.26502,0.591794,0.196203,0.245384,0.0122133,-0.258602,-0.192061,-0.00953302,0.00771013,0.142197,5,0.1,4,2.1,1.95203,-1.8487,0.579813,-0.10605,0.542511,0.014137,0.0357479,0.737131,-0.00382587,0.0221254,2.693,5,0.1,5,2.1,3.62677,-3.76175,0.534668,0.312696,-0.0395708,0.0120154,-0.178486,0.0225008,-0.00686198,0.0101695,0.024855,5,0.1,6,2.1,2.72923,-2.34893,0.500011,-0.831646,-0.0519715,-3.05474e-05,0.193268,0.0500679,1.49012e-05,0.0126793,0.572159,5,0.1,7,2.1,4.39362,0.445271,0.607267,-0.15989,-0.336184,-0.00827909,-0.0921786,0.171827,0.00422448,0.00852528,0.0847305,5,0.1,8,2.1,-3.87714,-5.40135,0.587836,0.176074,-0.0140071,0.0168513,-0.192076,-0.0720024,-0.0184067,0.00905391,1.76482,5,0.1,9,2.1,-1.50299,4.33742,0.588214,0.861362,-0.470323,0.00943495,0.0182092,0.164002,-0.00327453,0.0101858,1.15003,5,0.1
0,2.2,2.38546,-1.85362,1.22911,-0.00298023,0.246021,0.203708,0.0303984,0.142813,-0.148773,0.0200563,3.12777,5,0.1,1,2.2,-0.130313,1.69787,0.592917,-0.0727251,-0.712192,0.0185058,0.0246093,1.05065,-0.00631809,0.00885077,2.23996,5,0.1,2,2.2,2.00239,-2.42557,0.735868,-0.350967,0.027597,0.0152424,0.450313,-0.0187159,-0.010401,0.0427205,0.258549,5,0.1,3,2.2,-1.344,-2.24148,0.592966,0.166446,0.224894,0.0111952,-0.328124,-0.221133,-0.0109971,0.0115212,0.197856,5,0.1,4,2.2,1.94162,-1.79048,0.581205,-0.101772,0.622776,0.0136837,0.0527501,0.790536,-0.00578165,0.0226332,1.88773,5,0.1,5,2.2,3.65707,-3.76559,0.535832,0.292486,-0.0370204,0.0112385,-0.231624,0.0293255,-0.00891089,0.00993406,0.0146496,5,0.1,6,2.2,2.64724,-2.35388,0.500008,-0.805551,-0.0469983,-2.83122e-05,0.352383,0.0504255,5.96046e-05,0.0128742,0.393691,5,0.1,7,2.2,4.37724,0.412529,0.60646,-0.16681,-0.31819,-0.00783652,-0.0388622,0.198886,0.00491738,0.00794526,0.0819458,5,0.1,8,2.2,-3.86051,-5.40285,0.589428,0.156361,-0.0127196,0.0149637,-0.20349,0.118256,-0.0195205,0.00759095,1.94114,5,0.1,9,2.2,-1.41693,4.29131,0.589139,0.857025,-0.450778,0.00904351,-0.140548,0.240326,-0.00479817,0.00938667,0.821901,5,0.1
0,2.3,2.38531,-1.82835,1.2488,-6.81728e-05,0.261986,0.190699,0.0272542,0.286177,-0.119358,0.0200563,3.12777,5,0.1,1,2.3,-0.137478,1.63244,0.594739,-0.0706489,-0.593188,0.0179728,0.0200476,1.2438,-0.0051409,0.00885077,2.23996,5,0.1,2,2.3,1.96978,-2.42289,0.737346,-0.299921,0.0260144,0.014364,0.5356,-0.0141561,-0.00784546,0.0427205,0.258549,5,0.1,3,2.3,-1.32906,-2.22005,0.594033,0.132103,0.20424,0.0101672,-0.351794,-0.197887,-0.00985339,0.0115212,0.197856,5,0.1,4,2.3,1.93183,-1.72387,0.582548,-0.0930239,0.711251,0.0132008,0.117093,0.906251,-0.00448525,0.0226332,1.88773,5,0.1,5,2.3,3.68518,-3.76914,0.536912,0.269729,-0.0341393,0.0103627,-0.230551,0.0292063,-0.00886992,0.00993406,0.0146496,5,0.1,6,2.3,2.56833,-2.35834,0.500005,-0.772939,-0.0423927,-2.23517e-05,0.328347,0.0430197,5.96046e-05,0.0128742,0.393691,5,0.1,7,2.3,4.3605,0.381568,0.605698,-0.166503,-0.301978,-0.00743531,0.0491142,0.141323,0.00349432,0.00794526,0.0819458,5,0.1,8,2.3,-3.84598,-5.40331,0.590759,0.13356,0.00771657,0.0110852,-0.247136,0.365108,-0.0537708,0.00759095,1.94114,5,0.1,9,2.3,-1.33177,4.24735,0.590021,0.846837,-0.428645,0.00860132,-0.103466,0.217855,-0.00435859,0.00938667,0.821901,5,0.1
0,2.4,2.38543,-1.8,1.26727,0.00237823,0.31189,0.178477,0.0212193,0.688612,-0.130653,0.016476,2.84206,5,0.1,1,2.4,-0.144429,1.57912,0.596508,-0.0681855,-0.476584,0.0173435,0.0313893,1.04254,-0.00798702,0.00829779,2.05116,5,0.1,2,2.4,1.94239,-2.42036,0.738743,-0.249186,0.0245571,0.0135586,0.460684,-0.0157356,-0.00873208,0.0424245,0.215269,5,0.1,3,2.4,-1.3176,-2.20061,0.595,0.0973284,0.184321,0.00917464,-0.338256,-0.204444,-0.0101924,0.00969424,0.192656,5,0.1,4,2.4,1.92318,-1.64851,0.583844,-0.079298,0.791556,0.0126854,0.153184,0.647783,-0.00625849,0.0202508,0.234744,5,0.1,5,2.4,3.71096,-3.77241,0.537902,0.245255,-0.0310361,0.009422,-0.263095,0.0332594,-0.0101328,0.00861547,0.00455831,5,0.1,6,2.4,2.49283,-2.36237,0.500003,-0.735098,-0.0381649,-1.63913e-05,0.447989,0.0423193,5.96046e-05,0.0118382,0.267291,5,0.1,7,2.4,4.34427,0.352089,0.604972,-0.156474,-0.287208,-0.0070706,0.151873,0.165313,0.00411272,0.0109532,0.146321,5,0.1,8,2.4,-3.83389,-5.4,0.591571,0.10792,0.065279,0.00497252,-0.261188,0.761032,-0.0651479,0.0069381,1.68224,5,0.1,9,2.4,-1.24781,4.20564,0.590858,0.829527,-0.404608,0.00812113,-0.270545,0.273943,-0.00551343,0.00931048,0.572065,5,0.1
0,2.5,2.38577,-1.76425,1.28451,0.00432432,0.411566,0.166673,0.0173151,1.20106,-0.111565,0.016476,2.84206,5,0.1,1,2.5,-0.151103,1.53629,0.598205,-0.0653529,-0.386376,0.0166228,0.0278112,0.670612,-0.0070706,0.00829779,2.05116,5,0.1,2,2.5,1.91964,-2.41798,0.740058,-0.208217,0.0230931,0.0127479,0.31852,-0.0143349,-0.00791624,0.0424245,0.215269,5,0.1,3,2.5,-1.3095,-2.18318,0.595868,0.0652179,0.164557,0.00818921,-0.298679,-0.193715,-0.00965968,0.00969424,0.192656,5,0.1,4,2.5,1.91605,-1.56697,0.585084,-0.0630785,0.830716,0.0121295,0.167623,0.138052,-0.00534952,0.0202508,0.234744,5,0.1,5,2.5,3.73417,-3.77534,0.538794,0.218797,-0.0276897,0.00840342,-0.268236,0.0339299,-0.0103228,0.00861547,0.00455831,5,0.1,6,2.5,2.42148,-2.36599,0.500002,-0.692145,-0.0341993,-1.09896e-05,0.431776,0.037834,4.47035e-05,0.0118382,0.267291,5,0.1,7,2.5,4.32955,0.324226,0.604286,-0.13615,-0.269626,-0.00663418,0.251591,0.190854,0.00472367,0.0109532,0.146321,5,0.1,8,2.5,-3.82441,-5.38879,0.59172,0.0818733,0.165661,-0.002125,-0.256047,1.16539,-0.0736229,0.0069381,1.68224,5,0.1,9,2.5,-1.16609,4.16647,0.591644,0.805296,-0.379274,0.00761133,-0.246651,0.245601,-0.00493973,0.00931048,0.572065,5,0.1
0,2.6,2.38628,-1.71695,1.30061,0.00577569,0.533935,0.155127,0.0115633,1.16849,-0.12368,0.0178924,2.50185,5,0.1,1,2.6,-0.157488,1.5,0.599829,-0.0621933,-0.349298,0.0158191,0.0371188,0.0934601,-0.00941753,0.00692963,1.7463,5,0.1,2,2.6,1.9,-2.41574,0.741291,-0.188565,0.021559,0.0119016,0.0837445,-0.0168085,-0.00929832,0.0448606,0.158296,5,0.1,3,2.6,-1.30437,-2.16769,0.596639,0.0384241,0.145108,0.00721961,-0.234246,-0.197291,-0.00986457,0.00927742,0.190094,5,0.1,4,2.6,1.91058,-1.48403,0.586269,-0.0464141,0.82013,0.0115335,0.162899,-0.342727,-0.00694394,0.0179081,0.0902946,5,0.1,5,2.6,3.75468,-3.77794,0.539582,0.191295,-0.0242054,0.00734478,-0.282645,0.0356436,-0.010848,0.00969919,0.00141156,5,0.1,6,2.6,2.35454,-2.36922,0.500001,-0.645286,-0.030458,-5.96046e-06,0.519156,0.0376701,0,0.0115789,0.183507,5,0.1,7,2.6,4.31733,0.298289,0.603648,-0.10705,-0.248325,-0.00610799,0.324488,0.237763,0.00587106,0.00800925,0.201288,5,0.1,8,2.6,-3.81747,-5.36628,0.591147,0.0573575,0.284111,-0.009197,-0.231504,1.1425,-0.0654757,0.00756545,1.35875,5,0.1,9,2.6,-1.08697,4.12981,0.59238,0.774708,-0.353324,0.00708997,-0.387192,0.282049,-0.00566244,0.00855334,0.390652,5,0.1
0,2.7,2.38691,-1.65731,1.31556,0.00681095,0.660655,0.144203,0.00877678,1.28335,-0.100583,0.0178924,2.50185,5,0.1,1,2.7,-0.163534,1.46434,0.601367,-0.0587803,-0.373581,0.0149532,0.0332352,-0.492647,-0.00843778,0.00692963,1.7463,5,0.1,2,2.7,1.88111,-2.41367,0.742436,-0.193003,0.0199325,0.0110028,-0.138499,-0.0162125,-0.00894815,0.0448606,0.158296,5,0.1,3,2.7,-1.30158,-2.15414,0.597312,0.0187453,0.125992,0.00626436,-0.158578,-0.186265,-0.00930205,0.00927742,0.190094,5,0.1,4,2.7,1.90675,-1.40408,0.58739,-0.030466,0.775407,0.0109011,0.153534,-0.552095,-0.00610203,0.0179081,0.0902946,5,0.1,5,2.7,3.77241,-3.78018,0.540262,0.163318,-0.0206731,0.00627087,-0.276729,0.0349581,-0.0106283,0.00969919,0.00141156,5,0.1,6,2.7,2.29255,-2.37208,0.5,-0.594595,-0.0268221,-4.37722e-06,0.507891,0.0354052,2.6077e-05,0.0115789,0.183507,5,0.1,7,2.7,4.30832,0.274611,0.603066,-0.0727251,-0.225442,-0.00554342,0.353217,0.225011,0.00554323,0.00800925,0.201288,5,0.1,8,2.7,-3.81285,-5.33191,0.589899,0.0353198,0.404081,-0.0157009,-0.206664,1.1954,-0.0622012,0.00756545,1.35875,5,0.1,9,2.7,-1.01132,4.09581,0.593062,0.738898,-0.327302,0.00656769,-0.355721,0.249058,-0.00499934,0.00855334,0.390652,5,0.1
0,2.8,2.38763,-1.5852,1.32948,0.00747442,0.776485,0.134027,0.00429153,0.974476,-0.10705,0.0129708,2.3279,5,0.1,1,2.8,-0.169238,1.42414,0.602818,-0.0551935,-0.43259,0.0140429,0.0399426,-0.621676,-0.0101626,0.0085075,1.39532,5,0.1,2,2.8,1.86098,-2.41176,0.743491,-0.210291,0.0182331,0.0100657,-0.181615,-0.0181198,-0.00995398,0.0426885,0.103811,5,0.1,3,2.8,-1.30037,-2.14247,0.597893,0.00662506,0.107658,0.00534952,-0.0854135,-0.18096,-0.0090003,0.00674597,0.320698,5,0.1,4,2.8,1.90443,-1.32964,0.588448,-0.0161409,0.709936,0.0102445,0.13113,-0.754714,-0.00727177,0.0171624,0.0531677,5,0.1,5,2.8,3.78737,-3.78208,0.540837,0.136006,-0.0172257,0.00522286,-0.269055,0.0342131,-0.0103414,0.00948267,0.000840515,5,0.1,6,2.8,2.2357,-2.37459,0.5,-0.541526,-0.0233173,-1.49012e-06,0.562191,0.0349283,2.98023e-05,0.00938505,0.129225,5,0.1,7,2.8,4.30279,0.253204,0.60254,-0.0384569,-0.202481,-0.00497848,0.320196,0.237547,0.00587106,0.0074504,0.327422,5,0.1,8,2.8,-3.8103,-5.28585,0.58804,0.0164509,0.512636,-0.0212297,-0.169039,0.931501,-0.0466704,0.00755812,1.0362,5,0.1,9,2.8,-0.939332,4.06434,0.593693,0.699078,-0.301707,0.00605434,-0.458926,0.270128,-0.00545382,0.00832711,0.332425,5,0.1
0,2.9,2.3884,-1.5036,1.3424,0.00784993,0.846206,0.12483,0.00289083,0.427939,-0.0824556,0.0129708,2.3279,5,0.1,1,2.9,-0.17457,1.3773,0.604175,-0.0515103,-0.507218,0.0131058,0.0354564,-0.804909,-0.00902265,0.0085075,1.39532,5,0.1,2,2.9,1.83891,-2.41003,0.744449,-0.231842,0.0164755,0.00910033,-0.226945,-0.017345,-0.00952929,0.0426885,0.103811,5,0.1,3,2.9,-1.30006,-2.13255,0.598384,0.000246987,0.0910655,0.00448069,-0.0440776,-0.152975,-0.00837818,0.00674597,0.320698,5,0.1,4,2.9,1.90349,-1.26235,0.589444,-0.00281334,0.63626,0.0097407,0.131369,-0.72857,-0.00350177,0.0171624,0.0531677,5,0.1,5,2.9,3.79966,-3.78363,0.541309,0.109998,-0.013921,0.00422318,-0.250205,0.0317842,-0.0096187,0.00948267,0.000840515,5,0.1,6,2.9,2.18418,-2.37676,0.5,-0.490243,-0.020228,5.58794e-07,0.479206,0.0276119,7.45058e-06,0.00938505,0.129225,5,0.1,7,2.9,4.30039,0.234143,0.602067,-0.0112966,-0.17874,-0.00451226,0.208378,0.238211,0.00374764,0.0074504,0.327422,5,0.1,8,2.9,-3.80945,-5.22996,0.58569,0.000857934,0.603867,-0.0256496,-0.14098,0.845701,-0.0398792,0.00755812,1.0362,5,0.1,9,2.9,-0.87159,4.03528,0.594273,0.656497,-0.281335,0.00555385,-0.414781,0.156075,-0.00473857,0.00832711,0.332425,5,0.1
0,3,2.38919,-1.41763,1.35447,0.00799894,0.866026,0.116587,-0.000238419,0,-0.0864863,0.0141865,1.92243,5,0.1,1,3,-0.179539,1.3227,0.605439,-0.0478096,-0.58217,0.0121638,0.0397563,-0.646055,-0.010103,0.00784675,1.0707,5,0.1,2,3,1.81466,-2.40846,0.745311,-0.251821,0.0147164,0.00813305,-0.156641,-0.0181198,-0.00998378,0.0364934,0.088687,5,0.1,3,3,-1.3002,-2.12418,0.598791,-0.00256002,0.0766993,0.00367314,-0.0137687,-0.135779,-0.00777841,0.00725058,0.315677,5,0.1,4,3,1.90383,-1.20239,0.590402,0.00943542,0.562638,0.009422,0.110626,-0.749946,-0.00336766,0.0242636,0.0995173,5,0.1,5,3,3.80944,-3.78487,0.541684,0.0861347,-0.0108898,0.00330657,-0.226378,0.0287294,-0.00870228,0.00765879,0.000757541,5,0.1,6,3,2.13752,-2.37865,0.5,-0.443012,-0.0176609,1.49012e-06,0.476599,0.0241995,0,0.0117271,0.166467,5,0.1,7,3,4.3,0.217466,0.601633,0,-0.154708,-0.00417829,0,0.242777,0.00318885,0.00925612,0.485582,5,0.1,8,3,-3.81002,-5.1658,0.58295,-0.0114501,0.673795,-0.0288948,-0.10407,0.520229,-0.0238419,0.00789568,0.745825,5,0.1,9,3,-0.808088,4.00787,0.594805,0.612403,-0.267226,0.00507534,-0.482172,0.14019,-0.00491738,0.006555,0.2305,5,0.1
0,3.1,2.38999,-1.33103,1.36574,0.00795834,0.866026,0.109115,-0.000879169,0,-0.0676885,0.0141865,1.92243,5,0.1,1,3.1,-0.184133,1.26112,0.606608,-0.0441519,-0.649302,0.0112342,0.0348417,-0.645578,-0.00885874,0.00784675,1.0707,5,0.1,2,3.1,1.78859,-2.40708,0.746077,-0.270249,0.0130337,0.00720602,-0.188991,-0.0158995,-0.00874698,0.0364934,0.088687,5,0.1,3,3.1,-1.30058,-2.11718,0.599121,-0.00535343,0.0634093,0.00294149,-0.0324622,-0.129506,-0.00686198,0.00725058,0.315677,5,0.1,4,3.1,1.90531,-1.14949,0.59133,0.0198379,0.498502,0.00915918,0.0948906,-0.556692,-0.00234693,0.0242636,0.0995173,5,0.1,5,3.1,3.81697,-3.78582,0.541973,0.0647984,-0.00818372,0.00248663,-0.199497,0.0252724,-0.00766665,0.00765879,0.000757541,5,0.1,6,3.1,2.09534,-2.38031,0.5,-0.402684,-0.0156205,1.11759e-06,0.349864,0.0174195,-7.45058e-06,0.0117271,0.166467,5,0.1,7,3.1,4.3,0.20319,0.601233,0,-0.131017,-0.00379728,0,0.231043,0.00436231,0.00925612,0.485582,5,0.1,8,3.1,-3.81165,-5.09591,0.579947,-0.0207547,0.722273,-0.0310431,-0.0806302,0.411987,-0.0176542,0.00789568,0.745825,5,0.1,9,3.1,-0.749122,3.98171,0.595289,0.567819,-0.256861,0.00462569,-0.427913,0.0819862,-0.00422448,0.006555,0.2305,5,0.1
0,3.2,2.39078,-1.24443,1.37631,0.00777245,0.866026,0.102237,-0.00286102,-5.96046e-05,-0.0732541,0.014084,1.50164,5,0.1,1,3.2,-0.188373,1.19331,0.607687,-0.0405967,-0.70262,0.0103295,0.0372529,-0.385046,-0.00944734,0.00842148,0.780862,5,0.1,2,3.2,1.76072,-2.40585,0.746754,-0.285724,0.0114858,0.00635087,-0.104487,-0.0154972,-0.00846386,0.00662159,0.261092,5,0.1,3,3.2,-1.30125,-2.11147,0.599382,-0.00752509,0.0508904,0.00230074,-0.00548363,-0.120521,-0.00602007,0.00754578,0.298017,5,0.1,4,3.2,1.90773,-1.10227,0.592233,0.0279963,0.447136,0.00887513,0.0665784,-0.488341,-0.00366569,0.0255726,0.171417,5,0.1,5,3.2,3.8225,-3.78652,0.542185,0.0463724,-0.00584722,0.0017792,-0.168681,0.0213385,-0.00649691,0.0112042,0.000578046,5,0.1,6,3.2,2.05675,-2.38179,0.5,-0.369596,-0.0140309,0,0.326514,0.0149012,0,0.0165905,0.137341,5,0.1,7,3.2,4.3,0.191224,0.600877,0,-0.108511,-0.003317,0,0.218943,0.0051558,0.0117054,1.26544,5,0.1,8,3.2,-3.81408,-5.02205,0.576775,-0.0273585,0.749969,-0.032185,-0.0507832,0.117064,-0.00417233,0.0117457,0.513787,5,0.1,9,3.2,-0.694512,3.95644,0.595731,0.523716,-0.248271,0.0042066,-0.466794,0.100613,-0.00432134,0.00711143,0.158757,5,0.1
0,3.3,2.39154,-1.15783,1.3862,0.00748821,0.86589,0.095772,-0.00305474,-0.00536442,-0.0599027,0.014084,1.50164,5,0.1,1,3.3,-0.192258,1.12111,0.608676,-0.0371827,-0.740263,0.00946326,0.0322331,-0.327654,-0.00818446,0.00842148,0.780862,5,0.1,2,3.3,1.73153,-2.40485,0.747935,-0.298454,0.00803471,0.0221878,-0.129409,-0.0492632,0.287868,0.00662159,0.261092,5,0.1,3,3.3,-1.30207,-2.10696,0.599584,-0.00878628,0.0394993,0.00174707,0.00276417,-0.10705,-0.00506267,0.00754578,0.298017,5,0.1,4,3.3,1.91083,-1.05951,0.593103,0.0338115,0.411939,0.00852253,0.04825,-0.249319,-0.00367314,0.0255726,0.171417,5,0.1,5,3.3,3.82634,-3.787,0.542332,0.030911,-0.00389256,0.00118408,-0.140071,0.0176877,-0.00539422,0.0112042,0.000578046,5,0.1,6,3.3,2.02156,-2.38314,0.5,-0.332833,-0.0130881,0,0.404976,0.00528991,0,0.0165905,0.137341,5,0.1,7,3.3,4.3,0.181424,0.600571,0,-0.0878932,-0.00279611,0,0.193783,0.00522658,0.0117054,1.26544,5,0.1,8,3.3,-3.81704,-4.94652,0.573539,-0.0316776,0.759265,-0.0324647,-0.0344813,0.038743,-0.000234693,0.0117457,0.513787,5,0.1,9,3.3,-0.644337,3.93204,0.596131,0.480771,-0.240303,0.00381377,-0.407483,0.0706464,-0.00366569,0.00711143,0.158757,5,0.1
0,3.4,2.39227,-1.07131,1.39548,0.00711679,0.863871,0.0895947,-0.00441074,-0.0429749,-0.0662804,0.0134077,1.1392,5,0.1,1,3.4,-0.195815,1.04581,0.609581,-0.0339452,-0.761411,0.00864118,0.0333413,-0.0680387,-0.00849366,0.00802978,0.545883,5,0.1,2,3.4,1.70113,-2.40432,0.751828,-0.308082,0.00239611,0.0572935,-0.0486374,-0.0603199,0.385344,0.00932451,0.213257,5,0.1,3,3.4,-1.30279,-2.10352,0.599735,-0.00385046,0.0295222,0.00128597,0.104725,-0.0921488,-0.00417233,0.00661267,0.259326,5,0.1,4,3.4,1.91441,-1.0194,0.593935,0.0374109,0.391376,0.00809133,0.0229478,-0.187248,-0.005126,0.0178752,0.103332,5,0.1,5,3.4,3.82878,-3.78731,0.542426,0.0184119,-0.00231266,0.000704825,-0.109553,0.0139475,-0.00426173,0.0102739,0.000333181,5,0.1,6,3.4,1.9904,-2.38443,0.5,-0.289375,-0.0127375,0,0.460327,0.00286102,0,0.0125267,0.201368,5,0.1,7,3.4,4.3,0.173564,0.600317,0,-0.0696898,-0.00227988,0,0.170574,0.0050962,0.00921415,1.84643,5,0.1,8,3.4,-3.82035,-4.87073,0.570306,-0.0340819,0.752723,-0.032036,-0.013113,-0.188828,0.00959635,0.00638603,0.344114,5,0.1,9,3.4,-0.598301,3.90839,0.596495,0.439617,-0.232112,0.0034526,-0.426292,0.101328,-0.00366569,0.0060948,0.113239,5,0.1
0,3.5,2.39296,-0.984948,1.40413,0.00669472,0.864276,0.0836506,-0.00424683,0.0131838,-0.0557601,0.0134077,1.1392,5,0.1,1,3.5,-0.199053,0.969336,0.610405,-0.0309026,-0.767271,0.00786623,0.0285171,-0.0169277,-0.00726804,0.00802978,0.545883,5,0.1,2,3.5,1.67,-2.40439,0.75968,-0.314965,-0.00372194,0.101005,-0.0697821,-0.060007,0.462309,0.00932451,0.213257,5,0.1,3,3.5,-1.30254,-2.10101,0.599844,0.0110019,0.0210438,0.000910368,0.22389,-0.0773221,-0.00334904,0.00661267,0.259326,5,0.1,4,3.5,1.91825,-0.981003,0.594719,0.0390191,0.377918,0.00757957,0.00840425,-0.104308,-0.00528619,0.0178752,0.103332,5,0.1,5,3.5,3.83012,-3.78748,0.542477,0.00871532,-0.00108033,0.000328291,-0.0843555,0.010699,-0.00326708,0.0102739,0.000333181,5,0.1,6,3.5,1.96386,-2.38577,0.5,-0.240644,-0.0146791,-3.72529e-07,0.506639,-0.0362098,-7.45058e-06,0.0125267,0.201368,5,0.1,7,3.5,4.29849,0.167402,0.600114,-0.0429705,-0.0540089,-0.00179131,-0.763893,0.143548,0.00464916,0.00921415,1.84643,5,0.1,8,3.5,-3.82381,-4.79639,0.56715,-0.0349686,0.733395,-0.031049,-0.00369549,-0.222445,0.0111312,0.00638603,0.344114,5,0.1,9,3.5,-0.55634,3.88583,0.596823,0.400602,-0.217595,0.00312077,-0.366863,0.185817,-0.00308082,0.0060948,0.113239,5,0.1
0,3.6,2.39361,-0.898603,1.41221,0.00623465,0.860539,0.0779033,-0.00500679,-0.109702,-0.0613928,0.012335,0.836198,5,0.1,1,3.6,-0.202002,0.892824,0.611156,-0.0280704,-0.759417,0.00714511,0.0288412,0.195533,-0.00736117,0.00900157,0.370562,5,0.1,2,3.6,1.63825,-2.40504,0.772039,-0.318769,-0.00925064,0.145151,0.00715256,-0.0491142,0.401109,0.0394093,0.104948,5,0.1,3,3.6,-1.3,-2.09927,0.599919,0.0427246,0.0140667,0.000612438,0.396967,-0.0622272,-0.0025928,0.00713031,0.198529,5,0.1,4,3.6,1.92216,-0.943746,0.595449,0.0389695,0.366668,0.00700355,-0.00971556,-0.136673,-0.00631809,0.0170039,0.350571,5,0.1,5,3.6,3.83061,-3.78754,0.542495,0.00153184,-0.000172853,5.21541e-05,-0.0596046,0.00762939,-0.00232458,0.00983666,0.000145215,5,0.1,6,3.6,1.94236,-2.38744,0.5,-0.189468,-0.0190079,-1.49012e-06,0.510395,-0.046134,2.98023e-05,0.0139852,0.326572,5,0.1,7,3.6,4.28976,0.162678,0.599957,-0.135803,-0.0408832,-0.00135303,-1.01852,0.119418,0.00408292,0.00922637,1.51482,5,0.1,8,3.6,-3.8273,-4.72439,0.56411,-0.034678,0.704122,-0.0296488,0.0100136,-0.378847,0.0175536,0.00693788,0.227116,5,0.1,9,3.6,-0.518101,3.86512,0.59712,0.364059,-0.195599,0.00282079,-0.372991,0.250816,-0.00306964,0.0077152,0.1628,5,0.1
0,3.7,2.39421,-0.812876,1.41972,0.00576377,0.855043,0.0723477,-0.00455976,-0.0451878,-0.052318,0.012335,0.836198,5,0.1,1,3.7,-0.204675,0.817828,0.611836,-0.0254493,-0.74013,0.00647632,0.0244202,0.216551,-0.00622496,0.00900157,0.370562,5,0.1,2,3.7,1.60637,-2.40614,0.787857,-0.318811,-0.0120275,0.164859,0.00777096,-0.00926852,0.0200048,0.0394093,0.104948,5,0.1,3,3.7,-1.2934,-2.09815,0.599969,0.0919156,0.00849515,0.000384729,0.550866,-0.0492334,-0.00197813,0.00713031,0.198529,5,0.1,4,3.7,1.92599,-0.907374,0.596117,0.0373632,0.363758,0.00634231,-0.0223368,0.0434779,-0.00692904,0.0170039,0.350571,5,0.1,5,3.7,3.83049,-3.78752,0.54249,-0.00345446,0.000463054,-0.000141468,-0.040397,0.0051409,-0.0015609,0.00983666,0.000145215,5,0.1,6,3.7,1.92602,-2.38954,0.5,-0.137088,-0.02257,3.72529e-07,0.518925,-0.025034,1.49012e-05,0.0139852,0.326572,5,0.1,7,3.7,4.27052,0.159146,0.599842,-0.25264,-0.0301304,-0.000973325,-1.24636,0.0961563,0.00349805,0.00922637,1.51482,5,0.1,8,3.7,-3.83071,-4.65581,0.56123,-0.0335176,0.667614,-0.0279557,0.0139922,-0.371903,0.0171363,0.00693788,0.227116,5,0.1,9,3.7,-0.483262,3.84694,0.597389,0.335137,-0.16706,0.00258433,-0.227597,0.312582,-0.00183657,0.0077152,0.1628,5,0.1
0,3.8,2.39476,-0.727793,1.42669,0.00528693,0.843868,0.0669956,-0.00488758,-0.209749,-0.0565052,0.0162565,0.593053,5,0.1,1,3.8,-0.207099,0.745108,0.612453,-0.0230432,-0.711715,0.00586212,0.0243038,0.36931,-0.00616908,0.0072239,0.247273,5,0.1,2,3.8,1.57463,-2.40734,0.803998,-0.314581,-0.0116169,0.154075,0.08744,0.0149012,-0.213385,0.0375537,0.110747,5,0.1,3,3.8,-1.28144,-2.09752,0.599998,0.146613,0.00420809,0.000216067,0.516355,-0.0367165,-0.00146031,0.00698208,0.134684,5,0.1,4,3.8,1.92959,-0.870719,0.596715,0.034532,0.369278,0.00561327,-0.0340939,0.0410378,-0.00762939,0.0178601,0.146904,5,0.1,5,3.8,3.82998,-3.78745,0.542469,-0.00660419,0.000864267,-0.00026226,-0.0230074,0.00274181,-0.00089407,0.00910633,4.76721e-05,5,0.1,6,3.8,1.9148,-2.39189,0.5,-0.0886917,-0.0240266,1.49012e-06,0.43714,-0.00429153,-2.98023e-05,0.013326,0.312451,5,0.1,7,3.8,4.23914,0.156579,0.599761,-0.372589,-0.0215504,-0.000654161,-1.09959,0.075914,0.00289083,0.00884901,1.19849,5,0.1,8,3.8,-3.83398,-4.59103,0.558525,-0.0317514,0.626314,-0.0260845,0.0216961,-0.467777,0.0208318,0.00732585,0.149224,5,0.1,9,3.8,-0.450795,3.83184,0.597639,0.314685,-0.13442,0.00242293,-0.197843,0.334024,-0.00154972,0.00734921,0.128751,5,0.1
0,3.9,2.39527,-0.644315,1.43313,0.00483096,0.826167,0.0618625,-0.00435114,-0.180416,-0.0483245,0.0162565,0.593053,5,0.1,1,3.9,-0.20929,0.675709,0.613011,-0.0208427,-0.676447,0.00530351,0.0204071,0.3579,-0.0051856,0.0072239,0.247273,5,0.1,2,3.9,1.54343,-2.40841,0.818119,-0.310576,-0.00945851,0.126528,0.0138506,0.0267923,-0.323299,0.0375537,0.110747,5,0.1,3,3.9,-1.26417,-2.09727,0.600013,0.198354,0.00103451,9.26666e-05,0.49518,-0.0268668,-0.00102445,0.00698208,0.134684,5,0.1,4,3.9,1.93287,-0.833564,0.597239,0.0309808,0.373602,0.00487119,-0.0369772,0.0280403,-0.00724941,0.0178601,0.146904,5,0.1,5,3.9,3.82922,-3.78736,0.542439,-0.00825562,0.00105724,-0.00032587,-0.0104159,0.00119209,-0.000391155,0.00910633,4.76721e-05,5,0.1,6,3.9,1.90801,-2.39428,0.5,-0.0486851,-0.023482,-5.58794e-07,0.339404,0.0141561,-7.45058e-06,0.013326,0.312451,5,0.1,7,3.9,4.19628,0.154773,0.599709,-0.484154,-0.0148611,-0.000392087,-1.07694,0.0583418,0.00234693,0.00884901,1.19849,5,0.1,8,3.9,-3.83705,-4.53063,0.556016,-0.0296004,0.582204,-0.0241208,0.0219941,-0.431746,0.0191368,0.00732585,0.149224,5,0.1,9,3.9,-0.420189,3.82007,0.597875,0.29832,-0.101203,0.00229729,-0.144098,0.32492,-0.00108406,0.00734921,0.128751,5,0.1
0,4,2.39573,-0.562793,1.43907,0.00439286,0.801687,0.0569642,-0.00452995,-0.334009,-0.0510812,0.0115055,0.410193,5,0.1,1,4,-0.211274,0.60998,0.613515,-0.0188421,-0.636487,0.00479519,0.0201017,0.455976,-0.005126,0.00688573,0.163791,5,0.1,2,4,1.51247,-2.40921,0.829072,-0.308168,-0.00652671,0.09197,0.0494719,0.0306368,-0.356585,0.0430244,0.083545,5,0.1,3,4,-1.24205,-2.09729,0.600018,0.241694,-0.00118613,8.9407e-06,0.355363,-0.017643,-0.000655651,0.00866556,0.112375,5,0.1,4,4,1.93578,-0.796201,0.59769,0.027135,0.371966,0.00415742,-0.0398159,-0.0725985,-0.00703335,0.0178306,0.529172,5,0.1,5,4,3.82836,-3.78725,0.542405,-0.0087738,0.00111461,-0.000342727,-0.000119209,-0.000119209,-2.98023e-05,0.00912208,1.45557e-05,5,0.1,6,4,1.90454,-2.39653,0.5,-0.0240296,-0.0213861,-1.49012e-06,0.145018,0.0268221,0,0.0128306,0.27484,5,0.1,7,4,4.14289,0.153553,0.59968,-0.578666,-0.00979155,-0.000184774,-0.774622,0.0434816,0.00175834,0.00831562,0.327977,5,0.1,8,4,-3.8399,-4.47463,0.553702,-0.0272393,0.537062,-0.0221416,0.0257492,-0.482798,0.0209808,0.00769621,0.098259,5,0.1,9,4,-0.391087,3.81152,0.598099,0.28336,-0.0703633,0.002186,-0.165492,0.28801,-0.0012219,0.00802997,0.272252,5,0.1
0,4.1,2.39615,-0.484174,1.44453,0.00397526,0.771144,0.0523197,-0.00391901,-0.306279,-0.0436082,0.0115055,0.410193,5,0.1,1,4.1,-0.213065,0.548504,0.613971,-0.0170278,-0.593629,0.00433242,0.0167675,0.41944,-0.00427291,0.00688573,0.163791,5,0.1,2,4.1,1.48174,-2.4097,0.836763,-0.307385,-0.00315905,0.0643574,-0.0121072,0.0352859,-0.206247,0.0430244,0.083545,5,0.1,3,4.1,-1.21607,-2.09748,0.600016,0.277685,-0.00263564,-4.23752e-05,0.340596,-0.0114292,-0.000383705,0.00866556,0.112375,5,0.1,4,4.1,1.9383,-0.758875,0.598072,0.0232678,0.378378,0.00349572,-0.0376552,0.157095,-0.00624731,0.0178306,0.529172,5,0.1,5,4.1,3.8275,-3.78714,0.542371,-0.0084307,0.00105985,-0.000330526,0.00654161,-0.000938773,0.000249594,0.00912208,1.45557e-05,5,0.1,6,4.1,1.90259,-2.39852,0.5,-0.018464,-0.0183541,-1.39698e-06,-0.0615567,0.0330657,3.72529e-06,0.0128306,0.27484,5,0.1,7,4.1,4.08168,0.15277,0.59967,-0.639699,-0.00606298,-2.92435e-05,-0.433177,0.0314796,0.00134856,0.00831562,0.327977,5,0.1,8,4.1,-3.8425,-4.42321,0.551587,-0.0247881,0.492144,-0.0201921,0.0238717,-0.430167,0.0186004,0.00769621,0.098259,5,0.1,9,4.1,-0.36353,3.80583,0.598312,0.268027,-0.0443541,0.00207396,-0.150602,0.23073,-0.00109151,0.00802997,0.272252,5,0.1
0,4.2,2.39653,-0.408741,1.44954,0.00358224,0.73548,0.04794,-0.0038147,-0.427097,-0.0452399,0.0101321,0.278902,5,0.1,1,4.2,-0.214686,0.491299,0.614383,-0.0153884,-0.549532,0.00391603,0.0164211,0.474899,-0.00420213,0.00835384,0.108433,5,0.1,2,4.2,1.45098,-2.40984,0.842344,-0.306892,0.000280142,0.0488088,0.0373125,0.0324249,-0.113219,0.0452637,0.152749,5,0.1,3,4.2,-1.18678,-2.09779,0.60001,0.305793,-0.00348687,-6.85453e-05,0.205159,-0.00584126,-0.000208616,0.00658255,0.0557926,5,0.1,4,4.2,1.94044,-0.720168,0.598392,0.0195891,0.395757,0.00290126,-0.0360012,0.157923,-0.00566244,0.0210404,0.48635,5,0.1,5,4.2,3.8267,-3.78704,0.54234,-0.00754595,0.000941753,-0.000295043,0.0109673,-0.00143051,0.000417233,0.00857986,9.09513e-06,5,0.1,6,4.2,1.9,-2.40019,0.5,-0.0374764,-0.0149071,-1.49012e-06,-0.302076,0.0351667,2.98023e-05,0.0128557,0.211698,5,0.1,7,4.2,4.0162,0.152304,0.599673,-0.663435,-0.00342131,8.49366e-05,-0.035882,0.0217184,0.000923872,0.0109759,0.662802,5,0.1,8,4.2,-3.84486,-4.37616,0.549661,-0.0223637,0.448561,-0.018324,0.0249147,-0.451326,0.0192225,0.00683468,0.111889,5,0.1,9,4.2,-0.337518,3.80245,0.598514,0.251655,-0.0243902,0.00195503,-0.18324,0.168085,-0.00137091,0.00645701,0.428733,5,0.1
0,4.3,2.39687,-0.337203,1.45413,0.00323243,0.695896,0.0438301,-0.00329316,-0.388807,-0.0384375,0.0101321,0.278902,5,0.1,1,4.3,-0.216148,0.438595,0.614755,-0.0139099,-0.505395,0.00353791,0.0136346,0.423197,-0.00348687,0.00835384,0.108433,5,0.1,2,4.3,1.42033,-2.40966,0.846729,-0.30715,0.00310652,0.0395363,-0.0218526,0.023976,-0.0751987,0.0452637,0.152749,5,0.1,3,4.3,-1.15529,-2.09816,0.600003,0.322562,-0.00385791,-8.07457e-05,0.118256,-0.00169873,-4.09782e-05,0.00658255,0.0557926,5,0.1,4,4.3,1.94191,-0.679592,0.598655,0.00731628,0.417,0.00237999,-0.189848,0.233028,-0.0048019,0.0210404,0.48635,5,0.1,5,4.3,3.826,-3.78695,0.542313,-0.00631474,0.000783801,-0.000247452,0.0133067,-0.00169873,0.000525266,0.00857986,9.09513e-06,5,0.1,6,4.3,1.89431,-2.4015,0.5,-0.0796761,-0.0113938,5.58794e-07,-0.503659,0.0345856,7.45058e-06,0.0128557,0.211698,5,0.1,7,4.3,3.94946,0.152057,0.599686,-0.672406,-0.00163754,0.000163447,-0.102401,0.0142641,0.000644475,0.0109759,0.662802,5,0.1,8,4.3,-3.84698,-4.33322,0.54791,-0.0202913,0.412903,-0.0167939,0.0176281,-0.287503,0.0124164,0.00683468,0.111889,5,0.1,9,4.3,-0.31331,3.80081,0.598702,0.232046,-0.00888966,0.0018076,-0.210788,0.135228,-0.0015907,0.00645701,0.428733,5,0.1
0,4.4,2.39718,-0.269656,1.45832,0.00290871,0.653641,0.0399947,-0.00321865,-0.472828,-0.0391603,0.0131895,0.187785,5,0.1,1,4.4,-0.217472,0.390188,0.615092,-0.0125788,-0.462303,0.00319928,0.0133291,0.44921,-0.00342727,0.00933017,0.123927,5,0.1,2,4.4,1.38955,-2.40925,0.85035,-0.307724,0.00505447,0.0332385,0.0251532,0.0151396,-0.0531077,0.0401524,0.194762,5,0.1,3,4.4,-1.12267,-2.09855,0.599995,0.327519,-0.00385642,-8.04663e-05,-0.0264049,0.00154972,8.9407e-05,0.00687142,0.0832663,5,0.1,4,4.4,1.94158,-0.636831,0.59887,-0.0148952,0.436546,0.00193417,-0.239134,0.133574,-0.00417233,0.0235753,0.466646,5,0.1,5,4.4,3.82544,-3.78688,0.542291,-0.00494719,0.000607967,-0.000193715,0.0137091,-0.00166893,0.000566244,0.0113873,8.74588e-06,5,0.1,6,4.4,1.88375,-2.40247,0.5,-0.131494,-0.00807643,1.49012e-06,-0.503957,0.031352,-2.98023e-05,0.0137544,0.146868,5,0.1,7,4.4,3.88187,0.151955,0.599705,-0.676906,-0.000510737,0.000213087,0.0412464,0.00854582,0.00038743,0.00809093,1.52844,5,0.1,8,4.4,-3.84893,-4.29327,0.546289,-0.0186563,0.386608,-0.0156611,0.0160933,-0.257492,0.0109971,0.0080309,0.0645753,5,0.1,9,4.4,-0.291217,3.8005,0.598874,0.209236,0.00165701,0.00163466,-0.246167,0.0721216,-0.00187755,0.00851173,2.32724,5,0.1
0,4.5,2.39745,-0.206522,1.46213,0.00261441,0.609849,0.0364423,-0.00274181,-0.423132,-0.0331253,0.0131895,0.187785,5,0.1,1,4.5,-0.218675,0.345855,0.615398,-0.0115642,-0.427161,0.0029386,0.00777841,0.280621,-0.00200048,0.00933017,0.123927,5,0.1,2,4.5,1.35855,-2.40867,0.85348,-0.314918,0.00642836,0.0299821,-0.134982,0.0119507,-0.0163093,0.0401524,0.194762,5,0.1,3,4.5,-1.08995,-2.09892,0.599987,0.327389,-0.00353754,-6.9011e-05,0.00507385,0.00458956,0.000137836,0.00687142,0.0832663,5,0.1,4,4.5,1.93893,-0.592427,0.599044,-0.0374353,0.451661,0.00155736,-0.206701,0.142083,-0.00340492,0.0235753,0.466646,5,0.1,5,4.5,3.82501,-3.78683,0.542274,-0.0035774,0.000440329,-0.00013737,0.0134259,-0.00166893,0.000555068,0.0113873,8.74588e-06,5,0.1,6,4.5,1.86802,-2.40313,0.5,-0.183225,-0.00510477,-2.79397e-07,-0.505663,0.0277907,-1.11759e-05,0.0137544,0.146868,5,0.1,7,4.5,3.81365,0.151939,0.599728,-0.693043,0.000124332,0.000242982,-0.29169,0.00438839,0.000212342,0.00809093,1.52844,5,0.1,8,4.5,-3.85072,-4.25575,0.544772,-0.0172462,0.364801,-0.0147282,0.0128299,-0.195563,0.00834092,0.0080309,0.0645753,5,0.1,9,4.5,-0.271505,3.80124,0.599028,0.18513,0.0135422,0.00145044,-0.237983,0.107318,-0.00181794,0.00851173,2.32724,5,0.1
0,4.6,2.3977,-0.147705,1.46561,0.00234842,0.565623,0.033161,-0.0026226,-0.475183,-0.0334382,0.0106027,0.126091,5,0.1,1,4.6,-0.219796,0.304445,0.615683,-0.0108808,-0.401489,0.00276417,0.00649691,0.252709,-0.00169873,0.00798954,0.0717278,5,0.1,2,4.6,1.32635,-2.40798,0.856429,-0.328809,0.00737906,0.0292182,-0.117719,0.00691414,-0.00226498,0.0489108,0.121464,5,0.1,3,4.6,-1.05726,-2.09925,0.599981,0.325346,-0.00298619,-5.36442e-05,-0.0590682,0.00619888,0.000119209,0.0120153,0.153745,5,0.1,4,4.6,1.93424,-0.546715,0.599184,-0.0554055,0.46045,0.00124723,-0.14931,0.015229,-0.00283122,0.0275005,2.7431,5,0.1,5,4.6,3.82472,-3.78679,0.542263,-0.0023067,0.000286102,-8.64267e-05,0.0118017,-0.00154972,0.000506639,0.00849386,6.84435e-06,5,0.1,6,4.6,1.84733,-2.40351,0.5,-0.228363,-0.00257492,-1.49012e-06,-0.379324,0.0226498,2.98023e-05,0.0146269,0.0926113,5,0.1,7,4.6,3.74283,0.151968,0.599753,-0.722694,0.000410527,0.00025481,-0.247836,0.00152737,2.98023e-05,0.00862705,1.17008,5,0.1,8,4.6,-3.85238,-4.22026,0.543341,-0.0159681,0.344586,-0.0138745,0.0132322,-0.220299,0.00917912,0.00686435,0.0500876,5,0.1,9,4.6,-0.254181,3.80283,0.599164,0.161315,0.0147164,0.00126809,-0.239521,-0.109911,-0.00184774,0.00796843,2.62028,5,0.1
0,4.7,2.39792,-0.0934254,1.46877,0.00210926,0.52054,0.0301342,-0.00220537,-0.440148,-0.0281334,0.0106027,0.126091,5,0.1,1,4.7,-0.220857,0.265412,0.615952,-0.0103596,-0.38019,0.00262829,0.00446942,0.191073,-0.00115857,0.00798954,0.0717278,5,0.1,2,4.7,1.2928,-2.40721,0.859367,-0.342487,0.00792965,0.0297573,-0.133701,0.0038743,0.0101663,0.0489108,0.121464,5,0.1,3,4.7,-1.02473,-2.09952,0.599976,0.327285,-0.00233464,-4.06057e-05,0.0683255,0.00669062,0.00013411,0.0120153,0.153745,5,0.1,4,4.7,1.92833,-0.500555,0.599295,-0.0597579,0.462578,0.00099577,0.0323728,0.00604242,-0.00223517,0.0275005,2.7431,5,0.1,5,4.7,3.82454,-3.78677,0.542257,-0.00119619,0.000141189,-3.92087e-05,0.0102669,-0.0013262,0.000428408,0.00849386,6.84435e-06,5,0.1,6,4.7,1.82268,-2.40366,0.5,-0.263375,-0.000514463,3.72529e-07,-0.305369,0.0184029,1.49012e-05,0.0146269,0.0926113,5,0.1,7,4.7,3.669,0.152013,0.599779,-0.755452,0.000454625,0.000253413,-0.351101,-0.000471249,-5.58794e-05,0.00862705,1.17008,5,0.1,8,4.7,-3.85392,-4.18675,0.541993,-0.0148527,0.326724,-0.0131292,0.00980496,-0.154465,0.00642985,0.00686435,0.0500876,5,0.1,9,4.7,-0.239358,3.8035,0.599282,0.134241,-0.00644922,0.00109347,-0.294124,-0.401646,-0.00165775,0.00796843,2.62028,5,0.1
0,4.8,2.39812,-0.0436049,1.47165,0.00189543,0.475301,0.0273615,-0.00214577,-0.473894,-0.0280738,0.0123991,0.180609,5,0.1,1,4.8,-0.22187,0.228366,0.616209,-0.00989437,-0.360236,0.00250936,0.00521541,0.220589,-0.0013411,0.00857758,0.0556438,5,0.1,2,4.8,1.258,-2.4064,0.862395,-0.351796,0.00811815,0.03075,-0.0370145,-0.000119209,0.00759959,0.0463719,0.0689139,5,0.1,3,4.8,-0.991651,-2.09972,0.599973,0.333901,-0.00168085,-2.68221e-05,0.0424087,0.0064373,0.000149012,0.00807068,0.0935504,5,0.1,4,4.8,1.92262,-0.454425,0.599384,-0.0538856,0.458085,0.000795722,0.0653267,-0.110373,-0.00181794,0.030398,3.19259,5,0.1,5,4.8,3.82447,-3.78676,0.542255,-0.000280142,2.38419e-05,-1.49012e-06,0.00810623,-0.00107288,0.000327826,0.0093145,4.02091e-06,5,0.1,6,4.8,1.79504,-2.40363,0.5,-0.286862,0.00107884,1.49012e-06,-0.154197,0.0133514,-2.98023e-05,0.0126652,0.154399,5,0.1,7,4.8,3.59191,0.152054,0.599803,-0.783294,0.00034757,0.000242889,-0.16582,-0.00151247,-0.000149012,0.00945733,1.43267,5,0.1,8,4.8,-3.85536,-4.15485,0.540712,-0.013876,0.310695,-0.0124663,0.0101328,-0.178576,0.00727177,0.0066373,0.022684,5,0.1,9,4.8,-0.227441,3.8,0.599384,0.103904,-0.0715673,0.000932813,-0.306331,-0.872016,-0.00154972,0.00740923,2.27247,5,0.1
0,4.9,2.3983,0.0012163,1.47427,0.00172779,0.418633,0.0252211,-0.0013411,-0.62478,-0.0164881,0.0123991,0.180609,5,0.1,1,4.9,-0.222838,0.193288,0.616454,-0.0094994,-0.342433,0.00240849,0.00324287,0.15391,-0.000823289,0.00857758,0.0556438,5,0.1,2,4.9,1.22266,-2.40559,0.865514,-0.354441,0.00800602,0.0316483,-0.00204891,-0.00222027,0.00849739,0.0463719,0.0689139,5,0.1,3,4.9,-0.95798,-2.09986,0.599971,0.339701,-0.00108927,-1.24797e-05,0.0544786,0.00533462,0.00013411,0.00807068,0.0935504,5,0.1,4,4.9,1.91779,-0.408974,0.599456,-0.0420302,0.45216,0.000637304,0.110537,-0.035271,-0.00138208,0.030398,3.19259,5,0.1,5,4.9,3.82448,-3.78676,0.542256,0.000439957,-7.0408e-05,2.71946e-05,0.00621378,-0.000789762,0.000245869,0.0093145,4.02091e-06,5,0.1,6,4.9,1.76542,-2.40346,0.5,-0.306593,0.00223555,-3.72529e-07,-0.213504,0.00970066,-1.49012e-05,0.0126652,0.154399,5,0.1,7,4.9,3.51231,0.152079,0.599827,-0.811435,0.000153086,0.000226777,-0.332892,-0.00224728,-0.000182539,0.00945733,1.43267,5,0.1,8,4.9,-3.8567,-4.12465,0.539501,-0.0129148,0.293463,-0.0117667,0.00950694,-0.175327,0.0071004,0.0066373,0.022684,5,0.1,9,4.9,-0.218588,3.78745,0.59947,0.0732482,-0.18736,0.000789389,-0.301243,-1.34918,-0.00133365,0.00740923,2.27247,5,0.1
0,5,2.39847,0.0399264,1.47672,0.00160933,0.35581,0.0237614,-0.00119209,-0.6117,-0.0140667,0.0133467,0.141907,5,0.1,1,5,-0.223771,0.159827,0.616691,-0.00915118,-0.326312,0.0023216,0.00412762,0.181481,-0.00104308,0.00695683,0.0252145,5,0.1,2,5,1.18735,-2.40481,0.86871,-0.349909,0.00765324,0.0321329,0.101805,-0.00488758,-8.9407e-05,0.0442571,0.116305,5,0.1,3,5,-0.923846,-2.09994,0.59997,0.34156,-0.000613928,0,-0.0305176,0.00405312,8.9407e-05,0.00780878,0.0729744,5,0.1,4,5,1.91385,-0.363993,0.599513,-0.0405669,0.446384,0.00051558,-0.108004,-0.0995696,-0.00110269,0.026057,2.90511,5,0.1,5,5,3.82455,-3.78678,0.54226,0.000959635,-0.00013113,4.76837e-05,0.00405312,-0.000596046,0.000149012,0.0107086,1.70594e-06,5,0.1,6,5,1.73378,-2.40319,0.5,-0.32495,0.00300407,0,-0.134289,0.00584126,-2.98023e-05,0.0133788,0.094484,5,0.1,7,5,3.42966,0.152083,0.599849,-0.838864,-7.89762e-05,0.000207126,-0.169516,-0.00229478,-0.000208616,0.00915245,0.277397,5,0.1,8,5,-3.85794,-4.09624,0.538362,-0.011915,0.274098,-0.0109851,0.010848,-0.218391,0.00876188,0.00832852,0.0137771,5,0.1,9,5,-0.212723,3.76182,0.599542,0.0446167,-0.32481,0.000663102,-0.267304,-1.32811,-0.00119209,0.00735355,1.83675,5,0.1
0,5.1,2.39862,0.0725258,1.47903,0.00151098,0.297781,0.0226229,-0.000834465,-0.518938,-0.00986457,0.0133467,0.141907,5,0.1,1,5.1,-0.224666,0.128076,0.616918,-0.00875003,-0.308724,0.00222074,0.00419002,0.180023,-0.00104681,0.00695683,0.0252145,5,0.1,2,5.1,1.15282,-2.40404,0.871932,-0.34081,0.00794418,0.0323424,0.0948757,0.00791252,0.00234693,0.0442571,0.116305,5,0.1,3,5.1,-0.889744,-2.09998,0.599971,0.340939,-0.000270456,8.84756e-06,-0.00174344,0.00283122,8.56817e-05,0.00780878,0.0729744,5,0.1,4,5.1,1.90898,-0.319744,0.59956,-0.0617407,0.439129,0.000421423,-0.398889,-0.0671782,-0.000800937,0.026057,2.90511,5,0.1,5,5.1,3.82467,-3.78679,0.542265,0.00128672,-0.000178069,5.93252e-05,0.0025034,-0.000327826,7.82311e-05,0.0107086,1.70594e-06,5,0.1,6,5.1,1.70061,-2.40287,0.5,-0.337864,0.00345819,-9.31323e-07,-0.106923,0.00320375,7.45058e-06,0.0133788,0.094484,5,0.1,7,5.1,3.34537,0.152063,0.599868,-0.842327,-0.000317534,0.000186265,0.111148,-0.0023786,-0.000208616,0.00915245,0.277397,5,0.1,8,5.1,-3.85908,-4.06989,0.537306,-0.010879,0.252943,-0.0101372,0.0101775,-0.211984,0.00848994,0.00832852,0.0137771,5,0.1,9,5.1,-0.20956,3.72241,0.599603,0.0191284,-0.464446,0.000554603,-0.238491,-1.39295,-0.000987202,0.00735355,1.83675,5,0.1
0,5.2,2.39877,0.1,1.48124,0.00142455,0.254589,0.0215888,-0.000834465,-0.349197,-0.0115633,0.0115082,0.127111,5,0.1,1,5.2,-0.225518,0.0981657,0.617134,-0.00826381,-0.288698,0.00209808,0.00572205,0.226848,-0.00140071,0.00885142,0.0152791,5,0.1,2,5.2,1.1193,-2.4032,0.875169,-0.328481,0.00876784,0.0322744,0.161529,0.00679493,-0.00500679,0.0506763,0.0881741,5,0.1,3,5.2,-0.855744,-2.1,0.599972,0.33786,-4.17233e-05,1.63913e-05,-0.0734925,0.00178814,5.96046e-05,0.00813733,0.105341,5,0.1,4,5.2,1.9,-0.276258,0.599598,-0.125647,0.429277,0.000351667,-0.84883,-0.144922,-0.000655651,0.0299626,2.47586,5,0.1,5,5.2,3.82481,-3.78681,0.542272,0.00145435,-0.000196695,6.55651e-05,0.000953674,-0.000238419,0,0.0113372,5.39501e-07,5,0.1,6,5.2,1.66645,-2.40251,0.5,-0.343475,0.00364184,0,0.00619888,0.000476837,0,0.0121965,0.158186,5,0.1,7,5.2,3.26222,0.15202,0.599886,-0.815099,-0.000537932,0.000165403,0.437617,-0.00196695,-0.000238419,0.00815525,1.39716,5,0.1,8,5.2,-3.86011,-4.04569,0.536336,-0.00982881,0.230539,-0.00924021,0.0110865,-0.241041,0.00965595,0.00897756,0.00439885,5,0.1,9,5.2,-0.208765,3.66938,0.599654,-0.00241585,-0.591093,0.000463426,-0.189692,-1.08874,-0.00089407,0.00637524,1.52899,5,0.1
0,5.3,2.39891,0.123714,1.48342,0.00134818,0.219716,0.0224428,-0.000730157,-0.347602,0.0235662,0.0115082,0.127111,5,0.1,1,5.3,-0.226317,0.0704017,0.617337,-0.00770427,-0.266667,0.00196062,0.00569969,0.221392,-0.00140816,0.00885142,0.0152791,5,0.1,2,5.3,1.08729,-2.40232,0.878368,-0.311395,0.00870563,0.0316477,0.187255,-0.00716746,-0.00851229,0.0506763,0.0881741,5,0.1,3,5.3,-0.822146,-2.09999,0.599974,0.335302,9.76026e-05,2.16998e-05,-0.000420958,0.00104308,4.09782e-05,0.00813733,0.105341,5,0.1,4,5.3,1.88217,-0.233979,0.59963,-0.238786,0.416593,0.000296999,-1.31851,-0.126236,-0.000458211,0.0299626,2.47586,5,0.1,5,5.3,3.82495,-3.78683,0.542278,0.00149533,-0.000209734,6.38887e-05,-0.000119209,-1.49012e-05,-2.98023e-05,0.0113372,5.39501e-07,5,0.1,6,5.3,1.63191,-2.40215,0.5,-0.348969,0.0036139,0,-0.0879541,-0.00105798,0,0.0121965,0.158186,5,0.1,7,5.3,3.1821,0.151957,0.599901,-0.793611,-0.000729272,0.000143144,0.0619888,-0.00178441,-0.000212342,0.00815525,1.39716,5,0.1,8,5.3,-3.86104,-4.02384,0.53546,-0.0087332,0.20638,-0.00827275,0.0109524,-0.244647,0.00979006,0.00897756,0.00439885,5,0.1,9,5.3,-0.210061,3.60481,0.599743,-0.0242486,-0.699016,0.00172472,-0.234385,-1.01177,0.0231229,0.00637524,1.52899,5,0.1
0,5.4,2.39904,0.143955,1.4858,0.00126958,0.185213,0.0254035,-0.000953674,-0.341669,0.0318885,0.0120648,0.313355,5,0.1,1,5.4,-0.227057,0.0448823,0.617526,-0.00708662,-0.243195,0.00180751,0.00680238,0.252692,-0.00172853,0.00977377,0.00486828,5,0.1,2,5.4,1.05717,-2.4015,0.881478,-0.289896,0.00749826,0.0304118,0.246942,-0.0160933,-0.0167787,0.040735,0.277304,5,0.1,3,5.4,-0.78865,-2.09998,0.599976,0.333872,0.000166893,2.5332e-05,-0.0445545,0.000476837,0,0.00800015,0.180688,5,0.1,4,5.4,1.85157,-0.193037,0.599658,-0.372624,0.401082,0.00025779,-1.28639,-0.195972,-0.000357628,0.0182978,1.97637,5,0.1,5,5.4,3.8251,-3.78685,0.542284,0.00143647,-0.000202656,5.81145e-05,-0.000953674,0.000119209,-2.98023e-05,0.0089933,1.64776e-07,5,0.1,6,5.4,1.5966,-2.40179,0.5,-0.356221,0.00343323,0,-0.0367761,-0.0025034,0,0.0117783,0.0963118,5,0.1,7,5.4,3.1029,0.151876,0.599915,-0.79056,-0.000882521,0.00012219,0.0507832,-0.00122935,-0.000178814,0.00977546,1.06031,5,0.1,8,5.4,-3.86186,-4.00445,0.534683,-0.00762343,0.181246,-0.00726581,0.0113249,-0.25928,0.0103414,0.00653577,0.00132493,5,0.1,9,5.4,-0.213646,3.53036,0.60005,-0.0471,-0.783658,0.00455528,-0.213295,-0.640988,0.0312328,0.00822438,1.1149,5,0.1
0,5.5,2.39916,0.160661,1.48847,0.00117831,0.148246,0.0275308,-0.000908971,-0.381819,0.0108257,0.0120648,0.313355,5,0.1,1,5.5,-0.227732,0.0218276,0.617698,-0.00639642,-0.21782,0.00163214,0.00707991,0.257356,-0.00179932,0.00977377,0.00486828,5,0.1,2,5.5,1.02944,-2.40084,0.88443,-0.264368,0.0055667,0.0285663,0.266306,-0.0212342,-0.0205338,0.040735,0.277304,5,0.1,3,5.5,-0.755168,-2.09996,0.599979,0.338116,0.00019297,2.52388e-05,0.0971556,8.9407e-05,-3.72529e-06,0.00800015,0.180688,5,0.1,4,5.5,1.80758,-0.153842,0.599682,-0.508115,0.38313,0.000228919,-1.35101,-0.177348,-0.000238419,0.0182978,1.97637,5,0.1,5,5.5,3.82524,-3.78687,0.54229,0.00131093,-0.000184402,5.3551e-05,-0.00150502,0.000223517,-5.58794e-05,0.0089933,1.64776e-07,5,0.1,6,5.5,1.56076,-2.40146,0.5,-0.360642,0.00314973,0,-0.0335798,-0.00314415,0,0.0117783,0.0963118,5,0.1,7,5.5,3.0237,0.151782,0.599926,-0.795777,-0.000996864,0.000105519,-0.100508,-0.000999309,-0.000160187,0.00977546,1.06031,5,0.1,8,5.5,-3.86257,-3.98761,0.534008,-0.00651069,0.155563,-0.00624061,0.0109226,-0.254467,0.0101626,0.00653577,0.00132493,5,0.1,9,5.5,-0.219441,3.44908,0.60068,-0.0687284,-0.838333,0.00815224,-0.209748,-0.421077,0.0384599,0.00822438,1.1149,5,0.1
0,5.6,2.39928,0.173615,1.49124,0.0010848,0.111474,0.0276238,-0.00107288,-0.343226,-0.00870228,0.0125562,0.295469,5,0.1,1,5.6,-0.228335,0.00135579,0.617852,-0.00565909,-0.191346,0.00144392,0.00769645,0.273331,-0.00193715,0.00652376,0.00146547,5,0.1,2,5.6,1.00439,-2.40039,0.887175,-0.23624,0.00345707,0.0262439,0.297576,-0.0197887,-0.0261664,0.0382106,0.272342,5,0.1,3,5.6,-0.720854,-2.09994,0.599981,0.347714,0.000184774,2.5332e-05,0.0711083,-0.000119209,-2.98023e-05,0.00755482,0.110801,5,0.1,4,5.6,1.7504,-0.11648,0.599704,-0.630406,0.363209,0.000208616,-1.04302,-0.230815,-0.000208616,0.015253,1.49547,5,0.1,5,5.6,3.82536,-3.78689,0.542295,0.00113845,-0.000154972,4.61936e-05,-0.00178814,0.000238419,-5.96046e-05,0.0106671,1.18238e-07,5,0.1,6,5.6,1.52465,-2.40116,0.5,-0.359899,0.00280142,0,0.0608563,-0.00369549,0,0.013836,0.0766631,5,0.1,7,5.6,2.94374,0.151678,0.599936,-0.801295,-0.00107288,8.9407e-05,0.0293255,-0.000484288,-0.000119209,0.0103867,1.32927,5,0.1,8,5.6,-3.86316,-3.97332,0.533434,-0.00542998,0.130367,-0.00523329,0.0104904,-0.249267,0.00998378,0.00659499,0.000705697,5,0.1,9,5.6,-0.227293,3.3637,0.601684,-0.0874244,-0.863111,0.0118554,-0.157438,-0.0582933,0.0339448,0.00768308,0.786872,5,0.1
0,5.7,2.39938,0.183054,1.49393,0.000981987,0.0780836,0.0259224,-0.00101328,-0.298831,-0.0243634,0.0125562,0.295469,5,0.1,1,5.7,-0.228862,-0.0164201,0.617987,-0.00489042,-0.164248,0.00125011,0.00767969,0.268695,-0.00194088,0.00652376,0.00146547,5,0.1,2,5.7,0.982251,-2.40014,0.889666,-0.20649,0.00170842,0.023546,0.29793,-0.0146925,-0.0278912,0.0382106,0.272342,5,0.1,3,5.7,-0.685654,-2.09993,0.599984,0.356505,0.000162795,2.27243e-05,0.0837967,-0.000312924,-2.23517e-05,0.00755482,0.110801,5,0.1,4,5.7,1.68216,-0.0812447,0.599724,-0.732749,0.341874,0.000191946,-0.947967,-0.207674,-0.000130385,0.015253,1.49547,5,0.1,5,5.7,3.82547,-3.7869,0.542299,0.000948831,-0.000128895,3.93949e-05,-0.00195205,0.000298023,-7.82311e-05,0.0106671,1.18238e-07,5,0.1,6,5.7,1.48888,-2.4009,0.5,-0.355906,0.00243038,0,0.0378489,-0.00372529,0,0.013836,0.0766631,5,0.1,7,5.7,2.86325,0.151568,0.599944,-0.811912,-0.00111465,7.80448e-05,-0.17868,-0.000305474,-0.000104308,0.0103867,1.32927,5,0.1,8,5.7,-3.86365,-3.9615,0.53296,-0.00441745,0.106223,-0.00426574,0.00974536,-0.23289,0.00933185,0.00659499,0.000705697,5,0.1,9,5.7,-0.236774,3.27723,0.603043,-0.101587,-0.865163,0.0153044,-0.120558,0.0199527,0.033319,0.00768308,0.786872,5,0.1
0,5.8,2.39947,0.189596,1.49638,0.000876188,0.0553399,0.0229329,-0.000953674,-0.145465,-0.0345707,0.0126625,0.257698,5,0.1,1,5.8,-0.229313,-0.0315097,0.618102,-0.00412464,-0.137632,0.00105649,0.0076443,0.263328,-0.00196695,0.0063119,0.000787819,5,0.1,2,5.8,0.963094,-2.40003,0.891878,-0.176606,0.000566244,0.020653,0.299782,-0.00786781,-0.0299513,0.0388702,0.271001,5,0.1,3,5.8,-0.649703,-2.09991,0.599986,0.360933,0.00012517,2.08616e-05,-0.00980496,-0.000357628,-2.98023e-05,0.00716933,0.0617421,5,0.1,4,5.8,1.60468,-0.0481359,0.599743,-0.810578,0.319691,0.000178814,-0.570357,-0.244045,-8.9407e-05,0.0195289,1.07836,5,0.1,5,5.8,3.82555,-3.78691,0.542303,0.000751019,-0.000101328,3.12924e-05,-0.00202656,0.000357628,-8.9407e-05,0.0119833,1.24799e-07,5,0.1,6,5.8,1.45356,-2.40068,0.5,-0.349152,0.00206232,0,0.11009,-0.0038147,0,0.0131341,0.106249,5,0.1,7,5.8,2.78125,0.151456,0.599951,-0.826174,-0.00112653,6.70552e-05,-0.0612736,0.000104308,-8.9407e-05,0.00847269,0.989259,5,0.1,8,5.8,-3.86405,-3.95201,0.532578,-0.00348091,0.0839293,-0.00337362,0.00870228,-0.212431,0.00855327,0.00821594,0.000625418,5,0.1,9,5.8,-0.24744,3.19105,0.604727,-0.110677,-0.85513,0.0182286,-0.057891,0.218034,0.0239015,0.010104,0.551314,5,0.1
0,5.9,2.39956,0.194618,1.49849,0.000782683,0.0481257,0.0192311,-0.000908971,0.0320012,-0.0387728,0.0126625,0.257698,5,0.1,1,5.9,-0.229688,-0.0439827,0.618198,-0.00338035,-0.112115,0.000865106,0.00721496,0.246194,-0.00185147,0.0063119,0.000787819,5,0.1,2,5.9,0.946904,-2.4,0.893795,-0.147488,5.96046e-05,0.0176841,0.282299,-0.00274181,-0.0294,0.0388702,0.271001,5,0.1,3,5.9,-0.613677,-2.0999,0.599988,0.359057,8.53091e-05,1.82539e-05,-0.0407957,-0.000402331,-2.23517e-05,0.00716933,0.0617421,5,0.1,4,5.9,1.52125,-0.0173164,0.59976,-0.852935,0.297154,0.000171829,-0.27325,-0.21647,-5.58794e-05,0.0195289,1.07836,5,0.1,5,5.9,3.82562,-3.78692,0.542306,0.000553206,-6.74278e-05,2.24449e-05,-0.00189245,0.000312924,-8.56817e-05,0.0119833,1.24799e-07,5,0.1,6,5.9,1.41902,-2.40049,0.5,-0.343062,0.00168718,0,0.0340343,-0.00365078,0,0.0131341,0.106249,5,0.1,7,5.9,2.69809,0.151344,0.599958,-0.838025,-0.00111321,5.85802e-05,-0.126168,0.000199303,-7.82311e-05,0.00847269,0.989259,5,0.1,8,5.9,-3.86436,-3.94464,0.532282,-0.00265799,0.063853,-0.00256579,0.0077337,-0.188321,0.00757724,0.00821594,0.000625418,5,0.1,9,5.9,-0.258589,3.10655,0.606667,-0.11042,-0.834951,0.020526,0.0561345,0.218242,0.0207126,0.010104,0.551314,5,0.1
0,6,2.39963,0.2,1.50022,0.000691414,0.0633534,0.0153065,-0.000953674,0.257857,-0.0392795,0.0107733,0.196352,5,0.1,1,6,-0.229991,-0.0539976,0.618275,-0.00268668,-0.0885447,0.000686944,0.00664592,0.224518,-0.00169873,0.00758973,0.000701848,5,0.1,2,6,0.933535,-2.40001,0.895417,-0.120206,-5.96046e-05,0.014782,0.263035,-0.000119209,-0.02864,0.0429214,0.268577,5,0.1,3,6,-0.578114,-2.09989,0.599989,0.350611,4.76837e-05,1.63913e-05,-0.136703,-0.000476837,-2.98023e-05,0.00753604,0.0429639,5,0.1,4,6,1.43508,0.0112972,0.599777,-0.866026,0.274745,0.000163913,0,-0.238448,-2.98023e-05,0.0149331,0.756949,5,0.1,5,6,3.82566,-3.78693,0.542307,0.000375509,-3.57628e-05,1.49012e-05,-0.00166893,0.000238419,-5.96046e-05,0.00936382,1.02066e-07,5,0.1,6,6,1.38491,-2.40034,0.5,-0.33851,0.00133514,0,0.0729561,-0.00345707,0,0.0118935,0.181197,5,0.1,7,6,2.61388,0.151234,0.599963,-0.842977,-0.00108071,5.06639e-05,0.0618696,0.000491738,-5.96046e-05,0.00858757,0.506408,5,0.1,8,6,-3.86458,-3.93916,0.532062,-0.00193715,0.0463963,-0.00186414,0.00655651,-0.160575,0.0064671,0.00697763,0.000491361,5,0.1,9,6,-0.26921,3.02436,0.608809,-0.100738,-0.805998,0.0221461,0.131503,0.382662,0.010848,0.00976222,0.190916,5,0.1
0,6.1,2.39969,0.208044,1.50156,0.000600517,0.100762,0.0114543,-0.00089407,0.453202,-0.0373051,0.0107733,0.196352,5,0.1,1,6.1,-0.230227,-0.0617697,0.618336,-0.00205629,-0.0673221,0.000526104,0.00593532,0.199098,-0.00151619,0.00758973,0.000701848,5,0.1,2,6.1,0.922785,-2.40009,0.896756,-0.0952598,-0.0020463,0.0120265,0.235498,-0.0306219,-0.0264123,0.0429214,0.268577,5,0.1,3,6.1,-0.543683,-2.09989,0.599991,0.338181,7.45058e-07,1.38767e-05,-0.125799,-0.000447035,-1.86265e-05,0.00753604,0.0429639,5,0.1,4,6.1,1.3485,0.0376501,0.599793,-0.864848,0.252811,0.000161212,0.0402555,-0.208391,-2.6077e-05,0.0149331,0.756949,5,0.1,5,6.1,3.82569,-3.78693,0.542309,0.000220165,-1.37836e-05,9.03383e-06,-0.00141561,0.000193715,-5.58794e-05,0.00936382,1.02066e-07,5,0.1,6,6.1,1.35109,-2.40022,0.5,-0.340127,0.00100769,0,-0.0732839,-0.00308454,0,0.0118935,0.181197,5,0.1,7,6.1,2.52993,0.151128,0.599968,-0.835033,-0.00103242,4.47966e-05,0.12669,0.000506639,-5.58794e-05,0.00858757,0.506408,5,0.1,8,6.1,-3.86475,-3.93528,0.531906,-0.00133254,0.0316266,-0.00126977,0.00549853,-0.134364,0.00540912,0.00697763,0.000491361,5,0.1,9,6.1,-0.278538,2.94577,0.611029,-0.0850888,-0.764385,0.0217887,0.175856,0.463888,-0.0160709,0.00976222,0.190916,5,0.1
0,6.2,2.39975,0.220457,1.50252,0.00051856,0.147491,0.00792444,-0.000953674,0.453442,-0.0329614,0.0103707,0.133624,5,0.1,1,6.2,-0.230405,-0.0675543,0.618381,-0.0015039,-0.0488607,0.00038445,0.00508875,0.169612,-0.0012815,0.00776029,0.000551073,5,0.1,2,6.2,0.914388,-2.40044,0.89783,-0.0731722,-0.00472069,0.00950992,0.205994,-0.0175238,-0.0238717,0.047149,0.253545,5,0.1,3,6.2,-0.510568,-2.09989,0.599992,0.323127,-4.17233e-05,1.19209e-05,-0.184625,-0.000238419,-2.98023e-05,0.00807629,0.0802246,5,0.1,4,6.2,1.26246,0.0618846,0.599809,-0.852671,0.231684,0.000156462,0.239611,-0.2198,-8.9407e-05,0.0190061,0.52241,5,0.1,5,6.2,3.82571,-3.78693,0.542309,8.9407e-05,5.96046e-06,4.47035e-06,-0.000953674,0,-5.96046e-05,0.00986038,5.46406e-08,5,0.1,6,6.2,1.31669,-2.40014,0.5,-0.347614,0.000721216,0,-0.0530481,-0.0026226,0,0.0116584,0.112939,5,0.1,7,6.2,2.44736,0.151028,0.599972,-0.812721,-0.000974163,3.8743e-05,0.33915,0.000678003,-2.98023e-05,0.0092377,1.579,5,0.1,8,6.2,-3.86485,-3.93274,0.531804,-0.000834465,0.0195861,-0.000786781,0.00429153,-0.106454,0.00432134,0.00736346,0.000294339,5,0.1,9,6.2,-0.286133,2.87188,0.613096,-0.0665791,-0.710964,0.0192836,0.189841,0.612974,-0.0323653,0.00678601,0.273313,5,0.1
0,6.3,2.3998,0.237542,1.50316,0.000430271,0.194261,0.00483524,-0.000819564,0.457726,-0.0285581,0.0103707,0.133624,5,0.1,1,6.3,-0.230531,-0.0716371,0.618414,-0.00103419,-0.033258,0.000265893,0.00428967,0.141962,-0.00108406,0.00776029,0.000551073,5,0.1,2,6.3,0.90805,-2.40107,0.898667,-0.0540978,-0.00802912,0.00727102,0.175308,-0.0237077,-0.0208616,0.047149,0.253545,5,0.1,3,6.3,-0.478967,-2.0999,0.599993,0.310467,-6.33299e-05,9.40636e-06,-0.0893492,-0.000178814,-1.86265e-05,0.00807629,0.0802246,5,0.1,4,6.3,1.17831,0.0840217,0.599824,-0.830312,0.21156,0.000148546,0.239402,-0.189516,-7.82311e-05,0.0190061,0.52241,5,0.1,5,6.3,3.82571,-3.78693,0.542309,3.35276e-06,7.82311e-06,-9.31323e-07,-0.000759959,4.47035e-05,-4.47035e-05,0.00986038,5.46406e-08,5,0.1,6,6.3,1.28158,-2.40008,0.5,-0.354807,0.000485405,0,-0.0700057,-0.00210106,0,0.0116584,0.112939,5,0.1,7,6.3,2.36696,0.150933,0.599976,-0.801589,-0.000909693,3.56697e-05,-0.0424981,0.000637956,-3.35276e-05,0.0092377,1.579,5,0.1,8,6.3,-3.86492,-3.93127,0.531745,-0.000450015,0.0101175,-0.000403263,0.00339746,-0.0828356,0.00335276,0.00736346,0.000294339,5,0.1,9,6.3,-0.29185,2.8036,0.614891,-0.0479167,-0.656485,0.016869,0.180062,0.50205,-0.01752,0.00678601,0.273313,5,0.1
0,6.4,2.39984,0.2591,1.50351,0.000351667,0.2349,0.00225902,-0.000596046,0.337914,-0.0228286,0.0131775,0.113874,5,0.1,1,6.4,-0.230614,-0.074302,0.618435,-0.000648573,-0.0205342,0.000168383,0.00341982,0.112336,-0.00089407,0.00702512,0.00032961,5,0.1,2,6.4,0.903465,-2.40185,0.899295,-0.0381291,-0.00593662,0.00534207,0.144035,0.0756979,-0.017643,0.0407825,0.215225,5,0.1,3,6.4,-0.44835,-2.09991,0.599994,0.301673,-8.34465e-05,7.45058e-06,-0.101626,0,0,0.00950455,0.190219,5,0.1,4,6.4,1.09669,0.104235,0.599839,-0.799456,0.192622,0.000140071,0.399292,-0.193994,-0.000119209,0.0133582,0.353593,5,0.1,5,6.4,3.82571,-3.78693,0.542309,-6.55651e-05,5.96046e-06,-4.47035e-06,-0.000476837,0.000238419,-2.98023e-05,0.00928745,2.79381e-08,5,0.1,6,6.4,1.24586,-2.40004,0.5,-0.358096,0.000298023,0,0.0187755,-0.00154972,0,0.0106284,0.212826,5,0.1,7,6.4,2.28646,0.150846,0.599979,-0.808346,-0.000841916,3.27826e-05,-0.0380278,0.000730157,-5.96046e-05,0.00909292,1.20159,5,0.1,8,6.4,-3.86495,-3.93064,0.53172,-0.000160933,0.00301003,-0.000116229,0.0026226,-0.0594854,0.00238419,0.00653324,0.000132719,5,0.1,9,6.4,-0.29578,2.74045,0.616504,-0.0311263,-0.606221,0.0154957,0.153467,0.521302,-0.0111461,0.00701345,0.195782,5,0.1
0,6.5,2.39987,0.284342,1.50362,0.000296906,0.269915,0.000148267,-0.000521541,0.337634,-0.0191182,0.0131775,0.113874,5,0.1,1,6.5,-0.230663,-0.0758351,0.618448,-0.000343262,-0.0105418,8.85688e-05,0.00268314,0.0874368,-0.000696629,0.00702512,0.00032961,5,0.1,2,6.5,0.900325,-2.40195,0.899746,-0.0251352,0.00611283,0.00372864,0.115927,0.19975,-0.014618,0.0407825,0.215225,5,0.1,3,6.5,-0.418436,-2.09991,0.599995,0.298507,-8.3074e-05,7.35745e-06,0.0132974,1.49012e-05,-3.72529e-06,0.00950455,0.190219,5,0.1,4,6.5,1.01864,0.122589,0.599852,-0.761924,0.174942,0.00012964,0.377573,-0.16532,-9.68575e-05,0.0133582,0.353593,5,0.1,5,6.5,3.8257,-3.78693,0.542309,-0.000106171,2.49594e-05,-6.89179e-06,-0.000342727,0.000163913,-1.49012e-05,0.00928745,2.79381e-08,5,0.1,6,6.5,1.21015,-2.40003,0.5,-0.355732,-0.00038445,0,0.0419319,-0.0109076,0,0.0106284,0.212826,5,0.1,7,6.5,2.20505,0.150765,0.599982,-0.822254,-0.000773603,2.72878e-05,-0.182301,0.000659376,-4.84288e-05,0.00909292,1.20159,5,0.1,8,6.5,-3.86495,-3.9306,0.531719,6.10948e-05,-0.00201315,8.45641e-05,0.00184774,-0.0412166,0.00163913,0.00653324,0.000132719,5,0.1,9,6.5,-0.298184,2.68223,0.618013,-0.0175804,-0.55953,0.0148089,0.116648,0.433385,-0.00384077,0.00701345,0.195782,5,0.1
0,6.6,2.3999,0.312855,1.50355,0.000244379,0.298244,-0.0015229,-0.000357628,0.21185,-0.0140071,0.0138225,0.0574025,5,0.1,1,6.6,-0.230685,-0.0764936,0.618454,-0.000112131,-0.00304114,2.83122e-05,0.0019446,0.0627078,-0.000506639,0.00721313,0.00014847,5,0.1,2,6.6,0.898345,-2.4,0.900051,-0.0149131,0.0360548,0.00241846,0.0886619,0.385046,-0.0115633,0.0417226,0.15352,5,0.1,3,6.6,-0.388498,-2.09992,0.599996,0.299997,-7.7486e-05,7.45058e-06,-0.00181794,0,-2.98023e-05,0.00774636,0.287996,5,0.1,4,6.6,0.944471,0.139266,0.599865,-0.719547,0.158587,0.000119209,0.487685,-0.165783,-8.9407e-05,0.0129918,0.23905,5,0.1,5,6.6,3.82569,-3.78692,0.542308,-0.00013113,3.57628e-05,-8.9407e-06,-0.000119209,0.000119209,0,0.00933274,1.22985e-08,5,0.1,6,6.6,1.17492,-2.40014,0.5,-0.347474,-0.00166893,0,0.132084,-0.0137091,0,0.011273,0.973823,5,0.1,7,6.6,2.12206,0.150691,0.599985,-0.8349,-0.000706315,2.23517e-05,-0.0292063,0.000700355,-2.98023e-05,0.00983345,0.460076,5,0.1,8,6.6,-3.86494,-3.93098,0.531735,0.000208616,-0.00528097,0.000214577,0.00107288,-0.0246763,0.000983477,0.00640999,4.54223e-05,5,0.1,9,6.6,-0.299424,2.62844,0.619479,-0.00788271,-0.51598,0.0145108,0.0772625,0.452161,-0.00303984,0.00859859,0.140747,5,0.1
0,6.7,2.39992,0.343636,1.50333,0.000208989,0.316012,-0.00273641,-0.000342727,0.130894,-0.0101551,0.0138225,0.0574025,5,0.1,1,6.7,-0.230688,-0.0765169,0.618454,5.29457e-05,0.00225371,-1.44355e-05,0.00136159,0.0434173,-0.000353903,0.00721313,0.00014847,5,0.1,2,6.7,0.897259,-2.39412,0.900239,-0.00717789,0.0840809,0.00139195,0.0663102,0.5389,-0.0089854,0.0417226,0.15352,5,0.1,3,6.7,-0.358229,-2.09993,0.599996,0.307412,-8.41916e-05,4.93601e-06,0.120632,-0.000119209,-1.86265e-05,0.00774636,0.287996,5,0.1,4,6.7,0.874829,0.154211,0.599876,-0.673984,0.139565,0.000111293,0.44537,-0.210575,-7.82311e-05,0.0129918,0.23905,5,0.1,5,6.7,3.82568,-3.78692,0.542307,-0.000138953,4.39584e-05,-8.84756e-06,-1.49012e-05,2.98023e-05,3.72529e-06,0.00933274,1.22985e-08,5,0.1,6,6.7,1.14069,-2.40068,0.5,-0.337983,-0.0118136,0,0.0764132,-0.169158,0,0.011273,0.973823,5,0.1,7,6.7,2.03856,0.150624,0.599987,-0.833215,-0.000641565,1.94646e-05,0.0888631,0.000613742,-2.6077e-05,0.00983345,0.460076,5,0.1,8,6.7,-3.86491,-3.93161,0.53176,0.000289455,-0.00711642,0.00028722,0.000551343,-0.0124127,0.000484288,0.00640999,4.54223e-05,5,0.1,9,6.7,-0.299871,2.57894,0.620922,-0.00156397,-0.475263,0.0144145,0.0463687,0.379384,0.00013411,0.00859859,0.140747,5,0.1
0,6.8,2.39994,0.375674,1.50302,0.000178814,0.322381,-0.00353754,-0.000476837,-0.0112951,-0.00584126,0.0133265,0.0854568,5,0.1,1,6.8,-0.230677,-0.0761046,0.618451,0.000161678,0.00569765,-4.32134e-05,0.000834465,0.0257827,-0.000208616,0.00601658,5.03375e-05,5,0.1,2,6.8,0.896838,-2.38301,0.900338,-0.00158846,0.137478,0.000616908,0.0458062,0.50211,-0.00652671,0.0373539,0.0931379,5,0.1,3,6.8,-0.326881,-2.09994,0.599997,0.319014,-0.000101328,2.98023e-06,0.0897944,-0.000119209,0,0.00759971,0.470381,5,0.1,4,6.8,0.809733,0.167069,0.599887,-0.62681,0.11723,0.000102818,0.512928,-0.232622,-8.9407e-05,0.0107511,0.15533,5,0.1,5,6.8,3.82566,-3.78691,0.542306,-0.000137091,4.76837e-05,-7.45058e-06,0,-0.000119209,0,0.0106232,6.8847e-09,5,0.1,6,6.8,1.10731,-2.40283,0.5,-0.328994,-0.0319541,0,0.116527,-0.217915,0,0.0142289,0.927085,5,0.1,7,6.8,1.95605,0.150563,0.599989,-0.812891,-0.0005804,1.63913e-05,0.334024,0.000625849,-2.98023e-05,0.00905608,2.35948,5,0.1,8,6.8,-3.86488,-3.93237,0.531791,0.000327826,-0.00784397,0.000314415,0,-0.00226498,0.000119209,0.00872704,1.35987e-05,5,0.1,9,6.8,-0.299861,2.53331,0.622363,0.00107437,-0.43717,0.0143707,0.00599027,0.394464,-0.00172853,0.00875161,0.178923,5,0.1
0,6.9,2.39995,0.407956,1.50264,0.000135973,0.323775,-0.00395309,-0.000402331,0.0201371,-0.00249594,0.0133265,0.0854568,5,0.1,1,6.9,-0.230657,-0.0754283,0.618446,0.000224612,0.00761303,-5.85802e-05,0.00043679,0.01291,-0.000108033,0.00601658,5.03375e-05,5,0.1,2,6.9,0.896881,-2.36676,0.90037,0.00219112,0.186843,6.21192e-05,0.0301562,0.464022,-0.00460073,0.0373539,0.0931379,5,0.1,3,6.9,-0.294202,-2.09995,0.600017,0.336927,-0.000108033,0.000562239,0.232248,-2.98023e-05,0.0099428,0.00759971,0.470381,5,0.1,4,6.9,0.749476,0.177608,0.599897,-0.579242,0.0934368,9.49018e-05,0.45665,-0.239516,-7.82311e-05,0.0107511,0.15533,5,0.1,5,6.9,3.82565,-3.78691,0.542305,-0.000133365,3.61353e-05,-7.07805e-06,8.9407e-05,-0.000104308,7.45058e-06,0.0106232,6.8847e-09,5,0.1,6,6.9,1.0745,-2.40694,0.5,-0.331022,-0.0485752,0,-0.118278,-0.115559,0,0.0142289,0.927085,5,0.1,7,6.9,1.8753,0.150508,0.59999,-0.811123,-0.0005187,1.35042e-05,-0.204794,0.000614673,-2.6077e-05,0.00905608,2.35948,5,0.1,8,6.9,-3.86485,-3.93315,0.531822,0.000314787,-0.00771545,0.000311062,-0.000223517,0.00445545,-0.000163913,0.00872704,1.35987e-05,5,0.1,9,6.9,-0.299742,2.49118,0.623809,0.000617746,-0.408254,0.0146654,-0.0339486,0.213251,0.00601634,0.00875161,0.178923,5,0.1
0,7,2.39997,0.440359,1.50224,0.000101328,0.32317,-0.00404716,-0.000238419,-0.0456125,0.000596046,0.0129393,0.156313,5,0.1,1,7,-0.230633,-0.074621,0.61844,0.000251085,0.00835694,-6.55651e-05,0.000111759,0.00236928,0,0.00623636,1.52222e-05,5,0.1,2,7,0.897228,-2.34596,0.900356,0.00451654,0.226724,-0.000309944,0.0167489,0.319004,-0.00289083,0.0379966,0.123779,5,0.1,3,7,-0.259357,-2.09996,0.600131,0.359187,-0.000107288,0.00177026,0.186406,0,0.013262,0.0068873,0.376303,5,0.1,4,7,0.693864,0.185769,0.599906,-0.532408,0.0699896,8.79169e-05,0.492603,-0.226527,-0.000119209,0.0131312,0.112245,5,0.1,5,7,3.82564,-3.78691,0.542305,-0.000119209,2.38419e-05,-5.96046e-06,0,0,0,0.0109748,7.11097e-09,5,0.1,6,7,1.04068,-2.41221,0.5,-0.345817,-0.0553846,0,-0.148058,-0.022769,0,0.0124656,0.699244,5,0.1,7,7,1.7929,0.150459,0.599991,-0.837454,-0.000456721,1.04308e-05,-0.251591,0.00064075,0,0.00999193,1.73466,5,0.1,8,7,-3.86482,-3.93389,0.531852,0.000286102,-0.00702739,0.000283122,-0.000476837,0.0089407,-0.000357628,0.00754916,7.6811e-06,5,0.1,9,7,-0.3,2.45132,0.625307,-0.00725836,-0.389415,0.015296,-0.120178,0.185609,0.00539422,0.00792037,0.112806,5,0.1
0,7.1,2.39997,0.472732,1.50184,7.93487e-05,0.326384,-0.00390038,-0.000193715,0.080185,0.00230968,0.0129393,0.156313,5,0.1,1,7.1,-0.230608,-0.0737864,0.618433,0.00025034,0.00821761,-6.29574e-05,-0.000113621,-0.00474276,5.21541e-05,0.00623636,1.52222e-05,5,0.1,2,7.1,0.897741,-2.32164,0.900313,0.00553234,0.259761,-0.000533555,0.00430271,0.319138,-0.0016205,0.0379966,0.123779,5,0.1,3,7.1,-0.222378,-2.09996,0.600381,0.380965,0.000126287,0.00329139,0.221022,0.0038594,0.0162236,0.0068873,0.376303,5,0.1,4,7.1,0.642943,0.191683,0.599914,-0.487045,0.0488326,7.75792e-05,0.429939,-0.195054,-9.31323e-05,0.0131312,0.112245,5,0.1,5,7.1,3.82562,-3.78691,0.542304,-0.000114366,2.23517e-05,-5.58794e-06,7.45058e-05,-2.98023e-05,7.45058e-06,0.0109748,7.11097e-09,5,0.1,6,7.1,1.00489,-2.4176,0.5,-0.373477,-0.0499938,0,-0.357199,0.116602,0,0.0124656,0.699244,5,0.1,7,7.1,1.70802,0.150416,0.599992,-0.858538,-0.000400422,1.03377e-05,-0.151388,0.000501052,-3.72529e-06,0.00999193,1.73466,5,0.1,8,7.1,-3.86479,-3.93454,0.531878,0.000236556,-0.00598654,0.000240933,-0.000521541,0.0115633,-0.000465661,0.00754916,7.6811e-06,5,0.1,9,7.1,-0.301489,2.41316,0.626868,-0.023786,-0.37478,0.0159317,-0.19606,0.126481,0.00627711,0.00792037,0.112806,5,0.1
0,7.2,2.39998,0.505779,1.50146,5.96046e-05,0.334065,-0.00359714,-0.000119209,0.0517368,0.00375509,0.0132302,0.0951919,5,0.1,1,7.2,-0.230584,-0.0729972,0.618427,0.000230595,0.00748597,-5.66244e-05,-0.000268221,-0.00952557,5.96046e-05,0.00647524,8.54333e-06,5,0.1,2,7.2,0.8983,-2.29422,0.900253,0.00551343,0.286716,-0.00064224,-0.00405312,0.203967,-0.000566244,0.0467136,0.196534,5,0.1,3,7.2,-0.183308,-2.09993,0.60079,0.398588,0.000530481,0.00485331,0.111557,0.00357628,0.0143051,0.00719184,0.293907,5,0.1,4,7.2,0.596386,0.195654,0.599922,-0.443836,0.0312213,7.00355e-05,0.444919,-0.156313,-0.000119209,0.0120595,0.242731,5,0.1,5,7.2,3.82561,-3.7869,0.542304,-0.000101328,1.78814e-05,-4.47035e-06,0.000119209,0,0,0.00986356,4.94987e-09,5,0.1,6,7.2,0.965736,-2.42188,0.5,-0.408922,-0.0345767,0,-0.316292,0.180721,0,0.0136293,0.717816,5,0.1,7,7.2,1.62166,0.150379,0.599993,-0.866026,-0.000353903,1.04308e-05,0,0.000447035,-2.98023e-05,0.00926016,0.394252,5,0.1,8,7.2,-3.86477,-3.93508,0.5319,0.000178814,-0.00478029,0.000190735,-0.000357628,0.012517,-0.000476837,0.00875844,7.30204e-06,5,0.1,9,7.2,-0.304876,2.37635,0.628487,-0.0439599,-0.360823,0.0163749,-0.196576,0.166655,0.00181794,0.00709069,0.0661917,5,0.1
0,7.3,2.39999,0.53951,1.50112,4.80562e-05,0.340706,-0.0031868,-0.000104308,0.0618771,0.00440329,0.0132302,0.0951919,5,0.1,1,7.3,-0.230562,-0.0723018,0.618422,0.000198605,0.00637772,-4.90807e-05,-0.000361353,-0.0122841,8.56817e-05,0.00647524,8.54333e-06,5,0.1,2,7.3,0.898822,-2.26431,0.900187,0.00483869,0.312861,-0.000664312,-0.00892207,0.287175,9.31323e-05,0.0467136,0.196534,5,0.1,3,7.3,-0.142846,-2.09983,0.601348,0.410548,0.00156611,0.00630496,0.105432,0.0132918,0.0140108,0.00719184,0.293907,5,0.1,4,7.3,0.553876,0.198064,0.599928,-0.409203,0.0176915,6.13742e-05,0.274271,-0.114232,-6.33299e-05,0.0120595,0.242731,5,0.1,5,7.3,3.8256,-3.7869,0.542303,-8.71718e-05,1.63913e-05,-4.09782e-06,0.000178814,-2.98023e-05,7.45058e-06,0.00986356,4.94987e-09,5,0.1,6,7.3,0.923086,-2.42423,0.5,-0.444871,-0.0106934,0,-0.365619,0.28114,0,0.0136293,0.717816,5,0.1,7,7.3,1.53527,0.150345,0.599994,-0.859221,-0.000314903,7.91624e-06,0.157535,0.000347383,-1.86265e-05,0.00926016,0.394252,5,0.1,8,7.3,-3.86476,-3.9355,0.531917,0.000141189,-0.0035204,0.000141747,-0.000402331,0.0124276,-0.000491738,0.00875844,7.30204e-06,5,0.1,9,7.3,-0.310279,2.34105,0.630132,-0.0641007,-0.345241,0.0165106,-0.196891,0.157386,0.000242144,0.00709069,0.0661917,5,0.1
0,7.4,2.39999,0.573778,1.50083,3.57628e-05,0.343189,-0.00272393,0,-0.0256002,0.00476837,0.0115889,0.0741984,5,0.1,1,7.4,-0.230544,-0.0717275,0.618418,0.00016056,0.00509303,-4.02331e-05,-0.000402331,-0.0131279,8.9407e-05,0.00751389,8.15502e-06,5,0.1,2,7.4,0.899256,-2.23166,0.900122,0.00382066,0.338691,-0.000628829,-0.0109971,0.20659,0.000566244,0.0379835,0.120212,5,0.1,3,7.4,-0.101422,-2.09962,0.602043,0.415928,0.00257492,0.00753552,-0.0130981,0.00452995,0.0100434,0.008817,0.225622,5,0.1,4,7.4,0.514224,0.199331,0.599934,-0.384368,0.00832193,5.51343e-05,0.24201,-0.0737384,0,0.0130919,0.201427,5,0.1,5,7.4,3.8256,-3.7869,0.542303,-7.15256e-05,1.19209e-05,-2.98023e-06,0.000238419,0,0,0.00950544,6.2454e-09,5,0.1,6,7.4,0.876939,-2.42383,0.5,-0.475711,0.0188172,0,-0.224888,0.296712,0,0.0118015,2.72147,5,0.1,7,7.4,1.45054,0.150315,0.599995,-0.831091,-0.000282377,5.96046e-06,0.417948,0.000320375,-2.98023e-05,0.00668492,2.3505,5,0.1,8,7.4,-3.86474,-3.93579,0.531929,0.000101328,-0.00233054,9.38773e-05,-0.000357628,0.0110865,-0.000417233,0.00750883,5.87259e-06,5,0.1,9,7.4,-0.317611,2.30738,0.631778,-0.0817411,-0.327265,0.0163138,-0.149295,0.210524,-0.00458956,0.00752593,0.0501502,5,0.1
0,7.5,2.39999,0.608065,1.50058,3.39001e-05,0.343005,-0.00222791,-4.47035e-05,0.00198931,0.00507385,0.0115889,0.0741984,5,0.1,1,7.5,-0.23053,-0.0712845,0.618414,0.000119931,0.00376775,-3.09199e-05,-0.000403263,-0.0131191,9.68575e-05,0.00751389,8.15502e-06,5,0.1,2,7.5,0.899583,-2.19676,0.900063,0.00271741,0.358928,-0.000557676,-0.0108108,0.17792,0.000827014,0.0379835,0.120212,5,0.1,3,7.5,-0.0598694,-2.09932,0.602846,0.41493,0.00322387,0.00850027,-0.0246989,0.000536442,0.00869855,0.008817,0.225622,5,0.1,4,7.5,0.477006,0.199845,0.599939,-0.359699,0.00244859,5.46686e-05,0.258762,-0.0446141,-1.11759e-05,0.0130919,0.201427,5,0.1,5,7.5,3.82559,-3.7869,0.542302,-4.80562e-05,1.04308e-05,-2.6077e-06,0.000223517,-2.98023e-05,7.45058e-06,0.00950544,6.2454e-09,5,0.1,6,7.5,0.827075,-2.42064,0.5,-0.530715,0.043622,0,-0.775609,0.209555,0,0.0118015,2.72147,5,0.1,7,7.5,1.36835,0.150289,0.599995,-0.821953,-0.000253646,3.44589e-06,-0.140987,0.000264496,-1.86265e-05,0.00668492,2.3505,5,0.1,8,7.5,-3.86473,-3.93597,0.531936,6.59376e-05,-0.00128113,5.34579e-05,-0.000342727,0.00976026,-0.00037998,0.00750883,5.87259e-06,5,0.1,9,7.5,-0.326552,2.27562,0.633388,-0.097031,-0.308635,0.0159068,-0.146968,0.175178,-0.00424683,0.00752593,0.0501502,5,0.1
0,7.6,2.4,0.642288,1.50038,2.98023e-05,0.340216,-0.00172257,0,-0.0715256,0.00488758,0.0114326,0.106075,5,0.1,1,7.6,-0.23052,-0.0709716,0.618411,8.12113e-05,0.00251345,-2.08616e-05,-0.000365078,-0.0117756,8.9407e-05,0.00643408,6.61525e-06,5,0.1,2,7.6,0.899803,-2.16016,0.900011,0.00170022,0.370878,-0.000466406,-0.00932813,0.0474453,0.000953674,0.0361044,0.0656827,5,0.1,3,7.6,-0.0186381,-2.09905,0.603734,0.408,0.00157952,0.00918359,-0.125943,-0.036478,0.00452995,0.00807774,0.171028,5,0.1,4,7.6,0.442406,0.199909,0.599945,-0.331418,-0.000781938,5.21541e-05,0.311419,-0.0209287,0,0.0113896,0.324897,5,0.1,5,7.6,3.82559,-3.7869,0.542302,-2.98023e-05,5.96046e-06,-1.49012e-06,0.000238419,0,0,0.00969293,6.04233e-09,5,0.1,6,7.6,0.76989,-2.41531,0.5,-0.613388,0.0621915,0,-0.803024,0.166416,0,0.0100522,2.53852,5,0.1,7,7.6,1.28516,0.150265,0.599996,-0.842822,-0.00022836,2.98023e-06,-0.205815,0.00026077,-5.96046e-05,0.00952155,2.27869,5,0.1,8,7.6,-3.86473,-3.93605,0.53194,2.98023e-05,-0.000405312,1.78814e-05,-0.000119209,0.0077486,-0.000298023,0.00672794,3.53937e-06,5,0.1,9,7.6,-0.336922,2.24566,0.634954,-0.109524,-0.290024,0.0153482,-0.0963062,0.206113,-0.00739098,0.00906984,0.0226872,5,0.1
0,7.7,2.4,0.676129,1.50023,2.79397e-05,0.337785,-0.00125598,-4.47035e-05,0.000145286,0.00440329,0.0114326,0.106075,5,0.1,1,7.7,-0.230514,-0.0707772,0.61841,4.65894e-05,0.00139761,-1.23866e-05,-0.000321306,-0.0103852,7.82311e-05,0.00643408,6.61525e-06,5,0.1,2,7.7,0.89993,-2.1229,0.89997,0.000879448,0.373403,-0.000368617,-0.00706688,-0.00934303,0.000983477,0.0361044,0.0656827,5,0.1,3,7.7,0.0215654,-2.09912,0.604674,0.396026,-0.0036303,0.00959495,-0.128081,-0.0798255,0.00325218,0.00807774,0.171028,5,0.1,4,7.7,0.410777,0.199691,0.59995,-0.301437,-0.00373409,5.15953e-05,0.294741,-0.0310279,-1.49012e-05,0.0113896,0.324897,5,0.1,5,7.7,3.82558,-3.7869,0.542302,-8.19564e-06,5.58794e-06,-1.39698e-06,0.000178814,-1.49012e-05,3.72529e-06,0.00969293,6.04233e-09,5,0.1,6,7.7,0.7046,-2.40855,0.5,-0.690618,0.0704009,0,-0.696633,0.00850856,0,0.0100522,2.53852,5,0.1,7,7.7,1.19994,0.150243,0.599996,-0.860159,-0.000205822,-1.76951e-06,-0.122577,0.000199303,-4.09782e-05,0.00952155,2.27869,5,0.1,8,7.7,-3.86473,-3.93606,0.53194,1.60187e-05,0.000287965,-9.49949e-06,-0.000163913,0.00603497,-0.000245869,0.00672794,3.53937e-06,5,0.1,9,7.7,-0.348313,2.21767,0.63645,-0.117725,-0.269676,0.014565,-0.0628512,0.207439,-0.00860915,0.00906984,0.0226872,5,0.1
0,7.8,2.4,0.709873,1.50013,2.98023e-05,0.33634,-0.000852346,-0.000238419,-0.0453591,0.0038147,0.0132219,0.181173,5,0.1,1,7.8,-0.23051,-0.070686,0.618409,1.71363e-05,0.000462122,-4.47035e-06,-0.000245869,-0.00823289,5.96046e-05,0.00660337,3.99598e-06,5,0.1,2,7.8,0.899986,-2.08578,0.899938,0.000289083,0.366986,-0.000271201,-0.00479817,-0.126958,0.00089407,0.0365569,0.0439378,5,0.1,3,7.8,0.0604273,-2.1,0.605645,0.379951,-0.0151157,0.00976175,-0.203208,-0.144958,-0.000238419,0.0108243,0.228108,5,0.1,4,7.8,0.382122,0.199191,0.599955,-0.271386,-0.00586994,4.91738e-05,0.310585,-0.00760704,0,0.0114912,0.711568,5,0.1,5,7.8,3.82558,-3.7869,0.542302,5.96046e-06,0,-1.49012e-06,0.000119209,0.000119209,2.98023e-05,0.00964057,6.04676e-09,5,0.1,6,7.8,0.632532,-2.40166,0.5,-0.745174,0.0658751,0,-0.364095,-0.0902414,0,0.00975241,2.43421,5,0.1,7,7.8,1.11353,0.150223,0.599995,-0.866026,-0.00018701,-2.98023e-06,0,0.000186265,-5.96046e-05,0.0096713,0.496623,5,0.1,8,7.8,-3.86473,-3.936,0.531938,0,0.000798702,-2.98023e-05,-0.000119209,0.00393391,-0.000208616,0.00654959,1.52694e-06,5,0.1,9,7.8,-0.360312,2.19179,0.63786,-0.12131,-0.247461,0.0135735,-0.00585616,0.24116,-0.0114441,0.0071638,0.0132363,5,0.1
0,7.9,2.40001,0.743597,1.50006,9.68575e-06,0.340466,-0.000517443,-0.000149012,0.095617,0.00290573,0.0132219,0.181173,5,0.1,1,7.9,-0.23051,-0.0706782,0.618409,-5.12227e-06,-0.000275974,1.02445e-06,-0.00019744,-0.00645779,4.84288e-05,0.00660337,3.99598e-06,5,0.1,2,7.9,0.899995,-2.04969,0.899915,-8.99658e-05,0.354817,-0.000182725,-0.00286847,-0.129759,0.000864267,0.0365569,0.0439378,5,0.1,3,7.9,0.0976228,-2.10237,0.606649,0.365538,-0.0332929,0.0105632,-0.107914,-0.204861,0.0140183,0.0108243,0.228108,5,0.1,4,7.9,0.356468,0.198466,0.59996,-0.242254,-0.00885634,4.85219e-05,0.277778,-0.0224346,-1.86265e-05,0.0114912,0.711568,5,0.1,5,7.9,3.82559,-3.7869,0.542302,1.60187e-05,8.19564e-06,1.02445e-06,7.45058e-05,2.98023e-05,1.86265e-05,0.00964057,6.04676e-09,5,0.1,6,7.9,0.555717,-2.3957,0.5,-0.794059,0.0518508,0,-0.542663,-0.178993,0,0.00975241,2.43421,5,0.1,7,7.9,1.02704,0.150205,0.599995,-0.861944,-0.000170991,-7.26432e-06,0.109147,0.000141561,-2.98023e-05,0.0096713,0.496623,5,0.1,8,7.9,-3.86473,-3.9359,0.531934,-1.19209e-05,0.00112206,-4.71249e-05,-0.000119209,0.0025332,-0.000141561,0.00654959,1.52694e-06,5,0.1,9,7.9,-0.372441,2.16822,0.63916,-0.120849,-0.224033,0.0124296,0.0187606,0.232503,-0.01169,0.0071638,0.0132363,5,0.1
0,8,2.40001,0.778137,1.50002,0,0.349873,-0.000268221,-0.000238419,0.068903,0.00202656,0.0118448,0.110987,5,0.1,1,8,-0.230511,-0.0707347,0.618409,-2.19792e-05,-0.000818819,4.47035e-06,-0.00012666,-0.00437349,5.96046e-05,0.0095478,1.78185e-06,5,0.1,2,8,0.899974,-2.01495,0.899901,-0.000299513,0.338823,-9.98378e-05,-0.00140071,-0.198841,0.000715256,0.0372762,0.0792396,5,0.1,3,8,0.133641,-2.10673,0.607784,0.354435,-0.0536978,0.0121728,-0.130624,-0.192761,0.0164211,0.00874607,0.152737,5,0.1,4,8,0.333615,0.197622,0.599965,-0.214862,-0.00611246,4.61936e-05,0.273988,0.0900701,-2.98023e-05,0.0111589,1.54155,5,0.1,5,8,3.82559,-3.7869,0.542302,1.78814e-05,1.19209e-05,1.49012e-06,0.000238419,0,2.98023e-05,0.0101935,8.34076e-09,5,0.1,6,8,0.473781,-2.39148,0.5,-0.841515,0.0320792,0,-0.355482,-0.207543,0,0.0111749,2.12979,5,0.1,7,8,0.94175,0.150189,0.599994,-0.839695,-0.000157207,-1.04308e-05,0.353366,0.00013411,2.98023e-05,0.00782045,1.66925,5,0.1,8,8,-3.86473,-3.93578,0.531929,-2.38419e-05,0.00129938,-5.81145e-05,-0.000119209,0.00107288,-2.98023e-05,0.00862147,4.95978e-07,5,0.1,9,8,-0.384367,2.147,0.640343,-0.116985,-0.200135,0.0111938,0.0605881,0.248313,-0.013113,0.00716245,0.00416144,5,0.1
0,8.1,2.4,0.813542,1.5,-1.86265e-05,0.358431,-9.87202e-05,-0.000149012,0.0813529,0.00138581,0.0118448,0.110987,5,0.1,1,8.1,-0.230514,-0.0708358,0.61841,-3.26661e-05,-0.00117871,9.40636e-06,-8.47504e-05,-0.00281166,3.35276e-05,0.0095478,1.78185e-06,5,0.1,2,8.1,0.899939,-1.98186,0.899894,-0.000389386,0.324453,-3.43658e-05,-0.00045076,-0.108883,0.000584871,0.0372762,0.0792396,5,0.1,3,8.1,0.168553,-2.11329,0.609068,0.344554,-0.0792593,0.0133567,-0.0849888,-0.295848,0.00723451,0.00874607,0.152737,5,0.1,4,8.1,0.313423,0.19749,0.599969,-0.189587,0.00623313,4.28408e-05,0.236474,0.245883,-3.72529e-05,0.0111589,1.54155,5,0.1,5,8.1,3.82559,-3.78689,0.542302,3.53903e-05,1.00583e-05,3.91155e-06,0.00013411,-4.47035e-05,1.49012e-05,0.0101935,8.34076e-09,5,0.1,6,8.1,0.388351,-2.38859,0.5,-0.862628,0.0319351,0,-0.0876953,0.164196,0,0.0111749,2.12979,5,0.1,7,8.1,0.859803,0.149933,0.599993,-0.796514,-0.00698664,-7.35745e-06,0.516899,-0.121513,3.35276e-05,0.00782045,1.66925,5,0.1,8,8.1,-3.86473,-3.93565,0.531923,-3.39001e-05,0.00135601,-5.93252e-05,-7.45058e-05,8.9407e-05,3.72529e-06,0.00862147,4.95978e-07,5,0.1,9,8.1,-0.395727,2.12822,0.641396,-0.109834,-0.175591,0.0098763,0.083359,0.244111,-0.0132918,0.00716245,0.00416144,5,0.1
0,8.2,2.4,0.849673,1.5,-2.98023e-05,0.362603,1.19209e-05,0,-0.0123978,0.000834465,0.0157611,0.0617791,5,0.1,1,8.2,-0.230518,-0.0709651,0.618411,-3.91155e-05,-0.00138078,1.19209e-05,-3.72529e-05,-0.00123307,2.98023e-05,0.00876509,5.76369e-07,5,0.1,2,8.2,0.899899,-1.94994,0.899894,-0.000399351,0.313541,1.63913e-05,0.000208616,-0.123978,0.000447035,0.0373866,0.0655094,5,0.1,3,8.2,0.202538,-2.12271,0.610425,0.33437,-0.10891,0.0136226,-0.131346,-0.280499,-0.00181794,0.00790767,0.0935277,5,0.1,4,8.2,0.295618,0.2,0.599973,-0.16672,0.0504162,3.8743e-05,0.224397,0.622265,-5.96046e-05,0.0112039,3.51404,5,0.1,5,8.2,3.82559,-3.78689,0.542303,4.17233e-05,5.96046e-06,4.47035e-06,0,0,0,0.00974347,4.93425e-09,5,0.1,6,8.2,0.301942,-2.38423,0.5,-0.86312,0.0576913,0,0.0580919,0.319123,0,0.00499154,1.08702,5,0.1,7,8.2,0.783047,0.148529,0.599993,-0.73543,-0.0217561,-4.47035e-06,0.706971,-0.162058,2.98023e-05,0.00802278,1.4124,5,0.1,8,8.2,-3.86474,-3.93551,0.531917,-4.17233e-05,0.00132322,-5.81145e-05,0,-0.000834465,5.96046e-05,0.0108492,1.31535e-07,5,0.1,9,8.2,-0.406251,2.11188,0.642317,-0.100201,-0.151092,0.00852644,0.109509,0.246644,-0.0137091,0.00873646,0.00131148,5,0.1
0,8.3,2.4,0.885853,1.50001,-2.79397e-05,0.360471,7.54371e-05,4.47035e-05,-0.0433251,0.000454485,0.0157611,0.0617791,5,0.1,1,8.3,-0.230522,-0.0711075,0.618412,-4.13973e-05,-0.00144888,1.39698e-05,-9.31323e-06,-0.000149012,7.45058e-06,0.00876509,5.76369e-07,5,0.1,2,8.3,0.899861,-1.91903,0.899897,-0.000351761,0.305916,5.65313e-05,0.000696629,-0.0493526,0.000353903,0.0373866,0.0655094,5,0.1,3,8.3,0.23535,-2.13503,0.611769,0.321891,-0.137367,0.0131909,-0.12969,-0.273958,-0.00678003,0.00790767,0.0935277,5,0.1,4,8.3,0.280021,0.207937,0.599977,-0.145625,0.106288,3.31551e-05,0.200298,0.499773,-5.21541e-05,0.0112039,3.51404,5,0.1,5,8.3,3.8256,-3.78689,0.542303,3.98606e-05,4.47035e-06,4.37722e-06,-4.47035e-05,-2.98023e-05,-3.72529e-06,0.00974347,4.93425e-09,5,0.1,6,8.3,0.217796,-2.37804,0.5,-0.803225,0.0561357,0,1.05369,-0.288159,0,0.00499154,1.08702,5,0.1,7,8.3,0.712672,0.14525,0.599992,-0.674955,-0.0461482,-1.58325e-06,0.533521,-0.301453,2.6077e-05,0.00802278,1.4124,5,0.1,8,8.3,-3.86474,-3.93539,0.531911,-4.17233e-05,0.0012137,-5.16884e-05,0,-0.0013411,7.07805e-05,0.0108492,1.31535e-07,5,0.1,9,8.3,-0.415704,2.09798,0.643102,-0.0886783,-0.127007,0.00717714,0.120509,0.234917,-0.0132546,0.00873646,0.00131148,5,0.1
0,8.4,2.4,0.921545,1.50001,-2.98023e-05,0.351778,0.000104308,0.000238419,-0.139147,0.000178814,0.0127683,0.0429511,5,0.1,1,8.4,-0.230526,-0.0712515,0.618414,-4.09782e-05,-0.00141542,1.3411e-05,2.23517e-05,0.000793487,2.98023e-05,0.00883479,1.59059e-07,5,0.1,2,8.4,0.89983,-1.8887,0.899904,-0.000269711,0.300112,8.64267e-05,0.00089407,-0.0815392,0.000208616,0.0325876,0.104376,5,0.1,3,8.4,0.266817,-2.15003,0.613047,0.306516,-0.161207,0.0122786,-0.185505,-0.192404,-0.0113845,0.0103926,0.0728092,5,0.1,4,8.4,0.266438,0.220886,0.59998,-0.126187,0.150961,2.83122e-05,0.190377,0.394985,-5.96046e-05,0.00623266,0.326036,5,0.1,5,8.4,3.8256,-3.78689,0.542304,2.98023e-05,0,4.47035e-06,0.000119209,0,-2.98023e-05,0.00831732,6.0946e-09,5,0.1,6,8.4,0.143796,-2.37444,0.5,-0.668049,0.0111759,0,1.57929,-0.561714,0,0.0058914,0.326615,5,0.1,7,8.4,0.647765,0.139063,0.599992,-0.623389,-0.0777666,1.49012e-06,0.520259,-0.312455,0,0.00975791,1.85868,5,0.1,8,8.4,-3.86474,-3.93527,0.531907,-3.57628e-05,0.00106692,-4.47035e-05,-0.000119209,-0.00178814,8.9407e-05,0.00830271,7.90403e-08,5,0.1,9,8.4,-0.423955,2.08644,0.643754,-0.0762001,-0.104147,0.00588149,0.128448,0.221968,-0.0126064,0.00783135,0.000791001,5,0.1
0,8.5,2.39999,0.956081,1.50003,-9.68575e-06,0.339115,0.000110269,0.000149012,-0.128008,-4.47035e-05,0.0127683,0.0429511,5,0.1,1,8.5,-0.23053,-0.071388,0.618415,-3.79747e-05,-0.00130553,1.51806e-05,3.81842e-05,0.00137184,1.11759e-05,0.00883479,1.59059e-07,5,0.1,2,8.5,0.899807,-1.85887,0.899914,-0.000177603,0.298084,0.000102818,0.000927597,0.017114,0.000119209,0.0325876,0.104376,5,0.1,3,8.5,0.29662,-2.16715,0.614215,0.290004,-0.18103,0.011069,-0.156857,-0.188991,-0.0128113,0.0103926,0.0728092,5,0.1,4,8.5,0.253949,0.237556,0.599982,-0.130508,0.178595,2.12342e-05,-0.225322,0.164968,-7.45058e-05,0.00623266,0.326036,5,0.1,5,8.5,3.82561,-3.78689,0.542304,3.68804e-05,-1.49012e-06,1.95578e-06,4.47035e-05,-2.98023e-05,-1.86265e-05,0.00831732,6.0946e-09,5,0.1,6,8.5,0.0844753,-2.37645,0.5,-0.522372,-0.0536196,0,1.33882,-0.697106,0,0.0058914,0.326615,5,0.1,7,8.5,0.587262,0.129642,0.599992,-0.592934,-0.110936,1.58325e-06,0.14298,-0.330194,3.72529e-06,0.00975791,1.85868,5,0.1,8,8.5,-3.86475,-3.93517,0.531903,-4.39584e-05,0.000882149,-3.62284e-05,-2.98023e-05,-0.00187755,7.82311e-05,0.00830271,7.90403e-08,5,0.1,9,8.5,-0.430932,2.0771,0.644281,-0.0633786,-0.0829116,0.00467096,0.12712,0.202119,-0.0115559,0.00783135,0.000791001,5,0.1
0,8.6,2.39999,0.989278,1.50004,5.96046e-06,0.323851,9.83477e-05,0,-0.186533,-0.000119209,0.0123014,0.0801853,5,0.1,1,8.6,-0.230533,-0.071511,0.618417,-3.39001e-05,-0.00114739,1.3411e-05,5.21541e-05,0.00175461,2.98023e-05,0.00776536,9.52601e-08,5,0.1,2,8.6,0.899794,-1.82898,0.899925,-8.9407e-05,0.299412,0.000110269,0.000864267,-0.00792742,0,0.0343001,0.0893316,5,0.1,3,8.6,0.324803,-2.18609,0.615256,0.273103,-0.196469,0.00972003,-0.189438,-0.109434,-0.0141263,0.00926789,0.0338656,5,0.1,4,8.6,0.239435,0.255911,0.599984,-0.162124,0.1854,1.3411e-05,-0.367202,-0.0216365,-5.96046e-05,0.008216,0.22783,5,0.1,5,8.6,3.82561,-3.78689,0.542304,3.57628e-05,-5.96046e-06,0,-0.000119209,0.000119209,0,0.00707474,6.47357e-09,5,0.1,6,8.6,0.0385644,-2.38527,0.5,-0.399421,-0.121784,0,1.12427,-0.638366,0,0.00766244,0.387976,5,0.1,7,8.6,0.528428,0.117006,0.599993,-0.585224,-0.140318,2.98023e-06,0.0526905,-0.243317,-2.98023e-05,0.00790276,2.30395,5,0.1,8,8.6,-3.86475,-3.9351,0.531899,-4.76837e-05,0.000697374,-2.83122e-05,0,-0.00178814,8.9407e-05,0.00938587,8.35709e-08,5,0.1,9,8.6,-0.436643,2.06978,0.644692,-0.0509359,-0.0638306,0.00357777,0.121012,0.179172,-0.010252,0.00720544,0.000712007,5,0.1
0,8.7,2.39999,1.02094,1.50004,5.96046e-06,0.311014,8.21427e-05,0,-0.0909902,-0.000201166,0.0123014,0.0801853,5,0.1,1,8.7,-0.230537,-0.0716166,0.618418,-2.8545e-05,-0.000961625,1.4808e-05,5.58794e-05,0.0019283,3.72529e-06,0.00776536,9.52601e-08,5,0.1,2,8.7,0.899789,-1.79889,0.899936,-4.00469e-06,0.303475,0.000108592,0.000815839,0.0648946,-2.98023e-05,0.0343001,0.0893316,5,0.1,3,8.7,0.351175,-2.20622,0.616157,0.254271,-0.205292,0.00830619,-0.193266,-0.0594407,-0.0141002,0.00926789,0.0338656,5,0.1,4,8.7,0.221145,0.274415,0.599985,-0.205235,0.185111,7.45058e-06,-0.461852,0.00445545,-5.96046e-05,0.008216,0.22783,5,0.1,5,8.7,3.82561,-3.78689,0.542304,2.38419e-05,2.23517e-06,0,-0.000119209,2.98023e-05,0,0.00707474,6.47357e-09,5,0.1,6,8.7,0.00361616,-2.39938,0.5,-0.30527,-0.149107,0,0.780223,0.0361502,0,0.00766244,0.387976,5,0.1,7,8.7,0.469492,0.102142,0.599989,-0.598619,-0.153391,-0.000109151,-0.256114,-0.029401,-0.0019744,0.00790276,2.30395,5,0.1,8,8.7,-3.86476,-3.93503,0.531897,-4.58211e-05,0.000523031,-2.00234e-05,4.47035e-05,-0.00166893,7.07805e-05,0.00938587,8.35709e-08,5,0.1,9,8.7,-0.441146,2.06426,0.645001,-0.0392922,-0.0470918,0.00261832,0.11107,0.155076,-0.00890344,0.00720544,0.000712007,5,0.1
0,8.8,2.4,1.05161,1.50005,5.96046e-06,0.302067,5.96046e-05,0,-0.102937,-0.000178814,0.0126629,0.0670956,5,0.1,1,8.8,-0.230539,-0.0717031,0.618419,-2.30968e-05,-0.000767596,1.3411e-05,5.21541e-05,0.00192598,0,0.00905049,1.02126e-07,5,0.1,2,8.8,0.899793,-1.76827,0.899946,7.15256e-05,0.308233,0.000102818,0.000625849,0.0130534,-2.98023e-05,0.0344583,0.122497,5,0.1,3,8.8,0.375589,-2.22691,0.616918,0.233464,-0.207126,0.00690818,-0.226676,0.0271797,-0.0137985,0.00778928,0.0130888,5,0.1,4,8.8,0.19838,0.292915,0.599986,-0.248759,0.184344,1.49012e-06,-0.384442,-0.0278652,-2.98023e-05,0.00630489,0.20078,5,0.1,5,8.8,3.82561,-3.78689,0.542304,1.19209e-05,5.96046e-06,0,-0.000119209,0,0,0.00933896,5.06101e-09,5,0.1,6,8.8,-0.0234328,-2.41338,0.5,-0.239494,-0.124657,0,0.552651,0.407696,0,0.00934765,0.286724,5,0.1,7,8.8,0.408275,0.0869318,0.599967,-0.62523,-0.148316,-0.000347197,-0.228435,0.121001,-0.0026226,0.00893042,2.68495,5,0.1,8,8.8,-3.86476,-3.93499,0.531895,-4.17233e-05,0.000363588,-1.3411e-05,0.000119209,-0.00143051,5.96046e-05,0.00814723,6.93595e-08,5,0.1,9,8.8,-0.444542,2.06028,0.645221,-0.0288554,-0.0328958,0.00180453,0.097096,0.128627,-0.00739098,0.00781517,0.000541391,5,0.1
0,8.9,2.4,1.08148,1.50006,5.96046e-06,0.296633,3.85568e-05,0,-0.0269711,-0.000230968,0.0126629,0.0670956,5,0.1,1,8.9,-0.230541,-0.0717703,0.618421,-1.7928e-05,-0.000578235,1.22935e-05,5.02914e-05,0.00183657,-1.49012e-05,0.00905049,1.02126e-07,5,0.1,2,8.9,0.899803,-1.73719,0.899956,0.00012666,0.314575,9.76957e-05,0.000469387,0.0889301,-7.07805e-05,0.0344583,0.122497,5,0.1,3,8.9,0.397801,-2.24741,0.617541,0.210692,-0.202091,0.0055762,-0.231281,0.0765175,-0.0127926,0.00778928,0.0130888,5,0.1,4,8.9,0.17169,0.311538,0.599986,-0.283561,0.190672,6.51926e-07,-0.296627,0.127066,1.11759e-05,0.00630489,0.20078,5,0.1,5,8.9,3.82561,-3.78689,0.542304,3.72529e-07,4.47035e-06,0,-0.000104308,-2.98023e-05,0,0.00933896,5.06101e-09,5,0.1,6,8.9,-0.0447806,-2.42309,0.5,-0.188994,-0.0639994,0,0.460641,0.751421,0,0.00934765,0.286724,5,0.1,7,8.9,0.344754,0.0732788,0.599905,-0.643147,-0.119876,-0.00100136,-0.107087,0.413836,-0.00949204,0.00893042,2.68495,5,0.1,8,8.9,-3.86477,-3.93496,0.531894,-3.01749e-05,0.00022985,-8.00937e-06,0.000104308,-0.0012368,4.47035e-05,0.00814723,6.93595e-08,5,0.1,9,8.9,-0.446964,2.05759,0.645366,-0.0198116,-0.021207,0.00113314,0.083277,0.104919,-0.00601634,0.00781517,0.000541391,5,0.1
0,9,2.4,1.11099,1.50006,5.96046e-06,0.293043,1.78814e-05,0,-0.0599623,-0.000298023,0.0112659,0.106179,5,0.1,1,9,-0.230543,-0.0718192,0.618422,-1.30385e-05,-0.00040438,8.9407e-06,4.47035e-05,0.00162423,0,0.00808979,8.72033e-08,5,0.1,2,9,0.899818,-1.70533,0.899966,0.000163913,0.321746,8.9407e-05,0.000298023,0.0366569,-0.000119209,0.034069,0.0726808,5,0.1,3,9,0.41769,-2.26714,0.618037,0.186817,-0.191379,0.00435859,-0.247598,0.138879,-0.0115633,0.00915888,0.00635811,5,0.1,4,9,0.142096,0.331311,0.599986,-0.305624,0.204974,4.47035e-06,-0.134986,0.138521,0,0.00622081,0.206929,5,0.1,5,9,3.82561,-3.78689,0.542304,-5.96046e-06,0,0,-0.000119209,0,0,0.00731128,4.91187e-09,5,0.1,6,9,-0.0615072,-2.42554,0.5,-0.146778,0.0161171,0,0.386279,0.809789,0,0.00688494,0.192976,5,0.1,7,9,0.280256,0.0636123,0.599753,-0.642921,-0.0716221,-0.00207275,0.126064,0.524456,-0.0112355,0.00862418,2.81566,5,0.1,8,9,-3.86477,-3.93494,0.531894,-1.78814e-05,0.000113249,-4.47035e-06,0,-0.000834465,2.98023e-05,0.00824532,4.03655e-08,5,0.1,9,9,-0.448555,2.05596,0.645452,-0.0122786,-0.0119328,0.000602007,0.0671148,0.0805855,-0.00455976,0.00813262,0.000313155,5,0.1
0,9.1,2.4,1.14022,1.50006,5.96046e-06,0.293068,-9.12696e-06,0,0.0364333,-0.000245869,0.0112659,0.106179,5,0.1,1,9.1,-0.230544,-0.0718519,0.618423,-8.82428e-06,-0.000252028,7.82311e-06,3.81842e-05,0.00140769,-1.49012e-05,0.00808979,8.72033e-08,5,0.1,2,9.1,0.899835,-1.67294,0.899974,0.000187475,0.32585,7.73929e-05,0.000175089,0.0295267,-0.000122935,0.034069,0.0726808,5,0.1,3,9.1,0.435159,-2.28555,0.618417,0.162756,-0.176546,0.00327276,-0.235545,0.159904,-0.0101216,0.00915888,0.00635811,5,0.1,4,9.1,0.111112,0.352832,0.599987,-0.311503,0.227899,2.468e-05,0.0177924,0.286408,0.000361353,0.00622081,0.206929,5,0.1,5,9.1,3.82561,-3.78689,0.542304,-1.56462e-05,-1.49012e-06,0,-5.96046e-05,-2.98023e-05,0,0.00731128,4.91187e-09,5,0.1,6,9.1,-0.0743453,-2.41978,0.5,-0.110897,0.0992458,0,0.331488,0.819728,0,0.00688494,0.192976,5,0.1,7,9.1,0.21664,0.0594804,0.599431,-0.628441,-0.00793099,-0.00483003,0.182462,0.710502,-0.0398308,0.00862418,2.81566,5,0.1,8,9.1,-3.86477,-3.93494,0.531893,-1.63913e-05,3.68804e-05,-1.95578e-06,2.98023e-05,-0.000700355,1.86265e-05,0.00824532,4.03655e-08,5,0.1,9,9.1,-0.449469,2.05513,0.645491,-0.00624745,-0.00487454,0.000203494,0.0533145,0.0606328,-0.00341609,0.00813262,0.000313155,5,0.1
0,9.2,2.4,1.1697,1.50006,5.96046e-06,0.296178,-2.98023e-05,0,0.00834465,-0.000178814,0.0114943,0.360998,5,0.1,1,9.2,-0.230544,-0.0718705,0.618423,-5.21541e-06,-0.00012517,5.96046e-06,2.98023e-05,0.00111759,-2.98023e-05,0.00968235,5.38852e-08,5,0.1,2,9.2,0.899855,-1.64033,0.899981,0.000196695,0.324979,6.4075e-05,5.96046e-05,-0.0578165,-8.9407e-05,0.0329567,0.0546322,5,0.1,3,9.2,0.450265,-2.30236,0.618696,0.139415,-0.159109,0.00233948,-0.232264,0.1899,-0.00849366,0.00828824,0.00192175,5,0.1,4,9.2,0.0803038,0.377071,0.599992,-0.302166,0.256419,6.70552e-05,0.167569,0.259191,0.000506639,0.00537884,0.206217,5,0.1,5,9.2,3.82561,-3.78689,0.542304,-2.38419e-05,-5.96046e-06,0,0,0,0,0.00769899,4.24392e-09,5,0.1,6,9.2,-0.0838676,-2.40596,0.5,-0.0804432,0.174415,0,0.277817,0.6603,0,0.00912681,0.118084,5,0.1,7,9.2,0.154927,0.0622829,0.598729,-0.603323,0.0636537,-0.0093177,0.332031,0.691805,-0.0467598,0.00818114,2.8185,5,0.1,8,9.2,-3.86477,-3.93494,0.531893,-1.19209e-05,-2.38419e-05,0,0,-0.000476837,0,0.00798754,2.21634e-08,5,0.1,9,9.2,-0.449852,2.05492,0.645496,-0.00163838,0.000226498,-8.34465e-05,0.0388324,0.0414848,-0.00226498,0.010675,0.000136464,5,0.1
0,9.3,2.4,1.19974,1.50005,5.96046e-06,0.307276,-4.41447e-05,0,0.178032,-0.000111759,0.0114943,0.360998,5,0.1,1,9.3,-0.230545,-0.0718778,0.618424,-2.49129e-06,-2.50409e-05,2.98023e-06,2.32831e-05,0.000878703,-2.98023e-05,0.00968235,5.38852e-08,5,0.1,2,9.3,0.899874,-1.60804,0.899987,0.000199303,0.320958,5.46686e-05,-1.49012e-05,-0.0392348,-0.000100583,0.0329567,0.0546322,5,0.1,3,9.3,0.46307,-2.31731,0.61889,0.11694,-0.139667,0.00156248,-0.217477,0.198796,-0.00702217,0.00828824,0.00192175,5,0.1,4,9.3,0.0511433,0.404227,0.600004,-0.279032,0.288032,0.000205077,0.288292,0.340953,0.00204146,0.00537884,0.206217,5,0.1,5,9.3,3.82561,-3.78689,0.542304,-2.34693e-05,-6.33299e-06,0,1.49012e-05,-1.49012e-05,0,0.00769899,4.24392e-09,5,0.1,6,9.3,-0.0906047,-2.38538,0.5,-0.0551313,0.23505,0,0.227913,0.534683,0,0.00912681,0.118084,5,0.1,7,9.3,0.0954175,0.0722606,0.597541,-0.593541,0.136554,-0.0146047,-0.0701855,0.732035,-0.0556968,0.00818114,2.8185,5,0.1,8,9.3,-3.86477,-3.93494,0.531893,-1.04308e-05,-6.48201e-05,0,2.98023e-05,-0.000357628,0,0.00798754,2.21634e-08,5,0.1,9,9.3,-0.44984,2.05512,0.645478,0.00167512,0.00363328,-0.000268407,0.0274833,0.0269264,-0.00144541,0.010675,0.000136464,5,0.1
0,9.4,2.4,1.23139,1.50005,5.96046e-06,0.32559,-5.36442e-05,0,0.161946,0,0.00988396,2.94683,5,0.1,1,9.4,-0.230545,-0.0718763,0.618424,-3.72529e-07,4.95464e-05,0,2.23517e-05,0.000614673,-2.98023e-05,0.00754086,0.396221,5,0.1,2,9.4,0.899894,-1.57623,0.899992,0.000193715,0.314334,4.47035e-05,-8.9407e-05,-0.104606,-8.9407e-05,0.0338404,0.091302,5,0.1,3,9.4,0.4737,-2.33027,0.619014,0.0958934,-0.119418,0.000935793,-0.20346,0.205636,-0.00545382,0.00900855,0.000989133,5,0.1,4,9.4,0.024833,0.434653,0.600036,-0.245819,0.319079,0.000436604,0.369686,0.256777,0.00241399,0.00899526,0.198263,5,0.1,5,9.4,3.82561,-3.78689,0.542304,-2.38419e-05,-5.96046e-06,0,0.000119209,-0.000119209,0,0.00887302,4.98734e-09,5,0.1,6,9.4,-0.095064,-2.35953,0.5,-0.0349125,0.278461,0,0.176456,0.322342,0,0.00705534,0.175901,5,0.1,7,9.4,0.0354961,0.0894119,0.595809,-0.605769,0.204191,-0.0198886,-0.124685,0.596173,-0.0475049,0.0102008,2.60544,5,0.1,8,9.4,-3.86477,-3.93495,0.531893,-5.96046e-06,-9.53674e-05,0,0,-0.000119209,2.98023e-05,0.00685207,9.65976e-09,5,0.1,9,9.4,-0.449554,2.0556,0.645445,0.00387579,0.00567436,-0.000375509,0.0166744,0.0140667,-0.000745058,0.00798705,4.52315e-05,5,0.1
0,9.5,2.3997,1.26623,1.50004,-0.00850111,0.383022,-5.27129e-05,-0.151217,0.876084,2.23517e-05,0.00988396,2.94683,5,0.1,1,9.5,-0.231336,-0.0723488,0.618491,-0.02246,-0.0135233,0.00190698,-0.398942,-0.241578,0.0339001,0.00754086,0.396221,5,0.1,2,9.5,0.899913,-1.54512,0.899996,0.000182074,0.30911,3.58559e-05,-0.000145286,-0.0216067,-8.56817e-05,0.0338404,0.091302,5,0.1,3,9.5,0.482305,-2.34119,0.619082,0.0765163,-0.0991095,0.000453461,-0.18375,0.199541,-0.00419095,0.00900855,0.000989133,5,0.1,4,9.5,0.00223735,0.467971,0.6001,-0.204977,0.34781,0.000920426,0.436941,0.28904,0.00661984,0.00899526,0.198263,5,0.1,5,9.5,3.8256,-3.78689,0.542304,-1.37836e-05,-1.56462e-05,0,7.45058e-05,-5.96046e-05,0,0.00887302,4.98734e-09,5,0.1,6,9.5,-0.0977565,-2.33029,0.5,-0.019769,0.303846,0,0.126712,0.177801,0,0.00705534,0.175901,5,0.1,7,9.5,-0.026095,0.11214,0.593651,-0.628607,0.244061,-0.0226433,-0.279431,0.217285,-0.00965223,0.0102008,2.60544,5,0.1,8,9.5,-3.86477,-3.93496,0.531893,-5.58794e-06,-0.000105053,2.42144e-06,1.49012e-05,-5.96046e-05,1.49012e-05,0.00685207,9.65976e-09,5,0.1,9,9.5,-0.449097,2.05622,0.645405,0.0051382,0.00660866,-0.000422727,0.00875443,0.00497699,-0.000219792,0.00798705,4.52315e-05,5,0.1
0,9.6,2.39797,1.30934,1.50004,-0.0268817,0.481325,-5.06639e-05,-0.201583,1.00571,5.96046e-05,0.0123738,2.21013,5,0.1,1,9.6,-0.235894,-0.0751016,0.618878,-0.0708606,-0.0428503,0.00602007,-0.530057,-0.321295,0.0450611,0.00724953,0.298855,5,0.1,2,9.6,0.89993,-1.51433,0.899999,0.000163913,0.30627,2.68221e-05,-0.000178814,-0.0508428,-5.96046e-05,0.0424492,0.0764536,5,0.1,3,9.6,0.489073,-2.35012,0.619109,0.0592016,-0.0796914,9.53674e-05,-0.162318,0.187874,-0.00295043,0.00888563,0.000868515,5,0.1,4,9.6,-0.0160349,0.504057,0.600228,-0.16027,0.371972,0.00164658,0.449015,0.173897,0.00748038,0.00672748,0.194301,5,0.1,5,9.6,3.8256,-3.7869,0.542304,-5.96046e-06,-2.38419e-05,0,0,0,0,0.00811826,5.0414e-09,5,0.1,6,9.6,-0.0991789,-2.29931,0.5,-0.00944901,0.312883,0,0.0806078,-0.000596046,0,0.00829571,0.145157,5,0.1,7,9.6,-0.0902538,0.137118,0.591387,-0.652595,0.250724,-0.0222072,-0.162349,-0.0692976,0.0166297,0.00947015,1.64986,5,0.1,8,9.6,-3.86477,-3.93497,0.531894,0,-0.000107288,2.98023e-06,-0.000119209,0.000119209,2.98023e-05,0.0100943,6.07818e-09,5,0.1,9,9.6,-0.448551,2.05689,0.645362,0.00566542,0.00673532,-0.000423193,0.00199676,-0.00202656,0.000178814,0.00825918,1.44041e-05,5,0.1
0,9.7,2.39415,1.36298,1.50003,-0.0503909,0.594241,-4.48897e-05,-0.253543,1.17245,5.21541e-05,0.0123738,2.21013,5,0.1,1,9.7,-0.245599,-0.0814186,0.619757,-0.122481,-0.0867553,0.0119461,-0.485181,-0.51817,0.0685602,0.00724953,0.298855,5,0.1,2,9.7,0.899946,-1.48379,0.900002,0.0001451,0.305632,2.08616e-05,-0.000201166,0.0158772,-5.96046e-05,0.0424492,0.0764536,5,0.1,3,9.7,0.494217,-2.35717,0.619105,0.0440637,-0.0616986,-0.000151526,-0.140097,0.170991,-0.00200048,0.00888563,0.000868515,5,0.1,4,9.7,-0.0296896,0.542199,0.600443,-0.111946,0.390969,0.0027528,0.502038,0.180919,0.0135303,0.00672748,0.194301,5,0.1,5,9.7,3.8256,-3.7869,0.542304,-5.96046e-06,-2.34693e-05,0,0,1.49012e-05,0,0.00811826,5.0414e-09,5,0.1,6,9.7,-0.0997903,-2.2682,0.5,-0.00342438,0.3075,0,0.041848,-0.108778,0,0.00829571,0.145157,5,0.1,7,9.7,-0.155343,0.161539,0.589279,-0.640163,0.234929,-0.0196952,0.380068,-0.235264,0.0321269,0.00947015,1.64986,5,0.1,8,9.7,-3.86477,-3.93498,0.531894,-8.19564e-06,-9.53674e-05,5.02914e-06,-2.98023e-05,0.000119209,7.45058e-06,0.0100943,6.07818e-09,5,0.1,9,9.7,-0.447982,2.05755,0.645321,0.00562556,0.00628494,-0.000391249,-0.00256673,-0.00663102,0.00044331,0.00825918,1.44041e-05,5,0.1
0,9.8,2.38786,1.428,1.50003,-0.0749648,0.702003,-3.8743e-05,-0.226736,0.924766,5.96046e-05,0.0112295,1.37277,5,0.1,1,9.8,-0.260083,-0.0927481,0.6213,-0.164999,-0.139714,0.0188738,-0.353366,-0.511937,0.0663102,0.00774275,0.269709,5,0.1,2,9.8,0.899959,-1.45318,0.900004,0.00012517,0.305656,1.3411e-05,-0.000208616,-0.0312924,-2.98023e-05,0.0314325,0.112368,5,0.1,3,9.8,0.497962,-2.36252,0.619081,0.0312321,-0.0456631,-0.000306964,-0.116378,0.149131,-0.00119209,0.011445,0.000690611,5,0.1,4,9.8,-0.0383916,0.582044,0.600788,-0.062573,0.403899,0.00415593,0.473736,0.0602007,0.0137091,0.0103606,2.85548,5,0.1,5,9.8,3.8256,-3.7869,0.542304,-5.96046e-06,-2.38419e-05,0,0,0.000119209,0,0.0128289,2.17035e-09,5,0.1,6,9.8,-0.099973,-2.23818,0.5,-0.000673905,0.290978,0,0.0152476,-0.22161,0,0.00657407,0.047497,5,0.1,7,9.8,-0.216778,0.18366,0.587485,-0.582404,0.205785,-0.0160515,0.747815,-0.337824,0.0395179,0.00806628,1.60042,5,0.1,8,9.8,-3.86478,-3.93499,0.531895,-1.19209e-05,-8.9407e-05,5.96046e-06,0,0.000238419,0,0.00739374,6.45446e-09,5,0.1,9,9.8,-0.447439,2.05814,0.645285,0.00519603,0.00547171,-0.000338256,-0.00582635,-0.00929832,0.000566244,0.0101668,8.98803e-06,5,0.1
0,9.9,2.37921,1.50267,1.50003,-0.098091,0.788509,-3.29688e-05,-0.224337,0.758864,5.21541e-05,0.0112295,1.37277,5,0.1,1,9.9,-0.277903,-0.109521,0.623542,-0.187204,-0.19723,0.0260958,-0.101591,-0.601609,0.0738502,0.00774275,0.269709,5,0.1,2,9.9,0.899971,-1.42257,0.900005,0.000103842,0.307942,1.03377e-05,-0.000219792,0.0528768,-3.35276e-05,0.0314325,0.112368,5,0.1,3,9.9,0.500539,-2.36638,0.619046,0.0206532,-0.0317991,-0.000393111,-0.0950601,0.127494,-0.000555068,0.011445,0.000690611,5,0.1,4,9.9,-0.0426839,0.624178,0.601256,-0.0269656,0.450447,0.00504162,0.251937,0.761703,0.0044629,0.0103606,2.85548,5,0.1,5,9.9,3.8256,-3.7869,0.542304,-5.96046e-06,-1.37836e-05,0,0,7.45058e-05,0,0.0128289,2.17035e-09,5,0.1,6,9.9,-0.0999757,-2.21068,0.5,0.000513764,0.254895,0,0.00880193,-0.47189,0,0.00657407,0.047497,5,0.1,7,9.9,-0.270799,0.202457,0.586086,-0.493975,0.169447,-0.0118901,0.990474,-0.381062,0.0426508,0.00806628,1.60042,5,0.1,8,9.9,-3.86478,-3.935,0.531895,-1.00583e-05,-6.78003e-05,5.4948e-06,4.47035e-05,0.000178814,-1.11759e-05,0.00739374,6.45446e-09,5,0.1,9,9.9,-0.446952,2.05863,0.645254,0.00450835,0.00445619,-0.000276417,-0.00771508,-0.0107288,0.000655651,0.0101668,8.98803e-06,5,0.1
