id,t,px,py,pz,vx,vy,vz,ax,ay,az,planning_time,qp_cost,planning_report,size,id,t,px,py,pz,vx,vy,vz,ax,ay,az,planning_time,qp_cost,planning_report,size,id,t,px,py,pz,vx,vy,vz,ax,ay,az,planning_time,qp_cost,planning_report,size,id,t,px,py,pz,vx,vy,vz,ax,ay,az,planning_time,qp_cost,planning_report,size,id,t,px,py,pz,vx,vy,vz,ax,ay,az,planning_time,qp_cost,planning_report,size,id,t,px,py,pz,vx,vy,vz,ax,ay,az,planning_time,qp_cost,planning_report,size,id,t,px,py,pz,vx,vy,vz,ax,ay,az,planning_time,qp_cost,planning_report,size,id,t,px,py,pz,vx,vy,vz,ax,ay,az,planning_time,qp_cost,planning_report,size,id,t,px,py,pz,vx,vy,vz,ax,ay,az,planning_time,qp_cost,planning_report,size,id,t,px,py,pz,vx,vy,vz,ax,ay,az,planning_time,qp_cost,planning_report,size
0,0,-1.77169,-3.30464,0.577033,0,0,0,0,0,0,0.0130429,0.701747,5,0.1,1,0,3.75413,-0.0961266,0.685936,0,0,0,0,0,0,0.0199192,3.5122,5,0.1,2,0,-0.417807,2.18427,0.628454,0,0,0,0,0,0,0.012448,3.06209,5,0.1,3,0,5.79035,1.02704,0.649133,0,0,0,0,0,0,0.0154923,3.5122,5,0.1,4,0,-3.49824,-5.06895,0.668718,0,0,0,0,0,0,0.0208765,3.5122,5,0.1,5,0,-1.35306,2.29699,0.692819,0,0,0,0,0,0,0.0102825,3.5122,5,0.1,6,0,-0.218709,-0.50927,0.63747,0,0,0,0,0,0,0.00957284,3.5122,5,0.1,7,0,-1.81698,-2.68091,0.644867,0,0,0,0,0,0,0.00849346,3.51219,5,0.1,8,0,-2.83739,-0.135333,0.568554,0,0,0,0,0,0,0.0123284,3.5122,5,0.1,9,0,3.76356,-3.50413,0.609581,0,0,0,0,0,0,0.0296158,3.51219,5,0.1
0,0.1,-1.77125,-3.30448,0.57784,0.0124965,0.00458211,0.0229063,0.222161,0.0814497,0.407223,0.0130429,0.701747,5,0.1,1,0.1,3.75204,-0.0960001,0.685969,-0.059152,0.00359111,0.000934582,-1.05159,0.0638422,0.0166185,0.0199192,3.5122,5,0.1,2,0.1,-0.417057,2.18591,0.629207,0.0212716,0.0463992,0.0213823,0.378164,0.824869,0.380132,0.012448,3.06209,5,0.1,3,0.1,5.78833,1.02755,0.649106,-0.0574917,0.0143787,-0.000765361,-1.0221,0.255622,-0.0136048,0.0154923,3.5122,5,0.1,4,0.1,-3.49816,-5.06688,0.668981,0.00217035,0.0587583,0.00745598,0.0385642,1.04457,0.132553,0.0208765,3.5122,5,0.1,5,0.1,-1.35098,2.29679,0.69285,0.0590103,-0.00545494,0.000899006,1.04906,-0.0969917,0.0159778,0.0102825,3.5122,5,0.1,6,0.1,-0.218678,-0.507183,0.637454,0.000864617,0.0592601,-0.000471342,0.0153715,1.05351,-0.00838563,0.00957284,3.5122,5,0.1,7,0.1,-1.81903,-2.68132,0.644869,-0.0580937,-0.0117406,5.75557e-05,-1.03277,-0.208735,0.00102073,0.00849346,3.51219,5,0.1,8,0.1,-2.83531,-0.135099,0.56858,0.0588924,0.00662256,0.000729971,1.04699,0.117733,0.0129789,0.0123284,3.5122,5,0.1,9,0.1,3.76346,-3.50205,0.609575,-0.00302196,0.0591904,-0.000176951,-0.0537336,1.05229,-0.00314415,0.0296158,3.51219,5,0.1
0,0.2,-1.76871,-3.30355,0.582493,0.039494,0.0144839,0.0723943,0.296235,0.1086,0.542998,0.014437,0.575747,5,0.1,1,0.2,3.74003,-0.0952706,0.686158,-0.18695,0.0113497,0.00295341,-1.40214,0.0851266,0.0221729,0.0226828,2.92579,5,0.1,2,0.2,-0.412736,2.19533,0.633551,0.0672281,0.146645,0.0675797,0.50424,1.09982,0.506818,0.0179386,2.51956,5,0.1,3,0.2,5.77665,1.03047,0.648951,-0.181711,0.0454456,-0.00241846,-1.36256,0.340819,-0.0181794,0.0168142,2.92581,5,0.1,4,0.2,-3.49772,-5.05494,0.670495,0.00685453,0.185704,0.0235632,0.0514984,1.3926,0.176758,0.0186145,2.92581,5,0.1,5,0.2,-1.339,2.29569,0.693033,0.1865,-0.0172436,0.00284165,1.39874,-0.129342,0.0213087,0.0106669,2.92579,5,0.1,6,0.2,-0.218502,-0.495145,0.637358,0.0027325,0.187291,-0.00149012,0.0204965,1.40469,-0.0111759,0.0111071,2.92579,5,0.1,7,0.2,-1.83083,-2.68371,0.64488,-0.183603,-0.0371039,0.000181794,-1.37711,-0.278354,0.00137091,0.00840615,2.92579,5,0.1,8,0.2,-2.82335,-0.133754,0.568728,0.186127,0.0209305,0.0023067,1.39606,0.156976,0.0172853,0.0135833,2.92579,5,0.1,9,0.2,3.76284,-3.49002,0.609539,-0.00954866,0.187069,-0.000558794,-0.0716448,1.40321,-0.00420213,0.0301332,2.92579,5,0.1
0,0.3,-1.76312,-3.3015,0.592746,0.0734748,0.0269428,0.134681,0.362478,0.132918,0.664435,0.014437,0.575747,5,0.1,1,0.3,3.71354,-0.0936622,0.686577,-0.348208,0.0211398,0.005503,-1.7232,0.104616,0.0272393,0.0226828,2.92579,5,0.1,2,0.3,-0.403215,2.21585,0.643122,0.125069,0.26557,0.125718,0.617012,1.21717,0.620194,0.0179386,2.51956,5,0.1,3,0.3,5.7509,1.03691,0.648608,-0.338425,0.0846433,-0.00450788,-1.67471,0.418864,-0.0223182,0.0168142,2.92581,5,0.1,4,0.3,-3.49675,-5.02863,0.673835,0.0127748,0.345872,0.0438909,0.0632405,1.71158,0.217218,0.0186145,2.92581,5,0.1,5,0.3,-1.31257,2.29324,0.693436,0.347368,-0.0321187,0.00529252,1.71903,-0.158936,0.0261962,0.0106669,2.92579,5,0.1,6,0.3,-0.218115,-0.468604,0.637147,0.00508977,0.348843,-0.00277543,0.0251886,1.72633,-0.0137351,0.0111071,2.92579,5,0.1,7,0.3,-1.85685,-2.68897,0.644906,-0.34198,-0.0691153,0.000339188,-1.69238,-0.342071,0.00167638,0.00840615,2.92579,5,0.1,8,0.3,-2.79697,-0.130788,0.569055,0.346684,0.0389844,0.00429517,1.71566,0.192922,0.0212528,0.0135833,2.92579,5,0.1,9,0.3,3.7615,-3.46351,0.609461,-0.0174142,0.348463,-0.00101998,-0.0814199,1.72472,-0.00477582,0.0301332,2.92579,5,0.1
0,0.4,-1.75399,-3.29815,0.609478,0.108358,0.0397325,0.198624,0.319839,0.117302,0.586212,0.0137362,0.455535,5,0.1,1,0.4,3.67025,-0.091034,0.687261,-0.514233,0.0312192,0.00812709,-1.52361,0.0925027,0.0240803,0.0208486,2.51524,5,0.1,2,0.4,-0.387678,2.24827,0.65874,0.184449,0.379455,0.185405,0.544354,1.01578,0.547171,0.0162199,2.24927,5,0.1,3,0.4,5.70883,1.04743,0.648048,-0.499785,0.125,-0.00665784,-1.48058,0.370324,-0.0197291,0.0171209,2.51102,5,0.1,4,0.4,-3.49516,-4.98563,0.679291,0.0188649,0.510788,0.0648186,0.0559092,1.51324,0.192046,0.0204372,2.51393,5,0.1,5,0.4,-1.26938,2.28925,0.694094,0.512993,-0.0474334,0.00781566,1.51992,-0.140548,0.0231564,0.0110997,2.51474,5,0.1,6,0.4,-0.217482,-0.425235,0.636802,0.00751652,0.51517,-0.00409931,0.0222698,1.52639,-0.0121295,0.00954743,2.52329,5,0.1,7,0.4,-1.89937,-2.69756,0.644948,-0.505036,-0.102067,0.000502169,-1.49637,-0.302553,0.00146031,0.00876211,2.51212,5,0.1,8,0.4,-2.75387,-0.125941,0.569589,0.51198,0.0575719,0.00634342,1.51706,0.170577,0.0187755,0.0123832,2.51434,5,0.1,9,0.4,3.75937,-3.42019,0.609336,-0.0250936,0.514644,-0.00146925,-0.068903,1.52493,-0.00405312,0.034084,2.51542,5,0.1
0,0.5,-1.74152,-3.29358,0.632324,0.140808,0.0516333,0.258099,0.31323,0.114888,0.574127,0.0137362,0.455535,5,0.1,1,0.5,3.61122,-0.0874365,0.688198,-0.664411,0.0407379,0.010605,-1.41165,0.0929758,0.0242069,0.0208486,2.51524,5,0.1,2,0.5,-0.366461,2.29008,0.680066,0.239678,0.445391,0.240921,0.533143,0.334918,0.535917,0.0162199,2.24927,5,0.1,3,0.5,5.65133,1.06184,0.64728,-0.649372,0.163108,-0.00868728,-1.43796,0.372246,-0.0198223,0.0171209,2.51102,5,0.1,4,0.5,-3.49298,-4.92696,0.686761,0.0246171,0.660819,0.0845806,0.0561625,1.41793,0.193033,0.0204372,2.51393,5,0.1,5,0.5,-1.21049,2.28378,0.694994,0.66312,-0.0618953,0.0101985,1.4139,-0.141248,0.0232756,0.0110997,2.51474,5,0.1,6,0.5,-0.216616,-0.366224,0.636329,0.00980815,0.662178,-0.00534784,0.0223843,1.35573,-0.0121966,0.00954743,2.52329,5,0.1,7,0.5,-1.95742,-2.70932,0.645006,-0.654846,-0.133197,0.000652764,-1.42842,-0.304043,0.00147149,0.00876211,2.51212,5,0.1,8,0.5,-2.69508,-0.119307,0.57032,0.662075,0.0751249,0.0082761,1.41577,0.171455,0.0188872,0.0123832,2.51434,5,0.1,9,0.5,3.75651,-3.36112,0.609168,-0.0320733,0.664845,-0.0018796,-0.0672042,1.41093,-0.00394881,0.034084,2.51542,5,0.1
0,0.6,-1.726,-3.28788,0.660788,0.168294,0.0617146,0.308481,0.225365,0.082612,0.41303,0.0154554,0.339131,5,0.1,1,0.6,3.53836,-0.08293,0.689371,-0.785297,0.0489786,0.0127494,-0.962019,0.068374,0.017792,0.025356,2.33307,5,0.1,2,0.6,-0.340029,2.33539,0.706636,0.286464,0.452477,0.28795,0.383526,-0.164509,0.385523,0.0238146,1.99147,5,0.1,3,0.6,5.57976,1.07988,0.646319,-0.775051,0.196102,-0.0104442,-1.0252,0.273764,-0.0145733,0.0133581,2.30579,5,0.1,4,0.6,-3.49026,-4.85441,0.696117,0.0295937,0.782847,0.10169,0.0413656,0.977039,0.141948,0.0347743,2.3283,5,0.1,5,0.6,-1.13773,2.27694,0.696122,0.784424,-0.0744164,0.0122607,0.967205,-0.103831,0.0171363,0.0239516,2.33064,5,0.1,6,0.6,-0.215531,-0.293899,0.635738,0.011792,0.776553,-0.00642836,0.0164658,0.892199,-0.0090003,0.0185507,2.60163,5,0.1,7,0.6,-2.02946,-2.72406,0.645078,-0.778782,-0.160146,0.000785291,-1.00231,-0.223517,0.00104308,0.0167466,2.31581,5,0.1,8,0.6,-2.62242,-0.110997,0.571236,0.783712,0.0903215,0.00994951,0.971675,0.12609,0.0139177,0.0213808,2.32869,5,0.1,9,0.6,3.75299,-3.28822,0.608962,-0.0379443,0.785601,-0.00222474,-0.0476837,0.959873,-0.00277162,0.0839262,2.33395,5,0.1
0,0.7,-1.70806,-3.28131,0.693666,0.189928,0.0696462,0.348132,0.194967,0.0714809,0.357334,0.0154554,0.339131,5,0.1,1,0.7,3.45608,-0.0776857,0.690736,-0.850302,0.0558406,0.0145351,-0.364959,0.0645397,0.0167973,0.025356,2.33307,5,0.1,2,0.7,-0.309498,2.37894,0.737325,0.323284,0.41118,0.324962,0.331819,-0.607103,0.333555,0.0238146,1.99147,5,0.1,3,0.7,5.49817,1.1009,0.6452,-0.846735,0.224188,-0.0119392,-0.426024,0.269264,-0.0143275,0.0133581,2.30579,5,0.1,4,0.7,-3.48709,-4.7723,0.707005,0.0337441,0.849357,0.115937,0.0390261,0.379592,0.134014,0.0347743,2.3283,5,0.1,5,0.7,-1.05551,2.26897,0.697435,0.849993,-0.0848368,0.0139801,0.370212,-0.0980198,0.0161678,0.0239516,2.33064,5,0.1,6,0.7,-0.214269,-0.213526,0.635049,0.0134444,0.815172,-0.00733109,0.0155391,-0.0543584,-0.00848249,0.0185507,2.60163,5,0.1,7,0.7,-2.1113,-2.7412,0.645162,-0.848039,-0.182578,0.000890996,-0.403747,-0.210986,0.0010021,0.0167466,2.31581,5,0.1,8,0.7,-2.54025,-0.101326,0.572301,0.849747,0.102975,0.0113459,0.374407,0.118996,0.0131354,0.0213808,2.32869,5,0.1,9,0.7,3.74895,-3.20592,0.608725,-0.0426989,0.850401,-0.00250153,-0.0443012,0.363216,-0.0025779,0.0839262,2.33395,5,0.1
0,0.8,-1.68822,-3.27403,0.730022,0.205213,0.0752509,0.376147,0.102341,0.0374317,0.187665,0.0276662,0.239441,5,0.1,1,0.8,3.36995,-0.0718144,0.692264,-0.866026,0.0611546,0.0159174,0,0.0387393,0.010103,0.0299583,2.26884,5,0.1,2,0.8,-0.275737,2.41665,0.771262,0.349299,0.34048,0.351113,0.174254,-0.767112,0.175148,0.0221737,2.16852,5,0.1,3,0.8,5.41218,1.12453,0.643941,-0.86602,0.246784,-0.0131413,-0.000238419,0.169635,-0.0090301,0.0320909,2.22433,5,0.1,4,0.8,-3.48354,-4.68621,0.719195,0.0369549,0.866032,0.126971,0.0234842,-0.000238419,0.0804961,0.0462428,2.51815,5,0.1,5,0.8,-0.969402,2.26005,0.698905,0.866024,-0.0929117,0.0153109,2.98023e-05,-0.0587702,0.00971556,0.0201531,2.26509,5,0.1,6,0.8,-0.212855,-0.133402,0.634279,0.0147238,0.777416,-0.00803024,0.00932068,-0.648897,-0.0050962,0.0177338,2.79894,5,0.1,7,0.8,-2.19734,-2.7604,0.645256,-0.86602,-0.19995,0.000974536,-0.000119209,-0.1266,0.000596046,0.0157623,2.24144,5,0.1,8,0.8,-2.45415,-0.0904986,0.573494,0.866026,0.112771,0.0124276,0,0.0714213,0.00786781,0.018723,2.26203,5,0.1,9,0.8,3.74449,-3.11979,0.608464,-0.046277,0.866026,-0.00271052,-0.0251532,0,-0.00143051,0.0390957,2.27031,5,0.1
0,0.9,-1.66721,-3.26633,0.768532,0.214486,0.0786442,0.393151,0.0733063,0.0268072,0.134408,0.0276662,0.239441,5,0.1,1,0.9,3.28335,-0.0654975,0.693909,-0.866026,0.0651536,0.0169599,0,0.0371323,0.0096783,0.0299583,2.26884,5,0.1,2,0.9,-0.239975,2.44662,0.807208,0.365089,0.2582,0.366984,0.124812,-0.811026,0.12546,0.0221737,2.16852,5,0.1,3,0.9,5.32558,1.1501,0.64258,-0.866026,0.264508,-0.0140848,0,0.167266,-0.00890344,0.0320909,2.22433,5,0.1,4,0.9,-3.47973,-4.60068,0.732311,0.0393804,0.835092,0.13529,0.0225157,-0.573069,0.0773221,0.0462428,2.51815,5,0.1,5,0.9,-0.8828,2.25045,0.700487,0.866026,-0.0989784,0.0163132,0,-0.0563413,0.00930578,0.0201531,2.26509,5,0.1,6,0.9,-0.211334,-0.0599662,0.633449,0.0156849,0.683612,-0.00855541,0.00891462,-1.11493,-0.00486895,0.0177338,2.79894,5,0.1,7,0.9,-2.28394,-2.78105,0.645356,-0.866025,-0.213005,0.00103666,-1.49012e-05,-0.121087,0.000584871,0.0157623,2.24144,5,0.1,8,0.9,-2.36754,-0.0788508,0.574778,0.866026,0.120127,0.0132382,0,0.0681574,0.00751019,0.018723,2.26203,5,0.1,9,0.9,3.73973,-3.03319,0.608185,-0.0488874,0.866026,-0.00285991,-0.0240952,0,-0.00138581,0.0390957,2.27031,5,0.1
0,1,-1.64551,-3.25837,0.808311,0.218239,0.0800192,0.400035,-0.00476837,-0.00178814,-0.00864267,0.0177241,0.162827,5,0.1,1,1,3.19675,-0.0588267,0.695645,-0.866026,0.0678864,0.0176713,0,0.0146908,0.0038445,0.0281201,2.2683,5,0.1,2,1,-0.203036,2.46873,0.84434,0.371481,0.188357,0.37341,-0.00802398,-0.552654,-0.00804663,0.0156221,1.93991,5,0.1,3,1,5.23897,1.17726,0.641134,-0.866032,0.27726,-0.0147626,0.000238419,0.0755787,-0.00402331,0.0197979,2.21841,5,0.1,4,1,-3.47569,-4.52068,0.746164,0.0410378,0.75947,0.140989,0.00905991,-0.904083,0.0308156,0.0268285,2.82505,5,0.1,5,1,-0.796197,2.24032,0.702157,0.866026,-0.103128,0.0169978,0,-0.0221729,0.00366569,0.0161926,2.26441,5,0.1,6,1,-0.209728,0.00276058,0.632573,0.0163399,0.572044,-0.00891238,0.00350922,-1.05253,-0.00193715,0.0182196,2.96658,5,0.1,7,1,-2.37055,-2.80286,0.645462,-0.866026,-0.221902,0.00108033,0,-0.0476837,0.000238419,0.0137775,2.23853,5,0.1,8,1,-2.28094,-0.0665532,0.576133,0.866026,0.125129,0.013788,0,0.0266731,0.00298023,0.0158924,2.2411,5,0.1,9,1,3.73474,-2.94659,0.607894,-0.0505924,0.866026,-0.00295788,-0.00786781,0,-0.000476837,0.0472984,2.27019,5,0.1
0,1.1,-1.62372,-3.25038,0.848254,0.217278,0.0796638,0.39828,-0.0224411,-0.00825524,-0.0410788,0.0177241,0.162827,5,0.1,1,1.1,3.11015,-0.0519392,0.697438,-0.866026,0.0699963,0.0182221,0,0.0227429,0.00593066,0.0281201,2.2683,5,0.1,2,1.1,-0.165944,2.48523,0.881625,0.369853,0.148043,0.371774,-0.0381415,-0.184745,-0.0383221,0.0156221,1.93991,5,0.1,3,1.1,5.15237,1.20542,0.639634,-0.866023,0.286157,-0.0152362,-2.98023e-05,0.0852421,-0.00453368,0.0197979,2.21841,5,0.1,4,1.1,-3.47154,-4.44998,0.760447,0.0421338,0.649786,0.144734,0.010401,-1.19317,0.0356622,0.0268285,2.82505,5,0.1,5,1.1,-0.709595,2.22987,0.703879,0.866026,-0.105815,0.0174413,-3.72529e-06,-0.0254512,0.0041984,0.0161926,2.26441,5,0.1,6,1.1,-0.208074,0.054901,0.631671,0.0167591,0.476364,-0.00914261,0.0039218,-0.73154,-0.00215322,0.0182196,2.96658,5,0.1,7,1.1,-2.45715,-2.82533,0.645572,-0.866026,-0.227607,0.00110893,0,-0.0534356,0.000271946,0.0137775,2.23853,5,0.1,8,1.1,-2.19434,-0.0538845,0.577529,0.866026,0.128283,0.0141391,0,0.0291891,0.00324473,0.0158924,2.2411,5,0.1,9,1.1,3.72963,-2.85998,0.607595,-0.0516206,0.866026,-0.00301981,-0.00977516,0,-0.000584871,0.0472984,2.27019,5,0.1
0,1.2,-1.60219,-3.24249,0.887726,0.212425,0.0778854,0.389393,-0.079751,-0.0292063,-0.1463,0.0203432,0.108271,5,0.1,1,1.2,3.02354,-0.0448445,0.699285,-0.866026,0.0716216,0.0186458,0,0.0063926,0.00166893,0.0382655,2.26763,5,0.1,2,1.2,-0.129289,2.5,0.91847,0.3616,0.155705,0.363481,-0.135835,0.312209,-0.136554,0.015959,1.62806,5,0.1,3,1.2,5.06577,1.23437,0.638093,-0.866032,0.291407,-0.0155151,0.000238419,0.00780821,-0.000417233,0.0220001,2.21665,5,0.1,4,1.2,-3.46729,-4.39084,0.77505,0.0427067,0.535727,0.146693,-0.000596046,-1.03593,-0.00229478,0.0441228,2.9916,5,0.1,5,1.2,-0.622992,2.2192,0.705638,0.866026,-0.107181,0.0176668,0,0.00238419,-0.00038743,0.0118859,2.26431,5,0.1,6,1.2,-0.206384,0.1,0.630749,0.0169624,0.436693,-0.00925511,-0.000521541,-0.0818413,0.000298023,0.0117559,2.82711,5,0.1,7,1.2,-2.54375,-2.84828,0.645684,-0.866026,-0.230384,0.00112504,0,0.00667572,-5.96046e-05,0.0154155,1.90379,5,0.1,8,1.2,-2.10774,-0.0409545,0.578954,0.866026,0.129744,0.0143021,0,-0.00498146,-0.000536442,0.0205972,1.779,5,0.1,9,1.2,3.72444,-2.77338,0.607291,-0.0520527,0.866026,-0.0030458,0.00321865,0,0.000178814,0.0324447,2.27019,5,0.1
0,1.3,-1.58134,-3.23484,0.92595,0.20454,0.0749975,0.37493,-0.0845417,-0.0309646,-0.15505,0.0203432,0.108271,5,0.1,1,1.3,2.93694,-0.0375451,0.701161,-0.866026,0.075173,0.018878,0,0.0549341,0.00198558,0.0382655,2.26763,5,0.1,2,1.3,-0.0937935,2.51814,0.95415,0.348172,0.215045,0.349982,-0.143966,0.795454,-0.144716,0.015959,1.62806,5,0.1,3,1.3,4.97917,1.26363,0.636535,-0.866023,0.294141,-0.0156607,-2.98023e-05,0.0299737,-0.0015907,0.0220001,2.21665,5,0.1,4,1.3,-3.46301,-4.34216,0.789747,0.0429284,0.444091,0.147438,0.00263751,-0.676423,0.00891089,0.0441228,2.9916,5,0.1,5,1.3,-0.53639,2.20847,0.707407,0.866026,-0.107661,0.0177462,-3.57628e-06,-0.00594556,0.000976026,0.0118859,2.26431,5,0.1,6,1.3,-0.204686,0.144764,0.629822,0.0170101,0.470829,-0.00928007,0.000555068,0.654717,-0.000290573,0.0117559,2.82711,5,0.1,7,1.3,-2.63035,-2.87132,0.645796,-0.866026,-0.230419,0.00112355,0,0.00368059,-2.98023e-05,0.0154155,1.90379,5,0.1,8,1.3,-2.02113,-0.027993,0.580383,0.866026,0.129456,0.0142714,0,-0.00655722,-0.000715256,0.0205972,1.779,5,0.1,9,1.3,3.71923,-2.68678,0.606986,-0.0520915,0.866026,-0.00304906,-0.00110269,0,-7.07805e-05,0.0324447,2.27019,5,0.1
0,1.4,-1.56136,-3.22752,0.962573,0.194418,0.0712872,0.356372,-0.122249,-0.0447035,-0.224113,0.0205963,0.121368,5,0.1,1,1.4,2.85034,-0.0297385,0.703053,-0.866026,0.080917,0.0188768,0,0.0527315,-0.00268221,0.021233,2.26588,5,0.1,2,1.4,-0.0597841,2.54388,0.988336,0.33094,0.300866,0.332659,-0.208102,0.860929,-0.209153,0.0152161,1.01405,5,0.1,3,1.4,4.89256,1.29311,0.634965,-0.866032,0.29453,-0.0156805,0.000238419,-0.0340939,0.00178814,0.0220709,2.21743,5,0.1,4,1.4,-3.45871,-4.3,0.804499,0.04282,0.410163,0.147066,-0.00655651,-0.0247955,-0.0221133,0.0194365,2.83489,5,0.1,5,1.4,-0.449787,2.1977,0.709183,0.866025,-0.107342,0.0176936,1.43051e-05,0.0165701,-0.00274181,0.0133464,2.26375,5,0.1,6,1.4,-0.202987,0.195592,0.628895,0.0169169,0.548284,-0.0092268,-0.00305474,0.810705,0.00163913,0.017092,2.53118,5,0.1,7,1.4,-2.71696,-2.89427,0.645908,-0.866026,-0.227779,0.00111014,0,0.0567436,-0.000298023,0.0150944,1.47707,5,0.1,8,1.4,-1.93453,-0.0151214,0.581802,0.866026,0.12746,0.0140518,-5.96046e-05,-0.0372908,-0.00414252,0.0222277,1.37509,5,0.1,9,1.4,3.71403,-2.60018,0.606682,-0.0517845,0.866026,-0.0030309,0.00941753,0,0.000506639,0.0588272,2.27025,5,0.1
0,1.5,-1.5424,-3.22057,0.99732,0.185651,0.0680823,0.340299,-0.0651702,-0.0237972,-0.119459,0.0205963,0.121368,5,0.1,1,1.5,2.76374,-0.0213234,0.704932,-0.866026,0.0877625,0.0187362,0,0.0755688,-0.00112504,0.021233,2.26588,5,0.1,2,1.5,-0.0276905,2.57846,1.0206,0.31109,0.391336,0.312709,-0.198305,0.898287,-0.199318,0.0152161,1.01405,5,0.1,3,1.5,4.80596,1.32249,0.633401,-0.866023,0.293539,-0.0156297,-2.98023e-05,-0.00244379,0.000115484,0.0220709,2.21743,5,0.1,4,1.5,-3.45445,-4.25762,0.81914,0.0425011,0.449474,0.146007,-0.00217557,0.701666,-0.00710413,0.0194365,2.83489,5,0.1,5,1.5,-0.363184,2.18692,0.710889,0.866025,-0.109275,0.0160058,-1.78814e-06,-0.0432581,-0.028532,0.0133464,2.26375,5,0.1,6,1.5,-0.201376,0.255164,0.627981,0.0147436,0.647728,-0.00906307,-0.0368776,1.08808,0.00196695,0.017092,2.53118,5,0.1,7,1.5,-2.80356,-2.91679,0.646018,-0.865854,-0.222632,0.00108387,0.00686944,0.0551641,-0.000275671,0.0150944,1.47707,5,0.1,8,1.5,-1.84793,-0.00254989,0.583188,0.865804,0.123968,0.0136641,-0.00883639,-0.0372688,-0.00413135,0.0222277,1.37509,5,0.1,9,1.5,3.70888,-2.51357,0.60638,-0.0512831,0.866026,-0.00300519,0.00348687,0,0.000171363,0.0588272,2.27025,5,0.1
0,1.6,-1.52415,-3.21387,1.03078,0.179303,0.0657618,0.328666,-0.0704527,-0.0257492,-0.129342,0.0132804,0.0703246,5,0.1,1,1.6,2.67713,-0.0121896,0.706796,-0.866026,0.0945478,0.0184834,0,0.0539179,-0.00464916,0.0290821,2.26434,5,0.1,2,1.6,0.00238075,2.62181,1.05082,0.289709,0.471932,0.291219,-0.23562,0.677824,-0.236869,0.0168275,0.997392,5,0.1,3,1.6,4.71936,1.35177,0.631842,-0.866032,0.291193,-0.0155047,0.000238419,-0.0562072,0.00298023,0.0219291,2.51891,5,0.1,4,1.6,-3.45022,-4.20871,0.833676,0.0419915,0.53122,0.144272,-0.00989437,0.849962,-0.0332594,0.0198207,2.53186,5,0.1,5,1.6,-0.276582,2.17575,0.712321,0.866025,-0.11391,0.0124365,0,-0.0404119,-0.040859,0.0154883,2.26152,5,0.1,6,1.6,-0.200117,0.325226,0.627087,0.0101771,0.750304,-0.00877529,-0.0516474,0.897602,0.00396371,0.019939,2.33655,5,0.1,7,1.6,-2.89005,-2.93872,0.646124,-0.863278,-0.215244,0.00104755,0.0549555,0.0987053,-0.000476837,0.021783,1.11328,5,0.1,8,1.6,-1.76147,0.00962924,0.58453,0.862482,0.119219,0.0131398,-0.0707507,-0.0608906,-0.00676513,0.0124854,1.03232,5,0.1,9,1.6,3.70378,-2.42697,0.606081,-0.0506043,0.866026,-0.00296682,0.0122786,0,0.000685453,0.05068,2.38293,5,0.1
0,1.7,-1.50653,-3.20741,1.06308,0.173365,0.0635911,0.317767,-0.056155,-0.0205487,-0.103012,0.0132804,0.0703246,5,0.1,1,1.7,2.59053,-0.002426,0.708627,-0.866026,0.100914,0.0181822,0,0.0655153,-0.00236928,0.0290821,2.26434,5,0.1,2,1.7,0.0302295,2.67254,1.07882,0.267621,0.542833,0.269015,-0.214057,0.691488,-0.215188,0.0168275,0.997392,5,0.1,3,1.7,4.6337,1.38072,0.630301,-0.83845,0.288264,-0.0153495,0.526756,-0.0188351,0.000998378,0.0219291,2.51891,5,0.1,4,1.7,-3.44605,-4.15066,0.847986,0.0413772,0.634075,0.142222,-0.00466406,1.11762,-0.0155866,0.0198207,2.53186,5,0.1,5,1.7,-0.189979,2.16408,0.713345,0.866025,-0.120049,0.00792239,5.96046e-07,-0.0716001,-0.0476837,0.0154883,2.26152,5,0.1,6,1.7,-0.19938,0.404215,0.626227,0.00440574,0.823612,-0.00843536,-0.0611963,0.548694,0.00320375,0.019939,2.33655,5,0.1,7,1.7,-2.97634,-2.95978,0.646227,-0.86367,-0.20602,0.00100341,-0.019744,0.0931025,-0.000439584,0.021783,1.11328,5,0.1,8,1.7,-1.67528,0.0212621,0.585812,0.862865,0.113492,0.0125045,0.0284687,-0.0575181,-0.00637025,0.0124854,1.03232,5,0.1,9,1.7,3.69864,-2.34086,0.605787,-0.0532821,0.851382,-0.0029251,-0.0554323,-0.287652,0.000312924,0.05068,2.38293,5,0.1
0,1.8,-1.4895,-3.20116,1.09429,0.166747,0.0611663,0.305629,-0.0816584,-0.0299215,-0.149727,0.022958,0.15975,5,0.1,1,1.8,2.50393,0.00795904,0.710431,-0.866026,0.106301,0.0178397,0,0.036625,-0.0051558,0.029701,2.26326,5,0.1,2,1.8,0.0559043,2.72997,1.10463,0.245566,0.601935,0.246847,-0.232419,0.456333,-0.23371,0.0182495,0.731228,5,0.1,3,1.8,4.55318,1.4094,0.628773,-0.765467,0.284615,-0.0151545,0.910044,-0.0657439,0.00348687,0.0221987,3.00333,5,0.1,4,1.8,-3.44195,-4.08183,0.862107,0.0406682,0.739253,0.139813,-0.0112057,0.920773,-0.0380874,0.0286056,2.32882,5,0.1,5,1.8,-0.103377,2.15174,0.713899,0.866026,-0.126374,0.00320673,-3.57628e-06,-0.0470877,-0.0452995,0.0201873,2.26495,5,0.1,6,1.8,-0.199244,0.48865,0.625401,-0.00161044,0.85844,-0.00807196,-0.0571758,0.151708,0.00432134,0.0192251,2.27489,5,0.1,7,1.8,-3.06265,-2.97988,0.646325,-0.860184,-0.19539,0.000953674,0.116944,0.124454,-0.000625849,0.0211523,0.810549,5,0.1,8,1.8,-1.58902,0.0323034,0.587028,0.859708,0.107065,0.0117943,-0.126302,-0.0736396,-0.00813603,0.0207186,0.745474,5,0.1,9,1.8,3.693,-2.2576,0.605496,-0.059855,0.809526,-0.00287741,-0.0680685,-0.54431,0.000804663,0.0478828,2.71019,5,0.1
0,1.9,-1.47322,-3.19491,1.12412,0.158796,0.0661556,0.291069,-0.082463,0.110194,-0.150569,0.022958,0.15975,5,0.1,1,1.9,2.41733,0.0188054,0.712196,-0.866026,0.110765,0.0175026,0,0.0452037,-0.00256673,0.029701,2.26326,5,0.1,2,1.9,0.0793616,2.79245,1.12821,0.224034,0.646671,0.225195,-0.204914,0.40026,-0.206016,0.0182495,0.731228,5,0.1,3,1.9,4.48185,1.43764,0.62727,-0.655586,0.280808,-0.0149526,1.24633,-0.0264421,0.00140816,0.0221987,3.00333,5,0.1,4,1.9,-3.43792,-4.00378,0.875951,0.0399541,0.816393,0.137391,-0.00534952,0.597447,-0.0181161,0.0286056,2.32882,5,0.1,5,1.9,-0.0167743,2.13893,0.71405,0.866025,-0.129154,0.000316091,-2.98023e-07,-0.00596046,-0.0148341,0.0201873,2.26495,5,0.1,6,1.9,-0.199694,0.574959,0.624612,-0.0073697,0.865552,-0.0077242,-0.056006,0.0189598,0.00301749,0.0192251,2.27489,5,0.1,7,1.9,-3.14828,-2.99883,0.646417,-0.853377,-0.183775,0.000896025,0.0625998,0.113919,-0.000562519,0.0211523,0.810549,5,0.1,8,1.9,-1.50351,0.0426607,0.588169,0.851178,0.100186,0.0110346,-0.0856221,-0.0671717,-0.0074096,0.0207186,0.745474,5,0.1,9,1.9,3.6866,-2.17985,0.605212,-0.0685897,0.741107,-0.00282545,-0.0976175,-0.805363,0.00038743,0.0478828,2.71019,5,0.1
0,2,-1.45779,-3.18765,1.15241,0.149411,0.0797629,0.274003,-0.108659,0.147223,-0.196755,0.0148852,0.29285,5,0.1,1,2,2.33072,0.0300721,0.713931,-0.866026,0.114073,0.0171587,0,0.0157161,-0.00503659,0.0301977,2.26303,5,0.1,2,2,0.100741,2.85877,1.1497,0.203454,0.675577,0.204504,-0.211298,0.151992,-0.212371,0.0136478,0.3514,5,0.1,3,2,4.4228,1.46554,0.625784,-0.523615,0.276586,-0.0147268,1.36018,-0.0693798,0.00366569,0.0180853,3.44392,5,0.1,4,2,-3.43396,-3.91981,0.88958,0.0392139,0.856173,0.134866,-0.0110865,0.197053,-0.0379086,0.0259591,2.26439,5,0.1,5,2,0.0698282,2.12607,0.714042,0.866025,-0.127172,-0.000180304,0,0.0469685,0.00301003,0.0189668,2.26507,5,0.1,6,2,-0.200696,0.661552,0.623855,-0.0124693,0.866026,-0.00740141,-0.044547,0,0.00372529,0.0148935,2.2717,5,0.1,7,2,-3.2331,-3.01661,0.646504,-0.8403,-0.171584,0.000835955,0.229001,0.13411,-0.000625849,0.020206,0.571546,5,0.1,8,2,-1.41903,0.0523326,0.589235,0.835586,0.0930887,0.0102535,-0.254869,-0.0769663,-0.00852346,0.0202689,0.522509,5,0.1,9,2,3.67927,-2.11007,0.604931,-0.0778198,0.651866,-0.00277162,-0.0803471,-0.964046,0.00077486,0.0489157,3.13735,5,0.1
0,2.1,-1.44352,-3.17885,1.17884,0.134799,0.0966154,0.254488,-0.178397,0.176877,-0.199199,0.0148852,0.29285,5,0.1,1,2.1,2.24412,0.0415386,0.715628,-0.866026,0.114966,0.0168368,0,-0.00166489,-0.00236928,0.0301977,2.26303,5,0.1,2,2.1,0.120093,2.92691,1.16915,0.184054,0.684998,0.185006,-0.182325,0.0158399,-0.18324,0.0136478,0.3514,5,0.1,3,2.1,4.37738,1.49293,0.624326,-0.384466,0.271395,-0.0144524,1.37696,-0.0477582,0.00252947,0.0180853,3.44392,5,0.1,4,2.1,-3.43007,-3.83359,0.902934,0.0386011,0.86541,0.132569,-0.00356138,0.0246316,-0.0158325,0.0259591,2.26439,5,0.1,5,2.1,0.156431,2.11359,0.714067,0.866025,-0.122236,0.000920799,8.9407e-07,0.0551045,0.0171475,0.0189668,2.26507,5,0.1,6,2.1,-0.202163,0.748154,0.62313,-0.0168057,0.866026,-0.00712164,-0.0404837,-3.72529e-06,0.00227243,0.0148935,2.2717,5,0.1,7,2.1,-3.31612,-3.03314,0.646585,-0.820494,-0.159141,0.000777841,0.202104,0.119835,-0.000558794,0.020206,0.571546,5,0.1,8,2.1,-1.33662,0.0612777,0.59022,0.812955,0.085953,0.00946419,-0.231169,-0.0684448,-0.00756606,0.0202689,0.522509,5,0.1,9,2.1,3.67104,-2.05018,0.604657,-0.0867791,0.542499,-0.00272058,-0.0909269,-1.17457,0.000394881,0.0489157,3.13735,5,0.1
0,2.2,-1.43101,-3.16834,1.20325,0.114706,0.112903,0.233239,-0.218987,0.139475,-0.229359,0.0134247,0.27245,5,0.1,1,2.2,2.15752,0.0529729,0.717298,-0.866026,0.113116,0.0165194,0,-0.0377688,-0.00464916,0.0350053,2.26824,5,0.1,2,2.2,0.137597,2.99513,1.18674,0.166032,0.675422,0.16689,-0.182062,-0.22006,-0.182927,0.0152893,0.357654,5,0.1,3,2.2,4.34554,1.51977,0.622896,-0.255775,0.264773,-0.014101,1.16658,-0.0939965,0.00500679,0.0224408,3.65068,5,0.1,4,2.2,-3.42623,-3.747,0.916095,0.0380874,0.866026,0.130364,-0.00846386,0,-0.0337362,0.023006,2.26041,5,0.1,5,2.2,0.243033,2.10168,0.714256,0.866025,-0.115609,0.00291765,1.43051e-05,0.0796318,0.0213087,0.0190002,2.26614,5,0.1,6,2.2,-0.204028,0.834757,0.622429,-0.020279,0.866026,-0.00687838,-0.0278279,0,0.00286102,0.0127537,2.27153,5,0.1,7,2.2,-3.39697,-3.04844,0.64666,-0.793988,-0.146765,0.000719726,0.352144,0.13113,-0.000625849,0.0147317,0.393699,5,0.1,8,2.2,-1.25667,0.0695269,0.591128,0.783727,0.0789445,0.00869185,-0.376165,-0.0735745,-0.00813603,0.0184519,0.35829,5,0.1,9,2.2,3.66195,-2.00183,0.604387,-0.0946462,0.425193,-0.00266731,-0.0606775,-1.13797,0.00077486,0.0520209,3.40935,5,0.1
0,2.3,-1.42068,-3.15637,1.22545,0.0915442,0.12635,0.210754,-0.238955,0.121221,-0.223845,0.0134247,0.27245,5,0.1,1,2.3,2.07092,0.0639578,0.718934,-0.866026,0.105338,0.0162316,0,-0.112453,-0.00204518,0.0350053,2.26824,5,0.1,2,2.3,0.153348,3.06168,1.20258,0.149439,0.656036,0.150217,-0.15454,-0.194922,-0.155278,0.0152893,0.357654,5,0.1,3,2.3,4.32554,1.54585,0.621507,-0.148506,0.257207,-0.0136976,0.91809,-0.0695512,0.00371411,0.0224408,3.65068,5,0.1,4,2.3,-3.42245,-3.6604,0.929018,0.0376295,0.866026,0.128448,-0.00290573,0,-0.0122339,0.023006,2.26041,5,0.1,5,2.3,0.329636,2.09049,0.714666,0.866025,-0.108293,0.0053823,-1.78814e-06,0.0704527,0.0264347,0.0190002,2.26614,5,0.1,6,2.3,-0.206193,0.921359,0.621753,-0.0229778,0.866026,-0.00668205,-0.0245841,-3.72529e-06,0.00146031,0.0127537,2.27153,5,0.1,7,2.3,-3.47473,-3.0625,0.646729,-0.761637,-0.134675,0.00066217,0.3234,0.114918,-0.000543892,0.0147317,0.393699,5,0.1,8,2.3,-1.18006,0.0770749,0.591959,0.748979,0.0721712,0.00794372,-0.346124,-0.0641518,-0.00707433,0.0184519,0.35829,5,0.1,9,2.3,3.65223,-1.96504,0.604124,-0.0992361,0.312106,-0.00261255,-0.0284463,-1.05048,0.000461936,0.0520209,3.40935,5,0.1
0,2.4,-1.41272,-3.14321,1.24539,0.0678509,0.135767,0.187901,-0.230849,0.061512,-0.235379,0.0181494,0.260484,5,0.1,1,2.4,1.98431,0.0738429,0.720545,-0.866026,0.0916148,0.0159487,0,-0.157442,-0.00426173,0.0179119,2.27409,5,0.1,2,2.4,0.167533,3.12617,1.21683,0.134317,0.631851,0.135019,-0.151224,-0.307679,-0.151932,0.0142549,0.245673,5,0.1,3,2.4,4.31451,1.57118,0.620158,-0.0804782,0.248784,-0.0132486,0.420094,-0.107348,0.00575185,0.019494,3.52499,5,0.1,4,2.4,-3.41871,-3.5738,0.941786,0.0371337,0.866026,0.126606,-0.00858307,0,-0.0300705,0.029693,2.26093,5,0.1,5,2.4,0.416238,2.08002,0.715335,0.866025,-0.100893,0.00793487,1.43051e-05,0.0803471,0.0234544,0.0116404,2.26721,5,0.1,6,2.4,-0.208598,1.00796,0.621092,-0.0249323,0.866026,-0.00651777,-0.0134408,0,0.00211596,0.0152674,2.27144,5,0.1,7,2.4,-3.54913,-3.07539,0.646792,-0.724506,-0.123072,0.000606477,0.438571,0.120401,-0.000596046,0.0149504,0.267023,5,0.1,8,2.4,-1.10702,0.0839718,0.592718,0.709903,0.0657311,0.00723451,-0.453949,-0.0662245,-0.00730157,0.0131223,0.242283,5,0.1,9,2.4,3.64223,-1.93849,0.603865,-0.0999153,0.225678,-0.00255257,0.0163317,-0.645459,0.000864267,0.0579416,3.3999,5,0.1
0,2.5,-1.40704,-3.12942,1.26301,0.0461815,0.139029,0.164471,-0.200324,0.00242889,-0.233807,0.0181494,0.260484,5,0.1,1,2.5,1.89771,0.0821714,0.722124,-0.866026,0.0746021,0.0156914,0,-0.178681,-0.00179186,0.0179119,2.27409,5,0.1,2,2.5,0.180259,3.18792,1.22963,0.120616,0.603567,0.121253,-0.126757,-0.280291,-0.127375,0.0142549,0.245673,5,0.1,3,2.5,4.30785,1.59559,0.618859,-0.0616878,0.239694,-0.0127614,-0.112951,-0.0851527,0.00456348,0.019494,3.52499,5,0.1,4,2.5,-3.41502,-3.4872,0.954351,0.0366755,0.866026,0.125032,-0.00277162,0,-0.00897422,0.029693,2.26093,5,0.1,5,2.5,0.502841,2.0703,0.716251,0.866026,-0.0938676,0.0103978,-1.93715e-06,0.064075,0.0244565,0.0116404,2.26721,5,0.1,6,2.5,-0.21116,1.09456,0.620448,-0.0262941,0.866026,-0.00638943,-0.0122711,0,0.000841916,0.0152674,2.27144,5,0.1,7,2.5,-3.61952,-3.08714,0.64685,-0.683835,-0.112041,0.000551995,0.398383,0.103787,-0.000510365,0.0149504,0.267023,5,0.1,8,2.5,-1.03817,0.0902342,0.593407,0.667774,0.0596727,0.00656703,-0.411239,-0.0568377,-0.00625476,0.0131223,0.242283,5,0.1,9,2.5,3.63246,-1.91857,0.603613,-0.0942476,0.181196,-0.00248514,0.0917614,-0.149474,0.000603497,0.0579416,3.3999,5,0.1
0,2.6,-1.40336,-3.11561,1.27828,0.0281364,0.136095,0.141066,-0.159264,-0.0612736,-0.234485,0.0129975,0.42495,5,0.1,1,2.6,1.81111,0.0887315,0.723683,-0.866026,0.056616,0.0154346,0,-0.177793,-0.00399351,0.0248757,2.27955,5,0.1,2,2.6,0.191701,3.24677,1.24113,0.108289,0.572044,0.108865,-0.122614,-0.365376,-0.123203,0.0139003,0.439278,5,0.1,3,2.6,4.3,1.6191,0.617607,-0.105822,0.229943,-0.0122398,-0.729084,-0.117481,0.00628829,0.0129841,3.22204,5,0.1,4,2.6,-3.41138,-3.40059,0.966793,0.0362098,0.866026,0.123517,-0.00822544,0,-0.0267029,0.0251358,2.26138,5,0.1,5,2.6,0.589443,2.06123,0.717405,0.866026,-0.0874102,0.0125945,0,0.0678301,0.0185072,0.0149754,2.1674,5,0.1,6,2.6,-0.213839,1.18117,0.619814,-0.0271291,0.866026,-0.00628233,-0.00339001,0,0.00157952,0.0136619,2.27141,5,0.1,7,2.6,-3.68582,-3.09782,0.646903,-0.640869,-0.101715,0.000502169,0.477076,0.105381,-0.000536442,0.016574,0.179577,5,0.1,8,2.6,-0.973531,0.0959202,0.594033,0.623851,0.0540411,0.00594705,-0.482619,-0.0571199,-0.00625849,0.012486,0.190811,5,0.1,9,2.6,3.62358,-1.9,0.603368,-0.0825465,0.201604,-0.00241101,0.137806,0.521183,0.00101328,0.059277,3.06062,5,0.1
0,2.7,-1.40134,-3.10234,1.29126,0.0127027,0.128882,0.118737,-0.141211,-0.0843555,-0.212982,0.0129975,0.42495,5,0.1,1,2.7,1.72451,0.0935278,0.725212,-0.866026,0.0396084,0.0151954,0,-0.160006,-0.00167266,0.0248757,2.27955,5,0.1,2,2.7,0.202273,3.30183,1.25144,0.106123,0.526215,0.0977544,0.0562398,-0.542343,-0.102319,0.0139003,0.439278,5,0.1,3,2.7,4.28577,1.64156,0.616412,-0.178985,0.219687,-0.011691,-0.738829,-0.0968799,0.00517443,0.0129841,3.22204,5,0.1,4,2.7,-3.40778,-3.31399,0.979064,0.035787,0.866026,0.122233,-0.00239909,0,-0.0064075,0.0251358,2.26138,5,0.1,5,2.7,0.676046,2.05279,0.718759,0.866026,-0.0816375,0.0144746,-3.72529e-06,0.0513792,0.0178963,0.0149754,2.1674,5,0.1,6,2.7,-0.216574,1.26777,0.61919,-0.0275882,0.866026,-0.00620075,-0.00427291,0,0.000439584,0.0136619,2.27141,5,0.1,7,2.7,-3.74766,-3.1075,0.64695,-0.596704,-0.0921149,0.00045374,0.425786,0.0896305,-0.000447035,0.016574,0.179577,5,0.1,8,2.7,-0.913422,0.101214,0.594598,0.579198,0.0532893,0.00537783,-0.429235,0.0306205,-0.00530481,0.012486,0.190811,5,0.1,9,2.7,3.61617,-1.87583,0.603132,-0.0645421,0.293056,-0.00232533,0.211954,1.19515,0.000804663,0.059277,3.06062,5,0.1
0,2.8,-1.40069,-3.08992,1.3021,0.00116229,0.11903,0.0983208,-0.085175,-0.11313,-0.195861,0.0178133,0.874479,5,0.1,1,2.8,1.6379,0.0967336,0.726721,-0.866026,0.0249963,0.0149488,5.96046e-05,-0.13078,-0.0038147,0.0195679,2.14041,5,0.1,2,2.8,0.213306,3.35151,1.26072,0.115458,0.46531,0.0878334,0.112765,-0.667214,-0.0984669,0.016361,0.396947,5,0.1,3,2.8,4.26416,1.66302,0.61527,-0.253224,0.209001,-0.0111192,-0.737667,-0.123262,0.00655651,0.0213581,2.98379,5,0.1,4,2.8,-3.40422,-3.22739,0.991239,0.0353634,0.866026,0.120963,-0.00762939,0,-0.0242889,0.027423,2.26178,5,0.1,5,2.8,0.762649,2.04488,0.720287,0.866026,-0.0764906,0.0159726,0,0.0542402,0.0112057,0.0139368,1.71702,5,0.1,6,2.8,-0.219346,1.35437,0.618573,-0.0277258,0.866026,-0.00612885,0.0025779,0,0.0012517,0.015966,2.27141,5,0.1,7,2.8,-3.80515,-3.11627,0.646993,-0.552416,-0.0832796,0.000409782,0.47338,0.0890493,-0.000447035,0.0135702,0.120396,5,0.1,8,2.8,-0.857686,0.106763,0.59511,0.534829,0.0581384,0.00485629,-0.471085,0.0575595,-0.00521541,0.0143547,0.131564,5,0.1,9,2.8,3.61082,-1.8402,0.602904,-0.0420034,0.420803,-0.00223368,0.230789,1.27411,0.00113249,0.0403695,0.366107,5,0.1
0,2.9,-1.40106,-3.07859,1.311,-0.00820216,0.107715,0.08015,-0.0707284,-0.114575,-0.168547,0.0178133,0.874479,5,0.1,1,2.9,1.5513,0.098638,0.728202,-0.866025,0.0136889,0.014699,-1.49012e-05,-0.0950806,-0.00197813,0.0195679,2.14041,5,0.1,2,2.9,0.225567,3.39441,1.26905,0.130829,0.390437,0.0789857,0.177052,-0.804394,-0.0812337,0.016361,0.396947,5,0.1,3,2.9,4.23553,1.68336,0.614188,-0.318331,0.198163,-0.0105427,-0.66942,-0.101648,0.0054054,0.0213581,2.98379,5,0.1,4,2.9,-3.40071,-3.14078,1.00326,0.0349913,0.866026,0.119871,-0.00192225,0,-0.0048466,0.027423,2.26178,5,0.1,5,2.9,0.849251,2.03748,0.72194,0.866026,-0.0717681,0.0170491,-3.72529e-06,0.0432581,0.00938401,0.0139368,1.71702,5,0.1,6,2.9,-0.222113,1.44097,0.617964,-0.0276654,0.866026,-0.00607437,0.000158325,0,0.000219792,0.015966,2.27141,5,0.1,7,2.9,-3.85816,-3.12418,0.647032,-0.508792,-0.0752043,0.000369456,0.415415,0.0749677,-0.000376254,0.0135702,0.120396,5,0.1,8,2.9,-0.80642,0.112939,0.595571,0.491462,0.0658956,0.00438364,-0.411991,0.0888291,-0.00438467,0.0143547,0.131564,5,0.1,9,2.9,3.60782,-1.79247,0.602685,-0.0179566,0.526259,-0.00213524,0.242352,0.824973,0.000927597,0.0403695,0.366107,5,0.1
0,3,-1.40202,-3.0684,1.31821,-0.00855923,0.0959039,0.0644356,0.0764728,-0.122547,-0.146449,0.0154469,2.19151,5,0.1,1,3,1.4647,0.0995913,0.72966,-0.866026,0.00596493,0.0144154,5.96046e-05,-0.0598431,-0.00423193,0.015455,1.69884,5,0.1,2,3,0.239522,3.42938,1.27655,0.147815,0.308901,0.0711113,0.149719,-0.807166,-0.0781417,0.0152194,1.42363,5,0.1,3,3,4.2,1.70265,0.613162,-0.395751,0.187287,-0.00996441,-0.860214,-0.121653,0.0064671,0.0199732,2.69882,5,0.1,4,3,-3.39722,-3.05418,1.01521,0.0346124,0.866026,0.118744,-0.00691414,0,-0.0228286,0.0246659,2.2667,5,0.1,5,3,0.935854,2.03052,0.723682,0.866026,-0.0673234,0.0176936,0,0.0479221,0.00283122,0.0130904,1.32345,5,0.1,6,3,-0.224873,1.52758,0.617358,-0.0274349,0.866026,-0.00602156,0.00552833,0,0.00110269,0.0152665,2.27143,5,0.1,7,3,-3.90695,-3.13134,0.647067,-0.466567,-0.0678599,0.000333786,0.44024,0.0735521,-0.000357628,0.0145869,0.139288,5,0.1,8,3,-0.759341,0.119965,0.595988,0.449771,0.074386,0.00395477,-0.43267,0.074558,-0.00429153,0.0168118,0.156644,5,0.1,9,3,3.6072,-1.73652,0.602477,0.00510216,0.584483,-0.00203252,0.213385,0.336468,0.00119209,0.0565903,0.125308,5,0.1
0,3.1,-1.40239,-3.0594,1.32396,0.0043299,0.0842009,0.0511181,0.260949,-0.112846,-0.120848,0.0154469,2.19151,5,0.1,1,3.1,1.3781,0.099942,0.731083,-0.865992,0.00153701,0.0140686,0.0012964,-0.0304971,-0.00334531,0.015455,1.69884,5,0.1,2,3.1,0.2555,3.45615,1.2833,0.17522,0.226829,0.0641067,0.359762,-0.785917,-0.0642389,0.0152194,1.42363,5,0.1,3,3.1,4.15526,1.72083,0.612194,-0.50522,0.176647,-0.00939872,-1.23265,-0.098519,0.00523776,0.0199732,2.69882,5,0.1,4,3.1,-3.39378,-2.96758,1.02702,0.0342965,0.865902,0.117751,-0.00149012,-0.00493228,-0.00417978,0.0246659,2.2667,5,0.1,5,3.1,1.02245,2.02401,0.725465,0.865775,-0.0630636,0.0179382,-0.0100359,0.0397414,0.0013113,0.0130904,1.32345,5,0.1,6,3.1,-0.227598,1.61418,0.616759,-0.0271268,0.866026,-0.00597769,0.00215881,0,0.000137836,0.0152665,2.27143,5,0.1,7,3.1,-3.95177,-3.13781,0.647099,-0.432767,-0.0621654,0.000306498,0.264242,0.0445545,-0.000212342,0.0145869,0.139288,5,0.1,8,3.1,-0.716172,0.127912,0.596366,0.416438,0.0855573,0.00362294,-0.26134,0.134952,-0.00258908,0.0168118,0.156644,5,0.1,9,3.1,3.60876,-1.67694,0.602279,0.0258729,0.601779,-0.00192523,0.196189,0.0102744,0.00102818,0.0565903,0.125308,5,0.1
0,3.2,-1.4,-3.05154,1.32851,0.0498116,0.073117,0.0400901,0.630915,-0.109792,-0.100374,0.0161593,3.52294,5,0.1,1,3.2,1.29151,0.0999795,0.732471,-0.865504,-0.000462122,0.0136375,0.0104904,-0.0109747,-0.00572205,0.0167055,1.39636,5,0.1,2,3.2,0.274906,3.47524,1.2894,0.212999,0.1589,0.0578731,0.366732,-0.549436,-0.062108,0.00989783,1.3077,5,0.1,3,3.2,4.09861,1.73799,0.611281,-0.625479,0.166327,-0.0088498,-1.10126,-0.11301,0.00599027,0.0197843,2.40922,5,0.1,4,3.2,-3.39036,-2.88106,1.03876,0.0339627,0.864047,0.116688,-0.00667572,-0.0393391,-0.0222325,0.0171916,2.53985,5,0.1,5,3.2,1.1089,2.01791,0.727258,0.862011,-0.058949,0.0178292,-0.0802279,0.0441074,-0.00393391,0.0110107,0.990839,5,0.1,6,3.2,-0.230295,1.70078,0.616163,-0.0267431,0.866026,-0.00593066,0.00657886,0,0.00107288,0.00975978,2.27146,5,0.1,7,3.2,-3.99383,-3.14383,0.647129,-0.408775,-0.0582099,0.000287592,0.23663,0.0375509,-0.000149012,0.0133158,0.0811847,5,0.1,8,3.2,-0.675736,0.137148,0.596716,0.39275,0.0989553,0.00339299,-0.232607,0.122704,-0.00217557,0.0178408,0.0965808,5,0.1,9,3.2,3.61226,-1.61724,0.602092,0.0433564,0.587019,-0.00181496,0.149369,-0.3016,0.0012517,0.0499962,0.113494,5,0.1
0,3.3,-1.39209,-3.04476,1.33205,0.106262,0.0626914,0.0310443,0.503138,-0.0994802,-0.0811964,0.0161593,3.52294,5,0.1,1,3.3,1.20497,0.0998958,0.733808,-0.865457,-0.00105478,0.0131236,0.0044331,-0.00162655,-0.00507385,0.0167055,1.39636,5,0.1,2,3.3,0.297577,3.48878,1.2949,0.236164,0.11717,0.0523137,0.110706,-0.238165,-0.0509694,0.00989783,1.3077,5,0.1,3,3.3,4.03054,1.75411,0.610423,-0.734675,0.156582,-0.00833301,-1.02136,-0.0887141,0.00470504,0.0197843,2.40922,5,0.1,4,3.3,-3.38699,-2.79591,1.05036,0.0336587,0.829318,0.115715,-0.00143051,-0.608444,-0.00421703,0.0171916,2.53985,5,0.1,5,3.3,1.19499,2.01222,0.729022,0.861508,-0.0549734,0.0174309,0.0196472,0.0374317,-0.00465289,0.0110107,0.990839,5,0.1,6,3.3,-0.232947,1.78738,0.615573,-0.0263526,0.866026,-0.00588726,0.00274368,0,0.000156462,0.00975978,2.27146,5,0.1,7,3.3,-4.03367,-3.14949,0.647157,-0.389138,-0.0551406,0.000275671,0.174835,0.0266284,-0.000104308,0.0133158,0.0811847,5,0.1,8,3.3,-0.637477,0.147515,0.597046,0.37344,0.106984,0.00321558,-0.171632,0.0390559,-0.00153854,0.0178408,0.0965808,5,0.1,9,3.3,3.61732,-1.5601,0.601916,0.0573114,0.55501,-0.00170087,0.125289,-0.349551,0.00109151,0.0499962,0.113494,5,0.1
0,3.4,-1.37913,-3.03897,1.33477,0.151107,0.0530899,0.0237286,0.395417,-0.0931025,-0.0656843,0.0168575,3.41143,5,0.1,1,3.4,1.11855,0.0997926,0.735093,-0.861639,-0.000923313,0.0125349,0.0876784,0.00365078,-0.00706315,0.0235062,1.07227,5,0.1,2,3.4,0.321419,3.5,1.29988,0.237679,0.113964,0.0473559,-0.0691563,0.154138,-0.0495911,0.0124002,1.14167,5,0.1,3,3.4,3.95249,1.76932,0.609614,-0.819862,0.147417,-0.00784695,-0.644684,-0.0994802,0.00530481,0.0199634,1.91999,5,0.1,4,3.4,-3.38363,-2.71665,1.0619,0.0333309,0.750637,0.11465,-0.00655651,-0.929236,-0.0220537,0.0243865,2.85329,5,0.1,5,3.4,1.28107,2.00691,0.730736,0.857323,-0.0511169,0.0167981,-0.138998,0.0411272,-0.00846386,0.0157556,0.713162,5,0.1,6,3.4,-0.235565,1.87399,0.614986,-0.0259362,0.866026,-0.00583977,0.00665337,0,0.00110269,0.0121499,2.2722,5,0.1,7,3.4,-4.07169,-3.15487,0.647184,-0.37061,-0.0524044,0.000263751,0.209332,0.0300407,-0.000149012,0.0151756,0.0632866,5,0.1,8,3.4,-0.601011,0.158279,0.59736,0.355345,0.107051,0.00305623,-0.203013,-0.036031,-0.00172853,0.0154052,0.166386,5,0.1,9,3.4,3.6236,-1.50649,0.601752,0.0676692,0.515354,-0.00158697,0.0789165,-0.450075,0.0012517,0.0496261,0.151118,5,0.1
0,3.5,-1.36255,-3.03411,1.33684,0.176856,0.0443075,0.017868,0.175141,-0.0829548,-0.0519902,0.0168575,3.41143,5,0.1,1,3.5,1.03254,0.0997202,0.736313,-0.859898,-0.000513066,0.0118854,-0.00369176,0.00437442,-0.00635535,0.0235062,1.07227,5,0.1,2,3.5,0.344459,3.51293,1.30438,0.220247,0.150823,0.0429189,-0.243543,0.525609,-0.0407025,0.0124002,1.14167,5,0.1,3,3.5,3.86814,1.78361,0.608853,-0.859593,0.138647,-0.00737943,-0.185058,-0.0815541,0.00435114,0.0199634,1.91999,5,0.1,4,3.5,-3.38032,-2.64693,1.0733,0.0330243,0.63922,0.113641,-0.00156462,-1.20293,-0.00490248,0.0243865,2.85329,5,0.1,5,3.5,1.36627,2.00199,0.732375,0.847304,-0.0473853,0.0159851,-0.101738,0.0351965,-0.00831112,0.0157556,0.713162,5,0.1,6,3.5,-0.23823,1.96059,0.614405,-0.0282341,0.866026,-0.00577793,-0.0451449,0,0.000454485,0.0121499,2.2722,5,0.1,7,3.5,-4.10786,-3.15998,0.64721,-0.353993,-0.0500765,0.000252295,0.142425,0.0193864,-9.31323e-05,0.0151756,0.0632866,5,0.1,8,3.5,-0.566437,0.168657,0.597657,0.336393,0.0991651,0.00289725,-0.187602,-0.11574,-0.00155345,0.0154052,0.166386,5,0.1,9,3.5,3.63074,-1.45701,0.601599,0.0747148,0.475916,-0.00147251,0.0584871,-0.358313,0.00108406,0.0496261,0.151118,5,0.1
0,3.6,-1.34402,-3.03008,1.33839,0.194305,0.0364244,0.0132442,0.199854,-0.0748634,-0.0408292,0.017282,3.46175,5,0.1,1,3.6,0.946715,0.0996907,0.737468,-0.853999,-7.97212e-05,0.0111923,0.156283,0.0041537,-0.00783801,0.019694,0.803924,5,0.1,2,3.6,0.365204,3.53086,1.30848,0.194587,0.208962,0.0389457,-0.249431,0.593305,-0.0398159,0.0146412,0.955827,5,0.1,3,3.6,3.7817,1.79706,0.608137,-0.866026,0.130147,-0.00692606,0,-0.0923872,0.00491738,0.014051,1.47604,5,0.1,4,3.6,-3.37703,-2.58888,1.08462,0.0326872,0.524861,0.112507,-0.00679493,-1.03211,-0.0225306,0.0222313,3.017,5,0.1,5,3.6,1.45028,1.99743,0.733929,0.830153,-0.0437945,0.0150517,-0.269115,0.0378489,-0.010699,0.0144296,0.950193,5,0.1,6,3.6,-0.241314,2.04719,0.613831,-0.0336479,0.866026,-0.00569522,-0.0574365,0,0.00146031,0.0148798,2.4618,5,0.1,7,3.6,-4.14253,-3.16489,0.647235,-0.338817,-0.0480354,0.000242889,0.174761,0.0236034,-0.000149012,0.0138964,0.0288217,5,0.1,8,3.6,-0.533787,0.177904,0.597939,0.315882,0.085007,0.00272691,-0.230461,-0.162341,-0.00187755,0.0140087,0.145605,5,0.1,9,3.6,3.63845,-1.41119,0.601457,0.0787854,0.440329,-0.00136048,0.0207424,-0.367343,0.00116229,0.0355164,1.66651,5,0.1
0,3.7,-1.32364,-3.02679,1.33953,0.212394,0.0295807,0.00970084,0.1515,-0.0625402,-0.0304803,0.017282,3.46175,5,0.1,1,3.7,0.861938,0.0997009,0.738551,-0.842106,0.000259688,0.0104687,0.120908,0.00267336,-0.00698492,0.019694,0.803924,5,0.1,2,3.7,0.38343,3.555,1.31219,0.171254,0.275327,0.0353821,-0.174638,0.690445,-0.0327379,0.0146412,0.955827,5,0.1,3,3.7,3.6951,1.80965,0.607468,-0.865873,0.121851,-0.00648443,0.00612438,-0.0781342,0.00415742,0.014051,1.47604,5,0.1,4,3.7,-3.37378,-2.54124,1.0958,0.0323273,0.434146,0.11134,-0.00226498,-0.66255,-0.00724941,0.0222313,3.017,5,0.1,5,3.7,1.53239,1.99322,0.735383,0.814954,-0.0403523,0.0140432,-0.0872761,0.0323802,-0.00989437,0.0144296,0.950193,5,0.1,6,3.7,-0.245017,2.13317,0.613267,-0.0407598,0.847354,-0.00560451,-0.0784891,-0.367045,0.000670552,0.0148798,2.4618,5,0.1,7,3.7,-4.17556,-3.16958,0.647258,-0.321778,-0.045757,0.000229012,0.176281,0.023514,-0.000137836,0.0138964,0.0288217,5,0.1,8,3.7,-0.503325,0.185545,0.598202,0.293422,0.0674662,0.00254381,-0.226032,-0.18352,-0.00184774,0.0140087,0.145605,5,0.1,9,3.7,3.64641,-1.36774,0.601326,0.0803467,0.438892,-0.00125393,0.0076443,0.253409,0.00100583,0.0355164,1.66651,5,0.1
0,3.8,-1.30179,-3.02413,1.34036,0.22288,0.0238121,0.00706315,0.0514984,-0.0531673,-0.0225306,0.0115006,3.61179,5,0.1,1,3.8,0.778537,0.0997381,0.739562,-0.823171,0.000462681,0.00973642,0.28488,0.00141934,-0.00795722,0.018656,0.725335,5,0.1,2,3.8,0.4,3.58585,1.31557,0.16329,0.33952,0.0321746,0.00905991,0.562072,-0.0323057,0.00835973,0.763299,5,0.1,3,3.8,3.60859,1.82143,0.60684,-0.863582,0.113738,-0.00605285,0.0491142,-0.0873804,0.00467896,0.0165313,1.11715,5,0.1,4,3.8,-3.37057,-2.5,1.10688,0.0319123,0.401938,0.109959,-0.00739098,-0.00536442,-0.0249147,0.0207575,2.8523,5,0.1,5,3.8,1.61339,1.98935,0.736736,0.803691,-0.03708,0.0129998,-0.175655,0.0339746,-0.0112057,0.0102319,0.695907,5,0.1,6,3.8,-0.249478,2.21551,0.61271,-0.0482511,0.794107,-0.00550747,-0.066705,-0.689387,0.00149012,0.0155662,2.88158,5,0.1,7,3.8,-4.20679,-3.17403,0.64728,-0.301862,-0.0430822,0.000214577,0.228167,0.0311136,-0.000149012,0.0110055,0.0111828,5,0.1,8,3.8,-0.475154,0.191373,0.598447,0.26947,0.0491749,0.00234693,-0.25779,-0.178553,-0.00217557,0.0166008,0.329771,5,0.1,9,3.8,3.65445,-1.32214,0.601206,0.0798464,0.475982,-0.00115186,-0.0196695,0.423193,0.00104308,0.0500304,1.37288,5,0.1
0,3.9,-1.27961,-3.02199,1.34097,0.217424,0.0192251,0.00523441,-0.148125,-0.0394732,-0.0145584,0.0115006,3.61179,5,0.1,1,3.9,0.697522,0.0997893,0.740498,-0.797515,0.000543392,0.00900393,0.260111,0.000264961,-0.00699237,0.018656,0.725335,5,0.1,2,3.9,0.416806,3.62266,1.31863,0.176272,0.396213,0.0292802,0.216559,0.538245,-0.0266507,0.00835973,0.763299,5,0.1,3,3.9,3.52227,1.8324,0.606257,-0.863973,0.105815,-0.00562873,-0.016436,-0.0748634,0.00400096,0.0165313,1.11715,5,0.1,4,3.9,-3.3674,-2.45834,1.11778,0.0313777,0.443358,0.108161,-0.00487268,0.72372,-0.0164285,0.0207575,2.8523,5,0.1,5,3.9,1.69312,1.9858,0.737983,0.792131,-0.0339903,0.0119561,-0.0971705,0.0289828,-0.0100285,0.0102319,0.695907,5,0.1,6,3.9,-0.254661,2.29058,0.612165,-0.0555336,0.700047,-0.00541499,-0.0734003,-1.13083,0.000666827,0.0155662,2.88158,5,0.1,7,3.9,-4.23582,-3.17818,0.647301,-0.278544,-0.039899,0.00019921,0.242859,0.0332743,-0.000160187,0.0110055,0.0111828,5,0.1,8,3.9,-0.44947,0.195435,0.598671,0.24434,0.0324955,0.00213468,-0.249384,-0.153115,-0.00210479,0.0166008,0.329771,5,0.1,9,3.9,3.66202,-1.2719,0.601096,0.0688244,0.532461,-0.0010564,-0.183389,0.64119,0.000905246,0.0500304,1.37288,5,0.1
0,4,-1.25885,-3.02025,1.34143,0.19559,0.0157535,0.0040561,-0.277817,-0.030756,-0.00935793,0.0235863,0.36326,5,0.1,1,4,0.619243,0.0998436,0.741363,-0.765786,0.000528991,0.00828952,0.396222,-0.000499189,-0.00753999,0.0230782,0.964538,5,0.1,2,4,0.435628,3.66471,1.32143,0.200628,0.441486,0.0266641,0.244856,0.343919,-0.0264645,0.0161702,0.259519,5,0.1,3,4,3.43594,1.8426,0.605714,-0.860363,0.0981212,-0.00521839,0.113249,-0.0816584,0.00435114,0.0136372,0.817288,5,0.1,4,4,-3.3643,-2.40993,1.12849,0.0306726,0.527304,0.10576,-0.010252,0.871181,-0.0353456,0.0169678,2.54188,5,0.1,5,4,1.7717,1.98255,0.739128,0.777176,-0.0310898,0.0109345,-0.231087,0.0298619,-0.0106394,0.0125804,0.981017,5,0.1,6,4,-0.260556,2.35461,0.611627,-0.0619814,0.578475,-0.0053212,-0.0516027,-1.25623,0.00143051,0.0126514,3.22632,5,0.1,7,4,-4.26241,-3.18199,0.64732,-0.252581,-0.0363171,0.000181794,0.279665,0.0388622,-0.000178814,0.015739,0.00579153,5,0.1,8,4,-0.426299,0.197974,0.598874,0.218846,0.0188496,0.00191778,-0.263423,-0.118755,-0.00220537,0.0131964,0.489626,5,0.1,9,4,3.66783,-1.21552,0.600995,0.046289,0.592932,-0.000965595,-0.253439,0.520647,0.000923872,0.0204594,1.05764,5,0.1
0,4.1,-1.24084,-3.0188,1.3418,0.163536,0.0132639,0.00340194,-0.352822,-0.0200123,-0.00423193,0.0235863,0.36326,5,0.1,1,4.1,0.544524,0.0998684,0.742157,-0.729122,-0.000224472,0.00759847,0.363188,-0.012124,-0.00652671,0.0230782,0.964538,5,0.1,2,4.1,0.456769,3.71039,1.32397,0.220582,0.469898,0.0242906,0.147942,0.207901,-0.0218824,0.0161702,0.259519,5,0.1,3,4.1,3.35026,1.85203,0.605213,-0.854221,0.09069,-0.00482276,0.0537783,-0.07011,0.00373274,0.0136372,0.817288,5,0.1,4,4.1,-3.36127,-2.35217,1.13892,0.029882,0.632217,0.103031,-0.00703335,1.13721,-0.0243336,0.0169678,2.54188,5,0.1,5,4.1,1.84818,1.97958,0.740172,0.751027,-0.028378,0.00995286,-0.31051,0.0253245,-0.00929087,0.0125804,0.981017,5,0.1,6,4.1,-0.266915,2.40592,0.6111,-0.0642805,0.447478,-0.00524642,0.00353903,-1.27755,0.000391155,0.0126514,3.22632,5,0.1,7,4.1,-4.28629,-3.18543,0.647338,-0.225113,-0.0324965,0.000163913,0.273228,0.0380874,-0.000178814,0.015739,0.00579153,5,0.1,8,4.1,-0.40573,0.199251,0.599055,0.192532,0.00679826,0.00169594,-0.263678,-0.113093,-0.00224262,0.0131964,0.489626,5,0.1,9,4.1,3.67108,-1.15345,0.600902,0.0179496,0.648897,-0.000881124,-0.300482,0.548169,0.000793487,0.0204594,1.05764,5,0.1
0,4.2,-1.2263,-3.01757,1.34212,0.126898,0.0115752,0.00312328,-0.371695,-0.0144243,-0.00178814,0.0097861,0.812527,5,0.1,1,4.2,0.473548,0.0997824,0.742884,-0.688753,-0.00148322,0.00694096,0.46198,-0.0113696,-0.00676513,0.0174885,2.16266,5,0.1,2,4.2,0.479366,3.75808,1.3263,0.229242,0.480419,0.0221372,0.0217706,-0.00762939,-0.0218153,0.0103024,0.164269,5,0.1,3,4.2,3.26531,1.86075,0.604749,-0.842106,0.0835657,-0.00444353,0.219345,-0.074625,0.00396371,0.0147637,0.753798,5,0.1,4,4.2,-3.35832,-2.28343,1.14908,0.0290096,0.739193,0.100023,-0.0114441,0.936747,-0.0395179,0.0153896,2.33649,5,0.1,5,4.2,1.92147,1.97686,0.741121,0.712061,-0.0258595,0.00902563,-0.480413,0.0257492,-0.00950694,0.00825731,1.59459,5,0.1,6,4.2,-0.273248,2.44478,0.610578,-0.0616811,0.335795,-0.0051856,0.0464171,-0.913978,0.00104308,0.00815797,3.34682,5,0.1,7,4.2,-4.30742,-3.18849,0.647353,-0.197399,-0.0286102,0.000144541,0.283003,0.0396967,-0.000178814,0.0102285,0.00175157,5,0.1,8,4.2,-0.3878,0.199433,0.599213,0.166004,-0.00233278,0.00146925,-0.267103,-0.0643432,-0.00229478,0.00886435,2.03343,5,0.1,9,4.2,3.67138,-1.08612,0.600818,-0.0115573,0.693974,-0.000801682,-0.279903,0.317812,0.000804663,0.039375,0.848112,5,0.1
0,4.3,-1.21544,-3.01647,1.34243,0.0907734,0.0104673,0.00308268,-0.34517,-0.00852346,0.000596046,0.0097861,0.812527,5,0.1,1,4.3,0.406852,0.0994177,0.743546,-0.645907,-0.00684751,0.00632321,0.416594,-0.0744318,-0.00579283,0.0174885,2.16266,5,0.1,2,4.3,0.502328,3.806,1.32841,0.229156,0.476791,0.0201782,-0.0288393,-0.0786185,-0.0180826,0.0103024,0.164269,5,0.1,3,4.3,3.18205,1.86876,0.604793,-0.823358,0.0767719,0.0092526,0.191182,-0.0638515,0.240464,0.0147637,0.753798,5,0.1,4,4.3,-3.35547,-2.20534,1.15892,0.0281297,0.817049,0.0969805,-0.00759959,0.597447,-0.0263005,0.0153896,2.33649,5,0.1,5,4.3,1.98956,1.9744,0.741979,0.643306,-0.0235265,0.00815559,-0.86157,0.0217035,-0.00814348,0.00825731,1.59459,5,0.1,6,4.3,-0.27915,2.47462,0.610062,-0.0560278,0.268895,-0.00513196,0.0655092,-0.435024,0.000327826,0.00815797,3.34682,5,0.1,7,4.3,-4.32576,-3.19116,0.647367,-0.169603,-0.024699,0.000126567,0.273615,0.0386387,-0.000182539,0.0102285,0.00175157,5,0.1,8,4.3,-0.372494,0.198691,0.599349,0.140522,-0.0129612,0.00124956,-0.243666,-0.0943728,-0.00211224,0.00886435,2.03343,5,0.1,9,4.3,3.66866,-1.01509,0.600742,-0.0440493,0.725849,-0.000728387,-0.350416,0.279941,0.000681728,0.039375,0.848112,5,0.1
0,4.4,-1.208,-3.01546,1.34274,0.0588,0.00974536,0.00317395,-0.290573,-0.00667572,0.00101328,0.00869047,1.82457,5,0.1,1,4.4,0.344413,0.0983951,0.74415,-0.601791,-0.0129122,0.00574738,0.480533,-0.0337735,-0.00587106,0.0143321,2.03108,5,0.1,2,4.4,0.524981,3.85308,1.33034,0.222629,0.462478,0.018397,-0.104785,-0.216126,-0.0181198,0.0107954,0.341106,5,0.1,3,4.4,3.10087,1.87612,0.60711,-0.797868,0.0703514,0.0384048,0.342965,-0.0663996,0.31963,0.0147836,0.699168,5,0.1,4,4.4,-3.3527,-2.12132,1.16848,0.0272453,0.856453,0.0939161,-0.0112057,0.19145,-0.0385642,0.0190925,2.2708,5,0.1,5,4.4,2.04918,1.97215,0.742754,0.5458,-0.0213802,0.00735372,-1.06096,0.0218153,-0.00810623,0.0149562,1.5586,5,0.1,6,4.4,-0.284402,2.5,0.609552,-0.0487983,0.244826,-0.00506788,0.0779927,-0.0748634,0.00110269,0.0132698,2.79395,5,0.1,7,4.4,-4.34137,-3.19343,0.647378,-0.142598,-0.0208616,0.000108778,0.266552,0.0377893,-0.000208616,0.0173658,0.000813429,5,0.1,8,4.4,-0.359628,0.197199,0.599463,0.117085,-0.0134461,0.00104606,-0.225842,0.108443,-0.00199676,0.01071,3.61337,5,0.1,9,4.4,3.66252,-0.941438,0.600672,-0.0782371,0.743274,-0.000661612,-0.319004,0.041455,0.000715256,0.0181299,0.617704,5,0.1
0,4.5,-1.20346,-3.01451,1.34307,0.033227,0.00926182,0.00333264,-0.219017,-0.00360608,0.00186265,0.00869047,1.82457,5,0.1,1,4.5,0.2865,0.0968638,0.744697,-0.557384,-0.0173096,0.00521354,0.425633,-0.012116,-0.00497699,0.0143321,2.03108,5,0.1,2,4.5,0.547017,3.8984,1.33209,0.220427,0.444874,0.016769,0.0363179,-0.157416,-0.0150502,0.0107954,0.341106,5,0.1,3,4.5,3.02267,1.883,0.612879,-0.766432,0.0687597,0.0794308,0.314742,0.0225082,0.468828,0.0147836,0.699168,5,0.1,4,4.5,-3.35002,-2.03509,1.17771,0.0264097,0.865427,0.0910392,-0.00692904,0.0239313,-0.0238791,0.0190925,2.2708,5,0.1,5,4.5,2.09814,1.97012,0.743451,0.431483,-0.019408,0.00661686,-1.18352,0.0182986,-0.00683963,0.0149562,1.5586,5,0.1,6,4.5,-0.288875,2.52408,0.609047,-0.040555,0.237395,-0.0050473,0.0854358,-0.0418723,-0.00031665,0.0132698,2.79395,5,0.1,7,4.5,-4.35432,-3.19533,0.647388,-0.116848,-0.0171963,8.85688e-05,0.247985,0.0354499,-0.00018999,0.0173658,0.000813429,5,0.1,8,4.5,-0.348947,0.196533,0.599558,0.0974361,0.00504085,0.00085216,-0.171326,0.388318,-0.0018701,0.01071,3.61337,5,0.1,9,4.5,3.65341,-0.866888,0.600609,-0.101129,0.747049,-0.000596978,-0.145629,0.00214204,0.000596046,0.0181299,0.617704,5,0.1
0,4.6,-1.20111,-3.0136,1.34341,0.0151634,0.00892282,0.00349879,-0.142395,-0.00369549,0.00113249,0.00941716,2.24999,5,0.1,1,4.6,0.232919,0.0953575,0.745194,-0.51362,-0.00949055,0.00472367,0.462063,0.184882,-0.00497699,0.0138955,1.84666,5,0.1,2,4.6,0.569309,3.94206,1.3337,0.225627,0.427336,0.0152856,0.0495017,-0.208497,-0.0150204,0.011077,0.100055,5,0.1,3,4.6,2.94775,1.89005,0.623195,-0.730044,0.0727266,0.126559,0.43273,0.0476837,0.449717,0.0144914,0.512086,5,0.1,4,4.6,-3.34741,-1.9485,1.18669,0.0256181,0.866026,0.0883043,-0.00989437,-5.96046e-05,-0.0343323,0.0140597,2.26695,5,0.1,5,4.6,2.13545,1.96827,0.74408,0.316161,-0.0176102,0.00594854,-1.09398,0.018239,-0.00667572,0.00933077,1.51634,5,0.1,6,4.6,-0.292501,2.54785,0.608541,-0.0319719,0.240529,-0.0050649,0.0850707,0.11313,0.000208616,0.00905117,2.11397,5,0.1,7,4.6,-4.3648,-3.19688,0.647396,-0.0930905,-0.0137806,7.00355e-05,0.226498,0.0325441,-0.000178814,0.0152708,0.000665763,5,0.1,8,4.6,-0.339999,0.2,0.599634,0.0820763,0.0742231,0.000673532,-0.139087,0.968367,-0.00169873,0.011392,3.15394,5,0.1,9,4.6,3.64281,-0.79245,0.600553,-0.108671,0.738372,-0.000537932,-0.0112057,-0.197083,0.000566244,0.0182775,1.44417,5,0.1
0,4.7,-1.20022,-3.01265,1.34376,0.00329688,0.0108883,0.0036329,-0.0946373,0.0374615,0.0013262,0.00941716,2.24999,5,0.1,1,4.7,0.18373,0.0955519,0.745643,-0.471135,0.0173757,0.00427309,0.402708,0.415866,-0.00417978,0.0138955,1.84666,5,0.1,2,4.7,0.592096,3.9837,1.33515,0.229654,0.404754,0.013935,0.0219643,-0.250623,-0.0124946,0.011077,0.100055,5,0.1,3,4.7,2.87678,1.89764,0.638187,-0.689925,0.0795793,0.173549,0.393525,0.0801235,0.46578,0.0144914,0.512086,5,0.1,4,4.7,-3.34489,-1.8619,1.19539,0.0249136,0.866025,0.0858525,-0.00561774,1.49012e-05,-0.0195131,0.0140597,2.26695,5,0.1,5,4.7,2.16175,1.96659,0.744643,0.212628,-0.0159653,0.00534486,-0.930369,0.0152066,-0.00557303,0.00933077,1.51634,5,0.1,6,4.7,-0.295139,2.57253,0.608034,-0.0196994,0.255888,-0.00508483,0.150621,0.266269,-0.000305474,0.00905117,2.11397,5,0.1,7,4.7,-4.37302,-3.1981,0.647402,-0.0716783,-0.0106912,5.33648e-05,0.201076,0.0291318,-0.000160187,0.0152708,0.000665763,5,0.1,8,4.7,-0.332407,0.213535,0.599693,0.0704515,0.206293,0.000516605,-0.0974666,1.5604,-0.00144169,0.011392,3.15394,5,0.1,9,4.7,3.63223,-0.719558,0.600502,-0.100031,0.719209,-0.000486616,0.157848,-0.212219,0.000473112,0.0182775,1.44417,5,0.1
0,4.8,-1.20029,-3.01134,1.34413,-0.00377595,0.0154376,0.00372529,-0.0473261,0.0493526,0.000298023,0.0100303,2.22957,5,0.1,1,4.8,0.138632,0.1,0.74605,-0.430526,0.0774862,0.00386387,0.419933,0.760954,-0.00414252,0.0136393,1.57793,5,0.1,2,4.8,0.615066,4.0228,1.33649,0.228517,0.376022,0.0127017,-0.0505745,-0.328064,-0.012517,0.0124656,0.19217,5,0.1,3,4.8,2.80985,1.90599,0.657733,-0.647318,0.0871509,0.215547,0.474811,0.0646114,0.356793,0.0118516,0.370535,5,0.1,4,4.8,-3.34243,-1.77529,1.20387,0.0242591,0.866026,0.0835806,-0.00846386,-5.96046e-05,-0.0293255,0.0156884,2.26738,5,0.1,5,4.8,2.17891,1.96507,0.745151,0.136638,-0.014472,0.00480413,-0.570416,0.0150204,-0.00542402,0.0119192,2.19215,5,0.1,6,4.8,-0.296314,2.6,0.607525,-0.00357851,0.298601,-0.00507534,0.16427,0.564098,0.000685453,0.00750692,1.44061,5,0.1,7,4.8,-4.37923,-3.19903,0.647407,-0.0529766,-0.00796914,4.02331e-05,0.172615,0.0251532,-0.000178814,0.0162344,0.000528656,5,0.1,8,4.8,-0.325808,0.242179,0.599738,0.0618666,0.366527,0.00038445,-0.077337,1.55916,-0.00119209,0.0108727,2.67818,5,0.1,9,4.8,3.62312,-0.648896,0.600455,-0.0815213,0.691584,-0.000441074,0.19455,-0.357658,0.000476837,0.0177518,3.55828,5,0.1
0,4.9,-1.201,-3.00958,1.34451,-0.010947,0.0194203,0.0037631,-0.0768229,0.0300556,0.000275671,0.0100303,2.22957,5,0.1,1,4.9,0.0976317,0.112252,0.746428,-0.389767,0.172741,0.00380082,0.402637,1.07378,0.00207499,0.0136393,1.57793,5,0.1,2,4.9,0.637819,4.05895,1.3377,0.22765,0.3483,0.0115754,0.0159033,-0.243008,-0.0104234,0.0124656,0.19217,5,0.1,3,4.9,2.74757,1.91505,0.681067,-0.59737,0.0940779,0.250575,0.53069,0.0671223,0.324622,0.0118516,0.370535,5,0.1,4,4.9,-3.34004,-1.68869,1.21211,0.0236828,0.866025,0.0815822,-0.00439584,1.49012e-05,-0.0153109,0.0156884,2.26738,5,0.1,5,4.9,2.1903,1.9637,0.745593,0.0978369,-0.0127539,0.00394229,-0.170216,0.018999,-0.0111312,0.0119192,2.19215,5,0.1,6,4.9,-0.295813,2.63334,0.60702,0.0138109,0.373084,-0.00502709,0.176234,0.854626,0.000521541,0.00750692,1.44061,5,0.1,7,4.9,-4.38371,-3.19971,0.64741,-0.0370637,-0.00564046,2.45869e-05,0.145257,0.0213534,-0.00013411,0.0162344,0.000528656,5,0.1,8,4.9,-0.31995,0.287038,0.599771,0.0557744,0.532485,0.000278372,-0.0482742,1.67197,-0.000935048,0.0108727,2.67818,5,0.1,9,4.9,3.61627,-0.581724,0.600413,-0.0541985,0.649763,-0.000393763,0.27442,-0.48298,0.000469387,0.0177518,3.55828,5,0.1
0,5,-1.2024,-3.00752,1.34488,-0.0160962,0.0214279,0.00374913,-0.0151396,0.0101328,-0.000655651,0.0123084,2.15945,5,0.1,1,5,0.060688,0.134934,0.746823,-0.348783,0.279936,0.00413507,0.421811,1.01742,0.00399351,0.0151478,1.27475,5,0.1,2,5,0.660657,4.09259,1.3388,0.228706,0.324571,0.010547,-0.00733137,-0.243664,-0.0104308,0.0128486,0.140203,5,0.1,3,5,2.69062,1.92475,0.707566,-0.540197,0.0994235,0.277242,0.616074,0.0349283,0.195563,0.0138572,0.293769,5,0.1,4,5,-3.33769,-1.60209,1.22019,0.0231445,0.866026,0.0797212,-0.00715256,-5.96046e-05,-0.0252128,0.0179026,2.26774,5,0.1,5,5,2.2,1.96253,0.745927,0.103396,-0.0107408,0.00270009,0.254035,0.0209808,-0.0131726,0.00886721,2.10429,5,0.1,6,5,-0.29358,2.67492,0.606521,0.0304095,0.457174,-0.00493228,0.150412,0.774384,0.00154972,0.0100903,0.201673,5,0.1,7,5,-4.38674,-3.20017,0.647412,-0.023973,-0.00370741,1.3411e-05,0.115871,0.0171661,-0.000119209,0.0136141,0.000324714,5,0.1,8,5,-0.314591,0.348238,0.599795,0.0515521,0.685781,0.000195205,-0.0389963,1.33055,-0.000715256,0.00759341,2.38873,5,0.1,9,5,3.61189,-0.519395,0.600376,-0.0379741,0.594465,-0.000345707,0.0141859,-0.623956,0.000476837,0.016697,3.44008,5,0.1
0,5.1,-1.20416,-3.00536,1.34526,-0.0185238,0.0215288,0.0036886,0.0102147,-0.00731647,-0.000707805,0.0123084,2.15945,5,0.1,1,5.1,0.027792,0.168209,0.747258,-0.310173,0.386084,0.00456721,0.359455,1.05114,0.00426918,0.0151478,1.27475,5,0.1,2,5.1,0.683566,4.12395,1.33981,0.229875,0.303611,0.00960808,0.017073,-0.188947,-0.00867993,0.0128486,0.140203,5,0.1,3,5.1,2.63993,1.93491,0.736295,-0.471647,0.10402,0.297147,0.74245,0.049226,0.183757,0.0138572,0.293769,5,0.1,4,5.1,-3.3354,-1.51549,1.22807,0.0226781,0.866025,0.0780687,-0.00345707,1.49012e-05,-0.0123233,0.0179026,2.26774,5,0.1,5,5.1,2.21163,1.96147,0.745982,0.129066,-0.0112612,-0.00282126,0.246212,-0.0257939,-0.0876002,0.00886721,2.10429,5,0.1,6,5.1,-0.289791,2.72393,0.606035,0.0451743,0.516935,-0.00479268,0.139367,0.415877,0.00143424,0.0100903,0.201673,5,0.1,7,5.1,-4.3886,-3.20046,0.647413,-0.0136107,-0.00216477,3.63216e-06,0.0913143,0.0136644,-7.82311e-05,0.0136141,0.000324714,5,0.1,8,5.1,-0.309589,0.422674,0.599811,0.0488126,0.794563,0.000133738,-0.0192914,0.829238,-0.000521541,0.00759341,2.38873,5,0.1,9,5.1,3.60779,-0.463092,0.600344,-0.0502132,0.531264,-0.0002997,-0.354975,-0.643268,0.000447035,0.016697,3.44008,5,0.1
0,5.2,-1.20566,-3.00327,1.34562,-0.0080198,0.0201166,0.00358522,0.216484,-0.0201464,-0.00154972,0.0102938,1.61496,5,0.1,1,5.2,-0.00147076,0.211761,0.747734,-0.27534,0.480844,0.00492483,0.34364,0.805281,0.0026226,0.0137105,0.979489,5,0.1,2,5.2,0.706587,4.15337,1.34073,0.229795,0.284481,0.00874996,-0.028342,-0.202894,-0.00864267,0.00966396,0.173295,5,0.1,3,5.2,2.59659,1.94553,0.766784,-0.394022,0.107938,0.31082,0.799179,0.0236034,0.0768006,0.00880593,0.685487,5,0.1,4,5.2,-3.33316,-1.42888,1.2358,0.0222266,0.866026,0.0764906,-0.0064373,-5.96046e-05,-0.0224113,0.0114785,1.94929,5,0.1,5,5.2,2.22567,1.96017,0.745205,0.1504,-0.0149041,-0.0131056,0.171423,-0.0427365,-0.110596,0.00772543,2.05279,5,0.1,6,5.2,-0.284633,2.77708,0.605564,0.0573494,0.539839,-0.0046134,0.1003,0.0420809,0.00229478,0.00775023,0.187764,5,0.1,7,5.2,-4.38954,-3.20062,0.647413,-0.00571012,-0.000977516,-2.98023e-06,0.0667572,0.0101328,-2.98023e-05,0.00963969,0.000152364,5,0.1,8,5.2,-0.304795,0.505384,0.599822,0.0470862,0.850829,8.9407e-05,-0.0178069,0.303894,-0.000357628,0.00927098,2.28051,5,0.1,9,5.2,3.6,-0.413233,0.600316,-0.115126,0.465366,-0.0002563,-0.908732,-0.675887,0.000417233,0.0216196,3.04697,5,0.1
0,5.3,-1.20512,-3.00137,1.34597,0.0228416,0.0177704,0.00343993,0.452295,-0.0262558,-0.00147521,0.0102938,1.61496,5,0.1,1,5.3,-0.0274097,0.263843,0.74824,-0.244456,0.559418,0.00518244,0.282342,0.724278,0.00224262,0.0137105,0.979489,5,0.1,2,5.3,0.729655,4.18108,1.34157,0.233268,0.271779,0.00810195,0.0747852,-0.0736415,-0.00489503,0.00966396,0.173295,5,0.1,3,5.3,2.56222,1.95619,0.797661,-0.285143,0.102866,0.301406,1.30443,-0.11377,-0.242583,0.00880593,0.685487,5,0.1,4,5.3,-3.33096,-1.34228,1.24336,0.0217516,0.866025,0.07484,-0.00415742,1.49012e-05,-0.0144243,0.0114785,1.94929,5,0.1,5,5.3,2.24144,1.95815,0.7431,0.163804,-0.0281397,-0.0309126,0.0930876,-0.200063,-0.226431,0.00772543,2.05279,5,0.1,6,5.3,-0.278413,2.83115,0.605114,0.0667602,0.53997,-0.00440059,0.0836384,-0.0545382,0.00211969,0.00775023,0.187764,5,0.1,7,5.3,-4.38981,-3.20067,0.647412,-6.70552e-06,-0.000106171,-5.02914e-06,0.0474751,0.00731647,-7.45058e-06,0.00963969,0.000152364,5,0.1,8,5.3,-0.300145,0.591397,0.59983,0.0461527,0.865075,6.01634e-05,-0.00415742,0.0379942,-0.000230968,0.00927098,2.28051,5,0.1,9,5.3,3.58271,-0.369932,0.600293,-0.240054,0.401912,-0.000217929,-1.47998,-0.600249,0.000357628,0.0216196,3.04697,5,0.1
0,5.4,-1.2,-2.99973,1.34631,0.0849038,0.0149667,0.00326633,0.762165,-0.0293255,-0.00196695,0.00975044,1.73824,5,0.1,1,5.4,-0.0504895,0.322991,0.748767,-0.217445,0.618643,0.00532717,0.263845,0.431567,0.000417233,0.014287,0.717661,5,0.1,2,5.4,0.753371,4.20795,1.34236,0.240766,0.265825,0.00767112,0.0582635,-0.0617504,-0.00417233,0.00967013,0.105768,5,0.1,3,5.4,2.54055,1.96575,0.826216,-0.146282,0.0872344,0.266457,1.41549,-0.189543,-0.437438,0.00693065,0.362579,5,0.1,4,5.4,-3.32881,-1.25568,1.25076,0.0212073,0.866026,0.0729531,-0.00762939,-5.96046e-05,-0.0258684,0.0138919,1.52556,5,0.1,5,5.4,2.25814,1.95422,0.738815,0.16849,-0.0510335,-0.0550255,-0.00107288,-0.240982,-0.24125,0.00915012,1.88216,5,0.1,6,5.4,-0.271375,2.88462,0.604685,0.0733644,0.5265,-0.00416338,0.0455976,-0.224233,0.00274181,0.00689086,1.03481,5,0.1,7,5.4,-4.38961,-3.20065,0.647412,0.00383854,0.000488758,-5.96046e-06,0.0298023,0.00476837,0,0.00968657,5.43012e-05,5,0.1,8,5.4,-0.29555,0.677981,0.599835,0.0456847,0.866026,4.32134e-05,-0.00756979,0,-0.000178814,0.00833524,2.27051,5,0.1,9,5.4,3.55111,-0.332664,0.600273,-0.391859,0.344118,-0.000184774,-1.47307,-0.560537,0.000327826,0.016353,2.62325,5,0.1
0,5.5,-1.18681,-2.99838,1.34662,0.185573,0.0120152,0.00308119,1.16874,-0.0293702,-0.00183284,0.00975044,1.73824,5,0.1,1,5.5,-0.0710474,0.387017,0.749295,-0.194809,0.660925,0.00516828,0.197888,0.375995,-0.00339001,0.014287,0.717661,5,0.1,2,5.5,0.777793,4.23431,1.34311,0.24782,0.26208,0.00733845,0.0678971,-0.0279546,-0.00286102,0.00967013,0.105768,5,0.1,3,5.5,2.53304,1.97355,0.850797,-0.00469536,0.0690052,0.22627,1.37636,-0.174232,-0.371397,0.00693065,0.362579,5,0.1,4,5.5,-3.32672,-1.16908,1.25794,0.0205535,0.865907,0.070739,-0.00633299,-0.00471622,-0.02148,0.0138919,1.52556,5,0.1,5,5.5,2.27529,1.94787,0.732181,0.176971,-0.0761298,-0.0767842,0.144511,-0.248812,-0.189081,0.00915012,1.88216,5,0.1,6,5.5,-0.263825,2.93691,0.604281,0.0774007,0.525328,-0.00390876,0.0317246,0.138551,0.00248104,0.00689086,1.03481,5,0.1,7,5.5,-4.38909,-3.20058,0.647411,0.006143,0.000863895,-5.4948e-06,0.0166595,0.00278652,1.11759e-05,0.00968657,5.43012e-05,5,0.1,8,5.5,-0.290995,0.764584,0.599838,0.0455814,0.866026,3.00817e-05,0.00236742,-3.72529e-06,-8.56817e-05,0.00833524,2.27051,5,0.1,9,5.5,3.50414,-0.300859,0.600256,-0.549442,0.293692,-0.00015581,-1.59174,-0.456955,0.000257045,0.016353,2.62325,5,0.1
0,5.6,-1.1623,-2.99732,1.34692,0.304195,0.00916123,0.00288188,1.14161,-0.0275373,-0.00214577,0.0129262,2.80246,5,0.1,1,5.6,-0.0895874,0.454642,0.74979,-0.176304,0.687443,0.0046894,0.17884,0.128433,-0.00599027,0.0126461,0.504883,5,0.1,2,5.6,0.80283,4.26034,1.34383,0.251818,0.257719,0.00703335,0.00166893,-0.0696182,-0.00351667,0.01111,0.0933946,5,0.1,3,5.6,2.53912,1.97961,0.871643,0.122154,0.0525326,0.191292,1.13237,-0.154674,-0.331879,0.00743246,0.248231,5,0.1,4,5.6,-3.3247,-1.08255,1.2649,0.0197887,0.864133,0.0681341,-0.00953674,-0.0377893,-0.0326633,0.013077,1.15965,5,0.1,5,5.6,2.29377,1.93908,0.723676,0.192821,-0.0987142,-0.0920594,0.152826,-0.194192,-0.113487,0.0072398,2.52972,5,0.1,6,5.6,-0.255972,2.99031,0.603903,0.0791475,0.543332,-0.00364333,0.000976026,0.175118,0.00283122,0.00780841,0.801429,5,0.1,7,5.6,-4.38842,-3.20048,0.647411,0.00724792,0.00104904,-4.47035e-06,0.00548363,0.00119209,0,0.00847981,1.59791e-05,5,0.1,8,5.6,-0.286429,0.851186,0.599841,0.0456184,0.866026,2.38419e-05,-0.0038594,0,-2.98023e-05,0.0129671,2.27051,5,0.1,9,5.6,3.44163,-0.273664,0.600241,-0.69527,0.251161,-0.00013262,-1.26219,-0.400394,0.000238419,0.0210169,2.36018,5,0.1
0,5.7,-1.12536,-2.99654,1.3472,0.44009,0.00656843,0.00263359,1.47835,-0.0241697,-0.00279397,0.0129262,2.80246,5,0.1,1,5.7,-0.106414,0.524015,0.750226,-0.160946,0.699073,0.00402443,0.135611,0.0737013,-0.00716746,0.0126461,0.504883,5,0.1,2,5.7,0.828006,4.28578,1.34423,0.251329,0.251048,-0.00119284,-0.0207722,-0.0731647,-0.143573,0.01111,0.0933946,5,0.1,3,5.7,2.55665,1.98421,0.889493,0.224688,0.0402832,0.168956,0.900224,-0.094749,-0.136498,0.00743246,0.248231,5,0.1,4,5.7,-3.32277,-0.996153,1.27156,0.0189248,0.864542,0.0651738,-0.00847876,0.0103153,-0.0290498,0.013077,1.15965,5,0.1,5,5.7,2.31431,1.92817,0.713932,0.22191,-0.120057,-0.102384,0.385195,-0.217974,-0.0877306,0.0072398,2.52972,5,0.1,6,5.7,-0.248059,3.04586,0.603553,0.0789757,0.569668,-0.0033807,-0.00718795,0.303403,0.00252575,0.00780841,0.801429,5,0.1,7,5.7,-4.38768,-3.20037,0.64741,0.00740439,0.00110455,-4.00469e-06,-0.00196695,-1.49012e-05,1.11759e-05,0.00847981,1.59791e-05,5,0.1,8,5.7,-0.281866,0.937789,0.599843,0.0457746,0.866026,2.33762e-05,0.00397861,0,1.86265e-05,0.0129671,2.27051,5,0.1,9,5.7,3.36654,-0.250361,0.600229,-0.79864,0.216529,-0.000112504,-0.788242,-0.30195,0.000171363,0.0210169,2.36018,5,0.1
0,5.8,-1.07407,-2.996,1.34745,0.582847,0.00435114,0.00232756,1.30451,-0.0201464,-0.00333786,0.00944881,2.45678,5,0.1,1,5.8,-0.121853,0.593997,0.750592,-0.147923,0.697099,0.00328124,0.130132,-0.133485,-0.00756979,0.0122713,0.34433,5,0.1,2,5.8,0.852936,4.31045,1.34328,0.246118,0.24153,-0.0185817,-0.0895262,-0.123978,-0.190616,0.010595,0.128009,5,0.1,3,5.8,2.58312,1.98783,0.905882,0.299293,0.0327855,0.160158,0.580907,-0.0588298,-0.0561774,0.00695274,0.206127,5,0.1,4,5.8,-3.32092,-0.909793,1.27792,0.0179708,0.860696,0.0619024,-0.0110865,-0.106603,-0.0380874,0.0145916,0.85355,5,0.1,5,5.8,2.33852,1.91513,0.703333,0.262201,-0.139785,-0.108735,0.387907,-0.16588,-0.035882,0.0073862,2.22217,5,0.1,6,5.8,-0.240229,3.10423,0.603227,0.0772525,0.595731,-0.00311881,-0.0290945,0.182986,0.00277162,0.00662746,2.57651,5,0.1,7,5.8,-4.38696,-3.20026,0.64741,0.00692606,0.001055,-2.98023e-06,-0.00715256,-0.000834465,0,0.00860798,7.76263e-06,5,0.1,8,5.8,-0.277276,1.02439,0.599846,0.0458993,0.866026,2.5332e-05,-0.00365078,0,2.98023e-05,0.00857074,2.27318,5,0.1,9,5.8,3.28359,-0.230121,0.600219,-0.851876,0.189065,-9.83477e-05,-0.283003,-0.254668,0.000149012,0.0194117,2.26545,5,0.1
0,5.9,-1.00931,-2.99566,1.34766,0.710268,0.00250787,0.00201315,1.18171,-0.0166297,-0.00298023,0.00944881,2.45678,5,0.1,1,5.9,-0.136058,0.663056,0.750882,-0.13665,0.683617,0.00252854,0.10126,-0.160988,-0.00738353,0.0122713,0.34433,5,0.1,2,5.9,0.877077,4.33426,1.34045,0.236307,0.236831,-0.0379972,-0.112366,0.00652671,-0.189871,0.010595,0.128009,5,0.1,3,5.9,2.61563,1.99083,0.921939,0.347397,0.0273611,0.163552,0.371873,-0.0502616,0.0988804,0.00695274,0.206127,5,0.1,4,5.9,-3.31917,-0.824026,1.28393,0.0169504,0.855768,0.0583971,-0.00990927,-0.0375919,-0.0340864,0.0145916,0.85355,5,0.1,5,5.9,2.36719,1.90031,0.692322,0.314909,-0.156535,-0.110969,0.611737,-0.157513,-0.00604987,0.0073862,2.22217,5,0.1,6,5.9,-0.23296,3.16578,0.602929,0.0654645,0.643537,-0.00286279,-0.189259,0.676498,0.00244007,0.00662746,2.57651,5,0.1,7,5.9,-4.38631,-3.20016,0.64741,0.00603497,0.000939891,-2.6077e-06,-0.0103116,-0.00141561,7.45058e-06,0.00860798,7.76263e-06,5,0.1,8,5.9,-0.272784,1.11099,0.599848,0.0432424,0.866026,2.94298e-05,-0.0462178,0,4.47035e-05,0.00857074,2.27318,5,0.1,9,5.9,3.19754,-0.212329,0.600209,-0.865141,0.168108,-8.67061e-05,-0.0353754,-0.174273,9.31323e-05,0.0194117,2.26545,5,0.1
0,6,-0.932985,-2.99548,1.34785,0.809138,0.00103712,0.00172555,0.757426,-0.0127554,-0.00274181,0.0123873,0.424933,5,0.1,1,6,-0.149225,0.730402,0.751099,-0.126656,0.660767,0.00182092,0.10284,-0.312537,-0.00667572,0.010616,0.230469,5,0.1,2,6,0.90007,4.35803,1.33576,0.222729,0.23874,-0.0552207,-0.162721,0.0138283,-0.149012,0.00967807,0.0838398,5,0.1,3,6,2.65182,1.99332,0.938874,0.372279,0.0226289,0.175522,0.120997,-0.0448823,0.121564,0.00896596,0.194473,5,0.1,4,6,-3.31753,-0.738829,1.28959,0.0158846,0.84542,0.0547379,-0.0116825,-0.201255,-0.0404716,0.010935,0.606577,5,0.1,5,6,2.40174,1.88396,0.681263,0.375062,-0.169322,-0.109516,0.551105,-0.0902414,0.0366569,0.00782419,2.72477,5,0.1,6,6,-0.227506,3.23368,0.602654,0.0425231,0.714165,-0.00261664,-0.255756,0.663757,0.002563,0.00632779,2.04379,5,0.1,7,6,-4.38576,-3.20008,0.647409,0.00492334,0.000780821,-1.49012e-06,-0.0114441,-0.00154972,0,0.0094627,7.18041e-06,5,0.1,8,6,-0.268738,1.1976,0.599851,0.0372581,0.866026,3.27826e-05,-0.0707507,0,5.96046e-05,0.00910396,2.27263,5,0.1,9,6,3.11095,-0.196323,0.600201,-0.866026,0.152496,-7.7486e-05,0,-0.145316,2.98023e-05,0.016033,2.25957,5,0.1
0,6.1,-0.849807,-2.99544,1.34801,0.84023,-0.000143051,0.0014998,-0.0941455,-0.010699,-0.00186265,0.0123873,0.424933,5,0.1,1,6.1,-0.161422,0.794975,0.751249,-0.117625,0.630737,0.00118613,0.0825981,-0.308599,-0.00596046,0.010616,0.230469,5,0.1,2,6.1,0.921521,4.38206,1.32967,0.20609,0.242253,-0.0648018,-0.17345,0.0409782,-0.047192,0.00967807,0.0838398,5,0.1,3,6.1,2.68948,1.99536,0.957246,0.378945,0.0181736,0.193415,0.00467896,-0.0438616,0.212006,0.00896596,0.194473,5,0.1,4,6.1,-3.316,-0.65515,1.29488,0.0148065,0.828647,0.0510059,-0.0103712,-0.170868,-0.035882,0.010935,0.606577,5,0.1,5,6.1,2.44264,1.86652,0.670484,0.447616,-0.179519,-0.106052,0.827625,-0.101022,0.0365227,0.00782419,2.72477,5,0.1,6,6.1,-0.224641,3.30853,0.602405,0.0140243,0.782768,-0.00238204,-0.301278,0.653893,0.00220165,0.00632779,2.04379,5,0.1,7,6.1,-4.38532,-3.20001,0.647409,0.00374466,0.000615045,-1.11759e-06,-0.0119209,-0.00171363,7.45058e-06,0.0094627,7.18041e-06,5,0.1,8,6.1,-0.26539,1.2842,0.599855,0.029519,0.866026,3.8743e-05,-0.0818502,0,5.96046e-05,0.00910396,2.27263,5,0.1,9,6.1,3.02435,-0.181676,0.600194,-0.866026,0.14144,-7.59959e-05,0,-0.0852821,7.45058e-06,0.016033,2.25957,5,0.1
0,6.2,-0.767374,-2.9955,1.34815,0.798184,-0.00107884,0.00133812,-0.709534,-0.0077486,-0.00149012,0.0107573,2.98416,5,0.1,1,6.2,-0.172773,0.856376,0.751339,-0.109313,0.595619,0.00064075,0.08706,-0.407577,-0.00488758,0.0113964,0.15292,5,0.1,2,6.2,0.941223,4.40643,1.32309,0.1875,0.244319,-0.0655353,-0.200331,-0.0107288,0.0283718,0.0100497,0.0786315,5,0.1,3,6.2,2.72715,1.99697,0.977633,0.372046,0.0139266,0.213715,-0.146747,-0.0408292,0.176281,0.0122624,0.698943,5,0.1,4,6.2,-3.31457,-0.573334,1.29979,0.0137269,0.805061,0.0472754,-0.0115633,-0.326097,-0.0399351,0.0121322,0.840561,5,0.1,5,6.2,2.49151,1.84813,0.660087,0.528014,-0.187373,-0.10156,0.726938,-0.0471473,0.0559092,0.00816978,2.54229,5,0.1,6,6.2,-0.224732,3.3897,0.602178,-0.0154696,0.835675,-0.00216216,-0.27892,0.365853,0.00223517,0.00899567,1.7309,5,0.1,7,6.2,-4.38501,-3.19995,0.647409,0.00259876,0.000447035,0,-0.0112057,-0.00178814,0,0.00859279,6.11172e-06,5,0.1,8,6.2,-0.262851,1.3708,0.599859,0.0212774,0.866026,4.32134e-05,-0.0812858,0,5.96046e-05,0.0112126,2.27232,5,0.1,9,6.2,2.93775,-0.167923,0.600186,-0.866026,0.133789,-7.45058e-05,0,-0.0747368,0,0.0123242,2.26096,5,0.1
0,6.3,-0.692234,-2.99564,1.34828,0.695331,-0.00171177,0.00119302,-1.26917,-0.00493228,-0.00142306,0.0107573,2.98416,5,0.1,1,6.3,-0.183304,0.913992,0.75138,-0.101566,0.557182,0.000189897,0.0718227,-0.378329,-0.00408664,0.0113964,0.15292,5,0.1,2,6.3,0.959006,4.4309,1.31678,0.168426,0.245556,-0.0598129,-0.184957,0.0195503,0.0818968,0.0100497,0.0786315,5,0.1,3,6.3,2.76216,1.99807,0.99948,0.315517,0.00756849,0.21947,-0.901267,-0.0805035,-0.0494644,0.0122624,0.698943,5,0.1,4,6.3,-3.31325,-0.494025,1.30433,0.0126626,0.784198,0.0436028,-0.0101179,-0.140751,-0.0349358,0.0121322,0.840561,5,0.1,5,6.3,2.54871,1.82916,0.650305,0.621104,-0.191847,-0.0932274,1.04383,-0.0334382,0.107147,0.00816978,2.54229,5,0.1,6,6.3,-0.227765,3.47404,0.601936,-0.0457363,0.841384,-0.00298237,-0.311498,-0.220567,-0.0163056,0.00899567,1.7309,5,0.1,7,6.3,-4.3848,-3.19992,0.647409,0.00153035,0.000274926,9.31323e-08,-0.0100136,-0.00160933,3.72529e-06,0.00859279,6.11172e-06,5,0.1,8,6.3,-0.261128,1.4574,0.599864,0.0132439,0.866026,4.89876e-05,-0.0778753,0,5.21541e-05,0.0112126,2.27232,5,0.1,9,6.3,2.85114,-0.154823,0.600178,-0.866026,0.128907,-7.54371e-05,0,-0.0319025,-7.45058e-06,0.0123242,2.26096,5,0.1
0,6.4,-0.629446,-2.99584,1.34839,0.557913,-0.00206828,0.00104904,-1.42196,-0.00238419,-0.00149012,0.00844552,0.608132,5,0.1,1,6.4,-0.1931,0.967753,0.75138,-0.094277,0.517075,-0.000169873,0.0767261,-0.435442,-0.00301003,0.012021,0.138489,5,0.1,2,6.4,0.974924,4.4555,1.31127,0.149876,0.245547,-0.0499368,-0.188589,-0.0312328,0.111997,0.00879215,0.0552013,5,0.1,3,6.4,2.78852,1.9984,1.02089,0.20659,-0.00114441,0.206041,-1.21176,-0.0891685,-0.208795,0.0119605,0.296893,5,0.1,4,6.4,-3.31204,-0.416336,1.30852,0.0116289,0.76838,0.0400454,-0.0107288,-0.211298,-0.0371337,0.0133366,0.615407,5,0.1,5,6.4,2.61594,1.80989,0.641578,0.720984,-0.192571,-0.0808045,0.887156,0.0249147,0.138134,0.00725165,2.32992,5,0.1,6,6.4,-0.233849,3.55632,0.601541,-0.0751857,0.797254,-0.00500679,-0.266574,-0.63622,-0.0223815,0.00782526,1.50924,5,0.1,7,6.4,-4.3847,-3.1999,0.647409,0.000619888,0.00013113,0,-0.00810623,-0.00143051,2.98023e-05,0.00928867,3.85115e-06,5,0.1,8,6.4,-0.260177,1.54401,0.599869,0.00596195,0.866026,5.21541e-05,-0.0666529,0,5.96046e-05,0.00984336,2.27207,5,0.1,9,6.4,2.76454,-0.142082,0.600171,-0.866026,0.125851,-7.59959e-05,0,-0.0357777,0,0.0132752,2.26154,5,0.1
0,6.5,-0.580678,-2.99605,1.34849,0.419392,-0.00229068,0.000935234,-1.30781,-0.00192225,-0.000871718,0.00844552,0.608132,5,0.1,1,6.5,-0.20233,1.01739,0.751349,-0.091828,0.476513,-0.000439957,-0.0146292,-0.390235,-0.00235438,0.012021,0.138489,5,0.1,2,6.5,0.988781,4.47935,1.30686,0.125712,0.22677,-0.0380671,-0.282012,-0.316769,0.122018,0.00879215,0.0552013,5,0.1,3,6.5,2.80314,1.99786,1.04033,0.0866245,-0.00953209,0.181685,-1.15989,-0.0768378,-0.272572,0.0119605,0.296893,5,0.1,4,6.5,-3.31092,-0.340314,1.31235,0.010645,0.75345,0.036644,-0.00928342,-0.126708,-0.0320747,0.0133366,0.615407,5,0.1,5,6.5,2.69223,1.79073,0.634207,0.801273,-0.190697,-0.0664744,0.678569,0.0212565,0.146281,0.00725165,2.32992,5,0.1,6,6.5,-0.242627,3.63199,0.600915,-0.099479,0.709578,-0.00761962,-0.213332,-1.0342,-0.0281073,0.00782526,1.50924,5,0.1,7,6.5,-4.38467,-3.19989,0.647409,-0.000112504,1.86265e-06,2.51457e-06,-0.0064671,-0.00111759,1.86265e-05,0.00928867,3.85115e-06,5,0.1,8,6.5,-0.259904,1.63061,0.599874,-0.000368617,0.866026,5.74626e-05,-0.0588074,0,4.09782e-05,0.00984336,2.27207,5,0.1,9,6.5,2.67794,-0.129603,0.600163,-0.866026,0.124233,-7.64616e-05,0,-0.00509853,-1.11759e-05,0.0132752,2.26154,5,0.1
0,6.6,-0.544837,-2.99629,1.34858,0.302383,-0.00243187,0.000861287,-1.01268,-0.000834465,-0.000596046,0.0100781,3.44743,5,0.1,1,6.6,-0.211648,1.06307,0.751295,-0.0948962,0.436595,-0.00063628,-0.0367686,-0.417948,-0.00149012,0.00877091,0.168352,5,0.1,2,6.6,0.999874,4.50016,1.30366,0.0956953,0.187099,-0.0261098,-0.308931,-0.455141,0.11462,0.010135,0.0147075,5,0.1,3,6.6,2.80628,1.99655,1.05707,-0.020653,-0.0162244,0.152594,-0.966072,-0.0557899,-0.304282,0.0150217,0.235144,5,0.1,4,6.6,-3.30991,-0.265727,1.31585,0.0097096,0.736326,0.0334263,-0.00953674,-0.243485,-0.033021,0.0101135,0.941023,5,0.1,5,6.6,2.77516,1.77182,0.628289,0.851029,-0.186852,-0.0519425,0.299811,0.0615716,0.142574,0.00754441,2.26302,5,0.1,6,6.6,-0.253513,3.69764,0.600015,-0.116869,0.603586,-0.010322,-0.130564,-1.037,-0.0246167,0.00767256,1.3338,5,0.1,7,6.6,-4.38471,-3.1999,0.64741,-0.000667572,-9.53674e-05,2.98023e-06,-0.00429153,-0.000715256,2.98023e-05,0.0123175,1.72599e-06,5,0.1,8,6.6,-0.260214,1.71721,0.59988,-0.00560656,0.866026,6.10948e-05,-0.0451803,0,-2.98023e-05,0.00807256,2.27188,5,0.1,9,6.6,2.59134,-0.117212,0.600156,-0.866026,0.123366,-7.59959e-05,0,-0.0183992,0,0.0139788,2.26177,5,0.1
0,6.7,-0.51945,-2.99654,1.34866,0.212023,-0.00245497,0.00080131,-0.630248,0.000357628,-0.000610948,0.0100781,3.44743,5,0.1,1,6.7,-0.221557,1.10497,0.751224,-0.105131,0.403924,-0.000784267,-0.14801,-0.260934,-0.00139698,0.00877091,0.168352,5,0.1,2,6.7,1.00794,4.51655,1.30159,0.0661407,0.14047,-0.0155773,-0.278682,-0.467002,0.0950992,0.010135,0.0147075,5,0.1,3,6.7,2.79953,1.99467,1.0708,-0.112119,-0.0212906,0.121956,-0.84269,-0.0441894,-0.304662,0.0150217,0.235144,5,0.1,4,6.7,-3.30898,-0.193673,1.31904,0.008839,0.70116,0.030414,-0.00818074,-0.458177,-0.0282228,0.0101135,0.941023,5,0.1,5,6.7,2.86118,1.75339,0.623794,0.865087,-0.181949,-0.0381516,0.0375211,0.0451878,0.131875,0.00754441,2.26302,5,0.1,6,6.7,-0.265606,3.75291,0.598856,-0.122853,0.505229,-0.0128376,-0.00217371,-0.83819,-0.0243448,0.00767256,1.3338,5,0.1,7,6.7,-4.3848,-3.19991,0.64741,-0.00102594,-0.000155717,5.40167e-06,-0.00289083,-0.000476837,1.49012e-05,0.0123175,1.72599e-06,5,0.1,8,6.7,-0.260991,1.80381,0.599886,-0.00981009,0.866026,5.86733e-05,-0.0378974,0,-1.49012e-05,0.00807256,2.27188,5,0.1,9,6.7,2.50473,-0.104908,0.600148,-0.866026,0.123087,-7.63685e-05,0,0.00474369,-7.45058e-06,0.0139788,2.26177,5,0.1
0,6.8,-0.5,-2.99678,1.34874,0.190993,-0.00236034,0.000733137,0.191957,0.00143051,-0.000715256,0.00782409,1.8272,5,0.1,1,6.8,-0.232859,1.14415,0.751139,-0.12101,0.379992,-0.00090301,-0.154614,-0.236511,-0.000953674,0.00929101,0.101991,5,0.1,2,6.8,1.01323,4.52831,1.30047,0.0405192,0.0954747,-0.0072211,-0.231624,-0.425816,0.0715852,0.0110641,0.00557989,5,0.1,3,6.8,2.78445,1.99235,1.08149,-0.185752,-0.0248432,0.0923425,-0.616312,-0.0260472,-0.284612,0.0116098,0.171291,5,0.1,4,6.8,-3.30814,-0.126188,1.32194,0.00802875,0.645236,0.0276119,-0.00834465,-0.656526,-0.0284314,0.010657,3.08472,5,0.1,5,6.8,2.94777,1.73546,0.620611,0.866026,-0.17634,-0.0258014,0,0.0731349,0.114202,0.00889248,2.25504,5,0.1,6,6.8,-0.277774,3.8,0.597461,-0.11943,0.444108,-0.0149608,0.0624508,-0.394344,-0.0171959,0.010399,1.12034,5,0.1,7,6.8,-4.38491,-3.19993,0.647411,-0.00123978,-0.000190735,5.96046e-06,-0.00143051,-0.000357628,0,0.010915,6.00607e-07,5,0.1,8,6.8,-0.262143,1.89042,0.599892,-0.0130221,0.866026,5.66244e-05,-0.0256747,0,-2.98023e-05,0.011367,2.27177,5,0.1,9,6.8,2.41813,-0.092592,0.60014,-0.866026,0.122928,-7.7486e-05,0,-0.0137165,2.98023e-05,0.0133907,2.26193,5,0.1
0,6.9,-0.478744,-2.99701,1.34881,0.243823,-0.00224188,0.000682846,0.775645,0.00104308,-0.000342727,0.00782409,1.8272,5,0.1,1,6.9,-0.245787,1.1811,0.751044,-0.137749,0.360026,-0.000987295,-0.167112,-0.179566,-0.000689179,0.00929101,0.101991,5,0.1,2,6.9,1.01623,4.53587,1.30006,0.0204507,0.0571758,-0.00129417,-0.170738,-0.339568,0.047043,0.0110641,0.00557989,5,0.1,3,6.9,2.76296,1.98974,1.08934,-0.242036,-0.0270799,0.0651045,-0.493541,-0.0176132,-0.257589,0.0116098,0.171291,5,0.1,4,6.9,-3.30717,-0.0656366,1.32456,0.0131335,0.56027,0.0247525,0.0971705,-0.989559,-0.0289753,0.010657,3.08472,5,0.1,5,6.9,3.03437,1.71813,0.618578,0.866026,-0.170617,-0.0151101,0,0.0499636,0.0986569,0.00889248,2.25504,5,0.1,6,6.9,-0.289308,3.84342,0.59588,-0.110839,0.432509,-0.0166191,0.0893977,0.0944585,-0.0149235,0.010399,1.12034,5,0.1,7,6.9,-4.38504,-3.19995,0.647411,-0.00132993,-0.000215694,5.58794e-06,-0.00038743,-0.00013411,-7.45058e-06,0.010915,6.00607e-07,5,0.1,8,6.9,-0.263567,1.97702,0.599898,-0.0153929,0.866026,5.46686e-05,-0.0208039,0,-1.86265e-05,0.011367,2.27177,5,0.1,9,6.9,2.33153,-0.0803167,0.600133,-0.866026,0.122891,-7.55303e-05,0,0.00525545,1.86265e-05,0.0133907,2.26193,5,0.1
0,7,-0.450124,-2.99723,1.34888,0.330429,-0.00213385,0.000652671,0.888541,0.00119209,-0.000178814,0.00950162,2.80205,5,0.1,1,7,-0.26033,1.21619,0.750943,-0.152204,0.341216,-0.00103265,-0.112727,-0.208497,-0.000208616,0.0105553,0.142883,5,0.1,2,7,1.01752,4.54004,1.30013,0.00614822,0.027585,0.00231862,-0.116408,-0.252485,0.0264645,0.00920395,0.00251509,5,0.1,3,7,2.7366,1.98697,1.09463,-0.28187,-0.028193,0.0412554,-0.293016,-0.00399351,-0.217617,0.0153989,0.221394,5,0.1,4,7,-3.30528,-0.0147532,1.32689,0.0250995,0.456423,0.0217885,0.132084,-1.04962,-0.0305176,0.0159769,3.34425,5,0.1,5,7,3.12097,1.70133,0.617528,0.866026,-0.164878,-0.00622869,0,0.0709295,0.0783205,0.00665394,2.04456,5,0.1,6,7,-0.3,3.8875,0.594154,-0.103614,0.451034,-0.0177696,0.054419,0.22459,-0.00733137,0.00756047,0.883968,5,0.1,7,7,-4.38518,-3.19997,0.647412,-0.00132322,-0.000220537,4.47035e-06,0.000715256,0.000119209,0,0.0159958,1.43624e-07,5,0.1,8,7,-0.265196,2.06362,0.599903,-0.0170268,0.866026,5.21541e-05,-0.0112504,0,0,0.0154671,2.5128,5,0.1,9,7,2.24492,-0.0680218,0.600125,-0.866026,0.122659,-7.45058e-05,0,-0.0153613,2.98023e-05,0.0116886,2.26216,5,0.1
0,7.1,-0.411684,-2.99743,1.34894,0.445327,-0.00199638,0.000629947,1.30896,0.00156462,-0.000283122,0.00950162,2.80205,5,0.1,1,7.1,-0.276368,1.24932,0.750839,-0.17043,0.321703,-0.00104234,-0.226067,-0.192523,3.72529e-05,0.0105553,0.142883,5,0.1,2,7.1,1.01763,4.54169,1.30047,-0.00298601,0.00681952,0.00414643,-0.0684187,-0.16585,0.0110194,0.00920395,0.00251509,5,0.1,3,7.1,2.70691,1.98413,1.09772,-0.311678,-0.0283945,0.0210768,-0.280663,0.000834465,-0.184201,0.0153989,0.221394,5,0.1,4,7.1,-3.30202,0.0254587,1.32892,0.0406776,0.348071,0.0189343,0.168905,-1.03847,-0.0269338,0.0159769,3.34425,5,0.1,5,7.1,3.20758,1.68515,0.617275,0.866026,-0.159181,0.000928808,0,0.0507832,0.0640638,0.00665394,2.04456,5,0.1,6,7.1,-0.310216,3.93415,0.592342,-0.101699,0.485151,-0.0184351,-0.00565685,0.40555,-0.00514463,0.00756047,0.883968,5,0.1,7,7.1,-4.3853,-3.19999,0.647412,-0.00122488,-0.000203773,4.09782e-06,0.00119209,0.000193715,-7.45058e-06,0.0159958,1.43624e-07,5,0.1,8,7.1,-0.266954,2.14944,0.599908,-0.0180834,0.84299,5.25266e-05,-0.00895001,-0.444442,7.45058e-06,0.0154671,2.5128,5,0.1,9,7.1,2.15832,-0.055786,0.600118,-0.866026,0.122336,-7.255e-05,0,0.00151739,1.86265e-05,0.0116886,2.26216,5,0.1
0,7.2,-0.360593,-2.99762,1.349,0.574706,-0.00181794,0.000593066,1.20394,0.00190735,-0.000417233,0.0113107,2.46739,5,0.1,1,7.2,-0.294554,1.28048,0.750736,-0.192942,0.300902,-0.00102073,-0.205159,-0.23073,0.000417233,0.0135034,0.109161,5,0.1,2,7.2,1.01706,4.54166,1.30092,-0.00793934,-0.00616312,0.00468791,-0.0324249,-0.0965595,0.000596046,0.0154421,0.000938393,5,0.1,3,7.2,2.67451,1.98131,1.09897,-0.334197,-0.0278831,0.00469685,-0.154138,0.00995398,-0.142336,0.0135195,0.159685,5,0.1,4,7.2,-3.29712,0.0555757,1.33068,0.0570357,0.260319,0.0163347,0.150561,-0.679592,-0.0252128,0.0152547,3.34181,5,0.1,5,7.2,3.29418,1.6695,0.61766,0.866026,-0.153396,0.00646412,0,0.0703931,0.0461936,0.00966898,1.60591,5,0.1,6,7.2,-0.320443,3.98464,0.590482,-0.102921,0.523114,-0.0186577,-0.0109673,0.315905,0.00119209,0.00864442,0.675665,5,0.1,7,7.2,-4.38542,-3.20001,0.647413,-0.0010848,-0.000178814,2.98023e-06,0.00166893,0.000238419,0,0.010737,7.04676e-08,5,0.1,8,7.2,-0.268797,2.2309,0.599914,-0.0186622,0.780374,5.21541e-05,-0.00198185,-0.791788,-2.98023e-05,0.00920745,2.94528,5,0.1,9,7.2,2.07172,-0.0435664,0.600111,-0.866026,0.121702,-7.15256e-05,0,-0.0194272,2.98023e-05,0.0121114,2.07346,5,0.1
0,7.3,-0.296946,-2.9978,1.34906,0.697957,-0.00163168,0.000552461,1.18957,0.00184774,-0.000417233,0.0113107,2.46739,5,0.1,1,7.3,-0.314497,1.30945,0.750636,-0.202373,0.278481,-0.000972208,0.00686944,-0.224486,0.000569969,0.0135034,0.109161,5,0.1,2,7.3,1.01615,4.54066,1.30138,-0.00983775,-0.0129856,0.00441875,-0.00725687,-0.0429451,-0.00541657,0.0154421,0.000938393,5,0.1,3,7.3,2.64032,1.97857,1.09877,-0.349018,-0.0268353,-0.00813324,-0.124529,0.0117347,-0.112988,0.0135195,0.159685,5,0.1,4,7.3,-3.29064,0.0787418,1.3322,0.0726838,0.211106,0.0140624,0.153825,-0.20667,-0.0206605,0.0152547,3.34181,5,0.1,5,7.3,3.38078,1.65448,0.61852,0.86595,-0.147289,0.0105514,-0.00302494,0.0580177,0.0349693,0.00966898,1.60591,5,0.1,6,7.3,-0.330848,4.03856,0.588622,-0.105564,0.554632,-0.0185071,-0.0337679,0.283271,0.0025034,0.00864442,0.675665,5,0.1,7,7.3,-4.38552,-3.20003,0.647413,-0.000909716,-0.000153109,2.8871e-06,0.00175834,0.000283122,-3.72529e-06,0.010737,7.04676e-08,5,0.1,8,7.3,-0.270675,2.30413,0.599919,-0.0188914,0.67744,5.01983e-05,-0.00168011,-1.20467,-1.86265e-05,0.00920745,2.94528,5,0.1,9,7.3,1.98512,-0.0314563,0.600104,-0.866026,0.120702,-6.95698e-05,0,-0.00718681,1.86265e-05,0.0121114,2.07346,5,0.1
0,7.4,-0.221701,-2.99795,1.34911,0.80071,-0.00144839,0.00050962,0.817888,0.00190735,-0.000476837,0.00913522,2.33655,5,0.1,1,7.4,-0.334417,1.33614,0.750542,-0.193423,0.254884,-0.0009045,0.163257,-0.252008,0.00077486,0.011809,0.135886,5,0.1,2,7.4,1.01516,4.53921,1.30179,-0.00970066,-0.0153184,0.00370145,0.00864267,-0.0064373,-0.00846386,0.0106899,0.000268786,5,0.1,3,7.4,2.60497,1.97596,1.09745,-0.35612,-0.0254154,-0.0177056,-0.00584126,0.0172257,-0.0777841,0.0120671,0.188137,5,0.1,4,7.4,-3.28265,0.1,1.33351,0.0863373,0.225337,0.0121266,0.11301,0.45681,-0.0182986,0.0102023,3.01836,5,0.1,5,7.4,3.46734,1.64006,0.619727,0.864816,-0.14073,0.0133678,-0.0243187,0.0776052,0.0210702,0.00721544,1.22589,5,0.1,6,7.4,-0.341556,4.09518,0.586791,-0.108276,0.574517,-0.0180453,-0.014618,0.0925064,0.00721216,0.00815974,0.544563,5,0.1,7,7.4,-4.3856,-3.20004,0.647413,-0.000727177,-0.000119209,1.49012e-06,0.00166893,0.000119209,2.98023e-05,0.00901818,7.63707e-08,5,0.1,8,7.4,-0.272566,2.36559,0.599924,-0.0188433,0.550157,4.76837e-05,0.00326335,-1.29616,0,0.00832799,3.22941,5,0.1,9,7.4,1.89851,-0.0194461,0.600097,-0.866026,0.11914,-6.70552e-05,0,-0.0286886,0,0.0125386,1.63258,5,0.1
0,7.5,-0.1385,-2.99809,1.34884,0.854397,-0.00126772,-0.00872891,0.285395,0.00171363,-0.163876,0.00913522,2.33655,5,0.1,1,7.5,-0.352734,1.36044,0.750455,-0.171085,0.23162,-0.000828225,0.274032,-0.220612,0.000763685,0.011809,0.135886,5,0.1,2,7.5,1.01425,4.53769,1.30211,-0.00840388,-0.0147752,0.00281967,0.0163913,0.0153482,-0.0089556,0.0106899,0.000268786,5,0.1,3,7.5,2.56906,1.97349,1.0953,-0.363882,-0.0240859,-0.0252098,-0.117943,0.0107586,-0.0696331,0.0120671,0.188137,5,0.1,4,7.5,-3.27345,0.12623,1.33464,0.0975747,0.310519,0.0105241,0.104591,1.13482,-0.0141785,0.0102023,3.01836,5,0.1,5,7.5,3.55381,1.62635,0.621158,0.865039,-0.133727,0.0151251,0.00298023,0.0675768,0.0136048,0.00721544,1.22589,5,0.1,6,7.5,-0.352483,4.15232,0.585021,-0.110351,0.56174,-0.0173387,-0.0204816,-0.30452,0.00748411,0.00815974,0.544563,5,0.1,7,7.5,-4.38567,-3.20005,0.647414,-0.000561029,-0.000102818,3.53903e-06,0.00163913,0.000178814,7.45058e-06,0.00901818,7.63707e-08,5,0.1,8,7.5,-0.274437,2.41394,0.599928,-0.0185932,0.417307,4.76837e-05,0.00259839,-1.27737,0,0.00832799,3.22941,5,0.1,9,7.5,1.81191,-0.00765317,0.60009,-0.865969,0.116807,-6.69621e-05,0.00225008,-0.0232638,3.72529e-06,0.0125386,1.63258,5,0.1
0,7.6,-0.0522387,-2.99821,1.34702,0.866025,-0.00110269,-0.0286371,-1.19209e-06,0.00166893,-0.218332,0.00882987,2.27622,5,0.1,1,7.6,-0.368356,1.3825,0.750376,-0.140381,0.209528,-0.000748038,0.331879,-0.226259,0.000864267,0.0100316,0.126839,5,0.1,2,7.6,1.0135,4.53631,1.30235,-0.00658333,-0.0125885,0.00194609,0.0193715,0.0269413,-0.00828505,0.013749,7.00807e-05,5,0.1,3,7.6,2.53211,1.97113,1.09246,-0.374287,-0.0230193,-0.0311822,-0.067234,0.0115633,-0.0480413,0.00996417,0.143931,5,0.1,4,7.6,-3.26323,0.163315,1.33562,0.106055,0.432588,0.00921488,0.0598431,1.22146,-0.0122786,0.010432,2.63807,5,0.1,5,7.6,3.6402,1.61333,0.622723,0.86115,-0.12635,0.0160173,-0.0972748,0.0835657,0.00399351,0.00688962,0.907762,5,0.1,6,7.6,-0.363587,4.20659,0.583329,-0.111286,0.520706,-0.0164554,0.00628829,-0.488758,0.0105798,0.00924574,0.437087,5,0.1,7,7.6,-4.38571,-3.20006,0.647414,-0.000417233,-8.34465e-05,4.47035e-06,0.00166893,0.000238419,0,0.00829115,7.8686e-08,5,0.1,8,7.6,-0.276279,2.44983,0.599933,-0.0181787,0.307024,4.76837e-05,0.00630319,-0.888467,0,0.00740535,3.02533,5,0.1,9,7.6,1.72535,0.00388477,0.600084,-0.865129,0.113592,-6.70552e-05,0.0180006,-0.0446939,5.96046e-05,0.0120932,1.24949,5,0.1
0,7.7,0.0343639,-2.99822,1.34293,0.866025,0.00144728,-0.0541102,7.45058e-07,0.0440329,-0.274807,0.00882987,2.27622,5,0.1,1,7.7,-0.380678,1.40235,0.750306,-0.105751,0.187747,-0.000663009,0.351189,-0.213027,0.000845641,0.0100316,0.126839,5,0.1,2,7.7,1.01293,4.53519,1.30251,-0.00469107,-0.00972748,0.00119507,0.0181869,0.0295043,-0.00672042,0.013749,7.00807e-05,5,0.1,3,7.7,2.49429,1.96916,1.08912,-0.381935,-0.0140982,-0.0354135,-0.0655055,0.150077,-0.0349805,0.00996417,0.143931,5,0.1,4,7.7,-3.25256,0.213242,1.33649,0.105239,0.569247,0.0082368,-0.0674427,1.42184,-0.00783056,0.010432,2.63807,5,0.1,5,7.7,3.72608,1.60108,0.624339,0.857801,-0.118702,0.0162313,-0.0170916,0.0735968,-0.000111759,0.00688962,0.907762,5,0.1,6,7.7,-0.374698,4.25594,0.581734,-0.110937,0.465417,-0.0154496,0.00579469,-0.54723,0.0100024,0.00924574,0.437087,5,0.1,7,7.7,-4.38575,-3.20007,0.647414,-0.000263751,-5.96046e-05,4.00469e-06,0.00143051,0.000238419,-1.11759e-05,0.00829115,7.8686e-08,5,0.1,8,7.7,-0.278068,2.4769,0.599938,-0.0176083,0.242793,4.75906e-05,0.00580214,-0.391304,-3.72529e-06,0.00740535,3.02533,5,0.1,9,7.7,1.63884,0.0150384,0.600077,-0.86523,0.109548,-6.21192e-05,0.000402331,-0.0404786,4.84288e-05,0.0120932,1.24949,5,0.1
0,7.8,0.120966,-2.99782,1.33616,0.866025,0.00675917,-0.0807554,0,0.0581741,-0.245988,0.00834163,2.26446,5,0.1,1,7.8,-0.38953,1.42006,0.750244,-0.0717841,0.166321,-0.000578165,0.321299,-0.217855,0.000864267,0.00853256,0.0148181,5,0.1,2,7.8,1.01255,4.53437,1.3026,-0.00299215,-0.00683069,0.000604987,0.0155568,0.0281334,-0.00506639,0.0120965,2.50692e-05,5,0.1,3,7.8,2.45591,1.96862,1.08544,-0.383973,0.00401139,-0.0379175,0.0383854,0.19896,-0.0140071,0.0115007,0.0846864,5,0.1,4,7.8,-3.24253,0.277,1.33728,0.0941753,0.701443,0.00755191,-0.146627,1.15681,-0.00625849,0.00965988,0.561731,5,0.1,5,7.8,3.81159,1.58959,0.625953,0.849664,-0.110918,0.0159338,-0.178814,0.0850558,-0.00604987,0.00704896,0.648012,5,0.1,6,7.8,-0.385729,4.3,0.580242,-0.109264,0.418496,-0.0143752,0.0311732,-0.388384,0.0117421,0.00776556,0.351802,5,0.1,7,7.8,-4.38577,-3.20007,0.647415,-0.000143051,-3.57628e-05,2.98023e-06,0.00119209,0.000238419,0,0.0101616,5.42409e-08,5,0.1,8,7.8,-0.279796,2.5,0.599943,-0.0169009,0.226152,4.76837e-05,0.00882149,0.0274181,-2.98023e-05,0.00742273,2.78621,5,0.1,9,7.8,1.55243,0.0257691,0.600071,-0.861377,0.104772,-5.81145e-05,0.0930429,-0.0579926,5.96046e-05,0.0119784,0.968021,5,0.1
0,7.9,0.207569,-2.99682,1.3268,0.866025,0.0135191,-0.106454,8.9407e-07,0.0727773,-0.254206,0.00834163,2.26446,5,0.1,1,7.9,-0.39521,1.4354,0.750191,-0.0429033,0.138863,-0.000474695,0.255911,-0.317447,0.00115857,0.00853256,0.0148181,5,0.1,2,7.9,1.01232,4.53382,1.30263,-0.00162628,-0.00426471,0.000185147,0.0117943,0.023067,-0.00339746,0.0120965,2.50692e-05,5,0.1,3,7.9,2.41773,1.96999,1.08159,-0.378984,0.0232201,-0.0388049,0.0739396,0.180051,-0.00281632,0.0115007,0.0846864,5,0.1,4,7.9,-3.23393,0.352173,1.33801,0.0769246,0.794051,0.00711437,-0.191882,0.679737,-0.00303239,0.00965988,0.561731,5,0.1,5,7.9,3.89581,1.5789,0.627514,0.835326,-0.103111,0.0152671,-0.145942,0.0745729,-0.00762567,0.00704896,0.648012,5,0.1,6,7.9,-0.396512,4.3404,0.57886,-0.106392,0.393643,-0.0132759,0.0304226,-0.144869,0.0106432,0.00776556,0.351802,5,0.1,7,7.9,-4.38578,-3.20008,0.647415,-3.7998e-05,-1.37836e-05,2.51457e-06,0.000923872,0.000193715,-1.11759e-05,0.0101616,5.42409e-08,5,0.1,8,7.9,-0.281444,2.52275,0.599947,-0.0160832,0.229425,4.5076e-05,0.00810437,0.0647455,-2.23517e-05,0.00742273,2.78621,5,0.1,9,7.9,1.4665,0.0361306,0.600066,-0.858748,0.103858,-5.31785e-05,0.00772625,0.0263082,4.84288e-05,0.0119784,0.968021,5,0.1
0,8,0.294171,-2.99511,1.31497,0.866026,0.0205755,-0.129235,0,0.0650883,-0.191629,0.00835955,2.25542,5,0.1,1,8,-0.398331,1.44763,0.750149,-0.0206172,0.105256,-0.000354648,0.190064,-0.344276,0.0012219,0.00881229,0.249441,5,0.1,2,8,1.01221,4.5335,1.30264,-0.000622869,-0.00222921,-8.34465e-05,0.00834465,0.017643,-0.00202656,0.0108716,1.13595e-05,5,0.1,3,8,2.38035,1.97315,1.07772,-0.367123,0.0391543,-0.0383377,0.171661,0.135064,0.0127554,0.0124848,0.156833,5,0.1,4,8,-3.22723,0.434088,1.33871,0.0569642,0.835183,0.00685155,-0.202179,0.136435,-0.0026226,0.00898254,0.135769,5,0.1,5,8,3.97842,1.56897,0.628998,0.814062,-0.0954092,0.0143543,-0.305772,0.0817776,-0.0108778,0.00725136,0.450387,5,0.1,6,8,-0.406972,4.3792,0.577586,-0.102483,0.383174,-0.0121817,0.0505745,-0.0915527,0.0115633,0.00733811,0.268119,5,0.1,7,8,-4.38578,-3.20008,0.647415,3.57628e-05,0,1.49012e-06,0.000476837,0.000238419,0,0.00995079,2.09494e-08,5,0.1,8,8,-0.283009,2.54622,0.599952,-0.0151835,0.242329,4.17233e-05,0.0102669,0.19896,0,0.00755189,2.07994,5,0.1,9,8,1.38084,0.0466965,0.600061,-0.851622,0.107683,-4.91738e-05,0.168681,0.0400878,2.98023e-05,0.0130997,0.695767,5,0.1
0,8.1,0.380774,-2.99272,1.30106,0.866026,0.0273678,-0.148725,-3.57628e-06,0.0671595,-0.18581,0.00835955,2.25542,5,0.1,1,8.1,-0.399615,1.45661,0.750119,-0.00664615,0.0759194,-0.000249501,0.0955854,-0.247143,0.000890344,0.00881229,0.249441,5,0.1,2,8.1,1.01219,4.53335,1.30262,4.37722e-05,-0.000758469,-0.000229478,0.00513345,0.0119209,-0.000953674,0.0108716,1.13595e-05,5,0.1,3,8.1,2.34452,1.97759,1.07396,-0.348849,0.0482658,-0.0367442,0.201404,0.0506714,0.0196323,0.0124848,0.156833,5,0.1,4,8.1,-3.22256,0.517603,1.33938,0.0364922,0.828389,0.00668671,-0.202596,-0.266559,-0.00109524,0.00898254,0.135769,5,0.1,5,8.1,4.05842,1.55981,0.63038,0.786334,-0.087912,0.0132856,-0.27965,0.0710636,-0.0107922,0.00725136,0.450387,5,0.1,6,8.1,-0.416981,4.41731,0.576423,-0.0977479,0.380798,-0.0111117,0.0475366,0.0157654,0.0101738,0.00733811,0.268119,5,0.1,7,8.1,-4.38577,-3.20007,0.647415,7.59959e-05,2.01166e-05,1.11759e-06,0.000298023,0.000149012,-7.45058e-06,0.00995079,2.09494e-08,5,0.1,8,8.1,-0.284479,2.57146,0.599956,-0.0142307,0.26455,4.12576e-05,0.0092648,0.318199,-1.11759e-05,0.00755189,2.07994,5,0.1,9,8.1,1.29637,0.0577419,0.600056,-0.838387,0.113727,-4.65661e-05,0.134625,0.0704289,2.23517e-05,0.0130997,0.695767,5,0.1
0,8.2,0.467377,-2.98966,1.28535,0.866026,0.0333905,-0.1643,0,0.0507832,-0.117064,0.00949114,2.24952,5,0.1,1,8.2,-0.399916,1.46309,0.750098,-0.000366569,0.0549644,-0.000172853,0.0350922,-0.175834,0.000625849,0.00875719,0.246483,5,0.1,2,8.2,1.01221,4.53333,1.3026,0.000426173,0.000190735,-0.000286102,0.00274181,0.00762939,-0.000238419,0.0119567,4.72253e-06,5,0.1,3,8.2,2.31074,1.98256,1.0704,-0.325614,0.0499636,-0.0343353,0.267863,-0.013411,0.0287294,0.0123295,0.206446,5,0.1,4,8.2,-3.21989,0.598487,1.34005,0.0172555,0.783297,0.00655949,-0.178695,-0.626773,-0.00172853,0.00913047,1.22228,5,0.1,5,8.2,4.13549,1.55138,0.631652,0.75295,-0.0807047,0.0121474,-0.409365,0.0751615,-0.0121891,0.00953952,0.307185,5,0.1,6,8.2,-0.426501,4.45546,0.575363,-0.0924028,0.381434,-0.0100911,0.0616908,-0.0231266,0.0104904,0.00695583,0.198903,5,0.1,7,8.2,-4.38576,-3.20007,0.647415,9.53674e-05,2.98023e-05,0,0.000238419,0.000119209,0,0.00795658,1.18693e-08,5,0.1,8,8.2,-0.285855,2.6,0.59996,-0.0132501,0.310946,4.02331e-05,0.0106394,0.586748,-2.98023e-05,0.0075247,1.77513,5,0.1,9,8.2,1.21341,0.069447,0.600051,-0.818178,0.119984,-4.47035e-05,0.296175,0.0472143,5.96046e-05,0.00938,0.48645,5,0.1
0,8.3,0.553979,-2.98607,1.26831,0.866026,0.0385504,-0.176433,-3.72529e-06,0.0491887,-0.113934,0.00949114,2.24952,5,0.1,1,8.3,-0.39983,1.46781,0.750084,0.00162167,0.0404513,-0.000120606,0.00715442,-0.117935,0.000428408,0.00875719,0.246483,5,0.1,2,8.3,1.01227,4.53338,1.30257,0.000603497,0.000748783,-0.000284798,0.000908971,0.00378489,0.000216067,0.0119567,4.72253e-06,5,0.1,3,8.3,2.27947,1.9874,1.06711,-0.300075,0.0462137,-0.031477,0.251278,-0.0585914,0.0290349,0.0123295,0.206446,5,0.1,4,8.3,-3.21888,0.674554,1.3407,0.00455417,0.745034,0.00643786,-0.0817627,-0.205617,-0.00105053,0.00913047,1.22228,5,0.1,5,8.3,4.20886,1.54366,0.632809,0.715049,-0.0738356,0.0109917,-0.374019,0.0646412,-0.011187,0.00953952,0.307185,5,0.1,6,8.3,-0.435449,4.49361,0.574403,-0.0866478,0.382246,-0.00912873,0.0562407,0.0170469,0.00903383,0.00695583,0.198903,5,0.1,7,8.3,-4.38575,-3.20007,0.647415,0.000111759,3.91155e-05,-3.72529e-07,5.96046e-05,4.47035e-05,-7.45058e-06,0.00795658,1.18693e-08,5,0.1,8,8.3,-0.286973,2.63481,0.599964,-0.00782139,0.391124,3.72529e-05,0.0884552,0.937,-2.98023e-05,0.0075247,1.77513,5,0.1,9,8.3,1.13295,0.0817111,0.600047,-0.7914,0.125386,-3.96743e-05,0.270687,0.0527376,3.72529e-05,0.00938,0.48645,5,0.1
0,8.4,0.640582,-2.98199,1.25019,0.866026,0.0426829,-0.185114,0,0.0312328,-0.051558,0.0114215,2.24651,5,0.1,1,8.4,-0.399661,1.47134,0.750074,0.00150725,0.0307411,-8.64267e-05,-0.00749528,-0.0790358,0.000327826,0.00970451,0.245706,5,0.1,2,8.4,1.01233,4.53347,1.30254,0.000628829,0.000977516,-0.000247359,-0.000238419,0.00119209,0.000476837,0.0123919,1.473e-06,5,0.1,3,8.4,2.25075,1.99168,1.06411,-0.273967,0.0388235,-0.0284344,0.276327,-0.0864863,0.0322461,0.0106314,0.322346,5,0.1,4,8.4,-3.21872,0.748272,1.34133,-0.000280142,0.730447,0.00629425,-0.0202656,-0.136226,-0.00202656,0.0102667,0.196233,5,0.1,5,8.4,4.27839,1.5366,0.633852,0.673878,-0.0673652,0.00986755,-0.466347,0.0665188,-0.0115335,0.0074025,0.207162,5,0.1,6,8.4,-0.443823,4.53184,0.573534,-0.0806779,0.381041,-0.00823736,0.0650883,-0.0565052,0.00905991,0.00997287,0.142759,5,0.1,7,8.4,-4.38574,-3.20006,0.647415,0.000119209,4.17233e-05,-1.49012e-06,0,0,2.98023e-05,0.00808171,6.86018e-09,5,0.1,8,8.4,-0.287249,2.67865,0.599967,0.00275075,0.484425,3.42727e-05,0.115603,0.869513,-2.98023e-05,0.0119075,0.206097,5,0.1,9,8.4,1.05533,0.0944682,0.600043,-0.75877,0.129155,-3.42727e-05,0.403255,0.0169724,0,0.00826296,0.33316,5,0.1
0,8.5,0.727184,-2.97756,1.23138,0.866026,0.0459116,-0.191105,-3.72529e-06,0.0303239,-0.056915,0.0114215,2.24651,5,0.1,1,8.5,-0.399552,1.47408,0.750066,0.000641309,0.0245266,-6.0536e-05,-0.00925362,-0.0477731,0.000193715,0.00970451,0.245706,5,0.1,2,8.5,1.01239,4.53357,1.30252,0.000568479,0.0010021,-0.000195391,-0.00089407,-0.000566244,0.000558794,0.0123919,1.473e-06,5,0.1,3,8.5,2.22475,1.995,1.06143,-0.245886,0.0268098,-0.0251656,0.286996,-0.138715,0.0331923,0.0106314,0.322346,5,0.1,4,8.5,-3.21876,0.820445,1.34195,0.000177324,0.710751,0.00612251,0.0245571,-0.270661,-0.00166893,0.0102667,0.196233,5,0.1,5,8.5,4.34357,1.53017,0.634784,0.630653,-0.0613084,0.00879578,-0.41914,0.0566468,-0.0101253,0.0074025,0.207162,5,0.1,6,8.5,-0.451583,4.56973,0.572753,-0.0746449,0.376986,-0.00741286,0.0579376,-0.0424385,0.00767037,0.00997287,0.142759,5,0.1,7,8.5,-4.38573,-3.20006,0.647415,0.000115484,3.98606e-05,5.58794e-07,-8.9407e-05,-4.47035e-05,7.45058e-06,0.00808171,6.86018e-09,5,0.1,8,8.5,-0.286341,2.73074,0.599971,0.0157786,0.55038,3.12924e-05,0.137851,0.447795,-2.98023e-05,0.0119075,0.206097,5,0.1,9,8.5,0.981346,0.107481,0.60004,-0.721443,0.131048,-3.41795e-05,0.369001,0.014463,3.72529e-06,0.00826296,0.33316,5,0.1
0,8.6,0.813787,-2.97284,1.21205,0.866026,0.0482261,-0.194576,0,0.0139475,-0.00464916,0.0089169,2.24562,5,0.1,1,8.6,-0.399533,1.47633,0.750061,-0.000246614,0.0207335,-4.47035e-05,-0.00809133,-0.0301003,0.000119209,0.0111871,0.245415,5,0.1,2,8.6,1.01244,4.53366,1.3025,0.000461936,0.000882149,-0.000140071,-0.00119209,-0.00143051,0.000536442,0.00863377,3.95603e-07,5,0.1,3,8.6,2.20162,1.997,1.05908,-0.216329,0.0135571,-0.0217885,0.304818,-0.116587,0.0343323,0.0108168,1.71493,5,0.1,4,8.6,-3.21858,0.88986,1.34256,0.00376105,0.674306,0.00591278,0.0433922,-0.465333,-0.00268221,0.0085412,0.759118,5,0.1,5,8.6,4.40448,1.52432,0.635613,0.58651,-0.0556916,0.00780374,-0.478029,0.0571012,-0.00989437,0.00885807,0.138983,5,0.1,6,8.6,-0.458754,4.60712,0.572049,-0.0686906,0.369549,-0.00666231,0.0627637,-0.118732,0.00748038,0.00837662,0.171373,5,0.1,7,8.6,-4.38572,-3.20006,0.647415,9.53674e-05,3.57628e-05,1.49012e-06,0,0,0,0.00752487,8.48461e-09,5,0.1,8,8.6,-0.284085,2.78731,0.599973,0.0290856,0.574064,2.98023e-05,0.123024,0.0286102,-5.96046e-05,0.006478,0.175513,5,0.1,9,8.6,0.911161,0.120611,0.600037,-0.680648,0.130964,-3.27826e-05,0.46441,-0.0205448,0,0.00977281,0.225201,5,0.1
0,8.7,0.900389,-2.96794,1.19252,0.866026,0.0498313,-0.196297,-3.72529e-06,0.0152141,-0.018619,0.0089169,2.24562,5,0.1,1,8.7,-0.399591,1.47828,0.750057,-0.000823475,0.0185497,-3.65078e-05,-0.00367686,-0.0153184,5.21541e-05,0.0111871,0.245415,5,0.1,2,8.7,1.01248,4.53374,1.30249,0.000341795,0.000714511,-9.07108e-05,-0.00118464,-0.00181794,0.000454485,0.00863377,3.95603e-07,5,0.1,3,8.7,2.1815,1.99762,1.05739,-0.18614,-0.00154339,-0.00953823,0.298917,-0.136301,0.190899,0.0108168,1.71493,5,0.1,4,8.7,-3.21795,0.955574,1.34314,0.00903942,0.644753,0.00566933,0.0585467,-0.176936,-0.00240654,0.0085412,0.759118,5,0.1,5,8.7,4.46088,1.51902,0.636347,0.542369,-0.0505101,0.00689672,-0.422239,0.0482202,-0.00843778,0.00885807,0.138983,5,0.1,6,8.7,-0.465361,4.64379,0.571415,-0.0638744,0.366146,-0.00607539,0.0377186,0.0198185,0.00465661,0.00837662,0.171373,5,0.1,7,8.7,-4.38571,-3.20005,0.647416,9.08971e-05,3.39001e-05,1.02445e-06,-0.000119209,-4.47035e-05,-1.11759e-05,0.00752487,8.48461e-09,5,0.1,8,8.7,-0.280554,2.84469,0.599976,0.0414748,0.571369,2.44007e-05,0.119377,-0.0953227,-4.47035e-05,0.006478,0.175513,5,0.1,9,8.7,0.845287,0.133614,0.600033,-0.637591,0.129059,-3.23169e-05,0.41803,-0.0227527,1.11759e-05,0.00977281,0.225201,5,0.1
0,8.8,0.986992,-2.96289,1.17285,0.866027,0.0507653,-0.196403,-2.98023e-05,0.00154972,0.0242591,0.0101022,2.24604,5,0.1,1,8.8,-0.399686,1.48007,0.750054,-0.0010252,0.0173599,-3.27826e-05,-0.000581145,-0.00989437,2.98023e-05,0.00884803,0.245253,5,0.1,2,8.8,1.01251,4.53381,1.30248,0.000229478,0.000524521,-5.06639e-05,-0.00107288,-0.00166893,0.000357628,0.0120399,1.25388e-07,5,0.1,3,8.8,2.16437,1.99705,1.05751,-0.156581,-0.00661612,0.0128716,0.291944,0.0565648,0.241876,0.0112578,1.58954,5,0.1,4,8.8,-3.21675,1.0193,1.34369,0.0148356,0.630009,0.00539422,0.0544786,-0.155747,-0.00315905,0.00965557,2.12578,5,0.1,5,8.8,4.51298,1.51421,0.636996,0.499105,-0.0457615,0.00608265,-0.455379,0.0479817,-0.00795722,0.00989435,0.160569,5,0.1,6,8.8,-0.471574,4.68052,0.570829,-0.0604257,0.368166,-0.00566095,0.0343323,-0.00166893,0.00393391,0.00916441,0.103315,5,0.1,7,8.8,-4.3857,-3.20005,0.647416,8.34465e-05,2.98023e-05,1.49012e-06,-0.000238419,-0.000119209,-2.98023e-05,0.00908765,6.30044e-09,5,0.1,8,8.8,-0.275852,2.90106,0.599978,0.0520438,0.552988,2.08616e-05,0.0882149,-0.279903,-2.98023e-05,0.00875596,0.204431,5,0.1,9,8.8,0.783683,0.146368,0.60003,-0.593455,0.125543,-3.12924e-05,0.479221,-0.0510886,0,0.0079551,0.153443,5,0.1
0,8.9,1.07359,-2.9578,1.15327,0.866026,0.0512391,-0.195548,-3.72529e-06,0.00500679,0.00385195,0.0101022,2.24604,5,0.1,1,8.9,-0.399787,1.48177,0.750051,-0.00096634,0.0167111,-3.14787e-05,0.00153482,-0.00425428,0,0.00884803,0.245253,5,0.1,2,8.9,1.01253,4.53385,1.30248,0.000133738,0.000362843,-2.03028e-05,-0.000849366,-0.00151992,0.000245869,0.0120399,1.25388e-07,5,0.1,3,8.9,2.15013,1.99693,1.06012,-0.128859,0.00869539,0.0399828,0.262976,0.30937,0.285506,0.0112578,1.58954,5,0.1,4,8.9,-3.21483,1.08262,1.34421,0.0249017,0.645055,0.00510253,0.134215,0.367023,-0.00286102,0.00965557,2.12578,5,0.1,5,8.9,4.561,1.50983,0.637569,0.464357,-0.0420708,0.00543334,-0.270218,0.0286996,-0.00535697,0.00989435,0.160569,5,0.1,6,8.9,-0.477466,4.71741,0.57028,-0.0575617,0.369947,-0.00533601,0.025684,0.0173151,0.0028275,0.00916441,0.103315,5,0.1,7,8.9,-4.38569,-3.20005,0.647416,5.96046e-05,1.82539e-05,-1.02445e-06,-0.000238419,-0.000104308,-1.86265e-05,0.00908765,6.30044e-09,5,0.1,8,8.9,-0.270216,2.95508,0.59998,0.0604725,0.528043,1.83471e-05,0.0761896,-0.240102,-1.86265e-05,0.00875596,0.204431,5,0.1,9,8.9,0.726597,0.158538,0.600027,-0.54919,0.116703,-3.08268e-05,0.423823,-0.121068,1.11759e-05,0.0079551,0.153443,5,0.1
0,9,1.1602,-2.95266,1.13377,0.866026,0.0512779,-0.19376,0,-0.00631809,0.0396371,0.0086205,2.2435,5,0.1,1,9,-0.399874,1.48342,0.750047,-0.000757724,0.0163019,-3.27826e-05,0.00248849,-0.00470877,2.98023e-05,0.00943743,0.245598,5,0.1,2,9,1.01254,4.53388,1.30248,5.96046e-05,0.000226498,0,-0.000596046,-0.00119209,0.000119209,0.0100849,5.22405e-08,5,0.1,3,9,2.13851,2,1.06551,-0.103903,0.058794,0.067395,0.236392,0.668168,0.251889,0.0104145,1.37112,5,0.1,4,9,-3.21163,1.14921,1.34471,0.0394464,0.687724,0.00479221,0.147104,0.419199,-0.00351667,0.00971612,0.257271,5,0.1,5,9,4.60618,1.50575,0.638088,0.439739,-0.0395209,0.00495464,-0.244617,0.0243783,-0.00450015,0.0103796,0.0936094,5,0.1,6,9,-0.48309,4.75439,0.56976,-0.0548221,0.368237,-0.00504851,0.0310391,-0.0655651,0.00309944,0.00877738,0.0803382,5,0.1,7,9,-4.38569,-3.20005,0.647415,4.76837e-05,1.19209e-05,-2.98023e-06,-0.000476837,-0.000119209,-2.98023e-05,0.00850499,1.11281e-08,5,0.1,8,9,-0.263835,3.00661,0.599982,0.0665843,0.501394,1.49012e-05,0.0432283,-0.307083,2.98023e-05,0.00756715,0.844852,5,0.1,9,9,0.673823,0.16952,0.600024,-0.505695,0.102198,-2.98023e-05,0.45833,-0.164978,2.98023e-05,0.0107515,0.105872,5,0.1
0,9.1,1.2468,-2.94755,1.11443,0.866026,0.0508897,-0.194339,0,-0.00393391,-0.0342131,0.0086205,2.2435,5,0.1,1,9.1,-0.399927,1.4851,0.750044,-0.000224868,0.0178257,-3.13856e-05,0.00710227,0.0301376,3.72529e-06,0.00943743,0.245598,5,0.1,2,9.1,1.01254,4.5339,1.30248,1.11759e-05,0.000121444,8.75443e-06,-0.00038743,-0.000923872,6.70552e-05,0.0100849,5.22405e-08,5,0.1,3,9.1,2.12924,2.01,1.07353,-0.0820313,0.147273,0.0927206,0.201747,1.02924,0.243366,0.0104145,1.37112,5,0.1,4,9.1,-3.20705,1.2196,1.34517,0.0511363,0.714929,0.00446774,0.086993,0.115044,-0.00312924,0.00971612,0.257271,5,0.1,5,9.1,4.64909,1.50191,0.638564,0.419457,-0.0375329,0.00457419,-0.181228,0.0172779,-0.00333413,0.0103796,0.0936094,5,0.1,6,9.1,-0.48844,4.791,0.569269,-0.052341,0.364519,-0.00480544,0.0214186,-0.0295937,0.00203401,0.00877738,0.0803382,5,0.1,7,9.1,-4.38568,-3.20005,0.647415,7.45058e-06,1.86265e-06,-5.40167e-06,-0.000298023,-7.45058e-05,-1.49012e-05,0.00850499,1.11281e-08,5,0.1,8,9.1,-0.256972,3.05594,0.599984,0.0705015,0.491176,1.73226e-05,0.0318112,0.0458956,1.49012e-05,0.00756715,0.844852,5,0.1,9,9.1,0.625409,0.178862,0.600021,-0.463573,0.0842291,-2.68221e-05,0.398941,-0.190054,2.98023e-05,0.0107515,0.105872,5,0.1
0,9.2,1.3334,-2.9425,1.09481,0.866026,0.0500679,-0.197658,0,-0.0144243,-0.0197887,0.0084299,2.2415,5,0.1,1,9.2,-0.399913,1.48705,0.750041,0.000482798,0.0214398,-2.98023e-05,0.00631809,0.0383854,-2.98023e-05,0.0106069,0.24209,5,0.1,2,9.2,1.01254,4.53391,1.30248,-2.08616e-05,4.76837e-05,1.19209e-05,-0.000178814,-0.000715256,5.96046e-05,0.00935303,2.99844e-08,5,0.1,3,9.2,2.12199,2.02998,1.08393,-0.0634253,0.251997,0.114152,0.171065,1.01066,0.177264,0.00963651,1.10398,5,0.1,4,9.2,-3.2016,1.2911,1.3456,0.0569522,0.709382,0.00414252,0.0299215,-0.229657,-0.00351667,0.0108792,1.38321,5,0.1,5,9.2,4.6901,1.49824,0.639005,0.400054,-0.0357389,0.00424981,-0.220776,0.0199676,-0.00330806,0.0100665,0.0728081,5,0.1,6,9.2,-0.493564,4.82722,0.568798,-0.050056,0.358796,-0.00459403,0.0262856,-0.0987053,0.00235438,0.00865644,0.0367968,5,0.1,7,9.2,-4.38568,-3.20005,0.647414,-1.19209e-05,-5.96046e-06,-5.96046e-06,-0.000476837,0,-2.98023e-05,0.00802149,1.55476e-08,5,0.1,8,9.2,-0.249803,3.10549,0.599986,0.0723992,0.500631,1.78814e-05,0.00395626,0.100493,0,0.0077976,0.897111,5,0.1,9,9.2,0.581047,0.186323,0.600019,-0.423393,0.0649665,-2.38419e-05,0.414968,-0.191763,2.98023e-05,0.0105363,0.235946,5,0.1
0,9.3,1.42,-2.93755,1.07484,0.866026,0.0490103,-0.202659,0,-0.00922382,-0.0645295,0.0084299,2.2415,5,0.1,1,9.3,-0.399762,1.48935,0.750038,0.00301669,0.0242367,-3.26894e-05,0.0345912,0.017643,-2.6077e-05,0.0106069,0.24209,5,0.1,2,9.3,1.01254,4.53391,1.30248,-3.33413e-05,-9.68575e-06,1.546e-05,-6.70552e-05,-0.000447035,2.23517e-05,0.00935303,2.99844e-08,5,0.1,3,9.3,2.11645,2.06046,1.09621,-0.0479277,0.35821,0.131069,0.139609,1.05898,0.152364,0.00963651,1.10398,5,0.1,4,9.3,-3.19565,1.36164,1.346,0.0628375,0.70717,0.00381917,0.0779927,0.116743,-0.00306964,0.0108792,1.38321,5,0.1,5,9.3,4.72917,1.49475,0.639416,0.382522,-0.0341933,0.00398355,-0.1508,0.0129044,-0.00224635,0.0100665,0.0728081,5,0.1,6,9.3,-0.498441,4.86259,0.56835,-0.0474892,0.348014,-0.00436744,0.026539,-0.127554,0.00232086,0.00865644,0.0367968,5,0.1,7,9.3,-4.38569,-3.20005,0.647414,-4.69387e-05,-5.96046e-06,-8.00937e-06,-0.000268221,0,-7.45058e-06,0.00802149,1.55476e-08,5,0.1,8,9.3,-0.242705,3.15654,0.599987,0.0681224,0.523968,1.74157e-05,-0.0822926,0.312343,-1.11759e-05,0.0077976,0.897111,5,0.1,9,9.3,0.540445,0.191881,0.600016,-0.391355,0.0464662,-2.13273e-05,0.25152,-0.175635,1.86265e-05,0.0105363,0.235946,5,0.1
0,9.4,1.50661,-2.9327,1.05428,0.866026,0.047797,-0.207868,0,-0.0168085,-0.0282526,0.00851522,2.23954,5,0.1,1,9.4,-0.399303,1.49183,0.750035,0.00583157,0.0250012,-3.42727e-05,0.0157952,-0.00202656,-2.98023e-05,0.0108321,0.228814,5,0.1,2,9.4,1.01253,4.5339,1.30248,-3.57628e-05,-4.76837e-05,1.49012e-05,5.96046e-05,0,5.96046e-05,0.00984082,1.00642e-08,5,0.1,3,9.4,2.11231,2.10128,1.10998,-0.0353575,0.454414,0.143161,0.112414,0.825882,0.0835061,0.00932566,1.09737,5,0.1,4,9.4,-3.18896,1.43305,1.34637,0.0708401,0.720787,0.00350773,0.0747442,0.104785,-0.00327826,0.0097407,1.0564,5,0.1,5,9.4,4.76665,1.4914,0.639803,0.366342,-0.0328243,0.00376254,-0.187397,0.0158548,-0.00235438,0.00994185,0.0331001,5,0.1,6,9.4,-0.503047,4.89663,0.567926,-0.0445023,0.331569,-0.00410527,0.0341535,-0.208378,0.00301003,0.00979319,0.0140585,5,0.1,7,9.4,-4.38569,-3.20005,0.647413,-5.96046e-05,-5.96046e-06,-8.9407e-06,-0.000238419,0,2.98023e-05,0.00774139,1.29429e-08,5,0.1,8,9.4,-0.236398,3.21049,0.599989,0.0572536,0.553757,1.78814e-05,-0.129163,0.244141,-5.96046e-05,0.00761792,0.837387,5,0.1,9,9.4,0.502471,0.195694,0.600014,-0.368613,0.0302691,-1.78814e-05,0.22231,-0.146627,0,0.00849946,0.199441,5,0.1
0,9.5,1.59321,-2.92799,1.03326,0.866026,0.0465624,-0.212963,0,-0.0103712,-0.0589266,0.00851522,2.23954,5,0.1,1,9.5,-0.398603,1.49429,0.750031,0.0080185,0.0239225,-3.66941e-05,0.00780076,-0.0185892,-1.49012e-05,0.0108321,0.228814,5,0.1,2,9.5,1.01253,4.5339,1.30248,-2.8871e-05,-4.39584e-05,1.84402e-05,8.19564e-05,8.9407e-05,2.23517e-05,0.00984082,1.00642e-08,5,0.1,3,9.5,2.1093,2.15099,1.12469,-0.0253804,0.539782,0.150702,0.0877976,0.829518,0.0603795,0.00932566,1.09737,5,0.1,4,9.5,-3.18146,1.506,1.3467,0.0792768,0.740143,0.00320785,0.0864416,0.228815,-0.00283122,0.0097407,1.0564,5,0.1,5,9.5,4.80237,1.48819,0.640168,0.348011,-0.0312867,0.00354238,-0.190228,0.0159368,-0.00217557,0.00994185,0.0331001,5,0.1,6,9.5,-0.507325,4.92871,0.567531,-0.0410164,0.309295,-0.00379803,0.0362396,-0.241607,0.00320747,0.00979319,0.0140585,5,0.1,7,9.5,-4.3857,-3.20005,0.647412,-7.37607e-05,-5.96046e-06,-6.0536e-06,-8.9407e-05,0,2.6077e-05,0.00774139,1.29429e-08,5,0.1,8,9.5,-0.231583,3.26734,0.600043,0.0368699,0.584682,0.00151182,-0.260172,0.32866,0.0266097,0.00761792,0.837387,5,0.1,9,9.5,0.466734,0.198052,0.600012,-0.345817,0.0175416,-1.74157e-05,0.240754,-0.108343,1.11759e-05,0.00849946,0.199441,5,0.1
0,9.6,1.67981,-2.92339,1.01172,0.866026,0.0453055,-0.217131,0,-0.0165701,-0.0140071,0.0101898,2.06107,5,0.1,1,9.6,-0.397895,1.49657,0.750027,0.00458881,0.0214636,-3.57628e-05,-0.0843108,-0.0297427,-2.98023e-05,0.00893601,0.199411,5,0.1,2,9.6,1.01253,4.5339,1.30249,-2.08616e-05,-3.57628e-05,1.78814e-05,5.96046e-05,0,0,0.0128922,9.14318e-09,5,0.1,3,9.6,2.10716,2.20877,1.13998,-0.0176668,0.61146,0.154084,0.0671148,0.567555,0.00274181,0.0106219,1.35751,5,0.1,4,9.6,-3.17313,1.581,1.34701,0.086838,0.757375,0.00292659,0.0593662,0.0776052,-0.00298023,0.0108656,0.777381,5,0.1,5,9.6,4.83614,1.48515,0.640511,0.32649,-0.0294626,0.00330657,-0.24724,0.0211,-0.0026226,0.00922113,0.0128066,5,0.1,6,9.6,-0.511238,4.95834,0.567168,-0.0371486,0.282574,-0.00345409,0.041455,-0.295162,0.00369549,0.00934573,0.00695641,5,0.1,7,9.6,-4.38571,-3.20005,0.647412,-7.15256e-05,-5.96046e-06,-2.98023e-06,0,0,0,0.00802764,1.04784e-08,5,0.1,8,9.6,-0.229288,3.32728,0.600349,0.00847615,0.611657,0.00474602,-0.293478,0.178456,0.0355244,0.00747515,0.625112,5,0.1,9,9.6,0.433433,0.199325,0.600011,-0.319307,0.00849552,-1.78814e-05,0.293896,-0.073202,5.96046e-05,0.00837561,0.323958,5,0.1
0,9.7,1.76641,-2.91893,0.989873,0.866026,0.0440411,-0.220119,0,-0.0109673,-0.0326075,0.0101898,2.06107,5,0.1,1,9.7,-0.397966,1.49856,0.750024,-0.00787391,0.0182012,-3.75323e-05,-0.192473,-0.0348017,-1.11759e-05,0.00893601,0.199411,5,0.1,2,9.7,1.01253,4.53389,1.30249,-1.49012e-05,-3.27826e-05,1.69501e-05,5.96046e-05,5.96046e-05,-2.23517e-05,0.0128922,9.14318e-09,5,0.1,3,9.7,2.1057,2.27305,1.15539,-0.0118516,0.675523,0.153925,0.0497699,0.653356,-0.0115409,0.0106219,1.35751,5,0.1,4,9.7,-3.16414,1.65728,1.34729,0.0929121,0.768647,0.00265576,0.0562519,0.105537,-0.0025183,0.0108656,0.777381,5,0.1,5,9.7,4.86754,1.48231,0.640828,0.301205,-0.0272963,0.00304431,-0.263393,0.0226945,-0.00268221,0.00922113,0.0128066,5,0.1,6,9.7,-0.514748,4.98513,0.56684,-0.0330778,0.253088,-0.00309031,0.0404716,-0.297815,0.00362843,0.00934573,0.00695641,5,0.1,7,9.7,-4.38572,-3.20005,0.647411,-6.70552e-05,-5.96046e-06,-2.8871e-06,0.000119209,0,3.72529e-06,0.00802764,1.04784e-08,5,0.1,8,9.7,-0.229988,3.38944,0.601021,-0.0229335,0.631484,0.00882111,-0.321035,0.182107,0.0434741,0.00747515,0.625112,5,0.1,9,9.7,0.402932,0.199798,0.600009,-0.290955,0.00104676,-1.28523e-05,0.279468,-0.0690147,3.72529e-05,0.00837561,0.323958,5,0.1
0,9.8,1.85302,-2.91458,0.967755,0.866026,0.0427306,-0.221415,0,-0.0169277,0.0159144,0.012159,1.61332,5,0.1,1,9.8,-0.4,1.5002,0.75002,-0.0354543,0.01463,-3.72529e-05,-0.347063,-0.0360608,2.98023e-05,0.011093,0.152818,5,0.1,2,9.8,1.01252,4.53389,1.30249,-1.19209e-05,-2.38419e-05,1.19209e-05,0.000119209,0,0,0.0094812,2.95215e-09,5,0.1,3,9.8,2.10474,2.34361,1.17066,-0.00760555,0.731796,0.150844,0.0356436,0.429392,-0.053823,0.0100112,0.557632,5,0.1,4,9.8,-3.15462,1.73443,1.34754,0.09709,0.771323,0.00240505,0.0232458,-0.0814199,-0.00244379,0.010028,1.01873,5,0.1,5,9.8,4.89628,1.4797,0.641119,0.273037,-0.0248462,0.0027597,-0.30303,0.0265241,-0.00301003,0.00915363,0.0066136,5,0.1,6,9.8,-0.517852,5.00892,0.56655,-0.0289768,0.222516,-0.00272095,0.0418425,-0.315428,0.00378489,0.00891498,0.00208466,5,0.1,7,9.8,-4.38572,-3.20005,0.647411,-5.96046e-05,-5.96046e-06,-1.49012e-06,0.000476837,0,-2.98023e-05,0.00726735,1.07017e-08,5,0.1,8,9.8,-0.233839,3.45326,0.602116,-0.0533599,0.64199,0.0130057,-0.277475,0.00333786,0.0383258,0.0069198,0.449421,5,0.1,9,9.8,0.375251,0.199608,0.600008,-0.262368,-0.00425614,-8.9407e-06,0.296429,-0.0332817,2.98023e-05,0.00889907,0.711709,5,0.1
0,9.9,1.93962,-2.91039,0.94566,0.865934,0.0412878,-0.220567,-0.00368059,-0.0137538,0.0115372,0.012159,1.61332,5,0.1,1,9.9,-0.405588,1.50149,0.750016,-0.078579,0.0110622,-3.41795e-05,-0.483785,-0.0348389,3.35276e-05,0.011093,0.152818,5,0.1,2,9.9,1.01252,4.53389,1.30249,-2.42144e-06,-2.30968e-05,1.09896e-05,8.19564e-05,2.98023e-05,-2.23517e-05,0.0094812,2.95215e-09,5,0.1,3,9.9,2.10414,2.4187,1.18548,-0.00462085,0.766971,0.145474,0.0244975,0.246614,-0.0582561,0.0100112,0.557632,5,0.1,4,9.9,-3.14479,1.81156,1.34777,0.0993405,0.773852,0.00218283,0.0170916,0.0783503,-0.00207871,0.010028,1.01873,5,0.1,5,9.9,4.92209,1.47735,0.64138,0.243261,-0.0222337,0.00246624,-0.296235,0.0260919,-0.00290945,0.00915363,0.0066136,5,0.1,6,9.9,-0.520543,5.02961,0.566296,-0.0248696,0.191294,-0.00234796,0.0404008,-0.309289,0.00368431,0.00891498,0.00208466,5,0.1,7,9.9,-4.38573,-3.20005,0.647411,-1.63913e-05,-5.96046e-06,-3.53903e-06,0.000357628,0,-7.45058e-06,0.00726735,1.07017e-08,5,0.1,8,9.9,-0.240474,3.51753,0.603612,-0.0783163,0.643032,0.0168948,-0.216661,-0.0112802,0.0375472,0.0069198,0.449421,5,0.1,9,9.9,0.350432,0.198935,0.600007,-0.23453,-0.00923949,-6.42613e-06,0.265857,-0.0372948,1.86265e-05,0.00889907,0.711709,5,0.1
0,10,2.02616,-2.90633,0.923724,0.864547,0.0396729,-0.217338,-0.0293255,-0.0196695,0.0602305,0.0093323,1.22708,5,0.1,1,10,-0.415877,1.50242,0.750013,-0.126686,0.00774562,-2.98023e-05,-0.454724,-0.0311732,2.98023e-05,0.00968858,0.25065,5,0.1,2,10,1.01252,4.53388,1.30249,5.96046e-06,-2.38419e-05,8.9407e-06,0,0.000238419,0,0.0126371,8.80672e-09,5,0.1,3,10,2.10378,2.49614,1.1997,-0.00261664,0.776649,0.13842,0.015974,-0.0699759,-0.0859499,0.0146846,0.360726,5,0.1,4,10,-3.13481,1.88924,1.34798,0.0997186,0.777778,0.00197887,-0.012517,-0.0382662,-0.00202656,0.0151107,1.289,5,0.1,5,10,4.94492,1.47525,0.641612,0.213218,-0.0195742,0.00217259,-0.306606,0.0273585,-0.00303984,0.00718363,0.00200239,5,0.1,6,10,-0.52283,5.0472,0.56608,-0.020887,0.160646,-0.00198334,0.0392795,-0.303268,0.00363588,0.00902903,0.00105753,5,0.1,7,10,-4.38573,-3.20005,0.64741,1.19209e-05,-5.96046e-06,-4.47035e-06,0.000238419,0.000119209,0,0.0102874,7.78752e-09,5,0.1,8,10,-0.249255,3.58156,0.605475,-0.0958897,0.634903,0.0201911,-0.131801,-0.170827,0.0269711,0.00742692,0.335684,5,0.1,9,10,0.328294,0.197993,0.600007,-0.208262,-0.00757799,-4.47035e-06,0.263304,0.0828132,0,0.00987864,1.92303,5,0.1
