id,t,px,py,pz,vx,vy,vz,ax,ay,az,planning_time,qp_cost,planning_report,size,id,t,px,py,pz,vx,vy,vz,ax,ay,az,planning_time,qp_cost,planning_report,size,id,t,px,py,pz,vx,vy,vz,ax,ay,az,planning_time,qp_cost,planning_report,size,id,t,px,py,pz,vx,vy,vz,ax,ay,az,planning_time,qp_cost,planning_report,size,id,t,px,py,pz,vx,vy,vz,ax,ay,az,planning_time,qp_cost,planning_report,size,id,t,px,py,pz,vx,vy,vz,ax,ay,az,planning_time,qp_cost,planning_report,size,id,t,px,py,pz,vx,vy,vz,ax,ay,az,planning_time,qp_cost,planning_report,size,id,t,px,py,pz,vx,vy,vz,ax,ay,az,planning_time,qp_cost,planning_report,size,id,t,px,py,pz,vx,vy,vz,ax,ay,az,planning_time,qp_cost,planning_report,size,id,t,px,py,pz,vx,vy,vz,ax,ay,az,planning_time,qp_cost,planning_report,size,id,t,px,py,pz,vx,vy,vz,ax,ay,az,planning_time,qp_cost,planning_report,size,id,t,px,py,pz,vx,vy,vz,ax,ay,az,planning_time,qp_cost,planning_report,size,id,t,px,py,pz,vx,vy,vz,ax,ay,az,planning_time,qp_cost,planning_report,size,id,t,px,py,pz,vx,vy,vz,ax,ay,az,planning_time,qp_cost,planning_report,size,id,t,px,py,pz,vx,vy,vz,ax,ay,az,planning_time,qp_cost,planning_report,size,id,t,px,py,pz,vx,vy,vz,ax,ay,az,planning_time,qp_cost,planning_report,size,id,t,px,py,pz,vx,vy,vz,ax,ay,az,planning_time,qp_cost,planning_report,size,id,t,px,py,pz,vx,vy,vz,ax,ay,az,planning_time,qp_cost,planning_report,size,id,t,px,py,pz,vx,vy,vz,ax,ay,az,planning_time,qp_cost,planning_report,size,id,t,px,py,pz,vx,vy,vz,ax,ay,az,planning_time,qp_cost,planning_report,size,id,t,px,py,pz,vx,vy,vz,ax,ay,az,planning_time,qp_cost,planning_report,size,id,t,px,py,pz,vx,vy,vz,ax,ay,az,planning_time,qp_cost,planning_report,size,id,t,px,py,pz,vx,vy,vz,ax,ay,az,planning_time,qp_cost,planning_report,size,id,t,px,py,pz,vx,vy,vz,ax,ay,az,planning_time,qp_cost,planning_report,size,id,t,px,py,pz,vx,vy,vz,ax,ay,az,planning_time,qp_cost,planning_report,size,id,t,px,py,pz,vx,vy,vz,ax,ay,az,planning_time,qp_cost,planning_report,size,id,t,px,py,pz,vx,vy,vz,ax,ay,az,planning_time,qp_cost,planning_report,size,id,t,px,py,pz,vx,vy,vz,ax,ay,az,planning_time,qp_cost,planning_report,size,id,t,px,py,pz,vx,vy,vz,ax,ay,az,planning_time,qp_cost,planning_report,size,id,t,px,py,pz,vx,vy,vz,ax,ay,az,planning_time,qp_cost,planning_report,size,id,t,px,py,pz,vx,vy,vz,ax,ay,az,planning_time,qp_cost,planning_report,size,id,t,px,py,pz,vx,vy,vz,ax,ay,az,planning_time,qp_cost,planning_report,size,id,t,px,py,pz,vx,vy,vz,ax,ay,az,planning_time,qp_cost,planning_report,size,id,t,px,py,pz,vx,vy,vz,ax,ay,az,planning_time,qp_cost,planning_report,size,id,t,px,py,pz,vx,vy,vz,ax,ay,az,planning_time,qp_cost,planning_report,size,id,t,px,py,pz,vx,vy,vz,ax,ay,az,planning_time,qp_cost,planning_report,size,id,t,px,py,pz,vx,vy,vz,ax,ay,az,planning_time,qp_cost,planning_report,size,id,t,px,py,pz,vx,vy,vz,ax,ay,az,planning_time,qp_cost,planning_report,size,id,t,px,py,pz,vx,vy,vz,ax,ay,az,planning_time,qp_cost,planning_report,size,id,t,px,py,pz,vx,vy,vz,ax,ay,az,planning_time,qp_cost,planning_report,size
0,0,-1.8369,4.16591,0.658246,0,0,0,0,0,0,0.0116961,3.22724,5,0.1,1,0,0.563097,-3.96024,0.64099,0,0,0,0,0,0,0.0199414,1.2522,5,0.1,2,0,-2.62602,-0.789222,0.637083,0,0,0,0,0,0,0.0115889,1.58315,5,0.1,3,0,-4.04208,-4.26045,0.510215,0,0,0,0,0,0,0.00965509,3.51219,5,0.1,4,0,3.48233,1.3668,0.530405,0,0,0,0,0,0,0.0179245,2.37549,5,0.1,5,0,1.85763,-3.62074,0.521781,0,0,0,0,0,0,0.0197401,3.5122,5,0.1,6,0,-0.989515,-2.2829,0.65201,0,0,0,0,0,0,0.034751,3.5122,5,0.1,7,0,2.23564,0.200575,0.538569,0,0,0,0,0,0,0.0113134,2.10512,5,0.1,8,0,-0.99019,-0.853091,0.6549,0,0,0,0,0,0,0.0413602,2.27489,5,0.1,9,0,1.65982,1.14127,0.676756,0,0,0,0,0,0,0.0115169,1.66658,5,0.1,10,0,4.12095,4.00886,0.550325,0,0,0,0,0,0,0.0146655,3.34825,5,0.1,11,0,1.11606,-3.70715,0.610488,0,0,0,0,0,0,0.0166808,1.90634,5,0.1,12,0,4.16413,2.98196,0.553181,0,0,0,0,0,0,0.0269454,3.5122,5,0.1,13,0,-3.26348,3.18302,0.675368,0,0,0,0,0,0,0.0194873,2.42382,5,0.1,14,0,3.72304,0.184202,0.693834,0,0,0,0,0,0,0.0120227,3.51219,5,0.1,15,0,-4.20908,0.712406,0.594483,0,0,0,0,0,0,0.0160676,2.18359,5,0.1,16,0,-0.403399,-0.598917,0.597006,0,0,0,0,0,0,0.0277941,0.501873,5,0.1,17,0,-2.88288,3.83648,0.584718,0,0,0,0,0,0,0.0165942,2.84165,5,0.1,18,0,-2.82577,-1.37975,0.57507,0,0,0,0,0,0,0.0138445,2.54225,5,0.1,19,0,2.09552,-2.30084,0.511274,0,0,0,0,0,0,0.0153783,3.51219,5,0.1,20,0,-3.6082,-1.27564,0.616639,0,0,0,0,0,0,0.0195055,3.5122,5,0.1,21,0,2.21702,-0.500659,0.56593,0,0,0,0,0,0,0.0110155,0.379641,5,0.1,22,0,-3.80079,4.29848,0.578464,0,0,0,0,0,0,0.0130116,3.5122,5,0.1,23,0,1.78215,-1.67904,0.520489,0,0,0,0,0,0,0.0145753,3.5122,5,0.1,24,0,2.00218,2.61545,0.504915,0,0,0,0,0,0,0.0115099,1.28934,5,0.1,25,0,-1.32423,1.29967,0.531879,0,0,0,0,0,0,0.0106252,1.14498,5,0.1,26,0,-1.62154,2.91248,0.68645,0,0,0,0,0,0,0.0451326,1.42652,5,0.1,27,0,-3.33701,-3.69636,0.5852,0,0,0,0,0,0,0.0360563,3.5122,5,0.1,28,0,0.927161,3.80926,0.570964,0,0,0,0,0,0,0.0111067,2.76594,5,0.1,29,0,1.59726,3.92307,0.584611,0,0,0,0,0,0,0.0128879,1.26445,5,0.1,30,0,4.15137,2.12412,0.673372,0,0,0,0,0,0,0.0151354,1.84233,5,0.1,31,0,-3.85682,1.23346,0.656655,0,0,0,0,0,0,0.00950399,3.40888,5,0.1,32,0,0.0237951,-4.25935,0.533964,0,0,0,0,0,0,0.0156074,2.34605,5,0.1,33,0,3.74223,-3.41072,0.679622,0,0,0,0,0,0,0.0182209,3.5122,5,0.1,34,0,-3.04758,2.63104,0.520947,0,0,0,0,0,0,0.0153344,3.5122,5,0.1,35,0,-2.15021,-3.71938,0.527827,0,0,0,0,0,0,0.0255596,0.50893,5,0.1,36,0,-1.3809,1.95398,0.500931,0,0,0,0,0,0,0.0230372,3.51223,5,0.1,37,0,1.20763,-0.728917,0.507116,0,0,0,0,0,0,0.00957014,2.16015,5,0.1,38,0,-4.29253,2.79278,0.689689,0,0,0,0,0,0,0.00992775,3.51219,5,0.1,39,0,-2.31916,2.77603,0.535586,0,0,0,0,0,0,0.0128692,3.19713,5,0.1
0,0.1,-1.83686,4.16391,0.658185,0.00109356,-0.0567764,-0.00172583,0.0194386,-1.00935,-0.0306852,0.0116961,3.22724,5,0.1,1,0.1,0.563136,-3.95924,0.64173,0.00109365,0.028456,0.0210108,0.0194423,0.505894,0.373527,0.0199414,1.2522,5,0.1,2,0.1,-2.62673,-0.790434,0.637044,-0.0199728,-0.0343988,-0.00109896,-0.355065,-0.611529,-0.0195354,0.0115889,1.58315,5,0.1,3,0.1,-4.04003,-4.26007,0.510304,0.058192,0.0109605,0.00253674,1.0345,0.194818,0.0450984,0.00965509,3.51219,5,0.1,4,0.1,3.48214,1.36851,0.530478,-0.00540353,0.0483986,0.00206232,-0.0960678,0.860423,0.0366643,0.0179245,2.37549,5,0.1,5,0.1,1.8574,-3.61867,0.521748,-0.00661258,0.0588905,-0.000934955,-0.117563,1.04694,-0.016626,0.0197401,3.5122,5,0.1,6,0.1,-0.988911,-2.2809,0.651964,0.0171325,0.0567239,-0.0012924,0.304576,1.00841,-0.0229739,0.034751,3.5122,5,0.1,7,0.1,2.23456,0.201775,0.538633,-0.0306908,0.0340622,0.00182064,-0.545606,0.605552,0.0323616,0.0113134,2.10512,5,0.1,8,0.1,-0.989469,-0.851574,0.654843,0.0204532,0.043061,-0.00162693,0.363614,0.765532,-0.0289194,0.0413602,2.27489,5,0.1,9,0.1,1.6584,1.14149,0.676832,-0.0402972,0.00618547,0.00217054,-0.716388,0.109971,0.0385866,0.0115169,1.66658,5,0.1,10,0.1,4.11931,4.00765,0.550377,-0.0465535,-0.0343405,0.00147196,-0.82764,-0.610501,0.0261702,0.0146655,3.34825,5,0.1,11,0.1,1.11458,-3.70672,0.610477,-0.0419639,0.0120658,-0.000310969,-0.746027,0.214502,-0.00552461,0.0166808,1.90634,5,0.1,12,0.1,4.1621,2.98243,0.553202,-0.057739,0.0133649,0.000585895,-1.02651,0.237614,0.0104122,0.0269454,3.5122,5,0.1,13,0.1,-3.26195,3.1822,0.675446,0.0433691,-0.0232041,0.00221161,0.770986,-0.412524,0.039313,0.0194873,2.42382,5,0.1,14,0.1,3.72343,0.182151,0.69382,0.0109699,-0.058243,-0.000371691,0.195011,-1.03543,-0.00661239,0.0120227,3.51219,5,0.1,15,0.1,-4.20782,0.711349,0.594489,0.0358306,-0.0300019,0.000163447,0.636965,-0.533368,0.00290945,0.0160676,2.18359,5,0.1,16,0.1,-0.403292,-0.598136,0.597009,0.00306424,0.0221934,8.88482e-05,0.0544749,0.394553,0.00157952,0.0277941,0.501873,5,0.1,17,0.1,-2.88175,3.83498,0.584733,0.03209,-0.0425681,0.000452716,0.570491,-0.75677,0.00805035,0.0165942,2.84165,5,0.1,18,0.1,-2.82454,-1.37846,0.575096,0.0348426,0.0364427,0.000738632,0.619441,0.647873,0.0131316,0.0138445,2.54225,5,0.1,19,0.1,2.09508,-2.2988,0.511239,-0.0123426,0.0579592,-0.0010144,-0.219434,1.0304,-0.0180379,0.0153783,3.51219,5,0.1,20,0.1,-3.60639,-1.2746,0.616623,0.0513818,0.0295365,-0.000436604,0.913456,0.525095,-0.0077635,0.0195055,3.5122,5,0.1,21,0.1,2.21712,-0.501328,0.566051,0.0027582,-0.0189845,0.0034187,0.0490248,-0.3375,0.0607818,0.0110155,0.379641,5,0.1,22,0.1,-3.79928,4.29704,0.57848,0.0429925,-0.0407949,0.000462867,0.764295,-0.72521,0.00822544,0.0130116,3.5122,5,0.1,23,0.1,1.78179,-1.67699,0.520446,-0.0102071,0.0583695,-0.00123596,-0.181459,1.03768,-0.021968,0.0145753,3.5122,5,0.1,24,0.1,2.00338,2.61585,0.504873,0.0340141,0.011396,-0.00119442,0.604689,0.202581,-0.0212304,0.0115099,1.28934,5,0.1,25,0.1,-1.32316,1.3002,0.53195,0.0303522,0.0148268,0.00201873,0.539601,0.263579,0.0358894,0.0106252,1.14498,5,0.1,26,0.1,-1.62094,2.91367,0.686516,0.0169367,0.0337094,0.00188332,0.301108,0.599265,0.0334829,0.0451326,1.42652,5,0.1,27,0.1,-3.33503,-3.69571,0.585212,0.0563294,0.018429,0.000322238,1.00142,0.327617,0.0057295,0.0360563,3.5122,5,0.1,28,0.1,0.926663,3.80748,0.570994,-0.0141404,-0.0506528,0.000860449,-0.251386,-0.900507,0.0152998,0.0111067,2.76594,5,0.1,29,0.1,1.59841,3.92257,0.584627,0.0326792,-0.0140194,0.000455976,0.580959,-0.249222,0.00810623,0.0128879,1.26445,5,0.1,30,0.1,4.15017,2.12503,0.673296,-0.0341192,0.025956,-0.00217427,-0.606537,0.461444,-0.0386536,0.0151354,1.84233,5,0.1,31,0.1,-3.8573,1.23156,0.656574,-0.0135615,-0.0538645,-0.00228602,-0.241071,-0.957586,-0.0406355,0.00950399,3.40888,5,0.1,32,0.1,0.0224448,-4.25831,0.534088,-0.0383328,0.029403,0.00352925,-0.681472,0.522733,0.0627451,0.0156074,2.34605,5,0.1,33,0.1,3.74212,-3.40864,0.679647,-0.00297613,0.0591885,0.000716839,-0.052914,1.05225,0.0127442,0.0182209,3.5122,5,0.1,34,0.1,-3.04584,2.63219,0.52089,0.0494309,0.0326596,-0.00163307,0.878751,0.580609,-0.0290312,0.0153344,3.5122,5,0.1,35,0.1,-2.14969,-3.71879,0.527902,0.0148229,0.0168737,0.00213888,0.263512,0.299975,0.0380278,0.0255596,0.50893,5,0.1,36,0.1,-1.37987,1.95216,0.500923,0.0292558,-0.0515396,-0.000226311,0.520095,-0.91625,-0.00402331,0.0230372,3.51223,5,0.1,37,0.1,1.20605,-0.728469,0.507057,-0.0446772,0.0127108,-0.00169277,-0.794269,0.225965,-0.0300929,0.00957014,2.16015,5,0.1,38,0.1,-4.29093,2.79411,0.689584,0.0456542,0.037678,-0.00296962,0.811636,0.669822,-0.0527948,0.00992775,3.51219,5,0.1,39,0.1,-2.31768,2.77736,0.535653,0.0420559,0.0377536,0.00190884,0.747666,0.671178,0.0339374,0.0128692,3.19713,5,0.1
0,0.2,-1.83664,4.15238,0.657834,0.00345707,-0.179446,-0.00545532,0.0258684,-1.34563,-0.0409186,0.0100647,2.6478,5,0.1,1,0.2,0.563358,-3.95345,0.645998,0.00345707,0.0899374,0.066404,0.0258982,0.674367,0.498056,0.0225327,1.02737,5,0.1,2,0.2,-2.63078,-0.797421,0.636821,-0.0631273,-0.108717,-0.00347346,-0.47338,-0.815362,-0.0260472,0.0105276,1.32616,5,0.1,3,0.2,-4.02821,-4.25784,0.51082,0.183904,0.0346422,0.00801831,1.37949,0.259876,0.0601113,0.0135901,2.92578,5,0.1,4,0.2,3.48104,1.37834,0.530897,-0.0170767,0.152963,0.00651926,-0.128031,1.14721,0.048846,0.0221443,1.94898,5,0.1,5,0.2,1.85605,-3.6067,0.521558,-0.0209004,0.186121,-0.00295639,-0.156701,1.39606,-0.0221431,0.0206938,2.92578,5,0.1,6,0.2,-0.985431,-2.26938,0.651702,0.0541478,0.179273,-0.00408441,0.406057,1.34456,-0.030607,0.0342436,2.92579,5,0.1,7,0.2,2.22832,0.208694,0.539003,-0.0969946,0.107653,0.00575334,-0.727534,0.807405,0.0431538,0.0116612,1.72714,5,0.1,8,0.2,-0.985314,-0.842827,0.654512,0.0646412,0.136094,-0.00514239,0.484824,1.02073,-0.0385344,0.0374245,1.86643,5,0.1,9,0.2,1.65022,1.14275,0.677273,-0.12736,0.0195473,0.006859,-0.955164,0.146687,0.0514686,0.00941927,1.36734,5,0.1,10,0.2,4.10985,4.00067,0.550676,-0.147128,-0.10854,0.00465214,-1.10364,-0.813961,0.0348985,0.0133891,2.74707,5,0.1,11,0.2,1.10606,-3.70427,0.610414,-0.132626,0.0381351,-0.000981987,-0.994682,0.285983,-0.00736117,0.0167206,1.56406,5,0.1,12,0.2,4.15037,2.98515,0.553321,-0.182474,0.0422418,0.00185072,-1.369,0.316739,0.0139177,0.0177701,2.95696,5,0.1,13,0.2,-3.25314,3.17749,0.675895,0.137067,-0.0733376,0.00699013,1.02806,-0.550032,0.0524223,0.0190589,2.00144,5,0.1,14,0.2,3.72566,0.17032,0.693745,0.034672,-0.184077,-0.0011757,0.259995,-1.38058,-0.00879169,0.0104243,2.92579,5,0.1,15,0.2,-4.20054,0.705255,0.594522,0.113237,-0.0948206,0.00051707,0.849485,-0.711143,0.0038445,0.0120391,1.79152,5,0.1,16,0.2,-0.402669,-0.593628,0.597027,0.00968426,0.0701427,0.000280142,0.0726283,0.526071,0.00211596,0.0278739,0.411762,5,0.1,17,0.2,-2.87523,3.82633,0.584825,0.101423,-0.13454,0.001432,0.760555,-1.00899,0.010699,0.0142426,2.33144,5,0.1,18,0.2,-2.81747,-1.37106,0.575246,0.11012,0.115177,0.00233501,0.825882,0.863791,0.0175238,0.0212397,2.11544,5,0.1,19,0.2,2.09257,-2.28703,0.511033,-0.0390112,0.183183,-0.00320524,-0.29254,1.37389,-0.0240803,0.0191894,2.92579,5,0.1,20,0.2,-3.59595,-1.2686,0.616534,0.162399,0.0933468,-0.00137985,1.21784,0.700176,-0.0103414,0.0164123,2.9258,5,0.1,21,0.2,2.21768,-0.505184,0.566745,0.0087142,-0.0599995,0.0108048,0.0653267,-0.450015,0.0810325,0.00896033,0.311477,5,0.1,22,0.2,-3.79055,4.28876,0.578574,0.135875,-0.128925,0.0014618,1.01924,-0.967026,0.0109971,0.0168738,2.92578,5,0.1,23,0.2,1.77971,-1.66513,0.520195,-0.032258,0.184476,-0.00390708,-0.241995,1.3836,-0.0292659,0.0128241,2.92579,5,0.1,24,0.2,2.01029,2.61816,0.504631,0.107503,0.0360131,-0.00377595,0.806332,0.270247,-0.0282824,0.0134795,1.05818,5,0.1,25,0.2,-1.31699,1.30321,0.53236,0.0959277,0.0468612,0.00637919,0.719428,0.351429,0.0478923,0.00942448,0.939402,5,0.1,26,0.2,-1.6175,2.92051,0.686899,0.0535309,0.106543,0.00595152,0.401437,0.798941,0.0446737,0.0417081,1.17039,5,0.1,27,0.2,-3.32359,-3.69196,0.585277,0.178033,0.0582397,0.00101775,1.33514,0.436902,0.0076592,0.0361883,2.92654,5,0.1,28,0.2,0.923791,3.79719,0.571169,-0.0446901,-0.160086,0.00271946,-0.335187,-1.20068,0.0203848,0.0125219,2.26931,5,0.1,29,0.2,1.60505,3.91972,0.58472,0.10328,-0.0443101,0.00144094,0.774682,-0.332117,0.0108182,0.00977039,1.03742,5,0.1,30,0.2,4.14324,2.1303,0.672854,-0.107837,0.0820339,-0.00687242,-0.808716,0.615239,-0.0515282,0.0226701,1.51154,5,0.1,31,0.2,-3.86005,1.22062,0.65611,-0.0428617,-0.170237,-0.00722408,-0.321269,-1.27685,-0.0541806,0.0110326,2.85999,5,0.1,32,0.2,0.0146584,-4.25234,0.534805,-0.121151,0.0929236,0.0111535,-0.90863,0.697136,0.0836551,0.0126295,1.92481,5,0.1,33,0.2,3.74152,-3.39662,0.679793,-0.00940561,0.187069,0.00226498,-0.0705719,1.40297,0.0170171,0.0212034,2.92579,5,0.1,34,0.2,-3.0358,2.63882,0.520558,0.156224,0.103223,-0.00516176,1.17171,0.774145,-0.0386834,0.0164419,2.92579,5,0.1,35,0.2,-2.14668,-3.71536,0.528336,0.0468493,0.0533223,0.00675917,0.351429,0.400066,0.0507236,0.0257518,0.417547,5,0.1,36,0.2,-1.37393,1.94169,0.500877,0.0924617,-0.162891,-0.000713766,0.6935,-1.22172,-0.00539422,0.0233319,2.99707,5,0.1,37,0.2,1.19698,-0.725887,0.506713,-0.141203,0.0401706,-0.00534803,-1.059,0.301331,-0.0401735,0.0107177,1.77254,5,0.1,38,0.2,-4.28165,2.80176,0.688981,0.144291,0.119078,-0.00938475,1.08194,0.893235,-0.0703931,0.0125243,2.9258,5,0.1,39,0.2,-2.30914,2.78503,0.536041,0.132918,0.119317,0.00603348,0.996828,0.894904,0.0452399,0.0127958,2.62309,5,0.1
0,0.3,-1.83615,4.12696,0.657061,0.00642631,-0.333811,-0.010149,0.0316873,-1.64673,-0.0500679,0.0100647,2.6478,5,0.1,1,0.3,0.563847,-3.94072,0.655403,0.00642864,0.167299,0.123536,0.0317059,0.825301,0.609446,0.0225327,1.02737,5,0.1,2,0.3,-2.63977,-0.812328,0.636352,-0.118636,-0.188303,-0.00582645,-0.600725,-0.749815,-0.0205897,0.0105276,1.32616,5,0.1,3,0.3,-4.00215,-4.25293,0.511956,0.342553,0.0645272,0.0149323,1.69526,0.319332,0.0738874,0.0135901,2.92578,5,0.1,4,0.3,3.47862,1.4,0.53182,-0.0317652,0.284561,0.0121241,-0.156686,1.40382,0.0597946,0.0221443,1.94898,5,0.1,5,0.3,1.85309,-3.58033,0.521139,-0.0389243,0.346677,-0.00550365,-0.192605,1.71563,-0.0272281,0.0206938,2.92578,5,0.1,6,0.3,-0.977758,-2.24397,0.651123,0.10085,0.333909,-0.00760555,0.499062,1.65242,-0.0376329,0.0342436,2.92579,5,0.1,7,0.3,2.21458,0.223941,0.539818,-0.180448,0.200272,0.0107034,-0.89024,0.988,0.052806,0.0116612,1.72714,5,0.1,8,0.3,-0.976159,-0.823552,0.653784,0.120256,0.253182,-0.00956375,0.593267,1.24903,-0.0471696,0.0374245,1.86643,5,0.1,9,0.3,1.63218,1.14552,0.678245,-0.236929,0.0363719,0.0127623,-1.16882,0.179455,0.0629723,0.00941927,1.36734,5,0.1,10,0.3,4.08901,3.9853,0.551335,-0.273723,-0.201912,0.00865515,-1.35037,-0.996053,0.0426993,0.0133891,2.74707,5,0.1,11,0.3,1.08728,-3.69887,0.610275,-0.246728,0.0709403,-0.00182642,-1.21718,0.349954,-0.00901148,0.0167206,1.56406,5,0.1,12,0.3,4.12446,2.99053,0.553584,-0.341313,0.0615168,0.00348473,-1.70723,0.0843257,0.0176989,0.0177701,2.95696,5,0.1,13,0.3,-3.23393,3.16737,0.676921,0.249273,-0.128779,0.0140148,1.15627,-0.536993,0.082124,0.0190589,2.00144,5,0.1,14,0.3,3.73057,0.144234,0.693578,0.0645746,-0.342855,-0.00218758,0.319555,-1.6967,-0.010822,0.0104243,2.92579,5,0.1,15,0.3,-4.1845,0.691826,0.594595,0.210676,-0.176397,0.000959262,1.03936,-0.87022,0.00472367,0.0120391,1.79152,5,0.1,16,0.3,-0.401298,-0.583693,0.597067,0.0180157,0.130489,0.000522565,0.0888743,0.643741,0.00258163,0.0278739,0.411762,5,0.1,17,0.3,-2.86087,3.80727,0.585028,0.188671,-0.250283,0.00266042,0.930756,-1.2347,0.013113,0.0142426,2.33144,5,0.1,18,0.3,-2.80183,-1.35526,0.575554,0.206115,0.199723,0.00368254,1.03296,0.798516,0.00966713,0.0212397,2.11544,5,0.1,19,0.3,2.08705,-2.26107,0.510578,-0.0726562,0.341192,-0.0059735,-0.35955,1.68847,-0.0295714,0.0191894,2.92579,5,0.1,20,0.3,-3.57294,-1.25537,0.616339,0.302465,0.173872,-0.00256952,1.49676,0.86046,-0.0127107,0.0164123,2.9258,5,0.1,21,0.3,2.21891,-0.513682,0.568275,0.0162091,-0.111621,0.0201005,0.0799447,-0.550661,0.0991635,0.00896033,0.311477,5,0.1,22,0.3,-3.77129,4.27049,0.578781,0.253091,-0.24014,0.0027257,1.25253,-1.1884,0.0134967,0.0168738,2.92578,5,0.1,23,0.3,1.77514,-1.63899,0.519641,-0.0600878,0.343602,-0.00727391,-0.297368,1.7004,-0.03599,0.0128241,2.92579,5,0.1,24,0.3,2.02552,2.62327,0.50413,0.199996,0.067009,-0.00605481,0.986665,0.330627,-0.0174455,0.0134795,1.05818,5,0.1,25,0.3,-1.30341,1.30984,0.533264,0.178455,0.0871746,0.0118713,0.880368,0.43004,0.0585802,0.00942448,0.939402,5,0.1,26,0.3,-1.60992,2.9356,0.687742,0.0995815,0.198194,0.0110749,0.491261,0.977695,0.0546426,0.0417081,1.17039,5,0.1,27,0.3,-3.29839,-3.68362,0.58542,0.330704,0.110997,0.00184551,1.62518,0.581548,0.00847131,0.0361883,2.92654,5,0.1,28,0.3,0.917461,3.77451,0.571554,-0.0831394,-0.297816,0.00505811,-0.410154,-1.46922,0.0249483,0.0125219,2.26931,5,0.1,29,0.3,1.61967,3.91345,0.584924,0.192142,-0.082415,0.00268156,0.947915,-0.406519,0.013236,0.00977039,1.03742,5,0.1,30,0.3,4.12796,2.14192,0.671881,-0.200607,0.152609,-0.0127838,-0.989676,0.752851,-0.063058,0.0226701,1.51154,5,0.1,31,0.3,-3.86597,1.197,0.655102,-0.0756074,-0.302782,-0.0130081,-0.320092,-1.31492,-0.0586323,0.0110326,2.85999,5,0.1,32,0.3,-0.00250024,-4.23917,0.536385,-0.225381,0.172887,0.0207498,-1.11187,0.852972,0.102367,0.0126295,1.92481,5,0.1,33,0.3,3.74018,-3.37011,0.680114,-0.0175219,0.348425,0.00422141,-0.0867397,1.72423,0.0208952,0.0212034,2.92579,5,0.1,34,0.3,-3.01366,2.65345,0.519827,0.290981,0.192257,-0.00961171,1.44,0.951394,-0.0475533,0.0164419,2.92579,5,0.1,35,0.3,-2.14004,-3.70781,0.529294,0.0871595,0.0992108,0.0125769,0.430003,0.489488,0.0620522,0.0257518,0.417547,5,0.1,36,0.3,-1.36095,1.91939,0.500782,0.168632,-0.281046,-0.00114795,0.788495,-1.10406,-0.00331551,0.0233319,2.99707,5,0.1,37,0.3,1.17698,-0.720198,0.506002,-0.262683,0.0747353,-0.00862041,-1.29588,0.368707,-0.0254028,0.0107177,1.77254,5,0.1,38,0.3,-4.26121,2.81864,0.687651,0.268733,0.221804,-0.0174805,1.32981,1.09768,-0.086505,0.0125243,2.9258,5,0.1,39,0.3,-2.29031,2.80193,0.536895,0.247267,0.221971,0.0112234,1.21984,1.09506,0.0553653,0.0127958,2.62309,5,0.1
0,0.4,-1.83535,4.08549,0.655801,0.00947714,-0.492299,-0.0149667,0.0279546,-1.45268,-0.0441968,0.0113115,2.09498,5,0.1,1,0.4,0.564646,-3.91993,0.670749,0.00948012,0.246727,0.182188,0.0279844,0.72813,0.537694,0.0314373,0.812871,5,0.1,2,0.4,-2.6546,-0.83462,0.635678,-0.17699,-0.254194,-0.00752211,-0.53966,-0.549674,-0.0130832,0.013296,1.07439,5,0.1,3,0.4,-3.95956,-4.24491,0.513812,0.505888,0.0952959,0.0220522,1.49882,0.282288,0.0652969,0.0085463,2.51234,5,0.1,4,0.4,3.47467,1.43535,0.533326,-0.0468433,0.419664,0.0178784,-0.138283,1.23847,0.0527799,0.0153911,1.61062,5,0.1,5,0.4,1.84825,-3.53723,0.520455,-0.0574827,0.511974,-0.00812709,-0.17029,1.51694,-0.0240803,0.023453,2.51433,5,0.1,6,0.4,-0.96522,-2.20246,0.650178,0.148933,0.493121,-0.011231,0.441313,1.46091,-0.0332892,0.033874,2.5102,5,0.1,7,0.4,2.19217,0.24882,0.541148,-0.266123,0.295356,0.0157848,-0.785351,0.871636,0.046581,0.0128625,1.36653,5,0.1,8,0.4,-0.96122,-0.7921,0.652596,0.177351,0.373386,-0.0141039,0.523388,1.10194,-0.0416338,0.0385424,1.47674,5,0.1,9,0.4,1.60274,1.15003,0.67983,-0.349417,0.0536412,0.0188231,-1.03116,0.15831,0.0555217,0.00962453,1.08186,5,0.1,10,0.4,4.05501,3.96022,0.55241,-0.40369,-0.297779,0.0127658,-1.19114,-0.878572,0.0376403,0.0154322,2.17351,5,0.1,11,0.4,1.05663,-3.69006,0.610048,-0.363868,0.104618,-0.00269413,-1.07384,0.308871,-0.00795722,0.0182975,1.27185,5,0.1,12,0.4,4.08191,2.99682,0.55402,-0.506413,0.061965,0.00520498,-1.52087,-0.0623465,0.0159144,0.0179655,2.53739,5,0.1,13,0.4,-3.20342,3.15198,0.678741,0.357974,-0.17702,0.0223741,0.974178,-0.412345,0.0805557,0.0165053,1.70579,5,0.1,14,0.4,3.7386,0.101609,0.693306,0.0953615,-0.506328,-0.00323057,0.282645,-1.50018,-0.00956655,0.0106458,2.51249,5,0.1,15,0.4,-4.15833,0.669912,0.594714,0.310695,-0.260144,0.00141412,0.917196,-0.767767,0.00417233,0.0118647,1.41746,5,0.1,16,0.4,-0.399059,-0.567483,0.597132,0.0265695,0.192443,0.00077039,0.078395,0.567883,0.00226498,0.0309303,0.32579,5,0.1,17,0.4,-2.83743,3.77618,0.585359,0.27824,-0.369108,0.00392348,0.821233,-1.08933,0.0115633,0.0141685,1.84467,5,0.1,18,0.4,-2.77612,-1.3316,0.575959,0.306088,0.270033,0.00431538,0.921488,0.587881,0.00321865,0.0158749,1.70028,5,0.1,19,0.4,2.07801,-2.21865,0.509836,-0.1073,0.503868,-0.00882149,-0.317812,1.49298,-0.0261664,0.0149268,2.51184,5,0.1,20,0.4,-3.53533,-1.23375,0.61602,0.446677,0.256774,-0.00379533,1.32346,0.760794,-0.0112355,0.0204247,2.56621,5,0.1,21,0.4,2.22092,-0.527548,0.570773,0.0239074,-0.164616,0.0296429,0.0704527,-0.485808,0.0874996,0.0108454,0.246444,5,0.1,22,0.4,-3.73983,4.24063,0.57912,0.373763,-0.354648,0.0040248,1.10745,-1.05047,0.0119507,0.0145249,2.51007,5,0.1,23,0.4,1.76767,-1.59627,0.518737,-0.0887394,0.507432,-0.0107408,-0.262856,1.50341,-0.0318587,0.0157471,2.51281,5,0.1,24,0.4,2.05036,2.63159,0.503454,0.294948,0.0988245,-0.00730008,0.870466,0.291705,-0.00762939,0.0131816,1.08921,5,0.1,25,0.4,-1.28124,1.32067,0.534738,0.263181,0.128561,0.0175089,0.776708,0.379443,0.0516772,0.0110157,0.743266,5,0.1,26,0.4,-1.59755,2.96022,0.689118,0.146857,0.292289,0.0163332,0.433445,0.862598,0.0481904,0.0459985,0.926031,5,0.1,27,0.4,-3.25735,-3.66962,0.585645,0.486892,0.168151,0.00263751,1.42992,0.534296,0.00709295,0.0402994,2.51057,5,0.1,28,0.4,0.907133,3.73752,0.572183,-0.122613,-0.439209,0.00746101,-0.36183,-1.29628,0.0219643,0.0108179,1.7955,5,0.1,29,0.4,1.64354,3.90321,0.585257,0.283369,-0.121534,0.00395477,0.836194,-0.35882,0.0116825,0.0120222,0.820819,5,0.1,30,0.4,4.10304,2.16088,0.670293,-0.295842,0.225061,-0.0188529,-0.873327,0.664353,-0.0556409,0.0165603,1.19595,5,0.1,31,0.4,-3.87504,1.16048,0.65352,-0.104564,-0.423065,-0.0184566,-0.249505,-1.04845,-0.0482798,0.00820029,2.44357,5,0.1,32,0.4,-0.0304991,-4.2177,0.538963,-0.332385,0.254977,0.030601,-0.980927,0.752449,0.090301,0.0125121,1.52292,5,0.1,33,0.4,3.738,-3.32679,0.680639,-0.0258744,0.514549,0.00623465,-0.0767708,1.52457,0.0184774,0.0173997,2.51538,5,0.1,34,0.4,-2.97748,2.67735,0.518632,0.42972,0.283927,-0.0141934,1.27316,0.841141,-0.0420809,0.017896,2.51008,5,0.1,35,0.4,-2.12921,-3.69548,0.530856,0.128543,0.146317,0.018549,0.379324,0.431776,0.0547171,0.0299329,0.330365,5,0.1,36,0.4,-1.34027,1.88622,0.500654,0.242996,-0.377414,-0.00138432,0.668466,-0.797689,-0.00143051,0.0216858,2.97062,5,0.1,37,0.4,1.14435,-0.710914,0.505037,-0.387397,0.110218,-0.0104651,-1.14328,0.325263,-0.0117123,0.0118233,1.40294,5,0.1,38,0.4,-4.2278,2.84621,0.685478,0.39686,0.327563,-0.0258148,1.17588,0.970483,-0.0765026,0.0114565,2.51009,5,0.1,39,0.4,-2.2596,2.8295,0.53829,0.364661,0.327361,0.0165507,1.07622,0.966072,0.0488758,0.0141602,2.07638,5,0.1
0,0.5,-1.83426,4.02887,0.654079,0.0123143,-0.639693,-0.0194502,0.0273883,-1.42291,-0.0432767,0.0113115,2.09498,5,0.1,1,0.5,0.565736,-3.89155,0.691706,0.0123193,0.320606,0.236741,0.0274107,0.71317,0.526618,0.0314373,0.812871,5,0.1,2,0.5,-2.67502,-0.863177,0.634844,-0.230918,-0.31953,-0.00928482,-0.514105,-0.705559,-0.0204183,0.013296,1.07439,5,0.1,3,0.5,-3.90142,-4.23393,0.516353,0.655727,0.124344,0.0287725,1.42686,0.283778,0.0656545,0.0085463,2.51234,5,0.1,4,0.5,3.46929,1.48282,0.535383,-0.0608735,0.522405,0.0232335,-0.135452,0.806458,0.0516921,0.0153911,1.61062,5,0.1,5,0.5,1.84163,-3.47844,0.519518,-0.0750074,0.662062,-0.0106052,-0.171192,1.41579,-0.0242032,0.023453,2.51433,5,0.1,6,0.5,-0.948058,-2.14567,0.648883,0.194345,0.642445,-0.0146566,0.443578,1.45011,-0.0334606,0.033874,2.5102,5,0.1,7,0.5,2.16156,0.282794,0.542963,-0.345804,0.383792,0.020511,-0.769183,0.853703,0.0456236,0.0128625,1.36653,5,0.1,8,0.5,-0.94082,-0.749151,0.650974,0.230454,0.485188,-0.0183282,0.512622,1.07925,-0.040777,0.0385424,1.47674,5,0.1,9,0.5,1.56255,1.1562,0.681995,-0.454039,0.0697024,0.0244567,-1.00996,0.155032,0.0543892,0.00962453,1.08186,5,0.1,10,0.5,4.00857,3.92597,0.553879,-0.524546,-0.386924,0.0165855,-1.16669,-0.860572,0.0368766,0.0154322,2.17351,5,0.1,11,0.5,1.01525,-3.67776,0.609641,-0.459332,0.14356,-0.00624815,-0.811975,0.437707,-0.0566281,0.0182975,1.27185,5,0.1,12,0.5,4.02364,3.00313,0.554622,-0.65746,0.0678301,0.00681775,-1.43041,0.152171,0.0155605,0.0179655,2.53739,5,0.1,13,0.5,-3.1633,3.13245,0.681492,0.43858,-0.211205,0.0334805,0.628814,-0.266239,0.131257,0.0165053,1.70579,5,0.1,14,0.5,3.74959,0.0434198,0.692934,0.124444,-0.656188,-0.00421545,0.284061,-1.42607,-0.00962242,0.0106458,2.51249,5,0.1,15,0.5,-4.12259,0.639989,0.594877,0.403746,-0.338041,0.00183797,0.898153,-0.751957,0.00409409,0.0118647,1.41746,5,0.1,16,0.5,-0.396003,-0.545347,0.59722,0.0345238,0.250061,0.00100015,0.0767875,0.556216,0.00221655,0.0309303,0.32579,5,0.1,17,0.5,-2.80542,3.73373,0.58581,0.361561,-0.479631,0.00509759,0.80432,-1.06694,0.0113361,0.0141685,1.84467,5,0.1,18,0.5,-2.74085,-1.30125,0.576423,0.398719,0.339653,0.00509582,0.887454,0.750102,0.0110865,0.0158749,1.70028,5,0.1,19,0.5,2.06565,-2.16072,0.50882,-0.140007,0.653635,-0.0114823,-0.319511,1.43056,-0.0257343,0.0149268,2.51184,5,0.1,20,0.5,-3.48456,-1.20427,0.615575,0.562987,0.332071,-0.0051544,0.976861,0.711523,-0.0149049,0.0204247,2.56621,5,0.1,21,0.5,2.22367,-0.546483,0.574182,0.0310585,-0.213906,0.0385202,0.069052,-0.475813,0.0856966,0.0108454,0.246444,5,0.1,22,0.5,-3.69675,4.19977,0.579584,0.487721,-0.462751,0.00525378,1.1131,-1.05596,0.0120029,0.0145249,2.51007,5,0.1,23,0.5,1.75745,-1.53796,0.517499,-0.115789,0.657334,-0.0140186,-0.26422,1.42404,-0.0320151,0.0157471,2.51281,5,0.1,24,0.5,2.08444,2.64296,0.502705,0.387708,0.128419,-0.00751149,0.931561,0.285655,0.00272691,0.0131816,1.08921,5,0.1,25,0.5,-1.25096,1.33546,0.536752,0.341986,0.167059,0.0227515,0.760727,0.37162,0.0506043,0.0110157,0.743266,5,0.1,26,0.5,-1.58066,2.99385,0.690996,0.190834,0.37981,0.0212225,0.424519,0.844866,0.0471957,0.0459985,0.926031,5,0.1,27,0.5,-3.20131,-3.65004,0.585945,0.633766,0.223894,0.00335053,1.43227,0.551105,0.00682473,0.0402994,2.51057,5,0.1,28,0.5,0.89303,3.687,0.573041,-0.159324,-0.570728,0.00969069,-0.354391,-1.26956,0.0215285,0.0108179,1.7955,5,0.1,29,0.5,1.67614,3.88923,0.585712,0.36821,-0.157939,0.00513969,0.819013,-0.351429,0.0114404,0.0120222,0.820819,5,0.1,30,0.5,4.06901,2.18677,0.668124,-0.384445,0.292462,-0.0244983,-0.855297,0.650629,-0.054501,0.0165603,1.19595,5,0.1,31,0.5,-3.88692,1.11339,0.651443,-0.13426,-0.513732,-0.0229333,-0.321403,-0.74476,-0.0397041,0.00820029,2.44357,5,0.1,32,0.5,-0.0687319,-4.18837,0.542482,-0.43191,0.331319,0.0397633,-0.960744,0.736982,0.0884496,0.0125121,1.52292,5,0.1,33,0.5,3.73502,-3.26773,0.681357,-0.0337712,0.66474,0.00813575,-0.0771284,1.4111,0.0185631,0.0173997,2.51538,5,0.1,34,0.5,-2.92796,2.71007,0.516996,0.560733,0.370486,-0.0185232,1.27973,0.845507,-0.0422932,0.017896,2.51008,5,0.1,35,0.5,-2.11443,-3.67865,0.53299,0.167029,0.190126,0.0241008,0.371501,0.42288,0.053592,0.0299329,0.330365,5,0.1,36,0.5,-1.31296,1.84546,0.500512,0.29955,-0.428449,-0.00142325,0.453673,-0.245228,0.000528991,0.0216858,2.97062,5,0.1,37,0.5,1.09978,-0.698236,0.503959,-0.503394,0.143219,-0.0108359,-1.11975,0.318568,0.00333041,0.0118233,1.40294,5,0.1,38,0.5,-4.18206,2.88396,0.682503,0.517864,0.427429,-0.0336868,1.18193,0.975445,-0.0768863,0.0114565,2.51009,5,0.1,39,0.5,-2.21774,2.86714,0.540187,0.471288,0.424844,0.0213196,1.00844,0.936687,0.0444911,0.0141602,2.07638,5,0.1
0,0.6,-1.8329,3.95832,0.651934,0.0147194,-0.764561,-0.0232488,0.0196695,-1.02365,-0.0310838,0.0112385,1.67948,5,0.1,1,0.6,0.567095,-3.8562,0.717814,0.0147253,0.383192,0.282954,0.0197291,0.513077,0.378847,0.0268525,0.608643,5,0.1,2,0.6,-2.70047,-0.898567,0.633813,-0.275606,-0.386387,-0.011301,-0.362396,-0.593901,-0.0186265,0.014323,0.824406,5,0.1,3,0.6,-3.8293,-4.22017,0.519536,0.779378,0.149488,0.0345916,0.998616,0.208616,0.0483096,0.0160772,2.31734,5,0.1,4,0.6,3.46257,1.53831,0.537945,-0.0727594,0.579637,0.0277713,-0.097394,0.334978,0.0371635,0.019777,1.50774,5,0.1,5,0.6,1.83333,-3.40578,0.518345,-0.0901818,0.7837,-0.0127509,-0.125825,0.971794,-0.0178218,0.0238212,2.32867,5,0.1,6,0.6,-0.926559,-2.0747,0.647262,0.233659,0.770324,-0.0176221,0.326216,1.05476,-0.0246167,0.0457089,2.29739,5,0.1,7,0.6,2.12342,0.325119,0.545225,-0.413305,0.458708,0.0245139,-0.55337,0.614136,0.0328422,0.00959318,1.01735,5,0.1,8,0.6,-0.915405,-0.695643,0.648952,0.275438,0.5799,-0.0219077,0.368804,0.77635,-0.0293255,0.0430765,1.0994,5,0.1,9,0.6,1.51248,1.16389,0.684692,-0.542668,0.0833064,0.0292286,-0.726581,0.11158,0.0391603,0.00930966,0.188284,5,0.1,10,0.6,3.95072,3.8833,0.555708,-0.626928,-0.462449,0.0198215,-0.839233,-0.619054,0.0265539,0.0142353,1.61814,5,0.1,11,0.6,0.965842,-3.66122,0.608697,-0.522488,0.186539,-0.0128657,-0.436932,0.397921,-0.0707507,0.0186269,1.01732,5,0.1,12,0.6,3.95136,3.01085,0.555376,-0.780886,0.0875294,0.00818372,-0.991702,0.220299,0.0112057,0.0171437,2.37857,5,0.1,13,0.6,-3.11693,3.11027,0.68551,0.482488,-0.229543,0.0468165,0.245929,-0.09799,0.127763,0.017476,1.36328,5,0.1,14,0.6,3.76335,-0.0287343,0.692468,0.149626,-0.779696,-0.00506788,0.208735,-0.99661,-0.00709295,0.00894073,2.31817,5,0.1,15,0.6,-4.07806,0.602708,0.595079,0.482571,-0.40403,0.00219792,0.645876,-0.540912,0.00295043,0.0135212,1.05524,5,0.1,16,0.6,-0.392196,-0.51777,0.597331,0.0412628,0.298871,0.00119507,0.0552237,0.400141,0.00160933,0.0269073,0.242545,5,0.1,17,0.6,-2.76555,3.68083,0.586372,0.432146,-0.57326,0.00609308,0.578642,-0.767469,0.00816584,0.0136051,1.41685,5,0.1,18,0.6,-2.69689,-1.26363,0.576992,0.476146,0.410631,0.00630319,0.630736,0.629663,0.0120699,0.00770297,1.17436,5,0.1,19,0.6,2.05016,-2.08879,0.507553,-0.168324,0.77796,-0.0137448,-0.234962,1.00732,-0.0185966,0.0142207,2.31385,5,0.1,20,0.6,-3.42412,-1.16781,0.614986,0.637943,0.393385,-0.00659376,0.507116,0.4915,-0.0131428,0.0174376,2.3443,5,0.1,21,0.6,2.2271,-0.570074,0.57843,0.0371218,-0.255661,0.0460416,0.0495911,-0.34228,0.0616312,0.00929034,0.183471,5,0.1,22,0.6,-3.6428,4.14858,0.580165,0.586373,-0.55635,0.0063166,0.81861,-0.776529,0.00882149,0.0134664,2.21915,5,0.1,23,0.6,1.74464,-1.46571,0.515948,-0.139207,0.780478,-0.0168562,-0.194371,0.991702,-0.0235438,0.0144564,2.32017,5,0.1,24,0.6,2.12761,2.65712,0.50198,0.472128,0.153488,-0.00687838,0.718594,0.205398,0.00935793,0.0128539,0.827835,5,0.1,25,0.6,-1.21325,1.35389,0.539261,0.408742,0.19967,0.0271916,0.54729,0.267386,0.0363886,0.0103938,0.553343,5,0.1,26,0.6,-1.55961,3.03573,0.693337,0.228086,0.453949,0.0253633,0.305414,0.607848,0.0339746,0.0454604,0.68941,5,0.1,27,0.6,-3.13128,-3.62506,0.586311,0.760508,0.273335,0.00394285,1.04928,0.416517,0.00476837,0.0377001,2.27625,5,0.1,28,0.6,0.875459,3.62405,0.574109,-0.190423,-0.682133,0.0115812,-0.254959,-0.913382,0.0154972,0.0104488,1.3367,5,0.1,29,0.6,1.71674,3.87181,0.586279,0.440082,-0.18878,0.00614226,0.589132,-0.252724,0.00825524,0.0103578,0.611081,5,0.1,30,0.6,4.02661,2.21902,0.665422,-0.459492,0.349563,-0.0292808,-0.615478,0.467896,-0.0391901,0.0178304,0.890339,5,0.1,31,0.6,-3.90192,1.05893,0.648976,-0.16486,-0.568861,-0.0261411,-0.273585,-0.346243,-0.023365,0.0108568,1.97036,5,0.1,32,0.6,-0.116364,-4.15183,0.546868,-0.51622,0.395977,0.0475243,-0.691137,0.530481,0.0636578,0.0134766,1.13378,5,0.1,33,0.6,3.73129,-3.19484,0.682257,-0.0406086,0.785524,0.00978112,-0.0566244,0.960469,0.0136495,0.0173015,2.33368,5,0.1,34,0.6,-2.86593,2.75106,0.514947,0.674158,0.445426,-0.0222713,0.941157,0.621796,-0.0311136,0.0153809,2.22392,5,0.1,35,0.6,-2.09601,-3.65768,0.535648,0.199628,0.227237,0.0288039,0.267386,0.304103,0.0385642,0.0239804,0.245947,5,0.1,36,0.6,-1.28115,1.80215,0.500375,0.332403,-0.430754,-0.00130236,0.19896,0.178397,0.00178814,0.0229776,3.17563,5,0.1,37,0.6,1.04427,-0.682441,0.50291,-0.601658,0.171174,-0.00997484,-0.805527,0.22918,0.0130236,0.0167019,1.04507,5,0.1,38,0.6,-4.12478,2.93124,0.678776,0.62263,0.513887,-0.0405014,0.869036,0.717282,-0.056535,0.0122701,2.21916,5,0.1,39,0.6,-2.166,2.91394,0.542521,0.558239,0.506723,0.0251099,0.697374,0.66793,0.0299215,0.0110803,1.60219,5,0.1
0,0.7,-1.83121,3.87786,0.649518,0.0200063,-0.833715,-0.0244939,0.0774413,-0.367969,0.00401959,0.0112385,1.67948,5,0.1,1,0.7,0.568536,-3.81546,0.748038,0.0129641,0.429611,0.321225,-0.047911,0.393435,0.361566,0.0268525,0.608643,5,0.1,2,0.7,-2.7298,-0.940272,0.632584,-0.310031,-0.447641,-0.013282,-0.306845,-0.591584,-0.0196546,0.014323,0.824406,5,0.1,3,0.7,-3.74742,-4.20417,0.52324,0.848246,0.170428,0.0394401,0.400186,0.196934,0.0456087,0.0160772,2.31734,5,0.1,4,0.7,3.45466,1.59673,0.540905,-0.0865553,0.57779,0.0313397,-0.163302,-0.316843,0.0321679,0.019777,1.50774,5,0.1,5,0.7,1.82367,-3.32361,0.51698,-0.102813,0.849744,-0.0145393,-0.118814,0.374496,-0.0168197,0.0238212,2.32867,5,0.1,6,0.7,-0.901578,-1.99343,0.645378,0.265336,0.845106,-0.0200124,0.289049,0.454068,-0.0218078,0.0457089,2.29739,5,0.1,7,0.7,2.07937,0.374008,0.547838,-0.466429,0.517668,0.0276665,-0.478745,0.531349,0.0284128,0.00959318,1.01735,5,0.1,8,0.7,-0.886049,-0.633838,0.646618,0.310843,0.654432,-0.0247234,0.319075,0.671703,-0.025373,0.0430765,1.0994,5,0.1,9,0.7,1.45572,1.17288,0.687847,-0.581756,0.0971531,0.0340882,-0.0833049,0.152148,0.053402,0.00930966,0.188284,5,0.1,10,0.7,3.88391,3.83401,0.55782,-0.707499,-0.521883,0.0223708,-0.726119,-0.535667,0.0229739,0.0142353,1.61814,5,0.1,11,0.7,0.911702,-3.64035,0.606844,-0.556975,0.232134,-0.0259141,-0.237122,0.480413,-0.17412,0.0186269,1.01732,5,0.1,12,0.7,3.86937,3.02019,0.556252,-0.848836,0.094695,0.00933167,-0.390619,-0.054732,0.0109896,0.0171437,2.37857,5,0.1,13,0.7,-3.06744,3.0865,0.6908,0.506528,-0.248204,0.0585807,0.207812,-0.242665,0.103679,0.017476,1.36328,5,0.1,14,0.7,3.77937,-0.110637,0.691925,0.170577,-0.848354,-0.0057796,0.197068,-0.398314,-0.00669062,0.00894073,2.31817,5,0.1,15,0.7,-4.02663,0.559647,0.595314,0.544578,-0.45596,0.00248132,0.558794,-0.467997,0.00255182,0.0135212,1.05524,5,0.1,16,0.7,-0.387798,-0.485916,0.597458,0.0465649,0.337286,0.00134921,0.047788,0.346204,0.00138953,0.0269073,0.242545,5,0.1,17,0.7,-2.71955,3.62035,0.587058,0.485959,-0.62935,0.00791634,0.469744,-0.351325,0.0255443,0.0136051,1.41685,5,0.1,18,0.7,-2.64751,-1.22161,0.577519,0.498977,0.410651,0.00283718,-0.124872,-0.526398,-0.0715926,0.00770297,1.17436,5,0.1,19,0.7,2.03214,-2.007,0.506118,-0.191908,0.847751,-0.0146551,-0.221848,0.408664,-0.000543892,0.0142207,2.31385,5,0.1,20,0.7,-3.35776,-1.12562,0.614258,0.688567,0.453063,-0.00798274,0.462279,0.646219,-0.0137687,0.0174376,2.3443,5,0.1,21,0.7,2.23106,-0.597322,0.583337,0.0418853,-0.288521,0.0519584,0.04296,-0.296142,0.0533275,0.00929034,0.183471,5,0.1,22,0.7,-3.58002,4.08901,0.580842,0.668544,-0.634304,0.00720154,0.772983,-0.733376,0.0083223,0.0134664,2.21915,5,0.1,23,0.7,1.72973,-1.38376,0.514143,-0.158714,0.848624,-0.0192188,-0.183471,0.393681,-0.0222251,0.0144564,2.32017,5,0.1,24,0.7,2.17843,2.67348,0.501346,0.543088,0.173208,-0.00574216,0.659496,0.177696,0.0128895,0.0128539,0.827835,5,0.1,25,0.7,-1.16969,1.37517,0.542159,0.461283,0.225338,0.0306848,0.473499,0.231326,0.0314824,0.0103938,0.553343,5,0.1,26,0.7,-1.5353,3.08411,0.69604,0.257407,0.512304,0.0286245,0.264235,0.525907,0.0293888,0.0454604,0.68941,5,0.1,27,0.7,-3.05089,-3.59561,0.58673,0.838269,0.31538,0.00441652,0.506938,0.398546,0.00438839,0.0377001,2.27625,5,0.1,28,0.7,0.855164,3.55135,0.575344,-0.2149,-0.769819,0.0130695,-0.220582,-0.790223,0.0134148,0.0104488,1.3367,5,0.1,29,0.7,1.76365,3.85169,0.586933,0.496642,-0.213044,0.00693426,0.509739,-0.218675,0.00713021,0.0103578,0.611081,5,0.1,30,0.7,3.97764,2.25628,0.662302,-0.518575,0.394484,-0.0330434,-0.532433,0.40485,-0.0339113,0.0178304,0.890339,5,0.1,31,0.7,-3.92,0.999992,0.646235,-0.19825,-0.611663,-0.0287172,-0.365019,-0.456449,-0.0257678,0.0108568,1.97036,5,0.1,32,0.7,-0.171383,-4.10963,0.551933,-0.582572,0.4469,0.0536352,-0.597967,0.458866,0.0550672,0.0134766,1.13378,5,0.1,33,0.7,3.72694,-3.11254,0.683305,-0.0462923,0.850378,0.0111508,-0.0534505,0.363648,0.0128783,0.0173015,2.33368,5,0.1,34,0.7,-2.79383,2.79856,0.512595,0.766278,0.50243,-0.0244639,0.846535,0.490978,-0.0128411,0.0153809,2.22392,5,0.1,35,0.7,-2.07473,-3.63347,0.538718,0.225295,0.256434,0.032506,0.231311,0.26314,0.0333637,0.0239804,0.245947,5,0.1,36,0.7,-1.24779,1.76032,0.500255,0.3271,-0.402499,-0.00108629,-0.269458,0.375986,0.00244379,0.0229776,3.17563,5,0.1,37,0.7,0.980145,-0.664198,0.501988,-0.678992,0.193176,-0.00837278,-0.696939,0.198279,0.018321,0.0167019,1.04507,5,0.1,38,0.7,-4.05811,2.98627,0.67444,0.70987,0.585891,-0.0461764,0.820756,0.677362,-0.0533871,0.0122701,2.21916,5,0.1,39,0.7,-2.10701,2.96732,0.545129,0.617968,0.554417,0.0265746,0.47338,0.285476,0.000741333,0.0110803,1.60219,5,0.1
0,0.8,-1.82879,3.79367,0.647131,0.0286818,-0.840241,-0.0228435,0.0895262,0.225186,0.0270903,0.00996307,1.51046,5,0.1,1,0.8,0.569529,-3.77087,0.781772,0.00640601,0.458282,0.351031,-0.0776649,0.165701,0.21714,0.00829503,0.618548,5,0.1,2,0.8,-2.76211,-0.987723,0.631165,-0.333744,-0.49797,-0.015001,-0.154614,-0.387132,-0.0138283,0.0105102,0.599762,5,0.1,3,0.8,-3.66137,-4.18625,0.527387,0.866026,0.186646,0.0431955,0,0.118256,0.0273883,0.0114787,2.24388,5,0.1,4,0.8,3.44518,1.65221,0.544178,-0.102764,0.526032,0.0338614,-0.149608,-0.675738,0.0168979,0.0198348,1.36014,5,0.1,5,0.8,1.81286,-3.23751,0.515451,-0.112596,0.866026,-0.0159249,-0.0713468,0,-0.0100732,0.017661,2.29914,5,0.1,6,0.8,-0.873783,-1.90749,0.643281,0.288396,0.866026,-0.0217527,0.159681,0,-0.0120401,0.0362234,2.21174,5,0.1,7,0.8,2.03066,0.428069,0.550727,-0.503963,0.559326,0.0298932,-0.251472,0.279038,0.0149608,0.012139,0.718302,5,0.1,8,0.8,-0.853587,-0.565494,0.644036,0.33586,0.707096,-0.0267133,0.167549,0.35271,-0.0133216,0.0407546,0.776235,5,0.1,9,0.8,1.398,1.18334,0.691515,-0.564733,0.111455,0.0391081,0.397861,0.124216,0.0436008,0.0127478,0.253298,5,0.1,10,0.8,3.81002,3.77951,0.560157,-0.764436,-0.563884,0.0241712,-0.381112,-0.281215,0.0120997,0.0133565,1.14252,5,0.1,11,0.8,0.855252,-3.61483,0.60332,-0.567456,0.27681,-0.0448495,0.036478,0.38898,-0.192285,0.0202205,0.767088,5,0.1,12,0.8,3.7833,3.02908,0.557234,-0.866026,0.0806212,0.0102505,0,-0.208616,0.00685453,0.0161022,2.29209,5,0.1,13,0.8,-3.016,3.06045,0.697111,0.519508,-0.272417,0.0669166,0.0333786,-0.217557,0.0605881,0.0176412,1.07691,5,0.1,14,0.8,3.79731,-0.19669,0.691317,0.186801,-0.866026,-0.00633001,0.118375,7.15256e-06,-0.00405312,0.00786986,2.24524,5,0.1,15,0.8,-3.96976,0.512031,0.595573,0.588387,-0.492653,0.00268221,0.293374,-0.245735,0.0013411,0.0117045,0.745052,5,0.1,16,0.8,-0.382935,-0.450693,0.597599,0.0503115,0.36443,0.00145882,0.0250936,0.181794,0.000715256,0.0300111,0.171251,5,0.1,17,0.8,-2.66897,3.55636,0.587987,0.521451,-0.643408,0.0107154,0.221848,0.0683069,0.0283718,0.0148516,1.25617,5,0.1,18,0.8,-2.59914,-1.18438,0.577373,0.460267,0.323951,-0.00627041,-0.60761,-1.12462,-0.102878,0.00701938,0.382094,5,0.1,19,0.8,2.01196,-1.92097,0.504673,-0.210172,0.866023,-0.014028,-0.133336,5.96046e-05,0.0122786,0.0124957,2.23831,5,0.1,20,0.8,-3.28695,-1.0772,0.613396,0.723135,0.512984,-0.00919849,0.199556,0.511646,-0.00995398,0.0172211,1.89289,5,0.1,21,0.8,2.23543,-0.627452,0.588764,0.0452518,-0.311738,0.0561401,0.0226498,-0.155538,0.0279844,0.0120211,0.129542,5,0.1,22,0.8,-3.50972,4.02231,0.581599,0.732201,-0.694698,0.00788718,0.46432,-0.440598,0.00497699,0.0165493,2.04191,5,0.1,23,0.8,1.71304,-1.29769,0.512122,-0.173819,0.866026,-0.0210479,-0.110149,0,-0.0133514,0.0126875,2.24854,5,0.1,24,0.8,2.23566,2.69157,0.500839,0.59709,0.187141,-0.0043869,0.392437,0.0932217,0.0138581,0.0108743,0.621751,5,0.1,25,0.8,-1.12151,1.3987,0.545364,0.498408,0.243476,0.0331521,0.248611,0.121415,0.0165403,0.0111471,0.390687,5,0.1,26,0.8,-1.50842,3.13761,0.699029,0.278124,0.553536,0.0309274,0.1387,0.276208,0.0154674,0.037453,0.587593,5,0.1,27,0.8,-2.96537,-3.56228,0.58719,0.864255,0.348663,0.00476688,0.0352859,0.249267,0.00244379,0.0351874,2.17981,5,0.1,28,0.8,0.832721,3.47096,0.576709,-0.232194,-0.831771,0.0141218,-0.115842,-0.414968,0.00706315,0.0122911,0.948747,5,0.1,29,0.8,1.81551,3.82944,0.587658,0.536606,-0.230187,0.00749379,0.267625,-0.114918,0.00372529,0.0114362,0.431462,5,0.1,30,0.8,3.92348,2.29747,0.658851,-0.560313,0.426221,-0.0357032,-0.279665,0.212669,-0.0177622,0.0135411,0.628612,5,0.1,31,0.8,-3.9416,0.936721,0.643247,-0.23281,-0.650996,-0.0308871,-0.304937,-0.292033,-0.0159442,0.0104483,1.55045,5,0.1,32,0.8,-0.232221,-4.06295,0.557534,-0.629454,0.482869,0.0579536,-0.313997,0.241041,0.0289083,0.0104154,0.80049,5,0.1,33,0.8,3.72207,-3.02642,0.684477,-0.0506938,0.86602,0.0122115,-0.0320673,0.000119209,0.0077486,0.0191535,2.26982,5,0.1,34,0.8,-2.71349,2.85086,0.510114,0.834394,0.539094,-0.024873,0.479937,0.224352,0.00441074,0.0143937,2.09395,5,0.1,35,0.8,-2.0512,-3.60669,0.542112,0.243431,0.277066,0.035122,0.121355,0.138044,0.0175238,0.0270116,0.17365,5,0.1,36,0.8,-1.21695,1.7222,0.500159,0.285023,-0.35761,-0.000829995,-0.542581,0.511885,0.0026226,0.00846834,0.695791,5,0.1,37,0.8,0.909236,-0.644024,0.501247,-0.733633,0.208722,-0.00643432,-0.365973,0.1041,0.019908,0.00944109,0.738612,5,0.1,38,0.8,-3.98347,3.04787,0.669584,0.777465,0.641674,-0.0505731,0.49293,0.406742,-0.0320673,0.0145028,1.97071,5,0.1,39,0.8,-2.04337,3.02355,0.547752,0.649089,0.564104,0.0255197,0.134587,-0.0882149,-0.0206232,0.0110265,1.258,5,0.1
0,0.9,-1.82598,3.7118,0.645108,0.023159,-0.787814,-0.0165721,-0.171915,0.785083,0.0905097,0.00996307,1.51046,5,0.1,1,0.9,0.569117,-3.72559,0.817577,-0.0201639,0.435102,0.36133,-0.409395,-0.565305,-0.00764802,0.00829503,0.618548,5,0.1,2,0.9,-2.79622,-1.03945,0.629596,-0.347537,-0.535566,-0.016368,-0.105858,-0.333771,-0.0124723,0.0105102,0.599762,5,0.1,3,0.9,-3.57477,-4.16697,0.531849,0.866026,0.198855,0.0460229,0,0.113368,0.0262521,0.0114787,2.24388,5,0.1,4,0.9,3.43411,1.70088,0.547644,-0.118861,0.443489,0.0353929,-0.160635,-0.901461,0.0121072,0.0198348,1.36014,5,0.1,5,0.9,1.80067,-3.1509,0.513796,-0.135992,0.866026,-0.0172545,-0.353388,0,-0.014808,0.017661,2.29914,5,0.1,6,0.9,-0.844125,-1.82089,0.641044,0.304505,0.866026,-0.0229674,0.144869,0,-0.0109263,0.0362234,2.21174,5,0.1,7,0.9,1.97906,0.485333,0.553788,-0.526749,0.584611,0.0312483,-0.180118,0.199871,0.0107139,0.012139,0.718302,5,0.1,8,0.9,-0.819202,-0.493102,0.641301,0.351043,0.739057,-0.0279206,0.12001,0.252647,-0.00954792,0.0407546,0.776235,5,0.1,9,0.9,1.34424,1.19502,0.695615,-0.504122,0.121376,0.0425909,0.779003,0.0710562,0.0249445,0.0127478,0.253298,5,0.1,10,0.9,3.73176,3.72178,0.562631,-0.798973,-0.58937,0.0252672,-0.273049,-0.201479,0.00866503,0.0133565,1.14252,5,0.1,11,0.9,0.798453,-3.58534,0.597886,-0.569967,0.311049,-0.0635042,-0.0513978,0.28038,-0.172634,0.0202205,0.767088,5,0.1,12,0.9,3.69669,3.03662,0.558294,-0.866026,0.0746809,0.0109319,0,0.0599623,0.00613183,0.0161022,2.29209,5,0.1,13,0.9,-2.9634,3.03199,0.704018,0.535921,-0.297409,0.0703767,0.2428,-0.256598,0.00961125,0.0176412,1.07691,5,0.1,14,0.9,3.8166,-0.283293,0.690663,0.199006,-0.866025,-0.00674706,0.113204,1.78814e-06,-0.0038594,0.00786986,2.24524,5,0.1,15,0.9,-3.90952,0.461593,0.595847,0.614971,-0.51492,0.00280403,0.210121,-0.176024,0.000961125,0.0117045,0.745052,5,0.1,16,0.9,-0.377785,-0.413383,0.597748,0.0525856,0.380904,0.00152374,0.0179801,0.130225,0.000517815,0.0300111,0.171251,5,0.1,17,0.9,-2.61652,3.49327,0.589334,0.52005,-0.610185,0.0173079,-0.226602,0.562474,0.0937656,0.0148516,1.25617,5,0.1,18,0.9,-2.55595,-1.15802,0.576134,0.405202,0.200343,-0.0192461,-0.506297,-1.29985,-0.147011,0.00701938,0.382094,5,0.1,19,0.9,1.99025,-1.83437,0.503348,-0.22394,0.866026,-0.0123093,-0.127874,7.45058e-06,0.0211895,0.0124957,2.23831,5,0.1,20,0.9,-3.21314,-1.0235,0.612433,0.756354,0.558676,-0.00998322,0.398383,0.376221,-0.00549853,0.0172211,1.89289,5,0.1,21,0.9,2.24006,-0.659368,0.594511,0.0473049,-0.325832,0.058676,0.0162274,-0.111409,0.0200458,0.0120211,0.129542,5,0.1,22,0.9,-3.43408,3.95055,0.582414,0.780307,-0.740347,0.00840314,0.448182,-0.425324,0.00480562,0.0165493,2.04191,5,0.1,23,0.9,1.69509,-1.21109,0.509975,-0.185187,0.866026,-0.021658,-0.105552,0,0.000853091,0.0126875,2.24854,5,0.1,24,0.9,2.29679,2.71072,0.500468,0.6202,0.195589,-0.00303891,0.0677705,0.0667721,0.0128374,0.0108743,0.621751,5,0.1,25,0.9,-1.07049,1.42363,0.548758,0.520936,0.254478,0.0346506,0.178084,0.0869632,0.0118464,0.0111471,0.390687,5,0.1,26,0.9,-1.47979,3.19429,0.702196,0.295138,0.578564,0.0323283,0.178374,0.197813,0.0110678,0.037453,0.587593,5,0.1,27,0.9,-2.87883,-3.52612,0.58768,0.865914,0.374352,0.00502104,0.00445545,0.240058,0.00233576,0.0351874,2.17981,5,0.1,28,0.9,0.808949,3.38616,0.578154,-0.242691,-0.859615,0.014762,-0.0829771,-0.141054,0.00506639,0.0122911,0.948747,5,0.1,29,0.9,1.87045,3.80588,0.588425,0.560858,-0.2406,0.0078314,0.191711,-0.0823289,0.00266358,0.0114362,0.431462,5,0.1,30,0.9,3.86612,2.34111,0.655196,-0.585651,0.44549,-0.0373133,-0.200272,0.15232,-0.0127256,0.0135411,0.628612,5,0.1,31,0.9,-3.96629,0.869658,0.640066,-0.259491,-0.693575,-0.0327781,-0.217527,-0.492919,-0.0193939,0.0104483,1.55045,5,0.1,32,0.9,-0.296665,-4.01352,0.563467,-0.657907,0.504706,0.0605728,-0.224916,0.172615,0.0207052,0.0104154,0.80049,5,0.1,33,0.9,3.71683,-2.93982,0.685739,-0.0540089,0.866025,0.013012,-0.0308305,1.49012e-05,0.0074394,0.0191535,2.26982,5,0.1,34,0.9,-2.62836,2.90591,0.507683,0.86214,0.561402,-0.0234355,0.117257,0.193328,0.023175,0.0143937,2.09395,5,0.1,35,0.9,-2.02628,-3.57832,0.545708,0.254428,0.289577,0.0367098,0.0869185,0.0989139,0.0125505,0.0270116,0.17365,5,0.1,36,0.9,-1.19153,1.69015,0.500089,0.220604,-0.273964,-0.000574905,-0.717573,1.087,0.00243261,0.00846834,0.695791,5,0.1,37,0.9,0.834127,-0.622655,0.500702,-0.766796,0.218155,-0.00448944,-0.262149,0.0745617,0.0185929,0.00944109,0.738612,5,0.1,38,0.9,-3.90357,3.11387,0.664374,0.816791,0.675503,-0.0534824,0.267014,0.244841,-0.0236072,0.0145028,1.97071,5,0.1,39,0.9,-1.97799,3.07899,0.550113,0.656056,0.539641,0.0209771,-0.0125691,-0.387251,-0.0651255,0.0110265,1.258,5,0.1
0,1,-1.82476,3.6376,0.643955,-0.000676513,-0.690341,-0.00613481,-0.282705,1.13142,0.112057,0.00851241,3.00405,5,0.1,1,1,0.564807,-3.68568,0.853327,-0.0676125,0.356835,0.350329,-0.505358,-0.947833,-0.207573,0.00829271,0.302191,5,0.1,2,1,-2.83132,-1.09438,0.627906,-0.352365,-0.559518,-0.0173196,0.0191927,-0.124276,-0.00584126,0.00954554,1.85339,5,0.1,3,1,-3.48816,-4.14661,0.536561,0.866026,0.20721,0.0479564,0,0.0445843,0.010401,0.0115897,2.24106,5,0.1,4,1,3.42148,1.74081,0.551226,-0.132895,0.357187,0.0360131,-0.111699,-0.78392,-0.000745058,0.0172181,1.23634,5,0.1,5,1,1.78513,-3.0643,0.512,-0.175661,0.866026,-0.0185907,-0.40704,0,-0.0106692,0.0196044,2.26511,5,0.1,6,1,-0.813093,-1.73429,0.638704,0.314398,0.866026,-0.0237137,0.0408888,-5.96046e-05,-0.00306964,0.0393272,2.0803,5,0.1,7,1,1.92577,0.544484,0.55695,-0.535974,0.59485,0.0317976,0.0115037,-0.0128746,-0.000685453,0.00968322,0.488467,5,0.1,8,1,-0.783683,-0.418325,0.638476,0.35719,0.751998,-0.0284091,-0.0077188,-0.0162423,0.000596046,0.0378561,0.52787,5,0.1,9,1,1.29811,1.20741,0.699961,-0.415382,0.125185,0.0439286,0.966728,0.00333786,0.00116229,0.00821391,0.228812,5,0.1,10,1,3.65092,3.66215,0.565188,-0.812954,-0.599688,0.0257105,0.0175238,0.0128746,-0.000506639,0.0146848,0.82891,5,0.1,11,1,0.741292,-3.55312,0.590759,-0.571664,0.330395,-0.078027,0.0427961,0.0971556,-0.112534,0.0186449,0.570347,5,0.1,12,1,3.61009,3.04463,0.559412,-0.866026,0.0873029,0.0113681,0,0.169039,0.00214577,0.0177174,2.42686,5,0.1,13,1,-2.9086,3.00107,0.711027,0.55905,-0.319332,0.0690594,0.181794,-0.163674,-0.0347495,0.0169502,0.813334,5,0.1,14,1,3.83698,-0.369895,0.689973,0.207329,-0.866025,-0.00703186,0.0444651,-1.43051e-05,-0.00149012,0.00949076,2.24269,5,0.1,15,1,-3.8473,0.409494,0.596131,0.62573,-0.523936,0.00285357,-0.0135899,0.0113249,-5.96046e-05,0.0122369,0.506664,5,0.1,16,1,-0.372464,-0.374843,0.597903,0.0535071,0.387574,0.00154972,-0.00116229,-0.00835955,-5.96046e-05,0.0268642,0.1277,5,0.1,17,1,-2.56623,3.43565,0.591576,0.480545,-0.537175,0.0277534,-0.54276,0.868917,0.107706,0.0139429,1.04529,5,0.1,18,1,-2.51788,-1.14445,0.573466,0.356835,0.0723481,-0.0339866,-0.470281,-1.2241,-0.140637,0.0169349,1.5114,5,0.1,19,1,1.96732,-1.74776,0.502232,-0.233358,0.866026,-0.00995398,-0.0507236,0,0.025183,0.0119757,2.23503,5,0.1,20,1,-3.13564,-0.966152,0.611416,0.791365,0.58395,-0.0102624,0.253916,0.112414,5.96046e-05,0.00860316,1.37947,5,0.1,21,1,2.24485,-0.692336,0.600448,0.0481367,-0.331539,0.059703,-0.000834465,0.00715256,-0.0012815,0.0134111,0.149176,5,0.1,22,1,-3.35417,3.87472,0.583274,0.813448,-0.771803,0.0087589,0.180483,-0.171304,0.00190735,0.0127343,1.95495,5,0.1,23,1,1.67613,-1.12449,0.507835,-0.192952,0.866026,-0.0209406,-0.0417829,-5.96046e-05,0.0131428,0.0177927,2.24645,5,0.1,24,1,2.35861,2.73051,0.500225,0.610638,0.199008,-0.00186265,-0.256896,-0.00441074,0.0104904,0.0100669,0.564208,5,0.1,25,1,-1.01778,1.44937,0.552264,0.530057,0.258932,0.0352576,-0.0114739,-0.00560284,-0.00077486,0.00979691,0.265682,5,0.1,26,1,-1.44948,3.25282,0.705467,0.309828,0.588703,0.0328958,0.0990033,-0.0128746,-0.000715256,0.0391499,0.411084,5,0.1,27,1,-2.79223,-3.48767,0.588191,0.866026,0.392538,0.00518411,0,0.106931,0.000655651,0.0352589,2.17962,5,0.1,28,1,0.784394,3.29992,0.579648,-0.246942,-0.861186,0.0150219,0.00536442,0.0970364,-0.000298023,0.0175831,0.656574,5,0.1,29,1,1.9272,3.78153,0.589217,0.570676,-0.244814,0.00796765,-0.0123382,0.005126,-0.000178814,0.0106331,0.293414,5,0.1,30,1,3.80686,2.38619,0.65142,-0.595909,0.453299,-0.0379652,0.0128746,-0.0100136,0.000834465,0.014566,0.42746,5,0.1,31,1,-3.99311,0.797953,0.636702,-0.274497,-0.73809,-0.0343442,-0.0754595,-0.349164,-0.0101626,0.010216,1.16148,5,0.1,32,1,-0.363232,-3.96245,0.569596,-0.669427,0.513548,0.0616327,0.0144541,-0.0112057,-0.0013113,0.00943512,0.544347,5,0.1,33,1,3.7113,-2.85321,0.687071,-0.0562847,0.866026,0.0135586,-0.0121593,0,0.00298023,0.0195155,2.2696,5,0.1,34,1,-2.54186,2.96277,0.505478,0.866026,0.57295,-0.0204593,0,0.0181198,0.0352561,0.0150859,2.12952,5,0.1,35,1,-2.00054,-3.54902,0.549422,0.258878,0.294644,0.0373527,-0.00566244,-0.0064373,-0.000804663,0.0258157,0.118092,5,0.1,36,1,-1.17315,1.66863,0.500043,0.146526,-0.153401,-0.000351667,-0.741959,1.26624,0.00196695,0.0255731,3.71127,5,0.1,37,1,0.756543,-0.600582,0.500341,-0.780223,0.221974,-0.00278056,0.0168681,-0.00479817,0.015378,0.0109487,0.503085,5,0.1,38,1,-3.8211,3.18221,0.658939,0.826603,0.68658,-0.0548795,-0.0869036,-0.0391006,-0.00265241,0.0120192,1.44293,5,0.1,39,1,-1.9128,3.13062,0.551847,0.643817,0.489336,0.0134066,-0.242531,-0.605822,-0.0821948,0.0107439,0.977254,5,0.1
0,1.1,-1.82666,3.57402,0.644034,-0.040371,-0.583589,0.00872826,-0.46818,1.00076,0.172403,0.00851241,3.00405,5,0.1,1,1.1,0.555569,-3.65501,0.887542,-0.116247,0.254665,0.335604,-0.452269,-1.06344,-0.108626,0.00829271,0.302191,5,0.1,2,1.1,-2.86705,-1.15152,0.626222,-0.36678,-0.587426,-0.0156878,-0.256941,-0.371873,0.0344776,0.00954554,1.85339,5,0.1,3,1.1,-3.40156,-4.12562,0.541419,0.866026,0.212611,0.0492135,0,0.0511408,0.0118986,0.0115897,2.24106,5,0.1,4,1.1,3.40763,1.77288,0.554822,-0.144022,0.288935,0.0358582,-0.10173,-0.508741,-0.00367314,0.0172181,1.23634,5,0.1,5,1.1,1.76586,-2.9777,0.510097,-0.206571,0.866026,-0.0193757,-0.212394,0,-0.00452623,0.0196044,2.26511,5,0.1,6,1.1,-0.781406,-1.64768,0.636314,0.319353,0.866025,-0.0240864,0.041686,1.49012e-05,-0.00314415,0.0393272,2.0803,5,0.1,7,1.1,1.87225,0.603879,0.560125,-0.533629,0.59224,0.0316581,0.0549927,-0.0610873,-0.0032708,0.00968322,0.488467,5,0.1,8,1.1,-0.748018,-0.343238,0.635639,0.355623,0.748701,-0.028286,-0.0366755,-0.0772029,0.002902,0.0378561,0.52787,5,0.1,9,1.1,1.26151,1.2199,0.704346,-0.316076,0.124312,0.0436218,0.996962,-0.0234917,-0.00825152,0.00821391,0.228812,5,0.1,10,1.1,3.57001,3.6029,0.567762,-0.802064,-0.579152,0.0257839,0.213668,0.379965,0.000633299,0.0146848,0.82891,5,0.1,11,1.1,0.684063,-3.51989,0.5826,-0.574684,0.331379,-0.0832493,-0.0642203,-0.0751615,0.00159815,0.0186449,0.570347,5,0.1,12,1.1,3.52421,3.05446,0.560562,-0.844808,0.111086,0.011625,0.403225,0.282183,0.00234693,0.0177174,2.42686,5,0.1,13,1.1,-2.85158,2.96828,0.717724,0.582242,-0.336325,0.0645285,0.241444,-0.15603,-0.0553168,0.0169502,0.813334,5,0.1,14,1.1,3.85797,-0.456498,0.689261,0.212656,-0.866026,-0.00721077,0.0499189,1.93715e-06,-0.00168011,0.00949076,2.24269,5,0.1,15,1.1,-3.78482,0.357179,0.596416,0.62298,-0.521639,0.00284137,-0.0642836,0.0537951,-0.000286847,0.0122369,0.506664,5,0.1,16,1.1,-0.367121,-0.336515,0.598057,0.0532723,0.375415,0.00154078,-0.00549294,-0.2231,-0.000171363,0.0268642,0.1277,5,0.1,17,1.1,-2.52141,3.38604,0.594914,0.411758,-0.457343,0.0390776,-0.796348,0.733197,0.111941,0.0139429,1.04529,5,0.1,18,1.1,-2.48383,-1.14151,0.569545,0.330344,0.00259075,-0.0427892,-0.105083,-0.251658,-0.0411421,0.0169349,1.5114,5,0.1,19,1.1,1.94368,-1.66116,0.501364,-0.239496,0.866026,-0.00740662,-0.0581816,0,0.0252053,0.0119757,2.23503,5,0.1,20,1.1,-3.05777,-0.908017,0.610363,0.743742,0.571162,-0.0110155,-1.08498,-0.342973,-0.0129864,0.00860316,1.37947,5,0.1,21,1.1,2.24969,-0.725672,0.606451,0.0489011,-0.336685,0.0606305,0.0121891,-0.0830479,0.0149645,0.0134111,0.149176,5,0.1,22,1.1,-3.27183,3.79655,0.58416,0.833148,-0.791904,0.00896454,0.169694,-0.185996,0.00174344,0.0127343,1.95495,5,0.1,23,1.1,1.65659,-1.03789,0.505831,-0.197994,0.866025,-0.0189155,-0.047639,1.11759e-05,0.0262409,0.0177927,2.24645,5,0.1,24,1.1,2.41761,2.75038,0.500086,0.5624,0.198127,-0.000964943,-0.675261,-0.0204891,0.0074394,0.0100669,0.564208,5,0.1,25,1.1,-0.964852,1.47523,0.555784,0.527731,0.257795,0.035102,-0.0544377,-0.0265911,-0.00363216,0.00979691,0.265682,5,0.1,26,1.1,-1.41795,3.31161,0.708751,0.32062,0.586109,0.0327509,0.0985935,-0.0605285,-0.00339001,0.0391499,0.411084,5,0.1,27,1.1,-2.70563,-3.44791,0.588714,0.866026,0.401989,0.00528153,0,0.064835,0.000983477,0.0352589,2.17962,5,0.1,28,1.1,0.759737,3.21423,0.581148,-0.245857,-0.852251,0.0149584,0.0253692,0.116616,-0.00152364,0.0175831,0.656574,5,0.1,29,1.1,1.98418,3.75709,0.590013,0.568174,-0.243754,0.00793198,-0.058569,0.025019,-0.000823289,0.0106331,0.293414,5,0.1,30,1.1,3.74736,2.43145,0.64763,-0.593294,0.451294,-0.0377977,0.0612289,-0.0466704,0.0039041,0.014566,0.42746,5,0.1,31,1.1,-4.02087,0.72221,0.633213,-0.279848,-0.777314,-0.0354392,-0.0223666,-0.383321,-0.00979006,0.010216,1.16148,5,0.1,32,1.1,-0.430074,-3.91117,0.57575,-0.666493,0.511284,0.0613639,0.0687261,-0.0528395,-0.00631809,0.00943512,0.544347,5,0.1,33,1.1,3.7056,-2.76661,0.688444,-0.0577733,0.866026,0.013921,-0.0142455,0,0.00345707,0.0195155,2.2696,5,0.1,34,1.1,-2.45575,3.01974,0.503623,0.851081,0.562216,-0.0165096,-0.302255,-0.229672,0.0424236,0.0150859,2.12952,5,0.1,35,1.1,-1.97469,-3.5196,0.553152,0.257736,0.293347,0.0371891,-0.0266284,-0.0302792,-0.00383332,0.0258157,0.118092,5,0.1,36,1.1,-1.16163,1.6574,0.500016,0.0892777,-0.0907172,-0.000182912,-0.42294,0.0952184,0.00140071,0.0255731,3.71127,5,0.1,37,1.1,0.678638,-0.578418,0.500133,-0.776802,0.221,-0.00145705,0.0801086,-0.0227951,0.0110306,0.0109487,0.503085,5,0.1,38,1.1,-3.73888,3.25083,0.653435,0.816897,0.686523,-0.0551553,-0.137046,0.00165403,-0.000439584,0.0120192,1.44293,5,0.1,39,1.1,-1.84977,3.17694,0.552815,0.615275,0.440479,0.00634165,-0.33813,-0.398532,-0.059586,0.0107439,0.977254,5,0.1
0,1.2,-1.83306,3.52043,0.645783,-0.08699,-0.490457,0.0261337,-0.433981,0.862241,0.166357,0.0129216,0.706747,5,0.1,1,1.2,0.541872,-3.63483,0.920577,-0.155534,0.149804,0.32486,-0.323176,-1.00946,-0.121981,0.0197424,0.920197,5,0.1,2,1.2,-2.90512,-1.21211,0.624865,-0.394917,-0.62314,-0.0111476,-0.267982,-0.29695,0.0531971,0.0119656,1.42722,5,0.1,3,1.2,-3.31496,-4.10418,0.546383,0.866026,0.215364,0.0498548,0,-0.00452995,-0.00107288,0.0115866,2.24062,5,0.1,4,1.2,3.39279,1.8,0.558375,-0.1517,0.261027,0.0350595,-0.0457764,-0.0659823,-0.0131428,0.0197496,1.04903,5,0.1,5,1.2,1.74445,-2.8911,0.50815,-0.218526,0.866026,-0.0194162,-0.0293255,0,0.00393391,0.021913,2.26095,5,0.1,6,1.2,-0.749371,-1.56108,0.633898,0.319947,0.866026,-0.0241309,-0.0411272,0,0.00312924,0.0375595,1.61994,5,0.1,7,1.2,1.81937,0.662573,0.563262,-0.521725,0.579026,0.0309512,0.19604,-0.217557,-0.0116229,0.00878978,0.324801,5,0.1,8,1.2,-0.712774,-0.269038,0.632836,0.347689,0.731997,-0.0276551,-0.130624,-0.274972,0.0103414,0.0379418,0.707118,5,0.1,9,1.2,1.23478,1.23215,0.708645,-0.219864,0.120059,0.0421286,0.910878,-0.0630617,-0.0221133,0.0109517,0.43001,5,0.1,10,1.2,3.49128,3.54736,0.570336,-0.768191,-0.527138,0.0256091,0.4704,0.643969,-0.00506639,0.0141589,0.711802,5,0.1,11,1.2,0.626359,-3.48739,0.574427,-0.577821,0.315946,-0.078918,0.0292957,-0.230074,0.0793636,0.0189332,0.408284,5,0.1,12,1.2,3.44227,3.067,0.561732,-0.789201,0.139475,0.0117287,0.691891,0.267386,-0.000685453,0.0162648,2.69223,5,0.1,13,1.2,-2.79232,2.93402,0.72387,0.60041,-0.347137,0.058116,0.0932217,-0.0462532,-0.0722408,0.0172452,0.58979,5,0.1,14,1.2,3.87941,-0.5431,0.688533,0.215256,-0.866026,-0.00729859,-0.00619888,0,0.000238419,0.0096015,2.09668,5,0.1,15,1.2,-3.72308,0.305482,0.596698,0.60907,-0.51,0.00277907,-0.228643,0.191585,-0.00107288,0.0118243,0.336904,5,0.1,16,1.2,-0.361842,-0.300363,0.59821,0.052084,0.345126,0.00150502,-0.0195652,-0.372708,-0.000566244,0.0276051,0.219098,5,0.1,17,1.2,-2.48438,3.34378,0.599343,0.327653,-0.389457,0.0489935,-0.858426,0.629902,0.0816882,0.0160344,1.12278,5,0.1,18,1.2,-2.45102,-1.14145,0.565185,0.327772,0.00744462,-0.0432804,0.0188351,0.283599,0.0264645,0.0128945,1.19064,5,0.1,19,1.2,1.91952,-1.57456,0.500746,-0.242648,0.866026,-0.00500679,0.00482798,-5.96046e-05,0.0223815,0.0145643,2.23456,5,0.1,20,1.2,-2.9902,-0.853193,0.609189,0.596339,0.520119,-0.0124857,-1.76489,-0.655413,-0.0148118,0.0136998,1.50883,5,0.1,21,1.2,2.25464,-0.759723,0.612583,0.049907,-0.343493,0.0618577,0.00476837,-0.0336468,0.00604987,0.0108629,0.088862,5,0.1,22,1.2,-3.18798,3.71671,0.585062,0.83999,-0.801432,0.00902861,-0.0627041,0.026226,-0.000745058,0.0149464,1.78101,5,0.1,23,1.2,1.63662,-0.951284,0.504085,-0.200549,0.866026,-0.015898,0.00452995,0,0.0331998,0.0120907,2.24636,5,0.1,24,1.2,2.47,2.77002,0.500022,0.481594,0.193703,-0.000372529,-0.913262,-0.0728369,0.00441074,0.0135204,0.342829,5,0.1,25,1.2,-0.912551,1.50078,0.559263,0.515956,0.252041,0.0343174,-0.193834,-0.0946522,-0.0129044,0.00910103,0.176665,5,0.1,26,1.2,-1.38552,3.36969,0.711997,0.326458,0.573021,0.0320181,0.00566244,-0.215292,-0.0120103,0.0352051,0.279803,5,0.1,27,1.2,-2.61903,-3.40757,0.589246,0.866026,0.402635,0.00532717,0,-0.0634193,-0.000298023,0.0372315,2.24005,5,0.1,28,1.2,0.735371,3.12985,0.582631,-0.240369,-0.832009,0.0146255,0.0902712,0.311613,-0.00545382,0.0150416,0.446245,5,0.1,29,1.2,2.04049,3.73293,0.590799,0.555497,-0.238323,0.00775456,-0.208735,0.089407,-0.00292063,0.00920675,0.195106,5,0.1,30,1.2,3.68856,2.47617,0.643884,-0.580055,0.441211,-0.0369549,0.218034,-0.165701,0.0138879,0.0152858,0.284234,5,0.1,31,1.2,-4.04882,0.642855,0.629634,-0.277495,-0.805919,-0.0359714,0.0755787,-0.152409,0.000476837,0.0104125,0.834891,5,0.1,32,1.2,-0.496127,-3.8605,0.581832,-0.651623,0.499868,0.0599951,0.244751,-0.187993,-0.0225306,0.00852973,0.361957,5,0.1,33,1.2,3.69977,-2.68001,0.689849,-0.0585616,0.866026,0.0141129,0.000715256,0,-0.000178814,0.0202658,2.26955,5,0.1,34,1.2,-2.37267,3.07443,0.502187,0.805366,0.527823,-0.0122055,-0.610948,-0.453234,0.0426471,0.00993655,0.836301,5,0.1,35,1.2,-1.94915,-3.49053,0.556838,0.251982,0.2868,0.0363588,-0.0946522,-0.107646,-0.0136495,0.0250394,0.152574,5,0.1,36,1.2,-1.15442,1.6476,0.500004,0.0582933,-0.114989,-7.15256e-05,-0.213265,-0.494599,0.000834465,0.0215221,3.2128,5,0.1,37,1.2,0.601653,-0.556516,0.500035,-0.759469,0.216068,-0.000575185,0.285268,-0.0811517,0.00664592,0.0114081,0.335361,5,0.1,38,1.2,-3.65816,3.31931,0.647937,0.794238,0.680763,-0.0545606,-0.336051,-0.142336,0.0139475,0.0105347,1.04882,5,0.1,39,1.2,-1.79015,3.21916,0.553186,0.574672,0.404882,0.00139177,-0.479281,-0.333786,-0.0399351,0.0119586,0.77592,5,0.1
0,1.3,-1.84355,3.47681,0.649317,-0.119105,-0.372848,0.0451396,-0.215746,1.41259,0.201929,0.0129216,0.706747,5,0.1,1,1.3,0.525228,-3.62341,0.952512,-0.172531,0.0918195,0.314097,-0.0338294,-0.219524,-0.106256,0.0197424,0.920197,5,0.1,2,1.3,-2.94619,-1.27614,0.624044,-0.427874,-0.658396,-0.00505364,-0.352174,-0.359938,0.0657178,0.0119656,1.42722,5,0.1,3,1.3,-3.22836,-4.0826,0.551376,0.866026,0.216343,0.0500791,0,0.0119805,0.00275671,0.0115866,2.24062,5,0.1,4,1.3,3.37746,1.82669,0.561817,-0.15435,0.280229,0.0337595,-0.00363588,0.383809,-0.01394,0.0197496,1.04903,5,0.1,5,1.3,1.72186,-2.80449,0.506254,-0.237954,0.866026,-0.0182549,-0.31241,0,0.0182725,0.021913,2.26095,5,0.1,6,1.3,-0.717554,-1.47448,0.631498,0.316335,0.865915,-0.0238567,-0.0444129,-0.00441819,0.00336394,0.0375595,1.61994,5,0.1,7,1.3,1.76815,0.719412,0.566301,-0.502346,0.557521,0.0298019,0.207767,-0.230551,-0.0123195,0.00878978,0.324801,5,0.1,8,1.3,-0.678644,-0.19687,0.630121,0.334776,0.713705,-0.0266321,-0.138436,-0.133375,0.0109822,0.0379418,0.707118,5,0.1,9,1.3,1.2171,1.24389,0.712763,-0.136523,0.114929,0.0403301,0.745527,-0.0452176,-0.0158586,0.0109517,0.43001,5,0.1,10,1.3,3.4176,3.49819,0.572881,-0.698517,-0.453538,0.0253413,0.884354,0.809088,-0.00173599,0.0141589,0.711802,5,0.1,11,1.3,0.568586,-3.45705,0.567017,-0.578231,0.289904,-0.0685488,-0.00663474,-0.289947,0.123393,0.0189332,0.408284,5,0.1,12,1.3,3.36763,3.08221,0.562902,-0.6979,0.163876,0.0116533,1.04211,0.211313,-0.0012815,0.0162648,2.69223,5,0.1,13,1.3,-2.73173,2.89906,0.729315,0.611429,-0.351732,0.050729,0.0950545,-0.029549,-0.0752658,0.0172452,0.58979,5,0.1,14,1.3,3.90095,-0.629703,0.687803,0.215677,-0.866026,-0.00731032,0.00342727,3.72529e-06,-9.68575e-05,0.0096015,2.09668,5,0.1,15,1.3,-3.66329,0.255419,0.59697,0.586463,-0.491061,0.00267373,-0.242397,0.203044,-0.00112131,0.0118243,0.336904,5,0.1,16,1.3,-0.356729,-0.268044,0.598358,0.05015,0.298851,0.00144923,-0.0207312,-0.517907,-0.000599772,0.0276051,0.219098,5,0.1,17,1.3,-2.45531,3.3071,0.604554,0.259225,-0.351906,0.0542898,-0.528678,0.170469,0.0250861,0.0160344,1.12278,5,0.1,18,1.3,-2.41781,-1.13847,0.56107,0.338954,0.0587778,-0.0383172,0.169694,0.68257,0.0686273,0.0128945,1.19064,5,0.1,19,1.3,1.89522,-1.48795,0.500349,-0.243794,0.866025,-0.00299979,-0.0140592,1.49012e-05,0.0175983,0.0145643,2.23456,5,0.1,20,1.3,-2.93758,-0.804012,0.607886,0.471923,0.467218,-0.0133866,-0.807449,-0.431549,-0.0034906,0.0136998,1.50883,5,0.1,21,1.3,2.25966,-0.794279,0.618806,0.0504896,-0.34757,0.0625913,0.00438094,-0.0305548,0.00550225,0.0108629,0.088862,5,0.1,22,1.3,-3.1047,3.63673,0.58595,0.821436,-0.797045,0.00861557,-0.314549,0.0905991,-0.00711903,0.0149464,1.78101,5,0.1,23,1.3,1.61653,-0.864681,0.502666,-0.201415,0.866026,-0.0124466,-0.0105947,-3.72529e-06,0.0350848,0.0120907,2.24636,5,0.1,24,1.3,2.51339,2.78903,0.500003,0.384555,0.186505,-5.43892e-05,-1.00443,-0.0771731,0.00210106,0.0135204,0.342829,5,0.1,25,1.3,-0.861903,1.52552,0.562632,0.496795,0.242684,0.0330416,-0.205416,-0.10033,-0.0136718,0.00910103,0.176665,5,0.1,26,1.3,-1.35282,3.42594,0.71514,0.327312,0.551739,0.03083,-0.0031814,-0.228167,-0.0127442,0.0352051,0.279803,5,0.1,27,1.3,-2.53249,-3.36786,0.589789,0.86319,0.389027,0.00563376,-0.0838488,-0.207558,0.00546873,0.0372315,2.24005,5,0.1,28,1.3,0.711776,3.04813,0.584067,-0.231445,-0.802433,0.0140858,0.0956766,0.308514,-0.00580028,0.0150416,0.446245,5,0.1,29,1.3,2.09502,3.70953,0.59156,0.534864,-0.229482,0.00746585,-0.221178,0.094831,-0.00309199,0.00920675,0.195106,5,0.1,30,1.3,3.63162,2.51948,0.640256,-0.558501,0.42483,-0.0355824,0.231072,-0.17561,0.0147112,0.0152858,0.284234,5,0.1,31,1.3,-4.07617,0.561431,0.626037,-0.269205,-0.822191,-0.0359518,0.0979006,-0.131804,0.00147894,0.0104125,0.834891,5,0.1,32,1.3,-0.560092,-3.81144,0.587721,-0.627427,0.481286,0.0577675,0.259409,-0.199199,-0.0238866,0.00852973,0.361957,5,0.1,33,1.3,3.6939,-2.59341,0.691264,-0.0589076,0.866026,0.0141955,-0.00427663,0,0.001017,0.0202658,2.26955,5,0.1,34,1.3,-2.29587,3.1235,0.501174,0.724488,0.441413,-0.00815112,-0.976846,-1.19078,0.0377372,0.00993655,0.836301,5,0.1,35,1.3,-1.92441,-3.46222,0.560407,0.242624,0.280603,0.0350092,-0.100322,-0.0350922,-0.0144765,0.0250394,0.152574,5,0.1,36,1.3,-1.14864,1.6323,0.5,0.0659276,-0.201724,-1.05239e-05,0.305995,-1.13648,0.000406057,0.0215221,3.2128,5,0.1,37,1.3,0.527101,-0.535306,0.500004,-0.731268,0.208046,-9.38773e-05,0.302346,-0.0860132,0.0031963,0.0114081,0.335361,5,0.1,38,1.3,-3.5801,3.3868,0.642541,0.76898,0.669349,-0.0534002,-0.210375,-0.116348,0.0116304,0.0105347,1.04882,5,0.1,39,1.3,-1.73489,3.25833,0.55317,0.532107,0.381437,-0.00128709,-0.392765,-0.163525,-0.0153333,0.0119586,0.77592,5,0.1
0,1.4,-1.85623,3.44697,0.654819,-0.131595,-0.221705,0.0644684,-0.0411272,1.54996,0.175923,0.0108611,1.42109,5,0.1,1,1.4,0.508166,-3.61449,0.98333,-0.165474,0.0934362,0.301419,0.160262,0.196099,-0.156224,0.0210247,0.199786,5,0.1,2,1.4,-2.99062,-1.34355,0.623868,-0.458658,-0.686896,0.00147671,-0.235319,-0.175893,0.0626147,0.00972549,1.12754,5,0.1,3,1.4,-3.14175,-4.06096,0.556386,0.866026,0.215697,0.0499278,0,-0.0333786,-0.0077188,0.0112515,2.24151,5,0.1,4,1.4,3.3621,1.85692,0.565115,-0.151867,0.326118,0.0320897,0.0553131,0.483334,-0.0201464,0.0190315,0.841861,5,0.1,5,1.4,1.69635,-2.71789,0.504537,-0.272787,0.866026,-0.0159472,-0.348926,0,0.0269413,0.0198793,2.27204,5,0.1,6,1.4,-0.686237,-1.38795,0.629136,0.308834,0.864258,-0.0232905,-0.11462,-0.0352859,0.00867248,0.0343213,1.22618,5,0.1,7,1.4,1.71908,0.77387,0.569212,-0.477478,0.529926,0.0283256,0.300229,-0.33322,-0.017792,0.00984355,0.213791,5,0.1,8,1.4,-0.645943,-0.126218,0.627519,0.318207,0.69803,-0.0253156,-0.200093,-0.210524,0.0158846,0.0111987,0.669751,5,0.1,9,1.4,1.20684,1.25515,0.716714,-0.072217,0.110039,0.0386149,0.536501,-0.0565648,-0.0198483,0.00975779,0.418538,5,0.1,10,1.4,3.35259,3.45703,0.575402,-0.598264,-0.36878,0.0250131,1.09005,0.870466,-0.00581145,0.0139321,0.667613,5,0.1,11,1.4,0.510877,-3.4296,0.56082,-0.573909,0.258189,-0.0550807,0.11462,-0.342846,0.142187,0.0190721,0.287742,5,0.1,12,1.4,3.30305,3.0995,0.564056,-0.595045,0.180203,0.0113964,0.964165,0.109315,-0.00420213,0.0080788,0.610859,5,0.1,13,1.4,-2.67033,2.86388,0.734008,0.613993,-0.350356,0.043115,-0.0658035,0.0680685,-0.076741,0.0183234,0.412857,5,0.1,14,1.4,3.92248,-0.716305,0.687074,0.21404,-0.866026,-0.00725389,-0.043869,0,0.00149012,0.010636,1.64658,5,0.1,15,1.4,-3.60601,0.207452,0.597231,0.557446,-0.466758,0.00254065,-0.350475,0.2935,-0.00160933,0.0169372,0.221751,5,0.1,16,1.4,-0.35183,-0.240767,0.598499,0.0476688,0.247075,0.00137687,-0.0299811,-0.497177,-0.000834465,0.02396,0.195486,5,0.1,17,1.4,-2.43162,3.27234,0.610022,0.218308,-0.346488,0.0542358,-0.307202,-0.0224113,-0.0247359,0.0149155,0.912107,5,0.1,18,1.4,-2.38306,-1.12894,0.557623,0.355625,0.133267,-0.0303119,0.137687,0.760853,0.0881553,0.0125909,0.95395,5,0.1,19,1.4,1.87083,-1.40135,0.500128,-0.243127,0.866026,-0.00150651,0.0370145,-5.96046e-05,0.012219,0.0148699,2.23564,5,0.1,20,1.4,-2.89342,-0.759273,0.606547,0.419778,0.428753,-0.0132427,-0.301838,-0.359386,0.00602007,0.0126953,1.16094,5,0.1,21,1.4,2.26471,-0.829068,0.625071,0.050354,-0.346686,0.0624329,-0.00870228,0.0601411,-0.010848,0.0170622,0.0672677,5,0.1,22,1.4,-3.02458,3.55777,0.586768,0.77635,-0.778496,0.00767857,-0.588417,0.299454,-0.0112653,0.0152134,1.37714,5,0.1,23,1.4,1.59639,-0.778079,0.501595,-0.200754,0.866026,-0.00901371,0.0315905,0,0.033021,0.0122846,2.24736,5,0.1,24,1.4,2.54683,2.80725,0.500005,0.284797,0.177276,7.45058e-05,-0.973105,-0.11158,0.000625849,0.0134457,0.364051,5,0.1,25,1.4,-0.813376,1.54922,0.565859,0.472206,0.230676,0.0314057,-0.296891,-0.145078,-0.0197589,0.0088458,0.116285,5,0.1,26,1.4,-1.32022,3.47984,0.718152,0.32337,0.524437,0.0293046,-0.0854731,-0.329971,-0.0184178,0.0365538,0.187245,5,0.1,27,1.4,-2.44693,-3.33023,0.590383,0.844324,0.361502,0.00625104,-0.315547,-0.340343,0.00616908,0.0394757,2.54207,5,0.1,28,1.4,0.689168,2.96962,0.585443,-0.219992,-0.76552,0.0133917,0.138342,0.449061,-0.00843406,0.0117062,1.16737,5,0.1,29,1.4,2.14726,3.68712,0.592289,0.508392,-0.218135,0.00709593,-0.319719,0.137329,-0.00447035,0.00965031,0.23384,5,0.1,30,1.4,3.57707,2.56098,0.636781,-0.530845,0.40381,-0.0338227,0.333786,-0.253916,0.0212789,0.0143286,0.296261,5,0.1,31,1.4,-4.10252,0.478863,0.622461,-0.256658,-0.825342,-0.0354126,0.157595,0.0969326,0.0103712,0.0121849,0.580034,5,0.1,32,1.4,-0.621379,-3.76443,0.593364,-0.596376,0.457454,0.0549093,0.374973,-0.28789,-0.0345409,0.00849762,0.238247,5,0.1,33,1.4,3.68801,-2.5068,0.692685,-0.0588417,0.866026,0.0141785,0.00798702,0,-0.00193715,0.0226658,2.26959,5,0.1,34,1.4,-2.22871,3.16105,0.500535,0.615513,0.304753,-0.00476837,-1.17731,-1.47581,0.0295639,0.00897682,0.301902,5,0.1,35,1.4,-1.90071,-3.43434,0.563826,0.230616,0.276548,0.0332773,-0.145018,-0.0597239,-0.020951,0.0243059,0.208745,5,0.1,36,1.4,-1.14007,1.60609,0.500001,0.108817,-0.324026,1.3411e-05,0.504851,-1.23048,0.000149012,0.0219928,2.74856,5,0.1,37,1.4,0.455671,-0.514984,0.500007,-0.695078,0.197749,0.000104308,0.437051,-0.12432,0.000923872,0.00995448,0.221593,5,0.1,38,1.4,-3.50433,3.45299,0.637271,0.745112,0.652349,-0.0518322,-0.296354,-0.244379,0.0213385,0.0125217,0.743031,5,0.1,39,1.4,-1.68364,3.29575,0.552994,0.492582,0.36723,-0.00198334,-0.412345,-0.141621,-2.98023e-05,0.0120691,0.612853,5,0.1
0,1.5,-1.86908,3.431,0.661942,-0.121105,-0.111671,0.0760691,0.22535,0.71004,0.0610203,0.0108611,1.42109,5,0.1,1,1.5,0.492486,-3.60396,1.01274,-0.147528,0.1186,0.287111,0.196232,0.284582,-0.140559,0.0210247,0.199786,5,0.1,2,1.5,-3.03774,-1.41237,0.624333,-0.483788,-0.682195,0.00779927,-0.236794,0.254177,0.0616163,0.00972549,1.12754,5,0.1,3,1.5,-3.05515,-4.03949,0.561356,0.866026,0.21413,0.0495657,0,-0.00992417,-0.00228733,0.0112515,2.24151,5,0.1,4,1.5,3.34737,1.89231,0.568227,-0.140892,0.383985,0.0301672,0.15673,0.623479,-0.0192076,0.0190315,0.841861,5,0.1,5,1.5,1.66779,-2.63129,0.503086,-0.294156,0.866026,-0.0130069,-0.0857413,0,0.0311024,0.0198793,2.27204,5,0.1,6,1.5,-0.655894,-1.30154,0.626848,0.298055,0.864669,-0.0224755,-0.111818,0.00893325,0.00844523,0.0343213,1.22618,5,0.1,7,1.5,1.67278,0.825261,0.571959,-0.448839,0.498141,0.0266279,0.28611,-0.317529,-0.0169612,0.00984355,0.213791,5,0.1,8,1.5,-0.616421,-0.0582708,0.625187,0.261198,0.65361,-0.0203157,-0.864342,-0.648523,0.0770465,0.0111987,0.669751,5,0.1,9,1.5,1.20192,1.26588,0.720481,-0.0297584,0.10474,0.0367553,0.320867,-0.0530705,-0.0186227,0.00975779,0.418538,5,0.1,10,1.5,3.29841,3.42448,0.577885,-0.484221,-0.282569,0.0247044,1.1573,0.843123,-0.00184029,0.0139321,0.667613,5,0.1,11,1.5,0.453974,-3.40549,0.556041,-0.564365,0.224051,-0.0403951,0.101071,-0.340119,0.148233,0.0190721,0.287742,5,0.1,12,1.5,3.24859,3.11672,0.565128,-0.492515,0.152752,0.00962978,1.06677,-0.583664,-0.0284649,0.0080788,0.610859,5,0.1,13,1.5,-2.6092,2.82916,0.737945,0.608328,-0.343755,0.0357165,-0.0733584,0.0769943,-0.071194,0.0183234,0.412857,5,0.1,14,1.5,3.94369,-0.802907,0.686355,0.210279,-0.865962,-0.0071262,-0.0403821,0.0025332,0.00136718,0.010636,1.64658,5,0.1,15,1.5,-3.55195,0.162187,0.597478,0.524013,-0.438762,0.00238763,-0.33401,0.279679,-0.00152364,0.0169372,0.221751,5,0.1,16,1.5,-0.347208,-0.218461,0.598633,0.0448092,0.200859,0.00129687,-0.0285637,-0.392102,-0.000800937,0.02396,0.195486,5,0.1,17,1.5,-2.41077,3.23704,0.61525,0.203553,-0.363708,0.049674,-0.0226796,-0.273362,-0.0633486,0.0149155,0.912107,5,0.1,18,1.5,-2.34666,-1.11153,0.555057,0.372934,0.216321,-0.0208353,0.181168,0.854596,0.0983439,0.0125909,0.95395,5,0.1,19,1.5,1.84662,-1.31475,0.50003,-0.241444,0.866025,-0.000554696,0.0102073,1.49012e-05,0.0070259,0.0148699,2.23564,5,0.1,20,1.5,-2.85205,-0.717928,0.605261,0.414948,0.400227,-0.0123969,0.14089,-0.23412,0.0107177,0.0126953,1.16094,5,0.1,21,1.5,2.26971,-0.863519,0.631275,0.0497773,-0.342689,0.0617119,-0.00548363,0.0379086,-0.00683218,0.0170622,0.0672677,5,0.1,22,1.5,-2.94999,3.48138,0.587473,0.714253,-0.749224,0.00637285,-0.660107,0.310719,-0.0144094,0.0152134,1.37714,5,0.1,23,1.5,1.5764,-0.691476,0.500851,-0.199225,0.866026,-0.00594296,0.0100806,-3.72529e-06,0.028044,0.0122846,2.24736,5,0.1,24,1.5,2.57062,2.82454,0.500014,0.193056,0.169274,8.99658e-05,-0.849858,-0.0594407,-0.000216067,0.0134457,0.364051,5,0.1,25,1.5,-0.767583,1.57159,0.568905,0.443886,0.216837,0.0295212,-0.282925,-0.138238,-0.0188239,0.0088458,0.116285,5,0.1,26,1.5,-1.28829,3.53069,0.720994,0.315265,0.492966,0.0275472,-0.0885054,-0.314355,-0.017561,0.0365538,0.187245,5,0.1,27,1.5,-2.36456,-3.29609,0.591056,0.798301,0.318427,0.00735354,-0.598252,-0.505388,0.0143349,0.0394757,2.54207,5,0.1,28,1.5,0.667834,2.89458,0.586741,-0.206796,-0.741028,0.0125873,0.131823,0.10398,-0.00803545,0.0117062,1.16737,5,0.1,29,1.5,2.19672,3.66597,0.592977,0.482341,-0.205037,0.00666939,-0.225618,0.130817,-0.00426173,0.00965031,0.23384,5,0.1,30,1.5,3.52543,2.60014,0.633501,-0.503449,0.379589,-0.0317933,0.239059,-0.241965,0.020273,0.0143286,0.296261,5,0.1,31,1.5,-4.12741,0.396762,0.618969,-0.241228,-0.816342,-0.0344275,0.157505,0.116334,0.0106096,0.0121849,0.580034,5,0.1,32,1.5,-0.679214,-3.72006,0.598689,-0.560607,0.429996,0.0516147,0.357334,-0.274256,-0.0329129,0.00849762,0.238247,5,0.1,33,1.5,3.68214,-2.4202,0.694098,-0.0585657,0.866026,0.0141109,0.000908971,0,-0.000234693,0.0226658,2.26959,5,0.1,34,1.5,-2.17252,3.18434,0.500189,0.512793,0.163652,-0.00230325,-0.898659,-1.32568,0.0197552,0.00897682,0.301902,5,0.1,35,1.5,-1.87835,-3.40674,0.567053,0.216783,0.277333,0.0312791,-0.138186,0.0506788,-0.0199564,0.0243059,0.208745,5,0.1,36,1.5,-1.12641,1.56708,0.500003,0.166142,-0.458601,2.03028e-05,0.607222,-1.3821,0,0.0219928,2.74856,5,0.1,37,1.5,0.388264,-0.495807,0.50002,-0.653389,0.18589,0.000143237,0.416482,-0.118481,-5.96046e-05,0.00995448,0.221593,5,0.1,38,1.5,-3.4311,3.5171,0.632187,0.720516,0.630177,-0.0498923,-0.228658,-0.223771,0.0193901,0.0125217,0.743031,5,0.1,39,1.5,-1.63619,3.332,0.552827,0.458245,0.359655,-0.0010916,-0.297219,-0.035435,0.0159629,0.0120691,0.612853,5,0.1
0,1.6,-1.8798,3.4224,0.669698,-0.0911355,-0.068897,0.0776142,0.353456,0.193954,-0.0256002,0.013223,1.22441,5,0.1,1,1.6,0.478757,-3.59069,1.04071,-0.126702,0.146419,0.27152,0.218034,0.254989,-0.178456,0.0166215,0.262089,5,0.1,2,1.6,-3.0871,-1.47872,0.625404,-0.500846,-0.639179,0.0134215,-0.0833273,0.590682,0.0492334,0.0118054,0.949742,5,0.1,3,1.6,-2.96855,-4.01817,0.566291,0.866026,0.211668,0.0489965,0,-0.0474453,-0.0109971,0.0117928,2.24305,5,0.1,4,1.6,3.33418,1.93372,0.571143,-0.121903,0.442082,0.0280946,0.216603,0.501752,-0.0228286,0.0188777,0.128677,5,0.1,5,1.6,1.63832,-2.54469,0.501942,-0.291431,0.866026,-0.00986308,0.13262,0,0.0311732,0.0211356,2.25028,5,0.1,6,1.6,-0.626715,-1.21517,0.624648,0.284651,0.860772,-0.0214636,-0.163615,-0.105143,0.0123382,0.0384056,0.90006,5,0.1,7,1.6,1.62939,0.873413,0.574533,-0.417992,0.463906,0.0247985,0.339985,-0.377297,-0.0201762,0.011483,0.225791,5,0.1,8,1.6,-0.595203,0.00332762,0.623593,0.158887,0.573806,-0.0111714,-1.12212,-0.922114,0.100315,0.00993282,0.284013,5,0.1,9,1.6,1.20025,1.27607,0.724057,-0.00635087,0.0988126,0.034675,0.155985,-0.0680089,-0.0238419,0.00923287,0.359183,5,0.1,10,1.6,3.25567,3.40032,0.580343,-0.372261,-0.202018,0.0243947,1.06096,0.760198,-0.00545382,0.0168746,0.604472,5,0.1,11,1.6,0.398186,-3.38478,0.552731,-0.549515,0.190181,-0.0260144,0.212879,-0.337243,0.136971,0.0151521,0.198877,5,0.1,12,1.6,3.2047,3.12845,0.565927,-0.385231,0.0768363,0.00617951,1.06323,-0.875711,-0.0383854,0.00773051,0.369366,5,0.1,13,1.6,-2.54892,2.79527,0.74117,0.594991,-0.332779,0.0288859,-0.211,0.151396,-0.0653565,0.0149355,0.281757,5,0.1,14,1.6,3.96446,-0.88947,0.685651,0.20445,-0.865012,-0.00692904,-0.0823736,0.0202358,0.00280142,0.00999567,1.25711,5,0.1,15,1.6,-3.50129,0.119774,0.597709,0.488001,-0.408607,0.00222325,-0.396967,0.332307,-0.00181794,0.0126923,0.241992,5,0.1,16,1.6,-0.342876,-0.2,0.598758,0.04173,0.171692,0.00120997,-0.0339448,-0.195898,-0.000983477,0.0260396,0.296304,5,0.1,17,1.6,-2.39029,3.19921,0.619858,0.207615,-0.392669,0.0421435,0.0770092,-0.269771,-0.0846088,0.0113771,0.719446,5,0.1,18,1.6,-2.30858,-1.08578,0.553461,0.387192,0.296304,-0.0111759,0.0846386,0.711799,0.092566,0.0146146,0.730164,5,0.1,19,1.6,1.82257,-1.22815,0.500002,-0.238773,0.866026,-5.81145e-05,0.0526905,0,0.00312924,0.0128807,2.23747,5,0.1,20,1.6,-2.80955,-0.679024,0.604081,0.43664,0.377952,-0.0111356,0.244141,-0.228196,0.0143647,0.0134096,0.904753,5,0.1,21,1.6,2.27465,-0.897514,0.637397,0.0488162,-0.336052,0.0605166,-0.0156164,0.107199,-0.0193119,0.0124432,0.0301717,5,0.1,22,1.6,-2.88202,3.40819,0.588036,0.643367,-0.71224,0.00487417,-0.760436,0.445366,-0.0151694,0.0142392,1.09295,5,0.1,23,1.6,1.55657,-0.604873,0.500387,-0.19685,0.866026,-0.00345856,0.0451803,0,0.0214875,0.0111517,2.24883,5,0.1,24,1.6,2.58596,2.84118,0.500021,0.116682,0.163484,4.61936e-05,-0.670671,-0.0641346,-0.000566244,0.0121418,0.349434,5,0.1,25,1.6,-0.724675,1.59255,0.571758,0.413382,0.201932,0.0274912,-0.33623,-0.164211,-0.0223517,0.00841749,0.129179,5,0.1,26,1.6,-1.25729,3.57834,0.723657,0.30368,0.459075,0.0256538,-0.151157,-0.373363,-0.0208616,0.0382668,0.124302,5,0.1,27,1.6,-2.28814,-3.26694,0.591866,0.726163,0.263321,0.00884831,-0.836134,-0.583649,0.0144243,0.0371018,2.95522,5,0.1,28,1.6,0.647844,2.82085,0.587958,-0.192583,-0.733727,0.0117227,0.156641,0.0889301,-0.00956655,0.0133002,0.899832,5,0.1,29,1.6,2.24382,3.64615,0.593622,0.459099,-0.190938,0.0062108,-0.256538,0.155449,-0.00506639,0.0110355,0.166016,5,0.1,30,1.6,3.47629,2.63683,0.630427,-0.47875,0.353503,-0.0296086,0.272512,-0.287533,0.0240803,0.0203575,0.405533,5,0.1,31,1.6,-4.1507,0.315963,0.615588,-0.224078,-0.796506,-0.0330776,0.189543,0.302777,0.0172555,0.00899044,0.393578,5,0.1,32,1.6,-0.733405,-3.6785,0.603678,-0.52208,0.400424,0.0480667,0.424623,-0.32568,-0.0391006,0.0094151,0.156592,5,0.1,33,1.6,3.6763,-2.3336,0.695505,-0.0580788,0.866026,0.0139922,0.0110865,0,-0.00271201,0.0218044,2.26966,5,0.1,34,1.6,-2.12542,3.19446,0.500042,0.431961,0.0430584,-0.000792742,-0.734568,-1.07229,0.010699,0.0100204,0.280905,5,0.1,35,1.6,-1.85739,-3.37874,0.570077,0.201884,0.282389,0.0291288,-0.164211,0.0321865,-0.0237226,0.0243129,0.156921,5,0.1,36,1.6,-1.10682,1.51459,0.500005,0.224248,-0.586826,1.49012e-05,0.52923,-1.12522,-5.96046e-05,0.0242804,2.4562,5,0.1,37,1.6,0.325105,-0.477838,0.500033,-0.608484,0.173115,0.000107288,0.494866,-0.140786,-0.000566244,0.00940807,0.146501,5,0.1,38,1.6,-3.3603,3.57887,0.627304,0.693756,0.603437,-0.0476286,-0.329614,-0.327706,0.0272095,0.011623,0.5152,5,0.1,39,1.6,-1.59181,3.36779,0.552811,0.429204,0.355721,0.000868738,-0.300169,-0.0616312,0.0217855,0.0117558,0.476832,5,0.1
0,1.7,-1.88699,3.41571,0.677267,-0.0514295,-0.0712454,0.0731712,0.423446,-0.19592,-0.0615269,0.013223,1.22441,5,0.1,1,1.7,0.467174,-3.57455,1.06702,-0.105006,0.177678,0.255045,0.214433,0.342995,-0.159793,0.0166215,0.262089,5,0.1,2,1.7,-3.13763,-1.53899,0.626987,-0.509374,-0.560548,0.0181361,-0.0629723,0.937395,0.0433736,0.0118054,0.949742,5,0.1,3,1.7,-2.88195,-3.99717,0.571154,0.866026,0.208874,0.0483486,0,-0.0201762,-0.00468269,0.0117928,2.24305,5,0.1,4,1.7,3.32313,1.98008,0.573858,-0.0986747,0.481173,0.0263429,0.242501,0.269696,-0.0138469,0.0188777,0.128677,5,0.1,5,1.7,1.60911,-2.45808,0.501108,-0.298884,0.865925,-0.00687381,-0.227608,-0.00403821,0.0281595,0.0211356,2.25028,5,0.1,6,1.7,-0.599027,-1.12938,0.62256,0.269296,0.856115,-0.0203061,-0.152465,-0.0339746,0.0114925,0.0384056,0.90006,5,0.1,7,1.7,1.58906,0.918007,0.576917,-0.390566,0.428537,0.0229069,0.229843,-0.34276,-0.0183322,0.011483,0.225791,5,0.1,8,1.7,-0.585051,0.0563368,0.62299,0.0438041,0.488513,-0.000862963,-1.14339,-0.793718,0.102445,0.00993282,0.284013,5,0.1,9,1.7,1.20027,1.2856,0.727399,0.00547208,0.0914318,0.0320867,0.0797808,-0.0802949,-0.0281632,0.00923287,0.359183,5,0.1,10,1.7,3.22359,3.38329,0.582748,-0.272763,-0.144415,0.0236273,0.865057,0.416815,-0.0102594,0.0168746,0.604472,5,0.1,11,1.7,0.344224,-3.36739,0.550802,-0.529959,0.158066,-0.0127433,0.198433,-0.305787,0.126086,0.0151521,0.198877,5,0.1,12,1.7,3.1712,3.13139,0.566323,-0.2877,-0.0203144,0.00153119,0.888944,-1.02066,-0.0517853,0.00773051,0.369366,5,0.1,13,1.7,-2.49042,2.76272,0.743747,0.57514,-0.318355,0.0227782,-0.207141,0.147834,-0.0568591,0.0149355,0.281757,5,0.1,14,1.7,3.98452,-0.975962,0.684971,0.196831,-0.86516,-0.00667013,-0.0773519,-0.000827014,0.00263005,0.00999567,1.25711,5,0.1,15,1.7,-3.45423,0.0804961,0.597922,0.455233,-0.377455,0.0020531,-0.281632,0.301896,-0.00164285,0.0126923,0.241992,5,0.1,16,1.7,-0.338844,-0.183048,0.598875,0.0391261,0.173712,0.00113463,-0.0205766,0.186972,-0.000599772,0.0260396,0.296304,5,0.1,17,1.7,-2.36888,3.15861,0.623608,0.222624,-0.41856,0.0325226,0.195697,-0.225186,-0.10429,0.0113771,0.719446,5,0.1,18,1.7,-2.26938,-1.05257,0.552804,0.396776,0.367246,-0.00204882,0.085488,0.672117,0.0877492,0.0146146,0.730164,5,0.1,19,1.7,1.79887,-1.14154,0.500008,-0.235732,0.866026,0.000139978,0.0214726,0,0.000994653,0.0128807,2.23747,5,0.1,20,1.7,-2.76428,-0.642207,0.603041,0.471479,0.359526,-0.00965167,0.403166,-0.15869,0.0152141,0.0134096,0.904753,5,0.1,21,1.7,2.27945,-0.930558,0.643347,0.0471096,-0.324326,0.0584046,-0.0198334,0.136405,-0.0245608,0.0124432,0.0301717,5,0.1,22,1.7,-2.82128,3.33905,0.588449,0.57314,-0.671405,0.00340845,-0.659689,0.395298,-0.0139773,0.0142392,1.09295,5,0.1,23,1.7,1.53704,-0.518271,0.500136,-0.194128,0.866026,-0.00167042,0.0200942,-3.57628e-06,0.0143275,0.0111517,2.24883,5,0.1,24,1.7,2.59462,2.85724,0.500023,0.0599779,0.158079,-2.70084e-06,-0.46441,-0.0510961,-0.000406057,0.0121418,0.349434,5,0.1,25,1.7,-0.684938,1.61201,0.574401,0.381863,0.187877,0.0253957,-0.305448,-0.125386,-0.0203103,0.00841749,0.129179,5,0.1,26,1.7,-1.22764,3.62247,0.726123,0.289395,0.424075,0.0236978,-0.144348,-0.33918,-0.018958,0.0382668,0.124302,5,0.1,27,1.7,-2.21995,-3.24357,0.592837,0.635346,0.204055,0.0106552,-0.96792,-0.591174,0.0200607,0.0371018,2.95522,5,0.1,28,1.7,0.629332,2.74797,0.589085,-0.177899,-0.722801,0.0108263,0.142302,0.152752,-0.0086762,0.0133002,0.899832,5,0.1,29,1.7,2.28859,3.62779,0.594219,0.437259,-0.176367,0.00573583,-0.199854,0.141174,-0.00459701,0.0110355,0.166016,5,0.1,30,1.7,3.42955,2.67078,0.627896,-0.457761,0.325723,-0.018424,0.172615,-0.275895,0.180587,0.0203575,0.405533,5,0.1,31,1.7,-4.1722,0.237752,0.612362,-0.206105,-0.767748,-0.031448,0.175416,0.299632,0.0163913,0.00899044,0.393578,5,0.1,32,1.7,-0.783591,-3.64001,0.608298,-0.482274,0.369893,0.0444012,0.385758,-0.295877,-0.0355244,0.0094151,0.156592,5,0.1,33,1.7,3.67053,-2.24699,0.696896,-0.0575513,0.866026,0.0138616,0.00286102,0,-0.000715256,0.0218044,2.26966,5,0.1,34,1.7,-2.08528,3.19416,0.500004,0.376243,-0.0419151,-6.85453e-05,-0.414014,-0.643954,0.00428408,0.0100204,0.280905,5,0.1,35,1.7,-1.83799,-3.35033,0.572877,0.18649,0.28556,0.0269053,-0.149176,0.018388,-0.0215434,0.0243129,0.156921,5,0.1,36,1.7,-1.08233,1.45015,0.500006,0.260632,-0.701766,7.82311e-06,0.230059,-1.10719,-7.45058e-05,0.0242804,2.4562,5,0.1,37,1.7,0.266613,-0.461197,0.500041,-0.562092,0.159917,4.88013e-05,0.449581,-0.127908,-0.000581145,0.00940807,0.146501,5,0.1,38,1.7,-3.29243,3.63767,0.622669,0.664481,0.573086,-0.0451121,-0.282764,-0.299633,0.0247061,0.011623,0.5152,5,0.1,39,1.7,-1.55021,3.40319,0.55302,0.404348,0.353127,0.00340948,-0.216872,-0.0112206,0.0274815,0.0117558,0.476832,5,0.1
0,1.8,-1.89001,3.40727,0.68423,-0.00947416,-0.100076,0.0656471,0.402689,-0.345588,-0.0873804,0.011493,1.13253,5,0.1,1,1.8,0.45773,-3.55511,1.0917,-0.0840783,0.210309,0.238085,0.202954,0.289559,-0.18537,0.0180622,0.199793,5,0.1,2,1.8,-3.18869,-1.59009,0.628996,-0.509369,-0.459492,0.0218123,0.0795126,1.05035,0.0289977,0.0108013,0.822237,5,0.1,3,1.8,-2.79534,-3.97641,0.575957,0.866026,0.20563,0.0475958,0,-0.0530481,-0.0122786,0.0152584,2.24482,5,0.1,4,1.8,3.31448,2.02909,0.576426,-0.0743806,0.494486,0.0250399,0.239134,-0.00822544,-0.013411,0.0179279,0.513205,5,0.1,5,1.8,1.57785,-2.37154,0.500553,-0.327441,0.864404,-0.00430495,-0.302553,-0.0323057,0.0229776,0.0249656,2.19632,5,0.1,6,1.8,-0.572901,-1.04413,0.62059,0.252651,0.846165,-0.0190526,-0.186503,-0.197232,0.0140667,0.0362998,0.638578,5,0.1,7,1.8,1.55111,0.95912,0.579114,-0.368348,0.393222,0.0210181,0.229955,-0.372142,-0.0198781,0.00990382,0.160408,5,0.1,8,1.8,-0.586178,0.101366,0.623396,-0.0635535,0.413341,0.00873059,-0.977486,-0.716966,0.086993,0.0110156,0.211384,5,0.1,9,1.8,1.20109,1.29431,0.730458,0.00964701,0.0826597,0.0290096,0.00476837,-0.0954866,-0.0334978,0.0105026,0.778882,5,0.1,10,1.8,3.2,3.37053,0.585049,-0.205386,-0.114137,0.0222892,0.484943,0.208974,-0.0167191,0.0162957,0.509347,5,0.1,11,1.8,0.292331,-3.35307,0.550124,-0.506436,0.128901,-0.00119954,0.28576,-0.277996,0.103116,0.0172583,0.135188,5,0.1,12,1.8,3.1466,3.12433,0.566214,-0.207108,-0.119179,-0.00368506,0.724912,-0.921845,-0.0504851,0.00909772,0.294387,5,0.1,13,1.8,-2.43407,2.73169,0.745754,0.550032,-0.301409,0.0175014,-0.309348,0.198245,-0.0487864,0.0134105,0.189337,5,0.1,14,1.8,4.00378,-1.06236,0.684319,0.187743,-0.861293,-0.00636131,-0.109434,0.0945926,0.00369549,0.0138622,0.931585,5,0.1,15,1.8,-3.41008,0.0442839,0.598119,0.427687,-0.346351,0.00188351,-0.286341,0.327796,-0.00175834,0.011203,0.303083,5,0.1,16,1.8,-0.335029,-0.164444,0.598986,0.0371911,0.200361,0.00107884,-0.019908,0.308052,-0.000596046,0.0275988,0.19947,5,0.1,17,1.8,-2.34562,3.11586,0.62633,0.241977,-0.43388,0.0219136,0.171065,-0.0656843,-0.105202,0.0106316,0.569954,5,0.1,18,1.8,-2.22942,-1.01279,0.553015,0.400651,0.424811,0.00599474,-0.0230074,0.454932,0.0715256,0.0159055,0.52967,5,0.1,19,1.8,1.77545,-1.05494,0.500025,-0.232202,0.866026,0.000168383,0.0584722,-2.98023e-05,-0.000298023,0.0147511,2.23959,5,0.1,20,1.8,-2.71518,-0.607057,0.602153,0.508732,0.343065,-0.00811219,0.305772,-0.183642,0.0154972,0.014576,0.682381,5,0.1,21,1.8,2.28405,-0.962201,0.649045,0.0446379,-0.307302,0.0553399,-0.0305176,0.209749,-0.0377893,0.0138253,0.0112529,5,0.1,22,1.8,-2.7672,3.27396,0.588723,0.508773,-0.629139,0.00210702,-0.638604,0.466347,-0.0119209,0.0150539,0.87631,5,0.1,23,1.8,1.51776,-0.431668,0.50003,-0.190979,0.866025,-0.000567734,0.0505447,1.43051e-05,0.00789762,0.0128707,2.25047,5,0.1,24,1.8,2.59862,2.87277,0.500021,0.0232637,0.152051,-3.57628e-05,-0.274181,-0.0743866,-0.000238419,0.00967068,0.495708,5,0.1,25,1.8,-0.648303,1.63018,0.576837,0.350392,0.175399,0.0233024,-0.33161,-0.130296,-0.0220239,0.00991631,0.197154,5,0.1,26,1.8,-1.19947,3.66316,0.728396,0.273171,0.389129,0.0217438,-0.186741,-0.368237,-0.0205934,0.0368579,0.141279,5,0.1,27,1.8,-2.16139,-3.22606,0.594001,0.534904,0.146919,0.0125751,-1.03009,-0.543594,0.0171065,0.036368,0.422468,5,0.1,28,1.8,0.612265,2.67671,0.590123,-0.163238,-0.699353,0.00993162,0.154495,0.331402,-0.00938773,0.0107662,0.80607,5,0.1,29,1.8,2.33128,3.61087,0.594769,0.415796,-0.161827,0.00526309,-0.243306,0.153303,-0.00500679,0.0112561,0.115897,5,0.1,30,1.8,3.38464,2.70195,0.627085,-0.43987,0.297022,0.00311732,0.203252,-0.30303,0.235379,0.0154388,0.359319,5,0.1,31,1.8,-4.19192,0.162652,0.609305,-0.188065,-0.732021,-0.0296235,0.189066,0.433224,0.0208318,0.00897827,0.263436,5,0.1,32,1.8,-0.829859,-3.60452,0.612558,-0.44253,0.339413,0.0407428,0.418872,-0.321269,-0.038594,0.0115796,0.103326,5,0.1,33,1.8,3.66479,-2.16039,0.698277,-0.0569284,0.866026,0.0137106,0.0119209,0,-0.00292063,0.018882,2.26975,5,0.1,34,1.8,-2.04942,3.18734,0.500012,0.343108,-0.0889301,0.000153482,-0.275135,-0.311613,0.000566244,0.0160853,0.526387,5,0.1,35,1.8,-1.8201,-3.32179,0.575458,0.171119,0.283915,0.0246868,-0.161946,-0.0599623,-0.0233948,0.00709591,0.392647,5,0.1,36,1.8,-1.05541,1.37491,0.500006,0.275186,-0.796968,0,0.0786781,-0.750303,-5.96046e-05,0.0220643,2.29879,5,0.1,37,1.8,0.212687,-0.445855,0.500043,-0.515772,0.146738,-5.96046e-06,0.488147,-0.138879,-0.000536442,0.0149659,0.139415,5,0.1,38,1.8,-3.2275,3.69339,0.618288,0.632662,0.540102,-0.0424206,-0.372171,-0.37396,0.0302494,0.0111809,0.351776,5,0.1,39,1.8,-1.51085,3.43839,0.553498,0.382414,0.349897,0.00609607,-0.236094,-0.0681877,0.0251234,0.013145,0.366789,5,0.1
0,1.9,-1.88892,3.39557,0.69063,0.0311581,-0.133348,0.0646398,0.396572,-0.307351,0.0501014,0.011493,1.13253,5,0.1,1,1.9,0.450304,-3.53257,1.11463,-0.0647693,0.240494,0.220988,0.182431,0.293195,-0.163853,0.0180622,0.199793,5,0.1,2,1.9,-3.23925,-1.63067,0.631316,-0.501734,-0.352382,0.0244723,0.0928193,1.04463,0.022877,0.0108013,0.822237,5,0.1,3,1.9,-2.70874,-3.95604,0.580673,0.866026,0.202338,0.046834,0,-0.0242144,-0.00561029,0.0152584,2.24482,5,0.1,4,1.9,3.30821,2.07879,0.578861,-0.0515413,0.50144,0.0236131,0.214323,0.109419,-0.0155568,0.0179279,0.513205,5,0.1,5,1.9,1.54334,-2.28512,0.500227,-0.364387,0.86488,-0.00232933,-0.397928,0.0165552,0.0165142,0.0249656,2.19632,5,0.1,6,1.9,-0.54852,-0.960355,0.618751,0.235274,0.829833,-0.0177423,-0.168517,-0.166316,0.0126995,0.0362998,0.638578,5,0.1,7,1.9,1.51536,0.996592,0.581106,-0.346939,0.356199,0.0187232,0.20989,-0.373375,-0.025589,0.00990382,0.160408,5,0.1,8,1.9,-0.597161,0.139584,0.624681,-0.153103,0.35509,0.0166815,-0.797346,-0.472466,0.0704974,0.0110156,0.211384,5,0.1,9,1.9,1.20214,1.30211,0.733194,0.0112556,0.0732722,0.0257161,-0.000342727,-0.0930354,-0.0326484,0.0105026,0.778882,5,0.1,10,1.9,3.18116,3.35963,0.587189,-0.177771,-0.108265,0.0204652,0.106812,-0.0600666,-0.0198297,0.0162957,0.509347,5,0.1,11,1.9,0.243035,-3.3415,0.550498,-0.479864,0.103124,0.00842772,0.262304,-0.238538,0.0876784,0.0172583,0.135188,5,0.1,12,1.9,3.12889,3.10831,0.565515,-0.152597,-0.196277,-0.0109144,0.390694,-0.618562,-0.0874549,0.00909772,0.294387,5,0.1,13,1.9,-2.38054,2.70249,0.747274,0.520978,-0.282764,0.0130467,-0.289157,0.183597,-0.0404119,0.0134105,0.189337,5,0.1,14,1.9,4.02204,-1.14828,0.6837,0.177549,-0.858402,-0.006017,-0.100553,0.011161,0.00339374,0.0138622,0.931585,5,0.1,15,1.9,-3.36879,0.0111994,0.598299,0.397401,-0.315982,0.00172053,-0.324547,0.289005,-0.00154972,0.011203,0.303083,5,0.1,16,1.9,-0.331398,-0.142625,0.599091,0.035496,0.237593,0.00102818,-0.0155978,0.403639,-0.000461936,0.0275988,0.19947,5,0.1,17,1.9,-2.32049,3.07233,0.627972,0.260913,-0.434713,0.0107907,0.187874,0.0567138,-0.11345,0.0106316,0.569954,5,0.1,18,1.9,-2.18943,-0.968087,0.55396,0.398859,0.467916,0.0127475,-0.0301152,0.379872,0.0618584,0.0159055,0.52967,5,0.1,19,1.9,1.75243,-0.96834,0.500039,-0.228653,0.866025,0.000119023,0.0255257,3.72529e-06,-0.00064075,0.0147511,2.23959,5,0.1,20,1.9,-2.66264,-0.573562,0.601417,0.542527,0.327499,-0.00661165,0.33164,-0.142466,0.014469,0.014576,0.682381,5,0.1,21,1.9,2.28835,-0.991843,0.654383,0.0414018,-0.285049,0.0513316,-0.0347346,0.239011,-0.0430457,0.0138253,0.0112529,5,0.1,22,1.9,-2.71917,3.21317,0.588882,0.454799,-0.588306,0.0011324,-0.463739,0.37472,-0.00775978,0.0150539,0.87631,5,0.1,23,1.9,1.49885,-0.345066,0.500004,-0.187774,0.866025,-1.01514e-05,0.0241101,-1.78814e-06,0.0035353,0.0128707,2.25047,5,0.1,24,1.9,2.59977,2.88757,0.500017,0.00166446,0.14347,-4.97326e-05,-0.157863,-0.0987202,-5.21541e-05,0.00967068,0.495708,5,0.1,25,1.9,-0.614668,1.64693,0.579074,0.32434,0.158463,0.0215722,-0.209499,-0.2032,-0.0139177,0.00991631,0.197154,5,0.1,26,1.9,-1.1729,3.70051,0.730483,0.259836,0.360201,0.0201253,-0.0974983,-0.232607,-0.0130236,0.0368579,0.141279,5,0.1,27,1.9,-2.1129,-3.21398,0.59533,0.43627,0.0957489,0.013866,-0.941694,-0.475585,0.00856444,0.036368,0.422468,5,0.1,28,1.9,0.596672,2.60921,0.591072,-0.148924,-0.643991,0.00906195,0.136212,0.736639,-0.0082776,0.0107662,0.80607,5,0.1,29,1.9,2.37175,3.59542,0.595272,0.394258,-0.147626,0.00479966,-0.203386,0.135094,-0.00441074,0.0112561,0.115897,5,0.1,30,1.9,3.34212,2.73003,0.628707,-0.406631,0.263682,0.0302613,0.444874,-0.359789,0.291772,0.0154388,0.359319,5,0.1,31,1.9,-4.20983,0.0915117,0.606442,-0.17045,-0.691237,-0.027675,0.167966,0.405049,0.0190213,0.00897827,0.263436,5,0.1,32,1.9,-0.87213,-3.5721,0.61645,-0.403724,0.309648,0.0371675,0.369292,-0.283226,-0.0340231,0.0115796,0.103326,5,0.1,33,1.9,3.65914,-2.07379,0.699639,-0.0563432,0.866026,0.0135656,0.00314415,0,-0.000793487,0.018882,2.26975,5,0.1,34,1.9,-2.01727,3.17675,0.500028,0.293315,-0.123774,0.000146125,-0.676483,-0.363067,-0.00057742,0.0160853,0.526387,5,0.1,35,1.9,-1.80309,-3.29443,0.577734,0.17476,0.256841,0.0201805,0.188328,-0.444517,-0.0621751,0.00709591,0.392647,5,0.1,36,1.9,-1.02781,1.29218,0.500006,0.275786,-0.850742,-5.02914e-06,0.00346452,-0.330359,-3.72529e-05,0.0220643,2.29879,5,0.1,37,1.9,0.163419,-0.431682,0.50004,-0.470547,0.138317,-4.79631e-05,0.430383,-0.0434238,-0.00031665,0.0149659,0.139415,5,0.1,38,1.9,-3.16596,3.74564,0.614188,0.598724,0.505435,-0.0396215,-0.328586,-0.33617,0.0270568,0.0111809,0.351776,5,0.1,39,1.9,-1.47367,3.47311,0.554233,0.362048,0.344735,0.00858502,-0.186995,-0.0513047,0.0236444,0.013145,0.366789,5,0.1
0,2,-1.88393,3.38084,0.697455,0.067547,-0.159442,0.0726297,0.321627,-0.206113,0.0964999,0.0158969,0.984311,5,0.1,1,2,0.4447,-3.50719,1.1359,-0.0477269,0.265384,0.204086,0.157893,0.189781,-0.179172,0.0246365,0.259784,5,0.1,2,2,-3.28881,-1.66099,0.633858,-0.487518,-0.257739,0.0261694,0.204682,0.823736,0.0101626,0.0112415,0.713505,5,0.1,3,2,-2.62214,-3.93595,0.585322,0.866026,0.198823,0.0460207,0,-0.0540018,-0.0124872,0.0133583,2.24664,5,0.1,4,2,3.30406,2.12942,0.581138,-0.0320435,0.509846,0.0218585,0.173569,0.0315905,-0.0197589,0.0155146,0.386453,5,0.1,5,2,1.50501,-2.19861,0.500066,-0.400403,0.864553,-0.000995398,-0.294685,-0.0293255,0.0102818,0.021244,2.31669,5,0.1,6,2,-0.525855,-0.878399,0.617042,0.217687,0.806674,-0.0164166,-0.188351,-0.322312,0.0142157,0.0391959,0.441963,5,0.1,7,2,1.48176,1.03031,0.582844,-0.324407,0.317746,0.015983,0.248611,-0.398636,-0.0288188,0.0080518,0.119972,5,0.1,8,2,-0.616053,0.17297,0.626664,-0.2204,0.314537,0.0225842,-0.538558,-0.357285,0.0465214,0.034724,1.19907,5,0.1,9,2,1.20309,1.30897,0.735602,0.00569522,0.0639319,0.0224382,-0.121891,-0.0942945,-0.0330806,0.00807224,1.29621,5,0.1,10,2,3.16356,3.34828,0.589131,-0.176996,-0.120556,0.018318,-0.0605583,-0.16129,-0.0230968,0.0167409,0.406036,5,0.1,11,2,0.196432,-3.33232,0.551742,-0.45118,0.0810146,0.0160456,0.322677,-0.204444,0.0635982,0.0149144,0.155653,5,0.1,12,2,3.11521,3.0861,0.56397,-0.124389,-0.242877,-0.0200078,0.193715,-0.314951,-0.0893474,0.00818345,0.248838,5,0.1,13,2,-2.32997,2.67517,0.74839,0.489277,-0.263184,0.00939518,-0.356793,0.213981,-0.0327229,0.00810403,0.367847,5,0.1,14,2,4.03926,-1.23388,0.683116,0.166631,-0.850907,-0.00564754,-0.122309,0.172377,0.00414252,0.0093849,0.665458,5,0.1,15,2,-3.33077,-0.0189554,0.598464,0.361991,-0.286957,0.00156313,-0.386477,0.29801,-0.00157952,0.0106494,0.156079,5,0.1,16,2,-0.32793,-0.116913,0.599191,0.0337996,0.275395,0.000977516,-0.019446,0.32841,-0.000536442,0.0260143,0.126211,5,0.1,17,2,-2.29357,3.02939,0.628497,0.276172,-0.421375,-0.000113249,0.103593,0.213861,-0.101835,0.0120719,0.45519,5,0.1,18,2,-2.14983,-0.919703,0.555517,0.391722,0.496225,0.0180885,-0.124335,0.167996,0.0438392,0.0129883,0.367947,5,0.1,19,2,1.72973,-0.881737,0.500048,-0.224873,0.866026,4.76837e-05,0.0593662,0,-0.000745058,0.0162934,2.24176,5,0.1,20,2,-2.60695,-0.541556,0.600827,0.568515,0.312056,-0.00522733,0.161171,-0.176817,0.0131726,0.0145728,0.49375,5,0.1,21,2,2.29231,-1.01908,0.659288,0.0376105,-0.258943,0.0466287,-0.0413656,0.285029,-0.0512898,0.0130399,0.00546967,5,0.1,22,2,-2.67587,3.15622,0.588962,0.412041,-0.550026,0.00051856,-0.408292,0.408173,-0.00461936,0.0189834,0.699851,5,0.1,23,2,1.48022,-0.258463,0.500016,-0.184357,0.866025,0.000192225,0.0517368,0,0.000745058,0.0111445,2.05874,5,0.1,24,2,2.59933,2.90137,0.500012,-0.0085175,0.13209,-4.91738e-05,-0.0479221,-0.129342,5.96046e-05,0.0142396,0.483596,5,0.1,25,2,-0.583215,1.66168,0.581166,0.305009,0.135738,0.0202879,-0.191927,-0.246644,-0.0127554,0.0126265,0.166546,5,0.1,26,2,-1.14737,3.73544,0.732435,0.250638,0.338733,0.0189245,-0.0992417,-0.212908,-0.0119209,0.03743,0.0818532,5,0.1,27,2,-2.07383,-3.20664,0.596745,0.346732,0.0524998,0.0142708,-0.848293,-0.386834,-0.000506639,0.037097,0.362487,5,0.1,28,2,0.58246,2.5489,0.591937,-0.135244,-0.558972,0.00822991,0.140429,0.933766,-0.00852346,0.011612,0.734768,5,0.1,29,2,2.41012,3.58133,0.59573,0.372422,-0.134057,0.0043571,-0.244498,0.139236,-0.00452995,0.010603,0.508028,5,0.1,30,2,3.30396,2.75453,0.633179,-0.354016,0.22583,0.0587285,0.593185,-0.393271,0.265867,0.00902718,0.638196,5,0.1,31,2,-4.22604,0.0245168,0.603772,-0.153673,-0.647224,-0.0256717,0.170708,0.490474,0.0216365,0.0111628,0.175322,5,0.1,32,2,-0.910658,-3.54255,0.619997,-0.366636,0.281203,0.0337511,0.380784,-0.292063,-0.0350475,0.0103716,0.118151,5,0.1,33,2,3.65353,-1.98719,0.700989,-0.0557244,0.866026,0.013414,0.0118017,-5.96046e-05,-0.00283122,0.0199293,2.26983,5,0.1,34,2,-1.99168,3.16262,0.500038,0.215754,-0.157714,6.25849e-05,-0.839472,-0.299335,-0.00101328,0.0109892,0.39111,5,0.1,35,2,-1.78441,-3.27135,0.579408,0.200582,0.201696,0.0130683,0.292361,-0.628352,-0.0765324,0.00786376,0.270918,5,0.1,36,2,-1,1.20606,0.500005,0.282645,-0.866026,-8.9407e-06,0.131279,0,-2.98023e-05,0.0234349,2.23484,5,0.1,37,2,0.118514,-0.418003,0.500034,-0.427323,0.135622,-7.00355e-05,0.44379,-0.0208765,-0.000149012,0.014426,0.172313,5,0.1,38,2,-3.10781,3.79445,0.610365,0.563228,0.47003,-0.036788,-0.39649,-0.383258,0.0305176,0.0121964,0.237952,5,0.1,39,2,-1.43842,3.50725,0.5552,0.342333,0.336885,0.0106528,-0.218272,-0.116944,0.0169575,0.00917982,0.278306,5,0.1
0,2.1,-1.87555,3.36348,0.705187,0.0997145,-0.190765,0.0817347,0.308499,-0.383168,0.0806302,0.0158969,0.984311,5,0.1,1,2.1,0.440677,-3.47955,1.15547,-0.033127,0.2884,0.187622,0.133675,0.24423,-0.156179,0.0246365,0.259784,5,0.1,2,2.1,-3.33658,-1.68305,0.636521,-0.468022,-0.18862,0.0270194,0.201374,0.517227,0.00577793,0.0112415,0.713505,5,0.1,3,2.1,-2.53554,-3.91627,0.589879,0.866026,0.195412,0.0452324,0,-0.0252724,-0.00584498,0.0133583,2.24664,5,0.1,4,2.1,3.30164,2.1807,0.583227,-0.0171654,0.516296,0.0199298,0.123858,0.067547,-0.0192039,0.0155146,0.386453,5,0.1,5,2.1,1.46422,-2.11216,0.500009,-0.408871,0.865145,-0.000237953,0.105053,0.0183731,0.00518188,0.021244,2.31669,5,0.1,6,2.1,-0.504975,-0.799222,0.615468,0.200268,0.777299,-0.0151024,-0.166299,-0.295211,0.0125431,0.0391959,0.441963,5,0.1,7,2.1,1.45054,1.06011,0.584286,-0.300001,0.278487,0.012756,0.246219,-0.388458,-0.0346974,0.0080518,0.119972,5,0.1,8,2.1,-0.639739,0.203663,0.62906,-0.24389,0.307892,0.0244803,0.0279285,0.157988,-0.00492856,0.034724,1.19907,5,0.1,9,2.1,1.20299,1.31491,0.737686,-0.0104176,0.0550056,0.0193064,-0.274591,-0.0850037,-0.0298284,0.00807224,1.29621,5,0.1,10,2.1,3.14522,3.33519,0.590849,-0.192355,-0.142827,0.016042,-0.216514,-0.260189,-0.0225231,0.0167409,0.406036,5,0.1,11,2.1,0.152594,-3.32517,0.553674,-0.428158,0.0626553,0.0225945,0.167217,-0.164196,0.0642054,0.0149144,0.155653,5,0.1,12,2.1,3.10328,3.06041,0.561453,-0.118113,-0.268746,-0.0308375,-0.0400841,-0.194207,-0.119288,0.00818345,0.248838,5,0.1,13,2.1,-2.28355,2.64937,0.74947,0.432876,-0.257355,0.0147814,-0.734121,-0.0583082,0.121728,0.00810403,0.367847,5,0.1,14,2.1,4.05535,-1.31826,0.682571,0.155278,-0.837269,-0.00526318,-0.109822,0.138752,0.00372157,0.0093849,0.665458,5,0.1,15,2.1,-3.29675,-0.0462492,0.598612,0.316172,-0.259596,0.00141775,-0.516787,0.257146,-0.00137463,0.0106494,0.156079,5,0.1,16,2.1,-0.324643,-0.0877334,0.599287,0.0319496,0.307621,0.000926014,-0.0185762,0.295062,-0.000517815,0.0260143,0.126211,5,0.1,17,2.1,-2.26544,2.98841,0.627972,0.2861,-0.397342,-0.0103353,0.0808984,0.271812,-0.0992343,0.0120719,0.45519,5,0.1,18,2.1,-2.11124,-0.869289,0.557533,0.379997,0.51098,0.0220749,-0.124276,0.105288,0.0345968,0.0129883,0.367947,5,0.1,19,2.1,1.70745,-0.795135,0.500049,-0.221216,0.866026,-1.6205e-05,0.0264347,-3.72529e-06,-0.000536442,0.0162934,2.24176,5,0.1,20,2.1,-2.54925,-0.511156,0.600367,0.585188,0.296412,-0.00399351,0.141844,-0.148058,0.0114813,0.0145728,0.49375,5,0.1,21,2.1,2.29587,-1.04356,0.663696,0.0334915,-0.230562,0.041521,-0.0414103,0.285313,-0.0513494,0.0130399,0.00546967,5,0.1,22,2.1,-2.63638,3.10304,0.588999,0.38053,-0.515161,0.000289269,-0.246853,0.312418,-0.000350177,0.0189834,0.699851,5,0.1,23,2.1,1.46198,-0.171861,0.500037,-0.180704,0.866025,0.000204798,0.0308082,1.19209e-06,-0.000383705,0.0111445,2.05874,5,0.1,24,2.1,2.59829,2.91378,0.500007,-0.0113871,0.114755,-3.99537e-05,0.00576675,-0.209004,0.000115484,0.0142396,0.483596,5,0.1,25,2.1,-0.553566,1.67397,0.583139,0.288696,0.109655,0.0192034,-0.147555,-0.269532,-0.00981614,0.0126265,0.166546,5,0.1,26,2.1,-1.12274,3.76837,0.734274,0.242487,0.320636,0.0179109,-0.0752136,-0.163689,-0.00916794,0.03743,0.0818532,5,0.1,27,2.1,-2.04275,-3.2032,0.598156,0.280649,0.0177208,0.0138337,-0.502348,-0.307158,-0.00796467,0.037097,0.362487,5,0.1,28,2.1,0.569596,2.49799,0.59272,-0.122351,-0.457347,0.00744704,0.12118,1.04308,-0.00736117,0.011612,0.734768,5,0.1,29,2.1,2.44615,3.56858,0.596144,0.348032,-0.121274,0.00394117,-0.251263,0.120118,-0.0039041,0.010603,0.508028,5,0.1,30,2.1,3.27217,2.77424,0.640225,-0.276547,0.16093,0.0806328,0.91137,-0.844344,0.171542,0.00902718,0.638196,5,0.1,31,2.1,-4.2406,-0.0378797,0.601307,-0.137961,-0.601482,-0.0236652,0.147521,0.443249,0.0192337,0.0111628,0.175322,5,0.1,32,2.1,-0.945701,-3.51567,0.623223,-0.336502,0.25809,0.0309777,0.24293,-0.186339,-0.0223629,0.0103716,0.118151,5,0.1,33,2.1,3.64799,-1.90058,0.702322,-0.0551589,0.866025,0.0132787,0.00286102,1.49012e-05,-0.000681728,0.0199293,2.26983,5,0.1,34,2.1,-1.97425,3.14536,0.50004,0.133726,-0.187102,-2.1141e-05,-0.787236,-0.273108,-0.000666827,0.0109892,0.39111,5,0.1,35,2.1,-1.76259,-3.2544,0.580314,0.237793,0.136862,0.00495594,0.415958,-0.652,-0.082761,0.00786376,0.270918,5,0.1,36,2.1,-0.970595,1.11947,0.500004,0.309133,-0.865539,-1.07102e-05,0.352621,0.0194609,-1.11759e-05,0.0234349,2.23484,5,0.1,37,2.1,0.0776709,-0.404285,0.500026,-0.392203,0.140794,-7.72066e-05,0.283137,0.10296,-3.72529e-06,0.014426,0.172313,5,0.1,38,2.1,-3.05334,3.83965,0.60683,0.526806,0.43464,-0.0339739,-0.350133,-0.338554,0.0268593,0.0121964,0.237952,5,0.1,39,2.1,-1.40512,3.54046,0.55636,0.324951,0.328029,0.0125915,-0.146672,-0.0769645,0.0202805,0.00917982,0.278306,5,0.1
0,2.2,-1.86415,3.34245,0.713704,0.126997,-0.229585,0.0879273,0.227869,-0.365376,0.0399053,0.0110651,0.823695,5,0.1,1,2.2,0.43799,-3.44957,1.17345,-0.0210539,0.309718,0.171819,0.107586,0.163317,-0.164032,0.0167155,0.214925,5,0.1,2,2.2,-3.38228,-1.7,0.639238,-0.444543,-0.156856,0.0271499,0.279069,0.133872,-0.0038743,0.0125702,0.581956,5,0.1,3,2.2,-2.44893,-3.89688,0.594367,0.866026,0.191873,0.0444129,0,-0.0534058,-0.0123084,0.0101883,1.83403,5,0.1,4,2.2,3.30047,2.23253,0.585122,-0.00720024,0.51828,0.0179529,0.0762939,-0.0487566,-0.0205636,0.015969,0.303587,5,0.1,5,2.2,1.42437,-2.02559,0.500004,-0.383243,0.866026,9.83477e-05,0.389338,0,0.00175834,0.027814,2.28889,5,0.1,6,2.2,-0.485785,-0.723124,0.614021,0.183368,0.742581,-0.0138283,-0.176042,-0.419587,0.0132918,0.0322742,0.300693,5,0.1,7,2.2,1.42181,1.08603,0.585385,-0.274065,0.239766,0.00922531,0.276923,-0.386894,-0.0351071,0.0106864,0.171266,5,0.1,8,2.2,-0.663332,0.235643,0.631423,-0.222288,0.33439,0.0222728,0.370175,0.320949,-0.0362098,0.0394994,1.01063,5,0.1,9,2.2,1.2,1.31999,0.739471,-0.0550151,0.0467986,0.0164255,-0.601113,-0.0796914,-0.0279248,0.00774855,0.328072,5,0.1,10,2.2,3.12485,3.3196,0.592341,-0.215042,-0.168425,0.013797,-0.214815,-0.234127,-0.0224411,0.016407,0.318173,5,0.1,11,2.2,0.110555,-3.31967,0.556234,-0.412636,0.0478983,0.028345,0.164773,-0.132084,0.0485182,0.0139728,0.0912443,5,0.1,12,2.2,3.09107,3.03282,0.557777,-0.127411,-0.280452,-0.0424802,-0.124216,-0.0352859,-0.107676,0.00968843,0.279433,5,0.1,13,2.2,-2.2443,2.62316,0.751685,0.349188,-0.267965,0.0304133,-0.909686,-0.124216,0.1764,0.00650521,0.245084,5,0.1,14,2.2,4.07031,-1.4011,0.682064,0.143826,-0.816673,-0.00487566,-0.122786,0.299573,0.00417233,0.0100827,0.462777,5,0.1,15,2.2,-3.26785,-0.0709378,0.598747,0.261039,-0.234178,0.0012815,-0.575066,0.256765,-0.00140071,0.0118944,0.280532,5,0.1,16,2.2,-0.321547,-0.0556922,0.599376,0.0299141,0.330864,0.000867248,-0.0228286,0.155425,-0.000625849,0.0270964,0.0710352,5,0.1,17,2.2,-2.23655,2.95016,0.626469,0.290006,-0.366253,-0.0193834,-0.0122786,0.352144,-0.0793338,0.0123459,0.353107,5,0.1,18,2.2,-2.07396,-0.817914,0.559889,0.364512,0.513661,0.0247955,-0.195146,-0.0660419,0.0190139,0.0118826,0.248251,5,0.1,19,2.2,1.68549,-0.708532,0.500045,-0.217426,0.866026,-6.10948e-05,0.0583529,0,-0.000298023,0.0134074,2.0748,5,0.1,20,2.2,-2.49025,-0.482288,0.600022,0.591761,0.280409,-0.00293255,-0.0309944,-0.180364,0.00968575,0.0125508,0.34487,5,0.1,21,2.2,2.299,-1.06517,0.667588,0.0292718,-0.201476,0.0362858,-0.043273,0.297606,-0.0535846,0.01207,0.00168217,5,0.1,22,2.2,-2.59946,3.05309,0.58903,0.358325,-0.483549,0.000376999,-0.215769,0.33617,0.00181794,0.0162998,0.553896,5,0.1,23,2.2,1.44409,-0.0852582,0.500054,-0.176579,0.866026,0.00013411,0.0584722,-5.96046e-06,-0.000953674,0.010368,1.61696,5,0.1,24,2.2,2.59736,2.92414,0.500004,-0.00541806,0.091809,-2.83122e-05,0.118017,-0.243068,0.000149012,0.0116349,0.44685,5,0.1,25,2.2,-0.52545,1.68359,0.585009,0.273244,0.0828087,0.0181749,-0.170797,-0.263155,-0.0113547,0.0117213,0.147878,5,0.1,26,2.2,-1.0989,3.7996,0.736019,0.233653,0.303483,0.0169516,-0.109375,-0.189424,-0.0106096,0.0069881,0.241019,5,0.1,27,2.2,-2.01682,-3.20282,0.599489,0.241083,-0.00872016,0.012733,-0.31203,-0.220895,-0.0137985,0.0352766,1.25737,5,0.1,28,2.2,0.55796,2.4573,0.593428,-0.110373,-0.358993,0.00672042,0.120997,0.893593,-0.00739098,0.0123818,0.459161,5,0.1,29,2.2,2.47963,3.55704,0.596519,0.320858,-0.109404,0.00355542,-0.297189,0.120044,-0.0039041,0.0110991,0.499982,5,0.1,30,2.2,3.24929,2.78578,0.648987,-0.17972,0.067699,0.0930041,0.989914,-0.973225,0.0762343,0.00782313,0.389171,5,0.1,31,2.2,-4.25367,-0.0957642,0.599038,-0.123477,-0.555399,-0.0217006,0.144482,0.491291,0.0205338,0.0128734,0.116659,5,0.1,32,2.2,-0.978222,-3.49073,0.626216,-0.314391,0.241137,0.0289425,0.214815,-0.164866,-0.0197589,0.00959196,0.0682725,5,0.1,33,2.2,3.6425,-1.81398,0.703645,-0.05458,0.866026,0.0131398,0.0110865,-5.96046e-05,-0.0026226,0.0224055,2.2699,5,0.1,34,2.2,-1.96463,3.12543,0.500035,0.0606775,-0.209755,-7.15256e-05,-0.663877,-0.169516,-0.000357628,0.00963045,0.369248,5,0.1,35,2.2,-1.73677,-3.24391,0.580406,0.277549,0.0741363,-0.00296831,0.352859,-0.590324,-0.0735223,0.00815602,0.21174,5,0.1,36,2.2,-0.937863,1.03317,0.500003,0.345173,-0.858244,-1.04308e-05,0.334054,0.155687,2.98023e-05,0.0232877,2.49363,5,0.1,37,2.2,0.0397659,-0.389631,0.500019,-0.366433,0.152478,-7.30157e-05,0.250375,0.114679,0.000119209,0.0126157,0.106329,5,0.1,38,2.2,-3.00246,3.8814,0.603568,0.490135,0.399947,-0.0312313,-0.395775,-0.365019,0.0288188,0.0136256,0.160251,5,0.1,39,2.2,-1.37335,3.57283,0.557716,0.310031,0.318635,0.0144437,-0.16427,-0.122547,0.0156462,0.00870448,0.207285,5,0.1
0,2.3,-1.85045,3.31727,0.722624,0.145543,-0.276858,0.0897401,0.139788,-0.534743,-0.00381097,0.0110651,0.823695,5,0.1,1,2.3,0.436388,-3.41825,1.18986,-0.0113476,0.312451,0.156813,0.0863001,-0.0930727,-0.141174,0.0167155,0.214925,5,0.1,2,2.3,-3.4254,-1.71573,0.641932,-0.418277,-0.163786,0.0266964,0.259697,-0.225015,-0.00607222,0.0125702,0.581956,5,0.1,3,2.3,-2.36233,-3.87791,0.598758,0.866026,0.187751,0.0434628,0,-0.0381619,-0.00879914,0.0101883,1.83403,5,0.1,4,2.3,3.30006,2.28375,0.586777,-0.0014931,0.502726,0.0148353,0.0395179,-0.258893,-0.0395291,0.015969,0.303587,5,0.1,5,2.3,1.38839,-1.93898,0.50002,-0.332973,0.866026,0.000189338,0.593282,0,0.00018999,0.027814,2.28889,5,0.1,6,2.3,-0.468277,-0.650839,0.6127,0.167197,0.70371,-0.012608,-0.152621,-0.382535,0.0115149,0.0322742,0.300693,5,0.1,7,2.3,1.39563,1.10824,0.586129,-0.250999,0.206004,0.00564484,0.197574,-0.297122,-0.035625,0.0106864,0.171266,5,0.1,8,2.3,-0.683159,0.270405,0.633538,-0.169697,0.357884,0.0205968,0.644509,0.143586,-0.00140816,0.0394994,1.01063,5,0.1,9,2.3,1.1915,1.32486,0.741366,-0.114471,0.0553986,0.0247517,-0.567578,0.215195,0.169773,0.00774855,0.328072,5,0.1,10,2.3,3.10214,3.30152,0.593612,-0.239739,-0.193516,0.0116711,-0.255987,-0.249326,-0.0202022,0.016407,0.318173,5,0.1,11,2.3,0.0699948,-3.31549,0.5593,-0.399284,0.0362143,0.0328351,0.12151,-0.102758,0.0393093,0.0139728,0.0912443,5,0.1,12,2.3,3.07794,3.00497,0.553046,-0.133095,-0.273284,-0.0515653,0.00496209,0.168234,-0.0724792,0.00968843,0.279433,5,0.1,13,2.3,-2.21388,2.59547,0.755743,0.259952,-0.287567,0.0517064,-0.864238,-0.236288,0.23425,0.00650521,0.245084,5,0.1,14,2.3,4.08412,-1.48139,0.681596,0.132491,-0.789556,-0.00449056,-0.108093,0.273891,0.00366941,0.0100827,0.462777,5,0.1,15,2.3,-3.24464,-0.0932626,0.59887,0.203063,-0.213877,0.00117067,-0.575319,0.162934,-0.00089407,0.0118944,0.280532,5,0.1,16,2.3,-0.318667,-0.0219111,0.59946,0.0276789,0.3436,0.000805315,-0.0225157,0.0863955,-0.000629574,0.0270964,0.0710352,5,0.1,17,2.3,-2.20758,2.91485,0.624193,0.289562,-0.343665,-0.0255679,-0.0102222,0.131801,-0.0448711,0.0123459,0.353107,5,0.1,18,2.3,-2.03843,-0.766889,0.562455,0.346144,0.506274,0.0264156,-0.18388,-0.09951,0.0123493,0.0118826,0.248251,5,0.1,19,2.3,1.66397,-0.62193,0.500038,-0.213476,0.866026,-8.10251e-05,0.0321418,-3.72529e-06,-0.000111759,0.0134074,2.0748,5,0.1,20,2.3,-2.4312,-0.455083,0.599774,0.588889,0.264085,-0.00204714,-0.0509322,-0.155937,0.00802055,0.0125508,0.34487,5,0.1,21,2.3,2.30172,-1.08384,0.670951,0.0250068,-0.172134,0.0310025,-0.0420362,0.289351,-0.0520982,0.01207,0.00168217,5,0.1,22,2.3,-2.56446,3.00623,0.589083,0.343462,-0.454996,0.000726152,-0.104591,0.255704,0.00471994,0.0162998,0.553896,5,0.1,23,2.3,1.42669,0.00134281,0.500063,-0.17166,0.86595,4.2934e-05,0.0475496,-0.0030145,-0.000853091,0.010368,1.61696,5,0.1,24,2.3,2.59751,2.93207,0.500001,0.0104196,0.0665922,-1.55531e-05,0.228941,-0.255272,0.000108033,0.0116349,0.44685,5,0.1,25,2.3,-0.498936,1.69059,0.586772,0.257228,0.0577513,0.0171099,-0.158008,-0.234798,-0.0105128,0.0117213,0.147878,5,0.1,26,2.3,-1.0763,3.82911,0.738053,0.216342,0.287526,0.0270136,-0.229292,-0.1432,0.186577,0.0069881,0.241019,5,0.1,27,2.3,-1.99369,-3.20466,0.600699,0.22655,-0.0267517,0.0115091,-0.0158027,-0.141248,-0.0111237,0.0352766,1.25737,5,0.1,28,2.3,0.547489,2.4255,0.594065,-0.0993444,-0.281437,0.00604717,0.102714,0.632763,-0.00626966,0.0123818,0.459161,5,0.1,29,2.3,2.50999,3.54666,0.596856,0.284085,-0.098465,0.00319965,-0.426561,0.101879,-0.00330806,0.0110991,0.499982,5,0.1,30,2.3,3.23625,2.78784,0.658733,-0.0817221,-0.0246439,0.102313,0.947699,-0.855878,0.0997372,0.00782313,0.389171,5,0.1,31,2.3,-4.26534,-0.148984,0.596964,-0.110298,-0.509959,-0.0198103,0.122458,0.433322,0.0178926,0.0128734,0.116659,5,0.1,32,2.3,-1.00871,-3.46735,0.629023,-0.296252,0.227216,0.027274,0.161879,-0.124216,-0.0148937,0.00959196,0.0682725,5,0.1,33,2.3,3.63707,-1.72738,0.704951,-0.0540763,0.866025,0.0130226,0.00226498,1.49012e-05,-0.000517815,0.0224055,2.2699,5,0.1,34,2.3,-1.96156,3.10384,0.500027,0.00390485,-0.219771,-9.00589e-05,-0.473991,-0.031665,-4.09782e-05,0.00963045,0.369248,5,0.1,35,2.3,-1.70714,-3.23925,0.579743,0.315572,0.0210483,-0.0102161,0.378154,-0.468716,-0.0691526,0.00815602,0.21174,5,0.1,36,2.3,-0.901616,0.949104,0.500002,0.379634,-0.813985,-7.82311e-06,0.327472,0.696957,2.23517e-05,0.0232877,2.49363,5,0.1,37,2.3,0.00423068,-0.373741,0.500012,-0.345291,0.165635,-5.89527e-05,0.188673,0.134457,0.000160187,0.0126157,0.106329,5,0.1,38,2.3,-2.9553,3.91968,0.60058,0.453777,0.366413,-0.0285872,-0.346482,-0.31738,0.0249855,0.0136256,0.160251,5,0.1,39,2.3,-1.34305,3.60417,0.559242,0.296752,0.308506,0.0161001,-0.116095,-0.0942498,0.0161678,0.00870448,0.207285,5,0.1
0,2.4,-1.83536,3.28693,0.731506,0.154477,-0.32866,0.0871852,0.0373721,-0.467896,-0.0469387,0.0127897,0.656628,5,0.1,1,2.4,0.435648,-3.38779,1.20484,-0.00382215,0.293928,0.142723,0.0641644,-0.264525,-0.144184,0.015765,0.183557,5,0.1,2,2.4,-3.46587,-1.73351,0.644562,-0.390357,-0.193462,0.0257909,0.307918,-0.331938,-0.0126064,0.00995193,0.455539,5,0.1,3,2.4,-2.27573,-3.85936,0.603052,0.866026,0.182706,0.0422969,0,-0.0691414,-0.0160038,0.0115102,1.41987,5,0.1,4,2.4,3.30006,2.33241,0.588048,0.0010252,0.467324,0.0104532,0.0123978,-0.444293,-0.0463426,0.0173668,0.283429,5,0.1,5,2.4,1.35824,-1.85238,0.500038,-0.26868,0.866026,0.000159442,0.674427,0,-0.000685453,0.019979,2.28259,5,0.1,6,2.4,-0.452316,-0.582484,0.611497,0.151952,0.661922,-0.011459,-0.15597,-0.470072,0.0118017,0.0338271,0.203532,5,0.1,7,2.4,1.37147,1.12744,0.58652,-0.232276,0.178808,0.00225455,0.186503,-0.253439,-0.0315607,0.00965853,0.120061,5,0.1,8,2.4,-0.696707,0.306584,0.63562,-0.100009,0.362376,0.021264,0.720233,-0.0557005,0.0116229,0.0387622,1.07971,5,0.1,9,2.4,1.17741,1.33171,0.744849,-0.165063,0.0833631,0.0459984,-0.429928,0.315726,0.236005,0.00746317,0.247108,5,0.1,10,2.4,3.07698,3.28102,0.594681,-0.262266,-0.215143,0.00973493,-0.177979,-0.17035,-0.018537,0.0153854,0.237682,5,0.1,11,2.4,0.0307311,-3.31234,0.562752,-0.385065,0.027132,0.035879,0.176336,-0.0798702,0.0202656,0.0153113,0.0946573,5,0.1,12,2.4,3.06483,2.97874,0.547595,-0.1275,-0.248796,-0.0567436,0.101566,0.311852,-0.0303388,0.00671754,0.355964,5,0.1,13,2.4,-2.19206,2.56556,0.762077,0.178218,-0.309765,0.0746161,-0.762701,-0.184774,0.21261,0.00691606,0.243857,5,0.1,14,2.4,4.09682,-1.55881,0.681165,0.121486,-0.756654,-0.00411719,-0.114441,0.405431,0.0038743,0.0121499,0.315754,5,0.1,15,2.4,-3.22715,-0.113899,0.598983,0.147563,-0.199211,0.00109076,-0.52762,0.140522,-0.00077486,0.00969047,0.267429,5,0.1,16,2.4,-0.316016,0.0126814,0.599537,0.0253059,0.346037,0.000736117,-0.0253767,-0.0458288,-0.000685453,0.0262079,0.127567,5,0.1,17,2.4,-2.17876,2.88099,0.621465,0.285673,-0.334263,-0.0284746,-0.0767708,0.0805855,-0.0139177,0.0125957,0.264012,5,0.1,18,2.4,-2.0048,-0.716933,0.565141,0.325787,0.490804,0.0270978,-0.231206,-0.22161,0.000655651,0.0148418,0.274114,5,0.1,19,2.4,1.64281,-0.535327,0.50003,-0.209039,0.866026,-8.49366e-05,0.064671,0,0,0.0138688,1.62854,5,0.1,20,2.4,-2.37276,-0.429479,0.599607,0.57748,0.247557,-0.00132769,-0.193954,-0.181422,0.00634789,0.0172797,0.234939,5,0.1,21,2.4,2.30401,-1.09962,0.673794,0.0208676,-0.14362,0.0258684,-0.0408888,0.280738,-0.0505745,0.0109367,0.00093017,5,0.1,22,2.4,-2.53061,2.96201,0.589181,0.333416,-0.428843,0.00124127,-0.113249,0.282288,0.00527501,0.0132431,0.434949,5,0.1,23,2.4,1.40979,0.0878986,0.500063,-0.165778,0.86482,-3.27826e-05,0.0753403,-0.0241053,-0.000715256,0.0151996,1.2893,5,0.1,24,2.4,2.6,2.93747,0.5,0.0420988,0.0418007,-5.96046e-06,0.391722,-0.235915,5.96046e-05,0.0100694,0.385764,5,0.1,25,2.4,-0.474039,1.69526,0.588428,0.24022,0.0363618,0.0159785,-0.187889,-0.191033,-0.012517,0.00992461,0.331557,5,0.1,26,2.4,-1.05596,3.85714,0.741841,0.18923,0.272542,0.0497833,-0.306368,-0.16582,0.249296,0.00875677,0.26713,5,0.1,27,2.4,-1.97087,-3.20792,0.601796,0.231352,-0.0373006,0.0104338,0.0833869,-0.0712872,-0.0107288,0.03623,2.22252,5,0.1,28,2.4,0.538059,2.4,0.594639,-0.0892937,-0.233597,0.00543296,0.100553,0.337124,-0.00610948,0.0109241,0.425655,5,0.1,29,2.4,2.53613,3.53732,0.59716,0.237703,-0.088501,0.00287592,-0.491142,0.099659,-0.00324845,0.0151523,0.496428,5,0.1,30,2.4,3.2326,2.78141,0.669433,0.00599623,-0.100517,0.111197,0.790954,-0.649452,0.0706017,0.00772225,0.294017,5,0.1,31,2.4,-4.27577,-0.197804,0.595073,-0.0984073,-0.46606,-0.0180185,0.117779,0.455588,0.0184178,0.00897775,0.134184,5,0.1,32,2.4,-1.03752,-3.44525,0.631676,-0.279638,0.214469,0.0257462,0.180185,-0.138283,-0.0165999,0.01238,0.0531482,5,0.1,33,2.4,3.63168,-1.64078,0.706249,-0.0535607,0.866026,0.0129014,0.0103712,-5.96046e-05,-0.00247359,0.0204853,2.26997,5,0.1,34,2.4,-1.96325,3.08192,0.500018,-0.034669,-0.216383,-8.34465e-05,-0.300646,0.0975132,0.000119209,0.00918424,0.357764,5,0.1,35,2.4,-1.67385,-3.23927,0.578398,0.348154,-0.0192225,-0.0164092,0.252604,-0.335455,-0.0531673,0.00987311,0.179448,5,0.1,36,2.4,-0.862212,0.871858,0.500002,0.405975,-0.724985,-5.96046e-06,0.180066,1.05432,0,0.0202724,2.83462,5,0.1,37,2.4,-0.0293485,-0.356567,0.500007,-0.325927,0.176974,-4.32134e-05,0.210103,0.0823736,0.000178814,0.0138968,0.151093,5,0.1,38,2.4,-2.91168,3.95474,0.597846,0.418282,0.334483,-0.02608,-0.373721,-0.329375,0.0258386,0.00994687,0.107838,5,0.1,39,2.4,-1.31398,3.6345,0.560925,0.284284,0.297368,0.0174522,-0.143826,-0.138402,0.00995398,0.0102768,0.152478,5,0.1
