id,t,px,py,pz,vx,vy,vz,ax,ay,az,planning_time,qp_cost,planning_report,size,id,t,px,py,pz,vx,vy,vz,ax,ay,az,planning_time,qp_cost,planning_report,size,id,t,px,py,pz,vx,vy,vz,ax,ay,az,planning_time,qp_cost,planning_report,size,id,t,px,py,pz,vx,vy,vz,ax,ay,az,planning_time,qp_cost,planning_report,size,id,t,px,py,pz,vx,vy,vz,ax,ay,az,planning_time,qp_cost,planning_report,size,id,t,px,py,pz,vx,vy,vz,ax,ay,az,planning_time,qp_cost,planning_report,size,id,t,px,py,pz,vx,vy,vz,ax,ay,az,planning_time,qp_cost,planning_report,size,id,t,px,py,pz,vx,vy,vz,ax,ay,az,planning_time,qp_cost,planning_report,size,id,t,px,py,pz,vx,vy,vz,ax,ay,az,planning_time,qp_cost,planning_report,size,id,t,px,py,pz,vx,vy,vz,ax,ay,az,planning_time,qp_cost,planning_report,size,id,t,px,py,pz,vx,vy,vz,ax,ay,az,planning_time,qp_cost,planning_report,size,id,t,px,py,pz,vx,vy,vz,ax,ay,az,planning_time,qp_cost,planning_report,size,id,t,px,py,pz,vx,vy,vz,ax,ay,az,planning_time,qp_cost,planning_report,size,id,t,px,py,pz,vx,vy,vz,ax,ay,az,planning_time,qp_cost,planning_report,size,id,t,px,py,pz,vx,vy,vz,ax,ay,az,planning_time,qp_cost,planning_report,size,id,t,px,py,pz,vx,vy,vz,ax,ay,az,planning_time,qp_cost,planning_report,size,id,t,px,py,pz,vx,vy,vz,ax,ay,az,planning_time,qp_cost,planning_report,size,id,t,px,py,pz,vx,vy,vz,ax,ay,az,planning_time,qp_cost,planning_report,size,id,t,px,py,pz,vx,vy,vz,ax,ay,az,planning_time,qp_cost,planning_report,size,id,t,px,py,pz,vx,vy,vz,ax,ay,az,planning_time,qp_cost,planning_report,size,id,t,px,py,pz,vx,vy,vz,ax,ay,az,planning_time,qp_cost,planning_report,size,id,t,px,py,pz,vx,vy,vz,ax,ay,az,planning_time,qp_cost,planning_report,size,id,t,px,py,pz,vx,vy,vz,ax,ay,az,planning_time,qp_cost,planning_report,size,id,t,px,py,pz,vx,vy,vz,ax,ay,az,planning_time,qp_cost,planning_report,size,id,t,px,py,pz,vx,vy,vz,ax,ay,az,planning_time,qp_cost,planning_report,size,id,t,px,py,pz,vx,vy,vz,ax,ay,az,planning_time,qp_cost,planning_report,size,id,t,px,py,pz,vx,vy,vz,ax,ay,az,planning_time,qp_cost,planning_report,size,id,t,px,py,pz,vx,vy,vz,ax,ay,az,planning_time,qp_cost,planning_report,size,id,t,px,py,pz,vx,vy,vz,ax,ay,az,planning_time,qp_cost,planning_report,size,id,t,px,py,pz,vx,vy,vz,ax,ay,az,planning_time,qp_cost,planning_report,size,id,t,px,py,pz,vx,vy,vz,ax,ay,az,planning_time,qp_cost,planning_report,size,id,t,px,py,pz,vx,vy,vz,ax,ay,az,planning_time,qp_cost,planning_report,size,id,t,px,py,pz,vx,vy,vz,ax,ay,az,planning_time,qp_cost,planning_report,size,id,t,px,py,pz,vx,vy,vz,ax,ay,az,planning_time,qp_cost,planning_report,size,id,t,px,py,pz,vx,vy,vz,ax,ay,az,planning_time,qp_cost,planning_report,size,id,t,px,py,pz,vx,vy,vz,ax,ay,az,planning_time,qp_cost,planning_report,size,id,t,px,py,pz,vx,vy,vz,ax,ay,az,planning_time,qp_cost,planning_report,size,id,t,px,py,pz,vx,vy,vz,ax,ay,az,planning_time,qp_cost,planning_report,size,id,t,px,py,pz,vx,vy,vz,ax,ay,az,planning_time,qp_cost,planning_report,size,id,t,px,py,pz,vx,vy,vz,ax,ay,az,planning_time,qp_cost,planning_report,size
0,0,-0.919246,0.520246,0.502304,0,0,0,0,0,0,0.0324925,1.12664,5,0.1,1,0,0.879572,-0.898247,0.639961,0,0,0,0,0,0,0.0241601,0.800006,5,0.1,2,0,-3.8326,3.13284,0.675825,0,0,0,0,0,0,0.0242696,2.27846,5,0.1,3,0,-2.70131,3.8416,0.619224,0,0,0,0,0,0,0.0157842,3.38172,5,0.1,4,0,0.854452,-3.54212,0.59245,0,0,0,0,0,0,0.0183813,1.22175,5,0.1,5,0,3.9825,0.0713043,0.621208,0,0,0,0,0,0,0.0147922,3.51219,5,0.1,6,0,-3.6836,-3.60073,0.669175,0,0,0,0,0,0,0.00816367,0.796087,5,0.1,7,0,-3.54505,-4.25892,0.526244,0,0,0,0,0,0,0.0163494,3.5122,5,0.1,8,0,0.945966,3.99873,0.579447,0,0,0,0,0,0,0.0170335,3.51219,5,0.1,9,0,-0.560142,-1.6366,0.58605,0,0,0,0,0,0,0.0136385,3.5122,5,0.1,10,0,1.91729,-2.32433,0.671396,0,0,0,0,0,0,0.0122959,1.77754,5,0.1,11,0,-0.79002,-2.8479,0.606853,0,0,0,0,0,0,0.00983034,1.6136,5,0.1,12,0,-3.60457,0.885633,0.503099,0,0,0,0,0,0,0.00948308,0.373347,5,0.1,13,0,1.61631,3.32955,0.574678,0,0,0,0,0,0,0.0143229,2.21826,5,0.1,14,0,-3.65843,-2.85034,0.511233,0,0,0,0,0,0,0.0163431,1.49537,5,0.1,15,0,2.32223,2.63219,0.503521,0,0,0,0,0,0,0.0106175,2.17898,5,0.1,16,0,0.274802,4.10082,0.60911,0,0,0,0,0,0,0.0205551,3.51219,5,0.1,17,0,3.51813,-1.1706,0.533668,0,0,0,0,0,0,0.0282481,3.5122,5,0.1,18,0,3.4368,-4.23501,0.693921,0,0,0,0,0,0,0.0121057,3.51219,5,0.1,19,0,1.66687,-3.44502,0.613273,0,0,0,0,0,0,0.0318155,3.5122,5,0.1,20,0,4.28577,1.71932,0.590997,0,0,0,0,0,0,0.0210803,2.57286,5,0.1,21,0,0.0532017,2.95694,0.612607,0,0,0,0,0,0,0.00999619,1.27154,5,0.1,22,0,-2.7095,-4.37347,0.59446,0,0,0,0,0,0,0.0145571,3.5122,5,0.1,23,0,2.36346,-2.96968,0.611289,0,0,0,0,0,0,0.020707,2.10326,5,0.1,24,0,3.66205,1.29623,0.633071,0,0,0,0,0,0,0.0105124,3.5122,5,0.1,25,0,-4.31189,4.29626,0.676781,0,0,0,0,0,0,0.0122918,3.5122,5,0.1,26,0,-2.00814,-1.09884,0.693816,0,0,0,0,0,0,0.0159297,3.51257,5,0.1,27,0,2.0543,3.8393,0.687759,0,0,0,0,0,0,0.01406,3.51238,5,0.1,28,0,-1.3619,-2.09073,0.557389,0,0,0,0,0,0,0.0129223,0.475832,5,0.1,29,0,1.42596,-1.48678,0.574727,0,0,0,0,0,0,0.0111615,3.17676,5,0.1,30,0,2.18882,1.38748,0.597638,0,0,0,0,0,0,0.0116124,2.71528,5,0.1,31,0,4.37881,3.2829,0.568869,0,0,0,0,0,0,0.0330516,3.5122,5,0.1,32,0,-1.48041,-1.48972,0.65591,0,0,0,0,0,0,0.0343766,3.51219,5,0.1,33,0,-3.44872,-0.282381,0.512528,0,0,0,0,0,0,0.0173147,3.3605,5,0.1,34,0,1.02891,3.02873,0.635159,0,0,0,0,0,0,0.0101067,3.5122,5,0.1,35,0,1.44385,-4.00238,0.683806,0,0,0,0,0,0,0.0166483,3.51593,5,0.1,36,0,-1.21244,-0.310012,0.516327,0,0,0,0,0,0,0.00925928,2.41211,5,0.1,37,0,-0.922978,-3.69869,0.618377,0,0,0,0,0,0,0.0160365,3.5122,5,0.1,38,0,-3.69636,-1.67764,0.617744,0,0,0,0,0,0,0.0397578,1.83778,5,0.1,39,0,3.10268,3.2884,0.613086,0,0,0,0,0,0,0.015723,0.437113,5,0.1
0,0.1,-0.918443,0.521112,0.502285,0.0227958,0.0245891,-0.000560004,0.405259,0.437144,-0.0099577,0.0324925,1.12664,5,0.1,1,0.1,0.879906,-0.897309,0.639919,0.00949558,0.026619,-0.00118418,0.168808,0.47322,-0.0210516,0.0241601,0.800006,5,0.1,2,0.1,-3.83111,3.13208,0.675902,0.0424542,-0.0217173,0.00219811,0.754744,-0.386074,0.0390783,0.0242696,2.27846,5,0.1,3,0.1,-2.69927,3.84181,0.619204,0.0578254,0.00617653,-0.000569783,1.028,0.109792,-0.0101253,0.0157842,3.38172,5,0.1,4,0.1,0.853247,-3.54187,0.592458,-0.0342113,0.00717565,0.000223797,-0.608202,0.127554,0.00397488,0.0183813,1.22175,5,0.1,5,0.1,3.98203,0.0733376,0.621193,-0.0134505,0.0577202,-0.000417978,-0.239134,1.02614,-0.00742823,0.0147922,3.51219,5,0.1,6,0.1,-3.68423,-3.60148,0.669005,-0.0178088,-0.0213467,-0.00483729,-0.316605,-0.379473,-0.0859946,0.00816367,0.796087,5,0.1,7,0.1,-3.54299,-4.25857,0.526276,0.0584193,0.00995994,0.00090804,1.03855,0.177026,0.016138,0.0163494,3.5122,5,0.1,8,0.1,0.947842,3.99781,0.579464,0.0532631,-0.0259917,0.000465009,0.946902,-0.46207,0.00826642,0.0170335,3.51219,5,0.1,9,0.1,-0.561977,-1.6356,0.586059,-0.0520936,0.0282651,0.000265334,-0.926111,0.50249,0.00471249,0.0136385,3.5122,5,0.1,10,0.1,1.91639,-2.32551,0.671322,-0.0257015,-0.0333577,-0.00211578,-0.456914,-0.593036,-0.0376105,0.0122959,1.77754,5,0.1,11,0.1,-0.790917,-2.84681,0.606846,-0.0254847,0.0310533,-0.000202935,-0.453062,0.552058,-0.00360981,0.00983034,1.6136,5,0.1,12,0.1,-3.6041,0.886117,0.503072,0.0134703,0.0137613,-0.000752974,0.239477,0.244644,-0.013385,0.00948308,0.373347,5,0.1,13,0.1,1.6151,3.32842,0.574704,-0.0345625,-0.0319924,0.000750273,-0.614449,-0.568733,0.013344,0.0143229,2.21826,5,0.1,14,0.1,-3.6579,-2.84909,0.511169,0.0150669,0.0355709,-0.00181459,0.267878,0.632361,-0.032261,0.0163431,1.49537,5,0.1,15,0.1,2.32059,2.6321,0.503491,-0.0465918,-0.00243597,-0.000855792,-0.828281,-0.0433177,-0.0152104,0.0106175,2.17898,5,0.1,16,0.1,0.274325,4.09879,0.609103,-0.0135332,-0.0577018,-0.000214484,-0.240589,-1.0258,-0.00381842,0.0205551,3.51219,5,0.1,17,0.1,3.51809,-1.16851,0.533707,-0.00113063,0.0592474,0.00110064,-0.0201017,1.05329,0.0195652,0.0282481,3.5122,5,0.1,18,0.1,3.43693,-4.23293,0.693908,0.00359118,0.0591576,-0.000380166,0.0638366,1.05172,-0.00675768,0.0121057,3.51219,5,0.1,19,0.1,1.66669,-3.44294,0.613266,-0.00520367,0.0590388,-0.000217836,-0.0925139,1.04959,-0.00387803,0.0318155,3.5122,5,0.1,20,0.1,4.28459,1.72066,0.591006,-0.033658,0.037952,0.000266731,-0.598341,0.674702,0.00474602,0.0210803,2.57286,5,0.1,21,0.1,0.0526764,2.95809,0.612594,-0.014912,0.0323914,-0.000373647,-0.265101,0.57584,-0.00664592,0.00999619,1.27154,5,0.1,22,0.1,-2.70807,-4.37194,0.594463,0.0405084,0.043264,9.30391e-05,0.720128,0.769138,0.00165775,0.0145571,3.5122,5,0.1,23,0.1,2.3624,-2.96846,0.611277,-0.0300329,0.0346627,-0.000334531,-0.533924,0.616238,-0.00594556,0.020707,2.10326,5,0.1,24,0.1,3.66208,1.29831,0.633006,0.000873581,0.0592327,-0.00186311,0.0155121,1.05303,-0.0331216,0.0105124,3.5122,5,0.1,25,0.1,-4.31022,4.295,0.67683,0.0472903,-0.0356995,0.00137845,0.840724,-0.63464,0.0245087,0.0122918,3.5122,5,0.1,26,0.1,-2.00689,-1.10044,0.693856,0.0354303,-0.0455199,0.00113472,0.629894,-0.809245,0.0201687,0.0159297,3.51257,5,0.1,27,0.1,2.05284,3.83786,0.687818,-0.0413496,-0.0408344,0.00168057,-0.735089,-0.725925,0.0298806,0.01406,3.51238,5,0.1,28,0.1,-1.36251,-2.09027,0.557434,-0.0174277,0.0130605,0.00126259,-0.309825,0.232205,0.0224523,0.0129223,0.475832,5,0.1,29,0.1,1.424,-1.48711,0.574754,-0.0555927,-0.00928212,0.000748876,-0.988312,-0.165023,0.0133105,0.0111615,3.17676,5,0.1,30,0.1,2.187,1.38775,0.597641,-0.0515282,0.00777952,6.99423e-05,-0.916064,0.138313,0.00124052,0.0116124,2.71528,5,0.1,31,0.1,4.37676,3.28251,0.568897,-0.0582218,-0.0110604,0.000795443,-1.03503,-0.196636,0.0141449,0.0330516,3.5122,5,0.1,32,0.1,-1.47938,-1.4879,0.655862,0.0291415,0.0515906,-0.00138022,0.518069,0.917159,-0.0245422,0.0343766,3.51219,5,0.1,33,0.1,-3.44841,-0.280363,0.512463,0.00885203,0.0572644,-0.00185296,0.157386,1.01804,-0.0329465,0.0173147,3.3605,5,0.1,34,0.1,1.02739,3.02731,0.635122,-0.0433454,-0.0404086,-0.00103042,-0.770576,-0.71837,-0.018321,0.0101067,3.5122,5,0.1,35,0.1,1.4437,-4.00047,0.68387,-0.00428669,0.0543874,0.00181794,-0.0762045,0.966892,0.0323206,0.0166483,3.51593,5,0.1,36,0.1,-1.21093,-0.310852,0.516427,0.0428533,-0.0238357,0.00282265,0.761829,-0.423744,0.0501797,0.00925928,2.41211,5,0.1,37,0.1,-0.922124,-3.69679,0.618367,0.024236,0.0540849,-0.000292435,0.430867,0.961527,-0.00519305,0.0160365,3.5122,5,0.1,38,0.1,-3.69485,-1.67761,0.617726,0.0428621,0.000819005,-0.000525638,0.761971,0.0145659,-0.00935048,0.0397578,1.83778,5,0.1,39,0.1,3.1021,3.28794,0.613072,-0.0163782,-0.0129912,-0.00038771,-0.291154,-0.230953,-0.00689551,0.015723,0.437113,5,0.1
0,0.2,-0.913812,0.526106,0.502171,0.0720471,0.0777125,-0.00177026,0.540316,0.582874,-0.013262,0.0358132,0.924783,5,0.1,1,0.2,0.881835,-0.891902,0.639678,0.0300109,0.084129,-0.00374317,0.225067,0.630945,-0.0280738,0.0290328,0.656366,5,0.1,2,0.2,-3.82248,3.12767,0.676349,0.134176,-0.0686407,0.00694692,1.00636,-0.514627,0.0521243,0.0211808,1.86936,5,0.1,3,0.2,-2.68753,3.84307,0.619088,0.182754,0.0195205,-0.00180006,1.37079,0.146389,-0.0135303,0.0120904,2.77452,5,0.1,4,0.2,0.846297,-3.54041,0.592504,-0.108124,0.0226796,0.000706315,-0.810921,0.169992,0.00533462,0.016437,1.00239,5,0.1,5,0.2,3.97929,0.0850622,0.621109,-0.042516,0.182424,-0.00132173,-0.318766,1.36818,-0.00989437,0.0108043,2.92579,5,0.1,6,0.2,-3.68785,-3.60582,0.668022,-0.0562847,-0.0674665,-0.0152886,-0.42212,-0.505924,-0.11465,0.00813603,0.653151,5,0.1,7,0.2,-3.53113,-4.25655,0.526461,0.184631,0.0314832,0.00286996,1.38474,0.235796,0.0215173,0.0141269,2.9258,5,0.1,8,0.2,0.958662,3.99253,0.579558,0.168337,-0.0821471,0.00146925,1.26255,-0.616074,0.0110269,0.014423,2.92579,5,0.1,9,0.2,-0.572559,-1.62986,0.586113,-0.164641,0.0893325,0.000837445,-1.23483,0.669956,0.00631809,0.01529,2.92579,5,0.1,10,0.2,1.91117,-2.33229,0.670892,-0.0812292,-0.105429,-0.00668615,-0.609219,-0.790715,-0.0501871,0.0141086,1.45838,5,0.1,11,0.2,-0.796094,-2.8405,0.606805,-0.0805452,0.098145,-0.00064224,-0.604063,0.736117,-0.00479817,0.00914894,1.32387,5,0.1,12,0.2,-3.60136,0.888913,0.502919,0.0425756,0.043492,-0.00238121,0.319362,0.326186,-0.0178218,0.00914127,0.306722,5,0.1,13,0.2,1.60807,3.32192,0.574856,-0.109234,-0.101107,0.00237077,-0.819266,-0.75841,0.0178218,0.0144886,1.81997,5,0.1,14,0.2,-3.65484,-2.84186,0.5108,0.0476182,0.112426,-0.00573546,0.357151,0.843048,-0.0430048,0.015844,1.22692,5,0.1,15,0.2,2.31113,2.63161,0.503317,-0.147253,-0.00769496,-0.00270307,-1.10435,-0.0578165,-0.0203252,0.0121413,1.78815,5,0.1,16,0.2,0.271577,4.08707,0.609059,-0.0427715,-0.182366,-0.000678003,-0.320777,-1.36781,-0.00506639,0.0207976,2.92579,5,0.1,17,0.2,3.51786,-1.15647,0.53393,-0.00357628,0.187251,0.00347942,-0.0267029,1.4044,0.026077,0.0281033,2.92579,5,0.1,18,0.2,3.43766,-4.22091,0.69383,0.0113487,0.186968,-0.00120103,0.0851154,1.40238,-0.0090301,0.0120254,2.92578,5,0.1,19,0.2,1.66563,-3.43095,0.613221,-0.0164449,0.186592,-0.000688434,-0.123382,1.3994,-0.0051856,0.0456195,2.9258,5,0.1,20,0.2,4.27775,1.72836,0.59106,-0.106382,0.119948,0.000843406,-0.79751,0.899553,0.00631809,0.0195369,2.11092,5,0.1,21,0.2,0.0496474,2.96467,0.612518,-0.0471291,0.102371,-0.00118017,-0.353469,0.767946,-0.00888109,0.00987902,1.04323,5,0.1,22,0.2,-2.69985,-4.36316,0.594482,0.128025,0.136745,0.000295043,0.960231,1.02544,0.00220537,0.0138788,2.92579,5,0.1,23,0.2,2.3563,-2.96142,0.611209,-0.0949204,0.109547,-0.00105649,-0.711799,0.82171,-0.00795722,0.0192939,1.72562,5,0.1,24,0.2,3.66226,1.31034,0.632627,0.0027597,0.187203,-0.00588894,0.0207424,1.40405,-0.0441372,0.00916538,2.92579,5,0.1,25,0.2,-4.30062,4.28775,0.67711,0.149453,-0.112832,0.0043571,1.12104,-0.846148,0.0326633,0.0134556,2.9258,5,0.1,26,0.2,-1.99969,-1.10969,0.694087,0.111979,-0.143868,0.00358522,0.839829,-1.07896,0.0269115,0.0162176,2.93741,5,0.1,27,0.2,2.04444,3.82956,0.68816,-0.130683,-0.129056,0.00531226,-0.980139,-0.967979,0.0398159,0.015643,2.9341,5,0.1,28,0.2,-1.36605,-2.08761,0.55769,-0.0550807,0.0412762,0.00399053,-0.41312,0.309706,0.0299215,0.0112141,0.390393,5,0.1,29,0.2,1.41271,-1.48899,0.574906,-0.1757,-0.0293374,0.0023663,-1.31774,-0.219941,0.017792,0.0118766,2.60638,5,0.1,30,0.2,2.17653,1.38933,0.597655,-0.162858,0.0245869,0.000220537,-1.2213,0.184417,0.00166893,0.0140893,2.22776,5,0.1,31,0.2,4.36493,3.28027,0.569059,-0.184011,-0.0349581,0.00251383,-1.37997,-0.262141,0.0188351,0.0322995,2.92587,5,0.1,32,0.2,-1.47346,-1.47742,0.655581,0.0921041,0.163051,-0.00436157,0.690699,1.22291,-0.0327528,0.0410963,2.92579,5,0.1,33,0.2,-3.44661,-0.268731,0.512086,0.0279784,0.180984,-0.00585616,0.209808,1.35738,-0.0439286,0.0208509,2.75714,5,0.1,34,0.2,1.01858,3.0191,0.634913,-0.136989,-0.127709,-0.0032559,-1.02752,-0.957966,-0.0244379,0.013442,2.92578,5,0.1,35,0.2,1.44283,-3.98942,0.684239,-0.0135481,0.171888,0.00574589,-0.101566,1.28925,0.0430942,0.0169872,2.96138,5,0.1,36,0.2,-1.20223,-0.315693,0.517,0.135434,-0.0753336,0.00892133,1.01584,-0.564978,0.0669062,0.0122515,1.97902,5,0.1,37,0.2,-0.917201,-3.6858,0.618307,0.0765979,0.170934,-0.000925362,0.574499,1.2821,-0.00691414,0.0144856,2.92579,5,0.1,38,0.2,-3.68614,-1.67745,0.617619,0.135463,0.00258982,-0.00166148,1.01602,0.0193715,-0.0124872,0.0409304,1.5078,5,0.1,39,0.2,3.09878,3.2853,0.612993,-0.0517607,-0.0410616,-0.00122488,-0.388265,-0.307918,-0.00920892,0.0179831,0.358629,5,0.1
0,0.3,-0.903608,0.537113,0.501936,0.134029,0.144574,-0.00283876,0.661194,0.713237,-0.00817701,0.0358132,0.924783,5,0.1,1,0.3,0.886086,-0.879987,0.639148,0.055829,0.156506,-0.00696341,0.275422,0.772081,-0.0343509,0.0290328,0.656366,5,0.1,2,0.3,-3.80348,3.11795,0.677333,0.249616,-0.127679,0.0129255,1.23143,-0.629827,0.0637695,0.0211808,1.86936,5,0.1,3,0.3,-2.66164,3.84583,0.618833,0.339994,0.036313,-0.00335127,1.67735,0.179127,-0.0165403,0.0120904,2.77452,5,0.1,4,0.3,0.830984,-3.5372,0.592604,-0.201146,0.0421826,0.00131708,-0.992317,0.208065,0.00651181,0.016437,1.00239,5,0.1,5,0.3,3.97327,0.110913,0.620921,-0.0791792,0.339778,-0.00246009,-0.391796,1.68146,-0.0121705,0.0108043,2.92579,5,0.1,6,0.3,-3.69582,-3.61537,0.665857,-0.104707,-0.125504,-0.0284406,-0.516534,-0.619128,-0.140306,0.00813603,0.653151,5,0.1,7,0.3,-3.50496,-4.25209,0.526867,0.343889,0.058613,0.00534495,1.7018,0.289947,0.0264458,0.0141269,2.9258,5,0.1,8,0.3,0.982517,3.98089,0.579766,0.313541,-0.153002,0.00273716,1.55163,-0.757158,0.0135526,0.014423,2.92579,5,0.1,9,0.3,-0.59589,-1.6172,0.586232,-0.306657,0.166385,0.00156295,-1.51756,0.823371,0.0077486,0.01529,2.92579,5,0.1,10,0.3,1.89966,-2.34722,0.669945,-0.151114,-0.196132,-0.012442,-0.745498,-0.967562,-0.0613965,0.0141086,1.45838,5,0.1,11,0.3,-0.807501,-2.8266,0.606714,-0.149839,0.182585,-0.0011933,-0.739194,0.900745,-0.00588223,0.00914894,1.32387,5,0.1,12,0.3,-3.59533,0.895072,0.502604,0.0792082,0.0809093,-0.0038173,0.390753,0.399146,-0.0109971,0.00914127,0.306722,5,0.1,13,0.3,1.5926,3.3076,0.575192,-0.203214,-0.188102,0.0044141,-1.00251,-0.928,0.0217855,0.0144886,1.81997,5,0.1,14,0.3,-3.64809,-2.82594,0.510008,0.0885867,0.209137,-0.0101152,0.437021,1.03171,-0.042785,0.015844,1.22692,5,0.1,15,0.3,2.29027,2.63052,0.502959,-0.273936,-0.0143241,-0.00433968,-1.35139,-0.070706,-0.0125207,0.0121413,1.78815,5,0.1,16,0.3,0.265515,4.06123,0.608963,-0.0796641,-0.339673,-0.00126129,-0.394231,-1.68097,-0.00623241,0.0207976,2.92579,5,0.1,17,0.3,3.51736,-1.12994,0.534423,-0.00665039,0.348769,0.00647884,-0.032872,1.72596,0.0320524,0.0281033,2.92579,5,0.1,18,0.3,3.43927,-4.19442,0.69366,0.0211384,0.348251,-0.00223881,0.104621,1.72341,-0.0110827,0.0120254,2.92578,5,0.1,19,0.3,1.6633,-3.40451,0.613124,-0.0306338,0.347537,-0.00128401,-0.151619,1.71985,-0.00635907,0.0456195,2.9258,5,0.1,20,0.3,4.26268,1.74535,0.59118,-0.197875,0.223139,0.00156835,-0.976086,1.10079,0.0077337,0.0195369,2.11092,5,0.1,21,0.3,0.0429724,2.97917,0.612351,-0.0876759,0.190458,-0.00219792,-0.432532,0.939608,-0.010848,0.00987902,1.04323,5,0.1,22,0.3,-2.6817,-4.34378,0.594523,0.238459,0.254682,0.000548549,1.18007,1.26028,0.00271201,0.0138788,2.92579,5,0.1,23,0.3,2.34286,-2.9459,0.61106,-0.176575,0.203803,-0.00196854,-0.871077,1.00547,-0.00971928,0.0192939,1.72562,5,0.1,24,0.3,3.66265,1.33687,0.631793,0.00514388,0.348681,-0.010966,0.025481,1.72552,-0.0542551,0.00916538,2.92579,5,0.1,25,0.3,-4.27944,4.27176,0.677727,0.278379,-0.210147,0.00811387,1.3777,-1.03995,0.0401512,0.0134556,2.9258,5,0.1,26,0.3,-1.98378,-1.13011,0.694594,0.209881,-0.26893,0.00665579,1.05549,-1.34329,0.0326335,0.0162176,2.93741,5,0.1,27,0.3,2.0259,3.81124,0.688911,-0.244147,-0.241243,0.00984408,-1.21772,-1.20492,0.0480935,0.015643,2.9341,5,0.1,28,0.3,-1.37385,-2.08177,0.558255,-0.10247,0.0767987,0.00742311,-0.505514,0.378922,0.0366159,0.0112141,0.390393,5,0.1,29,0.3,1.38783,-1.49315,0.575241,-0.326859,-0.0545695,0.0044059,-1.6125,-0.269189,0.0217482,0.0118766,2.60638,5,0.1,30,0.3,2.15347,1.39281,0.597686,-0.302958,0.0457412,0.000411645,-1.49454,0.225656,0.00204146,0.0140893,2.22776,5,0.1,31,0.3,4.33886,3.27529,0.569417,-0.342576,-0.0658616,0.00473494,-1.69337,-0.335574,0.0241213,0.0322995,2.92587,5,0.1,32,0.3,-1.46041,-1.45432,0.654963,0.171543,0.303696,-0.00812709,0.848889,1.50292,-0.0402331,0.0410963,2.92579,5,0.1,33,0.3,-3.44265,-0.243099,0.511268,0.0520468,0.33669,-0.0105863,0.256747,1.66099,-0.0482649,0.0208509,2.75714,5,0.1,34,0.3,0.999168,3.001,0.634452,-0.255161,-0.237879,-0.00606598,-1.26274,-1.17725,-0.0300221,0.013442,2.92578,5,0.1,35,0.3,1.44097,-3.96489,0.685052,-0.0234533,0.324962,0.0106617,-0.0932515,1.66976,0.0522472,0.0169872,2.96138,5,0.1,36,0.3,-1.18304,-0.326363,0.518264,0.251959,-0.140143,0.0165962,1.24303,-0.69136,0.0818744,0.0122515,1.97902,5,0.1,37,0.3,-0.906347,-3.66158,0.618176,0.14267,0.318385,-0.00172108,0.706043,1.57563,-0.00850856,0.0144856,2.92579,5,0.1,38,0.3,-3.66696,-1.67708,0.617384,0.252011,0.00481363,-0.00309302,1.24325,0.0237301,-0.0152625,0.0409304,1.5078,5,0.1,39,0.3,3.09145,3.27949,0.61282,-0.0962976,-0.0763845,-0.00228072,-0.475094,-0.376806,-0.0112616,0.0179831,0.358629,5,0.1
0,0.4,-0.886958,0.555073,0.501619,0.197661,0.213215,-0.0034228,0.583351,0.629216,-0.00357628,0.0365445,0.732217,5,0.1,1,0.4,0.893021,-0.860544,0.638283,0.0823349,0.230812,-0.0102699,0.242978,0.681132,-0.0302792,0.0236648,0.519325,5,0.1,2,0.4,-3.77247,3.10209,0.678938,0.368124,-0.188297,0.0190631,1.08647,-0.555634,0.056237,0.0210032,1.47906,5,0.1,3,0.4,-2.6194,3.85034,0.618417,0.501418,0.0535548,-0.00494272,1.47974,0.157952,-0.0146031,0.011226,2.19531,5,0.1,4,0.4,0.805995,-3.53196,0.592768,-0.296645,0.0622094,0.00194311,-0.875473,0.183582,0.00572205,0.016097,0.793099,5,0.1,5,0.4,3.96343,0.153156,0.620616,-0.116926,0.501783,-0.0036329,-0.346541,1.48672,-0.0107586,0.0110428,2.51137,5,0.1,6,0.4,-3.70882,-3.63097,0.662324,-0.154424,-0.18509,-0.0419438,-0.455618,-0.546098,-0.123769,0.00803956,0.516783,5,0.1,7,0.4,-3.46221,-4.2448,0.527532,0.507849,0.0865459,0.00789315,1.50478,0.256538,0.0233948,0.0167197,2.51294,5,0.1,8,0.4,1.0215,3.96187,0.580107,0.463036,-0.225949,0.00404269,1.37192,-0.669599,0.0119805,0.0147094,2.5573,5,0.1,9,0.4,-0.634015,-1.59652,0.586426,-0.452872,0.245717,0.00230819,-1.34176,0.728011,0.00685453,0.0125863,2.57324,5,0.1,10,0.4,1.88089,-2.37158,0.668399,-0.222856,-0.289255,-0.0183493,-0.657797,-0.853539,-0.0541508,0.0110889,1.15601,5,0.1,11,0.4,-0.826116,-2.80392,0.606566,-0.220978,0.26927,-0.00175983,-0.652134,0.794768,-0.0051856,0.0119558,1.04746,5,0.1,12,0.4,-3.58549,0.905124,0.502178,0.116813,0.119324,-0.00460148,0.344753,0.352114,-0.00485778,0.0100227,0.243196,5,0.1,13,0.4,1.56736,3.28424,0.575741,-0.299695,-0.277406,0.00651032,-0.884414,-0.818729,0.0191927,0.0133886,1.43998,5,0.1,14,0.4,-3.63709,-2.79996,0.508795,0.130647,0.30843,-0.0139832,0.385523,0.910044,-0.0332892,0.0170568,0.971222,5,0.1,15,0.4,2.25624,2.62874,0.502474,-0.403994,-0.0211298,-0.00523329,-1.19233,-0.0622272,-0.00545382,0.00892222,1.41532,5,0.1,16,0.4,0.255611,4.019,0.608807,-0.117648,-0.501633,-0.00186265,-0.348583,-1.4863,-0.00551343,0.0223934,2.53449,5,0.1,17,0.4,3.51653,-1.08658,0.535229,-0.00981688,0.515062,0.00956804,-0.0292063,1.52606,0.028342,0.0284246,2.51559,5,0.1,18,0.4,3.4419,-4.15112,0.693382,0.031215,0.514293,-0.00330657,0.0925064,1.52397,-0.00980496,0.0125433,2.51525,5,0.1,19,0.4,1.65949,-3.3613,0.612964,-0.0452399,0.513244,-0.00189692,-0.13411,1.52063,-0.00563264,0.0317692,2.57744,5,0.1,20,0.4,4.2381,1.77307,0.591374,-0.291812,0.32908,0.00231266,-0.861406,0.971079,0.00685453,0.0271364,1.6702,5,0.1,21,0.4,0.0320806,3.00283,0.612078,-0.129302,0.280887,-0.00324249,-0.381594,0.828862,-0.00956655,0.00845027,0.825407,5,0.1,22,0.4,-2.65206,-4.31212,0.594592,0.352156,0.376105,0.000810623,1.04332,1.11461,0.00238419,0.0172221,2.51007,5,0.1,23,0.4,2.32092,-2.92058,0.610815,-0.260407,0.300568,-0.00290275,-0.768423,0.886917,-0.00858307,0.0220037,1.36968,5,0.1,24,0.4,3.66329,1.38022,0.63043,0.00759363,0.51493,-0.0161931,0.0226498,1.5257,-0.0480115,0.0108606,2.55127,5,0.1,25,0.4,-4.24483,4.24563,0.678736,0.411117,-0.310349,0.011982,1.21808,-0.919342,0.0355244,0.0135381,2.51008,5,0.1,26,0.4,-1.95758,-1.16362,0.69542,0.312161,-0.398788,0.00979006,0.94378,-1.19543,0.02864,0.0163768,2.52087,5,0.1,27,0.4,1.99549,3.78118,0.690131,-0.361803,-0.357717,0.0144556,-1.08254,-1.07217,0.0421405,0.0145385,2.52329,5,0.1,28,0.4,-1.38658,-2.07223,0.559177,-0.151122,0.113261,0.0109479,-0.445902,0.334263,0.0323057,0.011738,0.308882,5,0.1,29,0.4,1.34722,-1.49992,0.575789,-0.482044,-0.0804782,0.0064984,-1.42258,-0.237465,0.0191927,0.01326,2.0622,5,0.1,30,0.4,2.11583,1.3985,0.597738,-0.44679,0.0674605,0.000606477,-1.31869,0.19902,0.00181794,0.0147809,1.76263,5,0.1,31,0.4,4.29628,3.26704,0.57001,-0.50565,-0.0985324,0.00708401,-1.49632,-0.302792,0.0217557,0.0354056,2.51222,5,0.1,32,0.4,-1.43908,-1.41656,0.653953,0.253332,0.448498,-0.0120029,0.750601,1.32883,-0.0355542,0.0338517,2.51008,5,0.1,33,0.4,-3.43618,-0.201272,0.509977,0.0767529,0.496542,-0.0150919,0.226617,1.46539,-0.0401139,0.0131613,2.18191,5,0.1,34,0.4,0.967446,2.97143,0.633698,-0.376824,-0.351304,-0.00896007,-1.11645,-1.04082,-0.0265241,0.0127509,2.33801,5,0.1,35,0.4,1.4382,-3.92411,0.686375,-0.0316441,0.487989,0.0156775,-0.0683069,1.51467,0.0458956,0.0187831,2.54185,5,0.1,36,0.4,-1.15174,-0.343772,0.520325,0.371584,-0.20668,0.0244752,1.09667,-0.609934,0.0722408,0.0102561,1.56582,5,0.1,37,0.4,-0.888609,-3.622,0.617962,0.210695,0.470191,-0.00254214,0.624239,1.39308,-0.00748038,0.0152007,2.51007,5,0.1,38,0.4,-3.63565,-1.67648,0.616999,0.371659,0.00709891,-0.00456125,1.09684,0.0209212,-0.0135005,0.0368387,1.19299,5,0.1,39,0.4,3.07948,3.27,0.612536,-0.14202,-0.112647,-0.00336468,-0.419021,-0.332475,-0.00989437,0.0193372,0.283752,5,0.1
0,0.5,-0.864222,0.579598,0.501268,0.256848,0.277055,-0.00352189,0.571352,0.616275,0.0012815,0.0365445,0.732217,5,0.1,1,0.5,0.902492,-0.833995,0.637102,0.106988,0.29992,-0.0133422,0.237986,0.667132,-0.0296645,0.0236648,0.519325,5,0.1,2,0.5,-3.73013,3.08043,0.681131,0.478356,-0.244675,0.024769,1.06408,-0.54428,0.0550859,0.0210032,1.47906,5,0.1,3,0.5,-2.56176,3.8565,0.617848,0.650681,0.0695828,-0.0064238,1.43349,0.154719,-0.0142939,0.011226,2.19531,5,0.1,4,0.5,0.771874,-3.5248,0.592991,-0.38547,0.0808362,0.0025236,-0.857458,0.179812,0.00560656,0.016097,0.793099,5,0.1,5,0.5,3.94995,0.210864,0.620197,-0.152585,0.651462,-0.00474015,-0.348315,1.43436,-0.010822,0.0110428,2.51137,5,0.1,6,0.5,-3.72659,-3.65225,0.6575,-0.200653,-0.2405,-0.0545018,-0.44629,-0.534922,-0.121232,0.00803956,0.516783,5,0.1,7,0.5,-3.40386,-4.23483,0.528441,0.657777,0.112946,0.0103006,1.42333,0.257909,0.023514,0.0167197,2.51294,5,0.1,8,0.5,1.07432,3.9362,0.580533,0.589048,-0.284414,0.0041591,1.10941,-0.487462,-0.00780076,0.0147094,2.5573,5,0.1,9,0.5,-0.685678,-1.56874,0.586668,-0.576069,0.305365,0.00232896,-1.08422,0.460334,-0.00527874,0.0125863,2.57324,5,0.1,10,0.5,1.85529,-2.40472,0.666292,-0.288728,-0.372048,-0.0237458,-0.628836,-0.768304,-0.051301,0.0110889,1.15601,5,0.1,11,0.5,-0.851534,-2.77294,0.606363,-0.287144,0.349905,-0.0022863,-0.638727,0.778362,-0.00508502,0.0119558,1.04746,5,0.1,12,0.5,-3.57206,0.918849,0.501705,0.15179,0.15505,-0.00473782,0.337645,0.34488,0.00170618,0.0100227,0.243196,5,0.1,13,0.5,1.53289,3.25233,0.57649,-0.389428,-0.360472,0.0084579,-0.866227,-0.801846,0.0187978,0.0133886,1.43998,5,0.1,14,0.5,-3.62206,-2.76448,0.507273,0.169764,0.400768,-0.0160522,0.377595,0.891387,-0.00922754,0.0170568,0.971222,5,0.1,15,0.5,2.20977,2.62631,0.501937,-0.524967,-0.0274453,-0.00538351,-1.16776,-0.0609607,0.00197068,0.00892222,1.41532,5,0.1,16,0.5,0.24226,3.96161,0.608591,-0.147671,-0.642672,-0.00244491,-0.246433,-1.28227,-0.00581145,0.0223934,2.53449,5,0.1,17,0.5,3.5154,-1.02746,0.536331,-0.012821,0.665272,0.0124848,-0.0293255,1.41014,0.028491,0.0284246,2.51559,5,0.1,18,0.5,3.44549,-4.09209,0.693001,0.0407342,0.664483,-0.004315,0.0929683,1.41156,-0.00984967,0.0125433,2.51525,5,0.1,19,0.5,1.6541,-3.30291,0.612726,-0.0639182,0.648253,-0.0030241,-0.221506,1.14679,-0.0153966,0.0317692,2.57744,5,0.1,20,0.5,4.20454,1.81092,0.591641,-0.379209,0.427608,0.00300771,-0.843644,0.951141,0.0067018,0.0271364,1.6702,5,0.1,21,0.5,0.0172075,3.03513,0.611705,-0.168019,0.364983,-0.00421293,-0.373742,0.8118,-0.00936538,0.00845027,0.825407,5,0.1,22,0.5,-2.61148,-4.26877,0.594685,0.459519,0.490797,0.00105631,1.0487,1.12021,0.00240654,0.0172221,2.51007,5,0.1,23,0.5,2.29116,-2.88607,0.610476,-0.333069,0.388777,-0.00392301,-0.658363,0.837058,-0.0110604,0.0220037,1.36968,5,0.1,24,0.5,3.66416,1.43885,0.628564,0.00992045,0.651904,-0.0211333,0.0227094,1.1826,-0.0482537,0.0108606,2.55127,5,0.1,25,0.5,-4.19745,4.20987,0.680117,0.536462,-0.404957,0.0156373,1.22431,-0.92411,0.0357032,0.0135381,2.51008,5,0.1,26,0.5,-1.92154,-1.20957,0.696551,0.408624,-0.519757,0.0128725,0.937253,-1.1654,0.0311844,0.0163768,2.52087,5,0.1,27,0.5,1.95389,3.74007,0.691804,-0.46905,-0.463299,0.0191175,-1.01448,-0.99346,0.0481345,0.0145385,2.52329,5,0.1,28,0.5,-1.40396,-2.0592,0.560437,-0.196364,0.147173,0.014226,-0.43676,0.327364,0.0316426,0.011738,0.308882,5,0.1,29,0.5,1.29177,-1.50918,0.576536,-0.626379,-0.104573,0.00844486,-1.39333,-0.232607,0.0187829,0.01326,2.0622,5,0.1,30,0.5,2.06444,1.40626,0.597807,-0.580584,0.0876542,0.000790227,-1.29153,0.194952,0.00176951,0.0147809,1.76263,5,0.1,31,0.5,4.23817,3.25562,0.570831,-0.655371,-0.129927,0.00934014,-1.42688,-0.308707,0.0221841,0.0354056,2.51222,5,0.1,32,0.5,-1.40989,-1.36488,0.65257,0.330571,0.585238,-0.0156612,0.754476,1.33566,-0.0357367,0.0338517,2.51008,5,0.1,33,0.5,-3.42735,-0.144157,0.508315,0.0997439,0.64522,-0.0176969,0.221938,1.43524,-0.0131838,0.0131613,2.18191,5,0.1,34,0.5,0.92407,2.93099,0.632666,-0.49037,-0.457158,-0.0116578,-1.09836,-1.02393,-0.0261031,0.0127509,2.33801,5,0.1,35,0.5,1.4347,-3.86762,0.688178,-0.0381114,0.641217,0.0203834,-0.0583008,1.47514,0.0458248,0.0187831,2.54185,5,0.1,36,0.5,-1.109,-0.367546,0.523141,0.48285,-0.268564,0.0318044,1.07407,-0.597395,0.070747,0.0102561,1.56582,5,0.1,37,0.5,-0.86433,-3.56781,0.61767,0.274932,0.613544,-0.00331299,0.627458,1.40026,-0.00754371,0.0152007,2.51007,5,0.1,38,0.5,-3.5929,-1.67567,0.616474,0.482944,0.00922251,-0.00592992,1.07427,0.0205114,-0.0132099,0.0368387,1.19299,5,0.1,39,0.5,3.06315,3.25704,0.61215,-0.184535,-0.14638,-0.00436911,-0.410438,-0.325635,-0.00970438,0.0193372,0.283752,5,0.1
0,0.6,-0.835896,0.610153,0.500928,0.306986,0.331137,-0.00322461,0.411004,0.44331,0.00438094,0.0331208,0.545755,5,0.1,1,0.6,0.914291,-0.800919,0.635631,0.127873,0.358464,-0.0159472,0.171185,0.479966,-0.0213087,0.0310803,0.386627,5,0.1,2,0.6,-3.67737,3.05344,0.683862,0.571734,-0.292432,0.0296026,0.765443,-0.391722,0.0396371,0.0225251,1.10112,5,0.1,3,0.6,-2.49008,3.86418,0.61714,0.775903,0.0831604,-0.00767708,1.02091,0.111461,-0.0102818,0.0134663,1.6864,5,0.1,4,0.6,0.729363,-3.51589,0.593269,-0.460716,0.0966191,0.003016,-0.616819,0.129223,0.00399351,0.0180648,0.590443,5,0.1,5,0.6,3.93307,0.28261,0.619673,-0.183457,0.776474,-0.0056982,-0.256062,1.01662,-0.00798702,0.0128189,2.31004,5,0.1,6,0.6,-3.74872,-3.67878,0.651489,-0.239819,-0.287443,-0.0651404,-0.321031,-0.384808,-0.0872016,0.00781814,0.384741,5,0.1,7,0.6,-3.33157,-4.22233,0.529581,0.780779,0.135791,0.0123844,0.989914,0.19002,0.0172853,0.0154322,2.32097,5,0.1,8,0.6,1.13808,3.9057,0.58089,0.678509,-0.321519,0.00281483,0.654757,-0.247359,-0.0175834,0.0125827,2.36266,5,0.1,9,0.6,-0.748026,-1.53637,0.586863,-0.663468,0.33724,0.0014618,-0.6392,0.176191,-0.0111759,0.017237,2.32001,5,0.1,10,0.6,1.82353,-2.4454,0.663682,-0.343388,-0.437176,-0.02819,-0.442982,-0.511289,-0.0358224,0.0149156,1.02676,5,0.1,11,0.6,-0.883201,-2.73435,0.606111,-0.343195,0.41821,-0.00273287,-0.459492,0.559926,-0.00363588,0.0100938,0.779803,5,0.1,12,0.6,-3.55532,0.935948,0.501248,0.181419,0.185315,-0.00433922,0.242949,0.248104,0.00590086,0.00983723,0.181688,5,0.1,13,0.6,1.48994,3.21257,0.577422,-0.465444,-0.43084,0.010106,-0.623167,-0.576735,0.0135601,0.0146867,1.07202,5,0.1,14,0.6,-3.60334,-2.72028,0.505653,0.2029,0.479001,-0.0160441,0.271559,0.641108,0.00837445,0.0163596,0.723644,5,0.1,15,0.6,2.15188,2.62328,0.501418,-0.627446,-0.0328004,-0.0049293,-0.840068,-0.0437498,0.00673532,0.0134882,1.0543,5,0.1,16,0.6,0.226465,3.89162,0.60832,-0.166094,-0.749362,-0.00296831,-0.119075,-0.816464,-0.00444055,0.0238125,2.40712,5,0.1,17,0.6,3.51398,-0.954526,0.537712,-0.0154197,0.785889,0.0150099,-0.0215769,0.958174,0.020951,0.0296363,2.33466,5,0.1,18,0.6,3.45,-4.01922,0.692523,0.0489771,0.785357,-0.00518858,0.0683069,0.961542,-0.00721216,0.0133505,2.33314,5,0.1,19,0.6,1.64658,-3.23319,0.612341,-0.0864059,0.737339,-0.00470877,-0.214696,0.615239,-0.0171363,0.0355605,2.78062,5,0.1,20,0.6,4.16271,1.85808,0.591972,-0.453246,0.511077,0.00359565,-0.607014,0.684261,0.00479817,0.0245016,1.24343,5,0.1,21,0.6,-0.00132211,3.07539,0.61124,-0.200816,0.436223,-0.0050351,-0.268861,0.584006,-0.00670552,0.0128653,0.614494,5,0.1,22,0.6,-2.56064,-4.21448,0.594802,0.552464,0.590086,0.00126809,0.771403,0.823736,0.00181794,0.0152345,2.21913,5,0.1,23,0.6,2.25492,-2.84336,0.610029,-0.387663,0.461167,-0.00498444,-0.415683,0.582695,-0.00956655,0.0198223,1.03027,5,0.1,24,0.6,3.66526,1.50918,0.626226,0.0119328,0.746322,-0.0254095,0.0165701,0.685632,-0.0354648,0.0104732,2.53262,5,0.1,25,0.6,-4.13811,4.16507,0.681847,0.644982,-0.486875,0.0188008,0.900269,-0.679493,0.0262558,0.0153273,2.21915,5,0.1,26,0.6,-1.87632,-1.26693,0.697986,0.491387,-0.621909,0.0157148,0.684023,-0.836551,0.0243187,0.0129343,2.35926,5,0.1,27,0.6,1.90234,3.68921,0.693947,-0.556582,-0.548625,0.0235707,-0.702918,-0.681162,0.0388026,0.0182666,2.27776,5,0.1,28,0.6,-1.42562,-2.04297,0.562006,-0.234693,0.175899,0.0170022,-0.314176,0.235438,0.0227988,0.00985816,0.229955,5,0.1,29,0.6,1.2227,-1.52071,0.577467,-0.748649,-0.124988,0.0100926,-1.00237,-0.16731,0.0135005,0.0135957,1.55778,5,0.1,30,0.6,2.00041,1.41592,0.597895,-0.693923,0.104764,0.000946224,-0.929058,0.14019,0.0012517,0.010785,1.31236,5,0.1,31,0.6,4.16609,3.24119,0.571869,-0.779116,-0.15747,0.0113204,-1.00017,-0.230432,0.0165701,0.0311198,2.19328,5,0.1,32,0.6,-1.37332,-1.30014,0.650837,0.397441,0.703624,-0.0188276,0.554919,0.982165,-0.0262856,0.0367345,2.05524,5,0.1,33,0.6,-3.41635,-0.0729999,0.506516,0.119221,0.771169,-0.0179559,0.159502,1.03247,0.00688434,0.014821,1.66954,5,0.1,34,0.6,0.869949,2.88054,0.63138,-0.586936,-0.547183,-0.013952,-0.793457,-0.739694,-0.0188947,0.0108521,1.74295,5,0.1,35,0.6,1.43063,-3.79668,0.690429,-0.0428498,0.770468,0.0244334,-0.0346303,1.05929,0.033468,0.0153333,2.34463,5,0.1,36,0.6,-1.05575,-0.397164,0.526648,0.577104,-0.320988,0.0380129,0.772655,-0.429764,0.0509024,0.0111846,1.16571,5,0.1,37,0.6,-0.833917,-3.49994,0.617303,0.330544,0.737649,-0.00398159,0.461459,1.02985,-0.00557303,0.0152006,2.25217,5,0.1,38,0.6,-3.53964,-1.67465,0.61582,0.577211,0.0110239,-0.00708699,0.772834,0.0147223,-0.00950694,0.0433996,1.0099,5,0.1,39,0.6,3.0428,3.2409,0.611668,-0.220555,-0.174958,-0.00522137,-0.295281,-0.234127,-0.00694394,0.0142078,0.211248,5,0.1
0,0.7,-0.803178,0.645445,0.500631,0.346444,0.373696,-0.00269208,0.355601,0.383556,0.00604242,0.0331208,0.545755,5,0.1,1,0.7,0.927919,-0.762714,0.633931,0.144308,0.404542,-0.0179937,0.148121,0.415262,-0.0184476,0.0310803,0.386627,5,0.1,2,0.7,-3.61644,3.02227,0.687018,0.645218,-0.330037,0.0334078,0.662223,-0.338897,0.034295,0.0225251,1.10112,5,0.1,3,0.7,-2.40844,3.87304,0.616322,0.846976,0.0938594,-0.00866381,0.42069,0.0964105,-0.00888482,0.0134663,1.6864,5,0.1,4,0.7,0.68026,-3.50559,0.593591,-0.519932,0.109028,0.00340007,-0.533666,0.111863,0.00346452,0.0180648,0.590443,5,0.1,5,0.7,3.91343,0.364297,0.619062,-0.209158,0.847237,-0.00649914,-0.241742,0.417482,-0.00753254,0.0128189,2.31004,5,0.1,6,0.7,-3.77428,-3.70941,0.644546,-0.270641,-0.324389,-0.0735126,-0.277773,-0.332952,-0.075452,0.00781814,0.384741,5,0.1,7,0.7,-3.24959,-4.20779,0.530907,0.848731,0.154857,0.0141194,0.391871,0.179261,0.0163168,0.0154322,2.32097,5,0.1,8,0.7,1.20937,3.87273,0.581048,0.74762,-0.333954,5.64381e-05,0.669628,-0.00713766,-0.0349134,0.0125827,2.36266,5,0.1,9,0.7,-0.817944,-1.50151,0.586965,-0.736849,0.361595,0.000693835,-0.758793,0.276014,-0.00466406,0.017237,2.32001,5,0.1,10,0.7,1.78728,-2.49055,0.660745,-0.378125,-0.455652,-0.0299949,-0.244223,0.104144,-0.001885,0.0149156,1.02676,5,0.1,11,0.7,-0.919778,-2.68978,0.60582,-0.387308,0.471963,-0.00308249,-0.397552,0.484407,-0.00315905,0.0100938,0.779803,5,0.1,12,0.7,-3.53598,0.955699,0.500848,0.204741,0.209135,-0.00362201,0.210181,0.214662,0.00813976,0.00983723,0.181688,5,0.1,13,0.7,1.44033,3.16665,0.578499,-0.52527,-0.48621,0.0114072,-0.539161,-0.498995,0.0117272,0.0146867,1.07202,5,0.1,14,0.7,-3.58171,-2.66923,0.504115,0.228972,0.540555,-0.0145017,0.234976,0.554755,0.0213049,0.0163596,0.723644,5,0.1,15,0.7,2.085,2.61979,0.500963,-0.708095,-0.0370037,-0.004113,-0.726804,-0.0378937,0.0092499,0.0134882,1.0543,5,0.1,16,0.7,0.209978,3.81292,0.607999,-0.157363,-0.820449,-0.00344776,0.258693,-0.570998,-0.00480562,0.0238125,2.40712,5,0.1,17,0.7,3.51233,-0.872207,0.539319,-0.0175841,0.850503,0.0171127,-0.020355,0.361484,0.0197813,0.0296363,2.33466,5,0.1,18,0.7,3.45524,-3.93693,0.691968,0.0558347,0.850319,-0.00591278,0.064522,0.364631,-0.00681728,0.0133505,2.33314,5,0.1,19,0.7,1.63647,-3.15779,0.611695,-0.118804,0.757483,-0.00893865,-0.39842,-0.171378,-0.0611171,0.0355605,2.78062,5,0.1,20,0.7,4.11441,1.91255,0.592355,-0.511518,0.576769,0.00405638,-0.525177,0.592038,0.0041537,0.0245016,1.24343,5,0.1,21,0.7,-0.0227249,3.12188,0.610704,-0.226628,0.492289,-0.0056793,-0.232617,0.505283,-0.00580773,0.0128653,0.614494,5,0.1,22,0.7,-2.50149,-4.1513,0.594938,0.629896,0.672774,0.0014497,0.728399,0.777841,0.00170618,0.0152345,2.21913,5,0.1,23,0.7,2.214,-2.79435,0.609487,-0.430524,0.5181,-0.00581946,-0.408918,0.520691,-0.00688434,0.0198223,1.03027,5,0.1,24,0.7,3.66654,1.58571,0.623505,0.0135947,0.771337,-0.0289667,0.0156313,-0.0933185,-0.0334382,0.0104732,2.53262,5,0.1,25,0.7,-4.06905,4.11294,0.68386,0.735354,-0.555089,0.021436,0.850141,-0.641763,0.0247918,0.0153273,2.21915,5,0.1,26,0.7,-1.82378,-1.33234,0.699778,0.558368,-0.67679,0.0209391,0.615977,-0.27179,0.0725165,0.0129343,2.35926,5,0.1,27,0.7,1.84333,3.63113,0.696519,-0.621099,-0.610156,0.0279914,-0.5541,-0.518993,0.0461601,0.0182666,2.27776,5,0.1,28,0.7,-1.45063,-2.02422,0.563818,-0.264856,0.198502,0.0191905,-0.271849,0.203699,0.0197217,0.00985816,0.229955,5,0.1,29,0.7,1.14352,-1.53403,0.578543,-0.827569,-0.141052,0.0113885,-0.563607,-0.144772,0.0116713,0.0135957,1.55778,5,0.1,30,0.7,1.92649,1.42709,0.597995,-0.781991,0.118224,0.00106646,-0.783682,0.121318,0.00108406,0.010785,1.31236,5,0.1,31,0.7,4.08422,3.22428,0.573084,-0.848133,-0.180416,0.0129707,-0.401765,-0.214636,0.0154376,0.0311198,2.19328,5,0.1,32,0.7,-1.33098,-1.2252,0.648834,0.447026,0.790889,-0.0210989,0.415243,0.726119,-0.0182912,0.0367345,2.05524,5,0.1,33,0.7,-3.40365,0.00828733,0.504784,0.134536,0.844891,-0.0164307,0.138015,0.453305,0.0222959,0.014821,1.66954,5,0.1,34,0.7,0.807352,2.82218,0.629892,-0.663231,-0.618308,-0.0157682,-0.688877,-0.642195,-0.0163987,0.0108521,1.74295,5,0.1,35,0.7,1.42611,-3.71539,0.69302,-0.0482075,0.845319,0.0271707,-0.0653863,0.451863,0.0205226,0.0153333,2.34463,5,0.1,36,0.7,-0.994243,-0.431375,0.5307,0.651281,-0.362247,0.0428993,0.668481,-0.371831,0.0440329,0.0111846,1.16571,5,0.1,37,0.7,-0.798524,-3.4217,0.616877,0.376865,0.820139,-0.00454132,0.435766,0.605762,-0.00526756,0.0152006,2.25217,5,0.1,38,0.7,-3.4792,-1.67348,0.615065,0.620871,0.0124387,-0.00799894,0.126913,0.0127554,-0.00821054,0.0433996,1.0099,5,0.1,39,0.7,3.01929,3.22225,0.611111,-0.248903,-0.197437,-0.00588885,-0.25548,-0.202596,-0.00601634,0.0142078,0.211248,5,0.1
0,0.8,-0.766998,0.684471,0.500393,0.374325,0.403768,-0.00205785,0.186712,0.201434,0.00652671,0.0296464,0.386069,5,0.1,1,0.8,0.94299,-0.720467,0.632052,0.15592,0.4371,-0.0194401,0.0777841,0.218034,-0.00968575,0.0278101,0.27298,5,0.1,2,0.8,-3.54906,2.98781,0.690506,0.697142,-0.356609,0.0360951,0.347733,-0.177979,0.0180304,0.0217431,0.777447,5,0.1,3,0.8,-2.32244,3.88284,0.615417,0.866026,0.101417,-0.00936091,0,0.0506639,-0.00464916,0.0111976,1.24754,5,0.1,4,0.8,0.625963,-3.4942,0.593946,-0.561774,0.117797,0.00367016,-0.280231,0.0587702,0.00184774,0.0160897,0.416887,5,0.1,5,0.8,3.89144,0.45031,0.618379,-0.229067,0.866025,-0.00711977,-0.145078,1.43051e-05,-0.00450015,0.0107304,2.232,5,0.1,6,0.8,-3.80254,-3.74329,0.636869,-0.29242,-0.350493,-0.0794277,-0.145912,-0.17488,-0.0396371,0.0075731,0.271656,5,0.1,7,0.8,-3.16353,-4.19151,0.532391,0.866026,0.169623,0.0154629,0,0.107527,0.00980496,0.0138774,2.24968,5,0.1,8,0.8,1.28712,3.83965,0.580869,0.802603,-0.324172,-0.00369698,0.389457,0.196338,-0.0380576,0.0111264,2.24059,5,0.1,9,0.8,-0.895151,-1.46404,0.587019,-0.803283,0.386429,0.000444055,-0.52014,0.195503,-0.000804663,0.013286,2.18325,5,0.1,10,0.8,1.74863,-2.53484,0.657781,-0.391144,-0.423342,-0.0288725,-0.0129342,0.50962,0.0228882,0.0129675,0.932158,5,0.1,11,0.8,-0.960226,-2.64049,0.605498,-0.418477,0.509948,-0.00333041,-0.208765,0.254154,-0.00166893,0.0101697,0.550578,5,0.1,12,0.8,-3.5146,0.977539,0.500528,0.221217,0.225966,-0.00276566,0.110388,0.112683,0.00873208,0.00974835,0.129015,5,0.1,13,0.8,1.38548,3.11588,0.579691,-0.567541,-0.525331,0.0123262,-0.283182,-0.261903,0.00613928,0.0145808,0.756908,5,0.1,14,0.8,-3.5578,-2.61278,0.502785,0.247395,0.584054,-0.0119969,0.123501,0.291348,0.027895,0.0161234,0.511679,5,0.1,15,0.8,2.01106,2.61593,0.5006,-0.765079,-0.0399768,-0.00314116,-0.381649,-0.019908,0.00995398,0.0117777,0.745125,5,0.1,16,0.8,0.19592,3.72865,0.607632,-0.120681,-0.858039,-0.00386983,0.446707,-0.15974,-0.00333786,0.0193572,2.2978,5,0.1,17,0.8,3.51048,-0.786077,0.541119,-0.0192583,0.866024,0.0187412,-0.0121593,2.98023e-05,0.0118613,0.0277961,2.27137,5,0.1,18,0.8,3.46111,-3.85081,0.691346,0.0611424,0.866026,-0.00647455,0.0388622,0,-0.00408292,0.0116111,2.269,5,0.1,19,0.8,1.62253,-3.08392,0.610466,-0.159979,0.710821,-0.0158101,-0.398815,-0.725389,-0.071466,0.0311656,3.0795,5,0.1,20,0.8,4.06099,1.97279,0.592779,-0.55269,0.623187,0.00438243,-0.27585,0.310898,0.00217557,0.0190554,0.877927,5,0.1,21,0.8,-0.046392,3.17329,0.610111,-0.244866,0.5319,-0.00613481,-0.122153,0.26536,-0.00303984,0.00906575,0.433866,5,0.1,22,0.8,-2.43526,-4.08056,0.59509,0.689882,0.736833,0.00158995,0.437379,0.467062,0.00101328,0.0151678,2.04189,5,0.1,23,0.8,2.16914,-2.74027,0.608876,-0.463909,0.559366,-0.00632107,-0.236034,0.280619,-0.00303984,0.0175143,0.740066,5,0.1,24,0.8,3.66797,1.66167,0.62046,0.0148773,0.742429,-0.0317171,0.00953674,-0.429213,-0.0200868,0.0103426,2.64437,5,0.1,25,0.8,-3.99173,4.05458,0.686114,0.805372,-0.607932,0.0234768,0.510454,-0.385761,0.0149012,0.0128199,2.04886,5,0.1,26,0.8,-1.76524,-1.40052,0.702262,0.607905,-0.678638,0.0288695,0.347674,0.221848,0.0802577,0.0131047,2.32796,5,0.1,27,0.8,1.77892,3.56799,0.699538,-0.661883,-0.647396,0.0322089,-0.23967,-0.206113,0.035733,0.0140724,1.84498,5,0.1,28,0.8,-1.47829,-2.00349,0.565822,-0.286168,0.214469,0.0207365,-0.142813,0.10699,0.0103712,0.0109196,0.162363,5,0.1,29,0.8,1.05872,-1.54876,0.579732,-0.860739,-0.152403,0.0123039,-0.105709,-0.0760555,0.00610948,0.0137339,1.14032,5,0.1,30,0.8,1.84494,1.43943,0.598107,-0.842589,0.127736,0.00115186,-0.396192,0.0637174,0.000536442,0.0102031,0.940351,5,0.1,31,0.8,3.99818,3.20528,0.57445,-0.866026,-0.198054,0.0142395,0,-0.128508,0.00923872,0.0320476,1.68108,5,0.1,32,0.8,-1.28458,-1.14315,0.646652,0.476962,0.842798,-0.0223488,0.169694,0.288546,-0.00622869,0.0373465,2.11944,5,0.1,33,0.8,-3.3896,0.0942125,0.503268,0.145358,0.866026,-0.0137389,0.0724792,-4.76837e-06,0.0303984,0.015604,1.23016,5,0.1,34,0.8,0.73805,2.75757,0.628244,-0.717403,-0.668812,-0.0170574,-0.365049,-0.340223,-0.00870228,0.0102101,1.29874,5,0.1,35,0.8,1.42095,-3.62944,0.695813,-0.0546843,0.866026,0.0284225,-0.058949,0,0.00411272,0.0148123,2.37392,5,0.1,36,0.8,-0.926229,-0.469205,0.53518,0.703691,-0.391399,0.046353,0.351012,-0.195265,0.0230968,0.0113634,0.823047,5,0.1,37,0.8,-0.758898,-3.33742,0.616399,0.41275,0.858057,-0.0049755,0.261754,0.159383,-0.00315905,0.0140977,2.15058,5,0.1,38,0.8,-3.41736,-1.67218,0.61423,0.607717,0.0134408,-0.00864267,-0.365376,0.00667572,-0.00429153,0.0449392,3.15594,5,0.1,39,0.8,2.9933,3.20163,0.610497,-0.268936,-0.213319,-0.00636131,-0.13411,-0.106454,-0.00315905,0.0149808,0.149156,5,0.1
0,0.9,-0.728675,0.725808,0.500219,0.391244,0.422021,-0.0014239,0.133745,0.144284,0.00602379,0.0296464,0.386069,5,0.1,1,0.9,0.958953,-0.675717,0.630062,0.162969,0.456858,-0.0203183,0.0557229,0.156183,-0.00694394,0.0278101,0.27298,5,0.1,2,0.9,-3.47768,2.9513,0.694202,0.728652,-0.372735,0.0377286,0.249073,-0.127494,0.0129119,0.0217431,0.777447,5,0.1,3,0.9,-2.23584,3.89323,0.614459,0.865714,0.106008,-0.00978196,-0.0124574,0.0362694,-0.00332668,0.0111976,1.24754,5,0.1,4,0.9,0.568449,-3.48214,0.594321,-0.587167,0.123123,0.00383742,-0.20073,0.0421107,0.00131875,0.0160897,0.416887,5,0.1,5,0.9,3.86778,0.536913,0.617643,-0.244045,0.866026,-0.00758441,-0.139087,-1.93715e-06,-0.00431016,0.0107304,2.232,5,0.1,6,0.9,-3.83248,-3.77917,0.628738,-0.305643,-0.366341,-0.0830195,-0.104532,-0.125289,-0.0283979,0.0075731,0.271656,5,0.1,7,0.9,-3.07692,-4.17399,0.533989,0.866026,0.180733,0.0164761,0,0.103235,0.00941381,0.0138774,2.24968,5,0.1,8,0.9,1.36933,3.80763,0.58036,0.840587,-0.321023,-0.00602184,0.328638,-0.0893623,-0.0103526,0.0111264,2.24059,5,0.1,9,0.9,-0.977834,-1.42413,0.587069,-0.847132,0.413655,0.000642706,-0.327788,0.309341,0.00416115,0.013286,2.18325,5,0.1,10,0.9,1.70975,-2.57407,0.655059,-0.383557,-0.356719,-0.0251099,0.16176,0.789195,0.0495538,0.0129675,0.932158,5,0.1,11,0.9,-1.00307,-2.58829,0.605157,-0.437394,0.53298,-0.00348175,-0.149544,0.182047,-0.00119582,0.0101697,0.550578,5,0.1,12,0.9,-3.49195,1.00067,0.500295,0.231218,0.236177,-0.00191545,0.0790656,0.0807159,0.00810251,0.00974835,0.129015,5,0.1,13,0.9,1.32737,3.0621,0.580953,-0.593201,-0.549065,0.0128826,-0.202835,-0.187635,0.00439584,0.0145808,0.756908,5,0.1,14,0.9,-3.53247,-2.55299,0.501729,0.258585,0.610457,-0.00909958,0.0884533,0.208735,0.0293031,0.0161234,0.511679,5,0.1,15,0.9,1.93273,2.61183,0.500335,-0.799662,-0.0417829,-0.00217408,-0.273362,-0.0142753,0.00919402,0.0117777,0.745125,5,0.1,16,0.9,0.185528,3.64236,0.607229,-0.0920875,-0.865526,-0.00418061,0.151055,-0.0199676,-0.00266358,0.0193572,2.2978,5,0.1,17,0.9,3.50849,-0.699475,0.543054,-0.0205137,0.866026,0.0199651,-0.0116527,0,0.0113547,0.0277961,2.27137,5,0.1,18,0.9,3.46743,-3.76421,0.690678,0.0651598,0.866026,-0.0068971,0.0373721,0,-0.00393763,0.0116111,2.269,5,0.1,19,0.9,1.60418,-3.01694,0.608457,-0.209818,0.624673,-0.0249009,-0.55591,-0.973031,-0.102993,0.0311656,3.0795,5,0.1,20,0.9,4.0044,2.03659,0.593228,-0.577684,0.651359,0.0045795,-0.197574,0.222705,0.00155717,0.0190554,0.877927,5,0.1,21,0.9,-0.0714613,3.22774,0.609483,-0.255934,0.555944,-0.00641048,-0.0874966,0.190079,-0.00217557,0.00906575,0.433866,5,0.1,22,0.9,-2.36399,-4.00444,0.595255,0.735199,0.785226,0.00169463,0.42221,0.450909,0.000968575,0.0151678,2.04189,5,0.1,23,0.9,2.12157,-2.68298,0.608231,-0.486857,0.585316,-0.00655213,-0.197172,0.210419,-0.00138208,0.0175143,0.740066,5,0.1,24,0.9,3.66912,1.73344,0.617192,0.00494532,0.691346,-0.0335506,-0.184909,-0.535496,-0.0149868,0.0103426,2.64437,5,0.1,25,0.9,-3.90887,3.99177,0.688539,0.848665,-0.647896,0.0250203,0.324473,-0.372365,0.0143833,0.0128199,2.04886,5,0.1,26,0.9,-1.7025,-1.46675,0.705487,0.647852,-0.641313,0.0349818,0.402883,0.503443,0.0424385,0.0131047,2.32796,5,0.1,27,0.9,1.7116,3.5023,0.702944,-0.683122,-0.665138,0.0359245,-0.155509,-0.121132,0.0357479,0.0140724,1.84498,5,0.1,28,0.9,-1.50759,-1.98153,0.567945,-0.299109,0.224164,0.0216758,-0.102289,0.0766367,0.00742823,0.0109196,0.162363,5,0.1,29,0.9,0.972329,-1.56437,0.580992,-0.865323,-0.159296,0.0128575,0.0016354,-0.0544861,0.00437349,0.0137339,1.14032,5,0.1,30,0.9,1.75937,1.45251,0.598225,-0.863251,0.13351,0.00120094,-0.0605807,0.0456497,0.000383705,0.0102031,0.940351,5,0.1,31,0.9,3.91158,3.18485,0.575919,-0.865969,-0.210194,0.0151124,0.00226498,-0.103354,0.00743568,0.0320476,1.68108,5,0.1,32,0.9,-1.23593,-1.05775,0.644378,0.496279,0.862105,-0.0231483,0.185803,0.102062,-0.00822172,0.0373465,2.11944,5,0.1,33,0.9,-3.37472,0.180808,0.502052,0.151926,0.86569,-0.0105444,0.0519454,-0.0134164,0.0326335,0.015604,1.23016,5,0.1,34,0.9,0.664566,2.68986,0.626496,-0.75056,-0.677114,-0.0178474,-0.263479,0.155374,-0.00627711,0.0102101,1.29874,5,0.1,35,0.9,1.41516,-3.5433,0.69867,-0.061506,0.852357,0.0286405,-0.0712276,-0.270545,-0.000659376,0.0148123,2.37392,5,0.1,36,0.9,-0.854186,-0.509276,0.539925,0.735497,-0.409093,0.0484462,0.25142,-0.139868,0.016544,0.0113634,0.823047,5,0.1,37,0.9,-0.71626,-3.25112,0.615885,0.439837,0.865528,-0.00530267,0.25209,0.0199229,-0.00305101,0.0140977,2.15058,5,0.1,38,0.9,-3.35935,-1.66941,0.613353,0.544554,0.0536341,-0.00879923,-0.839442,0.708565,0.00106171,0.0449392,3.15594,5,0.1,39,0.9,2.96576,3.1798,0.609845,-0.28109,-0.222965,-0.00664806,-0.0960678,-0.0762641,-0.0022687,0.0149808,0.149156,5,0.1
0,1,-0.689089,0.768508,0.500106,0.398095,0.429411,-0.000873208,-0.00861287,-0.00923872,0.00494719,0.0330788,0.263343,5,0.1,1,1,0.975442,-0.629492,0.628006,0.165823,0.464858,-0.0206739,-0.00357628,-0.0100732,0.000447035,0.0265602,0.185637,5,0.1,2,1,-3.40396,2.91358,0.698019,0.741404,-0.379264,0.0383899,-0.015974,0.00810623,-0.000804663,0.0214074,0.942035,5,0.1,3,1,-2.14943,3.90395,0.613469,0.861049,0.107867,-0.009951,-0.0997782,-0.00238419,0.000208616,0.0108703,0.926481,5,0.1,4,1,0.509039,-3.46969,0.59471,-0.597449,0.125283,0.00390708,0.0129187,-0.00274181,-0.000119209,0.015925,0.2835,5,0.1,5,1,3.84279,0.623515,0.616867,-0.254279,0.866026,-0.00790209,-0.0550747,0,-0.00172853,0.00994218,2.22176,5,0.1,6,1,-3.8634,-3.81624,0.620337,-0.310993,-0.372761,-0.0844732,0.00655651,0.00810623,0.00178814,0.00750984,0.18474,5,0.1,7,1,-2.99032,-4.15548,0.535676,0.866026,0.188339,0.0171706,0,0.041008,0.00372529,0.0136983,2.24738,5,0.1,8,1,1.45467,3.77491,0.579738,0.862053,-0.334322,-0.00611693,0.079453,-0.143409,0.00691414,0.0114082,0.710189,5,0.1,9,1,-1.0637,-1.3813,0.587158,-0.865006,0.441462,0.00116825,-0.0203848,0.218034,0.00584126,0.0143336,2.12783,5,0.1,10,1,1.67247,-2.60557,0.652821,-0.359482,-0.271547,-0.0194713,0.315666,0.887156,0.0610054,0.0103681,0.6118,5,0.1,11,1,-1.04732,-2.53436,0.604805,-0.445053,0.542301,-0.0035435,0.00959635,-0.0118017,5.96046e-05,0.0100264,0.636554,5,0.1,12,1,-3.46856,1.02457,0.500141,0.235265,0.240311,-0.00117272,-0.005126,-0.0051856,0.00661612,0.0101153,0.161329,5,0.1,13,1,1.26735,3.00654,0.582256,-0.603592,-0.558668,0.0131071,0.0130534,0.0120401,-0.000298023,0.0146287,0.51473,5,0.1,14,1,-3.50631,-2.49122,0.500963,0.263119,0.621152,-0.00626445,-0.00560284,-0.0133514,0.0267923,0.0160011,0.348776,5,0.1,15,1,1.85182,2.6076,0.500161,-0.813666,-0.04251,-0.00133216,0.017643,0.000834465,0.00751019,0.0111435,0.507512,5,0.1,16,1,0.176762,3.55577,0.6068,-0.0858035,-0.866026,-0.00436455,-0.00462681,0,-0.00089407,0.00759107,1.31079,5,0.1,17,1,3.50639,-0.612872,0.545098,-0.0213683,0.866026,0.020802,-0.00464916,0,0.00444055,0.0339625,2.27131,5,0.1,18,1,3.4741,-3.67761,0.689971,0.0679135,0.866026,-0.00718683,0.0150204,0,-0.00157952,0.0114881,2.26869,5,0.1,19,1,1.58044,-2.95957,0.605449,-0.263849,0.520712,-0.035125,-0.493646,-1.08588,-0.0960529,0.0306921,3.28846,5,0.1,20,1,3.94595,2.10249,0.593691,-0.587809,0.662768,0.00465959,0.0127554,-0.0141859,-0.000119209,0.0186846,0.7493,5,0.1,21,1,-0.0973567,3.28399,0.608834,-0.260416,0.565678,-0.00652224,0.00562549,-0.0121593,0.000178814,0.00888767,0.295044,5,0.1,22,1,-2.2887,-3.92403,0.595428,0.766426,0.818574,0.00176728,0.169873,0.181437,0.000357628,0.0176468,1.95383,5,0.1,23,1,2.07213,-2.6237,0.607573,-0.499022,0.596792,-0.00656396,-0.0289679,0.000357628,0.0012219,0.0159797,0.510829,5,0.1,24,1,3.66853,1.8,0.613781,-0.0179648,0.640866,-0.0344485,-0.254989,-0.475764,-0.00190735,0.00929822,2.82626,5,0.1,25,1,-3.82288,3.92542,0.691101,0.865799,-0.675434,0.026083,0.00452995,-0.149965,0.00581145,0.0162615,1.99233,5,0.1,26,1,-1.63593,-1.52804,0.709138,0.680232,-0.581691,0.0374675,0.210404,0.672877,0.00789762,0.0120431,2.47886,5,0.1,27,1,1.64285,3.4355,0.706696,-0.68807,-0.667048,0.0388801,0.0761747,0.10097,0.0213087,0.0145054,1.40182,5,0.1,28,1,-1.53785,-1.95885,0.570138,-0.30435,0.228089,0.0220567,0.00649691,-0.00500679,-0.000476837,0.00969266,0.205681,5,0.1,29,1,0.885963,-1.58049,0.582293,-0.860083,-0.162089,0.0130802,0.118852,0.00345707,-0.000298023,0.015058,0.833642,5,0.1,30,1,1.67308,1.46602,0.598346,-0.859565,0.135848,0.00122041,0.129104,-0.00286102,-5.96046e-05,0.0100055,0.657715,5,0.1,31,1,3.82501,3.16343,0.577459,-0.86512,-0.216907,0.0155956,0.0181198,-0.023365,0.00166893,0.0330499,1.28288,5,0.1,32,1,-1.18555,-0.971255,0.64203,0.508896,0.866026,-0.0237316,0.0450015,-2.98023e-05,-0.00238419,0.0314454,1.61237,5,0.1,33,1,-3.35935,0.267203,0.501159,0.154585,0.860659,-0.00736117,-0.00333786,-0.107332,0.0304282,0.0120048,0.910914,5,0.1,34,1,0.588591,2.62361,0.62469,-0.764346,-0.641423,-0.0181749,0.0107288,0.540257,0.000238419,0.0124068,1.01586,5,0.1,35,1,1.40867,-3.45984,0.701517,-0.0678509,0.812531,0.0281438,-0.0511408,-0.522614,-0.00983477,0.0163997,2.64308,5,0.1,36,1,-0.779768,-0.550668,0.544827,0.748374,-0.416258,0.049293,-0.0161827,0.0090003,-0.00107288,0.0132265,0.5597,5,0.1,37,1,-0.671218,-3.16453,0.615342,0.458452,0.866026,-0.00552684,0.10097,0,-0.0012517,0.0134208,2.14354,5,0.1,38,1,-3.30948,-1.65994,0.612487,0.450003,0.139409,-0.00845343,-1.00827,0.938058,0.00569224,0.0416685,3.07495,5,0.1,39,1,2.93732,3.15724,0.609173,-0.286007,-0.226873,-0.00676513,0.00607967,0.00488758,0.000178814,0.0166951,0.171769,5,0.1
0,1.1,-0.649339,0.811385,0.500041,0.396349,0.427532,-0.000451505,-0.0408739,-0.044059,0.00347942,0.0330788,0.263343,5,0.1,1,1.1,0.991999,-0.583076,0.625942,0.165097,0.462818,-0.0205833,-0.0170171,-0.0477433,0.00211596,0.0265602,0.185637,5,0.1,2,1.1,-3.32962,2.87571,0.701853,0.747047,-0.377608,0.0382233,0.0819564,0.038892,-0.00393391,0.0214074,0.942035,5,0.1,3,1.1,-2.06356,3.91472,0.612476,0.857816,0.107389,-0.00990769,-0.0130087,-0.0111014,0.00102445,0.0108703,0.926481,5,0.1,4,1.1,0.449384,-3.45718,0.5951,-0.594828,0.124732,0.00388715,0.0613482,-0.0128746,-0.000417233,0.015925,0.2835,5,0.1,5,1.1,3.8169,0.710118,0.616069,-0.264652,0.866026,-0.00803843,-0.129059,-3.72529e-06,-0.000685453,0.00994218,2.22176,5,0.1,6,1.1,-3.89445,-3.85346,0.611903,-0.309643,-0.371123,-0.0841059,0.0317991,0.038296,0.00865012,0.00750984,0.18474,5,0.1,7,1.1,-2.90372,-4.1364,0.537415,0.866026,0.193333,0.0176252,0,0.0475943,0.00433996,0.0136983,2.24738,5,0.1,8,1.1,1.5411,3.74101,0.579186,0.864903,-0.340898,-0.00471137,-0.0233129,0.0133812,0.0196397,0.0114082,0.710189,5,0.1,9,1.1,-1.15026,-1.33587,0.587308,-0.865917,0.468268,0.00187494,-0.000745058,0.281312,0.00778586,0.0143336,2.12783,5,0.1,10,1.1,1.63875,-2.62759,0.651286,-0.309243,-0.163548,-0.0103571,0.652395,1.21239,0.113379,0.0103681,0.6118,5,0.1,11,1.1,-1.09192,-2.48006,0.604451,-0.447549,0.544361,-0.00352943,-0.0333413,0.0232905,0.000353903,0.0100264,0.636554,5,0.1,12,1.1,-3.44491,1.04856,0.500054,0.238675,0.239258,-0.000606477,0.0548214,-0.0246614,0.00468642,0.0101153,0.161329,5,0.1,13,1.1,1.20708,2.95076,0.583565,-0.600945,-0.556222,0.0130482,0.0619814,0.0573248,-0.00135601,0.0146287,0.51473,5,0.1,14,1.1,-3.48004,-2.4292,0.500462,0.261972,0.618437,-0.003831,-0.0269562,-0.0637025,0.0216104,0.0160011,0.348776,5,0.1,15,1.1,1.77057,2.60336,0.500062,-0.810093,-0.0423312,-0.000689831,0.0835732,0.00429153,0.00531599,0.0111435,0.507512,5,0.1,16,1.1,0.168982,3.47144,0.606363,-0.06281,-0.80059,-0.00433568,0.41581,1.19923,0.00142306,0.00759107,1.31079,5,0.1,17,1.1,3.50422,-0.52627,0.547205,-0.0219274,0.866026,0.0213397,-0.00526011,-3.57628e-06,0.00508502,0.0339625,2.27131,5,0.1,18,1.1,3.48098,-3.591,0.689243,0.0697482,0.866026,-0.00738036,0.0175983,0,-0.00185519,0.0114881,2.26869,5,0.1,19,1.1,1.55109,-2.91244,0.601419,-0.326368,0.426711,-0.0456661,-0.693306,-0.802875,-0.107087,0.0306921,3.28846,5,0.1,20,1.1,3.8871,2.16867,0.594156,-0.589672,0.659873,0.00463761,-0.0186265,-0.0679493,-0.000491738,0.0186846,0.7493,5,0.1,21,1.1,-0.123359,3.34048,0.608183,-0.259274,0.563202,-0.00649067,0.026736,-0.05804,0.000696629,0.00888767,0.295044,5,0.1,22,1.1,-2.21103,-3.84107,0.595607,0.787459,0.841038,0.00181301,0.203937,0.217825,0.00044331,0.0176468,1.95383,5,0.1,23,1.1,2.02208,-2.56403,0.606924,-0.50133,0.595676,-0.0064115,0.00350922,-0.0453144,0.00200048,0.0159797,0.510829,5,0.1,24,1.1,3.66549,1.86186,0.610319,-0.0424277,0.59741,-0.034831,-0.227585,-0.414245,-0.00380352,0.00929822,2.82626,5,0.1,25,1.1,-3.73629,3.85697,0.693745,0.865736,-0.693966,0.0268001,-0.0104457,-0.17947,0.00694394,0.0162615,1.99233,5,0.1,26,1.1,-1.56666,-1.58235,0.712897,0.706041,-0.501192,0.037443,0.25966,0.868946,-0.00841543,0.0120431,2.47886,5,0.1,27,1.1,1.57435,3.36922,0.710686,-0.681706,-0.658595,0.0408018,0.0804886,0.0966489,0.0152588,0.0145054,1.40182,5,0.1,28,1.1,-1.56807,-1.93592,0.572356,-0.298094,0.231623,0.0223988,0.11906,0.0570863,0.00552461,0.00969266,0.205681,5,0.1,29,1.1,0.800334,-1.59667,0.583599,-0.853514,-0.161382,0.0130215,0.0568368,0.0165999,-0.00135228,0.015058,0.833642,5,0.1,30,1.1,1.58766,1.47958,0.598468,-0.848867,0.135259,0.0012124,0.121906,-0.0138953,-0.000141561,0.0100055,0.657715,5,0.1,31,1.1,3.73851,3.14163,0.579026,-0.865225,-0.218743,0.015727,0.000312924,-0.00454485,0.0003241,0.0330499,1.28288,5,0.1,32,1.1,-1.13429,-0.884659,0.639637,0.516883,0.865712,-0.0241483,0.08405,-0.0125133,-0.00447035,0.0314454,1.61237,5,0.1,33,1.1,-3.3439,0.352931,0.500567,0.154151,0.85477,-0.00457056,-0.0115335,-0.0540894,0.025019,0.0120048,0.910914,5,0.1,34,1.1,0.512243,2.56292,0.622874,-0.761554,-0.566214,-0.0181098,0.0732151,0.917882,0.00173226,0.0124068,1.01586,5,0.1,35,1.1,1.40155,-3.38199,0.704324,-0.075029,0.738506,0.0283073,-0.0833198,-0.886053,0.00968203,0.0163997,2.64308,5,0.1,36,1.1,-0.705044,-0.592231,0.549749,0.745091,-0.414432,0.0490763,-0.0768527,0.042744,-0.00507012,0.0132265,0.5597,5,0.1,37,1.1,-0.624856,-3.07793,0.614782,0.468354,0.866026,-0.00568423,0.0748932,0,-0.00154972,0.0134208,2.14354,5,0.1,38,1.1,-3.26975,-1.64076,0.611672,0.344155,0.247987,-0.00781426,-1.04026,1.16457,0.00711158,0.0416685,3.07495,5,0.1,39,1.1,2.90856,3.13442,0.608493,-0.290456,-0.230396,-0.00686832,-0.0717044,-0.0568479,-0.00168383,0.0166951,0.171769,5,0.1
0,1.2,-0.610059,0.853756,0.50001,0.387506,0.417994,-0.000174344,-0.145584,-0.156999,0.00202656,0.0307246,0.175946,5,0.1,1,1.2,1.00836,-0.537209,0.623902,0.161415,0.45249,-0.0201255,-0.0606775,-0.169963,0.00756979,0.0303087,0.12344,5,0.1,2,1.2,-3.25466,2.83829,0.705641,0.749785,-0.369185,0.0373721,-0.0603199,0.13864,-0.0140667,0.0210679,0.676473,5,0.1,3,1.2,-1.97802,3.92536,0.611494,0.850254,0.104988,-0.00968575,-0.172138,-0.0394583,0.00360608,0.0106526,0.662737,5,0.1,4,1.2,0.390433,-3.44481,0.595485,-0.581557,0.121951,0.00379831,0.218451,-0.0457764,-0.00143051,0.016065,0.188514,5,0.1,5,1.2,3.78983,0.79672,0.615266,-0.276071,0.866026,-0.00799,-0.0824928,0,0.00190735,0.00991488,2.21912,5,0.1,6,1.2,-3.92514,-3.89024,0.603567,-0.302744,-0.362849,-0.0822306,0.113726,0.136495,0.0308454,0.00733135,0.122844,5,0.1,7,1.2,-2.81711,-4.1169,0.539193,0.866026,0.195956,0.0178635,0,-0.00286102,-0.000268221,0.0137336,2.24686,5,0.1,8,1.2,1.6272,3.70726,0.578824,0.853422,-0.331563,-0.00246614,-0.245333,0.172615,0.0240803,0.010121,0.472506,5,0.1,9,1.2,-1.23683,-1.28778,0.587535,-0.865307,0.491428,0.00263602,0.0143647,0.155747,0.00706315,0.0137279,2.10535,5,0.1,10,1.2,1.61139,-2.63776,0.65085,-0.235617,-0.0397146,0.00180751,0.790834,1.21784,0.123799,0.0114846,0.386428,5,0.1,11,1.2,-1.13674,-2.42564,0.604101,-0.447267,0.541919,-0.00345111,0.0573993,-0.0931025,0.0012517,0.0121215,0.454587,5,0.1,12,1.2,-3.42079,1.07228,0.500014,0.24305,0.233921,-0.000232458,0.0193119,-0.0878572,0.00274181,0.0099392,0.203501,5,0.1,13,1.2,1.14753,2.89564,0.584858,-0.587535,-0.543815,0.0127569,0.220656,0.204206,-0.00482798,0.0152066,0.342269,5,0.1,14,1.2,-3.45407,-2.36791,0.500177,0.256133,0.604647,-0.00197738,-0.0962019,-0.227094,0.0153482,0.0139298,0.232759,5,0.1,15,1.2,1.69029,2.59916,0.500016,-0.792015,-0.0413954,-0.000266731,0.297546,0.0154972,0.00315905,0.0100557,0.338308,5,0.1,16,1.2,0.165143,3.39861,0.60594,-0.0113279,-0.646013,-0.00409037,0.575662,1.80328,0.00339746,0.019874,2.45949,5,0.1,17,1.2,3.50201,-0.439667,0.549357,-0.0222087,0.866025,0.0216097,0.000476837,1.43051e-05,-0.000506639,0.0332592,2.2713,5,0.1,18,1.2,3.48802,-3.5044,0.688498,0.0707388,0.866026,-0.00748485,-0.000715256,0,8.9407e-05,0.0117962,2.2686,5,0.1,19,1.2,1.51508,-2.87338,0.59635,-0.391677,0.358242,-0.0552431,-0.568032,-0.576735,-0.0792146,0.0319033,3.19387,5,0.1,20,1.2,3.8282,2.23407,0.594616,-0.586212,0.645155,0.00453293,0.109553,-0.242233,-0.00169873,0.00856995,0.523604,5,0.1,21,1.2,-0.149055,3.39629,0.60754,-0.25349,0.55064,-0.00634491,0.0952184,-0.206828,0.00241399,0.00848783,0.196185,5,0.1,22,1.2,-2.13152,-3.75616,0.59579,0.799274,0.853652,0.0018388,-0.000476837,-0.000238419,-5.96046e-05,0.0134454,1.9229,5,0.1,23,1.2,1.97216,-2.50492,0.606295,-0.494871,0.583965,-0.0061363,0.139534,-0.203729,0.00360608,0.0174736,0.465079,5,0.1,24,1.2,3.6602,1.9195,0.606826,-0.0623584,0.554484,-0.0348791,-0.166655,-0.458777,0.00420213,0.0100644,2.93124,5,0.1,25,1.2,-3.64986,3.78691,0.696451,0.861627,-0.704336,0.0272006,-0.0882149,0.000834465,-2.98023e-05,0.0152841,1.98663,5,0.1,26,1.2,-1.49498,-1.62823,0.716572,0.724322,-0.418359,0.0357985,0.0735521,0.751257,-0.0243485,0.00911914,0.726658,5,0.1,27,1.2,1.50679,3.30403,0.71482,-0.667039,-0.642914,0.0416234,0.232875,0.236392,-5.96046e-05,0.0125136,1.05824,5,0.1,28,1.2,-1.5971,-1.91249,0.574621,-0.280595,0.2363,0.0228509,0.229716,0.0231862,0.00220537,0.0106097,0.171074,5,0.1,29,1.2,0.715461,-1.61266,0.584889,-0.841196,-0.157785,0.0127301,0.220388,0.059247,-0.00479817,0.0100638,0.859893,5,0.1,30,1.2,1.50362,1.49299,0.598588,-0.828949,0.132245,0.00118315,0.3016,-0.0495911,-0.000417233,0.0114186,0.497671,5,0.1,31,1.2,3.6521,3.11982,0.580594,-0.861365,-0.216353,0.0155538,0.0929832,0.0580549,-0.00414252,0.0380094,1.00534,5,0.1,32,1.2,-1.08233,-0.79825,0.637207,0.520489,0.861017,-0.0243753,-0.0334978,-0.100166,0.000983477,0.0260736,1.18855,5,0.1,33,1.2,-3.3286,0.437933,0.500224,0.151247,0.842441,-0.00240952,-0.0507832,-0.222862,0.01809,0.013363,0.67515,5,0.1,34,1.2,0.436744,2.5112,0.621079,-0.745044,-0.465935,-0.0177175,0.275493,1.05298,0.00655651,0.00914329,0.827073,5,0.1,35,1.2,1.39364,-3.31272,0.707212,-0.0829399,0.646591,0.0294834,-0.0681877,-0.911236,0.0112653,0.0168376,2.86262,5,0.1,36,1.2,-0.631201,-0.633304,0.554612,0.728464,-0.405185,0.0479817,-0.273645,0.1522,-0.0180602,0.0111024,0.37217,5,0.1,37,1.2,-0.577837,-2.99132,0.614207,0.469714,0.866026,-0.00577718,-0.0626743,0,-0.000119209,0.0162448,2.14446,5,0.1,38,1.2,-3.24016,-1.61023,0.610929,0.252235,0.360337,-0.00702888,-0.763535,1.03152,0.00852346,0.042481,2.93174,5,0.1,39,1.2,2.87919,3.11112,0.607798,-0.296336,-0.235057,-0.00700802,-0.0290871,-0.0231266,-0.000685453,0.0150931,0.121633,5,0.1
0,1.3,-0.57202,0.894787,0.500001,0.373115,0.402473,-2.6729e-05,-0.154279,-0.166401,0.000979751,0.0307246,0.175946,5,0.1,1,1.3,1.02421,-0.492791,0.621926,0.155418,0.435688,-0.0193777,-0.0642836,-0.180136,0.00800937,0.0303087,0.12344,5,0.1,2,1.3,-3.17983,2.80205,0.709309,0.747161,-0.355479,0.0359817,-0.0294149,0.14697,-0.0149049,0.0210679,0.676473,5,0.1,3,1.3,-1.8937,3.93567,0.610543,0.836722,0.101088,-0.00932841,-0.137031,-0.0418127,0.00384077,0.0106526,0.662737,5,0.1,4,1.3,0.333346,-3.43284,0.595858,-0.559961,0.117426,0.0036573,0.231523,-0.0485182,-0.00151247,0.016065,0.188514,5,0.1,5,1.3,3.76176,0.883323,0.614474,-0.285406,0.866026,-0.00784807,-0.0874698,-3.72529e-06,0.0013113,0.00991488,2.21912,5,0.1,6,1.3,-3.95486,-3.92586,0.595495,-0.291502,-0.349361,-0.0791805,0.120535,0.144556,0.032708,0.00733135,0.122844,5,0.1,7,1.3,-2.73051,-4.09726,0.540983,0.866026,0.197046,0.0179625,0,0.0133812,0.00121817,0.0137336,2.24686,5,0.1,8,1.3,1.71136,3.67506,0.578706,0.829406,-0.311435,0.000158232,-0.264257,0.232026,0.0272505,0.010121,0.472506,5,0.1,9,1.3,-1.32336,-1.23768,0.587836,-0.865583,0.511238,0.00339132,-0.00742078,0.205278,0.00759959,0.0137279,2.10535,5,0.1,10,1.3,1.59191,-2.63574,0.651745,-0.15334,0.0782952,0.0167837,0.831872,1.11288,0.165813,0.0114846,0.386428,5,0.1,11,1.3,-1.18125,-2.37184,0.603762,-0.443264,0.534391,-0.0033265,0.0435486,-0.0813156,0.0013411,0.0121215,0.454587,5,0.1,12,1.3,-3.39608,1.09538,0.500001,0.253534,0.229147,-3.71598e-05,0.160217,-0.0237375,0.00121817,0.0099392,0.203501,5,0.1,13,1.3,1.08985,2.84225,0.58611,-0.565721,-0.523627,0.0122803,0.233881,0.216454,-0.00509992,0.0152066,0.342269,5,0.1,14,1.3,-3.42893,-2.30855,0.500045,0.246623,0.582198,-0.000768155,-0.101969,-0.240669,0.00905246,0.0139298,0.232759,5,0.1,15,1.3,1.61254,2.5951,0.500002,-0.762601,-0.0398636,-3.88362e-05,0.315323,0.0164509,0.00150129,0.0100557,0.338308,5,0.1,16,1.3,0.166,3.34083,0.605546,0.0205801,-0.528559,-0.00382448,0.101443,0.654712,0.00214949,0.019874,2.45949,5,0.1,17,1.3,3.49979,-0.353065,0.551522,-0.0223048,0.866025,0.0217014,-0.00116229,-1.78814e-06,0.00112876,0.0332592,2.2713,5,0.1,18,1.3,3.49512,-3.4178,0.687748,0.0711881,0.866026,-0.00753151,0.00557303,0,-0.000584871,0.0117962,2.2686,5,0.1,19,1.3,1.47405,-2.83916,0.590475,-0.419895,0.336989,-0.0617531,-0.0250041,0.0742078,-0.0492372,0.0319033,3.19387,5,0.1,20,1.3,3.77158,2.29717,0.595022,-0.53367,0.614865,0.00325609,0.869647,-0.369638,-0.0214949,0.00856995,0.523604,5,0.1,21,1.3,-0.173938,3.45035,0.606917,-0.244077,0.530192,-0.00610715,0.100919,-0.219226,0.00253692,0.00848783,0.196185,5,0.1,22,1.3,-2.05135,-3.67053,0.595974,0.805523,0.860211,0.0018484,0.0776947,0.0809729,0.000145286,0.0134454,1.9229,5,0.1,23,1.3,1.92319,-2.44752,0.605699,-0.485606,0.563851,-0.00577709,0.0725761,-0.217184,0.00372902,0.0174736,0.465079,5,0.1,24,1.3,3.65354,1.97297,0.603343,-0.0669774,0.517574,-0.0348841,0.0555068,-0.307977,-0.00201538,0.0100644,2.93124,5,0.1,25,1.3,-3.56379,3.71626,0.699179,0.862053,-0.709657,0.0274059,0.04825,-0.0655055,0.00252202,0.0152841,1.98663,5,0.1,26,1.3,-1.42331,-1.66533,0.720377,0.698798,-0.315675,0.0431946,-0.543736,1.23417,0.149529,0.00911914,0.726658,5,0.1,27,1.3,1.44111,3.24077,0.718974,-0.647116,-0.623098,0.0413653,0.193723,0.187948,-0.00630319,0.0125136,1.05824,5,0.1,28,1.3,-1.62373,-1.88872,0.57692,-0.249489,0.239108,0.0231193,0.378355,0.0210479,0.00201166,0.0106097,0.171074,5,0.1,29,1.3,0.632148,-1.62831,0.586139,-0.826854,-0.156373,0.012256,0.111971,-0.0162199,-0.0050813,0.0100638,0.859893,5,0.1,30,1.3,1.42213,1.50613,0.598704,-0.800994,0.131786,0.00114171,0.287682,0.0264272,-0.00045076,0.0114186,0.497671,5,0.1,31,1.3,3.56689,3.09847,0.582129,-0.83821,-0.210527,0.0151376,0.371918,0.0656843,-0.00469759,0.0380094,1.00534,5,0.1,32,1.3,-1.03037,-0.712384,0.63477,0.518756,0.857721,-0.0243571,-0.0256523,-0.0138246,0.000551343,0.0260736,1.18855,5,0.1,33,1.3,-3.31368,0.520823,0.500061,0.147496,0.812649,-0.000972487,-0.0319332,-0.384679,0.0108629,0.013363,0.67515,5,0.1,34,1.3,0.363587,2.47,0.619339,-0.717787,-0.358073,-0.0170687,0.292884,1.05757,0.00697374,0.00914329,0.827073,5,0.1,35,1.3,1.38513,-3.25256,0.710289,-0.0861626,0.558854,0.0326392,0.00143051,-0.773728,0.0457279,0.0168376,2.86262,5,0.1,36,1.3,-0.559693,-0.673078,0.559322,0.701412,-0.390139,0.0461972,-0.290023,0.161309,-0.0191219,0.0111024,0.37217,5,0.1,37,1.3,-0.53108,-2.90472,0.613627,0.465826,0.866026,-0.00583148,-0.0381954,0,-0.000629574,0.0162448,2.14446,5,0.1,38,1.3,-3.21829,-1.56888,0.610267,0.19187,0.466914,-0.00620987,-0.369698,1.04395,0.00795722,0.042481,2.93174,5,0.1,39,1.3,2.84952,3.08743,0.607096,-0.295687,-0.238992,-0.00699293,0.0475943,-0.041306,0.00111759,0.0150931,0.121633,5,0.1
0,1.4,-0.535574,0.934101,0.500002,0.354648,0.382555,3.42727e-05,-0.222981,-0.240535,0.000268221,0.0334901,0.116666,5,0.1,1,1.4,1.03939,-0.450233,0.620034,0.147727,0.414127,-0.0184193,-0.0929832,-0.260413,0.0115931,0.0266016,0.154065,5,0.1,2,1.4,-3.10546,2.76733,0.712824,0.73759,-0.337887,0.0341997,-0.187874,0.212431,-0.0215471,0.0205661,0.472083,5,0.1,3,1.4,-1.81091,3.94554,0.609631,0.816336,0.0960827,-0.00886768,-0.297308,-0.0604391,0.00554323,0.0108756,0.461339,5,0.1,4,1.4,0.278649,-3.42137,0.596215,-0.532249,0.111622,0.00347644,0.334687,-0.0702143,-0.00220537,0.0148234,0.162652,5,0.1,5,1.4,3.73288,0.969925,0.613697,-0.290728,0.866026,-0.00766367,-0.00762939,0,0.00271201,0.00937252,2.21753,5,0.1,6,1.4,-3.98333,-3.95998,0.587761,-0.277072,-0.332063,-0.0752643,0.174165,0.208855,0.0473261,0.00732217,0.137718,5,0.1,7,1.4,-2.64391,-4.07754,0.542781,0.866026,0.196731,0.0179335,0,-0.0276566,-0.0025034,0.0133107,2.24732,5,0.1,8,1.4,1.79275,3.64518,0.578855,0.795692,-0.284898,0.00278354,-0.42969,0.299096,0.0243783,0.012195,1.60052,5,0.1,9,1.4,-1.40993,-1.18569,0.588211,-0.8654,0.526482,0.00407845,0.0123978,0.0748038,0.00581145,0.0132382,2.09145,5,0.1,10,1.4,1.58065,-2.62272,0.654254,-0.0732273,0.177872,0.0332385,0.753462,0.858545,0.155836,0.0103792,0.28642,5,0.1,11,1.4,-1.22524,-2.31894,0.603437,-0.435027,0.521636,-0.00316352,0.135601,-0.19002,0.00196695,0.0101388,0.315656,5,0.1,12,1.4,-3.3699,1.11817,0.500002,0.269854,0.226402,2.98023e-05,0.143886,-0.0428557,0.000238419,0.0094263,0.822103,5,0.1,13,1.4,1.03459,2.7911,0.587309,-0.537723,-0.497717,0.0116706,0.338048,0.312924,-0.00736117,0.0135646,0.225284,5,0.1,14,1.4,-3.40484,-2.25168,0.500005,0.234413,0.553393,-0.000119209,-0.147343,-0.347972,0.00417233,0.0156724,0.15406,5,0.1,15,1.4,1.53805,2.59121,0.500003,-0.724858,-0.0378966,5.36442e-05,0.455797,0.0238419,0.000417233,0.014063,0.223536,5,0.1,16,1.4,0.168048,3.29009,0.605173,0.0160079,-0.495607,-0.00362247,-0.161372,0.0903606,0.00211596,0.0166004,2.07526,5,0.1,17,1.4,3.49756,-0.266462,0.553692,-0.0222325,0.866025,0.021629,0.00357628,0,-0.00342727,0.0308594,2.27132,5,0.1,18,1.4,3.50224,-3.3312,0.686994,0.071156,0.866026,-0.00752807,-0.00917912,0,0.000983477,0.0122953,2.26864,5,0.1,19,1.4,1.43264,-2.80454,0.584114,-0.402078,0.359339,-0.0648215,0.356019,0.312805,-0.0112057,0.0373244,2.9052,5,0.1,20,1.4,3.72332,2.35656,0.595223,-0.425237,0.570387,0.000649691,1.24085,-0.522375,-0.0287592,0.00799549,0.207945,5,0.1,21,1.4,-0.197779,3.50214,0.606321,-0.231997,0.503951,-0.005804,0.145882,-0.316858,0.00366569,0.00849606,0.12913,5,0.1,22,1.4,-1.9706,-3.58431,0.596159,0.806689,0.861281,0.00184774,-0.0879765,-0.0950098,-0.000178814,0.0138363,2.11619,5,0.1,23,1.4,1.87506,-2.39236,0.605142,-0.475779,0.537419,-0.0053674,0.142992,-0.323772,0.00458956,0.00747345,0.649865,5,0.1,24,1.4,3.64736,2.02325,0.59985,-0.0546575,0.487953,-0.0348911,0.175714,-0.305057,0.00348687,0.00875751,3.02154,5,0.1,25,1.4,-3.47743,3.64514,0.701925,0.863314,-0.710338,0.0274315,-0.0543594,0.0813007,-0.00312924,0.015276,1.98437,5,0.1,26,1.4,-1.35689,-1.69039,0.725577,0.623068,-0.183672,0.0616774,-0.936091,1.35285,0.202596,0.00866442,0.214304,5,0.1,27,1.4,1.37749,3.17951,0.723061,-0.623536,-0.600576,0.0401706,0.297248,0.28193,-0.018388,0.0159662,0.792317,5,0.1,28,1.4,-1.64663,-1.86479,0.579234,-0.207484,0.238499,0.0230581,0.450194,-0.0412464,-0.00399351,0.0125484,0.147898,5,0.1,29,1.4,0.550149,-1.64405,0.587336,-0.811033,-0.158459,0.0116482,0.236571,-0.0146031,-0.00730157,0.0108135,0.619131,5,0.1,30,1.4,1.34365,1.51947,0.598816,-0.766349,0.135091,0.00108629,0.425696,0.0293255,-0.000655651,0.0106847,0.344471,5,0.1,31,1.4,3.4854,3.07781,0.583615,-0.78699,-0.202012,0.0145271,0.650287,0.109315,-0.00783801,0.0314913,1.26576,5,0.1,32,1.4,-0.978774,-0.62686,0.632344,0.511229,0.85007,-0.0240639,-0.14171,-0.173002,0.00604987,0.0266125,0.845297,5,0.1,33,1.4,-3.29911,0.599822,0.500007,0.143546,0.763749,-0.000186265,-0.0524521,-0.599205,0.0051558,0.0141406,0.569579,5,0.1,34,1.4,0.293456,2.43919,0.617672,-0.682608,-0.261569,-0.0162318,0.426075,0.847936,0.0101626,0.00907267,0.687636,5,0.1,35,1.4,1.37662,-3.2,0.713798,-0.0831127,0.49789,0.0375584,0.0573397,-0.455022,0.0480413,0.0170778,2.91249,5,0.1,36,1.4,-0.491179,-0.711187,0.563835,0.666698,-0.370832,0.0439093,-0.419245,0.233203,-0.0276268,0.0119118,0.244968,5,0.1,37,1.4,-0.484802,-2.81812,0.613043,0.458164,0.866026,-0.00584275,-0.131071,0,0.000596046,0.0151735,2.15198,5,0.1,38,1.4,-3.2,-1.51733,0.609686,0.183201,0.559551,-0.00542253,0.171423,0.769019,0.00783801,0.0442639,2.64951,5,0.1,39,1.4,2.82035,3.06339,0.606407,-0.285971,-0.240886,-0.00676364,0.149846,0.0133514,0.00354648,0.0165074,0.139234,5,0.1
0,1.5,-0.501182,0.9712,0.500006,0.333378,0.35961,4.49829e-05,-0.212487,-0.229217,-3.35276e-05,0.0334901,0.116666,5,0.1,1,1.5,1.05371,-0.410072,0.61856,0.13886,0.389287,-0.00842372,-0.0885651,-0.248145,0.169087,0.0266016,0.154065,5,0.1,2,1.5,-3.03254,2.73456,0.71614,0.721051,-0.317623,0.0321449,-0.173002,0.202447,-0.0205226,0.0205661,0.472083,5,0.1,3,1.5,-1.73064,3.95486,0.608771,0.789475,0.0903174,-0.00833813,-0.271194,-0.0575781,0.00529736,0.0108756,0.461339,5,0.1,4,1.5,0.227033,-3.41039,0.596552,-0.500325,0.109371,0.00326671,0.318927,0.0121295,-0.00209361,0.0148234,0.162652,5,0.1,5,1.5,3.7037,1.05653,0.612942,-0.293262,0.866026,-0.00746064,-0.0265986,0,0.00173599,0.00937252,2.21753,5,0.1,6,1.5,-4.01035,-3.99236,0.580422,-0.264582,-0.317089,-0.0718699,0.0928491,0.111237,0.0252314,0.00732217,0.137718,5,0.1,7,1.5,-2.55731,-4.05793,0.544568,0.866026,0.195685,0.0178397,0,-0.00452995,-0.000394881,0.0133107,2.24732,5,0.1,8,1.5,1.87089,3.61756,0.579256,0.772545,-0.272776,0.00520535,-0.0970513,-0.0147372,0.0231862,0.012195,1.60052,5,0.1,9,1.5,-1.49647,-1.13249,0.588649,-0.865638,0.538295,0.00468437,-0.00631064,0.127189,0.00589341,0.0132382,2.09145,5,0.1,10,1.5,1.57716,-2.60111,0.658447,0.00357889,0.249583,0.0511983,0.757992,0.571743,0.191562,0.0103792,0.28642,5,0.1,11,1.5,-1.26813,-2.26766,0.60313,-0.422785,0.504203,-0.00297548,0.126176,-0.178054,0.00188127,0.0101388,0.315656,5,0.1,12,1.5,-3.34234,1.14085,0.500006,0.279538,0.229104,3.95812e-05,0.0441968,0.0731722,-2.6077e-05,0.0094263,0.822103,5,0.1,13,1.5,0.982446,2.74284,0.588441,-0.505477,-0.467868,0.0109688,0.322167,0.298217,-0.00699982,0.0135646,0.225284,5,0.1,14,1.5,-3.38211,-2.19802,0.500009,0.220357,0.520203,0.000150967,-0.140414,-0.331566,0.00142679,0.0156724,0.15406,5,0.1,15,1.5,1.46776,2.58753,0.50001,-0.681381,-0.035622,7.01286e-05,0.434339,0.0227094,-4.84288e-05,0.014063,0.223536,5,0.1,16,1.5,0.168291,3.23994,0.60482,-0.0156654,-0.515892,-0.00345446,-0.433046,-0.412911,0.00142306,0.0166004,2.07526,5,0.1,17,1.5,3.49535,-0.17986,0.555845,-0.0220567,0.866025,0.0214626,0.00116229,5.96046e-07,-0.00109151,0.0308594,2.27132,5,0.1,18,1.5,3.50934,-3.24459,0.686243,0.0708912,0.866026,-0.0074991,-0.000283122,0,3.35276e-05,0.0122953,2.26864,5,0.1,19,1.5,1.39471,-2.76594,0.577841,-0.352195,0.421264,-0.0583427,0.615023,0.832364,0.126988,0.0373244,2.9052,5,0.1,20,1.5,3.68702,2.41124,0.595153,-0.301224,0.525126,-0.00194693,1.21735,-0.405788,-0.0228919,0.00799549,0.207945,5,0.1,21,1.5,-0.220278,3.55101,0.605758,-0.218082,0.473726,-0.00545513,0.139015,-0.301972,0.00347942,0.00849606,0.12913,5,0.1,22,1.5,-1.89,-3.49975,0.596344,0.807569,0.820032,0.00184383,0.0528395,-0.691324,0,0.0138363,2.11619,5,0.1,23,1.5,1.8297,-2.34042,0.604513,-0.418488,0.499586,-0.00815531,0.922263,-0.433102,-0.0529997,0.00747345,0.649865,5,0.1,24,1.5,3.64274,2.07071,0.596362,-0.0382058,0.462586,-0.0349696,0.152469,-0.224486,-0.00274554,0.00875751,3.02154,5,0.1,25,1.5,-3.39115,3.57425,0.704663,0.863746,-0.708855,0.027375,0.0257343,-0.00950694,0.000368804,0.015276,1.98437,5,0.1,26,1.5,-1.29896,-1.70229,0.73285,0.538269,-0.0575399,0.0843301,-0.775762,1.15412,0.235874,0.00866442,0.214304,5,0.1,27,1.5,1.31648,3.1207,0.726984,-0.59754,-0.576386,0.038228,0.247702,0.227064,-0.021331,0.0159662,0.792317,5,0.1,28,1.5,-1.66504,-1.84116,0.581519,-0.16001,0.233736,0.0225971,0.483431,-0.06143,-0.00593811,0.0125484,0.147898,5,0.1,29,1.5,0.470049,-1.66005,0.588465,-0.791812,-0.161887,0.0109514,0.184316,-0.0424236,-0.00696629,0.0108135,0.619131,5,0.1,30,1.5,1.26931,1.5332,0.598921,-0.719135,0.139923,0.00102352,0.504911,0.0564456,-0.000633299,0.0106847,0.344471,5,0.1,31,1.5,3.41075,3.05798,0.58503,-0.699106,-0.195974,0.0137751,1.0577,0.0273436,-0.00763312,0.0314913,1.26576,5,0.1,32,1.5,-0.928301,-0.542563,0.629966,0.498326,0.836443,-0.0235171,-0.136189,-0.138009,0.00583753,0.0266125,0.845297,5,0.1,33,1.5,-3.28488,0.673044,0.500009,0.141929,0.699044,0.000153016,0.0076741,-0.697199,0.00186637,0.0141406,0.569579,5,0.1,34,1.5,0.227244,2.41688,0.616097,-0.641953,-0.189752,-0.0152623,0.406464,0.549585,0.00968575,0.00907267,0.687636,5,0.1,35,1.5,1.36863,-3.15173,0.717841,-0.0761792,0.473816,0.0436371,0.0803173,-0.0804216,0.0675693,0.0170778,2.91249,5,0.1,36,1.5,-0.426525,-0.747149,0.568093,0.626708,-0.348588,0.0412744,-0.399506,0.222221,-0.0263229,0.0119118,0.244968,5,0.1,37,1.5,-0.439494,-2.73152,0.612459,0.44888,0.866026,-0.00583353,-0.0782236,0,-7.07805e-05,0.0151735,2.15198,5,0.1,38,1.5,-3.1797,-1.45748,0.60918,0.232001,0.636579,-0.00471175,0.720978,0.722878,0.00651181,0.0442639,2.64951,5,0.1,39,1.5,2.79242,3.03921,0.605746,-0.273238,-0.24396,-0.00646301,0.117198,-0.0550747,0.00275671,0.0165074,0.139234,5,0.1
0,1.6,-0.468956,1.00596,0.50001,0.310468,0.334898,3.27826e-05,-0.252485,-0.272453,-0.000178814,0.0311057,0.133506,5,0.1,1,1.6,1.06714,-0.372442,0.618693,0.129312,0.362533,0.0119731,-0.105202,-0.294834,0.223845,0.0334708,0.104905,5,0.1,2,1.6,-2.96148,2.70386,0.719247,0.697929,-0.295794,0.0299335,-0.310063,0.240564,-0.0243485,0.0204301,0.322608,5,0.1,3,1.6,-1.65322,3.96359,0.607965,0.756839,0.0841081,-0.00776649,-0.402927,-0.0684261,0.00631809,0.0110457,0.314963,5,0.1,4,1.6,0.17867,-3.39935,0.596868,-0.465938,0.111759,0.00304133,0.378937,0.0259876,-0.00247359,0.0146528,0.112127,5,0.1,5,1.6,3.67432,1.14313,0.612206,-0.293255,0.866026,-0.00724941,0.0383854,0,0.00271201,0.0093575,2.02267,5,0.1,6,1.6,-4.03636,-4.02353,0.573356,-0.255537,-0.306249,-0.0694126,0.100374,0.120163,0.0272989,0.00733939,0.0797988,5,0.1,7,1.6,-2.4707,-4.03842,0.546347,0.866026,0.193906,0.0176787,0,-0.0386238,-0.00351667,0.0128464,2.24821,5,0.1,8,1.6,1.94778,3.58998,0.579884,0.765198,-0.280452,0.00727475,-0.0969768,-0.106812,0.0175536,0.0113665,1.22132,5,0.1,9,1.6,-1.58303,-1.07817,0.589144,-0.865436,0.546077,0.0051856,0.0118017,0.00435114,0.0038743,0.00933306,1.95969,5,0.1,10,1.6,1.58115,-2.57379,0.664503,0.0741273,0.291795,0.069505,0.635207,0.272036,0.16588,0.0103215,0.230512,5,0.1,11,1.6,-1.30968,-2.21824,0.602843,-0.406945,0.482774,-0.00277162,0.202119,-0.26381,0.00223517,0.0101318,0.214945,5,0.1,12,1.6,-3.31437,1.16416,0.500009,0.277853,0.236914,2.98023e-05,-0.0805855,0.0655055,-0.000178814,0.0108202,0.274647,5,0.1,13,1.6,0.933584,2.69761,0.589501,-0.47074,-0.435716,0.0102133,0.382811,0.354409,-0.00828505,0.0104354,0.148068,5,0.1,14,1.6,-3.36081,-2.14773,0.500028,0.205213,0.484455,0.000202656,-0.166774,-0.393987,-0.000238419,0.0141235,0.102116,5,0.1,15,1.6,1.40189,2.58409,0.500016,-0.634554,-0.0331759,5.06639e-05,0.516117,0.0270605,-0.000268221,0.0106046,0.451249,5,0.1,16,1.6,0.164376,3.18602,0.604482,-0.0636883,-0.563604,-0.00330657,-0.497319,-0.478625,0.00169873,0.0164448,1.64568,5,0.1,17,1.6,3.49315,-0.0932572,0.557981,-0.0217855,0.866026,0.0212073,0.00488758,-5.96046e-06,-0.00488758,0.0324318,2.27135,5,0.1,18,1.6,3.51641,-3.15799,0.685495,0.0703871,0.866026,-0.00744611,-0.0126362,0,0.0013411,0.0121199,2.26872,5,0.1,19,1.6,1.36281,-2.71943,0.572776,-0.283894,0.509441,-0.0419065,0.729442,0.860929,0.190705,0.030948,2.58547,5,0.1,20,1.6,3.66279,2.46177,0.594856,-0.185597,0.485289,-0.00388324,1.07908,-0.407457,-0.0157356,0.00804793,0.174713,5,0.1,21,1.6,-0.241359,3.5968,0.605231,-0.203094,0.44117,-0.00507981,0.165172,-0.35882,0.00414252,0.00815506,0.145099,5,0.1,22,1.6,-1.8091,-3.42192,0.596528,0.808224,0.730211,0.00182986,-0.077486,-1.07169,-0.000357628,0.0152108,2.38991,5,0.1,23,1.6,1.7932,-2.29281,0.603388,-0.30582,0.450933,-0.0146657,1.26684,-0.53823,-0.071466,0.00839601,0.304756,5,0.1,24,1.6,3.63964,2.11583,0.592857,-0.0243008,0.439256,-0.0350446,0.124931,-0.257611,0.00289083,0.00983593,3.07234,5,0.1,25,1.6,-3.30474,3.50345,0.707397,0.862747,-0.705045,0.0272274,-0.0655651,0.115633,-0.00447035,0.0151439,1.66403,5,0.1,26,1.6,-1.24885,-1.7027,0.742419,0.46517,0.0445902,0.106338,-0.697851,0.878394,0.193655,0.00993289,3.55564,5,0.1,27,1.6,1.25805,3.06428,0.730689,-0.569755,-0.550896,0.0357628,0.325322,0.300288,-0.0285208,0.0125926,0.589468,5,0.1,28,1.6,-1.67867,-1.81818,0.583741,-0.11346,0.224996,0.0217512,0.436723,-0.118136,-0.0114143,0.0100891,0.302847,5,0.1,29,1.6,0.391947,-1.67642,0.589524,-0.767992,-0.164971,0.0101998,0.317379,-0.0109076,-0.00828505,0.0105417,0.690958,5,0.1,30,1.6,1.2,1.54744,0.59902,-0.666159,0.144514,0.000953674,0.560343,0.027597,-0.000745058,0.00989121,0.240581,5,0.1,31,1.6,3.34647,3.03849,0.586367,-0.584143,-0.193787,0.0129282,1.20401,0.0280142,-0.00956655,0.0331353,1.17452,5,0.1,32,1.6,-0.879272,-0.459808,0.627649,0.480661,0.815966,-0.0227362,-0.230581,-0.298069,0.010401,0.0257029,1.02129,5,0.1,33,1.6,-3.27064,0.739288,0.500029,0.142926,0.624105,0.000227988,0.00298023,-0.801325,-0.000119209,0.0141886,0.466316,5,0.1,34,1.6,0.165177,2.4,0.614622,-0.59807,-0.154078,-0.0142172,0.484221,0.178337,0.0115335,0.00757404,0.54544,5,0.1,35,1.6,1.36145,-3.10449,0.722535,-0.0672489,0.472325,0.0500396,0.0971556,0.00989437,0.0560582,0.0131372,2.80945,5,0.1,36,1.6,-0.365945,-0.780845,0.572083,0.583633,-0.324629,0.0384375,-0.474663,0.264019,-0.0312626,0.0139102,0.161009,5,0.1,37,1.6,-0.395068,-2.64491,0.611877,0.438495,0.866026,-0.00579953,-0.146091,0,0.00101328,0.0139068,2.20152,5,0.1,38,1.6,-3.15255,-1.39061,0.60874,0.31265,0.69589,-0.00409633,0.828147,0.42963,0.00593066,0.0476924,2.36452,5,0.1,39,1.6,2.76571,3.01456,0.605114,-0.260431,-0.248498,-0.00616014,0.147581,-0.0214577,0.00342727,0.0150455,0.274582,5,0.1
0,1.7,-0.439002,1.03832,0.500013,0.289915,0.313996,1.18278e-05,-0.174139,-0.165217,-0.000227243,0.0311057,0.133506,5,0.1,1,1.7,1.07963,-0.337676,0.620774,0.121242,0.332517,0.0275023,-0.0637695,-0.310313,0.0942945,0.0334708,0.104905,5,0.1,2,1.7,-2.89314,2.67542,0.722125,0.669225,-0.273242,0.0276512,-0.288621,0.21857,-0.022117,0.0204301,0.322608,5,0.1,3,1.7,-1.57942,3.97168,0.607219,0.719557,0.0776939,-0.00717388,-0.368364,-0.0621676,0.00574812,0.0110457,0.314963,5,0.1,4,1.7,0.133881,-3.38796,0.59716,-0.430415,0.116404,0.00280961,0.344258,0.0568032,-0.00224262,0.0146528,0.112127,5,0.1,5,1.7,3.64504,1.22973,0.61149,-0.293222,0.866026,-0.00708774,-0.0181496,0,0.000983477,0.0093575,2.02267,5,0.1,6,1.7,-4.06148,-4.05363,0.566535,-0.247078,-0.296122,-0.0671118,0.0800192,0.0957251,0.0217482,0.00733939,0.0797988,5,0.1,7,1.7,-2.3841,-4.01915,0.548104,0.866026,0.191951,0.0175009,0,-0.0116825,-0.00106171,0.0128464,2.24821,5,0.1,8,1.7,2.02417,3.56112,0.580697,0.764892,-0.298761,0.0089379,0.0407845,-0.227123,0.0150427,0.0113665,1.22132,5,0.1,9,1.7,-1.66957,-1.02338,0.589683,-0.865603,0.550543,0.00558961,-0.00373274,0.0528023,0.00382215,0.00933306,1.95969,5,0.1,10,1.7,1.59181,-2.54357,0.672332,0.138965,0.309309,0.0872834,0.634775,0.0786334,0.178665,0.0103215,0.230512,5,0.1,11,1.7,-1.34942,-2.17121,0.602576,-0.388049,0.458057,-0.00256049,0.189394,-0.246093,0.00206009,0.0101318,0.214945,5,0.1,12,1.7,-3.28734,1.18803,0.500011,0.259541,0.238896,1.00583e-05,-0.272393,-0.0278801,-0.000208616,0.0108202,0.274647,5,0.1,13,1.7,0.888333,2.65573,0.590483,-0.434852,-0.402493,0.00943653,0.347797,0.321969,-0.00753254,0.0104354,0.148068,5,0.1,14,1.7,-3.34108,-2.10116,0.500046,0.189576,0.447522,0.000151154,-0.15156,-0.357911,-0.000733882,0.0141235,0.102116,5,0.1,15,1.7,1.34065,2.58075,0.50002,-0.5931,-0.0348836,2.28174e-05,0.345699,-0.0508726,-0.000279397,0.0106046,0.451249,5,0.1,16,1.7,0.155335,3.12684,0.604159,-0.118223,-0.622576,-0.00316426,-0.563981,-0.636935,0.00128895,0.0164448,1.64568,5,0.1,17,1.7,3.49099,-0.00665468,0.560085,-0.0214949,0.866025,0.0209142,0.00214577,-1.49012e-07,-0.00214949,0.0324318,2.27135,5,0.1,18,1.7,3.52342,-3.07139,0.684754,0.0698496,0.866026,-0.00738921,-0.00227988,0,0.000242144,0.0121199,2.26872,5,0.1,19,1.7,1.33807,-2.66347,0.569481,-0.211046,0.614502,-0.024574,0.714995,1.14891,0.155438,0.030948,2.58547,5,0.1,20,1.7,3.64918,2.5086,0.594414,-0.091055,0.454049,-0.00472758,0.814497,-0.246078,-0.00210851,0.00804793,0.174713,5,0.1,21,1.7,-0.26098,3.63942,0.60474,-0.190422,0.413642,-0.0047626,0.100155,-0.217587,0.0025034,0.00815506,0.145099,5,0.1,22,1.7,-1.72831,-3.35487,0.59671,0.809915,0.605832,0.00181198,0.0586882,-1.36119,-0.000104308,0.0152108,2.38991,5,0.1,23,1.7,1.76907,-2.25009,0.601489,-0.176501,0.405961,-0.0238558,1.28548,-0.382766,-0.104815,0.00839601,0.304756,5,0.1,24,1.7,3.63775,2.15873,0.589349,-0.0142567,0.420688,-0.0352126,0.0783801,-0.139982,-0.0038445,0.00983593,3.07234,5,0.1,25,1.7,-3.21853,3.43333,0.710105,0.863144,-0.698477,0.026973,0.0274479,0.0528693,-0.00204891,0.0151439,1.66403,5,0.1,26,1.7,-1.20489,-1.69633,0.753731,0.422002,0.0614904,0.11721,-0.221811,-0.412941,0.0319369,0.00993289,3.55564,5,0.1,27,1.7,1.20257,3.01056,0.734127,-0.54057,-0.524263,0.033002,0.279374,0.253484,-0.0274852,0.0125926,0.589468,5,0.1,28,1.7,-1.68789,-1.79634,0.585852,-0.0721542,0.211068,0.0204053,0.368766,-0.161409,-0.0156015,0.0100891,0.302847,5,0.1,29,1.7,0.316442,-1.69315,0.590505,-0.744025,-0.171001,0.00942312,0.20142,-0.0914037,-0.00753254,0.0105417,0.690958,5,0.1,30,1.7,1.13598,1.56206,0.599112,-0.615858,0.147978,0.000883173,0.4685,0.0331253,-0.000689179,0.00989121,0.240581,5,0.1,31,1.7,3.29428,3.01916,0.587614,-0.459154,-0.19332,0.0120275,1.23455,-0.00619888,-0.00880659,0.0331353,1.17452,5,0.1,32,1.7,-0.832294,-0.379266,0.625424,0.459139,0.797918,-0.0217654,-0.216134,-0.113869,0.00979751,0.0257029,1.02129,5,0.1,33,1.7,-3.25648,0.797884,0.50005,0.138904,0.549415,0.000179652,-0.0799596,-0.705093,-0.000771135,0.0141886,0.466316,5,0.1,34,1.7,0.107677,2.3848,0.613255,-0.552666,-0.155702,-0.013136,0.440205,-0.166804,0.0104792,0.00757404,0.54544,5,0.1,35,1.7,1.35515,-3.05653,0.727794,-0.0591198,0.492072,0.0548488,0.068672,0.323102,0.0379756,0.0131372,2.80945,5,0.1,36,1.7,-0.309842,-0.81205,0.575777,0.539136,-0.299879,0.035507,-0.431226,0.239853,-0.0283942,0.0139102,0.161009,5,0.1,37,1.7,-0.352374,-2.55831,0.6113,0.411466,0.866026,-0.00575949,-0.380689,0,0.00013411,0.0139068,2.20152,5,0.1,38,1.7,-3.11667,-1.3188,0.608357,0.408073,0.739789,-0.00358252,1.0124,0.403039,0.00450388,0.0476924,2.36452,5,0.1,39,1.7,2.74038,2.98994,0.604514,-0.246375,-0.240818,-0.00583315,0.141397,0.164762,0.00329688,0.0150455,0.274582,5,0.1
0,1.8,-0.410856,1.06894,0.500013,0.272959,0.298458,-8.9407e-06,-0.176251,-0.15986,-0.000208616,0.0310473,0.229241,5,0.1,1,1.8,1.09145,-0.306033,0.623834,0.115246,0.299711,0.0322282,-0.0616908,-0.348568,0.00661612,0.029109,0.139165,5,0.1,2,1.8,-2.82779,2.64921,0.724777,0.636077,-0.250727,0.0253722,-0.391006,0.237346,-0.0240207,0.0204414,0.2176,5,0.1,3,1.8,-1.50942,3.97913,0.606531,0.678849,0.0712872,-0.00658184,-0.463247,-0.0673532,0.00625849,0.012535,2.56016,5,0.1,4,1.8,0.0925875,-3.37606,0.59743,-0.394946,0.121379,0.0025779,0.373788,0.0354052,-0.00241399,0.0142329,0.137382,5,0.1,5,1.8,3.61567,1.31634,0.610787,-0.293517,0.866026,-0.00697374,0.0263453,0,0.00163913,0.0101595,1.57147,5,0.1,6,1.8,-4.08574,-4.08272,0.559943,-0.237656,-0.284839,-0.0645489,0.116587,0.139475,0.0316501,0.00687825,0.0605328,5,0.1,7,1.8,-2.2975,-4.00005,0.549846,0.866026,0.189662,0.0172928,0,-0.0419617,-0.0038445,0.0130014,2.24922,5,0.1,8,1.8,2.10075,3.53012,0.581658,0.764775,-0.320297,0.0101715,-0.0787973,-0.179887,0.00917912,0.0108363,0.903139,5,0.1,9,1.8,-1.75611,-0.968196,0.590258,-0.864568,0.551167,0.00588596,0.0291467,-0.0629425,0.00184774,0.0126305,1.47437,5,0.1,10,1.8,1.6087,-2.51256,0.681901,0.196502,0.307775,0.103348,0.496864,-0.10705,0.134766,0.0110619,0.2118,5,0.1,11,1.8,-1.38721,-2.12671,0.602331,-0.366786,0.430942,-0.00234693,0.245154,-0.306845,0.00226498,0.0116304,0.237188,5,0.1,12,1.8,-3.26297,1.21161,0.500011,0.225854,0.231102,-8.9407e-06,-0.389934,-0.128388,-0.000178814,0.00997755,0.747541,5,0.1,13,1.8,0.846614,2.61711,0.591389,-0.399017,-0.369322,0.00866055,0.377625,0.349641,-0.00819564,0.0100195,0.0977002,5,0.1,14,1.8,-3.32289,-2.05823,0.500057,0.173956,0.410646,6.70552e-05,-0.164509,-0.388622,-0.00089407,0.0158461,0.117784,5,0.1,15,1.8,1.28301,2.57695,0.500021,-0.559759,-0.0415206,-2.98023e-06,0.344813,-0.0739098,-0.000268221,0.0102379,0.400222,5,0.1,16,1.8,0.140782,3.06156,0.603849,-0.171399,-0.679982,-0.00302345,-0.478081,-0.465274,0.00163913,0.019147,1.25746,5,0.1,17,1.8,3.48885,0.0799479,0.562162,-0.0211537,0.866025,0.020577,0.00560284,0,-0.00542402,0.0323917,2.27239,5,0.1,18,1.8,3.53038,-2.98479,0.684017,0.0692129,0.866026,-0.00732243,-0.0133514,0,0.00143051,0.0120829,2.26881,5,0.1,19,1.8,1.32044,-2.59641,0.567739,-0.143045,0.723392,-0.0108868,0.636041,0.961781,0.118136,0.034746,0.201769,5,0.1,20,1.8,3.64373,2.55285,0.593946,-0.0220537,0.431097,-0.00447929,0.569224,-0.234008,0.00628829,0.0155122,0.172661,5,0.1,21,1.8,-0.279549,3.67976,0.604275,-0.181003,0.393176,-0.00452846,0.0969321,-0.210643,0.00244379,0.00847782,0.0836877,5,0.1,22,1.8,-1.64715,-3.30121,0.59689,0.810951,0.467396,0.00179112,-0.0753999,-1.36817,-0.00038743,0.012463,2.64046,5,0.1,23,1.8,1.75765,-2.2113,0.598575,-0.0546247,0.37064,-0.0343144,1.12706,-0.339627,-0.0987649,0.0111544,0.223849,5,0.1,24,1.8,3.63665,2.20012,0.585814,-0.0081718,0.406736,-0.0354037,0.0454187,-0.158072,0.00181794,0.009102,3.08906,5,0.1,25,1.8,-3.13222,3.36389,0.712787,0.860614,-0.688154,0.0265732,-0.108123,0.179648,-0.00694394,0.0135718,1.20446,5,0.1,26,1.8,-1.16339,-1.69351,0.765401,0.410852,-0.0151217,0.114264,-0.0445843,-1.01805,-0.0836551,0.0145421,2.98602,5,0.1,27,1.8,1.14998,2.95946,0.737286,-0.510323,-0.49662,0.0301346,0.340044,0.314116,-0.0304282,0.0114458,0.438398,5,0.1,28,1.8,-1.6935,-1.77611,0.587807,-0.0426233,0.192612,0.018622,0.213325,-0.207841,-0.0201166,0.0119445,0.451104,5,0.1,29,1.8,0.243119,-1.71072,0.591409,-0.720962,-0.180075,0.00864565,0.287845,-0.0766516,-0.00816584,0.0123603,0.294828,5,0.1,30,1.8,1.07673,1.57698,0.599197,-0.568575,0.149688,0.000812113,0.493109,-0.00482798,-0.000745058,0.00961339,0.166024,5,0.1,31,1.8,3.25421,2.99982,0.588772,-0.346541,-0.192893,0.0111058,0.985861,0.0236034,-0.00989437,0.029916,1.07848,5,0.1,32,1.8,-0.787545,-0.300082,0.623301,0.434703,0.784425,-0.0206456,-0.283659,-0.192649,0.0130832,0.0245868,0.740358,5,0.1,33,1.8,-3.2431,0.849376,0.500064,0.12762,0.480939,8.64267e-05,-0.142455,-0.673175,-0.00101328,0.0114481,0.374507,5,0.1,34,1.8,0.0546469,2.36812,0.611995,-0.507279,-0.179642,-0.0120565,0.478683,-0.278354,0.0113845,0.0129687,0.419728,5,0.1,35,1.8,1.34956,-3.00561,0.733425,-0.0529498,0.526142,0.0572875,0.0572205,0.312209,0.00947714,0.0124978,1.05673,5,0.1,36,1.8,-0.258118,-0.84082,0.579184,0.494707,-0.275168,0.0325814,-0.468209,0.260442,-0.0308454,0.0120248,0.106239,5,0.1,37,1.8,-0.313422,-2.47171,0.610725,0.364972,0.866026,-0.00571162,-0.536859,0,0.00101328,0.0140226,2.42254,5,0.1,38,1.8,-3.07095,-1.24316,0.60802,0.503385,0.768849,-0.00316948,0.844121,0.146985,0.00393391,0.0406017,2.16691,5,0.1,39,1.8,2.71649,2.96691,0.603949,-0.230831,-0.217497,-0.00546873,0.174761,0.292301,0.00411272,0.0180248,0.258475,5,0.1
0,1.9,-0.384684,1.09807,0.500011,0.248307,0.284845,-2.33762e-05,-0.306603,-0.125259,-8.56817e-05,0.0310473,0.229241,5,0.1,1,1.9,1.10274,-0.277958,0.626955,0.111105,0.260425,0.0290427,-0.0288412,-0.430122,-0.0631288,0.029109,0.139165,5,0.1,2,1.9,-2.76603,2.62526,0.727201,0.599703,-0.228737,0.023147,-0.356779,0.209257,-0.0211708,0.0204414,0.2176,5,0.1,3,1.9,-1.44243,3.98591,0.605904,0.672657,0.0642743,-0.00593113,0.236481,-0.07312,0.0067763,0.012535,2.56016,5,0.1,4,1.9,0.0546754,-3.36377,0.597677,-0.365581,0.124008,0.00238856,0.236153,0.0127703,-0.00151619,0.0142329,0.137382,5,0.1,5,1.9,3.58637,1.40294,0.610095,-0.29268,0.865876,-0.00686627,0.00593066,-0.00600517,0.000879169,0.0101595,1.57147,5,0.1,6,1.9,-4.10901,-4.1106,0.553624,-0.228152,-0.27347,-0.061969,0.0851452,0.101835,0.023108,0.00687825,0.0605328,5,0.1,7,1.9,-2.2109,-3.98122,0.551563,0.866026,0.187453,0.0170901,0,-0.0132918,-0.0012219,0.0130014,2.24922,5,0.1,8,1.9,2.17702,3.49709,0.582718,0.76138,-0.340864,0.0110004,-0.0288337,-0.206411,0.00686944,0.0108363,0.903139,5,0.1,9,1.9,-1.84256,-0.913305,0.590856,-0.86488,0.546871,0.00606775,-0.0051707,-0.0486597,0.00149012,0.0126305,1.47437,5,0.1,10,1.9,1.6309,-2.48257,0.692939,0.247592,0.289778,0.117446,0.497267,-0.246227,0.136998,0.0110619,0.2118,5,0.1,11,1.9,-1.42274,-2.08526,0.602108,-0.344391,0.39696,-0.00209855,0.215046,-0.373751,0.00267848,0.0116304,0.237188,5,0.1,12,1.9,-3.24248,1.23429,0.500009,0.182843,0.224116,-2.12342e-05,-0.457302,-0.0299588,-7.45058e-05,0.00997755,0.747541,5,0.1,13,1.9,0.808499,2.58183,0.592216,-0.364031,-0.336931,0.00790125,0.332955,0.308245,-0.00722334,0.0100195,0.0977002,5,0.1,14,1.9,-3.30619,-2.01881,0.500059,0.161031,0.380117,-1.8999e-05,-0.103965,-0.245504,-0.000797212,0.0158461,0.117784,5,0.1,15,1.9,1.22857,2.57222,0.500019,-0.530267,-0.0546027,-2.38419e-05,0.268646,-0.170931,-0.000156462,0.0102379,0.400222,5,0.1,16,1.9,0.121313,2.99133,0.603553,-0.216901,-0.722929,-0.00289585,-0.414436,-0.357941,0.00107288,0.019147,1.25746,5,0.1,17,1.9,3.48666,0.16655,0.564194,-0.0236329,0.866025,0.0200364,-0.0477284,8.9407e-07,-0.00609085,0.0323917,2.27239,5,0.1,18,1.9,3.53726,-2.89818,0.683289,0.0686359,0.866026,-0.00726022,-0.00236928,0,0.00025332,0.0120829,2.26881,5,0.1,19,1.9,1.30913,-2.52046,0.567228,-0.0849772,0.784107,0.000459235,0.52312,0.269756,0.106458,0.034746,0.201769,5,0.1,20,1.9,3.64398,2.59509,0.593555,0.023311,0.416136,-0.00314768,0.346348,-0.0948608,0.0187606,0.0155122,0.172661,5,0.1,21,1.9,-0.297219,3.71814,0.603833,-0.172748,0.375237,-0.00432115,0.0759512,-0.165045,0.0018999,0.00847782,0.0836877,5,0.1,22,1.9,-1.5661,-3.26127,0.597068,0.812159,0.333282,0.00177082,0.0483245,-1.25343,-0.000119209,0.012463,2.64046,5,0.1,23,1.9,1.75743,-2.17555,0.59457,0.046074,0.347445,-0.0463663,0.879452,-0.153139,-0.132732,0.0111544,0.223849,5,0.1,24,1.9,3.63599,2.24027,0.582264,-0.0058189,0.39831,-0.0357077,0.00539422,-0.0389516,-0.00538304,0.009102,3.08906,5,0.1,25,1.9,-3.0465,3.29585,0.715414,0.854753,-0.673144,0.0259931,-0.0529587,0.150353,-0.00581518,0.0135718,1.20446,5,0.1,26,1.9,-1.12206,-1.70115,0.776286,0.419377,-0.145757,0.102351,0.17032,-1.49715,-0.148833,0.0145421,2.98602,5,0.1,27,1.9,1.10053,2.91126,0.740156,-0.479251,-0.468037,0.0273324,0.2985,0.274688,-0.0264384,0.0114458,0.438398,5,0.1,28,1.9,-1.69689,-1.75789,0.589569,-0.028256,0.17178,0.0166063,0.0350624,-0.210129,-0.0203289,0.0119445,0.451104,5,0.1,29,1.9,0.172434,-1.72882,0.592235,-0.692473,-0.179506,0.00788886,0.303756,0.0797883,-0.00720471,0.0123603,0.294828,5,0.1,30,1.9,1.02216,1.59194,0.599274,-0.524078,0.149509,0.000742637,0.415623,-0.00559539,-0.000663102,0.00961339,0.166024,5,0.1,31,1.9,3.22403,2.98077,0.589835,-0.263129,-0.186878,0.0101861,0.624135,0.0959486,-0.00880659,0.029916,1.07848,5,0.1,32,1.9,-0.745417,-0.222364,0.621298,0.408262,0.771273,-0.0194247,-0.258643,-0.110892,0.0119768,0.0245868,0.740358,5,0.1,33,1.9,-3.23119,0.894294,0.500068,0.109281,0.419048,-3.53903e-06,-0.216007,-0.575334,-0.000782311,0.0114481,0.374507,5,0.1,34,1.9,0.00618348,2.34848,0.610843,-0.462922,-0.215091,-0.0110016,0.422246,-0.397131,0.0100397,0.0129687,0.419728,5,0.1,35,1.9,1.34459,-2.95102,0.739127,-0.0461759,0.568305,0.0560701,0.0763014,0.474468,-0.0317395,0.0124978,1.05673,5,0.1,36,1.9,-0.210863,-0.867105,0.582296,0.451328,-0.251039,0.0297239,-0.412807,0.229619,-0.0271872,0.0120248,0.106239,5,0.1,37,1.9,-0.279976,-2.38559,0.610173,0.300922,0.851395,-0.00521895,-0.719218,-0.296667,0.00818074,0.0140226,2.42254,5,0.1,38,1.9,-3.01618,-1.16539,0.60772,0.592577,0.786669,-0.00285357,0.880629,0.165284,0.002563,0.0406017,2.16691,5,0.1,39,1.9,2.69426,2.9468,0.603422,-0.213702,-0.183411,-0.00506518,0.172749,0.378355,0.00407174,0.0180248,0.258475,5,0.1
0,2,-0.361531,1.1259,0.500008,0.213519,0.271225,-2.83122e-05,-0.380501,-0.156164,0,0.0316953,0.373397,5,0.1,1,2,1.11371,-0.254151,0.629478,0.10815,0.215035,0.0208914,-0.035882,-0.471227,-0.0942051,0.0296201,0.253732,5,0.1,2,2,-2.70792,2.60343,0.72941,0.561309,-0.207728,0.0210211,-0.42522,0.215888,-0.0218451,0.0207989,0.145844,5,0.1,3,2,-1.37352,3.99197,0.605346,0.70805,0.0566423,-0.00522286,0.393212,-0.0796318,0.00733137,0.0114394,2.72504,5,0.1,4,2,0.0192229,-3.35137,0.597909,-0.34379,0.123215,0.00224859,0.216295,-0.0312328,-0.00143051,0.0141421,0.0979062,5,0.1,5,2,3.55721,1.48944,0.609414,-0.289696,0.863624,-0.00673383,0.0647306,-0.0480413,0.00196695,0.0117602,1.2421,5,0.1,6,2,-4.13137,-4.13741,0.54755,-0.218654,-0.262117,-0.0593901,0.112772,0.135422,0.0306368,0.00701294,0.0269863,5,0.1,7,2,-2.12429,-3.96256,0.553263,0.866026,0.185114,0.0168756,0,-0.0414848,-0.00378489,0.012634,2.25022,5,0.1,8,2,2.25283,3.46209,0.583845,0.75227,-0.357306,0.011459,-0.18084,-0.104904,0.00193715,0.0101799,0.665334,5,0.1,9,2,-1.92893,-0.859009,0.591468,-0.86081,0.5371,0.00613183,0.104368,-0.164419,-0.000357628,0.0101626,1.10861,5,0.1,10,2,1.65796,-2.45501,0.705304,0.291234,0.259823,0.129016,0.356138,-0.346303,0.087291,0.00824821,0.209653,5,0.1,11,2,-1.45607,-2.04755,0.601912,-0.321701,0.356138,-0.00181645,0.247359,-0.442266,0.00298023,0.00947515,0.183644,5,0.1,12,2,-3.22651,1.25659,0.500007,0.136691,0.221872,-2.38419e-05,-0.455737,-0.0286698,-2.98023e-05,0.011837,1.28516,5,0.1,13,2,0.773759,2.54968,0.59297,-0.330591,-0.305974,0.0071764,0.343353,0.317693,-0.00745058,0.0100249,0.132427,5,0.1,14,2,-3.29058,-1.98195,0.500054,0.151438,0.357464,-8.79169e-05,-0.0953674,-0.224829,-0.000566244,0.014808,0.0700186,5,0.1,15,2,1.17692,2.56586,0.500016,-0.502002,-0.0727594,-3.42727e-05,0.313222,-0.179648,-5.96046e-05,0.0125114,0.307239,5,0.1,16,2,0.0977738,2.91766,0.603269,-0.251355,-0.745618,-0.00278354,-0.262842,-0.0721216,0.0013113,0.014222,0.946105,5,0.1,17,2,3.48402,0.253153,0.566161,-0.0293791,0.866025,0.0192434,-0.061512,1.43051e-05,-0.0102222,0.0284369,2.27095,5,0.1,18,2,3.54411,-2.81158,0.682566,0.0680268,0.866026,-0.00719577,-0.0128746,0,0.00137091,0.0114175,2.2689,5,0.1,19,2,1.30305,-2.44172,0.567771,-0.0387311,0.78094,0.0100121,0.400841,-0.314236,0.0829995,0.0350982,0.0558808,5,0.1,20,2,3.64773,2.63626,0.593343,0.0488102,0.406986,-0.0010103,0.171185,-0.109553,0.022769,0.00792741,0.167407,5,0.1,21,2,-0.314097,3.7548,0.603411,-0.164488,0.357288,-0.0041157,0.0947118,-0.205755,0.00238419,0.00832361,0.120309,5,0.1,22,2,-1.48478,-3.23365,0.597244,0.811848,0.225604,0.0017494,-0.0910163,-0.871897,-0.00038743,0.0134259,2.37759,5,0.1,23,2,1.76597,-2.14146,0.589278,0.120172,0.334978,-0.0592023,0.598967,-0.117779,-0.116944,0.00868559,0.19712,5,0.1,24,2,3.63539,2.27991,0.578672,-0.00641942,0.394028,-0.0360474,-0.0145435,-0.0673532,0.000327826,0.00957942,3.08419,5,0.1,25,2,-2.96149,3.22944,0.717978,0.842583,-0.65304,0.0252157,-0.220776,0.272155,-0.0105202,0.0168705,0.846001,5,0.1,26,2,-1.07922,-1.72334,0.785709,0.437129,-0.297451,0.085552,0.151753,-1.46317,-0.18236,0.0126474,2.47335,5,0.1,27,2,1.05414,2.86588,0.742758,-0.447735,-0.438792,0.0247061,0.34374,0.322223,-0.0266731,0.0150087,0.32851,5,0.1,28,2,-1.7,-1.74178,0.591127,-0.0382781,0.150391,0.0145376,-0.2231,-0.218332,-0.0211298,0.011335,0.58427,5,0.1,29,2,0.104876,-1.74618,0.592987,-0.656587,-0.165674,0.00716448,0.428364,0.189483,-0.00742078,0.00972107,0.211695,5,0.1,30,2,0.971832,1.60682,0.599345,-0.482246,0.147417,0.000675023,0.43422,-0.0408888,-0.000685453,0.0127596,0.113706,5,0.1,31,2,3.2,2.96268,0.59081,-0.225586,-0.173914,0.00929236,0.146031,0.162005,-0.00923872,0.0291428,0.922124,5,0.1,32,2,-0.705933,-0.145928,0.619418,0.380705,0.755353,-0.0181422,-0.301689,-0.235937,0.0141561,0.0259847,0.523085,5,0.1,33,2,-3.22141,0.933413,0.500064,0.0859201,0.36404,-7.00355e-05,-0.244617,-0.532478,-0.000536442,0.0136605,0.319743,5,0.1,34,2,-0.0379991,2.32502,0.609793,-0.420496,-0.253266,-0.00999421,0.435829,-0.341535,0.010401,0.00878514,0.316722,5,0.1,35,2,1.34037,-2.89193,0.744522,-0.0380427,0.611275,0.0513375,0.0846386,0.343919,-0.0609756,0.0140824,1.72754,5,0.1,36,2,-0.167792,-0.891062,0.585133,0.40987,-0.227979,0.0269935,-0.425674,0.236779,-0.0280142,0.0142054,0.12148,5,0.1,37,2,-0.25361,-2.30245,0.609699,0.225602,0.806355,-0.00419617,-0.767395,-0.603318,0.0117421,0.0115148,0.997675,5,0.1,38,2,-2.95286,-1.08617,0.607447,0.66942,0.794432,-0.00262558,0.614524,-0.0405312,0.00214577,0.0442305,2.26738,5,0.1,39,2,2.67379,2.93041,0.602937,-0.195462,-0.14382,-0.00463426,0.195026,0.404596,0.00461936,0.0165709,0.252238,5,0.1
0,2.1,-0.342238,1.15219,0.500006,0.171257,0.253989,-2.57976e-05,-0.446359,-0.191368,4.84288e-05,0.0316953,0.373397,5,0.1,1,2.1,1.12433,-0.235053,0.631077,0.104088,0.166692,0.0109848,-0.0477508,-0.485944,-0.100665,0.0296201,0.253732,5,0.1,2,2.1,-2.6538,2.58367,0.731409,0.521898,-0.187908,0.0190157,-0.37992,0.18625,-0.0188425,0.0207989,0.145844,5,0.1,3,2.1,-1.3018,3.99725,0.604859,0.71677,0.0491608,-0.00453386,-0.191517,-0.0709146,0.00653416,0.0114394,2.72504,5,0.1,4,2.1,-0.0141955,-3.33936,0.598128,-0.325405,0.115522,0.00212733,0.166299,-0.11684,-0.00108778,0.0141421,0.0979062,5,0.1,5,2.1,3.52852,1.57488,0.608749,-0.284276,0.83922,-0.00657002,0.0561476,-0.40666,0.0016056,0.0117602,1.2421,5,0.1,6,2.1,-4.15268,-4.16295,0.541763,-0.207394,-0.248601,-0.0563311,0.118464,0.142068,0.0321753,0.00701294,0.0269863,5,0.1,7,2.1,-2.03769,-3.94418,0.554939,0.866026,0.182961,0.0166791,0,-0.0124872,-0.00113621,0.012634,2.25022,5,0.1,8,2.1,2.32677,3.4258,0.584999,0.722809,-0.368384,0.0115993,-0.405446,-0.0968874,0.000439584,0.0101799,0.665334,5,0.1,9,2.1,-2.01422,-0.805874,0.592074,-0.841967,0.527254,0.00594361,0.286788,-0.0645444,-0.00331923,0.0101626,1.10861,5,0.1,10,2.1,1.6889,-2.431,0.718666,0.327311,0.218285,0.138232,0.34035,-0.468835,0.0876039,0.00824821,0.209653,5,0.1,11,2.1,-1.48708,-2.01413,0.601745,-0.298996,0.312399,-0.00152951,0.216864,-0.434361,0.00276044,0.00947515,0.183644,5,0.1,12,2.1,-3.21516,1.27874,0.500005,0.0904556,0.221779,-2.30968e-05,-0.448957,0.0121966,3.72529e-05,0.011837,1.28516,5,0.1,13,2.1,0.742315,2.52056,0.593653,-0.299067,-0.277304,0.00649244,0.296272,0.26527,-0.00642985,0.0100249,0.132427,5,0.1,14,2.1,-3.27586,-1.9472,0.500043,0.14333,0.338355,-0.00012219,-0.0733584,-0.172853,-0.000141561,0.014808,0.0700186,5,0.1,15,2.1,1.1282,2.55764,0.500013,-0.472775,-0.0919506,-3.67872e-05,0.287071,-0.192583,3.72529e-06,0.0125114,0.307239,5,0.1,16,2.1,0.0714726,2.84296,0.602996,-0.272956,-0.745758,-0.00268593,-0.160511,0.0874102,0.000789762,0.014222,0.946105,5,0.1,17,2.1,3.48072,0.339755,0.568039,-0.0369135,0.866025,0.0183452,-0.0828654,-1.78814e-06,-0.00850111,0.0284369,2.27095,5,0.1,18,2.1,3.55087,-2.72498,0.68185,0.0675041,0.866026,-0.00714026,-0.00171363,0,0.000186265,0.0114175,2.2689,5,0.1,19,2.1,1.30102,-2.36578,0.569162,-0.00342838,0.73256,0.017531,0.30452,-0.638515,0.0660047,0.0350982,0.0558808,5,0.1,20,2.1,3.65327,2.67667,0.593378,0.0602029,0.402847,0.00187298,0.0618398,-0.00229478,0.0328384,0.00792741,0.167407,5,0.1,21,2.1,-0.330083,3.78955,0.603011,-0.155207,0.337715,-0.00388976,0.095427,-0.196517,0.00226498,0.00832361,0.120309,5,0.1,22,2.1,-1.40394,-3.21485,0.597418,0.80505,0.158377,0.00172574,-0.0814125,-0.405237,-0.000178814,0.0134259,2.37759,5,0.1,23,2.1,1.78057,-2.10825,0.58267,0.167684,0.331313,-0.0736597,0.354372,0.0158548,-0.159692,0.00868559,0.19712,5,0.1,24,2.1,3.6346,2.31922,0.575049,-0.00990368,0.393801,-0.0365357,-0.049904,0.0338703,-0.0074245,0.00957942,3.08419,5,0.1,25,2.1,-2.87821,3.16542,0.720451,0.823371,-0.627445,0.0242546,-0.198305,0.262141,-0.00962615,0.0168705,0.846001,5,0.1,26,2.1,-1.03453,-1.7607,0.793322,0.457866,-0.450787,0.06651,0.227287,-1.52823,-0.19443,0.0126474,2.47335,5,0.1,27,2.1,1.01099,2.82352,0.745106,-0.416074,-0.409119,0.0223502,0.303335,0.285059,-0.0213198,0.0150087,0.32851,5,0.1,28,2.1,-1.70561,-1.7278,0.592478,-0.0793274,0.129526,0.0125188,-0.547439,-0.200436,-0.0193864,0.011335,0.58427,5,0.1,29,2.1,0.0414046,-1.7615,0.593662,-0.612124,-0.138381,0.00629267,0.471209,0.338718,-0.00978634,0.00972107,0.211695,5,0.1,30,2.1,0.925627,1.62137,0.59941,-0.442962,0.143619,0.000611693,0.367027,-0.040628,-0.000596046,0.0127596,0.113706,5,0.1,31,2.1,3.17725,2.94625,0.591695,-0.237056,-0.153303,0.00844132,-0.312686,0.242531,-0.00803918,0.0291428,0.922124,5,0.1,32,2.1,-0.669287,-0.0714203,0.617671,0.352742,0.735478,-0.0168292,-0.268828,-0.194118,0.0126436,0.0259847,0.523085,5,0.1,33,2.1,-3.21407,0.967468,0.500055,0.0605736,0.319726,-0.000107754,-0.256076,-0.371873,-0.000234693,0.0136605,0.319743,5,0.1,34,2.1,-0.0779982,2.2979,0.608842,-0.380475,-0.289247,-0.00903988,0.376217,-0.352308,0.00896677,0.00878514,0.316722,5,0.1,35,2.1,1.33702,-2.82902,0.749381,-0.0288444,0.646797,0.0461059,0.0965819,0.327125,-0.0457838,0.0140824,1.72754,5,0.1,36,2.1,-0.128617,-0.912852,0.587713,0.376184,-0.209241,0.0247768,-0.271581,0.151057,-0.0178628,0.0142054,0.12148,5,0.1,37,2.1,-0.234806,-2.22556,0.609347,0.151529,0.724748,-0.00276566,-0.704801,-0.996172,0.0161007,0.0115148,0.997675,5,0.1,38,2.1,-2.88398,-1.00722,0.607206,0.697507,0.781208,-0.00208104,-0.026688,-0.235803,0.0080578,0.0442305,2.26738,5,0.1,39,2.1,2.6552,2.91804,0.602496,-0.176445,-0.104032,-0.00418378,0.18838,0.384182,0.00446662,0.0165709,0.252238,5,0.1
0,2.2,-0.327331,1.17656,0.500003,0.127351,0.232536,-1.93715e-05,-0.419155,-0.239074,5.96046e-05,0.0285374,0.396081,5,0.1,1,2.2,1.13447,-0.220771,0.631684,0.0982165,0.119536,0.00132471,-0.0711679,-0.449955,-0.0900924,0.0269704,0.251365,5,0.1,2,2.2,-2.60354,2.5658,0.733218,0.482476,-0.169498,0.0171527,-0.420213,0.185847,-0.0188053,0.0202644,0.333278,5,0.1,3,2.2,-1.23185,4.00182,0.604438,0.674951,0.0423074,-0.00390261,-0.619948,-0.0665188,0.00616908,0.0109488,3.08209,5,0.1,4,2.2,-0.0458874,-3.3285,0.598335,-0.30799,0.100929,0.00201315,0.192505,-0.169873,-0.0012815,0.0181526,0.20825,5,0.1,5,2.2,3.50044,1.65639,0.608102,-0.276363,0.78755,-0.00636429,0.110865,-0.60755,0.00274181,0.0123666,1.00014,5,0.1,6,2.2,-4.17278,-4.18704,0.536304,-0.193989,-0.232518,-0.052689,0.15378,0.184059,0.0417233,0.00720198,0.0101809,5,0.1,7,2.2,-1.95109,-3.92598,0.556599,0.866026,0.180745,0.0164777,0,-0.0393391,-0.00357628,0.0131658,2.25116,5,0.1,8,2.2,2.39668,3.38862,0.586156,0.671875,-0.373352,0.0114769,-0.608921,0.0112057,-0.00318885,0.00913908,0.530351,5,0.1,9,2.2,-2.09659,-0.753522,0.592648,-0.801271,0.518698,0.0054881,0.534773,-0.129461,-0.00575185,0.0122228,0.861609,5,0.1,10,2.2,1.72314,-2.41161,0.732865,0.355065,0.168872,0.144939,0.19747,-0.506759,0.0399649,0.0152677,1.72033,5,0.1,11,2.2,-1.51588,-1.98506,0.601605,-0.276616,0.26899,-0.00126213,0.237763,-0.434637,0.0025332,0.00816901,0.143504,5,0.1,12,2.2,-3.20822,1.30094,0.500003,0.0501156,0.221807,-1.78814e-05,-0.345469,-0.0220537,5.96046e-05,0.01004,1.95834,5,0.1,13,2.2,0.713873,2.49413,0.59427,-0.269781,-0.251281,0.00585765,0.295818,0.261903,-0.0064373,0.00794553,0.246935,5,0.1,14,2.2,-3.2619,-1.91424,0.50003,0.135654,0.320253,-0.00012219,-0.0849962,-0.200152,0.000119209,0.0168404,0.116144,5,0.1,15,2.2,1.08242,2.54754,0.500009,-0.441939,-0.109291,-3.42727e-05,0.340343,-0.145912,2.98023e-05,0.0118415,0.237982,5,0.1,16,2.2,0.0436007,2.7692,0.602732,-0.282085,-0.725263,-0.00260025,-0.0170094,0.332952,0.00107288,0.0167256,0.716959,5,0.1,17,2.2,3.47662,0.426358,0.569829,-0.0448644,0.866025,0.017415,-0.0714064,1.43051e-05,-0.0106394,0.0298347,2.26967,5,0.1,18,2.2,3.5576,-2.63838,0.681138,0.0669718,0.866026,-0.00708401,-0.0119209,0,0.0012517,0.00994827,2.26898,5,0.1,19,2.2,1.30203,-2.29615,0.571208,0.0221282,0.656152,0.0229895,0.206709,-0.875235,0.0423789,0.0304002,0.110002,5,0.1,20,2.2,3.65946,2.71692,0.593732,0.0621557,0.401527,0.00519753,-0.018239,-0.0451803,0.0321269,0.00796643,0.163435,5,0.1,21,2.2,-0.345095,3.82228,0.602634,-0.144655,0.316185,-0.00364333,0.118569,-0.241399,0.00280142,0.010151,0.148319,5,0.1,22,2.2,-1.32407,-3.2,0.597589,0.789422,0.148457,0.00169724,-0.256062,0.178456,-0.000447035,0.0120323,2.60629,5,0.1,23,2.2,1.79873,-2.07501,0.57452,0.191787,0.333184,-0.0889719,0.132024,0.000834465,-0.137299,0.00991811,0.186114,5,0.1,24,2.2,3.63334,2.35874,0.571363,-0.0154734,0.395817,-0.0370726,-0.0573397,-0.0143051,-0.00143051,0.0106492,3.06759,5,0.1,25,2.2,-2.79706,3.10412,0.722824,0.797057,-0.596857,0.0231341,-0.351787,0.36478,-0.0134408,0.0174521,0.584524,5,0.1,26,2.2,-0.987724,-1.81302,0.799009,0.476465,-0.590169,0.0473857,0.119269,-1.20538,-0.184953,0.013578,1.8818,5,0.1,27,2.2,0.970922,2.78406,0.747238,-0.384727,-0.379449,0.0202924,0.33316,0.317931,-0.020504,0.0102175,0.573562,5,0.1,28,2.2,-1.71647,-1.71582,0.593635,-0.138867,0.11006,0.010635,-0.604749,-0.189781,-0.0182986,0.0105516,0.98786,5,0.1,29,2.2,-0.017314,-1.77352,0.59424,-0.560711,-0.101101,0.00524819,0.563112,0.392914,-0.0109076,0.010763,0.333733,5,0.1,30,2.2,0.883158,1.63549,0.599468,-0.406192,0.138363,0.000551343,0.379294,-0.0683665,-0.000596046,0.0114684,0.137966,5,0.1,31,2.2,3.15165,2.93221,0.5925,-0.27703,-0.126815,0.00764132,-0.438809,0.280857,-0.00816584,0.0319852,0.498839,5,0.1,32,2.2,-0.635378,0.00100847,0.616052,0.325041,0.711026,-0.0155225,-0.292897,-0.317423,0.0138283,0.022583,0.361765,5,0.1,33,2.2,-3.20927,0.997725,0.500043,0.0357926,0.286497,-0.000119209,-0.234842,-0.306278,0,0.0115869,0.266926,5,0.1,34,2.2,-0.114186,2.26737,0.607983,-0.343275,-0.319338,-0.00815392,0.375911,-0.231385,0.0089705,0.00803146,0.229907,5,0.1,35,2.2,1.33462,-2.76299,0.753774,-0.0192165,0.67004,0.0418127,0.0938773,0.110507,-0.0416934,0.0152919,0.153371,5,0.1,36,2.2,-0.09226,-0.933074,0.590108,0.351465,-0.195493,0.0231504,-0.240154,0.133574,-0.015825,0.0141783,0.0701944,5,0.1,37,2.2,-0.22301,-2.15849,0.609153,0.0862215,0.613159,-0.00111312,-0.594832,-1.20819,0.0163615,0.0176548,0.442431,5,0.1,38,2.2,-2.81524,-0.930679,0.607044,0.669146,0.745507,-0.00113845,-0.515699,-0.48399,0.0102818,0.0407429,2.7588,5,0.1,39,2.2,2.6385,2.90948,0.6021,-0.157279,-0.068152,-0.00372976,0.196815,0.32866,0.00464916,0.0161294,1.269,5,0.1
0,2.3,-0.316716,1.19869,0.500002,0.0855652,0.21075,-1.30385e-05,-0.383209,-0.203528,6.70552e-05,0.0285374,0.396081,5,0.1,1,2.3,1.14393,-0.210959,0.631376,0.0908934,0.0779172,-0.00732318,-0.0767112,-0.37781,-0.0808015,0.0269704,0.251365,5,0.1,2,2.3,-2.55696,2.54972,0.734845,0.452631,-0.15256,0.0154389,-0.210568,0.157744,-0.0159591,0.0202644,0.333278,5,0.1,3,2.3,-1.16834,4.00574,0.604076,0.588073,0.0363789,-0.00335304,-1.05347,-0.0533164,0.00494346,0.0109488,3.08209,5,0.1,4,2.3,-0.0757721,-3.31931,0.59853,-0.289938,0.0822779,0.00189366,0.178096,-0.198051,-0.00117347,0.0181526,0.20825,5,0.1,5,2.3,3.47332,1.73167,0.607478,-0.266209,0.716336,-0.00611637,0.102386,-0.719808,0.00245124,0.0123666,1.00014,5,0.1,6,2.3,-4.1914,-4.20936,0.531246,-0.178238,-0.213661,-0.0484144,0.163823,0.196189,0.0444725,0.00720198,0.0101809,5,0.1,7,2.3,-1.86449,-3.90802,0.558236,0.866026,0.178768,0.0162986,0,-0.0109076,-0.000987202,0.0131658,2.25116,5,0.1,8,2.3,2.46027,3.35132,0.587288,0.595659,-0.372448,0.0111453,-0.867113,0.0227392,-0.0037998,0.00913908,0.530351,5,0.1,9,2.3,-2.17391,-0.701939,0.59316,-0.7435,0.515532,0.00469601,0.627726,0.0266843,-0.00965968,0.0122228,0.861609,5,0.1,10,2.3,1.75826,-2.39822,0.747334,0.335422,0.0910733,0.142379,-0.524156,-0.979736,-0.0839978,0.0152677,1.72033,5,0.1,11,2.3,-1.5425,-1.96013,0.601491,-0.257042,0.23132,-0.00104727,0.167064,-0.328995,0.00182167,0.00816901,0.143504,5,0.1,12,2.3,-3.20492,1.32307,0.500001,0.0170756,0.220921,-1.15484e-05,-0.270084,-0.00723451,6.70552e-05,0.01004,1.95834,5,0.1,13,2.3,0.687753,2.47047,0.595045,-0.25776,-0.220656,0.0115092,-0.0141934,0.342876,0.10534,0.00794553,0.246935,5,0.1,14,2.3,-3.24882,-1.88317,0.500019,0.12544,0.301484,-0.000101794,-0.118658,-0.185162,0.000264496,0.0168404,0.116144,5,0.1,15,2.3,1.03987,2.53589,0.500006,-0.409466,-0.12325,-2.92435e-05,0.320286,-0.125349,6.70552e-05,0.0118415,0.237982,5,0.1,16,2.3,0.0153875,2.69838,0.602476,-0.281201,-0.690267,-0.00251019,0.0413988,0.383094,0.00083819,0.0167256,0.716959,5,0.1,17,2.3,3.47175,0.512961,0.571524,-0.0526085,0.866026,0.016527,-0.0779331,-1.93715e-06,-0.00790134,0.0298347,2.26967,5,0.1,18,2.3,3.56427,-2.55177,0.680433,0.0665367,0.866026,-0.00703903,-0.00089407,0,8.56817e-05,0.00994827,2.26898,5,0.1,19,2.3,1.30516,-2.23452,0.573696,0.0393048,0.57965,0.0265103,0.136971,-0.678971,0.027284,0.0304002,0.110002,5,0.1,20,2.3,3.66555,2.75706,0.594435,0.0593033,0.402536,0.00901641,-0.0385791,0.0373423,0.0416301,0.00796643,0.163435,5,0.1,21,2.3,-0.358874,3.85278,0.602283,-0.130052,0.294428,-0.00339169,0.171008,-0.205204,0.00236183,0.010151,0.148319,5,0.1,22,2.3,-1.24602,-3.18303,0.597757,0.77434,0.200894,0.001653,-0.0940412,0.781402,-0.000495464,0.0120323,2.60629,5,0.1,23,2.3,1.81829,-2.04149,0.564945,0.196769,0.33856,-0.102248,-0.0264719,0.0806153,-0.120901,0.00991811,0.186114,5,0.1,24,2.3,3.63143,2.39847,0.567628,-0.0234209,0.400302,-0.0377773,-0.0941753,0.0745952,-0.00980869,0.0106492,3.06759,5,0.1,25,2.3,-2.71901,3.04626,0.725073,0.764391,-0.560097,0.0218758,-0.329435,0.383243,-0.0124574,0.0174521,0.584524,5,0.1,26,2.3,-0.939395,-1.87803,0.802837,0.490255,-0.70807,0.0293798,0.128441,-1.09473,-0.172291,0.013578,1.8818,5,0.1,27,2.3,0.934283,2.74877,0.74978,-0.346511,-0.317217,0.0357151,0.425767,0.864446,0.289649,0.0102175,0.573562,5,0.1,28,2.3,-1.7329,-1.70572,0.594611,-0.185484,0.0923946,0.0089312,-0.357866,-0.164971,-0.0159144,0.0105516,0.98786,5,0.1,29,2.3,-0.0709038,-1.78172,0.594709,-0.513756,-0.0636054,0.00413163,0.402219,0.350498,-0.0112019,0.010763,0.333733,5,0.1,30,2.3,0.84409,1.64891,0.59952,-0.377933,0.129296,0.000503846,0.212543,-0.111774,-0.00038743,0.0114684,0.137966,5,0.1,31,2.3,3.12154,2.92096,0.593225,-0.326348,-0.0983,0.00689514,-0.50962,0.284404,-0.00697374,0.0319852,0.498839,5,0.1,32,2.3,-0.604253,0.0706471,0.614565,0.29806,0.682295,-0.0142477,-0.256121,-0.283675,0.0121184,0.022583,0.361765,5,0.1,33,2.3,-3.2067,1.0251,0.500032,0.0171464,0.263034,-0.000111666,-0.142798,-0.181127,0.000137836,0.0115869,0.266926,5,0.1,34,2.3,-0.146753,2.23427,0.607209,-0.309009,-0.342131,-0.00733687,0.319196,-0.204295,0.00760332,0.00803146,0.229907,5,0.1,35,2.3,1.33314,-2.69581,0.757712,-0.0105657,0.669676,0.0366365,0.0785738,-0.124261,-0.0600182,0.0152919,0.153371,5,0.1,36,2.3,-0.0581764,-0.952032,0.592353,0.331186,-0.184214,0.0218143,-0.180972,0.10065,-0.0119172,0.0141783,0.0701944,5,0.1,37,2.3,-0.217157,-2.10334,0.60912,0.0329463,0.489345,0.000408757,-0.468932,-1.24794,0.0138469,0.0176548,0.442431,5,0.1,38,2.3,-2.75171,-0.859219,0.607006,0.594255,0.677664,0.000574533,-0.941902,-0.845533,0.0221692,0.0407429,2.7588,5,0.1,39,2.3,2.62266,2.90421,0.60175,-0.168827,-0.0383232,-0.00326736,-0.35806,0.262842,0.00461563,0.0161294,1.269,5,0.1
0,2.4,-0.309814,1.21876,0.500001,0.0555098,0.190654,-5.96046e-06,-0.203237,-0.203192,2.98023e-05,0.0312133,3.33654,5,0.1,1,2.4,1.15262,-0.204908,0.630269,0.0826508,0.0446565,-0.0144884,-0.0888705,-0.285201,-0.0610948,0.030221,0.248669,5,0.1,2,2.4,-2.51263,2.53524,0.736311,0.434458,-0.137126,0.013876,-0.178218,0.154495,-0.0155866,0.0198992,0.249529,5,0.1,3,2.4,-1.11509,4.00913,0.603764,0.475287,0.0314236,-0.0028953,-1.15609,-0.0464916,0.00435114,0.0109273,3.3648,5,0.1,4,2.4,-0.103836,-3.31209,0.598713,-0.270767,0.0622213,0.00176877,0.211794,-0.19908,-0.00140071,0.0180708,0.194303,5,0.1,5,2.4,3.44726,1.8,0.60688,-0.254178,0.653544,-0.0058338,0.145316,-0.533402,0.00336766,0.0116251,0.793594,5,0.1,6,2.4,-4.20837,-4.22971,0.526636,-0.160813,-0.192785,-0.0436842,0.185966,0.222921,0.0505447,0.00774435,0.00514435,5,0.1,7,2.4,-1.77788,-3.89023,0.559858,0.866026,0.176734,0.0161141,-5.96046e-05,-0.0375509,-0.00342727,0.0123969,2.25203,5,0.1,8,2.4,2.51538,3.31432,0.58838,0.506222,-0.366133,0.0106588,-0.892043,0.113964,-0.00616908,0.00856995,0.433141,5,0.1,9,2.4,-2.24492,-0.650261,0.593578,-0.674713,0.517219,0.00363737,0.751257,-0.0215471,-0.0112355,0.0097962,0.634618,5,0.1,10,2.4,1.78845,-2.39432,0.760997,0.262201,-0.0147641,0.129487,-0.886738,-1.08325,-0.167549,0.0148853,1.42631,5,0.1,11,2.4,-1.5674,-1.93854,0.601394,-0.240898,0.201395,-0.000888109,0.165462,-0.277221,0.00140071,0.00968406,0.209776,5,0.1,12,2.4,-3.20417,1.34507,0.5,0.00241995,0.218391,-5.96046e-06,-0.00536442,-0.0513792,5.96046e-05,0.0114666,1.81172,5,0.1,13,2.4,0.661673,2.4502,0.596812,-0.265358,-0.184125,0.024417,-0.106394,0.381112,0.141889,0.00782579,0.213367,5,0.1,14,2.4,-3.23691,-1.85399,0.50001,0.112075,0.281554,-7.15256e-05,-0.1477,-0.220299,0.000298023,0.0175642,0.149595,5,0.1,15,2.4,1.00056,2.52303,0.500004,-0.376017,-0.133038,-2.08616e-05,0.356078,-0.0649691,5.96046e-05,0.0120792,0.182389,5,0.1,16,2.4,-0.0123851,2.63146,0.60223,-0.27274,-0.646031,-0.0024125,0.131745,0.511646,0.00116229,0.014882,0.555677,5,0.1,17,2.4,3.46613,0.599563,0.573136,-0.0595033,0.866026,0.0156999,-0.0561476,0,-0.00917912,0.0279712,2.26868,5,0.1,18,2.4,3.57091,-2.46517,0.67973,0.0660837,0.866026,-0.00699162,-0.0110865,0,0.00113249,0.0119413,2.26905,5,0.1,19,2.4,1.30967,-2.17979,0.576453,0.049606,0.516152,0.0283316,0.069797,-0.608563,0.00876188,0.0333723,0.101553,5,0.1,20,2.4,3.67125,2.79744,0.595543,0.0545084,0.404185,0.0130668,-0.0568628,-0.0245571,0.0374317,0.00835849,0.161475,5,0.1,21,2.4,-0.370956,3.88118,0.601955,-0.110973,0.273216,-0.00314862,0.207856,-0.226974,0.0026226,0.00895615,0.131812,5,0.1,22,2.4,-1.16911,-3.15864,0.597919,0.762293,0.289041,0.00158846,-0.181735,0.913382,-0.000864267,0.0141871,2.42809,5,0.1,23,2.4,1.83761,-2.00728,0.554191,0.187659,0.344816,-0.111927,-0.149906,0.025928,-0.0676811,0.014346,0.693774,5,0.1,24,2.4,3.6286,2.43883,0.563806,-0.0330091,0.405687,-0.0385419,-0.0921488,0.0120401,-0.00342727,0.0100095,2.91475,5,0.1,25,2.4,-2.64436,2.99228,0.727196,0.726491,-0.518113,0.0205189,-0.44775,0.464559,-0.0151694,0.0149881,0.406015,5,0.1,26,2.4,-0.8899,-1.95374,0.804954,0.497395,-0.799352,0.0134185,-0.0050962,-0.691235,-0.144929,0.0118455,1.36461,5,0.1,27,2.4,0.901875,2.72185,0.755045,-0.300628,-0.217724,0.0712454,0.486761,1.07634,0.39053,0.0129913,0.346715,5,0.1,28,2.4,-1.75301,-1.69728,0.595428,-0.214964,0.0768155,0.00742674,-0.246704,-0.14776,-0.0142157,0.012716,1.48337,5,0.1,29,2.4,-0.120358,-1.78644,0.595068,-0.475725,-0.0320554,0.0030458,0.377577,0.276566,-0.0103116,0.0119392,2.31142,5,0.1,30,2.4,0.807264,1.66122,0.599569,-0.359051,0.116271,0.000469387,0.184804,-0.147164,-0.000357628,0.0123479,0.19449,5,0.1,31,2.4,3.08649,2.91252,0.593881,-0.37244,-0.0708103,0.00620931,-0.384688,0.261664,-0.00688434,0.0297641,0.24235,5,0.1,32,2.4,-0.57573,0.137337,0.613201,0.27222,0.649828,-0.0130221,-0.267178,-0.383817,0.0126958,0.0243544,0.246467,5,0.1,33,2.4,-3.20558,1.05058,0.500021,0.00636578,0.247106,-9.38773e-05,-0.07689,-0.151038,0.000208616,0.011879,0.260683,5,0.1,34,2.4,-0.176086,2.19922,0.606513,-0.277769,-0.356805,-0.00659376,0.312515,-0.0754595,0.00745058,0.00853748,0.160956,5,0.1,35,2.4,1.33245,-2.62989,0.761057,-0.00359416,0.64435,0.0301421,0.0605583,-0.383854,-0.0683963,0.0161453,0.448121,5,0.1,36,2.4,-0.0259689,-0.969947,0.594474,0.312613,-0.173885,0.0205904,-0.201526,0.112087,-0.013262,0.0162604,0.0546435,5,0.1,37,2.4,-0.215988,-2.06057,0.609224,-0.00734925,0.367141,0.00161827,-0.33658,-1.18053,0.0101626,0.0102763,0.54486,5,0.1,38,2.4,-2.69743,-0.796088,0.607181,0.488091,0.581482,0.00297576,-1.14834,-1.05461,0.0245273,0.0444347,3.13863,5,0.1,39,2.4,2.60354,2.90155,0.601446,-0.216532,-0.0163138,-0.0028044,-0.542045,0.175118,0.00458956,0.0168492,1.0676,5,0.1
