id,t,px,py,pz,vx,vy,vz,ax,ay,az,planning_time,qp_cost,planning_report,size,id,t,px,py,pz,vx,vy,vz,ax,ay,az,planning_time,qp_cost,planning_report,size,id,t,px,py,pz,vx,vy,vz,ax,ay,az,planning_time,qp_cost,planning_report,size,id,t,px,py,pz,vx,vy,vz,ax,ay,az,planning_time,qp_cost,planning_report,size,id,t,px,py,pz,vx,vy,vz,ax,ay,az,planning_time,qp_cost,planning_report,size,id,t,px,py,pz,vx,vy,vz,ax,ay,az,planning_time,qp_cost,planning_report,size,id,t,px,py,pz,vx,vy,vz,ax,ay,az,planning_time,qp_cost,planning_report,size,id,t,px,py,pz,vx,vy,vz,ax,ay,az,planning_time,qp_cost,planning_report,size,id,t,px,py,pz,vx,vy,vz,ax,ay,az,planning_time,qp_cost,planning_report,size,id,t,px,py,pz,vx,vy,vz,ax,ay,az,planning_time,qp_cost,planning_report,size,id,t,px,py,pz,vx,vy,vz,ax,ay,az,planning_time,qp_cost,planning_report,size,id,t,px,py,pz,vx,vy,vz,ax,ay,az,planning_time,qp_cost,planning_report,size,id,t,px,py,pz,vx,vy,vz,ax,ay,az,planning_time,qp_cost,planning_report,size,id,t,px,py,pz,vx,vy,vz,ax,ay,az,planning_time,qp_cost,planning_report,size,id,t,px,py,pz,vx,vy,vz,ax,ay,az,planning_time,qp_cost,planning_report,size,id,t,px,py,pz,vx,vy,vz,ax,ay,az,planning_time,qp_cost,planning_report,size,id,t,px,py,pz,vx,vy,vz,ax,ay,az,planning_time,qp_cost,planning_report,size,id,t,px,py,pz,vx,vy,vz,ax,ay,az,planning_time,qp_cost,planning_report,size,id,t,px,py,pz,vx,vy,vz,ax,ay,az,planning_time,qp_cost,planning_report,size,id,t,px,py,pz,vx,vy,vz,ax,ay,az,planning_time,qp_cost,planning_report,size,id,t,px,py,pz,vx,vy,vz,ax,ay,az,planning_time,qp_cost,planning_report,size,id,t,px,py,pz,vx,vy,vz,ax,ay,az,planning_time,qp_cost,planning_report,size,id,t,px,py,pz,vx,vy,vz,ax,ay,az,planning_time,qp_cost,planning_report,size,id,t,px,py,pz,vx,vy,vz,ax,ay,az,planning_time,qp_cost,planning_report,size,id,t,px,py,pz,vx,vy,vz,ax,ay,az,planning_time,qp_cost,planning_report,size,id,t,px,py,pz,vx,vy,vz,ax,ay,az,planning_time,qp_cost,planning_report,size,id,t,px,py,pz,vx,vy,vz,ax,ay,az,planning_time,qp_cost,planning_report,size,id,t,px,py,pz,vx,vy,vz,ax,ay,az,planning_time,qp_cost,planning_report,size,id,t,px,py,pz,vx,vy,vz,ax,ay,az,planning_time,qp_cost,planning_report,size,id,t,px,py,pz,vx,vy,vz,ax,ay,az,planning_time,qp_cost,planning_report,size,id,t,px,py,pz,vx,vy,vz,ax,ay,az,planning_time,qp_cost,planning_report,size,id,t,px,py,pz,vx,vy,vz,ax,ay,az,planning_time,qp_cost,planning_report,size,id,t,px,py,pz,vx,vy,vz,ax,ay,az,planning_time,qp_cost,planning_report,size,id,t,px,py,pz,vx,vy,vz,ax,ay,az,planning_time,qp_cost,planning_report,size,id,t,px,py,pz,vx,vy,vz,ax,ay,az,planning_time,qp_cost,planning_report,size,id,t,px,py,pz,vx,vy,vz,ax,ay,az,planning_time,qp_cost,planning_report,size,id,t,px,py,pz,vx,vy,vz,ax,ay,az,planning_time,qp_cost,planning_report,size,id,t,px,py,pz,vx,vy,vz,ax,ay,az,planning_time,qp_cost,planning_report,size,id,t,px,py,pz,vx,vy,vz,ax,ay,az,planning_time,qp_cost,planning_report,size,id,t,px,py,pz,vx,vy,vz,ax,ay,az,planning_time,qp_cost,planning_report,size
0,0,-0.342708,-3.91157,0.569982,0,0,0,0,0,0,0.0140848,3.5122,5,0.1,1,0,0.334759,3.17337,0.653901,0,0,0,0,0,0,0.0163351,3.5122,5,0.1,2,0,3.6762,1.78341,0.642383,0,0,0,0,0,0,0.0123147,3.5122,5,0.1,3,0,-1.38264,-3.53923,0.680302,0,0,0,0,0,0,0.0105836,3.5122,5,0.1,4,0,1.68339,-0.0716929,0.575056,0,0,0,0,0,0,0.0220851,3.51343,5,0.1,5,0,-4.01396,-3.20281,0.632526,0,0,0,0,0,0,0.0104281,3.5122,5,0.1,6,0,-3.63693,0.853004,0.664696,0,0,0,0,0,0,0.00858006,0.42874,5,0.1,7,0,3.30525,3.4512,0.696519,0,0,0,0,0,0,0.0125215,3.66888,5,0.1,8,0,-3.69734,-0.637463,0.558146,0,0,0,0,0,0,0.038039,3.51219,5,0.1,9,0,2.36311,2.90646,0.563691,0,0,0,0,0,0,0.00977355,0.779564,5,0.1,10,0,-2.96507,2.83338,0.53829,0,0,0,0,0,0,0.0250074,3.5122,5,0.1,11,0,1.49701,1.20821,0.640161,0,0,0,0,0,0,0.00930932,0.509045,5,0.1,12,0,-0.585695,-0.146702,0.68536,0,0,0,0,0,0,0.0179864,0.781353,5,0.1,13,0,-2.13891,-3.78918,0.532823,0,0,0,0,0,0,0.018657,0.572577,5,0.1,14,0,4.12767,2.96883,0.608713,0,0,0,0,0,0,0.0212302,2.20389,5,0.1,15,0,-1.56082,1.7852,0.62702,0,0,0,0,0,0,0.00836221,3.5122,5,0.1,16,0,2.17428,-2.65585,0.69749,0,0,0,0,0,0,0.030494,3.5122,5,0.1,17,0,-2.04686,3.45,0.646589,0,0,0,0,0,0,0.0116238,3.5122,5,0.1,18,0,1.52634,-3.45157,0.501156,0,0,0,0,0,0,0.0136479,3.51222,5,0.1,19,0,1.92021,4.02368,0.616341,0,0,0,0,0,0,0.0136953,3.51219,5,0.1,20,0,1.33271,3.88563,0.591553,0,0,0,0,0,0,0.0128948,3.03323,5,0.1,21,0,-1.26512,4.02327,0.640447,0,0,0,0,0,0,0.00877149,2.08234,5,0.1,22,0,-3.13279,-1.02504,0.654143,0,0,0,0,0,0,0.0107357,0.547463,5,0.1,23,0,-4.37992,-0.82925,0.578864,0,0,0,0,0,0,0.015063,3.5122,5,0.1,24,0,0.0900359,1.97819,0.506347,0,0,0,0,0,0,0.00951961,3.5122,5,0.1,25,0,-4.05454,-3.94285,0.535137,0,0,0,0,0,0,0.0100296,2.57953,5,0.1,26,0,-3.4535,3.56551,0.662801,0,0,0,0,0,0,0.0120797,3.51219,5,0.1,27,0,-0.846595,-2.64815,0.697852,0,0,0,0,0,0,0.0101266,1.06009,5,0.1,28,0,3.82453,-3.83762,0.51009,0,0,0,0,0,0,0.0128725,3.51219,5,0.1,29,0,3.53276,-1.03376,0.660215,0,0,0,0,0,0,0.0102964,3.51219,5,0.1,30,0,-4.33499,-2.53398,0.604423,0,0,0,0,0,0,0.0410369,1.9191,5,0.1,31,0,-3.38038,-4.28664,0.687428,0,0,0,0,0,0,0.0204177,3.5122,5,0.1,32,0,-1.62878,-0.834302,0.625593,0,0,0,0,0,0,0.0103149,3.37953,5,0.1,33,0,-0.410334,-1.8192,0.694632,0,0,0,0,0,0,0.0137231,3.51219,5,0.1,34,0,4.04173,0.806493,0.561111,0,0,0,0,0,0,0.012071,3.5122,5,0.1,35,0,2.30214,-0.78169,0.574784,0,0,0,0,0,0,0.0104292,2.18634,5,0.1,36,0,2.12159,-1.6207,0.594075,0,0,0,0,0,0,0.0233674,3.5122,5,0.1,37,0,1.14419,-0.448515,0.527088,0,0,0,0,0,0,0.0125939,3.5122,5,0.1,38,0,2.23148,-3.44852,0.696658,0,0,0,0,0,0,0.0196214,3.5122,5,0.1,39,0,-1.00914,-4.32577,0.643175,0,0,0,0,0,0,0.0267828,3.5122,5,0.1
0,0.1,-0.342666,-3.90948,0.570012,0.00119838,0.0592504,0.000842288,0.0213031,1.05332,0.0149757,0.0140848,3.5122,5,0.1,1,0.1,0.336843,3.17324,0.653863,0.0591576,-0.0034593,-0.00107521,1.05169,-0.0614822,-0.0191145,0.0163351,3.5122,5,0.1,2,0.1,3.67647,1.78134,0.642397,0.00776164,-0.0587568,0.000395533,0.13797,-1.04456,0.00703707,0.0123147,3.5122,5,0.1,3,0.1,-1.38279,-3.53715,0.680304,-0.00431407,0.059111,3.99537e-05,-0.0767037,1.05087,0.00071153,0.0105836,3.5122,5,0.1,4,0.1,1.68194,-0.0730518,0.575068,-0.0410218,-0.0385759,0.000365824,-0.729278,-0.685794,0.00650436,0.0220851,3.51343,5,0.1,5,0.1,-4.01189,-3.2031,0.63253,0.0587031,-0.00815578,0.000113901,1.04362,-0.145003,0.00202283,0.0104281,3.5122,5,0.1,6,0.1,-3.63642,0.853523,0.664629,0.0144307,0.0147279,-0.00191713,0.256523,0.261828,-0.0340827,0.00858006,0.42874,5,0.1,7,0.1,3.30435,3.45131,0.69656,-0.0255771,0.00325441,0.00116983,-0.454694,0.0578761,0.0207983,0.0125215,3.66888,5,0.1,8,0.1,-3.69533,-0.636907,0.558171,0.0571292,0.0157641,0.000703894,1.01562,0.280254,0.0125095,0.038039,3.51219,5,0.1,9,0.1,2.36408,2.90656,0.563729,0.0277646,0.00277162,0.00107605,0.493586,0.0492632,0.0191331,0.00977355,0.779564,5,0.1,10,0.1,-2.96327,2.83444,0.538344,0.0510477,0.0300754,0.0015256,0.907511,0.534669,0.0271164,0.0250074,3.5122,5,0.1,11,0.1,1.49623,1.20836,0.640119,-0.0221372,0.00420138,-0.00119004,-0.39354,0.0746995,-0.0211596,0.00930932,0.509045,5,0.1,12,0.1,-0.585397,-0.145766,0.685428,0.00846619,0.026573,0.00191545,0.150513,0.472409,0.0340529,0.0179864,0.781353,5,0.1,13,0.1,-2.1384,-3.78851,0.532893,0.0144888,0.018942,0.0019907,0.257567,0.336722,0.0353865,0.018657,0.572577,5,0.1,14,0.1,4.12603,2.96886,0.608861,-0.0467531,0.000924617,0.00418704,-0.831157,0.0164211,0.0744313,0.0212302,2.20389,5,0.1,15,0.1,-1.56071,1.78312,0.626971,0.00318736,-0.0591658,-0.00140844,0.0566691,-1.05183,-0.0250377,0.00836221,3.5122,5,0.1,16,0.1,2.17277,-2.65441,0.697522,-0.0429187,0.0408642,0.000910927,-0.763014,0.726461,0.0161938,0.030494,3.5122,5,0.1,17,0.1,-2.04587,3.44816,0.646615,0.0279643,-0.0522509,0.000726338,0.497162,-0.928909,0.0129156,0.0116238,3.5122,5,0.1,18,0.1,1.52626,-3.44948,0.501146,-0.00231974,0.0592194,-0.000280701,-0.0412315,1.0528,-0.00499189,0.0136479,3.51222,5,0.1,19,0.1,1.91888,4.02207,0.616326,-0.0378221,-0.0456281,-0.000420213,-0.6724,-0.811189,-0.00747293,0.0136953,3.51219,5,0.1,20,0.1,1.33179,3.88392,0.591562,-0.0261582,-0.0484701,0.000250246,-0.465035,-0.861689,0.00445172,0.0128948,3.03323,5,0.1,21,0.1,-1.26583,4.02183,0.640421,-0.0201667,-0.0409305,-0.000741147,-0.358529,-0.727654,-0.0131801,0.00877149,2.08234,5,0.1,22,0.1,-3.13198,-1.02499,0.654009,0.0230487,0.00134297,-0.00381321,0.409737,0.0238717,-0.0677928,0.0107357,0.547463,5,0.1,23,0.1,-4.3789,-0.827432,0.578882,0.0291295,0.0516134,0.000500493,0.517875,0.917572,0.00890344,0.015063,3.5122,5,0.1,24,0.1,0.0896498,1.98024,0.506292,-0.0109612,0.0582244,-0.00154218,-0.194867,1.03509,-0.0274144,0.00951961,3.5122,5,0.1,25,0.1,-4.05417,-3.9411,0.535131,0.0103734,0.0497222,-0.000189617,0.184447,0.883937,-0.00336766,0.0100296,2.57953,5,0.1,26,0.1,-3.45164,3.56456,0.66273,0.0527527,-0.0269402,-0.00202404,0.937834,-0.478938,-0.0359826,0.0120797,3.51219,5,0.1,27,0.1,-0.845868,-2.64726,0.697907,0.020643,0.0251342,0.00154544,0.366986,0.446811,0.0274703,0.0101266,1.06009,5,0.1,28,0.1,3.8249,-3.83557,0.510115,0.0104643,0.0583336,0.000704452,0.186026,1.03703,0.0125244,0.0128725,3.51219,5,0.1,29,0.1,3.53304,-1.0317,0.660228,0.00805818,0.0587167,0.000383426,0.143245,1.04385,0.00681356,0.0102964,3.51219,5,0.1,30,0.1,-4.33376,-2.53306,0.604418,0.0351146,0.0261962,-0.000130944,0.624299,0.465721,-0.00233203,0.0410369,1.9191,5,0.1,31,0.1,-3.38035,-4.28455,0.68745,0.0008028,0.0592597,0.000624638,0.0142604,1.05354,0.0111051,0.0204177,3.5122,5,0.1,32,0.1,-1.62678,-0.833862,0.625616,0.056777,0.0124896,0.000668317,1.00937,0.222042,0.0118837,0.0103149,3.37953,5,0.1,33,0.1,-0.411762,-1.82072,0.694689,-0.040543,-0.0432016,0.00161547,-0.720764,-0.768028,0.028722,0.0137231,3.51219,5,0.1,34,0.1,4.04095,0.808427,0.561145,-0.0223182,0.0548974,0.000973418,-0.396758,0.975952,0.0173002,0.012071,3.5122,5,0.1,35,0.1,2.30056,-0.782169,0.574886,-0.0446517,-0.0135841,0.00289399,-0.7938,-0.241496,0.0514537,0.0104292,2.18634,5,0.1,36,0.1,2.12094,-1.61871,0.594078,-0.0184525,0.0563221,0.000102073,-0.328049,1.00129,0.00181794,0.0233674,3.5122,5,0.1,37,0.1,1.14258,-0.449846,0.527101,-0.0456598,-0.037786,0.000347756,-0.811726,-0.671752,0.00618398,0.0125939,3.5122,5,0.1,38,0.1,2.23108,-3.44647,0.696682,-0.011396,0.0581581,0.000689644,-0.202581,1.03392,0.0122599,0.0196214,3.5122,5,0.1,39,0.1,-1.0088,-4.32371,0.643154,0.00958741,0.0584848,-0.000583567,0.170439,1.03971,-0.0103787,0.0267828,3.5122,5,0.1
0,0.2,-0.342422,-3.89744,0.570183,0.00378788,0.18726,0.00266284,0.0284016,1.4044,0.0199378,0.0091467,2.9258,5,0.1,1,0.2,0.348859,3.17254,0.653645,0.186967,-0.0109315,-0.00339895,1.40224,-0.0818968,-0.025481,0.01871,2.92579,5,0.1,2,0.2,3.67805,1.76941,0.642477,0.0245273,-0.185701,0.00125021,0.184059,-1.39272,0.00938773,0.0109731,2.92614,5,0.1,3,0.2,-1.38367,-3.52514,0.680312,-0.0136346,0.186819,0.00012666,-0.102222,1.40119,0.000953674,0.0123758,2.92579,5,0.1,4,0.2,1.67361,-0.0808877,0.575143,-0.129649,-0.121919,0.00115484,-0.97239,-0.914395,0.00870228,0.018897,2.94778,5,0.1,5,0.2,-3.99997,-3.20476,0.632554,0.185537,-0.025779,0.000359118,1.39141,-0.193238,0.00271201,0.00975728,2.9258,5,0.1,6,0.2,-3.63349,0.856515,0.664239,0.0456035,0.0465482,-0.00605881,0.342011,0.349104,-0.0454485,0.00756855,0.351761,5,0.1,7,0.2,3.29916,3.45197,0.696798,-0.0808299,0.0102818,0.00369549,-0.606418,0.0772476,0.0277758,0.00951088,3.62072,5,0.1,8,0.2,-3.68372,-0.633705,0.558314,0.180554,0.049822,0.00222474,1.35422,0.373691,0.0166893,0.0325202,2.92579,5,0.1,9,0.2,2.36972,2.90712,0.563948,0.087744,0.00876188,0.00340044,0.658154,0.0656843,0.0255108,0.00983266,0.639593,5,0.1,10,0.2,-2.95291,2.84054,0.538654,0.161338,0.0950456,0.00482202,1.21009,0.712991,0.0361204,0.024047,2.92578,5,0.1,11,0.2,1.49174,1.20921,0.639877,-0.0699639,0.0132799,-0.00376105,-0.524759,0.0995994,-0.0282228,0.00966845,0.417645,5,0.1,12,0.2,-0.583677,-0.140369,0.685817,0.026758,0.0839837,0.00605434,0.200689,0.62988,0.0453889,0.0176819,0.641061,5,0.1,13,0.2,-2.13546,-3.78467,0.533298,0.0457883,0.0598669,0.00629127,0.343442,0.448942,0.0472069,0.0211185,0.469772,5,0.1,14,0.2,4.11653,2.96905,0.609711,-0.14776,0.00291467,0.0132322,-1.10841,0.0220537,0.0992715,0.0200434,1.80816,5,0.1,15,0.2,-1.56006,1.7711,0.626685,0.0100762,-0.186995,-0.00445098,0.0755191,-1.40238,-0.0333786,0.0115106,2.9258,5,0.1,16,0.2,2.16405,-2.64611,0.697707,-0.135642,0.129151,0.0028789,-1.01745,0.968695,0.0216067,0.0265291,2.92578,5,0.1,17,0.2,-2.04019,3.43755,0.646762,0.0883818,-0.165141,0.00229776,0.662923,-1.23847,0.0171661,0.0112104,2.9258,5,0.1,18,0.2,1.52578,-3.43745,0.501089,-0.00733137,0.187159,-0.000888109,-0.0550151,1.40381,-0.00664592,0.0125536,2.92609,5,0.1,19,0.2,1.9112,4.0128,0.61624,-0.119537,-0.144219,-0.00132918,-0.896513,-1.08135,-0.00995398,0.0174312,2.92581,5,0.1,20,0.2,1.32647,3.87407,0.591613,-0.0826746,-0.15319,0.000791252,-0.620008,-1.14894,0.00593066,0.0142244,2.48862,5,0.1,21,0.2,-1.26993,4.01351,0.64027,-0.0637382,-0.129366,-0.00234246,-0.47797,-0.970125,-0.0175536,0.0197158,1.70847,5,0.1,22,0.2,-3.1273,-1.02472,0.653234,0.0728369,0.00424385,-0.0120521,0.546455,0.0318289,-0.0903904,0.0124509,0.449162,5,0.1,23,0.2,-4.37298,-0.816948,0.578984,0.0920653,0.163123,0.00158101,0.69046,1.22347,0.0118911,0.0153908,2.92579,5,0.1,24,0.2,0.0874233,1.99207,0.505979,-0.034643,0.184017,-0.00487417,-0.25982,1.38015,-0.0365674,0.009675,2.92604,5,0.1,25,0.2,-4.05206,-3.931,0.535092,0.0327826,0.157148,-0.000599027,0.246048,1.1785,-0.00450015,0.00907509,2.11638,5,0.1,26,0.2,-3.44093,3.55909,0.662318,0.166726,-0.0851512,-0.00639558,1.25039,-0.638485,-0.0480115,0.0138448,2.9258,5,0.1,27,0.2,-0.841675,-2.64216,0.698221,0.0652418,0.0794411,0.00488311,0.489324,0.59557,0.0366569,0.00891629,0.869755,5,0.1,28,0.2,3.82703,-3.82372,0.510258,0.0330746,0.184363,0.00222623,0.247955,1.38259,0.0166893,0.00977084,2.92581,5,0.1,29,0.2,3.53468,-1.01977,0.660306,0.0254691,0.185573,0.00121146,0.190973,1.39183,0.00908971,0.013424,2.92579,5,0.1,30,0.2,-4.32662,-2.52773,0.604392,0.110984,0.0827909,-0.000414252,0.832558,0.620961,-0.00309944,0.038717,1.57452,5,0.1,31,0.2,-3.38019,-4.27252,0.687576,0.00253916,0.18729,0.00197291,0.0189543,1.40452,0.0148416,0.0189186,2.92581,5,0.1,32,0.2,-1.61524,-0.831325,0.625752,0.179443,0.0394732,0.00211149,1.34581,0.296056,0.0158846,0.0122137,2.77274,5,0.1,33,0.2,-0.419997,-1.8295,0.695017,-0.128136,-0.136539,0.00510514,-0.961021,-1.02401,0.038296,0.0100143,2.9258,5,0.1,34,0.2,4.03641,0.819578,0.561343,-0.0705361,0.173502,0.0030756,-0.528812,1.30129,0.0230968,0.0104994,2.92788,5,0.1,35,0.2,2.29149,-0.784928,0.575473,-0.14112,-0.0429317,0.00914633,-1.05846,-0.322014,0.0685751,0.0112827,1.79378,5,0.1,36,0.2,2.1172,-1.60727,0.594099,-0.0583231,0.178006,0.000321865,-0.437379,1.33502,0.00244379,0.02213,2.92581,5,0.1,37,0.2,1.1333,-0.457522,0.527171,-0.144309,-0.119422,0.00109971,-1.0823,-0.895679,0.00825524,0.0149463,2.92579,5,0.1,38,0.2,2.22876,-3.43466,0.696822,-0.0360191,0.183809,0.00217855,-0.270009,1.37854,0.0163913,0.0231778,2.92581,5,0.1,39,0.2,-1.00685,-4.31183,0.643036,0.0303,0.184846,-0.00184476,0.227332,1.38617,-0.0138581,0.0298554,2.9258,5,0.1
0,0.3,-0.341886,-3.87091,0.57056,0.00705449,0.348781,0.00495696,0.0349097,1.72599,0.0245236,0.0091467,2.9258,5,0.1,1,0.3,0.375354,3.17099,0.653163,0.348238,-0.0203531,-0.00633001,1.72333,-0.100717,-0.0313222,0.01871,2.92579,5,0.1,2,0.3,3.6815,1.74314,0.642656,0.0450134,-0.344448,0.00238474,0.21407,-1.68621,0.012517,0.0109731,2.92614,5,0.1,3,0.3,-1.3856,-3.49867,0.68033,-0.0253925,0.347966,0.000236277,-0.125654,1.72199,0.00116602,0.0123758,2.92579,5,0.1,4,0.3,1.65515,-0.0982249,0.575305,-0.243931,-0.228792,0.00209985,-1.23857,-1.15416,0.00970438,0.018897,2.94778,5,0.1,5,0.3,-3.97367,-3.20841,0.632604,0.345566,-0.0480067,0.000670366,1.71007,-0.237539,0.00332296,0.00975728,2.9258,5,0.1,6,0.3,-3.62703,0.863108,0.663381,0.0848368,0.0865945,-0.0112722,0.418544,0.42719,-0.0556111,0.00756855,0.351761,5,0.1,7,0.3,3.28847,3.45343,0.697322,-0.128761,0.0191525,0.00688471,-0.35952,0.0947118,0.0340417,0.00951088,3.62072,5,0.1,8,0.3,-3.65813,-0.626645,0.558629,0.3363,0.0927989,0.00414401,1.66428,0.459243,0.020504,0.0325202,2.92579,5,0.1,9,0.3,2.38215,2.90837,0.56443,0.16324,0.0162974,0.00632666,0.805348,0.0804067,0.0312105,0.00983266,0.639593,5,0.1,10,0.3,-2.93004,2.85401,0.539337,0.300507,0.177041,0.00897767,1.48714,0.876188,0.0444166,0.024047,2.92578,5,0.1,11,0.3,1.48183,1.21109,0.639344,-0.130158,0.0247052,-0.00699814,-0.642113,0.121884,-0.0345334,0.00966845,0.417645,5,0.1,12,0.3,-0.579887,-0.128474,0.686674,0.049779,0.156238,0.0112617,0.245571,0.77077,0.0555515,0.0176819,0.641061,5,0.1,13,0.3,-2.12897,-3.77619,0.534189,0.0851851,0.111366,0.0117057,0.420257,0.549391,0.0577532,0.0211185,0.469772,5,0.1,14,0.3,4.0956,2.96946,0.611585,-0.2749,0.0054393,0.024619,-1.35624,0.0268966,0.121459,0.0200434,1.80816,5,0.1,15,0.3,-1.55863,1.7446,0.626054,0.0187628,-0.348283,-0.00828998,0.0928342,-1.72353,-0.0410192,0.0115106,2.9258,5,0.1,16,0.3,2.14483,-2.62781,0.698115,-0.252654,0.240558,0.00536321,-1.25034,1.19045,0.0265427,0.0265291,2.92578,5,0.1,17,0.3,-2.02767,3.41415,0.647087,0.164621,-0.307578,0.00427393,0.814676,-1.52211,0.0211261,0.0112104,2.9258,5,0.1,18,0.3,1.52469,-3.41093,0.500971,-0.0151251,0.34853,-0.00142362,-0.0936836,1.72384,-0.00409782,0.0125536,2.92609,5,0.1,19,0.3,1.89426,3.99237,0.616052,-0.222645,-0.268593,-0.00247452,-1.1018,-1.32909,-0.0122413,0.0174312,2.92581,5,0.1,20,0.3,1.31477,3.85238,0.591725,-0.153798,-0.284985,0.00147177,-0.758722,-1.40592,0.00726059,0.0142244,2.48862,5,0.1,21,0.3,-1.27895,3.99519,0.639938,-0.118569,-0.240654,-0.00435654,-0.584923,-1.18721,-0.0214875,0.0197158,1.70847,5,0.1,22,0.3,-3.11698,-1.02412,0.651527,0.135517,0.00789501,-0.022421,0.6686,0.0389516,-0.110611,0.0124509,0.449162,5,0.1,23,0.3,-4.35993,-0.793831,0.579208,0.171475,0.303832,0.00294782,0.848532,1.50359,0.0145957,0.0153908,2.92579,5,0.1,24,0.3,0.0825141,2.01814,0.505333,-0.0645247,0.342746,-0.00781976,-0.319313,1.69615,-0.022538,0.009675,2.92604,5,0.1,25,0.3,-4.04742,-3.90875,0.535007,0.0610031,0.292338,-0.00111498,0.300974,1.44218,-0.00549853,0.00907509,2.11638,5,0.1,26,0.3,-3.4173,3.54702,0.661412,0.310533,-0.158586,-0.0119161,1.53673,-0.784755,-0.0589788,0.0138448,2.9258,5,0.1,27,0.3,-0.832435,-2.63091,0.698913,0.121372,0.147766,0.00908719,0.59877,0.72889,0.0448413,0.00891629,0.869755,5,0.1,28,0.3,3.83171,-3.79759,0.510573,0.0615947,0.343378,0.00414597,0.304788,1.69924,0.0205152,0.00977084,2.92581,5,0.1,29,0.3,3.53829,-0.993471,0.660478,0.0474337,0.345645,0.00225678,0.234708,1.7105,0.0111684,0.013424,2.92579,5,0.1,30,0.3,-4.3109,-2.51601,0.604333,0.206481,0.154021,-0.000770204,1.0187,0.759825,-0.0037998,0.038717,1.57452,5,0.1,31,0.3,-3.37983,-4.24598,0.687856,0.00472069,0.348828,0.00367844,0.0233352,1.72624,0.0182204,0.0189186,2.92581,5,0.1,32,0.3,-1.58983,-0.825735,0.626051,0.333823,0.073434,0.00393214,1.64685,0.362277,0.0194125,0.0122137,2.77274,5,0.1,33,0.3,-0.438155,-1.84885,0.695741,-0.238662,-0.254311,0.00950927,-1.18107,-1.25851,0.0470616,0.0100143,2.9258,5,0.1,34,0.3,4.02648,0.844042,0.561774,-0.129703,0.319666,0.00559548,-0.620544,1.53711,0.0259615,0.0104994,2.92788,5,0.1,35,0.3,2.27151,-0.791009,0.576769,-0.262535,-0.0798696,0.0170134,-1.29518,-0.394028,0.0839308,0.0112827,1.79378,5,0.1,36,0.3,2.10893,-1.58206,0.594145,-0.108673,0.331195,0.000603311,-0.538364,1.63448,0.00301003,0.02213,2.92581,5,0.1,37,0.3,1.11285,-0.474445,0.527327,-0.268784,-0.222432,0.00204882,-1.33012,-1.10076,0.010144,0.0149463,2.92579,5,0.1,38,0.3,2.22365,-3.40861,0.697128,-0.067433,0.342284,0.00397982,-0.338256,1.69298,0.01866,0.0231778,2.92581,5,0.1,39,0.3,-1.00256,-4.28563,0.642774,0.0564427,0.344273,-0.00343779,0.279348,1.70365,-0.0170134,0.0298554,2.9258,5,0.1
0,0.4,-0.341009,-3.82755,0.571176,0.0104181,0.515079,0.00731945,0.0308454,1.52612,0.0216961,0.0102336,2.52168,5,0.1,1,0.4,0.418648,3.16846,0.652376,0.514277,-0.0300586,-0.0093475,1.52373,-0.0890493,-0.0276864,0.0211522,2.51526,5,0.1,2,0.4,3.68704,1.70043,0.642957,0.0653327,-0.506273,0.00361502,0.18394,-1.47945,0.0115037,0.0103587,2.75048,5,0.1,3,0.4,-1.38875,-3.45541,0.680359,-0.0375003,0.513881,0.000348687,-0.111043,1.52242,0.00104308,0.0153973,2.51509,5,0.1,4,0.4,1.62463,-0.126804,0.575562,-0.364357,-0.340758,0.00301003,-1.11473,-1.03415,0.00810623,0.0194998,2.52869,5,0.1,5,0.4,-3.93071,-3.21438,0.632688,0.510329,-0.0708938,0.000989437,1.51193,-0.210166,0.00298023,0.00985942,2.51377,5,0.1,6,0.4,-3.61649,0.873865,0.661981,0.125116,0.127707,-0.0166252,0.369191,0.37688,-0.0490248,0.0085726,0.278318,5,0.1,7,0.4,3.27416,3.45581,0.698177,-0.15415,0.0282705,0.0101626,-0.15521,0.0836849,0.0300705,0.00874298,3.65138,5,0.1,8,0.4,-3.61632,-0.615108,0.559144,0.496644,0.137046,0.00611991,1.47164,0.406057,0.0181198,0.0307637,2.53237,5,0.1,9,0.4,2.40243,2.91039,0.565216,0.240743,0.0240326,0.00932962,0.710487,0.0709295,0.0275671,0.0122802,0.54044,5,0.1,10,0.4,-2.89268,2.87603,0.540453,0.443786,0.261456,0.0132576,1.31488,0.774741,0.0392497,0.0255784,2.51006,5,0.1,11,0.4,1.46566,1.21416,0.638475,-0.191957,0.0364333,-0.0103205,-0.566423,0.107527,-0.030458,0.00866593,0.330445,5,0.1,12,0.4,-0.573703,-0.109065,0.688073,0.0734121,0.230416,0.0166073,0.216663,0.679999,0.0490248,0.0176985,0.507215,5,0.1,13,0.4,-2.11839,-3.76235,0.535643,0.125629,0.164241,0.0172645,0.370741,0.484705,0.0509322,0.0179942,0.37169,5,0.1,14,0.4,4.06145,2.97014,0.614644,-0.405419,0.00802279,0.0363067,-1.19638,0.0237226,0.107169,0.0180554,2.67103,5,0.1,15,0.4,-1.5563,1.7013,0.625023,0.0277072,-0.514343,-0.0122428,0.0821352,-1.52391,-0.0362694,0.00838042,2.54424,5,0.1,16,0.4,2.11342,-2.5979,0.698781,-0.373119,0.355256,0.00792146,-1.10555,1.05262,0.0234246,0.0289405,2.51006,5,0.1,17,0.4,-2.0072,3.37591,0.647619,0.243112,-0.454229,0.00631213,0.720382,-1.34587,0.0186563,0.00931638,2.51008,5,0.1,18,0.4,1.5227,-3.36761,0.500812,-0.0248104,0.514591,-0.00171661,-0.0944734,1.52338,-0.00178814,0.0166892,2.51554,5,0.1,19,0.4,1.86658,3.95898,0.615744,-0.3288,-0.396651,-0.00365376,-0.974238,-1.17528,-0.0108182,0.0130098,2.51532,5,0.1,20,0.4,1.29566,3.81697,0.591908,-0.226817,-0.42029,0.00216961,-0.66936,-1.24037,0.0064373,0.0165514,1.97601,5,0.1,21,0.4,-1.29368,3.9653,0.639397,-0.174862,-0.35491,-0.00642538,-0.515997,-1.04737,-0.0189543,0.00929703,1.35176,5,0.1,22,0.4,-3.10015,-1.02314,0.648742,0.19986,0.0116438,-0.0330657,0.589848,0.0343919,-0.0975728,0.00899447,0.355378,5,0.1,23,0.4,-4.33862,-0.756058,0.579574,0.253236,0.448699,0.00435412,0.750065,1.32942,0.0129044,0.0149223,2.51008,5,0.1,24,0.4,0.0744921,2.06076,0.50446,-0.0952898,0.506169,-0.00942796,-0.282332,1.49965,-0.00989437,0.0108871,2.51309,5,0.1,25,0.4,-4.03984,-3.87243,0.534869,0.0899673,0.431126,-0.00164509,0.265598,1.27244,-0.00482798,0.00947577,1.67451,5,0.1,26,0.4,-3.37869,3.5273,0.65993,0.458592,-0.234199,-0.0175983,1.35875,-0.693798,-0.0521541,0.013364,2.52151,5,0.1,27,0.4,-0.817357,-2.61255,0.700041,0.178997,0.217921,0.0134021,0.528246,0.643015,0.0395477,0.00945454,0.693517,5,0.1,28,0.4,3.83937,-3.7549,0.511089,0.0909567,0.507098,0.00612289,0.269651,1.50239,0.0181198,0.0102942,2.51273,5,0.1,29,0.4,3.54418,-0.9505,0.660758,0.0700533,0.510448,0.0033319,0.207424,1.51238,0.00989437,0.0127629,2.51379,5,0.1,30,0.4,-4.28525,-2.49687,0.604237,0.30452,0.227147,-0.00113547,0.8986,0.670433,-0.00333786,0.0437462,1.24576,5,0.1,31,0.4,-3.37924,-4.20261,0.688314,0.00696778,0.515139,0.00543296,0.0207424,1.52659,0.0160933,0.0210302,2.51565,5,0.1,32,0.4,-1.54836,-0.816612,0.62654,0.492314,0.108299,0.00579953,1.45286,0.3196,0.0171363,0.0105445,2.19382,5,0.1,33,0.4,-0.467827,-1.88047,0.696923,-0.352455,-0.375563,0.0140429,-1.04429,-1.11282,0.041604,0.011496,2.42718,5,0.1,34,0.4,4.01048,0.883508,0.562459,-0.188744,0.466198,0.0080362,-0.535607,1.33115,0.0218749,0.0117425,2.85536,5,0.1,35,0.4,2.23889,-0.800931,0.578882,-0.387186,-0.117791,0.0250906,-1.1425,-0.347584,0.0740588,0.00984048,1.41926,5,0.1,36,0.4,2.09542,-1.54091,0.59422,-0.160563,0.488517,0.00089258,-0.47648,1.44237,0.00268221,0.0217973,2.70991,5,0.1,37,0.4,1.07944,-0.502099,0.527582,-0.396937,-0.328489,0.00302494,-1.17612,-0.973254,0.0090003,0.0350919,2.51007,5,0.1,38,0.4,2.21524,-3.36607,0.697617,-0.100183,0.505364,0.00573993,-0.301957,1.49643,0.015825,0.0365551,2.51217,5,0.1,39,0.4,-0.99554,-4.24283,0.642347,0.0833556,0.508416,-0.00507683,0.246972,1.50633,-0.0150502,0.0267687,2.51313,5,0.1
0,0.5,-0.339808,-3.76852,0.57202,0.0135927,0.6627,0.00955211,0.0310149,1.36679,0.0218116,0.0102336,2.52168,5,0.1,1,0.5,0.47768,3.165,0.651299,0.664456,-0.0392232,-0.0121966,1.41157,-0.0895113,-0.0278354,0.0211522,2.51526,5,0.1,2,0.5,3.69351,1.64317,0.643509,0.055629,-0.630951,0.00852337,-0.324279,-0.996761,0.0777878,0.0103587,2.75048,5,0.1,3,0.5,-1.39308,-3.39642,0.6804,-0.0489293,0.664037,0.000455789,-0.111647,1.41226,0.00104308,0.0153973,2.51509,5,0.1,4,0.5,1.58244,-0.166214,0.575904,-0.47977,-0.447662,0.00382792,-1.13347,-1.04847,0.00784546,0.0194998,2.52869,5,0.1,5,0.5,-3.8721,-3.22255,0.632802,0.660344,-0.0925187,0.00129491,1.41875,-0.211194,0.00297278,0.00985942,2.51377,5,0.1,6,0.5,-3.6021,0.888555,0.660069,0.162576,0.165946,-0.0216003,0.361636,0.369124,-0.0480302,0.0085726,0.278318,5,0.1,7,0.5,3.25855,3.45906,0.699347,-0.153144,0.0368223,0.0132357,0.133455,0.0830591,0.0298433,0.00874298,3.65138,5,0.1,8,0.5,-3.55961,-0.599315,0.55985,0.633343,0.17883,0.00798469,1.22097,0.408139,0.0182129,0.0307637,2.53237,5,0.1,9,0.5,2.42955,2.91315,0.566289,0.296601,0.0312291,0.0121259,0.407949,0.0694692,0.0269823,0.0122802,0.54044,5,0.1,10,0.5,-2.84154,2.90615,0.541981,0.579091,0.341177,0.0172977,1.32163,0.77869,0.0394769,0.0255784,2.51006,5,0.1,11,0.5,1.44358,1.21835,0.637288,-0.249427,0.0473429,-0.0134108,-0.554785,0.105307,-0.0298284,0.00866593,0.330445,5,0.1,12,0.5,-0.565259,-0.0825609,0.689984,0.0953943,0.299408,0.0215814,0.212196,0.666007,0.048019,0.0176985,0.507215,5,0.1,13,0.5,-2.10394,-3.74346,0.537629,0.163244,0.213419,0.0224322,0.363126,0.474736,0.0498891,0.0179942,0.37169,5,0.1,14,0.5,4.01431,2.9709,0.618672,-0.541167,0.00587888,0.0429695,-1.42713,-0.0576824,0.0301078,0.0180554,2.67103,5,0.1,15,0.5,-1.55311,1.6426,0.623613,0.0361584,-0.654988,-0.0159751,0.0825524,-1.24485,-0.0364594,0.00838042,2.54424,5,0.1,16,0.5,2.07042,-2.55696,0.699694,-0.486882,0.463571,0.0103325,-1.11119,1.058,0.0235587,0.0289405,2.51006,5,0.1,17,0.5,-1.97919,3.32357,0.648346,0.317239,-0.592723,0.00823373,0.724047,-1.35279,0.0187792,0.00931638,2.51008,5,0.1,18,0.5,1.51972,-3.30855,0.500636,-0.0349706,0.664706,-0.00176607,-0.103064,1.41072,0.000644475,0.0166892,2.51554,5,0.1,19,0.5,1.82889,3.91333,0.615325,-0.423202,-0.515744,-0.00470942,-0.875235,-1.14848,-0.00984594,0.0130098,2.51532,5,0.1,20,0.5,1.26974,3.76881,0.592151,-0.289828,-0.541014,0.00264393,-0.568449,-1.12374,0.00312552,0.0165514,1.97601,5,0.1,21,0.5,-1.3138,3.92447,0.638658,-0.227217,-0.461178,-0.00834884,-0.505418,-1.02584,-0.0185706,0.00929703,1.35176,5,0.1,22,0.5,-3.07716,-1.0218,0.644939,0.259705,0.0151325,-0.0429654,0.577673,0.0336766,-0.0955686,0.00899447,0.355378,5,0.1,23,0.5,-4.30944,-0.704352,0.580076,0.330425,0.585501,0.00568144,0.754029,1.33625,0.012964,0.0149223,2.51008,5,0.1,24,0.5,0.0635113,2.11893,0.503492,-0.124343,0.65602,-0.00970326,-0.283782,1.42635,0.00351667,0.0108871,2.51309,5,0.1,25,0.5,-4.02949,-3.82284,0.53468,0.116912,0.560227,-0.00213552,0.260085,1.24623,-0.00473857,0.00947577,1.67451,5,0.1,26,0.5,-3.32612,3.50049,0.657916,0.590791,-0.300695,-0.0225719,1.23025,-0.610277,-0.0454336,0.013364,2.52151,5,0.1,27,0.5,-0.796753,-2.5877,0.701583,0.232992,0.276971,0.0174272,0.524472,0.519738,0.0389628,0.00945454,0.693517,5,0.1,28,0.5,3.84985,-3.69663,0.511794,0.118702,0.656986,0.00798814,0.271007,1.42466,0.0182241,0.0102942,2.51273,5,0.1,29,0.5,3.55225,-0.891873,0.661142,0.0914019,0.660473,0.00434946,0.208542,1.41855,0.00993162,0.0127629,2.51379,5,0.1,30,0.5,-4.25023,-2.47075,0.604107,0.395691,0.295168,-0.00147447,0.880092,0.65662,-0.00327826,0.0437462,1.24576,5,0.1,31,0.5,-3.37844,-4.14348,0.68894,0.00910126,0.665371,0.00708895,0.0208169,1.41007,0.0161715,0.0210302,2.51565,5,0.1,32,0.5,-1.49173,-0.804155,0.627207,0.639722,0.140725,0.00753747,1.42298,0.313029,0.0167675,0.0105445,2.19382,5,0.1,33,0.5,-0.508453,-1.92295,0.698538,-0.460227,-0.467564,0.0182372,-1.05519,-0.71834,0.0402704,0.011496,2.42718,5,0.1,34,0.5,3.99002,0.93587,0.563222,-0.210601,0.571856,0.00593048,0.0532418,0.78046,-0.0554919,0.0117425,2.85536,5,0.1,35,0.5,2.19436,-0.814479,0.581768,-0.503106,-0.153057,0.0326047,-1.11905,-0.340439,0.0725314,0.00984048,1.41926,5,0.1,36,0.5,2.07697,-1.48597,0.594321,-0.207919,0.599439,0.00112299,-0.449166,0.783004,0.001885,0.0217973,2.70991,5,0.1,37,0.5,1.0337,-0.539952,0.527931,-0.517963,-0.42864,0.00395011,-1.18214,-0.978261,0.0090301,0.0350919,2.51007,5,0.1,38,0.5,2.20366,-3.30798,0.698271,-0.131364,0.655133,0.00734348,-0.305504,1.42762,0.0154451,0.0365551,2.51217,5,0.1,39,0.5,-0.985934,-4.18442,0.641762,0.108769,0.658356,-0.00662524,0.248227,1.42226,-0.0151172,0.0267687,2.51313,5,0.1
0,0.6,-0.338305,-3.69608,0.573077,0.0163414,0.778419,0.0114858,0.0228286,0.907183,0.0160336,0.0107403,2.28767,5,0.1,1,0.6,0.550547,3.16066,0.64995,0.785331,-0.0471592,-0.0146642,0.961661,-0.0659227,-0.0204742,0.0175411,2.33471,5,0.1,2,0.6,3.69698,1.576,0.644799,0.0101089,-0.703096,0.0175983,-0.543833,-0.438213,0.0968874,0.0108976,2.44159,5,0.1,3,0.6,-1.39849,-3.32359,0.68045,-0.0588268,0.785047,0.000548363,-0.0820756,0.96333,0.000745058,0.0146127,2.33234,5,0.1,4,0.6,1.52917,-0.215873,0.576323,-0.580785,-0.540973,0.00451058,-0.844181,-0.778414,0.00551343,0.018082,2.34179,5,0.1,5,0.6,-3.79959,-3.23278,0.632945,0.782526,-0.11124,0.00155717,0.979066,-0.15533,0.00217557,0.00937722,2.32561,5,0.1,6,0.6,-3.58417,0.906856,0.657686,0.194311,0.198339,-0.0258148,0.260115,0.265539,-0.0345707,0.0094487,0.207203,5,0.1,7,0.6,3.24411,3.46313,0.700809,-0.134498,0.0441492,0.0158682,0.21112,0.0604391,0.0217259,0.0101201,3.63501,5,0.1,8,0.6,-3.49087,-0.579533,0.560733,0.7339,0.215003,0.00959933,0.762582,0.300169,0.0133812,0.0344349,2.47667,5,0.1,9,0.6,2.46076,2.9166,0.567626,0.322819,0.0373304,0.0144944,0.119686,0.0498295,0.0194013,0.00998314,0.496689,5,0.1,10,0.6,-2.77748,2.9439,0.543894,0.69623,0.410193,0.0207961,0.971913,0.572562,0.0290573,0.0253442,2.22467,5,0.1,11,0.6,1.41607,1.22357,0.635809,-0.298113,0.0565857,-0.0160277,-0.399113,0.0756979,-0.0214577,0.00792231,0.251233,5,0.1,12,0.6,-0.554738,-0.0495412,0.692364,0.114016,0.357853,0.0257939,0.152647,0.479112,0.0345707,0.0205793,0.377609,5,0.1,13,0.6,-2.08594,-3.71992,0.540102,0.19511,0.255078,0.0268087,0.261307,0.341535,0.0359118,0.0202863,0.276715,5,0.1,14,0.6,3.9533,2.97113,0.62302,-0.675023,-0.00191927,0.0430852,-1.18351,-0.0910759,-0.0243187,0.0218096,2.38828,5,0.1,15,0.6,-1.54911,1.57164,0.621845,0.0434756,-0.756019,-0.0192076,0.0606775,-0.747025,-0.0267923,0.00944698,2.65476,5,0.1,16,0.6,2.01656,-2.50568,0.700837,-0.585365,0.557345,0.0124216,-0.817239,0.77796,0.0172853,0.0280184,2.21912,5,0.1,17,0.6,-1.94409,3.258,0.649257,0.381413,-0.712621,0.00989884,0.532448,-0.994921,0.0138283,0.010741,2.23221,5,0.1,18,0.6,1.51573,-3.23566,0.500466,-0.0444442,0.785482,-0.00161678,-0.082314,0.960708,0.00217557,0.0177019,2.33336,5,0.1,19,0.6,1.78262,3.85645,0.61481,-0.497353,-0.616455,-0.00554919,-0.581563,-0.824928,-0.00661612,0.0131899,2.27275,5,0.1,20,0.6,1.23823,3.70962,0.592427,-0.336766,-0.636554,0.00281036,-0.355482,-0.752449,0.000327826,0.0173579,1.72558,5,0.1,21,0.6,-1.33885,3.87361,0.637737,-0.271571,-0.5512,-0.00997782,-0.363588,-0.738144,-0.0133812,0.00868491,1.00637,5,0.1,22,0.6,-3.04852,-1.02013,0.6402,0.310397,0.018087,-0.0513524,0.415564,0.0241995,-0.068754,0.00936325,0.264566,5,0.1,23,0.6,-4.27288,-0.639584,0.580705,0.397265,0.703935,0.00683069,0.554323,0.982702,0.00953674,0.014306,2.2277,5,0.1,24,0.6,0.0497565,2.19107,0.502556,-0.149495,0.779581,-0.00888556,-0.208694,0.997305,0.0120997,0.00914247,2.02638,5,0.1,25,0.6,-4.0166,-3.76105,0.534444,0.139725,0.669593,-0.00255108,0.187397,0.896454,-0.00342727,0.0111382,1.24662,5,0.1,26,0.6,-3.26147,3.46768,0.655456,0.695378,-0.351924,-0.0263691,0.823617,-0.396609,-0.0292361,0.0134972,2.30345,5,0.1,27,0.6,-0.771021,-2.55773,0.703507,0.279257,0.318861,0.0208542,0.381649,0.306368,0.0281632,0.0100411,0.522343,5,0.1,28,0.6,3.86298,-3.62441,0.512678,0.142717,0.780243,0.0096038,0.199437,0.993133,0.0133812,0.010182,2.31959,5,0.1,29,0.6,3.56236,-0.81935,0.661624,0.109881,0.782616,0.00523031,0.153542,0.9785,0.00730157,0.0117513,2.3258,5,0.1,30,0.6,-4.20659,-2.43819,0.603944,0.472927,0.352782,-0.00176281,0.633001,0.472426,-0.00235438,0.0380111,0.927431,5,0.1,31,0.6,-3.37743,-4.07054,0.689724,0.0109434,0.785959,0.00852197,0.015378,0.957727,0.0118613,0.022708,2.45011,5,0.1,32,0.6,-1.42118,-0.788635,0.628038,0.764596,0.168195,0.00900775,1.02365,0.225186,0.0120699,0.01175,1.6705,5,0.1,33,0.6,-0.559392,-1.97259,0.700547,-0.553933,-0.518066,0.0217572,-0.779331,-0.288963,0.0286698,0.010831,1.83446,5,0.1,34,0.6,3.96989,0.996043,0.563468,-0.186336,0.622514,-0.00154376,0.394702,0.236571,-0.087291,0.0144478,2.59085,5,0.1,35,0.6,2.13887,-0.831359,0.585364,-0.601304,-0.182933,0.038971,-0.80514,-0.244915,0.0521541,0.0120085,1.05661,5,0.1,36,0.6,2.05412,-1.42314,0.594441,-0.246751,0.646886,0.00126362,-0.312686,0.176787,0.00089407,0.0241255,2.88074,5,0.1,37,0.6,0.9764,-0.587368,0.528368,-0.62274,-0.515345,0.00475049,-0.869304,-0.719458,0.00661612,0.0125585,2.21914,5,0.1,38,0.6,2.1891,-3.23592,0.699077,-0.158519,0.778967,0.00869334,-0.226378,1.001,0.0109971,0.0252772,2.31587,5,0.1,39,0.6,-0.973902,-4.11208,0.641029,0.13077,0.781178,-0.00796467,0.182509,0.987291,-0.0111163,0.0254682,2.32202,5,0.1
0,0.7,-0.336557,-3.61544,0.574305,0.0185695,0.818714,0.0130509,0.0204295,-0.0376701,0.0143535,0.0107403,2.28767,5,0.1,1,0.7,0.632827,3.15549,0.648386,0.850294,-0.0570513,-0.0165523,0.364788,-0.120491,-0.0163577,0.0175411,2.33471,5,0.1,2,0.7,3.69556,1.50289,0.646994,-0.0355434,-0.763036,0.0257923,-0.368878,-0.681296,0.0662021,0.0108976,2.44159,5,0.1,3,0.7,-1.40479,-3.24133,0.680509,-0.0670662,0.850209,0.000623614,-0.0775233,0.366509,0.000707805,0.0146127,2.33234,5,0.1,4,0.7,1.46796,-0.273917,0.576801,-0.633146,-0.619217,0.00505969,-0.230812,-0.737651,0.0051111,0.018082,2.34179,5,0.1,5,0.7,-3.71749,-3.24469,0.633112,0.849336,-0.12683,0.00177519,0.381485,-0.146627,0.00204518,0.00937722,2.32561,5,0.1,6,0.7,-3.56346,0.927994,0.654935,0.219284,0.223832,-0.0291337,0.225082,0.229746,-0.0299104,0.0094487,0.207203,5,0.1,7,0.7,3.23199,3.46773,0.702507,-0.107054,0.0466935,0.0180638,0.266552,-0.00560284,0.020761,0.0101201,3.63501,5,0.1,8,0.7,-3.41518,-0.556512,0.56176,0.766899,0.245118,0.0109424,-0.0162721,0.283159,0.0126325,0.0344349,2.47667,5,0.1,9,0.7,2.49297,2.92042,0.569171,0.315487,0.0376716,0.0163568,-0.233874,-0.0358522,0.0167787,0.00998314,0.496689,5,0.1,10,0.7,-2.70319,2.98782,0.546121,0.786382,0.467668,0.0237131,0.785157,0.540689,0.0274405,0.0253442,2.22467,5,0.1,11,0.7,1.38451,1.2296,0.6341,-0.330296,0.0638537,-0.0180879,-0.23628,0.0655055,-0.0185631,0.00792231,0.251233,5,0.1,12,0.7,-0.542587,-0.0114015,0.695113,0.128671,0.40385,0.0291124,0.132065,0.414523,0.0298992,0.0205793,0.377609,5,0.1,13,0.7,-2.06514,-3.69274,0.54296,0.220195,0.287867,0.0302559,0.22608,0.29549,0.0310615,0.0202863,0.276715,5,0.1,14,0.7,3.88029,2.97041,0.62715,-0.780035,-0.0127591,0.0390105,-0.87826,-0.118881,-0.0545606,0.0218096,2.38828,5,0.1,15,0.7,-1.54445,1.49398,0.619789,0.0495631,-0.782135,-0.0218961,0.0572354,0.157684,-0.0252798,0.00944698,2.65476,5,0.1,16,0.7,1.95388,-2.446,0.702167,-0.667398,0.63544,0.0141581,-0.771694,0.734657,0.0163503,0.0280184,2.21912,5,0.1,17,0.7,-1.90326,3.18214,0.650317,0.43486,-0.799954,0.0112876,0.502788,-0.717565,0.0130683,0.010741,2.23221,5,0.1,18,0.7,1.51086,-3.15337,0.500317,-0.0528272,0.850361,-0.00135098,-0.0804812,0.363901,0.00302494,0.0177019,2.33336,5,0.1,19,0.7,1.73031,3.79075,0.614225,-0.54516,-0.695805,-0.00610696,-0.357822,-0.716433,-0.00432506,0.0131899,2.27275,5,0.1,20,0.7,1.20321,3.64353,0.592643,-0.359372,-0.672982,0.000974536,-0.0997111,-0.0112504,-0.033021,0.0173579,1.72558,5,0.1,21,0.7,-1.3678,3.81486,0.636674,-0.306478,-0.622062,-0.0112624,-0.314586,-0.638619,-0.0115819,0.00868491,1.00637,5,0.1,22,0.7,-3.01544,-1.0182,0.634727,0.350291,0.0204099,-0.0579531,0.359505,0.0209436,-0.0594817,0.00936325,0.264566,5,0.1,23,0.7,-4.23035,-0.564549,0.581436,0.452916,0.792946,0.00778781,0.523567,0.756349,0.00899658,0.014306,2.2277,5,0.1,24,0.7,0.0337706,2.27296,0.501737,-0.169848,0.848271,-0.00741631,-0.186471,0.398979,0.0166669,0.00914247,2.02638,5,0.1,25,0.7,-4.00171,-3.68969,0.534172,0.157709,0.755656,-0.00287993,0.162005,0.77562,-0.00296161,0.0111382,1.24662,5,0.1,26,0.7,-3.1882,3.4305,0.652688,0.76538,-0.391006,-0.0288002,0.548005,-0.358701,-0.0184253,0.0134972,2.30345,5,0.1,27,0.7,-0.741228,-2.52422,0.70573,0.315674,0.351723,0.0235508,0.326496,0.322565,0.0242479,0.0100411,0.522343,5,0.1,28,0.7,3.87827,-3.54247,0.513706,0.162729,0.848541,0.0109474,0.188202,0.395089,0.0126474,0.010182,2.31959,5,0.1,29,0.7,3.57413,-0.737251,0.662184,0.125289,0.849368,0.00596289,0.144914,0.380944,0.00689179,0.0117513,2.3258,5,0.1,30,0.7,-4.15618,-2.40059,0.603756,0.533698,0.398134,-0.00198921,0.547647,0.408694,-0.00204518,0.0380111,0.927431,5,0.1,31,0.7,-3.37625,-3.98826,0.690694,0.0127174,0.848752,0.0113604,0.0186265,0.307381,0.0404976,0.022708,2.45011,5,0.1,32,0.7,-1.34048,-0.770709,0.628998,0.840607,0.189814,0.0101658,0.495158,0.194829,0.0104308,0.01175,1.6705,5,0.1,33,0.7,-0.618594,-2.02626,0.702865,-0.628181,-0.557913,0.0245425,-0.665311,-0.452444,0.025373,0.010831,1.83446,5,0.1,34,0.7,3.95331,1.06015,0.562896,-0.144934,0.66461,-0.00963481,0.417903,0.531666,-0.0724904,0.0144478,2.59085,5,0.1,35,0.7,2.07479,-0.850856,0.589518,-0.678599,-0.206446,0.0439783,-0.696585,-0.211902,0.0451319,0.0120085,1.05661,5,0.1,36,0.7,2.02876,-1.35845,0.594549,-0.252576,0.638724,0.000686385,0.160158,-0.315607,-0.0110418,0.0241255,2.88074,5,0.1,37,0.7,0.909721,-0.642548,0.528876,-0.710003,-0.587565,0.00541443,-0.820909,-0.679389,0.00624731,0.0125585,2.21914,5,0.1,38,0.7,2.1721,-3.15407,0.700002,-0.181269,0.848098,0.00979016,-0.214383,0.402689,0.0102259,0.0252772,2.31587,5,0.1,39,0.7,-0.959901,-4.03008,0.640176,0.149088,0.848865,-0.0090804,0.172302,0.389561,-0.0104904,0.0254682,2.32202,5,0.1
0,0.8,-0.334611,-3.53489,0.575673,0.0202082,0.782317,0.0142023,0.0114441,-0.639558,0.00804663,0.0109729,1.9968,5,0.1,1,0.8,0.718949,3.14917,0.646662,0.866026,-0.0692546,-0.017783,0,-0.115037,-0.0076592,0.0144371,2.28236,5,0.1,2,0.8,3.69045,1.42332,0.649849,-0.0638068,-0.825718,0.0307366,-0.198126,-0.515223,0.0324249,0.00804725,1.34925,5,0.1,3,0.8,-1.41184,-3.15521,0.680574,-0.0734508,0.866026,0.000680983,-0.0465512,0,0.000447035,0.0130409,2.26775,5,0.1,4,0.8,1.40432,-0.339132,0.57733,-0.632074,-0.680238,0.00547022,0.228822,-0.448912,0.00286102,0.0173189,2.34485,5,0.1,5,0.8,-3.63141,-3.25803,0.633299,0.866026,-0.138903,0.00194311,0,-0.0879765,0.0012219,0.010048,2.35465,5,0.1,6,0.8,-3.54056,0.95137,0.651893,0.236928,0.241844,-0.0314802,0.118256,0.12064,-0.015676,0.00774392,0.1463,5,0.1,7,0.8,3.22227,3.47229,0.704406,-0.0914872,0.0437677,0.0197798,0.0129938,-0.0494719,0.0125766,0.00959678,3.44473,5,0.1,8,0.8,-3.33931,-0.53074,0.562911,0.744557,0.268425,0.011982,-0.377893,0.169873,0.00756979,0.0314203,2.49732,5,0.1,9,0.8,2.52298,2.92391,0.570879,0.281763,0.0314474,0.0176728,-0.415802,-0.082612,0.00879169,0.00797195,0.455808,5,0.1,10,0.8,-2.62124,3.03699,0.548615,0.845999,0.512195,0.0259727,0.380516,0.324726,0.0165105,0.0230559,2.09585,5,0.1,11,0.8,1.35063,1.23627,0.632212,-0.344121,0.0689924,-0.0195429,-0.035882,0.0343323,-0.00974536,0.00958847,0.589046,5,0.1,12,0.8,-0.529149,0.0307732,0.698153,0.139026,0.436349,0.0314578,0.0693202,0.217673,0.015676,0.0162659,0.413574,5,0.1,13,0.8,-2.04215,-3.66268,0.54612,0.237918,0.311035,0.0326917,0.118732,0.155091,0.0163019,0.0199098,0.195375,5,0.1,14,0.8,3.79863,2.96854,0.630746,-0.845361,-0.0244915,0.0326529,-0.413299,-0.110626,-0.0704527,0.0175182,2.28936,5,0.1,15,0.8,-1.53924,1.41759,0.617487,0.054276,-0.736436,-0.0239775,0.0342727,0.703871,-0.0151694,0.0104519,2.8634,5,0.1,16,0.8,1.88371,-2.37919,0.703655,-0.730947,0.695938,0.0155032,-0.463486,0.441313,0.00986457,0.0289943,2.04189,5,0.1,17,0.8,-1.85753,3.09922,0.651504,0.476265,-0.851285,0.012365,0.301957,-0.294805,0.00783801,0.00882134,1.71966,5,0.1,18,0.8,1.50521,-3.06725,0.500197,-0.0597119,0.866026,-0.00103265,-0.0538826,0,0.00327826,0.0129534,2.26894,5,0.1,19,0.8,1.67448,3.71807,0.613598,-0.566292,-0.752091,-0.00638068,-0.0553131,-0.37837,-0.000953674,0.0155784,2.05928,5,0.1,20,0.8,1.16718,3.57715,0.592548,-0.357485,-0.6455,-0.00307709,0.13268,0.529051,-0.0448823,0.0152743,1.36455,5,0.1,21,0.8,-1.3998,3.7499,0.635498,-0.331143,-0.672132,-0.0121698,-0.165224,-0.335336,-0.00607967,0.0118575,0.710547,5,0.1,22,0.8,-2.97885,-1.01607,0.628675,0.378484,0.0220507,-0.0626177,0.188589,0.0110269,-0.0312328,0.00931879,0.186794,5,0.1,23,0.8,-4.18273,-0.482108,0.582255,0.49603,0.848934,0.00852942,0.314713,0.341818,0.00539422,0.0134553,2.10983,5,0.1,24,0.8,0.0159699,2.35901,0.501082,-0.184788,0.866026,-0.00566244,-0.104228,0,0.0178814,0.0121887,1.53776,5,0.1,25,0.8,-3.98524,-3.61078,0.533872,0.17041,0.816464,-0.00311285,0.0851154,0.407338,-0.00154972,0.00929479,0.880318,5,0.1,26,0.8,-3.10956,3.38985,0.64974,0.800413,-0.419223,-0.0299007,0.135541,-0.187516,-0.00303984,0.00977199,2.18442,5,0.1,27,0.8,-0.708255,-2.48759,0.70819,0.341173,0.378561,0.0254482,0.169873,0.194192,0.012666,0.0122066,0.377017,5,0.1,28,0.8,3.89538,-3.45641,0.514857,0.178224,0.866026,0.0119895,0.112891,0,0.00756979,0.00901775,2.24752,5,0.1,29,0.8,3.5873,-0.651162,0.662811,0.137228,0.866026,0.00652969,0.0869036,-2.98023e-05,0.00414252,0.0106707,2.25741,5,0.1,30,0.8,-4.10045,-2.35902,0.603549,0.576639,0.430179,-0.00214875,0.287533,0.214577,-0.00110269,0.040735,0.654813,5,0.1,31,0.8,-3.37489,-3.90285,0.69205,0.0144184,0.849646,0.0158429,0.0140667,-0.276923,0.0457764,0.022108,2.57768,5,0.1,32,0.8,-1.25478,-0.750887,0.63006,0.865257,0.205089,0.0109836,0.015378,0.102311,0.00545382,0.0127731,1.22691,5,0.1,33,0.8,-0.68428,-2.0842,0.70543,-0.68025,-0.598985,0.0265539,-0.348866,-0.328541,0.0136793,0.00871723,1.34424,5,0.1,34,0.8,3.94084,1.12926,0.561608,-0.105304,0.716037,-0.0157163,0.364661,0.442445,-0.0479519,0.00922223,2.45244,5,0.1,35,0.8,2.00392,-0.872415,0.59411,-0.733215,-0.22306,0.0475183,-0.365794,-0.111252,0.023663,0.0125073,0.746024,5,0.1,36,0.8,2.00484,-1.2968,0.594552,-0.221309,0.588432,-0.000695884,0.435352,-0.668049,-0.0154674,0.0199912,2.86958,5,0.1,37,0.8,0.835066,-0.70433,0.529446,-0.777607,-0.643514,0.00592917,-0.493079,-0.408024,0.00375509,0.016476,2.04216,5,0.1,38,0.8,2.15302,-3.06802,0.701026,-0.198978,0.866026,0.0106171,-0.130177,0,0.00584126,0.0191742,2.2414,5,0.1,39,0.8,-0.944225,-3.94401,0.639221,0.163275,0.866026,-0.00994354,0.103444,0,-0.00628829,0.0249942,2.2514,5,0.1
0,0.9,-0.332535,-3.46088,0.577132,0.0212674,0.69027,0.014947,0.008706,-1.09939,0.00612438,0.0109729,1.9968,5,0.1,1,0.9,0.805549,3.14147,0.644846,0.865888,-0.0863053,-0.0184841,-0.00550598,-0.207007,-0.0055097,0.0144371,2.28236,5,0.1,2,0.9,3.68277,1.34081,0.653208,-0.0921875,-0.800961,0.0374244,-0.341147,0.891641,0.091251,0.00804725,1.34925,5,0.1,3,0.9,-1.41943,-3.06861,0.680645,-0.0782659,0.866026,0.00072699,-0.0448003,0,0.000424683,0.0130409,2.26775,5,0.1,4,0.9,1.34321,-0.409489,0.577892,-0.582563,-0.726588,0.00576852,0.679769,-0.431655,0.00276044,0.0173189,2.34485,5,0.1,5,0.9,-3.54523,-3.27238,0.633499,0.853189,-0.147999,0.00206921,-0.256017,-0.0845939,0.00116974,0.010048,2.35465,5,0.1,6,0.9,-3.5163,0.976129,0.64867,0.247645,0.252776,-0.0329013,0.0846982,0.0864118,-0.0112318,0.00774392,0.1463,5,0.1,7,0.9,3.21287,3.47637,0.706447,-0.10254,0.0374742,0.0210133,-0.330821,-0.0736415,0.0109039,0.00959678,3.44473,5,0.1,8,0.9,-3.26734,-0.503017,0.564148,0.693111,0.285898,0.0127611,-0.501066,0.161693,0.00721589,0.0314203,2.49732,5,0.1,9,0.9,2.54881,2.92658,0.572688,0.233001,0.021423,0.0184695,-0.518411,-0.112638,0.00629947,0.00797195,0.455808,5,0.1,10,0.9,-2.53544,3.0899,0.551298,0.864524,0.545785,0.02768,0.0550747,0.312492,0.0158772,0.0230559,2.09585,5,0.1,11,0.9,1.31659,1.24334,0.630211,-0.331457,0.0721043,-0.020426,0.268735,0.0246093,-0.00697747,0.00958847,0.589046,5,0.1,12,0.9,-0.514916,0.075603,0.701374,0.145308,0.460519,0.0328784,0.0496581,0.234942,0.0112318,0.0162659,0.413574,5,0.1,13,0.9,-2.01779,-3.63083,0.549466,0.248676,0.32509,0.0341686,0.0850484,0.111103,0.0116788,0.0199098,0.195375,5,0.1,14,0.9,3.71283,2.96552,0.633647,-0.864734,-0.036006,0.0252786,-0.0516623,-0.114039,-0.0754111,0.0175182,2.28936,5,0.1,15,0.9,-1.53363,1.34843,0.61501,0.0578005,-0.640013,-0.0255369,0.0326037,1.11526,-0.0144243,0.0104519,2.8634,5,0.1,16,0.9,1.8082,-2.30729,0.705257,-0.778966,0.741661,0.0165248,-0.447392,0.426009,0.00952184,0.0289943,2.04189,5,0.1,17,0.9,-1.80841,3.01319,0.652779,0.505293,-0.864957,0.013119,0.251353,-0.0309646,0.00653416,0.00882134,1.71966,5,0.1,18,0.9,1.49889,-2.98064,0.50011,-0.0672545,0.866026,-0.000714324,-0.0879169,0,0.00302494,0.0129534,2.26894,5,0.1,19,0.9,1.61806,3.64157,0.61293,-0.557411,-0.771903,-0.00717025,0.226587,-0.0139922,-0.0129938,0.0155784,2.05928,5,0.1,20,0.9,1.13154,3.51549,0.592007,-0.359699,-0.585553,-0.00776611,-0.130571,0.658453,-0.0465736,0.0152743,1.36455,5,0.1,21,0.9,-1.43371,3.68109,0.634252,-0.346115,-0.702518,-0.0127208,-0.11836,-0.240207,-0.00435486,0.0118575,0.710547,5,0.1,22,0.9,-2.94011,-1.01381,0.622264,0.395574,0.0230497,-0.0654478,0.135094,0.00790507,-0.0223741,0.00931879,0.186794,5,0.1,23,0.9,-4.13148,-0.396168,0.583136,0.528607,0.864957,0.00908785,0.303298,0.0427291,0.00520051,0.0134553,2.10983,5,0.1,24,0.9,-0.00301199,2.44561,0.500604,-0.194425,0.865886,-0.00392161,-0.0790883,-0.00558794,0.016585,0.0121887,1.53776,5,0.1,25,0.9,-3.96779,-3.52725,0.533553,0.178119,0.85176,-0.00325348,0.0609159,0.265926,-0.00111014,0.00929479,0.880318,5,0.1,26,0.9,-3.02845,3.34676,0.646716,0.824327,-0.443908,-0.0307052,0.281557,-0.269249,-0.0105835,0.00977199,2.18442,5,0.1,27,0.9,-0.673331,-2.44875,0.710795,0.356448,0.397978,0.0265923,0.119563,0.171915,0.00900403,0.0122066,0.377017,5,0.1,28,0.9,3.91379,-3.36981,0.516096,0.189872,0.866026,0.0127718,0.108138,0,0.00727177,0.00901775,2.24752,5,0.1,29,0.9,3.60148,-0.564559,0.663485,0.146208,0.866025,0.00695745,0.0834465,5.66244e-06,0.00397488,0.0106707,2.25741,5,0.1,30,0.9,-4.04141,-2.31498,0.603329,0.602696,0.449622,-0.00224849,0.205949,0.153661,-0.000793487,0.040735,0.654813,5,0.1,31,0.9,-3.37419,-3.81957,0.693924,-0.00722222,0.81288,0.022102,-0.396714,-0.465199,0.0735223,0.022108,2.57768,5,0.1,32,0.9,-1.16822,-0.72989,0.631184,0.865627,0.21436,0.0114779,-0.0121146,0.0732876,0.00390038,0.0127731,1.22691,5,0.1,33,0.9,-0.753919,-2.14586,0.708152,-0.710463,-0.634242,0.0278357,-0.225823,-0.33538,0.0105873,0.00871723,1.34424,5,0.1,34,0.9,3.93121,1.2036,0.559894,-0.0952311,0.774102,-0.0176888,-0.111878,0.643581,0.0044331,0.00922223,2.45244,5,0.1,35,0.9,1.92885,-0.895252,0.598975,-0.766361,-0.233141,0.0496631,-0.262015,-0.0796951,0.0169612,0.0125073,0.746024,5,0.1,36,0.9,1.98536,-1.24058,0.594398,-0.164421,0.542193,-0.0024192,0.660069,-0.299431,-0.0179186,0.0199912,2.86958,5,0.1,37,0.9,0.7548,-0.770808,0.530058,-0.826841,-0.685789,0.006318,-0.443496,-0.393886,0.00362471,0.016476,2.04216,5,0.1,38,0.9,2.13244,-2.98142,0.702118,-0.212416,0.866026,0.0112241,-0.125051,0,0.00561774,0.0191742,2.2414,5,0.1,39,0.9,-0.927359,-3.8574,0.638194,0.173962,0.866026,-0.0105934,0.0992976,0,-0.00603497,0.0249942,2.2514,5,0.1
0,1,-0.330376,-3.39746,0.578649,0.0217773,0.57857,0.0153065,0.000804663,-1.07515,0.000566244,0.00933265,1.79242,5,0.1,1,1,0.892066,3.13178,0.64298,0.863825,-0.107342,-0.0187427,-0.0440478,-0.199556,0.00089407,0.013944,2.30224,5,0.1,2,1,3.67181,1.26668,0.657436,-0.127071,-0.668961,0.0472173,-0.335455,1.65129,0.0970364,0.0077307,0.343112,5,0.1,3,1,-1.42744,-2.982,0.680719,-0.0815719,0.866026,0.000758469,-0.0178814,0,0.000178814,0.01501,2.27031,5,0.1,4,1,1.28858,-0.483966,0.57848,-0.509092,-0.758718,0.00596195,0.741422,-0.178844,0.000864267,0.0146251,2.40242,5,0.1,5,1,-3.46161,-3.28753,0.633711,0.815058,-0.154239,0.0021562,-0.504851,-0.0337362,0.000447035,0.00947168,2.61446,5,0.1,6,1,-3.49124,1.00171,0.645341,0.251985,0.257203,-0.0334769,-0.00536442,-0.00554323,0.000745058,0.00768038,0.168476,5,0.1,7,1,3.2,3.47973,0.708592,-0.163949,0.0295281,0.0217617,-0.863671,-0.0828505,0.00324845,0.00848008,2.15103,5,0.1,8,1,-3.2,-0.473752,0.565455,0.659347,0.297741,0.0132889,-0.174284,0.0628531,0.00283122,0.0310669,2.47682,5,0.1,9,1,2.5696,2.92815,0.574557,0.184405,0.00985265,0.0187904,-0.43118,-0.114799,-0.00038743,0.00730524,0.418961,5,0.1,10,1,-2.44887,3.14579,0.554132,0.866026,0.568849,0.0288531,0,0.124812,0.00634789,0.025146,1.56232,5,0.1,11,1,1.28515,1.25063,0.628144,-0.294167,0.0733644,-0.0207826,0.459552,-0.00160933,0.000417233,0.0098463,0.573743,5,0.1,12,1,-0.500214,0.122651,0.704701,0.147851,0.478109,0.0334531,-0.00321865,0.095349,-0.000745058,0.0160562,0.297714,5,0.1,13,1,-1.99263,-3.59794,0.552924,0.253034,0.330782,0.0347659,-0.00548363,-0.00727177,-0.000745058,0.0196905,0.227206,5,0.1,14,1,3.62625,2.96138,0.6358,-0.866026,-0.0463426,0.0178576,0,-0.0885725,-0.071764,0.0183256,2.54241,5,0.1,15,1,-1.52772,1.29,0.612397,0.0601858,-0.530449,-0.0265926,0.0126362,1.01465,-0.00557303,0.010315,3.01577,5,0.1,16,1,1.72842,-2.23134,0.706949,-0.812051,0.773162,0.0172302,-0.180066,0.171542,0.0038147,0.0292749,2.06775,5,0.1,17,1,-1.75689,2.9267,0.654117,0.521973,-0.863677,0.0135541,0.063777,0.0472069,0.00163913,0.00937823,1.26287,5,0.1,18,1,1.49173,-2.89404,0.500053,-0.0757277,0.866026,-0.000438094,-0.0748634,0,0.00247359,0.016839,2.26824,5,0.1,19,1,1.56387,3.56493,0.612141,-0.522363,-0.754607,-0.00865459,0.466764,0.358462,-0.0153184,0.0103464,1.90468,5,0.1,20,1,1.09479,3.46036,0.591011,-0.375515,-0.515836,-0.0119999,-0.151336,0.727177,-0.036478,0.00862613,0.977243,5,0.1,21,1,-1.46873,3.61001,0.632965,-0.35218,-0.714821,-0.0129446,0.00762939,0.015378,0.000298023,0.0110842,0.483197,5,0.1,22,1,-2.90008,-1.01148,0.615642,0.402486,0.0234514,-0.0665948,-0.00870228,-0.000417233,0.00146031,0.0106841,0.127031,5,0.1,23,1,-4.07735,-0.309587,0.584066,0.551021,0.866025,0.00947267,0.121593,1.43051e-05,0.00205636,0.0127815,1.82496,5,0.1,24,1,-0.0227455,2.53213,0.50029,-0.199038,0.863796,-0.00240207,-0.00690281,-0.0447035,0.0135601,0.0150693,1.16348,5,0.1,25,1,-3.94977,-3.44119,0.533224,0.181234,0.864446,-0.00331104,-0.00393391,-0.0317097,8.9407e-05,0.00910499,0.600833,5,0.1,26,1,-2.94478,3.30113,0.643597,0.846231,-0.466734,-0.0315905,0.112891,-0.160813,-0.00536442,0.00873276,1.99148,5,0.1,27,1,-0.637279,-2.40828,0.713485,0.362417,0.409204,0.0270486,-0.0108182,0.0374317,-0.000685453,0.0122409,0.261454,5,0.1,28,1,3.93323,-3.2832,0.517403,0.197828,0.866026,0.0133067,0.0426769,0,0.00286102,0.00957743,2.2451,5,0.1,29,1,3.61645,-0.477957,0.664198,0.152355,0.866025,0.00724941,0.0331402,1.43051e-05,0.00160933,0.010137,2.25592,5,0.1,30,1,-3.98043,-2.26948,0.603101,0.613242,0.457495,-0.00228882,-0.0132322,-0.0100136,2.98023e-05,0.0385885,0.445299,5,0.1,31,1,-3.37723,-3.74096,0.696508,-0.0559986,0.755721,0.0295207,-0.53978,-0.680327,0.0703931,0.0225754,2.56814,5,0.1,32,1,-1.08183,-0.708201,0.632345,0.860414,0.218113,0.0116765,-0.112295,-0.00467896,-0.000268221,0.0135168,0.90337,5,0.1,33,1,-0.825695,-2.2107,0.710974,-0.720535,-0.659072,0.0284433,0.043571,-0.132561,0.000625849,0.00734497,0.898914,5,0.1,34,1,3.92069,1.28406,0.558206,-0.118518,0.831819,-0.0155687,-0.313401,0.456691,0.0346005,0.00938275,1.98575,5,0.1,35,1,1.85131,-0.918841,0.604,-0.779781,-0.237224,0.0505313,0.0168085,0.005126,-0.00110269,0.0113359,0.507324,5,0.1,36,1,1.97231,-1.18754,0.59407,-0.0965744,0.520873,-0.00409633,0.666261,-0.160992,-0.0148416,0.0212398,2.78332,5,0.1,37,1,0.6703,-0.84104,0.530705,-0.858316,-0.714917,0.00658631,-0.154197,-0.158578,0.00143051,0.014654,1.96861,5,0.1,38,1,2.11068,-2.89482,0.703264,-0.221699,0.866026,0.0116229,-0.05126,0,0.00190735,0.0209615,2.23804,5,0.1,39,1,-0.909547,-3.7708,0.63711,0.181277,0.866026,-0.0110388,0.0393987,0,-0.00235438,0.0256027,2.2493,5,0.1
0,1.1,-0.328195,-3.3448,0.580182,0.0218083,0.47929,0.0153282,-0.00102259,-0.80815,-0.000718981,0.00933265,1.79242,5,0.1,1,1.1,0.978416,3.11974,0.641117,0.864327,-0.13596,-0.0184321,0.0275187,-0.342593,0.00559166,0.013944,2.30224,5,0.1,2,1.1,3.65706,1.20792,0.66282,-0.170323,-0.507838,0.0618333,-0.4915,1.55498,0.179119,0.0077307,0.343112,5,0.1,3,1.1,-1.43566,-2.8954,0.680904,-0.0826288,0.866026,0.003839,-0.000864267,0,0.0545941,0.01501,2.27031,5,0.1,4,1.1,1.24141,-0.560891,0.579082,-0.436818,-0.780208,0.00607967,0.599444,-0.205144,0.00113994,0.0146251,2.40242,5,0.1,5,1.1,-3.38351,-3.30316,0.63393,0.740368,-0.158358,0.00221152,-0.902057,-0.0393838,0.000528991,0.00947168,2.61446,5,0.1,6,1.1,-3.46591,1.02757,0.641975,0.255903,0.261196,-0.0339952,0.0631809,0.0644401,-0.00837818,0.00768038,0.168476,5,0.1,7,1.1,3.17838,3.48225,0.710793,-0.275131,0.0208762,0.0223121,-1.27009,-0.0879318,0.00623614,0.00848008,2.15103,5,0.1,8,1.1,-3.13374,-0.443709,0.5668,0.675368,0.30239,0.0136324,0.398174,0.0191741,0.00325218,0.0310669,2.47682,5,0.1,9,1.1,2.58607,2.92855,0.576433,0.147803,-0.00190064,0.0187093,-0.260562,-0.116378,-0.0019148,0.00730524,0.418961,5,0.1,10,1.1,-2.36228,3.20333,0.557049,0.865614,0.581453,0.029428,-0.0164807,0.0989437,0.00385568,0.025146,1.56232,5,0.1,11,1.1,1.25824,1.25796,0.626069,-0.242524,0.0730416,-0.020694,0.557832,-0.00753254,0.00211596,0.0098463,0.573743,5,0.1,12,1.1,-0.485451,0.170977,0.708041,0.147201,0.488161,0.0333046,-0.0151955,0.0812937,-0.00344589,0.0160562,0.297714,5,0.1,13,1.1,-1.96736,-3.56476,0.556395,0.251922,0.333767,0.0346137,-0.0260025,0.0449866,-0.00356883,0.0196905,0.227206,5,0.1,14,1.1,3.54052,2.9563,0.637234,-0.840306,-0.0552502,0.0109181,0.492051,-0.0846535,-0.0659898,0.0183256,2.54241,5,0.1,15,1.1,-1.52163,1.24178,0.609705,0.0616737,-0.439928,-0.0272492,0.0136793,0.670217,-0.00603497,0.010315,3.01577,5,0.1,16,1.1,1.64714,-2.15299,0.708696,-0.805695,0.794392,0.017703,0.293128,0.20586,0.00458211,0.0292749,2.06775,5,0.1,17,1.1,-1.70439,2.84041,0.65548,0.527356,-0.862636,0.0136931,0.0220165,0.0166297,0.00057742,0.00937823,1.26287,5,0.1,18,1.1,1.48382,-2.80744,0.50002,-0.0821613,0.866026,-0.000226591,-0.0505298,0,0.00175461,0.016839,2.26824,5,0.1,19,1.1,1.51393,3.49231,0.611156,-0.476576,-0.68846,-0.0113895,0.457965,0.91745,-0.0358447,0.0103464,1.90468,5,0.1,20,1.1,1.05779,3.41359,0.589556,-0.35308,-0.409939,-0.0176602,0.536911,1.31486,-0.0705235,0.00862613,0.977243,5,0.1,21,1.1,-1.50389,3.53863,0.631672,-0.350635,-0.711691,-0.0128864,0.0361651,0.0733733,0.00133738,0.0110842,0.483197,5,0.1,22,1.1,-2.85989,-1.00914,0.608993,0.400721,0.0233555,-0.066301,-0.0413358,-0.00236183,0.00684708,0.0106841,0.127031,5,0.1,23,1.1,-4.02157,-0.222988,0.585025,0.564457,0.86584,0.00970084,0.117153,-0.00740021,0.00198931,0.0127815,1.82496,5,0.1,24,1.1,-0.0426753,2.61848,0.500111,-0.199274,0.864194,-0.00124229,0.00979811,0.0140667,0.00960007,0.0150693,1.16348,5,0.1,25,1.1,-3.93167,-3.35492,0.532893,0.180435,0.859798,-0.00329521,-0.0186712,-0.0934303,0.000350177,0.00910499,0.600833,5,0.1,26,1.1,-2.8595,3.25354,0.640392,0.859436,-0.485528,-0.0326431,0.120237,-0.184149,-0.0130348,0.00873276,1.99148,5,0.1,27,1.1,-0.601108,-2.36716,0.716185,0.36049,0.412648,0.0269188,-0.0407994,0.0136495,-0.00289083,0.0122409,0.261454,5,0.1,28,1.1,3.95326,-3.1966,0.518751,0.202975,0.866026,0.0136528,0.0485778,0,0.0032708,0.00957743,2.2451,5,0.1,29,1.1,3.63188,-0.391354,0.664932,0.156389,0.866025,0.00744378,0.0384301,-1.78814e-06,0.00184402,0.010137,2.25592,5,0.1,30,1.1,-3.9192,-2.2238,0.602872,0.610556,0.455479,-0.00228034,-0.0629425,-0.0470728,0.000227243,0.0385885,0.445299,5,0.1,31,1.1,-3.38562,-3.66776,0.699845,-0.111889,0.716718,0.0374056,-0.549778,-0.171095,0.0815615,0.0225754,2.56814,5,0.1,32,1.1,-0.996109,-0.686422,0.633511,0.855324,0.217159,0.0116237,-0.0358671,-0.0223704,-0.00121444,0.0135168,0.90337,5,0.1,33,1.1,-0.896857,-2.27526,0.713759,-0.696353,-0.61449,0.0267091,0.425033,0.927195,-0.0325255,0.00734497,0.898914,5,0.1,34,1.1,3.90687,1.36895,0.556864,-0.160893,0.860817,-0.0109463,-0.494465,0.142381,0.0548027,0.00938275,1.98575,5,0.1,35,1.1,1.77345,-0.942528,0.609045,-0.776365,-0.236184,0.0503095,0.080049,0.0243559,-0.0051856,0.0113359,0.507324,5,0.1,36,1.1,1.96499,-1.13492,0.593607,-0.0584384,0.542293,-0.00496861,0.142388,0.489227,-0.00331551,0.0212398,2.78332,5,0.1,37,1.1,0.584003,-0.913488,0.531372,-0.865234,-0.734541,0.00676448,-0.00687316,-0.190239,0.00173226,0.014654,1.96861,5,0.1,38,1.1,2.0882,-2.80822,0.704438,-0.227876,0.866026,0.0118724,-0.0589341,0,0.00240281,0.0209615,2.23804,5,0.1,39,1.1,-0.891185,-3.6842,0.635992,0.186067,0.866026,-0.0113267,0.0455827,0,-0.00274926,0.0256027,2.2493,5,0.1
0,1.2,-0.326028,-3.3,0.581705,0.0214346,0.425684,0.0150651,-0.00701845,-0.278592,-0.00491738,0.0108535,1.51869,5,0.1,1,1.2,1.06496,3.1044,0.639311,0.866026,-0.170583,-0.0175834,0,-0.327229,0.0114739,0.0121502,2.28036,5,0.1,2,1.2,3.63758,1.16465,0.669925,-0.218743,-0.360772,0.080213,-0.448823,1.37442,0.17634,0.00914476,3.45965,5,0.1,3,1.2,-1.44389,-2.8088,0.681604,-0.0813603,0.866026,0.0104591,0.0277758,0,0.0725389,0.0166959,2.26802,5,0.1,4,1.2,1.2,-0.639674,0.579694,-0.398746,-0.791982,0.00613034,0.171185,0.00160933,-0.000327826,0.0145274,2.35815,5,0.1,5,1.2,-3.3141,-3.31914,0.634153,0.648165,-0.160545,0.00224113,-0.893593,0.00202656,-5.96046e-05,0.00975208,2.78154,5,0.1,6,1.2,-3.44003,1.05398,0.638537,0.261086,0.266477,-0.0346839,0.0255108,0.0261068,-0.00336766,0.00761913,0.124527,5,0.1,7,1.2,3.14446,3.48391,0.71305,-0.402254,0.0123322,0.0227481,-1.20485,-0.0813007,0.00140071,0.0121499,0.446102,5,0.1,8,1.2,-3.06392,-0.413519,0.568175,0.722063,0.299774,0.0138059,0.463367,-0.0785887,-0.000327826,0.0397509,2.31673,5,0.1,9,1.2,2.6,2.9278,0.578287,0.135267,-0.0127494,0.0182927,-0.000596046,-0.0978708,-0.00688434,0.00742382,0.357608,5,0.1,10,1.2,-2.27593,3.26173,0.559998,0.859439,0.583887,0.0294104,-0.131845,-0.069499,-0.0050962,0.018959,1.1385,5,0.1,11,1.2,1.23683,1.2652,0.624018,-0.185367,0.0714123,-0.0202343,0.573039,-0.0268221,0.00759959,0.0131461,0.368504,5,0.1,12,1.2,-0.470863,0.220013,0.711341,0.143915,0.490262,0.0325605,-0.0540614,-0.055939,-0.0122488,0.0157275,0.206919,5,0.1,13,1.2,-1.9424,-3.53122,0.559825,0.246301,0.336015,0.033842,-0.092566,-0.0154972,-0.0127256,0.0197945,0.162585,5,0.1,14,1.2,3.45961,2.95039,0.638013,-0.771922,-0.0624418,0.00483394,0.854731,-0.0556707,-0.0549555,0.0181374,2.97733,5,0.1,15,1.2,-1.51541,1.2,0.606959,0.0623405,-0.406772,-0.0275418,-0.00286102,0.0147223,0.0012219,0.011231,2.85335,5,0.1,16,1.2,1.56872,-2.07278,0.710483,-0.756323,0.806314,0.0179693,0.679314,-0.000238419,-2.98023e-05,0.0248244,2.34866,5,0.1,17,1.2,-1.65176,2.75446,0.656847,0.522733,-0.85308,0.0135735,-0.129104,0.204325,-0.00336766,0.0103128,1.02985,5,0.1,18,1.2,1.47541,-2.72084,0.500005,-0.0853032,0.866026,-8.79169e-05,-0.0103116,0,0.00107288,0.0125823,2.2678,5,0.1,19,1.2,1.46861,3.42865,0.609828,-0.429296,-0.579739,-0.0152037,0.493228,1.21808,-0.0377297,0.0156938,1.56974,5,0.1,20,1.2,1.02587,3.37962,0.587423,-0.279549,-0.266415,-0.0250176,0.882685,1.4962,-0.071913,0.0164929,1.39416,5,0.1,21,1.2,-1.53864,3.4681,0.630395,-0.342813,-0.695813,-0.0125989,0.128806,0.261307,0.00476837,0.0107585,0.321299,5,0.1,22,1.2,-2.82018,-1.00682,0.602422,0.391781,0.0228375,-0.0648201,-0.147223,-0.00858307,0.0243187,0.0116277,0.143346,5,0.1,23,1.2,-3.96475,-0.1365,0.586002,0.569379,0.863065,0.0097841,-0.0392199,-0.0591993,-0.000715256,0.0118746,1.35613,5,0.1,24,1.2,-0.0624754,2.70482,0.500028,-0.195814,0.860488,-0.000479817,0.0644195,-0.110626,0.00572205,0.0133022,0.852044,5,0.1,25,1.2,-3.91379,-3.26973,0.532567,0.176406,0.840408,-0.00322014,-0.0665188,-0.315428,0.00119209,0.0092268,0.40111,5,0.1,26,1.2,-2.77312,3.20423,0.637067,0.866026,-0.498307,-0.0337407,0,-0.0499487,-0.00700355,0.00904598,1.50296,5,0.1,27,1.2,-0.5654,-2.32599,0.718852,0.352092,0.408953,0.0263065,-0.13575,-0.0995398,-0.0100136,0.00928933,0.176504,5,0.1,28,1.2,3.97373,-3.11,0.520128,0.205564,0.866026,0.0138283,-0.00488758,0,-0.000327826,0.0108173,2.24479,5,0.1,29,1.2,3.64766,-0.304752,0.665683,0.158495,0.866025,0.00754446,-0.0025034,1.43051e-05,-0.000119209,0.0102089,2.2556,5,0.1,30,1.2,-3.85869,-2.17866,0.602646,0.596935,0.445306,-0.0022307,-0.224233,-0.167251,0.000834465,0.0387721,0.296101,5,0.1,31,1.2,-3.39938,-3.59659,0.703973,-0.161207,0.708908,0.044851,-0.417352,-0.0398159,0.0633001,0.0209089,2.53423,5,0.1,32,1.2,-0.910941,-0.664901,0.634663,0.845358,0.212316,0.0113636,-0.19592,-0.079751,-0.00429153,0.0120806,0.641952,5,0.1,33,1.2,-0.963843,-2.33098,0.716232,-0.638513,-0.49119,0.0224456,0.716954,1.46043,-0.0504255,0.0113166,0.994534,5,0.1,34,1.2,3.88828,1.45542,0.556056,-0.210494,0.866026,-0.00514686,-0.467896,0,0.0588,0.00921747,1.51602,5,0.1,35,1.2,1.69651,-0.965935,0.614031,-0.759044,-0.230914,0.0491858,0.285089,0.0867546,-0.0184178,0.00941942,0.337433,5,0.1,36,1.2,1.95931,-1.07785,0.593108,-0.0598311,0.601101,-0.00489056,-0.133395,0.611007,0.00429153,0.02124,2.50998,5,0.1,37,1.2,0.497602,-0.987653,0.532055,-0.861065,-0.745554,0.00686347,0.0991976,0.00038743,0,0.0130958,1.95939,5,0.1,38,1.2,2.0652,-2.72161,0.705633,-0.231224,0.866026,0.011988,0.0013113,0,-0.000566244,0.0208091,2.23717,5,0.1,39,1.2,-0.872412,-3.5976,0.634849,0.188561,0.866026,-0.0114769,-0.00321865,0,0.000238419,0.0245922,2.24886,5,0.1
0,1.3,-0.323919,-3.25768,0.583188,0.020737,0.430032,0.0145761,-0.00762381,0.28497,-0.00534952,0.0108535,1.51869,5,0.1,1,1.3,1.15156,3.08609,0.637591,0.866026,-0.191741,-0.0169707,0,-0.103891,0.00233576,0.0121502,2.28036,5,0.1,2,1.3,3.61446,1.13291,0.678578,-0.234429,-0.295775,0.0905374,0.0939369,0.057444,0.0373274,0.00914476,3.45965,5,0.1,3,1.3,-1.45193,-2.7222,0.682945,-0.0799425,0.866026,0.0157411,0.00613928,0,0.0347085,0.0166959,2.26802,5,0.1,4,1.3,1.15988,-0.719085,0.580307,-0.412573,-0.797268,0.00614226,-0.367649,-0.0618361,0.000216067,0.0145274,2.35815,5,0.1,5,1.3,-3.25374,-3.33523,0.634377,0.562499,-0.161465,0.00225129,-0.689372,-0.0112355,0.000137836,0.00975208,2.78154,5,0.1,6,1.3,-3.41373,1.08066,0.635065,0.26495,0.26589,-0.0346054,0.0369847,-0.0428334,0.00559166,0.00761913,0.124527,5,0.1,7,1.3,3.09874,3.48474,0.715336,-0.506154,0.00441484,0.022979,-0.854224,-0.0754148,0.00200793,0.0121499,0.446102,5,0.1,8,1.3,-2.98894,-0.383901,0.569558,0.780355,0.292607,0.0138575,0.629872,-0.0764243,0.000603497,0.0397509,2.31673,5,0.1,9,1.3,2.61406,2.92604,0.580083,0.150172,-0.0221949,0.0176121,0.259757,-0.0881106,-0.00729412,0.00742382,0.357608,5,0.1,10,1.3,-2.19038,3.31979,0.562916,0.853061,0.576788,0.0289364,-0.0428855,-0.0945628,-0.00554323,0.018959,1.1385,5,0.1,11,1.3,1.2211,1.27221,0.622032,-0.130096,0.0687612,-0.0194829,0.523731,-0.028424,0.00805408,0.0131461,0.368504,5,0.1,12,1.3,-0.456736,0.268789,0.714538,0.138571,0.485028,0.0313501,-0.0572968,-0.0684325,-0.0129752,0.0157275,0.206919,5,0.1,13,1.3,-1.91822,-3.49762,0.563147,0.237151,0.336153,0.0325842,-0.0980869,0.000804663,-0.0134856,0.0197945,0.162585,5,0.1,14,1.3,3.38751,2.94386,0.638233,-0.663551,-0.0680778,-0.000286661,1.24981,-0.052467,-0.0467226,0.0181374,2.97733,5,0.1,15,1.3,-1.50918,1.1579,0.604205,0.0623789,-0.447381,-0.0275622,0.000372529,-0.716679,-0.00018999,0.011231,2.85335,5,0.1,16,1.3,1.49726,-1.9919,0.712285,-0.666177,0.812557,0.0181067,1.08255,0.0771433,0.00170991,0.0248244,2.34866,5,0.1,17,1.3,-1.60011,2.67118,0.658187,0.509822,-0.803678,0.0132375,-0.147022,0.739962,-0.00381842,0.0103128,1.02985,5,0.1,18,1.3,1.46683,-2.63423,0.500001,-0.0861878,0.866026,-1.08965e-05,-0.00376254,0,0.000502914,0.0125823,2.2678,5,0.1,19,1.3,1.42749,3.37635,0.608137,-0.398385,-0.470303,-0.0184144,0.168927,0.976667,-0.0256784,0.0156938,1.56974,5,0.1,20,1.3,1.0015,3.35858,0.584664,-0.215327,-0.170986,-0.029221,0.438545,0.495866,-0.0154227,0.0164929,1.39416,5,0.1,21,1.3,-1.57229,3.3998,0.629158,-0.330081,-0.66998,-0.0121284,0.136495,0.276998,0.00503659,0.0107585,0.321299,5,0.1,22,1.3,-2.78149,-1.00457,0.596021,0.383778,0.02237,-0.0634992,-0.039801,-0.00233948,0.00656396,0.0116277,0.143346,5,0.1,23,1.3,-3.90797,-0.0502405,0.586977,0.566065,0.863455,0.00972394,-0.0512153,0.0220768,-0.00090152,0.0118746,1.35613,5,0.1,24,1.3,-0.0817414,2.79053,0.500003,-0.18941,0.854821,-6.73346e-05,0.0699416,-0.04749,0.00271574,0.0133022,0.852044,5,0.1,25,1.3,-3.89647,-3.18722,0.53225,0.169832,0.809427,-0.00310205,-0.0704229,-0.330746,0.0012666,0.0092268,0.40111,5,0.1,26,1.3,-2.68653,3.1541,0.63365,0.865704,-0.504171,-0.0346365,-0.0128746,-0.0427514,-0.00882521,0.00904598,1.50296,5,0.1,27,1.3,-0.530855,-2.28557,0.721434,0.338666,0.399213,0.0253168,-0.143593,-0.109792,-0.0105985,0.00928933,0.176504,5,0.1,28,1.3,3.99432,-3.0234,0.521513,0.206414,0.866026,0.0138862,0.0103712,0,0.000707805,0.0108173,2.24479,5,0.1,29,1.3,3.66354,-0.218149,0.666439,0.159352,0.866025,0.00758488,0.0105798,0,0.000499189,0.0102089,2.2556,5,0.1,30,1.3,-3.8001,-2.13495,0.602427,0.574768,0.428772,-0.0021481,-0.237659,-0.177264,0.000890344,0.0387721,0.296101,5,0.1,31,1.3,-3.41701,-3.52562,0.708681,-0.185956,0.712251,0.0484212,-0.0951439,0.0674576,0.0103079,0.0209089,2.53423,5,0.1,32,1.3,-0.827235,-0.644059,0.635778,0.829281,0.204432,0.0109395,-0.162814,-0.0845306,-0.0045374,0.0120806,0.641952,5,0.1,33,1.3,-1.02403,-2.37416,0.718276,-0.564465,-0.384366,0.0188757,0.762638,0.736877,-0.0235662,0.0113166,0.994534,5,0.1,34,1.3,3.86477,1.54201,0.555846,-0.260103,0.865674,0.000993349,-0.494063,-0.0140667,0.0617504,0.00921747,1.51602,5,0.1,35,1.3,1.62203,-0.988607,0.618861,-0.730063,-0.222478,0.0473913,0.316359,0.0894591,-0.0190586,0.00941942,0.337433,5,0.1,36,1.3,1.95219,-1.01403,0.592649,-0.0864878,0.679573,-0.00420194,-0.36332,0.874758,0.0089705,0.02124,2.50998,5,0.1,37,1.3,0.4116,-1.06244,0.532744,-0.861475,-0.751331,0.00691693,-0.0524206,-0.0715367,0.000655651,0.0130958,1.95939,5,0.1,38,1.3,2.04202,-2.63501,0.706833,-0.232727,0.866026,0.0120203,-0.0180304,0,0.000525266,0.0208091,2.23717,5,0.1,39,1.3,-0.85352,-3.51099,0.633699,0.189547,0.866026,-0.0115337,0.0121742,0,-0.000715256,0.0245922,2.24886,5,0.1
0,1.4,-0.321889,-3.21287,0.584615,0.0197954,0.468481,0.0139147,-0.0116527,0.422597,-0.00816584,0.0110144,1.20545,5,0.1,1,1.4,1.23816,3.06671,0.635901,0.866026,-0.192922,-0.0168428,0,0.0724792,0.00140071,0.00834863,1.00481,5,0.1,2,1.4,3.59211,1.10235,0.687639,-0.207478,-0.325683,0.089027,0.411153,-0.551522,-0.0611544,0.00821777,2.93267,5,0.1,3,1.4,-1.4599,-2.63559,0.684642,-0.0791728,0.866026,0.0177056,0.0132918,0,0.00602007,0.0104656,2.27216,5,0.1,4,1.4,1.11644,-0.798921,0.580921,-0.458175,-0.796613,0.00611544,-0.483513,0.106752,-0.00104308,0.0199465,2.22804,5,0.1,5,1.4,-3.2,-3.35139,0.634602,0.521797,-0.161219,0.0022471,-0.139832,0.0224113,-0.000357628,0.00907362,2.69549,5,0.1,6,1.4,-3.38713,1.10689,0.631651,0.265986,0.257146,-0.0334665,-0.0265837,-0.134647,0.0175238,0.00819426,0.29924,5,0.1,7,1.4,3.04456,3.48483,0.717637,-0.570172,-0.00247359,0.0229463,-0.415921,-0.0612736,-0.00351667,0.00782369,0.273674,5,0.1,8,1.4,-2.90796,-0.355097,0.570943,0.835818,0.282532,0.0137985,0.429869,-0.132963,-0.00235438,0.0323906,2.24672,5,0.1,9,1.4,2.63054,2.92342,0.581803,0.180358,-0.0298798,0.01674,0.314116,-0.0634193,-0.01055,0.00716266,0.286455,5,0.1,10,1.4,-2.10546,3.37681,0.565773,0.842834,0.561291,0.0281096,-0.194907,-0.229955,-0.0118315,0.0178683,0.803119,5,0.1,11,1.4,1.21057,1.27892,0.620129,-0.0820369,0.0653625,-0.0185192,0.431895,-0.0411272,0.0116825,0.0119686,0.565606,5,0.1,12,1.4,-0.4432,0.316798,0.7176,0.131714,0.47328,0.0297979,-0.0828058,-0.179827,-0.0187457,0.0169646,0.140387,5,0.1,13,1.4,-1.89505,-3.46409,0.56633,0.22541,0.333226,0.0309706,-0.14174,-0.0715256,-0.0194907,0.0174185,2.92786,5,0.1,14,1.4,3.32763,2.93683,0.637989,-0.53277,-0.0721633,-0.00438988,1.3206,-0.0259876,-0.0348985,0.0188486,3.31981,5,0.1,15,1.4,-1.50296,1.10912,0.601455,0.0618607,-0.53069,-0.0273362,-0.0129938,-0.865698,0.00572205,0.00901695,2.54284,5,0.1,16,1.4,1.43644,-1.91045,0.7141,-0.547251,0.813574,0.0181288,1.26261,-0.0905395,-0.00202656,0.02611,2.62085,5,0.1,17,1.4,-1.55002,2.5951,0.659488,0.490347,-0.712925,0.012733,-0.254333,1.04046,-0.00661612,0.00851497,0.868469,5,0.1,18,1.4,1.45823,-2.54763,0.500001,-0.0854552,0.866026,1.93715e-05,0.020802,0,0.000149012,0.0161378,2.26797,5,0.1,19,1.4,1.38826,3.33385,0.606192,-0.387812,-0.383103,-0.0202194,0.0757575,0.773907,-0.00995398,0.0123308,1.32733,5,0.1,20,1.4,0.981674,3.34288,0.581736,-0.185224,-0.152194,-0.0287101,0.192791,-0.0530481,0.0228584,0.0166019,1.08782,5,0.1,21,1.4,-1.60453,3.33435,0.627974,-0.313744,-0.636828,-0.011526,0.197232,0.400543,0.00724196,0.00894193,0.211483,5,0.1,22,1.4,-2.74332,-1.00234,0.589705,0.379175,0.0221014,-0.0627398,-0.071764,-0.00423193,0.0118911,0.00925589,0.0839175,5,0.1,23,1.4,-3.8518,0.0360542,0.587942,0.555098,0.860056,0.00953227,-0.184655,-0.119389,-0.00315905,0.0139041,0.974377,5,0.1,24,1.4,-0.100282,2.87558,0.500006,-0.180783,0.843394,9.83477e-05,0.106756,-0.212312,0.00077486,0.00903136,0.654562,5,0.1,25,1.4,-3.87989,-3.10813,0.531947,0.161409,0.769842,-0.00295043,-0.101566,-0.478864,0.00187755,0.00878485,0.264842,5,0.1,26,1.4,-2.60012,3.10365,0.630153,0.860876,-0.502717,-0.0351518,-0.103116,0.0884533,-2.98023e-05,0.0131332,1.10261,5,0.1,27,1.4,-0.497791,-2.24631,0.723906,0.321575,0.384569,0.0240535,-0.205353,-0.192761,-0.0152588,0.00867065,0.117387,5,0.1,28,1.4,4.01496,-2.93679,0.522901,0.205684,0.866026,0.0138387,-0.0329018,0,-0.00220537,0.00840027,2.24567,5,0.1,29,1.4,3.67949,-0.131547,0.667198,0.159067,0.866025,0.00757128,-0.0225306,0,-0.00110269,0.0101332,2.25592,5,0.1,30,1.4,-3.74395,-2.09307,0.602217,0.546324,0.407553,-0.00204146,-0.343561,-0.2563,0.0012517,0.0402007,0.194899,5,0.1,31,1.4,-3.43567,-3.45415,0.713503,-0.183511,0.715554,0.047338,0.128865,-0.030756,-0.0299513,0.0231581,2.65479,5,0.1,32,1.4,-0.745315,-0.62409,0.636847,0.806516,0.194316,0.0103965,-0.31811,-0.122219,-0.00655651,0.0135024,0.444729,5,0.1,33,1.4,-1.0766,-2.40969,0.720072,-0.486353,-0.332892,0.017269,0.797212,0.340819,-0.0105798,0.00984896,0.771337,5,0.1,34,1.4,3.83645,1.6284,0.556243,-0.304127,0.860399,0.00681281,-0.365019,-0.112534,0.0529885,0.00998947,1.12552,5,0.1,35,1.4,1.5508,-1.01035,0.623493,-0.692171,-0.211772,0.0451088,0.455797,0.129521,-0.0276566,0.011356,0.223167,5,0.1,36,1.4,1.94159,-0.941833,0.592278,-0.126076,0.761582,-0.00318736,-0.400722,0.704318,0.0108778,0.0207156,2.3101,5,0.1,37,1.4,0.325308,-1.13775,0.533437,-0.862193,-0.7523,0.00692755,0.0766516,0.0833273,-0.000804663,0.0119358,1.95703,5,0.1,38,1.4,2.01871,-2.54841,0.708035,-0.232553,0.866026,0.0119761,0.030756,0,-0.00187755,0.0207686,2.23768,5,0.1,39,1.4,-0.834551,-3.42439,0.632545,0.189166,0.866026,-0.0115082,-0.0273287,0,0.00163913,0.0234838,2.24935,5,0.1
0,1.5,-0.319965,-3.16343,0.585967,0.0186814,0.523478,0.0131336,-0.0112001,0.615627,-0.00785664,0.0110144,1.20545,5,0.1,1,1.5,1.32269,3.04728,0.634344,0.806291,-0.199772,-0.0132818,-1.09795,-0.172034,0.0628307,0.00834863,1.00481,5,0.1,2,1.5,3.57382,1.06585,0.696133,-0.154964,-0.41322,0.0799495,0.609294,-1.09574,-0.115599,0.00821777,2.93267,5,0.1,3,1.5,-1.46766,-2.54899,0.68645,-0.0754111,0.866026,0.0185155,0.0594556,0,0.00878051,0.0104656,2.27216,5,0.1,4,1.5,1.06765,-0.878313,0.581529,-0.521517,-0.792703,0.00606589,-0.715099,0.0166744,-0.000290573,0.0199465,2.22804,5,0.1,5,1.5,-3.14712,-3.36745,0.634826,0.547231,-0.160326,0.00223108,0.543401,0.00451505,-8.9407e-05,0.00907362,2.69549,5,0.1,6,1.5,-3.36042,1.1319,0.628396,0.270079,0.242767,-0.0315954,0.083074,-0.157431,0.0204854,0.00819426,0.29924,5,0.1,7,1.5,2.98578,3.48428,0.719917,-0.601967,-0.00821128,0.0226467,-0.204295,-0.0522733,-0.00344589,0.00782369,0.273674,5,0.1,8,1.5,-2.82281,-0.327478,0.572315,0.861959,0.269904,0.0136711,0.11909,-0.128718,-0.000938773,0.0323906,2.24672,5,0.1,9,1.5,2.65035,2.92016,0.583427,0.217141,-0.0349563,0.0157339,0.391901,-0.0376254,-0.0100471,0.00716266,0.286455,5,0.1,10,1.5,-2.02199,3.43183,0.568528,0.827163,0.53915,0.026991,-0.156321,-0.231072,-0.0114888,0.0178683,0.803119,5,0.1,11,1.5,1.20438,1.28526,0.618333,-0.0432985,0.0614403,-0.0174053,0.336267,-0.0391826,0.0111237,0.0119686,0.565606,5,0.1,12,1.5,-0.430427,0.36327,0.720489,0.123815,0.456176,0.0280101,-0.078911,-0.178387,-0.017859,0.0169646,0.140387,5,0.1,13,1.5,-1.87199,-3.43051,0.569314,0.246071,0.343238,0.0285647,0.472598,0.221848,-0.0282936,0.0174185,2.92786,5,0.1,14,1.5,3.2811,2.92958,0.637386,-0.398594,-0.0719029,-0.00756299,1.27994,0.0287145,-0.0279583,0.0188486,3.31981,5,0.1,15,1.5,-1.49682,1.05105,0.598743,0.0609735,-0.635141,-0.0269454,-0.00786036,-1.13329,0.00346452,0.00901695,2.54284,5,0.1,16,1.5,1.38823,-1.82949,0.715921,-0.41604,0.805287,0.0184309,1.32042,-0.108331,0.00624359,0.02611,2.62085,5,0.1,17,1.5,-1.5022,2.52951,0.66073,0.465973,-0.595691,0.0120996,-0.248,1.23824,-0.00643358,0.00851497,0.868469,5,0.1,18,1.5,1.44977,-2.46103,0.500004,-0.0838013,0.866026,2.50526e-05,0.0161603,0,-1.86265e-05,0.0161378,2.26797,5,0.1,19,1.5,1.34966,3.29825,0.604156,-0.385564,-0.338878,-0.0201721,-0.00503659,0.175536,0.00976026,0.0123308,1.32733,5,0.1,20,1.5,0.963692,3.32652,0.579024,-0.177909,-0.18223,-0.0251444,-0.0182912,-0.484586,0.0460818,0.0166019,1.08782,5,0.1,21,1.5,-1.63496,3.2726,0.626856,-0.29493,-0.598623,-0.0108353,0.187956,0.381663,0.00690296,0.00894193,0.211483,5,0.1,22,1.5,-2.70569,-1.00015,0.583479,0.373591,0.0217714,-0.0618146,-0.0573099,-0.00338629,0.00949576,0.00925589,0.0839175,5,0.1,23,1.5,-3.79716,0.121656,0.58888,0.537626,0.852793,0.00923332,-0.184461,-0.068728,-0.00315905,0.0139041,0.974377,5,0.1,24,1.5,-0.118003,2.959,0.500019,-0.175022,0.825412,0.000129081,0.0235713,-0.183329,-8.9407e-05,0.00903136,0.654562,5,0.1,25,1.5,-3.86423,-3.03345,0.531661,0.151721,0.724259,-0.00277162,-0.096783,-0.454977,0.00178069,0.00878485,0.264842,5,0.1,26,1.5,-2.51429,3.05378,0.626634,0.857171,-0.494543,-0.0352345,-0.0186712,0.0948906,3.72529e-05,0.0131332,1.10261,5,0.1,27,1.5,-0.466621,-2.20878,0.726238,0.301986,0.366191,0.0225984,-0.195488,-0.186816,-0.0145249,0.00867065,0.117387,5,0.1,28,1.5,4.03543,-2.85019,0.524279,0.204043,0.866026,0.0137294,-0.0112057,0,-0.000737607,0.00840027,2.24567,5,0.1,29,1.5,3.69534,-0.0449441,0.667952,0.158194,0.866025,0.00752714,-0.00397861,4.47035e-07,-0.000208616,0.0101332,2.25592,5,0.1,30,1.5,-3.69097,-2.05354,0.602019,0.513553,0.383105,-0.00192132,-0.327379,-0.244215,0.00120699,0.0402007,0.194899,5,0.1,31,1.5,-3.45315,-3.38363,0.718054,-0.163959,0.687937,0.0433828,0.25098,-0.449419,-0.0480525,0.0231581,2.65479,5,0.1,32,1.5,-0.666132,-0.605246,0.637855,0.777598,0.182658,0.00977153,-0.29048,-0.116456,-0.00623986,0.0135024,0.444729,5,0.1,33,1.5,-1.12187,-2.44197,0.72176,-0.424361,-0.318258,0.0165856,0.476882,-0.00183284,-0.00431016,0.00984896,0.771337,5,0.1,34,1.5,3.80421,1.71412,0.557187,-0.340112,0.855368,0.0119791,-0.331238,-0.0346154,0.0486337,0.00998947,1.12552,5,0.1,35,1.5,1.48376,-1.03091,0.62787,-0.649127,-0.199341,0.042456,0.425257,0.125021,-0.0266656,0.011356,0.223167,5,0.1,36,1.5,1.92677,-0.862405,0.592017,-0.171426,0.823576,-0.00202954,-0.476316,0.502437,0.011906,0.0207156,2.3101,5,0.1,37,1.5,0.239161,-1.21284,0.534128,-0.862605,-0.751154,0.00691414,-0.0373554,-0.0153631,0.000119209,0.0119358,1.95703,5,0.1,38,1.5,1.99553,-2.4618,0.709227,-0.231524,0.866026,0.0118973,0.00320375,0,-0.00038743,0.0207686,2.23768,5,0.1,39,1.5,-0.815707,-3.33779,0.631398,0.188061,0.866026,-0.0114433,-0.00549108,0,0.00031665,0.0234838,2.24935,5,0.1
0,1.6,-0.318156,-3.1081,0.587239,0.0174589,0.580943,0.0122756,-0.0136197,0.488639,-0.00956655,0.0115262,0.922256,5,0.1,1,1.6,1.39668,3.02629,0.633384,0.664005,-0.220752,-0.00552237,-1.66887,-0.219345,0.0868142,0.00686385,0.233855,5,0.1,2,1.6,3.56149,1.01885,0.703493,-0.0909209,-0.526701,0.0667855,0.648379,-1.09601,-0.143707,0.0101423,2.70565,5,0.1,3,1.6,-1.47485,-2.46239,0.688341,-0.0677586,0.866026,0.0192195,0.0913739,0,0.00435114,0.0116311,0.715828,5,0.1,4,1.6,1.012,-0.957345,0.582133,-0.589374,-0.785568,0.00599772,-0.592083,0.157923,-0.0013113,0.0141095,2.12005,5,0.1,5,1.6,-3.08926,-3.38343,0.635048,0.611991,-0.158769,0.00220686,0.671864,0.0331402,-0.000447035,0.00928411,2.45185,5,0.1,6,1.6,-3.33299,1.15533,0.625347,0.278205,0.224945,-0.0292763,0.0606775,-0.201583,0.026226,0.00816957,0.145905,5,0.1,7,1.6,2.92501,3.48322,0.722158,-0.608581,-0.0127256,0.022094,0.0807047,-0.0373125,-0.00828505,0.00891286,0.442714,5,0.1,8,1.6,-2.73631,-0.301185,0.573675,0.866026,0.255261,0.0134826,0,-0.170305,-0.00330806,0.0321831,2.25488,5,0.1,9,1.6,2.67395,2.91652,0.584947,0.253612,-0.0373423,0.0146508,0.315905,-0.0100136,-0.0119209,0.00729828,0.230115,5,0.1,10,1.6,-1.94024,3.48447,0.571164,0.805184,0.512046,0.0256538,-0.309348,-0.323296,-0.0159144,0.018041,0.553677,5,0.1,11,1.6,1.20154,1.2912,0.61665,-0.0157118,0.0572175,-0.016208,0.212789,-0.0464916,0.0132322,0.011727,0.547503,5,0.1,12,1.6,-0.418458,0.40789,0.723197,0.115306,0.434903,0.0260845,-0.0937581,-0.257939,-0.0211895,0.0150854,0.160687,5,0.1,13,1.6,-1.84457,-3.39493,0.572017,0.305355,0.368851,0.0253826,0.64975,0.253201,-0.0350475,0.0183905,0.203333,5,0.1,14,1.6,3.24707,2.92261,0.636505,-0.289017,-0.0668943,-0.00988245,0.872493,0.0691414,-0.01809,0.0154722,2.11799,5,0.1,15,1.6,-1.49077,0.982033,0.596071,0.0597596,-0.741769,-0.0264108,-0.018537,-0.933528,0.00822544,0.00988271,2.33895,5,0.1,16,1.6,1.35305,-1.74976,0.717797,-0.290069,0.786358,0.0190616,1.17123,-0.292599,0.00503659,0.0234387,2.98962,5,0.1,17,1.6,-1.45694,2.47604,0.661905,0.438264,-0.475681,0.01138,-0.316083,1.12391,-0.00816584,0.00902564,0.758662,5,0.1,18,1.6,1.44149,-2.37443,0.500006,-0.081569,0.866026,1.93715e-05,0.0312924,0,-0.000119209,0.0169848,2.26767,5,0.1,19,1.6,1.31112,3.26469,0.602212,-0.384393,-0.33645,-0.0184819,0.0470281,-0.0764132,0.0230372,0.0117826,1.05842,5,0.1,20,1.6,0.945652,3.30559,0.576762,-0.18391,-0.237972,-0.0199214,-0.080198,-0.58198,0.0564456,0.00826822,0.372949,5,0.1,21,1.6,-1.66347,3.21473,0.625809,-0.274664,-0.55747,-0.0100926,0.223339,0.453353,0.00822544,0.010891,0.139,5,0.1,22,1.6,-2.66871,-0.997994,0.57736,0.364774,0.0212535,-0.0603557,-0.131011,-0.0076592,0.0216961,0.0102399,0.0634,5,0.1,23,1.6,-3.74445,0.206388,0.589786,0.514907,0.839047,0.00884533,-0.283122,-0.235968,-0.00488758,0.0115418,0.680392,5,0.1,24,1.6,-0.135423,3.04043,0.50003,-0.173438,0.800663,9.53674e-05,0.019297,-0.336528,-0.000536442,0.010544,0.457682,5,0.1,25,1.6,-3.84957,-2.9634,0.531393,0.141287,0.675142,-0.00258088,-0.115037,-0.542521,0.00214577,0.00852072,0.174464,5,0.1,26,1.6,-2.42885,3.00494,0.623122,0.84902,-0.480407,-0.0348642,-0.17786,0.201106,0.00849366,0.0102009,0.78162,5,0.1,27,1.6,-0.437444,-2.17316,0.728422,0.280963,0.345194,0.021036,-0.231028,-0.241041,-0.0172257,0.0111385,0.132746,5,0.1,28,1.6,4.05574,-2.76359,0.525645,0.201523,0.866026,0.0135615,-0.0472069,0,-0.00318885,0.00825542,2.24714,5,0.1,29,1.6,3.71111,0.0416584,0.668703,0.156724,0.866025,0.00745505,-0.0318289,-1.19209e-06,-0.00151992,0.0131784,2.29555,5,0.1,30,1.6,-3.64133,-2.01651,0.601834,0.478262,0.35677,-0.00179112,-0.389099,-0.290096,0.00146031,0.041878,0.222832,5,0.1,31,1.6,-3.46816,-3.31732,0.72213,-0.135368,0.636822,0.0379369,0.311732,-0.533581,-0.0598729,0.0186468,2.74201,5,0.1,32,1.6,-0.58998,-0.58759,0.6388,0.743334,0.170101,0.00909865,-0.415444,-0.138313,-0.00742078,0.0146994,0.302709,5,0.1,33,1.6,-1.16222,-2.47405,0.723399,-0.384927,-0.325102,0.0161961,0.337958,-0.0997782,-0.00438094,0.00997069,0.59769,5,0.1,34,1.6,3.76876,1.7993,0.558609,-0.366426,0.84556,0.0162527,-0.178695,-0.194073,0.0356436,0.00987916,0.802867,5,0.1,35,1.6,1.42106,-1.05018,0.631976,-0.603738,-0.185779,0.0395656,0.496089,0.150144,-0.0320077,0.0130943,0.147505,5,0.1,36,1.6,1.90733,-0.778063,0.591872,-0.216156,0.857641,-0.000871718,-0.39649,0.167698,0.0109971,0.0197927,2.22863,5,0.1,37,1.6,0.152838,-1.28789,0.534819,-0.861806,-0.747681,0.00687987,0.084393,0.116765,-0.00107288,0.0128339,1.98806,5,0.1,38,1.6,1.97244,-2.3752,0.710413,-0.22963,0.866026,0.0117809,0.0440478,0,-0.00238419,0.0184827,2.23879,5,0.1,39,1.6,-0.796965,-3.25119,0.630258,0.186238,0.866026,-0.0113353,-0.0384748,0,0.00235438,0.0269141,2.25025,5,0.1
0,1.7,-0.316475,-3.04741,0.588421,0.0161799,0.633206,0.0113767,-0.0124443,0.5088,-0.00874698,0.0115262,0.922256,5,0.1,1,1.7,1.45513,3.00284,0.63332,0.508928,-0.250218,0.00464963,-1.43314,-0.336573,0.110697,0.00686385,0.233855,5,0.1,2,1.7,3.55499,0.961086,0.709476,-0.0451624,-0.624041,0.0531046,0.292122,-0.82048,-0.129633,0.0101423,2.70565,5,0.1,3,1.7,-1.48204,-2.37737,0.690142,-0.0832377,0.820108,0.0155794,-0.345938,-0.852555,-0.0689887,0.0116311,0.715828,5,0.1,4,1.7,0.949787,-1.0354,0.582729,-0.656382,-0.777212,0.005945,-0.686787,0.0538081,-0.00013411,0.0141095,2.12005,5,0.1,5,1.7,-3.02402,-3.3992,0.635267,0.69733,-0.156945,0.00218283,0.947103,0.0122786,-0.000156462,0.00928411,2.45185,5,0.1,6,1.7,-3.30526,1.17683,0.622548,0.272616,0.205252,-0.0267144,-0.160262,-0.196315,0.0255406,0.00816957,0.145905,5,0.1,7,1.7,2.86438,3.48178,0.724328,-0.60508,-0.0160955,0.0213225,0.0225902,-0.0291467,-0.00793859,0.00891286,0.442714,5,0.1,8,1.7,-2.64971,-0.276748,0.575012,0.866026,0.231342,0.013281,0,-0.298068,-0.00147521,0.0321831,2.25488,5,0.1,9,1.7,2.70078,2.91288,0.586351,0.28162,-0.0340562,0.0133839,0.231341,0.0681132,-0.0134856,0.00729828,0.230115,5,0.1,10,1.7,-1.86114,3.53413,0.573654,0.777242,0.481492,0.0241604,-0.280179,-0.302941,-0.0147447,0.018041,0.553677,5,0.1,11,1.7,1.20092,1.2967,0.615093,0.00187494,0.0528594,-0.0149683,0.1214,-0.0422373,0.0120066,0.011727,0.547503,5,0.1,12,1.7,-0.407318,0.450395,0.725717,0.108113,0.417498,0.0244593,-0.0568517,-0.119107,-0.0128448,0.0150854,0.160687,5,0.1,13,1.7,-1.8115,-3.35737,0.574398,0.349071,0.37679,0.0223727,0.237986,-0.0791103,-0.0261925,0.0183905,0.203333,5,0.1,14,1.7,3.22169,2.91639,0.635431,-0.227012,-0.056307,-0.0115487,0.360474,0.135034,-0.0145547,0.0154722,2.11799,5,0.1,15,1.7,-1.48487,0.903712,0.593463,0.0584044,-0.818828,-0.0258089,-0.0115931,-0.586044,0.00515208,0.00988271,2.33895,5,0.1,16,1.7,1.32962,-1.67302,0.719785,-0.182388,0.744161,0.0211482,0.943504,-0.546366,0.0322126,0.0234387,2.98962,5,0.1,17,1.7,-1.41462,2.4338,0.663004,0.408513,-0.373619,0.0106113,-0.291385,0.856027,-0.00753254,0.00902564,0.758662,5,0.1,18,1.7,1.43337,-2.28782,0.500007,-0.0816144,0.866026,7.63685e-06,-0.0227094,0,-0.000111759,0.0169848,2.26767,5,0.1,19,1.7,1.27282,3.2301,0.600493,-0.382002,-0.35951,-0.0157907,0.020653,-0.333831,0.0299625,0.0117826,1.05842,5,0.1,20,1.7,0.926348,3.27989,0.57498,-0.206211,-0.266785,-0.0163334,-0.323396,-0.0309497,0.0189357,0.00826822,0.372949,5,0.1,21,1.7,-1.68987,3.16114,0.624839,-0.253727,-0.514971,-0.00932189,0.202909,0.411868,0.00746921,0.010891,0.139,5,0.1,22,1.7,-2.63278,-0.995901,0.571415,0.354408,0.0206469,-0.058639,-0.0945032,-0.00552833,0.0156499,0.0102399,0.0634,5,0.1,23,1.7,-3.69431,0.289244,0.590647,0.488243,0.818481,0.00838535,-0.266433,-0.209914,-0.00458583,0.0115418,0.680392,5,0.1,24,1.7,-0.152757,3.11893,0.500037,-0.173819,0.769871,4.10713e-05,-0.0150753,-0.308633,-0.000532717,0.010544,0.457682,5,0.1,25,1.7,-3.83599,-2.89847,0.531146,0.130504,0.624327,-0.00238055,-0.104472,-0.492454,0.00193343,0.00852072,0.174464,5,0.1,26,1.7,-2.34471,2.95784,0.619674,0.834181,-0.461882,-0.0340899,-0.155598,0.186741,0.00836328,0.0102009,0.78162,5,0.1,27,1.7,-0.410311,-2.13961,0.730454,0.263177,0.327677,0.0197126,-0.141073,-0.130937,-0.0104681,0.0111385,0.132746,5,0.1,28,1.7,4.07572,-2.67699,0.52699,0.198617,0.866026,0.0133655,-0.0219643,0,-0.00147894,0.00825542,2.24714,5,0.1,29,1.7,3.72713,0.128253,0.669417,0.167746,0.86561,0.00661602,0.215098,-0.0166187,-0.0139959,0.0131784,2.29555,5,0.1,30,1.7,-3.5952,-1.98222,0.601661,0.446233,0.329573,-0.00165403,-0.27442,-0.263572,0.0013262,0.041878,0.222832,5,0.1,31,1.7,-3.4801,-3.25653,0.725623,-0.103087,0.580611,0.031943,0.327125,-0.457451,-0.0596605,0.0186468,2.74201,5,0.1,32,1.7,-0.5176,-0.571238,0.639674,0.704875,0.157135,0.00840332,-0.378603,-0.125661,-0.00673532,0.0146994,0.302709,5,0.1,33,1.7,-1.19937,-2.50737,0.725004,-0.360806,-0.343493,0.0159469,0.171334,-0.232399,-0.00156835,0.00997069,0.59769,5,0.1,34,1.7,3.73124,1.88304,0.560406,-0.383105,0.829697,0.0195825,-0.136316,-0.160523,0.0296384,0.00987916,0.802867,5,0.1,35,1.7,1.36304,-1.06804,0.63578,-0.557471,-0.171661,0.0365571,0.446178,0.13721,-0.0292324,0.0130943,0.147505,5,0.1,36,1.7,1.88364,-0.691785,0.59184,-0.25777,0.865502,0.000216253,-0.409529,0.0209585,0.0104681,0.0197927,2.22863,5,0.1,37,1.7,0.0667758,-1.36192,0.53545,-0.861162,-0.730762,0.00528675,-0.0205246,0.237755,-0.027746,0.0128339,1.98806,5,0.1,38,1.7,1.94961,-2.2886,0.711584,-0.227508,0.866026,0.0116615,0.0117347,0,-0.000685453,0.0184827,2.23879,5,0.1,39,1.7,-0.778464,-3.16458,0.629132,0.184197,0.866026,-0.0112103,-0.0129715,0,0.000797212,0.0269141,2.25025,5,0.1
0,1.8,-0.314921,-2.98183,0.589514,0.0148892,0.67457,0.0104696,-0.0137091,0.284791,-0.00962615,0.0082705,0.672593,5,0.1,1,1.8,1.49925,2.97617,0.634338,0.377211,-0.282276,0.0155821,-1.20223,-0.280261,0.103563,0.00737184,0.221133,5,0.1,2,1.8,3.55151,0.895236,0.714163,-0.027889,-0.685887,0.0409067,0.0742674,-0.397652,-0.114173,0.0109451,2.46044,5,0.1,3,1.8,-1.49244,-2.30058,0.691289,-0.127187,0.707591,0.00687987,-0.490487,-1.34277,-0.0985861,0.0117551,2.7607,5,0.1,4,1.8,0.880971,-1.11272,0.583323,-0.716226,-0.767192,0.00590682,-0.466406,0.178158,-0.000953674,0.0149684,2.04386,5,0.1,5,1.8,-2.94969,-3.41481,0.635485,0.786221,-0.154787,0.00215471,0.766516,0.0373125,-0.000536442,0.00911188,2.30151,5,0.1,6,1.8,-3.27908,1.19636,0.620007,0.248462,0.185022,-0.0240833,-0.31209,-0.210941,0.0274777,0.0081231,0.261419,5,0.1,7,1.8,2.80411,3.48004,0.726416,-0.598407,-0.0184059,0.0203729,0.13423,-0.0163317,-0.0115633,0.00854217,2.64125,5,0.1,8,1.8,-2.5631,-0.255246,0.57633,0.866026,0.197504,0.0130609,0,-0.370137,-0.00348687,0.0310929,2.2674,5,0.1,9,1.8,2.72988,2.9099,0.587618,0.297761,-0.0250936,0.0119448,0.0833273,0.104904,-0.0152886,0.00775139,0.212613,5,0.1,10,1.8,-1.78498,3.5807,0.575993,0.743985,0.448924,0.0225723,-0.405967,-0.358701,-0.0175536,0.0168859,0.375797,5,0.1,11,1.8,1.20146,1.30177,0.613657,0.00631809,0.0485063,-0.0137314,-0.0375509,-0.0458956,0.0129938,0.0091847,1.0019,5,0.1,12,1.8,-0.396775,0.491584,0.728102,0.102766,0.406078,0.0232518,-0.0550151,-0.13037,-0.0124574,0.0162955,0.406912,5,0.1,13,1.8,-1.77599,-3.32053,0.576512,0.355616,0.355965,0.0199616,-0.0937581,-0.323176,-0.022769,0.0226027,3.02708,5,0.1,14,1.8,3.2,2.91149,0.634214,-0.214064,-0.0412464,-0.0126794,-0.0659227,0.160098,-0.00762939,0.0150861,1.62169,5,0.1,15,1.8,-1.4791,0.819579,0.590912,0.0569224,-0.857027,-0.0251517,-0.020206,-0.179946,0.00891089,0.00980327,2.27358,5,0.1,16,1.8,1.31549,-1.60172,0.722075,-0.106695,0.67825,0.0247166,0.555992,-0.765026,0.0357628,0.024142,3.23515,5,0.1,17,1.8,-1.37526,2.4,0.664027,0.377896,-0.309497,0.00981987,-0.329316,0.437498,-0.00855327,0.00946416,0.624314,5,0.1,18,1.8,1.42507,-2.20122,0.500008,-0.0844538,0.866026,-2.98023e-06,-0.0270009,0,-5.96046e-05,0.0148343,2.29081,5,0.1,19,1.8,1.23481,3.1924,0.59907,-0.376895,-0.394332,-0.0126377,0.0953674,-0.324726,0.0323951,0.0103988,0.824904,5,0.1,20,1.8,0.903996,3.25372,0.573404,-0.241156,-0.250912,-0.0154883,-0.343591,0.317335,0.00077486,0.0107461,0.267588,5,0.1,21,1.8,-1.71422,3.11174,0.623944,-0.232819,-0.472534,-0.00855327,0.220239,0.447154,0.00810623,0.0108985,0.107166,5,0.1,22,1.8,-2.59787,-0.993867,0.56564,0.342798,0.019969,-0.0567168,-0.149965,-0.00876188,0.0248253,0.0095523,0.0282601,5,0.1,23,1.8,-3.64689,0.369855,0.591461,0.458884,0.791241,0.00787973,-0.331521,-0.358552,-0.00569224,0.0112116,0.465572,5,0.1,24,1.8,-0.170192,3.19423,0.500039,-0.174422,0.734007,-8.9407e-06,0.0114888,-0.428677,-0.000447035,0.0105727,0.314598,5,0.1,25,1.8,-3.82347,-2.83854,0.530917,0.11974,0.57351,-0.00218153,-0.113368,-0.536442,0.00205636,0.00864237,0.115286,5,0.1,26,1.8,-2.26227,2.91268,0.616316,0.81172,-0.44015,-0.0329629,-0.318766,0.259638,0.01508,0.0096838,0.541608,5,0.1,27,1.8,-0.38466,-2.10746,0.732376,0.249915,0.315267,0.0187293,-0.136137,-0.133038,-0.010103,0.0109397,0.416992,5,0.1,28,1.8,4.09544,-2.59038,0.528317,0.195253,0.866026,0.0131398,-0.0531673,0,-0.00357628,0.00851252,2.15026,5,0.1,29,1.8,3.74513,0.214598,0.669996,0.193202,0.859378,0.00488311,0.265598,-0.132955,-0.0196993,0.011268,2.26638,5,0.1,30,1.8,-3.55191,-1.9506,0.601503,0.419426,0.302419,-0.00151694,-0.278354,-0.286222,0.00143051,0.0412056,0.15765,5,0.1,31,1.8,-3.48879,-3.2,0.728522,-0.0711441,0.55747,0.0260696,0.306487,-0.0170469,-0.0575483,0.0176224,2.64934,5,0.1,32,1.8,-0.44911,-0.556163,0.64048,0.663434,0.144187,0.00770986,-0.467181,-0.136435,-0.00730157,0.014616,0.203928,5,0.1,33,1.8,-1.23469,-2.54286,0.726589,-0.345981,-0.365418,0.0157177,0.145078,-0.179887,-0.00366569,0.00872255,0.453041,5,0.1,34,1.8,3.69245,1.96501,0.562494,-0.390589,0.807154,0.0219613,-0.000834465,-0.316083,0.0171065,0.0091201,0.556229,5,0.1,35,1.8,1.30955,-1.08451,0.639287,-0.511649,-0.157499,0.0335395,0.481844,0.149548,-0.0317991,0.0134872,0.097767,5,0.1,36,1.8,1.85597,-0.605193,0.591911,-0.293577,0.866026,0.00117272,-0.28795,0,0.00846386,0.0189229,2.1999,5,0.1,37,1.8,-0.0192742,-1.4335,0.535816,-0.85721,-0.697562,0.00187457,0.13558,0.43571,-0.0380576,0.014059,1.68046,5,0.1,38,1.8,1.92695,-2.202,0.712745,-0.224999,0.866026,0.011526,0.0478029,0,-0.0025034,0.0188622,2.24007,5,0.1,39,1.8,-0.760138,-3.07798,0.628017,0.181825,0.866026,-0.0110656,-0.0419915,0,0.002563,0.025239,2.25128,5,0.1
0,1.9,-0.313497,-2.91292,0.590515,0.0136173,0.703074,0.00957623,-0.012137,0.247583,-0.00853091,0.0082705,0.672593,5,0.1,1,1.9,1.53192,2.94671,0.636398,0.284891,-0.305062,0.0253835,-0.683613,-0.166014,0.0896715,0.00737184,0.221133,5,0.1,2,1.9,3.54921,0.824,0.717682,-0.0170868,-0.74336,0.0295003,0.135407,-0.671238,-0.112128,0.0109451,2.46044,5,0.1,3,1.9,-1.50707,-2.23451,0.691588,-0.160414,0.6311,4.24683e-05,-0.18803,-0.302061,-0.041984,0.0117551,2.7607,5,0.1,4,1.9,0.806737,-1.1888,0.583912,-0.769699,-0.755781,0.0058922,-0.542596,0.0909492,0.000264496,0.0149684,2.04386,5,0.1,5,1.9,-2.86783,-3.43016,0.635698,0.844762,-0.152654,0.00212369,0.393033,0.0142306,-0.000204891,0.00911188,2.30151,5,0.1,6,1.9,-3.256,1.21385,0.61773,0.21143,0.165087,-0.021487,-0.415891,-0.191338,0.024911,0.0081231,0.261419,5,0.1,7,1.9,2.74368,3.47842,0.728392,-0.620189,-0.0115253,0.0191073,-0.470698,0.136495,-0.0139885,0.00854217,2.64125,5,0.1,8,1.9,-2.4765,-0.237412,0.577624,0.866026,0.158712,0.0128437,0,-0.397957,-0.00158697,0.0310929,2.2674,5,0.1,9,1.9,2.75957,2.90797,0.588716,0.291497,-0.0129551,0.00982592,-0.19145,0.131905,-0.0257902,0.00775139,0.212613,5,0.1,10,1.9,-1.71248,3.62388,0.578167,0.706474,0.41544,0.0209387,-0.369444,-0.323668,-0.0157729,0.0168859,0.375797,5,0.1,11,1.9,1.2018,1.30641,0.612345,-0.00246428,0.0442542,-0.0125277,-0.201523,-0.0404567,0.0114553,0.0091847,1.0019,5,0.1,12,1.9,-0.386784,0.531934,0.730363,0.0969131,0.403892,0.0219271,-0.0638254,0.049578,-0.0144467,0.0162955,0.406912,5,0.1,13,1.9,-1.73989,-3.2871,0.578393,0.374622,0.308291,0.0176472,0.398822,-0.588283,-0.0235476,0.0226027,3.02708,5,0.1,14,1.9,3.17832,2.9082,0.632949,-0.218766,-0.0245877,-0.012253,-0.0211447,0.168234,0.0142977,0.0150861,1.62169,5,0.1,15,1.9,-1.47348,0.733325,0.588432,0.0554658,-0.865463,-0.0245094,-0.0119209,-0.0225008,0.00526011,0.00980327,2.27358,5,0.1,16,1.9,1.30694,-1.53803,0.724804,-0.071016,0.592708,0.03047,0.154898,-0.929706,0.0722744,0.024142,3.23515,5,0.1,17,1.9,-1.33904,2.37041,0.664968,0.347271,-0.289289,0.0090247,-0.293665,0.0179559,-0.00762194,0.00946416,0.624314,5,0.1,18,1.9,1.41667,-2.11463,0.500007,-0.0819987,0.865566,-8.00937e-06,0.0690743,-0.0184029,-3.72529e-05,0.0148343,2.29081,5,0.1,19,1.9,1.19726,3.15118,0.597964,-0.376526,-0.430876,-0.00952501,-0.0547692,-0.369996,0.029631,0.0103988,0.824904,5,0.1,20,1.9,0.877976,3.2306,0.571817,-0.280261,-0.20821,-0.0165933,-0.406414,0.51254,-0.0195913,0.0107461,0.267588,5,0.1,21,1.9,-1.73626,3.06692,0.623135,-0.206914,-0.422106,-0.0075981,0.291981,0.554249,0.0107735,0.0108985,0.107166,5,0.1,22,1.9,-2.56435,-0.991915,0.560093,0.327358,0.0190674,-0.0541613,-0.168055,-0.00980869,0.027813,0.0095523,0.0282601,5,0.1,23,1.9,-3.60258,0.447306,0.592222,0.427926,0.758251,0.00734851,-0.301197,-0.329474,-0.00516325,0.0112116,0.465572,5,0.1,24,1.9,-0.18762,3.26561,0.500036,-0.174343,0.694275,-4.41447e-05,-0.000544824,-0.390112,-0.000268221,0.0105727,0.314598,5,0.1,25,1.9,-3.81203,-2.78373,0.530709,0.109237,0.523823,-0.00199135,-0.099957,-0.473022,0.00181049,0.00864237,0.115286,5,0.1,26,1.9,-2.18256,2.8699,0.613091,0.783173,-0.415552,-0.031543,-0.283554,0.245571,0.0144243,0.0096838,0.541608,5,0.1,27,1.9,-0.360114,-2.07626,0.733966,0.242844,0.311349,0.0111191,-0.0259951,0.0247806,-0.127897,0.0109397,0.416992,5,0.1,28,1.9,4.11477,-2.50378,0.529618,0.191639,0.866026,0.0128971,-0.0294149,0,-0.0019744,0.00851252,2.15026,5,0.1,29,1.9,3.76556,0.300376,0.670406,0.213153,0.859702,0.00348277,0.131354,0.079843,-0.00914186,0.011268,2.26638,5,0.1,30,1.9,-3.5112,-1.92171,0.601358,0.395964,0.275901,-0.00138422,-0.209361,-0.252366,0.00127032,0.0412056,0.15765,5,0.1,31,1.9,-3.49429,-3.14319,0.730877,-0.0382088,0.58794,0.0213379,0.340253,0.531957,-0.0386015,0.0176224,2.64934,5,0.1,32,1.9,-0.38497,-0.54239,0.641217,0.620158,0.131546,0.00703344,-0.418942,-0.120301,-0.00643358,0.014616,0.203928,5,0.1,33,1.9,-1.26874,-2.58043,0.728146,-0.336527,-0.386336,0.0154505,0.0651702,-0.210717,-0.00244007,0.00872255,0.453041,5,0.1,34,1.9,3.65339,2.04427,0.56477,-0.390005,0.778443,0.0234758,0.0275522,-0.288472,0.0121407,0.0091201,0.556229,5,0.1,35,1.9,1.26066,-1.09955,0.64249,-0.46714,-0.143622,0.0305887,0.422589,0.132225,-0.0281185,0.0134872,0.097767,5,0.1,36,1.9,1.82512,-0.518591,0.59207,-0.323565,0.866026,0.00198744,-0.287503,-3.57628e-06,0.00757724,0.0189229,2.1999,5,0.1,37,1.9,-0.104657,-1.50121,0.53585,-0.852508,-0.657416,-0.000865199,0.00995368,0.389852,-0.0179633,0.014059,1.68046,5,0.1,38,1.9,1.9046,-2.11539,0.713889,-0.222601,0.866026,0.0113992,0.0133961,0,-0.000715256,0.0188622,2.24007,5,0.1,39,1.9,-0.742094,-2.99138,0.626919,0.179505,0.866026,-0.0109241,-0.0149123,0,0.000905246,0.025239,2.25128,5,0.1
0,2,-0.312196,-2.84169,0.59143,0.0123933,0.717747,0.00871569,-0.0126362,0.0200272,-0.00888109,0.00805547,0.471015,5,0.1,1,2,1.55758,2.91562,0.639343,0.233382,-0.313997,0.0330493,-0.378132,-0.00715256,0.0618398,0.0136117,2.48049,5,0.1,2,2,3.54824,0.7464,0.720087,-0.00200868,-0.806186,0.0188023,0.160694,-0.526428,-0.100523,0.00955659,2.32786,5,0.1,3,2,-1.52365,-2.17197,0.69145,-0.167447,0.626749,-0.00221729,0.0349283,0.125766,-0.00634789,0.014122,2.5206,5,0.1,4,2,0.727335,-1.26379,0.584501,-0.81442,-0.742036,0.00589043,-0.30905,0.212729,-0.000566244,0.012971,1.99121,5,0.1,5,2,-2.78203,-3.44533,0.635909,0.864917,-0.150418,0.00209212,0.0221729,0.0367165,-0.000506639,0.00919425,2.25791,5,0.1,6,2,-3.23702,1.22941,0.615705,0.167567,0.146151,-0.0190228,-0.451088,-0.189781,0.0247359,0.0077542,0.257644,5,0.1,7,2,2.67898,3.47808,0.730228,-0.675148,0.00578165,0.0175372,-0.553846,0.195861,-0.0175238,0.00889724,2.44777,5,0.1,8,2,-2.3899,-0.223524,0.578899,0.866026,0.119291,0.0126183,0,-0.38442,-0.00345707,0.0322436,0.123455,5,0.1,9,2,2.78742,2.90734,0.589561,0.262678,0.000232458,0.00701994,-0.370145,0.127316,-0.0292957,0.00785012,0.199886,5,0.1,10,2,-1.64379,3.66378,0.58018,0.665861,0.382054,0.0193059,-0.460029,-0.35274,-0.0173151,0.0180235,0.252825,5,0.1,11,2,1.2,1.31063,0.611149,-0.0387907,0.0401914,-0.011377,-0.50962,-0.0417829,0.0118017,0.00899569,1.15088,5,0.1,12,2,-0.377438,0.572618,0.732478,0.0897177,0.409558,0.0202984,-0.0811666,0.0364184,-0.018388,0.0137896,0.30862,5,0.1,13,2,-1.70013,-3.25937,0.580038,0.422174,0.24547,0.0152513,0.495195,-0.638366,-0.0243187,0.0170607,2.99801,5,0.1,14,2,3.15646,2.90656,0.631818,-0.21717,-0.00844598,-0.0101596,0.0574589,0.150919,0.0261068,0.00867714,0.581005,5,0.1,15,2,-1.468,0.646734,0.58601,0.0540227,-0.866026,-0.0238717,-0.0190735,0,0.00840425,0.0102081,2.26984,5,0.1,16,2,1.3,-1.48357,0.728225,-0.0732392,0.495303,0.0379398,-0.172019,-1.00458,0.0718236,0.0112589,0.721406,5,0.1,17,2,-1.30579,2.34123,0.665832,0.317395,-0.296831,0.00824928,-0.310957,-0.129223,-0.00807643,0.0107956,0.487853,5,0.1,18,2,1.40893,-2.02831,0.500006,-0.0719279,0.858662,-1.04308e-05,0.126421,-0.147164,-5.96046e-05,0.0154566,2.39887,5,0.1,19,2,1.15931,3.10641,0.597153,-0.38209,-0.462151,-0.00675023,-0.0321269,-0.229836,0.0256896,0.0111815,0.61561,5,0.1,20,2,0.848031,3.2125,0.570048,-0.316927,-0.152737,-0.0188321,-0.303805,0.577688,-0.0226498,0.00868069,0.223747,5,0.1,21,2,-1.75542,3.0276,0.622431,-0.175527,-0.363064,-0.00644028,0.330687,0.619888,0.012219,0.00980153,0.162828,5,0.1,22,2,-2.53255,-0.990062,0.554831,0.307685,0.0179186,-0.0509053,-0.231385,-0.0134408,0.0382662,0.00910681,0.0105723,5,0.1,23,2,-3.56133,0.521343,0.59293,0.396365,0.720602,0.00680536,-0.339389,-0.442773,-0.00578165,0.012408,0.314531,5,0.1,24,2,-0.205014,3.33299,0.50003,-0.17294,0.651926,-6.25849e-05,0.0351667,-0.473499,-0.000119209,0.00892789,0.213954,5,0.1,25,2,-3.8016,-2.73371,0.530519,0.0992,0.476247,-0.001809,-0.102997,-0.489354,0.00184774,0.0110248,0.13195,5,0.1,26,2,-2.10581,2.82964,0.610015,0.749719,-0.388819,-0.0298932,-0.407219,0.298142,0.0192821,0.0101943,0.369068,5,0.1,27,2,-0.335917,-2.04494,0.734341,0.241116,0.315022,-0.00431985,-0.0238568,0.0265837,-0.169784,0.011389,0.323699,5,0.1,28,2,4.13376,-2.41718,0.530895,0.187612,0.866026,0.0126272,-0.058651,0,-0.00393391,0.00818389,1.69607,5,0.1,29,2,3.7873,0.386714,0.67072,0.219262,0.865765,0.00290275,-0.00929832,0.0052011,-0.00309944,0.0114495,2.25229,5,0.1,30,2,-3.47266,-1.89538,0.601226,0.374395,0.250557,-0.00125766,-0.234962,-0.260234,0.0013113,0.0397232,0.210356,5,0.1,31,2,-3.49643,-3.08146,0.732839,-0.00517964,0.647306,0.0180766,0.311375,0.584364,-0.0278056,0.0209133,2.44147,5,0.1,32,2,-0.325106,-0.529836,0.641888,0.576173,0.119463,0.00638664,-0.474886,-0.124037,-0.00661612,0.0160531,0.136772,5,0.1,33,2,-1.30206,-2.61998,0.729676,-0.329304,-0.402838,0.0150993,0.0944138,-0.0997782,-0.005126,0.00887278,0.330898,5,0.1,34,2,3.61468,2.12051,0.567163,-0.382584,0.744355,0.0242174,0.131011,-0.413895,0.00202656,0.0116673,0.377775,5,0.1,35,2,1.21606,-1.11326,0.645409,-0.424719,-0.130337,0.0277638,0.43565,0.136256,-0.0289977,0.0105794,0.112265,5,0.1,36,2,1.79149,-0.431988,0.592303,-0.346947,0.866025,0.00264645,-0.163078,1.43051e-05,0.00539422,0.0214831,2.18443,5,0.1,37,2,-0.189719,-1.56493,0.535699,-0.846413,-0.615773,-0.00194162,0.148489,0.458598,-0.00461936,0.00996205,1.34538,5,0.1,38,2,1.88244,-2.02879,0.715024,-0.220054,0.866026,0.0112668,0.0470877,-5.96046e-05,-0.00241399,0.0233471,2.24133,5,0.1,39,2,-0.724244,-2.90478,0.625832,0.177048,0.866026,-0.0107735,-0.0416934,0,0.0025034,0.022777,2.2523,5,0.1
0,2.1,-0.311016,-2.7698,0.59226,0.0112317,0.719457,0.00789911,-0.0109375,-0.0161231,-0.00769645,0.00805547,0.471015,5,0.1,1,2.1,1.58078,2.88474,0.642822,0.245329,-0.298614,0.0353245,0.508837,0.292525,-0.0110343,0.0136117,2.48049,5,0.1,2,2.1,3.54922,0.663449,0.721465,0.0246305,-0.849181,0.00880221,0.343487,-0.309009,-0.0971518,0.00955659,2.32786,5,0.1,3,2.1,-1.5401,-2.1076,0.691251,-0.160387,0.668975,-0.00129929,0.104301,0.622347,0.0215583,0.014122,2.5206,5,0.1,4,2.1,0.644274,-1.33723,0.58509,-0.846374,-0.728513,0.00590589,-0.284623,0.099428,0.000484288,0.012971,1.99121,5,0.1,5,2.1,-2.69547,-3.46026,0.636117,0.865956,-0.148408,0.00206456,0.00277162,0.0123531,-0.000163913,0.00919425,2.25791,5,0.1,6,2.1,-3.22251,1.24312,0.61392,0.123028,0.128563,-0.0167311,-0.431985,-0.165127,0.0215061,0.0077542,0.257644,5,0.1,7,2.1,2.60811,3.47953,0.731844,-0.74617,0.0221837,0.0143657,-0.785336,0.135943,-0.0429265,0.00889724,2.44777,5,0.1,8,2.1,-2.30396,-0.213492,0.580149,0.846426,0.0817285,0.0124319,-0.385001,-0.361439,-0.00104308,0.0322436,0.123455,5,0.1,9,2.1,2.81164,2.90801,0.590107,0.219906,0.0132803,0.00384105,-0.471398,0.128821,-0.0330694,0.00785012,0.199886,5,0.1,10,2.1,-1.57937,3.70032,0.582029,0.623267,0.34944,0.017707,-0.412732,-0.310212,-0.0152178,0.0180235,0.252825,5,0.1,11,2.1,1.19275,1.31445,0.610067,-0.112711,0.0363559,-0.0102934,-0.899717,-0.036031,0.0101812,0.00899569,1.15088,5,0.1,12,2.1,-0.368864,0.613938,0.734417,0.081797,0.417919,0.0185045,-0.0788551,0.101846,-0.0178553,0.0137896,0.30862,5,0.1,13,2.1,-1.65495,-3.23813,0.581447,0.484468,0.179685,0.0129743,0.688531,-0.621483,-0.0214279,0.0170607,2.99801,5,0.1,14,2.1,3.13631,2.90636,0.631037,-0.17484,0.0035271,-0.00461172,0.71466,0.0909865,0.077866,0.00867714,0.581005,5,0.1,15,2.1,-1.46267,0.560131,0.583655,0.0526993,-0.866026,-0.0232887,-0.0103638,1.78814e-06,0.00456348,0.0102081,2.26984,5,0.1,16,2.1,1.29217,-1.43985,0.732495,-0.0801453,0.372759,0.0483218,0.0195131,-1.3852,0.124726,0.0112589,0.721406,5,0.1,17,2.1,-1.27551,2.31052,0.666619,0.288742,-0.319929,0.00750544,-0.270918,-0.293404,-0.00703707,0.0107956,0.487853,5,0.1,18,2.1,1.40276,-1.94319,0.500005,-0.048209,0.842829,-1.38767e-05,0.322312,-0.198521,-1.11759e-05,0.0154566,2.39887,5,0.1,19,2.1,1.12079,3.059,0.596601,-0.389272,-0.485792,-0.00435943,-0.0855327,-0.214592,0.0219755,0.0111815,0.61561,5,0.1,20,2.1,0.814778,3.20024,0.568029,-0.347902,-0.0917092,-0.0217124,-0.290968,0.623316,-0.0320338,0.00868069,0.223747,5,0.1,21,2.1,-1.77159,2.99434,0.621849,-0.150376,-0.302663,-0.00520619,0.186786,0.586748,0.0123046,0.00980153,0.162828,5,0.1,22,2.1,-2.50296,-0.988339,0.549936,0.283663,0.0165222,-0.0469323,-0.252962,-0.0147149,0.0418425,0.00910681,0.0105723,5,0.1,23,2.1,-3.5233,0.591317,0.593584,0.364931,0.679533,0.00626938,-0.300661,-0.401892,-0.00512972,0.012408,0.314531,5,0.1,24,2.1,-0.222159,3.39595,0.500024,-0.170033,0.608076,-6.79865e-05,0.0304868,-0.423536,7.45058e-06,0.00892789,0.213954,5,0.1,25,2.1,-3.79212,-2.68817,0.530346,0.0910494,0.437629,-0.00166316,-0.0656992,-0.310525,0.00116974,0.0110248,0.13195,5,0.1,26,2.1,-2.03274,2.79218,0.607117,0.712245,-0.360935,-0.0280878,-0.368014,0.27065,0.0177398,0.0101943,0.369068,5,0.1,27,2.1,-0.31199,-2.01315,0.732976,0.236648,0.321797,-0.0235411,-0.0702925,0.0855848,-0.204008,0.011389,0.323699,5,0.1,28,2.1,4.15227,-2.33058,0.532141,0.182759,0.865998,0.0123019,-0.0466406,-0.00111759,-0.00312552,0.00818389,1.69607,5,0.1,29,2.1,3.80911,0.473306,0.671005,0.216139,0.866009,0.00289688,-0.0572503,0.000651926,0.0022836,0.0114495,2.25229,5,0.1,30,2.1,-3.43613,-1.87155,0.601106,0.358365,0.226664,-0.00113696,-0.110447,-0.224546,0.00113249,0.0397232,0.210356,5,0.1,31,2.1,-3.49536,-3.0132,0.734538,0.0265859,0.721972,0.0161681,0.312746,0.826702,-0.0121742,0.0209133,2.44147,5,0.1,32,2.1,-0.269726,-0.518473,0.642496,0.532353,0.108074,0.00577932,-0.41868,-0.107039,-0.00571087,0.0160531,0.136772,5,0.1,33,2.1,-1.33462,-2.6608,0.731163,-0.322545,-0.413577,0.0146525,0.0575706,-0.0930727,-0.00442564,0.00887278,0.330898,5,0.1,34,2.1,3.57706,2.193,0.569592,-0.369686,0.706043,0.0243125,0.139356,-0.377253,-0.000968575,0.0116673,0.377775,5,0.1,35,2.1,1.17543,-1.12571,0.648061,-0.390478,-0.119514,0.0254611,0.27398,0.0876188,-0.0186339,0.0105794,0.112265,5,0.1,36,2.1,1.7559,-0.345386,0.592594,-0.364782,0.866025,0.00316305,-0.170328,-1.78814e-06,0.00470504,0.0214831,2.18443,5,0.1,37,2.1,-0.273805,-1.62368,0.535499,-0.836109,-0.554595,-0.00188872,0.0986427,0.73465,0.00476837,0.00996205,1.34538,5,0.1,38,2.1,1.86058,-1.94219,0.716143,-0.217744,0.866025,0.0111489,0.012219,1.49012e-05,-0.000610948,0.0233471,2.24133,5,0.1,39,2.1,-0.706676,-2.81817,0.624763,0.174758,0.866026,-0.0106372,-0.0144094,0,0.000849366,0.022777,2.2523,5,0.1
0,2.2,-0.309947,-2.69819,0.593011,0.0101477,0.709462,0.00713617,-0.0109971,-0.204206,-0.0077188,0.00977834,0.401727,5,0.1,1,2.2,1.60858,2.85668,0.646216,0.315922,-0.259596,0.0318125,0.819087,0.469208,-0.0548065,0.0108525,2.00816,5,0.1,2,2.2,3.55351,0.577473,0.72188,0.0616431,-0.86537,-0.000227988,0.375032,-0.013113,-0.0817478,0.00993392,2.27335,5,0.1,3,2.2,-1.55551,-2.03742,0.691253,-0.147009,0.734383,0.00153184,0.161111,0.614107,0.0325739,0.0130625,2.34019,5,0.1,4,2.2,0.558549,-1.40949,0.585683,-0.864013,-0.71502,0.00592023,-0.0402629,0.200033,-0.000476837,0.0166805,2.11627,5,0.1,5,2.2,-2.60887,-3.47501,0.636322,0.866026,-0.146431,0.00203848,0,0.0334978,-0.000476837,0.00926781,2.25833,5,0.1,6,2.2,-3.21228,1.25517,0.612352,0.082463,0.11259,-0.0146508,-0.37396,-0.156522,0.020355,0.00784856,0.255565,5,0.1,7,2.2,2.52973,3.48235,0.733044,-0.818259,0.0335813,0.00948608,-0.597954,0.094533,-0.0523627,0.00864477,2.33954,5,0.1,8,2.2,-2.22182,-0.207051,0.581386,0.79065,0.0479307,0.0122756,-0.721097,-0.310652,-0.0026226,0.0309734,0.0863266,5,0.1,9,2.2,2.8312,2.90995,0.590328,0.17091,0.025171,0.000619888,-0.497699,0.105381,-0.030458,0.00808313,0.316747,5,0.1,10,2.2,-1.51917,3.73372,0.583724,0.579798,0.318205,0.0161693,-0.470877,-0.321984,-0.0159144,0.0135251,0.169512,5,0.1,11,2.2,1.1768,1.31791,0.609088,-0.206584,0.0327945,-0.0092864,-0.925362,-0.0359416,0.0101626,0.00737411,1.21664,5,0.1,12,2.2,-0.361085,0.656152,0.736177,0.0736825,0.424971,0.0166684,-0.0844598,0.0185668,-0.0191331,0.0137583,0.253879,5,0.1,13,2.2,-1.60317,-3.2229,0.582641,0.549123,0.129324,0.01093,0.559211,-0.36037,-0.0195801,0.0196991,2.86845,5,0.1,14,2.2,3.12298,2.90709,0.631003,-0.0875473,0.0102103,0.00417233,0.97239,0.0448227,0.092417,0.00688317,0.368389,5,0.1,15,2.2,-1.45746,0.473529,0.581351,0.0514448,-0.866025,-0.0227347,-0.0168681,-1.43051e-05,0.00745058,0.0106387,2.27001,5,0.1,16,2.2,1.28447,-1.40971,0.737963,-0.0719637,0.229111,0.0609472,0.132322,-1.44053,0.119537,0.0259084,3.48598,5,0.1,17,2.2,-1.24799,2.27706,0.667335,0.261721,-0.348687,0.00680387,-0.275731,-0.252724,-0.00715256,0.0102422,0.372859,5,0.1,18,2.2,1.3997,-1.86018,0.500003,-0.0120312,0.814146,-1.3411e-05,0.381291,-0.394285,0,0.0162713,2.5429,5,0.1,19,2.2,1.08152,3.00956,0.596268,-0.394753,-0.50028,-0.00237823,-0.00572205,-0.0556707,0.0175834,0.0116058,0.441356,5,0.1,20,2.2,0.77872,3.19412,0.565702,-0.370938,-0.0314891,-0.0247344,-0.152618,0.566602,-0.0262856,0.0109524,0.202021,5,0.1,21,2.2,-1.78584,2.96695,0.621389,-0.13561,-0.245982,-0.00400692,0.119746,0.545621,0.0115633,0.0129543,0.117725,5,0.1,22,2.2,-2.47592,-0.986764,0.545462,0.256503,0.0149414,-0.04244,-0.29254,-0.0170171,0.048399,0.0102229,0.00524276,5,0.1,23,2.2,-3.48832,0.657173,0.594185,0.334316,0.636306,0.00574589,-0.3196,-0.478566,-0.00545382,0.0105812,0.211143,5,0.1,24,2.2,-0.238968,3.45459,0.500017,-0.165573,0.563842,-6.25849e-05,0.0638589,-0.475049,8.9407e-05,0.0116038,0.144844,5,0.1,25,2.2,-3.78332,-2.64584,0.530185,0.0850677,0.409365,-0.00155568,-0.0581741,-0.275135,0.00101328,0.00905742,0.0763062,5,0.1,26,2.2,-1.96347,2.75746,0.604401,0.67178,-0.332826,-0.0261918,-0.458896,0.299215,0.020802,0.00771636,0.72861,5,0.1,27,2.2,-0.288785,-1.9806,0.729618,0.226309,0.328147,-0.0432685,-0.139192,0.0246167,-0.182718,0.0115221,0.262013,5,0.1,28,2.2,4.17027,-2.24399,0.533353,0.176871,0.865579,0.0119075,-0.0767708,-0.0089407,-0.0051558,0.00951984,1.30118,5,0.1,29,2.2,3.83033,0.559908,0.671311,0.207186,0.866026,0.00323653,-0.124216,0,0.00396371,0.00801136,0.694152,5,0.1,30,2.2,-3.4008,-1.84999,0.600998,0.348002,0.204468,-0.0010252,-0.115037,-0.224173,0.00113249,0.0379993,0.155724,5,0.1,31,2.2,-3.49121,-2.93702,0.736107,0.0554323,0.798446,0.0153229,0.256419,0.643134,-0.00607967,0.0182023,2.30652,5,0.1,32,2.2,-0.218606,-0.508195,0.643045,0.489533,0.0974923,0.00521392,-0.449583,-0.106871,-0.00569224,0.0128185,0.158067,5,0.1,33,2.2,-1.36654,-2.70247,0.732603,-0.314924,-0.417763,0.0141084,0.106752,0.0245571,-0.00682473,0.0101469,0.233472,5,0.1,34,2.2,3.54088,2.26161,0.572008,-0.352651,0.664705,0.0238836,0.209451,-0.466347,-0.00813603,0.00957393,0.253686,5,0.1,35,2.2,1.13765,-1.13725,0.650521,-0.365606,-0.111526,0.0237629,0.241816,0.0776052,-0.0165105,0.0126942,0.065033,5,0.1,36,2.2,1.71872,-0.258783,0.592932,-0.377065,0.866025,0.00354797,-0.0590086,0,0.00283122,0.018556,2.17751,5,0.1,37,2.2,-0.35673,-1.67521,0.535343,-0.81973,-0.474173,-0.00115335,0.257448,0.850856,0.00923872,0.00991803,0.849532,5,0.1,38,2.2,1.83889,-1.85559,0.717254,-0.215366,0.866026,0.0110269,0.0445843,-5.96046e-05,-0.00223517,0.0212126,2.24249,5,0.1,39,2.2,-0.689296,-2.73157,0.623705,0.172402,0.866026,-0.0104949,-0.0400245,0,0.00238419,0.0241567,2.25625,5,0.1
0,2.3,-0.308984,-2.62823,0.594002,0.00914438,0.689666,0.0153217,-0.00935793,-0.216499,0.151474,0.00977834,0.401727,5,0.1,1,2.3,1.64498,2.83326,0.649068,0.416843,-0.207387,0.0247769,1.11733,0.559077,-0.0820234,0.0108525,2.00816,5,0.1,2,2.3,3.5617,0.490896,0.721458,0.103247,-0.865985,-0.00807736,0.433236,-0.00163555,-0.0733212,0.00993392,2.27335,5,0.1,3,2.3,-1.5694,-1.96076,0.6916,-0.130619,0.798878,0.00561383,0.167087,0.616752,0.0461191,0.0130625,2.34019,5,0.1,4,2.3,0.472516,-1.47987,0.5862,-0.85096,-0.690867,0.00382997,0.301141,0.297554,-0.0370219,0.0166805,2.11627,5,0.1,5,2.3,-2.52227,-3.48955,0.636525,0.866026,-0.144743,0.00201426,0,0.0090301,-0.00012666,0.00926781,2.25833,5,0.1,6,2.3,-3.20577,1.2657,0.610982,0.0493024,0.0982879,-0.0127912,-0.288114,-0.13224,0.0171959,0.00784856,0.255565,5,0.1,7,2.3,2.44561,3.48603,0.733714,-0.857656,0.0389274,0.00380175,-0.208765,0.0304729,-0.0590421,0.00864477,2.33954,5,0.1,8,2.3,-2.1464,-0.203753,0.582604,0.717114,0.0187284,0.0120956,-0.756592,-0.269549,-0.00158697,0.0309734,0.0863266,5,0.1,9,2.3,2.84639,2.91278,0.590263,0.138064,0.0292581,-0.0016707,-0.188425,-0.0136942,-0.0160895,0.00808313,0.316747,5,0.1,10,2.3,-1.46341,3.76402,0.585266,0.536343,0.288669,0.0147094,-0.415608,-0.277743,-0.0137426,0.0135251,0.169512,5,0.1,11,2.3,1.15111,1.32102,0.608207,-0.309726,0.029519,-0.00836002,-1.07537,-0.0305101,0.0086315,0.00737411,1.21664,5,0.1,12,2.3,-0.353966,0.698828,0.737752,0.0701502,0.428794,0.0148618,0.00250526,0.0349917,-0.0173189,0.0137583,0.253879,5,0.1,13,2.3,-1.54523,-3.21139,0.583643,0.61055,0.106663,0.00917846,0.615887,-0.0231713,-0.0157394,0.0196991,2.86845,5,0.1,14,2.3,3.1194,2.90827,0.631929,0.0178285,0.0128377,0.0146681,1.08901,0.00999868,0.111502,0.00688317,0.368389,5,0.1,15,2.3,-1.45238,0.386926,0.579106,0.0503276,-0.866025,-0.0222411,-0.00837445,1.78814e-06,0.00370294,0.0106387,2.27001,5,0.1,16,2.3,1.27731,-1.39303,0.744595,-0.0765922,0.113722,0.0710514,-0.186421,-0.894204,0.0802316,0.0259084,3.48598,5,0.1,17,2.3,-1.22311,2.24079,0.667981,0.236506,-0.377362,0.0061499,-0.235975,-0.290319,-0.00612438,0.0102422,0.372859,5,0.1,18,2.3,1.40062,-1.78061,0.500002,0.0319345,0.777858,-1.18278e-05,0.473283,-0.360116,2.6077e-05,0.0162713,2.5429,5,0.1,19,2.3,1.04194,2.95924,0.596112,-0.397014,-0.50574,-0.000784919,-0.018917,-0.0308752,0.0141859,0.0116058,0.441356,5,0.1,20,2.3,0.740889,3.1939,0.563084,-0.384958,0.0273127,-0.0276721,-0.109777,0.587568,-0.0298657,0.0109524,0.202021,5,0.1,21,2.3,-1.79894,2.9445,0.621033,-0.127503,-0.207945,-0.00321688,0.0529215,0.244871,0.00485405,0.0129543,0.117725,5,0.1,22,2.3,-2.45172,-0.985354,0.541458,0.22761,0.0132598,-0.0376598,-0.288233,-0.0167787,0.0476874,0.0102229,0.00524276,5,0.1,23,2.3,-3.45639,0.718546,0.594734,0.30493,0.592011,0.0052439,-0.277683,-0.426702,-0.00474602,0.0105812,0.211143,5,0.1,24,2.3,-0.255229,3.50874,0.500011,-0.159723,0.520039,-5.15953e-05,0.059274,-0.417754,0.00012666,0.0116038,0.144844,5,0.1,25,2.3,-3.77507,-2.60612,0.530034,0.0801556,0.386163,-0.00146972,-0.0438094,-0.207052,0.000771135,0.00905742,0.0763062,5,0.1,26,2.3,-1.90007,2.72536,0.601861,0.583221,-0.311913,-0.0248047,-1.23054,0.143707,0.00893325,0.00771636,0.72861,5,0.1,27,2.3,-0.267085,-1.94759,0.724365,0.205595,0.332299,-0.0616978,-0.265067,0.0400096,-0.177804,0.0115221,0.262013,5,0.1,28,2.3,4.18761,-2.15744,0.534521,0.169972,0.865503,0.0114444,-0.0679195,-0.00524521,-0.00455603,0.00951984,1.30118,5,0.1,29,2.3,3.85105,0.644832,0.671479,0.212299,0.817491,-0.00135833,0.182465,-0.899024,-0.0849552,0.00801136,0.694152,5,0.1,30,2.3,-3.36652,-1.8306,0.600901,0.337783,0.184035,-0.000922009,-0.103205,-0.190303,0.000961125,0.0379993,0.155724,5,0.1,31,2.3,-3.48457,-2.85443,0.737597,0.075664,0.848447,0.0143689,0.149652,0.340357,-0.0126846,0.0182023,2.30652,5,0.1,32,2.3,-0.171521,-0.498901,0.643542,0.455195,0.089042,0.0047639,-0.267209,-0.0678282,-0.00361353,0.0128185,0.158067,5,0.1,33,2.3,-1.39756,-2.74415,0.733982,-0.305902,-0.415654,0.013484,0.0872239,0.0352412,-0.00616536,0.0101469,0.233472,5,0.1,34,2.3,3.50662,2.32589,0.574355,-0.332687,0.621504,0.0230515,0.200167,-0.418335,-0.00920892,0.00957393,0.253686,5,0.1,35,2.3,1.10216,-1.14806,0.652824,-0.345297,-0.104954,0.0223649,0.180759,0.0587329,-0.0124909,0.0126942,0.065033,5,0.1,36,2.3,1.68062,-0.172181,0.5933,-0.38515,0.866025,0.00382569,-0.0800192,1.19209e-06,0.00248849,0.018556,2.17751,5,0.1,37,2.3,-0.436258,-1.71739,0.534957,-0.760463,-0.361422,-0.00922512,0.879467,1.33479,-0.150688,0.00991803,0.849532,5,0.1,38,2.3,1.81749,-1.76898,0.71835,-0.21327,0.866025,0.0109239,0.0102445,1.49012e-05,-0.000488013,0.0212126,2.24249,5,0.1,39,2.3,-0.672143,-2.64497,0.622673,0.171481,0.865974,-0.0100831,0.00876188,-0.00205636,0.0058338,0.0241567,2.25625,5,0.1
0,2.4,-0.308115,-2.56053,0.596419,0.00822693,0.662035,0.0338838,-0.00919402,-0.35274,0.204265,0.0114044,0.217931,5,0.1,1,2.4,1.69218,2.81536,0.651117,0.525138,-0.150627,0.0160977,0.988066,0.56386,-0.0884831,0.0103646,1.58244,5,0.1,2,2.4,3.57413,0.404294,0.720311,0.144166,-0.866025,-0.0145689,0.367999,-1.43051e-05,-0.0551939,0.00878802,2.24858,5,0.1,3,2.4,-1.58162,-1.87816,0.692394,-0.11355,0.84829,0.0102416,0.174224,0.336111,0.0441372,0.0128253,2.28127,5,0.1,4,2.4,0.389483,-1.54721,0.586367,-0.804208,-0.653198,-0.000715256,0.629827,0.464261,-0.0505745,0.0117697,2.54095,5,0.1,5,2.4,-2.43567,-3.50396,0.636725,0.866026,-0.143117,0.00199229,0,0.0298023,-0.000447035,0.00923253,2.25882,5,0.1,6,2.4,-3.20213,1.27489,0.609786,0.0249267,0.0856757,-0.0111505,-0.199795,-0.121891,0.015825,0.00769185,0.422285,5,0.1,7,2.4,2.35925,3.49008,0.733804,-0.866026,0.0423491,-0.00192523,0,0.04673,-0.0537336,0.00848102,2.30473,5,0.1,8,2.4,-2.07858,-0.203134,0.583803,0.638282,-0.00534281,0.0118509,-0.823617,-0.209369,-0.00366569,0.0316922,0.220792,5,0.1,9,2.4,2.85957,2.9155,0.590035,0.128013,0.0242352,-0.00273436,-0.0355244,-0.0787973,-0.00584126,0.00874059,0.239223,5,0.1,10,2.4,-1.41188,3.79151,0.586668,0.493741,0.261128,0.0133425,-0.448406,-0.279069,-0.0139475,0.0150195,0.11369,5,0.1,11,2.4,1.11493,1.32382,0.607414,-0.410917,0.026533,-0.00751615,-0.90301,-0.0298023,0.00846386,0.00805768,0.227285,5,0.1,12,2.4,-0.346871,0.741756,0.739152,0.0721879,0.428088,0.0131488,0.0295639,-0.0649691,-0.0171363,0.0147302,0.182988,5,0.1,13,2.4,-1.48136,-3.2,0.584487,0.663167,0.129056,0.00773072,0.398576,0.445247,-0.013411,0.0163696,2.63173,5,0.1,14,2.4,3.1265,2.90956,0.633944,0.122249,0.0126183,0.0254318,0.965357,-0.0122786,0.0993609,0.0111506,0.257918,5,0.1,15,2.4,-1.44739,0.300324,0.576902,0.0492752,-0.866025,-0.0217751,-0.014782,-1.43051e-05,0.00652671,0.00904837,2.27014,5,0.1,16,2.4,1.26845,-1.38541,0.752022,-0.102413,0.0452608,0.0766367,-0.300169,-0.498176,0.03016,0.024963,3.56952,5,0.1,17,2.4,-1.20062,2.20174,0.668566,0.213262,-0.401556,0.00554621,-0.234067,-0.172019,-0.00604987,0.00792232,0.27338,5,0.1,18,2.4,1.40616,-1.70476,0.500001,0.0783026,0.737301,-7.45058e-06,0.43565,-0.470519,0,0.0130608,2.57203,5,0.1,19,2.4,1.00226,2.90871,0.596098,-0.395046,-0.502652,0.000442564,0.0724792,0.107765,0.0103712,0.013721,0.3063,5,0.1,20,2.4,0.702035,3.19945,0.560179,-0.389893,0.0822484,-0.0302628,0.0230372,0.495434,-0.0200868,0.0134331,1.26524,5,0.1,21,2.4,-1.81146,2.92463,0.620729,-0.123185,-0.191712,-0.00292659,0.0413656,0.102878,0.00143051,0.0128017,0.107822,5,0.1,22,2.4,-2.43041,-0.984113,0.537932,0.198418,0.0115603,-0.0328302,-0.29707,-0.0173151,0.0491738,0.0104288,0.0016236,5,0.1,23,2.4,-3.42728,0.775571,0.595234,0.277162,0.547701,0.00476837,-0.284195,-0.472814,-0.00488758,0.0112706,0.141526,5,0.1,24,2.4,-0.270871,3.55863,0.500007,-0.15269,0.477463,-3.8743e-05,0.0855774,-0.445247,0.000149012,0.0138931,0.0981169,5,0.1,25,2.4,-3.76728,-2.56855,0.529891,0.0756562,0.364846,-0.00139028,-0.0487566,-0.2321,0.00089407,0.00802867,0.0593986,5,0.1,26,2.4,-1.84862,2.69479,0.599419,0.440392,-0.299793,-0.0240579,-1.56063,0.116944,0.00748038,0.00687882,0.289662,5,0.1,27,2.4,-0.247989,-1.91426,0.717369,0.175149,0.333026,-0.0774562,-0.335358,-0.038147,-0.131667,0.0111871,0.21209,5,0.1,28,2.4,4.20423,-2.07101,0.53564,0.16216,0.861692,0.0109181,-0.0932217,-0.0865459,-0.00622869,0.010437,0.9695,5,0.1,29,2.4,3.8734,0.721094,0.670845,0.235921,0.69934,-0.0118166,0.2563,-1.40458,-0.115693,0.0107743,2.75154,5,0.1,30,2.4,-3.33333,-1.81313,0.600813,0.32503,0.165415,-0.000827014,-0.161171,-0.186265,0.000923872,0.0415859,0.270575,5,0.1,31,2.4,-3.47642,-2.76845,0.738962,0.0856936,0.865567,0.0128478,0.0528097,0.00917912,-0.0174344,0.0199431,2.26993,5,0.1,32,2.4,-0.127238,-0.490309,0.644002,0.430875,0.0829369,0.00443906,-0.241309,-0.0585169,-0.00315905,0.012797,0.0921378,5,0.1,33,2.4,-1.42766,-2.7854,0.735297,-0.295189,-0.407761,0.0127897,0.136316,0.134349,-0.00807643,0.00947047,0.242438,5,0.1,34,2.4,3.47441,2.38589,0.576608,-0.310892,0.577551,0.0219241,0.242472,-0.474811,-0.0137389,0.00738577,0.243675,5,0.1,35,2.4,1.06854,-1.15826,0.654997,-0.326651,-0.0989407,0.0210866,0.203848,0.0649095,-0.0138581,0.0107967,0.0507031,5,0.1,36,2.4,1.64183,-0.0855782,0.593693,-0.389218,0.866026,0.00400841,0.0144839,-5.96046e-06,0.000983477,0.0195979,1.74681,5,0.1,37,2.4,-0.507213,-1.74653,0.533153,-0.652747,-0.219557,-0.027743,1.23423,1.44857,-0.204176,0.0107208,0.278313,5,0.1,38,2.4,1.79624,-1.68238,0.719438,-0.211108,0.866026,0.0108153,0.0422001,-5.96046e-05,-0.00208616,0.019503,2.24357,5,0.1,39,2.4,-0.654957,-2.5584,0.6217,0.17194,0.865209,-0.00933558,-0.00891089,-0.0164509,0.00905991,0.0077304,0.919499,5,0.1
