id,t,px,py,pz,vx,vy,vz,ax,ay,az,planning_time,qp_cost,planning_report,size,id,t,px,py,pz,vx,vy,vz,ax,ay,az,planning_time,qp_cost,planning_report,size,id,t,px,py,pz,vx,vy,vz,ax,ay,az,planning_time,qp_cost,planning_report,size,id,t,px,py,pz,vx,vy,vz,ax,ay,az,planning_time,qp_cost,planning_report,size,id,t,px,py,pz,vx,vy,vz,ax,ay,az,planning_time,qp_cost,planning_report,size,id,t,px,py,pz,vx,vy,vz,ax,ay,az,planning_time,qp_cost,planning_report,size,id,t,px,py,pz,vx,vy,vz,ax,ay,az,planning_time,qp_cost,planning_report,size,id,t,px,py,pz,vx,vy,vz,ax,ay,az,planning_time,qp_cost,planning_report,size,id,t,px,py,pz,vx,vy,vz,ax,ay,az,planning_time,qp_cost,planning_report,size,id,t,px,py,pz,vx,vy,vz,ax,ay,az,planning_time,qp_cost,planning_report,size,id,t,px,py,pz,vx,vy,vz,ax,ay,az,planning_time,qp_cost,planning_report,size,id,t,px,py,pz,vx,vy,vz,ax,ay,az,planning_time,qp_cost,planning_report,size,id,t,px,py,pz,vx,vy,vz,ax,ay,az,planning_time,qp_cost,planning_report,size,id,t,px,py,pz,vx,vy,vz,ax,ay,az,planning_time,qp_cost,planning_report,size,id,t,px,py,pz,vx,vy,vz,ax,ay,az,planning_time,qp_cost,planning_report,size,id,t,px,py,pz,vx,vy,vz,ax,ay,az,planning_time,qp_cost,planning_report,size,id,t,px,py,pz,vx,vy,vz,ax,ay,az,planning_time,qp_cost,planning_report,size,id,t,px,py,pz,vx,vy,vz,ax,ay,az,planning_time,qp_cost,planning_report,size,id,t,px,py,pz,vx,vy,vz,ax,ay,az,planning_time,qp_cost,planning_report,size,id,t,px,py,pz,vx,vy,vz,ax,ay,az,planning_time,qp_cost,planning_report,size,id,t,px,py,pz,vx,vy,vz,ax,ay,az,planning_time,qp_cost,planning_report,size,id,t,px,py,pz,vx,vy,vz,ax,ay,az,planning_time,qp_cost,planning_report,size,id,t,px,py,pz,vx,vy,vz,ax,ay,az,planning_time,qp_cost,planning_report,size,id,t,px,py,pz,vx,vy,vz,ax,ay,az,planning_time,qp_cost,planning_report,size,id,t,px,py,pz,vx,vy,vz,ax,ay,az,planning_time,qp_cost,planning_report,size,id,t,px,py,pz,vx,vy,vz,ax,ay,az,planning_time,qp_cost,planning_report,size,id,t,px,py,pz,vx,vy,vz,ax,ay,az,planning_time,qp_cost,planning_report,size,id,t,px,py,pz,vx,vy,vz,ax,ay,az,planning_time,qp_cost,planning_report,size,id,t,px,py,pz,vx,vy,vz,ax,ay,az,planning_time,qp_cost,planning_report,size,id,t,px,py,pz,vx,vy,vz,ax,ay,az,planning_time,qp_cost,planning_report,size,id,t,px,py,pz,vx,vy,vz,ax,ay,az,planning_time,qp_cost,planning_report,size,id,t,px,py,pz,vx,vy,vz,ax,ay,az,planning_time,qp_cost,planning_report,size,id,t,px,py,pz,vx,vy,vz,ax,ay,az,planning_time,qp_cost,planning_report,size,id,t,px,py,pz,vx,vy,vz,ax,ay,az,planning_time,qp_cost,planning_report,size,id,t,px,py,pz,vx,vy,vz,ax,ay,az,planning_time,qp_cost,planning_report,size,id,t,px,py,pz,vx,vy,vz,ax,ay,az,planning_time,qp_cost,planning_report,size,id,t,px,py,pz,vx,vy,vz,ax,ay,az,planning_time,qp_cost,planning_report,size,id,t,px,py,pz,vx,vy,vz,ax,ay,az,planning_time,qp_cost,planning_report,size,id,t,px,py,pz,vx,vy,vz,ax,ay,az,planning_time,qp_cost,planning_report,size,id,t,px,py,pz,vx,vy,vz,ax,ay,az,planning_time,qp_cost,planning_report,size
0,0,3.65272,-3.78272,0.550826,0,0,0,0,0,0,0.0100701,3.51391,5,0.1,1,0,-2.86254,-3.70604,0.585806,0,0,0,0,0,0,0.0334845,3.51219,5,0.1,2,0,1.12634,-0.879353,0.599771,0,0,0,0,0,0,0.0190615,2.08105,5,0.1,3,0,1.00401,3.09146,0.646469,0,0,0,0,0,0,0.0124095,3.51219,5,0.1,4,0,4.04396,-0.394659,0.682449,0,0,0,0,0,0,0.0158532,3.5122,5,0.1,5,0,3.4953,3.79573,0.644593,0,0,0,0,0,0,0.0127471,0.381506,5,0.1,6,0,-0.43757,-3.47582,0.515586,0,0,0,0,0,0,0.0130142,3.51219,5,0.1,7,0,-0.278612,-0.778541,0.522165,0,0,0,0,0,0,0.0210297,0.537182,5,0.1,8,0,-0.0703259,2.34936,0.614,0,0,0,0,0,0,0.0157722,0.829135,5,0.1,9,0,-0.790185,-2.65902,0.58104,0,0,0,0,0,0,0.0169562,3.5122,5,0.1,10,0,-4.02544,-0.192226,0.562357,0,0,0,0,0,0,0.0461923,2.76258,5,0.1,11,0,2.01631,-4.19585,0.669224,0,0,0,0,0,0,0.0230146,3.5122,5,0.1,12,0,-1.42455,-1.05681,0.685829,0,0,0,0,0,0,0.0187685,3.51219,5,0.1,13,0,-2.94138,4.03395,0.636079,0,0,0,0,0,0,0.0216634,3.5122,5,0.1,14,0,-2.041,3.69496,0.684391,0,0,0,0,0,0,0.0117375,1.88807,5,0.1,15,0,-2.20802,-1.38464,0.688986,0,0,0,0,0,0,0.00935991,1.63689,5,0.1,16,0,-2.21217,2.9973,0.634928,0,0,0,0,0,0,0.0229383,2.48591,5,0.1,17,0,-3.9769,-2.63131,0.583925,0,0,0,0,0,0,0.0216179,1.44614,5,0.1,18,0,1.66834,-2.28235,0.669999,0,0,0,0,0,0,0.0106084,0.401186,5,0.1,19,0,3.86451,2.22898,0.648884,0,0,0,0,0,0,0.0338402,1.18031,5,0.1,20,0,-4.37297,-4.37708,0.541451,0,0,0,0,0,0,0.0167329,3.51219,5,0.1,21,0,-3.56336,-3.30134,0.662871,0,0,0,0,0,0,0.02015,3.21795,5,0.1,22,0,-2.60381,-0.54331,0.507017,0,0,0,0,0,0,0.0135082,0.937494,5,0.1,23,0,0.399554,-3.95017,0.663106,0,0,0,0,0,0,0.0162592,3.51219,5,0.1,24,0,-4.2328,-2.02096,0.626591,0,0,0,0,0,0,0.0274813,1.4559,5,0.1,25,0,-1.11005,-1.68146,0.622314,0,0,0,0,0,0,0.0127813,3.5122,5,0.1,26,0,-0.812501,0.232882,0.500687,0,0,0,0,0,0,0.0111066,0.831488,5,0.1,27,0,-1.51597,3.09624,0.566447,0,0,0,0,0,0,0.0102484,3.5122,5,0.1,28,0,-1.39092,0.992697,0.57866,0,0,0,0,0,0,0.0105183,3.51219,5,0.1,29,0,-4.32473,-3.54577,0.630875,0,0,0,0,0,0,0.00987987,3.5122,5,0.1,30,0,-3.43928,-1.37465,0.587453,0,0,0,0,0,0,0.0138533,3.51219,5,0.1,31,0,-4.011,3.94181,0.689291,0,0,0,0,0,0,0.0169113,3.51219,5,0.1,32,0,3.95825,-3.26082,0.69231,0,0,0,0,0,0,0.0137019,3.5122,5,0.1,33,0,2.67284,3.29309,0.699806,0,0,0,0,0,0,0.0187251,0.500305,5,0.1,34,0,3.66073,-2.1315,0.631994,0,0,0,0,0,0,0.00864465,1.34394,5,0.1,35,0,1.76735,3.85842,0.604579,0,0,0,0,0,0,0.0176393,3.5122,5,0.1,36,0,0.28554,4.1884,0.622025,0,0,0,0,0,0,0.0106583,3.5122,5,0.1,37,0,-2.12199,-4.25884,0.671925,0,0,0,0,0,0,0.0106972,3.5122,5,0.1,38,0,3.63915,2.82185,0.677624,0,0,0,0,0,0,0.0172029,3.50665,5,0.1,39,0,-1.43044,-3.31185,0.512541,0,0,0,0,0,0,0.00904005,3.5122,5,0.1
0,0.1,3.65284,-3.78075,0.550819,0.00332929,0.0560246,-0.000206195,0.0591725,0.995994,-0.00366569,0.0100701,3.51391,5,0.1,1,0.1,-2.86071,-3.70502,0.58582,0.0518207,0.0287618,0.000405777,0.921234,0.511304,0.00721589,0.0334845,3.51219,5,0.1,2,0.1,1.12485,-0.878748,0.599772,-0.0422684,0.0171687,6.89179e-06,-0.751443,0.30522,0.000119209,0.0190615,2.08105,5,0.1,3,0.1,1.00253,3.09,0.646422,-0.0420795,-0.0417158,-0.00134502,-0.748079,-0.741631,-0.0239089,0.0124095,3.51219,5,0.1,4,0.1,4.04351,-0.39262,0.682489,-0.0126861,0.0578833,0.00115177,-0.225514,1.02904,0.0204779,0.0158532,3.5122,5,0.1,5,0.1,3.49466,3.79509,0.644511,-0.0181872,-0.0182103,-0.0023487,-0.323042,-0.32346,-0.0417195,0.0127471,0.381506,5,0.1,6,0.1,-0.438793,-3.47413,0.51552,-0.0347234,0.0479948,-0.00187811,-0.617305,0.853255,-0.0333935,0.0130142,3.51219,5,0.1,7,0.1,-0.278634,-0.777728,0.52209,-0.000633858,0.0230715,-0.0021385,-0.011269,0.410162,-0.0380203,0.0210297,0.537182,5,0.1,8,0.1,-0.0693129,2.34942,0.613985,0.0287548,0.0014998,-0.000414811,0.511196,0.0266731,-0.00737607,0.0157722,0.829135,5,0.1,9,0.1,-0.790639,-2.65698,0.58105,-0.0128891,0.0578485,0.000284333,-0.229143,1.02842,0.00505522,0.0169562,3.5122,5,0.1,10,0.1,-4.02452,-0.190616,0.562396,0.0259429,0.0457026,0.00111554,0.461221,0.81249,0.0198334,0.0461923,2.76258,5,0.1,11,0.1,2.01605,-4.19378,0.669197,-0.0072632,0.0588171,-0.000754558,-0.129119,1.04561,-0.013411,0.0230146,3.5122,5,0.1,12,0.1,-1.42254,-1.05623,0.685878,0.0569325,0.016417,0.00139205,1.01213,0.291854,0.0247471,0.0187685,3.51219,5,0.1,13,0.1,-2.94008,4.03231,0.636054,0.0368338,-0.0464253,-0.000702497,0.654832,-0.825375,-0.0124909,0.0216634,3.5122,5,0.1,14,0.1,-2.04074,3.69346,0.68446,0.00714175,-0.0428211,0.00194423,0.126973,-0.761256,0.0345632,0.0117375,1.88807,5,0.1,15,0.1,-2.20719,-1.38348,0.688912,0.0234429,0.0329116,-0.00209641,0.416771,0.585102,-0.0372678,0.00935991,1.63689,5,0.1,16,0.1,-2.2108,2.9984,0.634891,0.0388846,0.031196,-0.00103517,0.691295,0.554577,-0.0183992,0.0229383,2.48591,5,0.1,17,0.1,-3.97604,-2.63028,0.583942,0.0245053,0.0290807,0.000476465,0.435635,0.516966,0.00847131,0.0216179,1.44614,5,0.1,18,0.1,1.66785,-2.28185,0.669926,-0.0138789,0.0142943,-0.00207452,-0.246733,0.25411,-0.0368766,0.0106084,0.401186,5,0.1,19,0.1,3.86361,2.22978,0.648833,-0.0256196,0.0228483,-0.00144849,-0.455439,0.406191,-0.0257529,0.0338402,1.18031,5,0.1,20,0.1,-4.37255,-4.37503,0.541471,0.0117868,0.058081,0.000564381,0.20951,1.03256,0.0100285,0.0167329,3.51219,5,0.1,21,0.1,-3.56136,-3.30134,0.662806,0.0567,3.98606e-05,-0.0018632,1.00802,0.000730157,-0.0331253,0.02015,3.21795,5,0.1,22,0.1,-2.60282,-0.5429,0.506957,0.0282653,0.0116554,-0.00168961,0.502497,0.207204,-0.0300407,0.0135082,0.937494,5,0.1,23,0.1,0.398385,-3.94844,0.663042,-0.0331818,0.0490755,-0.00182157,-0.589898,0.872433,-0.0323839,0.0162592,3.51219,5,0.1,24,0.1,-4.23151,-2.02058,0.626563,0.0365324,0.010993,-0.000787992,0.649482,0.195429,-0.0140108,0.0274813,1.4559,5,0.1,25,0.1,-1.10962,-1.67942,0.622302,0.0124143,0.0579529,-0.000341982,0.220709,1.03027,-0.00607967,0.0127813,3.5122,5,0.1,26,0.1,-0.811653,0.232326,0.500681,0.0240779,-0.0157915,-0.000167079,0.428051,-0.280738,-0.00297278,0.0111066,0.831488,5,0.1,27,0.1,-1.51532,3.09426,0.566468,0.0184894,-0.0563078,0.00058189,0.328705,-1.00103,0.0103489,0.0102484,3.5122,5,0.1,28,0.1,-1.39108,0.990616,0.578673,-0.00472032,-0.0590788,0.000388827,-0.0839084,-1.05029,0.00691041,0.0105183,3.51219,5,0.1,29,0.1,-4.32266,-3.54606,0.630864,0.0586726,-0.00837743,-0.000320561,1.04305,-0.148922,-0.00569969,0.00987987,3.5122,5,0.1,30,0.1,-3.43917,-1.37257,0.587463,0.00302531,0.0591902,0.000272691,0.0537783,1.05228,0.00484288,0.0138533,3.51219,5,0.1,31,0.1,-4.00929,3.94062,0.689338,0.0486031,-0.0338923,0.00133449,0.864029,-0.602528,0.0237264,0.0169113,3.51219,5,0.1,32,0.1,3.95807,-3.25874,0.692331,-0.0052996,0.0590283,0.000601634,-0.0942051,1.04938,0.010699,0.0137019,3.5122,5,0.1,33,0.1,2.67271,3.29231,0.699858,-0.00364035,-0.0220206,0.00148742,-0.0647008,-0.391468,0.0264384,0.0187251,0.500305,5,0.1,34,0.1,3.66149,-2.13046,0.631895,0.021451,0.0295985,-0.00281213,0.381351,0.526205,-0.0499971,0.00864465,1.34394,5,0.1,35,0.1,1.76587,3.85694,0.604576,-0.0419935,-0.0418242,-8.67993e-05,-0.746556,-0.743553,-0.00154227,0.0176393,3.5122,5,0.1,36,0.1,0.28566,4.18632,0.622009,0.0034282,-0.0591673,-0.000459142,0.0609457,-1.05187,-0.00815839,0.0106583,3.5122,5,0.1,37,0.1,-2.11998,-4.25827,0.671888,0.0570238,0.0161231,-0.00104588,1.01376,0.286639,-0.0185892,0.0106972,3.5122,5,0.1,38,0.1,3.63707,2.82204,0.677699,-0.0589475,0.00527985,0.00214493,-1.04794,0.0938624,0.0381283,0.0172029,3.50665,5,0.1,39,0.1,-1.42989,-3.30984,0.512561,0.0156254,0.0571687,0.000559073,0.277787,1.01633,0.00993535,0.00904005,3.5122,5,0.1
0,0.2,3.65351,-3.76937,0.550777,0.0105202,0.177068,-0.000652671,0.0787973,1.32787,-0.00485778,0.0113827,2.94945,5,0.1,1,0.2,-2.85019,-3.69918,0.585903,0.163776,0.090903,0.0012815,1.22833,0.681758,0.00965595,0.0353584,2.92626,5,0.1,2,0.2,1.11626,-0.87526,0.599773,-0.133589,0.0542611,2.08616e-05,-1.00189,0.406951,0.000178814,0.0182096,1.7074,5,0.1,3,0.2,0.993985,3.08152,0.646149,-0.132991,-0.131845,-0.00424981,-0.997454,-0.988722,-0.0318885,0.0117779,2.9258,5,0.1,4,0.2,4.04093,-0.380862,0.682723,-0.0400901,0.18294,0.00364035,-0.300884,1.37205,0.0272989,0.0115955,2.92579,5,0.1,5,0.2,3.49097,3.7914,0.644034,-0.0573814,-0.0574529,-0.00741035,-0.429273,-0.429749,-0.0554323,0.0101878,0.267524,5,0.1,6,0.2,-0.445846,-3.46438,0.515138,-0.109743,0.151682,-0.00593662,-0.823066,1.13785,-0.0445247,0.0112929,2.92578,5,0.1,7,0.2,-0.278763,-0.773041,0.521655,-0.00200346,0.0729159,-0.00675917,-0.0150204,0.546902,-0.0506639,0.0180657,0.44073,5,0.1,8,0.2,-0.063472,2.34972,0.613901,0.0908794,0.00474453,-0.0013113,0.681592,0.0355244,-0.00983477,0.0126733,0.680264,5,0.1,9,0.2,-0.793257,-2.64523,0.581107,-0.0407353,0.182831,0.00089705,-0.305533,1.37126,0.00676513,0.0175332,2.92579,5,0.1,10,0.2,-4.01925,-0.181333,0.562623,0.0819921,0.144443,0.00352561,0.614882,1.08332,0.0264347,0.0401594,2.26656,5,0.1,11,0.2,2.01458,-4.18183,0.669044,-0.0229537,0.185895,-0.00238568,-0.172257,1.39403,-0.0178516,0.0225568,2.9258,5,0.1,12,0.2,-1.41098,-1.0529,0.686161,0.179932,0.0518858,0.00439882,1.34957,0.389099,0.0329912,0.0168728,2.92579,5,0.1,13,0.2,-2.9326,4.02288,0.635911,0.116414,-0.146735,-0.00222027,0.873208,-1.10054,-0.0166595,0.0179911,2.92578,5,0.1,14,0.2,-2.03929,3.68476,0.684855,0.0225723,-0.135332,0.00614524,0.169158,-1.01495,0.0460744,0.0121259,1.56265,5,0.1,15,0.2,-2.20243,-1.37679,0.688486,0.0740886,0.104016,-0.00662506,0.555754,0.780165,-0.0496805,0.0100179,1.34299,5,0.1,16,0.2,-2.2029,3.00474,0.634681,0.122899,0.098598,-0.0032708,0.921607,0.739336,-0.0245571,0.0244978,2.04224,5,0.1,17,0.2,-3.97106,-2.62438,0.584038,0.0774443,0.0919104,0.00150502,0.580907,0.689268,0.0113249,0.0209171,1.18648,5,0.1,18,0.2,1.66503,-2.27895,0.669505,-0.0438631,0.0451803,-0.00655651,-0.329018,0.338674,-0.049144,0.0149768,0.329156,5,0.1,19,0.2,3.8584,2.23442,0.648539,-0.0809669,0.072217,-0.00457913,-0.607371,0.541449,-0.0343025,0.0345114,0.96839,5,0.1,20,0.2,-4.37016,-4.36323,0.541586,0.0372529,0.18357,0.00178367,0.279188,1.37663,0.0133514,0.0201739,2.92581,5,0.1,21,0.2,-3.54984,-3.30133,0.662427,0.179201,0.00012517,-0.00588745,1.34408,0.000953674,-0.0441968,0.0176417,2.97136,5,0.1,22,0.2,-2.59707,-0.540532,0.506614,0.0893295,0.0368372,-0.00533909,0.670075,0.276268,-0.0400841,0.0149127,0.769418,5,0.1,23,0.2,0.391645,-3.93847,0.662672,-0.104871,0.155103,-0.00575781,-0.786543,1.16324,-0.0431538,0.0166531,0.73747,5,0.1,24,0.2,-4.22409,-2.01834,0.626403,0.115466,0.0347435,-0.00248998,0.865936,0.260592,-0.0187159,0.0293799,1.19449,5,0.1,25,0.2,-1.10709,-1.66764,0.622233,0.0392348,0.183156,-0.00108033,0.294328,1.37377,-0.00810623,0.0145533,2.93775,5,0.1,26,0.2,-0.806762,0.229119,0.500647,0.0760972,-0.0499088,-0.000527501,0.570744,-0.374325,-0.00396371,0.0116478,0.682641,5,0.1,27,0.2,-1.51157,3.08282,0.566586,0.0584394,-0.177962,0.00184029,0.438213,-1.33467,0.0137687,0.0107195,2.92579,5,0.1,28,0.2,-1.39204,0.978615,0.578752,-0.014919,-0.186718,0.00122786,-0.111818,-1.40041,0.00923872,0.0113655,2.92579,5,0.1,29,0.2,-4.31074,-3.54776,0.630798,0.185442,-0.0264764,-0.00101328,1.39046,-0.198603,-0.00759959,0.00902191,2.92582,5,0.1,30,0.2,-3.43855,-1.36054,0.587518,0.00956059,0.187069,0.000861287,0.071764,1.40309,0.0064671,0.0141402,2.92579,5,0.1,31,0.2,-3.99942,3.93373,0.689609,0.153607,-0.107121,0.00421703,1.15216,-0.803232,0.0316501,0.0158903,2.92579,5,0.1,32,0.2,3.95699,-3.24675,0.692454,-0.0167489,0.186557,0.0018999,-0.125647,1.39916,0.0143051,0.0143714,2.9258,5,0.1,33,0.2,2.67197,3.28784,0.700161,-0.0115037,-0.0695944,0.00470132,-0.0863075,-0.522017,0.0352561,0.0220544,0.410475,5,0.1,34,0.2,3.66584,-2.12445,0.631324,0.0677943,0.0935495,-0.00888705,0.508428,0.701547,-0.0666678,0.00928741,1.10264,5,0.1,35,0.2,1.75734,3.84845,0.604558,-0.132722,-0.132185,-0.000274181,-0.995338,-0.991344,-0.00205636,0.015634,2.9258,5,0.1,36,0.2,0.286357,4.1743,0.621915,0.0108354,-0.186992,-0.00145137,0.0812411,-1.40262,-0.0108778,0.0113296,2.92578,5,0.1,37,0.2,-2.1084,-4.255,0.671676,0.180227,0.0509501,-0.00330508,1.35159,0.382185,-0.0247955,0.0116871,2.9258,5,0.1,38,0.2,3.6251,2.82311,0.678135,-0.1863,0.0166833,0.00677854,-1.39725,0.12517,0.0508428,0.0159314,2.87703,5,0.1,39,0.2,-1.42671,-3.29823,0.512674,0.0493824,0.180686,0.00176728,0.370443,1.35493,0.0132322,0.00956096,2.92581,5,0.1
0,0.3,3.65506,-3.74417,0.550692,0.0213593,0.332813,-0.00100723,0.128448,1.68575,-0.00234321,0.0113827,2.94945,5,0.1,1,0.3,-2.82694,-3.68636,0.586081,0.306034,0.167452,0.0022769,1.52718,0.804827,0.00981987,0.0353584,2.92626,5,0.1,2,0.3,1.09734,-0.867575,0.599776,-0.248518,0.100943,4.06988e-05,-1.22601,0.497982,0.000212342,0.0182096,1.7074,5,0.1,3,0.3,0.975139,3.06284,0.645547,-0.247707,-0.245561,-0.0079168,-1.22584,-1.21519,-0.0391826,0.0117779,2.9258,5,0.1,4,0.3,4.03525,-0.354938,0.683239,-0.0746883,0.340739,0.00678012,-0.369638,1.68622,0.0335537,0.0115955,2.92579,5,0.1,5,0.3,3.4829,3.78332,0.642992,-0.105146,-0.105273,-0.0135784,-0.498787,-0.499398,-0.0644065,0.0101878,0.267524,5,0.1,6,0.3,-0.461398,-3.44288,0.514297,-0.204404,0.282539,-0.0110573,-1.01154,1.39827,-0.0547208,0.0112929,2.92578,5,0.1,7,0.3,-0.279047,-0.762714,0.520698,-0.00372664,0.135651,-0.0125719,-0.0183824,0.669219,-0.0620186,0.0180657,0.44073,5,0.1,8,0.3,-0.0506008,2.35039,0.613715,0.169066,0.00882149,-0.00243951,0.834051,0.0434816,-0.0120327,0.0126733,0.680264,5,0.1,9,0.3,-0.79903,-2.61932,0.581235,-0.075874,0.340538,0.00167424,-0.375491,1.68525,0.00829622,0.0175332,2.92579,5,0.1,10,0.3,-4.00764,-0.160876,0.563122,0.152527,0.268711,0.00655828,0.752479,1.32564,0.0323541,0.0401594,2.26656,5,0.1,11,0.3,2.01133,-4.15549,0.668706,-0.0427611,0.346226,-0.00443989,-0.211626,1.71331,-0.0219606,0.0225568,2.9258,5,0.1,12,0.3,-1.38548,-1.04554,0.686784,0.335142,0.0966374,0.0081934,1.65854,0.478223,0.0405461,0.0168728,2.92579,5,0.1,13,0.3,-2.9161,4.00209,0.635596,0.216836,-0.273305,-0.004136,1.07309,-1.3525,-0.0204742,0.0179911,2.92578,5,0.1,14,0.3,-2.03606,3.66594,0.685739,0.0429943,-0.241933,0.0118167,0.225097,-1.06728,0.0632517,0.0121259,1.56265,5,0.1,15,0.3,-2.19194,-1.36206,0.687548,0.137837,0.193508,-0.0123243,0.680029,0.954643,-0.0608005,0.0100179,1.34299,5,0.1,16,0.3,-2.18551,3.01855,0.634212,0.228172,0.179058,-0.00625784,1.11982,0.827387,-0.0330769,0.0244978,2.04224,5,0.1,17,0.3,-3.96009,-2.61136,0.584252,0.144079,0.170979,0.00280291,0.710815,0.843465,0.0138357,0.0209171,1.18648,5,0.1,18,0.3,1.65882,-2.27255,0.668576,-0.081604,0.0840358,-0.0121946,-0.402585,0.414521,-0.0601523,0.0149768,0.329156,5,0.1,19,0.3,3.84694,2.24465,0.647891,-0.150635,0.134332,-0.00851545,-0.743181,0.66264,-0.0419989,0.0345114,0.96839,5,0.1,20,0.3,-4.36488,-4.33722,0.541839,0.0693671,0.341901,0.00331989,0.343233,1.69194,0.0164248,0.0201739,2.92581,5,0.1,21,0.3,-3.52486,-3.30132,0.661599,0.322008,0.000230595,-0.0107876,1.44304,0.00108778,-0.0510626,0.0176417,2.97136,5,0.1,22,0.3,-2.58442,-0.535315,0.505905,0.166191,0.0685284,-0.00858307,0.819921,0.338063,-0.0249743,0.0149127,0.769418,5,0.1,23,0.3,0.37723,-3.9174,0.661855,-0.182644,0.263178,-0.0107572,-0.741113,0.972539,-0.0536852,0.0166531,0.73747,5,0.1,24,0.3,-4.20773,-2.01342,0.62605,0.214799,0.0646364,-0.00463566,1.05968,0.31887,-0.0228845,0.0293799,1.19449,5,0.1,25,0.3,-1.10144,-1.642,0.622067,0.075661,0.332241,-0.00235941,0.407517,1.5299,-0.0161231,0.0145533,2.93775,5,0.1,26,0.3,-0.795984,0.22205,0.500577,0.141568,-0.0928477,-0.000846852,0.698395,-0.458049,-0.00244007,0.0116478,0.682641,5,0.1,27,0.3,-1.50329,3.0576,0.566847,0.10884,-0.331461,0.00342485,0.538588,-1.64029,0.0169352,0.0107195,2.92579,5,0.1,28,0.3,-1.39416,0.952155,0.578926,-0.0277817,-0.347776,0.00228956,-0.137463,-1.72106,0.0113398,0.0113655,2.92579,5,0.1,29,0.3,-4.28447,-3.55152,0.630655,0.345368,-0.0493169,-0.00188723,1.70901,-0.244051,-0.00933558,0.00902191,2.92582,5,0.1,30,0.3,-3.4372,-1.33403,0.58764,0.0178125,0.348436,0.00160476,0.0881702,1.72434,0.00794604,0.0141402,2.92579,5,0.1,31,0.3,-3.97765,3.91856,0.690207,0.286113,-0.199506,0.00785664,1.41594,-0.987232,0.0388846,0.0158903,2.92579,5,0.1,32,0.3,3.95462,-3.22031,0.692723,-0.0311978,0.347473,0.00354359,-0.154406,1.71955,0.0175498,0.0143714,2.9258,5,0.1,33,0.3,2.67034,3.27798,0.700826,-0.0214033,-0.129474,0.00874577,-0.105619,-0.638738,0.0431426,0.0220544,0.410475,5,0.1,34,0.3,3.67544,-2.1112,0.630065,0.126117,0.174026,-0.0165342,0.622168,0.858516,-0.0815727,0.00928741,1.10264,5,0.1,35,0.3,1.73854,3.82971,0.604519,-0.247197,-0.246201,-0.000510737,-1.22328,-1.21836,-0.00252575,0.015634,2.9258,5,0.1,36,0.3,0.287892,4.1478,0.62171,0.0201796,-0.348301,-0.0027027,0.0998583,-1.72371,-0.0133738,0.0113296,2.92578,5,0.1,37,0.3,-2.08286,-4.24778,0.671207,0.335675,0.0949033,-0.0061566,1.66114,0.469655,-0.0304654,0.0116871,2.9258,5,0.1,38,0.3,3.59871,2.82547,0.679095,-0.346581,0.0310406,0.0126109,-1.70977,0.153154,0.0622123,0.0159314,2.87703,5,0.1,39,0.3,-1.41971,-3.27262,0.512924,0.0919847,0.336521,0.00328962,0.455223,1.66529,0.0162721,0.00956096,2.92581,5,0.1
0,0.4,3.65786,-3.70256,0.550583,0.034529,0.496584,-0.00114143,0.127673,1.51467,-0.000447035,0.0113053,2.53266,5,0.1,1,0.4,-2.78882,-3.66569,0.586355,0.453621,0.24417,0.00317097,1.35803,0.696659,0.00777841,0.0395671,2.51039,5,0.1,2,0.4,1.06647,-0.855035,0.599781,-0.366509,0.148869,5.96046e-05,-1.08159,0.439346,0.000208616,0.0180926,1.35092,5,0.1,3,0.4,0.944343,3.03231,0.644562,-0.365813,-0.362641,-0.0116929,-1.08388,-1.07455,-0.0346303,0.0115229,2.40887,5,0.1,4,0.4,4.02596,-0.312576,0.684082,-0.110304,0.503202,0.0100121,-0.326633,1.49091,0.0296831,0.0126345,2.51168,5,0.1,5,0.4,3.46996,3.77036,0.641321,-0.152427,-0.152606,-0.0196829,-0.42665,-0.427365,-0.0551343,0.0107047,0.187541,5,0.1,6,0.4,-0.48681,-3.40776,0.512922,-0.301863,0.41725,-0.0163287,-0.894383,1.23644,-0.048399,0.0127523,2.4691,5,0.1,7,0.4,-0.27951,-0.745862,0.519136,-0.00549555,0.200054,-0.01854,-0.0162125,0.590444,-0.0547171,0.01872,0.348727,5,0.1,8,0.4,-0.0295979,2.35149,0.613412,0.249334,0.0130117,-0.00359714,0.735829,0.0382662,-0.0106394,0.0149254,0.538232,5,0.1,9,0.4,-0.808463,-2.57699,0.581443,-0.112051,0.502908,0.00247359,-0.331998,1.49,0.00733137,0.0169928,2.51161,5,0.1,10,0.4,-3.98869,-0.127494,0.563937,0.224942,0.396289,0.00967085,0.663877,1.16952,0.0285804,0.039381,1.79333,5,0.1,11,0.4,2.00601,-4.11244,0.668154,-0.0631511,0.511301,-0.00655651,-0.187159,1.51515,-0.0194311,0.0219747,2.51411,5,0.1,12,0.4,-1.34381,-1.03353,0.687803,0.494939,0.142714,0.0120997,1.46645,0.422776,0.035882,0.0159585,2.51034,5,0.1,13,0.4,-2.88914,3.96811,0.635082,0.320226,-0.403619,-0.00610799,0.948787,-1.19567,-0.01809,0.0177657,2.51006,5,0.1,14,0.4,-2.03064,3.63666,0.687237,0.0651121,-0.340235,0.0180766,0.206828,-0.862718,0.0588894,0.0122037,1.45512,5,0.1,15,0.4,-2.17482,-1.33802,0.686017,0.203282,0.285384,-0.0181749,0.59998,0.842154,-0.053674,0.0102287,1.06258,5,0.1,16,0.4,-2.1572,3.04045,0.633421,0.335741,0.256729,-0.00951737,0.98443,0.69499,-0.0305474,0.0240098,1.66002,5,0.1,17,0.4,-3.9422,-2.59012,0.5846,0.212485,0.252151,0.00413507,0.627041,0.744224,0.0121593,0.021729,0.938758,5,0.1,18,0.4,1.64868,-2.26211,0.667062,-0.120348,0.12393,-0.0179842,-0.355124,0.365734,-0.0530779,0.0100479,0.260434,5,0.1,19,0.4,3.82822,2.26134,0.646833,-0.222152,0.198108,-0.0125572,-0.655651,0.584602,-0.0370741,0.0307124,0.766202,5,0.1,20,0.4,-4.35626,-4.29471,0.542251,0.102437,0.504911,0.00490248,0.303507,1.49608,0.0145435,0.0254153,2.51229,5,0.1,21,0.4,-3.48575,-3.30129,0.660272,0.45591,0.000333786,-0.0156254,1.1847,0.000953674,-0.0436604,0.0192692,2.92323,5,0.1,22,0.4,-2.56378,-0.526802,0.504946,0.245094,0.101064,-0.0103787,0.723481,0.298232,-0.0111759,0.0144158,0.609256,5,0.1,23,0.4,0.355523,-3.88671,0.660515,-0.24837,0.345373,-0.0159472,-0.55398,0.654697,-0.0477135,0.0164846,0.531651,5,0.1,24,0.4,-4.18105,-2.00539,0.625475,0.316775,0.0953257,-0.00683665,0.935078,0.281274,-0.0201762,0.029128,0.94509,5,0.1,25,0.4,-1.09183,-1.6014,0.621747,0.116077,0.475651,-0.00406802,0.380874,1.28162,-0.0170469,0.0159898,2.73288,5,0.1,26,0.4,-0.778397,0.210515,0.500483,0.20878,-0.13693,-0.00102073,0.616163,-0.404097,-0.00107288,0.011741,0.540634,5,0.1,27,0.4,-1.48975,3.01639,0.567272,0.160733,-0.489497,0.00505745,0.476241,-1.45042,0.0149906,0.0121632,2.51008,5,0.1,28,0.4,-1.39761,0.908918,0.579211,-0.0410289,-0.513595,0.00338107,-0.121474,-1.52171,0.0100434,0.0118109,2.51498,5,0.1,29,0.4,-4.24153,-3.55765,0.63042,0.510025,-0.0728309,-0.00278801,1.51134,-0.215769,-0.00822544,0.00930525,2.51369,5,0.1,30,0.4,-3.43498,-1.29071,0.58784,0.0263095,0.514567,0.00236928,0.0778437,1.52469,0.00706315,0.015849,2.51537,5,0.1,31,0.4,-3.94208,3.89375,0.691183,0.422531,-0.294626,0.0116035,1.25194,-0.87297,0.0343621,0.0155501,2.51008,5,0.1,32,0.4,3.95074,-3.17711,0.693164,-0.0460744,0.513148,0.00523478,-0.136614,1.5204,0.0154674,0.0140878,2.5148,5,0.1,33,0.4,2.66768,3.2619,0.701913,-0.0315666,-0.190949,0.012897,-0.0931025,-0.563502,0.0380874,0.0181137,0.32477,5,0.1,34,0.4,3.69111,-2.08958,0.628011,0.185996,0.256646,-0.0243843,0.54884,0.757575,-0.0719726,0.00845563,0.872423,5,0.1,35,0.4,1.7078,3.79911,0.604456,-0.365058,-0.363588,-0.000753999,-1.08165,-1.07718,-0.00223517,0.0144279,2.51009,5,0.1,36,0.4,0.290401,4.1045,0.621374,0.0298008,-0.514376,-0.00399053,0.0882894,-1.52397,-0.0118315,0.0114683,2.51528,5,0.1,37,0.4,-2.04113,-4.23598,0.670442,0.49572,0.140154,-0.0090912,1.46884,0.415325,-0.0269711,0.0116044,2.51043,5,0.1,38,0.4,3.55566,2.82933,0.680662,-0.511128,0.0457764,0.0185981,-1.50847,0.135183,0.0548661,0.0175868,2.20069,5,0.1,39,0.4,-1.40828,-3.23079,0.513333,0.135842,0.496972,0.00485778,0.40251,1.47247,0.0143945,0.00863328,2.51059,5,0.1
0,0.5,3.66198,-3.64524,0.550467,0.0480227,0.648629,-0.00115335,0.135034,1.45362,0.000201166,0.0113053,2.53266,5,0.1,1,0.5,-2.73646,-3.63771,0.586711,0.593674,0.315291,0.00393568,1.37065,0.68976,0.00716373,0.0395671,2.51039,5,0.1,2,0.5,1.02431,-0.837912,0.599788,-0.476248,0.193445,7.98143e-05,-1.05936,0.430305,0.00018999,0.0180926,1.35092,5,0.1,3,0.5,0.902215,2.99055,0.643216,-0.476588,-0.472462,-0.0152325,-1.07594,-1.0667,-0.034377,0.0115229,2.40887,5,0.1,4,0.5,4.01325,-0.254718,0.685236,-0.143918,0.652936,0.0130665,-0.328332,1.43176,0.0298321,0.0126345,2.51168,5,0.1,5,0.5,3.45263,3.75317,0.639103,-0.193333,-0.189127,-0.0243945,-0.375196,-0.296652,-0.0382662,0.0107047,0.187541,5,0.1,6,0.5,-0.521586,-3.35969,0.511088,-0.393644,0.544127,-0.019968,-0.894478,1.23644,-0.0248067,0.0127523,2.4691,5,0.1,7,0.5,-0.280142,-0.722851,0.517016,-0.00714064,0.259959,-0.0237425,-0.0158809,0.578277,-0.047382,0.01872,0.348727,5,0.1,8,0.5,-0.000918195,2.35298,0.612998,0.323991,0.0168979,-0.00467608,0.720689,0.0375211,-0.0104122,0.0149254,0.538232,5,0.1,9,0.5,-0.821375,-2.51916,0.581728,-0.146214,0.652628,0.00322759,-0.3337,1.4323,0.00736117,0.0169928,2.51161,5,0.1,10,0.5,-3.96282,-0.0819105,0.56505,0.292298,0.514948,0.0125699,0.650227,1.14546,0.0279769,0.039381,1.79333,5,0.1,11,0.5,1.99873,-4.05373,0.667399,-0.0824079,0.661373,-0.00855643,-0.188068,1.41704,-0.0195354,0.0219747,2.51411,5,0.1,12,0.5,-1.28683,-1.01708,0.689197,0.644344,0.186222,0.0157915,1.44684,0.424992,0.0360608,0.0159585,2.51034,5,0.1,13,0.5,-2.85224,3.9216,0.634378,0.417858,-0.52666,-0.00796979,0.95363,-1.20188,-0.0181831,0.0177657,2.51006,5,0.1,14,0.5,-2.02346,3.59925,0.689448,0.0751503,-0.399028,0.0269886,0.00819564,-0.332028,0.109971,0.0122037,1.45512,5,0.1,15,0.5,-2.15143,-1.3052,0.683926,0.264153,0.37083,-0.0236201,0.587612,0.824831,-0.0525601,0.0102287,1.06258,5,0.1,16,0.5,-2.11845,3.06925,0.632271,0.440174,0.315539,-0.0138248,1.04503,0.471726,-0.0514276,0.0240098,1.66002,5,0.1,17,0.5,-3.91775,-2.56111,0.585075,0.276104,0.327658,0.00536926,0.614166,0.72889,0.0119209,0.021729,0.938758,5,0.1,18,0.5,1.63484,-2.24785,0.664993,-0.156379,0.161039,-0.0233699,-0.347823,0.358224,-0.0519902,0.0100479,0.260434,5,0.1,19,0.5,3.80267,2.28412,0.645388,-0.288673,0.257424,-0.0163187,-0.642121,0.572637,-0.0363104,0.0307124,0.766202,5,0.1,20,0.5,-4.34449,-4.23668,0.542814,0.132643,0.6547,0.00634538,0.286818,1.42857,0.0136681,0.0254153,2.51229,5,0.1,21,0.5,-3.43565,-3.30111,0.658491,0.533019,0.00430718,-0.0199438,0.406057,0.0698566,-0.040751,0.0192692,2.92323,5,0.1,22,0.5,-2.53558,-0.515177,0.503879,0.318494,0.131323,-0.0107077,0.70852,0.292104,0.00363961,0.0144158,0.609256,5,0.1,23,0.5,0.328001,-3.84911,0.658677,-0.300666,0.403831,-0.0208048,-0.470489,0.494376,-0.0470355,0.0164846,0.531651,5,0.1,24,0.5,-4.14461,-1.99443,0.624688,0.411644,0.123865,-0.00888323,0.915736,0.275493,-0.0197552,0.029128,0.94509,5,0.1,25,0.5,-1.07836,-1.54829,0.621191,0.152628,0.577929,-0.00756923,0.336371,0.760078,-0.0482649,0.0159898,2.73288,5,0.1,26,0.5,-0.754382,0.194765,0.500378,0.271295,-0.177929,-0.00105072,0.603478,-0.395783,0.00037998,0.011741,0.540634,5,0.1,27,0.5,-1.47123,2.95999,0.567855,0.20974,-0.63869,0.0066001,0.4787,-1.4568,0.0150651,0.0121632,2.51008,5,0.1,28,0.5,-1.40234,0.849959,0.579601,-0.0535317,-0.663747,0.00441382,-0.122145,-1.41281,0.0100844,0.0118109,2.51498,5,0.1,29,0.5,-4.18295,-3.56604,0.630099,0.660047,-0.0950336,-0.00363523,1.41937,-0.216872,-0.00828132,0.00930525,2.51369,5,0.1,30,0.5,-3.43195,-1.23165,0.588113,0.0343215,0.664764,0.00309516,0.0782758,1.41107,0.00707805,0.015849,2.51537,5,0.1,31,0.5,-3.89339,3.8598,0.69252,0.551358,-0.384457,0.0151396,1.25833,-0.87747,0.0345409,0.0155501,2.51008,5,0.1,32,0.5,3.94543,-3.1182,0.693767,-0.0601295,0.663283,0.00682678,-0.137255,1.41363,0.0155494,0.0140878,2.5148,5,0.1,33,0.5,2.66405,3.23994,0.703396,-0.0410132,-0.248122,0.0167609,-0.0911951,-0.551909,0.0372939,0.0181137,0.32477,5,0.1,34,0.5,3.71251,-2.06006,0.625206,0.241684,0.333507,-0.0316863,0.537589,0.741959,-0.0704862,0.00845563,0.872423,5,0.1,35,0.5,1.66574,3.75721,0.604369,-0.476363,-0.474436,-0.000984035,-1.0872,-1.08278,-0.00224262,0.0144279,2.51009,5,0.1,36,0.5,0.293835,4.04546,0.620914,0.0388864,-0.664556,-0.00520777,0.0887513,-1.41139,-0.0118911,0.0114683,2.51528,5,0.1,37,0.5,-1.98406,-4.21983,0.669394,0.64516,0.18289,-0.0118657,1.44544,0.417441,-0.027094,0.0116044,2.51043,5,0.1,38,0.5,3.49867,2.83459,0.682801,-0.612778,0.0594899,0.0241651,-0.563666,0.132352,0.0537448,0.0175868,2.20069,5,0.1,39,0.5,-1.39262,-3.17359,0.513893,0.17726,0.646459,0.00633905,0.404559,1.44312,0.0144728,0.00863328,2.51059,5,0.1
0,0.6,3.66742,-3.5737,0.550354,0.0602961,0.77517,-0.00110418,0.1055,1.0283,0.00077486,0.0106889,2.33908,5,0.1,1,0.6,-2.67071,-3.60299,0.587137,0.715393,0.375986,0.00454187,1.01256,0.498891,0.00476837,0.0371778,2.23606,5,0.1,2,0.6,0.971789,-0.816578,0.599797,-0.569211,0.231206,9.53674e-05,-0.762105,0.309527,0.000149012,0.0180069,1.00573,5,0.1,3,0.6,0.849565,2.93835,0.641533,-0.571507,-0.566566,-0.0182658,-0.783175,-0.77641,-0.0250041,0.0130605,1.91703,5,0.1,4,0.6,3.99733,-0.182844,0.686681,-0.17302,0.77748,0.0157088,-0.241399,1.01037,0.0219643,0.0131448,2.31254,5,0.1,5,0.6,3.43162,3.73303,0.636506,-0.224733,-0.210959,-0.027211,-0.241756,-0.136733,-0.017643,0.0107593,0.212403,5,0.1,6,0.6,-0.565108,-3.29953,0.509003,-0.472777,0.653511,-0.0213817,-0.655085,0.905514,-0.00399351,0.0132305,1.86821,5,0.1,7,0.6,-0.280929,-0.694182,0.51443,-0.00853464,0.310706,-0.0276908,-0.0114292,0.415951,-0.0302792,0.0195915,0.26015,5,0.1,8,0.6,0.0348125,2.35485,0.612482,0.387235,0.0201941,-0.00558943,0.51845,0.0269413,-0.00748038,0.0138879,0.400701,5,0.1,9,0.6,-0.837549,-2.44731,0.582085,-0.17579,0.777268,0.00388026,-0.245422,1.01173,0.00539422,0.0169868,2.31202,5,0.1,10,0.6,-3.93058,-0.0251204,0.566436,0.349361,0.615467,0.0150248,0.467777,0.824014,0.0201166,0.0437789,1.33509,5,0.1,11,0.6,1.98962,-3.98112,0.666452,-0.0990778,0.783235,-0.0102878,-0.138283,0.974655,-0.0143647,0.0233202,2.32744,5,0.1,12,0.6,-1.2157,-0.996483,0.690944,0.771624,0.22389,0.0189871,1.04666,0.312537,0.0264943,0.0178273,2.29839,5,0.1,13,0.6,-2.80602,3.86334,0.633497,0.502378,-0.633186,-0.00958145,0.701427,-0.883937,-0.0133812,0.0199411,2.21978,5,0.1,14,0.6,-2.01614,3.55843,0.692717,0.069356,-0.410342,0.0384241,-0.112176,0.0876188,0.111669,0.0124336,1.21736,5,0.1,15,0.6,-2.1223,-1.2643,0.681321,0.315714,0.443214,-0.0282317,0.422716,0.593364,-0.0378191,0.0142748,0.791063,5,0.1,16,0.6,-2.06951,3.10273,0.630625,0.534588,0.349659,-0.0190735,0.800848,0.205874,-0.0504255,0.0275578,1.25063,5,0.1,17,0.6,-3.8873,-2.52498,0.585667,0.329995,0.391626,0.00641495,0.441909,0.524163,0.00858307,0.0208879,0.698879,5,0.1,18,0.6,1.61759,-2.23009,0.662416,-0.186902,0.192481,-0.0279322,-0.25028,0.257611,-0.0374019,0.0119197,0.19389,5,0.1,19,0.6,3.77083,2.31251,0.643589,-0.345021,0.307673,-0.0195056,-0.461936,0.411987,-0.0261366,0.0323994,0.57042,5,0.1,20,0.6,-4.32991,-4.16465,0.543511,0.157464,0.778699,0.00752509,0.200033,1.0035,0.00950694,0.02022,2.31657,5,0.1,21,0.6,-3.38128,-3.30028,0.656311,0.545782,0.0127614,-0.0234425,-0.112772,0.0926256,-0.027895,0.0173606,2.98674,5,0.1,22,0.6,-2.50046,-0.500694,0.502844,0.380671,0.156958,-0.00982732,0.50962,0.210136,0.0131726,0.0145042,0.454185,5,0.1,23,0.6,0.295864,-3.80666,0.656378,-0.33889,0.440967,-0.0249445,-0.27965,0.235915,-0.0340641,0.0168786,0.363041,5,0.1,24,0.6,-4.09921,-1.98077,0.623708,0.492001,0.148043,-0.0106156,0.658751,0.198126,-0.0142455,0.0311714,0.703585,5,0.1,25,0.6,-1.06158,-1.48758,0.620173,0.18104,0.627476,-0.0128895,0.222623,0.232875,-0.0545084,0.0196059,2.66967,5,0.1,26,0.6,-0.724463,0.175143,0.500277,0.324254,-0.212661,-0.000962615,0.434101,-0.284724,0.0013113,0.0126863,0.403126,5,0.1,27,0.6,-1.44803,2.88934,0.568585,0.252169,-0.767767,0.00793636,0.352025,-1.07074,0.0110567,0.0154261,2.28968,5,0.1,28,0.6,-1.40826,0.777153,0.580089,-0.0643611,-0.784849,0.0053063,-0.0898242,-0.964642,0.00742078,0.0121579,2.33235,5,0.1,29,0.6,-4.11046,-3.57655,0.629697,0.782335,-0.114256,-0.00436902,0.980139,-0.159502,-0.00610948,0.00971384,2.32507,5,0.1,30,0.6,-3.42816,-1.15876,0.588455,0.0412583,0.785542,0.00372231,0.0575781,0.96041,0.00521541,0.0185872,2.3337,5,0.1,31,0.6,-3.8324,3.81727,0.694195,0.662887,-0.462234,0.0182018,0.925303,-0.64528,0.0253916,0.0141697,2.21914,5,0.1,32,0.6,3.93878,-3.04544,0.694522,-0.0722945,0.784528,0.00820607,-0.10097,0.966668,0.0114143,0.0201659,2.33096,5,0.1,33,0.6,2.65953,3.21257,0.705245,-0.0490189,-0.296551,0.0200331,-0.0655651,-0.397086,0.0268221,0.017431,2.17715,5,0.1,34,0.6,3.73916,-2.02328,0.621712,0.288862,0.398612,-0.0378728,0.386715,0.533819,-0.0506938,0.00914418,0.649495,5,0.1,35,0.6,1.61304,3.70473,0.60426,-0.572723,-0.570405,-0.00118315,-0.799596,-0.796318,-0.00163913,0.0124945,2.21916,5,0.1,36,0.6,0.298137,3.97258,0.620338,0.0467531,-0.785404,-0.00626296,0.0652671,-0.961065,-0.00870228,0.013155,2.33328,5,0.1,37,0.6,-1.91286,-4.1996,0.668081,0.772181,0.219882,-0.0142679,1.0432,0.307322,-0.0198781,0.0106582,2.2997,5,0.1,38,0.6,3.43587,2.84115,0.685466,-0.631386,0.0711024,0.0288829,0.155568,0.0953674,0.0386238,0.0134201,1.64748,5,0.1,39,0.6,-1.37301,-3.10227,0.514594,0.213116,0.773066,0.00762194,0.297487,1.03772,0.0106394,0.011473,2.30182,5,0.1
0,0.7,3.67399,-3.49209,0.550249,0.0711244,0.846895,-0.000993814,0.104502,0.42434,0.00138208,0.0106889,2.33908,5,0.1,1,0.7,-2.59454,-3.56287,0.587614,0.802789,0.425885,0.00500856,0.704825,0.467122,0.00424311,0.0371778,2.23606,5,0.1,2,0.7,0.911123,-0.791936,0.599807,-0.642376,0.260922,0.000109058,-0.659369,0.267807,0.000115484,0.0180069,1.00573,5,0.1,3,0.7,0.789311,2.87855,0.639598,-0.625551,-0.622004,-0.020266,-0.302278,-0.332743,-0.0145286,0.0130605,1.91703,5,0.1,4,0.7,3.97881,-0.10109,0.688363,-0.197251,0.847585,0.0179127,-0.227943,0.411502,0.0207275,0.0131448,2.31254,5,0.1,5,0.7,3.40775,3.71123,0.633693,-0.253835,-0.224927,-0.029013,-0.311777,-0.128523,-0.0165738,0.0107593,0.212403,5,0.1,6,0.7,-0.615271,-3.22992,0.506885,-0.526219,0.735027,-0.0206155,-0.399504,0.688136,0.0177585,0.0132305,1.86821,5,0.1,7,0.7,-0.281839,-0.661067,0.511572,-0.00963197,0.350638,-0.028897,-0.00988878,0.359878,0.00425056,0.0195915,0.26015,5,0.1,8,0.7,0.0760836,2.357,0.611887,0.437008,0.0227831,-0.00630748,0.448559,0.023365,-0.00647455,0.0138879,0.400701,5,0.1,9,0.7,-0.856372,-2.36557,0.5825,-0.200423,0.847514,0.00442183,-0.231698,0.412747,0.00509992,0.0169868,2.31202,5,0.1,10,0.7,-3.89335,0.0404756,0.568037,0.394268,0.694576,0.0169558,0.404716,0.71293,0.0174046,0.0437789,1.33509,5,0.1,11,0.7,1.97901,-3.89898,0.665351,-0.112956,0.849583,-0.0117296,-0.130527,0.377268,-0.0135675,0.0233202,2.32744,5,0.1,12,0.7,-1.13434,-0.972511,0.692977,0.845552,0.255262,0.0216464,0.446334,0.295117,0.025019,0.0178273,2.29839,5,0.1,13,0.7,-2.7523,3.79556,0.632468,0.570692,-0.721475,-0.0110162,0.625119,-0.826865,-0.0142604,0.0199411,2.21978,5,0.1,14,0.7,-2.01024,3.51776,0.697133,0.0447355,-0.40364,0.0498726,-0.344902,0.0602007,0.110794,0.0124336,1.21736,5,0.1,15,0.7,-2.08865,-1.21706,0.678312,0.356295,0.50018,-0.0318618,0.365719,0.513382,-0.0327155,0.0142748,0.791063,5,0.1,16,0.7,-2.0122,3.13905,0.628499,0.609248,0.378927,-0.0231244,0.656001,0.338793,-0.0303686,0.0275578,1.25063,5,0.1,17,0.7,-3.85213,-2.48324,0.586351,0.372419,0.441951,0.0072388,0.382334,0.453532,0.00742823,0.0208879,0.698879,5,0.1,18,0.7,1.59767,-2.20958,0.659439,-0.210929,0.217215,-0.031523,-0.216529,0.222936,-0.0323653,0.0119197,0.19389,5,0.1,19,0.7,3.73406,2.34531,0.64151,-0.389368,0.347227,-0.0220149,-0.399634,0.35648,-0.0226088,0.0323994,0.57042,5,0.1,20,0.7,-4.31313,-4.08281,0.544313,0.178217,0.848026,0.00851378,0.200242,0.404045,0.00955909,0.02022,2.31657,5,0.1,21,0.7,-3.3283,-3.29848,0.653829,0.506338,0.023561,-0.0261553,-0.5752,0.116408,-0.0246391,0.0173606,2.98674,5,0.1,22,0.7,-2.45989,-0.483966,0.501938,0.429596,0.177132,-0.00822078,0.44091,0.181815,0.0182688,0.0145042,0.454185,5,0.1,23,0.7,0.260657,-3.76152,0.653716,-0.363998,0.460072,-0.0282224,-0.205551,0.129923,-0.0296235,0.0168786,0.363041,5,0.1,24,0.7,-4.04678,-1.96499,0.622577,0.55524,0.167065,-0.0119824,0.56991,0.171445,-0.0123084,0.0311714,0.703585,5,0.1,25,0.7,-1.04299,-1.42388,0.618579,0.185321,0.64383,-0.0192101,-0.111863,0.0756234,-0.0676699,0.0196059,2.66967,5,0.1,26,0.7,-0.689904,0.152477,0.500188,0.365929,-0.239996,-0.000803266,0.37558,-0.246339,0.00180677,0.0126863,0.403126,5,0.1,27,0.7,-1.42103,2.80824,0.569435,0.287506,-0.844218,0.00904677,0.33243,-0.469252,0.0104494,0.0154261,2.28968,5,0.1,28,0.7,-1.41512,0.694904,0.580655,-0.0726009,-0.850143,0.00598636,-0.0710115,-0.367668,0.00585616,0.0121579,2.33235,5,0.1,29,0.7,-4.02838,-3.58879,0.629229,0.849268,-0.130263,-0.00498239,0.382617,-0.150546,-0.00576675,0.00971384,2.32507,5,0.1,30,0.7,-3.42374,-1.07646,0.588854,0.047037,0.850385,0.00424478,0.0543594,0.363525,0.00490993,0.0185872,2.3337,5,0.1,31,0.7,-3.76142,3.76778,0.696144,0.755771,-0.527009,0.020751,0.873804,-0.609353,0.0239834,0.0141697,2.21914,5,0.1,32,0.7,3.93103,-2.96321,0.6954,-0.0824265,0.850033,0.00935234,-0.095278,0.369564,0.0107884,0.0201659,2.33096,5,0.1,33,0.7,2.6529,3.18081,0.70738,-0.0953205,-0.339117,0.0226079,-0.767946,-0.422552,0.0232048,0.017431,2.17715,5,0.1,34,0.7,3.76995,-1.98079,0.617676,0.325989,0.449858,-0.0427397,0.334591,0.461817,-0.0438616,0.00914418,0.649495,5,0.1,35,0.7,1.55172,3.64365,0.604133,-0.652987,-0.65034,-0.00134772,-0.755049,-0.752002,-0.00155345,0.0124945,2.21916,5,0.1,36,0.7,0.303143,3.8903,0.619667,0.0533029,-0.850332,-0.007137,0.0616014,-0.364393,-0.00822917,0.013155,2.33328,5,0.1,37,0.7,-1.83146,-4.17605,0.666554,0.845745,0.250721,-0.0162636,0.443034,0.290036,-0.0187792,0.0106582,2.2997,5,0.1,38,0.7,3.37458,2.84873,0.688544,-0.584691,0.0802547,0.0325918,0.730634,0.082463,0.0334308,0.0134201,1.64748,5,0.1,39,0.7,-1.3502,-3.02082,0.515411,0.242975,0.846054,0.00868998,0.280857,0.437766,0.0100508,0.011473,2.30182,5,0.1
0,0.8,3.68158,-3.40609,0.550157,0.0800788,0.866026,-0.000837445,0.0699759,0,0.00172853,0.0111761,2.26658,5,0.1,1,0.8,-2.51143,-3.51821,0.588134,0.852287,0.464004,0.00533611,0.274777,0.273108,0.00211596,0.0370617,2.1293,5,0.1,2,0.8,0.844039,-0.764688,0.599819,-0.694072,0.28192,0.000117719,-0.346243,0.140607,5.96046e-05,0.016788,0.710101,5,0.1,3,0.8,0.726003,2.81541,0.637519,-0.633204,-0.633609,-0.021103,0.141382,0.0960827,-0.00196695,0.0106395,1.73065,5,0.1,4,0.8,3.95807,-0.0150646,0.690247,-0.216019,0.866025,0.0196189,-0.136852,5.96046e-06,0.0124276,0.012249,2.23608,5,0.1,5,0.8,3.38088,3.6882,0.630723,-0.282186,-0.234282,-0.030221,-0.234723,-0.0488758,-0.00625849,0.00980798,0.29306,5,0.1,6,0.8,-0.669375,-3.15358,0.504937,-0.5505,0.785106,-0.0181168,-0.0785589,0.289679,0.0308752,0.0111269,1.45082,5,0.1,7,0.8,-0.282845,-0.624449,0.508747,-0.010407,0.378853,-0.0271976,-0.00520051,0.188977,0.028044,0.0180044,0.184309,5,0.1,8,0.8,0.121721,2.35938,0.611228,0.472176,0.0246108,-0.0068143,0.235554,0.0123978,-0.00339746,0.0127093,0.299151,5,0.1,9,0.8,-0.877446,-2.27955,0.582965,-0.2195,0.866026,0.00484139,-0.139177,0,0.00306964,0.0151515,2.2352,5,0.1,10,0.8,-3.85217,0.113011,0.569808,0.426,0.750471,0.0183195,0.21255,0.374377,0.00914931,0.0442304,0.942647,5,0.1,11,0.8,1.96713,-3.81289,0.664117,-0.123703,0.866026,-0.0128463,-0.0783801,0,-0.00816584,0.0255191,2.26002,5,0.1,12,0.8,-1.04838,-0.94567,0.695253,0.866026,0.279565,0.0237063,0,0.177234,0.0150204,0.0189615,2.21278,5,0.1,13,0.8,-2.6925,3.71974,0.6313,0.620711,-0.789261,-0.0122547,0.34821,-0.490904,-0.00974536,0.0167459,2.10449,5,0.1,14,0.8,-2.00764,3.47774,0.702629,0.00651479,-0.395864,0.0594854,-0.393271,0.106215,0.0770688,0.013051,1.01806,5,0.1,15,0.8,-2.05144,-1.16483,0.674985,0.384963,0.540429,-0.0344262,0.192165,0.269651,-0.0171661,0.0104957,0.558533,5,0.1,16,0.8,-1.94847,3.17858,0.626069,0.659749,0.410384,-0.0251248,0.329912,0.26083,-0.00971556,0.00896958,1.02322,5,0.1,17,0.8,-3.81324,-2.43709,0.587107,0.402391,0.477511,0.00782162,0.200748,0.238061,0.0039041,0.0186283,0.49345,5,0.1,18,0.8,1.57564,-2.1869,0.656147,-0.227907,0.234693,-0.0340611,-0.113666,0.117064,-0.0169873,0.01047,0.1369,5,0.1,19,0.8,3.6934,2.38157,0.639211,-0.420702,0.375175,-0.0237882,-0.209808,0.187159,-0.0118613,0.0295584,0.402746,5,0.1,20,0.8,-4.2944,-3.99677,0.545208,0.195003,0.866026,0.00931621,0.125408,0,0.00599027,0.0187179,2.24214,5,0.1,21,0.8,-3.28067,-3.29555,0.651107,0.446451,0.0348449,-0.0280827,-0.566244,0.103831,-0.0126958,0.0175309,3.02474,5,0.1,22,0.8,-2.41502,-0.465468,0.501211,0.464159,0.191387,-0.00629574,0.231504,0.0954866,0.0197291,0.0139374,0.321411,5,0.1,23,0.8,0.223465,-3.71514,0.650766,-0.377195,0.464314,-0.0305563,-0.0473183,-0.0551939,-0.015825,0.0154096,0.239647,5,0.1,24,0.8,-3.98879,-1.94754,0.621326,0.599927,0.180507,-0.0129476,0.299096,0.090003,-0.0064671,0.0300314,0.496761,5,0.1,25,0.8,-1.02539,-1.3595,0.616326,0.163269,0.639626,-0.0256896,-0.308394,-0.170887,-0.0587702,0.0159945,2.58648,5,0.1,26,0.8,-0.65169,0.127414,0.500117,0.395377,-0.259309,-0.000613928,0.197172,-0.129357,0.00196695,0.0106882,0.285364,5,0.1,27,0.8,-1.3908,2.72233,0.570386,0.314882,-0.866026,0.00990778,0.199676,0,0.00628829,0.01091,2.26093,5,0.1,28,0.8,-1.42268,0.608788,0.581278,-0.0779063,-0.866026,0.00642389,-0.0324845,2.98023e-05,0.00268221,0.0136252,2.27145,5,0.1,29,0.8,-3.9423,-3.60248,0.628705,0.866026,-0.142658,-0.00545681,0,-0.0903606,-0.00345707,0.0115276,2.25629,5,0.1,30,0.8,-3.41879,-0.990338,0.5893,0.0515163,0.866026,0.00464767,0.0325441,-2.98023e-05,0.00298023,0.017214,2.26986,5,0.1,31,0.8,-3.68195,3.71236,0.698326,0.82773,-0.577193,0.0227258,0.524879,-0.365973,0.0144243,0.0132026,2.06659,5,0.1,32,0.8,3.92237,-2.8771,0.696383,-0.0902712,0.866026,0.0102416,-0.0572205,0,0.0064373,0.0133759,2.26555,5,0.1,33,0.8,2.63899,3.14496,0.709741,-0.186205,-0.375658,0.0244275,-0.978112,-0.285625,0.0121593,0.0187729,1.75712,5,0.1,34,0.8,3.80399,-1.93381,0.613212,0.352228,0.486061,-0.0461772,0.175595,0.242591,-0.023067,0.00845651,0.458573,5,0.1,35,0.8,1.48306,3.57527,0.603991,-0.715166,-0.71227,-0.00147521,-0.453532,-0.451565,-0.000953674,0.0139369,2.04192,5,0.1,36,0.8,0.308747,3.80417,0.618917,0.0583746,-0.866026,-0.00781417,0.0369698,0,-0.00494719,0.0123324,2.26925,5,0.1,37,0.8,-1.7455,-4.14969,0.664844,0.866026,0.274611,-0.0178099,0,0.174046,-0.0112653,0.0118919,2.21473,5,0.1,38,0.8,3.32039,2.85711,0.691947,-0.493979,0.0867188,0.0352129,1.04392,0.043273,0.0175536,0.0145749,1.24617,5,0.1,39,0.8,-1.32465,-2.93485,0.516324,0.266102,0.866026,0.00951737,0.168562,-0.000119209,0.00602007,0.00917375,2.02627,5,0.1
0,0.9,3.68995,-3.31949,0.550082,0.0872735,0.866026,-0.000661984,0.067845,0,0.00175834,0.0111761,2.26658,5,0.1,1,0.9,-2.42536,-3.47052,0.588678,0.865167,0.488552,0.00555776,0.0343472,0.195593,0.00199676,0.0370617,2.1293,5,0.1,2,0.9,0.77298,-0.735825,0.599831,-0.725447,0.294661,0.000122655,-0.248019,0.100721,3.35276e-05,0.016788,0.710101,5,0.1,3,0.9,0.663958,2.75363,0.635432,-0.602398,-0.592325,-0.0203311,0.459872,0.682876,0.016205,0.0106395,1.73065,5,0.1,4,0.9,3.93576,0.071538,0.692273,-0.230153,0.866025,0.0209021,-0.131309,-1.49012e-06,0.0119172,0.012249,2.23608,5,0.1,5,0.9,3.35173,3.66466,0.627687,-0.298213,-0.235147,-0.030329,-0.0828654,0.0340939,0.00442192,0.00980798,0.29306,5,0.1,6,0.9,-0.724274,-3.07422,0.503293,-0.542277,0.795862,-0.014675,0.233062,-0.0765622,0.0368729,0.0111269,1.45082,5,0.1,7,0.9,-0.28391,-0.585663,0.506198,-0.0108782,0.395977,-0.0235245,-0.00372343,0.135362,0.0437051,0.0180044,0.184309,5,0.1,8,0.9,0.169851,2.36158,0.610522,0.487523,0.0167418,-0.00737011,0.062102,-0.150993,-0.00684708,0.0127093,0.299151,5,0.1,9,0.9,-0.90012,-2.19295,0.583465,-0.233878,0.866026,0.00515832,-0.133596,0,0.0029467,0.0151515,2.2352,5,0.1,10,0.9,-3.80856,0.189844,0.571684,0.44526,0.784395,0.0191485,0.15226,0.268164,0.00655279,0.0442304,0.942647,5,0.1,11,0.9,1.95435,-3.72628,0.66279,-0.131803,0.866026,-0.0136899,-0.0752881,0,-0.00783801,0.0255191,2.26002,5,0.1,12,0.9,-0.961782,-0.916828,0.697707,0.866026,0.296843,0.0254027,-3.72529e-06,0.151806,0.016991,0.0189615,2.21278,5,0.1,13,0.9,-2.62925,3.63841,0.629974,0.638658,-0.835717,-0.0146903,0.0107884,-0.395611,-0.0348911,0.0167459,2.10449,5,0.1,14,0.9,-2.00846,3.43791,0.708869,-0.0184953,-0.406957,0.0643945,-0.126332,-0.266507,0.0223406,0.013051,1.01806,5,0.1,15,0.9,-2.01203,-1.1095,0.67146,0.402374,0.564863,-0.0359816,0.137605,0.193141,-0.0122935,0.0104957,0.558533,5,0.1,16,0.9,-1.88217,3.21907,0.623336,0.654274,0.383101,-0.030922,-0.392206,-0.713021,-0.0940412,0.00896958,1.02322,5,0.1,17,0.9,-3.77204,-2.3882,0.587908,0.420581,0.499085,0.00817534,0.143781,0.170544,0.00279397,0.0186283,0.49345,5,0.1,18,0.9,1.55231,-2.16287,0.652659,-0.238207,0.245303,-0.0356006,-0.0814125,0.0838786,-0.0121705,0.01047,0.1369,5,0.1,19,0.9,3.65033,2.41998,0.636775,-0.439713,0.392137,-0.0248631,-0.150278,0.134081,-0.00849366,0.0295584,0.402746,5,0.1,20,0.9,-4.27424,-3.91017,0.546171,0.208272,0.866026,0.00995137,0.126123,0,0.00604987,0.0187179,2.24214,5,0.1,21,0.9,-3.23879,-3.29153,0.648235,0.395122,0.0456415,-0.0293289,-0.334457,0.106364,-0.0106879,0.0175309,3.02474,5,0.1,22,0.9,-2.3675,-0.445873,0.500678,0.485136,0.200039,-0.00437405,0.16579,0.0683982,0.018321,0.0139374,0.321411,5,0.1,23,0.9,0.185552,-3.66904,0.647634,-0.380273,0.456847,-0.0319952,-0.000465736,-0.107646,-0.0114664,0.0154096,0.239647,5,0.1,24,0.9,-3.92737,-1.92906,0.62,0.62703,0.188663,-0.013533,0.214219,0.0644848,-0.00461936,0.0300314,0.496761,5,0.1,25,0.9,-1.01068,-1.29555,0.613498,0.130319,0.645934,-0.0305016,-0.342868,0.22354,-0.036858,0.0159945,2.58648,5,0.1,26,0.9,-0.611212,0.100866,0.500065,0.413244,-0.271031,-0.000423566,0.141244,-0.0926573,0.00180304,0.0106882,0.285364,5,0.1,27,0.9,-1.35827,2.63625,0.57141,0.335528,-0.851204,0.0105582,0.192001,0.270426,0.00604987,0.01091,2.26093,5,0.1,28,0.9,-1.43054,0.522185,0.581934,-0.0785062,-0.866025,0.00669472,0.0189319,-3.8743e-06,0.00236928,0.0136252,2.27145,5,0.1,29,0.9,-3.85569,-3.61722,0.628142,0.866026,-0.151975,-0.00581341,0,-0.0864118,-0.00330433,0.0115276,2.25629,5,0.1,30,0.9,-3.41347,-0.903735,0.58978,0.0548705,0.866025,0.00495315,0.0310838,3.72529e-06,0.00282377,0.017214,2.26986,5,0.1,31,0.9,-3.59723,3.65274,0.700674,0.860447,-0.615112,0.02422,0.156,-0.353307,0.0139251,0.0132026,2.06659,5,0.1,32,0.9,3.91304,-2.79049,0.697441,-0.0961844,0.866026,0.0109083,-0.0549406,0,0.00620261,0.0133759,2.26555,5,0.1,33,0.9,2.61497,3.10618,0.712242,-0.297687,-0.397554,0.0255296,-1.18178,-0.142261,0.00870973,0.0187729,1.75712,5,0.1,34,0.9,3.84005,-1.88405,0.608484,0.368141,0.508041,-0.048267,0.125781,0.173725,-0.0165217,0.00845651,0.458573,5,0.1,35,0.9,1.40918,3.50169,0.603839,-0.762154,-0.759059,-0.00157356,-0.437789,-0.435963,-0.000916421,0.0139369,2.04192,5,0.1,36,0.9,0.314776,3.71757,0.61811,0.0621839,-0.866026,-0.00832416,0.035312,0,-0.00473112,0.0123324,2.26925,5,0.1,37,0.9,-1.6589,-4.12132,0.663004,0.866026,0.292602,-0.0189751,0,0.16731,-0.0108406,0.0118919,2.21473,5,0.1,38,0.9,3.27645,2.86599,0.695552,-0.383119,0.0906385,0.036804,1.14259,0.0309646,0.012584,0.0145749,1.24617,5,0.1,39,0.9,-1.29718,-2.84824,0.517307,0.282941,0.866024,0.0101192,0.15159,2.98023e-05,0.00541657,0.00917375,2.02627,5,0.1
0,1,3.69898,-3.23288,0.550024,0.0926197,0.866026,-0.000490248,0.0348091,0,0.00160933,0.0116305,2.26568,5,0.1,1,1,-2.33877,-3.42096,0.589242,0.866026,0.499439,0.0056833,0,0.00727177,0.000268221,0.0358266,2.19679,5,0.1,2,1,0.699579,-0.706011,0.599843,-0.738151,0.29982,0.00012368,0.0159144,-0.00649691,0,0.0193814,0.482897,5,0.1,3,1,0.606439,2.69846,0.633502,-0.54412,-0.505602,-0.018084,0.691593,1.01256,0.0276864,0.0105077,1.48673,5,0.1,4,1,3.91219,0.15814,0.694414,-0.239819,0.866026,0.0217795,-0.0520945,-7.15256e-06,0.00470877,0.0108848,2.23244,5,0.1,5,1,3.32177,3.64147,0.624696,-0.298423,-0.227129,-0.0292927,0.0793934,0.127077,0.0164211,0.00980783,0.271638,5,0.1,6,1,-0.776892,-2.99563,0.502012,-0.50592,0.769854,-0.0109345,0.483721,-0.441313,0.0371337,0.010955,1.14282,5,0.1,7,1,-0.285011,-0.545598,0.504078,-0.0110686,0.40291,-0.0187665,0.000223517,-0.00870228,0.0500679,0.0181354,0.126131,5,0.1,8,1,0.218567,2.36236,0.609751,0.483208,-0.00222921,-0.00803024,-0.153019,-0.213623,-0.00569224,0.0122724,0.204665,5,0.1,9,1,-0.924067,-2.10634,0.583993,-0.243722,0.866026,0.00537485,-0.0530779,0,0.00119209,0.0159516,2.23141,5,0.1,10,1,-3.76351,0.269209,0.573621,0.453055,0.798132,0.0194833,-0.00965595,-0.0172555,-0.000417233,0.040875,0.641034,5,0.1,11,1,1.94086,-3.63968,0.661388,-0.137353,0.866026,-0.0142679,-0.0299215,0,-0.00312924,0.0238113,2.25878,5,0.1,12,1,-0.875179,-0.886538,0.700323,0.866026,0.307152,0.0267774,0,0.0431538,0.00917912,0.0156635,2.20921,5,0.1,13,1,-2.56588,3.5533,0.628316,0.623238,-0.861436,-0.0185162,-0.315547,-0.0917912,-0.0384748,0.0142183,2.15705,5,0.1,14,1,-2.01063,3.39569,0.715339,-0.0222921,-0.438374,0.0642121,0.0345707,-0.315666,-0.0245273,0.0115656,0.797612,5,0.1,15,1,-1.97132,-1.05235,0.66782,0.409424,0.574759,-0.0366107,-0.00888109,-0.0124574,0.000804663,0.0126322,0.379815,5,0.1,16,1,-1.81957,3.25284,0.619718,0.590062,0.284612,-0.0417814,-0.851691,-1.1816,-0.113845,0.00811711,0.274988,5,0.1,17,1,-3.72949,-2.3377,0.588735,0.427949,0.50782,0.00831783,-0.00929832,-0.0109673,-0.000149012,0.0203417,0.340942,5,0.1,18,1,1.52821,-2.13805,0.649057,-0.242379,0.2496,-0.0362247,0.00530481,-0.00536442,0.000804663,0.0106893,0.157659,5,0.1,19,1,3.60584,2.45965,0.63426,-0.447404,0.399005,-0.0252977,0.00953674,-0.00870228,0.000536442,0.0294109,0.276507,5,0.1,20,1,-4.25287,-3.82357,0.547192,0.217867,0.866026,0.0104114,0.0562668,0,0.00274181,0.0157645,2.23858,5,0.1,21,1,-3.2,-3.28647,0.645262,0.390166,0.0551403,-0.0299618,0.215292,0.0793934,-0.00089407,0.0185785,2.8291,5,0.1,22,1,-2.31842,-0.425633,0.500328,0.493628,0.203543,-0.00269264,-0.0107288,-0.00438094,0.0150204,0.0120205,0.21937,5,0.1,23,1,0.147691,-3.62407,0.644395,-0.375018,0.440574,-0.0326052,0.114508,-0.22614,0.000298023,0.0168562,0.247161,5,0.1,24,1,-3.86393,-1.90997,0.618631,0.637996,0.191966,-0.0137687,-0.0138283,-0.00411272,0.000268221,0.0282234,0.33782,5,0.1,25,1,-0.999371,-1.22968,0.610304,0.0960723,0.671515,-0.0329763,-0.335991,0.233412,-0.0123978,0.0135204,2.4635,5,0.1,26,1,-0.5694,0.0734433,0.500031,0.420478,-0.275777,-0.00026077,-0.00911951,0.00596046,0.00149012,0.0124857,0.309467,5,0.1,27,1,-1.32391,2.55277,0.572491,0.349694,-0.815696,0.0110045,0.0765324,0.4282,0.00241399,0.0129288,2.37042,5,0.1,28,1,-1.43823,0.435583,0.582613,-0.0744373,-0.866025,0.00683665,0.0608563,-1.43051e-05,0.000208616,0.0107172,2.27126,5,0.1,29,1,-3.76909,-3.63278,0.627546,0.866026,-0.158328,-0.00605732,0,-0.0340939,-0.0012815,0.0108143,2.25478,5,0.1,30,1,-3.40786,-0.817133,0.590288,0.0571549,0.866026,0.00516027,0.0121593,0,0.00110269,0.0137579,2.26967,5,0.1,31,1,-3.51078,3.58974,0.703154,0.866026,-0.641239,0.0252485,0,-0.142336,0.00563264,0.0163648,2.01597,5,0.1,32,1,3.90319,-2.70389,0.698558,-0.100231,0.866026,0.0113666,-0.0219345,0,0.00244379,0.0133095,2.26489,5,0.1,33,1,2.57943,3.06601,0.714825,-0.410455,-0.402558,0.0259757,-1.02246,0.0478029,-0.000596046,0.0165034,1.40611,5,0.1,34,1,3.8773,-1.83265,0.603601,0.374585,0.516939,-0.0491127,-0.00810623,-0.0111461,0.00104308,0.00922663,0.311843,5,0.1,35,1,1.33112,3.42395,0.603678,-0.79453,-0.791299,-0.00164062,-0.176251,-0.175476,-0.00038743,0.0114164,1.95383,5,0.1,36,1,0.321142,3.63097,0.617258,0.0647768,-0.866026,-0.00867099,0.0138432,0,-0.00187755,0.0132419,2.269,5,0.1,37,1,-1.5723,-4.09136,0.661061,0.866026,0.304937,-0.0197738,-5.96046e-05,0.0665188,-0.00435114,0.0120579,2.20868,5,0.1,38,1,3.24381,2.87516,0.699276,-0.27082,0.0922203,0.0374496,1.08051,-0.00202656,-0.000834465,0.0198166,0.930459,5,0.1,39,1,-1.26827,-2.76164,0.518341,0.293618,0.866026,0.0105008,0.0506639,0,0.00181794,0.00835126,1.57239,5,0.1
0,1.1,3.70843,-3.14628,0.549983,0.0964958,0.866026,-0.000337884,0.0368208,0,0.00142306,0.0116305,2.26568,5,0.1,1,1.1,-2.25217,-3.37171,0.589813,0.866026,0.478908,0.00574868,0,-0.39199,0.000707805,0.0358266,2.19679,5,0.1,2,1.1,0.625875,-0.676075,0.599855,-0.734918,0.298505,0.000123028,0.0757612,-0.0307895,-1.86265e-05,0.0193814,0.482897,5,0.1,3,1.1,0.554766,2.65312,0.631833,-0.495363,-0.400186,-0.0152685,0.329487,1.07393,0.0283644,0.0105077,1.48673,5,0.1,4,1.1,3.8879,0.244743,0.69662,-0.24612,0.866025,0.0223499,-0.059709,-1.78814e-06,0.00540167,0.0108848,2.23244,5,0.1,5,1.1,3.29273,3.61943,0.621854,-0.278575,-0.213099,-0.0274808,0.301123,0.156075,0.0201501,0.00980783,0.271638,5,0.1,6,1.1,-0.825198,-2.92116,0.501099,-0.461157,0.716702,-0.0073988,0.425335,-0.619963,0.0330061,0.010955,1.14282,5,0.1,7,1.1,-0.286116,-0.505368,0.502453,-0.0110213,0.401143,-0.0137676,0.0011269,-0.0413675,0.0489056,0.0181354,0.126131,5,0.1,8,1.1,0.266234,2.36126,0.608925,0.470688,-0.0179004,-0.00842502,-0.119033,-0.105456,-0.00206754,0.0122724,0.204665,5,0.1,9,1.1,-0.948755,-2.01974,0.584538,-0.250165,0.866026,0.00551855,-0.0612549,0,0.00136718,0.0159516,2.23141,5,0.1,10,1.1,-3.71827,0.348902,0.575566,0.451079,0.794631,0.0193979,-0.0464171,-0.0819509,-0.00200048,0.040875,0.641034,5,0.1,11,1.1,1.92694,-3.55308,0.659943,-0.141003,0.866026,-0.0146489,-0.0348687,0,-0.00363216,0.0238113,2.25878,5,0.1,12,1.1,-0.788577,-0.855632,0.703064,0.866026,0.310407,0.0281523,-3.72529e-06,0.0099428,0.0158809,0.0156635,2.20921,5,0.1,13,1.1,-2.50535,3.46688,0.626216,0.5852,-0.865362,-0.0239232,-0.44696,0.00360608,-0.0641756,0.0142183,2.15705,5,0.1,14,1.1,-2.01246,3.34995,0.721597,-0.012381,-0.478346,0.0605638,0.149146,-0.436381,-0.0477023,0.0115656,0.797612,5,0.1,15,1.1,-1.93044,-0.994957,0.664164,0.407625,0.572235,-0.0364489,-0.0420883,-0.0590384,0.00377372,0.0126322,0.379815,5,0.1,16,1.1,-1.76456,3.27528,0.614793,0.512391,0.16397,-0.058046,-0.715993,-1.19938,-0.195034,0.00811711,0.274988,5,0.1,17,1.1,-3.68673,-2.28721,0.589562,0.426962,0.49944,0.00817627,-0.0280887,-0.161543,-0.00274926,0.0203417,0.340942,5,0.1,18,1.1,1.50384,-2.11295,0.645415,-0.246136,0.253478,-0.0367854,-0.0606626,0.0625849,-0.00906736,0.0106893,0.157659,5,0.1,19,1.1,3.56126,2.49937,0.631723,-0.442862,0.393773,-0.0254748,0.0919104,-0.102803,-0.0025183,0.0294109,0.276507,5,0.1,20,1.1,-4.23075,-3.73696,0.548249,0.224663,0.866026,0.0107415,0.0660717,0,0.0032112,0.0157645,2.23858,5,0.1,21,1.1,-3.15856,-3.28055,0.642259,0.449482,0.0630472,-0.030087,0.863671,0.0739545,-0.000242144,0.0185785,2.8291,5,0.1,22,1.1,-2.26913,-0.40531,0.500127,0.491457,0.202652,-0.00140285,-0.0507534,-0.0208858,0.0107177,0.0120205,0.21937,5,0.1,23,1.1,0.110763,-3.58097,0.641137,-0.363235,0.422445,-0.0325013,0.132551,-0.157729,0.00298023,0.0168562,0.247161,5,0.1,24,1.1,-3.80023,-1.89081,0.617256,0.635195,0.191127,-0.0137102,-0.0655353,-0.019677,0.00140071,0.0282234,0.33782,5,0.1,25,1.1,-0.990929,-1.16048,0.606996,0.0772515,0.719198,-0.03271,-0.066489,0.630297,0.0161715,0.0135204,2.4635,5,0.1,26,1.1,-0.527278,0.0459071,0.500012,0.422527,-0.274568,-0.00013411,0.0260584,0.0283158,0.00104308,0.0124857,0.309467,5,0.1,27,1.1,-1.28849,2.47387,0.573606,0.358965,-0.760861,0.0112968,0.0880584,0.536531,0.00277907,0.0129288,2.37042,5,0.1,28,1.1,-1.44534,0.34898,0.583298,-0.0675365,-0.866025,0.00686022,0.0765324,1.78814e-06,-4.09782e-05,0.0107172,2.27126,5,0.1,29,1.1,-3.68249,-3.64881,0.626933,0.866026,-0.162419,-0.00621201,0,-0.0384301,-0.00145659,0.0108143,2.25478,5,0.1,30,1.1,-3.40207,-0.73053,0.59081,0.0586089,0.866026,0.00529122,0.013575,-3.72529e-06,0.00121444,0.0137579,2.26967,5,0.1,31,1.1,-3.42418,3.52476,0.705713,0.865814,-0.658791,0.0259418,-0.00844896,-0.169665,0.00669807,0.0163648,2.01597,5,0.1,32,1.1,3.89304,-2.61729,0.699709,-0.102904,0.866026,0.0116669,-0.0255108,0,0.00287592,0.0133095,2.26489,5,0.1,33,1.1,2.53318,3.02657,0.717418,-0.514054,-0.381136,0.0258591,-0.996217,0.354022,-0.00268966,0.0165034,1.40611,5,0.1,34,1.1,3.9147,-1.78103,0.598697,0.372943,0.514673,-0.0488986,-0.0384301,-0.0530928,0.00503287,0.00922663,0.311843,5,0.1,35,1.1,1.25061,3.34376,0.603511,-0.816345,-0.813023,-0.00168728,-0.211515,-0.210643,-0.00045076,0.0114164,1.95383,5,0.1,36,1.1,0.327702,3.54437,0.61638,0.0664331,-0.866026,-0.00889497,0.0154972,0,-0.00208989,0.0132419,2.269,5,0.1,37,1.1,-1.48569,-4.06047,0.659058,0.866025,0.313037,-0.0203024,1.49012e-05,0.0772178,-0.00503287,0.0120579,2.20868,5,0.1,38,1.1,3.22188,2.88437,0.703015,-0.170699,0.0918116,0.0372837,0.907734,-0.00952184,-0.00385568,0.0198166,0.930459,5,0.1,39,1.1,-1.23865,-2.67504,0.5194,0.29835,0.865882,0.0106706,0.0306815,-0.00573695,0.00109896,0.00835126,1.57239,5,0.1
0,1.2,3.71823,-3.05968,0.549956,0.0989795,0.866026,-0.000205636,0.00882149,0,0.00116229,0.0122005,2.26548,5,0.1,1,1.2,-2.16557,-3.32626,0.59039,0.866026,0.425875,0.00576675,0,-0.646234,-0.000536442,0.0318245,0.474976,5,0.1,2,1.2,0.55304,-0.646491,0.599868,-0.718524,0.291844,0.000120699,0.26992,-0.109613,-8.9407e-05,0.0226237,1.25041,5,0.1,3,1.2,0.506589,2.61842,0.630448,-0.470141,-0.294656,-0.0124604,0.209793,1.01984,0.0275671,0.00743111,0.792902,5,0.1,4,1.2,3.86307,0.331346,0.698874,-0.24935,0.866025,0.0226423,0.005126,1.43051e-05,-0.000476837,0.0107335,2.23183,5,0.1,5,1.2,3.26663,3.59897,0.619215,-0.241226,-0.195533,-0.0252128,0.431776,0.196695,0.025332,0.010265,0.258439,5,0.1,6,1.2,-0.869192,-2.85287,0.500514,-0.418518,0.646418,-0.00442266,0.437021,-0.781894,0.0261962,0.0101715,0.906812,5,0.1,7,1.2,-0.287209,-0.465612,0.501312,-0.0107765,0.392193,-0.00915378,0.00405312,-0.147328,0.0426769,0.018441,0.26949,5,0.1,8,1.2,0.312619,2.35909,0.608079,0.455733,-0.0243783,-0.00842363,-0.195116,-0.0288486,0.00211596,0.0118467,0.162924,5,0.1,9,1.2,-0.973994,-1.93314,0.585095,-0.25351,0.866026,0.00559241,0.00441074,-5.96046e-05,-8.9407e-05,0.0149263,2.23065,5,0.1,10,1.2,-3.67357,0.427655,0.577489,0.441021,0.776901,0.0189647,-0.165701,-0.29184,-0.00712276,0.0407802,0.426251,5,0.1,11,1.2,1.91272,-3.46648,0.658465,-0.142932,0.866026,-0.0148505,0.00208616,0,0.000208616,0.023159,2.25848,5,0.1,12,1.2,-0.701974,-0.824676,0.705953,0.866026,0.307152,0.0295341,0,-0.0828505,0.00995398,0.0113153,2.13837,5,0.1,13,1.2,-2.44929,3.38052,0.623497,0.533748,-0.86,-0.0303939,-0.581503,0.12064,-0.0610948,0.0151075,2.26068,5,0.1,14,1.2,-2.01286,3.30005,0.727382,0.00495315,-0.517499,0.0548244,0.186205,-0.312448,-0.0662506,0.00977878,0.604601,5,0.1,15,1.2,-1.89004,-0.938245,0.660552,0.398526,0.559466,-0.0356346,-0.149727,-0.210166,0.0133812,0.0112302,0.252556,5,0.1,16,1.2,-1.71677,3.28587,0.607991,0.444403,0.0502467,-0.0779197,-0.654042,-1.05155,-0.190139,0.0122121,0.217589,5,0.1,17,1.2,-3.64432,-2.23836,0.590361,0.41939,0.474864,0.00776052,-0.135422,-0.331521,-0.00557303,0.0177111,0.243754,5,0.1,18,1.2,1.47895,-2.08731,0.641695,-0.251108,0.258613,-0.0375286,-0.0246167,0.0253916,-0.00366569,0.0126159,0.0939182,5,0.1,19,1.2,3.51764,2.53804,0.629169,-0.42733,0.377399,-0.0255346,0.225067,-0.228286,0.00244379,0.031371,0.198057,5,0.1,20,1.2,-4.20803,-3.65036,0.549336,0.228763,0.866026,0.0109419,0.00667572,0,0.000357628,0.0173069,2.23733,5,0.1,21,1.2,-3.10895,-3.27392,0.639259,0.544029,0.0691116,-0.029777,0.946045,0.0442266,0.00730157,0.0220732,2.27277,5,0.1,22,1.2,-2.22042,-0.385226,0.500033,0.480485,0.198132,-0.000546873,-0.180483,-0.0744164,0.0063777,0.0113107,0.146705,5,0.1,23,1.2,0.075208,-3.53955,0.637914,-0.346621,0.405389,-0.0318095,0.207193,-0.198364,0.0116527,0.0158612,0.284901,5,0.1,24,1.2,-3.73728,-1.87186,0.615897,0.621021,0.186867,-0.0134036,-0.233412,-0.0701547,0.00500679,0.00923927,0.554245,5,0.1,25,1.2,-0.983268,-1.08536,0.603842,0.0781074,0.781929,-0.0300363,0.0630021,0.55784,0.0359118,0.0132872,2.3104,5,0.1,26,1.2,-0.484998,0.0186959,0.500003,0.4216,-0.268441,-5.21541e-05,-0.0614375,0.100841,0.000596046,0.0119947,0.273736,5,0.1,27,1.2,-1.25227,2.4,0.574746,0.363776,-0.721329,0.0114486,-0.00631809,0.256658,-0.000178814,0.0115527,2.37268,5,0.1,28,1.2,-1.45169,0.262377,0.583981,-0.0592619,-0.866025,0.00677854,0.0882149,0,-0.00181794,0.0103199,2.27143,5,0.1,29,1.2,-3.59589,-3.66519,0.626307,0.866026,-0.164437,-0.00628978,0,0.00452995,0.000208616,0.0131421,2.25465,5,0.1,30,1.2,-3.39616,-0.643928,0.591343,0.0593066,0.866026,0.0053525,-0.00190735,0,-0.000178814,0.0136774,2.47552,5,0.1,31,1.2,-3.33771,3.45825,0.708332,0.862646,-0.66855,0.0263274,-0.0674725,0.00166893,-5.96046e-05,0.0146189,1.6834,5,0.1,32,1.2,3.88266,-2.53069,0.700887,-0.104314,0.866026,0.0118271,0.00143051,0,-0.000178814,0.0137871,2.26473,5,0.1,33,1.2,2.47719,2.99055,0.719981,-0.600636,-0.33651,0.0252798,-0.69809,0.517964,-0.00947714,0.0197829,1.36472,5,0.1,34,1.2,3.95166,-1.73002,0.593851,0.364619,0.503185,-0.0478074,-0.136852,-0.189006,0.017941,0.00829325,0.207356,5,0.1,35,1.2,1.16818,3.26167,0.603341,-0.828597,-0.825226,-0.00171512,0.000357628,0.000357628,2.98023e-05,0.0110444,1.93031,5,0.1,36,1.2,0.3344,3.45776,0.615483,0.0672355,-0.866026,-0.00900328,-0.00208616,0,0.000238419,0.0200374,2.2793,5,0.1,37,1.2,-1.39909,-4.02888,0.657009,0.866026,0.317299,-0.0205815,-5.96046e-05,-0.00500679,0.000298023,0.0116722,2.20733,5,0.1,38,1.2,3.20897,2.89347,0.70671,-0.0914097,0.0897586,0.0364512,0.67091,-0.0337362,-0.0136793,0.0159136,0.900822,5,0.1,39,1.2,-1.20879,-2.58853,0.520468,0.297534,0.863731,0.0106424,-0.0558496,-0.0460148,-0.00199676,0.00909066,1.18533,5,0.1
0,1.3,3.72819,-2.97307,0.549936,0.100269,0.866026,-0.000227802,0.011608,0,-0.0013262,0.0122005,2.26548,5,0.1,1,1.3,-2.07923,-3.28719,0.590966,0.857559,0.35331,0.00576237,-0.187077,-0.784263,0.000115484,0.0318245,0.474976,5,0.1,2,1.3,0.482038,-0.617373,0.599879,-0.705176,0.294343,0.000112224,0.0489934,0.120901,-7.82311e-05,0.0226237,1.25041,5,0.1,3,1.3,0.461892,2.59454,0.629405,-0.412862,-0.17947,-0.0078571,0.86778,1.23371,0.0599958,0.00743111,0.792902,5,0.1,4,1.3,3.83809,0.417948,0.701142,-0.250505,0.866025,0.0227462,-0.0141412,-3.57628e-06,0.00127777,0.0107335,2.23183,5,0.1,5,1.3,3.24479,3.58033,0.616812,-0.19463,-0.177712,-0.0229175,0.488266,0.165835,0.0213571,0.010265,0.258439,5,0.1,6,1.3,-0.909351,-2.79161,0.500189,-0.388701,0.582955,-0.00221552,0.193771,-0.522181,0.0179745,0.0101715,0.906812,5,0.1,7,1.3,-0.288243,-0.427543,0.500852,-0.00971681,0.365427,0.00195913,0.0160132,-0.373058,0.163384,0.018441,0.26949,5,0.1,8,1.3,0.356804,2.3566,0.60725,0.424265,-0.0243872,-0.00813613,-0.417076,0.0242591,0.00375137,0.0118467,0.162924,5,0.1,9,1.3,-0.999393,-1.84654,0.585655,-0.25481,0.866025,0.00562146,-0.0159591,1.49012e-05,0.000357628,0.0149263,2.23065,5,0.1,10,1.3,-3.63027,0.503917,0.579351,0.42464,0.748051,0.0182603,-0.175595,-0.309302,-0.00755116,0.0407802,0.426251,5,0.1,11,1.3,1.89839,-3.37987,0.656976,-0.143743,0.866026,-0.0149353,-0.0100806,0,-0.00105426,0.023159,2.25848,5,0.1,12,1.3,-0.615371,-0.794219,0.708951,0.866026,0.303042,0.0303565,-3.72529e-06,-0.0189133,0.00531226,0.0113153,2.13837,5,0.1,13,1.3,-2.3986,3.29465,0.620114,0.481973,-0.860432,-0.0375022,-0.47195,-0.0706762,-0.0756048,0.0151075,2.26068,5,0.1,14,1.3,-2.01135,3.24663,0.732524,0.0256713,-0.550996,0.0479447,0.217304,-0.320569,-0.0709593,0.00977878,0.604601,5,0.1,15,1.3,-1.85092,-0.883327,0.657054,0.383724,0.53869,-0.0343115,-0.158697,-0.222735,0.0141822,0.0112302,0.252556,5,0.1,16,1.3,-1.67506,3.28634,0.599198,0.394595,-0.0342645,-0.0981177,-0.37472,-0.65282,-0.201661,0.0122121,0.217589,5,0.1,17,1.3,-3.60305,-2.19272,0.591106,0.405878,0.436114,0.00711726,-0.148222,-0.440389,-0.00725314,0.0177111,0.243754,5,0.1,18,1.3,1.45368,-2.0613,0.637919,-0.254091,0.261689,-0.0379737,-0.0223517,0.023067,-0.00333786,0.0126159,0.0939182,5,0.1,19,1.3,3.47611,2.57447,0.626606,-0.402257,0.349789,-0.0258795,0.281468,-0.32185,-0.00702962,0.031371,0.198057,5,0.1,20,1.3,-4.18506,-3.56376,0.550435,0.231095,0.866026,0.0110571,0.0263453,0,0.00129268,0.0173069,2.23733,5,0.1,21,1.3,-3.04931,-3.26679,0.636315,0.651599,0.0732981,-0.0290922,1.12309,0.0356734,0.00752136,0.0220732,2.27277,5,0.1,22,1.3,-2.17326,-0.365776,0.500004,0.462643,0.190775,-8.49366e-05,-0.191286,-0.0788756,0.00306219,0.0113107,0.146705,5,0.1,23,1.3,0.0415495,-3.4998,0.63479,-0.326627,0.390944,-0.0306559,0.202245,-0.113264,0.0124089,0.0158612,0.284901,5,0.1,24,1.3,-3.67755,-1.85293,0.614665,0.563038,0.196839,-0.0105194,-0.867605,0.225879,0.047747,0.00923927,0.554245,5,0.1,25,1.3,-0.974885,-1.00453,0.601034,0.0916049,0.832245,-0.0259969,0.185631,0.413086,0.0439882,0.0132872,2.3104,5,0.1,26,1.3,-0.443684,-0.00737442,0.5,0.399793,-0.250506,-7.82311e-06,-0.355715,0.248499,0.000298023,0.0119947,0.273736,5,0.1,27,1.3,-1.21583,2.32803,0.575893,0.365491,-0.726822,0.0115043,0.0202358,-0.275075,0.000648201,0.0115527,2.37268,5,0.1,28,1.3,-1.45718,0.175775,0.584652,-0.0506744,-0.866025,0.00663651,0.0837147,-1.19209e-06,-0.00133738,0.0103199,2.27143,5,0.1,29,1.3,-3.50928,-3.68165,0.625677,0.866026,-0.165018,-0.00630952,0,-0.00706315,-0.00025332,0.0131421,2.25465,5,0.1,30,1.3,-3.39022,-0.558036,0.591879,0.0594676,0.844999,0.00536591,0.00190735,-0.408812,0.000156462,0.0136774,2.47552,5,0.1,31,1.3,-3.2515,3.39128,0.710969,0.863057,-0.671154,0.0264303,0.0307262,-0.0194013,0.000763685,0.0146189,1.6834,5,0.1,32,1.3,3.8722,-2.44408,0.702072,-0.104916,0.866026,0.0118947,-0.00743568,0,0.000849366,0.0137871,2.26473,5,0.1,33,1.3,2.41354,2.95974,0.722619,-0.672033,-0.278248,0.0287878,-0.67848,0.612423,0.0689737,0.0197829,1.36472,5,0.1,34,1.3,3.98745,-1.68063,0.589158,0.351089,0.4845,-0.0460333,-0.145093,-0.200339,0.0190251,0.00829325,0.207356,5,0.1,35,1.3,1.08528,3.17904,0.603166,-0.828987,-0.827666,-0.00180062,0.0277609,-0.00882149,-0.00147521,0.0110444,1.93031,5,0.1,36,1.3,0.34133,3.37117,0.614578,0.0731065,-0.865766,-0.00912007,0.103226,0.0103861,-0.001885,0.0200374,2.2793,5,0.1,37,1.3,-1.31249,-3.99709,0.654947,0.866025,0.319019,-0.0206953,1.49012e-05,0.0212193,-0.00139326,0.0116722,2.20733,5,0.1,38,1.3,3.20287,2.90228,0.710289,-0.0342499,0.086423,0.0350989,0.451371,-0.0357628,-0.0144988,0.0159136,0.900822,5,0.1,39,1.3,-1.1793,-2.50218,0.521523,0.291971,0.864128,0.0104436,-0.0662282,0.014782,-0.00236556,0.00909066,1.18533,5,0.1
0,1.4,3.73824,-2.88647,0.549905,0.100392,0.866026,-0.000420213,-0.0128746,0,-0.00235438,0.011064,2.26607,5,0.1,1,1.4,-1.99484,-3.25586,0.591541,0.825837,0.272751,0.00573248,-0.457287,-0.810146,-0.000953674,0.0324225,1.00961,5,0.1,2,1.4,0.411751,-0.587215,0.59989,-0.699747,0.309248,0.000104308,0.097394,0.148147,-8.9407e-05,0.0194315,0.752856,5,0.1,3,1.4,0.425566,2.58277,0.628942,-0.308827,-0.0567198,-0.00126064,1.15852,1.18327,0.0685155,0.00761861,0.423729,5,0.1,4,1.4,3.81304,0.504551,0.703417,-0.249791,0.866026,0.0226811,0.0383854,0,-0.00348687,0.0103225,2.23294,5,0.1,5,1.4,3.22779,3.56338,0.614625,-0.14568,-0.161332,-0.020808,0.481486,0.166059,0.0214279,0.0107683,0.256895,5,0.1,6,1.4,-0.947421,-2.73573,0.500044,-0.37373,0.535899,-0.000807643,0.131547,-0.44477,0.0104308,0.00906653,0.707616,5,0.1,7,1.4,-0.289123,-0.393135,0.501954,-0.00777841,0.320376,0.0206485,0.0218153,-0.514939,0.197828,0.00744519,0.601966,5,0.1,8,1.4,0.396895,2.35434,0.606458,0.375421,-0.0203371,-0.00765473,-0.545964,0.0531673,0.00590086,0.0114509,0.270783,5,0.1,9,1.4,-1.02489,-1.75993,0.586218,-0.25425,0.866026,0.0056088,0.0372529,-5.96046e-05,-0.000834465,0.0142388,2.23159,5,0.1,10,1.4,-3.5888,0.576987,0.581134,0.403619,0.71103,0.0173569,-0.253797,-0.447094,-0.0109375,0.0364178,0.280566,5,0.1,11,1.4,1.884,-3.29327,0.655481,-0.143546,0.866026,-0.0149161,0.0197887,0,0.00208616,0.0222067,2.25871,5,0.1,12,1.4,-0.528769,-0.764036,0.711998,0.866026,0.300007,0.0304013,0,-0.0558496,-0.0051856,0.0129665,1.77286,5,0.1,13,1.4,-2.3527,3.20833,0.615999,0.43627,-0.86416,-0.0445679,-0.454903,0.0373125,-0.0617504,0.0152261,2.2817,5,0.1,14,1.4,-2.00772,3.19017,0.736959,0.0465214,-0.575346,0.04071,0.191689,-0.140786,-0.0732839,0.00829076,0.438523,5,0.1,15,1.4,-1.81344,-0.830708,0.653702,0.36473,0.512029,-0.0326127,-0.229418,-0.321954,0.0204742,0.011767,0.166236,5,0.1,16,1.4,-1.63723,3.28021,0.588441,0.363725,-0.0830412,-0.116169,-0.267506,-0.335932,-0.15071,0.0199328,0.937837,5,0.1,17,1.4,-3.56331,-2.15146,0.591779,0.38752,0.387466,0.00632107,-0.227928,-0.528812,-0.00867248,0.0178301,0.172777,5,0.1,18,1.4,1.42825,-2.0351,0.634118,-0.253448,0.261027,-0.0378773,0.0439882,-0.0450611,0.00655651,0.0103928,0.158926,5,0.1,19,1.4,3.43742,2.6077,0.623983,-0.370276,0.313509,-0.0265419,0.360966,-0.40102,-0.00450015,0.0293775,0.251809,5,0.1,20,1.4,-4.16187,-3.47716,0.551545,0.231731,0.866026,0.0110909,-0.023365,0,-0.00110269,0.0161837,2.23745,5,0.1,21,1.4,-2.9788,-3.25932,0.633452,0.75447,0.0756085,-0.0280842,0.874996,0.00798702,0.0133514,0.0183733,1.7571,5,0.1,22,1.4,-2.12807,-0.347141,0.500006,0.439745,0.181334,0.000104308,-0.276446,-0.114024,0.000864267,0.0108416,0.166645,5,0.1,23,1.4,0.00995323,-3.46129,0.631795,-0.304578,0.378835,-0.0291631,0.245109,-0.145078,0.0181496,0.0165506,0.248606,5,0.1,24,1.4,-3.62623,-1.83192,0.613889,0.458133,0.224349,-0.00473261,-1.18268,0.291109,0.0641346,0.00735907,0.315145,5,0.1,25,1.4,-0.964738,-0.919683,0.598661,0.111492,0.85977,-0.021401,0.19598,0.12511,0.0471771,0.0143469,2.26146,5,0.1,26,1.4,-0.405837,-0.0310038,0.500001,0.354006,-0.220503,8.9407e-06,-0.543535,0.343321,0.000119209,0.0120199,0.257439,5,0.1,27,1.4,-1.17927,2.25372,0.577043,0.364363,-0.760359,0.0114709,-0.0570416,-0.32711,-0.00181794,0.0107742,2.2736,5,0.1,28,1.4,-1.46184,0.0891724,0.585307,-0.0424951,-0.866026,0.00645667,0.0799894,5.96046e-06,-0.00244379,0.0118648,2.32837,5,0.1,29,1.4,-3.42268,-3.69815,0.625047,0.866026,-0.164306,-0.00628084,0,0.0277758,0.00104308,0.00916032,2.25532,5,0.1,30,1.4,-3.38428,-0.476171,0.592415,0.0591338,0.786693,0.00533462,-0.0106096,-0.744716,-0.00101328,0.0131128,2.36341,5,0.1,31,1.4,-3.16518,3.32427,0.713608,0.86143,-0.666624,0.0262529,-0.0919104,0.133634,-0.00530481,0.016743,1.22145,5,0.1,32,1.4,3.8617,-2.35748,0.703263,-0.104779,0.866026,0.0118792,0.0143051,0,-0.00157952,0.0117306,2.26485,5,0.1,33,1.4,2.34332,2.93491,0.7259,-0.727618,-0.219494,0.0371888,-0.397444,0.542998,0.0908077,0.0219415,1.09346,5,0.1,34,1.4,4.02175,-1.6333,0.584661,0.333726,0.460517,-0.0437558,-0.210047,-0.289559,0.0275373,0.00873589,0.136483,5,0.1,35,1.4,1.0028,3.09648,0.602978,-0.817026,-0.82019,-0.00196248,0.235677,0.186205,-0.00157952,0.0138612,2.21432,5,0.1,36,1.4,0.34922,3.28472,0.613658,0.0850148,-0.861865,-0.00926405,0.122592,0.0829697,-0.000447035,0.0156936,2.44616,5,0.1,37,1.4,-1.22589,-3.96516,0.652876,0.866026,0.318456,-0.0206605,-5.96046e-05,-0.0452995,0.00295043,0.0109895,2.2086,5,0.1,38,1.4,3.20122,2.91072,0.713717,-0.00367165,0.0821471,0.0333637,0.155568,-0.051856,-0.020951,0.0162208,1.80995,5,0.1,39,1.4,-1.15052,-2.41585,0.522552,0.282487,0.860459,0.0101045,-0.130653,-0.11158,-0.00464916,0.00929703,0.865044,5,0.1
0,1.5,3.74825,-2.79987,0.549844,0.0998802,0.866026,-0.000856724,-0.00289083,0,-0.00583008,0.011064,2.26607,5,0.1,1,1.5,-1.91396,-3.23257,0.592111,0.795901,0.194015,0.00566272,-0.196673,-0.75151,-0.00070408,0.0324225,1.00961,5,0.1,2,1.5,0.342353,-0.555407,0.599908,-0.686808,0.327691,0.000332296,0.180665,0.19481,0.00412017,0.0194315,0.752856,5,0.1,3,1.5,0.400245,2.58252,0.629212,-0.200113,0.0467427,0.00704769,1.00724,0.882864,0.0922233,0.00761861,0.423729,5,0.1,4,1.5,3.78817,0.591153,0.705675,-0.248015,0.866026,0.0225195,0.0110567,-3.72529e-06,-0.0010021,0.0103225,2.23294,5,0.1,5,1.5,3.21555,3.54807,0.612651,-0.0999745,-0.144744,-0.0186677,0.426427,0.167221,0.0215732,0.0107683,0.256895,5,0.1,6,1.5,-0.984416,-2.68386,0.500005,-0.368218,0.505755,-6.4075e-05,0.00721961,-0.19826,0.00480562,0.00906653,0.707616,5,0.1,7,1.5,-0.289551,-0.364664,0.504805,0.0012246,0.240805,0.0344957,0.142574,-1.01052,0.0850745,0.00744519,0.601966,5,0.1,8,1.5,0.431392,2.35266,0.60572,0.31255,-0.012755,-0.00712806,-0.666399,0.0925213,0.00491366,0.0114509,0.270783,5,0.1,9,1.5,-1.05021,-1.67333,0.586776,-0.252685,0.866025,0.00557331,0.00838935,1.49012e-05,-0.00019744,0.0142388,2.23159,5,0.1,10,1.5,-3.54965,0.645941,0.582817,0.37941,0.668383,0.0163139,-0.241861,-0.42605,-0.0104196,0.0364178,0.280566,5,0.1,11,1.5,1.8697,-3.20667,0.653995,-0.14284,0.866026,-0.0148402,0.0025928,0,0.000294298,0.0222067,2.25871,5,0.1,12,1.5,-0.442363,-0.734898,0.715114,0.859563,0.277592,0.0327403,-0.151459,-0.365902,0.0445023,0.0129665,1.77286,5,0.1,13,1.5,-2.31061,3.12194,0.61126,0.411572,-0.864608,-0.0499051,-0.0890195,-0.0160933,-0.0429824,0.0152261,2.2817,5,0.1,14,1.5,-2.0021,3.1319,0.74067,0.0657389,-0.589628,0.0335984,0.184394,-0.115559,-0.0687912,0.00829076,0.438523,5,0.1,15,1.5,-1.77807,-0.781052,0.65054,0.342847,0.481319,-0.0306592,-0.218607,-0.3068,0.0195242,0.011767,0.166236,5,0.1,16,1.5,-1.60177,3.2714,0.576364,0.348992,-0.0830542,-0.122688,-0.060603,0.275359,0.0110939,0.0199328,0.937837,5,0.1,17,1.5,-3.52567,-2.11502,0.592374,0.365277,0.344208,0.00561289,-0.227183,-0.357047,-0.00582635,0.0178301,0.172777,5,0.1,18,1.5,1.40329,-2.00924,0.630366,-0.244288,0.255821,-0.0371207,0.138193,-0.0671744,0.00974908,0.0103928,0.158926,5,0.1,19,1.5,3.40204,2.63697,0.621283,-0.338462,0.271113,-0.0276146,0.288829,-0.442088,-0.0143051,0.0293775,0.251809,5,0.1,20,1.5,-4.13874,-3.39055,0.552652,0.231449,0.866026,0.011079,0.00408292,0,0.000216067,0.0161837,2.23745,5,0.1,21,1.5,-2.89949,-3.25173,0.630707,0.825971,0.0762381,-0.0268246,0.534728,0.00154972,0.0127591,0.0183733,1.7571,5,0.1,22,1.5,-2.08519,-0.329461,0.500019,0.419918,0.173157,0.000125542,-0.147343,-0.0607688,-0.000312924,0.0108416,0.166645,5,0.1,23,1.5,-0.0193329,-3.42453,0.628966,-0.281474,0.352578,-0.0274312,0.225068,-0.365272,0.0173151,0.0165506,0.248606,5,0.1,24,1.5,-3.58642,-1.80777,0.613757,0.337575,0.260301,0.00222474,-1.20445,0.393577,0.071913,0.00735907,0.315145,5,0.1,25,1.5,-0.952487,-0.833323,0.596755,0.134274,0.865635,-0.0167554,0.241559,0.015635,0.0452846,0.0143469,2.26146,5,0.1,26,1.5,-0.373375,-0.0512195,0.500002,0.293466,-0.182867,1.38767e-05,-0.65065,0.400161,-3.72529e-06,0.0120199,0.257439,5,0.1,27,1.5,-1.14342,2.17559,0.578185,0.349989,-0.804812,0.0113786,-0.224717,-0.492573,-0.000651926,0.0107742,2.2736,5,0.1,28,1.5,-1.46526,0.00258339,0.585912,-0.0223644,-0.865349,0.00540111,0.294879,0.0270714,-0.0170544,0.0118648,2.32837,5,0.1,29,1.5,-3.33608,-3.71449,0.624422,0.866026,-0.162802,-0.00622515,0,0.0111908,0.000409782,0.00916032,2.25532,5,0.1,30,1.5,-3.37841,-0.402068,0.592944,0.0582665,0.688466,0.00525126,-0.00932813,-1.16102,-0.000882894,0.0131128,2.36341,5,0.1,31,1.5,-3.07927,3.25819,0.71621,0.857784,-0.654977,0.0257906,-0.0267327,0.126973,-0.00502914,0.016743,1.22145,5,0.1,32,1.5,3.85126,-2.27088,0.704447,-0.104279,0.866026,0.0118267,0.00171363,0,-0.000156462,0.0117306,2.26485,5,0.1,33,1.5,2.26858,2.91551,0.73029,-0.766002,-0.171022,0.0523322,-0.329703,0.394911,0.194091,0.0219415,1.09346,5,0.1,34,1.5,4.05411,-1.58864,0.580418,0.313695,0.432895,-0.0411292,-0.200093,-0.275955,0.0262372,0.00873589,0.136483,5,0.1,35,1.5,0.923258,3.01548,0.60273,-0.76503,-0.798265,-0.00337716,0.767976,0.2736,-0.0237823,0.0138612,2.21432,5,0.1,36,1.5,0.358392,3.19984,0.612685,0.0987172,-0.827482,-0.01057,0.140708,0.58043,-0.0224672,0.0156936,2.44616,5,0.1,37,1.5,-1.13928,-3.93343,0.650817,0.866025,0.316678,-0.0205439,1.49012e-05,-0.00835955,0.000551343,0.0109895,2.2086,5,0.1,38,1.5,3.20136,2.91869,0.716953,0.0014808,0.0772029,0.0313651,-0.135466,-0.0493526,-0.0199676,0.0162208,1.80995,5,0.1,39,1.5,-1.1229,-2.33014,0.52354,0.269967,0.854637,0.00965865,-0.128664,-0.0494421,-0.00458583,0.00929703,0.865044,5,0.1
0,1.6,3.7582,-2.71327,0.549727,0.0988662,0.866026,-0.00149161,-0.0212193,0,-0.0064373,0.00955461,2.26648,5,0.1,1,1.6,-1.8353,-3.21674,0.592672,0.776953,0.124604,0.00554472,-0.222683,-0.628233,-0.00181794,0.0357582,1.14084,5,0.1,2,1.6,0.27484,-0.521761,0.599966,-0.660471,0.343777,0.000834465,0.358173,0.108495,0.00551343,0.0149672,0.228688,5,0.1,3,1.6,0.384962,2.5911,0.63038,-0.108774,0.119549,0.0162348,0.81414,0.573039,0.0874698,0.0126134,1.64027,5,0.1,4,1.6,3.76347,0.677756,0.707918,-0.245219,0.866026,0.0222653,0.0547171,0,-0.00494719,0.0101229,2.23487,5,0.1,5,1.6,3.20755,3.53445,0.610894,-0.0613809,-0.127661,-0.0164643,0.341892,0.175476,0.0226498,0.0104679,0.500519,5,0.1,6,1.6,-1.02121,-2.63413,0.500016,-0.367349,0.489253,0.000220537,0.0308156,-0.161767,0.00119209,0.00932183,0.532877,5,0.1,7,1.6,-0.288623,-0.346005,0.508534,0.0179566,0.130014,0.0387758,0.179902,-1.15384,0.00572205,0.00823072,0.382688,5,0.1,8,1.6,0.4594,2.35187,0.605032,0.24913,-0.00287294,-0.00662655,-0.577167,0.100255,0.00536442,0.0110828,0.229271,5,0.1,9,1.6,-1.07539,-1.58673,0.587331,-0.250128,0.866026,0.00551641,0.0528097,0,-0.00119209,0.0137094,2.23331,5,0.1,10,1.6,-3.51298,0.710549,0.584394,0.353336,0.622447,0.0151917,-0.287414,-0.506252,-0.0123978,0.0385409,0.184406,5,0.1,11,1.6,1.85545,-3.12007,0.652515,-0.141621,0.866026,-0.0147134,0.027597,0,0.00292063,0.0197801,2.25915,5,0.1,12,1.6,-0.35756,-0.709298,0.718642,0.832172,0.231664,0.037986,-0.409797,-0.530839,0.0547469,0.0128772,1.37547,5,0.1,13,1.6,-2.26963,3.03549,0.606099,0.409681,-0.863135,-0.052841,0.0129938,0.0578165,-0.0145137,0.0133432,2.10133,5,0.1,14,1.6,-1.99468,3.07259,0.743695,0.0819981,-0.593543,0.026983,0.135064,0.0571012,-0.0633895,0.0109655,0.326193,5,0.1,15,1.6,-1.74493,-0.734526,0.647576,0.319278,0.448239,-0.0285536,-0.259757,-0.364512,0.023216,0.0123179,0.126307,5,0.1,16,1.6,-1.56705,3.26507,0.564354,0.345758,-0.0387967,-0.115679,-0.0289083,0.561833,0.121027,0.0209557,0.750361,5,0.1,17,1.6,-3.49035,-2.08224,0.592908,0.340384,0.312436,0.00509471,-0.2774,-0.294209,-0.00476837,0.0163163,0.121928,5,0.1,18,1.6,1.3797,-1.98409,0.626716,-0.226104,0.246263,-0.035733,0.223637,-0.129282,0.0187457,0.0118863,0.141456,5,0.1,19,1.6,3.36961,2.66184,0.618452,-0.310189,0.225991,-0.0289455,0.286222,-0.456333,-0.0103414,0.0297995,0.205022,5,0.1,20,1.6,-4.11562,-3.30395,0.553759,0.230241,0.866026,0.0110224,-0.038147,0,-0.00181794,0.0184327,2.23824,5,0.1,21,1.6,-2.81489,-3.24413,0.628093,0.859374,0.0753999,-0.0253752,0.133038,-0.0201464,0.0167787,0.0168208,0.784324,5,0.1,22,1.6,-2.04391,-0.312437,0.500029,0.405574,0.167239,6.55651e-05,-0.159621,-0.0657737,-0.000804663,0.0136396,0.0986618,5,0.1,23,1.6,-0.0463344,-3.39136,0.626313,-0.258208,0.308549,-0.0255615,0.245731,-0.502586,0.020653,0.0140823,0.230191,5,0.1,24,1.6,-3.55856,-1.77984,0.614331,0.221455,0.297126,0.00911057,-1.09994,0.31805,0.0635087,0.0113667,0.23393,5,0.1,25,1.6,-0.937899,-0.746728,0.5953,0.156678,0.866026,-0.0124261,0.193417,0,0.041008,0.0121586,2.24878,5,0.1,26,1.6,-0.347344,-0.0674751,0.500003,0.226861,-0.142129,8.9407e-06,-0.668213,0.407249,-5.96046e-05,0.0103266,0.255029,5,0.1,27,1.6,-1.10978,2.09284,0.579317,0.320587,-0.84722,0.011234,-0.357449,-0.308752,-0.00268221,0.0133809,2.2702,5,0.1,28,1.6,-1.46585,-0.0835995,0.586354,0.0115484,-0.855197,0.0033319,0.361741,0.216571,-0.0229776,0.0114257,2.40331,5,0.1,29,1.6,-3.24948,-3.73068,0.623803,0.866026,-0.160557,-0.00614077,0,0.0399351,0.00149012,0.00947501,1.93897,5,0.1,30,1.6,-3.37265,-0.33932,0.593464,0.056833,0.564662,0.00511855,-0.0211,-1.27219,-0.00193715,0.0158539,2.25443,5,0.1,31,1.6,-2.99382,3.1935,0.718757,0.848311,-0.636584,0.0250638,-0.19455,0.259876,-0.0102222,0.0141061,0.858985,5,0.1,32,1.6,3.84086,-2.18427,0.705626,-0.103408,0.866026,0.0117317,0.0201464,0,-0.00226498,0.0129575,2.26508,5,0.1,33,1.6,2.19072,2.9,0.736543,-0.786775,-0.142986,0.0728488,-0.0582933,0.172615,0.202656,0.0192888,1.89876,5,0.1,34,1.6,4.08443,-1.5468,0.576442,0.292134,0.403142,-0.0383019,-0.237942,-0.327945,0.031203,0.010415,0.153375,5,0.1,35,1.6,0.851223,2.93731,0.602256,-0.67019,-0.76201,-0.00620037,1.0975,0.464797,-0.0304282,0.0110238,2.08772,5,0.1,36,1.6,0.368924,3.12065,0.611501,0.111311,-0.750452,-0.013192,0.103474,0.937581,-0.0274777,0.0180839,2.35582,5,0.1,37,1.6,-1.05268,-3.90187,0.64877,0.866026,0.313699,-0.020349,-2.98023e-05,-0.0640154,0.00414252,0.0167016,2.21105,5,0.1,38,1.6,3.2,2.92615,0.719985,-0.0368059,0.0718892,0.0292107,-0.607729,-0.058651,-0.0237226,0.0140504,3.28828,5,0.1,39,1.6,-1.09661,-2.24512,0.524481,0.25526,0.843,0.00913292,-0.171363,-0.214458,-0.00607967,0.0100893,0.611055,5,0.1
0,1.7,3.76803,-2.62666,0.549542,0.0979934,0.866026,-0.00224104,-0.0025183,0,-0.00805035,0.00955461,2.26648,5,0.1,1,1.7,-1.75841,-3.20718,0.593219,0.762805,0.0693325,0.00538174,-0.103928,-0.473812,-0.00166148,0.0357582,1.14084,5,0.1,2,1.7,0.210877,-0.487014,0.600398,-0.615942,0.349252,0.0104945,0.529392,-0.00506826,0.167236,0.0149672,0.228688,5,0.1,3,1.7,0.376851,2.60434,0.632322,-0.0649253,0.131543,0.0215085,0.124674,-0.255987,0.0222176,0.0126134,1.64027,5,0.1,4,1.7,3.73913,0.764358,0.710128,-0.242021,0.866026,0.0219767,0.0229031,-3.72529e-06,-0.00206754,0.0101229,2.23487,5,0.1,5,1.7,3.20304,3.5225,0.609353,-0.0299789,-0.111743,-0.01441,0.276506,0.146285,0.0188723,0.0104679,0.500519,5,0.1,6,1.7,-1.05793,-2.58575,0.500041,-0.367834,0.48032,0.000256207,-0.0180751,-0.0484437,-0.000339001,0.00932183,0.532877,5,0.1,7,1.7,-0.285913,-0.339007,0.512391,0.0362079,0.00875141,0.0379037,0.17792,-1.22627,-0.0217706,0.00823072,0.382688,5,0.1,8,1.7,0.481627,2.3521,0.604395,0.19856,0.00750385,-0.00612158,-0.393089,0.103369,0.00491738,0.0110828,0.229271,5,0.1,9,1.7,-1.10023,-1.50013,0.587879,-0.24724,0.866026,0.00545038,0.0191331,0,-0.00044331,0.0137094,2.23331,5,0.1,10,1.7,-3.47901,0.770383,0.585854,0.326393,0.574989,0.0140303,-0.261113,-0.459909,-0.0112467,0.0385409,0.184406,5,0.1,11,1.7,1.84137,-3.03346,0.651053,-0.140276,0.866026,-0.0145695,0.00751764,0,0.000808388,0.0197801,2.25915,5,0.1,12,1.7,-0.275756,-0.688614,0.722687,0.808692,0.18365,0.0426125,-0.120394,-0.432521,0.0361949,0.0128772,1.37547,5,0.1,13,1.7,-2.22778,2.94925,0.600824,0.433747,-0.862695,-0.051899,0.400037,-0.0025779,0.0307299,0.0133432,2.10133,5,0.1,14,1.7,-1.98557,3.01383,0.746173,0.101845,-0.578574,0.0234107,0.239983,0.24493,-0.0132993,0.0109655,0.326193,5,0.1,15,1.7,-1.71458,-0.691631,0.644853,0.285315,0.408596,-0.0257535,-0.406869,-0.428431,0.0321791,0.0123179,0.126307,5,0.1,16,1.7,-1.53241,3.26446,0.55351,0.34845,0.030246,-0.100165,0.0566915,0.773981,0.182651,0.0209557,0.750361,5,0.1,17,1.7,-3.45764,-2.05227,0.593397,0.314112,0.288763,0.00471212,-0.256732,-0.195757,-0.0031516,0.0163163,0.121928,5,0.1,18,1.7,1.35839,-1.96012,0.623238,-0.198245,0.232712,-0.0337682,0.323862,-0.146635,0.0212677,0.0118863,0.141456,5,0.1,19,1.7,3.33985,2.68233,0.615511,-0.286333,0.185413,-0.0297745,0.205368,-0.361308,-0.00513718,0.0297995,0.205022,5,0.1,20,1.7,-4.0927,-3.21735,0.554856,0.228725,0.866026,0.0109508,-0.00575185,0,-0.000271946,0.0184327,2.23824,5,0.1,21,1.7,-2.72856,-3.23684,0.625635,0.864966,0.0689339,-0.0238037,-0.00913441,-0.10182,0.0154227,0.0168208,0.784324,5,0.1,22,1.7,-2.00405,-0.296001,0.500032,0.392122,0.161696,-3.63216e-06,-0.127152,-0.0523925,-0.00057742,0.0136396,0.0986618,5,0.1,23,1.7,-0.0709903,-3.36318,0.623855,-0.235372,0.253808,-0.0236249,0.217832,-0.578851,0.0187755,0.0140823,0.230191,5,0.1,24,1.7,-3.54166,-1.74844,0.615556,0.11935,0.331052,0.0153021,-0.933483,0.332683,0.0582226,0.0113667,0.23393,5,0.1,25,1.7,-0.921201,-0.660125,0.594254,0.177498,0.866026,-0.00858279,0.206854,-3.72529e-06,0.0356324,0.0121586,2.24878,5,0.1,26,1.7,-0.327936,-0.0801409,0.500004,0.162175,-0.115457,2.6077e-06,-0.615906,0.150465,-6.70552e-05,0.0103266,0.255029,5,0.1,27,1.7,-1.07977,2.00707,0.580431,0.277185,-0.864008,0.0110668,-0.494927,-0.0638515,-0.00127777,0.0133809,2.2702,5,0.1,28,1.7,-1.46235,-0.168542,0.586539,0.0627814,-0.847169,0.000104494,0.617318,0.00340179,-0.0389069,0.0114257,2.40331,5,0.1,29,1.7,-3.16287,-3.74658,0.623194,0.866026,-0.15752,-0.00602789,0,0.0284463,0.00105798,0.00947501,1.93897,5,0.1,30,1.7,-3.36706,-0.289387,0.593966,0.0548959,0.434191,0.00494085,-0.0197589,-1.2637,-0.00180304,0.0158539,2.25443,5,0.1,31,1.7,-2.90982,3.13106,0.721216,0.832089,-0.612433,0.0241138,-0.16664,0.245705,-0.0096634,0.0141061,0.858985,5,0.1,32,1.7,3.83058,-2.09767,0.706793,-0.102434,0.866026,0.0116231,0.00539422,0,-0.000596046,0.0129575,2.26508,5,0.1,33,1.7,2.11113,2.88613,0.744913,-0.809251,-0.138125,0.0949334,-0.319123,-0.0473559,0.225388,0.0192888,1.89876,5,0.1,34,1.7,4.11266,-1.50785,0.572742,0.273883,0.377982,-0.035908,-0.144213,-0.198893,0.0189207,0.010415,0.153375,5,0.1,35,1.7,0.789693,2.8639,0.601473,-0.560573,-0.701928,-0.00954242,1.08808,0.723779,-0.0345074,0.0110238,2.08772,5,0.1,36,1.7,0.380898,3.05074,0.609972,0.130687,-0.644001,-0.0179585,0.255935,1.1646,-0.0619143,0.0180839,2.35582,5,0.1,37,1.7,-0.966078,-3.8707,0.646748,0.866025,0.310343,-0.0201322,3.72529e-06,-0.0210553,0.00135601,0.0167016,2.21105,5,0.1,38,1.7,3.19169,2.93306,0.722793,-0.142177,0.0663921,0.0269858,-1.37945,-0.0532568,-0.0215694,0.0140504,3.28828,5,0.1,39,1.7,-1.0719,-2.16176,0.525365,0.239111,0.824788,0.00855913,-0.159062,-0.185654,-0.00565872,0.0100893,0.611055,5,0.1
0,1.8,3.7778,-2.54006,0.549278,0.0972927,0.866026,-0.00301301,-0.0160933,0,-0.00703335,0.0136214,2.26602,5,0.1,1,1.8,-1.68274,-3.20234,0.593747,0.748697,0.0301957,0.00517666,-0.209272,-0.308871,-0.0025928,0.0343933,3.50694,5,0.1,2,1.8,0.152189,-0.452341,0.602411,-0.555343,0.341862,0.0306472,0.678122,-0.145674,0.219882,0.017342,0.294463,5,0.1,3,1.8,0.370264,2.61537,0.634505,-0.0727132,0.0822484,0.0214547,-0.231028,-0.66781,-0.0197589,0.0126561,1.32578,5,0.1,4,1.8,3.71509,0.850961,0.712311,-0.238317,0.866026,0.0216395,0.0610352,0,-0.00548363,0.010196,2.2371,5,0.1,5,1.8,3.20125,3.51203,0.608003,-0.00751019,-0.0978231,-0.0126153,0.168085,0.134587,0.0174046,0.0106594,0.619789,5,0.1,6,1.8,-1.09474,-2.53798,0.500063,-0.367129,0.474137,0.000177324,0.0480413,-0.0978708,-0.00113249,0.00919557,0.38993,5,0.1,7,1.8,-0.281454,-0.344077,0.516037,0.0523098,-0.107425,0.0346884,0.139013,-1.06421,-0.041306,0.00821272,0.262672,5,0.1,8,1.8,0.5,2.35334,0.603808,0.173594,0.0171244,-0.00561327,-0.116527,0.0861883,0.00536442,0.012606,0.188902,5,0.1,9,1.8,-1.12482,-1.41352,0.588421,-0.243881,0.866026,0.00537634,0.0580549,0,-0.0013411,0.0148955,2.33061,5,0.1,10,1.8,-3.4477,0.825546,0.5872,0.299495,0.527604,0.0128716,-0.283599,-0.499338,-0.0121891,0.0382262,0.121679,5,0.1,11,1.8,1.82741,-2.94686,0.649602,-0.138709,0.866026,-0.014405,0.0296235,0,0.00312924,0.0220602,2.25965,5,0.1,12,1.8,-0.19542,-0.67227,0.727088,0.797594,0.144571,0.0449747,-0.145963,-0.351906,0.0101626,0.0116354,1.05364,5,0.1,13,1.8,-2.18223,2.86317,0.595844,0.477731,-0.855762,-0.0471875,0.4282,0.173569,0.0612438,0.00983277,0.999108,5,0.1,14,1.8,-1.97416,2.95752,0.748495,0.126165,-0.544339,0.0233874,0.230074,0.439405,0.00876188,0.011479,0.242836,5,0.1,15,1.8,-1.68823,-0.653018,0.642449,0.240237,0.362656,-0.022231,-0.484109,-0.489295,0.0376403,0.012655,0.155813,5,0.1,16,1.8,-1.49732,3.2714,0.544463,0.352606,0.108105,-0.0803456,0.007689,0.748992,0.208348,0.0236487,0.594814,5,0.1,17,1.8,-3.42753,-2.02432,0.593854,0.287575,0.270432,0.0044167,-0.279665,-0.182986,-0.00292063,0.0179103,0.150194,5,0.1,18,1.8,1.34029,-1.93765,0.619977,-0.163105,0.216144,-0.031364,0.37086,-0.187695,0.0272095,0.0140155,0.197671,5,0.1,19,1.8,3.31221,2.69918,0.612524,-0.266618,0.152647,-0.0297934,0.199437,-0.298738,0.00548363,0.0338334,0.181982,5,0.1,20,1.8,-4.06989,-3.13075,0.555948,0.22676,0.866026,0.0108585,-0.0429153,0,-0.00208616,0.018693,2.23925,5,0.1,21,1.8,-2.64236,-3.23054,0.623335,0.85572,0.0563741,-0.0221625,-0.205994,-0.143409,0.017941,0.0159875,0.372363,5,0.1,22,1.8,-1.96554,-0.28012,0.500029,0.377142,0.155521,-5.06639e-05,-0.184774,-0.0761598,-0.000298023,0.0143043,0.0791587,5,0.1,23,1.8,-0.0934389,-3.34073,0.621588,-0.213485,0.195181,-0.0216886,0.224635,-0.582933,0.0204444,0.015233,0.209968,5,0.1,24,1.8,-3.53406,-1.71383,0.617355,0.0361502,0.358936,0.0204012,-0.725269,0.205517,0.0422895,0.00901948,0.189245,5,0.1,25,1.8,-0.902503,-0.573523,0.593563,0.195293,0.866026,-0.00533611,0.137657,0,0.0291765,0.0133724,2.24109,5,0.1,26,1.8,-0.314648,-0.0911935,0.500004,0.105269,-0.107698,-4.47035e-06,-0.515938,0.0238232,-2.98023e-05,0.0124879,0.231324,5,0.1,27,1.8,-1.05465,1.92052,0.58153,0.224432,-0.866026,0.0108734,-0.547469,0,-0.00298023,0.0123616,2.21611,5,0.1,28,1.8,-1.45287,-0.253194,0.586347,0.126988,-0.844286,-0.00397861,0.632226,0.0971699,-0.0407398,0.0102485,2.45323,5,0.1,29,1.8,-3.07627,-3.76215,0.622598,0.866026,-0.153577,-0.00587851,0,0.0555515,0.00208616,0.00935689,1.51338,5,0.1,30,1.8,-3.36169,-0.251818,0.59445,0.0525296,0.322875,0.00472665,-0.0290871,-0.926622,-0.00265241,0.0144324,2.09004,5,0.1,31,1.8,-2.82765,3.07117,0.723574,0.808787,-0.583655,0.0229806,-0.324607,0.345349,-0.0135899,0.0143487,0.590505,5,0.1,32,1.8,3.82038,-2.01107,0.70795,-0.101304,0.866026,0.0114962,0.0215769,-5.96046e-05,-0.00241399,0.013213,2.26534,5,0.1,33,1.8,2.02867,2.8719,0.755479,-0.838149,-0.147498,0.115578,-0.206292,-0.118732,0.177622,0.0195379,1.85202,5,0.1,34,1.8,4.13936,-1.47099,0.569241,0.260317,0.359276,-0.0341296,-0.139236,-0.192523,0.0183284,0.0123461,0.0884626,5,0.1,35,1.8,0.739012,2.79766,0.600352,-0.453833,-0.619799,-0.0127718,1.04091,0.906229,-0.0287294,0.0150194,1.93391,5,0.1,36,1.8,0.395307,2.99235,0.60785,0.157572,-0.522429,-0.0245318,0.260621,1.24454,-0.0650585,0.00842764,0.739689,5,0.1,37,1.8,-0.879475,-3.83982,0.644745,0.866026,0.306427,-0.0198781,0,-0.0702143,0.00455976,0.0125872,2.21388,5,0.1,38,1.8,3.17012,2.93943,0.725382,-0.291467,0.060904,0.0247627,-1.51455,-0.0576973,-0.0234246,0.011836,2.78206,5,0.1,39,1.8,-1.04881,-2.0804,0.526192,0.222197,0.799817,0.00795573,-0.184238,-0.338316,-0.00655651,0.011366,0.421529,5,0.1
0,1.9,3.7875,-2.45346,0.548945,0.0969924,0.866026,-0.00360105,0.00360608,0,-0.00463426,0.0136214,2.26602,5,0.1,1,1.9,-1.60907,-3.20099,0.59425,0.722805,-0.00270046,0.00485349,-0.322394,-0.281826,-0.0038594,0.0343933,3.50694,5,0.1,2,1.9,0.0999658,-0.418954,0.606711,-0.489736,0.325063,0.0562712,0.640513,-0.19508,0.276137,0.017342,0.294463,5,0.1,3,1.9,0.361257,2.61962,0.636498,-0.11205,-0.00232421,0.0179619,-0.509126,-0.966057,-0.0469908,0.0126561,1.32578,5,0.1,4,1.9,3.69147,0.937563,0.714456,-0.234558,0.866026,0.0213028,0.0274479,-3.72529e-06,-0.00246242,0.010196,2.2371,5,0.1,5,1.9,3.20125,3.5029,0.606826,0.0059668,-0.0849031,-0.0109455,0.0831336,0.124782,0.0161231,0.0106594,0.619789,5,0.1,6,1.9,-1.13128,-2.49092,0.500075,-0.364091,0.468019,6.66827e-05,0.0305921,-0.0495017,-0.00105798,0.00919557,0.38993,5,0.1,7,1.9,-0.275616,-0.360013,0.519325,0.063556,-0.209261,0.0312955,0.0851005,-0.943581,-0.0283383,0.00821272,0.262672,5,0.1,8,1.9,0.516893,2.35547,0.603272,0.165147,0.0252627,-0.00509853,-0.0634268,0.0741184,0.00504032,0.012606,0.188902,5,0.1,9,1.9,-1.14873,-1.32714,0.588961,-0.232471,0.859016,0.00548353,0.166118,-0.161178,0.00276789,0.0148955,2.33061,5,0.1,10,1.9,-3.41909,0.875944,0.58843,0.273223,0.481342,0.0117426,-0.250012,-0.440247,-0.01074,0.0382262,0.121679,5,0.1,11,1.9,1.81363,-2.86026,0.648171,-0.137221,0.866026,-0.0142465,0.0083074,0,0.000890344,0.0220602,2.25965,5,0.1,12,1.9,-0.116001,-0.65914,0.731587,0.793333,0.121778,0.0445263,0.00880003,-0.12628,-0.0181086,0.0116354,1.05364,5,0.1,13,1.9,-2.13425,2.77961,0.590956,0.464749,-0.805159,-0.0545681,-0.597239,0.794962,-0.178609,0.00983277,0.999108,5,0.1,14,1.9,-1.96053,2.90542,0.750905,0.14506,-0.496464,0.0250096,0.144228,0.518188,0.020761,0.011479,0.242836,5,0.1,15,1.9,-1.66619,-0.618785,0.640381,0.204401,0.325466,-0.0194162,-0.255249,-0.280336,0.020504,0.012655,0.155813,5,0.1,16,1.9,-1.46192,3.28606,0.537495,0.355814,0.185368,-0.0588978,0.0358969,0.762329,0.215918,0.0236487,0.594814,5,0.1,17,1.9,-3.39998,-1.99785,0.594286,0.265179,0.261475,0.00427729,-0.183895,-0.0226498,-0.000301749,0.0179103,0.150194,5,0.1,18,1.9,1.32585,-1.91694,0.616971,-0.125532,0.198286,-0.0287748,0.374101,-0.174873,0.0253581,0.0140155,0.197671,5,0.1,19,1.9,3.28671,2.71326,0.609599,-0.241909,0.131566,-0.0284583,0.288978,-0.139266,0.0205524,0.0338334,0.181982,5,0.1,20,1.9,-4.04734,-3.04414,0.557028,0.224879,0.866026,0.0107661,-0.00825524,0,-0.000409782,0.018693,2.23925,5,0.1,21,1.9,-2.55789,-3.22567,0.621204,0.832312,0.0406399,-0.0204962,-0.285432,-0.165939,0.0160262,0.0159875,0.372363,5,0.1,22,1.9,-1.92862,-0.264962,0.500023,0.362081,0.147405,-7.15256e-05,-0.134923,-0.0895895,-0.000119209,0.0143043,0.0791587,5,0.1,23,1.9,-0.113827,-3.32406,0.619506,-0.195582,0.139105,-0.0200838,0.145427,-0.531018,0.012897,0.015233,0.209968,5,0.1,24,1.9,-3.53386,-1.67687,0.619601,-0.0299379,0.380104,0.0244195,-0.588864,0.19446,0.0362992,0.00901948,0.189245,5,0.1,25,1.9,-0.882238,-0.48692,0.593167,0.21011,0.866026,-0.00268444,0.143662,-3.57628e-06,0.0237375,0.0133724,2.24109,5,0.1,26,1.9,-0.306486,-0.102049,0.500003,0.0601488,-0.111038,-6.51926e-06,-0.385121,-0.0739964,-7.45058e-06,0.0124879,0.231324,5,0.1,27,1.9,-1.03498,1.83392,0.582607,0.168925,-0.866026,0.010721,-0.548668,0,-0.000752509,0.0123616,2.21611,5,0.1,28,1.9,-1.43792,-0.337037,0.585667,0.163793,-0.830937,-0.0102348,0.136368,0.194246,-0.0780262,0.0102485,2.45323,5,0.1,29,1.9,-2.98967,-3.77726,0.62202,0.865892,-0.14868,-0.00569411,-0.00536442,0.0485629,0.00183284,0.00935689,1.51338,5,0.1,30,1.9,-3.35657,-0.223607,0.594911,0.0498243,0.249098,0.00448041,-0.0267625,-0.472396,-0.00242889,0.0144324,2.09004,5,0.1,31,1.9,-2.74827,3.01444,0.725807,0.779119,-0.551433,0.0217124,-0.298634,0.317737,-0.0125058,0.0143487,0.590505,5,0.1,32,1.9,3.81031,-1.92447,0.709092,-0.100231,0.866025,0.0113772,0.00587106,1.49012e-05,-0.00064075,0.013213,2.26534,5,0.1,33,1.9,1.94383,2.85622,0.767619,-0.857727,-0.168936,0.124416,-0.157505,-0.278726,0.00835955,0.0195379,1.85202,5,0.1,34,1.9,4.16478,-1.43592,0.565909,0.248462,0.34288,-0.0325695,-0.109076,-0.150852,0.0143498,0.0123461,0.0884626,5,0.1,35,1.9,0.698217,2.74044,0.598937,-0.367572,-0.522685,-0.015443,0.709556,1.0186,-0.0236779,0.0150194,1.93391,5,0.1,36,1.9,0.411058,2.94677,0.605186,0.14611,-0.385744,-0.0276919,-0.421071,1.44361,-0.00246242,0.00842764,0.739689,5,0.1,37,1.9,-0.792872,-3.80941,0.642772,0.866026,0.302568,-0.0196273,-3.72529e-06,-0.0246763,0.0016056,0.0125872,2.21388,5,0.1,38,1.9,3.13285,2.94509,0.727746,-0.457137,0.0512678,0.0225505,-1.70617,-0.127152,-0.0213981,0.011836,2.78206,5,0.1,39,1.9,-1.02747,-2.00199,0.526956,0.205036,0.768845,0.00734422,-0.165224,-0.310332,-0.00590086,0.011366,0.421529,5,0.1
0,2,3.79721,-2.36686,0.548567,0.0968993,0.866026,-0.00392497,-0.0101328,0,-0.00178814,0.00975574,2.26578,5,0.1,1,2,-1.53868,-3.20222,0.594714,0.682044,-0.0165641,0.00440627,-0.500739,0.0332594,-0.00500679,0.0409893,3.34478,5,0.1,2,2,0.0541746,-0.387535,0.6137,-0.426181,0.302115,0.0830129,0.634677,-0.266403,0.246465,0.0118164,0.424683,5,0.1,3,2,0.347363,2.61445,0.638036,-0.166339,-0.100845,0.0126123,-0.541255,-0.96035,-0.0575483,0.00860087,0.280632,5,0.1,4,2,3.66818,1.02417,0.716571,-0.230551,0.866026,0.0209421,0.0619888,0,-0.00563264,0.00940865,2.23387,5,0.1,5,2,3.20202,3.49503,0.605811,0.00676513,-0.0726998,-0.00937134,-0.07236,0.119805,0.0154972,0.010499,1.09467,5,0.1,6,2,-1.16745,-2.44445,0.500077,-0.357988,0.459981,-2.98023e-05,0.10401,-0.128984,-0.000864267,0.00923438,0.51089,5,0.1,7,2,-0.268929,-0.385263,0.522323,0.0692405,-0.291289,0.0287086,0.0285059,-0.677347,-0.0246763,0.00708691,0.192617,5,0.1,8,2,0.533104,2.35833,0.602788,0.15901,0.0315428,-0.00458509,-0.0673234,0.0495911,0.00527501,0.0123916,0.183759,5,0.1,9,2,-1.171,-1.24245,0.589525,-0.211465,0.830442,0.005804,0.249803,-0.422716,0.00309944,0.0151959,2.67803,5,0.1,10,2,-3.39302,0.92188,0.58955,0.248116,0.437127,0.0106633,-0.257611,-0.453949,-0.0110567,0.0335811,0.139134,5,0.1,11,2,1.79997,-2.77366,0.646753,-0.135651,0.866026,-0.0140831,0.0290275,0,0.00303984,0.0213922,2.26013,5,0.1,12,2,-0.0367171,-0.647373,0.73591,0.790443,0.115333,0.0415578,-0.103788,-0.020057,-0.0402033,0.0133066,0.776132,5,0.1,13,2,-2.09184,2.7038,0.584415,0.374675,-0.704849,-0.0775456,-1.1307,1.17397,-0.257522,0.00668431,0.3557,5,0.1,14,2,-1.94547,2.85849,0.753509,0.15448,-0.440836,0.0270307,0.0423193,0.593185,0.017494,0.0116869,0.181933,5,0.1,15,2,-1.6468,-0.587469,0.638526,0.185162,0.302052,-0.0178024,-0.147104,-0.207424,0.0131726,0.0124999,0.0944591,5,0.1,16,2,-1.42625,3.30821,0.532665,0.356293,0.254744,-0.0379831,-0.0408292,0.601053,0.198841,0.0188323,0.447412,5,0.1,17,2,-3.37432,-1.97173,0.594714,0.248086,0.261277,0.00427961,-0.169516,-0.00107288,5.96046e-05,0.0154203,0.181539,5,0.1,18,2,1.31513,-1.898,0.614223,-0.0894278,0.180268,-0.026162,0.343144,-0.188947,0.0274181,0.0106876,0.192627,5,0.1,19,2,3.26407,2.72587,0.606876,-0.209922,0.121891,-0.0258133,0.345707,-0.0668764,0.0316799,0.0317597,0.159555,5,0.1,20,2,-4.02492,-2.95754,0.558101,0.22279,0.866026,0.0106648,-0.0429153,0,-0.00208616,0.0202753,2.24028,5,0.1,21,2,-2.47637,-3.22244,0.619235,0.794834,0.024128,-0.0188485,-0.478745,-0.160098,0.017345,0.014423,0.134452,5,0.1,22,2,-1.89312,-0.250714,0.500015,0.347027,0.13706,-7.30157e-05,-0.178993,-0.119306,0,0.0152139,0.10628,5,0.1,23,2,-0.132708,-3.31266,0.617558,-0.182311,0.0902355,-0.0188947,0.128858,-0.44167,0.0118613,0.0135858,0.19836,5,0.1,24,2,-3.53952,-1.63806,0.622203,-0.0804126,0.393885,0.0273645,-0.41616,0.0650287,0.0214577,0.00852099,0.164701,5,0.1,25,2,-0.860599,-0.400318,0.593007,0.221473,0.866025,-0.000606477,0.0731349,1.43051e-05,0.0177622,0.0137615,2.23664,5,0.1,26,2,-0.302175,-0.113572,0.500002,0.0282772,-0.119587,-7.45058e-06,-0.253379,-0.0845082,2.98023e-05,0.0124802,0.213544,5,0.1,27,2,-1.02074,1.74731,0.583675,0.11704,-0.866026,0.0106052,-0.479698,0,-0.00205636,0.0149212,2.28896,5,0.1,28,2,-1.42146,-0.418837,0.584235,0.160253,-0.801446,-0.0184655,-0.179946,0.411049,-0.0817776,0.011255,0.912837,5,0.1,29,2,-2.90315,-3.79186,0.621461,0.86388,-0.142825,-0.00547171,-0.0429153,0.0725985,0.00277162,0.0101866,1.14735,5,0.1,30,2,-3.35173,-0.2,0.595346,0.046885,0.233171,0.00421554,-0.033021,0.125088,-0.00301003,0.0181942,1.78959,5,0.1,31,2,-2.67201,2.96097,0.727913,0.744033,-0.516975,0.0203565,-0.423551,0.384092,-0.0151396,0.0150378,0.399954,5,0.1,32,2,3.80033,-1.83786,0.710225,-0.0991046,0.866026,0.0112519,0.0209808,-5.96046e-05,-0.00238419,0.0133053,2.26559,5,0.1,33,2,1.85751,2.83788,0.779887,-0.866026,-0.197768,0.118981,0,-0.27442,-0.108957,0.0159939,1.41563,5,0.1,34,2,4.18905,-1.40242,0.562727,0.236595,0.326476,-0.0310093,-0.135899,-0.187993,0.0178516,0.0114682,0.0676175,5,0.1,35,2,0.664631,2.69333,0.59729,-0.307405,-0.419253,-0.017339,0.513703,1.03557,-0.0135601,0.00839721,0.699549,5,0.1,36,2,0.422907,2.91544,0.602479,0.0857025,-0.24175,-0.0258192,-0.732422,1.40107,0.036329,0.00772422,0.441393,5,0.1,37,2,-0.70627,-3.77932,0.64082,0.866026,0.298464,-0.0193596,0,-0.0698566,0.00450015,0.0133002,2.21916,5,0.1,38,2,3.07891,2.94952,0.729893,-0.616682,0.0368893,0.0203848,-1.41752,-0.154138,-0.0222623,0.0119058,2.43453,5,0.1,39,2,-1.0078,-1.9268,0.527661,0.1881,0.732833,0.0067398,-0.17789,-0.429809,-0.0063777,0.00993296,0.286177,5,0.1
0,2.1,3.80688,-2.28025,0.548173,0.096849,0.866026,-0.00387821,0.00320375,0,0.00244379,0.00975574,2.26578,5,0.1,1,2.1,-1.4729,-3.20328,0.59513,0.63406,0.00196993,0.00391211,-0.476241,0.422418,-0.00491738,0.0409893,3.34478,5,0.1,2,2.1,0.0153034,-0.358261,0.622506,-0.346496,0.28657,0.086728,0.920274,-0.0735875,-0.136878,0.0118164,0.424683,5,0.1,3,2.1,0.327871,2.60029,0.639146,-0.224191,-0.17532,0.0107743,-0.582755,-0.541836,0.0133514,0.00860087,0.280632,5,0.1,4,2.1,3.6452,1.11077,0.718644,-0.230844,0.866026,0.0205729,-0.0457019,0,-0.00288337,0.00940865,2.23387,5,0.1,5,2.1,3.20224,3.48833,0.604948,-0.00519156,-0.061512,-0.00792509,-0.232965,0.104904,0.0135489,0.010499,1.09467,5,0.1,6,2.1,-1.20294,-2.39885,0.50007,-0.353238,0.4537,-9.65782e-05,0.0153333,-0.0266135,-0.000480562,0.00923438,0.51089,5,0.1,7,2.1,-0.261902,-0.417613,0.525111,0.0708649,-0.353502,0.0274025,0.00284426,-0.544822,-0.0044629,0.00708691,0.192617,5,0.1,8,2.1,0.548511,2.36171,0.602355,0.147687,0.0358313,-0.0040791,-0.153806,0.0347197,0.00491366,0.0123916,0.183759,5,0.1,9,2.1,-1.19003,-1.16174,0.590168,-0.161969,0.781335,0.00743298,0.686519,-0.565663,0.0262074,0.0151959,2.67803,5,0.1,10,2.1,-3.3693,0.96366,0.59057,0.22773,0.401203,0.00978857,-0.164345,-0.289615,-0.0070557,0.0335811,0.139134,5,0.1,11,2.1,1.78649,-2.68705,0.645354,-0.134232,0.866026,-0.0139344,0.00745058,0,0.000778586,0.0213922,2.26013,5,0.1,12,2.1,0.0420114,-0.635732,0.739847,0.785097,0.119114,0.0370389,-0.044345,0.0785887,-0.049524,0.0133066,0.776132,5,0.1,13,2.1,-2.06033,2.63904,0.575397,0.253521,-0.591656,-0.102326,-1.2535,1.09118,-0.22842,0.00668431,0.3557,5,0.1,14,2.1,-1.92991,2.81695,0.756244,0.1555,-0.39341,0.0271431,-0.0226647,0.381261,-0.0133105,0.0116869,0.181933,5,0.1,15,2.1,-1.62883,-0.55812,0.636797,0.175964,0.286303,-0.0168966,-0.0523031,-0.12489,0.00619888,0.0124999,0.0944591,5,0.1,16,2.1,-1.39077,3.33665,0.529842,0.353426,0.31302,-0.0187464,-0.0329316,0.538409,0.182532,0.0188323,0.447412,5,0.1,17,2.1,-3.35,-1.9455,0.595144,0.241373,0.263993,0.00433084,0.00724196,0.0379682,0.000678003,0.0154203,0.181539,5,0.1,18,2.1,1.30783,-1.8809,0.611741,-0.0575971,0.161741,-0.0234733,0.289172,-0.184111,0.0267215,0.0106876,0.192627,5,0.1,19,2.1,3.24489,2.73806,0.604464,-0.173093,0.124604,-0.0223489,0.383586,0.0970364,0.0370182,0.0317597,0.159555,5,0.1,20,2.1,-4.00277,-2.87094,0.559161,0.220938,0.866026,0.0105738,-0.00758469,0,-0.000383705,0.0202753,2.24028,5,0.1,21,2.1,-2.3994,-3.22083,0.617432,0.74325,0.00822395,-0.0172494,-0.562847,-0.154078,0.0151694,0.014423,0.134452,5,0.1,22,2.1,-1.85937,-0.23772,0.500008,0.327318,0.121804,-6.08154e-05,-0.220113,-0.180542,0.000212342,0.0152139,0.10628,5,0.1,23,2.1,-0.150366,-3.30566,0.615721,-0.171371,0.0518084,-0.0178871,0.0978801,-0.326872,0.00910833,0.0135858,0.19836,5,0.1,24,2.1,-3.54957,-1.59831,0.625046,-0.119619,0.401081,0.029467,-0.356391,0.0584051,0.0188239,0.00852099,0.164701,5,0.1,25,2.1,-0.838034,-0.313715,0.593029,0.229998,0.866025,0.000967272,0.0829771,-1.78814e-06,0.0136197,0.0137615,2.23664,5,0.1,26,2.1,-0.300401,-0.126008,0.500002,0.00917166,-0.12941,-5.02914e-06,-0.1348,-0.101035,1.49012e-05,0.0124802,0.213544,5,0.1,27,2.1,-1.01135,1.66071,0.584728,0.0721842,-0.866026,0.0104734,-0.397205,0,-0.00112131,0.0149212,2.28896,5,0.1,28,2.1,-1.40576,-0.495207,0.581903,0.158483,-0.71104,-0.0287237,0.107259,1.30755,-0.115275,0.011255,0.912837,5,0.1,29,2.1,-2.81679,-3.8058,0.620926,0.864282,-0.136168,-0.00521727,0.0131279,0.0655651,0.0025034,0.0101866,1.14735,5,0.1,30,2.1,-3.3472,-0.174874,0.595753,0.0438172,0.278944,0.00393642,-0.0297874,0.702565,-0.00270084,0.0181942,1.78959,5,0.1,31,2.1,-2.59961,2.91109,0.729879,0.704493,-0.481093,0.0189937,-0.39126,0.348642,-0.0128262,0.0150378,0.399954,5,0.1,32,2.1,3.79049,-1.75126,0.711343,-0.0980958,0.866025,0.0111372,0.005126,1.49012e-05,-0.000584871,0.0133053,2.26559,5,0.1,33,2.1,1.77092,2.8166,0.791113,-0.865693,-0.228272,0.104445,0.0133216,-0.311658,-0.1752,0.0159939,1.41563,5,0.1,34,2.1,4.21213,-1.37058,0.559703,0.225467,0.31108,-0.029548,-0.0983179,-0.135988,0.0129007,0.0114682,0.0676175,5,0.1,35,2.1,0.636966,2.65741,0.595517,-0.24175,-0.292642,-0.0178419,0.763834,1.42924,0.00277162,0.00839721,0.699549,5,0.1,36,2.1,0.427553,2.89823,0.600112,0.00551702,-0.103424,-0.0212196,-0.835581,1.33419,0.0534207,0.00772422,0.441393,5,0.1,37,2.1,-0.619667,-3.74985,0.638901,0.866026,0.290498,-0.0190464,-3.72529e-06,-0.0976324,0.00273809,0.0133002,2.21916,5,0.1,38,2.1,3.01058,2.9524,0.731827,-0.744598,0.0203017,0.0183503,-1.09762,-0.171587,-0.0189953,0.0119058,2.43453,5,0.1,39,2.1,-0.989827,-1.85554,0.528305,0.171683,0.692993,0.00615101,-0.155717,-0.391074,-0.00558794,0.00993296,0.286177,5,0.1
0,2.2,3.81657,-2.19365,0.547802,0.0965357,0.866026,-0.00348687,-0.0135899,0,0.0051558,0.00956772,2.26587,5,0.1,1,2.2,-1.41195,-3.2,0.595496,0.583911,0.072819,0.00341684,-0.53829,0.958323,-0.00500679,0.037928,2.97724,5,0.1,2,2.2,-0.0145383,-0.32985,0.630102,-0.249058,0.282308,0.0619978,0.997923,-0.033468,-0.329405,0.0115089,0.619278,5,0.1,3,2.2,0.302692,2.58066,0.640357,-0.277216,-0.21174,0.0139564,-0.454068,-0.198722,0.0444353,0.0130997,0.912178,5,0.1,4,2.2,3.62186,1.19737,0.720684,-0.235844,0.866026,0.0201717,-0.0376701,0,-0.00593066,0.00969204,1.86648,5,0.1,5,2.2,3.2,3.48268,0.604221,-0.0448525,-0.0515521,-0.00663996,-0.544548,0.0950098,0.0122786,0.0111874,1.94431,5,0.1,6,2.2,-1.23817,-2.35365,0.500059,-0.350738,0.449508,-0.00012964,0.0523329,-0.0789165,-0.000208616,0.0101691,0.376463,5,0.1,7,2.2,-0.254851,-0.455321,0.527842,0.069645,-0.39661,0.0272855,-0.0277534,-0.302985,-0.000119209,0.00674576,0.157832,5,0.1,8,2.2,0.562405,2.36544,0.601972,0.129263,0.0382543,-0.00358969,-0.209868,0.0128746,0.00491738,0.0123613,0.272281,5,0.1,9,2.2,-1.20244,-1.08671,0.591058,-0.0837296,0.716475,0.0104651,0.836253,-0.733793,0.0319481,0.0164282,3.04,5,0.1,10,2.2,-3.34729,1.00243,0.591516,0.212771,0.374842,0.00914782,-0.145316,-0.256062,-0.00625849,0.0323329,0.0803943,5,0.1,11,2.2,1.77312,-2.60045,0.643967,-0.132775,0.866026,-0.0137836,0.0273585,0,0.00286102,0.0203702,2.26057,5,0.1,12,2.2,0.120121,-0.623381,0.743293,0.774575,0.128061,0.0317767,-0.194862,0.0875592,-0.0551045,0.0137975,0.556023,5,0.1,13,2.2,-2.04118,2.5852,0.564136,0.130796,-0.486428,-0.121613,-1.17171,1.01364,-0.15077,0.00592325,0.279859,5,0.1,14,2.2,-1.91459,2.77934,0.758854,0.149891,-0.360036,0.024727,-0.0892878,0.305653,-0.033319,0.00988306,0.251583,5,0.1,15,2.2,-1.61144,-0.530094,0.635135,0.172007,0.274089,-0.0163466,-0.0383258,-0.131965,0.00575185,0.0168893,0.0799723,5,0.1,16,2.2,-1.35569,3.37036,0.528831,0.346935,0.358039,-0.00204742,-0.108242,0.344276,0.149071,0.0175756,0.319346,5,0.1,17,2.2,-3.32572,-1.91897,0.595579,0.244641,0.26589,0.00436753,0.0370741,-0.0123978,-0.000178814,0.01851,0.127339,5,0.1,18,2.2,1.30339,-1.86565,0.609529,-0.0322342,0.143042,-0.0207603,0.216186,-0.191391,0.0277758,0.0105293,0.1899,5,0.1,19,2.2,3.22951,2.75111,0.602419,-0.134516,0.137067,-0.0185207,0.382185,0.133872,0.0391006,0.0315493,0.195477,5,0.1,20,2.2,-3.98074,-2.78434,0.560215,0.218976,0.866026,0.01048,-0.0413656,0,-0.00199676,0.0196863,2.24124,5,0.1,21,2.2,-2.32809,-3.22074,0.615783,0.680757,-0.00602007,-0.0157222,-0.692248,-0.127912,0.0157356,0.0141842,0.44745,5,0.1,22,2.2,-1.82784,-0.226507,0.500004,0.302243,0.101926,-3.72529e-05,-0.284076,-0.212543,0.000238419,0.0111906,0.569571,5,0.1,23,2.2,-0.167012,-3.30192,0.613979,-0.161377,0.024724,-0.0169322,0.107646,-0.216365,0.01055,0.0152562,0.363536,5,0.1,24,2.2,-3.56314,-1.55806,0.628071,-0.149763,0.402123,0.030832,-0.238776,-0.0516176,0.00730157,0.0279517,3.40969,5,0.1,25,2.2,-0.814699,-0.227113,0.593186,0.235623,0.866025,0.00210404,0.0194311,0,0.00905991,0.0130868,2.23493,5,0.1,26,2.2,-0.300005,-0.139408,0.500001,0.00012666,-0.137927,-4.47035e-06,-0.0519156,-0.0615269,0,0.0149936,0.29963,5,0.1,27,2.2,-1.00586,1.57411,0.585768,0.0404328,-0.866026,0.0102863,-0.229716,5.96046e-05,-0.00295043,0.0112879,1.84097,5,0.1,28,2.2,-1.38915,-0.558906,0.578454,0.17511,-0.556101,-0.0401095,0.196695,1.71915,-0.106394,0.0112498,0.33385,5,0.1,29,2.2,-2.73044,-3.81907,0.620418,0.860542,-0.128871,-0.00493675,-0.109673,0.0841618,0.00318885,0.010268,0.841772,5,0.1,30,2.2,-3.34297,-0.143109,0.596133,0.0406861,0.358208,0.00365376,-0.033617,0.815746,-0.00303984,0.011906,1.44097,5,0.1,31,2.2,-2.53122,2.86477,0.731713,0.661743,-0.444716,0.0176713,-0.479937,0.389218,-0.0141263,0.0140987,0.272093,5,0.1,32,2.2,3.78072,-1.66466,0.712453,-0.0970662,0.866026,0.0110194,0.0196695,-5.96046e-05,-0.00220537,0.0130075,2.26499,5,0.1,33,2.2,1.68452,2.79232,0.800618,-0.8607,-0.255984,0.0851408,0.106573,-0.225306,-0.205517,0.0150324,1.05244,5,0.1,34,2.2,4.23417,-1.34018,0.556815,0.214946,0.296545,-0.0281692,-0.119925,-0.16588,0.0157356,0.0108353,0.0302767,5,0.1,35,2.2,0.61678,2.63548,0.593768,-0.160979,-0.145328,-0.0169262,0.823855,1.4652,0.014931,0.00800641,0.405874,5,0.1,36,2.2,0.423999,2.89424,0.59827,-0.0751987,0.0197411,-0.015536,-0.75227,1.10686,0.0584126,0.00765722,0.287839,5,0.1,37,2.2,-0.533065,-3.72139,0.637014,0.866026,0.277603,-0.0186458,0,-0.165462,0.00593066,0.012596,2.22514,5,0.1,38,2.2,2.93143,2.95358,0.733569,-0.829947,0.003618,0.0164881,-0.589967,-0.157356,-0.0186265,0.0134811,2.30554,5,0.1,39,2.2,-0.973436,-1.7883,0.528892,0.156066,0.65057,0.00559092,-0.160277,-0.473797,-0.00575185,0.00950793,0.192558,5,0.1
0,2.3,3.82619,-2.10705,0.547482,0.0961822,0.866026,-0.00290573,0.00064075,0,0.00630319,0.00956772,2.26587,5,0.1,1,2.3,-1.35606,-3.18675,0.595814,0.535308,0.201209,0.00295294,-0.45269,1.50318,-0.00433996,0.037928,2.97724,5,0.1,2,2.3,-0.0340591,-0.30277,0.635129,-0.138576,0.250789,0.0427216,1.16596,-0.544814,-0.0786334,0.0115089,0.619278,5,0.1,3,2.3,0.272653,2.55797,0.641879,-0.32331,-0.245858,0.0156525,-0.439947,-0.436649,-0.00643358,0.0130997,0.912178,5,0.1,4,2.3,3.59797,1.28397,0.722677,-0.242687,0.866026,0.019711,-0.0811815,0,-0.00423566,0.00969204,1.86648,5,0.1,5,2.3,3.19164,3.47798,0.603615,-0.131629,-0.0428516,-0.00551632,-1.09969,0.0798851,0.0103079,0.0111874,1.94431,5,0.1,6,2.3,-1.27309,-2.30896,0.500045,-0.34826,0.444916,-0.000136998,0.0164732,-0.0367016,4.09782e-05,0.0101691,0.376463,5,0.1,7,2.3,-0.248003,-0.496429,0.5306,0.0674583,-0.424336,0.0280879,-0.0193687,-0.230523,0.0131801,0.00674576,0.157832,5,0.1,8,2.3,0.574223,2.36932,0.601636,0.106608,0.0392936,-0.00313483,-0.238955,0.00631809,0.00425428,0.0123613,0.272281,5,0.1,9,2.3,-1.20643,-1.01878,0.592202,0.00498462,0.641511,0.0118528,0.903301,-0.768568,-0.00165403,0.0164282,3.04,5,0.1,10,2.3,-3.32666,1.03879,0.592403,0.2005,0.35322,0.00861948,-0.109524,-0.192963,-0.00471249,0.0323329,0.0803943,5,0.1,11,2.3,1.75993,-2.51385,0.642597,-0.1315,0.866026,-0.0136501,0.00613183,0,0.000637025,0.0203702,2.26057,5,0.1,12,2.3,0.196734,-0.610051,0.746195,0.758109,0.139036,0.0262874,-0.1676,0.1188,-0.0542887,0.0137975,0.556023,5,0.1,13,2.3,-2.03366,2.54121,0.551503,0.0228662,-0.397262,-0.128419,-0.975057,0.784814,0.00653416,0.00592325,0.279859,5,0.1,14,2.3,-1.90008,2.74446,0.761139,0.139857,-0.340749,0.0207891,-0.112385,0.110507,-0.044059,0.00988306,0.251583,5,0.1,15,2.3,-1.59428,-0.503186,0.633518,0.172181,0.265208,-0.016091,0.0261888,-0.0633802,0.000633299,0.0168893,0.0799723,5,0.1,16,2.3,-1.32149,3.40782,0.52934,0.337084,0.389886,0.0118558,-0.10211,0.27217,0.126507,0.0175756,0.319346,5,0.1,17,2.3,-3.30132,-1.89243,0.596015,0.241061,0.264709,0.00435021,-0.104249,-0.0222996,-0.000350177,0.01851,0.127339,5,0.1,18,2.3,1.30112,-1.85229,0.607589,-0.0145787,0.124355,-0.0180482,0.137292,-0.183299,0.0266023,0.0105293,0.1899,5,0.1,19,2.3,3.21792,2.7657,0.600763,-0.0976898,0.156252,-0.0145905,0.349969,0.225827,0.0389591,0.0315493,0.195477,5,0.1,20,2.3,-3.95896,-2.69773,0.561258,0.217264,0.866026,0.010397,-0.00616908,0,-0.000301749,0.0196863,2.24124,5,0.1,21,2.3,-2.26295,-3.22196,0.614285,0.626231,-0.0181559,-0.014281,-0.437364,-0.111893,0.0135414,0.0141842,0.44745,5,0.1,22,2.3,-1.79988,-0.217405,0.500001,0.249725,0.0799413,-1.56462e-05,-0.715971,-0.222659,0.000178814,0.0111906,0.569571,5,0.1,23,2.3,-0.182591,-3.30042,0.612341,-0.149955,0.00652596,-0.0157931,0.12268,-0.14475,0.0124238,0.0152562,0.363536,5,0.1,24,2.3,-3.57729,-1.51735,0.631126,-0.115805,0.417854,0.029687,0.803441,0.304498,-0.0275746,0.0279517,3.40969,5,0.1,25,2.3,-0.790976,-0.14051,0.593438,0.239118,0.866025,0.00288505,0.0364408,1.49012e-07,0.00645965,0.0130868,2.23493,5,0.1,26,2.3,-0.300156,-0.153561,0.500001,-0.00233143,-0.145357,-4.09782e-06,-0.00289641,-0.0758963,7.45058e-06,0.0149936,0.29963,5,0.1,27,2.3,-1.00271,1.48751,0.586783,0.0256009,-0.865933,0.010036,-0.0452846,0.00364333,-0.00249222,0.0112879,1.84097,5,0.1,28,2.3,-1.37057,-0.605895,0.573813,0.19694,-0.384277,-0.0534089,0.221908,1.68433,-0.148401,0.0112498,0.33385,5,0.1,29,2.3,-2.64472,-3.83156,0.619939,0.855055,-0.121098,-0.00464143,-0.0450313,0.0754595,0.0028722,0.010268,0.841772,5,0.1,30,2.3,-3.33906,-0.102772,0.596484,0.037577,0.451178,0.00337325,-0.0297725,0.97693,-0.00268221,0.011906,1.44097,5,0.1,31,2.3,-2.4674,2.82225,0.733442,0.614725,-0.405442,0.0171616,-0.475034,0.40172,0.0016354,0.0140987,0.272093,5,0.1,32,2.3,3.77102,-1.57806,0.713546,-0.0974409,0.866025,0.0108491,-0.0185072,1.49012e-05,-0.00170991,0.0130075,2.26499,5,0.1,33,2.3,1.59873,2.76557,0.808076,-0.856507,-0.278788,0.063856,0.0245497,-0.212088,-0.215519,0.0150324,1.05244,5,0.1,34,2.3,4.25507,-1.31133,0.554075,0.203182,0.280278,-0.026626,-0.121474,-0.167839,0.0159219,0.0108353,0.0302767,5,0.1,35,2.3,0.604631,2.62829,0.592143,-0.083901,0.000685081,-0.0156489,0.709653,1.41473,0.0113361,0.00800641,0.405874,5,0.1,36,2.3,0.412902,2.90158,0.597005,-0.144536,0.124652,-0.00984883,-0.619976,0.967428,0.0544377,0.00765722,0.287839,5,0.1,37,2.3,-0.446462,-3.69424,0.63517,0.866026,0.266819,-0.018295,-3.57628e-06,-0.0694096,0.002224,0.012596,2.22514,5,0.1,38,2.3,2.84644,2.95307,0.735127,-0.862126,-0.0145797,0.0146877,-0.123098,-0.196204,-0.0176132,0.0134811,2.30554,5,0.1,39,2.3,-0.958582,-1.72547,0.529424,0.141385,0.606693,0.00506379,-0.137761,-0.423729,-0.00494719,0.00950793,0.192558,5,0.1
0,2.4,3.8358,-2.02045,0.547224,0.0956655,0.866026,-0.00225455,-0.015378,-5.96046e-05,0.00652671,0.00926225,2.26599,5,0.1,1,2.4,-1.30477,-3.15894,0.596088,0.49015,0.354803,0.00253916,-0.463784,1.48833,-0.00402331,0.0386686,2.60026,5,0.1,2,2.4,-0.0421205,-0.280903,0.639269,-0.0238797,0.182716,0.0422254,1.09358,-0.775039,0.0508428,0.0117676,0.360387,5,0.1,3,2.4,0.238333,2.53113,0.643356,-0.360476,-0.290853,0.0134125,-0.283957,-0.428081,-0.0350177,0.0124271,0.701827,5,0.1,4,2.4,3.57335,1.37058,0.724623,-0.248992,0.866026,0.0191614,-0.0320673,0,-0.00739098,0.0145838,1.48951,5,0.1,5,2.4,3.17268,3.47407,0.603112,-0.248712,-0.0354171,-0.00455827,-1.1723,0.0693798,0.0089705,0.0149801,1.94527,5,0.1,6,2.4,-1.30776,-2.26474,0.500032,-0.344166,0.438124,-0.00012517,0.0789165,-0.115752,0.000208616,0.014564,0.269176,5,0.1,7,2.4,-0.241363,-0.539756,0.533477,0.0651948,-0.439227,0.0294045,-0.028275,-0.0534058,0.0109673,0.0107029,0.146589,5,0.1,8,2.4,0.583671,2.37326,0.601343,0.0822708,0.0392675,-0.00272542,-0.244111,-0.00798702,0.00402331,0.0125308,0.27144,5,0.1,9,2.4,-1.20154,-0.958545,0.593341,0.090906,0.562368,0.0105977,0.789702,-0.815123,-0.0213087,0.0097268,0.762292,5,0.1,10,2.4,-3.30716,1.07314,0.593241,0.189257,0.333413,0.00813603,-0.121832,-0.214934,-0.00524521,0.0322638,0.119768,5,0.1,11,2.4,1.74683,-2.42725,0.641237,-0.130185,0.866026,-0.0135154,0.0258088,0,0.00271201,0.0205582,2.26098,5,0.1,12,2.4,0.27153,-0.595591,0.748557,0.735465,0.149557,0.0209883,-0.308037,0.0821352,-0.0513494,0.0108703,0.388132,5,0.1,13,2.4,-2.03585,2.50513,0.538897,-0.0623107,-0.326771,-0.121844,-0.721574,0.636816,0.117719,0.00763464,0.30873,5,0.1,14,2.4,-1.8867,2.71083,0.762989,0.127283,-0.332624,0.0161648,-0.139415,0.0748634,-0.0473857,0.00813184,0.190847,5,0.1,15,2.4,-1.57693,-0.476988,0.631912,0.174555,0.258378,-0.0160024,0.0100136,-0.0858307,0.00208616,0.0136643,0.0394391,5,0.1,16,2.4,-1.28838,3.44791,0.531104,0.324276,0.409073,0.022845,-0.163138,0.0978708,0.0916421,0.0183207,0.219076,5,0.1,17,2.4,-3.27794,-1.86616,0.596447,0.22471,0.259581,0.00426769,-0.218153,-0.087738,-0.00143051,0.0151463,0.268917,5,0.1,18,2.4,1.30023,-1.84076,0.605917,-0.00449121,0.106233,-0.0154197,0.0668764,-0.179648,0.0261068,0.0119591,0.32052,5,0.1,19,2.4,3.20982,2.78244,0.599495,-0.0652552,0.178081,-0.0108242,0.295877,0.193357,0.0360012,0.0284728,0.276637,5,0.1,20,2.4,-3.93729,-2.61113,0.562295,0.215465,0.866026,0.0103116,-0.0392199,0,-0.00190735,0.014608,2.24213,5,0.1,21,2.4,-2.20236,-3.22429,0.612924,0.58648,-0.0279069,-0.0129387,-0.386596,-0.0813007,0.0136793,0.0166999,0.0979123,5,0.1,22,2.4,-1.77886,-0.210511,0.5,0.168052,0.0581816,-2.98023e-06,-0.877619,-0.20913,8.9407e-05,0.0105239,0.479387,5,0.1,23,2.4,-0.196936,-3.30036,0.610828,-0.136553,-0.00389814,-0.0144199,0.146329,-0.0633001,0.0151396,0.0149807,3.5553,5,0.1,24,2.4,-3.58391,-1.47388,0.633917,-0.00955462,0.452214,0.0257999,1.23131,0.336289,-0.0479519,0.0251641,2.8679,5,0.1,25,2.4,-0.766948,-0.0539077,0.593753,0.240527,0.866025,0.00338107,-0.0180602,1.19209e-06,0.00336766,0.0157222,2.23685,5,0.1,26,2.4,-0.30036,-0.168425,0.500001,-0.00142828,-0.151208,-2.98023e-06,0.0168681,-0.033319,0,0.0121014,0.365368,5,0.1,27,2.4,-1,1.40096,0.587772,0.0322729,-0.864559,0.00971258,0.166088,0.0292063,-0.00423193,0.0171139,1.43173,5,0.1,28,2.4,-1.34985,-0.636183,0.567736,0.216395,-0.224933,-0.067845,0.154376,1.47861,-0.132114,0.00991244,0.399569,5,0.1,29,2.4,-2.55963,-3.84328,0.61949,0.8439,-0.113082,-0.00433624,-0.20957,0.0878572,0.00336766,0.00890044,0.596828,5,0.1,30,2.4,-3.33545,-0.0529545,0.596808,0.0345349,0.542071,0.00309944,-0.0319481,0.792418,-0.00286102,0.0144426,1.10992,5,0.1,31,2.4,-2.4084,2.78377,0.735177,0.564319,-0.363517,0.0175953,-0.542641,0.440001,0.00527501,0.013306,0.190313,5,0.1,32,2.4,3.76118,-1.49145,0.714619,-0.0992656,0.866026,0.0105917,-0.0115633,-5.96046e-05,-0.00375509,0.0149753,2.26441,5,0.1,33,2.4,1.51338,2.73678,0.813399,-0.847742,-0.295252,0.0428557,0.183821,-0.10407,-0.200927,0.0134335,0.603904,5,0.1,34,2.4,4.27474,-1.2842,0.551498,0.18965,0.261599,-0.0248536,-0.153065,-0.211298,0.020057,0.00973941,0.0115388,5,0.1,35,2.4,0.599546,2.63508,0.590633,-0.0203654,0.130719,-0.0145361,0.555933,1.15728,0.0114739,0.0128466,0.266955,5,0.1,36,2.4,0.395664,2.91849,0.596279,-0.196822,0.209236,-0.00480115,-0.416532,0.708342,0.0458956,0.00801145,0.199402,5,0.1,37,2.4,-0.35986,-3.66788,0.633353,0.866025,0.260395,-0.0180066,1.43051e-05,-0.0729561,0.00435114,0.0114107,2.22742,5,0.1,38,2.4,2.75993,2.95063,0.736508,-0.866026,-0.0338078,0.0129268,0,-0.180721,-0.0177622,0.0149346,2.28532,5,0.1,39,2.4,-0.945124,-1.66697,0.529906,0.127761,0.562453,0.00457466,-0.137776,-0.474691,-0.00494719,0.00924786,0.12912,5,0.1
