id,t,px,py,pz,vx,vy,vz,ax,ay,az,planning_time,qp_cost,planning_report,size,id,t,px,py,pz,vx,vy,vz,ax,ay,az,planning_time,qp_cost,planning_report,size,id,t,px,py,pz,vx,vy,vz,ax,ay,az,planning_time,qp_cost,planning_report,size,id,t,px,py,pz,vx,vy,vz,ax,ay,az,planning_time,qp_cost,planning_report,size,id,t,px,py,pz,vx,vy,vz,ax,ay,az,planning_time,qp_cost,planning_report,size,id,t,px,py,pz,vx,vy,vz,ax,ay,az,planning_time,qp_cost,planning_report,size,id,t,px,py,pz,vx,vy,vz,ax,ay,az,planning_time,qp_cost,planning_report,size,id,t,px,py,pz,vx,vy,vz,ax,ay,az,planning_time,qp_cost,planning_report,size,id,t,px,py,pz,vx,vy,vz,ax,ay,az,planning_time,qp_cost,planning_report,size,id,t,px,py,pz,vx,vy,vz,ax,ay,az,planning_time,qp_cost,planning_report,size,id,t,px,py,pz,vx,vy,vz,ax,ay,az,planning_time,qp_cost,planning_report,size,id,t,px,py,pz,vx,vy,vz,ax,ay,az,planning_time,qp_cost,planning_report,size,id,t,px,py,pz,vx,vy,vz,ax,ay,az,planning_time,qp_cost,planning_report,size,id,t,px,py,pz,vx,vy,vz,ax,ay,az,planning_time,qp_cost,planning_report,size,id,t,px,py,pz,vx,vy,vz,ax,ay,az,planning_time,qp_cost,planning_report,size,id,t,px,py,pz,vx,vy,vz,ax,ay,az,planning_time,qp_cost,planning_report,size,id,t,px,py,pz,vx,vy,vz,ax,ay,az,planning_time,qp_cost,planning_report,size,id,t,px,py,pz,vx,vy,vz,ax,ay,az,planning_time,qp_cost,planning_report,size,id,t,px,py,pz,vx,vy,vz,ax,ay,az,planning_time,qp_cost,planning_report,size,id,t,px,py,pz,vx,vy,vz,ax,ay,az,planning_time,qp_cost,planning_report,size,id,t,px,py,pz,vx,vy,vz,ax,ay,az,planning_time,qp_cost,planning_report,size,id,t,px,py,pz,vx,vy,vz,ax,ay,az,planning_time,qp_cost,planning_report,size,id,t,px,py,pz,vx,vy,vz,ax,ay,az,planning_time,qp_cost,planning_report,size,id,t,px,py,pz,vx,vy,vz,ax,ay,az,planning_time,qp_cost,planning_report,size,id,t,px,py,pz,vx,vy,vz,ax,ay,az,planning_time,qp_cost,planning_report,size,id,t,px,py,pz,vx,vy,vz,ax,ay,az,planning_time,qp_cost,planning_report,size,id,t,px,py,pz,vx,vy,vz,ax,ay,az,planning_time,qp_cost,planning_report,size,id,t,px,py,pz,vx,vy,vz,ax,ay,az,planning_time,qp_cost,planning_report,size,id,t,px,py,pz,vx,vy,vz,ax,ay,az,planning_time,qp_cost,planning_report,size,id,t,px,py,pz,vx,vy,vz,ax,ay,az,planning_time,qp_cost,planning_report,size,id,t,px,py,pz,vx,vy,vz,ax,ay,az,planning_time,qp_cost,planning_report,size,id,t,px,py,pz,vx,vy,vz,ax,ay,az,planning_time,qp_cost,planning_report,size,id,t,px,py,pz,vx,vy,vz,ax,ay,az,planning_time,qp_cost,planning_report,size,id,t,px,py,pz,vx,vy,vz,ax,ay,az,planning_time,qp_cost,planning_report,size,id,t,px,py,pz,vx,vy,vz,ax,ay,az,planning_time,qp_cost,planning_report,size,id,t,px,py,pz,vx,vy,vz,ax,ay,az,planning_time,qp_cost,planning_report,size,id,t,px,py,pz,vx,vy,vz,ax,ay,az,planning_time,qp_cost,planning_report,size,id,t,px,py,pz,vx,vy,vz,ax,ay,az,planning_time,qp_cost,planning_report,size,id,t,px,py,pz,vx,vy,vz,ax,ay,az,planning_time,qp_cost,planning_report,size,id,t,px,py,pz,vx,vy,vz,ax,ay,az,planning_time,qp_cost,planning_report,size
0,0,2.33411,-2.49356,0.5491,0,0,0,0,0,0,0.0179836,1.55399,5,0.1,1,0,0.778934,-3.71972,0.526049,0,0,0,0,0,0,0.0166331,0.576142,5,0.1,2,0,-3.53068,-2.204,0.629583,0,0,0,0,0,0,0.0135362,3.51219,5,0.1,3,0,0.058105,-3.72432,0.641737,0,0,0,0,0,0,0.0107114,1.03541,5,0.1,4,0,-3.83721,0.199896,0.50561,0,0,0,0,0,0,0.0110137,1.07788,5,0.1,5,0,0.734756,3.24008,0.552768,0,0,0,0,0,0,0.0103009,1.21443,5,0.1,6,0,-1.94419,-3.99553,0.537208,0,0,0,0,0,0,0.0130574,1.01348,5,0.1,7,0,3.96431,3.86758,0.594055,0,0,0,0,0,0,0.0123559,2.66557,5,0.1,8,0,-0.622522,-0.185216,0.688586,0,0,0,0,0,0,0.0122154,3.5122,5,0.1,9,0,1.16617,-0.827215,0.674948,0,0,0,0,0,0,0.0158692,2.13651,5,0.1,10,0,1.94542,3.2529,0.523992,0,0,0,0,0,0,0.00966489,3.5122,5,0.1,11,0,-1.35619,0.61347,0.669275,0,0,0,0,0,0,0.0107161,1.75801,5,0.1,12,0,0.527679,-1.08437,0.602164,0,0,0,0,0,0,0.0145391,1.16348,5,0.1,13,0,3.64673,-0.613795,0.583973,0,0,0,0,0,0,0.0219983,3.5122,5,0.1,14,0,3.69932,-1.66151,0.686261,0,0,0,0,0,0,0.0146284,3.51219,5,0.1,15,0,-3.96699,2.95291,0.547343,0,0,0,0,0,0,0.00981528,3.5122,5,0.1,16,0,2.07046,0.652828,0.583321,0,0,0,0,0,0,0.0110121,1.09231,5,0.1,17,0,-3.23045,-1.50325,0.643142,0,0,0,0,0,0,0.0149395,3.5122,5,0.1,18,0,-3.54765,-0.92009,0.62427,0,0,0,0,0,0,0.0121525,3.5122,5,0.1,19,0,-0.656015,-3.74755,0.662193,0,0,0,0,0,0,0.0110865,3.5122,5,0.1,20,0,-0.717189,1.07607,0.653874,0,0,0,0,0,0,0.013567,1.17209,5,0.1,21,0,3.92991,2.12501,0.669916,0,0,0,0,0,0,0.0120253,1.43582,5,0.1,22,0,-3.82932,1.33114,0.64457,0,0,0,0,0,0,0.0103691,2.74309,5,0.1,23,0,1.80025,-1.59275,0.683453,0,0,0,0,0,0,0.0224564,3.5122,5,0.1,24,0,-4.18462,-0.501118,0.586048,0,0,0,0,0,0,0.0188967,3.5122,5,0.1,25,0,0.627497,4.22536,0.667949,0,0,0,0,0,0,0.00948218,2.50188,5,0.1,26,0,3.93205,3.24922,0.585386,0,0,0,0,0,0,0.0139371,1.73184,5,0.1,27,0,-1.23964,-4.36303,0.621382,0,0,0,0,0,0,0.0135452,3.5122,5,0.1,28,0,-0.271409,-0.921325,0.558259,0,0,0,0,0,0,0.0105934,3.51219,5,0.1,29,0,3.67955,-3.02578,0.644604,0,0,0,0,0,0,0.0224759,3.5122,5,0.1,30,0,3.82446,-4.20088,0.50398,0,0,0,0,0,0,0.0163331,3.51219,5,0.1,31,0,-1.77424,-1.18142,0.542425,0,0,0,0,0,0,0.0117685,0.53514,5,0.1,32,0,1.45928,2.67691,0.698409,0,0,0,0,0,0,0.00862957,2.75857,5,0.1,33,0,-3.26806,2.62896,0.667172,0,0,0,0,0,0,0.00856939,2.67313,5,0.1,34,0,-3.22576,-3.67815,0.57807,0,0,0,0,0,0,0.0186264,3.51219,5,0.1,35,0,4.00933,1.04224,0.520164,0,0,0,0,0,0,0.010102,3.5122,5,0.1,36,0,4.39376,-2.93209,0.638398,0,0,0,0,0,0,0.027789,3.51219,5,0.1,37,0,2.33378,-3.99465,0.543883,0,0,0,0,0,0,0.0115967,3.51219,5,0.1,38,0,-1.54767,-3.28576,0.691686,0,0,0,0,0,0,0.014986,3.51219,5,0.1,39,0,-4.38758,-3.81731,0.553903,0,0,0,0,0,0,0.00936237,3.5122,5,0.1
0,0.1,2.33293,-2.49284,0.549153,-0.0336088,0.0205524,0.00150846,-0.597477,0.365376,0.0268184,0.0179836,1.55399,5,0.1,1,0.1,0.779531,-3.71912,0.526127,0.0169232,0.0168823,0.00219122,0.300858,0.300139,0.0389591,0.0166331,0.576142,5,0.1,2,0.1,-3.53056,-2.20191,0.629567,0.00354052,0.0591606,-0.000454206,0.0629425,1.05175,-0.0080727,0.0135362,3.51219,5,0.1,3,0.1,0.0577312,-3.72325,0.641694,-0.0106121,0.0303552,-0.00123689,-0.18866,0.539631,-0.0219904,0.0107114,1.03541,5,0.1,4,0.1,-3.83618,0.199374,0.505562,0.0292554,-0.014814,-0.00136327,0.52008,-0.26336,-0.0242367,0.0110137,1.07788,5,0.1,5,0.1,0.734459,3.23889,0.552817,-0.00843853,-0.0337854,0.00139978,-0.150017,-0.600636,0.0248849,0.0103009,1.21443,5,0.1,6,0.1,-1.9442,-3.99465,0.5379,-0.000172481,0.025057,0.0196413,-0.00305474,0.445455,0.349175,0.0130574,1.01348,5,0.1,7,0.1,3.96284,3.86652,0.594061,-0.0419118,-0.0301547,0.000176206,-0.745118,-0.536084,0.00313669,0.0123559,2.66557,5,0.1,8,0.1,-0.622219,-0.183152,0.688512,0.00859825,0.058604,-0.00208998,0.15286,1.04185,-0.0371598,0.0122154,3.5122,5,0.1,9,0.1,1.16464,-0.826665,0.674869,-0.0434486,0.0156234,-0.00222111,-0.772424,0.277754,-0.0394844,0.0158692,2.13651,5,0.1,10,0.1,1.94745,3.25239,0.524036,0.0575054,-0.0142943,0.0012422,1.02232,-0.25411,0.0220835,0.00966489,3.5122,5,0.1,11,0.1,-1.35493,0.614239,0.669203,0.0357443,0.0218266,-0.00205282,0.635467,0.388023,-0.0364929,0.0107161,1.75801,5,0.1,12,0.1,0.528381,-1.0834,0.602162,0.0199239,0.0276897,-6.38887e-05,0.354197,0.49226,-0.00113994,0.0145391,1.16348,5,0.1,13,0.1,3.64653,-0.611717,0.583983,-0.00566132,0.0589969,0.000261609,-0.100628,1.04883,0.00464544,0.0219983,3.5122,5,0.1,14,0.1,3.69919,-1.65943,0.686294,-0.00363104,0.0591496,0.000928249,-0.0645667,1.05155,0.0164993,0.0146284,3.51219,5,0.1,15,0.1,-3.96505,2.95365,0.547491,0.0552461,0.0210483,0.00419617,0.982136,0.374213,0.0745952,0.00981528,3.5122,5,0.1,16,0.1,2.06955,0.653556,0.583338,-0.0257947,0.0206599,0.000494253,-0.458568,0.367291,0.00878796,0.0110121,1.09231,5,0.1,17,0.1,-3.2305,-1.50117,0.643113,-0.00130571,0.0592489,-0.000810623,-0.0232309,1.0533,-0.0144094,0.0149395,3.5122,5,0.1,18,0.1,-3.54733,-0.918027,0.624251,0.0090614,0.0585689,-0.000553112,0.161111,1.04122,-0.00983849,0.0121525,3.5122,5,0.1,19,0.1,-0.658073,-3.7472,0.662144,-0.0584213,0.00988953,-0.00137426,-1.0386,0.175789,-0.0244305,0.0110865,3.5122,5,0.1,20,0.1,-0.716754,1.07495,0.653818,0.0123631,-0.0318885,-0.00159647,0.219785,-0.5669,-0.0283793,0.013567,1.17209,5,0.1,21,0.1,3.92894,2.12592,0.669843,-0.0275575,0.0259299,-0.00207182,-0.48992,0.460997,-0.0368357,0.0120253,1.43582,5,0.1,22,0.1,-3.82861,1.32944,0.644524,0.0201311,-0.0483371,-0.0013208,0.357881,-0.859335,-0.0234768,0.0103691,2.74309,5,0.1,23,0.1,1.79987,-1.59069,0.683495,-0.0107855,0.0582665,0.00119582,-0.191733,1.03585,0.021264,0.0224564,3.5122,5,0.1,24,0.1,-4.18277,-0.502092,0.586055,0.0524223,-0.0276498,0.000188407,0.931978,-0.491552,0.00334904,0.0188967,3.5122,5,0.1,25,0.1,0.625746,4.22518,0.667878,-0.0497112,-0.00519753,-0.00201343,-0.883758,-0.0923872,-0.0357963,0.00948218,2.50188,5,0.1,26,0.1,3.9306,3.24896,0.585401,-0.0409555,-0.00738502,0.000432972,-0.728115,-0.131279,0.00770018,0.0139371,1.73184,5,0.1,27,0.1,-1.23771,-4.36224,0.621366,0.0548268,0.022506,-0.000452623,0.974707,0.400096,-0.00804663,0.0135452,3.5122,5,0.1,28,0.1,-0.273439,-0.921813,0.558287,-0.0576187,-0.013863,0.000794139,-1.02433,-0.246454,0.0141151,0.0105934,3.51219,5,0.1,29,0.1,3.67946,-3.02369,0.644587,-0.00250489,0.0592131,-0.000486802,-0.0445247,1.05269,-0.00865385,0.0224759,3.5122,5,0.1,30,0.1,3.82435,-4.19879,0.503963,-0.00335723,0.059171,-0.000483915,-0.0596642,1.05196,-0.00860542,0.0163331,3.51219,5,0.1,31,0.1,-1.77411,-1.18222,0.542485,0.00368189,-0.0227761,0.00170609,0.0654534,-0.404909,0.030335,0.0117685,0.53514,5,0.1,32,0.1,1.46106,2.67742,0.698318,0.0504188,0.0145033,-0.00256551,0.896335,0.25782,-0.0456087,0.00862957,2.75857,5,0.1,33,0.1,-3.26902,2.63051,0.667128,-0.0270125,0.044072,-0.00124555,-0.48022,0.783488,-0.0221431,0.00856939,2.67313,5,0.1,34,0.1,-3.22579,-3.67606,0.578078,-0.000825897,0.0592623,0.000243913,-0.0146776,1.05356,0.00433251,0.0186264,3.51219,5,0.1,35,0.1,4.00849,1.04415,0.520096,-0.0238091,0.0542413,-0.00194414,-0.423253,0.964284,-0.0345595,0.010102,3.5122,5,0.1,36,0.1,4.39338,-2.93003,0.638385,-0.0107475,0.0582848,-0.000377372,-0.191063,1.03618,-0.00671297,0.027789,3.51219,5,0.1,37,0.1,2.33286,-3.99277,0.543916,-0.0259951,0.053256,0.000921171,-0.462115,0.94676,0.0163727,0.0115967,3.51219,5,0.1,38,0.1,-1.54789,-3.28368,0.691736,-0.00623204,0.0589218,0.0014402,-0.11079,1.04751,0.0256076,0.014986,3.51219,5,0.1,39,0.1,-4.38655,-3.81549,0.553941,0.0293851,0.0514604,0.00109449,0.522375,0.914842,0.0194535,0.00936237,3.5122,5,0.1
0,0.2,2.3261,-2.48866,0.54946,-0.106221,0.0649631,0.00476688,-0.796556,0.487089,0.0357628,0.0176712,1.27498,5,0.1,1,0.2,0.782968,-3.71569,0.526572,0.0534847,0.053364,0.00692606,0.401139,0.400066,0.0519753,0.0195855,0.472698,5,0.1,2,0.2,-3.52984,-2.18989,0.629474,0.0111938,0.186974,-0.00143498,0.0838041,1.40238,-0.0107586,0.0115196,2.92579,5,0.1,3,0.2,0.0555755,-3.71709,0.641442,-0.0335396,0.0959337,-0.00390857,-0.251547,0.719547,-0.0293255,0.0116804,0.849503,5,0.1,4,0.2,-3.83024,0.196365,0.505286,0.0924587,-0.0468194,-0.00430942,0.69356,-0.351146,-0.0322759,0.0118234,0.884665,5,0.1,5,0.2,0.732745,3.23203,0.553101,-0.0266701,-0.106782,0.00442415,-0.200003,-0.800729,0.03317,0.0103871,0.996386,5,0.1,6,0.2,-1.94423,-3.98956,0.54189,-0.000545382,0.0791907,0.0620753,-0.00405312,0.593901,0.465602,0.0131745,0.821519,5,0.1,7,0.2,3.95432,3.8604,0.594097,-0.132459,-0.0953078,0.000555813,-0.99349,-0.71466,0.00420213,0.0126042,2.18697,5,0.1,8,0.2,-0.620473,-0.171248,0.688087,0.0271752,0.185217,-0.00660568,0.203818,1.38914,-0.0495315,0.0113767,2.92579,5,0.1,9,0.2,1.15582,-0.823491,0.674418,-0.13732,0.049378,-0.00701845,-1.02991,0.370353,-0.0526905,0.0164496,1.75289,5,0.1,10,0.2,1.95913,3.24949,0.524288,0.181744,-0.0451744,0.00392646,1.36316,-0.338912,0.0294149,0.00861794,2.92579,5,0.1,11,0.2,-1.34767,0.618672,0.668786,0.112969,0.0689819,-0.00648946,0.84734,0.517398,-0.0486374,0.0109141,1.44235,5,0.1,12,0.2,0.532428,-1.07777,0.602149,0.0629693,0.0875115,-0.000202656,0.472248,0.656366,-0.00151992,0.0174449,0.954575,5,0.1,13,0.2,3.64538,-0.599733,0.584036,-0.0178874,0.18646,0.000827014,-0.13423,1.39841,0.00619888,0.0225115,2.9258,5,0.1,14,0.2,3.69846,-1.64741,0.686482,-0.0114739,0.186944,0.00293404,-0.0861883,1.40202,0.0219941,0.0144429,2.9258,5,0.1,15,0.2,-3.95382,2.95793,0.548343,0.1746,0.0665247,0.013262,1.30963,0.498891,0.0994802,0.0101772,2.92591,5,0.1,16,0.2,2.06431,0.657753,0.583439,-0.0815272,0.0652954,0.00156164,-0.611424,0.489742,0.0117123,0.0102434,1.11945,5,0.1,17,0.2,-3.23077,-1.48913,0.642949,-0.0041306,0.187254,-0.00256151,-0.0309944,1.4044,-0.0192225,0.0137155,2.92579,5,0.1,18,0.2,-3.54549,-0.90613,0.624138,0.02864,0.185105,-0.00174791,0.214815,1.38834,-0.013113,0.0143299,2.92579,5,0.1,19,0.2,-0.66994,-3.74519,0.661865,-0.18464,0.0312567,-0.00434369,-1.38479,0.234365,-0.0325739,0.0106103,2.92579,5,0.1,20,0.2,-0.714243,1.06847,0.653494,0.0390723,-0.100783,-0.00504702,0.293076,-0.755906,-0.0377893,0.0129426,0.96164,5,0.1,21,0.2,3.92334,2.13119,0.669422,-0.0870943,0.0819504,-0.00654906,-0.653148,0.614643,-0.0490844,0.012437,1.17802,5,0.1,22,0.2,-3.82452,1.31962,0.644256,0.063622,-0.15277,-0.00417382,0.477195,-1.14578,-0.0313222,0.0102165,2.25057,5,0.1,23,0.2,1.79768,-1.57886,0.683738,-0.0340879,0.184152,0.00377893,-0.255644,1.3811,0.028342,0.0235192,2.9258,5,0.1,24,0.2,-4.17212,-0.507708,0.586093,0.165689,-0.0873864,0.000594556,1.2424,-0.655413,0.00447035,0.0217661,2.95113,5,0.1,25,0.2,0.615648,4.22413,0.667469,-0.157112,-0.0164151,-0.00636429,-1.17832,-0.123501,-0.0477135,0.00979359,2.05267,5,0.1,26,0.2,3.92228,3.24746,0.585489,-0.129437,-0.0233412,0.00136793,-0.97084,-0.175118,0.0102818,0.0137312,1.42089,5,0.1,27,0.2,-1.22657,-4.35766,0.621274,0.173283,0.0711322,-0.00143051,1.2995,0.533342,-0.0107586,0.0138157,2.92581,5,0.1,28,0.2,-0.285143,-0.924629,0.558448,-0.182103,-0.0438139,0.00250936,-1.36578,-0.3286,0.0188351,0.0107617,2.92579,5,0.1,29,0.2,3.67895,-3.01166,0.644488,-0.00792146,0.187147,-0.0015378,-0.059247,1.40345,-0.0115633,0.02213,2.92581,5,0.1,30,0.2,3.82366,-4.18677,0.503865,-0.0106096,0.187004,-0.00152886,-0.0795126,1.40262,-0.0115037,0.0158137,2.9258,5,0.1,31,0.2,-1.77337,-1.18685,0.542831,0.0116348,-0.0719845,0.00539273,0.0873208,-0.539839,0.0404418,0.0103648,0.439057,5,0.1,32,0.2,1.4713,2.68037,0.697797,0.15935,0.0458419,-0.00810772,1.19507,0.34368,-0.0607967,0.00924554,2.26327,5,0.1,33,0.2,-3.2745,2.63946,0.666875,-0.0853658,0.13929,-0.00393689,-0.640392,1.04463,-0.0295341,0.012017,2.20577,5,0.1,34,0.2,-3.22596,-3.66403,0.578128,-0.00261068,0.187296,0.00077188,-0.0195503,1.40476,0.00575185,0.018073,2.92579,5,0.1,35,0.2,4.00365,1.05517,0.519701,-0.0752449,0.171429,-0.00614375,-0.564337,1.28573,-0.0460744,0.0098832,2.92579,5,0.1,36,0.2,4.3912,-2.91819,0.638308,-0.0339627,0.184208,-0.00119209,-0.254631,1.38152,-0.0089407,0.0250652,2.9258,5,0.1,37,0.2,2.32758,-3.98195,0.544103,-0.082159,0.168312,0.00291169,-0.616074,1.26243,0.0218153,0.0112425,2.92579,5,0.1,38,0.2,-1.54916,-3.27172,0.692029,-0.0196964,0.186223,0.0045523,-0.1477,1.39666,0.0341237,0.0102536,2.9258,5,0.1,39,0.2,-4.38058,-3.80504,0.554164,0.092876,0.162637,0.00345856,0.696421,1.21975,0.0259578,0.00974514,2.9258,5,0.1
0,0.3,2.31106,-2.47946,0.550135,-0.197598,0.12084,0.00886889,-0.974774,0.596106,0.043761,0.0176712,1.27498,5,0.1,1,0.3,0.790543,-3.70814,0.527553,0.0994999,0.0992596,0.0128871,0.490867,0.489622,0.0635833,0.0195855,0.472698,5,0.1,2,0.3,-3.52825,-2.1634,0.629271,0.0208363,0.348258,-0.00267252,0.103086,1.72345,-0.0132248,0.0115196,2.92579,5,0.1,3,0.3,0.0508253,-3.7035,0.640889,-0.0623948,0.178473,-0.00727223,-0.307812,0.88048,-0.0358857,0.0116804,0.849503,5,0.1,4,0.3,-3.81714,0.189734,0.504714,0.172013,-0.0870998,-0.00691051,0.848606,-0.42969,-0.0199117,0.0118234,0.884665,5,0.1,5,0.3,0.728968,3.21691,0.553728,-0.0496133,-0.198638,0.00822945,-0.244755,-0.979915,0.0405945,0.0103871,0.996386,5,0.1,6,0.3,-1.944,-3.97818,0.550055,0.00787918,0.151763,0.0977035,0.153072,0.805795,0.253629,0.0131745,0.821519,5,0.1,7,0.3,3.93556,3.8469,0.594176,-0.246423,-0.177292,0.00103675,-1.2157,-0.874609,0.005126,0.0126042,2.18697,5,0.1,8,0.3,-0.616622,-0.145001,0.687151,0.0506161,0.344981,-0.0123026,0.250489,1.70721,-0.0608787,0.0113767,2.92579,5,0.1,9,0.3,1.13637,-0.816498,0.673424,-0.255462,0.0918612,-0.0130611,-1.26027,0.453182,-0.0644512,0.0164496,1.75289,5,0.1,10,0.3,1.98489,3.24309,0.524845,0.338517,-0.0841491,0.00731032,1.67526,-0.416458,0.0361651,0.00861794,2.92579,5,0.1,11,0.3,-1.33167,0.628443,0.667867,0.210166,0.128332,-0.0120694,1.03683,0.633106,-0.0595301,0.0109141,1.44235,5,0.1,12,0.3,0.541346,-1.06538,0.60212,0.117142,0.162803,-0.000376906,0.577886,0.803173,-0.00185892,0.0174449,0.954575,5,0.1,13,0.3,3.64285,-0.57331,0.584153,-0.0333227,0.347291,0.00154013,-0.164926,1.71864,0.00761822,0.0225115,2.9258,5,0.1,14,0.3,3.69683,-1.62092,0.686898,-0.0213813,0.34819,0.00546388,-0.105843,1.72307,0.0270307,0.0144429,2.9258,5,0.1,15,0.3,-3.92911,2.96737,0.550221,0.324437,0.124399,0.0246501,1.59559,0.621974,0.121318,0.0101772,2.92591,5,0.1,16,0.3,2.0526,0.667001,0.58366,-0.156111,0.121474,0.00290545,-0.827223,0.599273,0.0143312,0.0102434,1.11945,5,0.1,17,0.3,-3.23135,-1.46259,0.642586,-0.00769421,0.348773,-0.004772,-0.0380874,1.72597,-0.0236221,0.0137155,2.92579,5,0.1,18,0.3,-3.54144,-0.879899,0.623891,0.0533454,0.344776,-0.0032559,0.263989,1.70621,-0.0161082,0.0143299,2.92579,5,0.1,19,0.3,-0.696105,-3.74076,0.66125,-0.343904,0.0582121,-0.00808993,-1.70188,0.288069,-0.0400357,0.0106103,2.92579,5,0.1,20,0.3,-0.708709,1.0542,0.652779,0.0726906,-0.187492,-0.00938382,0.358615,-0.924975,-0.0462756,0.0129426,0.96164,5,0.1,21,0.3,3.91101,2.14279,0.668495,-0.16202,0.152457,-0.0121807,-0.799283,0.752121,-0.0600778,0.012437,1.17802,5,0.1,22,0.3,-3.81551,1.29798,0.643664,0.118361,-0.284203,-0.00776639,0.583932,-1.40207,-0.0383221,0.0102165,2.25057,5,0.1,23,0.3,1.79285,-1.55276,0.684273,-0.0634898,0.342992,0.00703875,-0.314191,1.69736,0.0348315,0.0235192,2.9258,5,0.1,24,0.3,-4.14912,-0.520026,0.586168,0.295214,-0.160894,0.00085216,1.28937,-0.772223,0.000938773,0.0217661,2.95113,5,0.1,25,0.3,0.593397,4.2218,0.666568,-0.292279,-0.0305712,-0.0118381,-1.4419,-0.150919,-0.0583939,0.00979359,2.05267,5,0.1,26,0.3,3.90395,3.24415,0.585683,-0.240802,-0.0434276,0.00254689,-1.188,-0.214264,0.0125729,0.0137312,1.42089,5,0.1,27,0.3,-1.20201,-4.34759,0.621072,0.322741,0.132475,-0.00266684,1.59713,0.655562,-0.0132062,0.0138157,2.92581,5,0.1,28,0.3,-0.310948,-0.930838,0.558804,-0.33918,-0.081606,0.00467505,-1.67851,-0.403844,0.0231415,0.0107617,2.92579,5,0.1,29,0.3,3.67783,-2.98515,0.64427,-0.0147399,0.348561,-0.0028667,-0.0729114,1.72487,-0.0141971,0.02213,2.92581,5,0.1,30,0.3,3.82216,-4.16027,0.503648,-0.0197563,0.348315,-0.00285087,-0.0977665,1.72377,-0.0141151,0.0158137,2.9258,5,0.1,31,0.3,-1.77172,-1.19704,0.543595,0.0216501,-0.133912,0.0100319,0.106819,-0.660613,0.0494905,0.0103648,0.439057,5,0.1,32,0.3,1.49387,2.68686,0.696649,0.29644,0.0852693,-0.0150822,1.4624,0.420615,-0.0744015,0.00924554,2.26327,5,0.1,33,0.3,-3.28631,2.65901,0.666336,-0.150798,0.254019,-0.00678226,-0.640899,1.18758,-0.0264943,0.012017,2.20577,5,0.1,34,0.3,-3.22633,-3.63748,0.578237,-0.00486001,0.348855,0.00143442,-0.0240207,1.7264,0.0070855,0.018073,2.92579,5,0.1,35,0.3,3.99299,1.07946,0.51883,-0.140149,0.319299,-0.0114428,-0.693575,1.58012,-0.0566244,0.0098832,2.92579,5,0.1,36,0.3,4.38638,-2.89209,0.638139,-0.0632517,0.343097,-0.00222037,-0.313014,1.69787,-0.0109933,0.0250652,2.9258,5,0.1,37,0.3,2.31594,-3.9581,0.544515,-0.153017,0.3135,0.00542114,-0.757188,1.55145,0.0268184,0.0112425,2.92579,5,0.1,38,0.3,-1.55195,-3.24533,0.692674,-0.0366842,0.346851,0.00847727,-0.181533,1.71645,0.0419468,0.0102536,2.9258,5,0.1,39,0.3,-4.36742,-3.78199,0.554654,0.172973,0.30292,0.00644336,0.855953,1.49906,0.0318922,0.00974514,2.9258,5,0.1
0,0.4,2.28651,-2.46445,0.551237,-0.291413,0.178206,0.0130802,-0.859857,0.526071,0.038594,0.0228888,1.00878,5,0.1,1,0.4,0.802904,-3.6958,0.529154,0.146741,0.146383,0.0190064,0.433028,0.432014,0.0560582,0.0279676,0.374006,5,0.1,2,0.4,-3.52566,-2.1201,0.628939,0.0307739,0.514311,-0.00394732,0.0910759,1.52385,-0.0116825,0.0159702,2.51527,5,0.1,3,0.4,0.0430741,-3.68133,0.639985,-0.0920182,0.263208,-0.0107244,-0.271564,0.776768,-0.0316799,0.0127679,0.672137,5,0.1,4,0.4,-3.79577,0.178914,0.503943,0.253683,-0.128452,-0.00833124,0.748754,-0.379086,-0.00873208,0.0125071,0.70045,5,0.1,5,0.4,0.722804,3.19223,0.55475,-0.0731677,-0.292939,0.012137,-0.215948,-0.864625,0.0357926,0.0108874,0.788356,5,0.1,6,0.4,-1.94232,-3.95898,0.56079,0.0266075,0.231308,0.114118,0.206292,0.746608,0.0811815,0.0154658,0.65127,5,0.1,7,0.4,3.90495,3.82487,0.594305,-0.363421,-0.261462,0.00153035,-1.07253,-0.771642,0.00450015,0.0161472,1.73036,5,0.1,8,0.4,-0.610329,-0.102112,0.685622,0.0747502,0.509466,-0.0181675,0.221461,1.50948,-0.0538528,0.0157585,2.51366,5,0.1,9,0.4,1.10463,-0.805086,0.671801,-0.376749,0.135474,-0.0192627,-1.11187,0.399828,-0.0568628,0.0211393,1.40882,5,0.1,10,0.4,2.02697,3.23263,0.525754,0.499922,-0.124276,0.0107959,1.48118,-0.368118,0.0319779,0.0139392,2.51101,5,0.1,11,0.4,-1.30556,0.644385,0.666368,0.309947,0.189261,-0.0177994,0.914752,0.558555,-0.0525117,0.01087,1.14128,5,0.1,12,0.4,0.555898,-1.04515,0.602073,0.172758,0.240096,-0.000555813,0.509828,0.70864,-0.00166893,0.018057,0.840133,5,0.1,13,0.4,3.6387,-0.530133,0.584344,-0.0492156,0.512879,0.00227392,-0.145674,1.51956,0.00676513,0.026057,2.5147,5,0.1,14,0.4,3.69417,-1.57763,0.687577,-0.0315785,0.514206,0.00806898,-0.0935793,1.52349,0.0239015,0.0167475,2.51523,5,0.1,15,0.4,-3.88883,2.98288,0.553281,0.477815,0.184548,0.0363141,1.40464,0.553846,0.106841,0.0134194,2.48551,5,0.1,16,0.4,2.03286,0.682091,0.584021,-0.237721,0.179146,0.00428557,-0.765443,0.528693,0.0126362,0.0102936,0.891501,5,0.1,17,0.4,-3.23231,-1.41923,0.641992,-0.0113606,0.515068,-0.00704676,-0.0337362,1.52606,-0.0208914,0.0134209,2.51559,5,0.1,18,0.4,-3.5348,-0.837035,0.623486,0.0787795,0.509164,-0.0048086,0.233412,1.50859,-0.0142455,0.011916,2.51335,5,0.1,19,0.4,-0.73886,-3.73353,0.660244,-0.507878,0.0859678,-0.0119463,-1.50475,0.254631,-0.0354052,0.00988836,2.51295,5,0.1,20,0.4,-0.699678,1.03091,0.651614,0.107203,-0.276509,-0.0138372,0.316352,-0.816047,-0.040859,0.0125545,0.760858,5,0.1,21,0.4,3.89088,2.16173,0.666981,-0.238943,0.224841,-0.0179633,-0.705242,0.663519,-0.0530183,0.0127372,0.932062,5,0.1,22,0.4,-3.80081,1.26268,0.642699,0.174558,-0.419134,-0.0114545,0.515223,-1.23703,-0.0337958,0.0102998,1.78067,5,0.1,23,0.4,1.78496,-1.51012,0.685148,-0.0937611,0.506526,0.0103936,-0.277817,1.50084,0.0308156,0.0246979,2.51255,5,0.1,24,0.4,-4.11347,-0.539881,0.586254,0.413454,-0.234456,0.000827014,1.03354,-0.66787,-0.0012517,0.0168903,2.57993,5,0.1,25,0.4,0.557087,4.218,0.665097,-0.431044,-0.045085,-0.0174582,-1.27214,-0.133276,-0.0515282,0.0104188,1.62409,5,0.1,26,0.4,3.87404,3.23875,0.585999,-0.35513,-0.0640452,0.00375658,-1.04809,-0.188947,0.0110865,0.0130732,1.12422,5,0.1,27,0.4,-1.16189,-4.33112,0.62074,0.47662,0.195634,-0.00393838,1.41221,0.579834,-0.0116825,0.0145182,2.51009,5,0.1,28,0.4,-0.353117,-0.940983,0.559385,-0.500901,-0.120515,0.00690371,-1.48408,-0.357091,0.020504,0.0105265,2.5112,5,0.1,29,0.4,3.676,-2.94181,0.643914,-0.0217617,0.514752,-0.00423491,-0.0646114,1.52516,-0.012517,0.0237793,2.51547,5,0.1,30,0.4,3.8197,-4.11697,0.503294,-0.0291765,0.5144,-0.00420958,-0.0863075,1.52397,-0.0124872,0.0154088,2.51533,5,0.1,31,0.4,-1.76903,-1.21368,0.544841,0.0319302,-0.197488,0.0147954,0.0942349,-0.582874,0.0436306,0.00955857,0.347387,5,0.1,32,0.4,1.53069,2.69745,0.694775,0.437182,0.125748,-0.022243,1.29014,0.371218,-0.0656545,0.0098275,1.79073,5,0.1,33,0.4,-3.30441,2.69017,0.665537,-0.208873,0.36602,-0.00908822,-0.501037,1.00672,-0.0190437,0.00900787,2.05045,5,0.1,34,0.4,-3.22693,-3.59411,0.578415,-0.0071764,0.515187,0.00211746,-0.0213385,1.52647,0.00625849,0.0193016,2.77287,5,0.1,35,0.4,3.97557,1.11916,0.517408,-0.206971,0.471541,-0.0168994,-0.613213,1.39707,-0.0500381,0.0135957,2.5101,5,0.1,36,0.4,4.37852,-2.84944,0.637863,-0.0934124,0.506687,-0.00327826,-0.276566,1.5012,-0.00974536,0.0374949,2.5126,5,0.1,37,0.4,2.29692,-3.91913,0.545189,-0.225973,0.462979,0.0080049,-0.669599,1.37162,0.0237525,0.0179718,2.51008,5,0.1,38,0.4,-1.55651,-3.2022,0.693728,-0.0541717,0.51223,0.01252,-0.160575,1.51765,0.0370741,0.0136175,2.51583,5,0.1,39,0.4,-4.34591,-3.74433,0.555455,0.255442,0.447351,0.00951737,0.756979,1.32549,0.0281632,0.0123755,2.51008,5,0.1
0,0.5,2.25299,-2.44395,0.552741,-0.378658,0.231579,0.0169961,-0.842243,0.515208,0.0377968,0.0228888,1.00878,5,0.1,1,0.5,0.819783,-3.67897,0.53134,0.190676,0.190216,0.0246943,0.424132,0.423133,0.0549071,0.0279676,0.374006,5,0.1,2,0.5,-3.52211,-2.06107,0.628484,0.0401497,0.664492,-0.00514984,0.0916123,1.41152,-0.0117496,0.0159702,2.51527,5,0.1,3,0.5,0.0324896,-3.65105,0.638752,-0.119571,0.342019,-0.0139381,-0.265976,0.760809,-0.0310205,0.0127679,0.672137,5,0.1,4,0.5,-3.76659,0.164138,0.503088,0.329648,-0.166915,-0.00857431,0.733271,-0.371287,0.00309944,0.0125071,0.70045,5,0.1,5,0.5,0.714388,3.15853,0.556146,-0.0950779,-0.380662,0.0157689,-0.211503,-0.846818,0.0350662,0.0108874,0.788356,5,0.1,6,0.5,-1.93851,-3.932,0.572422,0.0503311,0.308454,0.116768,0.253536,0.756964,-0.023447,0.0154658,0.65127,5,0.1,7,0.5,3.86315,3.7948,0.594481,-0.47224,-0.339754,0.00198688,-1.05044,-0.755772,0.00440329,0.0161472,1.73036,5,0.1,8,0.5,-0.601705,-0.0435926,0.683529,0.0978442,0.659387,-0.0236736,0.228018,1.42009,-0.0534989,0.0157585,2.51366,5,0.1,9,0.5,1.06161,-0.78919,0.669612,-0.48071,0.184925,-0.0242783,-0.931695,0.549555,-0.0422895,0.0211393,1.40882,5,0.1,10,0.5,2.08448,3.21831,0.526998,0.649524,-0.162157,0.0140871,1.43772,-0.370041,0.032153,0.0139392,2.51101,5,0.1,11,0.5,-1.26994,0.666151,0.664321,0.401992,0.245829,-0.0231232,0.882328,0.545222,-0.0513531,0.01087,1.14128,5,0.1,12,0.5,0.575157,-1.01815,0.601957,0.207074,0.294507,-0.0022063,0.189811,0.383172,-0.0279695,0.018057,0.840133,5,0.1,13,0.5,3.63303,-0.47125,0.584606,-0.0642084,0.663,0.00296962,-0.146478,1.41411,0.00678748,0.026057,2.5147,5,0.1,14,0.5,3.69053,-1.51861,0.688507,-0.0412066,0.664381,0.0105288,-0.0940114,1.4117,0.0240281,0.0167475,2.51523,5,0.1,15,0.5,-3.83404,3.00448,0.557426,0.616328,0.249981,0.0462756,1.30452,0.706837,0.0890195,0.0134194,2.48551,5,0.1,16,0.5,2.00514,0.702698,0.584514,-0.31678,0.232787,0.0055681,-0.775442,0.517812,0.0123791,0.0102936,0.891501,5,0.1,17,0.5,-3.23362,-1.36012,0.64118,-0.0148304,0.665277,-0.00919616,-0.0338852,1.41012,-0.020992,0.0134209,2.51559,5,0.1,18,0.5,-3.52572,-0.778545,0.622932,0.102798,0.659139,-0.0062746,0.234604,1.4209,-0.0143163,0.011916,2.51335,5,0.1,19,0.5,-0.797214,-3.72362,0.658867,-0.657799,0.112172,-0.0155893,-1.42323,0.255957,-0.0355802,0.00988836,2.51295,5,0.1,20,0.5,-0.687347,0.9991,0.650022,0.139301,-0.359304,-0.0179832,0.309844,-0.799242,-0.0400208,0.0125545,0.760858,5,0.1,21,0.5,3.8634,2.1876,0.664915,-0.310495,0.292161,-0.0233428,-0.690699,0.649869,-0.0519268,0.0127372,0.932062,5,0.1,22,0.5,-3.78073,1.21446,0.641382,0.226831,-0.544642,-0.0148834,0.504598,-1.21155,-0.0330992,0.0102998,1.78067,5,0.1,23,0.5,1.77415,-1.45191,0.686346,-0.122349,0.656399,0.0135642,-0.27924,1.42572,0.0309683,0.0246979,2.51255,5,0.1,24,0.5,-4.06658,-0.566862,0.586334,0.526357,-0.306033,0.00081528,1.15266,-0.721551,0.00077486,0.0168903,2.57993,5,0.1,25,0.5,0.507506,4.21281,0.663089,-0.560115,-0.0585988,-0.0226862,-1.24595,-0.130415,-0.0504665,0.0104188,1.62409,5,0.1,26,0.5,3.83319,3.23139,0.586431,-0.461468,-0.0832159,0.00488143,-1.0265,-0.185058,0.0108555,0.0130732,1.12422,5,0.1,27,0.5,-1.10697,-4.30857,0.620286,0.621941,0.255297,-0.00513978,1.41948,0.582755,-0.0117347,0.0145182,2.51009,5,0.1,28,0.5,-0.410731,-0.954871,0.560181,-0.650543,-0.15726,0.0090125,-1.43596,-0.358917,0.0205897,0.0105265,2.5112,5,0.1,29,0.5,3.67349,-2.88273,0.643426,-0.0284091,0.664951,-0.00552321,-0.0649095,1.41071,-0.0125878,0.0237793,2.51547,5,0.1,30,0.5,3.81634,-4.05792,0.502821,-0.038062,0.664577,-0.00513932,-0.086844,1.41132,-0.00623241,0.0154088,2.51533,5,0.1,31,0.5,-1.76536,-1.2364,0.546543,0.0414906,-0.256625,0.0192228,0.0922903,-0.570871,0.0427477,0.00955857,0.347387,5,0.1,32,0.5,1.58098,2.71192,0.692217,0.568082,0.16341,-0.0289042,1.26363,0.363573,-0.0643022,0.0098275,1.79073,5,0.1,33,0.5,-3.32716,2.73073,0.664667,-0.240153,0.435187,-0.00716597,-0.141457,0.39874,0.0499785,0.00900787,2.05045,5,0.1,34,0.5,-3.22776,-3.53633,0.578659,-0.0093706,0.627404,0.00276221,-0.0214279,0.738412,0.00630692,0.0193016,2.77287,5,0.1,35,0.5,3.95172,1.1735,0.515475,-0.270074,0.615305,-0.0216427,-0.616372,1.40427,-0.043083,0.0135957,2.5101,5,0.1,36,0.5,4.36776,-2.79121,0.637485,-0.121878,0.656559,-0.00428045,-0.278115,1.42542,-0.00978634,0.0374949,2.5126,5,0.1,37,0.5,2.27088,-3.86578,0.546112,-0.294877,0.604126,0.0104484,-0.673026,1.37872,0.0238605,0.0179718,2.51008,5,0.1,38,0.5,-1.56286,-3.14339,0.695167,-0.0738505,0.662316,0.0162379,-0.217482,1.41525,0.0355355,0.0136175,2.51583,5,0.1,39,0.5,-4.31648,-3.69278,0.556551,0.333334,0.583747,0.0124158,0.760823,1.3323,0.0283197,0.0123755,2.51008,5,0.1
0,0.6,2.21123,-2.41841,0.554615,-0.452572,0.276792,0.0203133,-0.605822,0.370622,0.0272095,0.0178282,0.751022,5,0.1,1,0.6,0.840811,-3.65799,0.534063,0.227895,0.22735,0.0295132,0.305146,0.304461,0.0394881,0.0174512,0.278441,5,0.1,2,0.6,-3.51767,-1.9882,0.627914,0.0482678,0.785357,-0.00619143,0.0674725,0.961542,-0.00864267,0.01595,2.3332,5,0.1,3,0.6,0.019303,-3.61333,0.637214,-0.142912,0.408781,-0.0166595,-0.191337,0.54729,-0.0222921,0.0160754,0.502918,5,0.1,4,0.6,-3.73024,0.14573,0.50226,0.393999,-0.199496,-0.00785291,0.527382,-0.267103,0.010699,0.0150311,0.522497,5,0.1,5,0.6,0.703903,3.11655,0.557885,-0.113638,-0.45498,0.018847,-0.152171,-0.60904,0.0252128,0.0103491,0.58691,5,0.1,6,0.6,-1.93223,-3.89762,0.583841,0.0747681,0.375974,0.110336,0.224352,0.565648,-0.100881,0.0140699,0.491611,5,0.1,7,0.6,3.81107,3.75733,0.5947,-0.56442,-0.40608,0.00237525,-0.755787,-0.543594,0.00312924,0.0148655,1.29599,5,0.1,8,0.6,-0.590853,0.0288386,0.680914,0.118233,0.781938,-0.0283942,0.170916,0.984313,-0.0389516,0.0174038,2.51405,5,0.1,9,0.6,1.00942,-0.767971,0.667005,-0.557159,0.238486,-0.0275373,-0.573635,0.492305,-0.0221729,0.0225584,1.05352,5,0.1,10,0.6,2.15606,3.20037,0.528556,0.775152,-0.194955,0.0169367,1.02484,-0.272036,0.0236332,0.00782956,2.38275,5,0.1,11,0.6,-1.22568,0.693253,0.661771,0.478962,0.293612,-0.0276268,0.626326,0.391066,-0.0368655,0.0119431,0.851274,5,0.1,12,0.6,0.596377,-0.987296,0.601576,0.213277,0.317632,-0.00555068,-0.0534952,0.0847876,-0.0362992,0.0196692,0.728279,5,0.1,13,0.6,3.62593,-0.398509,0.584935,-0.077188,0.784339,0.00357181,-0.107884,0.967801,0.00494719,0.0324258,2.33044,5,0.1,14,0.6,3.68597,-1.44575,0.689672,-0.0495374,0.785282,0.0126585,-0.0692606,0.9619,0.0176728,0.0160848,2.333,5,0.1,15,0.6,-3.76646,3.03294,0.562446,0.728381,0.317591,0.0535578,0.894427,0.610113,0.054419,0.0122431,1.87605,5,0.1,16,0.6,1.96984,0.72837,0.585128,-0.385919,0.278227,0.00665486,-0.57888,0.372499,0.00891089,0.0119784,0.668842,5,0.1,17,0.6,-3.23526,-1.28718,0.640163,-0.0178277,0.785893,-0.0110582,-0.025034,0.958145,-0.0154078,0.0205408,2.33468,5,0.1,18,0.6,-3.51435,-0.706137,0.622238,0.123596,0.781707,-0.00754446,0.172496,0.984132,-0.0104904,0.0123506,2.42933,5,0.1,19,0.6,-0.869507,-3.71121,0.657143,-0.780794,0.134861,-0.0187442,-0.989795,0.188231,-0.0261366,0.0126084,2.32101,5,0.1,20,0.6,-0.671985,0.959475,0.648038,0.166491,-0.429441,-0.0214949,0.222921,-0.574946,-0.028789,0.0172905,0.618641,5,0.1,21,0.6,3.82915,2.21982,0.662341,-0.37111,0.349194,-0.0278994,-0.496864,0.46742,-0.0373721,0.0142045,0.693894,5,0.1,22,0.6,-3.75571,1.1544,0.639741,0.271106,-0.650957,-0.0177875,0.363111,-0.871599,-0.0238419,0.0157678,1.32566,5,0.1,23,0.6,1.76062,-1.37974,0.687847,-0.147098,0.779843,0.0163093,-0.205398,0.995636,0.022769,0.0316698,2.31853,5,0.1,24,0.6,-4.00847,-0.600877,0.586421,0.63163,-0.371532,0.000937283,0.900626,-0.558197,0.00151992,0.0180581,2.4676,5,0.1,25,0.6,0.445734,4.20635,0.660587,-0.669453,-0.0700355,-0.0271156,-0.896291,-0.0936985,-0.0362992,0.0173409,1.20909,5,0.1,26,0.6,3.78229,3.22221,0.586969,-0.551552,-0.0994623,0.0058338,-0.738382,-0.133038,0.00780821,0.0207317,0.836948,5,0.1,27,0.6,-1.03817,-4.28033,0.619718,0.747752,0.306952,-0.00617951,1.04395,0.428677,-0.00861287,0.0151542,2.26314,5,0.1,28,0.6,-0.482398,-0.972267,0.561178,-0.775848,-0.189073,0.0108361,-1.02051,-0.2639,0.0151694,0.0135297,2.3085,5,0.1,29,0.6,3.67035,-2.80982,0.642815,-0.0341654,0.785667,-0.00663996,-0.0476837,0.959635,-0.00923872,0.0309578,2.3341,5,0.1,30,0.6,3.81213,-3.98505,0.502285,-0.0457585,0.78541,-0.00548512,-0.063777,0.961185,-0.00077486,0.0212474,2.33343,5,0.1,31,0.6,-1.76078,-1.2647,0.548663,0.0495881,-0.306723,0.0229731,0.0663996,-0.410676,0.0307858,0.0129769,2.07226,5,0.1,32,0.6,1.64363,2.72994,0.689029,0.678971,0.195312,-0.0345469,0.90903,0.261545,-0.0462532,0.0124974,1.33316,5,0.1,33,0.6,-3.35141,2.77539,0.664263,-0.240368,0.450087,-0.000435114,0.12219,-0.079751,0.0787377,0.00926827,1.73455,5,0.1,34,0.6,-3.2288,-3.47105,0.578965,-0.0112712,0.667053,0.00332147,-0.0156164,0.0755787,0.00464916,0.0238242,2.9643,5,0.1,35,0.6,3.92184,1.24156,0.513118,-0.324708,0.739771,-0.0252247,-0.453234,1.03265,-0.0273585,0.0168113,2.04592,5,0.1,36,0.6,4.35427,-2.71902,0.637012,-0.146532,0.779951,-0.00514686,-0.204325,0.994921,-0.00721216,0.0295963,2.31882,5,0.1,37,0.6,2.23826,-3.79895,0.547268,-0.354528,0.726318,0.0125647,-0.494957,1.01411,0.0175238,0.0147127,2.24187,5,0.1,38,0.6,-1.57132,-3.07071,0.696954,-0.0949711,0.783885,0.0193313,-0.193477,0.97084,0.0250638,0.0135941,2.32602,5,0.1,39,0.6,-4.2796,-3.62821,0.557925,0.40077,0.701833,0.0149265,0.559568,0.979781,0.0208318,0.012814,2.22677,5,0.1
0,0.7,2.163,-2.38891,0.556781,-0.510737,0.312371,0.0229252,-0.524193,0.320628,0.0235401,0.0178282,0.751022,5,0.1,1,0.7,0.8651,-3.63376,0.537209,0.25719,0.256579,0.0333047,0.264004,0.263408,0.0341758,0.0174512,0.278441,5,0.1,2,0.7,-3.5125,-1.90591,0.627251,0.0550389,0.85032,-0.00705915,0.0636876,0.364631,-0.00816211,0.01595,2.3332,5,0.1,3,0.7,0.00407156,-3.56992,0.635439,-0.161281,0.457056,-0.0187994,-0.165543,0.397667,-0.0192858,0.0160754,0.502918,5,0.1,4,0.7,-3.68826,0.124527,0.501536,0.444266,-0.223456,-0.00655446,0.449821,-0.20117,0.0147223,0.0150311,0.522497,5,0.1,5,0.7,0.691791,3.06806,0.559894,-0.128246,-0.513452,0.0212681,-0.131655,-0.526965,0.0218265,0.0103491,0.58691,5,0.1,6,0.7,-1.92361,-3.85722,0.594298,0.0975488,0.430897,0.0981681,0.220113,0.502363,-0.139259,0.0140699,0.491611,5,0.1,7,0.7,3.75093,3.71431,0.594954,-0.636534,-0.450802,0.00270605,-0.646025,-0.337586,0.003241,0.0148655,1.29599,5,0.1,8,0.7,-0.577855,0.110622,0.677917,0.144149,0.840992,-0.0311679,0.317298,0.219525,-0.0165589,0.0174038,2.51405,5,0.1,9,0.7,0.950704,-0.741882,0.664127,-0.617154,0.280803,-0.0300853,-0.578418,0.343472,-0.0261739,0.0225584,1.05352,5,0.1,10,0.7,2.23747,3.1795,0.530369,0.841453,-0.22226,0.0193091,0.325605,-0.256836,0.0223219,0.00782956,2.38275,5,0.1,11,0.7,-1.17469,0.724538,0.658827,0.539517,0.331214,-0.0311695,0.548981,0.339307,-0.0319555,0.0119431,0.851274,5,0.1,12,0.7,0.617613,-0.95565,0.600817,0.212744,0.310356,-0.00978308,0.0248514,-0.211433,-0.0456087,0.0196692,0.728279,5,0.1,13,0.7,3.61767,-0.316294,0.585317,-0.088013,0.849966,0.00406876,-0.101805,0.370698,0.00467896,0.0324258,2.33044,5,0.1,14,0.7,3.68067,-1.36347,0.691027,-0.0564851,0.850291,0.0144323,-0.0653267,0.365101,0.0166818,0.0160848,2.333,5,0.1,15,0.7,-3.68947,3.06752,0.568093,0.807309,0.371303,0.0594301,0.649482,0.447273,0.0580624,0.0122431,1.87605,5,0.1,16,0.7,1.92839,0.758023,0.585837,-0.442114,0.313988,0.00751056,-0.513829,0.322282,0.00771135,0.0119784,0.668842,5,0.1,17,0.7,-3.23717,-1.20486,0.638979,-0.0203364,0.850505,-0.0126047,-0.0235438,0.361457,-0.0145435,0.0205408,2.33468,5,0.1,18,0.7,-3.50085,-0.624111,0.621548,0.148651,0.848282,-0.00525862,0.300452,0.353381,0.049457,0.0123506,2.42933,5,0.1,19,0.7,-0.951484,-3.69677,0.655136,-0.848735,0.153753,-0.0213675,-0.391789,0.177696,-0.0246763,0.0126084,2.32101,5,0.1,20,0.7,-0.654378,0.914374,0.64573,0.183969,-0.465657,-0.0247661,0.123136,-0.159994,-0.0339299,0.0172905,0.618641,5,0.1,21,0.7,3.7896,2.25703,0.659367,-0.41881,0.394068,-0.031487,-0.429884,0.404432,-0.0323318,0.0142045,0.693894,5,0.1,22,0.7,-3.72682,1.08502,0.637845,0.305963,-0.734632,-0.020076,0.314116,-0.754073,-0.0206232,0.0157678,1.32566,5,0.1,23,0.7,1.74487,-1.29782,0.689593,-0.167712,0.848404,0.0185943,-0.193886,0.397451,0.0214912,0.0316698,2.31853,5,0.1,24,0.7,-3.94141,-0.640341,0.586497,0.702874,-0.412897,0.00036601,0.510395,-0.267554,-0.0114292,0.0180581,2.4676,5,0.1,25,0.7,0.374385,4.19889,0.657697,-0.7555,-0.0790291,-0.0306007,-0.775464,-0.0810325,-0.0314042,0.0173409,1.20909,5,0.1,26,0.7,3.72351,3.21161,0.587591,-0.622439,-0.112236,0.00658333,-0.638843,-0.115126,0.00675023,0.0207317,0.836948,5,0.1,27,0.7,-0.958958,-4.24746,0.619056,0.828349,0.349979,-0.00704397,0.561431,0.404775,-0.00812858,0.0151542,2.26314,5,0.1,28,0.7,-0.564043,-0.992512,0.562338,-0.847019,-0.215562,0.0123573,-0.421202,-0.249159,0.0142977,0.0135297,2.3085,5,0.1,29,0.7,3.66669,-2.72752,0.642104,-0.0389516,0.850428,-0.00756774,-0.0450313,0.362784,-0.00873208,0.0309578,2.3341,5,0.1,30,0.7,3.80723,-3.90276,0.501743,-0.0521641,0.850338,-0.00526756,-0.0602752,0.364318,0.00472367,0.0212474,2.33343,5,0.1,31,0.7,-1.75487,-1.29829,0.551197,0.0736399,-0.371691,0.028351,0.371702,-0.809386,0.0696965,0.0129769,2.07226,5,0.1,32,0.7,1.71599,2.75076,0.685347,0.766243,0.220421,-0.0389872,0.786498,0.226289,-0.0400171,0.0124974,1.33316,5,0.1,33,0.7,-3.37526,2.81946,0.664625,-0.240026,0.426621,0.00769114,-0.0840127,-0.362024,0.0799261,0.00926827,1.73455,5,0.1,34,0.7,-3.23,-3.40535,0.579321,-0.0128392,0.634999,0.00378797,-0.0147372,-0.641853,0.00438467,0.0238242,2.9643,5,0.1,35,0.7,3.88711,1.32001,0.510516,-0.369271,0.821971,-0.0263036,-0.411406,0.598244,0.00404939,0.0168113,2.04592,5,0.1,36,0.7,4.33859,-2.6371,0.63646,-0.167049,0.848439,-0.00587022,-0.19303,0.396833,-0.00679865,0.0295963,2.31882,5,0.1,37,0.7,2.20029,-3.72178,0.548613,-0.404213,0.811005,0.0143239,-0.467375,0.656396,0.0165477,0.0147127,2.24187,5,0.1,38,0.7,-1.58184,-2.98852,0.699013,-0.115641,0.849808,0.0218086,-0.206739,0.373349,0.0229254,0.0135941,2.32602,5,0.1,39,0.7,-4.23669,-3.55337,0.559523,0.456938,0.79125,0.0170179,0.528395,0.765741,0.019677,0.012814,2.22677,5,0.1
0,0.8,2.10966,-2.35629,0.559175,-0.551838,0.337511,0.0247702,-0.275373,0.168324,0.012368,0.0189107,0.530273,5,0.1,1,0.8,0.891959,-3.60696,0.540687,0.27789,0.277227,0.0359833,0.138611,0.138402,0.017941,0.017685,0.196594,5,0.1,2,0.8,-3.50672,-1.81979,0.626509,0.0602841,0.866026,-0.00773072,0.0382662,0,-0.00491738,0.0136241,2.26907,5,0.1,3,0.8,-0.0127712,-3.52261,0.633476,-0.17426,0.484967,-0.0203118,-0.0869298,0.147343,-0.0101328,0.0118741,0.444054,5,0.1,4,0.8,-3.6419,0.101358,0.500957,0.479251,-0.237937,-0.00500679,0.231028,-0.0814536,0.0157952,0.0108053,0.404891,5,0.1,5,0.8,0.678398,3.01444,0.562115,-0.138567,-0.55477,0.0229791,-0.0691712,-0.276685,0.0114441,0.00853534,2.59604,5,0.1,6,0.8,-1.91284,-3.81193,0.603378,0.116891,0.471324,0.0830814,0.158846,0.285387,-0.159681,0.0118403,0.352164,5,0.1,7,0.8,3.68449,3.66797,0.595239,-0.686842,-0.47155,0.00298321,-0.332952,-0.0698566,0.00214577,0.0131454,0.945245,5,0.1,8,0.8,-0.561816,0.194717,0.674754,0.17643,0.830458,-0.0317335,0.305831,-0.406809,0.00497699,0.00967458,2.70892,5,0.1,9,0.8,0.886411,-0.7124,0.660998,-0.66471,0.305517,-0.0323251,-0.33921,0.14475,-0.0167489,0.00958007,1.00456,5,0.1,10,0.8,2.32226,3.15613,0.5324,0.844878,-0.243407,0.0211462,-0.2352,-0.154257,0.0134408,0.0109629,2.28229,5,0.1,11,0.8,-1.11836,0.759125,0.655572,0.582749,0.357841,-0.0336751,0.291288,0.178576,-0.0168383,0.0108285,0.60278,5,0.1,12,0.8,0.63902,-0.926031,0.599614,0.215133,0.27886,-0.0141963,0.00974536,-0.402242,-0.0405908,0.0155662,0.597035,5,0.1,13,0.8,3.60841,-0.230184,0.585745,-0.0963986,0.866026,0.00445545,-0.0610352,-7.15256e-06,0.00277162,0.022286,2.26475,5,0.1,14,0.8,3.67473,-1.27735,0.692545,-0.0618577,0.866026,0.0158057,-0.0392199,0,0.0100434,0.0151496,2.26878,5,0.1,15,0.8,-3.60611,3.1065,0.574299,0.853288,0.404328,0.0643224,0.25475,0.202894,0.0362396,0.00871447,1.12997,5,0.1,16,0.8,1.88192,0.790813,0.586621,-0.483441,0.339256,0.00811517,-0.291467,0.169218,0.00405312,0.00789962,0.47526,5,0.1,17,0.8,-3.23931,-1.11873,0.637654,-0.0222802,0.866026,-0.0138029,-0.0139475,0,-0.00873208,0.0158281,2.27212,5,0.1,18,0.8,-3.48446,-0.538511,0.621322,0.178784,0.854024,0.00114143,0.281215,-0.228181,0.0731647,0.0116283,2.76384,5,0.1,19,0.8,-1.03755,-3.6806,0.652889,-0.866026,0.168383,-0.0234008,0,0.106692,-0.014782,0.010123,2.32796,5,0.1,20,0.8,-0.635553,0.867618,0.643093,0.190617,-0.46365,-0.0278145,0.00828505,0.188738,-0.0251532,0.0125369,0.562137,5,0.1,21,0.8,3.74587,2.29819,0.656079,-0.452518,0.42578,-0.0340223,-0.225663,0.212312,-0.0169873,0.0109949,0.489928,5,0.1,22,0.8,-3.69486,1.0083,0.635748,0.330591,-0.793752,-0.0216931,0.164866,-0.395983,-0.0107884,0.0101695,0.935974,5,0.1,23,0.8,1.72723,-1.21177,0.691548,-0.183675,0.866026,0.0203639,-0.116348,0,0.0129044,0.0228584,2.24581,5,0.1,24,0.8,-3.86931,-0.682481,0.586466,0.731719,-0.425056,-0.00107735,0.0606775,0.0226796,-0.0162423,0.0169993,2.30421,5,0.1,25,0.8,0.295487,4.19063,0.654502,-0.816298,-0.0853777,-0.0330627,-0.407205,-0.0424385,-0.0165105,0.0134051,0.853803,5,0.1,26,0.8,3.65851,3.19989,0.588279,-0.672525,-0.121266,0.00711381,-0.335574,-0.0603199,0.00351667,0.0149321,0.646048,5,0.1,27,0.8,-0.874114,-4.21066,0.618315,0.860855,0.383306,-0.00771284,0.103414,0.243187,-0.00488758,0.0140429,2.16516,5,0.1,28,0.8,-0.650048,-1.01518,0.563637,-0.866026,-0.236076,0.0135347,0,-0.149667,0.00855327,0.0107792,2.22946,5,0.1,29,0.8,3.66259,-2.64139,0.641308,-0.042659,0.866026,-0.00828654,-0.0270605,0,-0.00524521,0.0234228,2.27046,5,0.1,30,0.8,3.80175,-3.81663,0.501247,-0.0571311,0.866026,-0.0046134,-0.0361204,0,0.00801682,0.0166145,2.26944,5,0.1,31,0.8,-1.74544,-1.33963,0.554397,0.116336,-0.454733,0.0356734,0.449181,-0.792027,0.0714064,0.0122919,1.68877,5,0.1,32,0.8,1.79601,2.77378,0.681276,0.827906,0.238162,-0.0421256,0.41306,0.118852,-0.0209808,0.0084056,0.944524,5,0.1,33,0.8,-3.39981,2.86003,0.66577,-0.251639,0.382471,0.0149056,-0.124335,-0.501037,0.0617802,0.00894204,1.45836,5,0.1,34,0.8,-3.23135,-3.34575,0.579719,-0.0140488,0.551772,0.00414848,-0.0089407,-0.966907,0.0026226,0.0205573,3.20854,5,0.1,35,0.8,3.84837,1.40443,0.507946,-0.402498,0.858787,-0.0247404,-0.234842,0.14478,0.0256598,0.0102604,1.52047,5,0.1,36,0.8,4.32102,-2.55105,0.635843,-0.18295,0.866026,-0.00642836,-0.115871,0,-0.00411272,0.0266638,2.24625,5,0.1,37,0.8,2.15779,-3.63812,0.550119,-0.442708,0.854993,0.0156865,-0.280619,0.220656,0.00995398,0.0111129,2.13288,5,0.1,38,0.8,-1.59437,-2.90242,0.701295,-0.13406,0.866026,0.0236526,-0.15223,0,0.0129044,0.00949764,0.686981,5,0.1,39,0.8,-4.18864,-3.47105,0.561312,0.500441,0.848365,0.0186384,0.317574,0.353217,0.0118315,0.0120542,2.10765,5,0.1
0,0.9,2.05316,-2.32174,0.561711,-0.576792,0.352763,0.0258908,-0.197269,0.120565,0.00885129,0.0189107,0.530273,5,0.1,1,0.9,0.920409,-3.57858,0.54437,0.290451,0.289768,0.0376091,0.0992864,0.0991225,0.012856,0.017685,0.196594,5,0.1,2,0.9,-3.50049,-1.73319,0.62571,0.0642326,0.866026,-0.00823783,0.0366718,0,-0.00470504,0.0136241,2.26907,5,0.1,3,0.9,-0.0306118,-3.4742,0.631396,-0.182137,0.475509,-0.02123,-0.0622675,-0.307962,-0.00725314,0.0118741,0.444054,5,0.1,4,0.9,-3.59296,0.0776884,0.500535,0.49753,-0.23068,-0.0034688,0.1176,0.205046,0.0146478,0.0108053,0.404891,5,0.1,5,0.9,0.663519,2.95673,0.564464,-0.164485,-0.60579,0.0239168,-0.398885,-0.659466,0.00642613,0.00853534,2.59604,5,0.1,6,0.9,-1.90037,-3.76342,0.610878,0.132149,0.497615,0.066884,0.137664,0.216335,-0.162117,0.0118403,0.352164,5,0.1,7,0.9,3.61424,3.62081,0.595549,-0.716391,-0.468351,0.00321567,-0.226647,0.13338,0.00227243,0.0131454,0.945245,5,0.1,8,0.9,-0.54195,0.275249,0.671649,0.226296,0.775611,-0.0299851,0.631288,-0.680528,0.028383,0.00967458,2.70892,5,0.1,9,0.9,0.820448,-0.681215,0.657927,-0.635133,0.316988,-0.0269979,0.82802,0.0736564,0.109546,0.00958007,1.00456,5,0.1,10,0.9,2.40432,3.131,0.534582,0.786559,-0.258717,0.0224797,-0.830725,-0.136942,0.0119284,0.0109629,2.28229,5,0.1,11,0.9,-1.05869,0.795762,0.652124,0.609369,0.374053,-0.0352023,0.212692,0.128455,-0.0120923,0.0108285,0.60278,5,0.1,12,0.9,0.660769,-0.899971,0.598011,0.221222,0.244217,-0.017639,0.0931025,-0.289548,-0.0269599,0.0155662,0.597035,5,0.1,13,0.9,3.59845,-0.143581,0.586205,-0.102698,0.866025,0.00474257,-0.0584722,4.47035e-07,0.00267103,0.022286,2.26475,5,0.1,14,0.9,3.66834,-1.19075,0.694177,-0.0659041,0.866026,0.0168417,-0.0375509,0,0.0096187,0.0151496,2.26878,5,0.1,15,0.9,-3.52188,3.14772,0.580509,0.810357,0.417414,0.0564091,-1.00498,0.0510812,-0.172608,0.00871447,1.12997,5,0.1,16,0.9,1.83218,0.825546,0.587452,-0.510284,0.35459,0.00848239,-0.220709,0.12121,0.002902,0.00789962,0.47526,5,0.1,17,0.9,-3.24157,-1.03213,0.636228,-0.0228312,0.866026,-0.0147015,0.00242889,-3.72529e-06,-0.00831485,0.0158281,2.27212,5,0.1,18,0.9,-3.46496,-0.455308,0.622076,0.21272,0.80046,0.0161836,0.367969,-0.803491,0.208102,0.0116283,2.76384,5,0.1,19,0.9,-1.12398,-3.66325,0.650481,-0.860314,0.178313,-0.0246814,0.138111,0.0829995,-0.00980124,0.010123,2.32796,5,0.1,20,0.9,-0.616873,0.822734,0.640159,0.179244,-0.429192,-0.0310322,-0.21695,0.479273,-0.035651,0.0125369,0.562137,5,0.1,21,0.9,3.69954,2.34178,0.652596,-0.472967,0.44502,-0.0355615,-0.161648,0.152081,-0.0121631,0.0109949,0.489928,5,0.1,22,0.9,-3.66102,0.927037,0.633527,0.34553,-0.829633,-0.0226709,0.118077,-0.283629,-0.00772998,0.0101695,0.935974,5,0.1,23,0.9,1.70826,-1.12517,0.693651,-0.195684,0.866026,0.0216957,-0.11149,0,0.012368,0.0228584,2.24581,5,0.1,24,0.9,-3.79568,-0.725549,0.586276,0.741424,-0.441542,-0.0027081,0.0924766,-0.293516,-0.0157878,0.0169993,2.30421,5,0.1,25,0.9,0.21197,4.18189,0.651117,-0.851673,-0.0892222,-0.0345585,-0.26729,-0.0303984,-0.0118278,0.0134051,0.853803,5,0.1,26,0.9,3.58966,3.18732,0.589007,-0.702932,-0.131179,0.0074327,-0.240371,-0.122264,0.0025183,0.0149321,0.646048,5,0.1,27,0.9,-0.787712,-4.17107,0.617519,0.865702,0.40845,-0.00821799,0.012923,0.233829,-0.00470132,0.0140429,2.16516,5,0.1,28,0.9,-0.736651,-1.03956,0.565035,-0.866026,-0.251528,0.0144177,3.72529e-06,-0.143498,0.00819936,0.0107792,2.22946,5,0.1,29,0.9,3.65819,-2.55479,0.640452,-0.0454545,0.866026,-0.00882884,-0.0259578,0,-0.00504032,0.0234228,2.27046,5,0.1,30,0.9,3.79585,-3.73003,0.500828,-0.0608698,0.866026,-0.00372445,-0.0347793,0,0.00948831,0.0166145,2.26944,5,0.1,31,0.9,-1.73133,-1.38876,0.55835,0.167136,-0.524276,0.0435274,0.534356,-0.576191,0.0802875,0.0122919,1.68877,5,0.1,32,0.9,1.88049,2.79815,0.676965,0.857617,0.248579,-0.0439567,0.170313,0.078842,-0.0137798,0.0084056,0.944524,5,0.1,33,0.9,-3.42595,2.89689,0.66746,-0.273737,0.363973,0.017915,-0.281513,0.0608265,0.0028275,0.00894204,1.45836,5,0.1,34,0.9,-3.2328,-3.29592,0.580147,-0.0149641,0.442248,0.00441726,-0.00841916,-1.12693,0.00248104,0.0205573,3.20854,5,0.1,35,0.9,3.80698,1.49075,0.505627,-0.424402,0.86534,-0.0213871,-0.182196,0.00874698,0.0398532,0.0102604,1.52047,5,0.1,36,0.9,4.30212,-2.46444,0.635179,-0.194938,0.866026,-0.00685249,-0.11152,0,-0.00393391,0.0266638,2.24625,5,0.1,37,0.9,2.11202,-3.55194,0.551738,-0.472828,0.865336,0.0166623,-0.289485,0.027582,0.00862032,0.0111129,2.13288,5,0.1,38,0.9,-1.60829,-2.81586,0.703731,-0.141923,0.864381,0.0250967,-0.0108257,-0.0525117,0.0142232,0.00949764,0.686981,5,0.1,39,0.9,-4.13695,-3.38513,0.563238,0.533311,0.864922,0.019863,0.30601,0.0441521,0.0114031,0.0120542,2.10765,5,0.1
0,1,1.9948,-2.28604,0.56433,-0.5869,0.358939,0.0263453,0.0125766,-0.00786781,-0.000596046,0.0189602,0.360609,5,0.1,1,1,0.949797,-3.54926,0.548176,0.295536,0.294846,0.0382677,-0.0064075,-0.00631809,-0.000834465,0.0154501,0.13369,5,0.1,2,1,-3.49391,-1.64659,0.624867,0.0669301,0.866026,-0.00858456,0.0145435,0,-0.00184774,0.0139993,2.54656,5,0.1,3,1,-0.0490405,-3.42875,0.629248,-0.185326,0.428694,-0.0216022,0.00400275,-0.603557,0.000506639,0.010473,0.243783,5,0.1,4,1,-3.54292,0.0559706,0.500257,0.500017,-0.200885,-0.0021264,-0.0784397,0.372853,0.0119805,0.0106403,0.633534,5,0.1,5,1,0.644873,2.89279,0.566874,-0.209479,-0.671995,0.024122,-0.462621,-0.602365,-0.00289083,0.00839377,2.38756,5,0.1,6,1,-1.88656,-3.71285,0.616767,0.142968,0.510579,0.0510409,0.0729561,0.0270605,-0.153035,0.0127438,1.03802,5,0.1,7,1,3.54186,3.57497,0.595881,-0.726968,-0.445187,0.00339597,0.0357628,0.327349,0.0012219,0.0145064,1.61901,5,0.1,8,1,-0.516034,0.349025,0.668819,0.292133,0.696337,-0.0263542,0.640094,-0.894696,0.0428557,0.011334,2.84745,5,0.1,9,1,0.762299,-0.649338,0.65589,-0.517723,0.31846,-0.0128761,1.43674,-0.0510812,0.162035,0.0107406,0.344747,5,0.1,10,1,2.47848,3.10458,0.536879,0.69474,-0.268269,0.0233114,-0.946045,-0.0441074,0.0038743,0.00958724,1.97537,5,0.1,11,1,-0.997006,0.833612,0.648562,0.62056,0.380673,-0.0358254,-0.0077486,-0.00748038,0.000745058,0.0104281,0.410921,5,0.1,12,1,0.683365,-0.876815,0.596142,0.230406,0.220653,-0.0194058,0.0760257,-0.185758,-0.00780821,0.0167237,0.498994,5,0.1,13,1,3.58794,-0.0569784,0.58669,-0.106996,0.866025,0.00493973,-0.0231266,1.19209e-06,0.00104308,0.0294866,2.26404,5,0.1,14,1,3.66159,-1.10414,0.695902,-0.0686646,0.866026,0.0175506,-0.0149012,-5.96046e-05,0.00378489,0.0185308,2.26846,5,0.1,15,1,-3.44721,3.18941,0.585091,0.671983,0.4134,0.0337288,-1.67382,-0.135064,-0.263691,0.0126452,0.261266,5,0.1,16,1,1.78033,0.861424,0.58831,-0.523472,0.360797,0.00863075,-0.0267625,-0.00777841,-0.000149012,0.0117917,0.324647,5,0.1,17,1,-3.24382,-0.945527,0.634723,-0.0218928,0.866026,-0.0153095,0.0157356,0,-0.00324845,0.0231653,2.39018,5,0.1,18,1,-3.4419,-0.379955,0.624825,0.24727,0.700698,0.0392988,0.3016,-1.15764,0.239193,0.0134065,3.18625,5,0.1,19,1,-1.20894,-3.6451,0.647979,-0.834545,0.183493,-0.0251934,0.39196,0.0149012,0.000208616,0.0155941,2.64905,5,0.1,20,1,-0.600276,0.782545,0.636885,0.150657,-0.371717,-0.0343323,-0.339329,0.652194,-0.0278056,0.0154822,0.468554,5,0.1,21,1,3.65168,2.3868,0.648997,-0.481242,0.452811,-0.0361845,0.010252,-0.00977516,0.000745058,0.0137996,0.333175,5,0.1,22,1,-3.62606,0.843095,0.631234,0.351578,-0.84416,-0.0230655,-0.0077486,0.018239,0.000506639,0.0118378,0.636502,5,0.1,23,1,1.68822,-1.03856,0.695873,-0.203887,0.866026,0.0226051,-0.0441074,-2.98023e-05,0.00488758,0.0230016,2.24322,5,0.1,24,1,-3.72129,-0.771294,0.585931,0.743276,-0.473472,-0.00413507,-0.0838041,-0.301152,-0.012368,0.0170289,2.23274,5,0.1,25,1,0.125913,4.17287,0.64762,-0.86448,-0.0907779,-0.0351653,0.0308955,0.00214577,0.000745058,0.0134115,0.582686,5,0.1,26,1,3.51853,3.17359,0.589759,-0.715244,-0.142998,0.00756234,0.015378,-0.10252,-0.000208616,0.0169707,0.937733,5,0.1,27,1,-0.701116,-4.12924,0.616677,0.866026,0.425696,-0.0085637,0,0.0932217,-0.00187755,0.0125985,2.1519,5,0.1,28,1,-0.823253,-1.06532,0.566511,-0.866026,-0.262094,0.0150204,0,-0.0568628,0.00324845,0.0122379,2.22518,5,0.1,29,1,3.65353,-2.46818,0.639548,-0.0473738,0.866026,-0.00920147,-0.0101328,0,-0.00196695,0.0238953,2.27031,5,0.1,30,1,3.78961,-3.64343,0.500504,-0.0634372,0.866026,-0.00276417,-0.0138283,0,0.00950694,0.0194931,2.2692,5,0.1,31,1,-1.71203,-1.44356,0.563082,0.217587,-0.566307,0.0508025,0.451028,-0.250518,0.061363,0.0100463,1.4923,5,0.1,32,1,1.96665,2.82326,0.672525,0.861093,0.252175,-0.0445753,-0.0985265,-0.0137091,0.00268221,0.00982626,0.66339,5,0.1,33,1,-3.45474,2.93404,0.669198,-0.301659,0.382209,0.0162765,-0.25034,0.249743,-0.0318885,0.00913318,1.15129,5,0.1,34,1,-3.23433,-3.25699,0.580599,-0.0155747,0.34104,0.0045985,-0.00333786,-0.84734,0.000953674,0.0195119,3.27281,5,0.1,35,1,3.76386,1.5772,0.503701,-0.435424,0.862288,-0.0170529,-0.0241995,-0.0748634,0.0456274,0.0111529,1.11903,5,0.1,36,1,4.28216,-2.37784,0.634477,-0.203168,0.866026,-0.00714213,-0.0445843,0,-0.00157952,0.0292454,2.24352,5,0.1,37,1,2.06349,-3.46535,0.553439,-0.495124,0.866026,0.0172526,-0.133753,0,0.0025928,0.0133574,2.10796,5,0.1,38,1,-1.62234,-2.72995,0.706302,-0.137347,0.85032,0.0261977,0.0969172,-0.26083,0.00655651,0.0118548,0.467633,5,0.1,39,1,-4.08233,-3.29855,0.565272,0.555921,0.866026,0.0207052,0.122547,0,0.00458956,0.0109274,1.80492,5,0.1
0,1.1,1.9362,-2.2502,0.566961,-0.584336,0.357355,0.0262276,0.0601709,-0.0369251,-0.00272319,0.0189602,0.360609,5,0.1,1,1.1,0.979306,-3.51982,0.551997,0.294239,0.293557,0.0380994,-0.0303537,-0.0302345,-0.00393018,0.0154501,0.13369,5,0.1,2,1.1,-3.48763,-1.56074,0.624065,0.0546947,0.843551,-0.00688331,-0.2321,-0.436112,0.0321083,0.0139993,2.54656,5,0.1,3,1.1,-0.0675452,-3.38923,0.627091,-0.184514,0.358857,-0.0215043,0.0190267,-0.770435,0.0022389,0.010473,0.243783,5,0.1,4,1.1,-3.49304,0.0379914,0.500099,0.499607,-0.156735,-0.0010984,0.0351816,0.491075,0.00851601,0.0106403,0.633534,5,0.1,5,1.1,0.621305,2.82259,0.569271,-0.263878,-0.730715,0.0238101,-0.583522,-0.528097,-0.00422075,0.00839377,2.38756,5,0.1,6,1.1,-1.87191,-3.66106,0.621125,0.149586,0.529749,0.0363408,0.0525266,0.297293,-0.139534,0.0127438,1.03802,5,0.1,7,1.1,3.47016,3.53209,0.596227,-0.699377,-0.412092,0.00353521,0.491127,0.341982,0.00134483,0.0145064,1.61901,5,0.1,8,1.1,-0.483816,0.414333,0.666435,0.349424,0.611342,-0.0210538,0.473296,-0.804676,0.0598989,0.011334,2.84745,5,0.1,9,1.1,0.717834,-0.617452,0.655532,-0.371155,0.321448,0.00658697,1.4635,0.0807941,0.215214,0.0107406,0.344747,5,0.1,10,1.1,2.54315,3.07753,0.539229,0.601134,-0.272336,0.0236682,-0.808835,-0.0252426,0.00221655,0.00958724,1.97537,5,0.1,11,1.1,-0.935012,0.871626,0.644985,0.618482,0.379089,-0.0356723,-0.0568815,-0.0381768,0.00363588,0.0104281,0.410921,5,0.1,12,1.1,0.70693,-0.855109,0.594201,0.241821,0.218157,-0.0190737,0.131626,0.096757,0.013046,0.0167237,0.498994,5,0.1,13,1.1,3.5771,0.0296241,0.587191,-0.10979,0.866025,0.00506686,-0.0264049,0,0.00121072,0.0294866,2.26404,5,0.1,14,1.1,3.65464,-1.01754,0.697679,-0.0704665,0.866025,0.0180096,-0.0170618,1.11759e-05,0.00435486,0.0185308,2.26846,5,0.1,15,1.1,-3.38828,3.23029,0.587002,0.508003,0.405664,0.00344999,-1.58763,-0.0458211,-0.325993,0.0126452,0.261266,5,0.1,16,1.1,1.72787,0.897449,0.589172,-0.524803,0.359217,0.00859583,0.0201166,-0.0370331,-0.000860542,0.0117917,0.324647,5,0.1,17,1.1,-3.24579,-0.859236,0.633144,-0.0163198,0.856278,-0.0165356,0.0872612,-0.209849,-0.0185221,0.0231653,2.39018,5,0.1,18,1.1,-3.41566,-0.315921,0.630178,0.276924,0.578148,0.069426,0.272214,-1.26871,0.339769,0.0134065,3.18625,5,0.1,19,1.1,-1.2899,-3.62709,0.645464,-0.77957,0.172998,-0.0250434,0.695094,-0.206411,0.0035651,0.0155941,2.64905,5,0.1,20,1.1,-0.587078,0.74828,0.633319,0.112063,-0.316742,-0.0368693,-0.413965,0.461966,-0.0209473,0.0154822,0.468554,5,0.1,21,1.1,3.60363,2.43202,0.645384,-0.479144,0.450826,-0.0360288,0.0493228,-0.0464916,0.00369549,0.0137996,0.333175,5,0.1,22,1.1,-3.59096,0.758816,0.628931,0.349939,-0.840178,-0.0229456,-0.0376999,0.0916608,0.00269338,0.0118378,0.636502,5,0.1,23,1.1,1.66757,-0.951962,0.698162,-0.209208,0.866025,0.0231948,-0.0502616,3.72529e-06,0.00556558,0.0230016,2.24322,5,0.1,24,1.1,-3.64654,-0.820075,0.58547,0.758115,-0.500809,-0.00493927,0.300288,-0.222061,-0.00410154,0.0170289,2.23274,5,0.1,25,1.1,0.0396418,4.1638,0.644109,-0.859887,-0.0903644,-0.0350121,0.0931381,0.00944734,0.00359863,0.0134115,0.582686,5,0.1,26,1.1,3.44703,3.15863,0.59052,-0.714456,-0.157251,0.00769123,0.0317544,-0.16433,0.00213832,0.0169707,0.937733,5,0.1,27,1.1,-0.614513,-4.08612,0.61581,0.866026,0.437003,-0.00879131,-3.72529e-06,0.107527,-0.00216812,0.0125985,2.1519,5,0.1,28,1.1,-0.909856,-1.09186,0.568033,-0.866026,-0.268953,0.0154124,3.72529e-06,-0.0648126,0.00369921,0.0122379,2.22518,5,0.1,29,1.1,3.64873,-2.38158,0.638616,-0.0486173,0.866026,-0.00944305,-0.0118911,0,-0.00230968,0.0238953,2.27031,5,0.1,30,1.1,3.78319,-3.55683,0.500274,-0.0651326,0.866026,-0.00186162,-0.0162572,0,0.00840798,0.0194931,2.2692,5,0.1,31,1.1,-1.68797,-1.50039,0.568474,0.263206,-0.56089,0.0569629,0.436477,0.312641,0.0576675,0.0100463,1.4923,5,0.1,32,1.1,2.05201,2.84837,0.668101,0.843121,0.249436,-0.0436936,-0.276051,-0.04825,0.0153854,0.00982626,0.66339,5,0.1,33,1.1,-3.48629,2.974,0.67062,-0.329882,0.420487,0.0117696,-0.286236,0.46207,-0.0549816,0.00913318,1.15129,5,0.1,34,1.1,-3.23591,-3.22664,0.581065,-0.0159632,0.27377,0.00471072,-0.00353158,-0.390038,0.00103191,0.0195119,3.27281,5,0.1,35,1.1,3.72021,1.66332,0.502224,-0.436872,0.861652,-0.0125013,0.0122637,0.0129193,0.0444949,0.0111529,1.11903,5,0.1,36,1.1,4.26158,-2.29124,0.633754,-0.208619,0.866026,-0.00733407,-0.0522137,0,-0.00182912,0.0292454,2.24352,5,0.1,37,1.1,2.01319,-3.37875,0.55518,-0.511384,0.866016,0.017575,-0.159822,-0.000372529,0.00290573,0.0133574,2.10796,5,0.1,38,1.1,-1.63549,-2.64615,0.708957,-0.124674,0.825433,0.0268858,0.15258,-0.267088,0.00581145,0.0118548,0.467633,5,0.1,39,1.1,-4.02606,-3.21195,0.567368,0.56937,0.865825,0.0212082,0.116378,-0.00804663,0.00434741,0.0109274,1.80492,5,0.1
0,1.2,1.87829,-2.21479,0.56956,-0.571308,0.349379,0.0256404,0.214577,-0.131369,-0.00962615,0.0204634,0.239789,5,0.1,1,1.2,1.00847,-3.49073,0.555773,0.287673,0.287008,0.0372484,-0.108063,-0.107765,-0.0139773,0.0135044,0.150854,5,0.1,2,1.2,-3.48354,-1.47919,0.623568,0.0253558,0.781569,-0.00283867,-0.332952,-0.789404,0.045836,0.0199154,2.58996,5,0.1,3,1.2,-0.0858315,-3.35732,0.62496,-0.180397,0.278699,-0.0210211,0.0677669,-0.814438,0.00786781,0.0205656,0.231608,5,0.1,4,1.2,-3.44295,0.0248383,0.500025,0.501019,-0.106058,-0.000424683,-0.0320673,0.507647,0.00500679,0.0146366,0.386606,5,0.1,5,1.2,0.592083,2.7473,0.571623,-0.318943,-0.770223,0.0231326,-0.487179,-0.231862,-0.00992417,0.0101784,2.2678,5,0.1,6,1.2,-1.85677,-3.60655,0.624093,0.152329,0.559783,0.0233784,-0.00220537,0.259757,-0.118732,0.0182448,0.671927,5,0.1,7,1.2,3.40326,3.49267,0.596586,-0.633466,-0.375593,0.00362694,0.804782,0.392556,0.000357628,0.0192531,1.01237,5,0.1,8,1.2,-0.446992,0.471592,0.664635,0.381741,0.535267,-0.0149339,0.154957,-0.718699,0.0602305,0.0214497,2.92017,5,0.1,9,1.2,0.687867,-0.584888,0.657273,-0.230458,0.329413,0.0280619,1.32716,0.0565052,0.205308,0.0203382,0.232815,5,0.1,10,1.2,2.6,3.05028,0.541597,0.543773,-0.271314,0.0235826,-0.347614,0.0536442,-0.00467896,0.0156593,1.72967,5,0.1,11,1.2,-0.873683,0.9092,0.641449,0.60536,0.370722,-0.0348806,-0.220746,-0.138402,0.0130832,0.0268951,0.273749,5,0.1,12,1.2,0.731723,-0.832608,0.592384,0.25318,0.233117,-0.0170559,0.0806749,0.172675,0.0261068,0.0338478,0.388861,5,0.1,13,1.2,3.56603,0.116227,0.587702,-0.111198,0.866026,0.00513196,0.00238419,-4.76837e-06,-8.9407e-05,0.044931,2.27094,5,0.1,14,1.2,3.64753,-0.930939,0.699496,-0.0713885,0.866026,0.018245,0.00143051,0,-0.00038743,0.0280813,2.26818,5,0.1,15,1.2,-3.34515,3.2706,0.585722,0.357604,0.399745,-0.0286937,-1.40691,-0.0913143,-0.304937,0.00919247,0.206689,5,0.1,16,1.2,1.6757,0.933049,0.590024,-0.516135,0.351204,0.00840575,0.166357,-0.131965,-0.00312924,0.0134311,0.21645,5,0.1,17,1.2,-3.24693,-0.775101,0.631391,-0.0059545,0.82179,-0.0185326,0.113487,-0.487626,-0.0193119,0.0249587,2.3265,5,0.1,18,1.2,-3.38679,-0.264464,0.638826,0.298464,0.451346,0.103141,0.145555,-1.24809,0.316978,0.00890571,0.615856,5,0.1,19,1.2,-1.36397,-3.61107,0.642988,-0.698024,0.145566,-0.0243545,0.923216,-0.326872,0.010699,0.017165,2.64804,5,0.1,20,1.2,-0.577941,0.718702,0.629552,0.0710458,-0.276653,-0.0381947,-0.393152,0.351816,-0.00429153,0.00916768,0.570445,5,0.1,21,1.2,3.55614,2.4767,0.641814,-0.468457,0.44077,-0.0352263,0.175834,-0.165582,0.0132024,0.0235124,0.287236,5,0.1,22,1.2,-3.55629,0.675579,0.626659,0.341934,-0.82082,-0.0223935,-0.130534,0.315309,0.00888109,0.0126166,0.433679,5,0.1,23,1.2,1.64647,-0.865359,0.700502,-0.211897,0.866026,0.0234932,0.00482798,0,-0.000566244,0.0333581,2.24285,5,0.1,24,1.2,-3.56914,-0.870979,0.584967,0.789374,-0.513981,-0.00502914,0.265598,-0.0258684,0.00193715,0.0185848,2.13861,5,0.1,25,1.2,-0.0455645,4.15485,0.640639,-0.840512,-0.0883341,-0.0342309,0.315598,0.0333786,0.012815,0.0120159,0.433454,5,0.1,26,1.2,3.37598,3.14211,0.591299,-0.703633,-0.17271,0.00787824,0.206113,-0.131369,0.00116229,0.0407491,0.443446,5,0.1,27,1.2,-0.527911,-4.04202,0.614923,0.866026,0.442898,-0.0089094,0,-0.00715256,0.000149012,0.0475937,2.14955,5,0.1,28,1.2,-0.996458,-1.11899,0.569587,-0.866026,-0.272429,0.0156105,0,0.00602007,-0.000357628,0.0128432,2.22456,5,0.1,29,1.2,3.64383,-2.29498,0.637664,-0.0492692,0.866026,-0.00956953,0.000715256,0,0.000119209,0.0290215,2.27028,5,0.1,30,1.2,3.77661,-3.47022,0.500127,-0.066036,0.866026,-0.00110567,0.000596046,0,0.00661612,0.0237473,2.26915,5,0.1,31,1.2,-1.65966,-1.55429,0.574424,0.300661,-0.511977,0.0616297,0.295162,0.629783,0.0327826,0.0108297,1.30894,5,0.1,32,1.2,2.13455,2.87297,0.663832,0.803554,0.241369,-0.0414401,-0.523567,-0.117779,0.0298321,0.016762,0.465973,5,0.1,33,1.2,-3.52058,3.01835,0.671506,-0.354135,0.465298,0.00586212,-0.179052,0.394464,-0.0606179,0.0192892,0.879733,5,0.1,34,1.2,-3.23752,-3.2,0.581539,-0.016135,0.270724,0.00475943,0.000715256,0.297904,-0.000208616,0.0233821,2.99372,5,0.1,35,1.2,3.67676,1.74937,0.501188,-0.430155,0.856489,-0.00830591,0.133514,-0.15074,0.0388026,0.0110272,0.795625,5,0.1,36,1.2,4.24052,-2.20464,0.633014,-0.211537,0.866026,-0.00743717,0.00238419,0,0.000119209,0.0428476,2.24532,5,0.1,37,1.2,1.96142,-3.29215,0.556946,-0.521713,0.865883,0.0176728,-0.0247359,-0.00309944,-0.00163913,0.0249499,2.10008,5,0.1,38,1.2,-1.64713,-2.56516,0.711664,-0.107574,0.791866,0.0271276,0.186086,-0.424623,-0.00196695,0.0162294,0.187954,5,0.1,39,1.2,-3.96875,-3.12547,0.569503,0.574124,0.862813,0.0213861,-0.0420809,-0.064373,-0.00151992,0.0251389,1.33856,5,0.1
0,1.3,1.82221,-2.18049,0.572077,-0.550096,0.336394,0.0246888,0.227422,-0.139177,-0.0102073,0.0204634,0.239789,5,0.1,1,1.3,1.03688,-3.46238,0.559451,0.2818,0.281151,0.0364894,-0.0291914,-0.0291467,-0.00376254,0.0135044,0.150854,5,0.1,2,1.3,-3.48313,-1.4042,0.623506,-0.0205968,0.724895,0.00148965,-0.542685,-0.395954,0.0396706,0.0199154,2.58996,5,0.1,3,1.3,-0.10354,-3.33347,0.622897,-0.173698,0.199136,-0.020243,0.0718218,-0.763178,0.0083521,0.0205656,0.231608,5,0.1,4,1.3,-3.3935,0.0166449,0.500003,0.483389,-0.059254,-8.17701e-05,-0.308916,0.421321,0.00198931,0.0146366,0.386606,5,0.1,5,1.3,0.557646,2.67038,0.57389,-0.369981,-0.756991,0.0222038,-0.499267,0.443205,-0.00945106,0.0101784,2.2678,5,0.1,6,1.3,-1.84171,-3.54934,0.626491,0.147315,0.583078,0.0301199,-0.0937581,0.18011,0.215031,0.0182448,0.671927,5,0.1,7,1.3,3.34448,3.45679,0.596949,-0.537756,-0.344149,0.00362229,1.06825,0.256881,-0.000528991,0.0192531,1.01237,5,0.1,8,1.3,-0.408509,0.522323,0.66345,0.382541,0.486666,-0.00881683,-0.165081,-0.280054,0.058122,0.0214497,2.92017,5,0.1,9,1.3,0.670677,-0.551441,0.661122,-0.120672,0.341018,0.048861,0.886556,0.146389,0.202198,0.0203382,0.232815,5,0.1,10,1.3,2.65289,3.02348,0.54389,0.515743,-0.264012,0.0219105,-0.2397,0.0978112,-0.0269338,0.0156593,1.72967,5,0.1,11,1.3,-0.814225,0.945596,0.638025,0.58355,0.357042,-0.0335882,-0.234473,-0.146732,0.0138544,0.0268951,0.273749,5,0.1,12,1.3,0.757502,-0.808189,0.590823,0.262552,0.256924,-0.0140497,0.090573,0.273529,0.0330172,0.0338478,0.388861,5,0.1,13,1.3,3.55489,0.202829,0.588431,-0.111663,0.866025,0.0112596,-0.00548363,2.98023e-07,0.10879,0.044931,2.27094,5,0.1,14,1.3,3.64032,-0.844337,0.701398,-0.0734318,0.866026,0.0204409,-0.0344664,-3.72529e-06,0.0385791,0.0280813,2.26818,5,0.1,15,1.3,-3.31547,3.31018,0.581374,0.244855,0.391923,-0.0576013,-0.880092,-0.0821352,-0.265624,0.00919247,0.206689,5,0.1,16,1.3,1.62491,0.967525,0.59085,-0.499514,0.338159,0.0080958,0.182532,-0.139844,-0.00333041,0.0134311,0.21645,5,0.1,17,1.3,-3.24536,-0.695774,0.629434,0.0506528,0.760818,-0.0206469,0.914693,-0.723675,-0.0211596,0.0249587,2.3265,5,0.1,18,1.3,-3.35674,-0.225792,0.65071,0.297752,0.320759,0.134071,-0.143126,-1.32912,0.288647,0.00890571,0.615856,5,0.1,19,1.3,-1.43002,-3.59867,0.640597,-0.630417,0.098094,-0.0235466,0.481352,-0.583246,0.00670552,0.017165,2.64804,5,0.1,20,1.3,-0.573054,0.693848,0.62567,0.0248201,-0.21161,-0.0397338,-0.506133,0.882581,-0.0222325,0.00916768,0.570445,5,0.1,21,1.3,3.51016,2.51996,0.638669,-0.451072,0.424401,-0.0250301,0.186428,-0.175476,0.17206,0.0235124,0.287236,5,0.1,22,1.3,-3.52289,0.595285,0.624486,0.324619,-0.78268,-0.0208633,-0.216544,0.457305,0.020951,0.0126166,0.433679,5,0.1,23,1.3,1.62525,-0.778757,0.702855,-0.212802,0.866026,0.0235908,-0.0110418,-3.72529e-06,0.00120699,0.0333581,2.24285,5,0.1,24,1.3,-3.48852,-0.92275,0.584488,0.825055,-0.522944,-0.00442397,0.386313,-0.116676,0.00940263,0.0185848,2.13861,5,0.1,25,1.3,-0.127341,4.14618,0.637278,-0.788692,-0.0850379,-0.0329632,0.695829,0.0352859,0.0136048,0.0120159,0.433454,5,0.1,26,1.3,3.30773,3.12368,0.592063,-0.651772,-0.199685,0.00714483,0.784501,-0.365496,-0.0143014,0.0407491,0.443446,5,0.1,27,1.3,-0.441308,-3.99765,0.61403,0.866026,0.445153,-0.0089542,-3.57628e-06,0.0271648,-0.000540167,0.0475937,2.14955,5,0.1,28,1.3,-1.08306,-1.14628,0.571151,-0.866026,-0.273604,0.0156764,0,-0.0142679,0.000797212,0.0128432,2.22456,5,0.1,29,1.3,3.63889,-2.20838,0.636705,-0.0495482,0.866026,-0.00962541,-0.00347197,0,-0.000685453,0.0290215,2.27028,5,0.1,30,1.3,3.76999,-3.38362,0.500046,-0.0664536,0.866026,-0.000547431,-0.0051409,0,0.0045374,0.0237473,2.26915,5,0.1,31,1.3,-1.62815,-1.60181,0.580748,0.32893,-0.43487,0.0647457,0.250801,0.844851,0.0262409,0.0108297,1.30894,5,0.1,32,1.3,2.21243,2.89656,0.65983,0.754876,0.230796,-0.0386556,-0.475228,-0.102744,0.0270866,0.016762,0.465973,5,0.1,33,1.3,-3.55693,3.06702,0.671776,-0.372562,0.508885,-0.000523403,-0.167608,0.435725,-0.0646636,0.0192892,0.879733,5,0.1,34,1.3,-3.23915,-3.16997,0.582021,-0.0166643,0.34178,0.00491645,-0.00931323,1.01048,0.00275671,0.0233821,2.99372,5,0.1,35,1.3,3.6344,1.83442,0.500537,-0.416861,0.845041,-0.00486197,0.146329,-0.117593,0.0298731,0.0110272,0.795625,5,0.1,36,1.3,4.21932,-2.11803,0.632387,-0.212818,0.866026,-0.00412129,-0.0157356,0,0.0591651,0.0428476,2.24532,5,0.1,37,1.3,1.90897,-3.20557,0.55871,-0.528061,0.865941,0.017633,-0.070788,0.00180304,-0.000122935,0.0249499,2.10008,5,0.1,38,1.3,-1.65694,-2.48815,0.714369,-0.0884403,0.747288,0.0269477,0.193983,-0.481948,-0.00275299,0.0162294,0.187954,5,0.1,39,1.3,-3.91151,-3.03924,0.571635,0.5705,0.863195,0.0212549,-0.054583,0.0248849,-0.00200793,0.0251389,1.33856,5,0.1
0,1.4,1.76847,-2.14763,0.574489,-0.522873,0.319737,0.0234663,0.32872,-0.200987,-0.0147521,0.0260469,0.157836,5,0.1,1,1.4,1.06491,-3.43442,0.563081,0.278419,0.277781,0.0360519,-0.0526309,-0.0525713,-0.00676513,0.0167125,0.12556,5,0.1,2,1.4,-3.48796,-1.33339,0.623836,-0.0757039,0.693169,0.00492483,-0.527978,-0.278831,0.0284016,0.0220427,2.56824,5,0.1,3,1.4,-0.120507,-3.31719,0.620919,-0.165101,0.128341,-0.0192419,0.103809,-0.643611,0.0120699,0.016977,0.209396,5,0.1,4,1.4,-3.34708,0.0126381,0.500001,0.441533,-0.0228628,1.63913e-05,-0.516891,0.302922,0.000298023,0.0138085,0.234932,5,0.1,5,1.4,0.518363,2.59765,0.576058,-0.412945,-0.691068,0.021109,-0.335783,0.833631,-0.0130236,0.0103889,1.97079,5,0.1,6,1.4,-1.82757,-3.49044,0.630867,0.134403,0.591481,0.0595197,-0.160396,-0.0293255,0.342846,0.00966401,0.538389,5,0.1,7,1.4,3.2962,3.42357,0.597307,-0.426978,-0.320643,0.00351071,1.11675,0.228643,-0.00175834,0.0196952,3.24286,5,0.1,8,1.4,-0.371744,0.57011,0.662831,0.346029,0.473545,-0.00390559,-0.566036,-0.0127554,0.0380576,0.013329,2.84381,5,0.1,9,1.4,0.662438,-0.516655,0.666956,-0.0497594,0.353661,0.0670552,0.547588,0.0853688,0.155687,0.0246457,0.223941,5,0.1,10,1.4,2.70326,2.99767,0.545923,0.491244,-0.2509,0.0185311,-0.269294,0.167727,-0.0391603,0.0111037,1.68585,5,0.1,11,1.4,-0.757192,0.980476,0.634744,0.555301,0.339456,-0.0319287,-0.343144,-0.212669,0.0200272,0.0128793,0.294509,5,0.1,12,1.4,0.784118,-0.781164,0.589587,0.268549,0.282642,-0.010632,0.0180304,0.218987,0.0345409,0.0172441,0.292512,5,0.1,13,1.4,3.54373,0.289432,0.590186,-0.111252,0.866026,0.0244305,0.018239,0,0.143886,0.0412558,2.27115,5,0.1,14,1.4,3.6328,-0.757734,0.70366,-0.0769258,0.866026,0.024952,-0.0295639,0,0.0472665,0.0271676,2.26806,5,0.1,15,1.4,-3.29473,3.34886,0.574402,0.175744,0.38045,-0.0805512,-0.528693,-0.158787,-0.188291,0.0102841,0.232976,5,0.1,16,1.4,1.576,1.00056,0.59164,-0.476894,0.321421,0.00769496,0.280797,-0.202119,-0.00479817,0.0144204,0.142647,5,0.1,17,1.4,-3.2351,-0.623641,0.627272,0.158519,0.67876,-0.0224546,1.16205,-0.908554,-0.0137389,0.0214609,1.84009,5,0.1,18,1.4,-3.32804,-0.20026,0.665426,0.272977,0.19157,0.158682,-0.337958,-1.22871,0.194728,0.0255502,0.366058,5,0.1,19,1.4,-1.49103,-3.59193,0.638277,-0.592467,0.0358462,-0.0227988,0.317991,-0.632048,0.00911951,0.0261281,2.2117,5,0.1,20,1.4,-0.573118,0.677523,0.621584,-0.0257581,-0.111988,-0.0419036,-0.486434,1.05783,-0.01809,0.0142143,0.344435,5,0.1,21,1.4,3.4661,2.56142,0.637161,-0.428748,0.403404,-0.0041455,0.269413,-0.253797,0.230998,0.0155167,0.384245,5,0.1,22,1.4,-3.49165,0.519601,0.622519,0.298613,-0.72791,-0.0183463,-0.302792,0.642776,0.0286698,0.0121739,0.320855,5,0.1,23,1.4,1.60397,-0.692154,0.705214,-0.212085,0.866026,0.0235096,0.0335574,0,-0.00372529,0.0293739,2.24377,5,0.1,24,1.4,-3.40429,-0.975531,0.5841,0.856251,-0.531025,-0.00328571,0.195503,-0.0187755,0.0127256,0.00886347,1.20895,5,0.1,25,1.4,-0.202274,4.13787,0.634058,-0.705928,-0.080812,-0.0313342,0.938616,0.0507832,0.0196993,0.0113291,0.360926,5,0.1,26,1.4,3.24711,3.10179,0.592691,-0.555289,-0.238347,0.00529289,1.1065,-0.375867,-0.0215173,0.0107012,0.257678,5,0.1,27,1.4,-0.354705,-3.95311,0.613134,0.866025,0.444067,-0.00893176,1.43051e-05,-0.0661612,0.0013113,0.0197436,1.70661,5,0.1,28,1.4,-1.16966,-1.17364,0.572718,-0.866026,-0.272688,0.0156239,0,0.043273,-0.0025332,0.0155786,2.22607,5,0.1,29,1.4,3.63393,-2.12177,0.635741,-0.0494778,0.866026,-0.00961274,0.00679493,0,0.0013113,0.0302696,2.27031,5,0.1,30,1.4,3.76334,-3.29702,0.50001,-0.0664115,0.866026,-0.000193715,0.00882149,0,0.002563,0.0278981,2.26919,5,0.1,31,1.4,-1.5942,-1.64115,0.587321,0.347567,-0.353503,0.0663266,0.108719,0.744879,0.00315905,0.0167904,1.15357,5,0.1,32,1.4,2.28546,2.9191,0.656103,0.704265,0.219285,-0.0358149,-0.554204,-0.133634,0.0305474,0.0127976,0.3585,5,0.1,33,1.4,-3.59485,3.11988,0.67141,-0.383961,0.545347,-0.00665039,-0.0454187,0.264287,-0.0561178,0.0136331,0.64214,5,0.1,34,1.4,-3.24087,-3.13032,0.582527,-0.0176489,0.452965,0.00520796,-0.0089407,1.12748,0.00265241,0.0271253,2.61631,5,0.1,35,1.4,3.59356,1.91812,0.500185,-0.398564,0.826317,-0.00235289,0.229001,-0.283897,0.0203252,0.0117262,0.551553,5,0.1,36,1.4,4.19801,-2.03143,0.63232,-0.212622,0.866026,0.00314265,0.0288486,0,0.0806153,0.0332288,2.24593,5,0.1,37,1.4,1.85595,-3.11897,0.560469,-0.530523,0.866002,0.0174835,0.0437498,-0.000238419,-0.00357628,0.0132044,2.09936,5,0.1,38,1.4,-1.66482,-2.41602,0.717041,-0.0692517,0.693053,0.02639,0.187695,-0.611782,-0.00914931,0.00934249,0.138932,5,0.1,39,1.4,-3.85491,-2.95297,0.573744,0.559151,0.859898,0.0208348,-0.188589,-0.122309,-0.00703335,0.014167,0.959003,5,0.1
0,1.5,1.71777,-2.11663,0.576764,-0.491517,0.300565,0.0220593,0.31326,-0.191554,-0.0140592,0.0260469,0.157836,5,0.1,1,1.5,1.09241,-3.40713,0.566643,0.270814,0.265722,0.035071,-0.104338,-0.183508,-0.0134781,0.0167125,0.12556,5,0.1,2,1.5,-3.49744,-1.26421,0.624426,-0.107254,0.700483,0.0064739,-0.130028,0.326604,0.00432506,0.0220427,2.56824,5,0.1,3,1.5,-0.136604,-3.30733,0.619043,-0.157656,0.0717085,-0.0183764,0.0553243,-0.484094,0.00643358,0.016977,0.209396,5,0.1,4,1.5,-3.30586,0.0113529,0.500003,0.379793,-0.00735998,3.18512e-05,-0.697494,0.0312035,2.98023e-05,0.0138085,0.234932,5,0.1,5,1.5,0.475387,2.53339,0.578107,-0.445885,-0.589531,0.0198917,-0.296172,1.11346,-0.0119805,0.0103889,1.97079,5,0.1,6,1.5,-1.81594,-3.43225,0.63813,0.0896187,0.564807,0.0820275,-0.671469,-0.475302,0.11998,0.00966401,0.538389,5,0.1,7,1.5,3.25929,3.39236,0.59765,-0.311161,-0.305922,0.00335379,1.12161,0.0900626,-0.00151619,0.0196952,3.24286,5,0.1,8,1.5,-0.340798,0.618088,0.662557,0.266542,0.491296,-0.0022063,-0.949135,0.305898,-0.000447035,0.013329,2.84381,5,0.1,9,1.5,0.659484,-0.480777,0.674429,-0.015719,0.36418,0.0821243,0.163909,0.102697,0.13889,0.0246457,0.223941,5,0.1,10,1.5,2.75061,2.97367,0.547531,0.451775,-0.226935,0.0132379,-0.50427,0.30075,-0.0631697,0.0111037,1.68585,5,0.1,11,1.5,-0.703154,1.0134,0.631648,0.527016,0.319171,-0.0300183,-0.248335,-0.202689,0.0190847,0.0128793,0.294509,5,0.1,12,1.5,0.811088,-0.751722,0.588698,0.27079,0.306441,-0.00715582,0.0139102,0.233784,0.0342689,0.0172441,0.292512,5,0.1,13,1.5,3.53266,0.376034,0.593556,-0.11029,0.866026,0.0445577,0.00703335,-3.57628e-06,0.24024,0.0412558,2.27115,5,0.1,14,1.5,3.62491,-0.671132,0.706512,-0.0811607,0.866026,0.0330139,-0.0481009,-3.72529e-06,0.103988,0.0271676,2.26806,5,0.1,15,1.5,-3.27899,3.38607,0.565474,0.145972,0.363148,-0.0971805,-0.108734,-0.195161,-0.139654,0.0102841,0.232976,5,0.1,16,1.5,1.52967,1.03173,0.592387,-0.450011,0.302142,0.00723638,0.270605,-0.192605,-0.00458956,0.0144204,0.142647,5,0.1,17,1.5,-3.21287,-0.560307,0.624973,0.289961,0.587939,-0.0233804,1.3888,-0.907324,-0.00437722,0.0214609,1.84009,5,0.1,18,1.5,-3.30268,-0.18729,0.682397,0.232074,0.0682306,0.181491,-0.464916,-1.20521,0.24087,0.0255502,0.366058,5,0.1,19,1.5,-1.54994,-3.5908,0.63603,-0.595735,-0.00667311,-0.0222406,-0.290647,-0.245437,0.00349805,0.0261281,2.2117,5,0.1,20,1.5,-0.578497,0.671412,0.617231,-0.0845248,-0.0126235,-0.045705,-0.649326,0.914201,-0.0511035,0.0142143,0.344435,5,0.1,21,1.5,3.42452,2.60034,0.638184,-0.402909,0.373526,0.0268011,0.259236,-0.342652,0.363227,0.0155167,0.384245,5,0.1,22,1.5,-3.46345,0.450132,0.620856,0.264084,-0.660304,-0.0146948,-0.381216,0.711966,0.0424683,0.0121739,0.320855,5,0.1,23,1.5,1.58286,-0.605552,0.707554,-0.210441,0.866026,0.0233269,0.0109971,-3.72529e-06,-0.00121817,0.0293739,2.24377,5,0.1,24,1.5,-3.31923,-1.02682,0.583731,0.830837,-0.478215,-0.0049632,-0.646055,0.975858,-0.0399426,0.00886347,1.20895,5,0.1,25,1.5,-0.267709,4.13004,0.63102,-0.599495,-0.0759676,-0.0294548,1.13763,0.048399,0.0187829,0.0113291,0.360926,5,0.1,26,1.5,3.19742,3.0761,0.593119,-0.436333,-0.274587,0.00334345,1.24171,-0.329509,-0.0174493,0.0107012,0.257678,5,0.1,27,1.5,-0.268105,-3.90896,0.612246,0.865906,0.439211,-0.00883564,-0.00478685,-0.0514537,0.00102818,0.0197436,1.70661,5,0.1,28,1.5,-1.25627,-1.20078,0.574273,-0.866026,-0.270547,0.0154966,0,0.0145361,-0.000875443,0.0155786,2.22607,5,0.1,29,1.5,3.629,-2.03517,0.634783,-0.0492342,0.866026,-0.00956599,0.000923872,0,0.000171363,0.0302696,2.27031,5,0.1,30,1.5,3.75672,-3.21042,0.500001,-0.0661291,0.866026,-1.13621e-05,0.000655651,0,0.00116974,0.0278981,2.26919,5,0.1,31,1.5,-1.55893,-1.673,0.593968,0.357247,-0.28788,0.066533,0.0693575,0.499457,-0.00168756,0.0167904,1.15357,5,0.1,32,1.5,2.3529,2.94039,0.652659,0.642462,0.206729,-0.0331943,-0.679031,-0.124261,0.0233613,0.0127976,0.3585,5,0.1,33,1.5,-3.63349,3.17578,0.670467,-0.388416,0.572275,-0.0121437,-0.0261813,0.241622,-0.0519231,0.0136331,0.64214,5,0.1,34,1.5,-3.24255,-3.07879,0.583069,-0.0150099,0.581322,0.00569066,0.0549257,1.34949,0.00621006,0.0271253,2.61631,5,0.1,35,1.5,3.5548,1.99946,0.500035,-0.37666,0.800703,-0.000792276,0.220761,-0.260293,0.0113063,0.0117262,0.551553,5,0.1,36,1.5,4.17682,-1.94483,0.633144,-0.211632,0.866026,0.0141663,0.00324845,0,0.130545,0.0332288,2.24593,5,0.1,37,1.5,1.80293,-3.03237,0.562205,-0.530815,0.866015,0.0172866,-0.0182316,0.000238419,-0.00134483,0.0132044,2.09936,5,0.1,38,1.5,-1.67082,-2.34971,0.719793,-0.0511073,0.63359,0.0299633,0.17345,-0.590816,0.0698231,0.00934249,0.138932,5,0.1,39,1.5,-3.79989,-2.8674,0.575794,0.541289,0.852087,0.0201685,-0.18838,-0.0760853,-0.0070259,0.014167,0.959003,5,0.1
0,1.6,1.67025,-2.08757,0.578897,-0.45774,0.279915,0.0205427,0.372231,-0.22769,-0.0166893,0.0311032,0.10374,5,0.1,1,1.6,1.11885,-3.38166,0.570067,0.256801,0.24209,0.0332579,-0.178576,-0.283957,-0.023067,0.0483018,0.379306,5,0.1,2,1.6,-3.50834,-1.1922,0.625067,-0.106663,0.741225,0.00610799,0.119328,0.414073,-0.0101626,0.0248095,3.20504,5,0.1,3,1.6,-0.152105,-3.30229,0.617236,-0.152268,0.0320077,-0.0177488,0.0598729,-0.310421,0.00694394,0.0231791,0.420033,5,0.1,4,1.6,-3.27153,0.0104883,0.500006,0.305742,-0.0122858,2.68221e-05,-0.766873,-0.110428,-0.000119209,0.0255224,0.233367,5,0.1,5,1.6,0.429563,2.47994,0.580034,-0.467668,-0.481433,0.0186026,-0.121161,1.0016,-0.0142753,0.0117995,1.72243,5,0.1,6,1.6,-1.81075,-3.37869,0.646651,0.0114679,0.501806,0.0858679,-0.841856,-0.75984,-0.0322759,0.0121377,0.228389,5,0.1,7,1.6,3.23331,3.36215,0.597977,-0.214303,-0.298405,0.00318438,0.777006,0.0780821,-0.00193715,0.0245575,3.21249,5,0.1,8,1.6,-0.31903,0.668855,0.662295,0.168773,0.523935,-0.00334531,-0.95512,0.300825,-0.0194609,0.0232583,0.225252,5,0.1,9,1.6,0.658307,-0.443967,0.683263,-0.0114277,0.370417,0.0936896,-0.0533164,0.00651181,0.0877678,0.0241579,0.206884,5,0.1,10,1.6,2.79299,2.95263,0.548523,0.393349,-0.192738,0.00652671,-0.650167,0.37396,-0.0683069,0.0163834,0.298101,5,0.1,11,1.6,-0.651711,1.04426,0.628746,0.501218,0.297302,-0.0279605,-0.285983,-0.241101,0.0227094,0.0273869,0.206943,5,0.1,12,1.6,0.838144,-0.72004,0.588149,0.269161,0.325446,-0.00390112,-0.0552535,0.130028,0.0302792,0.0493011,0.335065,5,0.1,13,1.6,3.52169,0.462637,0.599247,-0.10882,0.866025,0.0692457,0.0265837,2.86102e-05,0.23964,0.0772813,2.25979,5,0.1,14,1.6,3.61657,-0.584529,0.710359,-0.08533,0.866026,0.0439942,-0.0303984,0,0.108093,0.0376188,2.26421,5,0.1,15,1.6,-3.26453,3.4213,0.555169,0.146496,0.340158,-0.107737,0.0863075,-0.269532,-0.0686646,0.0354614,1.2109,5,0.1,16,1.6,1.48609,1.06093,0.593086,-0.420478,0.281376,0.0067398,0.329196,-0.228822,-0.00545382,0.0225064,0.0937762,5,0.1,17,1.6,-3.17708,-0.506041,0.622631,0.42274,0.497492,-0.0232741,1.2095,-0.900239,0.00670552,0.0193208,0.846002,5,0.1,18,1.6,-3.2819,-0.186231,0.701688,0.182742,-0.0438221,0.20332,-0.509262,-1.01224,0.18087,0.0226593,0.254624,5,0.1,19,1.6,-1.61134,-3.59224,0.633824,-0.63431,-0.0181854,-0.0218496,-0.410736,-0.00727177,0.00542402,0.0365552,1.83644,5,0.1,20,1.6,-0.590197,0.674381,0.612397,-0.148714,0.0683278,-0.0509337,-0.604957,0.694871,-0.0483692,0.0229563,4.06025,5,0.1,21,1.6,3.38559,2.63584,0.642731,-0.374919,0.335205,0.0641569,0.308394,-0.421762,0.365168,0.0266535,0.462833,5,0.1,22,1.6,-3.43903,0.387791,0.619608,0.223607,-0.58523,-0.0101909,-0.422478,0.789747,0.046134,0.0315164,0.260194,5,0.1,23,1.6,1.56191,-0.518949,0.709876,-0.207895,0.866026,0.0230446,0.0481009,0,-0.00533462,0.0474158,2.2453,5,0.1,24,1.6,-3.24037,-1.0688,0.582991,0.737721,-0.3537,-0.0101492,-1.16718,1.43504,-0.0588596,0.0127951,0.220994,5,0.1,25,1.6,-0.321979,4.12269,0.628172,-0.486807,-0.0707507,-0.0274301,1.08452,0.0574589,0.0222921,0.0235835,0.318052,5,0.1,26,1.6,3.16,3.0472,0.593373,-0.312436,-0.300986,0.00180304,1.21224,-0.185251,-0.0133514,0.0191282,0.289082,5,0.1,27,1.6,-0.181577,-3.86541,0.61137,0.864112,0.430304,-0.00865608,-0.0382853,-0.140667,0.00280142,0.019776,1.28552,5,0.1,28,1.6,-1.34287,-1.22771,0.575815,-0.866026,-0.267231,0.015305,5.96046e-05,0.0623465,-0.00363588,0.0263006,2.22863,5,0.1,29,1.6,3.62409,-1.94857,0.633829,-0.0488162,0.866026,-0.00948459,0.00965595,-5.96046e-05,0.00184774,0.0700488,2.27036,5,0.1,30,1.6,3.75012,-3.12381,0.500004,-0.0656188,0.866026,5.66244e-05,0.0121593,0,0.000268221,0.0359326,2.26928,5,0.1,31,1.6,-1.52303,-1.7,0.600588,0.358856,-0.258964,0.0655457,-0.0474453,0.0934601,-0.0197887,0.0186902,0.95849,5,0.1,32,1.6,2.41357,2.96041,0.649454,0.569141,0.193304,-0.0308871,-0.783682,-0.148773,0.0238717,0.0122358,0.327912,5,0.1,33,1.6,-3.67231,3.23396,0.669012,-0.386274,0.588167,-0.0167266,0.0809431,0.0538826,-0.038445,0.0209781,0.45042,5,0.1,34,1.6,-3.24372,-3.01416,0.58367,-0.00788569,0.707299,0.00631362,0.082016,1.10424,0.00563264,0.0349091,0.94776,5,0.1,35,1.6,3.5183,2.07805,0.5,-0.352466,0.768888,-8.9407e-06,0.270963,-0.397801,0.00476837,0.0245787,0.377191,5,0.1,36,1.6,4.15571,-1.85823,0.635232,-0.209892,0.866026,0.0276163,0.0405312,-5.96046e-05,0.131369,0.0678768,2.24357,5,0.1,37,1.6,1.74986,-2.94576,0.563924,-0.528821,0.866026,0.0170469,0.0802875,0,-0.00414252,0.0157086,2.10256,5,0.1,38,1.6,-1.6751,-2.28936,0.723195,-0.0348598,0.572681,0.038445,0.150323,-0.635862,0.0915229,0.0269151,1.27169,5,0.1,39,1.6,-3.74684,-2.78278,0.577771,0.518167,0.837535,0.0193059,-0.287175,-0.244379,-0.0107288,0.021825,0.668254,5,0.1
0,1.7,1.62625,-2.06066,0.580871,-0.422845,0.258572,0.0189778,0.338182,-0.206828,-0.0151731,0.0311032,0.10374,5,0.1,1,1.7,1.14363,-3.35907,0.573277,0.238631,0.207933,0.0309095,-0.1892,-0.38664,-0.0244677,0.0483018,0.379306,5,0.1,2,1.7,-3.51652,-1.11637,0.625601,-0.0410341,0.770995,0.00435114,1.07458,0.162534,-0.0232607,0.0248095,3.20504,5,0.1,3,1.7,-0.167069,-3.30037,0.615492,-0.147222,0.0086721,-0.0171632,0.0476968,-0.164345,0.00554323,0.0231791,0.420033,5,0.1,4,1.7,-3.24479,0.00824194,0.500008,0.229387,-0.0364412,1.18278e-05,-0.747293,-0.339215,-0.000167638,0.0255224,0.233367,5,0.1,5,1.7,0.382206,2.43653,0.581827,-0.478779,-0.391848,0.0172768,-0.0796355,0.705183,-0.0127926,0.0117995,1.72243,5,0.1,6,1.7,-1.8138,-3.33236,0.654982,-0.0716547,0.424222,0.0798989,-0.796072,-0.785157,-0.0835881,0.0121377,0.228389,5,0.1,7,1.7,3.2152,3.33252,0.598287,-0.155867,-0.295514,0.00301264,0.304177,0.000730157,-0.00162423,0.0245575,3.21249,5,0.1,8,1.7,-0.306564,0.722208,0.661829,0.0845271,0.537786,-0.00623688,-0.71747,-0.019554,-0.035502,0.0232583,0.225252,5,0.1,9,1.7,0.656474,-0.406844,0.693083,-0.0287076,0.37206,0.10265,-0.263315,0.00811182,0.0841767,0.0241579,0.206884,5,0.1,10,1.7,2.82895,2.93528,0.548592,0.325151,-0.153858,-0.00713551,-0.70253,0.396341,-0.187721,0.0163834,0.298101,5,0.1,11,1.7,-0.602868,1.07284,0.626058,0.476612,0.2747,-0.0258318,-0.226963,-0.219092,0.0206344,0.0273869,0.206943,5,0.1,12,1.7,0.864806,-0.686668,0.587906,0.264021,0.34306,-0.0010049,-0.0579953,0.19408,0.0271276,0.0493011,0.335065,5,0.1,13,1.7,3.5109,0.549239,0.607457,-0.107153,0.866026,0.0954282,0.0126958,-5.51343e-06,0.268441,0.0772813,2.25979,5,0.1,14,1.7,3.60785,-0.497927,0.715351,-0.0892546,0.866026,0.0561684,-0.0415295,-3.57628e-06,0.127017,0.0376188,2.26421,5,0.1,15,1.7,-3.24845,3.45394,0.544406,0.18332,0.312316,-0.104408,0.578567,-0.29102,0.11934,0.0354614,1.2109,5,0.1,16,1.7,1.44562,1.08798,0.593734,-0.389545,0.259925,0.00622794,0.301018,-0.207886,-0.00496954,0.0225064,0.0937762,5,0.1,17,1.7,-3.13023,-0.461868,0.620163,0.500565,0.377169,-0.0275224,0.386164,-1.43035,-0.0798889,0.0193208,0.846002,5,0.1,18,1.7,-3.26615,-0.195436,0.723064,0.132832,-0.137434,0.225018,-0.48244,-0.842236,0.230446,0.0226593,0.254624,5,0.1,19,1.7,-1.67735,-3.5936,0.631659,-0.689448,-0.00487231,-0.0214904,-0.620753,0.243321,0.00290945,0.0365552,1.83644,5,0.1,20,1.7,-0.606593,0.68217,0.60716,-0.165996,0.065717,-0.0528834,0.18904,-0.612143,0.00666454,0.0229563,4.06025,5,0.1,21,1.7,3.34968,2.66693,0.651133,-0.342883,0.283815,0.10486,0.335559,-0.586137,0.425119,0.0266535,0.462833,5,0.1,22,1.7,-3.41879,0.333112,0.618829,0.181403,-0.509216,-0.00534346,-0.417531,0.736387,0.0492372,0.0315164,0.260194,5,0.1,23,1.7,1.54129,-0.432347,0.712161,-0.204969,0.866026,0.0227204,0.0218377,-3.57628e-06,-0.00241399,0.0474158,2.2453,5,0.1,24,1.7,-3.17206,-1.09709,0.581617,0.631969,-0.213618,-0.017831,-0.965923,1.34267,-0.0884123,0.0127951,0.220994,5,0.1,25,1.7,-0.36542,4.11589,0.625536,-0.385231,-0.0653632,-0.0253398,0.897311,0.0522435,0.0202581,0.0235835,0.318052,5,0.1,26,1.7,3.13447,3.01673,0.593494,-0.201825,-0.303326,0.000695977,0.996396,0.121504,-0.00901893,0.0191282,0.289082,5,0.1,27,1.7,-0.0951848,-3.82302,0.610517,0.864518,0.417588,-0.00840239,0.0105663,-0.130281,0.0026077,0.019776,1.28552,5,0.1,28,1.7,-1.42947,-1.25421,0.577333,-0.866025,-0.263393,0.01508,-1.49012e-05,0.02902,-0.00169873,0.0263006,2.22863,5,0.1,29,1.7,3.61924,-1.86197,0.632886,-0.0483382,0.866025,-0.00939425,0.00275671,1.49012e-05,0.00051409,0.0700488,2.27036,5,0.1,30,1.7,3.7436,-3.03721,0.500011,-0.0650693,0.866026,6.34231e-05,0.00269711,0,-9.31323e-05,0.0359326,2.26928,5,0.1,31,1.7,-1.48738,-1.72628,0.607046,0.35368,-0.273488,0.0635902,-0.0687391,-0.322968,-0.0214987,0.0186902,0.95849,5,0.1,32,1.7,2.46623,2.97904,0.646474,0.481629,0.179446,-0.0288047,-0.939012,-0.134021,0.0189841,0.0122358,0.327912,5,0.1,33,1.7,-3.71056,3.29306,0.667154,-0.378411,0.593358,-0.0203295,0.0905395,0.0238121,-0.0322089,0.0209781,0.45042,5,0.1,34,1.7,-3.24414,-2.93842,0.584333,-0.000992417,0.801492,0.00697169,0.0564456,0.750661,0.00686944,0.0349091,0.94776,5,0.1,35,1.7,3.48439,2.15297,0.500017,-0.325877,0.729148,0.000282098,0.268087,-0.416741,0.00130758,0.0245787,0.377191,5,0.1,36,1.7,4.13485,-1.77162,0.638689,-0.207968,0.866025,0.0417161,0.010252,1.49012e-05,0.143092,0.0678768,2.24357,5,0.1,37,1.7,1.69719,-2.85916,0.565615,-0.525958,0.866026,0.01681,0.00819564,0,-0.00157207,0.0157086,2.10256,5,0.1,38,1.7,-1.67807,-2.2342,0.727559,-0.0265658,0.539398,0.0492256,0.0271499,-0.100821,0.115894,0.0269151,1.27169,5,0.1,39,1.7,-3.69639,-2.70012,0.57965,0.491115,0.816052,0.0182956,-0.270203,-0.219315,-0.0100844,0.021825,0.668254,5,0.1
0,1.8,1.58569,-2.03586,0.582692,-0.388002,0.237262,0.017415,0.367165,-0.22459,-0.0164807,0.023426,0.14676,5,0.1,1,1.8,1.16651,-3.3403,0.576239,0.218251,0.167006,0.0282735,-0.221014,-0.421762,-0.02864,0.021865,0.537011,5,0.1,2,1.8,-3.51448,-1.039,0.62591,0.0871301,0.770816,0.00176132,1.39642,-0.176519,-0.0272095,0.0326333,2.76639,5,0.1,3,1.8,-0.181528,-3.30014,0.613806,-0.141601,-0.0023663,-0.016509,0.06935,-0.0633001,0.00807643,0.0213601,0.561072,5,0.1,4,1.8,-3.22546,0.00275127,0.500009,0.158489,-0.0742159,-4.47035e-06,-0.661254,-0.390614,-0.000149012,0.0172086,0.348692,5,0.1,5,1.8,0.334141,2.4,0.583489,-0.480022,-0.347215,0.0159517,0.069052,0.204206,-0.0141263,0.0156747,2.70081,5,0.1,6,1.8,-1.8247,-3.29386,0.662494,-0.143579,0.346011,0.0698075,-0.625193,-0.773191,-0.115186,0.00867239,0.339461,5,0.1,7,1.8,3.2,3.30299,0.59858,-0.15915,-0.294638,0.00284016,-0.33927,0.0320673,-0.00190735,0.0177125,2.06344,5,0.1,8,1.8,-0.301241,0.775393,0.661021,0.0265494,0.52108,-0.00994056,-0.441715,-0.308216,-0.0364184,0.0164611,0.123104,5,0.1,9,1.8,0.652137,-0.369716,0.703714,-0.0589639,0.368967,0.109296,-0.319511,-0.0824332,0.0437498,0.0163701,0.213194,5,0.1,10,1.8,2.85795,2.92186,0.54686,0.254881,-0.114763,-0.027971,-0.693917,0.379682,-0.215769,0.0117067,0.377024,5,0.1,11,1.8,-0.556383,1.09919,0.623579,0.452285,0.252116,-0.0237063,-0.274181,-0.238061,0.0224113,0.0126453,2.86955,5,0.1,12,1.8,0.890844,-0.651475,0.587932,0.255814,0.359425,0.00143647,-0.113219,0.11307,0.0213683,0.0309735,0.62854,5,0.1,13,1.8,3.50026,0.635842,0.618284,-0.105262,0.866026,0.120246,0.0290871,0,0.216722,0.0474605,2.25032,5,0.1,14,1.8,3.59874,-0.411324,0.721578,-0.0925183,0.866025,0.0679523,-0.0190735,1.43051e-05,0.10258,0.0228552,2.26356,5,0.1,15,1.8,-3.2269,3.48366,0.534763,0.249559,0.281388,-0.0867575,0.691414,-0.329494,0.220716,0.0111104,0.975324,5,0.1,16,1.8,1.4082,1.11292,0.594332,-0.358334,0.238505,0.0057146,0.331104,-0.225663,-0.00539422,0.0162363,0.106085,5,0.1,17,1.8,-3.07933,-0.43166,0.616948,0.507385,0.224917,-0.037168,-0.214815,-1.55561,-0.103951,0.0130001,0.319015,5,0.1,18,1.8,-3.25519,-0.212991,0.746648,0.0873744,-0.209362,0.24552,-0.422001,-0.585027,0.163317,0.0123132,0.194875,5,0.1,19,1.8,-1.74927,-3.59266,0.629528,-0.746164,0.0250995,-0.0210702,-0.461817,0.332713,0.00631809,0.0105535,1.40418,5,0.1,20,1.8,-0.621416,0.684442,0.601977,-0.123595,-0.0299245,-0.0501156,0.602305,-1.19397,0.046283,0.029772,3.2437,5,0.1,21,1.8,3.31713,2.69225,0.663682,-0.307333,0.221574,0.145063,0.377059,-0.642657,0.361532,0.00962125,0.629904,5,0.1,22,1.8,-3.4027,0.285822,0.618535,0.140834,-0.437,-0.000618398,-0.390768,0.71165,0.0441074,0.0264005,0.217577,5,0.1,23,1.8,1.52094,-0.345744,0.714418,-0.201583,0.866025,0.0223458,0.0540018,1.43051e-05,-0.00602007,0.0321554,2.24707,5,0.1,24,1.8,-3.11348,-1.11205,0.579386,0.541401,-0.089249,-0.0267178,-0.858903,1.12766,-0.0845492,0.0290206,3.05539,5,0.1,25,1.8,-0.4,4.10962,0.623105,-0.311818,-0.0599742,-0.0232518,0.5759,0.0565052,0.0219941,0.0152049,0.262769,5,0.1,26,1.8,3.11889,2.98739,0.593525,-0.113624,-0.27988,-4.02331e-05,0.766516,0.332475,-0.00590086,0.0210694,0.475858,5,0.1,27,1.8,-0.00882561,-3.78201,0.609692,0.860682,0.401449,-0.00807941,-0.10686,-0.203848,0.00411272,0.0314624,0.939187,5,0.1,28,1.8,-1.51607,-1.28036,0.57883,-0.866026,-0.258934,0.0148222,0,0.0703335,-0.00405312,0.032037,1.76408,5,0.1,29,1.8,3.61443,-1.77536,0.631951,-0.047791,0.866026,-0.00928789,0.0104904,-5.96046e-05,0.00199676,0.0478663,2.27042,5,0.1,30,1.8,3.73711,-2.95061,0.500016,-0.0644267,0.866026,4.17233e-05,0.013113,0,-0.000238419,0.0335643,2.26938,5,0.1,31,1.8,-1.45248,-1.75551,0.61328,0.343004,-0.312814,0.0608832,-0.153065,-0.417054,-0.0341237,0.017741,0.752867,5,0.1,32,1.8,2.50963,2.9963,0.643688,0.386137,0.165552,-0.0268817,-0.950694,-0.1477,0.0203252,0.020066,0.30773,5,0.1,33,1.8,-3.74783,3.35229,0.66498,-0.365794,0.588554,-0.0229344,0.171304,-0.137329,-0.0189245,0.013038,0.307061,5,0.1,34,1.8,-3.244,-2.85529,0.585062,0.00352263,0.852931,0.00757575,0.0344515,0.261903,0.00467896,0.030687,0.311581,5,0.1,35,1.8,3.45318,2.22364,0.500048,-0.297648,0.682282,0.000301003,0.301242,-0.533223,-0.000745058,0.0230212,0.415769,5,0.1,36,1.8,4.11413,-1.68502,0.643545,-0.205731,0.866026,0.0549346,0.0426769,-5.96046e-05,0.115871,0.0839511,2.24202,5,0.1,37,1.8,1.64472,-2.77256,0.567286,-0.521851,0.866026,0.0165641,0.0961423,0,-0.00402331,0.0132632,2.15689,5,0.1,38,1.8,-1.68072,-2.18036,0.733046,-0.0273466,0.54,0.0602067,-0.033617,0.0587702,0.097692,0.0151737,0.100362,5,0.1,39,1.8,-3.64871,-2.6198,0.581426,0.461394,0.787932,0.017187,-0.335217,-0.366449,-0.012517,0.0235246,0.456574,5,0.1
0,1.9,1.54847,-2.01319,0.584356,-0.358431,0.216456,0.0158881,0.244707,-0.198014,-0.0145324,0.023426,0.14676,5,0.1,1,1.9,1.1871,-3.32574,0.579554,0.192543,0.124219,0.0432984,-0.287242,-0.421748,0.289116,0.021865,0.537011,5,0.1,2,1.9,-3.49848,-0.96316,0.62595,0.234089,0.742308,-0.000948086,1.47782,-0.396375,-0.0262037,0.0326333,2.76639,5,0.1,3,1.9,-0.195308,-3.30068,0.6122,-0.133603,-0.00799224,-0.0155772,0.0919951,-0.0428259,0.0107251,0.0213601,0.561072,5,0.1,4,1.9,-3.21271,-0.00691556,0.500008,0.0987381,-0.121182,-1.50874e-05,-0.529289,-0.51514,-6.70552e-05,0.0172086,0.348692,5,0.1,5,1.9,0.285986,2.36492,0.584966,-0.486811,-0.36569,0.0131791,-0.156349,-0.479206,-0.038527,0.0156747,2.70081,5,0.1,6,1.9,-1.84165,-3.26309,0.668958,-0.190147,0.270054,0.0599975,-0.315413,-0.73868,-0.0840649,0.00867239,0.339461,5,0.1,7,1.9,3.18175,3.27386,0.598908,-0.210684,-0.286296,0.00419514,-0.634611,0.134751,0.0255071,0.0177125,2.06344,5,0.1,8,1.9,-0.300336,0.825504,0.659802,-0.00428814,0.477021,-0.0147736,-0.191556,-0.555839,-0.0559539,0.0164611,0.123104,5,0.1,9,1.9,0.644435,-0.33359,0.714901,-0.0965121,0.350224,0.114611,-0.406016,-0.282217,0.0543632,0.0163701,0.213194,5,0.1,10,1.9,2.88005,2.91223,0.543013,0.188282,-0.0786815,-0.0485242,-0.630662,0.336841,-0.189114,0.0117067,0.377024,5,0.1,11,1.9,-0.512293,1.12456,0.621317,0.431225,0.266463,-0.0215771,-0.170665,0.43726,0.0207052,0.0126453,2.86955,5,0.1,12,1.9,0.915574,-0.615056,0.588961,0.236241,0.367776,0.0256363,-0.267055,0.0416897,0.412852,0.0309735,0.62854,5,0.1,13,1.9,3.48984,0.722444,0.631431,-0.103393,0.866026,0.142727,0.0141114,-3.72529e-06,0.219032,0.0474605,2.25032,5,0.1,14,1.9,3.58937,-0.324721,0.728815,-0.0950024,0.866025,0.0760537,-0.0248253,-1.78814e-06,0.0580698,0.0228552,2.26356,5,0.1,15,1.9,-3.19812,3.51019,0.527324,0.328374,0.249504,-0.0609973,0.830561,-0.311822,0.282846,0.0111104,0.975324,5,0.1,16,1.9,1.37376,1.13581,0.594881,-0.332412,0.220777,0.00529001,0.207946,-0.142567,-0.00342354,0.0162363,0.106085,5,0.1,17,1.9,-3.02992,-0.416788,0.612474,0.478422,0.0748414,-0.0541746,-0.362366,-1.41719,-0.216421,0.0130001,0.319015,5,0.1,18,1.9,-3.24847,-0.236604,0.772123,0.0479095,-0.260148,0.264489,-0.363439,-0.419993,0.194356,0.0123132,0.194875,5,0.1,19,1.9,-1.82638,-3.5883,0.627448,-0.796436,0.0632711,-0.0205468,-0.488169,0.408053,0.00507385,0.0105535,1.40418,5,0.1,20,1.9,-0.630159,0.674492,0.597236,-0.0465514,-0.176395,-0.0443875,0.887014,-1.63554,0.0664555,0.029772,3.2437,5,0.1,21,1.9,3.28889,2.71086,0.679703,-0.252385,0.148198,0.172448,0.684083,-0.792831,0.187907,0.00962125,0.629904,5,0.1,22,1.9,-3.3904,0.245413,0.618675,0.106596,-0.373526,0.00322191,-0.298098,0.570442,0.0325702,0.0264005,0.217577,5,0.1,23,1.9,1.50097,-0.259142,0.71663,-0.19812,0.866025,0.0219594,0.0263378,0,-0.0029318,0.0321554,2.24707,5,0.1,24,1.9,-3.06194,-1.11698,0.576406,0.503543,-0.0238443,-0.0318267,-0.000163913,0.253119,-0.0212155,0.0290206,3.05539,5,0.1,25,1.9,-0.428941,4.10389,0.620883,-0.272503,-0.0547364,-0.0212139,0.245612,0.0498891,0.0194013,0.0152049,0.262769,5,0.1,26,1.9,3.11171,2.96179,0.593593,-0.0274569,-0.226043,0.00227811,0.915408,0.699416,0.0459217,0.0210694,0.475858,5,0.1,27,1.9,0.0769378,-3.74282,0.608903,0.855706,0.382536,-0.00769757,-0.0382471,-0.188053,0.00379235,0.0314624,0.939187,5,0.1,28,1.9,-1.60268,-1.30596,0.580295,-0.866021,-0.253278,0.0144966,0.000193715,0.0545308,-0.00312924,0.032037,1.76408,5,0.1,29,1.9,3.60968,-1.68876,0.631028,-0.0472534,0.866025,-0.00918657,0.00308454,1.49012e-05,0.000573695,0.0478663,2.27042,5,0.1,30,1.9,3.73071,-2.86401,0.500019,-0.0638131,0.866026,1.69501e-05,0.00299513,0,-0.000245869,0.0335643,2.26938,5,0.1,31,1.9,-1.41892,-1.78922,0.619205,0.328122,-0.363477,0.0576256,-0.155069,-0.549659,-0.0328422,0.017741,0.752867,5,0.1,32,1.9,2.5435,3.01216,0.641093,0.292305,0.151902,-0.0250784,-0.895277,-0.129998,0.0167303,0.020066,0.30773,5,0.1,33,1.9,-3.78359,3.41049,0.662598,-0.349473,0.575206,-0.0246192,0.166818,-0.150919,-0.0136606,0.013038,0.307061,5,0.1,34,1.9,-3.24335,-2.76935,0.585844,0.0104722,0.859271,0.00806609,0.0955015,-0.135437,0.00460818,0.030687,0.311581,5,0.1,35,1.9,3.42501,2.28905,0.500402,-0.264987,0.624418,0.00954382,0.349179,-0.625595,0.164904,0.0230212,0.415769,5,0.1,36,1.9,4.09369,-1.59842,0.64963,-0.203682,0.866025,0.0667295,0.0105202,1.49012e-05,0.113513,0.0839511,2.24202,5,0.1,37,1.9,1.59283,-2.68604,0.568925,-0.517027,0.862853,0.0162389,0.0299215,-0.0927001,-0.00321865,0.0132632,2.15689,5,0.1,38,1.9,-1.68352,-2.12635,0.739413,-0.0279052,0.537211,0.065803,0.0184551,-0.119984,0.0178218,0.0151737,0.100362,5,0.1,39,1.9,-3.60416,-2.54272,0.583086,0.430092,0.754157,0.0160186,-0.304446,-0.336885,-0.0113621,0.0235246,0.456574,5,0.1
0,2,1.51378,-1.99254,0.585872,-0.335521,0.196573,0.0144288,0.228524,-0.204206,-0.0149906,0.0212516,0.186099,5,0.1,1,2,1.20485,-3.31534,0.585582,0.161907,0.0846744,0.0789881,-0.320494,-0.361085,0.393569,0.0246467,0.372745,5,0.1,2,2,-3.46799,-0.891289,0.625731,0.371498,0.691359,-0.0033468,1.22344,-0.621706,-0.0212193,0.0170712,2.5317,5,0.1,3,2,-0.208162,-3.30162,0.610701,-0.123004,-0.00998974,-0.0143409,0.12058,0.00596046,0.0140369,0.0270478,1.75645,5,0.1,4,2,-3.20524,-0.0215878,0.500006,0.0532031,-0.171404,-1.93715e-05,-0.380278,-0.464464,0,0.0137278,0.343817,5,0.1,5,2,0.236478,2.32547,0.58607,-0.502873,-0.426364,0.00874996,-0.12917,-0.661731,-0.0478625,0.0140479,2.45716,5,0.1,6,2,-1.86179,-3.23967,0.674569,-0.208509,0.199556,0.0524551,-0.0609159,-0.665784,-0.069052,0.0447375,0.4732,5,0.1,7,2,3.15741,3.24607,0.599477,-0.27613,-0.26781,0.00732243,-0.631452,0.233769,0.0343323,0.0438822,1.83088,5,0.1,8,2,-0.301422,0.870137,0.658041,-0.0147849,0.413124,-0.0203833,-0.032112,-0.70703,-0.0530481,0.0241402,0.359881,5,0.1,9,2,0.632783,-0.300238,0.726596,-0.135747,0.314489,0.118773,-0.359982,-0.423059,0.023067,0.0444993,0.645104,5,0.1,10,2,2.89588,2.90594,0.5373,0.129968,-0.0482082,-0.0647664,-0.530958,0.269771,-0.131607,0.0316063,0.386608,5,0.1,11,2,-0.470012,1.15391,0.619263,0.414067,0.324023,-0.0194773,-0.189692,0.646293,0.0216067,0.0289414,0.454744,5,0.1,12,2,0.937687,-0.578268,0.593897,0.20448,0.365771,0.0751629,-0.358611,-0.0894666,0.538975,0.0258517,0.210265,5,0.1,13,2,3.47959,0.809047,0.64671,-0.101447,0.866026,0.161691,0.0290871,0,0.150532,0.0966115,2.24362,5,0.1,14,2,3.57977,-0.238119,0.736629,-0.096494,0.866025,0.0793725,-0.000953674,0,0.00777841,0.0231902,2.26637,5,0.1,15,2,-3.16126,3.53359,0.522661,0.406283,0.218439,-0.0322491,0.688076,-0.31209,0.283182,0.0344305,0.756039,5,0.1,16,2,1.34149,1.15722,0.595393,-0.313169,0.207618,0.00497401,0.191927,-0.130534,-0.00312924,0.0163093,0.0701915,5,0.1,17,2,-2.98411,-0.415967,0.605923,0.435466,-0.0536665,-0.0769809,-0.493526,-1.13316,-0.224799,0.0349441,1.29868,5,0.1,18,2,-3.24538,-0.264376,0.799449,0.0153244,-0.291688,0.280687,-0.285864,-0.204727,0.114232,0.0138366,0.163551,5,0.1,19,2,-1.90813,-3.57997,0.625423,-0.834367,0.102758,-0.0198975,-0.231683,0.365138,0.00849366,0.0247612,1.02827,5,0.1,20,2,-0.63026,0.648623,0.59315,0.0447214,-0.339553,-0.0371605,0.899166,-1.55267,0.076592,0.0200157,2.71357,5,0.1,21,2,3.26732,2.72168,0.697613,-0.177288,0.0686467,0.183095,0.787973,-0.773907,0.0277758,0.0175216,0.41881,5,0.1,22,2,-3.38111,0.210764,0.61914,0.0804603,-0.320705,0.00588298,-0.228167,0.495412,0.020653,0.0164797,0.257275,5,0.1,23,2,1.48132,-0.172539,0.718809,-0.194424,0.866025,0.0215486,0.0554323,0,-0.00613928,0.0516077,1.83456,5,0.1,24,2,-3.01086,-1.11904,0.573197,0.523293,-0.0254959,-0.0316292,0.31662,-0.227451,0.0221133,0.027499,2.71623,5,0.1,25,2,-0.455271,4.09867,0.618859,-0.256445,-0.0497222,-0.0192657,0.102848,0.0517368,0.0200272,0.0307162,0.204232,5,0.1,26,2,3.11351,2.94299,0.594093,0.0622153,-0.14801,0.00801682,0.84722,0.825644,0.0639558,0.00872151,0.309049,5,0.1,27,2,0.162125,-3.70557,0.608154,0.845288,0.361544,-0.00727326,-0.201993,-0.24116,0.00482798,0.0197416,0.664154,5,0.1,28,2,-1.68928,-1.33096,0.581726,-0.865948,-0.246048,0.0140816,0.00154972,0.0983477,-0.00560284,0.0142015,1.35497,5,0.1,29,2,3.60498,-1.60216,0.630114,-0.0466943,0.866026,-0.00907928,0.0101328,-5.96046e-05,0.00196695,0.0412658,2.27737,5,0.1,30,2,3.72435,-2.7774,0.50002,-0.063175,0.866026,-5.96046e-06,0.0127554,0,-0.000238419,0.0219489,2.26907,5,0.1,31,2,-1.38695,-1.82822,0.624793,0.310242,-0.414705,0.0540122,-0.20951,-0.440836,-0.0406802,0.0246422,0.57098,5,0.1,32,2,2.56854,3.02669,0.63867,0.211686,0.138754,-0.0233665,-0.701785,-0.136256,0.0181794,0.0103308,0.282128,5,0.1,33,2,-3.81764,3.46709,0.660084,-0.330472,0.554818,-0.025481,0.221252,-0.270963,-0.00289083,0.01975,0.205748,5,0.1,34,2,-3.24178,-2.68475,0.58667,0.0210226,0.826222,0.00840873,0.1086,-0.521541,0.00190735,0.0300492,2.46438,5,0.1,35,2,3.40032,2.34821,0.502314,-0.228363,0.557077,0.0296026,0.380278,-0.720739,0.22018,0.0132867,1.05455,5,0.1,36,2,4.0734,-1.51182,0.656823,-0.201523,0.866026,0.0765294,0.0412464,-5.96046e-05,0.0779033,0.060222,2.24119,5,0.1,37,2,1.54137,-2.60056,0.57053,-0.510818,0.842625,0.0157937,0.115097,-0.331044,-0.00613928,0.013997,1.88331,5,0.1,38,2,-1.68616,-2.07356,0.745975,-0.0243843,0.515288,0.064455,0.0485778,-0.320077,-0.0414848,0.0116219,0.80733,5,0.1,39,2,-3.56271,-2.46912,0.584629,0.398219,0.715876,0.0148296,-0.34225,-0.447869,-0.0127554,0.0165692,0.308166,5,0.1
0,2.1,1.48098,-1.97375,0.587251,-0.323666,0.180414,0.0132424,0.0400618,-0.130259,-0.00956282,0.0212516,0.186099,5,0.1,1,2.1,1.21959,-3.30863,0.59506,0.134107,0.050658,0.106941,-0.241444,-0.298172,0.174809,0.0246467,0.372745,5,0.1,2,2.1,-3.42536,-0.825396,0.625336,0.474532,0.625155,-0.00413349,0.825062,-0.702556,0.00334159,0.0170712,2.5317,5,0.1,3,2.1,-0.219862,-3.30276,0.609337,-0.11099,-0.0134557,-0.0129417,0.121112,-0.0273585,0.0141114,0.0270478,1.75645,5,0.1,4,2.1,-3.20156,-0.0410458,0.500004,0.0227876,-0.21717,-1.76951e-05,-0.232249,-0.429965,2.98023e-05,0.0137278,0.343817,5,0.1,5,2.1,0.18525,2.27888,0.58669,-0.523562,-0.5099,0.00354452,-0.241956,-0.931099,-0.0541396,0.0140479,2.45716,5,0.1,6,2.1,-1.88238,-3.22289,0.679557,-0.198371,0.137657,0.0480513,0.238225,-0.567719,-0.024613,0.0447375,0.4732,5,0.1,7,2.1,3.12675,3.22057,0.600408,-0.335255,-0.2412,0.0114984,-0.527963,0.294998,0.0461228,0.0438822,1.83088,5,0.1,8,2.1,-0.303017,0.908527,0.655748,-0.0166945,0.359953,-0.025332,-0.00731274,-0.390008,-0.0441447,0.0241402,0.359881,5,0.1,9,2.1,0.616897,-0.271119,0.738422,-0.185846,0.266092,0.116192,-0.593338,-0.530964,-0.0695735,0.0444993,0.645104,5,0.1,10,2.1,2.90692,2.90233,0.53036,0.096976,-0.0251871,-0.0722395,-0.162333,0.190094,-0.0234097,0.0316063,0.386608,5,0.1,11,2.1,-0.430649,1.18922,0.617334,0.363742,0.378516,-0.0198389,-0.758115,0.431404,-0.0230633,0.0289414,0.454744,5,0.1,12,2.1,0.956576,-0.542008,0.603611,0.175336,0.360221,0.114452,-0.236273,-0.0416562,0.258721,0.0258517,0.210265,5,0.1,13,2.1,3.46955,0.89565,0.66366,-0.0995819,0.866026,0.177284,0.0139028,-3.72529e-06,0.148449,0.0966115,2.24362,5,0.1,14,2.1,3.57002,-0.151516,0.74449,-0.099298,0.866025,0.0767983,-0.0449866,1.19209e-06,-0.0554174,0.0231902,2.26637,5,0.1,15,2.1,-3.11712,3.55394,0.520872,0.476181,0.189138,-0.00355858,0.668138,-0.277311,0.282034,0.0344305,0.756039,5,0.1,16,2.1,1.3113,1.1774,0.595877,-0.289217,0.196522,0.00470737,0.283733,-0.100382,-0.00241771,0.0163093,0.0701915,5,0.1,17,2.1,-2.94192,-0.425974,0.597372,0.417598,-0.13692,-0.0915141,0.0637472,-0.55993,-0.0730269,0.0349441,1.29868,5,0.1,18,2.1,-3.24517,-0.294441,0.82819,-0.0101496,-0.308087,0.294594,-0.221953,-0.113266,0.142641,0.0138366,0.163551,5,0.1,19,2.1,-1.99272,-3.56783,0.623472,-0.856339,0.139775,-0.0191319,-0.170819,0.357971,0.00757352,0.0247612,1.02827,5,0.1,20,2.1,-0.621132,0.606643,0.589822,0.138428,-0.500679,-0.0293706,0.935685,-1.59247,0.078015,0.0200157,2.71357,5,0.1,21,2.1,3.2535,2.72494,0.716223,-0.0997685,-0.000694022,0.19023,0.747085,-0.6084,0.096567,0.0175216,0.41881,5,0.1,22,2.1,-3.37387,0.180915,0.61981,0.067224,-0.278477,0.00729673,-0.0538975,0.362988,0.00815839,0.0164797,0.257275,5,0.1,23,2.1,1.46211,-0.0859365,0.720938,-0.190083,0.866025,0.021068,0.0404865,1.49012e-07,-0.0044778,0.0516077,1.83456,5,0.1,24,2.1,-2.95615,-1.12358,0.570193,0.576947,-0.0721231,-0.0280321,0.675276,-0.643626,0.0473708,0.027499,2.71623,5,0.1,25,2.1,-0.480719,4.09394,0.617027,-0.255012,-0.0449717,-0.017427,-0.0470094,0.0446439,0.0172816,0.0307162,0.204232,5,0.1,26,2.1,3.12406,2.93209,0.59538,0.148946,-0.0724141,0.0190478,0.852674,0.681356,0.143871,0.00872151,0.309049,5,0.1,27,2.1,0.245787,-3.67056,0.607449,0.828434,0.339143,-0.00682427,-0.171695,-0.218138,0.00437722,0.0197416,0.664154,5,0.1,28,2.1,-1.77587,-1.35512,0.583109,-0.865728,-0.237244,0.0135803,0.00920892,0.0872388,-0.00497326,0.0142015,1.35497,5,0.1,29,2.1,3.60028,-1.51556,0.629417,-0.0478022,0.866025,-0.00316259,-0.025928,1.49012e-05,0.103973,0.0412658,2.27737,5,0.1,30,2.1,3.71804,-2.6908,0.500018,-0.0634972,0.866026,-2.42144e-05,-0.0133961,0,-0.00013411,0.0219489,2.26907,5,0.1,31,2.1,-1.35693,-1.87199,0.63,0.290388,-0.460719,0.0501929,-0.19636,-0.443436,-0.0372306,0.0246422,0.57098,5,0.1,32,2.1,2.58654,3.03993,0.636417,0.152387,0.12625,-0.0217336,-0.457302,-0.117764,0.0152923,0.0103308,0.282128,5,0.1,33,2.1,-3.84963,3.52128,0.657525,-0.309673,0.529018,-0.0256526,0.204489,-0.262618,0.000368804,0.01975,0.205748,5,0.1,34,2.1,-3.23904,-2.60507,0.587521,0.0346307,0.764117,0.00860775,0.15308,-0.716537,0.0016354,0.0300492,2.46438,5,0.1,35,2.1,3.37936,2.40011,0.505902,-0.190998,0.479382,0.0379908,0.365883,-0.820965,-0.0304766,0.0132867,1.05455,5,0.1,36,2.1,4.05337,-1.42521,0.664875,-0.199633,0.866025,0.0844424,0.00873208,1.49012e-05,0.0743382,0.060222,2.24119,5,0.1,37,2.1,1.49131,-2.51831,0.572078,-0.486111,0.798938,0.0151705,0.367567,-0.544071,-0.00678003,0.013997,1.88331,5,0.1,38,2.1,-1.68842,-2.02293,0.752153,-0.0211501,0.502867,0.0585567,0.0191852,0.0166818,-0.0739768,0.0116219,0.80733,5,0.1,39,2.1,-3.52451,-2.39965,0.586052,0.366522,0.674327,0.0136485,-0.30309,-0.406116,-0.0112951,0.0165692,0.308166,5,0.1
0,2.2,1.44871,-1.95631,0.588531,-0.322011,0.168559,0.0123724,0.0165701,-0.115216,-0.00849366,0.0181701,0.150826,5,0.1,1,2.2,1.23188,-3.30482,0.606332,0.112557,0.0279903,0.11573,-0.194073,-0.146747,0.00944734,0.0206076,0.524121,5,0.1,2,2.2,-3.37452,-0.766524,0.624966,0.534779,0.550982,-0.00306517,0.374556,-0.77939,0.0163019,0.0146759,1.98944,5,0.1,3,2.2,-0.230346,-3.30401,0.608114,-0.0985596,-0.00858903,-0.0114933,0.128306,0.145674,0.0149608,0.0214206,3.60411,5,0.1,4,2.2,-3.20024,-0.0647152,0.500003,0.00577569,-0.253866,-1.49012e-05,-0.113249,-0.289537,5.96046e-05,0.0172698,0.327555,5,0.1,5,2.2,0.131785,2.22332,0.586778,-0.543931,-0.599068,-0.00171065,-0.134747,-0.794888,-0.0494123,0.0114865,2.2816,5,0.1,6,2.2,-1.90071,-3.21177,0.684275,-0.165489,0.086689,0.0465468,0.398576,-0.449181,-0.00974536,0.00996026,0.334799,5,0.1,7,2.2,3.09091,3.198,0.601787,-0.377887,-0.209481,0.0160128,-0.309229,0.336051,0.0418723,0.009487,0.778401,5,0.1,8,2.2,-0.30469,0.942869,0.653021,-0.0164799,0.329171,-0.0289172,0.0104755,-0.251532,-0.0263751,0.0138488,3.23599,5,0.1,9,2.2,0.59529,-0.247247,0.749575,-0.245903,0.210815,0.105822,-0.57134,-0.563294,-0.133246,0.0232508,0.514851,5,0.1,10,2.2,2.91619,2.90063,0.523159,0.0915051,-0.0101089,-0.0704959,0.0263453,0.112534,0.0533164,0.0111303,0.351312,5,0.1,11,2.2,-0.398603,1.22879,0.615201,0.273008,0.408432,-0.0230685,-1.0096,0.160456,-0.0371039,0.0182673,0.220897,5,0.1,12,2.2,0.973049,-0.50625,0.615969,0.155103,0.354009,0.12918,-0.177652,-0.0968128,0.0466704,0.0303129,0.144798,5,0.1,13,2.2,3.45968,0.982252,0.682041,-0.0977039,0.866027,0.189197,0.0277758,-2.98023e-05,0.0808239,0.0299863,2.27026,5,0.1,14,2.2,3.55986,-0.0649138,0.751815,-0.103736,0.866026,0.0690103,-0.0362396,-3.57628e-06,-0.0969768,0.0230054,2.26401,5,0.1,15,2.2,-3.06648,3.5715,0.521866,0.532818,0.162393,0.0226796,0.435591,-0.259876,0.236541,0.0160275,0.554762,5,0.1,16,2.2,1.28392,1.19654,0.596335,-0.257123,0.186005,0.00445396,0.354528,-0.116169,-0.00280142,0.0120712,1.60237,5,0.1,17,2.2,-2.89942,-0.441711,0.588057,0.435418,-0.170911,-0.0929445,0.236988,-0.144452,0.0380278,0.0182268,0.997449,5,0.1,18,2.2,-3.24718,-0.325599,0.858267,-0.0288188,-0.312743,0.305592,-0.150919,0.0261068,0.0624061,0.0214411,2.44668,5,0.1,19,2.2,-2.07887,-3.55219,0.6216,-0.862539,0.171417,-0.0182569,0.069499,0.262737,0.0104606,0.0232932,0.726211,5,0.1,20,2.2,-0.602816,0.54907,0.587269,0.225095,-0.644782,-0.0217676,0.769258,-1.23444,0.0731349,0.0276352,2.35156,5,0.1,21,2.2,3.24709,2.72214,0.735718,-0.0304937,-0.0523865,0.199234,0.627518,-0.423312,0.0700951,0.0111328,0.289761,5,0.1,22,2.2,-3.36725,0.154756,0.620563,0.0665843,-0.245682,0.00761747,0.0275373,0.303335,-0.0013113,0.0179984,0.21293,5,0.1,23,2.2,1.44334,0.000665988,0.723018,-0.184783,0.866025,0.0204816,0.071764,-1.19209e-06,-0.00792742,0.0322881,1.48158,5,0.1,24,2.2,-2.89503,-1.13428,0.567651,0.644231,-0.143352,-0.0226006,0.609994,-0.733733,0.059247,0.0230361,2.58963,5,0.1,25,2.2,-0.506519,4.08966,0.615369,-0.261106,-0.0405669,-0.0157192,-0.0545979,0.0448227,0.0172555,0.0221541,0.157054,5,0.1,26,2.2,3.143,2.92798,0.598049,0.226808,-0.0124991,0.0345364,0.679851,0.514269,0.156105,0.00932239,0.226237,5,0.1,27,2.2,0.327577,-3.63777,0.606789,0.80477,0.316012,-0.00635982,-0.326767,-0.252247,0.00506639,0.0120814,0.531321,5,0.1,28,2.2,-1.86231,-1.37836,0.584439,-0.861955,-0.226995,0.0129968,0.0814199,0.124216,-0.00712276,0.0119541,1.02148,5,0.1,29,2.2,3.59535,-1.42895,0.629705,-0.0507653,0.866026,0.00950992,-0.0287294,-5.96046e-05,0.139773,0.0484054,2.27125,5,0.1,30,2.2,3.71162,-2.6042,0.500015,-0.0648499,0.866026,-3.42727e-05,-0.00917912,0,-2.98023e-05,0.0331382,2.26868,5,0.1,31,2.2,-1.32891,-1.92004,0.634829,0.269502,-0.497276,0.0463098,-0.227392,-0.262439,-0.0414252,0.0117952,0.413669,5,0.1,32,2.2,2.6,3.05197,0.634321,0.121737,0.114524,-0.0201687,-0.16737,-0.119448,0.0165105,0.0180931,0.242909,5,0.1,33,2.2,-3.87954,3.57277,0.654972,-0.287932,0.499356,-0.0252575,0.236869,-0.342369,0.00807643,0.0114581,0.136761,5,0.1,34,2.2,-3.23481,-2.53253,0.588387,0.0498056,0.683892,0.00866354,0.142574,-0.882506,-0.000804663,0.0351632,0.602429,5,0.1,35,2.2,3.36206,2.44386,0.509285,-0.155401,0.395137,0.0274718,0.344753,-0.853419,-0.162244,0.0108273,0.77407,5,0.1,36,2.2,4.03348,-1.33861,0.673644,-0.197709,0.866026,0.09038,0.0388622,-5.96046e-05,0.0402331,0.0471064,2.24104,5,0.1,37,2.2,1.44487,-2.44149,0.573558,-0.439543,0.733858,0.0143647,0.552833,-0.755429,-0.00965595,0.0158554,1.26962,5,0.1,38,2.2,-1.69046,-1.97238,0.757602,-0.0200033,0.509009,0.0501245,0.00619888,0.0650287,-0.0925362,0.0137647,1.31655,5,0.1,39,2.2,-3.48938,-2.33433,0.58736,0.335675,0.63079,0.0124991,-0.321865,-0.480413,-0.0119805,0.0128647,0.206778,5,0.1
0,2.3,1.41697,-1.93997,0.58973,-0.309238,0.158831,0.0116554,0.227518,-0.0867918,-0.00638887,0.0181701,0.150826,5,0.1,1,2.3,1.24226,-3.30258,0.617768,0.0959976,0.0198927,0.111329,-0.141941,0.0260919,-0.0907816,0.0206076,0.524121,5,0.1,2,2.3,-3.31922,-0.71521,0.624738,0.569803,0.476301,-0.00151452,0.296697,-0.719614,0.0144914,0.0146759,1.98944,5,0.1,3,2.3,-0.239557,-3.30409,0.60704,-0.0856376,0.0114147,-0.0099862,0.12996,0.388637,0.0151545,0.0214206,3.60411,5,0.1,4,2.3,-3.2001,-0.0915212,0.500001,-0.00205822,-0.281522,-9.49949e-06,-0.0475198,-0.246228,4.47035e-05,0.0172698,0.327555,5,0.1,5,2.3,0.0767398,2.15957,0.586354,-0.556113,-0.673549,-0.00678375,-0.0844562,-0.654936,-0.0500903,0.0114865,2.2816,5,0.1,6,2.3,-1.91462,-3.20513,0.688953,-0.107414,0.048149,0.0475664,0.714876,-0.322029,0.0237897,0.00996026,0.334799,5,0.1,7,2.3,3.05299,3.17964,0.603741,-0.368125,-0.150234,0.0242098,0.439599,0.789493,0.111055,0.009487,0.778401,5,0.1,8,2.3,-0.306174,0.974966,0.650053,-0.01224,0.3163,-0.0299166,0.0675842,-0.0389777,0.0048168,0.0138488,3.23599,5,0.1,9,2.3,0.567686,-0.228937,0.759433,-0.306773,0.15599,0.0908399,-0.608962,-0.527309,-0.162892,0.0232508,0.514851,5,0.1,10,2.3,2.92604,2.90008,0.516476,0.110131,-0.00206158,-0.0623056,0.305608,0.0523031,0.105377,0.0111303,0.351312,5,0.1,11,2.3,-0.376347,1.27042,0.612665,0.172665,0.423443,-0.0279479,-0.977445,0.119448,-0.0556782,0.0182673,0.220897,5,0.1,12,2.3,0.987809,-0.471256,0.628879,0.141237,0.346251,0.12684,-0.109173,-0.0744518,-0.0848435,0.0303129,0.144798,5,0.1,13,2.3,3.45,1.06885,0.701098,-0.0960123,0.866026,0.189432,0.0116974,-3.72529e-06,-0.0692718,0.0299863,2.27026,5,0.1,14,2.3,3.54924,0.0216887,0.758199,-0.109004,0.866025,0.0584092,-0.0599325,2.98023e-07,-0.112824,0.0230054,2.26401,5,0.1,15,2.3,-3.01105,3.58651,0.525291,0.574661,0.138469,0.0453789,0.36855,-0.221655,0.210986,0.0160275,0.554762,5,0.1,16,2.3,1.26013,1.21516,0.596673,-0.217516,0.191187,0.0014971,0.42779,0.178359,-0.0504814,0.0120712,1.60237,5,0.1,17,2.3,-2.8542,-0.45902,0.579074,0.47241,-0.170738,-0.0856247,0.447288,0.127304,0.103258,0.0182268,0.997449,5,0.1,18,2.3,-3.24952,-0.355839,0.889017,-0.00696629,-0.284157,0.308046,0.511974,0.500265,-0.0198223,0.0214411,2.44668,5,0.1,19,2.3,-2.16483,-3.53376,0.619824,-0.856336,0.196629,-0.0172939,0.0903904,0.228137,0.00941753,0.0232932,0.726211,5,0.1,20,2.3,-0.576398,0.478726,0.585448,0.302954,-0.757859,-0.0147648,0.751536,-0.982037,0.0661761,0.0276352,2.35156,5,0.1,21,2.3,3.24699,2.71482,0.756252,0.0266206,-0.0933185,0.213361,0.508234,-0.382274,0.185847,0.0111328,0.289761,5,0.1,22,2.3,-3.36023,0.131456,0.621297,0.0755813,-0.222386,0.00686571,0.134811,0.178829,-0.0126287,0.0179984,0.21293,5,0.1,23,2.3,1.42503,0.0872645,0.725031,-0.182892,0.865825,0.0197818,-0.0167042,-0.00799373,-0.00688806,0.0322881,1.48158,5,0.1,24,2.3,-2.82814,-1.15196,0.565678,0.68777,-0.206814,-0.0169671,0.252739,-0.527821,0.0531115,0.0230361,2.58963,5,0.1,25,2.3,-0.533046,4.08581,0.613878,-0.270319,-0.0364847,-0.0141467,-0.108548,0.0379384,0.0146441,0.0221541,0.157054,5,0.1,26,2.3,3.16899,2.92902,0.602384,0.291496,0.0306021,0.0528389,0.58949,0.350192,0.19737,0.00932239,0.226237,5,0.1,27,2.3,0.406541,-3.6072,0.606177,0.77495,0.297126,-0.00589099,-0.299439,-0.14475,0.00450015,0.0120814,0.531321,5,0.1,28,2.3,-1.94814,-1.40065,0.585711,-0.854189,-0.220358,0.0125012,0.108495,0.0269562,-0.00358745,0.0119541,1.02148,5,0.1,29,2.3,3.59009,-1.34235,0.631225,-0.0547908,0.866025,0.0196825,-0.0461638,1.49012e-05,0.0672303,0.0484054,2.27125,5,0.1,30,2.3,3.70504,-2.5176,0.500012,-0.0671349,0.866026,-3.46452e-05,-0.0304282,0,2.23517e-05,0.0331382,2.26868,5,0.1,31,2.3,-1.30304,-1.97109,0.639264,0.248268,-0.523024,0.0424644,-0.204682,-0.224173,-0.0367686,0.0117952,0.413669,5,0.1,32,2.3,2.61163,3.06283,0.632384,0.11346,0.102602,-0.0185802,-0.0167191,-0.120029,0.015717,0.0180931,0.242909,5,0.1,33,2.3,-3.90721,3.62107,0.652487,-0.265894,0.467192,-0.0244259,0.212073,-0.315577,0.0093095,0.0114581,0.136761,5,0.1,34,2.3,-3.22927,-2.46859,0.589249,0.0594802,0.594631,0.00857627,0.0543892,-0.900909,-0.00127032,0.0351632,0.602429,5,0.1,35,2.3,3.34799,2.47911,0.511212,-0.128322,0.310076,0.0111033,0.208631,-0.837401,-0.160586,0.0108273,0.77407,5,0.1,36,2.3,4.01382,-1.25201,0.682899,-0.196034,0.866025,0.0947205,0.00664592,1.49012e-05,0.0407621,0.0471064,2.24104,5,0.1,37,2.3,1.404,-2.37206,0.574946,-0.375389,0.653157,0.0133908,0.711225,-0.853792,-0.0100993,0.0158554,1.26962,5,0.1,38,2.3,-1.6924,-1.92058,0.762033,-0.0185193,0.531062,0.037509,0.0215992,0.317879,-0.151433,0.0137647,1.31655,5,0.1,39,2.3,-3.45733,-2.27352,0.588553,0.306084,0.586334,0.0113974,-0.279516,-0.427842,-0.0104047,0.0128647,0.206778,5,0.1
0,2.4,1.38746,-1.92452,0.590864,-0.278676,0.149927,0.0109985,0.373423,-0.0966787,-0.00706315,0.0155055,0.327483,5,0.1,1,2.4,1.25121,-3.3,0.628328,0.0833154,0.0360429,0.0988171,-0.115335,0.283837,-0.15372,0.0134723,0.677218,5,0.1,2,2.4,-3.26108,-0.671114,0.624655,0.589234,0.406173,-0.000204146,0.0725985,-0.686437,0.0115931,0.0149092,1.64182,5,0.1,3,2.4,-0.24747,-3.3,0.606117,-0.0726145,0.0801206,-0.00846684,0.130214,0.961065,0.0151694,0.0215026,3.14921,5,0.1,4,2.4,-3.20047,-0.120717,0.500001,-0.00448823,-0.30021,-4.47035e-06,-0.00452995,-0.115871,0,0.0113749,0.299976,5,0.1,5,2.4,0.0209522,2.08944,0.585437,-0.55675,-0.723428,-0.0113919,0.0880039,-0.316024,-0.04071,0.0105105,0.545864,5,0.1,6,2.4,-1.92159,-3.20173,0.693841,-0.0309914,0.0220299,0.0502035,0.776887,-0.202775,0.0242889,0.0107172,0.262233,5,0.1,7,2.4,3.01917,3.1689,0.606757,-0.301731,-0.0621438,0.0362813,0.835538,0.926018,0.122041,0.0150887,0.404255,5,0.1,8,2.4,-0.307011,1.00653,0.647126,-0.00416487,0.315586,-0.0282511,0.0886172,-0.000178814,0.0270903,0.0096712,3.18169,5,0.1,9,2.4,0.534152,-0.215874,0.767678,-0.361337,0.106372,0.0738844,-0.455886,-0.460766,-0.173271,0.0229289,0.390678,5,0.1,10,2.4,2.93877,2.90006,0.510823,0.145471,0.00109673,-0.050351,0.370026,0.0143051,0.12958,0.0128616,0.317477,5,0.1,11,2.4,-0.363779,1.31316,0.609594,0.0809327,0.42893,-0.0333682,-0.842899,-0.023365,-0.0492036,0.015026,0.173315,5,0.1,12,2.4,1.00144,-0.437073,0.640981,0.131613,0.336393,0.113811,-0.0904202,-0.133902,-0.168443,0.016802,0.177913,5,0.1,13,2.4,3.44047,1.15546,0.719494,-0.0943959,0.866026,0.176661,0.0245571,-5.96046e-05,-0.179797,0.0454678,1.8749,5,0.1,14,2.4,3.53807,0.108291,0.763465,-0.114143,0.866025,0.0468507,-0.0361204,0,-0.116616,0.0157762,2.26503,5,0.1,15,2.4,-2.95207,3.59929,0.530798,0.601041,0.117528,0.0637919,0.137091,-0.199437,0.152886,0.0148633,0.388508,5,0.1,16,2.4,1.24057,1.23538,0.596531,-0.173345,0.214368,-0.00460148,0.447571,0.253618,-0.066936,0.0166728,1.52059,5,0.1,17,2.4,-2.80475,-0.47515,0.5711,0.515252,-0.149222,-0.0732362,0.368595,0.285879,0.14019,0.0280605,0.767588,5,0.1,18,2.4,-3.24708,-0.38128,0.919544,0.0600159,-0.220887,0.300622,0.767946,0.728488,-0.132203,0.0187957,2.09335,5,0.1,19,2.4,-2.24974,-3.51311,0.618144,-0.838459,0.214815,-0.0162691,0.291348,0.126362,0.0115037,0.0130437,0.497838,5,0.1,20,2.4,-0.542619,0.398736,0.584286,0.369209,-0.834204,-0.00865906,0.548035,-0.520035,0.0554323,0.0240318,2.22194,5,0.1,21,2.4,3.25196,2.70373,0.778529,0.0701129,-0.126648,0.231785,0.357985,-0.275373,0.162989,0.0113774,0.228601,5,0.1,22,2.4,-3.35194,0.110016,0.621909,0.090462,-0.207072,0.00528991,0.149369,0.139665,-0.017941,0.0183352,0.17131,5,0.1,23,2.4,1.40663,0.173743,0.726971,-0.185126,0.862828,0.0189662,-0.0152588,-0.0639486,-0.00995398,0.0312063,1.11665,5,0.1,24,2.4,-2.75873,-1.17489,0.564235,0.693762,-0.247782,-0.0120297,-0.134706,-0.287831,0.0454485,0.0183349,2.72888,5,0.1,25,2.4,-0.560567,4.08235,0.612535,-0.279188,-0.0327706,-0.0127137,-0.0536442,0.0369549,0.0143349,0.0126128,0.141182,5,0.1,26,2.4,3.20077,2.93358,0.608638,0.340629,0.0580847,0.0718266,0.376582,0.202417,0.173122,0.0120966,0.177672,5,0.1,27,2.4,0.482385,-3.57817,0.605611,0.73987,0.283712,-0.005427,-0.422492,-0.137687,0.00488758,0.0119961,0.368258,5,0.1,28,2.4,-2.03274,-1.42259,0.586944,-0.834465,-0.218397,0.0121415,0.30911,0.0258088,-0.00423193,0.0148728,0.74986,5,0.1,29,2.4,3.58439,-1.25575,0.633434,-0.0590265,0.866026,0.0236213,-0.0343323,-5.96046e-05,0.0146925,0.0392773,2.26967,5,0.1,30,2.4,3.69818,-2.43099,0.500008,-0.0698984,0.866026,-3.12924e-05,-0.0201464,0,5.96046e-05,0.0314152,2.26821,5,0.1,31,2.4,-1.27925,-2.02426,0.643326,0.22732,-0.537348,0.03874,-0.219345,-0.0431538,-0.0385642,0.0181433,0.288317,5,0.1,32,2.4,2.62302,3.07248,0.630606,0.115114,0.0903547,-0.0169486,0.0355244,-0.125408,0.0172257,0.0123724,0.205464,5,0.1,33,2.4,-3.93272,3.66616,0.650098,-0.244135,0.433785,-0.0232711,0.228763,-0.362754,0.0142455,0.00988563,0.155814,5,0.1,34,2.4,-3.22317,-2.41365,0.590098,0.061357,0.504142,0.00835657,-0.0135899,-0.906348,-0.00336766,0.0328254,0.341626,5,0.1,35,2.4,3.33605,2.50603,0.511553,-0.111556,0.22949,-0.00386685,0.13566,-0.766397,-0.135541,0.0153833,0.726694,5,0.1,36,2.4,3.99428,-1.16541,0.692537,-0.194329,0.866026,0.0975475,0.0361204,-5.96046e-05,0.0117123,0.0516234,2.24886,5,0.1,37,2.4,1.37014,-2.31114,0.576232,-0.30075,0.564116,0.0122994,0.765979,-0.921607,-0.0118613,0.0110997,1.18185,5,0.1,38,2.4,-1.69413,-1.86586,0.764986,-0.0160128,0.562486,0.0213206,0.0271797,0.267923,-0.16582,0.013342,1.07896,5,0.1,39,2.4,-3.42811,-2.21706,0.589641,0.278145,0.541997,0.0103578,-0.285983,-0.47195,-0.0106394,0.0198229,0.138574,5,0.1
