id,t,px,py,pz,vx,vy,vz,ax,ay,az,planning_time,qp_cost,planning_report,size,id,t,px,py,pz,vx,vy,vz,ax,ay,az,planning_time,qp_cost,planning_report,size,id,t,px,py,pz,vx,vy,vz,ax,ay,az,planning_time,qp_cost,planning_report,size,id,t,px,py,pz,vx,vy,vz,ax,ay,az,planning_time,qp_cost,planning_report,size,id,t,px,py,pz,vx,vy,vz,ax,ay,az,planning_time,qp_cost,planning_report,size,id,t,px,py,pz,vx,vy,vz,ax,ay,az,planning_time,qp_cost,planning_report,size,id,t,px,py,pz,vx,vy,vz,ax,ay,az,planning_time,qp_cost,planning_report,size,id,t,px,py,pz,vx,vy,vz,ax,ay,az,planning_time,qp_cost,planning_report,size,id,t,px,py,pz,vx,vy,vz,ax,ay,az,planning_time,qp_cost,planning_report,size,id,t,px,py,pz,vx,vy,vz,ax,ay,az,planning_time,qp_cost,planning_report,size,id,t,px,py,pz,vx,vy,vz,ax,ay,az,planning_time,qp_cost,planning_report,size,id,t,px,py,pz,vx,vy,vz,ax,ay,az,planning_time,qp_cost,planning_report,size,id,t,px,py,pz,vx,vy,vz,ax,ay,az,planning_time,qp_cost,planning_report,size,id,t,px,py,pz,vx,vy,vz,ax,ay,az,planning_time,qp_cost,planning_report,size,id,t,px,py,pz,vx,vy,vz,ax,ay,az,planning_time,qp_cost,planning_report,size,id,t,px,py,pz,vx,vy,vz,ax,ay,az,planning_time,qp_cost,planning_report,size,id,t,px,py,pz,vx,vy,vz,ax,ay,az,planning_time,qp_cost,planning_report,size,id,t,px,py,pz,vx,vy,vz,ax,ay,az,planning_time,qp_cost,planning_report,size,id,t,px,py,pz,vx,vy,vz,ax,ay,az,planning_time,qp_cost,planning_report,size,id,t,px,py,pz,vx,vy,vz,ax,ay,az,planning_time,qp_cost,planning_report,size,id,t,px,py,pz,vx,vy,vz,ax,ay,az,planning_time,qp_cost,planning_report,size,id,t,px,py,pz,vx,vy,vz,ax,ay,az,planning_time,qp_cost,planning_report,size,id,t,px,py,pz,vx,vy,vz,ax,ay,az,planning_time,qp_cost,planning_report,size,id,t,px,py,pz,vx,vy,vz,ax,ay,az,planning_time,qp_cost,planning_report,size,id,t,px,py,pz,vx,vy,vz,ax,ay,az,planning_time,qp_cost,planning_report,size,id,t,px,py,pz,vx,vy,vz,ax,ay,az,planning_time,qp_cost,planning_report,size,id,t,px,py,pz,vx,vy,vz,ax,ay,az,planning_time,qp_cost,planning_report,size,id,t,px,py,pz,vx,vy,vz,ax,ay,az,planning_time,qp_cost,planning_report,size,id,t,px,py,pz,vx,vy,vz,ax,ay,az,planning_time,qp_cost,planning_report,size,id,t,px,py,pz,vx,vy,vz,ax,ay,az,planning_time,qp_cost,planning_report,size,id,t,px,py,pz,vx,vy,vz,ax,ay,az,planning_time,qp_cost,planning_report,size,id,t,px,py,pz,vx,vy,vz,ax,ay,az,planning_time,qp_cost,planning_report,size,id,t,px,py,pz,vx,vy,vz,ax,ay,az,planning_time,qp_cost,planning_report,size,id,t,px,py,pz,vx,vy,vz,ax,ay,az,planning_time,qp_cost,planning_report,size,id,t,px,py,pz,vx,vy,vz,ax,ay,az,planning_time,qp_cost,planning_report,size,id,t,px,py,pz,vx,vy,vz,ax,ay,az,planning_time,qp_cost,planning_report,size,id,t,px,py,pz,vx,vy,vz,ax,ay,az,planning_time,qp_cost,planning_report,size,id,t,px,py,pz,vx,vy,vz,ax,ay,az,planning_time,qp_cost,planning_report,size,id,t,px,py,pz,vx,vy,vz,ax,ay,az,planning_time,qp_cost,planning_report,size,id,t,px,py,pz,vx,vy,vz,ax,ay,az,planning_time,qp_cost,planning_report,size
0,0,-0.826453,-3.08759,0.540451,0,0,0,0,0,0,0.0253009,3.5122,5,0.1,1,0,3.46993,-2.8843,0.56844,0,0,0,0,0,0,0.0188536,3.5122,5,0.1,2,0,1.95599,-3.89546,0.561333,0,0,0,0,0,0,0.0200353,3.51219,5,0.1,3,0,-3.97733,-2.05743,0.659819,0,0,0,0,0,0,0.0263942,0.987586,5,0.1,4,0,2.21894,-2.09583,0.644177,0,0,0,0,0,0,0.0129683,3.5122,5,0.1,5,0,0.545804,-0.547799,0.592888,0,0,0,0,0,0,0.0101798,0.429741,5,0.1,6,0,0.370248,-4.20171,0.596819,0,0,0,0,0,0,0.0111704,3.37996,5,0.1,7,0,-3.74057,-3.75307,0.545956,0,0,0,0,0,0,0.0126772,3.5122,5,0.1,8,0,-4.20811,-0.369656,0.578199,0,0,0,0,0,0,0.0129231,3.5122,5,0.1,9,0,-3.61825,2.90741,0.678628,0,0,0,0,0,0,0.0250193,3.5122,5,0.1,10,0,-2.91955,3.47282,0.521624,0,0,0,0,0,0,0.0117553,3.51219,5,0.1,11,0,-2.01191,3.70425,0.678405,0,0,0,0,0,0,0.011225,1.19503,5,0.1,12,0,4.25997,0.765332,0.673572,0,0,0,0,0,0,0.0155457,3.51219,5,0.1,13,0,-1.74001,-1.36603,0.673058,0,0,0,0,0,0,0.0372859,3.51219,5,0.1,14,0,-4.12542,-4.33394,0.606742,0,0,0,0,0,0,0.0182833,3.51219,5,0.1,15,0,3.5252,1.36309,0.595302,0,0,0,0,0,0,0.00937394,3.51219,5,0.1,16,0,1.40717,0.871936,0.666063,0,0,0,0,0,0,0.011151,0.923694,5,0.1,17,0,-1.49694,-0.0787754,0.588543,0,0,0,0,0,0,0.0138465,3.5122,5,0.1,18,0,-2.85036,-1.2916,0.576052,0,0,0,0,0,0,0.00966879,0.558654,5,0.1,19,0,3.53935,-2.03587,0.541029,0,0,0,0,0,0,0.0185952,3.51219,5,0.1,20,0,-1.18635,-1.6394,0.585377,0,0,0,0,0,0,0.0108616,3.5122,5,0.1,21,0,-1.60492,-3.66944,0.51151,0,0,0,0,0,0,0.00920491,3.23295,5,0.1,22,0,3.97806,-1.36752,0.593144,0,0,0,0,0,0,0.0186595,3.51219,5,0.1,23,0,-3.07552,-0.411918,0.648389,0,0,0,0,0,0,0.010023,3.5122,5,0.1,24,0,1.37432,-0.764759,0.672822,0,0,0,0,0,0,0.0160046,3.51219,5,0.1,25,0,-4.38426,-1.39448,0.500377,0,0,0,0,0,0,0.0135896,3.51231,5,0.1,26,0,1.90651,-0.471982,0.624093,0,0,0,0,0,0,0.0106497,2.14394,5,0.1,27,0,3.90587,0.0730524,0.5613,0,0,0,0,0,0,0.0116014,3.51219,5,0.1,28,0,3.50227,2.90329,0.569232,0,0,0,0,0,0,0.0176813,0.805269,5,0.1,29,0,-3.75837,4.03049,0.540347,0,0,0,0,0,0,0.01503,3.5122,5,0.1,30,0,0.944403,-4.01426,0.529729,0,0,0,0,0,0,0.00978555,1.81198,5,0.1,31,0,4.19344,-3.26597,0.523198,0,0,0,0,0,0,0.0218848,3.51219,5,0.1,32,0,-3.74823,0.726524,0.665945,0,0,0,0,0,0,0.0158855,0.659374,5,0.1,33,0,0.138449,3.26996,0.655846,0,0,0,0,0,0,0.0116511,3.0575,5,0.1,34,0,-2.05768,-0.472784,0.6099,0,0,0,0,0,0,0.01119,0.416093,5,0.1,35,0,-1.23119,2.85983,0.611806,0,0,0,0,0,0,0.0123725,1.31414,5,0.1,36,0,-4.2739,4.32012,0.695834,0,0,0,0,0,0,0.0173172,3.52593,5,0.1,37,0,0.790891,3.87849,0.597989,0,0,0,0,0,0,0.0247601,2.87933,5,0.1,38,0,3.93764,-4.28684,0.651424,0,0,0,0,0,0,0.0200333,3.5122,5,0.1,39,0,-3.69486,1.47305,0.662224,0,0,0,0,0,0,0.0109165,3.18351,5,0.1
0,0.1,-0.826102,-3.08554,0.540491,0.00995984,0.0584148,0.00112662,0.177067,1.03849,0.0200309,0.0253009,3.5122,5,0.1,1,0.1,3.46993,-2.88221,0.568453,-0.00022389,0.0592671,0.000354089,-0.00397861,1.05363,0.00628829,0.0188536,3.5122,5,0.1,2,0.1,1.95533,-3.89348,0.561354,-0.018847,0.0561889,0.000604335,-0.335053,0.998899,0.01074,0.0200353,3.51219,5,0.1,3,0.1,-3.97631,-2.05701,0.659757,0.0289615,0.0120744,-0.00177268,0.51488,0.214666,-0.031516,0.0263942,0.987586,5,0.1,4,0.1,2.21839,-2.09382,0.644153,-0.0155557,0.0571866,-0.00067465,-0.276551,1.01663,-0.011988,0.0129683,3.5122,5,0.1,5,0.1,0.546487,-0.54754,0.592895,0.0193866,0.0073432,0.000210758,0.344649,0.130545,0.00375137,0.0101798,0.429741,5,0.1,6,0.1,0.368202,-4.20179,0.596782,-0.0580888,-0.00224188,-0.00106487,-1.03269,-0.0398457,-0.0189319,0.0111704,3.37996,5,0.1,7,0.1,-3.74014,-3.75102,0.546009,0.0121493,0.0579912,0.0014903,0.215963,1.03094,0.0264943,0.0126772,3.5122,5,0.1,8,0.1,-4.20704,-0.367864,0.578218,0.0304252,0.0508609,0.000548922,0.540853,0.904191,0.00976026,0.0129231,3.5122,5,0.1,9,0.1,-3.61632,2.90822,0.678678,0.0546213,0.0229593,0.00143405,0.971064,0.408188,0.0254959,0.0250193,3.5122,5,0.1,10,0.1,-2.91764,3.47366,0.521799,0.0540446,0.0238176,0.00495985,0.960782,0.423416,0.0881702,0.0117553,3.51219,5,0.1,11,0.1,-2.01074,3.70461,0.67848,0.0329506,0.0102457,0.00212155,0.58578,0.182137,0.0377148,0.011225,1.19503,5,0.1,12,0.1,4.25904,0.767201,0.67351,-0.0263534,0.053058,-0.0017467,-0.468463,0.943251,-0.0310503,0.0155457,3.51219,5,0.1,13,0.1,-1.73903,-1.36419,0.673009,0.0277549,0.0523489,-0.00140807,0.493422,0.930652,-0.0250302,0.0372859,3.51219,5,0.1,14,0.1,-4.12356,-4.333,0.606739,0.0528924,0.0267394,-9.31323e-05,0.940293,0.475377,-0.00166148,0.0182833,3.51219,5,0.1,15,0.1,3.52469,1.36511,0.595307,-0.0144646,0.0574758,0.000129268,-0.257164,1.0218,0.00230223,0.00937394,3.51219,5,0.1,16,0.1,1.40711,0.870869,0.665994,-0.00169426,-0.0302842,-0.00195783,-0.0301152,-0.538386,-0.0348091,0.011151,0.923694,5,0.1,17,0.1,-1.4956,-0.0771815,0.588551,0.0382781,0.0452486,0.000209268,0.680506,0.80442,0.00371411,0.0138465,3.5122,5,0.1,18,0.1,-2.85083,-1.29228,0.576077,-0.013325,-0.0195114,0.000709761,-0.236884,-0.346877,0.0126176,0.00966879,0.558654,5,0.1,19,0.1,3.5393,-2.03378,0.541057,-0.00119321,0.0592519,0.00078762,-0.0212044,1.05335,0.0140034,0.0185952,3.51219,5,0.1,20,0.1,-1.18456,-1.63832,0.585358,0.0507725,0.030572,-0.000523869,0.902615,0.543505,-0.00931695,0.0108616,3.5122,5,0.1,21,0.1,-1.60685,-3.6689,0.511602,-0.0546776,0.0153936,0.00262232,-0.972047,0.273645,0.046622,0.00920491,3.23295,5,0.1,22,0.1,3.97774,-1.36545,0.593147,-0.00909306,0.0585662,9.21078e-05,-0.161633,1.04118,0.0016354,0.0186595,3.51219,5,0.1,23,0.1,-3.07345,-0.411687,0.648291,0.0588395,0.00655609,-0.00276053,1.04603,0.116555,-0.0490732,0.010023,3.5122,5,0.1,24,0.1,1.37264,-0.766,0.672781,-0.0476543,-0.0352207,-0.00114758,-0.847176,-0.626143,-0.0203997,0.0160046,3.51219,5,0.1,25,0.1,-4.3834,-1.39258,0.500374,0.0243068,0.0540463,-9.17353e-05,0.432134,0.960819,-0.00162795,0.0135896,3.51231,5,0.1,26,0.1,1.90622,-0.473586,0.624103,-0.00838041,-0.0455408,0.000271015,-0.148997,-0.809612,0.00481308,0.0106497,2.14394,5,0.1,27,0.1,3.90627,0.0750964,0.56142,0.0115849,0.0580241,0.00342513,0.205934,1.03154,0.0608899,0.0116014,3.51219,5,0.1,28,0.1,3.50127,2.90339,0.569264,-0.0282202,0.00286549,0.000911765,-0.501677,0.0509322,0.016205,0.0176813,0.805269,5,0.1,29,0.1,-3.75628,4.03051,0.540388,0.0592556,0.00038445,0.00117514,1.05344,0.00679493,0.0208914,0.01503,3.5122,5,0.1,30,0.1,0.943104,-4.01351,0.529802,-0.0368768,0.0211664,0.00208244,-0.655591,0.376314,0.0370219,0.00978555,1.81198,5,0.1,31,0.1,4.19315,-3.2639,0.523174,-0.008367,0.0586711,-0.000685453,-0.148714,1.04302,-0.0121817,0.0218848,3.51219,5,0.1,32,0.1,-3.74761,0.727175,0.665876,0.0177279,0.0184761,-0.00195419,0.31516,0.328466,-0.0347458,0.0158855,0.659374,5,0.1,33,0.1,0.137835,3.26811,0.655787,-0.0174382,-0.0524513,-0.00165496,-0.310012,-0.932455,-0.0294223,0.0116511,3.0575,5,0.1,34,0.1,-2.05725,-0.47229,0.610203,0.0120811,0.0140105,0.00859667,0.214785,0.249077,0.152834,0.01119,0.416093,5,0.1,35,0.1,-1.231,2.85857,0.611794,0.00536963,-0.0358526,-0.000349805,0.0954568,-0.637367,-0.00622123,0.0123725,1.31414,5,0.1,36,0.1,-4.27255,4.31901,0.695893,0.0381619,-0.0314735,0.00167722,0.67842,-0.559539,0.0298209,0.0173172,3.52593,5,0.1,37,0.1,0.790535,3.87663,0.597991,-0.0101021,-0.0527047,5.96046e-05,-0.179589,-0.936955,0.00105798,0.0247601,2.87933,5,0.1,38,0.1,3.93749,-4.28476,0.651408,-0.00431053,0.0591107,-0.000454672,-0.0766367,1.05086,-0.00808388,0.0200333,3.5122,5,0.1,39,0.1,-3.69288,1.47324,0.662159,0.0561528,0.00524372,-0.00184393,0.998259,0.0932217,-0.0327863,0.0109165,3.18351,5,0.1
0,0.2,-0.824079,-3.07367,0.54072,0.0314787,0.184619,0.00356138,0.236094,1.38462,0.0266731,0.0257275,2.9258,5,0.1,1,0.2,3.46988,-2.87017,0.568524,-0.000703335,0.187314,0.00111908,-0.00536442,1.40476,0.00837445,0.0169635,2.9258,5,0.1,2,0.2,1.9515,-3.88207,0.561477,-0.0595659,0.177586,0.00191033,-0.446737,1.33181,0.0143051,0.0247897,2.9258,5,0.1,3,0.2,-3.97043,-2.05456,0.659397,0.0915349,0.0381589,-0.00560284,0.686526,0.286222,-0.0419915,0.0213968,0.810264,5,0.1,4,0.2,2.21523,-2.0822,0.644016,-0.0491619,0.180739,-0.00213087,-0.368714,1.35541,-0.0160038,0.0123981,2.92581,5,0.1,5,0.2,0.550425,-0.546048,0.592938,0.0612706,0.0232086,0.000666082,0.459552,0.174075,0.00500679,0.00865304,0.430271,5,0.1,6,0.2,0.356402,-4.20224,0.596565,-0.18359,-0.00708103,-0.00336468,-1.37691,-0.0531673,-0.0252724,0.00835501,2.77309,5,0.1,7,0.2,-3.73767,-3.73924,0.546311,0.0383973,0.183278,0.00471026,0.28789,1.3746,0.0353158,0.0109904,2.9258,5,0.1,8,0.2,-4.20086,-0.357533,0.57833,0.0961542,0.160746,0.00173599,0.720978,1.20559,0.0129938,0.0121024,2.9258,5,0.1,9,0.2,-3.60523,2.91288,0.67897,0.172633,0.0725627,0.00453293,1.29461,0.54419,0.0340044,0.0201139,2.92581,5,0.1,10,0.2,-2.90667,3.4785,0.522806,0.170809,0.0752747,0.015676,1.28102,0.564575,0.11754,0.0114276,2.9258,5,0.1,11,0.2,-2.00405,3.70669,0.678911,0.104141,0.0323832,0.00670552,0.781,0.242829,0.0503063,0.00992938,0.980461,5,0.1,12,0.2,4.25368,0.777979,0.673156,-0.0832915,0.16769,-0.00552088,-0.624895,1.25763,-0.0414252,0.0167932,2.92579,5,0.1,13,0.2,-1.73339,-1.35355,0.672723,0.0877172,0.165448,-0.00445098,0.657916,1.24091,-0.0333488,0.0417553,2.92579,5,0.1,14,0.2,-4.11281,-4.32757,0.60672,0.167179,0.0845194,-0.000293553,1.25337,0.633717,-0.00223517,0.013315,2.92583,5,0.1,15,0.2,3.52175,1.37679,0.595333,-0.0457108,0.181651,0.000409782,-0.342965,1.36244,0.00303984,0.00956832,2.92579,5,0.1,16,0.2,1.40676,0.864717,0.665597,-0.00535548,-0.0957131,-0.00618696,-0.0401139,-0.717849,-0.046432,0.011862,0.757845,5,0.1,17,0.2,-1.48782,-0.0679902,0.588593,0.12098,0.143008,0.000661612,0.907362,1.07256,0.00494719,0.0123557,2.92579,5,0.1,18,0.2,-2.85354,-1.29625,0.576221,-0.0421107,-0.061664,0.00224262,-0.315905,-0.462532,0.0168383,0.00893276,0.458345,5,0.1,19,0.2,3.53906,-2.02174,0.541217,-0.00377297,0.18726,0.00248998,-0.0282526,1.40452,0.0186563,0.0176712,2.92579,5,0.1,20,0.2,-1.17425,-1.63211,0.585252,0.160465,0.0966221,-0.00165552,1.20348,0.724673,-0.0123978,0.0127609,2.92579,5,0.1,21,0.2,-1.61795,-3.66578,0.512135,-0.172809,0.0486493,0.00828803,-1.29604,0.3649,0.0621676,0.0200552,2.65248,5,0.1,22,0.2,3.9759,-1.35356,0.593166,-0.0287354,0.185099,0.000290573,-0.21565,1.38825,0.00217557,0.0145239,2.92579,5,0.1,23,0.2,-3.0615,-0.410355,0.647731,0.185961,0.0207208,-0.00872612,1.39475,0.155404,-0.0654161,0.0101508,2.92579,5,0.1,24,0.2,1.36296,-0.773154,0.672548,-0.150612,-0.111315,-0.00362545,-1.12957,-0.834852,-0.0272393,0.0145075,2.92579,5,0.1,25,0.2,-4.37847,-1.3816,0.500355,0.0768185,0.170812,-0.000289083,0.576019,1.28108,-0.00217557,0.0113289,3.11178,5,0.1,26,0.2,1.90451,-0.482837,0.624158,-0.0264853,-0.143932,0.000856817,-0.198722,-1.07947,0.0063777,0.0119846,1.759,5,0.1,27,0.2,3.90863,0.0868827,0.562116,0.0366151,0.183385,0.0108257,0.274539,1.37539,0.0811815,0.00912553,2.92579,5,0.1,28,0.2,3.49554,2.90398,0.569449,-0.0891864,0.00905991,0.00288188,-0.669003,0.0678301,0.0216067,0.0215504,0.660679,5,0.1,29,0.2,-3.74425,4.03058,0.540627,0.187278,0.00121593,0.00371337,1.40452,0.00905991,0.0278354,0.0113261,2.9258,5,0.1,30,0.2,0.935613,-4.00921,0.530225,-0.116549,0.0669003,0.00658184,-0.874102,0.501633,0.0493526,0.00868748,1.48664,5,0.1,31,0.2,4.19145,-3.25199,0.523035,-0.0264406,0.18543,-0.00216514,-0.198126,1.3907,-0.0162721,0.0240029,2.9258,5,0.1,32,0.2,-3.74401,0.730928,0.665479,0.0560343,0.0583932,-0.00617653,0.420094,0.437975,-0.0463128,0.0193016,0.540986,5,0.1,33,0.2,0.134293,3.25746,0.655451,-0.0551134,-0.165772,-0.00523031,-0.413343,-1.24323,-0.0392199,0.00817232,2.50853,5,0.1,34,0.2,-2.0548,-0.469444,0.611949,0.0381827,0.0442803,0.0271708,0.286341,0.332102,0.203758,0.0109844,0.340089,5,0.1,35,0.2,-1.22991,2.85129,0.611723,0.0169694,-0.113308,-0.00110567,0.127316,-0.849843,-0.00831485,0.014988,1.07819,5,0.1,36,0.2,-4.2648,4.31262,0.696234,0.120616,-0.0994682,0.00530183,0.90456,-0.74625,0.0397265,0.0149592,3.00166,5,0.1,37,0.2,0.788483,3.86593,0.598003,-0.0319272,-0.166571,0.000189245,-0.239462,-1.24919,0.00137091,0.0308531,2.36235,5,0.1,38,0.2,3.93661,-4.27275,0.651315,-0.0136256,0.186813,-0.00143647,-0.102162,1.40119,-0.0107884,0.0284098,2.92579,5,0.1,39,0.2,-3.68147,1.4743,0.661784,0.177473,0.0165731,-0.00582784,1.33085,0.124276,-0.0436902,0.0109875,2.61192,5,0.1
0,0.3,-0.819618,-3.04751,0.541224,0.0586316,0.343863,0.00662999,0.290148,1.70168,0.0328012,0.0257275,2.9258,5,0.1,1,0.3,3.46978,-2.84363,0.568683,-0.00131838,0.348878,0.00208272,-0.00657141,1.72646,0.0103004,0.0169635,2.9258,5,0.1,2,0.3,1.94306,-3.85691,0.561747,-0.110945,0.330758,0.00355616,-0.549026,1.6368,0.0175908,0.0247897,2.9258,5,0.1,3,0.3,-3.95746,-2.04915,0.658603,0.170287,0.070991,-0.0104208,0.840068,0.350252,-0.0514053,0.0213968,0.810264,5,0.1,4,0.3,2.20826,-2.05659,0.643714,-0.0915676,0.336628,-0.00397079,-0.453144,1.66585,-0.0196621,0.0123981,2.92581,5,0.1,5,0.3,0.559103,-0.542605,0.593032,0.113986,0.0476216,0.00124015,0.562329,0.292029,0.00611693,0.00865304,0.430271,5,0.1,6,0.3,0.3304,-4.20325,0.596089,-0.341537,-0.0131793,-0.00626249,-1.6849,-0.0650585,-0.0309013,0.00835501,2.77309,5,0.1,7,0.3,-3.73223,-3.71327,0.546979,0.0715103,0.34137,0.00877213,0.353858,1.68934,0.0434071,0.0109904,2.9258,5,0.1,8,0.3,-4.18723,-0.334754,0.578576,0.179081,0.2994,0.00323104,0.886172,1.48164,0.0159778,0.0121024,2.9258,5,0.1,9,0.3,-3.58076,2.92316,0.679612,0.321529,0.135152,0.00844356,1.59113,0.668809,0.0417829,0.0201139,2.92581,5,0.1,10,0.3,-2.88246,3.48917,0.525027,0.318139,0.140206,0.0291951,1.57435,0.693843,0.144467,0.0114276,2.9258,5,0.1,11,0.3,-1.9893,3.71128,0.679861,0.193732,0.0602394,0.0124756,0.955716,0.297159,0.0615492,0.00992938,0.980461,5,0.1,12,0.3,4.24188,0.801742,0.672373,-0.155153,0.31233,-0.0102844,-0.767857,1.54562,-0.0509024,0.0167932,2.92579,5,0.1,13,0.3,-1.72096,-1.33011,0.672092,0.163383,0.308162,-0.00828747,0.808552,1.52502,-0.0410005,0.0417553,2.92579,5,0.1,14,0.3,-4.08913,-4.31559,0.606678,0.311341,0.157407,-0.000549853,1.54057,0.778913,-0.00273436,0.013315,2.92583,5,0.1,15,0.3,3.51527,1.40253,0.595391,-0.0851516,0.338343,0.000760332,-0.42145,1.67438,0.00375509,0.00956832,2.92579,5,0.1,16,0.3,1.406,0.851162,0.66472,-0.00995826,-0.178058,-0.0115123,-0.0491068,-0.878412,-0.0568032,0.011862,0.757845,5,0.1,17,0.3,-1.47068,-0.0477247,0.588687,0.225333,0.266362,0.00123084,1.11511,1.31815,0.00608712,0.0123557,2.92579,5,0.1,18,0.3,-2.8595,-1.30498,0.576539,-0.0783466,-0.11472,0.00417344,-0.386536,-0.565968,0.0205934,0.00893276,0.458345,5,0.1,19,0.3,3.53853,-1.99521,0.54157,-0.00702403,0.348791,0.00463622,-0.0347346,1.72608,0.0229366,0.0176712,2.92579,5,0.1,20,0.3,-1.15151,-1.61842,0.585017,0.298876,0.179966,-0.00308221,1.47905,0.890598,-0.0152476,0.0127609,2.92579,5,0.1,21,0.3,-1.64243,-3.65888,0.513309,-0.32148,0.0905059,0.0154192,-1.58595,0.446498,0.0760704,0.0200552,2.65248,5,0.1,22,0.3,3.97182,-1.32733,0.593207,-0.053532,0.344761,0.000541005,-0.264958,1.70612,0.00267848,0.0145239,2.92579,5,0.1,23,0.3,-3.03515,-0.407419,0.646494,0.346369,0.0385938,-0.0162505,1.7141,0.19099,-0.0804067,0.0101508,2.92579,5,0.1,24,0.3,1.34161,-0.788928,0.672034,-0.280523,-0.207331,-0.00675675,-1.38821,-1.02602,-0.0334457,0.0145075,2.92579,5,0.1,25,0.3,-4.36653,-1.35844,0.500317,0.172777,0.288483,-0.000464544,1.23611,1.04704,-0.0013411,0.0113289,3.11178,5,0.1,26,0.3,1.90076,-0.503222,0.624279,-0.0492783,-0.267759,0.00158977,-0.243135,-1.32093,0.00783056,0.0119846,1.759,5,0.1,27,0.3,3.91381,0.11287,0.56365,0.0681911,0.341567,0.0201627,0.337437,1.69032,0.0997745,0.00912553,2.92579,5,0.1,28,0.3,3.48291,2.90526,0.569857,-0.165925,0.0168446,0.00536051,-0.81858,0.083074,0.0264421,0.0215504,0.660679,5,0.1,29,0.3,-3.71771,4.03076,0.541153,0.348812,0.00226051,0.00691535,1.72615,0.0111461,0.0342168,0.0113261,2.9258,5,0.1,30,0.3,0.919107,-3.99974,0.531157,-0.216819,0.124447,0.0122434,-1.06963,0.613883,0.0603944,0.00868748,1.48664,5,0.1,31,0.3,4.1877,-3.22571,0.522728,-0.0492327,0.345373,-0.00403551,-0.243574,1.70913,-0.0199787,0.0240029,2.9258,5,0.1,32,0.3,-3.73607,0.739199,0.664605,0.104228,0.108633,-0.0114895,0.514135,0.535928,-0.0566766,0.0193016,0.540986,5,0.1,33,0.3,0.126487,3.23398,0.65471,-0.102529,-0.308387,-0.00972962,-0.505803,-1.52136,-0.0480004,0.00817232,2.50853,5,0.1,34,0.3,-2.0491,-0.463109,0.61545,0.0793904,0.0841705,0.0406924,0.498742,0.438061,0.0742264,0.0109844,0.340089,5,0.1,35,0.3,-1.22751,2.83524,0.611566,0.0315726,-0.210795,-0.0020586,0.155762,-1.03992,-0.0101626,0.014988,1.07819,5,0.1,36,0.3,-4.2474,4.29835,0.696962,0.233305,-0.190143,0.00921581,1.26556,-1.0033,0.0371784,0.0149592,3.00166,5,0.1,37,0.3,0.783961,3.84234,0.59803,-0.0593957,-0.309871,0.000348035,-0.29302,-1.52868,0.00170991,0.0308531,2.36235,5,0.1,38,0.3,3.93468,-4.24627,0.651112,-0.0253756,0.347959,-0.0026769,-0.125572,1.72201,-0.0132509,0.0284098,2.92579,5,0.1,39,0.3,-3.65634,1.47665,0.660959,0.330142,0.0308296,-0.0108402,1.62865,0.152089,-0.0534728,0.0109875,2.61192,5,0.1
0,0.4,-0.812329,-3.00476,0.542048,0.0865877,0.507814,0.00979006,0.256509,1.50466,0.0290275,0.0253877,2.51293,5,0.1,1,0.4,3.46962,-2.80026,0.568942,-0.00194907,0.515217,0.0030756,-0.00572205,1.52659,0.00911951,0.0189313,2.51567,5,0.1,2,0.4,1.92926,-3.81578,0.562189,-0.163844,0.48846,0.00525117,-0.48542,1.44732,0.0155866,0.0248677,2.51105,5,0.1,3,0.4,-3.93631,-2.04033,0.657309,0.251138,0.104696,-0.0153676,0.741005,0.30899,-0.0453591,0.0227081,0.64109,5,0.1,4,0.4,2.19688,-2.01474,0.64322,-0.135231,0.49713,-0.00586361,-0.400543,1.47295,-0.0174046,0.0117498,2.51061,5,0.1,5,0.4,0.573263,-0.536338,0.593186,0.168103,0.0777245,0.00182837,0.496119,0.293285,0.00542402,0.00896678,0.342492,5,0.1,6,0.4,0.287971,-4.20489,0.595311,-0.50369,-0.0194311,-0.00923574,-1.48649,-0.0576973,-0.0272691,0.00802804,2.19435,5,0.1,7,0.4,-3.72334,-3.67083,0.548069,0.105602,0.504136,0.0129551,0.313044,1.49369,0.0383854,0.0106161,2.5119,5,0.1,8,0.4,-4.16497,-0.297532,0.578978,0.264454,0.442152,0.00477135,0.78392,1.31002,0.0141263,0.0120196,2.51009,5,0.1,9,0.4,-3.54079,2.93997,0.680662,0.474834,0.199592,0.0124693,1.40679,0.591397,0.0369251,0.0195928,2.5101,5,0.1,10,0.4,-2.84291,3.5066,0.528657,0.469828,0.207055,0.043115,1.39201,0.613451,0.127763,0.011034,2.34723,5,0.1,11,0.4,-1.96524,3.71876,0.681411,0.285712,0.0888407,0.0183985,0.843108,0.262141,0.0542998,0.0101618,0.775754,5,0.1,12,0.4,4.22259,0.840572,0.671094,-0.229132,0.461249,-0.0151873,-0.678778,1.36659,-0.0450313,0.0146517,2.51007,5,0.1,13,0.4,-1.70065,-1.2918,0.671062,0.241286,0.455093,-0.0122383,0.714839,1.34838,-0.0362694,0.0395122,2.51007,5,0.1,14,0.4,-4.05042,-4.29602,0.606609,0.45979,0.232446,-0.000812113,1.36209,0.688791,-0.00241399,0.0157306,2.51013,5,0.1,15,0.4,3.50468,1.4446,0.595486,-0.125754,0.499666,0.00112206,-0.372529,1.4804,0.00333786,0.0100158,2.84478,5,0.1,16,0.4,1.40477,0.829042,0.66329,-0.0146866,-0.262596,-0.0169784,-0.043273,-0.77495,-0.0500977,0.0116112,0.599615,5,0.1,17,0.4,-1.44266,-0.0146096,0.58884,0.332773,0.393363,0.00181794,0.98592,1.16548,0.00536442,0.0143014,2.51008,5,0.1,18,0.4,-2.86923,-1.31923,0.577057,-0.115544,-0.169188,0.00615567,-0.341058,-0.499249,0.0181496,0.00921894,0.362646,5,0.1,19,0.4,3.53765,-1.95184,0.542146,-0.0103712,0.515097,0.00684708,-0.030756,1.52612,0.0202656,0.0188886,2.5156,5,0.1,20,0.4,-1.11435,-1.59604,0.584634,0.441378,0.265774,-0.00455081,1.30779,0.787497,-0.0135005,0.0113031,2.51008,5,0.1,21,0.4,-1.68236,-3.64764,0.515224,-0.47411,0.133479,0.0227392,-1.39916,0.393867,0.0671148,0.00950281,2.09867,5,0.1,22,0.4,3.96517,-1.28446,0.593274,-0.0790596,0.509143,0.000798702,-0.234127,1.50847,0.00235438,0.0149484,2.51335,5,0.1,23,0.4,-2.99208,-0.402621,0.644474,0.511515,0.0569947,-0.0239983,1.51563,0.168875,-0.0710785,0.0101124,2.51418,5,0.1,24,0.4,1.30674,-0.814704,0.671194,-0.414276,-0.306186,-0.00997931,-1.22738,-0.907153,-0.0295639,0.0160954,2.51008,5,0.1,25,0.4,-4.34271,-1.32491,0.500265,0.305176,0.376084,-0.000560284,1.33014,0.688851,-0.000566244,0.0127554,2.63125,5,0.1,26,0.4,1.89464,-0.536485,0.624477,-0.0726759,-0.394884,0.00234395,-0.214517,-1.16539,0.00694394,0.0106612,1.39174,5,0.1,27,0.4,3.92229,0.155335,0.566157,0.100702,0.504425,0.029777,0.298381,1.49453,0.0881851,0.0107953,2.51198,5,0.1,28,0.4,3.4623,2.90735,0.570523,-0.244701,0.0248373,0.00790507,-0.72217,0.0734329,0.0233352,0.0180948,0.523433,5,0.1,29,0.4,-3.67434,4.03104,0.542013,0.515121,0.00333786,0.0102133,1.52636,0.00977516,0.0302494,0.0157688,2.51562,5,0.1,30,0.4,0.892171,-3.98428,0.532678,-0.319758,0.183523,0.0180572,-0.943691,0.541806,0.0532568,0.0139176,1.17625,5,0.1,31,0.4,4.18158,-3.18277,0.522226,-0.0727057,0.510043,-0.00596195,-0.21553,1.51134,-0.0176132,0.0272566,2.51366,5,0.1,32,0.4,-3.72312,0.752694,0.663177,0.153708,0.16021,-0.0169441,0.453711,0.472784,-0.0500083,0.0179923,0.428036,5,0.1,33,0.4,0.11375,3.19567,0.653502,-0.151207,-0.454801,-0.0143483,-0.446238,-1.34218,-0.0423789,0.0135379,1.98478,5,0.1,34,0.4,-2.03858,-0.452514,0.619728,0.131065,0.127078,0.0434145,0.505447,0.39956,-0.0132918,0.00955821,0.231004,5,0.1,35,0.4,-1.22359,2.80905,0.611311,0.0465631,-0.310874,-0.00303537,0.137389,-0.917554,-0.0090003,0.0144108,0.853072,5,0.1,36,0.4,-4.21772,4.27433,0.698056,0.359106,-0.288975,0.0125051,1.18828,-0.926018,0.0276268,0.0161844,2.57265,5,0.1,37,0.4,0.776582,3.80384,0.598073,-0.087595,-0.456989,0.00051111,-0.258535,-1.34861,0.00154972,0.0247907,1.86913,5,0.1,38,0.4,3.93152,-4.20302,0.650779,-0.0374734,0.513864,-0.00395328,-0.110984,1.52278,-0.0117123,0.0222775,2.51508,5,0.1,39,0.4,-3.61532,1.48048,0.659612,0.486881,0.0454664,-0.015986,1.43695,0.13417,-0.0472069,0.00887452,2.07481,5,0.1
0,0.5,-0.802351,-2.94641,0.543177,0.112984,0.657738,0.0127768,0.257846,1.42339,0.0291765,0.0253877,2.51293,5,0.1,1,0.5,3.46939,-2.74113,0.569296,-0.00253916,0.665438,0.00401409,-0.00575185,1.40986,0.00916794,0.0189313,2.51567,5,0.1,2,0.5,1.91031,-3.75952,0.562794,-0.215909,0.636639,0.00684643,-0.525475,1.44136,0.0155158,0.0248677,2.51105,5,0.1,3,0.5,-3.90742,-2.02829,0.655541,0.326324,0.136045,-0.0199699,0.725806,0.302628,-0.0444315,0.0227081,0.64109,5,0.1,4,0.5,2.1813,-1.95752,0.642545,-0.176451,0.646623,-0.0076537,-0.402659,1.44285,-0.0174828,0.0117498,2.51061,5,0.1,5,0.5,0.592599,-0.527024,0.593397,0.218439,0.108877,0.00237795,0.485901,0.312984,0.00530109,0.00896678,0.342492,5,0.1,6,0.5,0.230085,-4.20712,0.594248,-0.653044,-0.0252776,-0.012002,-1.42935,-0.0564158,-0.0266954,0.00802804,2.19435,5,0.1,7,0.5,-3.71117,-3.61287,0.549562,0.137812,0.653909,0.016905,0.314608,1.43008,0.0385866,0.0106161,2.5119,5,0.1,8,0.5,-4.13449,-0.24658,0.579527,0.345117,0.576958,0.00622543,0.787854,1.31676,0.014212,0.0120196,2.51009,5,0.1,9,0.5,-3.48607,2.96297,0.682099,0.619601,0.260449,0.0162693,1.41408,0.594422,0.0371188,0.0195928,2.5101,5,0.1,10,0.5,-2.78882,3.53043,0.53362,0.61149,0.269485,0.0561171,1.3711,0.604227,0.125844,0.011034,2.34723,5,0.1,11,0.5,-1.93237,3.72898,0.683527,0.371256,0.115439,0.0239073,0.825807,0.256762,0.0531785,0.0101618,0.775754,5,0.1,12,0.5,4.19619,0.893724,0.669344,-0.29898,0.601876,-0.01982,-0.682235,1.37363,-0.0452474,0.0146517,2.51007,5,0.1,13,0.5,-1.67284,-1.23935,0.669652,0.314846,0.593845,-0.0159706,0.718534,1.35529,-0.0364594,0.0395122,2.51007,5,0.1,14,0.5,-3.99744,-4.26924,0.606516,0.599962,0.303325,-0.00106022,1.36924,0.692308,-0.00242144,0.0157306,2.51013,5,0.1,15,0.5,3.49019,1.50039,0.595615,-0.164089,0.601376,0.00146553,-0.374436,0.589825,0.00335276,0.0100158,2.84478,5,0.1,16,0.5,1.40308,0.798836,0.661337,-0.0190785,-0.341222,-0.0220614,-0.0424162,-0.759013,-0.0490621,0.0116112,0.599615,5,0.1,17,0.5,-1.40431,0.0307198,0.589049,0.434227,0.513295,0.00237059,0.990994,1.17147,0.00540167,0.0143014,2.51008,5,0.1,18,0.5,-2.88253,-1.33869,0.577765,-0.150144,-0.219842,0.00799717,-0.33401,-0.488997,0.0177808,0.00921894,0.362646,5,0.1,19,0.5,3.53646,-1.89272,0.542935,-0.0135351,0.665307,0.00893297,-0.0309199,1.41007,0.0203811,0.0188886,2.5156,5,0.1,20,0.5,-1.06349,-1.56542,0.58411,0.575953,0.346809,-0.00593998,1.31449,0.791527,-0.0135675,0.0113031,2.51008,5,0.1,21,0.5,-1.7369,-3.63229,0.51784,-0.61607,0.173441,0.0295483,-1.37038,0.385776,0.065729,0.00950281,2.09867,5,0.1,22,0.5,3.95606,-1.22598,0.593366,-0.103153,0.659113,0.0010414,-0.235349,1.42093,0.00237674,0.0149484,2.51335,5,0.1,23,0.5,-2.93335,-0.396053,0.641708,0.661588,0.0743724,-0.0313131,1.41662,0.169741,-0.0714585,0.0101124,2.51418,5,0.1,24,0.5,1.259,-0.849988,0.670044,-0.540579,-0.399536,-0.0130212,-1.23371,-0.911832,-0.0297129,0.0160954,2.51008,5,0.1,25,0.5,-4.30505,-1.28408,0.500208,0.450879,0.437776,-0.000575464,1.50001,0.522904,0.000212342,0.0127554,2.63125,5,0.1,26,0.5,1.88628,-0.581907,0.624746,-0.0944391,-0.513124,0.00304831,-0.210077,-1.14141,0.00679865,0.0106612,1.39174,5,0.1,27,0.5,3.9339,0.213323,0.569588,0.131406,0.654209,0.0388524,0.299931,1.42953,0.0886545,0.0107953,2.51198,5,0.1,28,0.5,3.43423,2.91021,0.571433,-0.315728,0.0322863,0.0102726,-0.667408,0.0718832,0.0228547,0.0180948,0.523433,5,0.1,29,0.5,-3.61522,4.03142,0.54319,0.665341,0.00434816,0.0133263,1.41007,0.00989437,0.0304133,0.0157688,2.51562,5,0.1,30,0.5,0.855391,-3.96317,0.534755,-0.415504,0.238491,0.0234613,-0.924263,0.530601,0.052169,0.0139176,1.17625,5,0.1,31,0.5,4.1732,-3.12419,0.521539,-0.0948824,0.660061,-0.00777533,-0.216633,1.41934,-0.0177212,0.0272566,2.51366,5,0.1,32,0.5,-3.70544,0.771122,0.661228,0.199741,0.208179,-0.022018,0.444368,0.463061,-0.0489838,0.0179923,0.428036,5,0.1,33,0.5,0.0963574,3.14336,0.651851,-0.196482,-0.590979,-0.0186476,-0.437057,-1.31458,-0.041496,0.0135379,1.98478,5,0.1,34,0.5,-2.02287,-0.437802,0.623896,0.183187,0.166765,0.0390054,0.511453,0.376364,-0.0694133,0.00955821,0.231004,5,0.1,35,0.5,-1.21823,2.77329,0.610961,0.0605026,-0.403966,-0.00394732,0.134565,-0.898644,-0.00879169,0.0144108,0.853072,5,0.1,36,0.5,-4.17561,4.24062,0.699441,0.483881,-0.385631,0.0151454,1.24055,-0.956029,0.0240318,0.0161844,2.57265,5,0.1,37,0.5,0.766506,3.75128,0.598132,-0.113825,-0.593821,0.000668038,-0.253204,-1.3209,0.00150874,0.0247907,1.86913,5,0.1,38,0.5,3.92721,-4.14403,0.650323,-0.0488956,0.664043,-0.00515832,-0.111565,1.41236,-0.0117682,0.0222775,2.51508,5,0.1,39,0.5,-3.55964,1.48571,0.657773,0.623731,0.0590796,-0.0207753,1.25068,0.131421,-0.0462271,0.00887452,2.07481,5,0.1
0,0.6,-0.789853,-2.87412,0.54459,0.135837,0.780755,0.0153631,0.189602,0.990033,0.0214577,0.0248079,2.3209,5,0.1,1,0.6,3.46911,-2.66817,0.56974,-0.00305176,0.786006,0.00482649,-0.00417233,0.95737,0.00673532,0.0175614,2.33498,5,0.1,2,0.6,1.88623,-3.68917,0.563551,-0.263718,0.763947,0.0082165,-0.408947,1.05202,0.0113249,0.0227979,2.27973,5,0.1,3,0.6,-3.87143,-2.01329,0.653339,0.390017,0.162601,-0.0238702,0.522137,0.217676,-0.0319183,0.0216681,0.477281,5,0.1,4,0.6,2.16178,-1.88619,0.641698,-0.212139,0.773177,-0.00920296,-0.296235,1.03706,-0.0128448,0.014307,2.30208,5,0.1,5,0.6,0.616689,-0.514652,0.593659,0.261077,0.137436,0.00284165,0.349581,0.246137,0.0038445,0.0108371,0.256982,5,0.1,6,0.6,0.158207,-4.20991,0.592925,-0.777516,-0.0302196,-0.0143439,-1.01091,-0.0407696,-0.0192225,0.00846944,1.6887,5,0.1,7,0.6,-3.69593,-3.54092,0.551432,0.165695,0.778145,0.0203237,0.231266,1.00613,0.0284016,0.0117114,2.12877,5,0.1,8,0.6,-4.09632,-0.182757,0.580216,0.414944,0.693666,0.00748485,0.579357,0.968351,0.0104308,0.0132271,2.22384,5,0.1,9,0.6,-3.41753,2.99178,0.683898,0.744939,0.313139,0.0195593,1.03986,0.437021,0.0273287,0.0206014,2.25993,5,0.1,10,0.6,-2.72133,3.56018,0.539815,0.732088,0.322634,0.0671864,0.991583,0.436902,0.0909865,0.0111154,1.76304,5,0.1,11,0.6,-1.89143,3.74171,0.686164,0.443724,0.137973,0.0285745,0.594079,0.184655,0.0382364,0.00871155,0.577536,5,0.1,12,0.6,4.16311,0.960304,0.667152,-0.359452,0.723626,-0.0238299,-0.501633,1.01018,-0.0332594,0.0172423,2.23971,5,0.1,13,0.6,-1.63801,-1.17366,0.667885,0.378531,0.713971,-0.0192031,0.528395,0.996649,-0.0267923,0.0407151,2.23301,5,0.1,14,0.6,-3.93107,-4.23568,0.606399,0.721323,0.364685,-0.00127405,1.00708,0.509262,-0.00178814,0.014914,2.23805,5,0.1,15,0.6,3.47204,1.56225,0.595777,-0.197279,0.624532,0.00176281,-0.275254,-0.0935793,0.00247359,0.00976753,2.82715,5,0.1,16,0.6,1.40097,0.761205,0.658904,-0.0228018,-0.40783,-0.0263661,-0.0305772,-0.546008,-0.0353158,0.0140159,0.4464,5,0.1,17,0.6,-1.35628,0.0875006,0.589311,0.522065,0.617125,0.0028491,0.728726,0.86151,0.00399351,0.0132034,2.21915,5,0.1,18,0.6,-2.89908,-1.36294,0.578647,-0.179452,-0.262752,0.0095576,-0.240326,-0.351787,0.0127852,0.0111858,0.402049,5,0.1,19,0.6,3.53496,-1.81978,0.543923,-0.016278,0.785911,0.0107393,-0.0226498,0.958025,0.0149906,0.0181647,2.33472,5,0.1,20,0.6,-0.999774,-1.52705,0.583453,0.69246,0.416961,-0.00714213,0.966668,0.582159,-0.00998378,0.0126816,2.22347,5,0.1,21,0.6,-1.80484,-3.61316,0.521099,-0.736326,0.207293,0.0353172,-0.985861,0.277638,0.0472665,0.0117674,1.57607,5,0.1,22,0.6,3.94465,-1.15357,0.593481,-0.124013,0.781688,0.0012517,-0.173092,0.984251,0.00172853,0.0142404,2.32335,5,0.1,23,0.6,-2.86073,-0.387826,0.638245,0.783378,0.0894167,-0.0376463,0.973701,0.124827,-0.0525713,0.0124528,2.32782,5,0.1,24,0.6,1.1992,-0.894185,0.668604,-0.649926,-0.480354,-0.0156537,-0.907302,-0.670582,-0.0218451,0.0149232,2.21916,5,0.1,25,0.6,-4.25275,-1.23811,0.500152,0.590682,0.477058,-0.000526011,1.23525,0.24873,0.000685453,0.0195113,2.32348,5,0.1,26,0.6,1.87587,-0.638496,0.625083,-0.112873,-0.613289,0.00364631,-0.151098,-0.821084,0.00485778,0.0102331,1.03611,5,0.1,27,0.6,3.94843,0.285306,0.573886,0.157988,0.778347,0.0467107,0.220537,1.00499,0.0652075,0.00918215,2.25586,5,0.1,28,0.6,3.39962,2.91377,0.572566,-0.372946,0.038594,0.0122786,-0.455737,0.0517368,0.0164211,0.0231996,0.472357,5,0.1,29,0.6,-3.54228,4.0319,0.544664,0.785935,0.00522137,0.0160232,0.957966,0.00739098,0.0223517,0.0121636,2.33481,5,0.1,30,0.6,0.809568,-3.93687,0.537343,-0.496614,0.285053,0.0280395,-0.66489,0.381708,0.0375509,0.013508,1.01727,5,0.1,31,0.6,4.16271,-3.0517,0.520679,-0.114095,0.782335,-0.00934601,-0.159025,0.980377,-0.0130236,0.0219687,2.32507,5,0.1,32,0.6,-3.68342,0.794081,0.6588,0.23874,0.248814,-0.0263169,0.3196,0.33316,-0.0352263,0.0215598,0.318662,5,0.1,33,0.6,0.0746887,3.07818,0.649795,-0.234836,-0.706339,-0.0222877,-0.314409,-0.945807,-0.0298917,0.0109189,1.47913,5,0.1,34,0.6,-2.00216,-0.419402,0.627394,0.228983,0.199333,0.0305191,0.386417,0.262648,-0.0958741,0.0140752,0.141576,5,0.1,35,0.6,-1.21156,2.72874,0.610526,0.0723124,-0.482827,-0.0047192,0.0967979,-0.646353,-0.00628829,0.0127755,0.635085,5,0.1,36,0.6,-4.12138,4.19757,0.701062,0.595784,-0.471437,0.0171199,0.950098,-0.724077,0.0146627,0.0189928,2.26532,5,0.1,37,0.6,0.753953,3.68579,0.598206,-0.136045,-0.709736,0.000800192,-0.182152,-0.950336,0.00110269,0.0254536,1.39371,5,0.1,38,0.6,3.9218,-4.0712,0.649753,-0.0587881,0.785053,-0.00620186,-0.0818968,0.963449,-0.00864267,0.0208458,2.33233,5,0.1,39,0.6,-3.49165,1.49223,0.655482,0.728703,0.0706136,-0.0248313,0.815034,0.0944734,-0.0332892,0.01111,1.70441,5,0.1
0,0.7,-0.775308,-2.79215,0.546235,0.154867,0.848721,0.0175165,0.178989,0.39202,0.0202507,0.0248079,2.3209,5,0.1,1,0.7,3.46878,-2.58585,0.570257,-0.00347234,0.850542,0.00550272,-0.00394881,0.360802,0.00635907,0.0175614,2.33498,5,0.1,2,0.7,1.85776,-3.60845,0.56443,-0.30557,0.841014,0.00935001,-0.401653,0.492424,0.0106283,0.0227979,2.27973,5,0.1,3,0.7,-3.82986,-1.99596,0.650795,0.440146,0.183499,-0.0269352,0.451788,0.188336,-0.0276305,0.0216681,0.477281,5,0.1,4,0.7,2.13906,-1.80473,0.640712,-0.241873,0.846092,-0.010492,-0.27971,0.437096,-0.0121258,0.014307,2.30208,5,0.1,5,0.7,0.644515,-0.499679,0.593962,0.294638,0.161687,0.00320999,0.302441,0.225952,0.00331178,0.0108371,0.256982,5,0.1,6,0.7,0.0764527,-4.21313,0.591396,-0.847535,-0.0341259,-0.0161886,-0.411091,-0.0351369,-0.0166222,0.00846944,1.6887,5,0.1,7,0.7,-3.6782,-3.45912,0.553607,0.188494,0.847787,0.0231232,0.211,0.407577,0.0259057,0.0117114,2.12877,5,0.1,8,0.7,-4.05189,-0.108723,0.581017,0.473097,0.784047,0.0085325,0.547051,0.79228,0.00986084,0.0132271,2.22384,5,0.1,9,0.7,-3.33859,3.02531,0.685993,0.826037,0.357011,0.0223021,0.573531,0.412747,0.0257976,0.0206014,2.25993,5,0.1,10,0.7,-2.6437,3.59459,0.546981,0.814511,0.364663,0.0759392,0.634298,0.379682,0.0790693,0.0111154,1.76304,5,0.1,11,0.7,-1.84414,3.75642,0.689209,0.500758,0.155702,0.0322456,0.514016,0.1598,0.033088,0.00871155,0.577536,5,0.1,12,0.7,4.12463,1.03721,0.6646,-0.409809,0.808825,-0.0271684,-0.473738,0.668403,-0.0314042,0.0172423,2.23971,5,0.1,13,0.7,-1.59748,-1.09767,0.665829,0.431574,0.801037,-0.021893,0.499003,0.711538,-0.0253022,0.0407151,2.23301,5,0.1,14,0.7,-3.85438,-4.19663,0.606262,0.806973,0.415802,-0.00145333,0.678688,0.480831,-0.00168011,0.014914,2.23805,5,0.1,15,0.7,3.45093,1.62298,0.595966,-0.224437,0.579187,0.00200672,-0.251532,-0.739679,0.0022538,0.00976753,2.82715,5,0.1,16,0.7,1.39854,0.717739,0.656094,-0.0257371,-0.460249,-0.0297559,-0.026457,-0.472404,-0.0305474,0.0140159,0.4464,5,0.1,17,0.7,-1.30038,0.153579,0.589617,0.595218,0.703605,0.00324985,0.68818,0.813542,0.00376627,0.0132034,2.21915,5,0.1,18,0.7,-2.91821,-1.3911,0.579666,-0.202522,-0.30097,0.0107851,-0.207886,-0.383385,0.0110641,0.0111858,0.402049,5,0.1,19,0.7,3.53322,-1.73746,0.545073,-0.0185523,0.850511,0.0122439,-0.021413,0.361346,0.0141561,0.0181647,2.33472,5,0.1,20,0.7,-0.92586,-1.48241,0.582688,0.782947,0.475398,-0.00814404,0.795621,0.549719,-0.00942498,0.0126816,2.22347,5,0.1,21,0.7,-1.88284,-3.59107,0.524863,-0.817491,0.233946,0.0398549,-0.616513,0.240192,0.0408925,0.0117674,1.57607,5,0.1,22,0.7,3.93137,-1.07153,0.593615,-0.141386,0.849045,0.00142567,-0.163406,0.386469,0.00163913,0.0142404,2.32335,5,0.1,23,0.7,-2.77858,-0.378252,0.634214,0.849631,0.101943,-0.0429218,0.376418,0.117805,-0.0496171,0.0124528,2.32782,5,0.1,24,0.7,1.12961,-0.945618,0.666928,-0.741003,-0.547668,-0.0178463,-0.856802,-0.633251,-0.0206269,0.0149232,2.21916,5,0.1,25,0.7,-4.18749,-1.18933,0.500104,0.712889,0.496257,-0.000441074,1.14629,0.119716,0.000976026,0.0195113,2.32348,5,0.1,26,0.7,1.86384,-0.70386,0.625471,-0.127379,-0.692116,0.00411319,-0.130728,-0.710398,0.00420585,0.0102331,1.03611,5,0.1,27,0.7,3.96535,0.367118,0.578886,0.179999,0.847878,0.0532189,0.206009,0.406343,0.0609159,0.00918215,2.25586,5,0.1,28,0.7,3.36091,2.91788,0.573874,-0.393283,0.0435602,0.0138553,0.022471,0.0447482,0.0142157,0.0231996,0.472357,5,0.1,29,0.7,-3.45996,4.03246,0.546379,0.850521,0.00596344,0.0182669,0.361159,0.00697374,0.0211038,0.0121636,2.33481,5,0.1,30,0.7,0.756639,-3.90633,0.540331,-0.560446,0.326142,0.0316448,-0.575259,0.409245,0.0324883,0.013508,1.01727,5,0.1,31,0.7,4.15049,-2.96962,0.519679,-0.130061,0.849273,-0.0106538,-0.150234,0.382587,-0.0123084,0.0219687,2.32507,5,0.1,32,0.7,-3.65797,0.820599,0.655995,0.269423,0.280798,-0.029699,0.276536,0.288241,-0.0304766,0.0215598,0.318662,5,0.1,33,0.7,0.0496602,3.00304,0.647419,-0.26502,-0.793235,-0.0251564,-0.272025,-0.748485,-0.0258498,0.0109189,1.47913,5,0.1,34,0.7,-1.97741,-0.398237,0.629935,0.264759,0.222866,0.020073,0.313178,0.197085,-0.109307,0.0140752,0.141576,5,0.1,35,0.7,-1.20385,2.67728,0.610023,0.0816057,-0.54488,-0.00532279,0.083752,-0.559226,-0.00544265,0.0127755,0.635085,5,0.1,36,0.7,-4.05697,4.14675,0.702847,0.69174,-0.544395,0.018526,0.911176,-0.690669,0.0124015,0.0189928,2.26532,5,0.1,37,0.7,0.739454,3.61032,0.598291,-0.153531,-0.795967,0.000905804,-0.157591,-0.733346,0.000946224,0.0254536,1.39371,5,0.1,38,0.7,3.9155,-3.98893,0.649089,-0.0670109,0.850214,-0.00706958,-0.0773817,0.366434,-0.00816211,0.0208458,2.33233,5,0.1,39,0.7,-3.41618,1.49975,0.652835,0.767912,0.0796847,-0.0280264,0.0441521,0.0817627,-0.0287928,0.01111,1.70441,5,0.1
0,0.8,-0.759025,-2.70608,0.548077,0.169604,0.866026,0.0191852,0.107497,0,0.0121295,0.0239114,2.24962,5,0.1,1,0.8,3.46842,-2.49972,0.570836,-0.00380278,0.866026,0.00602603,-0.00226498,0,0.0038445,0.0154052,2.27188,5,0.1,2,0.8,1.82538,-3.52274,0.565412,-0.339553,0.865215,0.0102222,-0.259638,0.0162125,0.00631809,0.0258187,2.18248,5,0.1,3,0.8,-3.7839,-1.97679,0.647982,0.475562,0.198266,-0.029102,0.237346,0.0988841,-0.0145137,0.0206243,0.336993,5,0.1,4,0.8,2.11363,-1.71876,0.639609,-0.264907,0.866026,-0.0114888,-0.167847,0,-0.00730157,0.014521,2.3857,5,0.1,5,0.8,0.675285,-0.4825,0.594297,0.31835,0.180444,0.00346899,0.158787,0.140294,0.00172853,0.00903621,0.182654,5,0.1,6,0.8,-0.00956957,-4.2167,0.589705,-0.866025,-0.0368834,-0.017491,1.19209e-06,-0.0181198,-0.00873208,0.00731402,1.2527,5,0.1,7,0.8,-3.65842,-3.37309,0.556033,0.205582,0.866026,0.0252202,0.121355,0,0.014931,0.0100244,1.62345,5,0.1,8,0.8,-4.00214,-0.026953,0.581915,0.518149,0.844646,0.00934452,0.328541,0.39192,0.00593066,0.0105814,2.09462,5,0.1,9,0.8,-3.25391,3.06284,0.688338,0.860047,0.391001,0.024426,0.119567,0.247836,0.015527,0.019453,2.16104,5,0.1,10,0.8,-2.55979,3.6327,0.554917,0.856239,0.394541,0.0821605,0.195742,0.201583,0.0420213,0.0093424,1.28192,5,0.1,11,0.8,-1.79184,3.77268,0.692576,0.541058,0.168234,0.0348389,0.269949,0.0838041,0.0173748,0.00947636,0.407777,5,0.1,12,0.8,4.08154,1.12073,0.661744,-0.448823,0.854263,-0.0297531,-0.284433,0.23526,-0.0188649,0.014794,2.1322,5,0.1,13,0.8,-1.55211,-1.01468,0.663527,0.472665,0.851648,-0.0239775,0.299752,0.287563,-0.015229,0.0372785,2.12068,5,0.1,14,0.8,-3.77099,-4.15291,0.606109,0.85364,0.455403,-0.00159144,0.247717,0.288963,-0.000983477,0.0156822,2.12939,5,0.1,15,0.8,3.42738,1.67662,0.596176,-0.244814,0.48942,0.00218898,-0.145078,-1.001,0.0013411,0.0103385,2.66202,5,0.1,16,0.8,1.39585,0.669675,0.652987,-0.0278115,-0.497288,-0.0321522,-0.0139475,-0.248045,-0.0160038,0.0112475,0.315183,5,0.1,17,0.8,-1.2378,0.227561,0.589958,0.65189,0.770602,0.00356138,0.413358,0.488632,0.00223517,0.0143299,2.04191,5,0.1,18,0.8,-2.93936,-1.42297,0.580792,-0.218821,-0.334439,0.0116527,-0.109196,-0.265121,0.00581145,0.00982453,0.444704,5,0.1,19,0.8,3.53127,-1.65133,0.546361,-0.0203192,0.866026,0.013411,-0.0127554,0,0.00846386,0.0191167,2.27146,5,0.1,20,0.8,-0.844178,-1.43242,0.581831,0.844009,0.520664,-0.00891984,0.397325,0.33021,-0.00569224,0.0121254,2.09711,5,0.1,21,0.8,-1.96695,-3.56664,0.529025,-0.857246,0.252777,0.0430614,-0.175595,0.126123,0.0214875,0.0087263,1.14781,5,0.1,22,0.8,3.9165,-0.985456,0.593765,-0.154841,0.866026,0.00156164,-0.0982285,0,0.000983477,0.0152548,2.25352,5,0.1,23,0.8,-2.69248,-0.367533,0.629701,0.866026,0.111642,-0.0470072,0,0.070706,-0.0297725,0.00910573,2.28503,5,0.1,24,0.8,1.0517,-1.0032,0.665051,-0.811562,-0.599816,-0.0195459,-0.514597,-0.380397,-0.0123382,0.0135948,2.05193,5,0.1,25,0.8,-4.11103,-1.13943,0.500065,0.809598,0.498506,-0.000338256,0.747204,-0.084281,0.00107288,0.0145612,2.18923,5,0.1,26,0.8,1.85053,-0.776138,0.625901,-0.137627,-0.747813,0.00444353,-0.0686049,-0.373036,0.00223517,0.0111028,0.747958,5,0.1,27,0.8,3.98426,0.453154,0.584478,0.196874,0.866026,0.0582099,0.12219,-1.43051e-05,0.0360906,0.0121226,1.735,5,0.1,28,0.8,3.3223,2.92243,0.575321,-0.373417,0.0470698,0.0149697,0.351667,0.0234842,0.00748038,0.0187107,0.427261,5,0.1,29,0.8,-3.37383,4.03309,0.5483,0.866026,0.00653267,0.0200048,0,0.00429153,0.012666,0.0137044,2.27158,5,0.1,30,0.8,0.698111,-3.87183,0.543636,-0.605547,0.361639,0.0341922,-0.302047,0.278592,0.0170469,0.00915573,0.731735,5,0.1,31,0.8,4.13682,-2.88353,0.518559,-0.142443,0.866026,-0.0116676,-0.0898838,0,-0.00739098,0.0233992,2.25621,5,0.1,32,0.8,-3.62983,0.849923,0.652894,0.291103,0.303395,-0.0320897,0.145197,0.151396,-0.015974,0.0165616,0.224993,5,0.1,33,0.8,0.0219837,2.92058,0.644792,-0.286348,-0.849015,-0.0271827,-0.142847,-0.340104,-0.0135601,0.0110975,1.06554,5,0.1,34,0.8,-1.94959,-0.375146,0.631399,0.288978,0.236956,0.00931323,0.160813,0.0777096,-0.103056,0.0117186,0.159777,5,0.1,35,0.8,-1.19533,2.62038,0.609467,0.0881702,-0.588721,-0.00574887,0.0440478,-0.293732,-0.00286102,0.0124287,0.448408,5,0.1,36,0.8,-3.98369,4.08921,0.70475,0.768203,-0.602031,0.0194222,0.577807,-0.431061,0.00479817,0.0174719,2.07167,5,0.1,37,0.8,0.72342,3.52768,0.598386,-0.165887,-0.849921,0.000980496,-0.0827312,-0.322104,0.000506639,0.023537,1.0069,5,0.1,38,0.8,3.90846,-3.90281,0.648346,-0.0733852,0.866026,-0.00774115,-0.0464916,0,-0.00491738,0.0196906,2.26771,5,0.1,39,0.8,-3.33996,1.50807,0.649908,0.749761,0.0860959,-0.0302836,-0.359893,0.0429153,-0.0151098,0.0118799,1.36688,5,0.1
0,0.9,-0.741506,-2.61948,0.550059,0.180693,0.866026,0.0204375,0.102919,0,0.0116229,0.0239114,2.24962,5,0.1,1,0.9,3.46803,-2.41311,0.571458,-0.00404082,0.866026,0.00642268,-0.00225008,0,0.00368431,0.0154052,2.27188,5,0.1,2,0.9,1.79008,-3.43617,0.566467,-0.366466,0.865975,0.0108752,-0.253826,0.00202656,0.00606477,0.0258187,2.18248,5,0.1,3,0.9,-3.73521,-1.95649,0.645002,0.497068,0.207226,-0.0304176,0.170022,0.0708252,-0.0104047,0.0206243,0.336993,5,0.1,4,0.9,2.08723,-1.63227,0.63843,-0.25474,0.861769,-0.0120379,0.3279,-0.112243,-0.00336021,0.014521,2.3857,5,0.1,5,0.9,0.707877,-0.463775,0.594652,0.332738,0.193589,0.00362517,0.113733,0.112427,0.00122562,0.00903621,0.182654,5,0.1,6,0.9,-0.0961661,-4.22047,0.587914,-0.865726,-0.0385247,-0.018282,0.0119898,-0.012964,-0.00624731,0.00731402,1.2527,5,0.1,7,0.9,-3.63727,-3.28649,0.558628,0.216931,0.865933,0.0266158,0.0947863,-0.00372529,0.011649,0.0100244,1.62345,5,0.1,8,0.9,-3.9485,0.0587619,0.582879,0.555325,0.864183,0.00993703,0.372916,0.0599602,0.00533462,0.0105814,2.09462,5,0.1,9,0.9,-3.16754,3.10323,0.690861,0.865652,0.416636,0.026031,0.0149459,0.238508,0.0149235,0.019453,2.16104,5,0.1,10,0.9,-2.47358,3.67312,0.563334,0.865039,0.412863,0.0859793,0.00946224,0.145778,0.0303835,0.0093424,1.28192,5,0.1,11,0.9,-1.73645,3.7899,0.696143,0.56552,0.17583,0.0364133,0.193372,0.0600517,0.0124462,0.00947636,0.407777,5,0.1,12,0.9,4.03517,1.20688,0.65867,-0.478254,0.865291,-0.0317045,-0.273854,0.0294074,-0.0181533,0.014794,2.1322,5,0.1,13,0.9,-1.50328,-0.928638,0.66105,0.503693,0.865127,-0.0255533,0.288852,0.0359416,-0.0146665,0.0372785,2.12068,5,0.1,14,0.9,-3.68486,-4.10587,0.605945,0.865252,0.485315,-0.0016937,0.0309646,0.278503,-0.000953674,0.0156822,2.12939,5,0.1,15,0.9,3.40256,1.72021,0.596402,-0.247981,0.380931,0.00231387,0.0715256,-1.08504,0.00104681,0.0103385,2.66202,5,0.1,16,0.9,1.39301,0.618763,0.649695,-0.0290748,-0.519764,-0.0336028,-0.00998378,-0.177681,-0.0114627,0.0112475,0.315183,5,0.1,17,0.9,-1.17045,0.307168,0.590326,0.694718,0.821228,0.00379374,0.399031,0.471696,0.00216439,0.0143299,2.04191,5,0.1,18,0.9,-2.96176,-1.45791,0.581985,-0.228713,-0.365448,0.0121794,-0.0782013,-0.322394,0.00416115,0.00982453,0.444704,5,0.1,19,0.9,3.52917,-1.56473,0.547746,-0.0216391,0.866026,0.0142858,-0.0122935,0,0.00813231,0.0191167,2.27146,5,0.1,20,0.9,-0.758499,-1.37863,0.58091,0.864112,0.55486,-0.00950862,0.0657886,0.318468,-0.00547618,0.0121254,2.09711,5,0.1,21,0.9,-2.0532,-3.54076,0.533433,-0.86509,0.264205,0.0450085,-0.0064522,0.0903457,0.0153892,0.0087263,1.14781,5,0.1,22,0.9,3.90051,-0.898853,0.593927,-0.164985,0.866026,0.00166381,-0.0942498,-3.72529e-06,0.000949949,0.0152548,2.25352,5,0.1,23,0.9,-2.60589,-0.356061,0.624839,0.865483,0.117249,-0.050261,-0.0217259,0.0376906,-0.0317432,0.00910573,2.28503,5,0.1,24,0.9,0.968316,-1.06517,0.663032,-0.852094,-0.639228,-0.0208253,-0.279829,-0.367194,-0.0119284,0.0135948,2.05193,5,0.1,25,0.9,-4.02728,-1.08999,0.500036,0.85704,0.489673,-0.000234041,0.236377,-0.109822,0.000987202,0.0145612,2.18923,5,0.1,26,0.9,1.83616,-0.852445,0.626353,-0.15198,-0.77441,0.00458574,-0.193775,-0.139091,0.000525266,0.0111028,0.747958,5,0.1,27,0.9,4.00455,0.539756,0.590476,0.208437,0.866,0.0616254,0.0982285,-0.0010246,0.0290275,0.0121226,1.735,5,0.1,28,0.9,3.28723,2.92725,0.576854,-0.32372,0.0491973,0.0156474,0.607073,0.0167936,0.00536069,0.0187107,0.427261,5,0.1,29,0.9,-3.28722,4.03376,0.550366,0.866026,0.00697076,0.0213106,0,0.00405312,0.0121109,0.0137044,2.27158,5,0.1,30,0.9,0.636115,-3.83425,0.547136,-0.632918,0.389424,0.0357372,-0.216357,0.253022,0.0122152,0.00915573,0.731735,5,0.1,31,0.9,4.1221,-2.79693,0.517353,-0.151748,0.866026,-0.012432,-0.0865757,0,-0.0071153,0.0233992,2.25621,5,0.1,32,0.9,-3.60003,0.880985,0.649609,0.304261,0.317113,-0.0335378,0.10401,0.108436,-0.0114478,0.0165616,0.224993,5,0.1,33,0.9,-0.00733247,2.83465,0.642009,-0.299292,-0.864533,-0.0284111,-0.102321,-0.0254512,-0.00970811,0.0110975,1.06554,5,0.1,34,0.9,-1.92,-0.350901,0.631821,0.30144,0.249005,-0.000746362,0.0789687,0.141043,-0.0957251,0.0117186,0.159777,5,0.1,35,0.9,-1.1863,2.56011,0.608879,0.0921609,-0.615337,-0.00600796,0.0315383,-0.210375,-0.00204891,0.0124287,0.448408,5,0.1,36,0.9,-3.90403,4.02678,0.706719,0.823421,-0.646365,0.0199385,0.482187,-0.413567,0.0044778,0.0174719,2.07167,5,0.1,37,0.9,0.706437,3.44171,0.598486,-0.173384,-0.864596,0.00102622,-0.0592582,-0.0233501,0.000361353,0.023537,1.0069,5,0.1,38,0.9,3.90088,-3.81621,0.647546,-0.0781931,0.866026,-0.00824919,-0.0447333,0,-0.00472739,0.0196906,2.26771,5,0.1,39,0.9,-3.26741,1.51689,0.646808,0.698355,0.0899855,-0.0316527,-0.5458,0.030756,-0.0108182,0.0118799,1.36688,5,0.1
0,1,-0.723006,-2.53288,0.552151,0.188264,0.866026,0.0212923,0.0406206,0,0.00458956,0.0214205,2.24743,5,0.1,1,1,3.46761,-2.32651,0.572116,-0.00420809,0.866026,0.0066936,-0.000834465,0,0.00146031,0.0204435,2.27188,5,0.1,2,1,1.75234,-3.34957,0.56758,-0.386116,0.866026,0.0113189,-0.121951,0,0.00232458,0.0241083,2.17819,5,0.1,3,1,-3.68492,-1.93553,0.641925,0.505781,0.210854,-0.0309512,-0.0109673,-0.00458956,0.000685453,0.0214132,2.83897,5,0.1,4,1,2.06392,-1.54702,0.637218,-0.20718,0.839144,-0.0121117,0.588059,-0.357568,0.00205636,0.0141494,2.37752,5,0.1,5,1,0.741543,-0.443968,0.595019,0.338563,0.201232,0.00368804,-0.00733137,0.0336468,-0.000119209,0.00938147,0.124803,5,0.1,6,1,-0.182583,-4.22437,0.586065,-0.861229,-0.0391722,-0.0186011,0.0959194,0.000715256,0.000417233,0.0077306,0.932359,5,0.1,7,1,-3.61522,-3.19994,0.561333,0.222731,0.864542,0.0273287,0.0139475,-0.0299215,0.00172853,0.010253,2.23447,5,0.1,8,1,-3.89131,0.145287,0.583895,0.585556,0.865063,0.0103131,0.20206,-0.0192595,0.00175834,0.0108285,1.63238,5,0.1,9,1,-3.08094,3.1459,0.693527,0.866026,0.434232,0.0271305,0,0.0953674,0.00599027,0.0200834,2.14676,5,0.1,10,1,-2.38722,3.71492,0.572038,0.860023,0.420529,0.0875771,-0.119925,-0.00524521,-0.00104308,0.00968845,0.921811,5,0.1,11,1,-1.67923,3.80769,0.699827,0.575426,0.178909,0.0370502,-0.0123978,-0.00393391,-0.000804663,0.00915995,1.76699,5,0.1,12,1,3.9862,1.29346,0.655423,-0.498468,0.866026,-0.0330448,-0.109553,0,-0.00724196,0.0142767,1.85498,5,0.1,13,1,-1.4517,-0.842053,0.658433,0.525033,0.866026,-0.0266388,0.115812,0,-0.00584126,0.0396795,2.09313,5,0.1,14,1,-3.59828,-4.05617,0.605772,0.866026,0.505888,-0.00176281,0,0.11158,-0.000417233,0.0148444,2.10521,5,0.1,15,1,3.37841,1.75326,0.596637,-0.232458,0.285026,0.00237823,0.229597,-0.790656,0.000149012,0.00917085,2.47132,5,0.1,16,1,1.39006,0.566173,0.646295,-0.0295877,-0.528865,-0.0341877,0.000596046,0.0114143,0.000715256,0.0121117,0.379766,5,0.1,17,1,-1.0993,0.391271,0.590715,0.724229,0.856112,0.00395477,0.160635,0.189885,0.000834465,0.0125577,1.9636,5,0.1,18,1,-2.9849,-1.49595,0.583217,-0.232714,-0.393322,0.0123918,0.00488758,-0.211716,-0.000238419,0.00896013,0.374909,5,0.1,19,1,3.52695,-1.47813,0.549208,-0.0225425,0.866026,0.0148848,-0.00500679,-5.96046e-05,0.00324845,0.0201357,2.27142,5,0.1,20,1,-0.67194,-1.32181,0.579936,0.866026,0.5784,-0.00991374,0,0.127912,-0.00220537,0.012997,2.05891,5,0.1,21,1,-2.13955,-3.51402,0.537987,-0.859827,0.268835,0.0457972,0.123858,-0.00596046,-0.00101328,0.00935824,0.829959,5,0.1,22,1,3.88361,-0.812251,0.594097,-0.17193,0.866026,0.0017345,-0.0373125,0,0.000357628,0.0138482,2.25163,5,0.1,23,1,-2.51962,-0.344227,0.619675,0.857335,0.118581,-0.0527501,-0.173926,-0.0133216,-0.0155568,0.010095,2.36028,5,0.1,24,1,0.882175,-1.13063,0.6609,-0.866026,-0.666383,-0.021708,2.98023e-05,-0.14782,-0.00476837,0.0140558,1.99867,5,0.1,25,1,-3.94092,-1.04173,0.500017,0.866026,0.473648,-0.000143051,0,-0.222325,0.000804663,0.0141586,2.1613,5,0.1,26,1,1.81995,-0.930065,0.626811,-0.172073,-0.772527,0.0045374,-0.189662,0.187993,-0.00154972,0.00860221,0.512594,5,0.1,27,1,4.02577,0.626343,0.596751,0.21472,0.865616,0.0634834,0.0202656,-0.00819564,0.00593066,0.00994627,1.32861,5,0.1,28,1,3.25808,2.93223,0.578437,-0.258124,0.0500619,0.0159234,0.679016,-0.00119209,-0.000357628,0.019076,0.406585,5,0.1,29,1,-3.20062,4.03448,0.552548,0.866026,0.00727177,0.0221997,0,0.00166893,0.00476837,0.0109076,2.27155,5,0.1,30,1,0.572077,-3.79425,0.550752,-0.644,0.408185,0.0363633,0.0139475,0.105739,-0.000804663,0.0103422,0.505503,5,0.1,31,1,4.10656,-2.71033,0.51608,-0.158131,0.866026,-0.0129566,-0.0348091,0,-0.00286102,0.0206165,2.25456,5,0.1,32,1,-3.56925,0.913071,0.646215,0.309587,0.322667,-0.0341237,-0.00667572,-0.00691414,0.00077486,0.0185225,0.153004,5,0.1,33,1,-0.0376148,2.74833,0.639134,-0.304533,-0.859183,-0.0289068,0.00657678,0.136852,0.000596046,0.0084937,0.75151,5,0.1,34,1,-1.88966,-0.32534,0.631296,0.303257,0.261341,-0.00942498,-0.0483394,0.0896305,-0.0761747,0.014076,0.152508,5,0.1,35,1,-1.17698,2.49785,0.608271,0.093779,-0.626111,-0.00611246,-0.00208616,0.0133514,0.000149012,0.0117629,0.304931,5,0.1,36,1,-3.81973,3.96039,0.708727,0.85746,-0.677633,0.0201389,0.171304,-0.182867,-0.00119209,0.0193071,1.99282,5,0.1,37,1,0.688894,3.35539,0.59859,-0.176419,-0.859255,0.00104457,0.0038445,0.135303,-2.98023e-05,0.0212895,2.28279,5,0.1,38,1,3.89287,-3.72961,0.646701,-0.0814974,0.866026,-0.00859797,-0.0177622,0,-0.00184774,0.0226137,2.26727,5,0.1,39,1,-3.2,1.52599,0.643605,0.653344,0.0915617,-0.0322059,-0.349522,-0.00202656,0.000685453,0.00887358,1.10306,5,0.1
0,1.1,-0.703939,-2.44627,0.554307,0.193155,0.866026,0.0218454,0.0460893,0,0.00521168,0.0214205,2.24743,5,0.1,1,1.1,3.46719,-2.23991,0.572794,-0.004315,0.866026,0.0068713,-0.00102818,0,0.00169873,0.0204435,2.27188,5,0.1,2,1.1,1.71312,-3.26297,0.568726,-0.397666,0.866026,0.0116154,-0.0902414,0,0.00290945,0.0241083,2.17819,5,0.1,3,1.1,-3.63458,-1.91375,0.638886,0.498831,0.230475,-0.0293511,-0.136048,0.343628,0.0291951,0.0214132,2.83897,5,0.1,4,1.1,2.04603,-1.464,0.636012,-0.152077,0.828289,-0.0120184,0.507459,0.0620708,0.000488013,0.0141494,2.37752,5,0.1,5,1.1,0.775348,-0.423691,0.595387,0.337077,0.20397,0.00366829,-0.0347756,0.0129193,-0.000409782,0.00938147,0.124803,5,0.1,6,1.1,-0.268497,-4.22828,0.584207,-0.858527,-0.0390097,-0.018518,0.00669971,0.00399351,0.0019297,0.0077306,0.932359,5,0.1,7,1.1,-3.59261,-3.1135,0.564072,0.231712,0.86509,0.0273895,0.138968,0.0186116,-0.00147894,0.010253,2.23447,5,0.1,8,1.1,-3.83174,0.231769,0.584931,0.60533,0.86456,0.0103753,0.163123,-0.0208262,-0.000752509,0.0108285,1.63238,5,0.1,9,1.1,-2.99434,3.18989,0.696275,0.866026,0.445818,0.0278567,0,0.110388,0.00691041,0.0200834,2.14676,5,0.1,10,1.1,-2.30162,3.75692,0.580787,0.852743,0.419059,0.0872747,-0.0686198,-0.0396222,-0.00822917,0.00968845,0.921811,5,0.1,11,1.1,-1.62083,3.82556,0.703527,0.599577,0.178121,0.0368875,0.415102,-0.0183731,-0.00380725,0.00915995,1.76699,5,0.1,12,1.1,3.93581,1.38006,0.65208,-0.508723,0.865874,-0.0337995,-0.0725538,-0.00607967,-0.00615045,0.0142767,1.85498,5,0.1,13,1.1,-1.3985,-0.755451,0.655734,0.539207,0.866001,-0.0273552,0.135988,-0.0010021,-0.00688434,0.0396795,2.09313,5,0.1,14,1.1,-3.51167,-4.00491,0.605593,0.866026,0.519585,-0.00181291,0,0.131771,-0.000476837,0.0148444,2.10521,5,0.1,15,1.1,3.35655,1.77832,0.596876,-0.202753,0.223707,0.00238782,0.351876,-0.351638,-4.84288e-05,0.00917085,2.47132,5,0.1,16,1.1,1.38695,0.51321,0.642882,-0.0339065,-0.530992,-0.0340395,-0.0760108,-0.024734,0.00349432,0.0121117,0.379766,5,0.1,17,1.1,-1.02591,0.47747,0.591115,0.744113,0.864987,0.00405991,0.192802,0.0143053,0.00103191,0.0125577,1.9636,5,0.1,18,1.1,-3.00814,-1.53574,0.584455,-0.231704,-0.396967,0.0123397,0.023827,0.123285,-0.0012517,0.00896013,0.374909,5,0.1,19,1.1,3.52467,-1.39153,0.550716,-0.0231467,0.866025,0.0152786,-0.00572205,1.49012e-05,0.00373647,0.0201357,2.27142,5,0.1,20,1.1,-0.585339,-1.2632,0.578931,0.865922,0.59412,-0.010184,-0.00413507,0.151426,-0.00260025,0.012997,2.05891,5,0.1,21,1.1,-2.22511,-3.48718,0.54256,-0.852119,0.267644,0.0455946,0.0729859,-0.0277013,-0.00471622,0.00935824,0.829959,5,0.1,22,1.1,3.8662,-0.725648,0.594272,-0.176467,0.866026,0.00177911,-0.0431687,-3.72529e-06,0.000428408,0.0138482,2.25163,5,0.1,23,1.1,-2.43493,-0.332643,0.614298,0.834201,0.111246,-0.054911,-0.306606,-0.124613,-0.0235885,0.010095,2.36028,5,0.1,24,1.1,0.795578,-1.19816,0.6587,-0.865767,-0.684654,-0.0222997,0.0103414,-0.176936,-0.00574067,0.0140558,1.99867,5,0.1,25,1.1,-3.85432,-0.995374,0.500007,0.866026,0.454161,-7.42264e-05,0,-0.18635,0.000569969,0.0141586,2.1613,5,0.1,26,1.1,1.80198,-1.0065,0.627258,-0.185415,-0.756652,0.00441168,-0.0763088,0.162564,-0.00116974,0.00860221,0.512594,5,0.1,27,1.1,4.04733,0.712897,0.603126,0.216284,0.865526,0.063941,0.00229478,-0.00564381,0.000651926,0.00994627,1.32861,5,0.1,28,1.1,3.23571,2.93723,0.580027,-0.189694,0.0498332,0.0158526,0.655621,-0.00521541,-0.00164658,0.019076,0.406585,5,0.1,29,1.1,-3.11402,4.03522,0.554796,0.866026,0.00746623,0.022771,0,0.00181794,0.00535697,0.0109076,2.27155,5,0.1,30,1.1,0.507774,-3.75291,0.554383,-0.641174,0.418103,0.0362027,0.0661388,0.0734329,-0.00374392,0.0103422,0.505503,5,0.1,31,1.1,4.09054,-2.62373,0.514768,-0.162381,0.866026,-0.0133056,-0.04071,0,-0.00333786,0.0206165,2.25456,5,0.1,32,1.1,-3.53833,0.945289,0.642808,0.308231,0.321256,-0.0339712,-0.0317842,-0.0330955,0.0035204,0.0185225,0.153004,5,0.1,33,1.1,-0.0680223,2.66296,0.636248,-0.303198,-0.848641,-0.0287818,0.0312647,0.112832,0.00295788,0.0084937,0.75151,5,0.1,34,1.1,-1.85974,-0.299173,0.63001,0.293578,0.258173,-0.0159308,-0.145718,-0.139954,-0.0535622,0.014076,0.152508,5,0.1,35,1.1,-1.16761,2.43533,0.607661,0.0933629,-0.62338,-0.00608405,-0.00967085,0.0641793,0.000644475,0.0117629,0.304931,5,0.1,36,1.1,-3.73346,3.89156,0.71074,0.865246,-0.699209,0.0201413,0.0116229,-0.206843,0.000163913,0.0193071,1.99282,5,0.1,37,1.1,0.670705,3.26962,0.598694,-0.191928,-0.859784,0.00103069,-0.271372,-0.0845939,-0.000264496,0.0212895,2.28279,5,0.1,38,1.1,3.88462,-3.64301,0.64583,-0.0836745,0.866026,-0.0088254,-0.0208616,0,-0.00218302,0.0226137,2.26727,5,0.1,39,1.1,-3.13566,1.53514,0.640389,0.63941,0.0911567,-0.0320653,0.00779331,-0.00941753,0.00330433,0.00887358,1.10306,5,0.1
0,1.2,-0.684458,-2.35967,0.556511,0.1956,0.866026,0.0221223,-0.00482798,0,-0.000566244,0.0209408,2.24718,5,0.1,1,1.2,3.46675,-2.15331,0.573487,-0.00437498,0.866026,0.0069648,0.000238419,0,-0.000119209,0.0189363,2.27188,5,0.1,2,1.2,1.67308,-3.17636,0.569899,-0.401023,0.866026,0.0117838,0.0357628,0,-8.9407e-05,0.0238572,2.17753,5,0.1,3,1.2,-3.58564,-1.88877,0.636129,0.477374,0.270182,-0.0255018,-0.297189,0.409961,0.0460148,0.0207917,2.85886,5,0.1,4,1.2,2.03318,-1.38069,0.634815,-0.106674,0.837889,-0.0118986,0.397563,0.0715852,0.00238419,0.00682332,1.3069,5,0.1,5,1.2,0.808755,-0.403318,0.595751,0.329554,0.202457,0.00358373,-0.123769,-0.0485629,-0.0013411,0.0095371,0.141203,5,0.1,6,1.2,-0.354138,-4.23215,0.582372,-0.851613,-0.0381351,-0.0181034,0.165731,0.0140667,0.00682473,0.00742598,0.668052,5,0.1,7,1.2,-3.56871,-3.02693,0.566792,0.245881,0.866026,0.0268757,0.124454,0,-0.00941753,0.0103882,1.53994,5,0.1,8,1.2,-3.77066,0.317884,0.585959,0.613105,0.854515,0.0101253,-0.0281334,-0.213892,-0.00441074,0.0100559,1.2207,5,0.1,9,1.2,-2.90774,3.23487,0.699086,0.866026,0.451916,0.0282377,0,-0.00679493,-0.000417233,0.0186854,2.14406,5,0.1,10,1.2,-2.21689,3.79847,0.58944,0.839031,0.410032,0.0853971,-0.235558,-0.150919,-0.0314713,0.00875864,0.644158,5,0.1,11,1.2,-1.55864,3.84321,0.707183,0.644419,0.174147,0.0360653,0.421822,-0.0654459,-0.0135601,0.00841787,0.285279,5,0.1,12,1.2,3.88479,1.46657,0.648683,-0.509125,0.863594,-0.033991,0.079751,-0.0485778,0.00348687,0.0128424,1.40778,5,0.1,13,1.2,-1.34408,-0.668864,0.652973,0.546861,0.865626,-0.0277415,-0.00488758,-0.00801682,0.000238419,0.0381114,1.78677,5,0.1,14,1.2,-3.42507,-3.95246,0.60541,0.866026,0.527054,-0.0018388,0,-0.0038147,-2.98023e-05,0.0137599,2.1164,5,0.1,15,1.2,3.33815,1.8,0.597113,-0.164372,0.220165,0.0023514,0.405192,0.251353,-0.000685453,0.00999657,1.66326,5,0.1,16,1.2,1.38313,0.460123,0.639508,-0.0428528,-0.528849,-0.0332817,-0.0945926,0.0880051,0.012517,0.012027,0.272901,5,0.1,17,1.2,-0.950782,0.563862,0.591525,0.75528,0.860997,0.00412017,-0.000268221,-0.100583,-2.98023e-05,0.0115517,1.95284,5,0.1,18,1.2,-3.0311,-1.57437,0.585678,-0.226539,-0.371644,0.0120655,0.0851154,0.368893,-0.00450015,0.0092795,0.199294,5,0.1,19,1.2,3.52234,-1.30492,0.552258,-0.0234604,0.866026,0.0154838,0.000357628,-5.96046e-05,-0.000298023,0.0189303,2.27141,5,0.1,20,1.2,-0.498801,-1.20323,0.577903,0.864373,0.60274,-0.0103325,-0.0330806,-0.00339746,5.96046e-05,0.0128463,2.05303,5,0.1,21,1.2,-2.30975,-3.46066,0.547079,-0.837982,0.261664,0.0445753,0.239134,-0.0983477,-0.0167489,0.00975841,0.871009,5,0.1,22,1.2,3.8484,-0.639046,0.594452,-0.178832,0.866026,0.00180304,0.00321865,0,-2.98023e-05,0.0130005,2.25124,5,0.1,23,1.2,-2.35338,-0.322265,0.608703,0.793183,0.0952654,-0.0567704,-0.524044,-0.187665,-0.010699,0.0100812,2.09855,5,0.1,24,1.2,0.709136,-1.26729,0.656449,-0.861886,-0.694871,-0.0226304,0.0827909,0.000834465,2.98023e-05,0.0143047,1.99277,5,0.1,25,1.2,-3.76772,-0.950957,0.500002,0.866026,0.433172,-2.83122e-05,0,-0.246525,0.000327826,0.013266,2.1768,5,0.1,26,1.2,1.78325,-1.08118,0.627693,-0.187296,-0.734439,0.00426769,0.0382066,0.304401,-0.00181794,0.0103896,0.350447,5,0.1,27,1.2,4.06889,0.799326,0.609498,0.213742,0.861719,0.0631854,-0.0591278,-0.0860989,-0.0174344,0.0119216,0.988268,5,0.1,28,1.2,3.21977,2.94216,0.581598,-0.132072,0.0487149,0.0154987,0.480056,-0.0183582,-0.00584126,0.0184066,0.389199,5,0.1,29,1.2,-3.02742,4.03597,0.557092,0.866026,0.00755787,0.0230506,0,-0.000238419,-0.000655651,0.0116561,2.27155,5,0.1,30,1.2,0.44423,-3.71091,0.557971,-0.626867,0.41967,0.0353947,0.235498,-0.0550747,-0.0132918,0.0125968,0.340021,5,0.1,31,1.2,4.07416,-2.53712,0.513425,-0.164664,0.866026,-0.0134915,0.00190735,0,0.000119209,0.0220348,2.25412,5,0.1,32,1.2,-3.50779,0.977127,0.639442,0.301355,0.31409,-0.0332117,-0.11313,-0.117928,0.0124872,0.0148778,0.172645,5,0.1,33,1.2,-0.0980709,2.57888,0.633395,-0.296433,-0.83006,-0.0281408,0.111356,0.285387,0.0105798,0.0125189,0.520022,5,0.1,34,1.2,-1.83127,-0.274344,0.628189,0.274155,0.235804,-0.0200897,-0.241995,-0.295937,-0.0295639,0.0100096,0.260112,5,0.1,35,1.2,-1.15836,2.37355,0.607058,0.0912756,-0.609481,-0.00594854,-0.0343323,0.229001,0.00229478,0.0110253,0.202756,5,0.1,36,1.2,-3.64702,3.82085,0.71275,0.862116,-0.711912,0.0199869,-0.0783205,-0.0181198,-0.00402331,0.0190244,1.9795,5,0.1,37,1.2,0.64999,3.18326,0.598796,-0.223191,-0.866026,0.000987947,-0.321478,0,-0.000566244,0.0210888,2.22976,5,0.1,38,1.2,3.87617,-3.5564,0.64494,-0.0848413,0.866026,-0.00894666,0.00107288,0,0.000119209,0.0198219,2.26716,5,0.1,39,1.2,-3.07151,1.54417,0.637212,0.643915,0.0891209,-0.0313506,0.0352859,-0.0334382,0.0118017,0.0081199,0.844103,5,0.1
0,1.3,-0.664871,-2.27307,0.558726,0.196375,0.866026,0.0222086,0.00943244,0,0.00106171,0.0209408,2.24718,5,0.1,1,1.3,3.46631,-2.0667,0.574185,-0.00438653,0.866026,0.00700234,-0.000223517,0,0.000473112,0.0189363,2.27188,5,0.1,2,1.3,1.63308,-3.08976,0.57108,-0.399154,0.866026,0.011863,0.0212118,0,0.000976026,0.0238572,2.17753,5,0.1,3,1.3,-3.53966,-1.85908,0.633843,0.439576,0.328225,-0.0199437,-0.451371,0.688411,0.0626221,0.0207917,2.85886,5,0.1,4,1.3,2.02498,-1.29888,0.633674,-0.0535473,0.77779,-0.0105906,0.626683,-1.16113,0.0218078,0.00682332,1.3069,5,0.1,5,1.3,0.841299,-0.383185,0.596105,0.322828,0.201114,0.00351071,-0.0334457,0.0067763,-0.000365078,0.0095371,0.141203,5,0.1,6,1.3,-0.438628,-4.23589,0.580595,-0.838757,-0.0367366,-0.017429,0.130268,0.0151098,0.00722706,0.00742598,0.668052,5,0.1,7,1.3,-3.54352,-2.94033,0.569434,0.257535,0.865866,0.0259697,0.0960082,-0.0063926,-0.00961497,0.0103882,1.53994,5,0.1,8,1.3,-3.70954,0.402065,0.586942,0.608075,0.826723,0.00946978,-0.0925064,-0.356905,-0.00850484,0.0100559,1.2207,5,0.1,9,1.3,-2.82113,3.28016,0.701916,0.866026,0.454322,0.0283881,0,0.0292063,0.00182167,0.0186854,2.14406,5,0.1,10,1.3,-2.13404,3.83874,0.597825,0.818521,0.395097,0.0822828,-0.209242,-0.160605,-0.0334792,0.00875864,0.644158,5,0.1,11,1.3,-1.4925,3.8603,0.710723,0.673916,0.167679,0.034725,0.155516,-0.0693053,-0.014361,0.00841787,0.285279,5,0.1,12,1.3,3.83453,1.5529,0.645306,-0.493354,0.863966,-0.0334723,0.237286,0.0120699,0.00783056,0.0128424,1.40778,5,0.1,13,1.3,-1.28913,-0.582312,0.650185,0.554002,0.865376,-0.0281049,0.10784,-0.0119936,-0.00548363,0.0381114,1.78677,5,0.1,14,1.3,-3.33848,-3.89992,0.605233,0.865622,0.521985,-0.00162497,-0.016138,-0.1093,0.0039041,0.0137599,2.1164,5,0.1,15,1.3,3.32374,1.82433,0.597345,-0.123895,0.274928,0.00228249,0.397816,0.760674,-0.00077486,0.00999657,1.66326,5,0.1,16,1.3,1.37831,0.407599,0.636241,-0.0538731,-0.52182,-0.0320445,-0.117488,0.076009,0.0132658,0.012027,0.272901,5,0.1,17,1.3,-0.875019,0.649855,0.591938,0.761163,0.861401,0.00415053,0.0729039,0.0525042,0.00038743,0.0115517,1.95284,5,0.1,18,1.3,-3.05334,-1.60932,0.586862,-0.218124,-0.324114,0.0116199,0.0902265,0.561789,-0.00478327,0.0092795,0.199294,5,0.1,19,1.3,3.51998,-1.21832,0.553809,-0.0235844,0.866025,0.0155609,-0.00150502,1.49012e-05,0.000961125,0.0189303,2.27141,5,0.1,20,1.3,-0.412381,-1.14279,0.576867,0.864852,0.606832,-0.0104021,0.0181757,0.0500381,-0.000849366,0.0128463,2.05303,5,0.1,21,1.3,-2.39263,-3.43478,0.551392,-0.821213,0.257457,0.0411488,0.139773,-0.00619888,-0.0492334,0.00975841,0.871009,5,0.1,22,1.3,3.83048,-0.552443,0.594633,-0.179754,0.866026,0.00181291,-0.0114441,-1.78814e-06,0.000119209,0.0130005,2.25124,5,0.1,23,1.3,-2.27684,-0.313873,0.602946,0.735871,0.0709699,-0.0585236,-0.62789,-0.28393,-0.0201017,0.0100812,2.09855,5,0.1,24,1.3,0.623031,-1.33698,0.654179,-0.862323,-0.700131,-0.0228018,-0.045374,-0.0648499,-0.00211224,0.0143047,1.99277,5,0.1,25,1.3,-3.68112,-0.908717,0.5,0.866026,0.412675,-4.19095e-06,0,-0.182997,0.000160187,0.013266,2.1768,5,0.1,26,1.3,1.76479,-1.15321,0.628112,-0.181004,-0.706576,0.00410639,0.0888109,0.279799,-0.00157207,0.0103896,0.350447,5,0.1,27,1.3,4.08997,0.885348,0.615731,0.207835,0.860243,0.061443,-0.066191,0.00711158,-0.0195242,0.0119216,0.988268,5,0.1,28,1.3,3.20866,2.94679,0.583119,-0.0940606,0.042456,0.0149218,0.249684,-0.098452,-0.00618398,0.0184066,0.389199,5,0.1,29,1.3,-2.94081,4.03673,0.5594,0.866026,0.00757948,0.0231285,0,0.000268221,0.000946224,0.0116561,2.27155,5,0.1,30,1.3,0.382695,-3.66921,0.561445,-0.603588,0.413999,0.0340807,0.249576,-0.0739247,-0.0140853,0.0125968,0.340021,5,0.1,31,1.3,4.05765,-2.45052,0.512072,-0.165669,0.866026,-0.0135768,-0.0124872,0,-0.00104308,0.0220348,2.25412,5,0.1,32,1.3,-3.47803,1.00814,0.636162,0.295208,0.30768,-0.0325335,-0.0305474,-0.0318661,0.00336766,0.0148778,0.172645,5,0.1,33,1.3,-0.12717,2.49719,0.630633,-0.285425,-0.80408,-0.0270949,0.118019,0.265762,0.0112168,0.0125189,0.520022,5,0.1,34,1.3,-1.80505,-0.252442,0.626041,0.250304,0.200565,-0.0227534,-0.239633,-0.396695,-0.0225417,0.0100096,0.260112,5,0.1,35,1.3,-1.1494,2.31372,0.606474,0.0878828,-0.586843,-0.00572298,-0.0363663,0.242695,0.00240654,0.0110253,0.202756,5,0.1,36,1.3,-3.56089,3.74935,0.714736,0.862539,-0.718985,0.0197626,0.0407398,-0.0810325,-0.0015758,0.0190244,1.9795,5,0.1,37,1.3,0.625777,3.09665,0.598892,-0.262992,-0.866026,0.000931788,-0.437744,0,-0.00057742,0.0210888,2.22976,5,0.1,38,1.3,3.86767,-3.4698,0.644043,-0.0853539,0.866026,-0.00900021,-0.0063777,0,-0.000674278,0.0198219,2.26716,5,0.1,39,1.3,-3.00659,1.55292,0.634134,0.656796,0.0858156,-0.0301841,0.173226,-0.0354424,0.0124983,0.0081199,0.844103,5,0.1
0,1.4,-0.645236,-2.18647,0.560946,0.195634,0.866026,0.0221238,-0.0318587,0,-0.00357628,0.0204081,2.24803,5,0.1,1,1.4,3.46588,-1.9801,0.574886,-0.00437498,0.866026,0.00699013,0.000596046,0,-0.000953674,0.0197523,2.27188,5,0.1,2,1.4,1.59338,-3.00316,0.572268,-0.393474,0.866026,0.0118628,0.105858,0,-0.00149012,0.0233979,2.1827,5,0.1,3,1.4,-3.49816,-1.82278,0.632172,0.388551,0.396964,-0.0134304,-0.561833,0.639856,0.0657141,0.0211504,2.71574,5,0.1,4,1.4,2.02288,-1.22818,0.632743,0.011903,0.626028,-0.00789016,0.652909,-1.78295,0.030607,0.0123898,3.11815,5,0.1,5,1.4,0.873411,-0.363049,0.596454,0.318956,0.201242,0.00346899,-0.0603497,-0.0149906,-0.000685453,0.0106683,0.360545,5,0.1,6,1.4,-0.521651,-4.23948,0.578893,-0.81899,-0.0349283,-0.0165641,0.291914,0.0219345,0.010401,0.00780498,0.465592,5,0.1,7,1.4,-3.51742,-2.85382,0.571977,0.26297,0.863463,0.0248,0.00429153,-0.0510216,-0.0143647,0.00910741,1.24131,5,0.1,8,1.4,-3.64944,0.48262,0.587841,0.591302,0.780807,0.00846088,-0.255823,-0.569761,-0.0114739,0.00998768,0.928574,5,0.1,9,1.4,-2.73453,3.32562,0.704756,0.866026,0.453377,0.0283286,0,-0.0659227,-0.00414252,0.0189668,2.07404,5,0.1,10,1.4,-2.05342,3.87734,0.605865,0.791353,0.375783,0.0782594,-0.357926,-0.234008,-0.0487864,0.00863517,0.440673,5,0.1,11,1.4,-1.42485,3.87668,0.714115,0.673658,0.159377,0.0330061,-0.166655,-0.100017,-0.0207722,0.00839517,0.161955,5,0.1,12,1.4,3.78665,1.63917,0.642011,-0.46159,0.8587,-0.0322714,0.397086,-0.146449,0.0167787,0.0127976,1.06047,5,0.1,13,1.4,-1.23327,-0.495979,0.647352,0.561577,0.859228,-0.0284895,0.01508,-0.135927,-0.00077486,0.0419832,2.22468,5,0.1,14,1.4,-3.25212,-3.84852,0.605094,0.859571,0.503349,-0.001131,-0.129104,-0.270128,0.00566244,0.0146908,2.15844,5,0.1,15,1.4,3.31328,1.8559,0.597569,-0.085938,0.357658,0.00218451,0.356555,0.83065,-0.0012219,0.0106671,0.589355,5,0.1,16,1.4,1.37236,0.355934,0.633111,-0.0649124,-0.509697,-0.030458,-0.0971556,0.182509,0.0191629,0.0129611,0.637598,5,0.1,17,1.4,-0.79872,0.736134,0.592354,0.762194,0.861883,0.00415593,-0.0839233,-0.0828505,-0.000476837,0.0136545,1.95076,5,0.1,18,1.4,-3.07465,-1.63874,0.587997,-0.207323,-0.26291,0.0110462,0.130415,0.646055,-0.00694394,0.00844609,0.359598,5,0.1,19,1.4,3.51762,-1.13172,0.555366,-0.0235319,0.866026,0.0155255,0.00333786,-5.96046e-05,-0.00226498,0.0187064,2.27142,5,0.1,20,1.4,-0.325853,-1.08201,0.575825,0.865031,0.60676,-0.010401,-0.0198925,-0.0762343,0.0013411,0.011553,2.0544,5,0.1,21,1.4,-2.47393,-3.40905,0.555225,-0.802606,0.256896,0.035198,0.263333,-0.019908,-0.0676215,0.00868581,0.62615,5,0.1,22,1.4,3.81249,-0.465841,0.594814,-0.179386,0.866025,0.00181049,0.0259876,1.43051e-05,-0.000268221,0.0146476,2.25168,5,0.1,23,1.4,-2.2066,-0.308257,0.597007,0.666827,0.0410236,-0.0600621,-0.754952,-0.30385,-0.00759959,0.00922827,1.91353,5,0.1,24,1.4,0.536659,-1.40715,0.651894,-0.863479,-0.700828,-0.0228256,0.0509024,0.0799298,0.0025928,0.0117658,2.01353,5,0.1,25,1.4,-3.59451,-0.86839,0.5,0.866026,0.393228,5.96046e-06,0,-0.219733,2.98023e-05,0.0143519,2.19017,5,0.1,26,1.4,1.74723,-1.22233,0.628514,-0.169396,-0.67395,0.00392348,0.143528,0.390947,-0.00214577,0.00897816,0.236637,5,0.1,27,1.4,4.11036,0.97123,0.62176,0.199318,0.854713,0.0589311,-0.10848,-0.152588,-0.0321269,0.0122767,0.707907,5,0.1,28,1.4,3.2,2.95047,0.584577,-0.0838399,0.0305295,0.0141829,-0.0317097,-0.133514,-0.0089407,0.0196702,0.333084,5,0.1,29,1.4,-2.85421,4.03748,0.561712,0.866026,0.00754595,0.0230238,0,-0.00143051,-0.00393391,0.0107264,2.27156,5,0.1,30,1.4,0.323737,-3.62832,0.564774,-0.573716,0.402284,0.0323951,0.360773,-0.170588,-0.020355,0.0102415,0.225437,5,0.1,31,1.4,4.04106,-2.36392,0.510713,-0.165534,0.866026,-0.0135675,0.0219345,0,0.00178814,0.0200264,2.25436,5,0.1,32,1.4,-3.44866,1.03875,0.632926,0.291675,0.30399,-0.0321433,-0.0551939,-0.0575185,0.00604987,0.0161059,0.124503,5,0.1,33,1.4,-0.15505,2.41829,0.627986,-0.271299,-0.771606,-0.0257522,0.170588,0.405073,0.0161827,0.00909371,0.587562,5,0.1,34,1.4,-1.78125,-0.234452,0.623672,0.225478,0.158665,-0.0244081,-0.259697,-0.431433,-0.00977516,0.0119161,0.252849,5,0.1,35,1.4,-1.14082,2.2564,0.605915,0.0835299,-0.557792,-0.00543594,-0.0525117,0.350714,0.00342727,0.0129804,0.133456,5,0.1,36,1.4,-3.47453,3.67723,0.716701,0.862765,-0.720912,0.0194833,-0.0654459,0.07236,-0.00482798,0.0157652,1.97739,5,0.1,37,1.4,0.597346,3.01005,0.598982,-0.30437,-0.866026,0.000867248,-0.362903,0,-0.000715256,0.0209954,2.19014,5,0.1,38,1.4,3.85912,-3.3832,0.643142,-0.0852883,0.866026,-0.00899285,0.0114441,0,0.0012219,0.0212264,2.26722,5,0.1,39,1.4,-2.94015,1.5613,0.631186,0.670123,0.081569,-0.0286892,0.0580549,-0.0512004,0.0180602,0.00790224,0.624132,5,0.1
0,1.5,-0.625771,-2.09986,0.563148,0.193998,0.866026,0.021941,-0.0115447,0,-0.0012815,0.0204081,2.24803,5,0.1,1,1.5,3.46544,-1.8935,0.575583,-0.00435561,0.866026,0.00695558,5.96046e-05,0,-0.000130385,0.0197523,2.27188,5,0.1,2,1.5,1.55444,-2.91655,0.573451,-0.385965,0.866026,0.0118183,0.0643581,0,-8.9407e-05,0.0233979,2.1827,5,0.1,3,1.5,-3.46137,-1.7792,0.631142,0.353565,0.479315,-0.00733566,-0.180885,0.927858,0.0555888,0.0211504,2.71574,5,0.1,4,1.5,2.02617,-1.17213,0.632074,0.0436895,0.515351,-0.00578752,0.035733,-0.54983,0.012923,0.0123898,3.11815,5,0.1,5,1.5,0.905234,-0.342749,0.596796,0.319129,0.206652,0.00337176,0.0384822,0.0998229,-0.00131875,0.0106683,0.360545,5,0.1,6,1.5,-0.602213,-4.24287,0.577286,-0.792658,-0.0328332,-0.0155717,0.266261,0.0209212,0.00991672,0.00780498,0.465592,5,0.1,7,1.5,-3.49095,-2.76751,0.574388,0.26738,0.863865,0.0234405,0.0638217,0.0176579,-0.0135824,0.00910741,1.24131,5,0.1,8,1.5,-3.59155,0.557828,0.58863,0.566363,0.722793,0.00729747,-0.261098,-0.602823,-0.0117496,0.00998768,0.928574,5,0.1,9,1.5,-2.64793,3.37077,0.707577,0.866026,0.450254,0.0281312,0,-0.0212491,-0.00134856,0.0189668,2.07404,5,0.1,10,1.5,-1.97595,3.9138,0.613457,0.758431,0.353451,0.0736042,-0.328772,-0.223339,-0.0465475,0.00863517,0.440673,5,0.1,11,1.5,-1.35848,3.89214,0.717315,0.651725,0.149835,0.0310249,-0.283375,-0.0953525,-0.019785,0.00839517,0.161955,5,0.1,12,1.5,3.74266,1.72445,0.63887,-0.416665,0.847396,-0.0305061,0.496522,-0.118591,0.0191592,0.0127976,1.06047,5,0.1,13,1.5,-1.17682,-0.411723,0.644495,0.568706,0.817815,-0.0286416,0.0908002,-0.6232,-0.000867993,0.0419832,2.22468,5,0.1,14,1.5,-3.16632,-3.79965,0.605017,0.86005,0.472936,-0.000337418,0.0806898,-0.343129,0.00957027,0.0146908,2.15844,5,0.1,15,1.5,3.30648,1.89573,0.597781,-0.0502061,0.437034,0.00206707,0.350073,0.72322,-0.00118837,0.0106671,0.589355,5,0.1,16,1.5,1.36505,0.305496,0.630157,-0.0837605,-0.501869,-0.0286302,-0.253633,0.012854,0.0182539,0.0129611,0.637598,5,0.1,17,1.5,-0.722637,0.822241,0.592769,0.761106,0.862289,0.00414914,0.0164621,0.0406839,9.31323e-05,0.0136545,1.95076,5,0.1,18,1.5,-3.09475,-1.66178,0.589069,-0.194744,-0.19781,0.0104008,0.126854,0.643238,-0.00631809,0.00844609,0.359598,5,0.1,19,1.5,3.51528,-1.04512,0.556912,-0.0233971,0.866025,0.0154318,0.000685453,1.11759e-05,-0.000491738,0.0187064,2.27142,5,0.1,20,1.5,-0.239355,-1.0215,0.574788,0.8654,0.604575,-0.0103607,0.00978738,-0.00273064,7.07805e-05,0.011553,2.0544,5,0.1,21,1.5,-2.55304,-3.38336,0.558388,-0.780587,0.257523,0.0279368,0.212044,0.0164211,-0.0758059,0.00868581,0.62615,5,0.1,22,1.5,3.79462,-0.379238,0.594994,-0.178334,0.866025,0.00179978,0.00521541,-1.78814e-06,-4.84288e-05,0.0146476,2.25168,5,0.1,23,1.5,-2.14356,-0.305832,0.59094,0.594887,0.00632894,-0.061397,-0.695586,-0.372408,-0.015039,0.00922827,1.91353,5,0.1,24,1.5,0.450352,-1.47664,0.649614,-0.863939,-0.68666,-0.0228183,-0.0271797,0.216722,-0.00100583,0.0117658,2.01353,5,0.1,25,1.5,-3.50791,-0.829999,0.500001,0.866026,0.375759,6.79865e-06,0,-0.149183,-1.11759e-05,0.0143519,2.19017,5,0.1,26,1.5,1.73102,-1.28788,0.628896,-0.154532,-0.637697,0.00372687,0.155143,0.356279,-0.00192598,0.00897816,0.236637,5,0.1,27,1.5,4.12977,1.0561,0.627499,0.188923,0.843221,0.0558539,-0.105321,-0.116795,-0.031177,0.0122767,0.707907,5,0.1,28,1.5,3.19093,2.9528,0.585952,-0.102002,0.0157598,0.0133306,-0.293672,-0.155702,-0.00850856,0.0196702,0.333084,5,0.1,29,1.5,-2.76761,4.03823,0.564001,0.866026,0.0074625,0.0228074,0,-0.000655651,-0.0016354,0.0107264,2.27156,5,0.1,30,1.5,0.2681,-3.58891,0.567916,-0.539303,0.385837,0.0304534,0.343777,-0.171185,-0.019405,0.0102415,0.225437,5,0.1,31,1.5,4.02456,-2.27732,0.50936,-0.164834,0.866026,-0.0135105,0.00163913,0,0.00013411,0.0200264,2.25436,5,0.1,32,1.5,-3.41969,1.06878,0.62975,0.288148,0.29568,-0.0312677,-0.0303239,-0.113972,0.0120252,0.0161059,0.124503,5,0.1,33,1.5,-0.181516,2.34288,0.625489,-0.259472,-0.738415,-0.0242081,0.0835351,0.294536,0.0154339,0.00909371,0.587562,5,0.1,34,1.5,-1.75997,-0.220734,0.621192,0.200271,0.115985,-0.0250827,-0.247329,-0.414468,-0.00303611,0.0119161,0.252849,5,0.1,35,1.5,-1.13272,2.2023,0.605388,0.0785211,-0.524338,-0.00510952,-0.0500455,0.334233,0.00325963,0.0129804,0.133456,5,0.1,36,1.5,-3.38831,3.60524,0.718633,0.863189,-0.720302,0.0192069,0.0322759,-0.0173301,-0.00182167,0.0157652,1.97739,5,0.1,37,1.5,0.564938,2.92345,0.599065,-0.344508,-0.866026,0.000801869,-0.406761,0,-0.000618398,0.0209954,2.19014,5,0.1,38,1.5,3.85062,-3.2966,0.642245,-0.0849202,0.866026,-0.0089529,0.000864267,0,0.000100583,0.0212264,2.26722,5,0.1,39,1.5,-2.87269,1.56921,0.628404,0.679776,0.0766844,-0.0269667,0.0963062,-0.0488162,0.0172071,0.00790224,0.624132,5,0.1
0,1.6,-0.606467,-2.01326,0.565331,0.191508,0.866026,0.0216618,-0.0457764,-5.96046e-05,-0.0051856,0.0232305,2.24944,5,0.1,1,1.6,3.46501,-1.8069,0.576276,-0.00432134,0.866026,0.00689477,0.000834465,0,-0.0013411,0.0181242,2.27188,5,0.1,2,1.6,1.51623,-2.82995,0.57463,-0.37719,0.866026,0.0117287,0.12517,0,-0.00217557,0.0216268,2.20256,5,0.1,3,1.6,-3.42659,-1.72669,0.630666,0.344706,0.568786,-0.00240803,-0.0302792,0.803471,0.0426471,0.00793779,1.11103,5,0.1,4,1.6,2.03006,-1.12212,0.631541,0.0286043,0.494745,-0.00503957,-0.294685,0.0438094,0.00318885,0.0129591,2.75897,5,0.1,5,1.6,0.937332,-0.321553,0.597125,0.322281,0.217138,0.0031963,0.00610948,0.0925958,-0.00226498,0.0100122,0.285022,5,0.1,6,1.6,-0.67998,-4.24604,0.575781,-0.760432,-0.0305772,-0.0145018,0.399798,0.025034,0.0118017,0.00777054,0.318099,5,0.1,7,1.6,-3.46393,-2.68119,0.57666,0.27228,0.860298,0.0219584,0.0197887,-0.114679,-0.0165999,0.00889729,0.908718,5,0.1,8,1.6,-3.53635,0.626958,0.5893,0.536066,0.658277,0.0061214,-0.357151,-0.694871,-0.0117421,0.00977896,0.737707,5,0.1,9,1.6,-2.56133,3.41559,0.710378,0.866026,0.444913,0.0277951,0,-0.102758,-0.0064373,0.0168178,1.59665,5,0.1,10,1.6,-1.90189,3.94797,0.620573,0.720844,0.329334,0.0685781,-0.442147,-0.266433,-0.0554919,0.0099261,0.297475,5,0.1,11,1.6,-1.29499,3.90662,0.720314,0.615224,0.139552,0.0288919,-0.452876,-0.113487,-0.0234842,0.00842631,0.0945429,5,0.1,12,1.6,3.7036,1.80838,0.635924,-0.363272,0.828406,-0.028339,0.566363,-0.288069,0.0245869,0.0128205,0.802121,5,0.1,13,1.6,-1.11962,-0.333425,0.641636,0.573468,0.745569,-0.0284284,-0.0215769,-0.781075,0.00607967,0.0414681,2.2067,5,0.1,14,1.6,-3.07994,-3.75422,0.605034,0.866026,0.433999,0.000669062,0,-0.437975,0.010103,0.0125107,2.17099,5,0.1,15,1.6,3.30314,1.94265,0.597982,-0.0173151,0.496656,0.00193566,0.301957,0.446558,-0.00146031,0.00974988,0.421666,5,0.1,16,1.6,1.35533,0.255354,0.62739,-0.11104,-0.500414,-0.0266626,-0.272095,0.0445539,0.0217259,0.014677,0.505484,5,0.1,17,1.6,-0.646585,0.908544,0.593184,0.757681,0.861587,0.0041306,-0.117362,-0.0887513,-0.000655651,0.00988273,1.94504,5,0.1,18,1.6,-3.11356,-1.67843,0.590077,-0.181001,-0.136438,0.00972152,0.151634,0.575125,-0.00751019,0.00859721,0.224049,5,0.1,19,1.6,3.51295,-0.958514,0.55845,-0.0231683,0.866026,0.0152782,0.00488758,0,-0.00318885,0.0185552,2.27144,5,0.1,20,1.6,-0.15281,-0.961173,0.573755,0.864968,0.600201,-0.0102833,-0.0211453,-0.109583,0.00187755,0.0114083,1.94745,5,0.1,21,1.6,-2.62989,-3.35757,0.560802,-0.754279,0.257438,0.020358,0.338435,-0.0293255,-0.0743568,0.0148256,0.438933,5,0.1,22,1.6,3.77685,-0.292636,0.595174,-0.176603,0.866025,0.00178218,0.0363588,1.43051e-05,-0.000357628,0.0122408,2.25249,5,0.1,23,1.6,-2.08753,-0.307055,0.58474,0.525755,-0.0303723,-0.0623763,-0.694871,-0.348389,-0.00166893,0.0106361,1.75486,5,0.1,24,1.6,0.363891,-1.54391,0.647331,-0.864168,-0.655416,-0.0227809,0.0371337,0.415564,0.00277162,0.0120398,2.14043,5,0.1,25,1.6,-3.42131,-0.793184,0.500002,0.866026,0.360045,4.47035e-06,0,-0.178993,-2.98023e-05,0.0114893,1.78042,5,0.1,26,1.6,1.71637,-1.34978,0.629259,-0.138164,-0.598961,0.00351518,0.172913,0.433445,-0.00238419,0.0114083,0.158724,5,0.1,27,1.6,4.14811,1.13963,0.632918,0.177252,0.824669,0.0524044,-0.131607,-0.281513,-0.039041,0.0103854,0.493306,5,0.1,28,1.6,3.17908,2.9536,0.58724,-0.135881,0.000464916,0.0124142,-0.355005,-0.145435,-0.010103,0.0191946,0.269421,5,0.1,29,1.6,-2.68101,4.03897,0.566269,0.866026,0.00734329,0.0224859,0,-0.00166893,-0.00566244,0.0135683,2.08166,5,0.1,30,1.6,0.215968,-3.55127,0.57086,-0.502238,0.365901,0.0283629,0.408463,-0.236034,-0.0230968,0.00839165,0.148717,5,0.1,31,1.6,4.00812,-2.19071,0.508012,-0.163567,0.866026,-0.0134066,0.0306368,0,0.0025034,0.021974,2.25487,5,0.1,32,1.6,-3.39109,1.09765,0.626697,0.283068,0.280377,-0.0296518,-0.0817776,-0.195026,0.0205934,0.0152808,0.143209,5,0.1,33,1.6,-0.207071,2.27057,0.623149,-0.251549,-0.706595,-0.022544,0.0877827,0.367284,0.0183284,0.00905636,0.688912,5,0.1,34,1.6,-1.74118,-0.211128,0.618684,0.175545,0.0770707,-0.0249073,-0.249028,-0.358514,0.00694394,0.0102568,0.309119,5,0.1,35,1.6,-1.12513,2.15162,0.604894,0.073126,-0.488299,-0.00475794,-0.0594854,0.397086,0.0038743,0.0114736,0.118933,5,0.1,36,1.6,-3.30194,3.53327,0.720542,0.86261,-0.717068,0.018926,-0.0681877,0.112295,-0.00458956,0.0170735,1.69254,5,0.1,37,1.6,0.528604,2.83685,0.599142,-0.380056,-0.866026,0.000739098,-0.280574,0,-0.000655651,0.0191929,2.25951,5,0.1,38,1.6,3.84215,-3.20999,0.641352,-0.084269,0.866026,-0.00888258,0.0157356,0,0.00163913,0.0186014,2.26684,5,0.1,39,1.6,-2.80442,1.57662,0.625797,0.682813,0.0714213,-0.0251129,-0.0627041,-0.0581145,0.0204444,0.00795929,0.44512,5,0.1
0,1.7,-0.587479,-1.92666,0.567479,0.188632,0.866025,0.0213361,-0.0221431,1.49012e-05,-0.00250712,0.0232305,2.24944,5,0.1,1,1.7,3.46458,-1.72029,0.576962,-0.00428185,0.866026,0.00682846,0.000208616,0,-0.00037998,0.0181242,2.27188,5,0.1,2,1.7,1.47911,-2.74335,0.575797,-0.365236,0.866026,0.0116332,0.127062,0,-0.000432134,0.0216268,2.20256,5,0.1,3,1.7,-3.3938,-1.66764,0.630727,0.297902,0.595609,0.00433987,-0.821561,-0.197634,0.0854693,0.00793779,1.11103,5,0.1,4,1.7,2.03092,-1.07122,0.631035,-0.0155173,0.532878,-0.00520898,-0.546873,0.621535,-0.00538304,0.0129591,2.75897,5,0.1,5,1.7,0.969699,-0.299597,0.597434,0.325636,0.219839,0.00296682,0.0410825,-0.0361595,-0.00237674,0.0100122,0.285022,5,0.1,6,1.7,-0.754146,-4.24898,0.574387,-0.723442,-0.028231,-0.0133954,0.365861,0.0227392,0.0107214,0.00777054,0.318099,5,0.1,7,1.7,-3.43653,-2.59553,0.578777,0.275924,0.853905,0.0204063,0.037238,-0.0570863,-0.0150762,0.00889729,0.908718,5,0.1,8,1.7,-3.48442,0.689389,0.589855,0.503002,0.590846,0.00498798,-0.321165,-0.663713,-0.0109002,0.00977896,0.737707,5,0.1,9,1.7,-2.47473,3.45965,0.71313,0.865843,0.436594,0.0272737,-0.00730157,-0.0834465,-0.00522658,0.0168178,1.59665,5,0.1,10,1.7,-1.83189,3.97964,0.627167,0.679836,0.304352,0.0633749,-0.401318,-0.242233,-0.0504442,0.0099261,0.297475,5,0.1,11,1.7,-1.23581,3.92004,0.723092,0.56742,0.128914,0.0266902,-0.509001,-0.103071,-0.0213385,0.00842631,0.0945429,5,0.1,12,1.7,3.67009,1.88996,0.63321,-0.307083,0.803887,-0.025951,0.5555,-0.237539,0.0237338,0.0128205,0.802121,5,0.1,13,1.7,-1.06219,-0.263057,0.638817,0.575953,0.662339,-0.0279677,0.0374466,-0.760838,0.00446662,0.0414681,2.2067,5,0.1,14,1.7,-2.99334,-3.71242,0.605139,0.866026,0.406979,0.00133729,0,-0.14393,0.00366941,0.0125107,2.17099,5,0.1,15,1.7,3.30288,1.99443,0.598168,0.0114914,0.537348,0.00179792,0.268266,0.34073,-0.00134483,0.00974988,0.421666,5,0.1,16,1.7,1.34301,0.205671,0.624833,-0.13378,-0.491627,-0.0244483,-0.179179,0.141265,0.0228956,0.014677,0.505484,5,0.1,17,1.7,-0.572237,0.994612,0.593595,0.721625,0.861924,0.00410415,-0.576772,0.0415184,-0.000111759,0.00988273,1.94504,5,0.1,18,1.7,-3.1311,-1.68937,0.591021,-0.171494,-0.084281,0.0092526,0.0544786,0.4628,-0.00270084,0.00859721,0.224049,5,0.1,19,1.7,3.51065,-0.871911,0.559968,-0.0229038,0.866026,0.0151067,0.00172853,-3.72529e-06,-0.00111386,0.0185552,2.27144,5,0.1,20,1.7,-0.0663192,-0.901494,0.572732,0.865324,0.594579,-0.0101871,0.00894487,-0.0365302,0.000629574,0.0114083,1.94745,5,0.1,21,1.7,-2.70377,-3.33193,0.562468,-0.723809,0.255459,0.0130376,0.299379,-0.022307,-0.0707656,0.0148256,0.438933,5,0.1,22,1.7,3.7593,-0.206033,0.595351,-0.17468,0.866025,0.00176383,0.0121891,-2.98023e-07,-0.000115484,0.0122408,2.25249,5,0.1,23,1.7,-2.03802,-0.311978,0.578475,0.467828,-0.0689929,-0.0629991,-0.48916,-0.403112,-0.0070855,0.0106361,1.75486,5,0.1,24,1.7,0.277497,-1.6067,0.645049,-0.864645,-0.594415,-0.0229905,-0.0204898,0.775516,-0.00501052,0.0120398,2.14043,5,0.1,25,1.7,-3.33471,-0.757959,0.500002,0.866003,0.345187,1.58325e-06,-0.000923872,-0.134349,-2.6077e-05,0.0114893,1.78042,5,0.1,26,1.7,1.7034,-1.40763,0.629599,-0.121415,-0.558805,0.00329521,0.163525,0.388086,-0.00213087,0.0114083,0.158724,5,0.1,27,1.7,4.1652,1.22081,0.637973,0.164867,0.799349,0.0487328,-0.121027,-0.256941,-0.0358596,0.0103854,0.493306,5,0.1,28,1.7,3.16352,2.95292,0.588434,-0.176583,-0.0140462,0.0114673,-0.430316,-0.140175,-0.00917539,0.0191946,0.269421,5,0.1,29,1.7,-2.5944,4.0397,0.568496,0.866026,0.00722334,0.022078,0,-0.00110269,-0.00361726,0.0135683,2.08166,5,0.1,30,1.7,0.16769,-3.51581,0.573586,-0.463947,0.343589,0.0261982,0.371076,-0.22091,-0.0209697,0.00839165,0.148717,5,0.1,31,1.7,3.99185,-2.10411,0.506682,-0.162169,0.866026,-0.0131972,0.00695884,0,0.00225753,0.021974,2.25487,5,0.1,32,1.7,-3.36293,1.12481,0.623824,0.28207,0.263535,-0.0278737,0.036329,-0.1534,0.0161976,0.0152808,0.143209,5,0.1,33,1.7,-0.232048,2.2014,0.620982,-0.249974,-0.679224,-0.0208255,-0.0324837,0.218943,0.0166595,0.00905636,0.688912,5,0.1,34,1.7,-1.72411,-0.20508,0.616356,0.172214,0.0452501,-0.0205497,0.134751,-0.276098,0.0728406,0.0102568,0.309119,5,0.1,35,1.7,-1.11794,2.10468,0.604437,0.0719951,-0.451073,-0.004395,0.0249967,0.360787,0.00351295,0.0114736,0.118933,5,0.1,36,1.7,-3.21574,3.46191,0.722418,0.863007,-0.71113,0.0186283,0.0291169,0.0448972,-0.00237674,0.0170735,1.69254,5,0.1,37,1.7,0.489094,2.75101,0.599213,-0.410371,-0.843296,0.000681356,-0.295633,0.439227,-0.000528991,0.0191929,2.25951,5,0.1,38,1.7,3.83374,-3.12339,0.640471,-0.0843439,0.866026,-0.00874856,-0.0105053,0,0.00142679,0.0186014,2.26684,5,0.1,39,1.7,-2.73637,1.58349,0.623383,0.678419,0.0659738,-0.0231965,-0.0561774,-0.0527948,0.0185631,0.00795929,0.44512,5,0.1
0,1.8,-0.568758,-1.84006,0.569596,0.185306,0.866026,0.0209585,-0.051707,-5.96046e-05,-0.00581145,0.0188096,1.87551,5,0.1,1,1.8,3.46415,-1.63369,0.577642,-0.00423789,0.866026,0.00675023,0.000834465,0,-0.00146031,0.0219532,2.27188,5,0.1,2,1.8,1.44331,-2.65675,0.576956,-0.349584,0.866026,0.0115231,0.194907,0,-0.00226498,0.0156317,2.23288,5,0.1,3,1.8,-3.36885,-1.61025,0.631613,0.195509,0.542018,0.0134781,-1.15955,-0.815928,0.092119,0.00743763,0.38649,5,0.1,4,1.8,2.0265,-1.01453,0.630481,-0.0735641,0.601983,-0.00590533,-0.582814,0.687212,-0.00762939,0.0128034,2.47807,5,0.1,5,1.8,1.00239,-0.277989,0.597718,0.327104,0.210454,0.00271052,-0.0256896,-0.148475,-0.00274181,0.0097755,0.257671,5,0.1,6,1.8,-0.824544,-4.25169,0.573102,-0.68291,-0.0258803,-0.012292,0.462443,0.0243187,0.0116825,0.00737107,0.214703,5,0.1,7,1.8,-3.40883,-2.51062,0.580741,0.277042,0.841433,0.018838,-0.0259876,-0.222921,-0.0167787,0.00903492,0.644415,5,0.1,8,1.8,-3.43578,0.745141,0.590301,0.468969,0.523899,0.00394732,-0.371099,-0.681609,-0.00989437,0.00953894,0.60228,5,0.1,9,1.8,-2.38824,3.50279,0.715825,0.863105,0.424868,0.0265405,-0.0584126,-0.16439,-0.0103116,0.0174569,1.19465,5,0.1,10,1.8,-1.766,4.00884,0.633248,0.636655,0.279367,0.0581741,-0.478148,-0.263214,-0.0548959,0.00953988,0.199478,5,0.1,11,1.8,-1.18175,3.93241,0.725652,0.512567,0.118291,0.0244915,-0.590861,-0.111938,-0.0231862,0.00790563,0.74108,5,0.1,12,1.8,3.64213,1.96901,0.630736,-0.252545,0.774944,-0.0234991,0.533342,-0.365853,0.02563,0.0132894,0.613457,5,0.1,13,1.8,-1.00454,-0.2,0.636049,0.575192,0.605288,-0.0273094,-0.0764728,-0.383987,0.00962615,0.0382844,1.78292,5,0.1,14,1.8,-2.90674,-3.67223,0.605284,0.866026,0.397927,0.00147671,0,-0.0681877,-0.000506639,0.0115582,2.164,5,0.1,15,1.8,3.30528,2.04952,0.598341,0.0353396,0.560403,0.00165701,0.204921,0.102878,-0.00149012,0.00988722,1.1646,5,0.1,16,1.8,1.32891,0.15744,0.622507,-0.146359,-0.470584,-0.0220329,-0.0706911,0.285287,0.0256598,0.0139615,0.476344,5,0.1,17,1.8,-0.50353,1.08086,0.594004,0.647404,0.860652,0.00406653,-0.883877,-0.105202,-0.00077486,0.00943308,1.61052,5,0.1,18,1.8,-3.14803,-1.69571,0.591935,-0.167328,-0.0445783,0.00903606,0.0406504,0.329614,-0.00217557,0.00929001,0.334229,5,0.1,19,1.8,3.50837,-0.785309,0.56147,-0.0225961,0.866026,0.0149071,0.00536442,0,-0.00348687,0.0199079,2.27147,5,0.1,20,1.8,0.0201999,-0.842324,0.571718,0.864316,0.587152,-0.0100598,-0.0341916,-0.135809,0.00232458,0.0109138,1.46053,5,0.1,21,1.8,-2.77452,-3.30656,0.563433,-0.689608,0.250942,0.00642389,0.404358,-0.0761747,-0.0605583,0.0129611,0.314932,5,0.1,22,1.8,3.74192,-0.119431,0.595526,-0.172442,0.866026,0.00174195,0.0395775,-3.57628e-06,-0.00038743,0.0119868,2.2534,5,0.1,23,1.8,-1.99352,-0.320842,0.572156,0.423467,-0.107367,-0.063163,-0.417054,-0.349045,0.0063777,0.0107121,1.5516,5,0.1,24,1.8,0.190981,-1.66187,0.642725,-0.864937,-0.505653,-0.0234455,0.0217628,0.975251,-0.0026226,0.0117426,0.885557,5,0.1,25,1.8,-3.24812,-0.724146,0.500002,0.865656,0.330417,-1.49012e-06,-0.00739098,-0.172466,0,0.0115363,1.45459,5,0.1,26,1.8,1.69207,-1.46152,0.629917,-0.10522,-0.518242,0.00307113,0.16129,0.435829,-0.00244379,0.0100705,0.106223,5,0.1,27,1.8,4.18107,1.29929,0.642662,0.152206,0.76789,0.0449851,-0.135422,-0.394106,-0.0400841,0.0131908,0.337001,5,0.1,28,1.8,3.14378,2.95085,0.589534,-0.216973,-0.0267863,0.0105217,-0.356555,-0.111461,-0.00992417,0.0210354,0.208604,5,0.1,29,1.8,-2.5078,4.04042,0.570681,0.866026,0.00706911,0.0215739,0,-0.00238419,-0.00730157,0.012126,1.64252,5,0.1,30,1.8,0.12318,-3.4826,0.5761,-0.425715,0.319922,0.0240386,0.402905,-0.259519,-0.022769,0.00918688,0.169159,5,0.1,31,1.8,3.97569,-2.01751,0.505377,-0.160527,0.866026,-0.0128567,0.0324249,-5.96046e-05,0.00491738,0.0247119,2.25551,5,0.1,32,1.8,-3.33452,1.15039,0.621119,0.285912,0.24772,-0.0262022,0.0220537,-0.170887,0.0180304,0.0152547,0.144527,5,0.1,33,1.8,-0.257246,2.13459,0.618984,-0.253907,-0.65614,-0.0191092,-0.0285804,0.270486,0.01809,0.0105306,0.513303,5,0.1,34,1.8,-1.7059,-0.201789,0.614724,0.194049,0.0220422,-0.0116557,0.2653,-0.187963,0.0992417,0.00956385,0.271932,5,0.1,35,1.8,-1.11056,2.06141,0.604015,0.0760317,-0.413907,-0.00403374,0.0466704,0.391841,0.0038445,0.0122837,0.143584,5,0.1,36,1.8,-3.12944,3.39117,0.724265,0.860608,-0.701559,0.0182778,-0.10848,0.173569,-0.00530481,0.0165216,1.22482,5,0.1,37,1.8,0.446756,2.6695,0.599279,-0.434062,-0.781256,0.000630319,-0.157058,0.786185,-0.000566244,0.0192899,2.06172,5,0.1,38,1.8,3.82525,-3.03679,0.639605,-0.0852108,0.866026,-0.00853091,-0.00202656,0,0.00315905,0.0201444,2.26662,5,0.1,39,1.8,-2.669,1.58982,0.621158,0.666356,0.0605375,-0.0212833,-0.205994,-0.0573397,0.0201464,0.00891909,0.308375,5,0.1
0,1.9,-0.55044,-1.75345,0.571668,0.181276,0.866025,0.0205058,-0.0375994,1.49012e-05,-0.0042282,0.0188096,1.87551,5,0.1,1,1.9,3.46373,-1.54709,0.578312,-0.0041984,0.866026,0.00667516,0.000208616,0,-0.000439584,0.0219532,2.27188,5,0.1,2,1.9,1.40967,-2.57014,0.578102,-0.320306,0.866026,0.0114165,0.377394,0,-0.000543892,0.0156317,2.23288,5,0.1,3,1.9,-3.35539,-1.56016,0.633476,0.0717975,0.459486,0.0241636,-1.26797,-0.82919,0.11472,0.00743763,0.38649,5,0.1,4,1.9,2.01604,-0.950322,0.629844,-0.136575,0.685821,-0.00688825,-0.645027,0.90839,-0.0110492,0.0128034,2.47807,5,0.1,5,1.9,1.03468,-0.257973,0.597963,0.315876,0.187349,0.00209725,-0.192627,-0.299359,-0.00879541,0.0097755,0.257671,5,0.1,6,1.9,-0.890654,-4.25416,0.571928,-0.640036,-0.0236221,-0.0112101,0.416454,0.0215471,0.0102893,0.00737107,0.214703,5,0.1,7,1.9,-3.38123,-2.42756,0.582545,0.274846,0.81945,0.0172719,-0.029698,-0.24575,-0.0150427,0.00903492,0.644415,5,0.1,8,1.9,-3.39067,0.794343,0.590651,0.433609,0.461981,0.00309628,-0.347853,-0.570789,-0.00727922,0.00953894,0.60228,5,0.1,9,1.9,-2.30197,3.54453,0.718432,0.863495,0.409983,0.0256071,0.0216365,-0.149399,-0.00935793,0.0174569,1.19465,5,0.1,10,1.9,-1.70459,4.03553,0.638806,0.592398,0.254973,0.0530876,-0.426374,-0.232309,-0.0484213,0.00953988,0.199478,5,0.1,11,1.9,-1.13377,3.94371,0.727992,0.444208,0.107921,0.0223436,-0.75832,-0.0986904,-0.0204332,0.00790563,0.74108,5,0.1,12,1.9,3.61943,2.04485,0.628508,-0.202436,0.742824,-0.0210941,0.469461,-0.307396,0.0229925,0.0132894,0.613457,5,0.1,13,1.9,-0.947302,-0.140384,0.633362,0.569882,0.59515,-0.0264524,-0.0567399,0.105233,0.00858679,0.0382844,1.78292,5,0.1,14,1.9,-2.82014,-3.6324,0.605423,0.866026,0.401529,0.00126585,0,0.102475,-0.00340492,0.0115582,2.164,5,0.1,15,1.9,3.30947,2.10664,0.5985,0.0453174,0.585989,0.00151824,0.00992417,0.347853,-0.00133365,0.00988722,1.1646,5,0.1,16,1.9,1.31423,0.112248,0.62044,-0.144414,-0.429303,-0.0192518,0.0980198,0.522675,0.02959,0.0139615,0.476344,5,0.1,17,1.9,-0.443761,1.16622,0.594404,0.543646,0.8441,0.00390243,-1.14547,-0.245385,-0.00245869,0.00943308,1.61052,5,0.1,18,1.9,-3.16456,-1.69876,0.592828,-0.163156,-0.0186732,0.00880482,0.0483841,0.195019,-0.00273809,0.00929001,0.334229,5,0.1,19,1.9,3.50613,-0.698706,0.562949,-0.0222936,0.866026,0.0147117,0.00199676,-3.72529e-06,-0.0012815,0.0199079,2.27147,5,0.1,20,1.9,0.106618,-0.784167,0.570722,0.864718,0.576507,-0.00987751,0.00754416,-0.104032,0.00178441,0.0109138,1.46053,5,0.1,21,1.9,-2.84159,-3.28215,0.563783,-0.652444,0.234694,0.000705849,0.362277,-0.237748,-0.052873,0.0129611,0.314932,5,0.1,22,1.9,3.72481,-0.032828,0.595699,-0.170264,0.866025,0.00172118,0.0139624,-5.96046e-07,-0.000130385,0.0119868,2.2534,5,0.1,23,1.9,-1.95265,-0.333185,0.565871,0.398904,-0.137957,-0.0624775,-0.116736,-0.256557,0.00968948,0.0107121,1.5516,5,0.1,24,1.9,0.104558,-1.70739,0.64036,-0.862969,-0.403517,-0.0239138,0.0538731,1.04619,-0.00520796,0.0117426,0.885557,5,0.1,25,1.9,-3.16156,-0.691728,0.500002,0.86555,0.31974,-1.58325e-06,-0.00607967,-0.0640638,-3.72529e-06,0.0115363,1.45459,5,0.1,26,1.9,1.68232,-1.51129,0.630213,-0.0900744,-0.478042,0.00284594,0.143044,0.383511,-0.00215322,0.0100705,0.106223,5,0.1,27,1.9,4.19565,1.37423,0.646971,0.139619,0.731427,0.0412607,-0.12055,-0.36142,-0.0356473,0.0131908,0.337001,5,0.1,28,1.9,3.12026,2.94763,0.590539,-0.25328,-0.0373814,0.00960194,-0.347465,-0.0969321,-0.00875443,0.0210354,0.208604,5,0.1,29,1.9,-2.4212,4.04111,0.572806,0.865983,0.00686422,0.0209454,-0.00171363,-0.00205636,-0.00616908,0.012126,1.64252,5,0.1,30,1.9,0.0825141,-3.45168,0.578396,-0.388387,0.300146,0.0219296,0.355224,-0.154883,-0.0200681,0.00918688,0.169159,5,0.1,31,1.9,3.95974,-1.93091,0.504131,-0.159018,0.866025,-0.0119425,0.00736117,1.49012e-05,0.0128075,0.0247119,2.25551,5,0.1,32,1.9,-3.30619,1.17428,0.618592,0.277195,0.229609,-0.0242902,-0.184879,-0.194028,0.0204891,0.0152547,0.144527,5,0.1,33,1.9,-0.282634,2.07012,0.617159,-0.252373,-0.6345,-0.0174329,0.061132,0.193328,0.0159517,0.0105306,0.513303,5,0.1,34,1.9,-1.68489,-0.200439,0.614123,0.227992,0.00604121,0.000152551,0.380047,-0.12368,0.129975,0.00956385,0.271932,5,0.1,35,1.9,-1.10251,2.02167,0.603628,0.0865834,-0.383121,-0.003732,0.146441,0.247575,0.00242144,0.0122837,0.143584,5,0.1,36,1.9,-3.04372,3.32175,0.72607,0.854636,-0.687262,0.0178413,-0.0546128,0.1432,-0.00423566,0.0165216,1.22482,5,0.1,37,1.9,0.402539,2.59611,0.599339,-0.44994,-0.68,0.000580307,-0.136733,1.1826,-0.000458211,0.0192899,2.06172,5,0.1,38,1.9,3.81668,-2.95018,0.638765,-0.0866171,0.866026,-0.00828663,-0.019744,0,0.00214204,0.0201444,2.26662,5,0.1,39,1.9,-2.60332,1.5956,0.619125,0.6474,0.0552258,-0.0194169,-0.19829,-0.0505373,0.0177585,0.00891909,0.308375,5,0.1
0,2,-0.532535,-1.66685,0.573694,0.176314,0.866026,0.0199467,-0.0677109,-5.96046e-05,-0.0076592,0.0207391,1.45668,5,0.1,1,2,3.46331,-1.46049,0.578976,-0.0041604,0.866026,0.00659376,0.000953674,0,-0.00140071,0.020273,2.27188,5,0.1,2,2,1.37973,-2.48354,0.579239,-0.27658,0.866026,0.0112981,0.485778,0,-0.00232458,0.0218639,2.26166,5,0.1,3,2,-3.35441,-1.51834,0.636457,-0.0499547,0.37722,0.0352278,-1.13249,-0.811338,0.101537,0.00860107,0.23808,5,0.1,4,2,1.99928,-0.87738,0.629101,-0.196972,0.769654,-0.00794232,-0.539303,0.709355,-0.00938773,0.0120249,2.27683,5,0.1,5,2,1.06507,-0.240886,0.598124,0.289831,0.153175,0.00108182,-0.321925,-0.37244,-0.0109673,0.00951532,0.243669,5,0.1,6,2,-0.952509,-4.25641,0.570859,-0.596011,-0.0214696,-0.0101775,0.478715,0.0226498,0.0105798,0.00744897,0.14408,5,0.1,7,2,-3.35398,-2.34707,0.584197,0.269133,0.787437,0.0157431,-0.0925064,-0.413537,-0.015825,0.00920988,0.272785,5,0.1,8,2,-3.34909,0.837777,0.590928,0.397444,0.407328,0.00246316,-0.383377,-0.532329,-0.00548363,0.00976825,0.531091,5,0.1,9,2,-2.21568,3.58469,0.720941,0.860083,0.392276,0.0244975,-0.118971,-0.21565,-0.0134408,0.0167855,0.86415,5,0.1,10,2,-1.64753,4.05987,0.643873,0.548112,0.231636,0.0482231,-0.472665,-0.240088,-0.0499785,0.00848337,0.13354,5,0.1,11,2,-1.09329,3.954,0.730124,0.364202,0.0980079,0.0202909,-0.826895,-0.101686,-0.0210702,0.00750854,0.503488,5,0.1,12,2,3.60144,2.11748,0.626513,-0.158536,0.70824,-0.0188142,0.409365,-0.40555,0.0229776,0.0170326,0.479421,5,0.1,13,2,-0.890746,-0.0800492,0.630765,0.559279,0.61301,-0.0254095,-0.173926,0.194713,0.0129938,0.0339528,1.25808,5,0.1,14,2,-2.73353,-3.59171,0.60553,0.866026,0.411868,0.000852346,0,0.0766516,-0.00464916,0.0135286,2.14983,5,0.1,15,2,3.31383,2.16697,0.598645,0.040096,0.619411,0.00138432,-0.101805,0.27585,-0.00143051,0.00917965,0.955761,5,0.1,16,2,1.30048,0.0722011,0.618666,-0.128892,-0.369335,-0.0161856,0.202537,0.661491,0.0313818,0.00964548,0.639748,5,0.1,17,2,-0.395248,1.24904,0.594779,0.426223,0.80846,0.00358522,-1.16965,-0.479043,-0.0038743,0.011881,1.45984,5,0.1,18,2,-3.18059,-1.69983,0.593692,-0.156724,-0.00434816,0.008443,0.0836849,0.0972748,-0.00470877,0.00774133,0.489586,5,0.1,19,2,3.50391,-0.612104,0.564412,-0.0219703,0.866026,0.0145048,0.005126,0,-0.00345707,0.0179569,2.27149,5,0.1,20,2,0.192979,-0.727164,0.569745,0.860496,0.561787,-0.00962466,-0.110612,-0.209033,0.00354648,0.013874,1.06272,5,0.1,21,2,-2.90494,-3.26006,0.563608,-0.613219,0.205451,-0.003995,0.438213,-0.33772,-0.0405908,0.00907904,0.229535,5,0.1,22,2,3.70788,0.0537745,0.595871,-0.167948,0.866025,0.00169873,0.0393391,-1.19209e-06,-0.00038743,0.0131801,2.25431,5,0.1,23,2,-1.91313,-0.34807,0.559693,0.392652,-0.157703,-0.060834,-0.0403523,-0.134796,0.0247657,0.00918881,1.33362,5,0.1,24,2,0.0188253,-1.74254,0.637948,-0.848092,-0.300181,-0.0242263,0.268102,1.0041,5.96046e-05,0.00982667,0.404472,5,0.1,25,2,-3.07513,-0.660051,0.500002,0.861752,0.313625,-2.98023e-06,-0.0857115,-0.0750721,2.98023e-05,0.0120852,1.08622,5,0.1,26,2,1.67401,-1.55717,0.630487,-0.0763655,-0.438944,0.00262558,0.132084,0.409067,-0.00235438,0.0098673,0.12256,5,0.1,27,2,4.209,1.44544,0.650918,0.127387,0.691187,0.0376478,-0.1266,-0.461221,-0.0374913,0.00952127,0.227435,5,0.1,28,2,3.09336,2.94346,0.591456,-0.282717,-0.0455856,0.00872314,-0.225782,-0.0649691,-0.00905991,0.0200394,0.152751,5,0.1,29,2,-2.33462,4.04179,0.574866,0.865346,0.00661612,0.0201896,-0.0138283,-0.00309944,-0.00965595,0.0104255,1.25996,5,0.1,30,2,0.0454496,-3.4224,0.580488,-0.352712,0.285673,0.0199139,0.36629,-0.148296,-0.0206828,0.00986445,0.135966,5,0.1,31,2,3.94389,-1.8443,0.50301,-0.157416,0.866026,-0.010398,0.0314713,-5.96046e-05,0.0176132,0.0216759,2.25613,5,0.1,32,2,-3.27966,1.19621,0.616271,0.251102,0.208512,-0.0220612,-0.326514,-0.229239,0.0242293,0.00794218,0.269565,5,0.1,33,2,-0.307407,2.00771,0.615495,-0.241465,-0.612193,-0.015831,0.157312,0.274539,0.0164509,0.00995484,0.450769,5,0.1,34,2,-1.66023,-0.2003,0.614792,0.264254,-0.00164136,0.0131235,0.320733,-0.027813,0.124186,0.00823392,0.250212,5,0.1,35,2,-1.09307,1.98452,0.603266,0.102177,-0.360277,-0.00350922,0.151932,0.226736,0.00220537,0.0119493,0.0867584,5,0.1,36,2,-2.95874,3.2539,0.72783,0.842279,-0.667709,0.0172943,-0.223041,0.268936,-0.00730157,0.015876,0.860074,5,0.1,37,2,0.357054,2.5343,0.599395,-0.457411,-0.554508,0.000534952,0.00353158,1.28603,-0.000447035,0.0207426,2.85529,5,0.1,38,2,3.80793,-2.86358,0.637949,-0.0880778,0.866026,-0.00803173,-0.00476837,0,0.00327826,0.0201289,2.26715,5,0.1,39,2,-2.53973,1.60087,0.617272,0.622481,0.0501513,-0.0176325,-0.317216,-0.0520945,0.0182986,0.00767192,0.209445,5,0.1
0,2.1,-0.51521,-1.58025,0.575654,0.170338,0.86585,0.0192708,-0.0588316,-0.00696629,-0.00665709,0.0207391,1.45668,5,0.1,1,2.1,3.4629,-1.37388,0.579631,-0.00411123,0.866026,0.0065241,0.000268221,0,-0.00037998,0.020273,2.27188,5,0.1,2,2.1,1.35462,-2.39694,0.580362,-0.224912,0.866026,0.0111891,0.536576,0,-0.000536442,0.0218639,2.26166,5,0.1,3,2.1,-3.36471,-1.48407,0.640496,-0.152036,0.313339,0.0455234,-0.895157,-0.494607,0.0992492,0.00860107,0.23808,5,0.1,4,2.1,1.97683,-0.797202,0.628256,-0.251728,0.82984,-0.00897832,-0.528298,0.467021,-0.010483,0.0120249,2.27683,5,0.1,5,2.1,1.09238,-0.227541,0.598172,0.255705,0.112938,-0.000150595,-0.358008,-0.41985,-0.0130646,0.00951532,0.243669,5,0.1,6,2.1,-1.00985,-4.25845,0.569891,-0.551788,-0.0193924,-0.00920622,0.423595,0.0194907,0.00912324,0.00744897,0.14408,5,0.1,7,2.1,-3.32764,-2.27068,0.585695,0.256464,0.73773,0.0142486,-0.161663,-0.58195,-0.0144131,0.00920988,0.272785,5,0.1,8,2.1,-3.31155,0.87606,0.59115,0.350965,0.360097,0.00202172,-0.532553,-0.42567,-0.00351667,0.00976825,0.531091,5,0.1,9,2.1,-2.13007,3.62291,0.723327,0.852904,0.372333,0.0232541,-0.0675917,-0.196412,-0.0122525,0.0167855,0.86415,5,0.1,10,2.1,-1.59494,4.0819,0.64846,0.504566,0.209588,0.043634,-0.414439,-0.207245,-0.0431389,0.00848337,0.13354,5,0.1,11,2.1,-1.06102,3.96333,0.732054,0.281364,0.0886716,0.0183564,-0.817321,-0.0877678,-0.0181794,0.00750854,0.503488,5,0.1,12,2.1,3.58752,2.18633,0.624739,-0.120761,0.668757,-0.0167307,0.346661,-0.40333,0.0192225,0.0170326,0.479421,5,0.1,13,2.1,-0.835767,-0.017326,0.628285,0.53918,0.644432,-0.0242129,-0.240047,0.375011,0.0118241,0.0339528,1.25808,5,0.1,14,2.1,-2.64693,-3.54988,0.60559,0.866026,0.426319,0.000329781,0,0.177428,-0.00556186,0.0135286,2.14983,5,0.1,15,2.1,3.31705,2.23052,0.598777,0.0219721,0.652574,0.00125282,-0.241652,0.33997,-0.0012368,0.00917965,0.955761,5,0.1,16,2.1,1.28924,0.0394816,0.617258,-0.0905789,-0.277599,-0.011524,0.522211,1.11021,0.0581145,0.00964548,0.639748,5,0.1,17,2.1,-0.358568,1.32696,0.595105,0.308241,0.74483,0.00281129,-1.12137,-0.777178,-0.0107735,0.011881,1.45984,5,0.1,18,2.1,-3.19579,-1.69981,0.59451,-0.146981,0.00429563,0.00789873,0.112057,0.0695884,-0.00621378,0.00774133,0.489586,5,0.1,19,2.1,3.50173,-0.525501,0.565851,-0.0216875,0.866026,0.0143122,0.00180304,-3.57628e-06,-0.0012368,0.0179569,2.27149,5,0.1,20,2.1,0.278703,-0.671939,0.568799,0.855101,0.543065,-0.00930671,-0.0426312,-0.187244,0.0031814,0.013874,1.06272,5,0.1,21,2.1,-2.9642,-3.24131,0.563017,-0.572802,0.168641,-0.00770409,0.389442,-0.389382,-0.0328869,0.00907904,0.229535,5,0.1,22,2.1,3.69121,0.140377,0.596039,-0.165795,0.866025,0.00167796,0.0135154,7.45058e-07,-0.000130385,0.0131801,2.25431,5,0.1,23,2.1,-1.87354,-0.364326,0.553736,0.403397,-0.165585,-0.0582431,0.207148,-0.0242777,0.0285693,0.00918881,1.33362,5,0.1,24,2.1,-0.0645495,-1.76772,0.635522,-0.817953,-0.20549,-0.0243087,0.354438,0.878267,-0.000495464,0.00982667,0.404472,5,0.1,25,2.1,-2.9891,-0.628938,0.500001,0.860355,0.309416,-1.21072e-06,0.00821054,-0.0272617,1.11759e-05,0.0120852,1.08622,5,0.1,26,2.1,1.66698,-1.59936,0.63074,-0.064753,-0.407598,0.00244761,0.102699,0.244662,-0.00137463,0.0098673,0.12256,5,0.1,27,2.1,4.22115,1.51239,0.654506,0.115725,0.648407,0.0341962,-0.110149,-0.416137,-0.0325777,0.00952127,0.227435,5,0.1,28,2.1,3.06397,2.93859,0.592285,-0.304444,-0.0515055,0.00789138,-0.191465,-0.0506788,-0.00781938,0.0200394,0.152751,5,0.1,29,2.1,-2.2481,4.04243,0.576839,0.86533,0.00621304,0.0192884,-0.0038594,-0.00497699,-0.00905246,0.0104255,1.25996,5,0.1,30,2.1,0.0119015,-3.39482,0.582383,-0.319082,0.263699,0.018015,0.316063,-0.282601,-0.0178404,0.00986445,0.135966,5,0.1,31,2.1,3.92824,-1.7577,0.502063,-0.156013,0.866025,-0.0084932,0.00609457,1.49012e-05,0.0200234,0.0216759,2.25613,5,0.1,32,2.1,-3.25637,1.21662,0.614273,0.213009,0.205439,-0.0171851,-0.423297,0.121906,0.0679567,0.00794218,0.269565,5,0.1,33,2.1,-0.330509,1.94842,0.614002,-0.21831,-0.568684,-0.0139572,0.294428,0.576966,0.0206605,0.00995484,0.450769,5,0.1,34,2.1,-1.63216,-0.200508,0.616774,0.296883,-0.000874815,0.0268029,0.308886,0.0674902,0.141986,0.00823392,0.250212,5,0.1,35,2.1,-1.08205,1.9495,0.602925,0.118463,-0.341005,-0.00332221,0.162035,0.174329,0.00168383,0.0119493,0.0867584,5,0.1,36,2.1,-2.87549,3.18837,0.729526,0.823038,-0.643304,0.0166375,-0.196964,0.24423,-0.00649691,0.015876,0.860074,5,0.1,37,2.1,0.310694,2.48543,0.599446,-0.474638,-0.423177,0.000483729,-0.289807,1.27052,-0.000573695,0.0207426,2.85529,5,0.1,38,2.1,3.79909,-2.77698,0.637156,-0.0887014,0.866026,-0.00785682,-0.00351667,0,0.000797212,0.0201289,2.26715,5,0.1,39,2.1,-2.47898,1.60564,0.615595,0.592838,0.0453686,-0.0159522,-0.29631,-0.0449494,0.0157915,0.00767192,0.209445,5,0.1
0,2.2,-0.498503,-1.49376,0.577544,0.163361,0.863233,0.0184804,-0.0855476,-0.0557899,-0.00965595,0.0184425,1.09886,5,0.1,1,2.2,3.46249,-1.28728,0.580281,-0.00406504,0.866026,0.00645071,0.000834465,0,-0.0013411,0.0214529,2.27189,5,0.1,2,2.2,1.33482,-2.31034,0.581477,-0.171235,0.866026,0.011076,0.528276,0,-0.00223517,0.0149384,0.698036,5,0.1,3,2.2,-3.38391,-1.45488,0.645507,-0.226778,0.273257,0.054206,-0.591755,-0.329196,0.0708103,0.00800417,0.20455,5,0.1,4,2.2,1.94922,-0.712436,0.62731,-0.297943,0.859751,-0.00989139,-0.376701,0.125498,-0.00718236,0.0124587,2.19727,5,0.1,5,2.2,1.11612,-0.21834,0.598093,0.218743,0.0713963,-0.00142455,-0.378668,-0.401519,-0.0119209,0.00927355,0.439674,5,0.1,6,2.2,-1.06289,-4.2603,0.569015,-0.508279,-0.0174761,-0.00830442,0.458896,0.0195503,0.00908971,0.00710301,0.0965736,5,0.1,7,2.2,-3.30292,-2.2001,0.587048,0.236756,0.671059,0.0128016,-0.231981,-0.749707,-0.014782,0.00925841,0.243854,5,0.1,8,2.2,-3.27926,0.910028,0.591337,0.293458,0.319876,0.00173151,-0.60606,-0.388473,-0.00241399,0.00961,0.380384,5,0.1,9,2.2,-2.04532,3.6591,0.725588,0.839281,0.350767,0.0219092,-0.234663,-0.243902,-0.015229,0.01665,0.606674,5,0.1,10,2.2,-1.54657,4.10184,0.65261,0.462484,0.189102,0.0393689,-0.438273,-0.207186,-0.0430942,0.00994962,0.154445,5,0.1,11,2.2,-1.03687,3.97176,0.7338,0.202921,0.0799894,0.0165597,-0.742257,-0.0874996,-0.0181496,0.00729153,0.500086,5,0.1,12,2.2,3.57708,2.25107,0.623159,-0.0890911,0.624382,-0.0148788,0.287414,-0.496864,0.0182092,0.0112304,0.37653,5,0.1,13,2.2,-0.783237,0.0488943,0.625927,0.509347,0.67789,-0.0228956,-0.363857,0.251644,0.01508,0.0370296,0.929242,5,0.1,14,2.2,-2.56033,-3.50643,0.605595,0.866026,0.441343,-0.000217557,0,0.0977516,-0.00521541,0.0097577,2.13891,5,0.1,15,2.2,3.31794,2.29726,0.598896,-0.00485182,0.679308,0.001131,-0.280023,0.16129,-0.0012517,0.00930254,0.71256,5,0.1,16,2.2,1.28304,0.017584,0.616415,-0.0318319,-0.158503,-0.00522733,0.620365,1.22262,0.0648797,0.00955586,0.391141,5,0.1,17,2.2,-0.332848,1.39718,0.595327,0.212094,0.656182,0.00157952,-0.768736,-0.980496,-0.0131726,0.0108991,1.27735,5,0.1,18,2.2,-3.20988,-1.69911,0.595266,-0.134212,0.00869036,0.00719428,0.143409,0.0154972,-0.00786781,0.00974607,2.03191,5,0.1,19,2.2,3.49957,-0.438899,0.567274,-0.0213921,0.866025,0.0141144,0.00500679,1.43051e-05,-0.00333786,0.0213243,2.27151,5,0.1,20,2.2,0.363808,-0.618678,0.567886,0.844263,0.52066,-0.00892282,-0.205846,-0.275761,0.00467896,0.0114205,0.74955,5,0.1,21,2.2,-3.01949,-3.22642,0.562099,-0.532067,0.129217,-0.0104606,0.438571,-0.392079,-0.0217855,0.00888055,0.173316,5,0.1,22,2.2,3.67472,0.22698,0.596206,-0.163573,0.866025,0.00165552,0.0377893,1.43051e-05,-0.000357628,0.0131384,2.25517,5,0.1,23,2.2,-1.83208,-0.380835,0.548071,0.42569,-0.162914,-0.054872,0.202954,0.0755638,0.0398159,0.00989382,1.10585,5,0.1,24,2.2,-0.1443,-1.78416,0.633096,-0.774006,-0.126329,-0.024119,0.536717,0.698447,0.005126,0.0116367,2.91291,5,0.1,25,2.2,-2.9032,-0.598176,0.500001,0.854945,0.305067,0,-0.151157,-0.0725389,-2.98023e-05,0.0135724,0.781338,5,0.1,26,2.2,1.66098,-1.63898,0.630978,-0.0553817,-0.38535,0.00232309,0.0867248,0.220001,-0.0012219,0.010441,0.0713627,5,0.1,27,2.2,4.23217,1.57508,0.657764,0.104761,0.604299,0.0309542,-0.11158,-0.48089,-0.0329614,0.0123178,0.152602,5,0.1,28,2.2,3.03274,2.93323,0.593036,-0.318098,-0.0552714,0.00711977,-0.0700951,-0.0228882,-0.00783801,0.0183541,0.182088,5,0.1,29,2.2,-2.1617,4.04303,0.578719,0.861067,0.0056386,0.0182629,-0.0993013,-0.00667572,-0.0118613,0.0111896,0.951794,5,0.1,30,2.2,-0.0184444,-3.37002,0.584096,-0.28784,0.230777,0.0162512,0.315598,-0.368357,-0.017792,0.0112271,0.229337,5,0.1,31,2.2,3.91269,-1.6711,0.501315,-0.154567,0.866026,-0.00647604,0.0294447,-5.96046e-05,0.0199974,0.0226979,2.25668,5,0.1,32,2.2,-3.23726,1.23804,0.61293,0.168633,0.224787,-0.00942349,-0.454664,0.229955,0.0831187,0.00875876,0.231176,5,0.1,33,2.2,-0.35072,1.8948,0.612714,-0.184675,-0.500327,-0.0117689,0.368744,0.77337,0.0227988,0.00813374,0.203211,5,0.1,34,2.2,-1.60111,-0.2,0.620143,0.322145,0.0134844,0.0402346,0.180483,0.211619,0.121266,0.00906465,0.225247,5,0.1,35,2.2,-1.06946,1.91629,0.602602,0.132579,-0.32275,-0.00314415,0.111878,0.201702,0.00190735,0.0142612,0.07929,5,0.1,36,2.2,-2.79436,3.12538,0.731154,0.796956,-0.614649,0.0158846,-0.348806,0.345945,-0.0090301,0.0140534,0.590758,5,0.1,37,2.2,0.261691,2.449,0.599491,-0.505216,-0.310874,0.000421703,-0.278473,0.941038,-0.000655651,0.0180551,0.690729,5,0.1,38,2.2,3.79023,-2.69038,0.636374,-0.0880718,0.866026,-0.00777394,0.0188351,0,0.0012815,0.0189766,2.26729,5,0.1,39,2.2,-2.42128,1.60996,0.614078,0.559747,0.0409275,-0.0143915,-0.379562,-0.0448823,0.0157654,0.0100848,0.140655,5,0.1
0,2.3,-0.482565,-1.40748,0.579347,0.15553,0.863626,0.0175962,-0.076808,0.0202209,-0.00867993,0.0184425,1.09886,5,0.1,1,2.3,3.46208,-1.20068,0.580922,-0.00402592,0.866026,0.00638617,0.000193715,0,-0.000339001,0.0214529,2.27189,5,0.1,2,2.3,1.32024,-2.22377,0.582578,-0.121311,0.864494,0.0109752,0.466578,-0.0495464,-0.00045076,0.0149384,0.698036,5,0.1,3,2.3,-3.40918,-1.42871,0.651277,-0.27494,0.254375,0.0610514,-0.367224,-0.0808164,0.0620112,0.00800417,0.20455,5,0.1,4,2.3,1.91751,-0.626077,0.626282,-0.335851,0.865633,-0.0106722,-0.35622,0.0156835,-0.0076443,0.0124587,2.19727,5,0.1,5,2.3,1.13661,-0.212881,0.597903,0.195461,0.0407869,-0.00224328,-0.116423,-0.221952,-0.00483915,0.00927355,0.439674,5,0.1,6,2.3,-1.11156,-4.26195,0.568227,-0.466098,-0.0156984,-0.00747582,0.399649,0.0165105,0.00771508,0.00710301,0.0965736,5,0.1,7,2.3,-3.28045,-2.13692,0.588257,0.212278,0.590748,0.0113964,-0.257269,-0.848845,-0.0135526,0.00925841,0.243854,5,0.1,8,2.3,-3.253,0.940532,0.591504,0.231642,0.294045,0.00166055,-0.619978,-0.15806,0.000618398,0.00961,0.380384,5,0.1,9,2.3,-1.96243,3.69303,0.727707,0.818858,0.328179,0.0204986,-0.208445,-0.218838,-0.0136644,0.01665,0.606674,5,0.1,10,2.3,-1.50215,4.11986,0.656363,0.42881,0.17272,0.0359621,-0.263423,-0.131458,-0.0273362,0.00994962,0.154445,5,0.1,11,2.3,-1.02015,3.97935,0.735371,0.133183,0.0720117,0.0149056,-0.640906,-0.0743419,-0.0154078,0.00729153,0.500086,5,0.1,12,2.3,3.56935,2.31112,0.621751,-0.0677221,0.577309,-0.0133667,0.15083,-0.460789,0.0127628,0.0112304,0.37653,5,0.1,13,2.3,-0.734102,0.118119,0.623708,0.473285,0.707184,-0.0214992,-0.367887,0.288322,0.013575,0.0370296,0.929242,5,0.1,14,2.3,-2.47373,-3.46167,0.605546,0.866026,0.454588,-0.000761077,0,0.137672,-0.00542402,0.0097577,2.13891,5,0.1,15,2.3,3.31618,2.36608,0.599003,-0.029245,0.697049,0.001017,-0.21258,0.156075,-0.00106543,0.00930254,0.71256,5,0.1,16,2.3,1.28306,0.00792847,0.616234,0.0326356,-0.0347264,0.0016965,0.644721,1.21652,0.0707284,0.00955586,0.391141,5,0.1,17,2.3,-0.314908,1.45803,0.595414,0.154482,0.562225,0.000145379,-0.312649,-0.897706,-0.0147335,0.0108991,1.27735,5,0.1,18,2.3,-3.22263,-1.69804,0.595948,-0.121165,0.0130152,0.0064576,0.121459,0.0306591,-0.0070259,0.00974607,2.03191,5,0.1,19,2.3,3.49745,-0.352296,0.568675,-0.0211176,0.866025,0.0139312,0.00171363,-1.78814e-06,-0.00115111,0.0213243,2.27151,5,0.1,20,2.3,0.447299,-0.567924,0.567015,0.825628,0.494668,-0.00851536,-0.200201,-0.260696,0.00382587,0.0114205,0.74955,5,0.1,21,2.3,-3.07063,-3.21541,0.560953,-0.491703,0.0915401,-0.0123712,0.384808,-0.356346,-0.0158809,0.00888055,0.173316,5,0.1,22,2.3,3.65849,0.313582,0.59637,-0.161539,0.866025,0.00163671,0.0124723,-1.78814e-06,-0.000111759,0.0131384,2.25517,5,0.1,23,2.3,-1.78807,-0.396523,0.542791,0.457468,-0.148853,-0.0506121,0.38258,0.195652,0.0458024,0.00989382,1.10585,5,0.1,24,2.3,-0.219809,-1.79336,0.63071,-0.742427,-0.0597119,-0.0235574,0.159354,0.583515,0.00684708,0.0116367,2.91291,5,0.1,25,2.3,-2.8183,-0.56796,0.500001,0.843606,0.29959,-2.04891e-06,-0.115246,-0.0515021,-7.45058e-06,0.0135724,0.781338,5,0.1,26,2.3,1.65584,-1.67656,0.631205,-0.0476971,-0.367093,0.0022226,0.0687242,0.162803,-0.000897795,0.010441,0.0713627,5,0.1,27,2.3,4.24212,1.63324,0.660704,0.094562,0.559853,0.0279422,-0.0953376,-0.426151,-0.028152,0.0123178,0.152602,5,0.1,28,2.3,3.00034,2.92762,0.593714,-0.331675,-0.0565216,0.00650007,-0.170887,-0.0013113,-0.00496954,0.0183541,0.182088,5,0.1,29,2.3,-2.07615,4.04357,0.580459,0.848648,0.00549927,0.0162968,-0.176691,0.00265241,-0.0261143,0.0111896,0.951794,5,0.1,30,2.3,-0.0458851,-3.3489,0.585645,-0.262888,0.190859,0.0148448,0.200263,-0.421032,-0.0112839,0.0112271,0.229337,5,0.1,31,2.3,3.89732,-1.5845,0.500764,-0.153343,0.866025,-0.00456655,0.00441074,1.49012e-05,0.0179596,0.0226979,2.25668,5,0.1,32,2.3,-3.22265,1.26198,0.612415,0.124074,0.256313,-0.000824407,-0.430107,0.3644,0.0859201,0.00875876,0.231176,5,0.1,33,2.3,-0.367286,1.84884,0.611654,-0.146261,-0.417339,-0.00939872,0.391608,0.870004,0.0241697,0.00813374,0.203211,5,0.1,34,2.3,-1.56803,-0.197231,0.624823,0.338676,0.0447454,0.0536372,0.133924,0.383538,0.138272,0.00906465,0.225247,5,0.1,35,2.3,-1.05587,1.88488,0.602295,0.136962,-0.306308,-0.00298861,-0.0190511,0.143334,0.00135601,0.0142612,0.07929,5,0.1,36,2.3,-2.71629,3.06554,0.7327,0.764907,-0.582661,0.0150539,-0.320852,0.314415,-0.00812113,0.0140534,0.590758,5,0.1,37,2.3,0.209981,2.4219,0.59953,-0.526543,-0.238401,0.000367314,-0.132255,0.512898,-0.000454485,0.0180551,0.690729,5,0.1,38,2.3,3.7815,-2.60377,0.635599,-0.0867743,0.866026,-0.00776313,0.0115484,0,-0.00051409,0.0189766,2.26729,5,0.1,39,2.3,-2.3671,1.61384,0.612712,0.524384,0.036837,-0.0129544,-0.344843,-0.0380948,0.013385,0.0100848,0.140655,5,0.1
0,2.4,-0.46742,-1.32117,0.581061,0.147031,0.860158,0.0166357,-0.0971407,-0.117421,-0.0109673,0.0215001,0.80035,5,0.1,1,2.4,3.46168,-1.11408,0.581558,-0.00398755,0.866026,0.00631809,0.000834465,0,-0.0012815,0.0177162,2.27189,5,0.1,2,2.4,1.31032,-2.13783,0.583671,-0.0785112,0.850892,0.0108719,0.387073,-0.255704,-0.00211596,0.0214242,0.197774,5,0.1,3,2.4,-3.43811,-1.40348,0.65765,-0.299698,0.251392,0.0659212,-0.126958,-0.00339746,0.0326037,0.0206363,3.7484,5,0.1,4,2.4,1.88235,-0.539482,0.625181,-0.364915,0.866026,-0.0112861,-0.207543,0,-0.00411272,0.0137391,2.21382,5,0.1,5,2.4,1.15581,-0.209692,0.597664,0.190237,0.0249431,-0.00246465,-0.0107288,-0.104278,0.000119209,0.00896278,2.23032,5,0.1,6,2.4,-1.15617,-4.26344,0.567517,-0.425825,-0.0140905,-0.00672042,0.416279,0.0162125,0.00753999,0.00730765,0.111927,5,0.1,7,2.4,-3.26055,-2.0822,0.589329,0.185418,0.502795,0.0100538,-0.279188,-0.90313,-0.0134408,0.00686304,0.746725,5,0.1,8,2.4,-3.23289,0.969325,0.591676,0.171268,0.283001,0.00178963,-0.579834,-0.0855029,0.00163913,0.0095806,0.283722,5,0.1,9,2.4,-1.88178,3.72472,0.729686,0.791758,0.305158,0.0190601,-0.357389,-0.249147,-0.015527,0.00933603,0.685562,5,0.1,10,2.4,-1.46049,4.13653,0.659833,0.4049,0.160885,0.0335023,-0.235498,-0.113249,-0.0236332,0.0102946,0.0899493,5,0.1,11,2.4,-1.00979,3.98619,0.736786,0.0765383,0.0647366,0.0133976,-0.485659,-0.0728369,-0.01508,0.00706009,0.485395,5,0.1,12,2.4,3.56318,2.3665,0.620474,-0.0569642,0.529522,-0.0121996,0.0730753,-0.505924,0.0111163,0.0113946,0.426247,5,0.1,13,2.4,-0.688689,0.190031,0.621629,0.434047,0.727751,-0.0200585,-0.423521,0.0908744,0.0157654,0.032322,0.663259,5,0.1,14,2.4,-2.38712,-3.41565,0.605444,0.866026,0.463849,-0.00126362,0,0.0268221,-0.00447035,0.0149632,1.99225,5,0.1,15,2.4,3.31228,2.43631,0.599099,-0.0480175,0.704199,0.000913441,-0.164747,-0.0388622,-0.00104308,0.00906619,0.611433,5,0.1,16,2.4,1.28942,0.0102816,0.616747,0.0929266,0.0785406,0.00842363,0.543654,1.02261,0.0616908,0.00841306,0.262943,5,0.1,17,2.4,-0.3,1.5099,0.595357,0.153352,0.476682,-0.0012368,0.257075,-0.813663,-0.0123978,0.0106846,0.694303,5,0.1,18,2.4,-3.23415,-1.6968,0.596559,-0.109249,0.00907481,0.00576228,0.119567,-0.12666,-0.00700355,0.0088954,2.91038,5,0.1,19,2.4,3.49535,-0.265694,0.57006,-0.0208318,0.866025,0.0137419,0.00476837,0,-0.00315905,0.0183204,2.27153,5,0.1,20,2.4,0.528648,-0.519846,0.566184,0.798623,0.465736,-0.0080958,-0.362486,-0.329137,0.00479817,0.0114911,0.525194,5,0.1,21,2.4,-3.11786,-3.20794,0.55965,-0.452381,0.0587881,-0.0135481,0.412583,-0.295401,-0.00733137,0.00890294,0.13482,5,0.1,22,2.4,3.64242,0.400185,0.596533,-0.159442,0.866025,0.00161678,0.0361204,1.43051e-05,-0.000357628,0.0132375,2.25599,5,0.1,23,2.4,-1.74045,-0.410301,0.537972,0.493547,-0.125619,-0.0456542,0.302374,0.260681,0.0535548,0.0129261,0.880149,5,0.1,24,2.4,-0.293443,-1.79691,0.628397,-0.730897,-0.0167668,-0.0226274,0.119134,0.254273,0.0122786,0.0110554,2.87077,5,0.1,25,2.4,-2.73472,-0.538321,0.500001,0.825197,0.292312,-2.98023e-06,-0.280261,-0.104189,0,0.0134366,0.546592,5,0.1,26,2.4,1.6514,-1.71243,0.631423,-0.0413299,-0.349775,0.00212491,0.0598431,0.196099,-0.00113249,0.0108005,0.0555455,5,0.1,27,2.4,4.25111,1.68706,0.66336,0.085187,0.516009,0.025174,-0.0944138,-0.463128,-0.0278056,0.00960984,0.102273,5,0.1,28,2.4,2.96635,2.922,0.594341,-0.347006,-0.0554144,0.00605285,-0.113726,0.0237226,-0.00426173,0.0206533,0.112401,5,0.1,29,2.4,-1.99248,4.04415,0.581944,0.821176,0.00596046,0.0132844,-0.39053,0.00572205,-0.0330508,0.0117858,2.53324,5,0.1,30,2.4,-0.07125,-3.33194,0.587078,-0.244861,0.148195,0.0138283,0.172715,-0.4251,-0.00971556,0.0129177,0.209621,5,0.1,31,2.4,3.88203,-1.49789,0.500393,-0.152075,0.866026,-0.00292212,0.0276566,-5.96046e-05,0.0147521,0.0249712,2.25717,5,0.1,32,2.4,-3.21231,1.28941,0.612747,0.0837028,0.291395,0.00725091,-0.372767,0.310779,0.0734627,0.00973196,0.199885,5,0.1,33,2.4,-0.379971,1.8115,0.610835,-0.10775,-0.329295,-0.00701398,0.372574,0.877738,0.0231862,0.0100722,1.08355,5,0.1,34,2.4,-1.53367,-0.190759,0.630848,0.346234,0.0849064,0.0664204,0.00649691,0.3969,0.111252,0.00838134,0.201631,5,0.1,35,2.4,-1.04245,1.85498,0.602003,0.129792,-0.291327,-0.00284612,-0.119269,0.167668,0.00160933,0.0158886,0.141056,5,0.1,36,2.4,-2.64155,3.00894,0.734163,0.727957,-0.548297,0.014168,-0.437737,0.386715,-0.00992417,0.0153286,0.400017,5,0.1,37,2.4,0.157011,2.4,0.599565,-0.529141,-0.205159,0.000327826,0.0897205,0.178576,-0.00038743,0.0237617,1.54352,5,0.1,38,2.4,3.77289,-2.51717,0.634821,-0.0850201,0.866026,-0.00778288,0.0268221,0,0.000506639,0.020481,2.26758,5,0.1,39,2.4,-2.31644,1.61734,0.611483,0.487888,0.0331104,-0.0116438,-0.396848,-0.0372529,0.0130832,0.010344,0.161577,5,0.1
