id,t,px,py,pz,vx,vy,vz,ax,ay,az,planning_time,qp_cost,planning_report,size,id,t,px,py,pz,vx,vy,vz,ax,ay,az,planning_time,qp_cost,planning_report,size,id,t,px,py,pz,vx,vy,vz,ax,ay,az,planning_time,qp_cost,planning_report,size,id,t,px,py,pz,vx,vy,vz,ax,ay,az,planning_time,qp_cost,planning_report,size,id,t,px,py,pz,vx,vy,vz,ax,ay,az,planning_time,qp_cost,planning_report,size,id,t,px,py,pz,vx,vy,vz,ax,ay,az,planning_time,qp_cost,planning_report,size,id,t,px,py,pz,vx,vy,vz,ax,ay,az,planning_time,qp_cost,planning_report,size,id,t,px,py,pz,vx,vy,vz,ax,ay,az,planning_time,qp_cost,planning_report,size,id,t,px,py,pz,vx,vy,vz,ax,ay,az,planning_time,qp_cost,planning_report,size,id,t,px,py,pz,vx,vy,vz,ax,ay,az,planning_time,qp_cost,planning_report,size,id,t,px,py,pz,vx,vy,vz,ax,ay,az,planning_time,qp_cost,planning_report,size,id,t,px,py,pz,vx,vy,vz,ax,ay,az,planning_time,qp_cost,planning_report,size,id,t,px,py,pz,vx,vy,vz,ax,ay,az,planning_time,qp_cost,planning_report,size,id,t,px,py,pz,vx,vy,vz,ax,ay,az,planning_time,qp_cost,planning_report,size,id,t,px,py,pz,vx,vy,vz,ax,ay,az,planning_time,qp_cost,planning_report,size,id,t,px,py,pz,vx,vy,vz,ax,ay,az,planning_time,qp_cost,planning_report,size,id,t,px,py,pz,vx,vy,vz,ax,ay,az,planning_time,qp_cost,planning_report,size,id,t,px,py,pz,vx,vy,vz,ax,ay,az,planning_time,qp_cost,planning_report,size,id,t,px,py,pz,vx,vy,vz,ax,ay,az,planning_time,qp_cost,planning_report,size,id,t,px,py,pz,vx,vy,vz,ax,ay,az,planning_time,qp_cost,planning_report,size,id,t,px,py,pz,vx,vy,vz,ax,ay,az,planning_time,qp_cost,planning_report,size,id,t,px,py,pz,vx,vy,vz,ax,ay,az,planning_time,qp_cost,planning_report,size,id,t,px,py,pz,vx,vy,vz,ax,ay,az,planning_time,qp_cost,planning_report,size,id,t,px,py,pz,vx,vy,vz,ax,ay,az,planning_time,qp_cost,planning_report,size,id,t,px,py,pz,vx,vy,vz,ax,ay,az,planning_time,qp_cost,planning_report,size,id,t,px,py,pz,vx,vy,vz,ax,ay,az,planning_time,qp_cost,planning_report,size,id,t,px,py,pz,vx,vy,vz,ax,ay,az,planning_time,qp_cost,planning_report,size,id,t,px,py,pz,vx,vy,vz,ax,ay,az,planning_time,qp_cost,planning_report,size,id,t,px,py,pz,vx,vy,vz,ax,ay,az,planning_time,qp_cost,planning_report,size,id,t,px,py,pz,vx,vy,vz,ax,ay,az,planning_time,qp_cost,planning_report,size,id,t,px,py,pz,vx,vy,vz,ax,ay,az,planning_time,qp_cost,planning_report,size,id,t,px,py,pz,vx,vy,vz,ax,ay,az,planning_time,qp_cost,planning_report,size,id,t,px,py,pz,vx,vy,vz,ax,ay,az,planning_time,qp_cost,planning_report,size,id,t,px,py,pz,vx,vy,vz,ax,ay,az,planning_time,qp_cost,planning_report,size,id,t,px,py,pz,vx,vy,vz,ax,ay,az,planning_time,qp_cost,planning_report,size,id,t,px,py,pz,vx,vy,vz,ax,ay,az,planning_time,qp_cost,planning_report,size,id,t,px,py,pz,vx,vy,vz,ax,ay,az,planning_time,qp_cost,planning_report,size,id,t,px,py,pz,vx,vy,vz,ax,ay,az,planning_time,qp_cost,planning_report,size,id,t,px,py,pz,vx,vy,vz,ax,ay,az,planning_time,qp_cost,planning_report,size,id,t,px,py,pz,vx,vy,vz,ax,ay,az,planning_time,qp_cost,planning_report,size
0,0,-3.5238,-1.5746,0.677168,0,0,0,0,0,0,0.0513015,3.5122,5,0.1,1,0,1.74371,-0.753615,0.660957,0,0,0,0,0,0,0.0138313,3.5122,5,0.1,2,0,-3.44923,-3.62412,0.628101,0,0,0,0,0,0,0.023374,2.93538,5,0.1,3,0,-0.272962,-1.24286,0.668955,0,0,0,0,0,0,0.0124861,1.36114,5,0.1,4,0,3.46303,-0.162439,0.553631,0,0,0,0,0,0,0.0171587,3.5122,5,0.1,5,0,-0.284757,-3.81181,0.576772,0,0,0,0,0,0,0.0302804,3.51219,5,0.1,6,0,-3.96854,-0.435826,0.565006,0,0,0,0,0,0,0.0134383,3.5122,5,0.1,7,0,1.22297,2.63561,0.533073,0,0,0,0,0,0,0.0113341,0.659114,5,0.1,8,0,2.06963,-1.96874,0.635865,0,0,0,0,0,0,0.020338,0.938992,5,0.1,9,0,-1.48092,-2.13038,0.69452,0,0,0,0,0,0,0.0123903,1.22898,5,0.1,10,0,3.49369,3.98415,0.548477,0,0,0,0,0,0,0.0116885,1.16642,5,0.1,11,0,0.3451,-1.32489,0.635935,0,0,0,0,0,0,0.0119148,1.57856,5,0.1,12,0,1.11676,-4.02937,0.513856,0,0,0,0,0,0,0.029837,2.23311,5,0.1,13,0,3.46271,2.75521,0.58288,0,0,0,0,0,0,0.0123925,1.76763,5,0.1,14,0,3.25392,3.37937,0.548008,0,0,0,0,0,0,0.0089605,0.441824,5,0.1,15,0,-2.59047,2.70099,0.673555,0,0,0,0,0,0,0.0106778,0.632935,5,0.1,16,0,-2.86097,3.2366,0.698302,0,0,0,0,0,0,0.0150725,1.60527,5,0.1,17,0,1.78817,-4.33129,0.622318,0,0,0,0,0,0,0.0109971,3.51219,5,0.1,18,0,-2.20459,3.84588,0.529661,0,0,0,0,0,0,0.0153864,2.38432,5,0.1,19,0,4.12752,0.878365,0.660063,0,0,0,0,0,0,0.0154235,3.5122,5,0.1,20,0,-1.24164,3.47001,0.692937,0,0,0,0,0,0,0.0111846,0.400712,5,0.1,21,0,1.90549,0.223242,0.582473,0,0,0,0,0,0,0.0128091,1.12838,5,0.1,22,0,-4.35424,-1.95484,0.502865,0,0,0,0,0,0,0.0100524,1.69446,5,0.1,23,0,4.29161,1.71178,0.592432,0,0,0,0,0,0,0.0171161,2.60154,5,0.1,24,0,-3.47919,-2.25492,0.597547,0,0,0,0,0,0,0.0101261,0.416461,5,0.1,25,0,4.27887,3.74923,0.67003,0,0,0,0,0,0,0.0127841,3.5122,5,0.1,26,0,0.729419,-0.847643,0.537191,0,0,0,0,0,0,0.01407,3.51219,5,0.1,27,0,-0.100946,2.7249,0.547233,0,0,0,0,0,0,0.00909902,2.22792,5,0.1,28,0,0.522473,3.29013,0.639147,0,0,0,0,0,0,0.0177397,3.31103,5,0.1,29,0,3.89191,-3.98953,0.619567,0,0,0,0,0,0,0.00872687,0.351364,5,0.1,30,0,2.29541,0.690772,0.509186,0,0,0,0,0,0,0.01271,3.51376,5,0.1,31,0,-4.18735,-3.42581,0.654242,0,0,0,0,0,0,0.0150101,3.51307,5,0.1,32,0,-1.09404,0.241773,0.50358,0,0,0,0,0,0,0.00985984,0.90364,5,0.1,33,0,2.25415,2.89539,0.509867,0,0,0,0,0,0,0.00994911,0.973172,5,0.1,34,0,-2.75745,-3.62834,0.693182,0,0,0,0,0,0,0.0207026,1.28061,5,0.1,35,0,-3.42182,2.84115,0.514897,0,0,0,0,0,0,0.0133452,1.09135,5,0.1,36,0,-1.42678,-3.29303,0.538309,0,0,0,0,0,0,0.00960522,2.70219,5,0.1,37,0,3.88339,-2.60786,0.597399,0,0,0,0,0,0,0.00882157,3.51219,5,0.1,38,0,-3.79519,-2.97659,0.583654,0,0,0,0,0,0,0.0152884,1.91096,5,0.1,39,0,-0.565888,1.29894,0.577856,0,0,0,0,0,0,0.0216482,2.25845,5,0.1
0,0.1,-3.52222,-1.57324,0.677204,0.0449151,0.038657,0.00101477,0.798494,0.687227,0.0180453,0.0513015,3.5122,5,0.1,1,0.1,1.74185,-0.754567,0.660902,-0.0527365,-0.0270014,-0.001573,-0.937544,-0.480022,-0.027962,0.0138313,3.5122,5,0.1,2,0.1,-3.44735,-3.62378,0.628071,0.0533178,0.00960417,-0.000832789,0.947893,0.170752,-0.0148043,0.023374,2.93538,5,0.1,3,0.1,-0.27299,-1.24156,0.668883,-0.00080117,0.036831,-0.00204332,-0.0142436,0.654764,-0.0363216,0.0124861,1.36114,5,0.1,4,0.1,3.46302,-0.160351,0.553669,-0.000302121,0.0592578,0.00107232,-0.00534952,1.05347,0.019066,0.0171587,3.5122,5,0.1,5,0.1,-0.284765,-3.80973,0.576784,-0.000236975,0.0592671,0.000360981,-0.00421144,1.05363,0.0064224,0.0302804,3.51219,5,0.1,6,0.1,-3.96806,-0.437859,0.565031,0.0134703,-0.0577128,0.000705011,0.239477,-1.026,0.0125393,0.0134383,3.5122,5,0.1,7,0.1,1.22216,2.63521,0.533143,-0.0229061,-0.0114273,0.00198334,-0.407219,-0.203148,0.0352636,0.0113341,0.659114,5,0.1,8,0.1,2.06857,-1.96856,0.635827,-0.0302158,0.00500027,-0.00106283,-0.537187,0.0888929,-0.0188947,0.020338,0.938992,5,0.1,9,0.1,-1.48109,-2.1316,0.694578,-0.00501089,-0.0346608,0.00164425,-0.0890791,-0.616193,0.0292324,0.0123903,1.22898,5,0.1,10,0.1,3.49287,3.98328,0.548531,-0.0235211,-0.0247188,0.00152672,-0.418141,-0.439465,0.0271462,0.0116885,1.16642,5,0.1,11,0.1,0.344427,-1.32366,0.635897,-0.019117,0.0348167,-0.00106487,-0.339858,0.618972,-0.0189319,0.0119148,1.57856,5,0.1,12,0.1,1.11528,-4.02861,0.51379,-0.0419844,0.0216141,-0.00189235,-0.746384,0.384271,-0.0336431,0.029837,2.23311,5,0.1,13,0.1,3.46129,2.75563,0.582898,-0.0403825,0.0116993,0.000507385,-0.717923,0.208005,0.00902265,0.0123925,1.76763,5,0.1,14,0.1,3.25318,3.37945,0.548062,-0.020859,0.00209324,0.00154059,-0.370845,0.0372082,0.0273883,0.0089605,0.441824,5,0.1,15,0.1,-2.58964,2.70067,0.673478,0.0234254,-0.00892021,-0.00217967,0.416428,-0.158563,-0.0387505,0.0106778,0.632935,5,0.1,16,0.1,-2.85986,3.23573,0.698356,0.0314403,-0.0247911,0.00153193,0.558957,-0.440747,0.0272356,0.0150725,1.60527,5,0.1,17,0.1,1.7863,-4.33036,0.622298,-0.0531381,0.0262424,-0.000568107,-0.944681,0.466526,-0.0100955,0.0109971,3.51219,5,0.1,18,0.1,-2.20417,3.84422,0.529735,0.0119898,-0.0472922,0.00208421,0.213131,-0.840768,0.0370555,0.0153864,2.38432,5,0.1,19,0.1,4.12665,0.880261,0.660009,-0.0247933,0.0538116,-0.00152336,-0.440747,0.956655,-0.0270866,0.0154235,3.5122,5,0.1,20,0.1,-1.24128,3.47061,0.692997,0.010124,0.017187,0.0016911,0.179984,0.305563,0.0300631,0.0111846,0.400712,5,0.1,21,0.1,1.90444,0.222696,0.582491,-0.0297967,-0.0155058,0.000519305,-0.529721,-0.275658,0.00923127,0.0128091,1.12838,5,0.1,22,0.1,-4.35283,-1.95452,0.50284,0.0401326,0.00903346,-0.000695977,0.713438,0.16059,-0.0123791,0.0100524,1.69446,5,0.1,23,0.1,4.29042,1.71312,0.59244,-0.0338323,0.0381757,0.000224262,-0.601441,0.678673,0.00398606,0.0171161,2.60154,5,0.1,24,0.1,-3.47885,-2.25429,0.597549,0.00975542,0.0179261,7.28294e-05,0.173435,0.318706,0.0012964,0.0101261,0.416461,5,0.1,25,0.1,4.27681,3.74888,0.669989,-0.05842,-0.00992008,-0.00115922,-1.03861,-0.176355,-0.020612,0.0127841,3.5122,5,0.1,26,0.1,0.727369,-0.848037,0.537221,-0.0581991,-0.0111729,0.000874791,-1.03465,-0.198632,0.0155531,0.01407,3.51219,5,0.1,27,0.1,-0.101327,2.72651,0.547381,-0.0108053,0.0457563,0.00422327,-0.192094,0.813454,0.0750758,0.00909902,2.22792,5,0.1,28,0.1,0.522397,3.2881,0.639106,-0.00214754,-0.0574946,-0.00116024,-0.0381805,-1.02213,-0.0206232,0.0177397,3.31103,5,0.1,29,0.1,3.89197,-3.98888,0.619632,0.00180192,0.0185668,0.0018633,0.0320226,0.330061,0.033129,0.00872687,0.351364,5,0.1,30,0.1,2.29499,0.688836,0.509155,-0.0120413,-0.0549579,-0.0008679,-0.214055,-0.977032,-0.0154339,0.01271,3.51376,5,0.1,31,0.1,-4.18704,-3.42382,0.654222,0.00886098,0.0564411,-0.0005682,0.157505,1.00338,-0.0100993,0.0150101,3.51307,5,0.1,32,0.1,-1.09493,0.241208,0.50355,-0.0253659,-0.016055,-0.000870135,-0.450954,-0.285421,-0.0154637,0.00985984,0.90364,5,0.1,33,0.1,2.25524,2.8955,0.509805,0.0309937,0.00309944,-0.00177426,0.550985,0.0551045,-0.031542,0.00994911,0.973172,5,0.1,34,0.1,-2.75629,-3.62784,0.693241,0.0328187,0.0141747,0.00168374,0.583425,0.252008,0.0299327,0.0207026,1.28061,5,0.1,35,0.1,-3.42075,2.84069,0.514829,0.0302799,-0.0130735,-0.00192327,0.538319,-0.232428,-0.0341944,0.0133452,1.09135,5,0.1,36,0.1,-1.42498,-3.29334,0.538422,0.0511529,-0.00870042,0.00320608,0.909381,-0.154689,0.0569932,0.00960522,2.70219,5,0.1,37,0.1,3.88338,-2.60578,0.59743,-0.000411272,0.0592604,0.000879262,-0.00730157,1.05351,0.0156276,0.00882157,3.51219,5,0.1,38,0.1,-3.79452,-2.9752,0.583671,0.0191189,0.0393126,0.000484567,0.339895,0.698909,0.00860915,0.0152884,1.91096,5,0.1,39,0.1,-0.564671,1.30009,0.57788,0.03455,0.0326291,0.000656024,0.614226,0.580072,0.0116676,0.0216482,2.25845,5,0.1
0,0.2,-3.51309,-1.56538,0.67741,0.141954,0.122175,0.00320673,1.06466,0.916302,0.0240505,0.0425263,2.92579,5,0.1,1,0.2,1.73114,-0.760051,0.660582,-0.166675,-0.085339,-0.00497103,-1.25003,-0.640005,-0.0373125,0.0116885,2.9258,5,0.1,2,0.2,-3.43652,-3.62183,0.627902,0.168514,0.0303566,-0.00263155,1.26386,0.22769,-0.0197589,0.0216282,3.50244,5,0.1,3,0.2,-0.273153,-1.23408,0.668468,-0.00253245,0.116405,-0.00645965,-0.0189841,0.873029,-0.048399,0.010653,1.11675,5,0.1,4,0.2,3.46296,-0.148315,0.553886,-0.000953674,0.187284,0.00338852,-0.00715256,1.40463,0.0254512,0.0137913,2.92579,5,0.1,5,0.2,-0.284814,-3.79769,0.576858,-0.000749528,0.187308,0.00114143,-0.00560284,1.405,0.00855327,0.027712,2.92578,5,0.1,6,0.2,-3.96533,-0.449582,0.565174,0.0425756,-0.182401,0.00222772,0.319362,-1.36799,0.0167489,0.0150837,2.92579,5,0.1,7,0.2,1.21751,2.63289,0.533546,-0.0723958,-0.0361145,0.00626892,-0.542939,-0.270963,0.0469983,0.00902184,0.540769,5,0.1,8,0.2,2.06243,-1.96755,0.635611,-0.0954926,0.0158042,-0.00335872,-0.716329,0.118494,-0.0252128,0.0183275,0.770393,5,0.1,9,0.2,-1.48211,-2.13864,0.694912,-0.015834,-0.109547,0.00519603,-0.118852,-0.821471,0.0389814,0.00976751,1.00833,5,0.1,10,0.2,3.48809,3.97826,0.548841,-0.0743389,-0.0781238,0.004825,-0.557423,-0.586033,0.0362098,0.0082737,0.267069,5,0.1,11,0.2,0.340544,-1.31659,0.635681,-0.060419,0.110036,-0.00336617,-0.453144,0.825346,-0.0252426,0.0126299,1.29512,5,0.1,12,0.2,1.10675,-4.02422,0.513405,-0.132692,0.0683188,-0.00598133,-0.995159,0.512123,-0.0448227,0.0350499,1.83217,5,0.1,13,0.2,3.45309,2.758,0.583001,-0.127631,0.0369728,0.00160336,-0.957131,0.2774,0.0120103,0.0131033,1.46209,5,0.1,14,0.2,3.24894,3.37987,0.548375,-0.0659287,0.00661612,0.0048697,-0.49448,0.0495911,0.0365376,0.0103071,0.362493,5,0.1,15,0.2,-2.58488,2.69886,0.673035,0.0740349,-0.028193,-0.00688881,0.555277,-0.211358,-0.0516474,0.0106575,0.519291,5,0.1,16,0.2,-2.85348,3.23069,0.698667,0.0993729,-0.0783563,0.00484288,0.745177,-0.587583,0.0362992,0.0157667,1.31705,5,0.1,17,0.2,1.77551,-4.32503,0.622182,-0.167942,0.0829458,-0.00179559,-1.25962,0.622034,-0.0134408,0.0106111,2.92579,5,0.1,18,0.2,-2.20173,3.83461,0.530158,0.0378966,-0.149465,0.0065878,0.284076,-1.12116,0.0494123,0.0120043,1.95621,5,0.1,19,0.2,4.12162,0.891191,0.6597,-0.0783682,0.170071,-0.00481457,-0.587463,1.27554,-0.0361204,0.0208482,2.9258,5,0.1,20,0.2,-1.23922,3.4741,0.69334,0.0319958,0.0543237,0.00534505,0.240028,0.407338,0.0400543,0.0106207,0.328765,5,0.1,21,0.2,1.89839,0.219546,0.582597,-0.0941724,-0.0490062,0.00164211,-0.706315,-0.367537,0.0122786,0.0173337,0.925783,5,0.1,22,0.2,-4.34467,-1.95269,0.502699,0.126839,0.0285506,-0.00219941,0.95129,0.214159,-0.0165105,0.0108213,1.39064,5,0.1,23,0.2,4.28355,1.72088,0.592486,-0.106919,0.120655,0.000707805,-0.80204,0.904858,0.00533462,0.0163537,2.13442,5,0.1,24,0.2,-3.47686,-2.25065,0.597564,0.0308275,0.0566542,0.000229478,0.231385,0.424981,0.00172853,0.0100154,0.341682,5,0.1,25,0.2,4.26494,3.74686,0.669753,-0.184643,-0.031352,-0.0036642,-1.38474,-0.235081,-0.0274777,0.0113993,1.16002,5,0.1,26,0.2,0.715547,-0.850307,0.537399,-0.183938,-0.0353113,0.00276417,-1.37952,-0.264853,0.0207126,0.0149543,2.96076,5,0.1,27,0.2,-0.103521,2.7358,0.548239,-0.0341501,0.144613,0.013347,-0.256121,1.08469,0.100136,0.0106098,1.82789,5,0.1,28,0.2,0.521961,3.27643,0.63887,-0.00678897,-0.181705,-0.00366718,-0.0508726,-1.36292,-0.0274777,0.0157392,2.71652,5,0.1,29,0.2,3.89234,-3.98511,0.620011,0.00569224,0.0586808,0.00588894,0.0427961,0.440001,0.044167,0.00763815,0.288279,5,0.1,30,0.2,2.29254,0.677673,0.508979,-0.0380516,-0.173694,-0.0027433,-0.285506,-1.30269,-0.0205636,0.0136417,2.94833,5,0.1,31,0.2,-4.18524,-3.41236,0.654107,0.0280142,0.178379,-0.00179559,0.209808,1.33789,-0.0135005,0.0147702,2.94175,5,0.1,32,0.2,-1.10008,0.237946,0.503373,-0.0801682,-0.0507418,-0.00275075,-0.601232,-0.380561,-0.0205934,0.00928871,0.741792,5,0.1,33,0.2,2.26153,2.89613,0.509444,0.0979483,0.009799,-0.00560582,0.734806,0.0734329,-0.0420809,0.0106496,0.798523,5,0.1,34,0.2,-2.74962,-3.62496,0.693583,0.103724,0.0448048,0.0053212,0.777841,0.335932,0.0399351,0.0212791,1.05068,5,0.1,35,0.2,-3.4146,2.83803,0.514438,0.0957012,-0.041312,-0.00607818,0.717878,-0.310063,-0.0455678,0.0111252,3.14984,5,0.1,36,0.2,-1.41459,-3.29511,0.539073,0.161669,-0.0274956,0.0101328,1.21254,-0.206232,0.0759661,0.0112064,2.21701,5,0.1,37,0.2,3.88329,-2.59374,0.597608,-0.00130534,0.187296,0.00278056,-0.00965595,1.40452,0.020802,0.00858026,2.92581,5,0.1,38,0.2,-3.79063,-2.96722,0.58377,0.0604331,0.124246,0.00153035,0.452995,0.931859,0.0115037,0.0209871,1.56785,5,0.1,39,0.2,-0.557653,1.30672,0.578013,0.109196,0.103125,0.00207424,0.818938,0.77343,0.0155568,0.0252525,1.85295,5,0.1
0,0.3,-3.49298,-1.54807,0.677864,0.2644,0.227558,0.00597285,1.30843,1.1261,0.0295602,0.0425263,2.92579,5,0.1,1,0.3,1.70752,-0.772144,0.659878,-0.310441,-0.158946,-0.00926144,-1.53627,-0.786569,-0.045836,0.0116885,2.9258,5,0.1,2,0.3,-3.41446,-3.61578,0.627547,0.262177,0.106183,-0.00440311,0.634283,1.16231,-0.015378,0.0216282,3.50244,5,0.1,3,0.3,-0.273512,-1.2176,0.667554,-0.00471049,0.216551,-0.0120128,-0.0232365,1.06831,-0.059247,0.010653,1.11675,5,0.1,4,0.3,3.46283,-0.121775,0.554367,-0.00177622,0.348829,0.00631455,-0.00879169,1.72626,0.0312552,0.0137913,2.92579,5,0.1,5,0.3,-0.28492,-3.77114,0.57702,-0.00139442,0.348889,0.00212546,-0.00689365,1.72661,0.0105128,0.027712,2.92578,5,0.1,6,0.3,-3.95929,-0.47543,0.56549,0.0793036,-0.339733,0.00415286,0.392452,-1.68123,0.0205599,0.0150837,2.92579,5,0.1,7,0.3,1.20726,2.62777,0.534434,-0.134678,-0.0671938,0.0116606,-0.664398,-0.331521,0.0575148,0.00902184,0.540769,5,0.1,8,0.3,2.0489,-1.96531,0.635136,-0.177659,0.0293979,-0.00625029,-0.876501,0.145011,-0.0308454,0.0183275,0.770393,5,0.1,9,0.3,-1.48435,-2.15416,0.695647,-0.0294648,-0.203784,0.00966704,-0.145391,-1.00529,0.0476949,0.00976751,1.00833,5,0.1,10,0.3,3.47803,3.96751,0.549524,-0.12495,-0.136454,0.00897795,-0.445098,-0.559002,0.0442937,0.0082737,0.267069,5,0.1,11,0.3,0.331987,-1.301,0.635204,-0.1124,0.20471,-0.00626184,-0.554502,1.00993,-0.0308901,0.0126299,1.29512,5,0.1,12,0.3,1.08796,-4.01455,0.51256,-0.246848,0.127073,-0.0110676,-1.21778,0.626832,-0.053864,0.0350499,1.83217,5,0.1,13,0.3,3.43534,2.76324,0.583228,-0.228196,0.0687908,0.00298163,-1.00717,0.339404,0.0147037,0.0131033,1.46209,5,0.1,14,0.3,3.23961,3.38081,0.549065,-0.12265,0.0123054,0.00906037,-0.605077,0.0607073,0.0446998,0.0103071,0.362493,5,0.1,15,0.3,-2.5744,2.69487,0.672059,0.13773,-0.0524405,-0.0128142,0.679478,-0.258669,-0.0632145,0.0106575,0.519291,5,0.1,16,0.3,-2.8394,3.21959,0.699353,0.184856,-0.145761,0.00900719,0.911921,-0.719056,0.0444278,0.0157667,1.31705,5,0.1,17,0.3,1.75171,-4.31328,0.621928,-0.312809,0.154486,-0.00334224,-1.54802,0.764489,-0.0165366,0.0106111,2.92579,5,0.1,18,0.3,-2.19636,3.81344,0.531091,0.0704873,-0.278069,0.0122557,0.347689,-1.37183,0.0604652,0.0120043,1.95621,5,0.1,19,0.3,4.11051,0.915292,0.659018,-0.14594,0.31677,-0.00896854,-0.72211,1.56761,-0.0443868,0.0208482,2.9258,5,0.1,20,0.3,-1.23469,3.4818,0.694097,0.0595279,0.101052,0.00994066,0.293687,0.498489,0.0490285,0.0106207,0.328765,5,0.1,21,0.3,1.88505,0.212605,0.582829,-0.175194,-0.0911671,0.00305176,-0.86429,-0.449751,0.0150427,0.0173337,0.925783,5,0.1,22,0.3,-4.32671,-1.94864,0.502407,0.23596,0.0531163,-0.00352953,1.16408,0.262037,-0.0101775,0.0108213,1.39064,5,0.1,23,0.3,4.26841,1.73796,0.592586,-0.198917,0.224454,0.00131922,-0.981331,1.10728,0.00651553,0.0163537,2.13442,5,0.1,24,0.3,-3.4725,-2.24263,0.597596,0.057365,0.105402,0.00042757,0.283033,0.520006,0.00211224,0.0100154,0.341682,5,0.1,25,0.3,4.23951,3.74246,0.669202,-0.322966,-0.0572674,-0.00773221,-1.3296,-0.268996,-0.0499114,0.0113993,1.16002,5,0.1,26,0.3,0.689824,-0.85487,0.537756,-0.332887,-0.0532598,0.00416124,-1.52279,-0.10306,0.00794604,0.0149543,2.96076,5,0.1,27,0.3,-0.108358,2.75628,0.55013,-0.0635302,0.269035,0.0248326,-0.313412,1.32726,0.122517,0.0106098,1.82789,5,0.1,28,0.3,0.521,3.25069,0.638351,-0.0126258,-0.338043,-0.00681989,-0.0622682,-1.66771,-0.0336319,0.0157392,2.71652,5,0.1,29,0.3,3.89314,-3.9768,0.620845,0.0105977,0.109157,0.0109554,0.0523031,0.538483,0.0540502,0.00763815,0.288279,5,0.1,30,0.3,2.28708,0.652968,0.508594,-0.073041,-0.326095,-0.00500707,-0.389159,-1.64685,-0.0234731,0.0136417,2.94833,5,0.1,31,0.3,-4.18121,-3.38701,0.65385,0.0538021,0.334131,-0.00342131,0.287294,1.67772,-0.0178888,0.0147702,2.94175,5,0.1,32,0.3,-1.11144,0.23076,0.503008,-0.149138,-0.0943964,-0.00441037,-0.735737,-0.465685,-0.0127032,0.00928871,0.741792,5,0.1,33,0.3,2.27541,2.89752,0.508679,0.182233,0.0182237,-0.00961917,0.899062,0.0898689,-0.0370257,0.0106496,0.798523,5,0.1,34,0.3,-2.73493,-3.61862,0.694337,0.192953,0.0833422,0.00990136,0.951871,0.411093,0.0488497,0.0212791,1.05068,5,0.1,35,0.3,-3.40011,2.83202,0.513591,0.204536,-0.0815455,-0.0109375,1.34933,-0.462368,-0.0492223,0.0111252,3.14984,5,0.1,36,0.3,-1.3917,-3.299,0.540508,0.300759,-0.0511531,0.0188478,1.48374,-0.252351,0.0929721,0.0112064,2.21701,5,0.1,37,0.3,3.88311,-2.5672,0.598002,-0.0024192,0.348834,0.00517443,-0.0119209,1.72624,0.0255927,0.00858026,2.92581,5,0.1,38,0.3,-3.78208,-2.94962,0.583986,0.112405,0.23114,0.0028492,0.554472,1.14028,0.014063,0.0209871,1.56785,5,0.1,39,0.3,-0.542188,1.32132,0.578307,0.203138,0.191846,0.00385875,1.00214,0.946417,0.0190325,0.0252525,1.85295,5,0.1
0,0.4,-3.46011,-1.51978,0.678607,0.390464,0.336057,0.00882149,1.15693,0.995696,0.0261068,0.0475331,2.66215,5,0.1,1,0.4,1.66893,-0.791905,0.658726,-0.458458,-0.234731,-0.0136778,-1.35833,-0.695497,-0.0405312,0.0135516,2.51008,5,0.1,2,0.4,-3.38594,-3.59866,0.627039,0.300151,0.240391,-0.00566095,0.147939,1.42395,-0.00959635,0.0209934,2.90759,5,0.1,3,0.4,-0.274097,-1.19069,0.666061,-0.00694618,0.319365,-0.0177145,-0.0205189,0.942469,-0.0523031,0.0133702,0.883584,5,0.1,4,0.4,3.46261,-0.078407,0.555152,-0.0026226,0.51515,0.00932515,-0.0077486,1.52632,0.0276566,0.0150436,2.51563,5,0.1,5,0.4,-0.285093,-3.72777,0.577284,-0.00205934,0.51524,0.00313967,-0.00609457,1.52659,0.00926852,0.0270256,2.67877,5,0.1,6,0.4,-3.94943,-0.517667,0.566006,0.117117,-0.501716,0.00613332,0.346899,-1.48654,0.0181794,0.0123918,2.51136,5,0.1,7,0.4,1.19053,2.61943,0.535882,-0.198618,-0.0990987,0.0171974,-0.586212,-0.29242,0.0507236,0.0087731,0.427861,5,0.1,8,0.4,2.02683,-1.96165,0.634359,-0.262016,0.0433534,-0.00921786,-0.773072,0.127971,-0.0271797,0.0189156,0.609541,5,0.1,9,0.4,-1.48801,-2.17947,0.696848,-0.0434548,-0.300533,0.0142574,-0.128269,-0.886917,0.0420809,0.00897848,0.797803,5,0.1,10,0.4,3.46356,3.95126,0.55064,-0.161791,-0.186253,0.0132412,-0.285745,-0.422001,0.0390708,0.00823666,0.194626,5,0.1,11,0.4,0.318023,-1.27557,0.634426,-0.165764,0.301901,-0.00923425,-0.48919,0.89103,-0.0272393,0.0102742,1.04227,5,0.1,12,0.4,1.05729,-3.99876,0.51119,-0.364047,0.187397,-0.0162259,-1.07431,0.553012,-0.0470877,0.0277323,1.45003,5,0.1,13,0.4,3.40772,2.77178,0.583599,-0.320971,0.101453,0.00439733,-0.814676,0.299454,0.012964,0.0122946,1.06486,5,0.1,14,0.4,3.22437,3.38234,0.55019,-0.180882,0.0181496,0.0133619,-0.5337,0.053525,0.0394285,0.0108803,0.286809,5,0.1,15,0.4,-2.55729,2.68835,0.670468,0.203121,-0.077337,-0.0188977,0.599504,-0.228167,-0.0557899,0.0107413,0.410868,5,0.1,16,0.4,-2.81644,3.20149,0.700472,0.272614,-0.214964,0.0132844,0.804663,-0.634432,0.0391603,0.0146423,1.04207,5,0.1,17,0.4,1.71282,-4.29407,0.621513,-0.461957,0.228143,-0.00493526,-1.3687,0.675917,-0.0146031,0.0108545,2.51007,5,0.1,18,0.4,-2.18761,3.7789,0.532614,0.103951,-0.410092,0.0180736,0.306726,-1.21021,0.053376,0.0123638,1.54777,5,0.1,19,0.4,4.09237,0.954674,0.657903,-0.215518,0.467804,-0.0132442,-0.638485,1.38608,-0.0392497,0.0155541,2.51009,5,0.1,20,0.4,-1.2273,3.49435,0.695332,0.0877917,0.149029,0.0146598,0.259101,0.439763,0.043273,0.0101902,0.260124,5,0.1,21,0.4,1.86329,0.20128,0.583208,-0.258371,-0.134451,0.00450015,-0.762522,-0.396781,0.0132918,0.013389,0.732489,5,0.1,22,0.4,-4.2974,-1.94204,0.502013,0.347984,0.0783354,-0.00425428,1.02711,0.231147,-0.00450015,0.0114651,1.1008,5,0.1,23,0.4,4.2437,1.76585,0.59275,-0.293362,0.331017,0.00194609,-0.865698,0.976861,0.00572205,0.0149284,1.68878,5,0.1,24,0.4,-3.46537,-2.22953,0.59765,0.0846028,0.155443,0.000631809,0.249624,0.458837,0.00181794,0.0118943,0.270339,5,0.1,25,0.4,4.20101,3.73543,0.668169,-0.441706,-0.0826836,-0.0129461,-1.00851,-0.228882,-0.051409,0.0102167,0.875389,5,0.1,26,0.4,0.649203,-0.860505,0.538196,-0.475259,-0.0575885,0.00448525,-1.26886,0.00876188,-0.000834465,0.0129313,2.77746,5,0.1,27,0.4,-0.11625,2.78971,0.553215,-0.0936925,0.396764,0.0366226,-0.276506,1.17099,0.108093,0.0103199,1.44624,5,0.1,28,0.4,0.519431,3.2087,0.637504,-0.0186205,-0.498545,-0.0100583,-0.0549257,-1.47116,-0.0296533,0.0134401,2.14934,5,0.1,29,0.4,3.89446,-3.96324,0.622206,0.0156283,0.16098,0.0161573,0.0462532,0.475049,0.0476837,0.00886742,0.228091,5,0.1,30,0.4,2.27782,0.612223,0.507979,-0.111502,-0.485919,-0.00722259,-0.361204,-1.47671,-0.0199676,0.0141931,2.52937,5,0.1,31,0.4,-4.17439,-3.34532,0.653418,0.0822186,0.49662,-0.00517815,0.267506,1.49834,-0.0163913,0.0180012,2.52518,5,0.1,32,0.4,-1.12996,0.219033,0.502516,-0.219941,-0.139213,-0.00531673,-0.649154,-0.41084,-0.00557303,0.0164343,0.587428,5,0.1,33,0.4,2.29805,2.89978,0.507548,0.268757,0.0268757,-0.0128165,0.793099,0.0793934,-0.0261366,0.00912454,0.632275,5,0.1,34,0.4,-2.71096,-3.60826,0.695567,0.284564,0.122911,0.0146016,0.83971,0.362635,0.043124,0.0266189,0.831316,5,0.1,35,0.4,-3.37261,2.82152,0.512261,0.346303,-0.128138,-0.0155106,1.40274,-0.445366,-0.0404418,0.015265,2.68468,5,0.1,36,0.4,-1.35433,-3.30536,0.542849,0.443554,-0.0754416,0.0277966,1.30898,-0.222564,0.082016,0.00874556,1.75412,5,0.1,37,0.4,3.88281,-2.52383,0.598645,-0.00357032,0.515157,0.00763983,-0.0104904,1.52624,0.0226498,0.00962521,2.51565,5,0.1,38,0.4,-3.76811,-2.9209,0.58434,0.165766,0.340879,0.00420213,0.489116,1.00601,0.0124276,0.0195988,1.2405,5,0.1,39,0.4,-0.516952,1.34515,0.578786,0.299582,0.282931,0.00569075,0.884131,0.834882,0.0167787,0.0228827,1.51114,5,0.1
0,0.5,-3.41647,-1.48105,0.679623,0.471039,0.438517,0.0115088,0.488609,1.00081,0.0262521,0.0475331,2.66215,5,0.1,1,0.5,1.61609,-0.818955,0.65715,-0.598235,-0.306299,-0.0178479,-1.36533,-0.699073,-0.0407323,0.0135516,2.51008,5,0.1,2,0.5,-3.3557,-3.56728,0.626429,0.299945,0.387834,-0.00649607,-0.136137,1.45765,-0.00682846,0.0209934,2.90759,5,0.1,3,0.5,-0.274896,-1.15396,0.664023,-0.00902778,0.414988,-0.0230212,-0.0200905,0.92309,-0.0512302,0.0133702,0.883584,5,0.1,4,0.5,3.4623,-0.0192824,0.556227,-0.00341982,0.665364,0.0121702,-0.00780821,1.40998,0.0277795,0.0150436,2.51563,5,0.1,5,0.5,-0.28533,-3.66966,0.577645,-0.00268677,0.636387,0.00409409,-0.00613183,0.896707,0.00932813,0.0270256,2.67877,5,0.1,6,0.5,-3.93594,-0.575367,0.566713,0.152816,-0.651393,0.00800332,0.348717,-1.43448,0.0182651,0.0123918,2.51136,5,0.1,7,0.5,1.16768,2.60803,0.53786,-0.258094,-0.128767,0.0223446,-0.574142,-0.286371,0.0496916,0.0087731,0.427861,5,0.1,8,0.5,1.9967,-1.95667,0.633299,-0.340454,0.0563372,-0.0119758,-0.75721,0.125334,-0.0266246,0.0189156,0.609541,5,0.1,9,0.5,-1.49301,-2.21404,0.698488,-0.0564676,-0.39052,0.0185266,-0.125602,-0.868708,0.0412092,0.00897848,0.797803,5,0.1,10,0.5,3.44607,3.93058,0.552163,-0.186596,-0.226272,0.0172053,-0.202671,-0.361785,0.0382662,0.00823666,0.194626,5,0.1,11,0.5,0.298728,-1.24117,0.633403,-0.221862,0.383166,-0.0109132,-0.594048,0.710241,-0.00739098,0.0102742,1.04227,5,0.1,12,0.5,1.01542,-3.97721,0.509385,-0.473048,0.243508,-0.0193798,-1.05223,0.541702,-0.0172444,0.0277323,1.45003,5,0.1,13,0.5,3.37255,2.78345,0.584104,-0.372952,0.131834,0.00571311,-0.250682,0.293255,0.0127032,0.0122946,1.06486,5,0.1,14,0.5,3.20356,3.38442,0.551727,-0.235034,0.0235815,0.0173623,-0.522748,0.0524372,0.0386164,0.0108803,0.286809,5,0.1,15,0.5,-2.53392,2.67946,0.668294,0.263945,-0.100489,-0.024558,0.58715,-0.223503,-0.0546388,0.0107413,0.410868,5,0.1,16,0.5,-2.78508,3.17676,0.701999,0.354253,-0.279333,0.0172585,0.788093,-0.621378,0.0383705,0.0146423,1.04207,5,0.1,17,0.5,1.65958,-4.26778,0.620944,-0.602801,0.297698,-0.0064387,-1.37573,0.679374,-0.0146963,0.0108545,2.51007,5,0.1,18,0.5,-2.17565,3.73172,0.534693,0.135073,-0.532879,0.0234883,0.300452,-1.18531,0.0522658,0.0123638,1.54777,5,0.1,19,0.5,4.06753,1.00858,0.656376,-0.281225,0.610435,-0.0172829,-0.641823,1.39319,-0.0394434,0.0155541,2.51009,5,0.1,20,0.5,-1.2172,3.51149,0.697018,0.114079,0.193649,0.0190503,0.253759,0.430733,0.0423826,0.0101902,0.260124,5,0.1,21,0.5,1.83357,0.185814,0.583726,-0.335736,-0.174709,0.00584889,-0.746816,-0.388621,0.0130162,0.013389,0.732489,5,0.1,22,0.5,-4.25737,-1.93303,0.501576,0.452191,0.101788,-0.00438085,1.00589,0.226393,0.0015758,0.0114651,1.1008,5,0.1,23,0.5,4.20995,1.80392,0.592974,-0.381196,0.430131,0.00252696,-0.847846,0.956774,0.00560656,0.0149284,1.68878,5,0.1,24,0.5,-3.45564,-2.21165,0.597722,0.109929,0.201994,0.000817142,0.244483,0.449345,0.00179559,0.0118943,0.270339,5,0.1,25,0.5,4.15193,3.726,0.666603,-0.537583,-0.105575,-0.0184492,-0.868976,-0.218093,-0.0556447,0.0102167,0.875389,5,0.1,26,0.5,0.595675,-0.865452,0.538536,-0.590948,-0.0348329,0.00144588,-1.00883,0.399876,-0.0535436,0.0129313,2.77746,5,0.1,27,0.5,-0.127027,2.83535,0.557427,-0.121747,0.515571,0.047589,-0.270816,1.14687,0.105854,0.0103199,1.44624,5,0.1,28,0.5,0.51729,3.15136,0.636347,-0.0241941,-0.647689,-0.0130677,-0.0538081,-1.43872,-0.0290535,0.0134401,2.14934,5,0.1,29,0.5,3.89626,-3.94472,0.624065,0.0203174,0.20918,0.0209953,0.045225,0.465289,0.046704,0.00886742,0.228091,5,0.1,30,0.5,2.26479,0.556063,0.507156,-0.149309,-0.637167,-0.00924598,-0.374854,-1.47168,-0.0194982,0.0141931,2.52937,5,0.1,31,0.5,-4.16478,-3.28807,0.652816,0.110232,0.647696,-0.00688666,0.277847,1.44987,-0.0168793,0.0180012,2.52518,5,0.1,32,0.5,-1.15526,0.20302,0.50197,-0.285804,-0.180897,-0.0054718,-0.635788,-0.402388,0.00197813,0.0164343,0.587428,5,0.1,33,0.5,2.32896,2.90287,0.506173,0.349225,0.0349298,-0.0143223,0.776768,0.0777543,-0.00505522,0.00912454,0.632275,5,0.1,34,0.5,-2.67823,-3.59413,0.697247,0.369765,0.159706,0.0189762,0.82247,0.355229,0.0422187,0.0266189,0.831316,5,0.1,35,0.5,-3.33051,2.80637,0.510539,0.498215,-0.175204,-0.018628,1.54983,-0.470564,-0.0220127,0.015265,2.68468,5,0.1,36,0.5,-1.30331,-3.31403,0.546047,0.576363,-0.0980251,0.0361186,1.28205,-0.218004,0.0803396,0.00874556,1.75412,5,0.1,37,0.5,3.8824,-2.46471,0.599526,-0.00465214,0.665366,0.00997083,-0.0106096,1.40996,0.0227727,0.00962521,2.51565,5,0.1,38,0.5,-3.74904,-2.88169,0.584824,0.215396,0.442948,0.00546202,0.479117,0.985295,0.0121593,0.0195988,1.2405,5,0.1,39,0.5,-0.483235,1.3777,0.57944,0.368339,0.36764,0.0073933,0.498867,0.817731,0.0164397,0.0228827,1.51114,5,0.1
0,0.6,-3.3678,-1.43255,0.680896,0.494361,0.527221,0.0138357,0.00572205,0.735998,0.0193119,0.0449181,2.56604,5,0.1,1,0.6,1.54992,-0.852838,0.655176,-0.719249,-0.368258,-0.0214577,-1.00404,-0.51412,-0.0299215,0.0160603,2.23649,5,0.1,2,0.6,-3.32675,-3.52161,0.625751,0.275916,0.52039,-0.00698417,-0.330567,1.14536,-0.00277162,0.0207315,2.97317,5,0.1,3,0.6,-0.275892,-1.10819,0.661485,-0.0107907,0.495994,-0.0275165,-0.0144541,0.664055,-0.0368357,0.0124111,0.657808,5,0.1,4,0.6,3.46193,0.0536622,0.557573,-0.00410676,0.785951,0.0146315,-0.00584126,0.957804,0.0204444,0.015254,2.33484,5,0.1,5,0.6,-0.285628,-3.60257,0.578098,-0.00322983,0.695193,0.00492185,-0.00452995,0.28491,0.00685453,0.0276607,2.85903,5,0.1,6,0.6,-3.91903,-0.647108,0.567598,0.183725,-0.776428,0.00962168,0.2563,-1.01689,0.0134408,0.0138356,2.30993,5,0.1,7,0.6,1.13922,2.59383,0.540325,-0.308478,-0.153899,0.0267044,-0.413001,-0.205994,0.0357926,0.0102373,0.31853,5,0.1,8,0.6,1.95915,-1.95045,0.631978,-0.406906,0.0673354,-0.0143126,-0.544667,0.0901818,-0.0191629,0.019696,0.453794,5,0.1,9,0.6,-1.49924,-2.25711,0.700532,-0.0674903,-0.466752,0.0221431,-0.090301,-0.624895,0.0296533,0.0102512,0.59395,5,0.1,10,0.6,3.42659,3.90636,0.55406,-0.2011,-0.255829,0.0205621,-0.0828505,-0.218272,0.0275671,0.0084573,0.134349,5,0.1,11,0.6,0.273661,-1.19976,0.6323,-0.277874,0.440007,-0.0109106,-0.497907,0.411153,0.00652671,0.0114542,0.839308,5,0.1,12,0.6,0.963249,-3.95035,0.507401,-0.565389,0.291049,-0.0199154,-0.756919,0.389576,0.00539422,0.0285501,1.08007,5,0.1,13,0.6,3.33476,2.79799,0.584734,-0.376004,0.157565,0.00682771,0.166535,0.211,0.00917912,0.0124877,0.99053,5,0.1,14,0.6,3.17764,3.38703,0.553642,-0.280911,0.0281811,0.0207514,-0.375986,0.0377893,0.027746,0.0111376,0.213525,5,0.1,15,0.6,-2.50482,2.66838,0.665585,0.315464,-0.120103,-0.0293523,0.422478,-0.160813,-0.0393093,0.0109685,0.30588,5,0.1,16,0.6,-2.74601,3.14595,0.703903,0.423408,-0.333863,0.0206262,0.566959,-0.447035,0.027597,0.0133451,0.780769,5,0.1,17,0.6,1.5929,-4.23485,0.620232,-0.724736,0.357914,-0.00774115,-1.01173,0.499725,-0.0107884,0.0136707,2.24057,5,0.1,18,0.6,-2.16075,3.67296,0.537283,0.161445,-0.636894,0.0280738,0.216007,-0.852585,0.0376105,0.01137,1.15227,5,0.1,19,0.6,4.03642,1.07611,0.654465,-0.338113,0.733918,-0.0207797,-0.472069,1.02454,-0.0289679,0.0189258,2.24854,5,0.1,20,0.6,-1.20462,3.53285,0.699119,0.136346,0.231451,0.0227705,0.182569,0.309944,0.0304878,0.0112392,0.193657,5,0.1,21,0.6,1.79654,0.166547,0.584371,-0.401273,-0.208812,0.00699162,-0.537217,-0.279561,0.00938773,0.0143573,0.545319,5,0.1,22,0.6,-4.2075,-1.92181,0.501153,0.540471,0.121656,-0.00401288,0.723362,0.16284,0.00548363,0.0125587,0.820141,5,0.1,23,0.6,4.16791,1.85136,0.593253,-0.455606,0.514093,0.00301898,-0.609875,0.688314,0.00405312,0.0146835,1.25725,5,0.1,24,0.6,-3.44352,-2.18937,0.597812,0.131381,0.241429,0.000976026,0.175953,0.323176,0.0012815,0.0140515,0.201256,5,0.1,25,0.6,4.09433,3.71445,0.664493,-0.608778,-0.124454,-0.0235572,-0.528336,-0.151992,-0.0443459,0.0108386,0.621747,5,0.1,26,0.6,0.532207,-0.866606,0.53837,-0.671108,0.0141025,-0.00508428,-0.571251,0.542432,-0.0720024,0.0169655,2.71398,5,0.1,27,0.6,-0.140454,2.8922,0.562676,-0.145512,0.616211,0.0568792,-0.194818,0.825047,0.0761151,0.00981301,1.07668,5,0.1,28,0.6,0.514621,3.07994,0.634906,-0.0289157,-0.773865,-0.0156179,-0.038743,-1.03354,-0.0209212,0.0164983,1.6484,5,0.1,29,0.6,3.8985,-3.92165,0.62638,0.0242829,0.250018,0.0250936,0.0325441,0.33462,0.033617,0.0105541,0.169809,5,0.1,30,0.6,2.2481,0.48551,0.506141,-0.183028,-0.767257,-0.0109494,-0.285149,-1.0767,-0.0138879,0.0132551,2.31615,5,0.1,31,0.6,-4.15245,-3.21662,0.652048,0.135231,0.774294,-0.00839978,0.211716,1.03211,-0.0127256,0.0169185,2.32525,5,0.1,32,0.6,-1.18678,0.18307,0.501442,-0.341597,-0.216209,-0.00501126,-0.457346,-0.289463,0.00682473,0.0108301,0.437958,5,0.1,33,0.6,2.36747,2.90673,0.504743,0.417387,0.0417471,-0.0140324,0.558853,0.0560284,0.00995398,0.0094737,0.556531,5,0.1,34,0.6,-2.63745,-3.57651,0.699339,0.441945,0.190884,0.0226811,0.591516,0.255466,0.0303686,0.0250538,0.471405,5,0.1,35,0.6,-3.27327,2.78663,0.508595,0.641501,-0.217891,-0.0199452,1.25372,-0.365138,-0.00461936,0.0109514,2.36319,5,0.1,36,0.6,-1.23975,-3.32484,0.55003,0.688869,-0.117159,0.0431687,0.922263,-0.15676,0.0578165,0.0136036,1.3059,5,0.1,37,0.6,3.88188,-2.39176,0.600629,-0.00559092,0.785953,0.011988,-0.00786781,0.957727,0.0167787,0.00991997,2.33488,5,0.1,38,0.6,-3.72529,-2.83284,0.585426,0.25745,0.529414,0.0065282,0.344515,0.708818,0.00876188,0.0171437,0.92353,5,0.1,39,0.6,-0.44449,1.41824,0.580256,0.400917,0.439402,0.00883639,0.160426,0.588238,0.0118017,0.0215492,1.22551,5,0.1
0,0.7,-3.3193,-1.3761,0.682378,0.468248,0.601036,0.0157729,-0.445873,0.693858,0.0182167,0.0449181,2.56604,5,0.1,1,0.7,1.47343,-0.892268,0.652878,-0.805295,-0.419866,-0.0244617,-0.687949,-0.485487,-0.0282601,0.0160603,2.23649,5,0.1,2,0.7,-3.30096,-3.46538,0.62504,0.238467,0.589845,-0.00721607,-0.409648,0.287145,-0.00157952,0.0207315,2.97317,5,0.1,3,0.7,-0.277042,-1.05533,0.658552,-0.0121782,0.559746,-0.0310531,-0.0125021,0.574548,-0.0318736,0.0124111,0.657808,5,0.1,4,0.7,3.46148,0.135985,0.559139,-0.00469014,0.850525,0.0166821,-0.00548363,0.36111,0.0192784,0.015254,2.33484,5,0.1,5,0.7,-0.285973,-3.5331,0.578625,-0.00368375,0.681252,0.00560982,-0.00426546,-0.491306,0.00647083,0.0276607,2.85903,5,0.1,6,0.7,-3.89936,-0.728792,0.568628,0.209452,-0.84722,0.0109701,0.242025,-0.417754,0.0126772,0.0138356,2.30993,5,0.1,7,0.7,1.10634,2.57742,0.543171,-0.348127,-0.173676,0.0301403,-0.357315,-0.178218,0.0309609,0.0102373,0.31853,5,0.1,8,0.7,1.91578,-1.94328,0.630453,-0.459198,0.0759929,-0.0161522,-0.471286,0.0780225,-0.0165738,0.019696,0.453794,5,0.1,9,0.7,-1.50643,-2.30686,0.702892,-0.0761595,-0.526745,0.0249894,-0.0781268,-0.540689,0.0256523,0.0102512,0.59395,5,0.1,10,0.7,3.40613,3.87974,0.556252,-0.207192,-0.27554,0.0232078,-0.0326931,-0.16281,0.0238419,0.0084573,0.134349,5,0.1,11,0.7,0.243274,-1.15422,0.631312,-0.330099,0.465618,-0.00826037,-0.513405,0.103675,0.0422932,0.0114542,0.839308,5,0.1,12,0.7,0.90299,-3.91933,0.50547,-0.638057,0.328454,-0.0184033,-0.654902,0.337124,0.0233501,0.0285501,1.08007,5,0.1,13,0.7,3.29858,2.81479,0.585462,-0.342282,0.177819,0.00770874,0.480339,0.182524,0.00793487,0.0124877,0.99053,5,0.1,14,0.7,3.1477,3.39003,0.555854,-0.317009,0.0318088,0.0234156,-0.325322,0.0326931,0.0240169,0.0111376,0.213525,5,0.1,15,0.7,-2.47119,2.65557,0.662457,0.35602,-0.135543,-0.0331262,0.365481,-0.139147,-0.0340119,0.0109685,0.30588,5,0.1,16,0.7,-2.70098,3.11056,0.70611,0.475141,-0.371442,0.0235197,0.442594,-0.291839,0.0282116,0.0133451,0.780769,5,0.1,17,0.7,1.51589,-4.19653,0.619403,-0.80972,0.408076,-0.00882493,-0.663452,0.47189,-0.0102036,0.0136707,2.24057,5,0.1,18,0.7,-2.14355,3.60508,0.540275,0.182186,-0.718746,0.0316838,0.186965,-0.737652,0.0325292,0.01137,1.15227,5,0.1,19,0.7,4.00022,1.154,0.65224,-0.385501,0.817125,-0.0236884,-0.445813,0.622429,-0.027366,0.0189258,2.24854,5,0.1,20,0.7,-1.19009,3.55752,0.701546,0.153872,0.261206,0.0256974,0.157937,0.268161,0.0263825,0.0112392,0.193657,5,0.1,21,0.7,1.75378,0.144292,0.585116,-0.452848,-0.235651,0.00789277,-0.46479,-0.241878,0.00812113,0.0143573,0.545319,5,0.1,22,0.7,-4.1499,-1.90884,0.500784,0.609918,0.13729,-0.00334792,0.625908,0.14089,0.00753999,0.0125587,0.820141,5,0.1,23,0.7,4.11935,1.90615,0.593574,-0.514157,0.580174,0.0034079,-0.52768,0.595525,0.00350922,0.0146835,1.25725,5,0.1,24,0.7,-3.42951,-2.16364,0.597916,0.148271,0.272454,0.00109989,0.1522,0.27959,0.00111759,0.0140515,0.201256,5,0.1,25,0.7,4.03095,3.70126,0.661915,-0.656632,-0.138898,-0.0279423,-0.397071,-0.128403,-0.0410452,0.0108386,0.621747,5,0.1,26,0.7,0.462388,-0.862113,0.537412,-0.722873,0.078414,-0.014744,-0.42937,0.703067,-0.113152,0.0169655,2.71398,5,0.1,27,0.7,-0.155963,2.95788,0.568738,-0.164216,0.695417,0.0641868,-0.168554,0.71381,0.0658594,0.00981301,1.07668,5,0.1,28,0.7,0.511539,2.99843,0.633242,-0.0326351,-0.846269,-0.0176266,-0.0335239,-0.432819,-0.0181049,0.0164983,1.6484,5,0.1,29,0.7,3.90109,-3.895,0.629055,0.0274058,0.282145,0.0283206,0.0281185,0.289544,0.0290796,0.0105541,0.169809,5,0.1,30,0.7,2.22835,0.404435,0.505,-0.21182,-0.844128,-0.0116484,-0.273153,-0.471586,-0.000715256,0.0132551,2.31615,5,0.1,31,0.7,-4.13785,-3.13507,0.651143,0.156607,0.846542,-0.00968305,0.202775,0.429958,-0.0121482,0.0169185,2.32525,5,0.1,32,0.7,-1.22319,0.160027,0.50098,-0.385504,-0.243998,-0.00418285,-0.395685,-0.250443,0.00939146,0.0108301,0.437958,5,0.1,33,0.7,2.41106,2.91118,0.50341,0.445491,0.0471234,-0.0124686,0.0302643,0.0484288,0.0203215,0.0094737,0.556531,5,0.1,34,0.7,-2.59145,-3.55617,0.702226,0.46762,0.215412,0.0389313,-0.0413358,0.221059,0.263333,0.0250538,0.471405,5,0.1,35,0.7,-3.20317,2.763,0.506615,0.756184,-0.254348,-0.0193325,0.995085,-0.343159,0.0154711,0.0109514,2.36319,5,0.1,36,0.7,-1.16633,-3.33733,0.554631,0.777398,-0.13221,0.0487191,0.797749,-0.13566,0.0500195,0.0136036,1.3059,5,0.1,37,0.7,3.88128,-2.30944,0.601912,-0.0063803,0.850525,0.0136714,-0.00743568,0.361115,0.015825,0.00991997,2.33488,5,0.1,38,0.7,-3.69785,-2.77642,0.586122,0.29053,0.597462,0.00736862,0.298172,0.613257,0.00756979,0.0171437,0.92353,5,0.1,39,0.7,-0.404371,1.46486,0.581197,0.395127,0.489861,0.00996999,-0.221793,0.403546,0.0102147,0.0215492,1.22551,5,0.1
0,0.8,-3.27493,-1.3129,0.684036,0.418133,0.658131,0.0172719,-0.508785,0.415862,0.0109076,0.0465419,2.56408,5,0.1,1,0.8,1.39015,-0.936417,0.650306,-0.853077,-0.459845,-0.0267878,-0.258982,-0.291646,-0.0169873,0.0193415,1.86558,5,0.1,2,0.8,-3.27923,-3.40608,0.624315,0.195593,0.585961,-0.00725389,-0.440359,-0.326633,0.00101328,0.0210302,3.19601,5,0.1,3,0.8,-0.278313,-0.996875,0.655309,-0.0131585,0.604792,-0.0335529,-0.00655651,0.301689,-0.0167191,0.0124589,0.46445,5,0.1,4,0.8,3.46099,0.222116,0.560893,-0.00514388,0.866025,0.0182673,-0.00321865,7.15256e-06,0.0115931,0.0139569,2.27343,5,0.1,5,0.8,-0.286361,-3.46823,0.579215,-0.00403449,0.609672,0.00614226,-0.0025481,-0.885487,0.0038743,0.0259693,3.09688,5,0.1,6,0.8,-3.87734,-0.814804,0.569782,0.229388,-0.866026,0.0120148,0.145197,0,0.00756979,0.0122317,2.22729,5,0.1,7,0.8,1.06998,2.55929,0.546319,-0.376144,-0.187647,0.032568,-0.187576,-0.0935793,0.0162423,0.0102559,0.224899,5,0.1,8,0.8,1.86783,-1.93534,0.628766,-0.496149,0.0821084,-0.0174522,-0.247478,0.041008,-0.00870228,0.0242214,0.32041,5,0.1,9,0.8,-1.51439,-2.36186,0.705501,-0.0822842,-0.569141,0.0270009,-0.0410676,-0.283837,0.0134706,0.00885337,0.419365,5,0.1,10,0.8,3.38537,3.85155,0.558676,-0.206631,-0.286222,0.0250772,0.0476837,-0.0422001,0.012517,0.00836055,0.150218,5,0.1,11,0.8,0.207895,-1.10763,0.630728,-0.37489,0.461498,-0.00320077,-0.358932,-0.181198,0.0556111,0.00976477,0.708408,5,0.1,12,0.8,0.836357,-3.88503,0.503766,-0.689404,0.354886,-0.0155196,-0.343919,0.177026,0.0330806,0.0277509,0.763313,5,0.1,13,0.8,3.26708,2.83336,0.586267,-0.284958,0.19213,0.00833124,0.643492,0.0958443,0.00417233,0.0138346,0.957999,5,0.1,14,0.8,3.1146,3.39335,0.558299,-0.342518,0.034368,0.0252977,-0.170827,0.0172853,0.0126362,0.0132605,0.150765,5,0.1,15,0.8,-2.43401,2.64142,0.658997,0.384676,-0.146455,-0.0357926,0.191927,-0.0730753,-0.0178516,0.010246,0.215962,5,0.1,16,0.8,-2.65162,3.0723,0.70859,0.507772,-0.390232,0.0259191,0.193596,-0.0765324,0.0183284,0.0147068,0.570087,5,0.1,17,0.8,1.43231,-4.15362,0.618475,-0.854561,0.446939,-0.00966489,-0.229299,0.283241,-0.00613928,0.012156,1.95418,5,0.1,18,0.8,-2.12452,3.53002,0.543584,0.196844,-0.776583,0.0342339,0.0982285,-0.387311,0.0170767,0.0121605,0.813574,5,0.1,19,0.8,3.95969,1.23808,0.649749,-0.422215,0.857046,-0.0259414,-0.267863,0.179589,-0.0164509,0.0185033,1.98634,5,0.1,20,0.8,-1.17402,3.58479,0.70423,0.166255,0.282228,0.0277668,0.0829101,0.140905,0.0138283,0.00994877,0.136732,5,0.1,21,0.8,1.70648,0.119683,0.585941,-0.489289,-0.254615,0.00852793,-0.244141,-0.127017,0.00429153,0.0143754,0.547419,5,0.1,22,0.8,-4.0862,-1.8945,0.500488,0.658989,0.148338,-0.00255555,0.328779,0.0739098,0.00807643,0.0110662,2.48953,5,0.1,23,0.8,4.06566,1.96674,0.59393,-0.555527,0.626865,0.00368208,-0.277042,0.312686,0.00184774,0.015612,0.887693,5,0.1,24,0.8,-3.41403,-2.13519,0.598031,0.160199,0.294375,0.00118762,0.0801086,0.146866,0.000596046,0.0122282,0.142096,5,0.1,25,0.8,3.96372,3.68682,0.658937,-0.68295,-0.14872,-0.0313744,-0.108719,-0.0623465,-0.0260174,0.0190067,2.22488,5,0.1,26,0.8,0.38842,-0.850767,0.535359,-0.751238,0.147609,-0.0263035,-0.115141,0.650465,-0.111997,0.00942681,0.932239,5,0.1,27,0.8,-0.173112,3.0305,0.575441,-0.177431,0.751376,0.0693485,-0.0885129,0.374913,0.0346303,0.0108814,0.760189,5,0.1,28,0.8,0.508131,2.91245,0.631401,-0.0352636,-0.866026,-0.0190467,-0.0176132,0,-0.00950694,0.0194926,1.22998,5,0.1,29,0.8,3.90395,-3.86554,0.632012,0.0296056,0.304848,0.0305995,0.0149012,0.152111,0.0152886,0.00859837,0.20331,5,0.1,30,0.8,2.20594,0.318533,0.503849,-0.234687,-0.866026,-0.0112101,-0.172019,1.43051e-05,0.00885129,0.0144255,2.22885,5,0.1,31,0.8,-4.12127,-3.04908,0.65012,0.173604,0.866026,-0.0106961,0.127554,0,-0.00759959,0.0132042,2.24802,5,0.1,32,0.8,-1.26345,0.134546,0.500611,-0.416529,-0.263634,-0.0031963,-0.207722,-0.131514,0.0101328,0.0110225,0.451141,5,0.1,33,0.8,2.45507,2.9161,0.502275,0.428534,0.0509202,-0.0101507,-0.345707,0.0253916,0.025183,0.0118149,0.503347,5,0.1,34,0.8,-2.54568,-3.53368,0.707608,0.440526,0.232744,0.0698015,-0.468731,0.11611,0.329882,0.0213885,0.27613,5,0.1,35,0.8,-3.12329,2.73602,0.504782,0.833583,-0.282991,-0.0171095,0.528574,-0.21553,0.0278354,0.0143655,2.25498,5,0.1,36,0.8,-1.08515,-3.35114,0.559719,0.839934,-0.142848,0.0526413,0.418842,-0.0711679,0.0262856,0.00952022,0.933861,5,0.1,37,0.8,3.88061,-2.22331,0.60335,-0.00699759,0.866026,0.0149757,-0.00441074,0,0.00947714,0.00912542,2.27171,5,0.1,38,0.8,-3.66751,-2.71403,0.586892,0.313908,0.645542,0.00796169,0.156641,0.322104,0.00396371,0.0177892,0.654478,5,0.1,39,0.8,-0.366252,1.51544,0.582239,0.36526,0.5173,0.010772,-0.342965,0.134408,0.00536442,0.0228703,1.02221,5,0.1
0,0.9,-3.23572,-1.24499,0.685821,0.368584,0.699466,0.0184178,-0.374004,0.370212,0.0108033,0.0465419,2.56408,5,0.1,1,0.9,1.30405,-0.983871,0.647542,-0.865155,-0.488651,-0.0284656,-0.0298992,-0.256453,-0.0149421,0.0193415,1.86558,5,0.1,2,0.9,-3.26185,-3.35019,0.623594,0.152377,0.522899,-0.00716671,-0.41984,-0.86315,0.00103563,0.0210302,3.19601,5,0.1,3,0.9,-0.279661,-0.934956,0.651874,-0.0137527,0.63213,-0.0350684,-0.00469759,0.2161,-0.0119805,0.0124589,0.46445,5,0.1,4,0.9,3.46035,0.308718,0.562772,-0.00860505,0.866026,0.0192286,-0.0587255,-2.68221e-06,0.00692531,0.0139569,2.27343,5,0.1,5,0.9,-0.286777,-3.41234,0.579849,-0.00429493,0.504167,0.00653872,-0.0023935,-1.12396,0.00364706,0.0259693,3.09688,5,0.1,6,0.9,-3.85353,-0.901407,0.571022,0.247616,-0.866026,0.0127864,0.196755,3.72529e-06,0.00708178,0.0122317,2.22729,5,0.1,7,0.9,1.03147,2.54008,0.549653,-0.393142,-0.196128,0.0340398,-0.134367,-0.0670254,0.0116304,0.0102559,0.224899,5,0.1,8,0.9,1.81703,-1.92694,0.626979,-0.518576,0.0858236,-0.0182408,-0.177294,0.0293702,-0.00623241,0.0242214,0.32041,5,0.1,9,0.9,-1.52281,-2.42013,0.708266,-0.086005,-0.594862,0.0282212,-0.0294149,-0.203326,0.00964478,0.00885337,0.419365,5,0.1,10,0.9,3.36486,3.82254,0.561266,-0.204185,-0.295109,0.0268556,0.0137091,-0.111505,0.0203922,0.00836055,0.150218,5,0.1,11,0.9,0.16873,-1.06283,0.630756,-0.406763,0.430485,0.00431165,-0.26008,-0.424065,0.088647,0.00976477,0.708408,5,0.1,12,0.9,0.765776,-3.8487,0.502387,-0.720568,0.37093,-0.0120129,-0.246361,0.126839,0.0360832,0.0277509,0.763313,5,0.1,13,0.9,3.24192,2.85303,0.58712,-0.217712,0.200814,0.00870908,0.683919,0.0686347,0.00298396,0.0138346,0.957999,5,0.1,14,0.9,3.07953,3.39687,0.560889,-0.357999,0.035933,0.0264428,-0.122383,0.0123531,0.00904873,0.0132605,0.150765,5,0.1,15,0.9,-2.39463,2.62643,0.655333,0.402067,-0.153077,-0.0374102,0.137448,-0.0523776,-0.0127889,0.010246,0.215962,5,0.1,16,0.9,-2.60002,3.0331,0.711282,0.522404,-0.391404,0.0279677,0.0818968,0.0576228,0.0204854,0.0147068,0.570087,5,0.1,17,0.9,1.34615,-4.10751,0.617481,-0.865204,0.474524,-0.010174,-0.0244677,0.242084,-0.00367314,0.012156,1.95418,5,0.1,18,0.9,-2.10437,3.45051,0.547089,0.205747,-0.81168,0.0357812,0.070408,-0.27743,0.0122264,0.0121605,0.813574,5,0.1,19,0.9,3.9161,1.32433,0.647071,-0.449167,0.865464,-0.027597,-0.244349,0.0224486,-0.0150129,0.0185033,1.98634,5,0.1,20,0.9,-1.157,3.61369,0.707072,0.173768,0.294996,0.0290204,0.0593886,0.100926,0.00990927,0.00994877,0.136732,5,0.1,21,0.9,1.65623,0.0936152,0.586814,-0.515856,-0.266125,0.00891639,-0.253901,-0.0909836,0.00306591,0.0143754,0.547419,5,0.1,22,0.9,-4.01842,-1.87909,0.500272,0.697793,0.161492,-0.00176923,0.39573,0.167727,0.00749156,0.0110662,2.48953,5,0.1,23,0.9,4.00879,2.03092,0.594307,-0.580632,0.655199,0.00384934,-0.198454,0.223957,0.00131875,0.015612,0.887693,5,0.1,24,0.9,-3.39763,-2.10505,0.598152,0.167456,0.307683,0.00124192,0.0573397,0.105172,0.000435859,0.0122282,0.142096,5,0.1,25,0.9,3.89502,3.67136,0.655724,-0.689138,-0.162691,-0.032383,0.00688434,-0.191614,0.0044629,0.0190067,2.22488,5,0.1,26,0.9,0.314728,-0.83282,0.532151,-0.704898,0.210104,-0.0378719,0.948263,0.577688,-0.113718,0.00942681,0.932239,5,0.1,27,0.9,-0.191277,3.10743,0.582541,-0.185451,0.785347,0.072486,-0.0634007,0.268504,0.024803,0.0108814,0.760189,5,0.1,28,0.9,0.504521,2.82592,0.629451,-0.0368596,-0.863235,-0.019908,-0.0126176,0.0825524,-0.00681356,0.0194926,1.22998,5,0.1,29,0.9,3.90701,-3.83405,0.635173,0.0317123,0.326472,0.0327715,0.024125,0.248045,0.0249036,0.00859837,0.20331,5,0.1,30,0.9,2.18158,0.23193,0.502786,-0.252372,-0.866025,-0.00992836,-0.16515,-1.78814e-06,0.0160895,0.0144255,2.22885,5,0.1,31,0.9,-4.10325,-2.96248,0.649011,0.186718,0.866026,-0.0114775,0.122458,0,-0.00729039,0.0132042,2.24802,5,0.1,32,0.9,-1.30625,0.107555,0.500341,-0.439798,-0.275551,-0.00221254,-0.227816,-0.0942042,0.0093542,0.0110225,0.451141,5,0.1,33,0.9,2.49558,2.92115,0.501388,0.376606,0.0487756,-0.00757771,-0.653282,-0.0608414,0.0256635,0.0118149,0.503347,5,0.1,34,0.9,-2.50429,-3.50985,0.716409,0.384726,0.243267,0.10731,-0.630915,0.0831783,0.396669,0.0213885,0.27613,5,0.1,35,0.9,-3.03815,2.70663,0.503223,0.862105,-0.304365,-0.0139792,0.0956059,-0.193462,0.0337772,0.0143655,2.25498,5,0.1,36,0.9,-0.999734,-3.36581,0.565108,0.86256,-0.150598,0.0550285,0.0690632,-0.0740886,0.0189245,0.00952022,0.933861,5,0.1,37,0.9,3.87989,-2.13671,0.604897,-0.00745468,0.866026,0.0159548,-0.00427663,0,0.00909343,0.00912542,2.27171,5,0.1,38,0.9,-3.63543,-2.64807,0.587706,0.326435,0.670915,0.00830237,0.0825524,0.162929,0.0025034,0.0177892,0.654478,5,0.1,39,0.9,-0.331587,1.56705,0.583341,0.328482,0.508106,0.0112586,-0.324059,-0.273436,0.0038445,0.0228703,1.02221,5,0.1
0,1,-3.2,-1.17354,0.687708,0.353003,0.725335,0.0192299,0.0510216,0.119388,0.00458956,0.0429662,2.45374,5,0.1,1,1,1.2175,-1.03377,0.644635,-0.865036,-0.506425,-0.0294998,0.0198483,-0.0798702,-0.00467896,0.0145533,1.38833,5,0.1,2,1,-3.24865,-3.30262,0.622884,0.112349,0.425667,-0.0069961,-0.377893,-1.02949,0.0025928,0.0223255,3.42579,5,0.1,3,1,-0.281052,-0.870997,0.648326,-0.0139929,0.6432,-0.0356823,0.000312924,-0.0139177,0.00077486,0.0115851,0.315844,5,0.1,4,1,3.45915,0.395321,0.564717,-0.0155926,0.866025,0.0195369,-0.0753403,1.43051e-05,-0.00116229,0.0142257,2.2718,5,0.1,5,1,-0.287217,-3.36731,0.580518,-0.00446886,0.400293,0.00680387,-0.000908971,-0.90003,0.00137091,0.0253602,3.19238,5,0.1,6,1,-3.82785,-0.988009,0.57233,0.264853,-0.866027,0.0132978,0.131726,8.9407e-05,0.00265241,0.0130185,2.32014,5,0.1,7,1,0.991696,2.52023,0.553097,-0.400023,-0.199562,0.0346363,0.00867248,0.00441074,-0.00077486,0.00944791,0.15295,5,0.1,8,1,1.76456,-1.91825,0.625134,-0.527659,0.0873297,-0.0185609,0.0114441,-0.00190735,0.000417233,0.0182868,0.217895,5,0.1,9,1,-1.53151,-2.48032,0.711121,-0.0875086,-0.605279,0.0287145,0.00184774,0.013113,-0.000596046,0.00864133,0.324674,5,0.1,10,1,3.34454,3.79252,0.564048,-0.201756,-0.304395,0.0286996,0.0437498,-0.056982,0.0145137,0.00830286,0.0885365,5,0.1,11,1,0.127039,-1.02219,0.631644,-0.42387,0.379518,0.0134736,-0.0701547,-0.58195,0.0900626,0.0104825,0.76778,5,0.1,12,1,0.692869,-3.81117,0.501364,-0.733188,0.377429,-0.0084728,0.0157952,-0.00810623,0.0340343,0.0265686,0.624769,5,0.1,13,1,3.22351,2.87334,0.588002,-0.151211,0.204325,0.00886172,0.63324,-0.00429153,-0.000178814,0.0178055,1.24406,5,0.1,14,1,3.04331,3.40051,0.563564,-0.364268,0.0365674,0.026907,0.00786781,-0.000715256,-0.000596046,0.00866609,0.130522,5,0.1,15,1,-2.35395,2.61094,0.651548,0.409108,-0.155759,-0.038065,-0.0089407,0.00333786,0.000804663,0.0097638,0.146858,5,0.1,16,1,-2.54767,2.9945,0.71417,0.521362,-0.378084,0.0296444,-0.113368,0.210166,0.0115931,0.0126559,0.419628,5,0.1,17,1,1.25963,-4.05909,0.616452,-0.864351,0.490928,-0.0103399,0.0334978,0.0684261,0.000655651,0.0143494,1.47326,5,0.1,18,1,-2.08355,3.36839,0.550709,0.209355,-0.825888,0.0364065,-0.00452995,0.0177622,-0.000804663,0.0107562,0.553268,5,0.1,19,1,3.87018,1.41092,0.64425,-0.466561,0.866026,-0.0286654,-0.0852346,0,-0.00521541,0.0183112,1.50262,5,0.1,20,1,-1.13941,3.64354,0.710009,0.176808,0.300169,0.0295267,-0.0038743,-0.00655651,-0.000625849,0.00972265,0.157456,5,0.1,21,1,1.60359,0.0666886,0.587716,-0.534418,-0.270785,0.00907481,-0.0941157,0.00584304,-0.000208616,0.0127043,0.562543,5,0.1,22,1,-3.9469,-1.86209,0.500131,0.729328,0.178149,-0.00108331,0.198483,0.149667,0.00613928,0.0130108,2.48865,5,0.1,23,1,3.95004,2.09721,0.594697,-0.590795,0.666678,0.00391752,0.0127554,-0.0145435,-8.9407e-05,0.0139249,0.756636,5,0.1,24,1,-3.38068,-2.07392,0.598278,0.170392,0.313073,0.00126511,-0.00357628,-0.00691414,-2.98023e-05,0.0131387,0.163625,5,0.1,25,1,3.82648,3.65409,0.652548,-0.678003,-0.182593,-0.0307456,0.229597,-0.187397,0.0270009,0.0100379,1.95683,5,0.1,26,1,0.250094,-0.809188,0.527831,-0.578586,0.259496,-0.0480801,1.50164,0.395417,-0.0864267,0.0137237,3.42057,5,0.1,27,1,-0.210041,3.18689,0.589875,-0.188699,0.799102,0.0737563,0.00408292,-0.0172853,-0.00157952,0.0106826,0.516945,5,0.1,28,1,0.500791,2.74034,0.627436,-0.0375062,-0.844634,-0.0202581,0.000804663,0.311732,0.000447035,0.013482,1.1031,5,0.1,29,1,3.91029,-3.80022,0.638568,0.0338852,0.34889,0.0350222,0.0172853,0.177026,0.0177622,0.0095122,0.124272,5,0.1,30,1,2.15564,0.145327,0.501881,-0.264919,-0.866025,-0.00811964,-0.0745058,0,0.0195503,0.0143075,2.22334,5,0.1,31,1,-4.08406,-2.87588,0.647833,0.196028,0.866026,-0.0120267,0.0553131,0,-0.00318885,0.0128285,2.24494,5,0.1,32,1,-1.3512,0.0796747,0.500164,-0.457022,-0.280376,-0.00135601,-0.0957847,0.00605583,0.00762939,0.013406,0.323441,5,0.1,33,1,2.52974,2.92564,0.500755,0.304794,0.040102,-0.00512302,-0.75376,-0.106573,0.0230372,0.00856314,0.475642,5,0.1,34,1,-2.46912,-3.48523,0.729073,0.317341,0.247532,0.14504,-0.703335,-0.00536442,0.340581,0.0246746,0.185867,5,0.1,35,1,-2.95187,2.67539,0.501997,0.859797,-0.318569,-0.0105307,-0.124454,-0.0779629,0.0344217,0.0104629,2.28372,5,0.1,36,1,-0.913542,-3.38118,0.570677,0.857261,-0.156015,0.0560045,-0.175327,-0.0275373,-0.00104308,0.0116101,0.651542,5,0.1,37,1,3.87913,-2.0501,0.60653,-0.00776649,0.866026,0.0166252,-0.00178814,0,0.00360608,0.0100989,2.27169,5,0.1,38,1,-3.60257,-2.58058,0.588544,0.328577,0.674492,0.00840724,-0.0466108,-0.105023,-0.000625849,0.0141023,0.4595,5,0.1,39,1,-0.3,1.61611,0.58448,0.306943,0.469971,0.011456,-0.110313,-0.460684,-0.000238419,0.022037,0.837681,5,0.1
0,1.1,-3.16334,-1.10029,0.689658,0.388921,0.739711,0.0197772,0.582337,0.128247,0.00520051,0.0429662,2.45374,5,0.1,1,1.1,1.13101,-1.08481,0.641662,-0.865095,-0.51372,-0.029927,0.0025332,-0.0436157,-0.00255927,0.0145533,1.38833,5,0.1,2,1.1,-3.23922,-3.26545,0.622196,0.0772085,0.317521,-0.00678441,-0.32337,-1.04719,0.00196323,0.0223255,3.42579,5,0.1,3,1.1,-0.282449,-0.806774,0.644763,-0.0139307,0.640378,-0.0355258,0.00144355,-0.0660457,0.00366196,0.0115851,0.315844,5,0.1,4,1.1,3.45717,0.481923,0.566665,-0.0244558,0.866026,0.0194103,-0.0958741,-1.93715e-06,-0.00213087,0.0142257,2.2718,5,0.1,5,1.1,-0.287669,-3.33137,0.581207,-0.00457386,0.325735,0.00696303,-0.000940636,-0.477597,0.00143424,0.0253602,3.19238,5,0.1,6,1.1,-3.80086,-1.07432,0.573729,0.273234,-0.856979,0.0151364,0.0310838,0.197355,0.0299811,0.0130185,2.32014,5,0.1,7,1.1,0.951763,2.50031,0.556555,-0.398018,-0.198646,0.0344727,0.0455119,0.0211596,-0.00374019,0.00944791,0.15295,5,0.1,8,1.1,1.71188,-1.90953,0.623281,-0.525343,0.0869451,-0.0184783,0.0541806,-0.00897795,0.00191852,0.0182868,0.217895,5,0.1,9,1.1,-1.54041,-2.54076,0.713988,-0.0915729,-0.602624,0.0285903,-0.0700653,0.0621527,-0.00293553,0.00864133,0.324674,5,0.1,10,1.1,3.32456,3.76178,0.566992,-0.197723,-0.310323,0.0301522,0.0448376,-0.0462234,0.0128336,0.00830286,0.0885365,5,0.1,11,1.1,0.0847472,-0.986528,0.633326,-0.417738,0.339085,0.0191223,0.183735,-0.263445,0.026904,0.0104825,0.76778,5,0.1,12,1.1,0.61966,-3.77332,0.500679,-0.729977,0.380225,-0.00533052,0.075236,0.0403374,0.0283644,0.0265686,0.624769,5,0.1,13,1.1,3.21146,2.89375,0.588887,-0.0912264,0.203437,0.00882382,0.550479,-0.0209063,-0.000905246,0.0178055,1.24406,5,0.1,14,1.1,3.00694,3.40431,0.566251,-0.362672,0.0408579,0.0267878,0.0373572,0.0752956,-0.00277162,0.00866609,0.130522,5,0.1,15,1.1,-2.3131,2.59538,0.647747,0.407305,-0.155079,-0.0378998,-0.0420809,0.0159442,0.00389665,0.0097638,0.146858,5,0.1,16,1.1,-2.49614,2.95779,0.717199,0.508434,-0.355371,0.0309347,-0.160009,0.249535,0.0122972,0.0126559,0.419628,5,0.1,17,1.1,1.17321,-4.00971,0.61543,-0.864503,0.49556,-0.0100084,0.00228733,0.00619888,0.00579655,0.0143494,1.47326,5,0.1,18,1.1,-2.06265,3.28592,0.554344,0.208438,-0.822274,0.0362452,-0.0214726,0.084728,-0.00374764,0.0107562,0.553268,5,0.1,19,1.1,3.82309,1.49752,0.641357,-0.47462,0.865738,-0.0291588,-0.0545233,-0.0114888,-0.00333786,0.0183112,1.50262,5,0.1,20,1.1,-1.12164,3.67372,0.712978,0.179548,0.304823,0.0299863,0.0442564,0.0751317,0.0074096,0.00972265,0.157456,5,0.1,21,1.1,1.54948,0.0396508,0.588622,-0.548667,-0.269599,0.00903374,-0.154518,0.0277954,-0.000942498,0.0127043,0.562543,5,0.1,22,1.1,-3.87301,-1.84318,0.50005,0.747296,0.202857,-0.000559166,0.127837,0.310488,0.00432879,0.0130108,2.48865,5,0.1,23,1.1,3.89089,2.16378,0.595088,-0.59265,0.663744,0.00389991,-0.0183731,-0.0685453,-0.000406057,0.0139249,0.756636,5,0.1,24,1.1,-3.36355,-2.04244,0.598405,0.173042,0.31792,0.00128495,0.0426769,0.0783056,0.0003241,0.0131387,0.163625,5,0.1,25,1.1,3.75999,3.63471,0.649643,-0.649793,-0.206385,-0.0270799,0.344172,-0.263482,0.0445992,0.0100379,1.95683,5,0.1,26,1.1,0.198786,-0.78176,0.522721,-0.45619,0.284288,-0.0529055,0.984033,0.109494,-0.0137538,0.0137237,3.42057,5,0.1,27,1.1,-0.228883,3.26668,0.597239,-0.187871,0.795594,0.0734336,0.0193762,-0.0820905,-0.00756606,0.0106826,0.516945,5,0.1,28,1.1,0.497203,2.65842,0.625414,-0.0328972,-0.785114,-0.0201685,0.0828691,0.831112,0.00208616,0.013482,1.1031,5,0.1,29,1.1,3.91377,-3.76443,0.642161,0.0356097,0.366598,0.0367989,0.0151843,0.156492,0.0157021,0.0095122,0.124272,5,0.1,30,1.1,2.12872,0.0587249,0.501168,-0.273547,-0.866025,-0.00612447,-0.0818372,-4.47035e-07,0.0199117,0.0143075,2.22334,5,0.1,31,1.1,-4.06414,-2.78927,0.646612,0.202431,0.866026,-0.0123998,0.0607371,0,-0.00354648,0.0128285,2.24494,5,0.1,32,1.1,-1.39742,0.0516792,0.500063,-0.467165,-0.279147,-0.000703055,-0.083454,0.0287839,0.00541285,0.013406,0.323441,5,0.1,33,1.1,2.55636,2.92905,0.50035,0.227943,0.0277746,-0.00305614,-0.744671,-0.134543,0.018131,0.00856314,0.475642,5,0.1,34,1.1,-2.44079,-3.46052,0.74531,0.250569,0.246447,0.179532,-0.630766,-0.0254214,0.331186,0.0246746,0.185867,5,0.1,35,1.1,-2.86671,2.64303,0.501112,0.841112,-0.329124,-0.00723163,-0.267684,-0.111029,0.031013,0.0104629,2.28372,5,0.1,36,1.1,-0.828588,-3.39691,0.57627,0.841949,-0.158361,0.0557804,-0.166394,-0.012815,-0.0055097,0.0116101,0.651542,5,0.1,37,1.1,3.87834,-1.9635,0.608214,-0.00798069,0.866026,0.0170643,-0.00201166,0,0.00417978,0.0100989,2.27169,5,0.1,38,1.1,-3.57004,-2.51385,0.589381,0.321127,0.657792,0.00830442,-0.108555,-0.240296,-0.00167638,0.0141023,0.4595,5,0.1,39,1.1,-0.269289,1.66055,0.585624,0.311808,0.417976,0.0114067,0.162889,-0.515185,-0.00116602,0.022037,0.837681,5,0.1
0,1.2,-3.12124,-1.02593,0.691655,0.454521,0.744241,0.0200734,0.665307,-0.0651479,-5.96046e-05,0.0403973,2.29363,5,0.1,1,1.2,1.04465,-1.13619,0.638668,-0.860062,-0.511405,-0.0297919,0.119358,0.104964,0.00604987,0.0163439,1.00616,5,0.1,2,1.2,-3.23301,-3.23844,0.621528,0.0479162,0.228995,-0.00655055,-0.261664,-0.681877,0.00295043,0.0218059,3.41017,5,0.1,3,1.2,-0.28383,-0.743309,0.641242,-0.0136197,0.62609,-0.0347331,0.005126,-0.2352,0.0130236,0.00912747,0.305626,5,0.1,4,1.2,3.45425,0.568526,0.568589,-0.0337183,0.866026,0.0189841,-0.084877,0,-0.00697374,0.0153894,2.27041,5,0.1,5,1.2,-0.288129,-3.3,0.581908,-0.00461489,0.3133,0.0070259,0.000283122,0.200629,-0.000417233,0.0308826,2.95055,5,0.1,6,1.2,-3.77358,-1.1586,0.57541,0.270373,-0.824013,0.0185639,-0.0905991,0.470996,0.0353754,0.0142988,2.57813,5,0.1,7,1.2,0.912343,2.48062,0.55997,-0.388594,-0.194138,0.0336826,0.152171,0.0737906,-0.0129044,0.0117883,0.21194,5,0.1,8,1.2,1.65981,-1.90092,0.621449,-0.513619,0.0850052,-0.0180662,0.192821,-0.0320077,0.00682473,0.0219753,0.144893,5,0.1,9,1.2,-1.54994,-2.60048,0.716822,-0.0992358,-0.58918,0.0279531,-0.0733137,0.221372,-0.0104904,0.0105631,0.221198,5,0.1,10,1.2,3.30507,3.73064,0.570058,-0.191456,-0.311059,0.030981,0.0859499,0.0418425,0.002563,0.0100882,0.122738,5,0.1,11,1.2,0.0442472,-0.953659,0.635296,-0.388938,0.320336,0.0195891,0.383188,-0.139713,-0.0141859,0.0119422,0.634272,5,0.1,12,1.2,0.547315,-3.73518,0.500276,-0.713693,0.381446,-0.00286549,0.268042,-0.0324249,0.020802,0.0288973,0.428971,5,0.1,13,1.2,3.20485,2.91391,0.589761,-0.0436008,0.198901,0.00862777,0.393391,-0.0747442,-0.00324845,0.0155852,3.83879,5,0.1,14,1.2,2.971,3.40883,0.568906,-0.354582,0.0496507,0.0261903,0.133157,0.0919104,-0.00986457,0.0112023,0.155782,5,0.1,15,1.2,-2.27274,2.58002,0.643991,0.398207,-0.151616,-0.0370547,-0.149488,0.0568628,0.0139177,0.0107533,0.16571,5,0.1,16,1.2,-2.44627,2.9236,0.720342,0.486928,-0.327337,0.0317797,-0.279427,0.314116,0.00324845,0.0145193,0.316973,5,0.1,17,1.2,1.087,-3.96035,0.614465,-0.856739,0.489199,-0.00921637,0.185728,-0.145197,0.00989437,0.0122823,1.0908,5,0.1,18,1.2,-2.04199,3.20443,0.557936,0.203788,-0.80393,0.035435,-0.0764132,0.301838,-0.0133216,0.0115528,0.367895,5,0.1,19,1.2,3.77555,1.58394,0.638436,-0.473887,0.86143,-0.0291139,0.0836849,-0.0919104,0.0051558,0.0179865,1.10616,5,0.1,20,1.2,-1.10348,3.70455,0.71601,0.183177,0.310981,0.0305936,0.0178814,0.0303984,0.00301003,0.00963592,0.0954107,5,0.1,21,1.2,1.49399,0.012932,0.589517,-0.559118,-0.263584,0.00883192,-0.0288486,0.0990105,-0.00333786,0.0149088,0.437657,5,0.1,22,1.2,-3.79798,-1.8213,0.500013,0.749403,0.234318,-0.000216067,-0.107884,0.293374,0.002563,0.010801,0.391059,5,0.1,23,1.2,3.83169,2.22956,0.595474,-0.589132,0.648934,0.00381321,0.110626,-0.243902,-0.00146031,0.0154671,0.521259,5,0.1,24,1.2,-3.34605,-2.01029,0.598535,0.176537,0.324339,0.00131279,0.0172853,0.0317097,0.000119209,0.0117597,0.0974683,5,0.1,25,1.2,3.69699,3.61279,0.647175,-0.607723,-0.230968,-0.0221401,0.502229,-0.210047,0.0528395,0.01081,1.76248,5,0.1,26,1.2,0.157488,-0.753193,0.517456,-0.374992,0.283213,-0.0515223,0.670053,-0.121891,0.038147,0.0125859,0.398322,5,0.1,27,1.2,-0.247502,3.34553,0.604517,-0.18368,0.777841,0.0717953,0.0690147,-0.292182,-0.0269711,0.00972133,0.343735,5,0.1,28,1.2,0.494405,2.5846,0.623415,-0.0224605,-0.686848,-0.0197187,0.119075,1.0972,0.00739098,0.0130109,0.997589,5,0.1,29,1.2,3.91739,-3.72716,0.645902,0.0365913,0.376719,0.0378132,0.00298023,0.0317097,0.00315905,0.0109998,0.068082,5,0.1,30,1.2,2.10105,-0.0278776,0.500653,-0.278544,-0.866026,-0.00421554,-0.00679493,7.15256e-06,0.0180006,0.0140788,2.2217,5,0.1,31,1.2,-4.04367,-2.70267,0.645358,0.206149,0.866026,-0.0126123,0.00524521,0,-0.000149012,0.0163404,2.24128,5,0.1,32,1.2,-1.44437,0.0240142,0.500016,-0.469735,-0.272919,-0.000272691,0.0482798,0.10252,0.00321865,0.00925324,0.373038,5,0.1,33,1.2,2.57569,2.93115,0.500126,0.161672,0.0141621,-0.00151992,-0.561237,-0.133634,0.0126064,0.00866804,0.442949,5,0.1,34,1.2,-2.41876,-3.43609,0.764782,0.191414,0.240952,0.208206,-0.551462,-0.0905991,0.229686,0.0259171,0.134253,5,0.1,35,1.2,-2.78429,2.60966,0.500535,0.803339,-0.337011,-0.00441521,-0.498533,-0.0309944,0.0250041,0.00950036,1.92215,5,0.1,36,1.2,-0.745447,-3.41274,0.581799,0.818019,-0.157487,0.0545606,-0.336468,0.0346899,-0.0202358,0.0124072,0.451134,5,0.1,37,1.2,3.87753,-1.8769,0.609936,-0.00809431,0.866026,0.0172943,0.000119209,-5.96046e-05,-0.000327826,0.00929096,2.27169,5,0.1,38,1.2,-3.53861,-2.44957,0.590199,0.305903,0.624698,0.00803173,-0.199318,-0.427723,-0.00393391,0.0137942,0.326706,5,0.1,39,1.2,-0.237145,1.7,0.586755,0.33168,0.373635,0.011152,0.20089,-0.368774,-0.00414252,0.0201923,0.664504,5,0.1
0,1.3,-3.07189,-0.951703,0.693668,0.53625,0.74067,0.0202214,0.894874,-0.0421442,0.00183284,0.0403973,2.29363,5,0.1,1,1.3,0.959018,-1.18682,0.635719,-0.853711,-0.500937,-0.0291872,0.0525415,0.122674,0.00711158,0.0163439,1.00616,5,0.1,2,1.3,-3.22944,-3.21837,0.620885,0.0243563,0.18077,-0.00634668,-0.208899,-0.184447,0.00150874,0.0218059,3.41017,5,0.1,3,1.3,-0.285926,-0.68236,0.637903,-0.0346569,0.588369,-0.031452,-0.377227,-0.506513,0.0492297,0.00912747,0.305626,5,0.1,4,1.3,3.45043,0.655128,0.570457,-0.0426926,0.866026,0.0183877,-0.0893772,-3.72529e-06,-0.0057593,0.0153894,2.27041,5,0.1,5,1.3,-0.28859,-3.26619,0.582609,-0.00460823,0.374907,0.00701733,8.3819e-05,0.919521,-0.000111759,0.0308826,2.95055,5,0.1,6,1.3,-3.74778,-1.23866,0.577533,0.238825,-0.776865,0.0245946,-0.498876,0.49147,0.0777692,0.0142988,2.57813,5,0.1,7,1.3,0.874431,2.4618,0.563278,-0.367803,-0.180365,0.0324748,0.263054,0.193447,-0.0124685,0.0117883,0.21194,5,0.1,8,1.3,1.60939,-1.89257,0.619676,-0.494556,0.0818426,-0.0173922,0.204392,-0.0338927,0.00721589,0.0219753,0.144893,5,0.1,9,1.3,-1.5603,-2.65832,0.719566,-0.108154,-0.567298,0.0269156,-0.0949875,0.234589,-0.0111237,0.0105631,0.221198,5,0.1,10,1.3,3.28633,3.69977,0.573164,-0.183333,-0.305789,0.0310771,0.0830591,0.0730306,-0.00168383,0.0100882,0.122738,5,0.1,11,1.3,0.00698188,-0.922058,0.637202,-0.358679,0.313715,0.0186616,0.243971,-0.0180714,-0.00582263,0.0119422,0.634272,5,0.1,12,1.3,0.477257,-3.69712,0.500079,-0.687194,0.379908,-0.00120057,0.284098,-0.017181,0.012707,0.0288973,0.428971,5,0.1,13,1.3,3.20253,2.9334,0.590607,-0.00400245,0.190554,0.0082653,0.329882,-0.0962317,-0.00417978,0.0155852,3.83879,5,0.1,14,1.3,2.93598,3.41444,0.571492,-0.347348,0.0640791,0.0256534,0.0359416,0.179812,-0.00267103,0.0112023,0.155782,5,0.1,15,1.3,-2.23341,2.56504,0.640332,0.390083,-0.148528,-0.0362982,-0.0403821,0.0153184,0.00375882,0.0107533,0.16571,5,0.1,16,1.3,-2.39893,2.89236,0.723538,0.46018,-0.298015,0.0321248,-0.269771,0.280634,0.00216439,0.0145193,0.316973,5,0.1,17,1.3,1.00213,-3.91216,0.613597,-0.840807,0.474072,-0.00812877,0.168964,-0.171989,0.0117049,0.0122823,1.0908,5,0.1,18,1.3,-2.02198,3.12552,0.561415,0.196292,-0.773949,0.0341126,-0.0799894,0.322446,-0.014212,0.0115528,0.367895,5,0.1,19,1.3,3.72856,1.6699,0.63555,-0.465562,0.859292,-0.0286016,0.100225,5.96046e-05,0.0061579,0.0179865,1.10616,5,0.1,20,1.3,-1.08516,3.73583,0.719088,0.18212,0.314668,0.0309581,-0.0411272,0.0276268,0.00273436,0.00963592,0.0954107,5,0.1,21,1.3,1.43838,-0.0129422,0.590384,-0.548721,-0.253797,0.00850232,0.231817,0.104936,-0.00352785,0.0149088,0.437657,5,0.1,22,1.3,-3.72388,-1.79656,0.500001,0.729277,0.258701,-3.11062e-05,-0.302061,0.185966,0.0012219,0.010801,0.391059,5,0.1,23,1.3,3.77325,2.29326,0.595849,-0.579866,0.624826,0.00366932,0.0999868,-0.258416,-0.00153854,0.0154671,0.521259,5,0.1,24,1.3,-3.32829,-1.97766,0.598667,0.17863,0.328185,0.00132797,0.0156611,0.0288188,0.000115484,0.0117597,0.0974683,5,0.1,25,1.3,3.63869,3.58849,0.645236,-0.558151,-0.256054,-0.0165552,0.500128,-0.26609,0.0574216,0.01081,1.76248,5,0.1,26,1.3,0.123915,-0.725195,0.512563,-0.291783,0.278944,-0.0457478,0.952063,0.0106692,0.0739582,0.0125859,0.398322,5,0.1,27,1.3,-0.265532,3.42188,0.611565,-0.176857,0.748955,0.0691289,0.073134,-0.309676,-0.0285879,0.00972133,0.343735,5,0.1,28,1.3,0.492758,2.52183,0.621479,-0.0105092,-0.565894,-0.0189879,0.116965,1.25404,0.00783429,0.0130109,0.997589,5,0.1,29,1.3,3.92106,-3.68939,0.649694,0.0366986,0.377931,0.0379326,-0.00208616,-0.0201911,-0.00204146,0.0109998,0.068082,5,0.1,30,1.3,2.07309,-0.11448,0.500316,-0.281096,-0.866025,-0.00258451,-0.0281036,8.9407e-07,0.0144579,0.0140788,2.2217,5,0.1,31,1.3,-4.02291,-2.61607,0.644094,0.209653,0.866026,-0.012689,0.0493824,0,-0.00071153,0.0163404,2.24128,5,0.1,32,1.3,-1.4909,-0.00277637,0.500002,-0.458694,-0.262785,-4.014e-05,0.177026,0.108654,0.00153854,0.00925324,0.373038,5,0.1,33,1.3,2.58938,2.93189,0.500027,0.116329,0.000656769,-0.000542868,-0.311688,-0.132456,0.00716373,0.00866804,0.442949,5,0.1,34,1.3,-2.40223,-3.41244,0.786732,0.140467,0.231998,0.230226,-0.467107,-0.0959784,0.196625,0.0259171,0.134253,5,0.1,35,1.3,-2.70644,2.57581,0.500206,0.753476,-0.339457,-0.00228453,-0.516549,-0.00417233,0.0175759,0.00950036,1.92215,5,0.1,36,1.3,-0.665196,-3.42829,0.587156,0.787533,-0.153172,0.0525524,-0.303969,0.0552535,-0.0216179,0.0124072,0.451134,5,0.1,37,1.3,3.87672,-1.7903,0.611669,-0.00813939,0.866025,0.0173834,-0.000551343,1.49012e-05,0.00112131,0.00929096,2.27169,5,0.1,38,1.3,-3.50898,-2.38916,0.590984,0.286727,0.583699,0.00765165,-0.192404,-0.408828,-0.00391528,0.0137942,0.326706,5,0.1,39,1.3,-0.202734,1.73597,0.58785,0.358063,0.349421,0.0107418,0.292297,-0.147536,-0.00441447,0.0201923,0.664504,5,0.1
0,1.4,-3.01392,-0.878048,0.695695,0.620615,0.729753,0.0202373,0.738144,-0.200927,-0.00232458,0.0407478,2.16185,5,0.1,1,1.4,0.8741,-1.23615,0.632844,-0.841932,-0.483826,-0.028193,0.214398,0.231743,0.0135005,0.0147513,0.706624,5,0.1,2,1.4,-3.22796,-3.2,0.620258,0.00620484,0.198346,-0.006181,-0.154018,0.500083,0.00202656,0.0193785,3.06167,5,0.1,3,1.4,-0.291578,-0.626414,0.63504,-0.0804305,0.527275,-0.0254989,-0.500545,-0.703216,0.067085,0.00808869,0.177317,5,0.1,4,1.4,3.44575,0.741731,0.572263,-0.0506878,0.866026,0.0176981,-0.0671148,0,-0.00861287,0.0138446,2.26932,5,0.1,5,1.4,-0.28905,-3.22367,0.583309,-0.00455827,0.477475,0.00694245,0.00105798,1.04642,-0.00160933,0.00702653,0.392697,5,0.1,6,1.4,-3.72679,-1.31373,0.5804,0.178069,-0.72251,0.0328079,-0.68295,0.608087,0.0808537,0.0115282,3.47092,5,0.1,7,1.4,0.839142,2.44487,0.566456,-0.336236,-0.156987,0.0309855,0.36636,0.267029,-0.01809,0.0106212,0.179921,5,0.1,8,1.4,1.56108,-1.88458,0.617977,-0.47009,0.077787,-0.0165299,0.295579,-0.0489354,0.010401,0.0209526,0.164168,5,0.1,9,1.4,-1.57155,-2.71373,0.722195,-0.1165,-0.539225,0.0255823,-0.064671,0.33915,-0.0160635,0.00884966,0.148832,5,0.1,10,1.4,3.26845,3.66967,0.576249,-0.173742,-0.294894,0.0304714,0.11313,0.1508,-0.0110567,0.0076223,0.100391,5,0.1,11,1.4,-0.0277482,-0.890746,0.639043,-0.336323,0.312325,0.018169,0.219381,-0.0283122,-0.00506639,0.0104368,0.511553,5,0.1,12,1.4,0.410132,-3.65932,0.500011,-0.653187,0.374824,-0.000271201,0.41069,-0.0976324,0.00616908,0.0244539,0.289991,5,0.1,13,1.4,3.20326,2.95191,0.59141,0.01266,0.179005,0.0077635,-0.0249147,-0.13721,-0.00593066,0.0102134,3.52724,5,0.1,14,1.4,2.90143,3.42178,0.574044,-0.343186,0.0826657,0.0253454,0.0648499,0.17941,-0.00479817,0.0112066,0.0948677,5,0.1,15,1.4,-2.19461,2.55027,0.636721,0.38541,-0.146753,-0.0358626,-0.0730753,0.0277758,0.00679493,0.0141888,0.0970066,5,0.1,16,1.4,-2.35433,2.86397,0.72675,0.430602,-0.269794,0.0319615,-0.331163,0.289321,-0.0064075,0.0128065,0.24651,5,0.1,17,1.4,0.91911,-3.86576,0.612844,-0.816876,0.452387,-0.00690371,0.334352,-0.271201,0.0126958,0.0110514,0.800976,5,0.1,18,1.4,-2.0028,3.04993,0.564746,0.186718,-0.735348,0.0324115,-0.115812,0.465989,-0.0205338,0.0129778,0.252973,5,0.1,19,1.4,3.68265,1.75566,0.632729,-0.450939,0.853083,-0.0277027,0.203729,-0.158966,0.0125468,0.0171615,0.787581,5,0.1,20,1.4,-1.06727,3.76733,0.722187,0.174668,0.313866,0.0308812,-0.108659,-0.0544786,-0.00536442,0.0120088,0.0863608,5,0.1,21,1.4,1.38506,-0.037733,0.591215,-0.513899,-0.241236,0.0080809,0.45836,0.15169,-0.0050962,0.00947302,0.404446,5,0.1,22,1.4,-3.65283,-1.76999,0.500003,0.687981,0.270197,4.32134e-05,-0.526428,0.0391603,0.000357628,0.0118974,0.278195,5,0.1,23,1.4,3.71592,2.35429,0.596207,-0.564873,0.593901,0.00348687,0.217199,-0.373483,-0.00223517,0.0167161,0.352515,5,0.1,24,1.4,-3.31041,-1.94481,0.5988,0.17817,0.327346,0.00132471,-0.0309944,-0.0567436,-0.000238419,0.011257,0.128824,5,0.1,25,1.4,3.58545,3.56163,0.643866,-0.505906,-0.279784,-0.0109091,0.551343,-0.190258,0.0543892,0.0129575,2.4148,5,0.1,26,1.4,0.0996757,-0.697202,0.508394,-0.192067,0.280856,-0.0373468,1.00945,0.00852346,0.0912547,0.0109757,0.324151,5,0.1,27,1.4,-0.282808,3.49504,0.618317,-0.168104,0.711888,0.0657067,0.105709,-0.447631,-0.0413358,0.00900524,0.226247,5,0.1,28,1.4,0.492268,2.47134,0.619624,0.000417978,-0.446618,-0.0180498,0.0994205,1.09363,0.0113547,0.00842963,0.468202,5,0.1,29,1.4,3.9247,-3.65186,0.65346,0.0359774,0.370604,0.0371948,-0.0132322,-0.134706,-0.0135303,0.0111486,0.0458729,5,0.1,30,1.4,2.04491,-0.201083,0.500123,-0.281417,-0.866025,-0.00134557,0.033021,0,0.0102818,0.0127594,2.21961,5,0.1,31,1.4,-4.00173,-2.52947,0.642825,0.213355,0.866026,-0.0126392,0.0135899,0,0.00214577,0.0170124,2.23977,5,0.1,32,1.4,-1.53565,-0.0284451,0.500003,-0.433734,-0.249779,5.36442e-05,0.323653,0.157063,0.000447035,0.0105067,0.345792,5,0.1,33,1.4,2.6,2.93132,0.500002,0.101322,-0.0116348,-4.02331e-05,-0.0025034,-0.110507,0.00312924,0.00899013,0.37868,5,0.1,34,1.4,-2.39038,-3.38978,0.810589,0.0980198,0.220519,0.245172,-0.382066,-0.13876,0.0927746,0.0239177,0.155889,5,0.1,35,1.4,-2.63382,2.54198,0.500053,0.697106,-0.33555,-0.000889599,-0.622272,0.0914335,0.0104308,0.0108681,1.67379,5,0.1,36,1.4,-0.588114,-3.44327,0.59229,0.752051,-0.145847,0.0499591,-0.42665,0.0933409,-0.0314116,0.0101291,0.308118,5,0.1,37,1.4,3.87591,-1.70369,0.613409,-0.00812411,0.866026,0.0173494,0.00119209,-5.96046e-05,-0.0025034,0.00955885,2.27169,5,0.1,38,1.4,-3.48131,-2.33291,0.591727,0.266069,0.540179,0.00720918,-0.226378,-0.472546,-0.0050962,0.0185744,0.238672,5,0.1,39,1.4,-0.165547,1.77032,0.588899,0.384205,0.338516,0.0102133,0.205666,-0.0946522,-0.0064075,0.0182495,0.669793,5,0.1
0,1.5,-2.94782,-0.805931,0.697715,0.702826,0.713213,0.020205,0.837415,-0.16211,0.000458211,0.0407478,2.16185,5,0.1,1,1.5,0.790836,-1.28342,0.63009,-0.82384,-0.46162,-0.026899,0.18353,0.227489,0.013262,0.0147513,0.706624,5,0.1,2,1.5,-3.22806,-3.17623,0.619641,-0.00779741,0.28837,-0.00621881,-0.12444,1.18697,-0.00205636,0.0193785,3.06167,5,0.1,3,1.5,-0.302232,-0.576974,0.63281,-0.133056,0.463447,-0.0192571,-0.52649,-0.587493,0.057701,0.00808869,0.177317,5,0.1,4,1.5,3.44033,0.828333,0.573996,-0.0576045,0.866026,0.0169905,-0.0664741,-3.72529e-06,-0.00635535,0.0138446,2.26932,5,0.1,5,1.5,-0.288745,-3.17187,0.583961,0.0169913,0.547433,0.00580577,0.382099,0.375941,-0.0191815,0.00702653,0.392697,5,0.1,6,1.5,-3.71171,-1.38238,0.584124,0.12953,-0.645388,0.0418798,-0.317246,0.909016,0.0944026,0.0115282,3.47092,5,0.1,7,1.5,0.807435,2.43059,0.569465,-0.297147,-0.128023,0.0291848,0.412621,0.305042,-0.0186898,0.0106212,0.179921,5,0.1,8,1.5,1.51537,-1.87699,0.616366,-0.445539,0.074278,-0.0157844,0.217147,-0.0260696,0.00553578,0.0209526,0.164168,5,0.1,9,1.5,-1.58355,-2.76602,0.724676,-0.123361,-0.506877,0.0240495,-0.0646487,0.323147,-0.0153184,0.00884966,0.148832,5,0.1,10,1.5,3.2518,3.64096,0.579237,-0.157716,-0.278935,0.0292247,0.200808,0.174105,-0.0145063,0.0076223,0.100391,5,0.1,11,1.5,-0.0601505,-0.859278,0.640772,-0.310433,0.319898,0.0158829,0.296762,0.144377,-0.0373013,0.0104368,0.511553,5,0.1,12,1.5,0.346787,-3.62227,0.500008,-0.614012,0.366201,0.000141561,0.391368,-0.0900328,0.00235438,0.0244539,0.289991,5,0.1,13,1.5,3.20391,2.96956,0.592154,-0.00691041,0.177626,0.00709863,-0.445396,0.0790656,-0.00734255,0.0102134,3.52724,5,0.1,14,1.5,2.86737,3.43094,0.576559,-0.338141,0.100311,0.0249723,0.0517964,0.164777,-0.0038296,0.0112066,0.0948677,5,0.1,15,1.5,-2.15636,2.53571,0.633162,0.379723,-0.144591,-0.0353339,-0.0583678,0.0221878,0.00542775,0.0141888,0.0970066,5,0.1,16,1.5,-2.31298,2.83814,0.729934,0.395795,-0.249098,0.0318483,-0.368744,0.144973,0.00182539,0.0128065,0.24651,5,0.1,17,1.5,0.838948,-3.82182,0.612216,-0.787001,0.42641,-0.00568358,0.294782,-0.261247,0.0117011,0.0110514,0.800976,5,0.1,18,1.5,-1.98459,2.97893,0.567877,0.178556,-0.68273,0.0301281,-0.05918,0.589013,-0.0253245,0.0129778,0.252973,5,0.1,19,1.5,3.63854,1.84022,0.63002,-0.431296,0.837788,-0.0264606,0.203207,-0.179164,0.0130869,0.0171615,0.787581,5,0.1,20,1.5,-1.05052,3.79852,0.725256,0.158785,0.310246,0.0305247,-0.202462,-0.0343174,-0.00337511,0.0120088,0.0863608,5,0.1,21,1.5,1.33644,-0.0611274,0.591998,-0.454195,-0.226767,0.00759503,0.711836,0.144548,-0.00485405,0.00947302,0.404446,5,0.1,22,1.5,-3.58675,-1.74279,0.500008,0.632549,0.273368,5.79283e-05,-0.588104,0.0132471,-2.98023e-05,0.0118974,0.278195,5,0.1,23,1.5,3.66044,2.41188,0.596545,-0.544846,0.558276,0.00327462,0.203952,-0.35587,-0.00211224,0.0167161,0.352515,5,0.1,24,1.5,-3.29269,-1.91238,0.598932,0.176672,0.320798,0.00129789,-0.00928342,-0.0843629,-0.000342727,0.011257,0.128824,5,0.1,25,1.5,3.5372,3.53242,0.643052,-0.462312,-0.306546,-0.00533806,0.34979,-0.30984,0.0554435,0.0129575,2.4148,5,0.1,26,1.5,0.0855185,-0.668931,0.505127,-0.0916572,0.285462,-0.0279448,0.9753,0.0629462,0.0943579,0.0109757,0.324151,5,0.1,27,1.5,-0.29911,3.56408,0.624689,-0.158021,0.669189,0.0617638,0.100728,-0.42659,-0.0393912,0.00900524,0.226247,5,0.1,28,1.5,0.491813,2.43219,0.618041,-0.0179405,-0.336605,-0.012223,-0.406498,1.08866,0.0950843,0.00842963,0.468202,5,0.1,29,1.5,3.92824,-3.61544,0.657115,0.0347234,0.357842,0.0359128,-0.0131726,-0.134185,-0.0134744,0.0111486,0.0458729,5,0.1,30,1.5,2.0168,-0.287685,0.500033,-0.281606,-0.866025,-0.000534486,-0.0182241,8.9407e-07,0.0060834,0.0127594,2.21961,5,0.1,31,1.5,-3.98024,-2.44286,0.641568,0.217122,0.866026,-0.0125246,0.0469387,0,0.000834465,0.0170124,2.23977,5,0.1,32,1.5,-1.57698,-0.052668,0.50001,-0.389167,-0.234798,7.18981e-05,0.54846,0.149668,-3.72529e-05,0.0105067,0.345792,5,0.1,33,1.5,2.6107,2.92962,0.500009,0.117532,-0.0222243,0.000155531,0.285909,-0.0982583,0.000946224,0.00899013,0.37868,5,0.1,34,1.5,-2.38239,-3.36828,0.83576,0.0629127,0.21057,0.25952,-0.318766,-0.0739247,0.169367,0.0239177,0.155889,5,0.1,35,1.5,-2.56705,2.5093,0.500006,0.639538,-0.314333,-0.000135787,-0.54884,0.317305,0.00498444,0.0108681,1.67379,5,0.1,36,1.5,-0.515012,-3.45739,0.597135,0.709791,-0.136519,0.0469595,-0.437349,0.0963509,-0.029996,0.0101291,0.308118,5,0.1,37,1.5,3.8751,-1.61709,0.615137,-0.00807606,0.866025,0.0172506,0.00025332,1.49012e-05,-0.000458211,0.00955885,2.27169,5,0.1,38,1.5,-3.45576,-2.28109,0.592424,0.245581,0.49766,0.00673616,-0.192091,-0.395939,-0.00458583,0.0185744,0.238672,5,0.1,39,1.5,-0.125858,1.80393,0.58989,0.411037,0.335248,0.00960166,0.294201,0.00429899,-0.0061132,0.0182495,0.669793,5,0.1
0,1.6,-2.87365,-0.735572,0.699734,0.776339,0.691882,0.0201195,0.583768,-0.286818,-0.00303984,0.061327,2.06237,5,0.1,1,1.6,0.70956,-1.32835,0.627472,-0.799139,-0.435805,-0.0253946,0.335276,0.298917,0.0174642,0.0424385,0.485484,5,0.1,2,1.6,-3.22941,-3.1411,0.619007,-0.0184298,0.415778,-0.00646412,-0.0873804,1.27494,-0.00229478,0.0494658,2.0681,5,0.1,3,1.6,-0.318041,-0.53347,0.631157,-0.181354,0.40734,-0.0139624,-0.421196,-0.544876,0.0481308,0.0155825,0.167301,5,0.1,4,1.6,3.43427,0.914936,0.575661,-0.063169,0.866026,0.0162899,-0.0417233,0,-0.00825524,0.0249417,2.26862,5,0.1,5,1.6,-0.284831,-3.11619,0.58443,0.0633635,0.557232,0.0034526,0.508249,-0.157237,-0.0263453,0.0171538,0.132223,5,0.1,6,1.6,-3.69994,-1.44205,0.588764,0.109315,-0.545397,0.0506207,-0.110507,1.06919,0.0759661,0.0182245,2.74702,5,0.1,7,1.6,0.779839,2.41932,0.572284,-0.254282,-0.0972569,0.0271231,0.44176,0.304461,-0.023067,0.0159642,0.141027,5,0.1,8,1.6,1.47192,-1.86969,0.614814,-0.422949,0.0717372,-0.0152439,0.250101,-0.0281334,0.00596046,0.0303329,0.142082,5,0.1,9,1.6,-1.59615,-2.81502,0.727001,-0.128099,-0.472039,0.0223979,-0.0245571,0.383854,-0.018239,0.0100985,0.0994078,5,0.1,10,1.6,3.23714,3.61401,0.582077,-0.134808,-0.259161,0.0274718,0.251651,0.224948,-0.020951,0.00992803,0.134303,5,0.1,11,1.6,-0.089595,-0.826521,0.642143,-0.277364,0.335041,0.01131,0.362322,0.132263,-0.0514388,0.0111851,0.401451,5,0.1,12,1.6,0.287434,-3.58619,0.500029,-0.571814,0.354254,0.000247359,0.465028,-0.159144,0,0.0328446,1.05299,5,0.1,13,1.6,3.2,2.98787,0.592825,-0.0804067,0.18943,0.0063017,-0.985384,0.133872,-0.00855327,0.0153444,3.09035,5,0.1,14,1.6,2.8339,3.44171,0.579031,-0.330162,0.114149,0.0243843,0.118375,0.105977,-0.00879169,0.0132963,0.0856199,5,0.1,15,1.6,-2.11878,2.52139,0.629665,0.370747,-0.14118,-0.0344992,-0.133157,0.0507832,0.012368,0.0162467,0.113854,5,0.1,16,1.6,-2.27533,2.81386,0.733126,0.356305,-0.237232,0.0319272,-0.422716,0.107527,-0.00187755,0.0102659,0.588735,5,0.1,17,1.6,0.761868,-3.78056,0.611704,-0.752585,0.397986,-0.00456572,0.415206,-0.315905,0.0106394,0.0127774,1.81894,5,0.1,18,1.6,-1.96701,2.91382,0.570754,0.17285,-0.61729,0.0273213,-0.0634789,0.719428,-0.030905,0.0138822,0.195384,5,0.1,19,1.6,3.59652,1.92285,0.627446,-0.40794,0.811863,-0.0249535,0.273108,-0.360906,0.0175834,0.019294,0.55807,5,0.1,20,1.6,-1.03576,3.82929,0.728284,0.135419,0.30424,0.0299335,-0.258982,-0.0970364,-0.00953674,0.0109795,0.14421,5,0.1,21,1.6,1.29484,-0.0830477,0.592732,-0.375906,-0.211182,0.00707209,0.834107,0.171747,-0.00575185,0.0103834,0.230349,5,0.1,22,1.6,-3.52657,-1.71551,0.500013,0.569504,0.271016,4.17233e-05,-0.675559,-0.0675321,-0.000208616,0.0091629,0.727727,5,0.1,23,1.6,3.60709,2.46585,0.596861,-0.520623,0.519907,0.00304729,0.294685,-0.422716,-0.0025034,0.0151636,0.235946,5,0.1,24,1.6,-3.2751,-1.88084,0.599059,0.174558,0.308797,0.00125021,-0.0400543,-0.162125,-0.000655651,0.0110884,0.112102,5,0.1,25,1.6,3.49259,3.50025,0.642787,-0.430852,-0.335675,-9.38773e-05,0.301003,-0.247002,0.0482202,0.00885822,0.693042,5,0.1,26,1.6,0.0810138,-0.640119,0.502793,-0.00102911,0.289902,-0.0188917,0.820465,0.0111163,0.085026,0.0115154,0.284551,5,0.1,27,1.6,-0.314385,3.62876,0.630659,-0.14716,0.623196,0.0575185,0.119686,-0.506997,-0.0468194,0.0122032,0.148703,5,0.1,28,1.6,0.487559,2.40384,0.617364,-0.0701882,-0.232029,-0.000831485,-0.591576,0.989199,0.124812,0.0133336,0.311696,5,0.1,29,1.6,3.93164,-3.58042,0.66063,0.0331223,0.341499,0.0342727,-0.0195503,-0.201583,-0.0202656,0.0118964,0.018744,5,0.1,30,1.6,1.98859,-0.374288,0.500004,-0.281879,-0.866025,-9.68575e-05,0.0261068,-1.43051e-05,0.00286102,0.0116043,2.22278,5,0.1,31,1.6,-3.95833,-2.35626,0.640322,0.220209,0.866026,-0.0123546,0.00441074,0,0.00301003,0.0143316,2.29341,5,0.1,32,1.6,-1.61292,-0.0753646,0.500017,-0.327578,-0.218661,5.36442e-05,0.667036,0.17783,-0.000298023,0.00910052,0.187637,5,0.1,33,1.6,2.62409,2.92694,0.500027,0.151294,-0.0307798,0.000178814,0.358343,-0.0706911,-0.000357628,0.00880731,0.305879,5,0.1,34,1.6,-2.37757,-3.34758,0.862518,0.0344574,0.203371,0.274765,-0.249863,-0.0798702,0.1176,0.0224287,0.0938847,5,0.1,35,1.6,-2.50585,2.47972,0.500011,0.584006,-0.274992,0.000171363,-0.575662,0.455976,0.00146031,0.00853813,1.42052,5,0.1,36,1.6,-0.446362,-3.47054,0.601674,0.661476,-0.126052,0.0437245,-0.541226,0.114918,-0.0356436,0.0105136,0.256069,5,0.1,37,1.6,3.87429,-1.53049,0.616856,-0.00799894,0.866026,0.0170901,0.00154972,-5.96046e-05,-0.00351667,0.0112472,2.2717,5,0.1,38,1.6,-3.43216,-2.23329,0.593074,0.22617,0.457913,0.00625402,-0.202298,-0.411987,-0.0051856,0.01188,0.174958,5,0.1,39,1.6,-0.0833849,1.83747,0.590818,0.436725,0.335056,0.00894219,0.193112,-0.0263453,-0.00724196,0.0181365,0.500465,5,0.1
0,1.7,-2.79324,-0.667584,0.701738,0.829535,0.669358,0.0200217,0.442654,-0.197306,-0.000122935,0.061327,2.06237,5,0.1,1,1.7,0.631201,-1.37051,0.625015,-0.76851,-0.407648,-0.0237499,0.306681,0.276849,0.016164,0.0424385,0.485484,5,0.1,2,1.7,-3.23167,-3.09282,0.61834,-0.0265945,0.551176,-0.006931,-0.0735968,1.3568,-0.00616536,0.0494658,2.0681,5,0.1,3,1.7,-0.338178,-0.495059,0.629962,-0.220011,0.364269,-0.0102946,-0.338264,-0.341749,0.0268184,0.0155825,0.167301,5,0.1,4,1.7,3.42773,1.00154,0.577256,-0.0675488,0.866025,0.0156344,-0.0414103,0,-0.00565127,0.0249417,2.26862,5,0.1,5,1.7,-0.276243,-3.06133,0.584617,0.105498,0.538944,8.08388e-05,0.33457,-0.221461,-0.0387281,0.0171538,0.132223,5,0.1,6,1.7,-3.68901,-1.4925,0.59411,0.113966,-0.474503,0.0553832,0.167593,0.417322,0.020992,0.0182245,2.74702,5,0.1,7,1.7,0.756207,2.41108,0.574897,-0.221897,-0.0680685,0.0252653,0.228867,0.275105,-0.0154972,0.0159642,0.141027,5,0.1,8,1.7,1.43126,-1.86264,0.613315,-0.386536,0.0693664,-0.0147416,0.462867,-0.0224262,0.00474975,0.0303329,0.142082,5,0.1,9,1.7,-1.60909,-2.86039,0.729154,-0.130584,-0.436055,0.0206882,-0.0188649,0.348702,-0.0165701,0.0100985,0.0994078,5,0.1,10,1.7,3.22496,3.5893,0.584714,-0.108422,-0.234123,0.0251984,0.271246,0.274301,-0.024654,0.00992803,0.134303,5,0.1,11,1.7,-0.115583,-0.792095,0.642994,-0.242933,0.355208,0.00554193,0.330334,0.237253,-0.0613555,0.0111851,0.401451,5,0.1,12,1.7,0.232389,-3.55092,0.500052,-0.530447,0.356201,0.000203401,0.382893,0.14855,-0.000789762,0.0328446,1.05299,5,0.1,13,1.7,3.18617,3.00787,0.593437,-0.20253,0.213592,0.00614841,-1.36952,0.313133,0.00394136,0.0153444,3.09035,5,0.1,14,1.7,2.80138,3.45343,0.581432,-0.320794,0.118209,0.0236889,0.0854135,-0.0192225,-0.00633299,0.0132963,0.0856199,5,0.1,15,1.7,-2.08236,2.50725,0.626276,0.357253,-0.143937,-0.0332455,-0.147805,-0.0839978,0.0137426,0.0162467,0.113854,5,0.1,16,1.7,-2.24294,2.79077,0.736666,0.282203,-0.223404,0.0418505,-0.989512,0.168771,0.176407,0.0102659,0.588735,5,0.1,17,1.7,0.688608,-3.74206,0.611337,-0.712811,0.374236,-0.00248039,0.402536,-0.18315,0.0286512,0.0127774,1.81894,5,0.1,18,1.7,-1.94995,2.8558,0.573329,0.169009,-0.542066,0.0241492,-0.0241697,0.780627,-0.0325143,0.0138822,0.195384,5,0.1,19,1.7,3.55705,2.00221,0.625036,-0.381671,0.774453,-0.0232427,0.263035,-0.407025,0.017222,0.019294,0.55807,5,0.1,20,1.7,-1.02358,3.85915,0.731221,0.107694,0.291951,0.0287252,-0.288308,-0.152797,-0.0150241,0.0109795,0.14421,5,0.1,21,1.7,1.26148,-0.103348,0.593412,-0.290926,-0.195082,0.00653295,0.84962,0.15603,-0.00521913,0.0103834,0.230349,5,0.1,22,1.7,-3.47391,-1.68872,0.500016,0.476259,0.264661,1.6205e-05,-1.13396,-0.0698417,-0.000283122,0.0091629,0.727727,5,0.1,23,1.7,3.55642,2.51583,0.597154,-0.49318,0.480279,0.00281306,0.271156,-0.384048,-0.00226125,0.0151636,0.235946,5,0.1,24,1.7,-3.25805,-1.85105,0.599223,0.164466,0.284348,0.00237087,-0.154555,-0.316471,0.0204109,0.0110884,0.112102,5,0.1,25,1.7,3.4524,3.4659,0.643177,-0.360934,-0.346906,0.00919569,1.01684,0.0145882,0.126012,0.00885822,0.693042,5,0.1,26,1.7,0.0849122,-0.611025,0.501301,0.077502,0.292068,-0.0112383,0.731382,0.017114,0.0671893,0.0115154,0.284551,5,0.1,27,1.7,-0.328531,3.68867,0.636188,-0.13594,0.575669,0.0531298,0.108732,-0.46055,-0.0425242,0.0122032,0.148703,5,0.1,28,1.7,0.477268,2.38518,0.617948,-0.137736,-0.145001,0.0127918,-0.718368,0.755697,0.141073,0.0133336,0.311696,5,0.1,29,1.7,3.93485,-3.5473,0.663954,0.0310794,0.320447,0.0321573,-0.0219345,-0.225857,-0.022687,0.0118964,0.018744,5,0.1,30,1.7,1.96046,-0.46089,0.500005,-0.281241,-0.866025,9.06177e-05,0.00210851,1.78814e-06,0.001017,0.0116043,2.22278,5,0.1,31,1.7,-3.93662,-2.26968,0.639105,0.210939,0.864905,-0.0119313,-0.177667,-0.0387281,0.00560656,0.0143316,2.29341,5,0.1,32,1.7,-1.64225,-0.0963837,0.500021,-0.258557,-0.20199,2.33762e-05,0.699796,0.161556,-0.000294298,0.00910052,0.187637,5,0.1,33,1.7,2.64123,2.92354,0.500042,0.192988,-0.0370208,0.000123866,0.444561,-0.0523776,-0.000692904,0.00880731,0.305879,5,0.1,34,1.7,-2.37529,-3.32759,0.890601,0.0122536,0.196642,0.28668,-0.19379,-0.0636131,0.104785,0.0224287,0.0938847,5,0.1,35,1.7,-2.45013,2.45465,0.500032,0.531903,-0.225317,0.00023162,-0.48466,0.525147,-0.000115484,0.00853813,1.42052,5,0.1,36,1.7,-0.383455,-3.48259,0.605876,0.592028,-0.11507,0.0403814,-0.818921,0.107452,-0.0324026,0.0105136,0.256069,5,0.1,37,1.7,3.8735,-1.44389,0.618554,-0.00792108,0.866025,0.0169075,0.000461936,1.49012e-05,-0.00112131,0.0112472,2.2717,5,0.1,38,1.7,-3.41047,-2.18938,0.593675,0.208277,0.421822,0.00577942,-0.163794,-0.327244,-0.00450015,0.01188,0.174958,5,0.1,39,1.7,-0.0386604,1.87096,0.591678,0.457887,0.335311,0.00826269,0.201363,0.0117272,-0.00659376,0.0181365,0.500465,5,0.1
0,1.8,-2.70854,-0.601712,0.703737,0.859302,0.646682,0.0198871,0.134468,-0.279993,-0.00339746,0.0414346,2.0608,5,0.1,1,1.8,0.556032,-1.40984,0.622724,-0.73286,-0.37832,-0.0220388,0.426338,0.318289,0.0185966,0.0180786,0.408456,5,0.1,2,1.8,-3.23466,-3.03129,0.617616,-0.0327647,0.674057,-0.00754446,-0.0482798,1.04642,-0.00551343,0.0210342,0.564402,5,0.1,3,1.8,-0.361642,-0.460175,0.629042,-0.246751,0.334572,-0.00831038,-0.187665,-0.271127,0.0141263,0.00876417,0.165331,5,0.1,4,1.8,3.4208,1.08814,0.57879,-0.0706911,0.866026,0.0150234,-0.0183582,0,-0.00718236,0.012704,2.0369,5,0.1,5,1.8,-0.264305,-3.00873,0.584427,0.130445,0.510859,-0.00388026,0.165895,-0.348091,-0.0386536,0.0271094,2.79162,5,0.1,6,1.8,-3.67656,-1.53848,0.599675,0.136471,-0.449735,0.0551641,0.254512,0.131369,-0.023663,0.00846752,0.772272,5,0.1,7,1.8,0.734965,2.40558,0.577349,-0.204456,-0.0429153,0.0237778,0.137597,0.225425,-0.015229,0.0114405,0.244014,5,0.1,8,1.8,1.39517,-1.85583,0.611867,-0.333232,0.0667214,-0.0141814,0.590086,-0.0326037,0.00694394,0.0239317,0.133736,5,0.1,9,1.8,-1.62219,-2.90223,0.731138,-0.13082,-0.400126,0.0189811,0.0182986,0.378609,-0.0179708,0.0121528,0.220001,5,0.1,10,1.8,3.21547,3.56733,0.587104,-0.0814319,-0.204647,0.0225261,0.264525,0.313163,-0.0287592,0.00991321,0.250238,5,0.1,11,1.8,-0.138251,-0.755443,0.643243,-0.210622,0.376655,-0.00051111,0.318609,0.167131,-0.0577867,0.0122054,0.303188,5,0.1,12,1.8,0.181261,-3.51439,0.500068,-0.491729,0.375283,0.000104308,0.405945,0.195861,-0.00113249,0.0316626,0.529444,5,0.1,13,1.8,3.15903,3.03085,0.594082,-0.339007,0.245726,0.0068143,-1.29426,0.302315,0.00819564,0.0153097,2.71138,5,0.1,14,1.8,2.76978,3.46499,0.583765,-0.310296,0.111383,0.022912,0.135779,-0.111938,-0.0100434,0.0173746,0.143156,5,0.1,15,1.8,-2.04748,2.49236,0.62303,0.339347,-0.154138,-0.03158,-0.217319,-0.103712,0.020206,0.0082535,0.465254,5,0.1,16,1.8,-2.22012,2.76937,0.741865,0.170857,-0.203609,0.0629738,-1.18268,0.226259,0.227571,0.0159696,0.374592,5,0.1,17,1.8,0.619466,-3.70549,0.611245,-0.668357,0.357193,0.000734627,0.501394,-0.175476,0.0337362,0.0178451,1.06008,5,0.1,18,1.8,-1.93318,2.80556,0.575579,0.166154,-0.462061,0.0208288,-0.0406504,0.814915,-0.0338554,0.0131493,0.158027,5,0.1,19,1.8,3.52025,2.07741,0.622801,-0.353551,0.72723,-0.0214115,0.306726,-0.549793,0.0198185,0.0188751,0.403474,5,0.1,20,1.8,-1.01425,3.88746,0.734007,0.0790238,0.273085,0.0268698,-0.279486,-0.226736,-0.0222921,0.0119296,0.198138,5,0.1,21,1.8,1.23655,-0.122064,0.594039,-0.208747,-0.179006,0.00599474,0.782192,0.169419,-0.00569224,0.0143663,0.434368,5,0.1,22,1.8,-3.43233,-1.66268,0.500017,0.352645,0.255334,-1.19209e-05,-1.29437,-0.12368,-0.000268221,0.00799857,0.436895,5,0.1,23,1.8,3.50853,2.56191,0.597424,-0.463533,0.440711,0.00258088,0.33319,-0.417113,-0.00244379,0.0152528,0.257285,5,0.1,24,1.8,-3.24252,-1.82438,0.599578,0.145012,0.247449,0.00485778,-0.228405,-0.412285,0.0272691,0.0118489,0.141263,5,0.1,25,1.8,3.42202,3.43166,0.644777,-0.241905,-0.334346,0.023064,1.29974,0.228524,0.142545,0.00849525,0.360142,5,0.1,26,1.8,0.0960456,-0.581824,0.500479,0.142096,0.290778,-0.0055626,0.547771,-0.0533462,0.0460446,0.0102255,0.249532,5,0.1,27,1.8,-0.341572,3.7439,0.641285,-0.124738,0.528222,0.0487491,0.118062,-0.500083,-0.0461638,0.0105845,0.0981871,5,0.1,28,1.8,0.459971,2.3741,0.619915,-0.206742,-0.0799954,0.0262424,-0.631541,0.54884,0.123084,0.00729686,0.235204,5,0.1,29,1.8,3.93784,-3.51647,0.667048,0.0286341,0.295317,0.0296339,-0.0270605,-0.280619,-0.0281632,0.00928097,0.0100084,5,0.1,30,1.8,1.93241,-0.547493,0.500017,-0.278834,-0.866026,0.00012964,0.0568628,0,-8.9407e-05,0.0163854,2.22467,5,0.1,31,1.8,-3.91664,-2.18363,0.637946,0.186932,0.852966,-0.0112101,-0.292063,-0.236869,0.00885129,0.0168347,2.3152,5,0.1,32,1.8,-1.66465,-0.115762,0.500021,-0.190011,-0.185345,-4.47035e-06,0.660717,0.175413,-0.000238419,0.0127057,0.352058,5,0.1,33,1.8,2.66268,2.91962,0.500051,0.234854,-0.0409782,4.76837e-05,0.370026,-0.02563,-0.00077486,0.0115796,0.23795,5,0.1,34,1.8,-2.37493,-3.30828,0.919666,-0.00426173,0.189143,0.293049,-0.136733,-0.0926256,0.0117719,0.025334,0.126957,5,0.1,35,1.8,-2.39933,2.43477,0.500053,0.48396,-0.172174,0.000172853,-0.487089,0.527859,-0.000953674,0.0108067,0.684622,5,0.1,36,1.8,-0.32861,-3.49355,0.60975,0.502827,-0.104094,0.0370428,-0.942559,0.113606,-0.0351667,0.0110346,0.226961,5,0.1,37,1.8,3.87271,-1.35728,0.620237,-0.00782609,0.866026,0.0166982,0.00166893,-5.96046e-05,-0.00375509,0.013775,2.27171,5,0.1,38,1.8,-3.39046,-2.14881,0.594231,0.19201,0.389481,0.0053212,-0.167608,-0.331879,-0.00482798,0.0138053,0.133035,5,0.1,39,1.8,0.0079557,1.90448,0.59247,0.472119,0.334039,0.0075832,0.0632489,-0.0510812,-0.00718236,0.0170777,0.360279,5,0.1
0,1.9,-2.6222,-0.53826,0.705717,0.865605,0.623462,0.0197873,0.0168085,-0.213318,0.000137836,0.0414346,2.0608,5,0.1,1,1.9,0.484752,-1.44632,0.620608,-0.693368,-0.353133,-0.0203082,0.387685,0.205927,0.0166371,0.0180786,0.408456,5,0.1,2,1.9,-3.23816,-2.95928,0.616831,-0.0370901,0.759415,-0.00817627,-0.0364035,0.64142,-0.0064522,0.0210342,0.564402,5,0.1,3,1.9,-0.387204,-0.427745,0.628251,-0.263656,0.316655,-0.00778679,-0.13797,-0.113251,-0.00176579,0.00876417,0.165331,5,0.1,4,1.9,3.41363,1.17474,0.580261,-0.0726856,0.866026,0.0144447,-0.0176132,0,-0.00510737,0.012704,2.0369,5,0.1,5,1.9,-0.250788,-2.9578,0.58389,0.136648,0.520913,-0.0064428,-0.0296105,0.439122,-0.0140853,0.0271094,2.79162,5,0.1,6,1.9,-3.66252,-1.58157,0.605301,0.136615,-0.401622,0.0592446,-0.208884,0.767566,0.089258,0.00846752,0.772272,5,0.1,7,1.9,0.714952,2.40231,0.57966,-0.197845,-0.0233579,0.0225158,0.0148714,0.164613,-0.0111163,0.0114405,0.244014,5,0.1,8,1.9,1.36494,-1.84931,0.610483,-0.270424,0.0635495,-0.0135062,0.652425,-0.0328198,0.00698119,0.0239317,0.133736,5,0.1,9,1.9,-1.6352,-2.94064,0.73296,-0.129294,-0.370384,0.0175689,0.01809,0.239149,-0.0113584,0.0121528,0.220001,5,0.1,10,1.9,3.20862,3.54835,0.589217,-0.0560623,-0.175735,0.0197806,0.238791,0.268996,-0.0264682,0.00991321,0.250238,5,0.1,11,1.9,-0.157812,-0.716829,0.6429,-0.181376,0.39604,-0.00630887,0.270738,0.193335,-0.0562407,0.0122054,0.303188,5,0.1,12,1.9,0.133778,-3.47627,0.500073,-0.460568,0.383224,-2.32831e-06,0.245873,-0.0333488,-0.000979751,0.0316626,0.529444,5,0.1,13,1.9,3.11851,3.05651,0.594802,-0.471376,0.263482,0.00755256,-1.29056,0.0604093,0.00619516,0.0153097,2.71138,5,0.1,14,1.9,2.7395,3.47543,0.586002,-0.29466,0.096314,0.0217564,0.181168,-0.181809,-0.0133812,0.0173746,0.143156,5,0.1,15,1.9,-2.01541,2.47657,0.620147,0.295372,-0.16019,-0.0246101,-0.619829,-0.0167191,0.108805,0.0082535,0.465254,5,0.1,16,1.9,-2.2079,2.74974,0.749051,0.0831116,-0.192482,0.0783974,-0.609174,0.0231266,0.087209,0.0159696,0.374592,5,0.1,17,1.9,0.554794,-3.67051,0.611474,-0.62767,0.343426,0.00370638,0.345407,-0.117704,0.0254698,0.0178451,1.06008,5,0.1,18,1.9,-1.91678,2.76324,0.577504,0.161568,-0.386254,0.0177641,-0.0556111,0.70712,-0.027936,0.0131493,0.158027,5,0.1,19,1.9,3.48638,2.14744,0.620755,-0.324199,0.673412,-0.0195385,0.288278,-0.542134,0.0181459,0.0188751,0.403474,5,0.1,20,1.9,-1.0077,3.91365,0.736583,0.0527224,0.250504,0.0246492,-0.242822,-0.229642,-0.0225864,0.0119296,0.198138,5,0.1,21,1.9,1.2194,-0.139247,0.594614,-0.136467,-0.165696,0.0055477,0.655808,0.107036,-0.00359118,0.0143663,0.434368,5,0.1,22,1.9,-3.40382,-1.63758,0.500014,0.215692,0.247887,-3.06405e-05,-1.40083,-0.0431463,-0.000115484,0.00799857,0.436895,5,0.1,23,1.9,3.4636,2.604,0.597671,-0.437036,0.402068,0.00235476,0.220761,-0.367761,-0.00215322,0.0152528,0.257285,5,0.1,24,1.9,-3.22924,-1.80145,0.600168,0.11993,0.213291,0.00664452,-0.267461,-0.284269,0.00948831,0.0118489,0.141263,5,0.1,25,1.9,3.40451,3.39932,0.647851,-0.10772,-0.312801,0.0387294,1.34259,0.212133,0.161983,0.00849525,0.360142,5,0.1,26,1.9,0.112963,-0.553018,0.500116,0.195404,0.285026,-0.00203252,0.497789,-0.0714436,0.0253841,0.0102255,0.249532,5,0.1,27,1.9,-0.353464,3.79435,0.645942,-0.113116,0.481893,0.0444725,0.116263,-0.440881,-0.0406951,0.0105845,0.0981871,5,0.1,28,1.9,0.436116,2.36846,0.623149,-0.269828,-0.0365447,0.0382612,-0.600977,0.331327,0.11282,0.00729686,0.235204,5,0.1,29,1.9,3.94057,-3.48833,0.669872,0.0259414,0.267449,0.0268373,-0.0272393,-0.281602,-0.0282563,0.00928097,0.0100084,5,0.1,30,1.9,1.90471,-0.634095,0.500029,-0.275641,-0.866026,0.00010049,0.022471,3.72529e-06,-0.00045076,0.0163854,2.22467,5,0.1,31,1.9,-3.89959,-2.09875,0.636865,0.152331,0.850454,-0.0104278,-0.386477,0.11161,0.00721216,0.0168347,2.3152,5,0.1,32,1.9,-1.68048,-0.133554,0.50002,-0.128148,-0.171564,-2.54251e-05,0.569411,0.110823,-0.000175089,0.0127057,0.352058,5,0.1,33,1.9,2.68807,2.91547,0.500052,0.272743,-0.0411764,-1.88127e-05,0.363961,0.0189543,-0.000558794,0.0115796,0.23795,5,0.1,34,1.9,-2.37597,-3.28975,0.948992,-0.0158347,0.18174,0.292849,-0.0948012,-0.0647753,-0.0255741,0.025334,0.126957,5,0.1,35,1.9,-2.35321,2.42012,0.500066,0.439752,-0.121679,7.61822e-05,-0.411794,0.475973,-0.000953674,0.0108067,0.684622,5,0.1,36,1.9,-0.283216,-3.50342,0.613288,0.404291,-0.0934731,0.0337839,-0.990715,0.101164,-0.0310168,0.0110346,0.226961,5,0.1,37,1.9,3.87193,-1.27068,0.621894,-0.00773855,0.866025,0.016498,0.000521541,1.49012e-05,-0.0012219,0.013775,2.27171,5,0.1,38,1.9,-3.3721,-2.11153,0.594739,0.175045,0.355791,0.00483645,-0.173956,-0.346541,-0.00492856,0.0138053,0.133035,5,0.1,39,1.9,0.0554921,1.9376,0.593192,0.478141,0.327887,0.00682659,0.0359029,-0.0820979,-0.00794977,0.0170777,0.360279,5,0.1
0,2,-2.5356,-0.477063,0.707694,0.866026,0.599106,0.0196978,0,-0.29403,-0.00280142,0.0406347,2.15854,5,0.1,1,2,0.41745,-1.48065,0.618662,-0.651254,-0.333592,-0.0186071,0.471085,0.199854,0.017792,0.0151464,0.282661,5,0.1,2,2,-3.24202,-2.88093,0.615984,-0.0397444,0.799435,-0.00872016,-0.0156164,0.149369,-0.0039041,0.0195318,2.34483,5,0.1,3,2,-0.414095,-0.39656,0.62745,-0.272283,0.307386,-0.00832975,-0.0264347,-0.0914186,-0.0076592,0.010559,0.161344,5,0.1,4,2,3.4063,1.26135,0.581679,-0.0735462,0.866026,0.0138804,0.00298023,0,-0.00667572,0.0133059,1.61575,5,0.1,5,2,-0.23751,-2.90296,0.583206,0.126791,0.579274,-0.00697076,-0.157051,0.64373,0.00223517,0.0281446,1.73691,5,0.1,6,2,-3.65037,-1.61728,0.61175,0.102401,-0.30764,0.0701889,-0.441074,1.06126,0.117451,0.00832609,0.46097,5,0.1,7,2,0.695176,2.40069,0.581856,-0.197947,-0.0100553,0.0213653,-0.00178814,0.102043,-0.0126362,0.0101716,0.444281,5,0.1,8,2,1.34116,-1.84314,0.60917,-0.205186,0.0598252,-0.0127137,0.641584,-0.0428557,0.00908971,0.0227037,0.19531,5,0.1,9,2,-1.648,-2.97656,0.734664,-0.126219,-0.348312,0.0165209,0.0473857,0.218987,-0.010401,0.00867056,0.074186,5,0.1,10,2,3.20414,3.53207,0.591064,-0.0343323,-0.150174,0.0171795,0.193596,0.245094,-0.0257492,0.00960623,0.497507,5,0.1,11,2,-0.174645,-0.676398,0.642004,-0.155708,0.410686,-0.0114292,0.245854,0.0804663,-0.0448227,0.0105005,0.219669,5,0.1,12,2,0.0888789,-3.43847,0.500068,-0.437598,0.369471,-8.64267e-05,0.234495,-0.23663,-0.000715256,0.00784607,0.772056,5,0.1,13,2,3.06534,3.08282,0.595582,-0.586432,0.259334,0.00799447,-0.96643,-0.135541,0.00232458,0.00867312,1.21709,5,0.1,14,2,2.71104,3.48409,0.588103,-0.273424,0.0764012,0.0201881,0.24581,-0.210404,-0.0181198,0.0131635,0.197208,5,0.1,15,2,-1.98934,2.46062,0.618305,0.223014,-0.157464,-0.0116721,-0.793517,0.0708103,0.14174,0.00811883,0.42195,5,0.1,16,2,-2.20194,2.73045,0.757138,0.0422716,-0.194246,0.0816151,-0.238299,-0.0379086,-0.0171661,0.0136755,0.277552,5,0.1,17,2,0.493719,-3.63678,0.611957,-0.593581,0.330603,0.00579506,0.360222,-0.151515,0.0162721,0.0103518,0.643921,5,0.1,18,2,-1.90096,2.72801,0.579147,0.154287,-0.319618,0.015153,-0.0929236,0.630021,-0.0246465,0.0108018,0.250484,5,0.1,19,2,3.45542,2.21198,0.618893,-0.294566,0.616235,-0.0176951,0.309825,-0.611424,0.0189841,0.0255249,0.300433,5,0.1,20,2,-1.00355,3.93751,0.738932,0.0310361,0.226396,0.0222772,-0.188768,-0.255466,-0.0251234,0.0145581,0.191635,5,0.1,21,2,1.20877,-0.155315,0.595152,-0.078702,-0.155819,0.00521541,0.495911,0.0980347,-0.00324845,0.0214813,0.422133,5,0.1,22,2,-3.38914,-1.613,0.500011,0.0801444,0.243616,-3.57628e-05,-1.27745,-0.0553727,-2.98023e-05,0.0147713,0.312144,5,0.1,23,2,3.42097,2.64237,0.597895,-0.415248,0.365138,0.00213981,0.232339,-0.379324,-0.00223517,0.0161051,0.311616,5,0.1,24,2,-3.21861,-1.78142,0.600858,0.0925779,0.188246,0.00694543,-0.274777,-0.226736,-0.0025928,0.0206285,0.252665,5,0.1,25,2,3.40024,3.36914,0.652506,0.019449,-0.290281,0.0539437,1.1704,0.244737,0.135928,0.0143728,0.242513,5,0.1,26,2,0.134771,-0.524968,0.500012,0.238184,0.274879,-0.000303984,0.343688,-0.137866,0.0101328,0.0156445,0.223356,5,0.1,27,2,-0.364185,3.84034,0.650186,-0.101183,0.437617,0.0403866,0.123575,-0.454426,-0.0419617,0.00925881,0.115356,5,0.1,28,2,0.406376,2.36618,0.627492,-0.321983,-0.0116646,0.0480503,-0.421807,0.175953,0.0799,0.00803259,0.187365,5,0.1,29,2,3.94302,-3.46302,0.672411,0.0231087,0.23824,0.0239059,-0.0294447,-0.305176,-0.030607,0.0128197,0.00295631,5,0.1,30,2,1.87731,-0.720698,0.500036,-0.271699,-0.866026,4.76837e-05,0.0673532,0,-0.000566244,0.0121119,2.22713,5,0.1,31,2,-3.88636,-2.01307,0.635858,0.112057,0.862378,-0.00969619,-0.408173,0.0729561,0.007689,0.0139927,2.29328,5,0.1,32,2,-1.69064,-0.150192,0.500017,-0.0772268,-0.161338,-3.8743e-05,0.445127,0.101507,-8.9407e-05,0.010373,0.316711,5,0.1,33,2,2.71699,2.9115,0.500048,0.303596,-0.0376821,-6.4075e-05,0.236511,0.0482798,-0.000357628,0.0092564,0.182514,5,0.1,34,2,-2.37796,-3.27192,0.978023,-0.0232697,0.1746,0.286326,-0.054121,-0.084877,-0.111133,0.0226096,0.102332,5,0.1,35,2,-2.31127,2.41021,0.500069,0.399083,-0.0779629,-1.3411e-05,-0.411987,0.394344,-0.000804663,0.00888929,0.102383,5,0.1,36,2,-0.247581,-3.51227,0.616511,0.310558,-0.0834525,0.0306696,-0.86262,0.100732,-0.0319481,0.00934899,0.206965,5,0.1,37,2,3.87116,-1.18408,0.623536,-0.00764728,0.866026,0.016287,0.00190735,-5.96046e-05,-0.00369549,0.00962624,2.27172,5,0.1,38,2,-3.35549,-2.07774,0.595197,0.156868,0.319445,0.00432432,-0.190854,-0.3829,-0.00533462,0.0124291,0.203818,5,0.1,39,2,0.103298,1.96986,0.593833,0.475737,0.315955,0.00599474,-0.0983328,-0.163138,-0.00870228,0.0161981,0.253208,5,0.1
0,2.1,-2.44905,-0.418986,0.709739,0.864186,0.559003,0.0219184,-0.0576526,-0.500061,0.0409149,0.0406347,2.15854,5,0.1,1,2.1,0.354547,-1.51316,0.616885,-0.607635,-0.317523,-0.0169662,0.421355,0.137888,0.0155456,0.0151464,0.282661,5,0.1,2,2.1,-3.24601,-2.80003,0.615098,-0.0394877,0.819278,-0.0089298,0.0188798,0.198007,-0.00019744,0.0195318,2.34483,5,0.1,3,2.1,-0.441528,-0.366076,0.626564,-0.276675,0.303727,-0.00950573,-0.0450127,-0.00417233,-0.0143386,0.010559,0.161344,5,0.1,4,2.1,3.39896,1.34793,0.583037,-0.0733133,0.865322,0.0133047,0.00481308,-0.0277832,-0.00541657,0.0133059,1.61575,5,0.1,5,2.1,-0.225754,-2.84135,0.582546,0.107177,0.655489,-0.00599911,-0.226835,0.809059,0.0157617,0.0281446,1.73691,5,0.1,6,2.1,-3.64247,-1.64312,0.619511,0.054789,-0.212874,0.086169,-0.493273,0.838064,0.185858,0.00832609,0.46097,5,0.1,7,2.1,0.675289,2.40012,0.583933,-0.20028,-0.002186,0.0201952,-0.0315383,0.0571907,-0.0114739,0.0101716,0.444281,5,0.1,8,2.1,1.32376,-1.83735,0.607941,-0.143968,0.0559246,-0.0118863,0.575066,-0.0372604,0.00790507,0.0227037,0.19531,5,0.1,9,2.1,-1.66024,-3.01042,0.73627,-0.117201,-0.329699,0.0156366,0.127375,0.168383,-0.0079982,0.00867056,0.074186,5,0.1,10,2.1,3.20168,3.51822,0.592659,-0.0151411,-0.127574,0.0147458,0.178307,0.209615,-0.0231341,0.00960623,0.497507,5,0.1,11,2.1,-0.189067,-0.634884,0.640643,-0.133449,0.419465,-0.0157045,0.203152,0.0735559,-0.0392199,0.0105005,0.219669,5,0.1,12,2.1,0.0477184,-3.40313,0.500057,-0.373391,0.333474,-0.000135042,0.969441,-0.463858,-0.000275671,0.00784607,0.772056,5,0.1,13,2.1,3.00454,3.10809,0.596598,-0.605826,0.246185,0.0140334,0.46213,-0.13499,0.105038,0.00867312,1.21709,5,0.1,14,2.1,2.68491,3.49067,0.590032,-0.249278,0.0553071,0.0184079,0.242054,-0.206679,-0.0178479,0.0131635,0.197208,5,0.1,15,2.1,-1.97094,2.44542,0.617906,0.145911,-0.144627,0.00409726,-0.737198,0.177845,0.165977,0.00811883,0.42195,5,0.1,16,2.1,-2.19838,2.71071,0.765117,0.0335284,-0.201518,0.0770636,0.0357926,-0.0903755,-0.0704527,0.0136755,0.277552,5,0.1,17,2.1,0.435982,-3.6043,0.612601,-0.562315,0.320238,0.00693323,0.289127,-0.0754893,0.00680611,0.0103518,0.643921,5,0.1,18,2.1,-1.88594,2.69875,0.580547,0.146478,-0.269355,0.0129207,-0.0700727,0.396743,-0.0203587,0.0108018,0.250484,5,0.1,19,2.1,3.42746,2.27071,0.617213,-0.265083,0.559695,-0.0159509,0.285625,-0.535905,0.0163801,0.0255249,0.300433,5,0.1,20,2.1,-1.00129,3.95888,0.741035,0.0151992,0.201009,0.0197801,-0.127554,-0.254124,-0.0250004,0.0145581,0.191635,5,0.1,21,2.1,1.20309,-0.170462,0.595659,-0.0378601,-0.147486,0.00493936,0.324577,0.0753738,-0.0025034,0.0214813,0.422133,5,0.1,22,2.1,-3.38725,-1.58872,0.500007,-0.0394069,0.243237,-3.40864e-05,-1.0938,0.0276566,5.96046e-05,0.0147713,0.312144,5,0.1,23,2.1,3.38058,2.6771,0.598099,-0.39275,0.330313,0.00193501,0.229299,-0.327274,-0.00191852,0.0161051,0.311616,5,0.1,24,2.1,-3.21071,-1.76366,0.601527,0.0656299,0.167591,0.00632536,-0.258982,-0.19154,-0.00921637,0.0206285,0.252665,5,0.1,25,2.1,3.40776,3.34111,0.658589,0.127822,-0.272161,0.0676144,0.977546,0.136301,0.130586,0.0143728,0.242513,5,0.1,26,2.1,0.16036,-0.498197,0.500018,0.273507,0.260128,0.00029793,0.339299,-0.16224,0.00258163,0.0156445,0.223356,5,0.1,27,2.1,-0.373629,3.88217,0.654046,-0.0872185,0.401656,0.037066,0.15232,-0.289917,-0.0267662,0.00925881,0.115356,5,0.1,28,2.1,0.372095,2.36566,0.632687,-0.362722,-0.000630319,0.0556566,-0.368737,0.0542104,0.0684336,0.00803259,0.187365,5,0.1,29,2.1,3.94519,-3.44072,0.674649,0.0201736,0.207878,0.0208604,-0.0293404,-0.30309,-0.0304021,0.0128197,0.00295631,5,0.1,30,2.1,1.85037,-0.807301,0.500039,-0.267707,-0.866026,-2.70084e-06,0.0278875,3.72529e-06,-0.00044331,0.0121119,2.22713,5,0.1,31,2.1,-3.87692,-1.92661,0.63491,0.0793386,0.865798,-0.00941511,-0.253871,0.00911951,-0.00077486,0.0139927,2.29328,5,0.1,32,2.1,-1.69638,-0.165811,0.500012,-0.0398569,-0.150898,-4.21889e-05,0.304595,0.110191,1.11759e-05,0.010373,0.316711,5,0.1,33,2.1,2.74852,2.90809,0.50004,0.326447,-0.0296548,-8.78237e-05,0.201851,0.105202,-0.000130385,0.0092564,0.182514,5,0.1,34,2.1,-2.38051,-3.25506,1.00606,-0.0273194,0.161006,0.273993,-0.0271648,-0.180498,-0.141397,0.0226096,0.102332,5,0.1,35,2.1,-2.27363,2.40421,0.500064,0.351866,-0.0436321,-8.25152e-05,-0.522763,0.293732,-0.000573695,0.00888929,0.102383,5,0.1,36,2.1,-0.220566,-3.52014,0.619428,0.233333,-0.0741716,0.0277362,-0.650718,0.0869185,-0.0275709,0.00934899,0.206965,5,0.1,37,2.1,3.87041,-1.09748,0.625153,-0.00754111,0.866025,0.0160931,0.000670552,1.49012e-05,-0.00114739,0.00962624,2.27172,5,0.1,38,2.1,-3.34068,-2.04762,0.595605,0.140014,0.283803,0.00386089,-0.151783,-0.337288,-0.00409782,0.0124291,0.203818,5,0.1,39,2.1,0.150427,2.00074,0.594393,0.466809,0.302363,0.00523748,-0.0991454,-0.122853,-0.00666454,0.0161981,0.253208,5,0.1
0,2.2,-2.36319,-0.365869,0.712165,0.849342,0.500709,0.0267684,-0.26989,-0.657633,0.0512898,0.0365414,2.47617,5,0.1,1,2.2,0.295941,-1.54421,0.615266,-0.563599,-0.303215,-0.0154093,0.473157,0.160038,0.0159442,0.0114034,0.19399,5,0.1,2,2.2,-3.24982,-2.71737,0.614211,-0.0363231,0.830638,-0.00874847,0.0429153,-0.00560284,0.0038743,0.0213435,0.902792,5,0.1,3,2.2,-0.469341,-0.335731,0.625541,-0.278502,0.302688,-0.010933,0.019908,-0.0328273,-0.0130832,0.00763391,0.160603,5,0.1,4,2.2,3.39168,1.43411,0.584339,-0.0720501,0.855058,0.0127017,0.0225306,-0.217736,-0.00712276,0.0124538,1.51306,5,0.1,5,2.2,-0.216228,-2.77197,0.582037,0.082938,0.728774,-0.00407696,-0.251211,0.604987,0.0214875,0.0286132,0.200055,5,0.1,6,2.2,-3.63942,-1.66056,0.62906,0.00686049,-0.13921,0.104526,-0.451922,0.6392,0.169188,0.00789841,0.340903,5,0.1,7,2.2,0.655143,2.40013,0.585892,-0.201976,0.00174642,0.0189513,0.00703335,0.0231266,-0.0139177,0.00883331,0.421847,5,0.1,8,2.2,1.31208,-1.83195,0.606793,-0.0914246,0.052017,-0.0110582,0.470936,-0.0423193,0.0090003,0.0228594,0.325543,5,0.1,9,2.2,-1.67123,-3.04253,0.737793,-0.10179,-0.31206,0.0147983,0.176072,0.194907,-0.00923872,0.00984056,0.154012,5,0.1,10,2.2,3.20095,3.50647,0.59402,-0.000536442,-0.107783,0.012517,0.107288,0.188231,-0.0216067,0.00841337,0.617866,5,0.1,11,2.2,-0.201442,-0.592725,0.638895,-0.114413,0.421765,-0.0190273,0.180393,-0.0423491,-0.026226,0.00967393,0.153642,5,0.1,12,2.2,0.0158925,-3.37234,0.500042,-0.258099,0.280273,-0.000146031,1.27274,-0.583887,2.98023e-05,0.00761119,0.466271,5,0.1,13,2.2,2.94783,3.13199,0.598605,-0.515163,0.231075,0.0266239,1.25587,-0.172257,0.136435,0.00873648,0.472041,5,0.1,14,2.2,2.66121,3.49521,0.591782,-0.224221,0.035876,0.0165597,0.262141,-0.178933,-0.0193119,0.0107535,0.319997,5,0.1,15,2.2,-1.95987,2.43197,0.619134,0.0775069,-0.123399,0.0201866,-0.622809,0.239849,0.150144,0.00632594,0.440767,5,0.1,16,2.2,-2.19458,2.69013,0.772406,0.0444829,-0.209367,0.0681624,0.161529,-0.0542402,-0.104606,0.00990744,0.517148,5,0.1,17,2.2,0.38124,-3.57266,0.613315,-0.531667,0.312114,0.00721961,0.340626,-0.101209,-0.000804663,0.0104759,0.591129,5,0.1,18,2.2,-1.87165,2.67356,0.581742,0.139108,-0.236452,0.0110179,-0.0820756,0.278115,-0.017941,0.0105409,0.208142,5,0.1,19,2.2,3.40238,2.32402,0.615698,-0.236481,0.506246,-0.0143379,0.290513,-0.544429,0.0162125,0.0136907,0.228717,5,0.1,20,2.2,-1.00031,3.9777,0.742887,0.00543296,0.175285,0.0172496,-0.0690818,-0.261068,-0.0256896,0.00863934,0.738996,5,0.1,21,2.2,1.20067,-0.184826,0.596141,-0.0128984,-0.139593,0.00467747,0.179946,0.0872463,-0.00292063,0.0120813,0.562365,5,0.1,22,2.2,-3.39622,-1.56426,0.500004,-0.135356,0.245669,-2.68221e-05,-0.812054,0.00619888,8.9407e-05,0.00940123,0.242751,5,0.1,23,2.2,3.34252,2.70852,0.598283,-0.367445,0.297964,0.00174642,0.284553,-0.326633,-0.00193715,0.0129277,0.160132,5,0.1,24,2.2,-3.20538,-1.74783,0.602107,0.0416398,0.149053,0.00521094,-0.217557,-0.182927,-0.0125766,0.0115253,0.249201,5,0.1,25,2.2,3.42498,3.31452,0.665948,0.211775,-0.259781,0.0788897,0.688791,0.124931,0.090152,0.00817112,0.186545,5,0.1,26,2.2,0.189242,-0.473069,0.500053,0.302057,0.241619,0.000330806,0.215322,-0.210941,-0.00137091,0.0140145,4.26464,5,0.1,27,2.2,-0.381565,3.92099,0.657628,-0.0713356,0.375265,0.0346303,0.162557,-0.2563,-0.023663,0.00793985,0.0702159,5,0.1,28,2.2,0.33423,2.36573,0.638551,-0.391665,0.000882149,0.0611037,-0.193715,-0.015974,0.0379682,0.00788349,0.162088,5,0.1,29,2.2,3.94706,-3.42145,0.676583,0.0172317,0.177491,0.0178128,-0.0296831,-0.304699,-0.0305772,0.00853247,0.0011624,5,0.1,30,2.2,1.82378,-0.893903,0.500036,-0.263491,-0.866026,-3.8743e-05,0.0674129,0,-0.000327826,0.0121448,2.2296,5,0.1,31,2.2,-3.87005,-1.84001,0.633959,0.0598252,0.866026,-0.00962615,-0.143528,-5.96046e-05,-0.0025332,0.00831343,1.22069,5,0.1,32,2.2,-1.69906,-0.180316,0.500008,-0.0157207,-0.138834,-3.8743e-05,0.181735,0.132866,8.9407e-05,0.0113281,0.4936,5,0.1,33,2.2,2.782,2.9057,0.500031,0.340837,-0.0179112,-9.23872e-05,0.0731945,0.124335,2.98023e-05,0.0114048,0.131597,5,0.1,34,2.2,-2.38334,-3.23997,1.03267,-0.0287771,0.139719,0.257108,-0.0026226,-0.239491,-0.199854,0.0217068,0.133192,5,0.1,35,2.2,-2.24117,2.40116,0.500053,0.296324,-0.0188887,-0.00012517,-0.579834,0.203133,-0.000327826,0.0129011,0.144182,5,0.1,36,2.2,-0.2,-3.52713,0.622065,0.182769,-0.0657201,0.0250116,-0.368193,0.0834465,-0.0275075,0.0104745,0.310995,5,0.1,37,2.2,3.86966,-1.01087,0.626754,-0.00743866,0.866024,0.0158951,0.00166893,2.98023e-05,-0.00351667,0.00886377,2.27173,5,0.1,38,2.2,-3.32741,-2.02089,0.595972,0.125551,0.250751,0.00347495,-0.141621,-0.328779,-0.00375509,0.0121561,0.168351,5,0.1,39,2.2,0.196484,2.03034,0.594885,0.452732,0.288975,0.00462234,-0.195235,-0.154734,-0.00581145,0.0145975,0.176899,5,0.1
0,2.3,-2.27997,-0.319395,0.715386,0.811379,0.426179,0.040023,-0.492156,-0.813404,0.192963,0.0365414,2.47617,5,0.1,1,2.3,0.24181,-1.57383,0.613799,-0.51997,-0.289689,-0.0139497,0.41616,0.123635,0.0136793,0.0114034,0.19399,5,0.1,2,2.3,-3.25325,-2.63457,0.613355,-0.0322763,0.822394,-0.00838656,0.0387281,-0.177085,0.00366569,0.0213435,0.902792,5,0.1,3,2.3,-0.497255,-0.305525,0.624379,-0.280888,0.302001,-0.0122909,-0.0466015,0.00142306,-0.0130758,0.00763391,0.160603,5,0.1,4,2.3,3.38458,1.51746,0.585576,-0.0699129,0.802456,0.0120627,0.0227839,-0.793226,-0.00612438,0.0124538,1.51306,5,0.1,5,2.3,-0.209216,-2.69688,0.581746,0.0571766,0.764993,-0.00168262,-0.258001,0.123069,0.0253282,0.0286132,0.200055,5,0.1,6,2.3,-3.64092,-1.67191,0.640454,-0.0362527,-0.0933798,0.123885,-0.413224,0.304885,0.202201,0.00789841,0.340903,5,0.1,7,2.3,0.634973,2.40048,0.587719,-0.201306,0.00557564,0.0176011,0.0148378,0.0425726,-0.0135303,0.00883331,0.421847,5,0.1,8,2.3,1.30509,-1.82697,0.605733,-0.05039,0.0476388,-0.0101271,0.34716,-0.045754,0.00973418,0.0228594,0.325543,5,0.1,9,2.3,-1.68047,-3.07281,0.739229,-0.0827355,-0.293781,0.0139318,0.200294,0.180379,-0.00855327,0.00984056,0.154012,5,0.1,10,2.3,3.20139,3.49659,0.595168,0.00830144,-0.0900596,0.0104615,0.0492334,0.167161,-0.0195652,0.00841337,0.617866,5,0.1,11,2.3,-0.212047,-0.550732,0.636868,-0.0982681,0.417946,-0.0214249,0.145726,-0.051409,-0.0205785,0.00967393,0.153642,5,0.1,12,2.3,-0.00380542,-3.34732,0.500028,-0.138713,0.219646,-0.000130665,1.10201,-0.615701,0.000249594,0.00761119,0.466271,5,0.1,13,2.3,2.90308,3.15464,0.602099,-0.376292,0.225398,0.0443729,1.47295,0.0285953,0.203781,0.00873648,0.472041,5,0.1,14,2.3,2.64011,3.4979,0.593341,-0.197839,0.0180822,0.0146152,0.26615,-0.166848,-0.0196286,0.0107535,0.319997,5,0.1,15,2.3,-1.95492,2.42089,0.621932,0.024531,-0.0976685,0.0358752,-0.440419,0.267789,0.156399,0.00632594,0.440767,5,0.1,16,2.3,-2.18943,2.67003,0.779287,0.0575271,-0.183154,0.0743914,0.0991672,0.518382,0.192329,0.00990744,0.517148,5,0.1,17,2.3,0.330109,-3.54238,0.614144,-0.487867,0.289613,0.0102689,0.525217,-0.331208,0.0545569,0.0104759,0.591129,5,0.1,18,2.3,-1.8581,2.65099,0.582759,0.132193,-0.217574,0.00938121,-0.0623316,0.120327,-0.0150353,0.0105409,0.208142,5,0.1,19,2.3,3.38011,2.37213,0.61434,-0.209431,0.457711,-0.0128772,0.255585,-0.443235,0.0134408,0.0136907,0.228717,5,0.1,20,2.3,-1.00015,3.99409,0.744484,-0.00241082,0.153866,0.0147044,-0.0767782,-0.176728,-0.0251718,0.00863934,0.738996,5,0.1,21,2.3,1.20018,-0.198327,0.596593,0.00194944,-0.130178,0.00436213,0.11307,0.102608,-0.00343472,0.0120813,0.562365,5,0.1,22,2.3,-3.41355,-1.53952,0.500002,-0.207997,0.249877,-1.75089e-05,-0.627726,0.0592396,9.68575e-05,0.00940123,0.242751,5,0.1,23,2.3,3.30751,2.73678,0.598448,-0.329858,0.268193,0.00157049,0.453249,-0.277251,-0.00162795,0.0129277,0.160132,5,0.1,24,2.3,-3.20221,-1.7338,0.602561,0.0227518,0.13211,0.00385344,-0.159562,-0.159353,-0.0141636,0.0115253,0.249201,5,0.1,25,2.3,3.44935,3.28896,0.674288,0.272547,-0.252783,0.0877681,0.51336,0.0343323,0.0814237,0.00817112,0.186545,5,0.1,26,2.3,0.218316,-0.450838,0.500079,0.260407,0.195572,0.00018524,-0.927616,-0.65795,-0.00149384,0.0140145,4.26464,5,0.1,27,2.3,-0.387872,3.95738,0.660986,-0.0547646,0.353622,0.0326324,0.16471,-0.193149,-0.0178218,0.00793985,0.0702159,5,0.1,28,2.3,0.294071,2.36566,0.644856,-0.411153,-0.00316054,0.0649469,-0.172775,-0.0589192,0.0349507,0.00788349,0.162088,5,0.1,29,2.3,3.94863,-3.4052,0.678214,0.0143338,0.147739,0.0148272,-0.0282079,-0.289753,-0.0290796,0.00853247,0.0011624,5,0.1,30,2.3,1.79766,-0.980506,0.500031,-0.25956,-0.866026,-6.16536e-05,0.0264123,0,-0.000141561,0.0121448,2.2296,5,0.1,31,2.3,-3.86554,-1.75557,0.633018,0.0242211,0.8038,-0.00890922,-0.518858,-1.14217,0.0151917,0.00831343,1.22069,5,0.1,32,2.3,-1.69981,-0.193553,0.500005,-0.000487641,-0.126002,-2.93367e-05,0.118926,0.126361,0.000100583,0.0113281,0.4936,5,0.1,33,2.3,2.81632,2.9046,0.500022,0.344146,-0.00347607,-8.40053e-05,-0.0148714,0.156686,0.00012666,0.0114048,0.131597,5,0.1,34,2.3,-2.38621,-3.22726,1.05741,-0.0283659,0.114116,0.237887,0.0106692,-0.267521,-0.191063,0.0217068,0.133192,5,0.1,35,2.3,-2.21448,2.40017,0.500039,0.237294,-0.00207014,-0.000142958,-0.592828,0.135288,-3.35276e-05,0.0129011,0.144182,5,0.1,36,2.3,-0.182807,-3.53338,0.624451,0.167517,-0.0602074,0.0228791,0.0189831,0.0332296,-0.0167005,0.0104745,0.310995,5,0.1,37,2.3,3.86892,-0.92427,0.628332,-0.00735335,0.866026,0.0157156,0.000461936,0,-0.00100955,0.00886377,2.27173,5,0.1,38,2.3,-3.31549,-1.99738,0.596302,0.113424,0.220256,0.00314089,-0.106305,-0.286691,-0.00304356,0.0121561,0.168351,5,0.1,39,2.3,0.240749,2.05841,0.595322,0.431964,0.272005,0.0041307,-0.230184,-0.188544,-0.0042282,0.0145975,0.176899,5,0.1
0,2.4,-2.20168,-0.280967,0.720446,0.750738,0.34158,0.0616789,-0.719786,-0.862598,0.224173,0.038995,2.89922,5,0.1,1,2.4,0.191911,-1.60215,0.612472,-0.477536,-0.276253,-0.0125974,0.4441,0.154436,0.0136197,0.0110742,0.132276,5,0.1,2,2.4,-3.25628,-2.55362,0.612536,-0.0284672,0.79242,-0.00796467,0.038147,-0.432611,0.00497699,0.0184599,2.67231,5,0.1,3,2.4,-0.525546,-0.27538,0.623092,-0.284205,0.299966,-0.0133768,-0.00467896,-0.0545532,-0.00795722,0.00934963,0.16246,5,0.1,4,2.4,3.37772,1.59308,0.58675,-0.0670612,0.704002,0.0113964,0.0360012,-1.14095,-0.00751019,0.0126582,1.44281,5,0.1,5,2.4,-0.204759,-2.62053,0.581704,0.032388,0.754505,0.000803173,-0.233278,-0.325322,0.0235736,0.0301707,0.0776576,5,0.1,6,2.4,-3.64656,-1.68009,0.653801,-0.0758588,-0.0733495,0.142263,-0.376701,0.117004,0.154138,0.00831246,0.269151,5,0.1,7,2.4,0.614986,2.40121,0.58941,-0.197594,0.00854135,0.0161693,0.0650883,0.0103712,-0.015378,0.0104363,0.433974,5,0.1,8,2.4,1.30157,-1.82244,0.604771,-0.022167,0.0427842,-0.00909567,0.218153,-0.0514388,0.0109673,0.0223355,0.32205,5,0.1,9,2.4,-1.68774,-3.10124,0.740577,-0.06257,-0.27436,0.0130102,0.199199,0.214458,-0.0101626,0.00848861,0.208055,5,0.1,10,2.4,3.20225,3.48839,0.596119,0.00662208,-0.0741899,0.00859201,-0.0891685,0.150919,-0.0178814,0.01001,1.88533,5,0.1,11,2.4,-0.221181,-0.509325,0.634639,-0.0847042,0.408574,-0.0229523,0.127949,-0.147745,-0.00923872,0.00947433,0.17923,5,0.1,12,2.4,-0.0125364,-3.3284,0.500017,-0.0398232,0.159401,-0.000101328,0.867489,-0.579596,0.00038743,0.00812831,0.452161,5,0.1,13,2.4,2.87284,3.17745,0.607566,-0.229156,0.23151,0.0648007,1.43254,0.0710487,0.193775,0.00889242,0.278221,5,0.1,14,2.4,2.62167,3.49896,0.594704,-0.17091,0.00409484,0.0126287,0.272393,-0.107288,-0.0201166,0.0108194,0.29308,5,0.1,15,2.4,-1.95439,2.41246,0.626263,-0.0113457,-0.0710666,0.0502259,-0.281096,0.258923,0.125438,0.00790873,0.454519,5,0.1,16,2.4,-2.18329,2.65484,0.787928,0.0643373,-0.116473,0.100088,0.0374317,0.767708,0.293106,0.00915602,0.335616,5,0.1,17,2.4,0.284182,-3.51534,0.615486,-0.428592,0.249118,0.0168473,0.650749,-0.463843,0.0714362,0.0103533,0.566271,5,0.1,18,2.4,-1.8452,2.62972,0.583626,0.125602,-0.208724,0.00797063,-0.0737906,0.0725985,-0.0133812,0.0086808,0.17071,5,0.1,19,2.4,3.36042,2.41574,0.613118,-0.184512,0.414687,-0.0115737,0.246525,-0.429392,0.0129044,0.0147886,0.47658,5,0.1,20,2.4,-1.00072,4.00867,0.74583,-0.00818968,0.138283,0.0122264,-0.0326037,-0.141859,-0.0243485,0.00784795,1.57925,5,0.1,21,2.4,1.20081,-0.210797,0.597011,0.00922382,-0.118839,0.00398159,0.0315309,0.124946,-0.00417233,0.00960596,2.1714,5,0.1,22,2.4,-3.43709,-1.51428,0.500001,-0.258827,0.254306,-8.9407e-06,-0.38147,0.0158548,8.9407e-05,0.00923226,0.198805,5,0.1,23,2.4,3.27698,2.76224,0.598597,-0.279373,0.241059,0.00140965,0.544548,-0.27132,-0.00154972,0.0139725,0.283549,5,0.1,24,2.4,-3.20063,-1.72136,0.602876,0.00973344,0.116596,0.00245124,-0.101447,-0.153244,-0.0135601,0.00967478,0.420345,5,0.1,25,2.4,3.47879,3.26384,0.683417,0.312334,-0.249571,0.0941664,0.274539,0.0441074,0.0424087,0.0133339,4.29785,5,0.1,26,2.4,0.238654,-0.434953,0.50009,0.138176,0.119342,4.17233e-05,-1.42128,-0.825554,-0.00137091,0.013267,3.43351,5,0.1,27,2.4,-0.392549,3.99177,0.66416,-0.0390887,0.333804,0.0308022,0.145987,-0.215411,-0.0198185,0.00927122,0.0602553,5,0.1,28,2.4,0.252282,2.36501,0.651494,-0.422306,-0.00984669,0.0674278,-0.0343841,-0.0702143,0.0120103,0.00813659,0.464175,5,0.1,29,2.4,3.94993,-3.39184,0.679554,0.0115991,0.119662,0.0120103,-0.0264645,-0.270963,-0.0272095,0.00786592,0.000916236,5,0.1,30,2.4,1.77187,-1.06711,0.500024,-0.255609,-0.866026,-6.85453e-05,0.0634193,0,-2.98023e-05,0.0118155,2.2322,5,0.1,31,2.4,-3.86599,-1.68208,0.63222,-0.035131,0.656146,-0.0068903,-0.629544,-1.72764,0.0238419,0.00781633,0.404215,5,0.1,32,2.4,-1.69939,-0.205515,0.500003,0.00755489,-0.113133,-1.93715e-05,0.0407696,0.13271,8.9407e-05,0.0110134,3.35699,5,0.1,33,2.4,2.85046,2.90504,0.500014,0.336641,0.0120759,-6.85453e-05,-0.139713,0.148535,0.000178814,0.00893634,0.211551,5,0.1,34,2.4,-2.38897,-3.2172,1.08022,-0.026685,0.087148,0.217825,0.0225306,-0.267744,-0.214517,0.0218565,0.0270878,5,0.1,35,2.4,-2.19368,2.40054,0.500025,0.179195,0.00856519,-0.00013411,-0.562668,0.0795126,0.000208616,0.00956229,0.266131,5,0.1,36,2.4,-0.165621,-3.53928,0.626663,0.178725,-0.0579536,0.0213996,0.170894,0.0168085,-0.0140071,0.00983891,0.234343,5,0.1,37,2.4,3.86818,-0.837667,0.629897,-0.00726581,0.866026,0.0155315,0.00166893,0,-0.00333786,0.00997954,2.27174,5,0.1,38,2.4,-3.30465,-1.97675,0.596601,0.10336,0.192469,0.00284612,-0.0989437,-0.27287,-0.00298023,0.0111786,0.143461,5,0.1,39,2.4,0.28267,2.08459,0.595715,0.405064,0.250667,0.00374019,-0.314027,-0.240326,-0.00372529,0.0160971,0.137091,5,0.1
