id,t,px,py,pz,vx,vy,vz,ax,ay,az,planning_time,qp_cost,planning_report,size,id,t,px,py,pz,vx,vy,vz,ax,ay,az,planning_time,qp_cost,planning_report,size,id,t,px,py,pz,vx,vy,vz,ax,ay,az,planning_time,qp_cost,planning_report,size,id,t,px,py,pz,vx,vy,vz,ax,ay,az,planning_time,qp_cost,planning_report,size,id,t,px,py,pz,vx,vy,vz,ax,ay,az,planning_time,qp_cost,planning_report,size,id,t,px,py,pz,vx,vy,vz,ax,ay,az,planning_time,qp_cost,planning_report,size,id,t,px,py,pz,vx,vy,vz,ax,ay,az,planning_time,qp_cost,planning_report,size,id,t,px,py,pz,vx,vy,vz,ax,ay,az,planning_time,qp_cost,planning_report,size,id,t,px,py,pz,vx,vy,vz,ax,ay,az,planning_time,qp_cost,planning_report,size,id,t,px,py,pz,vx,vy,vz,ax,ay,az,planning_time,qp_cost,planning_report,size,id,t,px,py,pz,vx,vy,vz,ax,ay,az,planning_time,qp_cost,planning_report,size,id,t,px,py,pz,vx,vy,vz,ax,ay,az,planning_time,qp_cost,planning_report,size,id,t,px,py,pz,vx,vy,vz,ax,ay,az,planning_time,qp_cost,planning_report,size,id,t,px,py,pz,vx,vy,vz,ax,ay,az,planning_time,qp_cost,planning_report,size,id,t,px,py,pz,vx,vy,vz,ax,ay,az,planning_time,qp_cost,planning_report,size,id,t,px,py,pz,vx,vy,vz,ax,ay,az,planning_time,qp_cost,planning_report,size,id,t,px,py,pz,vx,vy,vz,ax,ay,az,planning_time,qp_cost,planning_report,size,id,t,px,py,pz,vx,vy,vz,ax,ay,az,planning_time,qp_cost,planning_report,size,id,t,px,py,pz,vx,vy,vz,ax,ay,az,planning_time,qp_cost,planning_report,size,id,t,px,py,pz,vx,vy,vz,ax,ay,az,planning_time,qp_cost,planning_report,size,id,t,px,py,pz,vx,vy,vz,ax,ay,az,planning_time,qp_cost,planning_report,size,id,t,px,py,pz,vx,vy,vz,ax,ay,az,planning_time,qp_cost,planning_report,size,id,t,px,py,pz,vx,vy,vz,ax,ay,az,planning_time,qp_cost,planning_report,size,id,t,px,py,pz,vx,vy,vz,ax,ay,az,planning_time,qp_cost,planning_report,size,id,t,px,py,pz,vx,vy,vz,ax,ay,az,planning_time,qp_cost,planning_report,size,id,t,px,py,pz,vx,vy,vz,ax,ay,az,planning_time,qp_cost,planning_report,size,id,t,px,py,pz,vx,vy,vz,ax,ay,az,planning_time,qp_cost,planning_report,size,id,t,px,py,pz,vx,vy,vz,ax,ay,az,planning_time,qp_cost,planning_report,size,id,t,px,py,pz,vx,vy,vz,ax,ay,az,planning_time,qp_cost,planning_report,size,id,t,px,py,pz,vx,vy,vz,ax,ay,az,planning_time,qp_cost,planning_report,size,id,t,px,py,pz,vx,vy,vz,ax,ay,az,planning_time,qp_cost,planning_report,size,id,t,px,py,pz,vx,vy,vz,ax,ay,az,planning_time,qp_cost,planning_report,size,id,t,px,py,pz,vx,vy,vz,ax,ay,az,planning_time,qp_cost,planning_report,size,id,t,px,py,pz,vx,vy,vz,ax,ay,az,planning_time,qp_cost,planning_report,size,id,t,px,py,pz,vx,vy,vz,ax,ay,az,planning_time,qp_cost,planning_report,size,id,t,px,py,pz,vx,vy,vz,ax,ay,az,planning_time,qp_cost,planning_report,size,id,t,px,py,pz,vx,vy,vz,ax,ay,az,planning_time,qp_cost,planning_report,size,id,t,px,py,pz,vx,vy,vz,ax,ay,az,planning_time,qp_cost,planning_report,size,id,t,px,py,pz,vx,vy,vz,ax,ay,az,planning_time,qp_cost,planning_report,size,id,t,px,py,pz,vx,vy,vz,ax,ay,az,planning_time,qp_cost,planning_report,size
0,0,4.36968,-2.46579,0.619662,0,0,0,0,0,0,0.0154053,3.5122,5,0.1,1,0,0.459528,3.47406,0.667464,0,0,0,0,0,0,0.00863294,1.02161,5,0.1,2,0,1.86121,0.440535,0.682982,0,0,0,0,0,0,0.0128076,1.06327,5,0.1,3,0,-4.3011,4.29632,0.641599,0,0,0,0,0,0,0.0183607,3.5122,5,0.1,4,0,-3.52152,2.90382,0.65348,0,0,0,0,0,0,0.0229061,3.5122,5,0.1,5,0,-4.26665,-2.15654,0.679685,0,0,0,0,0,0,0.011194,2.24723,5,0.1,6,0,2.33246,-1.32269,0.692672,0,0,0,0,0,0,0.0266577,3.5122,5,0.1,7,0,-2.60075,-3.57171,0.647322,0,0,0,0,0,0,0.00887512,0.951804,5,0.1,8,0,3.6606,-0.297027,0.697226,0,0,0,0,0,0,0.0184444,3.52042,5,0.1,9,0,-0.243224,-1.35779,0.622312,0,0,0,0,0,0,0.0141126,3.5122,5,0.1,10,0,-1.76831,2.54507,0.50444,0,0,0,0,0,0,0.0122545,0.32065,5,0.1,11,0,-1.32984,2.93746,0.636434,0,0,0,0,0,0,0.0110088,3.5122,5,0.1,12,0,1.22565,-4.11434,0.672799,0,0,0,0,0,0,0.0217342,3.5122,5,0.1,13,0,-3.9494,-3.18743,0.515201,0,0,0,0,0,0,0.0135957,2.64028,5,0.1,14,0,1.3126,4.15151,0.55996,0,0,0,0,0,0,0.0165189,3.51219,5,0.1,15,0,-2.56914,2.91672,0.580289,0,0,0,0,0,0,0.0162743,0.843623,5,0.1,16,0,-3.1845,-3.71005,0.67041,0,0,0,0,0,0,0.0309458,2.34729,5,0.1,17,0,0.0386109,2.81627,0.594048,0,0,0,0,0,0,0.02493,3.5122,5,0.1,18,0,4.05484,-1.43847,0.607962,0,0,0,0,0,0,0.00968503,1.95024,5,0.1,19,0,0.864349,-1.27487,0.692337,0,0,0,0,0,0,0.0186296,2.30433,5,0.1,20,0,2.21953,-0.26679,0.612258,0,0,0,0,0,0,0.0249862,3.51219,5,0.1,21,0,-3.14784,3.50885,0.532541,0,0,0,0,0,0,0.0152747,3.5122,5,0.1,22,0,1.56293,3.29121,0.57077,0,0,0,0,0,0,0.0106126,3.5122,5,0.1,23,0,3.49468,4.23307,0.640002,0,0,0,0,0,0,0.0154619,1.70137,5,0.1,24,0,1.7816,-2.99885,0.556798,0,0,0,0,0,0,0.0141352,1.42718,5,0.1,25,0,3.78667,0.276728,0.52363,0,0,0,0,0,0,0.0132692,3.51219,5,0.1,26,0,3.96192,-3.52102,0.553793,0,0,0,0,0,0,0.0140599,3.51219,5,0.1,27,0,-4.1464,2.71708,0.575138,0,0,0,0,0,0,0.0394767,3.5142,5,0.1,28,0,-0.0693684,-3.80152,0.560442,0,0,0,0,0,0,0.0115021,3.51219,5,0.1,29,0,-0.792141,-2.85138,0.696748,0,0,0,0,0,0,0.0192197,3.5122,5,0.1,30,0,-0.0847845,2.19094,0.54537,0,0,0,0,0,0,0.0118082,0.652877,5,0.1,31,0,3.67614,3.08225,0.582431,0,0,0,0,0,0,0.014665,3.51219,5,0.1,32,0,-0.587208,0.734167,0.69694,0,0,0,0,0,0,0.0121596,0.54817,5,0.1,33,0,4.38622,3.11217,0.628907,0,0,0,0,0,0,0.0172535,3.5122,5,0.1,34,0,3.98495,3.88271,0.609424,0,0,0,0,0,0,0.0139238,2.74447,5,0.1,35,0,2.28975,1.3638,0.622852,0,0,0,0,0,0,0.00996355,3.51219,5,0.1,36,0,-1.31574,0.59535,0.569159,0,0,0,0,0,0,0.00974487,0.910638,5,0.1,37,0,0.314484,-4.3945,0.68423,0,0,0,0,0,0,0.0102028,2.10886,5,0.1,38,0,3.6916,1.08105,0.601177,0,0,0,0,0,0,0.0208376,3.49085,5,0.1,39,0,1.00296,2.70243,0.607352,0,0,0,0,0,0,0.00942879,1.65082,5,0.1
0,0.1,4.36928,-2.46374,0.619655,-0.011383,0.0581644,-0.000209361,-0.202358,1.03402,-0.00371784,0.0154053,3.5122,5,0.1,1,0.1,0.458579,3.47466,0.667393,-0.0269531,0.0170678,-0.00199908,-0.479167,0.303417,-0.035543,0.00863294,1.02161,5,0.1,2,0.1,1.86036,0.439762,0.683052,-0.0240393,-0.021945,0.00198614,-0.427365,-0.390135,0.0353083,0.0128076,1.06327,5,0.1,3,0.1,-4.29945,4.29507,0.64177,0.047069,-0.0356868,0.00486281,0.83676,-0.634432,0.0864491,0.0183607,3.5122,5,0.1,4,0.1,-3.51961,2.90466,0.653441,0.054295,0.023739,-0.00110762,0.965253,0.422031,-0.0196882,0.0229061,3.5122,5,0.1,5,0.1,-4.26548,-2.15773,0.679758,0.0330918,-0.0338856,0.00208374,0.588268,-0.602409,0.0370443,0.011194,2.24723,5,0.1,6,0.1,2.3314,-1.32089,0.692725,-0.0300691,0.0510516,0.00152234,-0.534564,0.907578,0.0270605,0.0266577,3.5122,5,0.1,7,0.1,-2.59976,-3.57127,0.647273,0.0281747,0.0124972,-0.00140257,0.500903,0.222161,-0.0249296,0.00887512,0.951804,5,0.1,8,0.1,3.66032,-0.295216,0.697279,-0.00808984,0.051414,0.00151005,-0.143826,0.914024,0.0268444,0.0184444,3.52042,5,0.1,9,0.1,-0.245166,-1.35702,0.622298,-0.0551203,0.0217792,-0.000402424,-0.979914,0.387177,-0.00715628,0.0141126,3.5122,5,0.1,10,0.1,-1.76837,2.54424,0.5044,-0.00166949,-0.0234425,-0.00112634,-0.0296459,-0.416368,-0.0199676,0.0122545,0.32065,5,0.1,11,0.1,-1.32926,2.93545,0.636362,0.0165917,-0.0568625,-0.00203354,0.294968,-1.01088,-0.0361539,0.0110088,3.5122,5,0.1,12,0.1,1.22389,-4.11321,0.672754,-0.0497201,0.0322357,-0.00125868,-0.883915,0.573039,-0.0223778,0.0217342,3.5122,5,0.1,13,0.1,-3.94856,-3.18583,0.515133,0.0236895,0.0455603,-0.00193231,0.421152,0.809968,-0.0343546,0.0135957,2.64028,5,0.1,14,0.1,1.31174,4.14961,0.56,-0.0244802,-0.0539653,0.0011364,-0.435196,-0.959367,0.0201985,0.0165189,3.51219,5,0.1,15,0.1,-2.56834,2.91618,0.580622,0.0227928,-0.0153121,0.00947425,0.405222,-0.272229,0.168432,0.0162743,0.843623,5,0.1,16,0.1,-3.1829,-3.70947,0.670337,0.0454731,0.0165969,-0.00208635,0.808418,0.295043,-0.0370964,0.0309458,2.34729,5,0.1,17,0.1,0.0406954,2.81638,0.594052,0.0591744,0.00333339,0.000108127,1.05199,0.0592768,0.00191852,0.02493,3.5122,5,0.1,18,0.1,4.05428,-1.43992,0.607876,-0.0158265,-0.0411591,-0.0024409,-0.281334,-0.731714,-0.0433959,0.00968503,1.95024,5,0.1,19,0.1,0.863134,-1.2737,0.692398,-0.0345047,0.0333345,0.00170879,-0.613418,0.592612,0.030376,0.0186296,2.30433,5,0.1,20,0.1,2.21835,-0.265071,0.612247,-0.0336073,0.0488183,-0.000311993,-0.597447,0.867881,-0.00555068,0.0249862,3.51219,5,0.1,21,0.1,-3.14625,3.50749,0.532606,0.0450257,-0.038496,0.00184337,0.800475,-0.684366,0.0327714,0.0152747,3.5122,5,0.1,22,0.1,1.56098,3.29194,0.570799,-0.0554536,0.0209033,0.000805221,-0.985831,0.371635,0.0143126,0.0106126,3.5122,5,0.1,23,0.1,3.49401,4.23178,0.639961,-0.019104,-0.0365421,-0.00118539,-0.339627,-0.649631,-0.0210702,0.0154619,1.70137,5,0.1,24,0.1,1.78115,-2.9976,0.556843,-0.0127902,0.0355266,0.0012802,-0.227384,0.631571,0.0227615,0.0141352,1.42718,5,0.1,25,0.1,3.7863,0.278782,0.523575,-0.0104222,0.0583233,-0.00157682,-0.185296,1.03686,-0.0280328,0.0132692,3.51219,5,0.1,26,0.1,3.96174,-3.51894,0.55381,-0.00510551,0.0590455,0.000460818,-0.090763,1.04971,0.00818819,0.0140599,3.51219,5,0.1,27,0.1,-4.1446,2.71783,0.575148,0.0511833,0.0214215,0.000305753,0.909895,0.380829,0.0054352,0.0394767,3.5142,5,0.1,28,0.1,-0.0714149,-3.80193,0.560411,-0.0580957,-0.0116974,-0.000890344,-1.03281,-0.207961,-0.015825,0.0115021,3.51219,5,0.1,29,0.1,-0.792514,-2.84932,0.696768,-0.0105865,0.0583127,0.000559259,-0.188209,1.03667,0.0099428,0.0192197,3.5122,5,0.1,30,0.1,-0.0839131,2.19116,0.545427,0.0247381,0.00619553,0.00161882,0.439789,0.110164,0.0287816,0.0118082,0.652877,5,0.1,31,0.1,3.6741,3.08182,0.58244,-0.0580102,-0.012143,0.0002563,-1.03131,-0.215858,0.0045523,0.014665,3.51219,5,0.1,32,0.1,-0.586908,0.7334,0.696995,0.00851098,-0.0217563,0.00157235,0.151306,-0.386778,0.0279583,0.0121596,0.54817,5,0.1,33,0.1,4.3842,3.11271,0.62889,-0.0572316,0.0153959,-0.000474509,-1.01748,0.273705,-0.00843778,0.0172535,3.5122,5,0.1,34,0.1,3.98345,3.88163,0.609414,-0.0425234,-0.0306036,-0.000279117,-0.755966,-0.544056,-0.00496581,0.0139238,2.74447,5,0.1,35,0.1,2.28993,1.36172,0.622836,0.0050988,-0.0590468,-0.000447687,0.0906438,-1.04972,-0.00796095,0.00996355,3.51219,5,0.1,36,0.1,-1.31624,0.594416,0.569191,-0.0143507,-0.0265328,0.000913907,-0.25513,-0.471696,0.016246,0.00974487,0.910638,5,0.1,37,0.1,0.315992,-4.39392,0.684133,0.042813,0.0163846,-0.00278065,0.761123,0.291318,-0.0494309,0.0102028,2.10886,5,0.1,38,0.1,3.69103,1.08306,0.601176,-0.0160493,0.0568666,-3.46452e-05,-0.285327,1.01095,-0.000618398,0.0208376,3.49085,5,0.1,39,0.1,1.00438,2.70258,0.607323,0.0403814,0.0044439,-0.000815187,0.717893,0.0789911,-0.0144951,0.00942879,1.65082,5,0.1
0,0.2,4.36696,-2.45192,0.619612,-0.0359774,0.183827,-0.000661612,-0.269651,1.37877,-0.00494719,0.0178325,2.92579,5,0.1,1,0.2,0.453104,3.47812,0.666987,-0.0851855,0.0539422,-0.00631809,-0.638872,0.404596,-0.0473857,0.00723594,0.838182,5,0.1,2,0.2,1.85548,0.435304,0.683455,-0.0759751,-0.0693575,0.00627637,-0.56988,-0.520185,0.0470877,0.012834,0.872355,5,0.1,3,0.2,-4.28988,4.28782,0.642758,0.148761,-0.112784,0.0153705,1.1158,-0.846148,0.115216,0.0177765,2.92917,5,0.1,4,0.2,-3.50858,2.90948,0.653216,0.171602,0.0750244,-0.00350177,1.28698,0.562787,-0.026226,0.0208225,2.93868,5,0.1,5,0.2,-4.25876,-2.16462,0.680181,0.104582,-0.107098,0.00658482,0.784397,-0.803113,0.0494123,0.00969844,2.12457,5,0.1,6,0.2,2.32529,-1.31052,0.693035,-0.0950336,0.16135,0.00481158,-0.712752,1.21009,0.0360608,0.0227546,2.92579,5,0.1,7,0.2,-2.59403,-3.56873,0.646988,0.0890434,0.039494,-0.00443161,0.66793,0.296235,-0.0332594,0.00779104,0.780904,5,0.1,8,0.2,3.65867,-0.284772,0.697586,-0.0255644,0.162493,0.00477135,-0.191927,1.21872,0.0358224,0.0148217,2.9814,5,0.1,9,0.2,-0.256362,-1.3526,0.622216,-0.174207,0.0688344,-0.00127107,-1.30656,0.516176,-0.00956655,0.0118129,2.92579,5,0.1,10,0.2,-1.76871,2.53949,0.504172,-0.00526607,-0.0739634,-0.00354052,-0.0393987,-0.553131,-0.0263453,0.00797193,0.228241,5,0.1,11,0.2,-1.32589,2.9239,0.635949,0.0524372,-0.179708,-0.00642687,0.393331,-1.34802,-0.0481904,0.0119801,2.92578,5,0.1,12,0.2,1.21379,-4.10666,0.672499,-0.157139,0.101876,-0.00397861,-1.17862,0.764132,-0.0298321,0.0212733,2.92578,5,0.1,13,0.2,-3.94375,-3.17657,0.51474,0.0748694,0.143993,-0.0061065,0.561595,1.08004,-0.0458062,0.0128025,2.1662,5,0.1,14,0.2,1.30677,4.13865,0.56023,-0.0773728,-0.170553,0.00359118,-0.580192,-1.27912,0.0269413,0.0143961,2.9258,5,0.1,15,0.2,-2.56371,2.91307,0.582547,0.0720322,-0.048399,0.0299439,0.540376,-0.362873,0.22459,0.0118097,0.621678,5,0.1,16,0.2,-3.17366,-3.7061,0.669913,0.143719,0.052458,-0.00659376,1.07789,0.393271,-0.0494719,0.0277502,1.92584,5,0.1,17,0.2,0.0527154,2.81706,0.594074,0.18702,0.0105321,0.000341237,1.40265,0.079155,0.002563,0.0241321,2.92579,5,0.1,18,0.2,4.05107,-1.44828,0.60738,-0.0500202,-0.130084,-0.00771433,-0.375271,-0.975609,-0.0578463,0.00948751,1.60007,5,0.1,19,0.2,0.856125,-1.26693,0.692745,-0.109051,0.105354,0.00540167,-0.817865,0.790179,0.0404716,0.0175954,1.89059,5,0.1,20,0.2,2.21152,-0.255154,0.612183,-0.10621,0.154289,-0.000987947,-0.796795,1.15718,-0.00736117,0.0224092,2.93609,5,0.1,21,0.2,-3.13711,3.49967,0.53298,0.142306,-0.121665,0.00582635,1.06728,-0.912547,0.0436604,0.0168981,2.14829,5,0.1,22,0.2,1.54971,3.29619,0.570962,-0.175261,0.0660658,0.00254512,-1.31446,0.495553,0.0190735,0.0116425,2.92579,5,0.1,23,0.2,3.49013,4.22436,0.63972,-0.0603795,-0.115478,-0.00374764,-0.452876,-0.866413,-0.0280738,0.017253,1.39588,5,0.1,24,0.2,1.77855,-2.99039,0.557103,-0.0404239,0.112283,0.00404567,-0.303149,0.842214,0.0303686,0.0174974,1.17092,5,0.1,25,0.2,3.78418,0.290629,0.523254,-0.0329435,0.18433,-0.00498444,-0.247002,1.38249,-0.0373423,0.0135787,2.92579,5,0.1,26,0.2,3.96071,-3.50694,0.553903,-0.016135,0.186616,0.00145584,-0.120997,1.39964,0.0109375,0.0144762,2.92579,5,0.1,27,0.2,-4.1342,2.72218,0.575211,0.161767,0.0677049,0.000965595,1.21307,0.507712,0.00724196,0.04074,0.72027,5,0.1,28,0.2,-0.0832157,-3.80431,0.56023,-0.183611,-0.0369728,-0.00281483,-1.37708,-0.277281,-0.0210702,0.0122212,2.92579,5,0.1,29,0.2,-0.794664,-2.83748,0.696882,-0.0334591,0.184292,0.00176728,-0.250965,1.38235,0.0132918,0.0225496,2.92578,5,0.1,30,0.2,-0.0788881,2.19242,0.545756,0.0781847,0.0195742,0.00511706,0.586387,0.146985,0.0383556,0.0121144,0.535652,5,0.1,31,0.2,3.66232,3.07936,0.582493,-0.183344,-0.0383735,0.000810623,-1.37496,-0.28789,0.00604987,0.0135791,2.9258,5,0.1,32,0.2,-0.58518,0.728981,0.697315,0.0268996,-0.0687614,0.00496954,0.201762,-0.515699,0.0372827,0.0128553,0.872065,5,0.1,33,0.2,4.37258,3.11584,0.628794,-0.180876,0.0486553,-0.00149906,-1.35684,0.365019,-0.0112653,0.00986541,2.92577,5,0.1,34,0.2,3.97481,3.87541,0.609357,-0.134397,-0.0967205,-0.000882149,-1.00791,-0.725508,-0.00664592,0.0137934,2.2517,5,0.1,35,0.2,2.29097,1.34972,0.622745,0.0161171,-0.186616,-0.00141561,0.120759,-1.39964,-0.0106096,0.0132878,2.92582,5,0.1,36,0.2,-1.31916,0.589026,0.569377,-0.0453562,-0.0838578,0.00288785,-0.340104,-0.628918,0.0216961,0.010983,0.747135,5,0.1,37,0.2,0.324688,-4.39059,0.683568,0.13531,0.0517845,-0.0087887,1.01484,0.388384,-0.0658929,0.0170845,1.73022,5,0.1,38,0.2,3.68777,1.09461,0.601168,-0.0507295,0.179726,-0.000110269,-0.380278,1.34796,-0.000834465,0.0219233,2.86407,5,0.1,39,0.2,1.01258,2.70349,0.607157,0.127625,0.0140429,-0.0025779,0.957131,0.105381,-0.0193119,0.0115567,1.35442,5,0.1
0,0.3,4.36187,-2.42587,0.619519,-0.0669956,0.342396,-0.00123084,-0.331521,1.69446,-0.00608712,0.0178325,2.92579,5,0.1,1,0.3,0.441039,3.48576,0.666092,-0.158472,0.100353,-0.0117539,-0.781786,0.495076,-0.0579916,0.00723594,0.838182,5,0.1,2,0.3,1.84472,0.425481,0.684344,-0.141345,-0.129028,0.0116774,-0.697315,-0.636535,0.0576116,0.012834,0.872355,5,0.1,3,0.3,-4.2688,4.27183,0.644736,0.277239,-0.210208,0.0229495,1.37401,-1.04183,0.0407621,0.0177765,2.92917,5,0.1,4,0.3,-3.48449,2.91987,0.652739,0.31295,0.132813,-0.00597853,1.46315,0.568345,-0.0226423,0.0208225,2.93868,5,0.1,5,0.3,-4.24379,-2.17979,0.681114,0.199005,-0.199227,0.0122523,1.03885,-0.982821,0.060454,0.00969844,2.12457,5,0.1,6,0.3,2.31182,-1.28766,0.693716,-0.177006,0.300522,0.0089597,-0.87595,1.48718,0.044331,0.0227546,2.92579,5,0.1,7,0.3,-2.58142,-3.56314,0.64636,0.16566,0.0734754,-0.00824621,0.817284,0.362515,-0.0406913,0.00779104,0.780904,5,0.1,8,0.3,3.65511,-0.261481,0.698242,-0.0459746,0.310153,0.00832025,-0.206321,1.63104,0.0338703,0.0148217,2.9814,5,0.1,9,0.3,-0.281049,-1.34284,0.622036,-0.324474,0.128202,-0.00237012,-1.60573,0.634402,-0.0117384,0.0118129,2.92579,5,0.1,10,0.3,-1.76945,2.52922,0.503703,-0.00965018,-0.131835,-0.0056725,-0.0457838,-0.577495,-0.0163615,0.00797193,0.228241,5,0.1,11,0.3,-1.31846,2.89844,0.635039,0.0976721,-0.334736,-0.0119694,0.483356,-1.65658,-0.0592321,0.0119801,2.92578,5,0.1,12,0.3,1.19153,-4.09222,0.671935,-0.292688,0.189757,-0.0074097,-1.44845,0.939101,-0.0366606,0.0212733,2.92578,5,0.1,13,0.3,-3.93315,-3.15618,0.513876,0.139288,0.267882,-0.0113606,0.687167,1.32155,-0.0560507,0.0128025,2.1662,5,0.1,14,0.3,1.2958,4.11448,0.560739,-0.144103,-0.317664,0.0066895,-0.713103,-1.57207,0.0331104,0.0143961,2.9258,5,0.1,15,0.3,-2.55351,2.90621,0.586475,0.134015,-0.0900283,0.0468161,0.661179,-0.444084,0.116765,0.0118097,0.621678,5,0.1,16,0.3,-3.15331,-3.69867,0.668979,0.267364,0.0975747,-0.0122683,1.31898,0.481322,-0.0605285,0.0277502,1.92584,5,0.1,17,0.3,0.0792178,2.81855,0.594122,0.348338,0.0196304,0.000636,1.72382,0.0972003,0.00314787,0.0241321,2.92579,5,0.1,18,0.3,4.04398,-1.4667,0.606287,-0.0930645,-0.241998,-0.0143502,-0.459164,-1.19385,-0.0707954,0.00948751,1.60007,5,0.1,19,0.3,0.84068,-1.25201,0.69351,-0.20287,0.195996,0.0100454,-1.00081,0.966907,0.0495464,0.0175954,1.89059,5,0.1,20,0.3,2.19666,-0.233531,0.612032,-0.192605,0.280543,-0.00216514,-0.886008,1.30068,-0.0149235,0.0224092,2.93609,5,0.1,21,0.3,-3.11713,3.48264,0.533811,0.25965,-0.220706,0.0109917,1.21564,-1.01644,0.0562146,0.0168981,2.14829,5,0.1,22,0.3,1.52488,3.30555,0.571323,-0.326437,0.123057,0.00473922,-1.61544,0.608996,0.0234507,0.0116425,2.92579,5,0.1,23,0.3,3.48158,4.208,0.639189,-0.112329,-0.214855,-0.00696899,-0.554159,-1.06007,-0.0343658,0.017253,1.39588,5,0.1,24,0.3,1.77283,-2.97448,0.557676,-0.0751995,0.208891,0.00752853,-0.370964,1.03055,0.0371449,0.0174974,1.17092,5,0.1,25,0.3,3.77951,0.316751,0.522548,-0.0613526,0.343328,-0.00928044,-0.303566,1.69904,-0.0459179,0.0135787,2.92579,5,0.1,26,0.3,3.95842,-3.4805,0.55411,-0.0300508,0.347586,0.00271313,-0.148699,1.72012,0.0134334,0.0144762,2.92579,5,0.1,27,0.3,-4.11205,2.73084,0.575362,0.27927,0.0995744,0.00222744,1.09953,0.152454,0.0165291,0.04074,0.72027,5,0.1,28,0.3,-0.109235,-3.80955,0.559831,-0.341988,-0.0688627,-0.00523953,-1.6924,-0.34076,-0.0259168,0.0122212,2.92579,5,0.1,29,0.3,-0.799406,-2.81136,0.697132,-0.0623216,0.34327,0.00329493,-0.308413,1.69879,0.016313,0.0225496,2.92578,5,0.1,30,0.3,-0.0678148,2.19519,0.54648,0.14545,0.0364304,0.00951756,0.717548,0.179768,0.0469461,0.0121144,0.535652,5,0.1,31,0.3,3.63634,3.07392,0.582607,-0.34148,-0.0714805,0.00150744,-1.68987,-0.353768,0.00745058,0.0135791,2.9258,5,0.1,32,0.3,-0.58137,0.718929,0.698018,0.0500433,-0.136808,0.00924598,0.246882,-0.789106,0.0456125,0.0128553,0.872065,5,0.1,33,0.3,4.34695,3.12273,0.628581,-0.336917,0.0906326,-0.00279425,-1.66738,0.448555,-0.013832,0.00986541,2.92577,5,0.1,34,0.3,3.95578,3.86171,0.609232,-0.250018,-0.179941,-0.0016435,-1.2334,-0.887737,-0.00810996,0.0137934,2.2517,5,0.1,35,0.3,2.29324,1.32327,0.622546,0.0295486,-0.347625,-0.0025956,0.140294,-1.72079,-0.0123233,0.0132878,2.92582,5,0.1,36,0.3,-1.32558,0.577149,0.569786,-0.0843721,-0.156002,0.00537559,-0.416212,-0.769604,0.0265315,0.010983,0.747135,5,0.1,37,0.3,0.343852,-4.38326,0.682323,0.251723,0.0963368,-0.0163482,1.24183,0.475258,-0.0806414,0.0170845,1.73022,5,0.1,38,0.3,3.68059,1.12006,0.601153,-0.0943568,0.334351,-0.000205729,-0.465438,1.64946,-0.001017,0.0219233,2.86407,5,0.1,39,0.3,1.03066,2.70547,0.606792,0.237421,0.0261299,-0.00479352,1.17125,0.128925,-0.0236407,0.0115567,1.35442,5,0.1
0,0.4,4.35354,-2.3833,0.619366,-0.0989318,0.50565,-0.00181794,-0.293255,1.49822,-0.00539422,0.0160556,2.52797,5,0.1,1,0.4,0.421352,3.49823,0.664632,-0.233709,0.147998,-0.0173345,-0.689745,0.436664,-0.0511408,0.00888257,0.66318,5,0.1,2,0.4,1.82716,0.409452,0.685795,-0.208452,-0.190288,0.0172228,-0.61518,-0.561565,0.050813,0.0136862,0.690215,5,0.1,3,0.4,-4.23432,4.24569,0.647142,0.409687,-0.310636,0.0243366,1.21617,-0.921965,-0.00920892,0.0186967,2.51227,5,0.1,4,0.4,-3.44611,2.93583,0.652039,0.450933,0.184464,-0.00791848,1.24049,0.447154,-0.0157058,0.0230003,2.72326,5,0.1,5,0.4,-4.21872,-2.20453,0.682636,0.30098,-0.293809,0.0180691,0.952244,-0.867128,0.0533462,0.0101474,1.68975,5,0.1,6,0.4,2.28981,-1.25029,0.69483,-0.261402,0.443807,0.0132307,-0.774503,1.315,0.0392199,0.0237553,2.51008,5,0.1,7,0.4,-2.56084,-3.55401,0.645336,0.244313,0.108361,-0.0121623,0.720978,0.319719,-0.035882,0.00825588,0.617857,5,0.1,8,0.4,3.64952,-0.222331,0.699232,-0.0651062,0.470655,0.0113294,-0.169158,1.50199,0.0253618,0.0157051,2.55671,5,0.1,9,0.4,-0.321389,-1.32691,0.621741,-0.479182,0.189328,-0.00350028,-1.41974,0.560939,-0.0103712,0.0119049,2.51008,5,0.1,10,0.4,-1.77063,2.51328,0.50307,-0.0139862,-0.184864,-0.00683367,-0.0392795,-0.463605,-0.00700355,0.00952405,0.189595,5,0.1,11,0.4,-1.30631,2.85682,0.633551,0.144243,-0.494337,-0.0176758,0.427425,-1.46472,-0.0523925,0.0122894,2.51027,5,0.1,12,0.4,1.15514,-4.06863,0.671014,-0.432244,0.280237,-0.0109434,-1.28061,0.830173,-0.0323951,0.0232768,2.51007,5,0.1,13,0.4,-3.91584,-3.1229,0.512464,0.205415,0.395066,-0.0167549,0.606298,1.16587,-0.0494421,0.0160364,1.71423,5,0.1,14,0.4,1.27789,4.07499,0.561571,-0.212809,-0.469124,0.00987798,-0.630498,-1.38998,0.0292957,0.0124415,2.68517,5,0.1,15,0.4,-2.53686,2.89503,0.591589,0.197643,-0.132769,0.0540569,0.58341,-0.391841,0.0317097,0.0150459,0.490366,5,0.1,16,0.4,-3.12009,-3.68655,0.667455,0.394303,0.143903,-0.018093,1.16372,0.424504,-0.0534058,0.029837,1.53616,5,0.1,17,0.4,0.122524,2.82099,0.594201,0.514424,0.0289977,0.000938773,1.52417,0.0858307,0.00280142,0.0246442,2.51532,5,0.1,18,0.4,4.03242,-1.49676,0.604505,-0.137246,-0.356892,-0.0211626,-0.405073,-1.05321,-0.0624657,0.00900198,1.26599,5,0.1,19,0.4,0.815478,-1.22766,0.694757,-0.299187,0.28905,0.0148132,-0.882983,0.853002,0.0437498,0.0188049,1.49585,5,0.1,20,0.4,2.17312,-0.199191,0.611737,-0.275624,0.402802,-0.00375062,-0.741601,1.09548,-0.015825,0.0251071,2.68388,5,0.1,21,0.4,-3.08528,3.45566,0.535189,0.374353,-0.315994,0.0164732,1.03176,-0.851512,0.050813,0.0127272,1.68122,5,0.1,22,0.4,1.48429,3.32085,0.571912,-0.482079,0.181729,0.00699908,-1.42837,0.538468,0.0207126,0.0113968,2.52371,5,0.1,23,0.4,3.46762,4.18131,0.638324,-0.165659,-0.31687,-0.0102773,-0.488877,-0.935316,-0.030309,0.0168772,1.10442,5,0.1,24,0.4,1.76349,-2.94853,0.558612,-0.110903,0.308067,0.0111029,-0.327229,0.909209,0.0327826,0.0174422,0.926442,5,0.1,25,0.4,3.77189,0.359434,0.521394,-0.090605,0.507027,-0.0137046,-0.268459,1.50223,-0.0406206,0.0125065,2.51269,5,0.1,26,0.4,3.95468,-3.43729,0.554447,-0.0443816,0.513309,0.00400692,-0.131369,1.52099,0.0118911,0.0197519,2.51487,5,0.1,27,0.4,-4.07907,2.74113,0.575673,0.375354,0.102395,0.00401139,0.796318,-0.0771284,0.0180602,0.0479938,0.528053,5,0.1,28,0.4,-0.151752,-3.81811,0.55918,-0.505046,-0.101697,-0.00773668,-1.49639,-0.301242,-0.022918,0.0103744,2.51214,5,0.1,29,0.4,-0.807154,-2.76868,0.697542,-0.0920355,0.506943,0.00486672,-0.272721,1.50204,0.0143945,0.0213978,2.51265,5,0.1,30,0.4,-0.0497457,2.19972,0.547663,0.214505,0.0537336,0.0140354,0.633046,0.158548,0.0414252,0.0116012,0.423812,5,0.1,31,0.4,3.59388,3.06503,0.582795,-0.504297,-0.105566,0.00222474,-1.49417,-0.312686,0.00661612,0.0190048,2.74342,5,0.1,32,0.4,-0.575153,0.701232,0.699167,0.0738025,-0.216746,0.0136346,0.217795,-0.767499,0.0402629,0.00927695,0.70107,5,0.1,33,0.4,4.30506,3.134,0.628234,-0.497556,0.133848,-0.00412762,-1.47438,0.396609,-0.0121891,0.0129293,2.51102,5,0.1,34,0.4,3.92472,3.83936,0.609028,-0.36872,-0.265372,-0.00242442,-1.08802,-0.783205,-0.00715256,0.0159864,1.78157,5,0.1,35,0.4,2.29687,1.28005,0.622226,0.0428557,-0.513437,-0.00376403,0.120521,-1.52177,-0.0105798,0.0137346,2.51499,5,0.1,36,0.4,-1.33606,0.557769,0.570454,-0.124428,-0.230068,0.00792891,-0.367284,-0.678957,0.023365,0.011593,0.591142,5,0.1,37,0.4,0.375124,-4.37129,0.680292,0.371236,0.142074,-0.0241086,1.09556,0.419378,-0.0711679,0.0097697,1.36897,5,0.1,38,0.4,3.66887,1.1616,0.601127,-0.139153,0.493091,-0.000303984,-0.410676,1.45525,-0.000864267,0.0230555,2.26608,5,0.1,39,0.4,1.06015,2.70872,0.606197,0.350145,0.0385344,-0.00706911,1.03325,0.113726,-0.0208616,0.0099204,1.07163,5,0.1
0,0.5,4.34245,-2.32529,0.619162,-0.120344,0.652608,-0.00219457,-0.138909,1.37767,-0.00225008,0.0160556,2.52797,5,0.1,1,0.5,0.394469,3.51525,0.662638,-0.30369,0.192304,-0.0225236,-0.675544,0.427708,-0.050094,0.00888257,0.66318,5,0.1,2,0.5,1.80318,0.387564,0.687776,-0.270868,-0.247264,0.0223783,-0.602506,-0.550013,0.0497662,0.0136862,0.690215,5,0.1,3,0.5,-4.18709,4.20988,0.649468,0.534873,-0.405541,0.0216568,1.22318,-0.927269,-0.0412092,0.0186967,2.51227,5,0.1,4,0.5,-3.39551,2.95611,0.651236,0.55397,0.21717,-0.00753934,0.807926,0.211447,0.0197999,0.0230003,2.72326,5,0.1,5,0.5,-4.18378,-2.23823,0.684726,0.397469,-0.378875,0.0238034,0.931382,-0.79751,0.0579692,0.0101474,1.68975,5,0.1,6,0.5,2.25969,-1.19915,0.696355,-0.3411,0.579123,0.0172664,-0.778496,1.32174,0.0394247,0.0237553,2.51008,5,0.1,7,0.5,-2.53274,-3.54155,0.643937,0.317463,0.140802,-0.0158029,0.706121,0.313163,-0.0351444,0.00825588,0.617857,5,0.1,8,0.5,3.64216,-0.167533,0.700489,-0.0819929,0.625493,0.0137641,-0.160426,1.51552,0.0222661,0.0157051,2.55671,5,0.1,9,0.5,-0.376608,-1.30509,0.621338,-0.625278,0.247052,-0.00456721,-1.42704,0.563845,-0.0104159,0.0119049,2.51008,5,0.1,10,0.5,-1.77223,2.49304,0.50237,-0.017787,-0.214794,-0.00700187,-0.0351444,-0.153258,0.00299513,0.00952405,0.189595,5,0.1,11,0.5,-1.28969,2.7999,0.631514,0.188225,-0.643721,-0.0230669,0.429593,-1.44795,-0.052657,0.0122894,2.51027,5,0.1,12,0.5,1.10533,-4.03634,0.669753,-0.564023,0.365666,-0.0142776,-1.2872,0.834435,-0.0325702,0.0232768,2.51007,5,0.1,13,0.5,-3.89221,-3.07746,0.510589,0.266927,0.513354,-0.0202823,0.593781,1.14186,-0.0219569,0.0160364,1.71423,5,0.1,14,0.5,1.25329,4.02217,0.562701,-0.279905,-0.576719,0.0126462,-0.673138,-0.767142,0.0250712,0.0124415,2.68517,5,0.1,15,0.5,-2.51412,2.87976,0.59706,0.256833,-0.172526,0.0544817,0.57134,-0.383794,-0.0204183,0.0150459,0.490366,5,0.1,16,0.5,-3.07506,-3.67007,0.665377,0.503175,0.184798,-0.0234202,0.976235,0.377089,-0.0506863,0.029837,1.53616,5,0.1,17,0.5,0.181572,2.82433,0.594309,0.664609,0.03783,0.00122637,1.4113,0.0862926,0.00280887,0.0246442,2.51532,5,0.1,18,0.5,4.01663,-1.53782,0.60207,-0.178343,-0.463752,-0.0275005,-0.396714,-1.03156,-0.0611842,0.00900198,1.26599,5,0.1,19,0.5,0.781064,-1.19441,0.696461,-0.388774,0.375596,0.0192518,-0.864807,0.835456,0.0428446,0.0188049,1.49585,5,0.1,20,0.5,2.14251,-0.153705,0.611224,-0.330362,0.503365,-0.0069771,-0.360772,0.883441,-0.0443831,0.0251071,2.68388,5,0.1,21,0.5,-3.04264,3.41979,0.537096,0.477436,-0.400617,0.0216789,0.981078,-0.80134,0.05069,0.0127272,1.68122,5,0.1,22,0.5,1.42876,3.34144,0.572721,-0.628444,0.227248,0.00919988,-1.4247,0.365391,0.02205,0.0113968,2.52371,5,0.1,23,0.5,3.44857,4.14486,0.637141,-0.21526,-0.411762,-0.0133532,-0.478819,-0.915945,-0.0296943,0.0168772,1.10442,5,0.1,24,0.5,1.75073,-2.9131,0.559889,-0.144106,0.400313,0.0144286,-0.320517,0.890464,0.0320971,0.0174422,0.926442,5,0.1,25,0.5,3.76145,0.417698,0.519815,-0.11823,0.656914,-0.0178846,-0.26983,1.42479,-0.0408292,0.0125065,2.51269,5,0.1,26,0.5,3.94957,-3.37836,0.554909,-0.0579026,0.663457,0.00523003,-0.132069,1.41336,0.011947,0.0197519,2.51487,5,0.1,27,0.5,-4.03771,2.75069,0.576171,0.449351,0.0862904,0.00597881,0.654608,-0.228167,0.0201799,0.0479938,0.528053,5,0.1,28,0.5,-0.209806,-3.82983,0.558288,-0.654856,-0.132697,-0.0100954,-1.4284,-0.302821,-0.0230446,0.0103744,2.51214,5,0.1,29,0.5,-0.81776,-2.71043,0.698103,-0.120098,0.656831,0.00634799,-0.274103,1.42494,0.0144728,0.0213978,2.51265,5,0.1,30,0.5,-0.0250721,2.2059,0.549277,0.278734,0.069819,0.0182385,0.620019,0.155255,0.0405759,0.0116012,0.423812,5,0.1,31,0.5,3.53724,3.05294,0.583051,-0.616277,-0.135579,0.00290722,-0.760719,-0.27585,0.00668317,0.0190048,2.74342,5,0.1,32,0.5,-0.566664,0.675553,0.700735,0.0959,-0.297409,0.0177189,0.213318,-0.803169,0.0394247,0.00927695,0.70107,5,0.1,33,0.5,4.2478,3.14937,0.627759,-0.647048,0.173011,-0.00536544,-1.44199,0.369325,-0.0119545,0.0129293,2.51102,5,0.1,34,0.5,3.88231,3.80883,0.608749,-0.479114,-0.344834,-0.00315001,-1.06569,-0.767052,-0.00699982,0.0159864,1.78157,5,0.1,35,0.5,2.30177,1.22111,0.621796,0.055116,-0.663614,-0.00484018,0.118539,-1.41322,-0.0104047,0.0137346,2.51499,5,0.1,36,0.5,-1.35037,0.531306,0.571366,-0.161691,-0.298955,0.0102998,-0.359714,-0.664992,0.0228919,0.011593,0.591142,5,0.1,37,0.5,0.417825,-4.35495,0.677519,0.482392,0.184623,-0.031329,1.07302,0.410706,-0.0696965,0.0097697,1.36897,5,0.1,38,0.5,3.65286,1.21832,0.601092,-0.180822,0.640739,-0.000392273,-0.402257,1.42527,-0.000856817,0.0230555,2.26608,5,0.1,39,0.5,1.10043,2.71315,0.605384,0.45498,0.0500731,-0.00918582,1.01203,0.111371,-0.0204295,0.0099204,1.07163,5,0.1
0,0.6,4.32994,-2.25376,0.618936,-0.12753,0.770497,-0.00228882,-0.00905991,0.936508,0.000238419,0.0153177,2.32071,5,0.1,1,0.6,0.360977,3.53646,0.660154,-0.362973,0.229836,-0.0269204,-0.485957,0.307798,-0.036031,0.010432,0.493723,5,0.1,2,0.6,1.77331,0.360295,0.690244,-0.32374,-0.295531,0.0267461,-0.433445,-0.395656,0.0357926,0.0184021,0.513847,5,0.1,3,0.6,-4.12791,4.16501,0.651397,0.643313,-0.487757,0.0166699,0.900269,-0.682592,-0.0560284,0.0207264,2.22067,5,0.1,4,0.6,-3.33686,2.97853,0.650616,0.610805,0.227737,-0.00458658,0.324011,0.005126,0.0364482,0.020033,2.6756,5,0.1,5,0.6,-4.13972,-2.27974,0.687381,0.479376,-0.447112,0.0290841,0.674725,-0.541925,0.0451803,0.0110158,1.43017,5,0.1,6,0.6,2.22196,-1.13509,0.698265,-0.410098,0.696275,0.0207588,-0.572562,0.971973,0.0290275,0.0241003,2.22469,5,0.1,7,0.6,-2.49773,-3.52602,0.642194,0.379431,0.168282,-0.0188872,0.507951,0.225425,-0.0252724,0.00969246,0.45998,5,0.1,8,0.6,3.63323,-0.0979159,0.701964,-0.0958204,0.760304,0.015603,-0.110149,1.12537,0.0137687,0.0173807,2.34795,5,0.1,9,0.6,-0.445776,-1.27776,0.620833,-0.75176,0.297025,-0.00548959,-1.04946,0.414729,-0.007689,0.0119711,2.26792,5,0.1,10,0.6,-1.77416,2.47119,0.501697,-0.0207514,-0.218815,-0.00635386,-0.0229478,0.0582933,0.00938773,0.00885359,0.181092,5,0.1,11,0.6,-1.26887,2.72882,0.628962,0.226301,-0.771201,-0.027734,0.315905,-1.04928,-0.0387132,0.0125005,2.33295,5,0.1,12,0.6,1.04294,-3.99589,0.668173,-0.67811,0.439632,-0.0171646,-0.946671,0.61357,-0.0239611,0.0223374,2.22023,5,0.1,13,0.6,-3.86278,-3.02084,0.508491,0.31904,0.613558,-0.0213161,0.427008,0.821471,0.000476837,0.0138818,1.2771,5,0.1,14,0.6,1.22212,3.96166,0.564077,-0.340861,-0.623989,0.0147253,-0.51862,-0.187397,0.0157952,0.0155478,2.50163,5,0.1,15,0.6,-2.4858,2.86073,0.602339,0.30697,-0.206208,0.050503,0.410914,-0.27597,-0.056684,0.013149,0.36487,5,0.1,16,0.6,-3.02042,-3.6499,0.662802,0.583321,0.216585,-0.027813,0.601888,0.247478,-0.0354648,0.0302018,1.18901,5,0.1,17,0.6,0.254452,2.82852,0.594445,0.785437,0.0454724,0.00147521,0.96099,0.0635386,0.00205636,0.029468,2.33982,5,0.1,18,0.6,3.99697,-1.58896,0.599038,-0.213152,-0.554276,-0.032869,-0.285387,-0.742137,-0.044018,0.00918068,0.942503,5,0.1,19,0.6,0.738188,-1.15299,0.698585,-0.464664,0.448912,0.0230119,-0.622153,0.600994,0.0308156,0.0183227,1.11363,5,0.1,20,0.6,2.10824,-0.0995177,0.610287,-0.349426,0.574164,-0.0118643,-0.0292063,0.511597,-0.0500381,0.0234777,2.47159,5,0.1,21,0.6,-2.99041,3.37607,0.5395,0.56228,-0.469553,0.0261664,0.681639,-0.549793,0.0371933,0.0126212,1.23862,5,0.1,22,0.6,1.3593,3.36567,0.573745,-0.754359,0.25385,0.0111952,-1.04111,0.163555,0.0169277,0.0121735,2.11453,5,0.1,23,0.6,3.42483,4.09945,0.635669,-0.257283,-0.492144,-0.0159591,-0.344276,-0.658512,-0.0213981,0.0151832,0.822192,5,0.1,24,0.6,1.73484,-2.86895,0.56148,-0.172234,0.478452,0.0172436,-0.23061,0.640631,0.0231266,0.0159914,0.689708,5,0.1,25,0.6,3.74837,0.489915,0.517837,-0.142145,0.780191,-0.0215039,-0.198483,0.993534,-0.0300407,0.0136722,2.31944,5,0.1,26,0.6,3.94317,-3.30558,0.555487,-0.0696123,0.784653,0.0062868,-0.0971556,0.965953,0.00882149,0.0155653,2.33127,5,0.1,27,0.6,-3.98993,2.75805,0.576866,0.501466,0.0597775,0.00785589,0.368714,-0.288606,0.0165403,0.0431731,0.616793,5,0.1,28,0.6,-0.281845,-3.84451,0.557171,-0.778788,-0.159538,-0.0121385,-1.00224,-0.222564,-0.0169575,0.00931582,2.31585,5,0.1,29,0.6,-0.831045,-2.63822,0.698805,-0.144392,0.780135,0.00763088,-0.201583,0.993848,0.0106394,0.0219078,2.31925,5,0.1,30,0.6,0.0056676,2.2136,0.551288,0.333144,0.0834405,0.0218004,0.446028,0.111818,0.0291765,0.010235,0.315517,5,0.1,31,0.6,3.47291,3.03814,0.583373,-0.65968,-0.158763,0.00350028,-0.124335,-0.179768,0.00491738,0.015644,2.92003,5,0.1,32,0.6,-0.556088,0.642025,0.70269,0.114618,-0.370079,0.021179,0.153482,-0.619739,0.028342,0.012442,0.532352,5,0.1,33,0.6,4.17643,3.16835,0.627167,-0.773501,0.204778,-0.00641495,-1.03569,0.254154,-0.00861287,0.0141768,2.35769,5,0.1,34,0.6,3.82947,3.7708,0.608402,-0.57264,-0.412148,-0.00376403,-0.766516,-0.551701,-0.00503659,0.0163636,1.32634,5,0.1,35,0.6,2.30783,1.14831,0.621264,0.0655115,-0.784764,-0.00575334,0.0849962,-0.965238,-0.00745058,0.00997635,2.34244,5,0.1,36,0.6,-1.36821,0.498336,0.572501,-0.193256,-0.357312,0.0123084,-0.258803,-0.478372,0.0164807,0.0140034,0.440091,5,0.1,37,0.6,0.471025,-4.33459,0.674064,0.576555,0.220668,-0.0374451,0.771909,0.295401,-0.0501573,0.00815355,1.01916,5,0.1,38,0.6,3.63292,1.28898,0.601049,-0.21612,0.765815,-0.000467896,-0.28944,1.02526,-0.000596046,0.0201826,1.7653,5,0.1,39,0.6,1.1506,2.71868,0.604371,0.543791,0.0598431,-0.0109792,0.728071,0.0802279,-0.0146925,0.0107899,0.797812,5,0.1
0,0.7,4.31694,-2.17281,0.618704,-0.134183,0.840544,-0.00238186,-0.10556,0.460982,-0.00174716,0.0153177,2.32071,5,0.1,1,0.7,0.322292,3.56096,0.657285,-0.409627,0.259385,-0.0303798,-0.420449,0.266314,-0.0311844,0.010432,0.493723,5,0.1,2,0.7,1.73881,0.328798,0.693094,-0.365351,-0.333515,0.0301825,-0.37501,-0.342323,0.0309721,0.0184021,0.513847,5,0.1,3,0.7,-4.05902,4.11278,0.652763,0.733686,-0.556279,0.0105137,0.85029,-0.644654,-0.0647679,0.0207264,2.22067,5,0.1,4,0.7,-3.27473,3.00163,0.65037,0.626336,0.236658,-9.54606e-05,-0.0121295,0.144839,0.0505187,0.020033,2.6756,5,0.1,5,0.7,-4.08928,-2.3264,0.690742,0.520947,-0.478828,0.0399833,0.172228,-0.106022,0.155937,0.0110158,1.43017,5,0.1,6,0.7,2.17805,-1.0608,0.700488,-0.467571,0.786423,0.0236718,-0.540659,0.785045,0.0273958,0.0241003,2.22469,5,0.1,7,0.7,-2.45729,-3.50808,0.640181,0.428196,0.189922,-0.0213137,0.439465,0.194997,-0.0218675,0.00969246,0.45998,5,0.1,8,0.7,3.62309,-0.0173164,0.703693,-0.106693,0.841293,0.0197756,-0.100031,0.50417,0.0623725,0.0173807,2.34795,5,0.1,9,0.7,-0.525368,-1.24596,0.620245,-0.831631,0.338655,-0.00626054,-0.544196,0.391617,-0.00724941,0.0119711,2.26792,5,0.1,10,0.7,-1.77633,2.44996,0.501116,-0.0224309,-0.202871,-0.00520647,-0.0103936,0.230268,0.0130162,0.00885359,0.181092,5,0.1,11,0.7,-1.24464,2.64776,0.625992,0.25801,-0.838271,-0.0316201,0.298284,-0.343978,-0.0365525,0.0125005,2.33295,5,0.1,12,0.7,0.970443,-3.94882,0.666336,-0.769867,0.501227,-0.01957,-0.835396,0.579447,-0.0226311,0.0223374,2.22023,5,0.1,13,0.7,-3.82873,-2.95549,0.5064,0.361228,0.691361,-0.0201633,0.390664,0.691876,0.0210032,0.0138818,1.2771,5,0.1,14,0.7,1.18627,3.89941,0.565614,-0.36824,-0.610956,0.0158727,-0.0522658,0.409842,0.00698119,0.0155478,2.50163,5,0.1,15,0.7,-2.45308,2.83876,0.60707,0.346419,-0.232705,0.0438198,0.355512,-0.238806,-0.0750311,0.013149,0.36487,5,0.1,16,0.7,-2.95941,-3.62709,0.659849,0.633146,0.238461,-0.0311477,0.373602,0.179276,-0.0293776,0.0302018,1.18901,5,0.1,17,0.7,0.33674,2.83339,0.594807,0.850342,0.0518296,0.00748094,0.364169,0.0596493,0.105038,0.029468,2.33982,5,0.1,18,0.7,3.97425,-1.64803,0.595534,-0.240549,-0.625523,-0.0370949,-0.246882,-0.642091,-0.0380836,0.00918068,0.942503,5,0.1,19,0.7,0.688665,-1.10515,0.701037,-0.524393,0.50661,0.0259703,-0.538275,0.519991,0.0266582,0.0183227,1.11363,5,0.1,20,0.7,2.07313,-0.0390901,0.60885,-0.352704,0.637199,-0.0168324,-0.020504,0.682035,-0.0472441,0.0234777,2.47159,5,0.1,21,0.7,-2.93094,3.32653,0.542296,0.624478,-0.518968,0.0296493,0.529855,-0.413314,0.0306927,0.0126212,1.23862,5,0.1,22,0.7,1.27949,3.39194,0.574949,-0.833296,0.271747,0.0128652,-0.533894,0.176072,0.0154935,0.0121735,2.11453,5,0.1,23,0.7,3.39741,4.047,0.633968,-0.290338,-0.555366,-0.0180133,-0.297904,-0.569731,-0.0185147,0.0151832,0.822192,5,0.1,24,0.7,1.71648,-2.81796,0.563318,-0.194373,0.539953,0.0194628,-0.199527,0.554234,0.0199974,0.0159914,0.689708,5,0.1,25,0.7,3.73315,0.571851,0.515536,-0.162064,0.848526,-0.0244482,-0.187337,0.395374,-0.0271089,0.0136722,2.31944,5,0.1,26,0.7,3.93571,-3.22334,0.556161,-0.0793651,0.850076,0.00717118,-0.0917614,0.368804,0.0083074,0.0155653,2.33127,5,0.1,27,0.7,-3.93792,2.76233,0.577735,0.538285,0.0239436,0.00950405,0.334725,-0.405803,0.0155754,0.0431731,0.616793,5,0.1,28,0.7,-0.363687,-3.86159,0.555872,-0.848039,-0.181876,-0.0138404,-0.403719,-0.210121,-0.0160113,0.00931582,2.31585,5,0.1,29,0.7,-0.846506,-2.55629,0.699622,-0.164625,0.848506,0.00869893,-0.19031,0.395715,0.0100508,0.0219078,2.31925,5,0.1,30,0.7,0.0411737,2.22249,0.553612,0.375964,0.0941727,0.0246016,0.385899,0.0966936,0.02525,0.010235,0.315517,5,0.1,31,0.7,3.4077,3.02139,0.583748,-0.63262,-0.175967,0.00399426,0.592679,-0.153527,0.00464916,0.015644,2.92003,5,0.1,32,0.7,-0.543872,0.601931,0.704947,0.129353,-0.430818,0.0239002,0.132781,-0.562184,0.0245199,0.012442,0.532352,5,0.1,33,0.7,4.09495,3.18955,0.626492,-0.846016,0.214083,-0.00701072,-0.435024,-0.0490546,-0.00334159,0.0141768,2.35769,5,0.1,34,0.7,3.76844,3.72688,0.608001,-0.646232,-0.465114,-0.0042473,-0.663266,-0.477344,-0.00435486,0.0163636,1.32634,5,0.1,35,0.7,2.3146,1.06607,0.620669,0.0679746,-0.850117,-0.00598878,-0.0278354,-0.368152,0.00209361,0.00997635,2.34244,5,0.1,36,0.7,-1.3888,0.460254,0.573813,-0.218101,-0.403238,0.0138905,-0.223897,-0.413887,0.0142604,0.0140034,0.440091,5,0.1,37,0.7,0.532474,-4.31107,0.670073,0.650661,0.249028,-0.0422601,0.66785,0.255585,-0.0433922,0.00815355,1.01916,5,0.1,38,0.7,3.60988,1.36974,0.600999,-0.243907,0.839764,-0.000525732,-0.250399,0.452742,-0.000525266,0.0201826,1.7653,5,0.1,39,0.7,1.20856,2.72505,0.603201,0.613689,0.0675432,-0.01239,0.629947,0.0693798,-0.0127144,0.0107899,0.797812,5,0.1
0,0.8,4.30296,-2.08721,0.618456,-0.145423,0.864315,-0.0025779,-0.105381,0.0342131,-0.00190735,0.0183976,2.25331,5,0.1,1,0.8,0.279514,3.58805,0.654112,-0.442591,0.280261,-0.0328243,-0.220783,0.139952,-0.0163913,0.0099373,0.348595,5,0.1,2,0.8,1.70065,0.293968,0.696246,-0.394753,-0.360354,0.0326112,-0.196934,-0.179768,0.0162423,0.0104401,0.362803,5,0.1,3,0.8,-3.98187,4.05428,0.653492,0.803733,-0.609386,0.00412613,0.511169,-0.387669,-0.061214,0.0198075,2.04923,5,0.1,4,0.8,-3.2127,3.02606,0.650617,0.608951,0.251746,0.00501275,-0.331283,0.135779,0.0495315,0.019266,2.59168,5,0.1,5,0.8,-4.03705,-2.37419,0.695589,0.516963,-0.47105,0.057295,-0.236154,0.247717,0.177473,0.00958161,1.11315,5,0.1,6,0.8,2.12888,-0.978836,0.702977,-0.512093,0.846022,0.025928,-0.324726,0.380248,0.0164509,0.022377,2.11558,5,0.1,7,0.8,-2.41257,-3.48825,0.637956,0.462657,0.205213,-0.0230283,0.230551,0.102401,-0.0114739,0.00755763,0.324768,5,0.1,8,0.8,3.61199,0.0684322,0.706013,-0.114602,0.865434,0.0267863,-0.0530481,0.0118411,0.0722408,0.0132509,2.26088,5,0.1,9,0.8,-0.610437,-1.21035,0.619586,-0.861992,0.370905,-0.00685751,-0.0806451,0.23526,-0.00435114,0.0112478,2.1712,5,0.1,10,0.8,-1.77861,2.43092,0.500663,-0.0227988,-0.177586,-0.00384748,0.00303984,0.257492,0.0137389,0.00896687,0.3018,5,0.1,11,0.8,-1.21751,2.56305,0.622668,0.282574,-0.848341,-0.0346303,0.179052,0.110865,-0.0219643,0.0110983,2.31986,5,0.1,12,0.8,0.889815,-3.89612,0.664278,-0.836436,0.548953,-0.0214338,-0.461519,0.347853,-0.0135899,0.0211487,2.08169,5,0.1,13,0.8,-3.79089,-2.88339,0.504512,0.392771,0.744796,-0.0174046,0.222325,0.347972,0.0329018,0.0152104,0.903137,5,0.1,14,0.8,1.1498,3.84109,0.567221,-0.355724,-0.549138,0.0161022,0.281811,0.793695,-0.00244379,0.0174469,2.22439,5,0.1,15,0.8,-2.41691,2.81445,0.61106,0.374293,-0.25143,0.0358537,0.186563,-0.125289,-0.0826716,0.0123693,0.257731,5,0.1,16,0.8,-2.89474,-3.60253,0.65661,0.654703,0.250691,-0.0333816,0.0451803,0.0582933,-0.0140369,0.0293621,0.910202,5,0.1,17,0.8,0.422864,2.83884,0.596162,0.866026,0.0567257,0.0201702,-1.43051e-05,0.0356436,0.138611,0.0283493,2.27111,5,0.1,18,0.8,3.94913,-1.71336,0.59166,-0.259906,-0.675866,-0.0400811,-0.12958,-0.337124,-0.0199676,0.00839263,0.665455,5,0.1,19,0.8,0.633901,-1.05224,0.703749,-0.566594,0.547376,0.0280604,-0.282645,0.273108,0.0140071,0.0201605,0.786281,5,0.1,20,0.8,2.03787,0.0278691,0.606949,-0.350857,0.699015,-0.02096,0.0684261,0.505803,-0.0338852,0.02075,2.27602,5,0.1,21,0.8,-2.86631,3.27296,0.545392,0.662887,-0.548071,0.0320077,0.216961,-0.152469,0.0152886,0.0139502,0.884241,5,0.1,22,0.8,1.19431,3.41989,0.576304,-0.86256,0.285923,0.0141293,-0.0692606,0.094533,0.00911951,0.01088,1.6012,5,0.1,23,0.8,3.36709,3.98901,0.632087,-0.313699,-0.60004,-0.0194654,-0.156283,-0.299096,-0.00968575,0.016183,0.617153,5,0.1,24,0.8,1.69618,-2.76157,0.565351,-0.210017,0.583404,0.02103,-0.104785,0.291109,0.0104904,0.0137084,0.486964,5,0.1,25,0.8,3.71611,0.65791,0.512973,-0.177491,0.866026,-0.0266314,-0.112414,0,-0.0153482,0.016103,2.24762,5,0.1,26,0.8,3.92737,-3.13723,0.556915,-0.0869215,0.866026,0.0078544,-0.0550747,0,0.00500679,0.0165253,2.26604,5,0.1,27,0.8,-3.88269,2.76265,0.578755,0.562865,-0.0174582,0.0108257,0.13423,-0.405431,0.0102818,0.0382967,2.75975,5,0.1,28,0.8,-0.449729,-3.88071,0.554416,-0.866026,-0.199175,-0.015159,0,-0.126243,-0.00959635,0.0104716,1.81575,5,0.1,29,0.8,-0.863815,-2.47023,0.700536,-0.180295,0.866026,0.00952631,-0.114262,0,0.00602007,0.0173594,2.24695,5,0.1,30,0.8,0.0804363,2.23233,0.556181,0.406219,0.101751,0.0265822,0.202645,0.0507832,0.0132322,0.0138497,0.222771,5,0.1,31,0.8,3.3481,3.00314,0.584168,-0.553906,-0.187659,0.00437796,0.927091,-0.0731945,0.00277162,0.0135616,3.16759,5,0.1,32,0.8,-0.530363,0.556354,0.707443,0.139762,-0.476979,0.0258222,0.0697374,-0.338495,0.0128448,0.0134973,0.382109,5,0.1,33,0.8,4.00899,3.21034,0.625782,-0.866026,0.198483,-0.00709444,0,-0.246763,0.00154972,0.010253,2.48501,5,0.1,34,0.8,3.70095,3.67831,0.607557,-0.698233,-0.502539,-0.00458956,-0.34833,-0.250578,-0.00226498,0.0135021,0.936486,5,0.1,35,0.8,2.32113,0.979955,0.620092,0.0614047,-0.866026,-0.00545532,-0.0971556,0,0.00804663,0.0124889,2.27515,5,0.1,36,0.8,-1.41158,0.418143,0.575264,-0.235656,-0.435688,0.0150084,-0.11754,-0.217333,0.00748038,0.0102522,0.310728,5,0.1,37,0.8,0.600423,-4.28506,0.66566,0.703022,0.269067,-0.0456616,0.350714,0.13423,-0.0227988,0.00875533,0.719585,5,0.1,38,0.8,3.58441,1.45503,0.600945,-0.263542,0.856736,-0.000567734,-0.131607,-0.108659,-0.000268221,0.0225061,1.53815,5,0.1,39,0.8,1.27265,2.73211,0.601907,0.663078,0.0729859,-0.0133872,0.330806,0.0363588,-0.00667572,0.00895527,0.563303,5,0.1
0,0.9,4.28778,-2.00068,0.618187,-0.158936,0.865919,-0.00282815,-0.148714,0.00427663,-0.00279769,0.0183976,2.25331,5,0.1,1,0.9,0.234202,3.61674,0.650752,-0.462597,0.292941,-0.0343095,-0.158146,0.10021,-0.0117458,0.0099373,0.348595,5,0.1,2,0.9,1.66024,0.257075,0.699585,-0.412597,-0.376644,0.0340834,-0.141054,-0.128768,0.0116378,0.0104401,0.362803,5,0.1,3,0.9,-3.89916,3.99132,0.653597,0.847453,-0.649539,-0.00201538,0.331476,-0.374079,-0.059776,0.0198075,2.04923,5,0.1,4,0.9,-3.15279,3.05247,0.651314,0.594508,0.280857,0.0084538,-0.0141114,0.396922,0.0208393,0.019266,2.59168,5,0.1,5,0.9,-3.98684,-2.42052,0.702247,0.484189,-0.459215,0.0760018,-0.412375,0.0296235,0.186186,0.00958161,1.11315,5,0.1,6,0.9,2.07612,-0.893041,0.705649,-0.541928,0.864528,0.0274392,-0.24575,0.0549592,0.0124499,0.022377,2.11558,5,0.1,7,0.9,-2.36521,-3.46724,0.635598,0.483551,0.214491,-0.0240682,0.165164,0.0733286,-0.00822544,0.00755763,0.324768,5,0.1,8,0.9,3.60018,0.155012,0.708989,-0.122248,0.865988,0.0321109,-0.0881404,0.00147924,0.0350177,0.0132509,2.26088,5,0.1,9,0.9,-0.696884,-1.17203,0.618878,-0.865773,0.395236,-0.00730706,-0.0100881,0.226341,-0.00417605,0.0112478,2.1712,5,0.1,10,0.9,-1.78087,2.41454,0.500345,-0.0224581,-0.151085,-0.00253012,0.00456721,0.201359,0.0123195,0.00896687,0.3018,5,0.1,11,0.9,-1.18832,2.47967,0.61909,0.301078,-0.814585,-0.0368997,0.171989,0.411555,-0.0210926,0.0110983,2.31986,5,0.1,12,0.9,0.804571,-3.83941,0.662064,-0.862548,0.584993,-0.0228416,-0.106536,0.335783,-0.013113,0.0211487,2.08169,5,0.1,13,0.9,-3.75057,-2.80724,0.502946,0.412405,0.776783,-0.0138255,0.152379,0.255361,0.0376254,0.0152104,0.903137,5,0.1,14,0.9,1.11647,3.79002,0.568814,-0.303841,-0.473418,0.0157084,0.700191,0.717044,-0.00557303,0.0174469,2.22439,5,0.1,15,0.9,-2.37859,2.78871,0.614228,0.3912,-0.262786,0.0274987,0.133634,-0.0897646,-0.0830851,0.0123693,0.257731,5,0.1,16,0.9,-2.82915,-3.5772,0.653205,0.655414,0.255175,-0.0346346,-0.0515878,0.0218898,-0.00949204,0.0293621,0.910202,5,0.1,17,0.9,0.509466,2.84468,0.598744,0.866025,0.0600979,0.030263,-1.49012e-07,0.0286996,0.0663064,0.0283493,2.27111,5,0.1,18,0.9,3.92252,-1.78255,0.587557,-0.271649,-0.706415,-0.0418908,-0.0928193,-0.241481,-0.0143088,0.00839263,0.665455,5,0.1,19,0.9,0.575894,-0.996199,0.706622,-0.592206,0.572124,0.0293293,-0.202451,0.195626,0.0100322,0.0201605,0.786281,5,0.1,20,0.9,2.00241,0.100595,0.604732,-0.364181,0.756877,-0.0229293,-0.277482,0.589436,-0.00668317,0.02075,2.27602,5,0.1,21,0.9,-2.79918,3.21762,0.548658,0.676886,-0.556077,0.0331669,0.0451356,0.00429153,0.00687316,0.0139502,0.884241,5,0.1,22,0.9,1.10785,3.44912,0.57776,-0.865622,0.299777,0.0149426,-0.0012368,0.157654,0.00647083,0.01088,1.6012,5,0.1,23,0.9,3.33536,3.928,0.630101,-0.316897,-0.615167,-0.0201461,0.0829697,-0.0013113,-0.00343099,0.016183,0.617153,5,0.1,24,0.9,1.67468,-2.70184,0.567504,-0.219512,0.60978,0.0219801,-0.0750646,0.208482,0.00750273,0.0137084,0.486964,5,0.1,25,0.9,3.69777,0.744512,0.510282,-0.189083,0.866026,-0.0267349,-0.107512,-3.72529e-06,0.0117198,0.016103,2.24762,5,0.1,26,0.9,3.91839,-3.05062,0.557726,-0.0926152,0.866026,0.00837063,-0.0529587,0,0.00479445,0.0165253,2.26604,5,0.1,27,0.9,-3.82474,2.76003,0.57988,0.603721,-0.0250634,0.0115572,0.593826,0.193909,0.00422075,0.0382967,2.75975,5,0.1,28,0.9,-0.536331,-3.90125,0.552853,-0.866026,-0.211244,-0.0160767,3.72529e-06,-0.103891,-0.00789762,0.0104716,1.81575,5,0.1,29,0.9,-0.88244,-2.38363,0.70152,-0.192108,0.866026,0.0101489,-0.109844,0,0.00579283,0.0173594,2.24695,5,0.1,30,0.9,0.122025,2.24275,0.558902,0.424582,0.106351,0.0277816,0.145152,0.036329,0.00948831,0.0138497,0.222771,5,0.1,31,0.9,3.29788,2.9842,0.58462,-0.44755,-0.189113,0.0046635,1.10348,0.0413507,0.00264496,0.0135616,3.16759,5,0.1,32,0.9,-0.516054,0.507019,0.710086,0.146081,-0.508515,0.0269865,0.049945,-0.26633,0.00920519,0.0134973,0.382109,5,0.1,33,0.9,3.92289,3.22849,0.625094,-0.850764,0.160615,-0.00655949,0.307873,-0.481695,0.00855327,0.010253,2.48501,5,0.1,34,0.9,3.62947,3.62686,0.607088,-0.729798,-0.525246,-0.00479473,-0.24955,-0.179499,-0.0016205,0.0135021,0.936486,5,0.1,35,0.9,2.32671,0.893352,0.619593,0.0495456,-0.866026,-0.00447026,-0.134736,3.72529e-06,0.0112243,0.0124889,2.27515,5,0.1,36,0.9,-1.43571,0.373538,0.5768,-0.246307,-0.455382,0.0156862,-0.0841916,-0.15568,0.00536069,0.0102522,0.310728,5,0.1,37,0.9,0.672398,-4.25752,0.660985,0.734802,0.281231,-0.0477272,0.251215,0.0961423,-0.0163279,0.00875533,0.719585,5,0.1,38,0.9,3.55743,1.53881,0.600887,-0.275466,0.806967,-0.000592321,-0.0942498,-0.820197,-0.000201166,0.0225061,1.53815,5,0.1,39,0.9,1.34054,2.73958,0.600536,0.693054,0.0762805,-0.0139922,0.236973,0.0260472,-0.00478327,0.00895527,0.563303,5,0.1
0,1,4.27118,-1.91408,0.617891,-0.172389,0.866026,-0.00308454,-0.108719,-5.96046e-05,-0.00214577,0.0138091,2.24724,5,0.1,1,1,0.187396,3.64638,0.64728,-0.470698,0.298077,-0.0349119,0.0101703,-0.00631809,0.000745058,0.010893,0.237054,5,0.1,2,1,1.61849,0.218967,0.703033,-0.419822,-0.38324,0.0346795,0.00911951,0.00827789,-0.00077486,0.0091221,0.27157,5,0.1,3,1,-3.81325,3.92479,0.653111,0.865388,-0.677222,-0.00751317,0.0127554,-0.1508,-0.048846,0.0166041,1.99152,5,0.1,4,1,-3.09326,3.08264,0.652227,0.596267,0.322461,0.00947118,0.00727177,0.398397,0.000804663,0.0202497,2.46629,5,0.1,5,1,-3.94073,-2.46638,0.710721,0.435883,-0.458044,0.0927404,-0.546694,0.0237226,0.141144,0.00932049,0.875185,5,0.1,6,1,2.021,-0.806471,0.708439,-0.55688,0.866026,0.028196,-0.0359416,0,0.00181794,0.0232982,1.8198,5,0.1,7,1,-2.31628,-3.44554,0.633163,0.492007,0.218248,-0.0244886,-0.0106096,-0.00464916,0.000536442,0.0075464,0.220862,5,0.1,8,1,3.58753,0.241614,0.712319,-0.1302,0.866025,0.0339523,-0.0623465,1.43051e-05,0.00271201,0.0142424,2.25762,5,0.1,9,1,-0.783481,-1.13156,0.61813,-0.866026,0.41194,-0.00761449,0,0.0904202,-0.00169873,0.0126132,2.15906,5,0.1,10,1,-1.78308,2.4,0.500149,-0.0217557,-0.14407,-0.00142902,0.0100732,-0.0575781,0.00953674,0.0107114,0.230094,5,0.1,11,1,-1.15749,2.4,0.615312,0.313756,-0.781995,-0.0384554,0.0683665,0.233293,-0.00834465,0.0109758,2.33686,5,0.1,12,1,0.718054,-3.7795,0.659724,-0.866026,0.609821,-0.0238121,0,0.135064,-0.00527501,0.0200432,2.03748,5,0.1,13,1,-3.70881,-2.72868,0.501752,0.420278,0.789797,-0.0100657,-0.00667572,-0.0190735,0.0367463,0.0142131,0.615975,5,0.1,14,1,1.08991,3.74612,0.570351,-0.225404,-0.406158,0.0149637,0.827134,0.627518,-0.00938773,0.00899651,0.698804,5,0.1,15,1,-2.33901,2.76213,0.616571,0.39804,-0.267386,0.0194728,-0.00858307,0.00584126,-0.0763834,0.0121332,0.175382,5,0.1,16,1,-2.76417,-3.5517,0.649712,0.641012,0.25351,-0.0350267,-0.249267,-0.0613928,0.00265241,0.0275498,0.702082,5,0.1,17,1,0.596069,2.8508,0.602003,0.866026,0.0619411,0.0340149,0,0.00619888,0.0114739,0.0267642,2.27514,5,0.1,18,1,3.89503,-1.85403,0.583319,-0.276399,-0.718784,-0.0426233,0.00596046,0.0155568,0.000923872,0.010857,0.45286,5,0.1,19,1,0.515974,-0.938311,0.70959,-0.602576,0.582144,0.029844,0.0130391,-0.012517,-0.000655651,0.0168219,0.534698,5,0.1,20,1,1.96442,0.178951,0.602442,-0.396284,0.806305,-0.0225231,-0.321329,0.355139,0.0137687,0.0193538,1.72121,5,0.1,21,1,-2.73167,3.16237,0.551988,0.66908,-0.545359,0.0332192,-0.211716,0.216484,-0.00649691,0.0134174,0.634437,5,0.1,22,1,1.02137,3.47983,0.579278,-0.86305,0.313175,0.0153139,0.059545,0.0925064,0.000506639,0.00986997,1.20239,5,0.1,23,1,3.30441,3.86698,0.628083,-0.298941,-0.60026,-0.0200763,0.267267,0.297785,0.0051558,0.00773931,0.807453,5,0.1,24,1,1.65247,-2.64014,0.569728,-0.223356,0.620461,0.0223637,0.00476837,-0.0134706,-0.000476837,0.015245,0.331144,5,0.1,25,1,3.67842,0.831115,0.507701,-0.196987,0.866026,-0.0245795,-0.0423193,0,0.0299811,0.0129831,2.24565,5,0.1,26,1,3.9089,-2.96402,0.558583,-0.0965178,0.866026,0.00872463,-0.0211,0,0.00187755,0.0177217,2.34815,5,0.1,27,1,-3.76125,2.75908,0.581046,0.666076,0.0106752,0.0116542,0.586987,0.473499,-0.00232458,0.0387904,2.47802,5,0.1,28,1,-0.622934,-3.92278,0.551215,-0.866026,-0.21807,-0.0165969,0,-0.0251532,-0.00187755,0.00883078,1.39884,5,0.1,29,1,-0.902111,-2.29702,0.70256,-0.200209,0.866026,0.0105768,-0.0437498,0,0.00229478,0.019876,2.24432,5,0.1,30,1,0.164984,2.25351,0.561713,0.432017,0.108212,0.0282675,-0.00933588,-0.00238419,-0.000625849,0.0106155,0.151491,5,0.1,31,1,3.25834,2.96567,0.585098,-0.347888,-0.17997,0.00485629,0.839591,0.138164,0.00107288,0.0178178,3.25094,5,0.1,32,1,-0.501274,0.455128,0.712817,0.148641,-0.525927,0.0274569,-0.00323355,-0.0646114,-0.000596046,0.00987767,0.262874,5,0.1,33,1,3.83988,3.24196,0.624488,-0.804371,0.107306,-0.00549257,0.618458,-0.561476,0.0123382,0.0112195,2.75075,5,0.1,34,1,3.55563,3.57371,0.606603,-0.742579,-0.534433,-0.00487864,0.0158548,0.0114441,0.000149012,0.0149629,0.698776,5,0.1,35,1,2.33096,0.80675,0.619204,0.0354052,-0.866026,-0.0032872,-0.143886,0,0.0120997,0.00925791,2.27354,5,0.1,36,1,-1.46063,0.327462,0.578387,-0.25062,-0.463356,0.0159606,0.00542402,0.00999868,-0.000357628,0.0131332,0.211308,5,0.1,37,1,0.746745,-4.22906,0.656156,0.747669,0.28615,-0.0485644,-0.0161231,-0.00596046,0.00107288,0.00815369,0.489345,5,0.1,38,1,3.52956,1.61468,0.600827,-0.280297,0.704488,-0.000602007,0.00596046,-1.17791,-2.98023e-05,0.0244156,1.36945,5,0.1,39,1,1.41066,2.7473,0.599121,0.705191,0.0776112,-0.0142381,-0.0151396,-0.00166893,0.000327826,0.00804767,0.38307,5,0.1
0,1.1,4.25332,-1.82747,0.61757,-0.185037,0.866025,-0.00333274,-0.129491,1.49012e-05,-0.00254437,0.0138091,2.24724,5,0.1,1,1.1,0.140398,3.67614,0.643794,-0.468634,0.296779,-0.0347596,0.0483268,-0.0305474,0.00357628,0.010893,0.237054,5,0.1,2,1.1,1.57645,0.181497,0.706691,-0.421524,-0.358946,0.0400508,-0.0196844,0.441165,0.0945553,0.0091221,0.27157,5,0.1,3,1.1,-3.72667,3.85616,0.652118,0.865709,-0.695844,-0.0122735,-0.00946224,-0.180319,-0.0447482,0.0166041,1.99152,5,0.1,4,1.1,-3.03257,3.11695,0.653118,0.625522,0.363853,0.00783801,0.489026,0.399545,-0.0300854,0.0202497,2.46629,5,0.1,5,1.1,-3.89913,-2.51228,0.720503,0.402164,-0.461272,0.101017,-0.174999,-0.0572801,0.0289045,0.00932049,0.875185,5,0.1,6,1.1,1.96518,-0.719873,0.711269,-0.558472,0.865796,0.0283666,0.0243187,-0.00919402,0.000372529,0.0232982,1.8198,5,0.1,7,1.1,-2.26715,-3.42374,0.630718,0.489852,0.217296,-0.0243806,-0.0504702,-0.0223666,0.00251457,0.0075464,0.220862,5,0.1,8,1.1,3.57413,0.328216,0.715703,-0.138338,0.866025,0.0334707,-0.0886768,-1.78814e-06,-0.0121929,0.0142424,2.25762,5,0.1,9,1.1,-0.870084,-1.08983,0.617358,-0.866026,0.422939,-0.00781957,3.72529e-06,0.104919,-0.0019446,0.0126132,2.15906,5,0.1,10,1.1,-1.78521,2.38479,0.500048,-0.020696,-0.164386,-0.000645686,0.0116006,-0.308126,0.006143,0.0107114,0.230094,5,0.1,11,1.1,-1.12616,2.32192,0.611476,0.309274,-0.787713,-0.0377733,-0.148311,-0.257611,0.0205114,0.0109758,2.33686,5,0.1,12,1.1,0.631455,-3.7177,0.657311,-0.86587,0.626466,-0.0244621,0.00623986,0.160769,-0.00627339,0.0200432,2.03748,5,0.1,13,1.1,-3.66684,-2.64981,0.500923,0.418318,0.786448,-0.00661192,-0.047192,-0.0774413,0.0317954,0.0142131,0.615975,5,0.1,14,1.1,1.0715,3.7098,0.57175,-0.143222,-0.310562,0.0125792,0.800423,1.20781,-0.0354052,0.00899651,0.698804,5,0.1,15,1.1,-2.29926,2.73543,0.618146,0.396296,-0.266211,0.0121496,-0.040859,0.0274777,-0.0691451,0.0121332,0.175382,5,0.1,16,1.1,-2.70122,-3.52664,0.646223,0.618298,0.247674,-0.0347263,-0.228986,-0.0647604,0.00466779,0.0275498,0.702082,5,0.1,17,1.1,0.682671,2.85704,0.605293,0.866026,0.062865,0.0303117,-3.72529e-06,0.00879169,-0.0765659,0.0267642,2.27514,5,0.1,18,1.1,3.86742,-1.92575,0.579063,-0.27554,-0.714146,-0.0424343,0.0221133,0.100203,0.00440702,0.010857,0.45286,5,0.1,19,1.1,0.455808,-0.880184,0.71257,-0.599932,0.579596,0.0297122,0.0618806,-0.0597313,-0.00306964,0.0168219,0.534698,5,0.1,20,1.1,1.92289,0.261425,0.600279,-0.436094,0.842624,-0.0205499,-0.430726,0.324115,0.0248738,0.0193538,1.72121,5,0.1,21,1.1,-2.66592,3.10901,0.555273,0.644556,-0.520618,0.0323953,-0.292748,0.287503,-0.0107884,0.0134174,0.634437,5,0.1,22,1.1,0.935107,3.51167,0.58081,-0.863432,0.323927,0.0153121,-0.0214092,0.102997,-0.00108778,0.00986997,1.20239,5,0.1,23,1.1,3.27616,3.81003,0.626186,-0.263502,-0.524956,-0.0171314,0.426307,1.12233,0.0489987,0.00773931,0.807453,5,0.1,24,1.1,1.63017,-2.57819,0.571961,-0.222382,0.617733,0.0222656,0.0228882,-0.0637621,-0.0022985,0.015245,0.331144,5,0.1,25,1.1,3.65847,0.917717,0.505416,-0.202059,0.866026,-0.0209291,-0.0475794,0,0.0416189,0.0129831,2.24565,5,0.1,26,1.1,3.89935,-2.87757,0.559466,-0.0926495,0.860856,0.0089203,0.0899434,-0.128478,0.0015907,0.0177217,2.34815,5,0.1,27,1.1,-3.69121,2.76301,0.582197,0.737676,0.0717759,0.0113305,0.769302,0.702262,-0.00436604,0.0387904,2.47802,5,0.1,28,1.1,-0.709532,-3.94471,0.549546,-0.865798,-0.220144,-0.016752,0.00911206,-0.00730157,-0.000532717,0.00883078,1.39884,5,0.1,29,1.1,-0.922393,-2.21042,0.703631,-0.205554,0.866026,0.0108582,-0.0511259,0,0.00269338,0.019876,2.24432,5,0.1,30,1.1,0.208121,2.26431,0.564536,0.430123,0.107733,0.0281426,-0.0443579,-0.011161,-0.002902,0.0106155,0.151491,5,0.1,31,1.1,3.22729,2.94855,0.58559,-0.280666,-0.160628,0.00498015,0.395417,0.239566,0.00112504,0.0178178,3.25094,5,0.1,32,1.1,-0.486432,0.402245,0.715558,0.147987,-0.53086,0.0273364,-0.0152793,-0.0131558,-0.00282377,0.00987767,0.262874,5,0.1,33,1.1,3.76278,3.25011,0.624005,-0.735199,0.0580974,-0.00413172,0.762701,-0.424564,0.0144318,0.0112195,2.75075,5,0.1,34,1.1,3.48225,3.52035,0.606116,-0.717564,-0.532098,-0.00485377,0.462413,0.0547916,0.000525266,0.0149629,0.698776,5,0.1,35,1.1,2.33377,0.720147,0.618937,0.0208206,-0.866026,-0.00206223,-0.144213,3.72529e-06,0.0121184,0.00925791,2.27354,5,0.1,36,1.1,-1.48565,0.281196,0.579981,-0.24952,-0.461326,0.0158899,0.0257418,0.0475589,-0.00164658,0.0131332,0.211308,5,0.1,37,1.1,0.8214,-4.20049,0.651307,0.744393,0.284913,-0.0483493,-0.0767447,-0.0292659,0.00500306,0.00815369,0.489345,5,0.1,38,1.1,3.50157,1.67873,0.600766,-0.279075,0.573779,-0.000602938,0.0287443,-1.35662,2.98023e-05,0.0244156,1.36945,5,0.1,39,1.1,1.48107,2.75505,0.597699,0.702108,0.0772715,-0.0141742,-0.0723228,-0.00795722,0.00146776,0.00804767,0.38307,5,0.1
0,1.2,4.23423,-1.74087,0.617225,-0.195777,0.866026,-0.00354648,-0.074625,-5.96046e-05,-0.00151992,0.0170277,2.2431,5,0.1,1,1.2,0.0939534,3.70556,0.640349,-0.458178,0.290161,-0.0339851,0.172114,-0.108957,0.0127554,0.00871828,0.264099,5,0.1,2,1.2,1.5343,0.148273,0.711233,-0.419778,-0.301648,0.051181,0.0709295,0.674821,0.1176,0.010747,0.296517,5,0.1,3,1.2,-3.64024,3.78591,0.650685,0.861609,-0.706273,-0.0161901,-0.0884533,0.000596046,-0.0324249,0.0188158,1.98551,5,0.1,4,1.2,-2.96738,3.15514,0.653724,0.678551,0.397283,0.00405908,0.505209,0.248194,-0.0428259,0.0203601,2.2871,5,0.1,5,1.2,-3.8595,-2.55862,0.730595,0.392538,-0.464183,0.0993952,-0.0537634,0.0213385,-0.0570714,0.00847941,0.66277,5,0.1,6,1.2,1.90969,-0.633413,0.714097,-0.548676,0.86235,0.0280648,0.184715,-0.0735223,-0.00721216,0.021603,1.38471,5,0.1,7,1.2,-2.21861,-3.40221,0.628302,0.478923,0.212455,-0.0238359,-0.179768,-0.0798702,0.0089407,0.00762763,0.146862,5,0.1,8,1.2,3.55989,0.414819,0.718965,-0.145924,0.866025,0.0315562,-0.0544786,1.43051e-05,-0.025779,0.0141222,2.25531,5,0.1,9,1.2,-0.956686,-1.04715,0.616569,-0.866026,0.428739,-0.00792742,0,-0.00596046,8.9407e-05,0.0122359,2.15654,5,0.1,10,1.2,-1.78721,2.36667,0.500009,-0.0193596,-0.198567,-0.000189245,0.0155568,-0.344634,0.00303984,0.0078904,0.155811,5,0.1,11,1.2,-1.09627,2.24166,0.607839,0.285974,-0.817806,-0.0346348,-0.308573,-0.277042,0.0409186,0.0103759,2.27647,5,0.1,12,1.2,0.544949,-3.65446,0.654842,-0.863531,0.635684,-0.0248224,0.0499034,-0.00226498,8.9407e-05,0.021586,2.05851,5,0.1,13,1.2,-3.62541,-2.57185,0.500409,0.408423,0.769407,-0.00378788,-0.160217,-0.282764,0.0244081,0.00722,0.577577,5,0.1,14,1.2,1.06102,3.68522,0.572807,-0.0680953,-0.178242,0.00840425,0.69046,1.37889,-0.045836,0.0125823,2.29278,5,0.1,15,1.2,-2.25999,2.70904,0.619034,0.387454,-0.26027,0.00580251,-0.145555,0.0977516,-0.0571311,0.0139527,0.116678,5,0.1,16,1.2,-2.64066,-3.50226,0.642785,0.591189,0.238991,-0.0338733,-0.329494,-0.115275,0.013262,0.0287857,0.543713,5,0.1,17,1.2,0.769274,2.86335,0.607857,0.866026,0.0631094,0.0203148,0,-0.00631809,-0.116229,0.0242456,2.26973,5,0.1,18,1.2,3.84008,-1.99637,0.574858,-0.270158,-0.694972,-0.0414833,0.0926256,0.298142,0.0156164,0.0144318,0.31638,5,0.1,19,1.2,0.396351,-0.822743,0.715514,-0.586546,0.566667,0.0290483,0.220358,-0.212878,-0.0109076,0.0157335,0.355544,5,0.1,20,1.2,1.87725,0.346942,0.598361,-0.474826,0.863225,-0.0176996,-0.31215,0.0560141,0.0314116,0.0195179,1.45983,5,0.1,21,1.2,-2.60315,3.05857,0.558446,0.608289,-0.486422,0.0309318,-0.440717,0.401735,-0.0189841,0.0120199,0.4703,5,0.1,22,1.2,0.848826,3.54447,0.58233,-0.859708,0.33046,0.0150055,0.126362,0.0140667,-0.00539422,0.0115359,0.870258,5,0.1,23,1.2,3.2521,3.76392,0.624758,-0.216454,-0.391263,-0.0111267,0.501871,1.48284,0.0672638,0.01403,0.502159,5,0.1,24,1.2,1.60813,-2.51697,0.574167,-0.217423,0.603944,0.0217691,0.0816584,-0.226974,-0.00819564,0.0159623,0.22019,5,0.1,25,1.2,3.63809,1.00432,0.50354,-0.204545,0.866026,-0.016509,0.00584126,-5.96046e-05,0.045687,0.0107139,2.2538,5,0.1,26,1.2,3.89066,-2.7925,0.560362,-0.0800967,0.836259,0.00896752,0.154138,-0.379205,-0.000953674,0.0198663,2.63008,5,0.1,27,1.2,-3.6138,2.77376,0.583303,0.806904,0.143015,0.0107482,0.56076,0.68748,-0.00742078,0.0413949,2.28507,5,0.1,28,1.2,-0.795993,-3.96667,0.547875,-0.862382,-0.218028,-0.0165895,0.0728965,0.0557899,0.00426173,0.00894819,1.0469,5,0.1,29,1.2,-0.943136,-2.12382,0.704727,-0.208397,0.866026,0.0110075,0.00265241,0,-0.000149012,0.0201869,2.24302,5,0.1,30,1.2,0.250748,2.27499,0.567325,0.420526,0.105327,0.0275135,-0.157982,-0.0396967,-0.0103116,0.00965442,0.171359,5,0.1,31,1.2,3.2,2.93379,0.586091,-0.276721,-0.133735,0.0050351,-0.286102,0.290751,-0.000208616,0.0154749,2.99294,5,0.1,32,1.2,-0.471766,0.349317,0.718267,0.144684,-0.525092,0.0267267,-0.0543594,0.142276,-0.0100434,0.0118624,0.223152,5,0.1,33,1.2,3.69329,3.25401,0.623664,-0.652444,0.0219822,-0.00268668,0.888348,-0.299811,0.0141561,0.0104084,3.06975,5,0.1,34,1.2,3.41339,3.46762,0.605635,-0.654316,-0.520229,-0.00474304,0.782371,0.195265,0.00178814,0.0154023,0.573587,5,0.1,35,1.2,2.33516,0.633545,0.618789,0.0071764,-0.866026,-0.000913441,-0.125885,0,0.0106394,0.00894895,2.27242,5,0.1,36,1.2,-1.51038,0.235476,0.581556,-0.243953,-0.451034,0.0155345,0.0916719,0.169426,-0.00584126,0.0101168,0.140509,5,0.1,37,1.2,0.895173,-4.17225,0.646515,0.727786,0.278568,-0.047268,-0.273377,-0.104666,0.0177324,0.0101829,0.325383,5,0.1,38,1.2,3.47391,1.72954,0.600706,-0.272852,0.445563,-0.000591576,0.102401,-1.1633,0.000178814,0.0202149,1.24445,5,0.1,39,1.2,1.55066,2.76271,0.596294,0.686449,0.0755429,-0.0138566,-0.25785,-0.0282526,0.0051856,0.0101632,0.25472,5,0.1
0,1.3,4.21422,-1.65427,0.616862,-0.204714,0.866025,-0.00372529,-0.0901818,1.49012e-05,-0.00180304,0.0170277,2.2431,5,0.1,1,1.3,0.0488208,3.73404,0.637013,-0.445608,0.279389,-0.032724,0.103387,-0.115514,0.0135265,0.00871828,0.264099,5,0.1,2,1.3,1.49259,0.120967,0.716819,-0.415031,-0.249022,0.0593735,0.0446588,0.401695,0.0482276,0.010747,0.296517,5,0.1,3,1.3,-3.55417,3.71507,0.648905,0.862037,-0.711633,-0.019347,0.0483245,-0.0659376,-0.0291727,0.0188158,1.98551,5,0.1,4,1.3,-2.89645,3.19617,0.653891,0.743548,0.4233,-0.000891089,0.717625,0.244722,-0.0534803,0.0203601,2.2871,5,0.1,5,1.3,-3.82016,-2.60504,0.740165,0.39698,-0.464602,0.0912325,0.105947,-0.0051558,-0.103086,0.00847941,0.66277,5,0.1,6,1.3,1.85598,-0.547457,0.716864,-0.523166,0.856678,0.0272294,0.327043,-0.0776891,-0.0101961,0.021603,1.38471,5,0.1,7,1.3,-2.17159,-3.38135,0.625962,0.46115,0.20456,-0.022952,-0.190571,-0.0846088,0.00947341,0.00762763,0.146862,5,0.1,8,1.3,3.54497,0.501421,0.721988,-0.152737,0.866026,0.0288456,-0.0708401,-1.93715e-06,-0.0286363,0.0141222,2.25531,5,0.1,9,1.3,-1.04329,-1.00418,0.615775,-0.866026,0.431104,-0.00797249,0,0.0287704,-0.000536442,0.0122359,2.15654,5,0.1,10,1.3,-1.78907,2.34496,0.500002,-0.0177924,-0.236184,9.96515e-06,0.0160933,-0.380978,0.00109896,0.0078904,0.155811,5,0.1,11,1.3,-1.06947,2.15842,0.604595,0.247817,-0.846672,-0.0301179,-0.440434,-0.258058,0.0486225,0.0103759,2.27647,5,0.1,12,1.3,0.458637,-3.59119,0.652351,-0.864016,0.626645,-0.025038,-0.0304168,-0.185683,-0.00285357,0.021586,2.05851,5,0.1,13,1.3,-3.58535,-2.49758,0.500138,0.392787,0.705004,-0.00176467,-0.165597,-0.948042,0.0160336,0.00722,0.577577,5,0.1,14,1.3,1.05663,3.67205,0.573468,-0.0290645,-0.104856,0.00525061,0.137486,0.195265,-0.0192896,0.0125823,2.29278,5,0.1,15,1.3,-2.22195,2.6835,0.619342,0.373065,-0.250608,0.000503287,-0.154272,0.103593,-0.0481755,0.0139527,0.116678,5,0.1,16,1.3,-2.58301,-3.47889,0.639462,0.56294,0.228623,-0.032606,-0.260279,-0.10106,0.0132173,0.0287857,0.543713,5,0.1,17,1.3,0.855876,2.86965,0.609356,0.866026,0.0629287,0.010144,-3.72529e-06,-0.000759959,-0.0875294,0.0242456,2.26973,5,0.1,18,1.3,3.8133,-2.06417,0.570783,-0.267098,-0.65889,-0.0400135,-0.00919402,0.429288,0.015229,0.0144318,0.31638,5,0.1,19,1.3,0.338774,-0.767117,0.718366,-0.564763,0.545623,0.0279699,0.233535,-0.225615,-0.0115596,0.0157335,0.355544,5,0.1,20,1.3,1.82795,0.433422,0.596753,-0.512413,0.865166,-0.0144264,-0.395343,-0.0203845,0.0334978,0.0195179,1.45983,5,0.1,21,1.3,-2.54446,3.01187,0.561447,0.565708,-0.447736,0.0290986,-0.425696,0.3829,-0.0185221,0.0120199,0.4703,5,0.1,22,1.3,0.763304,3.57761,0.583804,-0.851464,0.332397,0.014463,0.0805072,0.00910461,-0.00591204,0.0115359,0.870258,5,0.1,23,1.3,3.233,3.73091,0.623923,-0.165242,-0.2807,-0.00610165,0.51178,0.78097,0.0353158,0.01403,0.502159,5,0.1,24,1.3,1.58679,-2.45768,0.576304,-0.20935,0.581507,0.0209589,0.0865534,-0.240535,-0.00868365,0.0159623,0.22019,5,0.1,25,1.3,3.61774,1.09092,0.502117,-0.201603,0.865847,-0.0120045,0.056237,-0.00710785,0.0436045,0.0107139,2.2538,5,0.1,26,1.3,3.8843,-2.71089,0.56127,-0.0399686,0.794403,0.00930177,0.591934,-0.472263,0.00633672,0.0198663,2.63008,5,0.1,27,1.3,-3.53069,2.79168,0.584342,0.850999,0.216102,0.0100352,0.303224,0.736415,-0.00712276,0.0413949,2.28507,5,0.1,28,1.3,-0.882166,-3.9882,0.546237,-0.862759,-0.212447,-0.0161638,-0.0296012,0.0632554,0.00482053,0.00894819,1.0469,5,0.1,29,1.3,-0.964034,-2.03722,0.705831,-0.209953,0.866026,0.0110894,-0.0210069,0,0.00110641,0.0201869,2.24302,5,0.1,30,1.3,0.292216,2.28539,0.570042,0.410245,0.103166,0.0269542,-0.0727568,-0.0107884,-0.00277162,0.00965442,0.171359,5,0.1,31,1.3,3.16943,2.9219,0.586595,-0.346597,-0.104054,0.00503836,-0.998825,0.29777,1.86265e-05,0.0154749,2.99294,5,0.1,32,1.3,-0.457407,0.297511,0.720891,0.143755,-0.510678,0.0257342,0.0214148,0.163173,-0.0106432,0.0118624,0.223152,5,0.1,33,1.3,3.63249,3.25543,0.623474,-0.563465,0.0127338,-0.00108322,0.889853,0.0775158,0.017155,0.0104084,3.06975,5,0.1,34,1.3,3.35245,3.41655,0.605169,-0.559707,-0.500923,-0.00456655,1.06807,0.207037,0.00188872,0.0154023,0.573587,5,0.1,35,1.3,2.33526,0.546942,0.618749,-0.00489876,-0.866026,0.000104867,-0.11301,3.57628e-06,0.00952929,0.00894895,2.27242,5,0.1,36,1.3,-1.53433,0.191202,0.583081,-0.234891,-0.434285,0.014957,0.0971556,0.179562,-0.00618398,0.0101168,0.140509,5,0.1,37,1.3,0.966615,-4.14491,0.641875,0.700761,0.268221,-0.0455145,-0.289742,-0.110924,0.0188053,0.0101829,0.325383,5,0.1,38,1.3,3.44713,1.7687,0.600648,-0.262727,0.343864,-0.000573322,0.1086,-0.799179,0.000208616,0.0202149,1.24445,5,0.1,39,1.3,1.61804,2.77012,0.594934,0.660959,0.0727475,-0.0133436,-0.273287,-0.0300109,0.00549853,0.0101632,0.25472,5,0.1
0,1.4,4.19337,-1.56767,0.616482,-0.21143,0.866026,-0.00386089,-0.0345707,-5.96046e-05,-0.00077486,0.0177289,2.24075,5,0.1,1,1.4,0.0048251,3.76133,0.633817,-0.433379,0.265563,-0.0311062,0.158314,-0.167012,0.0195801,0.00699011,0.18671,5,0.1,2,1.4,1.4514,0.0977847,0.722897,-0.407347,-0.217025,0.0612274,0.123441,0.257086,-0.00911951,0.00870387,0.213783,5,0.1,3,1.4,-3.46782,3.64374,0.64684,0.863254,-0.712335,-0.0217661,-0.0553131,0.0813007,-0.0181496,0.0152778,2.0426,5,0.1,4,1.4,-2.81868,3.23953,0.653535,0.808787,0.441581,-0.0061661,0.531197,0.101924,-0.0500381,0.0219467,2.1675,5,0.1,5,1.4,-3.77991,-2.6514,0.748718,0.407368,-0.461042,0.0793606,0.0749826,0.0934601,-0.131607,0.00844344,0.489846,5,0.1,6,1.4,1.80554,-0.462436,0.719526,-0.483188,0.840464,0.0259116,0.471652,-0.272334,-0.0165701,0.0222288,1.04211,5,0.1,7,1.4,-2.12655,-3.36137,0.62372,0.438333,0.19443,-0.0218168,-0.275493,-0.122309,0.0137389,0.0076505,0.0966652,5,0.1,8,1.4,3.52938,0.588024,0.724723,-0.158221,0.866026,0.0257999,-0.0311136,0,-0.0323653,0.0137076,2.26018,5,0.1,9,1.4,-1.12989,-0.961038,0.614977,-0.866026,0.430329,-0.00795722,0,-0.0614226,0.00110269,0.0102983,2.15892,5,0.1,10,1.4,-1.79077,2.31956,0.500006,-0.0160962,-0.270176,5.96046e-05,0.0180602,-0.279903,2.98023e-05,0.00760344,0.0975097,5,0.1,11,1.4,-1.04701,2.07275,0.601833,0.200459,-0.863278,-0.0250608,-0.495195,-0.0549555,0.0518858,0.00902973,2.06584,5,0.1,12,1.4,0.372118,-3.5298,0.649839,-0.865719,0.597548,-0.0251308,0.00613928,-0.398993,0.00211596,0.0203508,2.19978,5,0.1,13,1.4,-3.54699,-2.43252,0.500028,0.373131,0.590241,-0.000561774,-0.236273,-1.3001,0.00828505,0.01109,0.386318,5,0.1,14,1.4,1.05382,3.66131,0.573927,-0.0320643,-0.120044,0.00417382,-0.159323,-0.413895,-0.0039041,0.0138159,3.19658,5,0.1,15,1.4,-2.18551,2.65902,0.619171,0.3546,-0.23821,-0.00372231,-0.222921,0.149727,-0.0359118,0.0120443,0.136714,5,0.1,16,1.4,-2.52807,-3.45657,0.636275,0.534916,0.217271,-0.0310406,-0.317574,-0.132084,0.0188649,0.0262124,0.420299,5,0.1,17,1.4,0.942479,2.87593,0.609978,0.866026,0.0623643,0.00273287,2.98023e-05,-0.0127554,-0.0611544,0.0252864,2.27161,5,0.1,18,1.4,3.78653,-2.12766,0.566867,-0.268149,-0.608325,-0.0381947,0.00441074,0.584245,0.0221729,0.00982429,0.213097,5,0.1,19,1.4,0.283608,-0.713821,0.721098,-0.536811,0.518619,0.0265867,0.337571,-0.326127,-0.0167489,0.0164303,0.234026,5,0.1,20,1.4,1.7749,0.519597,0.595478,-0.546303,0.855072,-0.0111014,-0.250816,-0.219047,0.0325739,0.0181824,1.04761,5,0.1,21,1.4,-2.49009,2.96906,0.564259,0.520688,-0.408036,0.0270888,-0.484347,0.418425,-0.0222623,0.0125599,0.358871,5,0.1,22,1.4,0.678766,3.61079,0.585217,-0.836498,0.329655,0.0137493,0.247985,-0.074625,-0.00870228,0.009537,0.822849,5,0.1,23,1.4,3.21898,3.70594,0.623451,-0.115937,-0.225568,-0.00368208,0.466585,0.364184,0.014782,0.0156674,0.470079,5,0.1,24,1.4,1.56634,-2.40088,0.578351,-0.19899,0.55272,0.0199199,0.12511,-0.347614,-0.012517,0.0127045,0.144933,5,0.1,25,1.4,3.59797,1.17741,0.501125,-0.192821,0.863177,-0.00792295,0.120997,-0.0569224,0.0374913,0.0122061,1.89247,5,0.1,26,1.4,3.8836,-2.63406,0.562235,0.0282407,0.739545,0.0100076,0.728369,-0.63324,0.00676513,0.0193093,2.61425,5,0.1,27,1.4,-3.44459,2.81679,0.585309,0.866026,0.283796,0.00927746,0,0.589967,-0.00819564,0.0456007,2.19522,5,0.1,28,1.4,-0.968419,-4.00907,0.544649,-0.859646,-0.204158,-0.015533,0.127524,0.107765,0.00819564,0.0129238,0.753713,5,0.1,29,1.4,-0.985088,-1.95061,0.706943,-0.210424,0.866026,0.0111133,0.0206232,-5.96046e-05,-0.00107288,0.0196346,2.24315,5,0.1,30,1.4,0.332849,2.29565,0.572723,0.401665,0.101918,0.0266328,-0.116795,-0.0193119,-0.00503659,0.0139623,0.164207,5,0.1,31,1.4,3.12936,2.91296,0.587097,-0.456655,-0.0750721,0.00499487,-1.11651,0.277877,-0.00107288,0.0128468,0.204906,5,0.1,32,1.4,-0.442896,0.247407,0.723405,0.146464,-0.489606,0.0244603,0.0220984,0.269607,-0.015378,0.0098757,0.153512,5,0.1,33,1.4,3.58059,3.25746,0.623451,-0.474817,0.0307918,0.000610948,0.881195,0.253916,0.0161529,0.0121184,3.16502,5,0.1,34,1.4,3.30201,3.36762,0.604723,-0.448006,-0.47614,-0.00434071,1.13475,0.299335,0.00271201,0.0136731,0.500749,5,0.1,35,1.4,2.33424,0.460339,0.618804,-0.0149846,-0.866025,0.000956655,-0.0870228,-1.43051e-05,0.00739098,0.0118343,2.27163,5,0.1,36,1.4,-1.55727,0.148781,0.584542,-0.223264,-0.412792,0.0142172,0.140369,0.259556,-0.0089705,0.00817768,0.149856,5,0.1,37,1.4,1.03507,-4.11871,0.637429,0.666082,0.254941,-0.0432625,-0.418901,-0.160217,0.0271797,0.010123,0.214172,5,0.1,38,1.4,3.42147,1.8,0.600592,-0.249732,0.291061,-0.000546873,0.157118,-0.275075,0.000327826,0.0231812,1.04974,5,0.1,39,1.4,1.6826,2.77723,0.59363,0.628248,0.0691533,-0.0126839,-0.39506,-0.0435114,0.00795722,0.00884837,0.167662,5,0.1
0,1.5,4.17199,-1.48106,0.61609,-0.216468,0.866025,-0.0039665,-0.0526309,1.49012e-05,-0.00108033,0.0177289,2.24075,5,0.1,1,1.5,-0.03783,3.78708,0.6308,-0.420314,0.249631,-0.0292387,0.122331,-0.159144,0.0186488,0.00699011,0.18671,5,0.1,2,1.5,1.41122,0.0770845,0.728919,-0.396552,-0.199331,0.0586928,0.109129,0.115474,-0.0402592,0.00870387,0.213783,5,0.1,3,1.5,-3.38154,3.57338,0.644597,0.863661,-0.690269,-0.0228782,0.0219196,0.356495,-0.0041537,0.0152778,2.0426,5,0.1,4,1.5,-2.73548,3.28429,0.65266,0.851215,0.453733,-0.0113545,0.296474,0.114813,-0.0514463,0.0219467,2.1675,5,0.1,5,1.5,-3.73864,-2.69711,0.755977,0.418926,-0.453183,0.0656655,0.127539,0.0834912,-0.140212,0.00844344,0.489846,5,0.1,6,1.5,1.75962,-0.379471,0.722037,-0.434722,0.820554,0.0242975,0.499986,-0.168841,-0.0163689,0.0222288,1.04211,5,0.1,7,1.5,-2.08404,-3.34252,0.621604,0.412053,0.182764,-0.0205067,-0.262573,-0.116542,0.0130869,0.0076505,0.0966652,5,0.1,8,1.5,3.51346,0.674626,0.727149,-0.1595,0.866026,0.0227718,0.00913441,-3.72529e-06,-0.0287071,0.0137076,2.26018,5,0.1,9,1.5,-1.21649,-0.918169,0.614184,-0.866026,0.427829,-0.00791298,0,-0.0128746,0.000227243,0.0102983,2.15892,5,0.1,10,1.5,-1.79229,2.29118,0.500012,-0.0143258,-0.296472,4.61005e-05,0.0175163,-0.229165,-0.000264496,0.00760344,0.0975097,5,0.1,11,1.5,-1.02943,1.98625,0.599584,0.15136,-0.865854,-0.0199676,-0.479966,-0.00686944,0.0495799,0.00902973,2.06584,5,0.1,12,1.5,0.285548,-3.47266,0.647327,-0.865798,0.539818,-0.0251636,-0.00163481,-0.728369,-0.0012368,0.0203508,2.19978,5,0.1,13,1.5,-3.51082,-2.3791,0.500005,0.350365,0.486061,1.86265e-05,-0.229105,-0.82396,0.00362843,0.01109,0.386318,5,0.1,14,1.5,1.04897,3.64589,0.574341,-0.0717657,-0.199336,0.00423873,-0.575401,-1.06932,0.0041388,0.0138159,3.19658,5,0.1,15,1.5,-2.15112,2.63576,0.61863,0.333336,-0.228373,-0.0069513,-0.212446,0.0636578,-0.0281595,0.0120443,0.136714,5,0.1,16,1.5,-2.47599,-3.43545,0.63326,0.507746,0.205412,-0.0292722,-0.248387,-0.112996,0.0174642,0.0262124,0.420299,5,0.1,17,1.5,1.02908,2.88212,0.609853,0.866026,0.0616159,-0.00595553,-7.45058e-06,-0.00561774,-0.105042,0.0252864,2.27161,5,0.1,18,1.5,3.75985,-2.18583,0.563155,-0.264197,-0.557134,-0.0360412,0.0779927,0.462532,0.0219382,0.00982429,0.213097,5,0.1,19,1.5,0.23155,-0.663527,0.723676,-0.504612,0.48751,0.0249893,0.32167,-0.310767,-0.015948,0.0164303,0.234026,5,0.1,20,1.5,1.71893,0.60409,0.594528,-0.572981,0.834757,-0.00793384,-0.248037,-0.219833,0.0303946,0.0181824,1.04761,5,0.1,21,1.5,-2.4403,2.93021,0.566864,0.476317,-0.37,0.025058,-0.418499,0.354469,-0.019215,0.0125599,0.358871,5,0.1,22,1.5,0.596072,3.64341,0.58655,-0.819102,0.322695,0.0129154,0.143707,-0.0772029,-0.00835955,0.009537,0.822849,5,0.1,23,1.5,3.20959,3.68453,0.623127,-0.07331,-0.20823,-0.00305865,0.381857,0.0227541,-0.000730157,0.0156674,0.470079,5,0.1,24,1.5,1.54704,-2.34728,0.580283,-0.187056,0.519562,0.0187256,0.119224,-0.331223,-0.0119321,0.0127045,0.144933,5,0.1,25,1.5,3.5795,1.2635,0.500506,-0.174662,0.858293,-0.0046107,0.232965,-0.0771433,0.0285916,0.0122061,1.89247,5,0.1,26,1.5,3.89001,-2.5621,0.563274,0.0988383,0.709196,0.0107857,0.658914,-0.0558197,0.00787154,0.0193093,2.61425,5,0.1,27,1.5,-3.35798,2.8481,0.586195,0.866026,0.341291,0.00845669,0,0.532284,-0.00834838,0.0456007,2.19522,5,0.1,28,1.5,-1.05391,-4.02896,0.543135,-0.850893,-0.193833,-0.0147479,0.0886209,0.104845,0.00797212,0.0129238,0.753713,5,0.1,29,1.5,-1.0061,-1.86401,0.708053,-0.210354,0.866025,0.0111112,-0.00657514,1.49012e-05,0.000365078,0.0196346,2.24315,5,0.1,30,1.5,0.372001,2.30572,0.575354,0.377525,0.0991296,0.0259052,-0.347819,-0.0382215,-0.00998005,0.0139623,0.164207,5,0.1,31,1.5,3.07899,2.90684,0.587599,-0.541952,-0.0474568,0.00507897,-0.592723,0.26904,0.00215694,0.0128468,0.204906,5,0.1,32,1.5,-0.428065,0.199748,0.725777,0.150608,-0.463692,0.0229933,0.0495855,0.262982,-0.0146516,0.0098757,0.153512,5,0.1,33,1.5,3.53694,3.26222,0.623586,-0.403117,0.0674151,0.00202358,0.580281,0.443786,0.011988,0.0121184,3.16502,5,0.1,34,1.5,3.26289,3.32144,0.604302,-0.335219,-0.447585,-0.0040818,1.08156,0.285283,0.00258535,0.0136731,0.500749,5,0.1,35,1.5,2.33233,0.373737,0.618936,-0.0231169,-0.866025,0.00164481,-0.0734329,1.78814e-06,0.00621006,0.0118343,2.27163,5,0.1,36,1.5,-1.57908,0.108749,0.58592,-0.214319,-0.388034,0.013362,0.0547469,0.247338,-0.00853464,0.00817768,0.149856,5,0.1,37,1.5,1.09966,-4.09398,0.633233,0.626125,0.239657,-0.0406693,-0.399165,-0.152707,0.0259094,0.010123,0.214172,5,0.1,38,1.5,3.39733,1.82876,0.600539,-0.232368,0.292558,-0.000515301,0.191972,0.23713,0.00031665,0.0231812,1.04974,5,0.1,39,1.5,1.74353,2.78393,0.5924,0.590564,0.0650026,-0.0119247,-0.376455,-0.041455,0.00758842,0.00884837,0.167662,5,0.1
0,1.6,4.15014,-1.39446,0.61569,-0.219643,0.866026,-0.00403523,-0.00166893,-5.96046e-05,-0.000119209,0.0138355,2.23988,5,0.1,1,1.6,-0.0791798,3.81121,0.627974,-0.405631,0.23247,-0.0272274,0.184793,-0.189066,0.0221133,0.00944994,0.617149,5,0.1,2,1.6,1.3722,0.0576212,0.734545,-0.382712,-0.190646,0.0534341,0.179052,0.0723639,-0.0635982,0.0112716,0.167028,5,0.1,3,1.6,-3.2952,3.50657,0.642311,0.860953,-0.64196,-0.0226215,-0.101686,0.604153,0.00914931,0.0179527,1.97209,5,0.1,4,1.6,-2.64937,3.33008,0.651281,0.866026,0.460094,-0.0160635,0,-0.00584126,-0.0410974,0.0169047,1.85998,5,0.1,5,1.6,-3.69622,-2.74189,0.761842,0.427979,-0.441015,0.0516921,0.0333786,0.17333,-0.137568,0.00876416,0.350591,5,0.1,6,1.6,1.71871,-0.298377,0.724381,-0.382891,0.799366,0.0225306,0.537395,-0.285208,-0.0194609,0.0213712,0.772762,5,0.1,7,1.6,-2.04421,-3.32485,0.619622,0.383735,0.170201,-0.0190958,-0.311852,-0.138402,0.015527,0.00916141,0.10861,5,0.1,8,1.6,3.49765,0.761229,0.729285,-0.15583,0.866026,0.019972,0.0663996,0,-0.0276268,0.0136052,2.26116,5,0.1,9,1.6,-1.3031,-0.875534,0.613395,-0.866026,0.423615,-0.00783503,0,-0.0884831,0.00163913,0.00983314,2.16367,5,0.1,10,1.6,-1.79363,2.26058,0.500015,-0.0125647,-0.313199,1.3411e-05,0.0178814,-0.0944138,-0.000327826,0.00809108,0.160807,5,0.1,11,1.6,-1.01662,1.89965,0.597829,0.105655,-0.866026,-0.0152156,-0.429034,5.96046e-05,0.0451207,0.0119878,2.32469,5,0.1,12,1.6,0.198985,-3.42268,0.644809,-0.865148,0.456899,-0.0251144,0.0175393,-0.907063,0.00324845,0.0189465,1.88263,5,0.1,13,1.6,-3.47698,-2.3341,0.50002,0.325638,0.41824,0.000220537,-0.272274,-0.564098,0.000655651,0.0101653,0.282862,5,0.1,14,1.6,1.03863,3.62022,0.574791,-0.136653,-0.315809,0.00481308,-0.676572,-1.1816,0.00655651,0.0156728,2.72784,5,0.1,15,1.6,-2.1189,2.61321,0.617811,0.310427,-0.222594,-0.0092715,-0.252366,0.0642538,-0.0180006,0.00720495,0.187308,5,0.1,16,1.6,-2.4265,-3.4155,0.630424,0.481403,0.193328,-0.0273854,-0.294447,-0.13411,0.020951,0.0267158,0.324725,5,0.1,17,1.6,1.11568,2.88824,0.608711,0.866026,0.0606596,-0.0169426,0,-0.0157356,-0.108898,0.024283,2.31545,5,0.1,18,1.6,3.73396,-2.23928,0.559667,-0.252062,-0.511879,-0.0336334,0.165939,0.458717,0.0268817,0.01202,0.145191,5,0.1,19,1.6,0.182772,-0.616402,0.726092,-0.46993,0.454004,0.0232697,0.382193,-0.369251,-0.0189245,0.015389,1.40305,5,0.1,20,1.6,1.66063,0.686248,0.59388,-0.590041,0.805645,-0.00508875,-0.069201,-0.38439,0.0262856,0.019087,0.909229,5,0.1,21,1.6,-2.39475,2.89496,0.569273,0.434375,-0.335056,0.0230998,-0.431061,0.352979,-0.0205338,0.0104243,0.276139,5,0.1,22,1.6,0.515001,3.6752,0.587797,-0.800289,0.312102,0.0120133,0.263393,-0.14329,-0.00989437,0.010281,0.587318,5,0.1,23,1.6,3.20401,3.66353,0.622802,-0.0401378,-0.213885,-0.00354648,0.280142,-0.105023,-0.00777841,0.0148491,0.408384,5,0.1,24,1.6,1.52896,-2.29706,0.582093,-0.174201,0.483847,0.0174373,0.14168,-0.393391,-0.0141561,0.0114093,0.0952577,5,0.1,25,1.6,3.56332,1.34867,0.500172,-0.147933,0.841644,-0.0022158,0.294089,-0.28044,0.0192821,0.0140634,1.61815,5,0.1,26,1.6,3.90291,-2.49106,0.564387,0.155962,0.713921,0.0114247,0.467777,0.0876188,0.00426173,0.0100963,1.08737,5,0.1,27,1.6,-3.27138,2.88461,0.586998,0.866026,0.3856,0.00758916,0,0.33462,-0.00911951,0.0469896,2.18915,5,0.1,28,1.6,-1.13835,-4.04779,0.541703,-0.834975,-0.182152,-0.0138596,0.258148,0.132799,0.0100732,0.00862153,0.527172,5,0.1,29,1.6,-1.02713,-1.77741,0.709163,-0.209579,0.866026,0.0110701,0.0309944,-5.96046e-05,-0.00157952,0.0181837,2.24438,5,0.1,30,1.6,0.407756,2.3154,0.577884,0.335373,0.0939965,0.0245646,-0.480667,-0.0653267,-0.0170469,0.0133662,0.273607,5,0.1,31,1.6,3.02267,2.90339,0.588118,-0.57624,-0.0221968,0.0053212,-0.100136,0.23222,0.00223517,0.0132863,0.111777,5,0.1,32,1.6,-0.412786,0.154777,0.727999,0.154461,-0.434623,0.0214145,0.0194758,0.327952,-0.0174344,0.0130407,0.104541,5,0.1,33,1.6,3.49922,3.27125,0.623841,-0.353879,0.113451,0.00299215,0.425816,0.450611,0.00739098,0.00902833,3.25025,5,0.1,34,1.6,3.23444,3.27818,0.603907,-0.237662,-0.416821,-0.00380278,0.849247,0.338912,0.00309944,0.0129759,0.439653,5,0.1,35,1.6,2.32969,0.287134,0.619128,-0.0293136,-0.866025,0.0021711,-0.048995,-1.43051e-05,0.00420213,0.0119601,2.27117,5,0.1,36,1.6,-1.60027,0.0712401,0.587212,-0.209501,-0.361366,0.0124425,0.0536442,0.293884,-0.0101328,0.0103216,0.210108,5,0.1,37,1.6,1.16018,-4.07082,0.629302,0.583088,0.223184,-0.0378743,-0.474215,-0.181198,0.0307858,0.00888718,0.140765,5,0.1,38,1.6,3.37512,1.85958,0.600489,-0.211096,0.326487,-0.000479817,0.234246,0.389397,0.000357628,0.0228354,0.842739,5,0.1,39,1.6,1.80061,2.79022,0.591248,0.549975,0.0605285,-0.0111058,-0.447273,-0.0491142,0.0090003,0.00928069,0.110198,5,0.1
0,1.7,4.12809,-1.30786,0.615284,-0.221626,0.866025,-0.00407938,-0.0246167,1.49012e-05,-0.000521541,0.0138355,2.23988,5,0.1,1,1.7,-0.119382,3.83365,0.625433,-0.402862,0.217327,-0.0229825,-0.0833404,-0.125855,0.0586994,0.00944994,0.617149,5,0.1,2,1.7,1.3351,0.0387729,0.739554,-0.356463,-0.187399,0.0466098,0.33778,0.00717517,-0.0720583,0.0112716,0.167028,5,0.1,3,1.7,-3.20957,3.4462,0.640158,0.851281,-0.558456,-0.0198752,-0.12593,1.02225,0.0423715,0.0179527,1.97209,5,0.1,4,1.7,-2.56277,3.37614,0.649469,0.865971,0.46127,-0.0201227,-0.00220537,0.00619888,-0.0381917,0.0169047,1.85998,5,0.1,5,1.7,-3.65318,-2.78519,0.766336,0.432907,-0.425059,0.0383246,0.042513,0.161901,-0.1284,0.00876416,0.350591,5,0.1,6,1.7,1.68274,-0.219584,0.726544,-0.339667,0.778255,0.0207966,0.34932,-0.178042,-0.0160113,0.0213712,0.772762,5,0.1,7,1.7,-2.00713,-3.30841,0.617777,0.35981,0.159584,-0.017905,-0.189118,-0.0839382,0.00940636,0.00916141,0.10861,5,0.1,8,1.7,3.4824,0.847831,0.731154,-0.149156,0.866026,0.0174935,0.0714511,-3.72529e-06,-0.0225268,0.0136052,2.26116,5,0.1,9,1.7,-1.3897,-0.833461,0.612617,-0.866026,0.418767,-0.00774441,0,-0.0323988,0.000614673,0.00983314,2.16367,5,0.1,10,1.7,-1.7948,2.2286,0.500015,-0.0108488,-0.327738,-1.32248e-05,0.0165552,-0.168517,-0.000208616,0.00809108,0.160807,5,0.1,11,1.7,-1.00811,1.81305,0.596524,0.0657052,-0.866025,-0.0109674,-0.363216,-1.49012e-05,0.0396147,0.0119878,2.32469,5,0.1,12,1.7,0.112475,-3.38166,0.642302,-0.86542,0.362384,-0.0251118,-0.0064899,-0.963822,-0.00152737,0.0189465,1.88263,5,0.1,13,1.7,-3.44572,-2.29459,0.500043,0.300003,0.376306,0.000222586,-0.248939,-0.306219,-0.000499189,0.0101653,0.282862,5,0.1,14,1.7,1.02127,3.58223,0.575312,-0.212618,-0.44694,0.00566216,-0.796705,-1.36079,0.00957772,0.0156728,2.72784,5,0.1,15,1.7,-2.08886,2.59098,0.616939,0.292555,-0.224292,-0.00693202,-0.126585,-0.0726283,0.0565127,0.00720495,0.187308,5,0.1,16,1.7,-2.37969,-3.39679,0.627785,0.455527,0.181165,-0.0254402,-0.241831,-0.115752,0.0187606,0.0267158,0.324725,5,0.1,17,1.7,1.20228,2.89432,0.606991,0.865863,0.0615332,-0.013029,-0.00651181,0.0257045,0.158504,0.024283,2.31545,5,0.1,18,1.7,3.70961,-2.28837,0.556433,-0.234556,-0.471366,-0.031092,0.187457,0.370264,0.0248253,0.01202,0.145191,5,0.1,19,1.7,0.137178,-0.572038,0.728328,-0.446042,0.439878,0.0214946,0.13494,0.0287928,-0.0172108,0.015389,1.40305,5,0.1,20,1.7,1.60109,0.764991,0.593497,-0.601642,0.769523,-0.0026254,-0.125282,-0.364825,0.0227168,0.019087,0.909229,5,0.1,21,1.7,-2.35326,2.86303,0.57149,0.397034,-0.3049,0.0213153,-0.332996,0.264332,-0.0160672,0.0104243,0.276139,5,0.1,22,1.7,0.436254,3.7057,0.588949,-0.774345,0.297661,0.0110235,0.281679,-0.153854,-0.0100881,0.010281,0.587318,5,0.1,23,1.7,3.20121,3.64163,0.622393,-0.0175156,-0.223751,-0.00474714,0.175029,-0.0812858,-0.0148937,0.0148491,0.408384,5,0.1,24,1.7,1.51221,-2.25055,0.583769,-0.160919,0.446966,0.0161096,0.128709,-0.357449,-0.0128709,0.0114093,0.0952577,5,0.1,25,1.7,3.54996,1.43151,0.500032,-0.119753,0.81525,-0.000738539,0.269026,-0.277616,0.0106692,0.0140634,1.61815,5,0.1,26,1.7,3.9207,-2.42141,0.565541,0.198053,0.660114,0.0115429,0.362679,-1.05704,-0.00183657,0.0100963,1.08737,5,0.1,27,1.7,-3.18478,2.92439,0.587686,0.866026,0.405626,0.00595162,0,0.0686795,-0.02205,0.0469896,2.18915,5,0.1,28,1.7,-1.22068,-4.06537,0.540365,-0.811984,-0.169654,-0.0129115,0.234872,0.122309,0.00927597,0.00862153,0.527172,5,0.1,29,1.7,-1.048,-1.69081,0.710266,-0.208252,0.866025,0.0110045,0.00733137,1.49012e-05,-0.000350177,0.0181837,2.24438,5,0.1,30,1.7,0.438578,2.3245,0.580264,0.279107,0.0883538,0.0230925,-0.6002,-0.0513941,-0.013411,0.0133662,0.273607,5,0.1,31,1.7,2.96483,2.90236,0.588672,-0.577611,0.00189804,0.00583027,0.0812262,0.241116,0.007011,0.0132863,0.111777,5,0.1,32,1.7,-0.39721,0.112881,0.730058,0.157164,-0.403736,0.0197805,0.0257622,0.301804,-0.0158288,0.0130407,0.104541,5,0.1,33,1.7,3.46552,3.28423,0.624167,-0.323742,0.140274,0.00345502,0.205815,0.10705,0.00211596,0.00902833,3.25025,5,0.1,34,1.7,3.2145,3.23811,0.603542,-0.166246,-0.385048,-0.00351248,0.548005,0.307918,0.00281259,0.0129759,0.439653,5,0.1,35,1.7,2.32652,0.200532,0.619365,-0.0338599,-0.866025,0.00255844,-0.0399053,2.98023e-07,0.00338629,0.0119601,2.27117,5,0.1,36,1.7,-1.62079,0.0363267,0.588414,-0.199393,-0.338821,0.0116655,0.145361,0.178202,-0.006143,0.0103216,0.210108,5,0.1,37,1.7,1.21623,-4.04936,0.625661,0.538633,0.206192,-0.0349879,-0.430807,-0.164747,0.0279769,0.00888718,0.140765,5,0.1,38,1.7,3.35533,1.8946,0.600443,-0.183562,0.376883,-0.000445545,0.308678,0.566728,0.000335276,0.0228354,0.842739,5,0.1,39,1.7,1.85348,2.79604,0.59018,0.508046,0.0559222,-0.0102616,-0.406347,-0.0446588,0.00819191,0.00928069,0.110198,5,0.1
0,1.8,4.10586,-1.22126,0.614875,-0.222301,0.866026,-0.00409782,0.0209808,-5.96046e-05,0.000327826,0.0148541,2.23999,5,0.1,1,1.8,-0.160216,3.85478,0.623461,-0.414245,0.205207,-0.0162199,-0.109866,-0.125289,0.0733137,0.00876887,0.504969,5,0.1,2,1.8,1.30135,0.0200595,0.743846,-0.316733,-0.186688,0.0391781,0.449061,0.0176927,-0.0758469,0.00898913,0.401747,5,0.1,3,1.8,-3.12534,3.39585,0.638414,0.830048,-0.445426,-0.0147611,-0.321627,1.20294,0.0571311,0.0161054,1.80801,5,0.1,4,1.8,-2.4762,3.42216,0.647283,0.865149,0.457424,-0.0233844,-0.017643,-0.0991821,-0.0256598,0.017732,1.40952,5,0.1,5,1.8,-3.60981,-2.82679,0.769551,0.432646,-0.405937,0.0262514,-0.0634193,0.231624,-0.112057,0.00944323,0.243914,5,0.1,6,1.8,1.65036,-0.142747,0.728544,-0.309131,0.756756,0.0191927,0.278234,-0.280931,-0.0166297,0.0227712,0.555472,5,0.1,7,1.8,-1.97205,-3.29284,0.616031,0.34202,0.151688,-0.0170186,-0.183105,-0.0811815,0.00905991,0.00864826,0.0626385,5,0.1,8,1.8,3.46788,0.934434,0.732796,-0.140822,0.866026,0.0153646,0.0982285,2.98023e-05,-0.0204444,0.0136044,2.26411,5,0.1,9,1.8,-1.4763,-0.791814,0.611847,-0.866026,0.413051,-0.00763834,0,-0.0988245,0.00187755,0.0101828,1.99114,5,0.1,10,1.8,-1.79581,2.19505,0.500012,-0.00923574,-0.342119,-2.83122e-05,0.0157952,-0.0991821,-8.9407e-05,0.00886613,0.0981899,5,0.1,11,1.8,-1.0032,1.72645,0.595615,0.0340462,-0.866026,-0.00732839,-0.266433,5.96046e-05,0.0329912,0.0123601,2.36262,5,0.1,12,1.8,0.0259565,-3.35021,0.639786,-0.864235,0.267559,-0.0251323,0.0357997,-0.917554,0.00229478,0.0196838,0.490964,5,0.1,13,1.8,-3.41698,-2.25828,0.500061,0.27442,0.351429,0.000140071,-0.268459,-0.215411,-0.00107288,0.0104223,0.211708,5,0.1,14,1.8,0.996135,3.53098,0.575926,-0.28802,-0.574112,0.00658333,-0.677675,-1.12402,0.00816584,0.0142349,2.38315,5,0.1,15,1.8,-2.06017,2.56813,0.616595,0.28137,-0.232661,0.000549853,-0.11301,-0.0756979,0.0866652,0.00841115,0.180572,5,0.1,16,1.8,-2.33539,-3.37927,0.625336,0.429851,0.169051,-0.0234947,-0.28491,-0.130892,0.0206828,0.0291947,0.249171,5,0.1,17,1.8,1.28879,2.90062,0.606726,0.863421,0.0644982,0.00962764,-0.0520349,0.0277758,0.272065,0.0221642,2.35531,5,0.1,18,1.8,3.68715,-2.33368,0.55345,-0.214064,-0.434613,-0.0285208,0.224113,0.377893,0.0272095,0.011616,0.0992581,5,0.1,19,1.8,0.0931063,-0.527641,0.73039,-0.436066,0.449581,0.0197202,0.0939643,0.121474,-0.0186861,0.0173327,0.775072,5,0.1,20,1.8,1.54046,0.839973,0.593341,-0.608701,0.728191,-0.000588596,0.01055,-0.479907,0.0178516,0.0191902,0.651817,5,0.1,21,1.8,-2.31518,2.83381,0.573543,0.364798,-0.279737,0.0197306,-0.324011,0.249267,-0.0162721,0.0101657,0.210417,5,0.1,22,1.8,0.360432,3.73462,0.59,-0.739596,0.279963,0.00996441,0.430672,-0.205517,-0.0111461,0.01033,0.416268,5,0.1,23,1.8,3.20018,3.61896,0.621841,-0.00449419,-0.22831,-0.00628978,0.0890493,-0.00238419,-0.0149906,0.00875697,0.604609,5,0.1,24,1.8,1.49677,-2.20767,0.585315,-0.147659,0.41014,0.0147834,0.139773,-0.388145,-0.0140071,0.0133875,0.183892,5,0.1,25,1.8,3.53928,1.51145,0.5,-0.0942171,0.781071,-1.49012e-06,0.24128,-0.426292,0.00447035,0.0127777,1.32737,5,0.1,26,1.8,3.94207,-2.36185,0.566676,0.226653,0.521809,0.0110745,0.20206,-1.6228,-0.00742078,0.0193055,3.20666,5,0.1,27,1.8,-3.09818,2.96488,0.588161,0.866026,0.400084,0.00346303,0,-0.175118,-0.0264645,0.0428075,2.18369,5,0.1,28,1.8,-1.30052,-4.0817,0.539122,-0.782406,-0.156832,-0.0119373,0.379264,0.137568,0.0104606,0.00917754,0.360978,5,0.1,29,1.8,-1.06875,-1.6042,0.711363,-0.206104,0.866026,0.0108942,0.0439286,-5.96046e-05,-0.00229478,0.017559,2.24861,5,0.1,30,1.8,0.46357,2.33308,0.582505,0.222216,0.0830531,0.0217095,-0.513256,-0.0572205,-0.0149906,0.0112275,0.231946,5,0.1,31,1.8,2.90783,2.90372,0.589292,-0.55877,0.0245512,0.00655949,0.299573,0.205517,0.00685453,0.0136008,1.51901,5,0.1,32,1.8,-0.381414,0.0740529,0.731955,0.158117,-0.372244,0.0181496,-0.0128448,0.336182,-0.0171959,0.0112888,0.129108,5,0.1,33,1.8,3.43401,3.29837,0.624516,-0.307649,0.138783,0.00346303,0.137806,-0.118852,-0.00172853,0.0111687,3.32234,5,0.1,34,1.8,3.2,3.20117,0.603205,-0.129753,-0.353318,-0.00322163,0.196099,0.334382,0.00303984,0.0115194,0.359388,5,0.1,35,1.8,2.32296,0.113929,0.619636,-0.0369549,-0.866026,0.00282377,-0.0207424,3.57628e-06,0.00181794,0.00989772,2.27095,5,0.1,36,1.8,-1.63987,0.0032869,0.589551,-0.181079,-0.322061,0.0110894,0.217557,0.172468,-0.00596046,0.010136,0.173624,5,0.1,37,1.8,1.26791,-4.02958,0.622305,0.494245,0.189221,-0.0321046,-0.467718,-0.179291,0.0303686,0.00854739,0.0928791,5,0.1,38,1.8,3.33858,1.93507,0.6004,-0.150788,0.430858,-0.000409782,0.340581,0.474751,0.000357628,0.0209042,0.12885,5,0.1,39,1.8,1.90222,2.8014,0.589195,0.46618,0.0513196,-0.00941753,-0.441194,-0.0486374,0.00888109,0.0108631,0.124765,5,0.1
0,1.9,4.08366,-1.13465,0.614465,-0.222249,0.866025,-0.00410173,-0.00667572,1.49012e-05,-0.000163913,0.0148541,2.23999,5,0.1,1,1.9,-0.201927,3.87476,0.622228,-0.417257,0.194949,-0.00829184,0.0529316,-0.0895411,0.0822432,0.00876887,0.504969,5,0.1,2,1.9,1.2721,0.00220657,0.747409,-0.266828,-0.164098,0.032287,0.536986,0.394902,-0.0627302,0.00898913,0.401747,5,0.1,3,1.9,-3.04425,3.35753,0.637263,0.788473,-0.319934,-0.00794698,-0.513583,1.27526,0.0754744,0.0161054,1.80801,5,0.1,4,1.9,-2.38969,3.46747,0.64482,0.865242,0.448655,-0.0257994,-0.000610948,-0.0948608,-0.0211634,0.017732,1.40952,5,0.1,5,1.9,-3.56682,-2.8663,0.771638,0.427213,-0.38439,0.0157482,-0.0634938,0.212595,-0.0970624,0.00944323,0.243914,5,0.1,6,1.9,1.62062,-0.0682965,0.730386,-0.287391,0.733193,0.0177008,0.174172,-0.223292,-0.0138618,0.0227712,0.555472,5,0.1,7,1.9,-1.93866,-3.27804,0.614369,0.326425,0.144774,-0.0162468,-0.143521,-0.0636131,0.00710413,0.00864826,0.0626385,5,0.1,8,1.9,3.45422,1.02104,0.734257,-0.132758,0.866026,0.0141061,0.0697374,-7.45058e-06,-0.00646338,0.0136044,2.26411,5,0.1,9,1.9,-1.5629,-0.750869,0.61109,-0.866026,0.406624,-0.00751503,0,-0.0516474,0.000990927,0.0101828,1.99114,5,0.1,10,1.9,-1.79665,2.16033,0.500009,-0.00774525,-0.352006,-3.22238e-05,0.0140965,-0.080809,0,0.00886613,0.0981899,5,0.1,11,1.9,-1.00104,1.63985,0.59496,0.0105197,-0.866025,-0.00651013,-0.187926,-1.49012e-05,-0.0118688,0.0123601,2.36262,5,0.1,12,1.9,-0.0601652,-3.32785,0.637278,-0.856305,0.181676,-0.0250551,0.148476,-0.791371,0.00057742,0.0196838,0.490964,5,0.1,13,1.9,-3.39081,-2.22394,0.50007,0.249499,0.337491,3.91155e-05,-0.237152,-0.0881404,-0.000931323,0.0104223,0.211708,5,0.1,14,1.9,0.963848,3.46779,0.576628,-0.357708,-0.689597,0.0074775,-0.677813,-1.11836,0.00900403,0.0142349,2.38315,5,0.1,15,1.9,-2.0324,2.54436,0.617121,0.275584,-0.243515,0.0102228,-0.0233948,-0.121638,0.1017,0.00841115,0.180572,5,0.1,16,1.9,-2.29363,-3.36295,0.623084,0.406738,0.157665,-0.0216006,-0.198275,-0.103518,0.0179075,0.0291947,0.249171,5,0.1,17,1.9,1.37484,2.90743,0.609315,0.856589,0.0734571,0.0441553,-0.11576,0.134066,0.393048,0.0221642,2.35531,5,0.1,18,1.9,3.66684,-2.3754,0.550727,-0.192229,-0.400959,-0.0259881,0.215665,0.310555,0.0241883,0.011616,0.0992581,5,0.1,19,1.9,0.0501957,-0.482232,0.732274,-0.419873,0.456748,0.0179771,0.230176,0.0100229,-0.0166893,0.0173327,0.775072,5,0.1,20,1.9,1.47989,0.910516,0.593366,-0.59979,0.68333,0.00103582,0.175558,-0.439566,0.0144392,0.0191902,0.651817,5,0.1,21,1.9,-2.28008,2.80686,0.575445,0.339001,-0.26104,0.018392,-0.211567,0.142291,-0.0114553,0.0101657,0.210417,5,0.1,22,1.9,0.288398,3.76166,0.590944,-0.702569,0.261183,0.00895886,0.340636,-0.179216,-0.0092648,0.01033,0.416268,5,0.1,23,1.9,3.20007,3.5973,0.621155,0.00130683,-0.194853,-0.00727596,0.0314713,0.605911,-0.00512227,0.00875697,0.604609,5,0.1,24,1.9,1.48232,-2.1683,0.586734,-0.144578,0.379645,0.0136823,-0.0520274,-0.245258,-0.00885502,0.0133875,0.183892,5,0.1,25,1.9,3.53094,1.58764,0.500016,-0.0737298,0.743842,0.000270177,0.172779,-0.349529,0.00121072,0.0127777,1.32737,5,0.1,26,1.9,3.96501,-2.31529,0.567749,0.22577,0.430875,0.0103833,-0.188947,-0.32419,-0.00674278,0.0193055,3.20666,5,0.1,27,1.9,-3.01157,3.00407,0.588372,0.866026,0.384005,0.000761729,0,-0.157863,-0.0265352,0.0428075,2.18369,5,0.1,28,1.9,-1.37698,-4.09674,0.537978,-0.74735,-0.144039,-0.0109647,0.349067,0.122607,0.0093244,0.00917754,0.360978,5,0.1,29,1.9,-1.08917,-1.5176,0.712446,-0.202343,0.866025,0.0108136,0.0399798,1.49012e-05,-3.72529e-05,0.017559,2.24861,5,0.1,30,1.9,0.483418,2.34111,0.584605,0.177816,0.0776943,0.0203061,-0.334121,-0.052467,-0.0137277,0.0112275,0.231946,5,0.1,31,1.9,2.85243,2.90711,0.589978,-0.557484,0.0424922,0.0071343,-0.196189,0.151426,0.00438839,0.0136008,1.51901,5,0.1,32,1.9,-0.365774,0.0382447,0.733698,0.153624,-0.346015,0.0167988,-0.0763051,0.209891,-0.0108629,0.0112888,0.129108,5,0.1,33,1.9,3.40367,3.31116,0.624866,-0.301088,0.112944,0.00362806,0.0180304,-0.368953,0.00418723,0.0111687,3.32234,5,0.1,34,1.9,3.18737,3.16742,0.602897,-0.128059,-0.322338,-0.00293981,-0.123262,0.294849,0.00268221,0.0115194,0.359388,5,0.1,35,1.9,2.31917,0.0273267,0.619927,-0.0389419,-0.866025,0.00299504,-0.0169575,5.96046e-07,0.00144914,0.00989772,2.27095,5,0.1,36,1.9,-1.65676,-0.028154,0.590634,-0.155497,-0.307373,0.0105822,0.286333,0.135142,-0.00466406,0.010136,0.173624,5,0.1,37,1.9,1.31512,-4.0115,0.619238,0.450912,0.17261,-0.0292907,-0.412382,-0.158086,0.0267848,0.00854739,0.0928791,5,0.1,38,1.9,3.32521,1.98021,0.600361,-0.116681,0.468416,-0.000381283,0.336558,0.264779,0.000230968,0.0209042,0.12885,5,0.1,39,1.9,1.94697,2.80633,0.588291,0.431519,0.0474971,-0.0087196,-0.278734,-0.0307709,0.00561774,0.0108631,0.124765,5,0.1
0,2,4.06144,-1.04805,0.614055,-0.221384,0.866026,-0.00408888,0.0338554,-2.98023e-05,0.000596046,0.0177744,2.24457,5,0.1,1,2,-0.243099,3.8938,0.621804,-0.403279,0.185645,-0.000296533,0.227116,-0.103593,0.0754595,0.0081691,0.479546,5,0.1,2,2,1.24816,-0.0118734,0.75034,-0.211525,-0.114751,0.0264987,0.559211,0.560814,-0.0536442,0.00779924,0.418222,5,0.1,3,2,-2.96831,3.33181,0.636851,0.726974,-0.195926,-0.000311434,-0.716567,1.18113,0.0744164,0.0190633,1.71295,5,0.1,4,2,-2.30329,3.51174,0.642152,0.861388,0.435311,-0.027369,-0.0927448,-0.184655,-0.00929832,0.0177496,1.038,5,0.1,5,2,-3.52454,-2.90361,0.772759,0.416881,-0.361186,0.00699162,-0.155449,0.260353,-0.0774264,0.00826757,0.272676,5,0.1,6,2,1.5927,0.0037812,0.732087,-0.27124,0.70651,0.0163078,0.161648,-0.33326,-0.0144243,0.0224035,0.3911,5,0.1,7,2,-1.90676,-3.26389,0.612782,0.310814,0.137854,-0.0154719,-0.178993,-0.0793934,0.00888109,0.00841072,0.109613,5,0.1,8,2,3.44129,1.10764,0.735647,-0.125724,0.866026,0.0137657,0.0755787,0,-0.00166893,0.0139015,2.01706,5,0.1,9,2,-1.64951,-0.710534,0.610345,-0.866026,0.398985,-0.00737011,0,-0.116616,0.00220537,0.0094156,1.53318,5,0.1,10,2,-1.79736,2.12487,0.500006,-0.00640452,-0.355303,-2.98023e-05,0.012815,0.0269413,8.9407e-05,0.00833835,0.0774958,5,0.1,11,2,-1.0007,1.55324,0.594208,-0.00138581,-0.866026,-0.0088498,-0.0448227,5.96046e-05,-0.0312626,0.0112766,2.35267,5,0.1,12,2,-0.144697,-3.31337,0.634782,-0.830353,0.11065,-0.0247926,0.386775,-0.624657,0.00560284,0.0153707,2.91338,5,0.1,13,2,-3.36705,-2.19059,0.50007,0.22577,0.329506,-4.32134e-05,-0.242591,-0.090003,-0.000745058,0.0113086,0.1568,5,0.1,14,2,0.924946,3.3937,0.577417,-0.417058,-0.786322,0.00826269,-0.482231,-0.7689,0.00619888,0.0146084,2.17464,5,0.1,15,2,-2.00495,2.51946,0.618642,0.273117,-0.2536,0.0200033,-0.0408888,-0.0659227,0.0901818,0.00882838,0.209331,5,0.1,16,2,-2.25394,-3.3477,0.621014,0.386602,0.1472,-0.0197917,-0.219345,-0.110507,0.0187755,0.0251552,0.188831,5,0.1,17,2,1.45961,2.9155,0.615723,0.8351,0.0882566,0.0837788,-0.334501,0.148892,0.380278,0.0231458,2.12763,5,0.1,18,2,3.6487,-2.41395,0.548249,-0.170422,-0.369883,-0.0235572,0.222445,0.321984,0.0249445,0.0100392,0.117589,5,0.1,19,2,0.00958375,-0.436769,0.733988,-0.390154,0.44971,0.0162974,0.362696,-0.157699,-0.0172853,0.0166601,0.721472,5,0.1,20,2,1.42112,0.97657,0.593535,-0.572449,0.636543,0.00226945,0.374615,-0.511318,0.0101328,0.0226193,0.546446,5,0.1,21,2,-2.24718,2.78141,0.577228,0.319082,-0.248212,0.0172779,-0.201225,0.127196,-0.0115633,0.00981619,0.245314,5,0.1,22,2,0.219901,3.78686,0.591795,-0.666231,0.242567,0.00805855,0.407733,-0.199199,-0.0089705,0.00947516,0.29258,5,0.1,23,2,3.20029,3.5814,0.620415,0.00261068,-0.118876,-0.00739098,-0.00190735,0.861764,0.00247359,0.00986529,0.431296,5,0.1,24,2,1.46746,-2.13148,0.588061,-0.153455,0.357014,0.0128657,-0.105619,-0.22459,-0.00813603,0.0114531,0.113102,5,0.1,25,2,3.52435,1.66019,0.500046,-0.0588894,0.705862,0.000284612,0.127435,-0.431776,-0.000685453,0.0139667,1.24799,5,0.1,26,2,3.98621,-2.27255,0.568752,0.194484,0.434041,0.00966787,-0.41151,0.286222,-0.00777841,0.0185646,2.79941,5,0.1,27,2,-2.92497,3.04163,0.588322,0.866026,0.366527,-0.00167042,0,-0.200152,-0.0214577,0.00912057,0.987277,5,0.1,28,2,-1.44984,-4.11052,0.536928,-0.70802,-0.131583,-0.0100166,0.455916,0.1297,0.00983477,0.014156,0.243901,5,0.1,29,2,-1.10916,-1.431,0.713526,-0.196645,0.866026,0.0107646,0.0798702,0,-0.00149012,0.0176611,2.25062,5,0.1,30,2,0.5,2.34861,0.586564,0.158389,0.0721455,0.0188544,-0.0650883,-0.0603199,-0.0157654,0.0127771,0.189341,5,0.1,31,2,2.7954,2.91202,0.590708,-0.584388,0.0545681,0.00739694,-0.28336,0.0892878,0.000715256,0.0128932,2.79008,5,0.1,32,2,-0.350892,0.00462856,0.735327,0.143054,-0.326541,0.0157967,-0.133857,0.195337,-0.00992417,0.0109332,0.106725,5,0.1,33,2,3.37362,3.3204,0.625254,-0.299782,0.0701785,0.00415146,0.026226,-0.463486,0.00566244,0.011179,3.0892,5,0.1,34,2,3.17369,3.13666,0.602617,-0.147492,-0.292724,-0.00267178,-0.2352,0.303984,0.00280142,0.0112399,0.28334,5,0.1,35,2,2.31521,-0.0592758,0.620232,-0.0400066,-0.866025,0.00308901,-0.00286102,1.19209e-06,0.000298023,0.0107783,2.2709,5,0.1,36,2,-1.67082,-0.0581847,0.591668,-0.125223,-0.292676,0.0100762,0.312865,0.168498,-0.00578165,0.012611,0.151456,5,0.1,37,2,1.35815,-3.99503,0.616443,0.409493,0.156742,-0.0266001,-0.42516,-0.162959,0.0276268,0.00883965,0.106199,5,0.1,38,2,3.31519,2.02795,0.600323,-0.0843465,0.482041,-0.000359118,0.306606,0.00202656,0.000238419,0.0228717,0.577531,5,0.1,39,2,1.98882,2.81093,0.587446,0.405797,0.0446618,-0.00820011,-0.255287,-0.0282526,0.0051558,0.00966914,0.0719244,5,0.1
0,2.1,4.03939,-0.961448,0.613799,-0.220176,0.866025,0.000237487,0.00336766,3.72529e-06,0.0766069,0.0177744,2.24457,5,0.1,1,2.1,-0.281833,3.9119,0.622151,-0.367318,0.176771,0.00716727,0.472366,-0.0816733,0.0715777,0.0081691,0.479546,5,0.1,2,2.1,1.22978,-0.0208172,0.752764,-0.156577,-0.0667334,0.0223428,0.531442,0.404235,-0.0315607,0.00779924,0.418222,5,0.1,3,2.1,-2.8997,3.31749,0.63719,0.640994,-0.0966206,0.00701919,-0.977769,0.815511,0.0699461,0.0190633,1.71295,5,0.1,4,2.1,-2.21735,3.5544,0.639371,0.858808,0.418121,-0.0281765,-0.00713766,-0.174388,-0.00566617,0.0177496,1.038,5,0.1,5,2.1,-3.48342,-2.9385,0.773093,0.406813,-0.337022,-6.23986e-05,-0.0706613,0.233933,-0.0629872,0.00826757,0.272676,5,0.1,6,2.1,1.56625,0.0729044,0.733651,-0.258569,0.676647,0.0150077,0.105776,-0.29079,-0.0121221,0.0224035,0.3911,5,0.1,7,2.1,-1.87654,-3.25056,0.611277,0.293785,0.128136,-0.0146265,-0.170976,-0.114486,0.00849739,0.00841072,0.109613,5,0.1,8,2.1,3.42898,1.19423,0.737217,-0.121273,0.865686,0.0193208,0.0232309,-0.0135824,0.0995286,0.0139015,2.01706,5,0.1,9,2.1,-1.73611,-0.671136,0.609617,-0.865828,0.389354,-0.00718795,0.00792742,-0.0935942,0.00176579,0.0094156,1.53318,5,0.1,10,2.1,-1.79794,2.08941,0.500004,-0.00522602,-0.354171,-2.13273e-05,0.0108406,0.0142753,7.82311e-05,0.00833835,0.0774958,5,0.1,11,2.1,-1.00089,1.46664,0.593125,0.000210293,-0.866025,-0.0131249,0.103913,-1.49012e-05,-0.0503063,0.0112766,2.35267,5,0.1,12,2.1,-0.226331,-3.30543,0.632329,-0.806217,0.0497926,-0.0242566,0.15085,-0.537887,0.00603124,0.0153707,2.91338,5,0.1,13,2.1,-3.34561,-2.15794,0.500062,0.203485,0.324349,-9.89996e-05,-0.209227,-0.0326782,-0.000383705,0.0113086,0.1568,5,0.1,14,2.1,0.880776,3.3118,0.578277,-0.465965,-0.845516,0.0089285,-0.461239,-0.400901,0.00646338,0.0146084,2.17464,5,0.1,15,2.1,-1.97769,2.49415,0.621091,0.272955,-0.248952,0.0288709,0.0185221,0.146985,0.0837184,0.00882838,0.209331,5,0.1,16,2.1,-2.21624,-3.33349,0.619122,0.368533,0.13751,-0.0180802,-0.159889,-0.088945,0.0160523,0.0251552,0.188831,5,0.1,17,2.1,1.54152,2.92526,0.626118,0.803234,0.108463,0.124707,-0.330828,0.234887,0.416055,0.0231458,2.12763,5,0.1,18,2.1,3.63268,-2.44966,0.546,-0.150878,-0.346944,-0.0215624,0.174522,0.16284,0.0162646,0.0100392,0.117589,5,0.1,19,2.1,-0.0270907,-0.392825,0.735534,-0.338792,0.426813,0.0146513,0.635789,-0.298321,-0.015948,0.0166601,0.721472,5,0.1,20,2.1,1.36634,1.03781,0.593809,-0.517841,0.589091,0.0031596,0.691533,-0.456315,0.00752509,0.0226193,0.546446,5,0.1,21,2.1,-2.21614,2.75694,0.578905,0.302869,-0.243343,0.0163049,-0.1387,-0.00599027,-0.00866503,0.00981619,0.245314,5,0.1,22,2.1,0.155281,3.81015,0.592556,-0.626106,0.223349,0.00716066,0.411207,-0.190556,-0.00903383,0.00947516,0.29258,5,0.1,23,2.1,3.20053,3.57413,0.619686,0.00189394,-0.0244312,-0.00720769,-0.0111461,0.985682,0.00157207,0.00986529,0.431296,5,0.1,24,2.1,1.45147,-2.09678,0.589311,-0.167332,0.337922,0.0121742,-0.154503,-0.17269,-0.00624731,0.0114531,0.113102,5,0.1,25,2.1,3.51907,1.72876,0.500443,-0.0468422,0.666434,0.0107753,0.113443,-0.381015,0.187043,0.0139667,1.24799,5,0.1,26,2.1,4.00335,-2.2265,0.569801,0.146207,0.496593,0.0123285,-0.533178,0.861853,0.0531897,0.0185646,2.79941,5,0.1,27,2.1,-2.83985,3.07585,0.587916,0.822969,0.305636,-0.00752276,-0.801697,-0.935316,-0.0865273,0.00912057,0.987277,5,0.1,28,2.1,-1.51849,-4.12307,0.535973,-0.665703,-0.119635,-0.00911038,0.412889,0.112891,0.00856817,0.014156,0.243901,5,0.1,29,2.1,-1.12848,-1.3444,0.7146,-0.190237,0.866026,0.0107453,0.057511,0,0.000413507,0.0176611,2.25062,5,0.1,30,2.1,0.51564,2.35553,0.588373,0.15534,0.0663213,0.0173326,-0.00847876,-0.0577271,-0.0150912,0.0127771,0.189341,5,0.1,31,2.1,2.73575,2.91763,0.591454,-0.606134,0.0550553,0.00754846,-0.132412,-0.0659823,0.00180677,0.0128932,2.79008,5,0.1,32,2.1,-0.337426,-0.0268821,0.736863,0.124785,-0.302084,0.0149827,-0.222573,0.290526,-0.00711158,0.0109332,0.106725,5,0.1,33,2.1,3.34261,3.32541,0.625683,-0.329918,0.0331428,0.00430197,-0.545576,-0.280991,-0.00213087,0.011179,3.0892,5,0.1,34,2.1,3.1575,3.10881,0.602363,-0.178129,-0.264814,-0.00241511,-0.347927,0.262335,0.00240654,0.0112399,0.28334,5,0.1,35,2.1,2.31118,-0.145878,0.620543,-0.0404291,-0.866025,0.0031271,-0.00351667,-7.45058e-07,0.000309199,0.0107783,2.2709,5,0.1,36,2.1,-1.68177,-0.0866447,0.592648,-0.0939546,-0.276646,0.00952613,0.306927,0.160942,-0.00552088,0.012611,0.151456,5,0.1,37,2.1,1.39729,-3.98005,0.6139,0.375847,0.143845,-0.0244132,-0.271253,-0.10398,0.0176318,0.00883965,0.106199,5,0.1,38,2.1,3.3082,2.07647,0.600602,-0.0562269,0.490367,0.0085555,0.254616,0.126004,0.15831,0.0228717,0.577531,5,0.1,39,2.1,2.02826,2.81527,0.586648,0.384098,0.0422604,-0.00776136,-0.196286,-0.0217259,0.00396743,0.00966914,0.0719244,5,0.1
0,2.2,4.01743,-0.874846,0.614268,-0.218463,0.866026,0.00957102,0.0398159,0,0.102848,0.0168967,2.24031,5,0.1,1,2.2,-0.315935,3.92915,0.623204,-0.312443,0.167984,0.013639,0.608504,-0.0995398,0.0562966,0.00771654,0.463597,5,0.1,2,2.2,1.21668,-0.0256958,0.754863,-0.106648,-0.0329939,0.0198141,0.4614,0.27495,-0.0206232,0.0107959,0.311355,5,0.1,3,2.2,-2.84074,3.31138,0.63822,0.536025,-0.0307143,0.0132978,-1.10066,0.513077,0.054121,0.0195526,1.54243,5,0.1,4,2.2,-2.13168,3.59526,0.636539,0.85175,0.397873,-0.0283062,-0.168085,-0.241041,0.0038445,0.0174772,0.738324,5,0.1,5,2.2,-3.44312,-2.97101,0.7728,0.398493,-0.312537,-0.00550002,-0.113368,0.263095,-0.0454187,0.00821421,0.322858,5,0.1,6,2.2,1.54093,0.139007,0.735092,-0.247678,0.64383,0.0137925,0.12207,-0.383987,-0.0126064,0.022314,0.270582,5,0.1,7,2.2,-1.84807,-3.23837,0.609859,0.275049,0.115091,-0.0136957,-0.209987,-0.145555,0.0104606,0.00846806,0.140761,5,0.1,8,2.2,3.41695,1.28063,0.739724,-0.119376,0.860596,0.0313237,0.0218153,-0.1086,0.130236,0.0126691,2.32941,5,0.1,9,2.2,-1.82258,-0.632748,0.608909,-0.862855,0.377288,-0.00696331,0.0634193,-0.159919,0.00301003,0.00886774,1.14733,5,0.1,10,2.2,-1.79841,2.05416,0.500002,-0.00422001,-0.349331,-1.3411e-05,0.00935793,0.0952482,5.96046e-05,0.00843844,0.145315,5,0.1,11,2.2,-1,1.38004,0.591556,0.0208601,-0.866026,-0.0182211,0.296533,5.96046e-05,-0.0487268,0.0124699,2.3144,5,0.1,12,2.2,-0.306218,-3.30266,0.62994,-0.790704,0.0108778,-0.0234306,0.199287,-0.216961,0.0110567,0.0173174,2.89296,5,0.1,13,2.2,-3.32629,-2.12571,0.500051,0.182891,0.319624,-0.00012368,-0.207067,-0.0760555,-0.000119209,0.00908086,0.198053,5,0.1,14,2.2,0.832141,3.22591,0.579198,-0.503434,-0.86565,0.00944585,-0.264168,-0.00751019,0.00339746,0.010573,2.13186,5,0.1,15,2.2,-1.95034,2.47026,0.624363,0.273544,-0.22645,0.0361636,-0.0205636,0.29254,0.0597537,0.00856853,0.255671,5,0.1,16,2.2,-2.1802,-3.32018,0.617394,0.351578,0.128436,-0.0164807,-0.191808,-0.0963211,0.0164211,0.0242273,0.142237,5,0.1,17,2.2,1.62001,2.93729,0.640578,0.764254,0.131691,0.163157,-0.467598,0.214577,0.336915,0.0202867,1.7673,5,0.1,18,2.2,3.61842,-2.48363,0.54392,-0.134462,-0.332791,-0.0200763,0.158072,0.139713,0.0144541,0.00831432,0.0695683,5,0.1,19,2.2,-0.0575374,-0.351852,0.73692,-0.268201,0.390554,0.0130549,0.752755,-0.423685,-0.0161827,0.013523,0.719616,5,0.1,20,2.2,1.31836,1.0944,0.594157,-0.438938,0.542149,0.00375062,0.864685,-0.495315,0.00420213,0.0193069,0.480081,5,0.1,21,2.2,-2.18655,2.73252,0.580492,0.288653,-0.245255,0.0154153,-0.156879,-0.0146627,-0.00971556,0.0106817,0.183716,5,0.1,22,2.2,0.0948404,3.83151,0.593226,-0.581274,0.203562,0.00624508,0.496154,-0.208735,-0.00932813,0.0100066,1.09396,5,0.1,23,2.2,3.20065,3.57654,0.618974,0.000613928,0.0710309,-0.00701398,-0.0137091,0.892878,0.0026226,0.00699048,0.311864,5,0.1,24,2.2,1.434,-2.06387,0.590497,-0.181356,0.319833,0.0115186,-0.113487,-0.199795,-0.00718236,0.0130455,0.0653108,5,0.1,25,2.2,3.51493,1.79342,0.502606,-0.0362158,0.625572,0.0335231,0.0991821,-0.452876,0.249714,0.0126557,1.65656,5,0.1,26,2.2,4.01524,-2.17228,0.571348,0.0915527,0.588369,0.0189215,-0.543356,0.896096,0.0726581,0.0161967,2.49648,5,0.1,27,2.2,-2.76248,3.10109,0.586686,0.716621,0.194216,-0.0173703,-1.27518,-1.22821,-0.103474,0.0114268,0.402534,5,0.1,28,2.2,-1.58292,-4.13447,0.535104,-0.621659,-0.108385,-0.00825524,0.483453,0.114441,0.00870228,0.00816903,0.163701,5,0.1,29,2.2,-1.14719,-1.25779,0.715675,-0.183567,0.866026,0.0107273,0.082314,0,-0.0012517,0.0210516,2.25034,5,0.1,30,2.2,0.53114,2.36187,0.590029,0.154516,0.0603318,0.0157684,-0.0171065,-0.0630617,-0.0164807,0.00927067,0.183716,5,0.1,31,2.2,2.67485,2.92264,0.592217,-0.607783,0.0438333,0.00766963,0.110984,-0.147581,0.000268221,0.0126653,3.06403,5,0.1,32,2.2,-0.326145,-0.0555047,0.738326,0.100172,-0.269126,0.014247,-0.262365,0.365034,-0.00813603,0.0120335,0.23117,5,0.1,33,2.2,3.30651,3.32759,0.626093,-0.39416,0.0130951,0.00382215,-0.67544,-0.12517,-0.00694394,0.0117496,2.78958,5,0.1,34,2.2,3.13796,3.08363,0.602133,-0.21193,-0.238883,-0.00217706,-0.306249,0.261903,0.00241399,0.0121152,0.21822,5,0.1,35,2.2,2.30714,-0.232481,0.620856,-0.0403583,-0.866025,0.00312477,0.0064373,-1.43051e-05,-0.000506639,0.0126579,2.27092,5,0.1,36,2.2,-1.68968,-0.113458,0.593571,-0.0647932,-0.25901,0.00892133,0.272334,0.197701,-0.00682473,0.00916759,0.333602,5,0.1,37,2.2,1.43362,-3.96615,0.611541,0.351155,0.134385,-0.0228077,-0.239849,-0.0920296,0.0155866,0.00909671,0.0613628,5,0.1,38,2.2,3.30376,2.12608,0.602376,-0.0335813,0.500619,0.0277907,0.198007,0.05126,0.21103,0.0218061,0.869948,5,0.1,39,2.2,2.06567,2.81939,0.585893,0.363541,0.0399947,-0.00734478,-0.227094,-0.0251532,0.00458956,0.0110796,0.0714843,5,0.1
0,2.3,3.99565,-0.788243,0.615643,-0.218038,0.866026,0.0170396,-0.0154972,-3.72529e-06,0.0490658,0.0168967,2.24031,5,0.1,1,2.3,-0.344018,3.9455,0.624841,-0.248401,0.159138,0.0189599,0.657925,-0.0837147,0.0484213,0.00771654,0.463597,5,0.1,2,2.3,1.20816,-0.0282863,0.756711,-0.0653133,-0.0245753,0.0169039,0.362754,-0.0714156,-0.0358596,0.0107959,0.311355,5,0.1,3,2.3,-2.79194,3.31039,0.639784,0.446248,0.00653751,0.0176162,-0.727132,0.24794,0.032369,0.0195526,1.54243,5,0.1,4,2.3,-2.04719,3.6339,0.633729,0.838581,0.375384,-0.027875,-0.133947,-0.221357,0.0057444,0.0174772,0.738324,5,0.1,5,2.3,-3.40369,-3.00102,0.772041,0.391109,-0.288243,-0.00950694,-0.0562817,0.231966,-0.0342131,0.00821421,0.322858,5,0.1,6,2.3,1.51669,0.201596,0.736412,-0.23759,0.60866,0.0126537,0.0909269,-0.341405,-0.0106171,0.022314,0.270582,5,0.1,7,2.3,-1.82153,-3.22765,0.608538,0.256121,0.099032,-0.0127526,-0.178531,-0.173554,0.00889599,0.00846806,0.140761,5,0.1,8,2.3,3.40492,1.36624,0.743412,-0.122797,0.851547,0.0414825,-0.0734478,-0.109248,0.0737868,0.0126691,2.32941,5,0.1,9,2.3,-1.90882,-0.595753,0.608226,-0.86324,0.362881,-0.00669286,-0.0244007,-0.142522,0.00265986,0.00886774,1.14733,5,0.1,10,2.3,-1.79879,2.01957,0.500001,-0.00335183,-0.343316,-8.00937e-06,0.00803918,0.0445247,4.47035e-05,0.00843844,0.145315,5,0.1,11,2.3,-0.995984,1.29344,0.589472,0.0629568,-0.866025,-0.0235604,0.507314,-1.49012e-05,-0.0546873,0.0124699,2.3144,5,0.1,12,2.3,-0.384665,-3.3022,0.627648,-0.780702,0.00485256,-0.0224392,0.0497699,0.164658,0.00965968,0.0173174,2.89296,5,0.1,13,2.3,-3.30889,-2.09378,0.500038,0.166397,0.321541,-0.000125263,-0.133291,0.0819415,7.82311e-05,0.00908086,0.198053,5,0.1,14,2.3,0.78043,3.13939,0.580157,-0.530468,-0.863466,0.00969069,-0.245366,0.0751168,0.00120327,0.010573,2.13186,5,0.1,15,2.3,-1.92296,2.44927,0.628277,0.274646,-0.19182,0.0420353,0.0245348,0.388235,0.0544228,0.00856853,0.255671,5,0.1,16,2.3,-2.14593,-3.30778,0.615823,0.33434,0.119748,-0.014985,-0.165939,-0.081867,0.0139847,0.0242273,0.142237,5,0.1,17,2.3,1.69445,2.95164,0.658605,0.726938,0.155867,0.197192,-0.316903,0.250414,0.32527,0.0202867,1.7673,5,0.1,18,2.3,3.60571,-2.51633,0.541977,-0.120206,-0.322165,-0.0188461,0.131115,0.0899434,0.0110194,0.00831432,0.0695683,5,0.1,19,2.3,-0.0800664,-0.315997,0.738129,-0.178278,0.317409,0.0110147,0.999879,-0.973215,-0.023704,0.013523,0.719616,5,0.1,20,2.3,1.27893,1.14628,0.59455,-0.348705,0.496503,0.00409307,0.921324,-0.433162,0.00252947,0.0193069,0.480081,5,0.1,21,2.3,-2.1584,2.70782,0.581988,0.274604,-0.249458,0.0145203,-0.13487,-0.052467,-0.00869483,0.0106817,0.183716,5,0.1,22,2.3,0.0392369,3.85061,0.593778,-0.530223,0.176449,0.00455277,0.530233,-0.321522,-0.0227951,0.0100066,1.09396,5,0.1,23,2.3,3.20065,3.58812,0.618273,-0.000526011,0.159868,-0.00712592,-0.00911951,0.852808,-0.0038147,0.00699048,0.311864,5,0.1,24,2.3,1.41529,-2.03283,0.591615,-0.192562,0.301094,0.0108448,-0.0995249,-0.184909,-0.00664964,0.0130455,0.0653108,5,0.1,25,2.3,3.51167,1.85404,0.506872,-0.0301212,0.589182,0.0487708,0.0295341,-0.306509,0.0673868,0.0126557,1.65656,5,0.1,26,2.3,4.02162,-2.10843,0.573533,0.0357069,0.691736,0.0241237,-0.556558,1.0868,0.0328347,0.0161967,2.49648,5,0.1,27,2.3,-2.69721,3.11413,0.584338,0.589001,0.0654764,-0.0302583,-1.26608,-1.30165,-0.144489,0.0114268,0.402534,5,0.1,28,2.3,-1.64281,-4.14477,0.53432,-0.576934,-0.0979207,-0.00745924,0.429757,0.0979006,0.00744686,0.00816903,0.163701,5,0.1,29,2.3,-1.16527,-1.17119,0.716745,-0.178889,0.866026,0.010677,0.0242516,0,-0.000331551,0.0210516,2.25034,5,0.1,30,2.3,0.546321,2.36759,0.591526,0.147393,0.054238,0.0141763,-0.119619,-0.0598133,-0.0156276,0.00927067,0.183716,5,0.1,31,2.3,2.61522,2.92656,0.593007,-0.579389,0.0368185,0.0083033,0.440523,-0.00703335,0.0107288,0.0126653,3.06403,5,0.1,32,2.3,-0.317452,-0.0806001,0.739713,0.0737003,-0.23286,0.0135266,-0.262359,0.36046,-0.00682101,0.0120335,0.23117,5,0.1,33,2.3,3.26279,3.32895,0.626419,-0.487088,0.0197448,0.00249762,-1.08831,0.219047,-0.0180826,0.0117496,2.78958,5,0.1,34,2.3,3.11516,3.06097,0.601927,-0.24433,-0.215011,-0.00195736,-0.318974,0.22234,0.00204518,0.0121152,0.21822,5,0.1,35,2.3,2.30312,-0.319083,0.621167,-0.0399996,-0.866025,0.00309525,0.00284612,1.78814e-06,-0.000242144,0.0126579,2.27092,5,0.1,36,2.3,-1.69489,-0.13839,0.59443,-0.0402668,-0.239653,0.00825347,0.21676,0.194989,-0.00672415,0.00916759,0.333602,5,0.1,37,2.3,1.46767,-3.95312,0.609329,0.3309,0.126615,-0.0214913,-0.180766,-0.0693351,0.0117533,0.00909671,0.0613628,5,0.1,38,2.3,3.3013,2.17685,0.606013,-0.0165019,0.517998,0.0431028,0.141874,0.246316,0.100102,0.0218061,0.869948,5,0.1,39,2.3,2.10073,2.82314,0.585173,0.336055,0.0340126,-0.00711037,-0.32112,-0.0878274,0.000778586,0.0110796,0.0714843,5,0.1
0,2.4,3.97378,-0.701641,0.617521,-0.218832,0.866026,0.0198618,0.0110865,0,0.00965595,0.0146644,2.23931,5,0.1,1,2.4,-0.365585,3.96097,0.626954,-0.183401,0.150162,0.0230372,0.631034,-0.100136,0.0320375,0.00905092,0.455867,5,0.1,2,2.4,1.20327,-0.0314336,0.758209,-0.0343829,-0.0409858,0.0129521,0.255406,-0.229042,-0.0417829,0.0125339,0.269172,5,0.1,3,2.4,-2.75055,3.31195,0.641672,0.384855,0.0218213,0.0198126,-0.525713,0.0711679,0.0118017,0.0174513,1.35596,5,0.1,4,2.4,-1.96421,3.67028,0.630979,0.818434,0.351483,-0.0269964,-0.29552,-0.26536,0.0124276,0.0192473,0.512088,5,0.1,5,2.4,-3.36491,-3.02867,0.770941,0.38349,-0.264591,-0.0122651,-0.111818,0.247598,-0.0206828,0.00816793,0.290803,5,0.1,6,2.4,1.49341,0.260679,0.737625,-0.227579,0.571842,0.0115931,0.117183,-0.410064,-0.0109076,0.021907,0.668913,5,0.1,7,2.4,-1.79683,-3.21864,0.607308,0.237662,0.080806,-0.011833,-0.197411,-0.188947,0.00983477,0.00854332,0.251662,5,0.1,8,2.4,3.39223,1.4506,0.747842,-0.13113,0.832552,0.0462726,-0.0805855,-0.295699,0.0231862,0.0122669,2.33699,5,0.1,9,2.4,-1.9951,-0.560245,0.607572,-0.859928,0.346375,-0.00638515,0.121832,-0.19744,0.00363588,0.00872263,0.828809,5,0.1,10,2.4,-1.79909,1.98551,0.5,-0.0026077,-0.337097,-2.98023e-06,0.00691414,0.0937581,0,0.00838862,0.559475,5,0.1,11,2.4,-0.987062,1.20683,0.586855,0.115626,-0.866026,-0.028576,0.517249,0,-0.0432134,0.00965631,2.26354,5,0.1,12,2.4,-0.462404,-3.3,0.625456,-0.772341,0.0476182,-0.0213504,0.152469,0.660539,0.0127852,0.0131678,2.43546,5,0.1,13,2.4,-3.29287,-2.06117,0.500026,0.1544,0.330371,-0.000110269,-0.114322,0.0705719,0.000178814,0.0111102,0.123757,5,0.1,14,2.4,0.726396,3.05373,0.581126,-0.547254,-0.84576,0.00963807,-0.0689626,0.303745,-0.00241399,0.0101633,2.19839,5,0.1,15,2.4,-1.89542,2.43211,0.632722,0.275359,-0.150949,0.0464991,-0.0231266,0.419736,0.0326633,0.00987046,0.296742,5,0.1,16,2.4,-2.11337,-3.29622,0.614393,0.316197,0.111312,-0.0136003,-0.205874,-0.0897646,0.0140667,0.0230438,0.205071,5,0.1,17,2.4,1.76555,2.96841,0.679807,0.69432,0.178587,0.225069,-0.362873,0.190854,0.219345,0.0189998,1.46,5,0.1,18,2.4,3.59433,-2.54807,0.540147,-0.107545,-0.311875,-0.0177249,0.12517,0.128031,0.0120699,0.0087259,0.0548463,5,0.1,19,2.4,-0.0927988,-0.28958,0.739106,-0.0763146,0.207713,0.00847727,1.00432,-1.16873,-0.0262856,0.0106508,0.415514,5,0.1,20,2.4,1.24863,1.19377,0.594969,-0.257963,0.452879,0.0042364,0.879169,-0.450134,0.000327826,0.0212896,0.443616,5,0.1,21,2.4,-2.13165,2.68266,0.583395,0.259858,-0.252855,0.0135928,-0.167608,-0.00345707,-0.0102818,0.0102184,0.135163,5,0.1,22,2.4,-0.0110441,3.86654,0.594108,-0.474422,0.141442,0.00199378,0.588486,-0.369191,-0.0270605,0.0118711,1.00755,5,0.1,23,2.4,3.20056,3.60809,0.617537,-0.00121593,0.236309,-0.00759065,-0.00476837,0.654221,-0.00476837,0.0091932,0.213971,5,0.1,24,2.4,1.39563,-2.00369,0.592664,-0.199395,0.281188,0.0101283,-0.0295043,-0.219941,-0.00792742,0.012501,0.146075,5,0.1,25,2.4,3.50874,1.91146,0.511868,-0.0290871,0.558829,0.0492305,-0.00357628,-0.323296,-0.0480413,0.0115766,1.40953,5,0.1,26,2.4,4.0225,-2.03407,0.576054,-0.0168204,0.791204,0.0257686,-0.481367,0.841618,0.00149012,0.0170558,2.32436,5,0.1,27,2.4,-2.64454,3.11435,0.580589,0.465417,-0.0583291,-0.0445604,-1.19662,-1.14155,-0.134259,0.0100418,0.253205,5,0.1,28,2.4,-1.69831,-4.15408,0.53361,-0.53255,-0.0882745,-0.00672489,0.470877,0.0967979,0.00736117,0.00791404,0.109684,5,0.1,29,2.4,-1.18304,-1.08459,0.717808,-0.176468,0.866026,0.0105605,0.0335574,-5.96046e-05,-0.00232458,0.0188033,2.25084,5,0.1,30,2.4,0.560333,2.37272,0.592865,0.131685,0.0482082,0.0126004,-0.189334,-0.061512,-0.0160635,0.0119357,0.271979,5,0.1,31,2.4,2.55991,2.93034,0.593896,-0.522822,0.0398755,0.00952035,0.67544,0.0568628,0.0123084,0.0164371,3.32964,5,0.1,32,2.4,-0.311361,-0.102091,0.74103,0.0485234,-0.197043,0.0127897,-0.237644,0.355612,-0.00831485,0.0113186,0.209423,5,0.1,33,2.4,3.2086,3.33232,0.62657,-0.595289,0.0499249,0.000466406,-1.00529,0.354052,-0.0214279,0.0110532,2.47789,5,0.1,34,2.4,3.08927,3.04056,0.601741,-0.271839,-0.193256,-0.00175834,-0.215292,0.217676,0.00196695,0.0132414,0.160525,5,0.1,35,2.4,2.29915,-0.405686,0.621474,-0.0394225,-0.866025,0.00304878,0.010252,-1.43051e-05,-0.000834465,0.0113658,2.27097,5,0.1,36,2.4,-1.69793,-0.161348,0.59522,-0.0216126,-0.2191,0.00754595,0.155985,0.21968,-0.00756979,0.00877654,0.30481,5,0.1,37,2.4,1.49985,-3.94081,0.607239,0.312346,0.119507,-0.020285,-0.201344,-0.0772476,0.0130832,0.0104431,0.0477676,5,0.1,38,2.4,3.30026,2.22987,0.610674,-0.00532866,0.541216,0.0487417,0.0821352,0.181675,0.0170767,0.00798491,0.226494,5,0.1,39,2.4,2.13259,2.82605,0.584464,0.299722,0.0236273,-0.0070706,-0.402689,-0.11456,0.000447035,0.0104181,0.0543364,5,0.1
