id,t,px,py,pz,vx,vy,vz,ax,ay,az,planning_time,qp_cost,planning_report,size,id,t,px,py,pz,vx,vy,vz,ax,ay,az,planning_time,qp_cost,planning_report,size,id,t,px,py,pz,vx,vy,vz,ax,ay,az,planning_time,qp_cost,planning_report,size,id,t,px,py,pz,vx,vy,vz,ax,ay,az,planning_time,qp_cost,planning_report,size,id,t,px,py,pz,vx,vy,vz,ax,ay,az,planning_time,qp_cost,planning_report,size,id,t,px,py,pz,vx,vy,vz,ax,ay,az,planning_time,qp_cost,planning_report,size,id,t,px,py,pz,vx,vy,vz,ax,ay,az,planning_time,qp_cost,planning_report,size,id,t,px,py,pz,vx,vy,vz,ax,ay,az,planning_time,qp_cost,planning_report,size,id,t,px,py,pz,vx,vy,vz,ax,ay,az,planning_time,qp_cost,planning_report,size,id,t,px,py,pz,vx,vy,vz,ax,ay,az,planning_time,qp_cost,planning_report,size,id,t,px,py,pz,vx,vy,vz,ax,ay,az,planning_time,qp_cost,planning_report,size,id,t,px,py,pz,vx,vy,vz,ax,ay,az,planning_time,qp_cost,planning_report,size,id,t,px,py,pz,vx,vy,vz,ax,ay,az,planning_time,qp_cost,planning_report,size,id,t,px,py,pz,vx,vy,vz,ax,ay,az,planning_time,qp_cost,planning_report,size,id,t,px,py,pz,vx,vy,vz,ax,ay,az,planning_time,qp_cost,planning_report,size,id,t,px,py,pz,vx,vy,vz,ax,ay,az,planning_time,qp_cost,planning_report,size,id,t,px,py,pz,vx,vy,vz,ax,ay,az,planning_time,qp_cost,planning_report,size,id,t,px,py,pz,vx,vy,vz,ax,ay,az,planning_time,qp_cost,planning_report,size,id,t,px,py,pz,vx,vy,vz,ax,ay,az,planning_time,qp_cost,planning_report,size,id,t,px,py,pz,vx,vy,vz,ax,ay,az,planning_time,qp_cost,planning_report,size,id,t,px,py,pz,vx,vy,vz,ax,ay,az,planning_time,qp_cost,planning_report,size,id,t,px,py,pz,vx,vy,vz,ax,ay,az,planning_time,qp_cost,planning_report,size,id,t,px,py,pz,vx,vy,vz,ax,ay,az,planning_time,qp_cost,planning_report,size,id,t,px,py,pz,vx,vy,vz,ax,ay,az,planning_time,qp_cost,planning_report,size,id,t,px,py,pz,vx,vy,vz,ax,ay,az,planning_time,qp_cost,planning_report,size,id,t,px,py,pz,vx,vy,vz,ax,ay,az,planning_time,qp_cost,planning_report,size,id,t,px,py,pz,vx,vy,vz,ax,ay,az,planning_time,qp_cost,planning_report,size,id,t,px,py,pz,vx,vy,vz,ax,ay,az,planning_time,qp_cost,planning_report,size,id,t,px,py,pz,vx,vy,vz,ax,ay,az,planning_time,qp_cost,planning_report,size,id,t,px,py,pz,vx,vy,vz,ax,ay,az,planning_time,qp_cost,planning_report,size,id,t,px,py,pz,vx,vy,vz,ax,ay,az,planning_time,qp_cost,planning_report,size,id,t,px,py,pz,vx,vy,vz,ax,ay,az,planning_time,qp_cost,planning_report,size,id,t,px,py,pz,vx,vy,vz,ax,ay,az,planning_time,qp_cost,planning_report,size,id,t,px,py,pz,vx,vy,vz,ax,ay,az,planning_time,qp_cost,planning_report,size,id,t,px,py,pz,vx,vy,vz,ax,ay,az,planning_time,qp_cost,planning_report,size,id,t,px,py,pz,vx,vy,vz,ax,ay,az,planning_time,qp_cost,planning_report,size,id,t,px,py,pz,vx,vy,vz,ax,ay,az,planning_time,qp_cost,planning_report,size,id,t,px,py,pz,vx,vy,vz,ax,ay,az,planning_time,qp_cost,planning_report,size,id,t,px,py,pz,vx,vy,vz,ax,ay,az,planning_time,qp_cost,planning_report,size,id,t,px,py,pz,vx,vy,vz,ax,ay,az,planning_time,qp_cost,planning_report,size
0,0,-2.07752,-0.567986,0.569921,0,0,0,0,0,0,0.0105982,0.314681,5,0.1,1,0,4.29257,-0.884063,0.638931,0,0,0,0,0,0,0.0281447,3.51222,5,0.1,2,0,-4.3846,-2.67917,0.614053,0,0,0,0,0,0,0.0138481,2.40641,5,0.1,3,0,3.80702,3.0996,0.52263,0,0,0,0,0,0,0.0146711,3.5122,5,0.1,4,0,-0.314592,-3.61199,0.655302,0,0,0,0,0,0,0.0148866,3.5122,5,0.1,5,0,1.40302,-1.37366,0.647597,0,0,0,0,0,0,0.0158187,3.5122,5,0.1,6,0,-2.9252,3.04244,0.663367,0,0,0,0,0,0,0.0109283,3.5122,5,0.1,7,0,-2.6868,4.06626,0.536676,0,0,0,0,0,0,0.0155727,3.29749,5,0.1,8,0,1.85828,-2.31806,0.558777,0,0,0,0,0,0,0.0101239,3.51219,5,0.1,9,0,0.214532,-0.989722,0.654539,0,0,0,0,0,0,0.0213163,0.85421,5,0.1,10,0,3.95774,-1.68292,0.512288,0,0,0,0,0,0,0.0162067,3.5122,5,0.1,11,0,3.60622,-3.66237,0.655766,0,0,0,0,0,0,0.0152847,3.5122,5,0.1,12,0,0.387076,3.75137,0.638498,0,0,0,0,0,0,0.0219768,3.5122,5,0.1,13,0,1.71736,2.64122,0.507558,0,0,0,0,0,0,0.0116515,2.31523,5,0.1,14,0,-0.417035,-1.2295,0.678029,0,0,0,0,0,0,0.0130292,1.81338,5,0.1,15,0,-2.16734,-3.87243,0.650512,0,0,0,0,0,0,0.0128964,1.58698,5,0.1,16,0,-4.10362,4.17287,0.62099,0,0,0,0,0,0,0.0135787,3.5188,5,0.1,17,0,-3.54584,3.90195,0.56941,0,0,0,0,0,0,0.0177624,3.5122,5,0.1,18,0,1.70095,3.56344,0.67842,0,0,0,0,0,0,0.0143214,3.51219,5,0.1,19,0,-1.32787,-3.60346,0.640891,0,0,0,0,0,0,0.014793,3.5122,5,0.1,20,0,-3.41751,-4.36316,0.670748,0,0,0,0,0,0,0.0113841,3.5122,5,0.1,21,0,-1.4887,2.87329,0.675114,0,0,0,0,0,0,0.0105607,2.46848,5,0.1,22,0,3.86049,-2.71922,0.539775,0,0,0,0,0,0,0.0217707,3.5122,5,0.1,23,0,2.98059,3.2264,0.653685,0,0,0,0,0,0,0.0110945,1.62651,5,0.1,24,0,2.28428,0.778978,0.592515,0,0,0,0,0,0,0.0140037,3.5122,5,0.1,25,0,4.14255,1.12414,0.545216,0,0,0,0,0,0,0.00940845,3.5122,5,0.1,26,0,0.987577,-3.96166,0.653466,0,0,0,0,0,0,0.0274698,3.02755,5,0.1,27,0,3.84888,2.00291,0.600011,0,0,0,0,0,0,0.00883807,2.65808,5,0.1,28,0,-1.58451,-1.79172,0.559289,0,0,0,0,0,0,0.0125941,2.20601,5,0.1,29,0,0.0134902,1.6777,0.624134,0,0,0,0,0,0,0.00907016,0.994268,5,0.1,30,0,-1.05443,-0.22227,0.615521,0,0,0,0,0,0,0.0111398,3.51381,5,0.1,31,0,-0.857482,-3.08559,0.652122,0,0,0,0,0,0,0.0295237,3.5122,5,0.1,32,0,3.89952,-0.374286,0.593709,0,0,0,0,0,0,0.0155996,3.5122,5,0.1,33,0,-1.02949,-0.868274,0.648773,0,0,0,0,0,0,0.00893041,3.5122,5,0.1,34,0,-2.83722,-0.53845,0.602926,0,0,0,0,0,0,0.00916085,0.938078,5,0.1,35,0,-4.18725,0.525311,0.690629,0,0,0,0,0,0,0.0180607,1.54494,5,0.1,36,0,2.34109,2.63363,0.63649,0,0,0,0,0,0,0.0122904,3.51234,5,0.1,37,0,1.09034,3.17117,0.563355,0,0,0,0,0,0,0.013144,3.51219,5,0.1,38,0,-0.0905561,4.15616,0.695858,0,0,0,0,0,0,0.00865745,2.05113,5,0.1,39,0,-0.130644,3.05588,0.590456,0,0,0,0,0,0,0.01228,3.5122,5,0.1
0,0.1,-2.07707,-0.56755,0.569952,0.012669,0.0123866,0.000891276,0.225246,0.220202,0.0158474,0.0105982,0.314681,5,0.1,1,0.1,4.29207,-0.882052,0.638911,-0.0143982,0.0570633,-0.000567734,-0.255972,1.01446,-0.0100881,0.0281447,3.51222,5,0.1,2,0.1,-4.383,-2.67982,0.614038,0.0454761,-0.018397,-0.000416394,0.808448,-0.32708,-0.00740215,0.0138481,2.40641,5,0.1,3,0.1,3.80497,3.09917,0.522593,-0.0580311,-0.0120047,-0.00102622,-1.03167,-0.2134,-0.0182427,0.0146711,3.5122,5,0.1,4,0.1,-0.316668,-3.61178,0.655263,-0.0589373,0.00616014,-0.0010917,-1.04778,0.109494,-0.0194088,0.0148866,3.5122,5,0.1,5,0.1,1.40094,-1.37383,0.647567,-0.0590622,-0.00486784,-0.000838283,-1.05,-0.0865459,-0.0149049,0.0158187,3.5122,5,0.1,6,0.1,-2.92333,3.04337,0.663309,0.0530429,0.02639,-0.0016598,0.943005,0.469148,-0.0295043,0.0109283,3.5122,5,0.1,7,0.1,-2.68478,4.06625,0.536742,0.0573948,-0.000481308,0.00187643,1.02037,-0.00858307,0.0333637,0.0155727,3.29749,5,0.1,8,0.1,1.85696,-2.31967,0.558761,-0.0375824,-0.045827,-0.000435673,-0.668131,-0.814706,-0.00774115,0.0101239,3.51219,5,0.1,9,0.1,0.213995,-0.988845,0.654482,-0.0152477,0.0248847,-0.00161622,-0.271071,0.442389,-0.0287294,0.0213163,0.85421,5,0.1,10,0.1,3.95745,-1.68086,0.512261,-0.00824295,0.0586875,-0.000780635,-0.146553,1.04332,-0.0138804,0.0162067,3.5122,5,0.1,11,0.1,3.60616,-3.66028,0.655747,-0.001527,0.0592459,-0.000544824,-0.027135,1.05326,-0.00968575,0.0152847,3.5122,5,0.1,12,0.1,0.386562,3.74934,0.638469,-0.014608,-0.0574335,-0.000818446,-0.259697,-1.02103,-0.014551,0.0219768,3.5122,5,0.1,13,0.1,1.71901,2.64159,0.507498,0.0469001,0.0106324,-0.00170562,0.833787,0.189021,-0.0303239,0.0116515,2.31523,5,0.1,14,0.1,-0.41566,-1.23009,0.678104,0.0390291,-0.0169067,0.00213273,0.693854,-0.300564,0.037916,0.0130292,1.81338,5,0.1,15,0.1,-2.16852,-3.87168,0.650459,-0.033566,0.0214085,-0.00149691,-0.596717,0.380605,-0.0266097,0.0128964,1.58698,5,0.1,16,0.1,-4.10218,4.1717,0.62098,0.0407636,-0.0331342,-0.000284426,0.724733,-0.589013,-0.00505894,0.0135787,3.5188,5,0.1,17,0.1,-3.54426,3.90059,0.569438,0.0449259,-0.0386491,0.000787154,0.798658,-0.687093,0.0139922,0.0177624,3.5122,5,0.1,18,0.1,1.69891,3.56388,0.678484,-0.057959,0.0122558,0.00180304,-1.03039,0.2179,0.0320524,0.0143214,3.51219,5,0.1,19,0.1,-1.32684,-3.60165,0.64085,0.0293417,0.051482,-0.00116732,0.521637,0.915229,-0.0207499,0.014793,3.5122,5,0.1,20,0.1,-3.41546,-4.36276,0.670717,0.0581361,0.0114977,-0.00089081,1.03351,0.204384,-0.0158362,0.0113841,3.5122,5,0.1,21,0.1,-1.48801,2.87169,0.674972,0.0195608,-0.0454962,-0.00404073,0.347748,-0.808835,-0.0718348,0.0105607,2.46848,5,0.1,22,0.1,3.86032,-2.71714,0.5398,-0.00473708,0.0590749,0.000694953,-0.0842214,1.05023,0.0123531,0.0217707,3.5122,5,0.1,23,0.1,2.98108,3.22506,0.653629,0.013911,-0.0378247,-0.00159107,0.2473,-0.672445,-0.0282824,0.0110945,1.62651,5,0.1,24,0.1,2.28284,0.777462,0.592519,-0.0407524,-0.0430343,0.000118092,-0.724494,-0.765059,0.00210106,0.0140037,3.5122,5,0.1,25,0.1,4.14262,1.12622,0.545293,0.00173524,0.0592031,0.00216635,0.0308454,1.0525,0.0385083,0.00940845,3.5122,5,0.1,26,0.1,0.98592,-3.96065,0.65341,-0.0470465,0.0284974,-0.00158427,-0.836387,0.506625,-0.0281669,0.0274698,3.02755,5,0.1,27,0.1,3.84889,2.00109,0.599914,0.000218675,-0.0514859,-0.0027569,0.0038892,-0.915326,-0.0490099,0.00883807,2.65808,5,0.1,28,0.1,-1.58286,-1.79173,0.559331,0.0469558,-0.000245124,0.00120644,0.834763,-0.00435114,0.0214502,0.0125941,2.20601,5,0.1,29,0.1,0.01238,1.67767,0.624108,-0.0315156,-0.000821054,-0.000715163,-0.560278,-0.0145882,-0.0127144,0.00907016,0.994268,5,0.1,30,0.1,-1.05483,-0.224199,0.615509,-0.0113914,-0.0547765,-0.000337139,-0.202514,-0.973806,-0.00599772,0.0111398,3.51381,5,0.1,31,0.1,-0.857111,-3.08353,0.652087,0.010536,0.0583168,-0.00098506,0.187311,1.03672,-0.0175126,0.0295237,3.5122,5,0.1,32,0.1,3.89916,-0.372231,0.593713,-0.0103686,0.0583543,0.000108685,-0.184312,1.03741,0.00193343,0.0155996,3.5122,5,0.1,33,0.1,-1.02965,-0.870356,0.648773,-0.00449102,-0.059098,1.10827e-05,-0.0798479,-1.05063,0.00019744,0.00893041,3.5122,5,0.1,34,0.1,-2.83657,-0.539303,0.602986,0.0186563,-0.0242334,0.00170562,0.33167,-0.430815,0.0303239,0.00916085,0.938078,5,0.1,35,0.1,-4.18616,0.526171,0.690691,0.0307389,0.024439,0.00175945,0.546485,0.434466,0.0312775,0.0180607,1.54494,5,0.1,36,0.1,2.33927,2.63458,0.636467,-0.0518147,0.0268057,-0.000637397,-0.921145,0.476569,-0.0113323,0.0122904,3.51234,5,0.1,37,0.1,1.09242,3.17101,0.563389,0.0590829,-0.00457726,0.000979751,1.05036,-0.0813752,0.0174195,0.013144,3.51219,5,0.1,38,0.1,-0.0899931,4.15467,0.695773,0.0159828,-0.0423096,-0.00241948,0.28414,-0.752181,-0.0430159,0.00865745,2.05113,5,0.1,39,0.1,-0.130819,3.0538,0.590466,-0.00498618,-0.0590578,0.000281073,-0.0886442,-1.04991,0.00499934,0.01228,3.5122,5,0.1
0,0.2,-2.0745,-0.565034,0.570133,0.0400364,0.0391483,0.00281781,0.300407,0.293612,0.0211298,0.00902022,0.258178,5,0.1,1,0.2,4.28914,-0.870461,0.638796,-0.0455141,0.180349,-0.0017941,-0.341177,1.35258,-0.0134408,0.0322837,2.92883,5,0.1,2,0.2,-4.37376,-2.68356,0.613954,0.143731,-0.0581443,-0.00131726,1.07789,-0.436187,-0.00983477,0.00906815,1.97434,5,0.1,3,0.2,3.79318,3.09674,0.522385,-0.183403,-0.0379443,-0.00324249,-1.37568,-0.284433,-0.0243485,0.0133565,2.93197,5,0.1,4,0.2,-0.32864,-3.61053,0.655041,-0.186271,0.0194669,-0.00344962,-1.39703,0.145912,-0.0258982,0.00942682,2.92579,5,0.1,5,0.2,1.38895,-1.37482,0.647397,-0.186667,-0.015384,-0.00264943,-1.39993,-0.115335,-0.0198781,0.0138177,2.9258,5,0.1,6,0.2,-2.91255,3.04873,0.662971,0.167638,0.0834048,-0.00524521,1.25742,0.62561,-0.0393391,0.00906954,2.92578,5,0.1,7,0.2,-2.67312,4.06615,0.537123,0.181395,-0.00152588,0.00593066,1.36065,-0.0112057,0.0444949,0.0130433,2.70541,5,0.1,8,0.2,1.84933,-2.32898,0.558673,-0.118777,-0.144833,-0.00137836,-0.890851,-1.08635,-0.0102818,0.00809899,2.92579,5,0.1,9,0.2,0.210898,-0.98379,0.654154,-0.0481904,0.0786468,-0.00510812,-0.361428,0.589848,-0.038296,0.0174651,0.700837,5,0.1,10,0.2,3.95577,-1.66893,0.512102,-0.0260472,0.185481,-0.00246614,-0.195503,1.39111,-0.018537,0.0152106,2.92579,5,0.1,11,0.2,3.60585,-3.64825,0.655637,-0.00482798,0.187248,-0.00172257,-0.0361204,1.40429,-0.0129342,0.0162101,2.9258,5,0.1,12,0.2,0.383595,3.73768,0.638303,-0.046169,-0.18152,-0.00258684,-0.346243,-1.36149,-0.0194013,0.0221544,2.92578,5,0.1,13,0.2,1.72854,2.64375,0.507151,0.148228,0.0336051,-0.00539124,1.11169,0.252008,-0.0404119,0.0108889,2.06445,5,0.1,14,0.2,-0.407732,-1.23353,0.678537,0.123352,-0.0534296,0.0067398,0.925124,-0.400841,0.0505745,0.0146395,1.48778,5,0.1,15,0.2,-2.17534,-3.86733,0.650155,-0.106084,0.0676632,-0.00473112,-0.795603,0.507474,-0.0354648,0.00887362,1.30203,5,0.1,16,0.2,-4.0939,4.16497,0.620922,0.128829,-0.104725,-0.00089854,0.966549,-0.785112,-0.00676513,0.0142869,2.97718,5,0.1,17,0.2,-3.53513,3.89274,0.569598,0.14199,-0.122154,0.002487,1.0649,-0.916123,0.0186861,0.0168096,2.92579,5,0.1,18,0.2,1.68713,3.56637,0.67885,-0.18318,0.0387311,0.0056982,-1.37383,0.290632,0.0427663,0.014273,2.92579,5,0.1,19,0.2,-1.32088,-3.59119,0.640612,0.0927359,0.162709,-0.00368953,0.695467,1.22035,-0.0276566,0.0133396,2.92579,5,0.1,20,0.2,-3.40365,-4.36042,0.670536,0.183737,0.036335,-0.00281483,1.37806,0.272512,-0.0211298,0.0115621,2.92579,5,0.1,21,0.2,-1.48404,2.86245,0.674151,0.0618219,-0.14379,-0.0127703,0.463724,-1.07837,-0.0957847,0.00969135,2.02527,5,0.1,22,0.2,3.85936,-2.70514,0.539941,-0.0149667,0.1867,0.00219643,-0.112414,1.40047,0.0164807,0.0216798,2.92578,5,0.1,23,0.2,2.98391,3.21738,0.653306,0.0439644,-0.119543,-0.00502765,0.329733,-0.896692,-0.0377297,0.0188359,1.33446,5,0.1,24,0.2,2.27456,0.76872,0.592543,-0.1288,-0.136009,0.000372529,-0.965953,-1.0201,0.00283122,0.0138036,2.92579,5,0.1,25,0.2,4.14297,1.13825,0.545733,0.00548363,0.187114,0.00684559,0.0412464,1.40327,0.0513792,0.00977759,2.9258,5,0.1,26,0.2,0.976363,-3.95487,0.653088,-0.14869,0.0900686,-0.00500679,-1.1152,0.67544,-0.0375807,0.025779,1.44999,5,0.1,27,0.2,3.84893,1.99063,0.599354,0.000691414,-0.162721,-0.00871271,0.005126,-1.22046,-0.0653863,0.00945201,2.18081,5,0.1,28,0.2,-1.57332,-1.79178,0.559576,0.148404,-0.00077486,0.00381321,1.113,-0.00584126,0.0286102,0.0109867,1.80992,5,0.1,29,0.2,0.00597833,1.67751,0.623963,-0.0996049,-0.00259578,-0.00226051,-0.747037,-0.0194311,-0.0169575,0.00789584,0.815747,5,0.1,30,0.2,-1.05714,-0.235326,0.61544,-0.0360042,-0.173121,-0.00106543,-0.270009,-1.29839,-0.00801682,0.011751,2.95057,5,0.1,31,0.2,-0.854971,-3.07169,0.651887,0.0332996,0.184309,-0.00311434,0.249743,1.38223,-0.0233054,0.03206,2.9258,5,0.1,32,0.2,3.89705,-0.360377,0.593735,-0.0327706,0.184428,0.000344217,-0.24569,1.38323,0.002563,0.0149876,2.92579,5,0.1,33,0.2,-1.03056,-0.88236,0.648775,-0.0141919,-0.186779,3.42727e-05,-0.106514,-1.40086,0.000298023,0.00919697,2.92579,5,0.1,34,0.2,-2.83278,-0.544226,0.603332,0.0589669,-0.076589,0.00538975,0.442147,-0.57441,0.0404418,0.012617,0.769648,5,0.1,35,0.2,-4.17992,0.531136,0.691049,0.0971437,0.0772402,0.00555962,0.728607,0.579268,0.0417233,0.0188215,1.26755,5,0.1,36,0.2,2.32874,2.64002,0.636338,-0.163758,0.084722,-0.00201464,-1.22821,0.635386,-0.0151098,0.0149234,3.06963,5,0.1,37,0.2,1.10442,3.17008,0.563588,0.186732,-0.0144601,0.00309646,1.40047,-0.1086,0.0232458,0.00982501,2.9258,5,0.1,38,0.2,-0.0867466,4.14607,0.695282,0.0505136,-0.133729,-0.00764728,0.378851,-1.00255,-0.0573099,0.00954555,1.68287,5,0.1,39,0.2,-0.131832,3.0418,0.590523,-0.0157587,-0.186652,0.000888109,-0.118196,-1.39987,0.00664592,0.0169661,2.92237,5,0.1
0,0.3,-2.06882,-0.559489,0.570533,0.074492,0.072829,0.00524148,0.367537,0.359286,0.0258535,0.00902022,0.258178,5,0.1,1,0.3,4.28268,-0.844892,0.638542,-0.0850312,0.336265,-0.00334838,-0.424296,1.66865,-0.0166632,0.0322837,2.92883,5,0.1,2,0.3,-4.35341,-2.69179,0.613767,0.267378,-0.108176,-0.00244668,1.31902,-0.533685,-0.0120513,0.00906815,1.97434,5,0.1,3,0.3,3.76741,3.09142,0.521911,-0.3356,-0.0688486,-0.00643721,-1.58367,-0.317425,-0.0369363,0.0133565,2.93197,5,0.1,4,0.3,-0.355036,-3.60777,0.654552,-0.346942,0.0362508,-0.00642734,-1.71692,0.17938,-0.0318177,0.00942682,2.92579,5,0.1,5,0.3,1.36249,-1.377,0.647021,-0.347674,-0.0286499,-0.00493554,-1.72052,-0.141777,-0.0244267,0.0138177,2.9258,5,0.1,6,0.3,-2.8888,3.06055,0.662228,0.312249,0.155354,-0.00976976,1.54528,0.768811,-0.0483468,0.00906954,2.92578,5,0.1,7,0.3,-2.64743,4.06593,0.537963,0.337471,-0.0028193,0.011034,1.66489,-0.0138879,0.0544377,0.0130433,2.70541,5,0.1,8,0.3,1.83249,-2.3495,0.558478,-0.221233,-0.269771,-0.00256263,-1.09482,-1.33505,-0.012666,0.00809899,2.92579,5,0.1,9,0.3,0.204073,-0.972651,0.65343,-0.0896501,0.146309,-0.00950154,-0.44227,0.721786,-0.0468716,0.0174651,0.700837,5,0.1,10,0.3,3.95208,-1.64265,0.511752,-0.0485279,0.345471,-0.00459692,-0.240177,1.70964,-0.0227578,0.0152106,2.92579,5,0.1,11,0.3,3.60517,-3.62172,0.655392,-0.00898503,0.348756,-0.00320943,-0.0444204,1.72588,-0.0158884,0.0162101,2.9258,5,0.1,12,0.3,0.377052,3.71195,0.637936,-0.0859908,-0.3381,-0.0048182,-0.425538,-1.67319,-0.0238456,0.0221544,2.92578,5,0.1,13,0.3,1.74836,2.64819,0.506432,0.242512,0.0535008,-0.0087779,0.769451,0.148162,-0.0272468,0.0108889,2.06445,5,0.1,14,0.3,-0.390262,-1.24109,0.679492,0.229474,-0.0994071,0.0125407,1.13206,-0.490442,0.0618733,0.0146395,1.48778,5,0.1,15,0.3,-2.19036,-3.85775,0.649485,-0.197349,0.125876,-0.00879988,-0.973582,0.620976,-0.0434071,0.00887362,1.30203,5,0.1,16,0.3,-4.07542,4.15003,0.62079,0.246187,-0.198037,-0.00181962,1.29804,-1.01855,-0.0108629,0.0142869,2.97718,5,0.1,17,0.3,-3.51501,3.87543,0.569951,0.264463,-0.227517,0.0046351,1.30874,-1.12592,0.0229515,0.0168096,2.92579,5,0.1,18,0.3,1.66117,3.57185,0.679658,-0.341183,0.0721525,0.0106157,-1.68842,0.357106,0.0525378,0.014273,2.92579,5,0.1,19,0.3,-1.30774,-3.56813,0.64009,0.172722,0.303059,-0.00687065,0.854731,1.49976,-0.0339933,0.0133396,2.92579,5,0.1,20,0.3,-3.37761,-4.35527,0.670137,0.342226,0.0676751,-0.00524437,1.69358,0.334918,-0.0259615,0.0115621,2.92579,5,0.1,21,0.3,-1.47528,2.84208,0.672342,0.115014,-0.267493,-0.0237576,0.567414,-1.31962,-0.117209,0.00969135,2.02527,5,0.1,22,0.3,3.85724,-2.67868,0.540252,-0.0278898,0.347759,0.00409158,-0.138074,1.72104,0.0202544,0.0216798,2.92578,5,0.1,23,0.3,2.99013,3.20045,0.652593,0.0817884,-0.222401,-0.00935486,0.403479,-1.0972,-0.0461526,0.0188359,1.33446,5,0.1,24,0.3,2.25631,0.749447,0.592596,-0.239893,-0.253329,0.000697095,-1.18716,-1.25366,0.00346079,0.0138036,2.92579,5,0.1,25,0.3,4.14375,1.16476,0.546703,0.0102244,0.348506,0.0127535,0.0506341,1.72462,0.0631213,0.00977759,2.9258,5,0.1,26,0.3,0.955617,-3.94242,0.652379,-0.267725,0.158661,-0.00931686,-1.20659,0.668511,-0.0459738,0.025779,1.44999,5,0.1,27,0.3,3.84903,1.96759,0.59812,0.00128113,-0.30272,-0.016212,0.00630319,-1.49342,-0.0799857,0.00945201,2.18081,5,0.1,28,0.3,-1.5523,-1.79189,0.560116,0.276078,-0.00144411,0.00709463,1.36197,-0.00713021,0.0350028,0.0109867,1.80992,5,0.1,29,0.3,-0.00812874,1.67714,0.623643,-0.185298,-0.00482555,-0.00420576,-0.914133,-0.0237897,-0.0207461,0.00789584,0.815747,5,0.1,30,0.3,-1.06224,-0.259979,0.615291,-0.0669234,-0.325861,-0.00194246,-0.329435,-1.65636,-0.00905618,0.011751,2.95057,5,0.1,31,0.3,-0.850252,-3.04557,0.651446,0.0620226,0.343282,-0.00579599,0.30693,1.69876,-0.0286698,0.03206,2.9258,5,0.1,32,0.3,3.89241,-0.334242,0.593784,-0.0610296,0.343511,0.000639539,-0.302002,1.69994,0.00316277,0.0149876,2.92579,5,0.1,33,0.3,-1.03257,-0.908829,0.64878,-0.0264399,-0.347889,6.70552e-05,-0.130862,-1.72161,0.000342727,0.00919697,2.92579,5,0.1,34,0.3,-2.82443,-0.555073,0.604096,0.109689,-0.14248,0.0100285,0.541076,-0.702899,0.0494793,0.012617,0.769648,5,0.1,35,0.3,-4.16616,0.542075,0.691836,0.180722,0.143689,0.0103453,0.891536,0.708852,0.0510439,0.0188215,1.26755,5,0.1,36,0.3,2.30656,2.65232,0.636213,-0.276059,0.165939,0.000789668,-0.994697,0.92563,0.0621788,0.0149234,3.06963,5,0.1,37,0.3,1.13088,3.16803,0.564027,0.3478,-0.0269465,0.00576917,1.72116,-0.133395,0.0285506,0.00982501,2.9258,5,0.1,38,0.3,-0.0795923,4.12713,0.694199,0.0939721,-0.248745,-0.0142229,0.463592,-1.22702,-0.0701509,0.00954555,1.68287,5,0.1,39,0.3,-0.134065,3.01535,0.590649,-0.0293494,-0.347618,0.00165282,-0.145209,-1.71986,0.00817701,0.0169661,2.92237,5,0.1
0,0.4,-2.05957,-0.550442,0.571184,0.109863,0.107405,0.00773072,0.324249,0.317007,0.0227988,0.00890162,0.204271,5,0.1,1,0.4,4.27209,-0.803058,0.638125,-0.126028,0.497195,-0.00495911,-0.377655,1.47825,-0.014782,0.0334798,2.51337,5,0.1,2,0.4,-4.32019,-2.70523,0.613463,0.394332,-0.159538,-0.00360757,1.16348,-0.470877,-0.0106394,0.0123352,1.56212,5,0.1,3,0.4,3.72616,3.08301,0.52108,-0.485486,-0.0986159,-0.010173,-1.35231,-0.266314,-0.0358224,0.0144556,2.7535,5,0.1,4,0.4,-0.398169,-3.60326,0.653753,-0.512363,0.0535369,-0.00949353,-1.51806,0.158548,-0.0281036,0.0105624,2.51636,5,0.1,5,0.4,1.31927,-1.38056,0.646408,-0.51344,-0.0423104,-0.00728965,-1.52135,-0.125349,-0.0215769,0.015782,2.51493,5,0.1,6,0.4,-2.84998,3.07986,0.661014,0.461131,0.229424,-0.0144273,1.36626,0.679731,-0.0427663,0.0107532,2.51006,5,0.1,7,0.4,-2.60551,4.06558,0.539334,0.497693,-0.0041604,0.0162736,1.4689,-0.0121593,0.0480115,0.0145446,2.14054,5,0.1,8,0.4,1.80499,-2.38304,0.558159,-0.326717,-0.398397,-0.0037834,-0.967979,-1.18041,-0.0112057,0.00905671,2.51124,5,0.1,9,0.4,0.192936,-0.954476,0.65225,-0.132214,0.215773,-0.0140131,-0.390179,0.636786,-0.0413358,0.019544,0.55451,5,0.1,10,0.4,3.94605,-1.5997,0.511181,-0.0716686,0.510192,-0.00678897,-0.212312,1.51157,-0.0201464,0.0147469,2.5137,5,0.1,11,0.4,3.60405,-3.57836,0.654993,-0.013268,0.515044,-0.00474006,-0.0392199,1.52588,-0.0140369,0.0132164,2.51559,5,0.1,12,0.4,0.366361,3.66992,0.637337,-0.126991,-0.499302,-0.0071153,-0.376254,-1.47951,-0.0211,0.0198185,2.51089,5,0.1,13,0.4,1.77586,2.65413,0.50544,0.30162,0.0637054,-0.0108391,0.412285,0.0585318,-0.0140369,0.0149341,1.83588,5,0.1,14,0.4,-0.361754,-1.25344,0.68105,0.338423,-0.146607,0.0184953,0.998735,-0.432611,0.0545681,0.0103618,1.17715,5,0.1,15,0.4,-2.21488,-3.84211,0.648392,-0.291044,0.185633,-0.0129774,-0.858903,0.548005,-0.0383258,0.00961121,1.03019,5,0.1,16,0.4,-4.04433,4.12517,0.620552,0.374031,-0.297523,-0.00292957,1.1971,-0.924587,-0.0107586,0.0169731,2.55295,5,0.1,17,0.4,-3.48213,3.84714,0.570527,0.390559,-0.335991,0.00684559,1.15705,-0.995636,0.0202954,0.0142742,2.51008,5,0.1,18,0.4,1.61876,3.58082,0.680978,-0.503856,0.106555,0.0156775,-1.49292,0.315785,0.0464618,0.0171334,2.51184,5,0.1,19,0.4,-1.28626,-3.53046,0.639235,0.255078,0.447559,-0.0101462,0.755668,1.32596,-0.0300705,0.0146751,2.58625,5,0.1,20,0.4,-3.33507,-4.34686,0.669485,0.505394,0.0999451,-0.00774413,1.49751,0.296116,-0.0229776,0.0132784,2.51223,5,0.1,21,0.4,-1.46099,2.80885,0.669391,0.16962,-0.394493,-0.0350386,0.500619,-1.1642,-0.103384,0.00956018,1.60242,5,0.1,22,0.4,3.85377,-2.63544,0.540761,-0.0411928,0.513572,0.00604242,-0.12207,1.52171,0.0179112,0.0220335,2.51495,5,0.1,23,0.4,3.00029,3.17282,0.651431,0.120616,-0.327986,-0.013797,0.356078,-0.968099,-0.04071,0.0107246,0.861442,5,0.1,24,0.4,2.22649,0.717952,0.592682,-0.354272,-0.374116,0.00102967,-1.04964,-1.10844,0.00303984,0.0127602,2.51008,5,0.1,25,0.4,4.14502,1.20809,0.548289,0.0150919,0.514668,0.0188351,0.0450611,1.52493,0.0558197,0.0119864,2.51543,5,0.1,26,0.4,0.92306,-3.92341,0.651221,-0.379847,0.219005,-0.0137404,-0.993192,0.518441,-0.040561,0.0266796,1.12141,5,0.1,27,0.4,3.84919,1.92998,0.596106,0.00188947,-0.446445,-0.0239089,0.00548363,-1.3175,-0.0705719,0.0115195,1.72548,5,0.1,28,0.4,-1.518,-1.79207,0.560998,0.40715,-0.00212789,0.0104636,1.20163,-0.00631809,0.0308454,0.0103394,1.43203,5,0.1,29,0.4,-0.0311482,1.67654,0.62312,-0.273273,-0.00711679,-0.00620186,-0.806477,-0.0209808,-0.0182986,0.00911758,0.645428,5,0.1,30,0.4,-1.07055,-0.30076,0.615053,-0.098604,-0.486975,-0.00279397,-0.290215,-1.49177,-0.007689,0.0129238,2.53176,5,0.1,31,0.4,-0.842541,-3.00289,0.650726,0.091593,0.506955,-0.00855923,0.27141,1.50204,-0.0253618,0.027792,2.51268,5,0.1,32,0.4,3.88482,-0.291535,0.593863,-0.0901222,0.507297,0.000943244,-0.267148,1.50305,0.00283122,0.013668,2.51277,5,0.1,33,0.4,-1.03586,-0.95208,0.648789,-0.039047,-0.513761,9.98378e-05,-0.115752,-1.52224,0.000298023,0.00971573,2.53682,5,0.1,34,0.4,-2.8108,-0.572773,0.605342,0.161761,-0.210127,0.0147909,0.477433,-0.620097,0.0436306,0.0125849,0.608956,5,0.1,35,0.4,-4.14371,0.559925,0.693122,0.266528,0.211909,0.0152573,0.786543,0.625372,0.0450313,0.0239553,1.0029,5,0.1,36,0.4,2.27452,2.67359,0.636669,-0.358933,0.258774,0.00881404,-0.64826,0.883341,0.0912547,0.0127533,2.6935,5,0.1,37,0.4,1.17412,3.16468,0.564745,0.513631,-0.039798,0.00852048,1.52177,-0.117898,0.0252426,0.0131463,2.515,5,0.1,38,0.4,-0.0679183,4.09623,0.692432,0.138588,-0.366843,-0.0209749,0.409,-1.08242,-0.0618994,0.0121617,1.33152,5,0.1,39,0.4,-0.137714,2.97214,0.590854,-0.0433389,-0.513303,0.00244081,-0.128366,-1.52051,0.00724196,0.0128618,2.31546,5,0.1
0,0.5,-2.04693,-0.538087,0.572073,0.142761,0.139567,0.0100441,0.317544,0.310473,0.0223294,0.00890162,0.204271,5,0.1,1,0.5,4.25754,-0.745818,0.637553,-0.164966,0.646996,-0.00648312,-0.381023,1.44389,-0.0149161,0.0334798,2.51337,5,0.1,2,0.5,-4.27483,-2.72358,0.613048,0.512385,-0.207311,-0.00468763,1.13967,-0.461161,-0.0104271,0.0123352,1.56212,5,0.1,3,0.5,3.67182,3.07211,0.519805,-0.591375,-0.11644,-0.0159508,-0.76662,-0.0969917,-0.073269,0.0144556,2.7535,5,0.1,4,0.5,-0.456994,-3.59721,0.652661,-0.662381,0.0665057,-0.0123498,-1.41474,0.0998825,-0.0276156,0.0105624,2.51636,5,0.1,5,0.5,1.26033,-1.38544,0.645568,-0.663592,-0.0552099,-0.0095102,-1.41311,-0.126004,-0.0216924,0.015782,2.51493,5,0.1,6,0.5,-2.79684,3.1063,0.659351,0.601723,0.29937,-0.0188277,1.37329,0.683233,-0.0429787,0.0107532,2.51006,5,0.1,7,0.5,-2.54826,4.06511,0.541206,0.646723,-0.00539869,0.0211449,1.4386,-0.0119805,0.0470281,0.0145446,2.14054,5,0.1,8,0.5,1.7674,-2.429,0.557774,-0.424754,-0.521101,-0.00350038,-0.945017,-1.20844,0.0142716,0.00905671,2.51124,5,0.1,9,0.5,0.177728,-0.929656,0.650638,-0.171802,0.280382,-0.0182074,-0.382154,0.623688,-0.0404939,0.019544,0.55451,5,0.1,10,0.5,3.93779,-1.5411,0.510398,-0.093516,0.660204,-0.00886098,-0.213385,1.419,-0.0202283,0.0147469,2.5137,5,0.1,11,0.5,3.60252,-3.51924,0.654447,-0.0173066,0.665246,-0.00618445,-0.0394732,1.41014,-0.0141077,0.0132164,2.51559,5,0.1,12,0.5,0.351728,3.61247,0.636517,-0.165709,-0.64889,-0.00928603,-0.378193,-1.43892,-0.0211969,0.0198185,2.51089,5,0.1,13,0.5,1.80824,2.66013,0.504315,0.346668,0.0506137,-0.0113933,0.454158,-0.282839,0.00197813,0.0149341,1.83588,5,0.1,14,0.5,-0.322827,-1.27031,0.683177,0.439754,-0.190499,0.0240318,0.978194,-0.4237,0.0534467,0.0103618,1.17715,5,0.1,15,0.5,-2.24836,-3.82076,0.646899,-0.378189,0.24123,-0.0168654,-0.84126,0.536665,-0.0375323,0.00961121,1.03019,5,0.1,16,0.5,-4.00071,4.09064,0.620202,0.499014,-0.393511,-0.00407938,1.23647,-0.945032,-0.011608,0.0169731,2.55295,5,0.1,17,0.5,-3.43713,3.80842,0.571316,0.509626,-0.438442,0.00893343,1.16305,-1.00072,0.0203848,0.0142742,2.51008,5,0.1,18,0.5,1.56083,3.5931,0.682784,-0.653621,0.139048,0.0204579,-1.43059,0.31735,0.0466891,0.0171334,2.51184,5,0.1,19,0.5,-1.25687,-3.47999,0.638066,0.332726,0.552866,-0.0132359,0.757545,0.78702,-0.0301413,0.0146751,2.58625,5,0.1,20,0.5,-3.27697,-4.33534,0.668592,0.655222,0.130416,-0.0101077,1.4278,0.297636,-0.0230782,0.0132784,2.51223,5,0.1,21,0.5,-1.44148,2.76348,0.665361,0.220411,-0.512614,-0.0455284,0.490285,-1.14025,-0.101265,0.00956018,1.60242,5,0.1,22,0.5,3.84902,-2.57648,0.541457,-0.0537518,0.663727,0.00788542,-0.122651,1.41287,0.0179969,0.0220335,2.51495,5,0.1,23,0.5,3.01417,3.13587,0.649844,0.156741,-0.40406,-0.0179272,0.348702,-0.554398,-0.0398681,0.0107246,0.861442,5,0.1,24,0.5,2.18566,0.67484,0.592801,-0.462284,-0.488178,0.0013425,-1.05505,-1.11414,0.00305101,0.0127602,2.51008,5,0.1,25,0.5,4.14676,1.26716,0.550459,0.0197209,0.664865,0.0245785,0.0451505,1.41086,0.0560954,0.0119864,2.51543,5,0.1,26,0.5,0.880115,-3.89897,0.649641,-0.477823,0.268816,-0.0178551,-0.921272,0.456318,-0.039719,0.0266796,1.12141,5,0.1,27,0.5,3.84941,1.87863,0.593356,0.00244826,-0.580118,-0.0310685,0.00539422,-1.2904,-0.0691041,0.0115195,1.72548,5,0.1,28,0.5,-1.47117,-1.79232,0.562201,0.529066,-0.0027677,0.0135936,1.17689,-0.00617653,0.0302196,0.0103394,1.43203,5,0.1,29,0.5,-0.0625816,1.67572,0.622407,-0.355098,-0.00924617,-0.00805864,-0.789884,-0.0205636,-0.0179224,0.00911758,0.645428,5,0.1,30,0.5,-1.0819,-0.357075,0.614734,-0.128415,-0.638976,-0.00357041,-0.290744,-1.47246,-0.00745431,0.0129238,2.53176,5,0.1,31,0.5,-0.831986,-2.94463,0.649739,0.119521,0.656842,-0.0111696,0.272796,1.42491,-0.0254996,0.027792,2.51268,5,0.1,32,0.5,3.87443,-0.233243,0.593972,-0.11761,0.657196,0.001234,-0.268489,1.4243,0.00283122,0.013668,2.51277,5,0.1,33,0.5,-1.04019,-1.01082,0.648819,-0.046313,-0.657335,0.00067465,-0.0337735,-1.29774,0.00996888,0.00971573,2.53682,5,0.1,34,0.5,-2.79219,-0.596943,0.607043,0.210201,-0.273043,0.0192178,0.467628,-0.607349,0.0427365,0.0125849,0.608956,5,0.1,35,0.5,-4.11305,0.5843,0.694877,0.34633,0.27536,0.019826,0.77039,0.612509,0.0441,0.0239553,1.0029,5,0.1,36,0.5,2.23498,2.70398,0.63797,-0.434306,0.348946,0.0168245,-0.801563,0.874579,0.0676885,0.0127533,2.6935,5,0.1,37,0.5,1.23308,3.16009,0.565726,0.663781,-0.0519291,0.0111179,1.41273,-0.118494,0.0253692,0.0131463,2.515,5,0.1,38,0.5,-0.0519771,4.05404,0.690019,0.180084,-0.476674,-0.0272557,0.400583,-1.06028,-0.0606328,0.0121617,1.33152,5,0.1,39,0.5,-0.142702,2.91321,0.591135,-0.0563731,-0.663372,0.00317609,-0.125913,-1.41308,0.00710413,0.0128618,2.31546,5,0.1
0,0.6,-2.03119,-0.522695,0.57318,0.170624,0.166811,0.0120044,0.228524,0.223368,0.0160336,0.00989452,0.152073,5,0.1,1,0.6,4.23927,-0.674451,0.636835,-0.198793,0.773503,-0.00780672,-0.281572,1.03545,-0.0109971,0.0329654,2.317,5,0.1,2,0.6,-4.21833,-2.74644,0.612532,0.61239,-0.247777,-0.00560433,0.819921,-0.331759,-0.00748038,0.0112822,1.16298,5,0.1,3,0.6,3.60981,3.06022,0.517825,-0.639528,-0.119328,-0.0236899,-0.202417,0.0327826,-0.0766516,0.0161007,2.91815,5,0.1,4,0.6,-0.529684,-3.59016,0.651298,-0.783996,0.0734031,-0.014776,-0.971973,0.0377893,-0.019908,0.0100962,2.33155,5,0.1,5,0.6,1.18754,-1.39155,0.644516,-0.784743,-0.0663787,-0.0114337,-0.965297,-0.0926852,-0.0159442,0.0158348,2.33153,5,0.1,6,0.6,-2.73028,3.13941,0.657268,0.723439,0.359923,-0.0226378,1.00982,0.502467,-0.0315905,0.0104527,2.23955,5,0.1,7,0.6,-2.47694,4.06451,0.543538,0.772959,-0.00646114,0.0252724,1.03498,-0.00858307,0.0337958,0.0136106,1.64046,5,0.1,8,0.6,1.72055,-2.48675,0.557519,-0.507596,-0.62893,-0.00139624,-0.678241,-0.901937,0.025779,0.0100145,2.21993,5,0.1,9,0.6,0.158781,-0.898735,0.64863,-0.205338,0.335112,-0.0217617,-0.274912,0.448674,-0.0291467,0.0171262,0.41282,5,0.1,10,0.6,3.92744,-1.4686,0.509418,-0.112432,0.782433,-0.0106528,-0.156879,0.979602,-0.0149012,0.0164371,2.32531,5,0.1,11,0.6,3.60061,-3.44631,0.653763,-0.020802,0.785869,-0.00743419,-0.0292063,0.958323,-0.0103712,0.015477,2.33465,5,0.1,12,0.6,0.333397,3.54095,0.63549,-0.199229,-0.774723,-0.0111654,-0.27813,-1.02746,-0.0155866,0.0229256,2.30572,5,0.1,13,0.6,1.84502,2.66347,0.503205,0.386542,0.0138462,-0.010626,0.318825,-0.422835,0.012517,0.00779218,0.83181,5,0.1,14,0.6,-0.27433,-1.29132,0.685828,0.525595,-0.227684,0.0287235,0.7037,-0.304699,0.0384152,0.0127507,0.876358,5,0.1,15,0.6,-2.29006,-3.79415,0.645039,-0.452012,0.28832,-0.0201598,-0.605106,0.386119,-0.0269711,0.0135152,0.766946,5,0.1,16,0.6,-3.945,4.04686,0.619739,0.610012,-0.477934,-0.00513941,0.93627,-0.707626,-0.00920892,0.0149581,2.25174,5,0.1,17,0.6,-3.38075,3.75992,0.572304,0.612706,-0.527138,0.0107408,0.855446,-0.735879,0.0149608,0.0178995,2.21915,5,0.1,18,0.6,1.4889,3.60849,0.685047,-0.777948,0.167173,0.0245959,-1.0075,0.233412,0.0343323,0.0146377,2.31372,5,0.1,19,0.6,-1.22008,-3.42161,0.636603,0.399804,0.606436,-0.0159055,0.555933,0.292182,-0.0220835,0.0150307,2.16806,5,0.1,20,0.6,-3.2049,-4.32092,0.667474,0.779039,0.156808,-0.0121534,1.00076,0.21863,-0.0169575,0.0120135,2.31648,5,0.1,21,0.6,-1.41717,2.70694,0.66034,0.263438,-0.612676,-0.0544146,0.352621,-0.820398,-0.0728667,0.011096,1.19296,5,0.1,22,0.6,3.84308,-2.50368,0.542329,-0.0646234,0.784838,0.00948012,-0.0902414,0.964642,0.0132322,0.0241264,2.33172,5,0.1,23,0.6,3.03146,3.09337,0.647867,0.187337,-0.439411,-0.0214264,0.250936,-0.157118,-0.0286698,0.0131644,0.784325,5,0.1,24,0.6,2.13452,0.620838,0.59295,-0.555795,-0.586927,0.00161231,-0.775933,-0.819325,0.00226498,0.0123722,2.21915,5,0.1,25,0.6,4.14894,1.34006,0.553178,0.0237226,0.785613,0.0295505,0.0329018,0.959873,0.0412464,0.0107574,2.33391,5,0.1,26,0.6,0.828148,-3.87005,0.647672,-0.556482,0.306678,-0.0213414,-0.620723,0.286222,-0.0285506,0.0272149,0.815249,5,0.1,27,0.6,3.84968,1.81465,0.58993,0.00292659,-0.693357,-0.0371337,0.0038147,-0.928283,-0.0496805,0.0102635,1.28468,5,0.1,28,0.6,-1.41282,-1.79262,0.5637,0.632346,-0.00330806,0.0162467,0.846565,-0.00441074,0.0217259,0.0116432,1.06611,5,0.1,29,0.6,-0.101743,1.6747,0.621518,-0.424414,-0.0110507,-0.00963062,-0.568226,-0.014782,-0.0129342,0.00858994,0.492476,5,0.1,30,0.6,-1.09609,-0.427795,0.614343,-0.154147,-0.768661,-0.00421852,-0.213027,-1.06892,-0.00530481,0.0134096,2.32556,5,0.1,31,0.6,-0.818764,-2.87242,0.648504,0.143699,0.780141,-0.0134289,0.200599,0.993848,-0.0187755,0.0284013,2.31933,5,0.1,32,0.6,3.86142,-0.161002,0.594109,-0.141406,0.780383,0.00148565,-0.19753,0.992353,0.00205636,0.0146482,2.31993,5,0.1,33,0.6,-1.04489,-1.08233,0.648944,-0.046587,-0.764713,0.00187606,0.0244975,-0.815511,0.013113,0.008797,2.55371,5,0.1,34,0.6,-2.76901,-0.627055,0.609162,0.251234,-0.32634,0.0229686,0.336409,-0.436932,0.0307262,0.010715,0.453355,5,0.1,35,0.6,-4.07486,0.614668,0.697063,0.41393,0.329112,0.0236958,0.554323,0.440627,0.0317395,0.0231511,0.746641,5,0.1,36,0.6,2.18768,2.74293,0.639944,-0.509244,0.425977,0.0221625,-0.654697,0.634313,0.038445,0.014144,2.79695,5,0.1,37,0.6,1.30589,3.15435,0.566956,0.784871,-0.0624299,0.0133649,0.964463,-0.087142,0.0186861,0.0141953,2.50339,5,0.1,38,0.6,-0.0321169,4.00147,0.687013,0.215238,-0.569719,-0.0325769,0.28817,-0.76282,-0.0436306,0.00916537,0.991316,5,0.1,39,0.6,-0.148922,2.84044,0.591486,-0.0674307,-0.784636,0.0037998,-0.0907257,-0.967264,0.005126,0.0115661,1.79492,5,0.1
0,0.7,-2.013,-0.504916,0.57446,0.192561,0.188254,0.0135443,0.197679,0.193242,0.0138842,0.00989452,0.152073,5,0.1,1,0.7,4.21797,-0.592963,0.636245,-0.226986,0.846213,-0.0019175,-0.264704,0.435058,0.113938,0.0329654,2.317,5,0.1,2,0.7,-4.15306,-2.77285,0.611934,0.691107,-0.279626,-0.00632312,0.709414,-0.286996,-0.00648201,0.0112822,1.16298,5,0.1,3,0.7,3.54553,3.04922,0.515156,-0.639403,-0.0939235,-0.0289098,0.193194,0.430137,-0.0297166,0.0161007,2.91815,5,0.1,4,0.7,-0.61188,-3.58255,0.649719,-0.849898,0.0794001,-0.0167981,-0.372227,0.0729263,-0.0192001,0.0100962,2.33155,5,0.1,5,0.7,1.10529,-1.39865,0.643292,-0.850106,-0.0756808,-0.013034,-0.368297,-0.0874847,-0.0150576,0.0158348,2.33153,5,0.1,6,0.7,-2.65338,3.17795,0.654844,0.80867,0.410361,-0.0258092,0.669241,0.474468,-0.0298321,0.0104527,2.23955,5,0.1,7,0.7,-2.3955,4.06382,0.546231,0.84585,-0.00728741,0.0285176,0.439256,-0.00748038,0.0292473,0.0136106,1.64046,5,0.1,8,0.7,1.66638,-2.55423,0.55753,-0.575053,-0.719956,0.00176243,-0.628427,-0.861108,0.0353307,0.0100145,2.21993,5,0.1,9,0.7,0.136896,-0.863019,0.646311,-0.23173,0.378186,-0.02456,-0.237853,0.38819,-0.0252239,0.0171262,0.41282,5,0.1,10,0.7,3.9154,-1.38651,0.508277,-0.128178,0.849304,-0.0121471,-0.148118,0.382043,-0.0140481,0.0164371,2.32531,5,0.1,11,0.7,3.59838,-3.36399,0.652967,-0.0237308,0.850497,-0.00847513,-0.0275373,0.361592,-0.00979379,0.015477,2.33465,5,0.1,12,0.7,0.312065,3.45938,0.634295,-0.227145,-0.846629,-0.0127296,-0.262585,-0.427902,-0.0147112,0.0229256,2.30572,5,0.1,13,0.7,1.88345,2.66285,0.502217,0.366143,-0.0248671,-0.00903634,-0.636652,-0.346273,0.0185557,0.00779218,0.83181,5,0.1,14,0.7,-0.218312,-1.31558,0.688889,0.593153,-0.256938,0.0324123,0.608837,-0.263661,0.0332445,0.0127507,0.876358,5,0.1,15,0.7,-2.33824,-3.76342,0.64289,-0.510105,0.325385,-0.0227494,-0.523567,0.334024,-0.0233352,0.0135152,0.766946,5,0.1,16,0.7,-3.87932,3.99552,0.619179,0.702303,-0.54795,-0.0060387,0.856608,-0.65136,-0.0083074,0.0149581,2.25174,5,0.1,17,0.7,-3.31515,3.70348,0.573454,0.698576,-0.601006,0.0122429,0.807792,-0.694871,0.0141375,0.0178995,2.21915,5,0.1,18,0.7,1.40711,3.62639,0.687681,-0.847749,0.190596,0.0280412,-0.408709,0.220284,0.0324026,0.0146377,2.31372,5,0.1,19,0.7,-1.17735,-3.36069,0.634903,0.453609,0.60227,-0.0180434,0.489339,-0.293508,-0.019446,0.0150307,2.16806,5,0.1,20,0.7,-3.12304,-4.30413,0.666173,0.848129,0.178757,-0.0138553,0.402212,0.20653,-0.0160113,0.0120135,2.31648,5,0.1,21,0.7,-1.3891,2.64164,0.65454,0.297291,-0.691436,-0.06141,0.305086,-0.709802,-0.0630431,0.011096,1.19296,5,0.1,22,0.7,3.83616,-2.42143,0.543344,-0.0736784,0.850138,0.010808,-0.0851601,0.367746,0.0124946,0.0241264,2.33172,5,0.1,23,0.7,3.05119,3.0495,0.645623,0.204967,-0.430253,-0.0230555,0.102252,0.308633,-0.00483915,0.0131644,0.784325,5,0.1,24,0.7,2.07501,0.557994,0.593122,-0.633685,-0.669173,0.00183918,-0.73272,-0.773711,0.00213087,0.0123722,2.21915,5,0.1,25,0.7,4.15148,1.42237,0.556342,0.0270255,0.850407,0.0336892,0.0310838,0.363126,0.0389181,0.0107574,2.33391,5,0.1,26,0.7,0.76949,-3.83802,0.645397,-0.614833,0.332916,-0.0240826,-0.511054,0.221685,-0.0247024,0.0272149,0.815249,5,0.1,27,0.7,3.84999,1.74079,0.585972,0.00329614,-0.781476,-0.0419033,0.00336766,-0.785246,-0.0429861,0.0102635,1.28468,5,0.1,28,0.7,-1.34543,-1.79297,0.565432,0.71362,-0.00373162,0.0183329,0.732444,-0.0038147,0.0188053,0.0116432,1.06611,5,0.1,29,0.7,-0.146639,1.67352,0.620492,-0.469392,-0.0124706,-0.0108718,-0.321763,-0.0127926,-0.0111796,0.00858994,0.492476,5,0.1,30,0.7,-1.11259,-0.508968,0.613894,-0.175498,-0.844644,-0.00474518,-0.200525,-0.463007,-0.00488386,0.0134096,2.32556,5,0.1,31,0.7,-0.803378,-2.79049,0.647066,0.163832,0.84851,-0.0153132,0.189357,0.395671,-0.0177249,0.0284013,2.31933,5,0.1,32,0.7,3.84628,-0.0790531,0.594268,-0.161228,0.848593,0.0016924,-0.186428,0.394229,0.0019446,0.0146482,2.31993,5,0.1,33,0.7,-1.0495,-1.16168,0.649282,-0.0464231,-0.810783,0.00558821,-0.0149608,-0.126183,0.0552945,0.008797,2.55371,5,0.1,34,0.7,-2.74224,-0.661836,0.61161,0.28353,-0.368287,0.0259188,0.291049,-0.378035,0.0265874,0.010715,0.453355,5,0.1,35,0.7,-4.03074,0.649744,0.699588,0.467147,0.371414,0.0267426,0.479579,0.381228,0.0274554,0.0231511,0.746641,5,0.1,36,0.7,2.13422,2.78737,0.64242,-0.552848,0.45084,0.0278775,-0.223383,-0.0897497,0.0695214,0.014144,2.79695,5,0.1,37,0.7,1.38814,3.1486,0.568261,0.849728,-0.0444625,0.0116407,0.347055,0.392631,-0.0463538,0.0141953,2.50339,5,0.1,38,0.7,-0.00917703,3.94075,0.683541,0.242903,-0.642956,-0.0367657,0.249322,-0.660032,-0.0377484,0.00916537,0.991316,5,0.1,39,0.7,-0.156111,2.75821,0.591891,-0.0761454,-0.85002,0.00429191,-0.0785906,-0.36861,0.00444055,0.0115661,1.79492,5,0.1
0,0.8,-1.99289,-0.485257,0.575874,0.208059,0.203405,0.0146329,0.103772,0.101492,0.00730157,0.0138076,0.182057,5,0.1,1,0.8,4.19409,-0.506986,0.636728,-0.248778,0.866026,0.0123352,-0.158548,-1.43051e-05,0.159532,0.0289559,2.22806,5,0.1,2,0.8,-4.08088,-2.80205,0.611274,0.746727,-0.302124,-0.00683218,0.372648,-0.1508,-0.00339746,0.0119473,0.821137,5,0.1,3,0.8,3.48313,3.04233,0.512181,-0.603306,-0.0413775,-0.0300094,0.516415,0.585079,0.00596046,0.0182012,2.99857,5,0.1,4,0.8,-0.697989,-3.57425,0.647953,-0.866026,0.086385,-0.0183895,0,0.0598431,-0.0117123,0.0127503,2.26513,5,0.1,5,0.8,1.01918,-1.40661,0.641921,-0.866024,-0.0828832,-0.0142738,-2.98023e-05,-0.0525117,-0.00905991,0.0158042,2.33176,5,0.1,6,0.8,-2.56988,3.2211,0.652131,0.854206,0.449437,-0.028266,0.236392,0.28491,-0.0179112,0.0107397,1.78722,5,0.1,7,0.8,-2.30954,4.06306,0.549209,0.866026,-0.00787973,0.0308111,0,-0.0038147,0.0153482,0.0137807,1.20969,5,0.1,8,0.8,1.6061,-2.63008,0.557885,-0.626108,-0.791413,0.00530779,-0.36341,-0.528216,0.0340641,0.0100521,2.19563,5,0.1,9,0.8,0.112696,-0.823524,0.643746,-0.250379,0.408621,-0.026536,-0.124898,0.203848,-0.0132918,0.016641,0.430352,5,0.1,10,0.8,3.90193,-1.30043,0.507,-0.140375,0.866026,-0.0133038,-0.0889301,-5.96046e-05,-0.00840425,0.0155524,2.2567,5,0.1,11,0.8,3.59588,-3.27786,0.652076,-0.0259995,0.866026,-0.00928193,-0.0164509,0,-0.00587106,0.0141258,2.27133,5,0.1,12,0.8,0.288181,3.37339,0.632956,-0.248767,-0.866026,-0.0139415,-0.157684,0,-0.00882149,0.0191332,2.22488,5,0.1,13,0.8,1.91592,2.65879,0.501411,0.275466,-0.054574,-0.00704676,-1.10441,-0.244856,0.0207126,0.0108059,0.451584,5,0.1,14,0.8,-0.156368,-1.34241,0.692273,0.640887,-0.277606,0.0350192,0.319715,-0.138521,0.0174344,0.0103381,0.61876,5,0.1,15,0.8,-2.39151,-3.72944,0.640514,-0.551152,0.351572,-0.0245795,-0.275016,0.175476,-0.0122488,0.00938271,0.541507,5,0.1,16,0.8,-3.80529,3.93784,0.618539,0.772393,-0.601238,-0.0067234,0.509024,-0.385642,-0.00503659,0.0182643,2.07234,5,0.1,17,0.8,-3.24169,3.64029,0.574741,0.765097,-0.658232,0.0134066,0.485182,-0.417352,0.00849366,0.0142726,1.80206,5,0.1,18,0.8,1.32108,3.64643,0.690629,-0.866023,0.20873,0.0307083,-5.96046e-05,0.132203,0.0194609,0.017277,2.13833,5,0.1,19,0.8,-1.12986,-3.30237,0.633014,0.492495,0.560832,-0.0195891,0.267446,-0.486374,-0.0106096,0.0122403,1.7967,5,0.1,20,0.8,-3.037,-4.28533,0.664716,0.866026,0.195765,-0.0151724,0,0.123739,-0.00962615,0.0159423,2.24245,5,0.1,21,0.8,-1.35805,2.56944,0.648127,0.321209,-0.747085,-0.0663519,0.160217,-0.372648,-0.0331402,0.00912781,0.842292,5,0.1,22,0.8,3.82841,-2.33532,0.544481,-0.0806928,0.866026,0.011836,-0.0510216,0,0.00751019,0.0260701,2.26679,5,0.1,23,0.8,3.07196,3.00857,0.643327,0.208032,-0.383544,-0.0225738,-0.0391006,0.598788,0.0135899,0.00916293,0.513768,5,0.1,24,0.8,2.00838,0.487632,0.593316,-0.694025,-0.73289,0.00201464,-0.440121,-0.464708,0.0012517,0.0133139,2.04191,5,0.1,25,0.8,4.15432,1.50849,0.559884,0.0295877,0.866023,0.0368938,0.0183582,5.96046e-05,0.0233352,0.0108177,1.06173,5,0.1,26,0.8,0.705868,-3.80384,0.642882,-0.652817,0.348216,-0.0260189,-0.225097,0.0730753,-0.012964,0.0263535,0.564737,5,0.1,27,0.8,3.85033,1.65928,0.581596,0.0035584,-0.842291,-0.0452727,0.00178814,-0.398695,-0.0225902,0.00993414,0.92046,5,0.1,28,0.8,-1.2709,-1.79336,0.567346,0.771046,-0.00402927,0.0198066,0.384629,-0.00202656,0.00989437,0.0118719,0.752733,5,0.1,29,0.8,-0.194718,1.67222,0.619356,-0.487374,-0.0134736,-0.0117481,-0.0335056,-0.00673532,-0.00587106,0.0129356,0.428916,5,0.1,30,0.8,-1.13103,-0.594889,0.613398,-0.191972,-0.866026,-0.00513792,-0.119627,0,-0.00277162,0.0117717,2.24387,5,0.1,31,0.8,-0.786152,-2.70443,0.645455,0.179423,0.86602,-0.0167713,0.113666,0.000119209,-0.0106692,0.0277174,2.24709,5,0.1,32,0.8,3.82933,0.00700826,0.594445,-0.176573,0.866025,0.00185221,-0.112057,0,0.00116229,0.0129642,2.24806,5,0.1,33,0.8,-1.05424,-1.24239,0.650148,-0.0484824,-0.794074,0.0119016,-0.0215173,0.439346,0.0664294,0.0120937,2.59074,5,0.1,34,0.8,-2.71263,-0.700297,0.614317,0.30635,-0.397925,0.0280052,0.152826,-0.198543,0.0139177,0.0100959,0.320094,5,0.1,35,0.8,-3.98196,0.688532,0.702381,0.504744,0.401303,0.0288948,0.251889,0.200212,0.0144243,0.0169179,0.527167,5,0.1,36,0.8,2.07848,2.83114,0.645564,-0.555354,0.416762,0.0349611,0.164747,-0.551701,0.0673532,0.0144171,2.69705,5,0.1,37,0.8,1.47394,3.14655,0.569132,0.85783,0.00647902,0.00531524,-0.163913,0.583768,-0.0746846,0.011158,1.88714,5,0.1,38,0.8,0.0161897,3.8736,0.679702,0.26245,-0.69471,-0.0397265,0.130922,-0.346661,-0.0198185,0.0126341,0.699941,5,0.1,39,0.8,-0.164065,2.67209,0.592339,-0.0823148,-0.866026,0.00464022,-0.0414327,0,0.00232458,0.00929428,1.34606,5,0.1
0,0.9,-1.97141,-0.464248,0.577385,0.22281,0.217831,0.0156711,0.169195,0.165474,0.0119098,0.0138076,0.182057,5,0.1,1,0.9,4.16839,-0.420384,0.638862,-0.265124,0.866025,0.0310593,-0.151694,0,0.203136,0.0289559,2.22806,5,0.1,2,0.9,-4.00443,-2.83298,0.610575,0.780495,-0.315786,-0.00714054,0.266939,-0.107974,-0.00244007,0.0119473,0.821137,5,0.1,3,0.9,3.4251,3.04144,0.509347,-0.559381,0.025953,-0.0254889,0.383139,0.723734,0.076998,0.0182012,2.99857,5,0.1,4,0.9,-0.784591,-3.56527,0.646053,-0.866026,0.0935972,-0.019608,3.72529e-06,0.0760853,-0.0113957,0.0127503,2.26513,5,0.1,5,0.9,0.932597,-1.41569,0.640421,-0.865051,-0.103081,-0.0159374,0.0348985,-0.313044,-0.021629,0.0158042,2.33176,5,0.1,6,0.9,-2.48374,3.26747,0.649215,0.865189,0.477131,-0.0300072,0.02563,0.242576,-0.0152513,0.0107397,1.78722,5,0.1,7,0.9,-2.22294,4.06226,0.552364,0.865696,-0.00823066,0.0322023,-0.0132024,-0.00277162,0.0110045,0.0137807,1.20969,5,0.1,8,0.9,1.54282,-2.71171,0.558595,-0.628964,-0.838678,0.00895988,0.270016,-0.381261,0.0371113,0.0100521,2.19563,5,0.1,9,0.9,0.0870627,-0.781533,0.641029,-0.261696,0.431538,-0.02774,-0.0894645,0.225037,-0.00951439,0.016641,0.430352,5,0.1,10,0.9,3.88743,-1.21382,0.505649,-0.149563,0.866025,-0.0135263,-0.0853688,1.49012e-05,0.00341237,0.0155524,2.2567,5,0.1,11,0.9,3.5932,-3.19126,0.651117,-0.0277009,0.866026,-0.00988888,-0.0158399,0,-0.00564381,0.0141258,2.27133,5,0.1,12,0.9,0.262485,3.28679,0.631516,-0.265042,-0.866026,-0.0148524,-0.151113,0,-0.00845641,0.0191332,2.22488,5,0.1,13,0.9,1.93776,2.65183,0.50081,0.160437,-0.0867575,-0.0050013,-1.16173,-0.371307,0.0197701,0.0108059,0.451584,5,0.1,14,0.9,-0.0907543,-1.37084,0.695859,0.669858,-0.290158,0.0365997,0.229012,-0.0992194,0.0125021,0.0103381,0.61876,5,0.1,15,0.9,-2.44794,-3.69345,0.637998,-0.576074,0.367471,-0.0256895,-0.196993,0.125661,-0.00877306,0.00938271,0.541507,5,0.1,16,0.9,-3.72545,3.87573,0.617841,0.823661,-0.640535,-0.00723191,0.46663,-0.360847,-0.00467896,0.0182643,2.07234,5,0.1,17,0.9,-3.16273,3.57236,0.576125,0.813163,-0.699578,0.0142481,0.429198,-0.369191,0.00751764,0.0142726,1.80206,5,0.1,18,0.9,1.23448,3.66798,0.6938,-0.866026,0.222134,0.0326813,-7.45058e-06,0.122413,0.0180118,0.017277,2.13833,5,0.1,19,0.9,-1.07933,-3.24897,0.631004,0.517003,0.507754,-0.0205617,0.198267,-0.468895,-0.00786781,0.0122403,1.7967,5,0.1,20,0.9,-2.9504,-4.26511,0.663149,0.866026,0.208563,-0.0161665,0,0.11903,-0.00924245,0.0159423,2.24245,5,0.1,21,0.9,-1.32517,2.49295,0.641334,0.335727,-0.780852,-0.0693546,0.114754,-0.266925,-0.0237338,0.00912781,0.842292,5,0.1,22,0.9,3.82007,-2.24871,0.545703,-0.0859655,0.866026,0.0126115,-0.0490248,0,0.00720844,0.0260701,2.26679,5,0.1,23,0.9,3.09247,2.9735,0.64118,0.201214,-0.315289,-0.0199963,-0.0983328,0.743568,0.0357665,0.00916293,0.513768,5,0.1,24,0.9,1.93669,0.411921,0.593524,-0.739624,-0.781038,0.00214474,-0.424854,-0.448602,0.00121072,0.0133139,2.04191,5,0.1,25,0.9,4.15813,1.59306,0.563543,0.0529394,0.807454,0.0350033,0.398636,-1.07729,-0.0540204,0.0108177,1.06173,5,0.1,26,0.9,0.639536,-3.76869,0.640219,-0.67235,0.353975,-0.0271938,-0.13737,0.0285059,-0.00928715,0.0263535,0.564737,5,0.1,27,0.9,3.8507,1.57373,0.576961,0.00372194,-0.86319,-0.0473195,0.0013262,-0.0622347,-0.0161789,0.00993414,0.92046,5,0.1,28,0.9,-1.19196,-1.79378,0.569374,0.805899,-0.00421237,0.0207033,0.275522,-0.00145286,0.0070855,0.0118719,0.752733,5,0.1,29,0.9,-0.242832,1.67084,0.618154,-0.467906,-0.0140846,-0.0122798,0.38709,-0.00482798,-0.00420585,0.0129356,0.428916,5,0.1,30,0.9,-1.15085,-0.681491,0.61287,-0.204313,-0.866026,-0.00542393,-0.114404,3.72529e-06,-0.00261888,0.0117717,2.24387,5,0.1,31,0.9,-0.767619,-2.61783,0.643723,0.191152,0.866025,-0.0178713,0.108864,1.49012e-05,-0.0102073,0.0277174,2.24709,5,0.1,32,0.9,3.81109,0.0936108,0.594637,-0.188134,0.866025,0.00197254,-0.107303,7.45058e-07,0.00111759,0.0129642,2.24806,5,0.1,33,0.9,-1.05998,-1.31969,0.651695,-0.0726912,-0.752227,0.0191985,-0.410169,0.420429,0.0753179,0.0120937,2.59074,5,0.1,34,0.9,-2.68126,-0.741037,0.617184,0.320199,-0.415916,0.029267,0.109464,-0.142213,0.00997633,0.0100959,0.320094,5,0.1,35,0.9,-3.93028,0.729617,0.70534,0.527567,0.419445,0.0302016,0.180393,0.143413,0.0103302,0.0169179,0.527167,5,0.1,36,0.9,2.02281,2.86959,0.649377,-0.56579,0.348378,0.041051,-0.295758,-0.785232,0.0521168,0.0144171,2.69705,5,0.1,37,0.9,1.5595,3.1499,0.569332,0.857645,0.0584245,-0.00092322,0.0939816,0.449955,-0.0506006,0.011158,1.88714,5,0.1,38,0.9,0.0430592,3.80248,0.675635,0.274314,-0.726125,-0.0415225,0.093779,-0.248358,-0.0142008,0.0126341,0.699941,5,0.1,39,0.9,-0.172494,2.5855,0.592814,-0.0860723,-0.865786,0.00485117,-0.0297651,0.00958145,0.00167266,0.00929428,1.34606,5,0.1
0,1,-1.94832,-0.441677,0.579009,0.238103,0.232786,0.0167489,0.12064,0.118032,0.00846386,0.0104801,0.133881,5,0.1,1,1,4.14124,-0.333781,0.642975,-0.276279,0.866025,0.0509009,-0.0603199,1.43051e-05,0.184923,0.0278689,2.2221,5,0.1,2,1,-3.92546,-2.86494,0.609852,0.794172,-0.321317,-0.00726581,-0.0170469,0.00691414,0.000149012,0.0135444,0.757224,5,0.1,3,1,3.37101,3.04763,0.507249,-0.522941,0.096786,-0.0159502,0.361919,0.665188,0.107825,0.00872128,0.804728,5,0.1,4,1,-0.871194,-3.55555,0.644044,-0.866026,0.100183,-0.0204563,0,0.0494719,-0.00467896,0.00934035,2.26367,5,0.1,5,1,0.846498,-1.42773,0.638716,-0.853698,-0.138712,-0.0181511,0.230253,-0.370204,-0.0206828,0.0125463,2.66153,5,0.1,6,1,-2.39721,3.31615,0.646153,0.864452,0.493526,-0.0310376,-0.031352,0.0674725,-0.00426173,0.00942508,1.32617,5,0.1,7,1,-2.13654,4.06142,0.555622,0.860745,-0.00836849,0.0327647,-0.1055,0,-0.000685453,0.012165,1.84192,5,0.1,8,1,1.48207,-2.79702,0.559669,-0.57891,-0.862324,0.0124082,0.699282,-0.074029,0.030458,0.00750855,1.43782,5,0.1,9,1,0.0605842,-0.737417,0.638222,-0.266279,0.44862,-0.0282288,0.00575423,0.0959933,0.000596046,0.0172955,0.308253,5,0.1,10,1,3.87211,-1.12722,0.504329,-0.15586,0.866026,-0.0127256,-0.0337362,-5.96046e-05,0.0120997,0.0152282,2.25522,5,0.1,11,1,3.59036,-3.10466,0.650105,-0.0288606,0.866026,-0.0103042,-0.0064373,0,-0.00226498,0.0140475,2.27127,5,0.1,12,1,0.235348,3.20018,0.629996,-0.276164,-0.866026,-0.0154749,-0.0597835,0,-0.00333786,0.018213,2.2202,5,0.1,13,1,1.94813,2.64128,0.500404,0.0491112,-0.124031,-0.00316501,-1.03933,-0.353336,0.0166893,0.012211,1.9853,5,0.1,14,1,-0.022978,-1.40019,0.699562,0.681589,-0.295243,0.037238,-0.0147116,0.0064373,-0.00077486,0.0116966,0.508735,5,0.1,15,1,-2.50622,-3.65627,0.635399,-0.586164,0.373906,-0.0261381,0.012517,-0.00810623,0.000536442,0.00956631,0.368239,5,0.1,16,1,-3.64116,3.81018,0.617098,0.857353,-0.666749,-0.00758022,0.17345,-0.136375,-0.00202656,0.0152632,2.0013,5,0.1,17,1,-3.07968,3.5009,0.57758,0.843042,-0.725281,0.01477,0.136256,-0.117183,0.00241399,0.0142402,1.26952,5,0.1,18,1,1.14787,3.6907,0.697142,-0.866026,0.230938,0.0339761,0,0.0442266,0.00652671,0.0134578,1.67829,5,0.1,19,1,-1.02691,-3.2,0.62892,0.528082,0.477141,-0.0210017,0.00706315,-0.148773,-0.000298023,0.00857829,0.479754,5,0.1,20,1,-2.86379,-4.24376,0.661493,0.866026,0.217342,-0.0168473,0,0.0472069,-0.00369549,0.0127331,2.23938,5,0.1,21,1,-1.2912,2.41394,0.634316,0.341606,-0.794524,-0.0705704,-0.00745058,0.0171661,0.00151992,0.0137806,0.572792,5,0.1,22,1,3.81127,-2.16211,0.546995,-0.0895739,0.866026,0.0131428,-0.0194311,0,0.00286102,0.0198204,2.26555,5,0.1,23,1,3.112,2.94578,0.63938,0.188261,-0.238883,-0.0158176,-0.160694,0.766754,0.0460446,0.011358,0.493869,5,0.1,24,1,1.86094,0.331934,0.593743,-0.771043,-0.814214,0.00223517,-0.171065,-0.180602,0.000447035,0.0130731,1.95382,5,0.1,25,1,4.16571,1.66729,0.566694,0.100446,0.667673,0.0273764,0.513077,-1.64139,-0.0928044,0.0095162,2.90109,5,0.1,26,1,0.571947,-3.73332,0.637467,-0.675616,0.351667,-0.0276685,0.0905395,-0.0835657,0.000566244,0.0277416,0.468395,5,0.1,27,1,3.85107,1.48743,0.572173,0.00379086,-0.859585,-0.0481486,-0.000119209,0.128806,0.00104308,0.0092747,0.643797,5,0.1,28,1,-1.11042,-1.7942,0.571469,0.820011,-0.00428557,0.0210673,-0.0177026,5.96046e-05,-0.000476837,0.0138235,0.511887,5,0.1,29,1,-0.287234,1.66942,0.616911,-0.416335,-0.0143319,-0.0124946,0.616342,0.000298023,0.000268221,0.00981157,0.379417,5,0.1,30,1,-1.17176,-0.768094,0.612317,-0.212687,-0.866026,-0.00560731,-0.0442863,0,-0.000834465,0.0132452,2.24294,5,0.1,31,1,-0.748048,-2.53123,0.641893,0.19916,0.866026,-0.018622,0.0429749,0,-0.00405312,0.0285633,2.34193,5,0.1,32,1,3.79183,0.180213,0.594839,-0.196028,0.866025,0.00205487,-0.0425577,0,0.000447035,0.0146817,2.24568,5,0.1,33,1,-1.06959,-1.39269,0.653978,-0.12123,-0.706157,0.0262409,-0.520229,0.516474,0.0625551,0.0092156,2.54039,5,0.1,34,1,-2.64886,-0.783119,0.620145,0.325805,-0.4232,0.029777,-0.00703335,0.00911951,-0.000625849,0.00967884,0.217676,5,0.1,35,1,-3.8769,0.772057,0.708395,0.536811,0.426792,0.0307307,-0.0115633,-0.00920892,-0.000685453,0.0168317,0.358488,5,0.1,36,1,1.96452,2.90032,0.653702,-0.600892,0.265217,0.045003,-0.347972,-0.853896,0.0254512,0.0121184,2.56606,5,0.1,37,1,1.64572,3.15774,0.569022,0.865349,0.0956953,-0.00491142,0.0135303,0.292778,-0.0297129,0.0128781,1.46223,5,0.1,38,1,0.0708143,3.72901,0.671433,0.279117,-0.738853,-0.0422493,-0.00602782,0.0158548,0.00089407,0.00972053,0.475995,5,0.1,39,1,-0.181204,2.49904,0.593305,-0.087611,-0.862199,0.00493675,0.00161678,0.0766516,-8.9407e-05,0.00984289,1.00899,5,0.1
0,1.1,-1.92403,-0.417776,0.580718,0.246222,0.245176,0.0173184,0.0365824,0.114843,0.00256673,0.0104801,0.133881,5,0.1,1,1.1,4.11319,-0.247179,0.648755,-0.285406,0.866025,0.0625405,-0.101715,0,0.054989,0.0278689,2.2221,5,0.1,2,1.1,-3.84601,-2.89702,0.609127,0.795145,-0.319909,-0.00723489,-0.00244379,0.033021,0.000737607,0.0135444,0.757224,5,0.1,3,1.1,3.32199,3.06023,0.506061,-0.444736,0.151252,-0.00897199,1.11869,0.425339,0.0376105,0.00872128,0.804728,5,0.1,4,1.1,-0.957796,-3.54525,0.641971,-0.866025,0.10598,-0.0210167,7.45058e-06,0.0587255,-0.00530854,0.00934035,2.26367,5,0.1,5,1.1,0.76326,-1.44382,0.636618,-0.802136,-0.185489,-0.0252606,0.766199,-0.525869,-0.108868,0.0125463,2.66153,5,0.1,6,1.1,-2.31078,3.36583,0.643029,0.864751,0.499441,-0.031411,0.00397861,0.0296682,-0.00187382,0.00942508,1.32617,5,0.1,7,1.1,-2.05058,4.06059,0.558894,0.861273,-0.00834912,0.0326232,0.0659823,0.000715256,-0.00334904,0.012165,1.84192,5,0.1,8,1.1,1.42823,-2.88347,0.561064,-0.493157,-0.86526,0.0154641,0.981338,0.0121146,0.0291318,0.00750855,1.43782,5,0.1,9,1.1,0.0339965,-0.692035,0.635403,-0.265111,0.458803,-0.0281059,0.0273386,0.0843294,0.00289455,0.0172955,0.308253,5,0.1,10,1.1,3.85633,-1.04062,0.50313,-0.159973,0.866025,-0.011137,-0.039205,1.11759e-05,0.0189729,0.0152282,2.25522,5,0.1,11,1.1,3.58744,-3.01805,0.649061,-0.0296414,0.866026,-0.0105801,-0.00745058,0,-0.00263378,0.0140475,2.27127,5,0.1,12,1.1,0.207378,3.11358,0.628428,-0.283353,-0.866026,-0.0158765,-0.0677072,0,-0.00378862,0.018213,2.2202,5,0.1,13,1.1,1.94994,2.62792,0.500164,0.00545122,-0.135837,-0.00171214,0.0635982,0.0815392,0.0122711,0.012211,1.9853,5,0.1,14,1.1,0.0441968,-1.42968,0.703374,0.653578,-0.294264,0.03974,-0.514834,0.0246316,0.04353,0.0116966,0.508735,5,0.1,15,1.1,-2.56475,-3.61894,0.632789,-0.583605,0.372262,-0.0260259,0.0600815,-0.038445,0.00266358,0.00956631,0.368239,5,0.1,16,1.1,-3.5549,3.74263,0.616327,0.865247,-0.684948,-0.00785189,0.0122339,-0.184923,-0.00286475,0.0152632,2.0013,5,0.1,17,1.1,-2.99469,3.42779,0.579069,0.855569,-0.736053,0.0149916,0.0767112,-0.0659674,0.00135973,0.0142402,1.26952,5,0.1,18,1.1,1.06127,3.71401,0.700573,-0.865969,0.235171,0.0346003,0.0022836,0.0296682,0.00437349,0.0134578,1.67829,5,0.1,19,1.1,-0.975434,-3.15296,0.626821,0.489472,0.464004,-0.0209128,-0.714045,-0.133395,0.00271574,0.00857829,0.479754,5,0.1,20,1.1,-2.77719,-4.22174,0.659787,0.866026,0.223106,-0.0172962,0,0.0550151,-0.00427663,0.0127331,2.23938,5,0.1,21,1.1,-1.25709,2.33461,0.62727,0.340103,-0.79104,-0.0702611,-0.035122,0.0815541,0.00724569,0.0137806,0.572792,5,0.1,22,1.1,3.80216,-2.07551,0.548323,-0.0929426,0.866026,0.0133936,-0.0403672,0,0.00158325,0.0198204,2.26555,5,0.1,23,1.1,3.13022,2.92564,0.637978,0.177597,-0.16507,-0.0126914,-0.0673532,0.696942,0.0189506,0.011358,0.493869,5,0.1,24,1.1,1.7828,0.249423,0.593969,-0.792215,-0.836568,0.00229254,-0.205278,-0.216753,0.000566244,0.0130731,1.95382,5,0.1,25,1.1,4.17785,1.72815,0.56907,0.137973,0.569396,0.0210386,0.247359,-0.445805,-0.0386611,0.0095162,2.90109,5,0.1,26,1.1,0.504856,-3.69842,0.634704,-0.665417,0.347334,-0.0275495,0.136498,-0.0241995,0.00282004,0.0277416,0.468395,5,0.1,27,1.1,3.85145,1.40201,0.567366,0.00377186,-0.848876,-0.047937,-0.000402331,0.122346,0.00495464,0.0092747,0.643797,5,0.1,28,1.1,-1.02855,-1.79463,0.573572,0.816417,-0.00426918,0.0209734,-0.0841878,0.000417233,-0.00217557,0.0138235,0.511887,5,0.1,29,1.1,-0.325447,1.66798,0.615664,-0.345726,-0.0142703,-0.0124399,0.750136,0.00146776,0.00128895,0.00981157,0.379417,5,0.1,30,1.1,-1.19333,-0.854696,0.611745,-0.219108,-0.866014,-0.00588512,-0.0692979,0.000465661,-0.00402704,0.0132452,2.24294,5,0.1,31,1.1,-0.727592,-2.44484,0.640047,0.212457,0.858967,-0.0179662,0.193175,-0.162065,0.0157245,0.0285633,2.34193,5,0.1,32,1.1,3.77197,0.266816,0.595047,-0.20116,0.866025,0.00210879,-0.0484884,-8.9407e-07,0.000510365,0.0146817,2.24568,5,0.1,33,1.1,-1.08391,-1.46214,0.656827,-0.161379,-0.694461,0.0299354,-0.287257,-0.180602,0.0138991,0.0092156,2.54039,5,0.1,34,1.1,-2.61633,-0.825376,0.623118,0.324377,-0.421347,0.0296482,-0.0334531,0.0434369,-0.00303611,0.00967884,0.217676,5,0.1,35,1.1,-3.8233,0.814671,0.711464,0.53446,0.424921,0.030594,-0.0551194,-0.0438131,-0.00317022,0.0168317,0.358488,5,0.1,36,1.1,1.90195,2.92337,0.658236,-0.655876,0.203015,0.0447964,-0.670366,-0.417277,-0.026986,0.0121184,2.56606,5,0.1,37,1.1,1.73229,3.16825,0.568444,0.865795,0.109916,-0.00611655,-0.00585616,0.011608,0.00284612,0.0128781,1.46223,5,0.1,38,1.1,0.098684,3.65523,0.667215,0.277894,-0.735624,-0.0420658,-0.0286558,0.0757426,0.00432134,0.00972053,0.475995,5,0.1,39,1.1,-0.189932,2.41295,0.593798,-0.0866349,-0.860854,0.00490462,0.0197431,-0.00175834,-0.00070408,0.00984289,1.00899,5,0.1
0,1.2,-1.8994,-0.392789,0.58245,0.244629,0.253229,0.0172049,-0.0711083,0.035882,-0.00497699,0.0166024,0.308515,5,0.1,1,1.2,4.08421,-0.160576,0.655119,-0.293112,0.866025,0.0632271,-0.038147,0,-0.0350177,0.0414237,2.21487,5,0.1,2,1.2,-3.76674,-2.92872,0.608409,0.787115,-0.312769,-0.00707507,-0.185013,0.11754,0.00265241,0.0100108,0.727967,5,0.1,3,1.2,3.28379,3.0771,0.505276,-0.314182,0.182259,-0.00737458,1.4261,0.197768,-0.000923872,0.00733756,0.411301,5,0.1,4,1.2,-1.0444,-3.5344,0.63985,-0.866026,0.110614,-0.0213116,0,0.0286102,0.000298023,0.00912316,2.26279,5,0.1,5,1.2,0.687522,-1.46498,0.633488,-0.706972,-0.237015,-0.037691,1.10677,-0.475347,-0.130057,0.0123802,2.94945,5,0.1,6,1.2,-2.22444,3.41571,0.639891,0.859761,0.495929,-0.0311911,-0.125408,-0.113964,0.00715256,0.0107783,0.95701,5,0.1,7,1.2,-1.96416,4.05976,0.562127,0.866026,-0.00817776,0.0318974,-5.96046e-05,0.00309944,-0.0119805,0.0114933,1.42881,5,0.1,8,1.2,1.38405,-2.96973,0.562744,-0.388834,-0.857472,0.0179738,1.07765,0.170827,0.020057,0.00736975,0.783001,5,0.1,9,1.2,0.00772243,-0.645909,0.632618,-0.259196,0.461558,-0.0274792,0.0973666,-0.0451207,0.0103116,0.0165421,0.213487,5,0.1,10,1.2,3.84019,-0.954017,0.502118,-0.162125,0.866026,-0.00905693,0.0026226,0,0.0220239,0.0159911,2.25498,5,0.1,11,1.2,3.58445,-2.93145,0.647993,-0.0300586,0.866026,-0.0107273,0.000476837,0,0.000149012,0.0139476,2.27126,5,0.1,12,1.2,0.1788,3.02698,0.626827,-0.286948,-0.866026,-0.0160769,0.00709295,0,0.00038743,0.0224095,2.21968,5,0.1,13,1.2,1.95193,2.61522,0.500046,0.0433952,-0.114197,-0.000718236,0.613511,0.322223,0.00762939,0.0125471,1.28529,5,0.1,14,1.2,0.106367,-1.45888,0.707589,0.584375,-0.288397,0.0446677,-0.842373,0.100374,0.0495017,0.00902165,0.448759,5,0.1,15,1.2,-2.62259,-3.58204,0.63021,-0.570595,0.363952,-0.0254467,0.214338,-0.136733,0.00953674,0.00968424,0.333481,5,0.1,16,1.2,-3.46845,3.67342,0.61553,0.862241,-0.696474,-0.00806153,-0.0754595,-0.0156164,-0.000923872,0.0160732,1.98969,5,0.1,17,1.2,-2.9091,3.35416,0.580569,0.852114,-0.733083,0.0149325,-0.170827,0.147104,-0.00301003,0.0136082,0.86627,5,0.1,18,1.2,0.974706,3.73758,0.704041,-0.865112,0.235075,0.0345871,0.0182688,-0.0388622,-0.00575185,0.0142445,1.28051,5,0.1,19,1.2,-0.930801,-3.10733,0.624753,0.397097,0.447196,-0.0203535,-1.08042,-0.216007,0.00882149,0.0123079,1.33394,5,0.1,20,1.2,-2.69059,-4.19923,0.658041,0.866026,0.22614,-0.0175312,0,-0.00357628,0.000238419,0.0138938,2.23869,5,0.1,21,1.2,-1.22338,2.25621,0.620307,0.33251,-0.773388,-0.0686929,-0.124931,0.290394,0.0258088,0.0103343,0.380878,5,0.1,22,1.2,3.79268,-1.98891,0.549664,-0.0963449,0.866026,0.0133634,-0.0221729,-5.96046e-05,-0.0025034,0.0232185,2.26486,5,0.1,23,1.2,3.14769,2.91242,0.636775,0.17221,-0.101525,-0.0115857,-0.0514984,0.566363,0.005126,0.0108166,0.476421,5,0.1,24,1.2,1.70282,0.164957,0.594201,-0.804108,-0.849123,0.00232458,0.000357628,0.000315905,0,0.0111084,1.92551,5,0.1,25,1.2,4.19251,1.784,0.571038,0.151813,0.556815,0.0187993,0.0391006,0.0988841,-0.00983477,0.0110165,2.62664,5,0.1,26,1.2,0.439226,-3.66385,0.631974,-0.644496,0.34321,-0.0269353,0.29707,-0.0730753,0.0100732,0.0245878,0.319996,5,0.1,27,1.2,3.85183,1.31797,0.562615,0.00368953,-0.828895,-0.0468671,-0.0013113,0.302434,0.0175834,0.01062,0.461365,5,0.1,28,1.2,-0.947635,-1.79505,0.575651,0.798202,-0.00417531,0.0205055,-0.299811,0.00154972,-0.0077486,0.0123613,0.340378,5,0.1,29,1.2,-0.356338,1.66657,0.614431,-0.273488,-0.0139534,-0.0121623,0.66857,0.00524521,0.00458956,0.0088975,0.346458,5,0.1,30,1.2,-1.21553,-0.941292,0.611136,-0.224015,-0.865839,-0.00629127,-0.0183582,0.00369549,-0.00357628,0.01415,2.24018,5,0.1,31,1.2,-0.705334,-2.36016,0.638352,0.232597,0.830287,-0.0157416,0.187427,-0.423908,0.0275373,0.0285105,2.70439,5,0.1,32,1.2,3.75168,0.353418,0.59526,-0.203758,0.866025,0.00213683,0.00441074,1.43051e-05,-5.96046e-05,0.0139993,2.28393,5,0.1,33,1.2,-1.10113,-1.53295,0.659828,-0.179651,-0.724348,0.0295043,-0.0834465,-0.339925,-0.0203252,0.00963944,2.36761,5,0.1,34,1.2,-2.58419,-0.867133,0.626056,0.317138,-0.411947,0.0289872,-0.11909,0.154763,-0.010848,0.0138267,0.144743,5,0.1,35,1.2,-3.77033,0.856784,0.714496,0.522536,0.415441,0.0299096,-0.196338,-0.156045,-0.0112355,0.0148675,0.238372,5,0.1,36,1.2,1.83302,2.94212,0.662513,-0.720841,0.176519,0.0401273,-0.569165,-0.137925,-0.0637472,0.0126999,0.930515,5,0.1,37,1.2,1.81878,3.17898,0.567881,0.86301,0.10168,-0.00484139,-0.0603795,-0.15974,0.0204742,0.00901624,1.17948,5,0.1,38,1.2,0.126225,3.58233,0.663046,0.271694,-0.719219,-0.0411272,-0.102073,0.270009,0.0154078,0.00981281,0.316515,5,0.1,39,1.2,-0.198455,2.32705,0.594283,-0.0833746,-0.854391,0.00476986,0.046514,0.164747,-0.00205636,0.012447,0.745419,5,0.1
0,1.3,-1.87534,-0.36701,0.584142,0.235962,0.264399,0.0165975,-0.106819,0.15882,-0.00749528,0.0166024,0.308515,5,0.1,1,1.3,4.0546,-0.0739736,0.661165,-0.29965,0.866025,0.0568204,-0.0729859,4.47035e-07,-0.0882074,0.0414237,2.21487,5,0.1,2,1.3,-3.68871,-2.95943,0.607715,0.77494,-0.301149,-0.006813,-0.0997931,0.124589,0.00280887,0.0100108,0.727967,5,0.1,3,1.3,3.25946,3.09642,0.504521,-0.173543,0.20484,-0.00781268,1.35811,0.233382,-0.00649691,0.00733756,0.411301,5,0.1,4,1.3,-1.131,-3.52316,0.637715,-0.866026,0.11425,-0.0214171,0,0.0367761,-0.00121444,0.00912316,2.26279,5,0.1,5,1.3,0.622509,-1.49156,0.628885,-0.592171,-0.298178,-0.0557614,1.17342,-0.692159,-0.214167,0.0123802,2.94945,5,0.1,6,1.3,-2.13889,3.46475,0.636807,0.852349,0.484541,-0.0304761,-0.066489,-0.131086,0.00823662,0.0107783,0.95701,5,0.1,7,1.3,-1.87756,4.05896,0.565258,0.865847,-0.00787228,0.0307132,-0.00712276,0.00327826,-0.0126921,0.0114933,1.42881,5,0.1,8,1.3,1.35054,-3.05462,0.564639,-0.282011,-0.839356,0.0198836,1.03643,0.219896,0.0169426,0.00736975,0.783001,5,0.1,9,1.3,-0.017721,-0.599951,0.62992,-0.249571,0.457392,-0.0264595,0.103191,-0.056982,0.0109412,0.0165421,0.213487,5,0.1,10,1.3,3.82394,-0.867415,0.501323,-0.162999,0.866026,-0.006832,-0.0108182,-3.72529e-06,0.0220388,0.0159911,2.25498,5,0.1,11,1.3,3.58143,-2.84485,0.646918,-0.0302285,0.866026,-0.0107897,-0.00214577,0,-0.000778586,0.0139476,2.27126,5,0.1,12,1.3,0.150067,2.94038,0.625217,-0.288055,-0.866026,-0.0161397,-0.0132959,0,-0.000756234,0.0224095,2.21968,5,0.1,13,1.3,1.96008,2.60575,0.500006,0.12522,-0.0725999,-0.000156183,0.955895,0.483304,0.00381842,0.0125471,1.28529,5,0.1,14,1.3,0.160218,-1.48706,0.712408,0.489571,-0.273502,0.0524977,-1.02755,0.195637,0.0971854,0.00902165,0.448759,5,0.1,15,1.3,-2.6786,-3.54616,0.627711,-0.549406,0.354879,-0.0245035,0.227153,-0.0658929,0.0101179,0.00968424,0.333481,5,0.1,16,1.3,-3.3823,3.60351,0.614717,0.862645,-0.702426,-0.00819983,0.034526,-0.0637472,-0.00137463,0.0160732,1.98969,5,0.1,17,1.3,-2.82472,3.28156,0.582047,0.83508,-0.718419,0.0146325,-0.200421,0.172511,-0.0035204,0.0136082,0.86627,5,0.1,18,1.3,0.888204,3.76091,0.707472,-0.86522,0.231216,0.0340164,0.000238419,-0.047043,-0.00694394,0.0142445,1.28051,5,0.1,19,1.3,-0.895632,-3.06282,0.622759,0.313941,0.449826,-0.0195228,-0.619944,0.20285,0.00847876,0.0123079,1.33394,5,0.1,20,1.3,-2.60399,-4.17657,0.656285,0.866026,0.227384,-0.01763,0,0.0154376,-0.00121072,0.0138938,2.23869,5,0.1,21,1.3,-1.19074,2.1803,0.613564,0.320161,-0.744678,-0.0661415,-0.132389,0.307813,0.0273548,0.0103343,0.380878,5,0.1,22,1.3,3.7829,-1.9023,0.55099,-0.0996165,0.866025,0.0131725,-0.0361502,1.49012e-05,-0.00192598,0.0232185,2.26486,5,0.1,23,1.3,3.16476,2.90482,0.635617,0.16975,-0.0531066,-0.0117769,-0.00929832,0.401601,-0.00706688,0.0108166,0.476421,5,0.1,24,1.3,1.62231,0.0797795,0.594434,-0.806057,-0.855776,0.00234293,-0.000983477,-0.0826716,0.000227243,0.0111084,1.92551,5,0.1,25,1.3,4.20767,1.84138,0.572923,0.149224,0.599963,0.01934,-0.084132,0.663482,0.0167862,0.0110165,2.62664,5,0.1,26,1.3,0.376222,-3.62981,0.62933,-0.615478,0.338002,-0.0259385,0.302462,-0.0478625,0.0106953,0.0245878,0.319996,5,0.1,27,1.3,3.85246,1.23679,0.557996,0.0112854,-0.792521,-0.0456602,0.135958,0.436679,0.00919029,0.01062,0.461365,5,0.1,28,1.3,-0.869281,-1.79546,0.577663,0.768559,-0.00399332,0.0197392,-0.317838,0.00216812,-0.00821799,0.0123613,0.340378,5,0.1,29,1.3,-0.380545,1.6652,0.613237,-0.213827,-0.0134354,-0.0117089,0.483409,0.00555068,0.0048615,0.0088975,0.346458,5,0.1,30,1.3,-1.23805,-1.02787,0.610491,-0.226601,-0.865921,-0.00657784,-0.0216588,-0.00232086,-0.00193343,0.01415,2.24018,5,0.1,31,1.3,-0.680987,-2.27993,0.636984,0.255196,0.768016,-0.0110462,0.240128,-0.798732,0.0618324,0.0285105,2.70439,5,0.1,32,1.3,3.73082,0.440013,0.595505,-0.217495,0.865616,0.00302903,-0.239179,-0.016367,0.015825,0.0139993,2.28393,5,0.1,33,1.3,-1.11933,-1.60773,0.66264,-0.182547,-0.775555,0.0264183,0.0236928,-0.603966,-0.0396445,0.00963944,2.36761,5,0.1,34,1.3,-2.55305,-0.907571,0.628902,0.305365,-0.396648,0.0279143,-0.126243,0.164013,-0.0115111,0.0138267,0.144743,5,0.1,35,1.3,-3.71904,0.897565,0.717432,0.503127,0.400015,0.0287987,-0.20808,-0.165388,-0.0119135,0.0148675,0.238372,5,0.1,36,1.3,1.75995,2.958,0.666526,-0.723977,0.131968,0.0428227,0.435337,-0.687301,0.0977181,0.0126999,0.930515,5,0.1,37,1.3,1.90503,3.18797,0.567525,0.863395,0.0750322,-0.00207443,0.0225455,-0.348613,0.0328124,0.00901624,1.17948,5,0.1,38,1.3,0.152895,3.51173,0.659008,0.261604,-0.692525,-0.0396035,-0.108175,0.286207,0.0163503,0.00981281,0.316515,5,0.1,39,1.3,-0.206361,2.24253,0.594747,-0.0730316,-0.834426,0.00448115,0.149718,0.257567,-0.00367314,0.012447,0.745419,5,0.1
0,1.4,-1.85237,-0.339766,0.585758,0.222543,0.280011,0.0156552,-0.164151,0.132337,-0.0115335,0.0108441,0.150307,5,0.1,1,1.4,4.02435,0.012629,0.666352,-0.304353,0.866025,0.0464812,-0.00715256,-1.19209e-06,-0.11459,0.0305738,2.2349,5,0.1,2,1.4,-3.61185,-2.98884,0.607049,0.760114,-0.286245,-0.00647753,-0.225782,0.180244,0.00408292,0.0102611,0.7436,5,0.1,3,1.4,3.24859,3.118,0.503708,-0.0474513,0.225425,-0.008443,1.14322,0.163555,-0.00521541,0.0111005,0.315815,5,0.1,4,1.4,-1.2176,-3.51159,0.635572,-0.866026,0.11673,-0.0213519,0,0.00751019,0.00333786,0.009459,2.26389,5,0.1,5,1.4,0.569159,-1.52482,0.622216,-0.475155,-0.365746,-0.0775188,1.15412,-0.618041,-0.20808,0.0068308,0.777901,5,0.1,6,1.4,-2.05418,3.51241,0.633809,0.839055,0.466835,-0.0293627,-0.229716,-0.234485,0.0147223,0.00937279,0.670118,5,0.1,7,1.4,-1.79107,4.05819,0.568258,0.863171,-0.00748634,0.0291929,-0.0570416,0.00452995,-0.0183284,0.011638,1.07878,5,0.1,8,1.4,1.32731,-3.13718,0.566699,-0.185269,-0.808781,0.0211626,0.88352,0.41008,0.00783801,0.0078911,1.65932,5,0.1,9,1.4,-0.0420991,-0.554641,0.627336,-0.23722,0.447012,-0.0251502,0.149164,-0.163287,0.015825,0.0161546,0.144514,5,0.1,10,1.4,3.80763,-0.780812,0.500748,-0.162709,0.866026,-0.00472516,0.0231266,0,0.0197887,0.015943,2.25539,5,0.1,11,1.4,3.57841,-2.75825,0.645838,-0.0301898,0.866026,-0.0107765,0.00417233,0,0.00143051,0.0134954,2.27127,5,0.1,12,1.4,0.121268,2.85377,0.623604,-0.286903,-0.866026,-0.0160754,0.0474495,0,0.00265241,0.0141832,1.83135,5,0.1,13,1.4,1.97749,2.60099,0.500004,0.222799,-0.0222087,8.64267e-05,0.945151,0.504375,0.0012815,0.0108568,1.04464,5,0.1,14,1.4,0.203912,-1.51328,0.718155,0.383583,-0.249711,0.0623733,-1.07117,0.277698,0.0929236,0.0106572,0.602608,5,0.1,15,1.4,-2.73227,-3.51103,0.625318,-0.522214,0.347137,-0.023292,0.328422,-0.104189,0.0146627,0.00883833,0.230389,5,0.1,16,1.4,-3.296,3.53314,0.613892,0.860941,-0.702482,-0.00825524,-0.101805,0.0902414,0.000566244,0.0161038,1.69488,5,0.1,17,1.4,-2.74246,3.2108,0.583489,0.80694,-0.694197,0.0141382,-0.383019,0.329494,-0.00670552,0.014127,0.579751,5,0.1,18,1.4,0.801797,3.78372,0.710828,-0.861365,0.224203,0.0329837,0.0932217,-0.0988245,-0.0145733,0.0150914,0.948612,5,0.1,19,1.4,-0.86683,-3.01658,0.620853,0.266421,0.476223,-0.0185415,-0.360072,0.275493,0.0115931,0.0100563,1.03874,5,0.1,20,1.4,-2.51738,-4.15381,0.65452,0.866026,0.22701,-0.0176027,0,-0.0314713,0.0025034,0.0129502,2.23756,5,0.1,21,1.4,-1.15947,2.10756,0.607103,0.304314,-0.707829,-0.0628665,-0.191331,0.445008,0.0395179,0.0126809,0.250699,5,0.1,22,1.4,3.77278,-1.8157,0.552295,-0.102353,0.866026,0.0128731,-0.0135899,-5.96046e-05,-0.00450015,0.0251064,2.26438,5,0.1,23,1.4,3.18168,2.90125,0.634397,0.168359,-0.0209749,-0.012666,-0.0268221,0.243902,-0.00932813,0.00980388,1.23583,5,0.1,24,1.4,1.54195,-0.0060084,0.594669,-0.797841,-0.857022,0.00234693,0.19145,0.0933969,-0.000238419,0.0137551,2.14321,5,0.1,25,1.4,4.22201,1.90494,0.574959,0.136268,0.671893,0.0214756,-0.1688,0.699639,0.0229776,0.0125795,2.13445,5,0.1,26,1.4,0.316323,-3.59632,0.626796,-0.580816,0.330788,-0.0246555,0.403494,-0.108242,0.0154674,0.0264356,0.215747,5,0.1,27,1.4,3.85438,1.16002,0.553479,0.0278056,-0.739795,-0.0445768,0.181079,0.623941,0.0143647,0.0124103,0.321176,5,0.1,28,1.4,-0.794209,-1.79585,0.579591,0.730515,-0.00373423,0.0187576,-0.459462,0.00315905,-0.0118613,0.0118913,0.224049,5,0.1,29,1.4,-0.4,1.66389,0.612093,-0.18006,-0.0127703,-0.0111282,0.200614,0.00804663,0.00700355,0.0113692,0.293298,5,0.1,30,1.4,-1.26075,-1.11447,0.609828,-0.226367,-0.866026,-0.00664294,0.0344515,0,0.000834465,0.0110519,2.24107,5,0.1,31,1.4,-0.654345,-2.20759,0.636214,0.276425,0.674868,-0.00418276,0.166893,-1.0438,0.071913,0.0296143,3.18465,5,0.1,32,1.4,3.70774,0.526362,0.595899,-0.244576,0.859478,0.00493079,-0.272274,-0.130922,0.020653,0.012477,2.25348,5,0.1,33,1.4,-1.1373,-1.68821,0.665064,-0.175336,-0.831464,0.0218958,0.118136,-0.457644,-0.0493526,0.0115962,2.28337,5,0.1,34,1.4,-2.52323,-0.946316,0.631629,0.290257,-0.377016,0.026536,-0.182629,0.237048,-0.0166893,0.00904209,0.162257,5,0.1,35,1.4,-3.6699,0.936638,0.720245,0.47822,0.38022,0.0273734,-0.300646,-0.239104,-0.0172257,0.0162188,0.1569,5,0.1,36,1.4,1.6909,2.9673,0.671428,-0.64685,0.0507891,0.0561327,1.04755,-0.884533,0.153065,0.0114144,2.94709,5,0.1,37,1.4,1.99132,3.19359,0.567488,0.859952,0.036329,0.0013575,-0.121236,-0.406146,0.0342727,0.0103141,0.870646,5,0.1,38,1.4,0.178448,3.44408,0.65514,0.248656,-0.658262,-0.0376463,-0.156373,0.413775,0.0236928,0.0118341,0.208335,5,0.1,39,1.4,-0.212818,2.16068,0.595174,-0.0553466,-0.799131,0.00404567,0.195444,0.46277,-0.00497699,0.0109407,0.545222,5,0.1
0,1.5,-1.83093,-0.311551,0.587266,0.20612,0.280152,0.0145012,-0.168383,-0.11651,-0.0118352,0.0108441,0.150307,5,0.1,1,1.5,3.99377,0.0992195,0.670444,-0.307762,0.865424,0.0355472,-0.0419617,-0.0240572,-0.10353,0.0305738,2.2349,5,0.1,2,1.5,-3.53711,-3.0166,0.606421,0.732841,-0.269055,-0.00608843,-0.334084,0.171691,0.0038892,0.0102611,0.7436,5,0.1,3,1.5,3.24898,3.14157,0.502854,0.0494994,0.247562,-0.00846554,0.799507,0.251308,0.00426918,0.0111005,0.315815,5,0.1,4,1.5,-1.30421,-3.49984,0.633447,-0.865996,0.118312,-0.0211827,0.00117719,0.0171363,0.00120327,0.009459,2.26389,5,0.1,5,1.5,0.528284,-1.56334,0.613498,-0.33548,-0.394131,-0.0959622,1.56782,0.0112578,-0.156008,0.0068308,0.777901,5,0.1,6,1.5,-1.9713,3.55794,0.630945,0.818768,0.443738,-0.0279326,-0.21001,-0.240386,0.0147447,0.00937279,0.670118,5,0.1,7,1.5,-1.7048,4.05746,0.571089,0.863563,-0.00705123,0.0274443,0.0209063,0.00435114,-0.0174753,0.011638,1.07878,5,0.1,8,1.5,1.31303,-3.21631,0.56879,-0.102941,-0.77573,0.0200852,0.723667,0.289544,-0.0263937,0.0078911,1.65932,5,0.1,9,1.5,-0.065104,-0.510717,0.624897,-0.222992,0.431486,-0.0236405,0.142141,-0.162637,0.01508,0.0161546,0.144514,5,0.1,10,1.5,3.79142,-0.69421,0.500368,-0.161812,0.866026,-0.00292761,0.00408292,-3.72529e-06,0.0159852,0.015943,2.25539,5,0.1,11,1.5,3.5754,-2.67164,0.644764,-0.0300437,0.866026,-0.0107293,0.000476837,0,0.000137836,0.0134954,2.27127,5,0.1,12,1.5,0.092763,2.76717,0.622006,-0.283376,-0.866026,-0.0158782,0.0363759,0,0.00203028,0.0141832,1.83135,5,0.1,13,1.5,2.0047,2.60137,0.500017,0.322229,0.0301745,0.000150315,0.992678,0.523672,8.9407e-05,0.0108568,1.04464,5,0.1,14,1.5,0.23723,-1.53656,0.72491,0.286006,-0.213132,0.072981,-0.877643,0.4327,0.109408,0.0106572,0.602608,5,0.1,15,1.5,-2.78291,-3.47673,0.623059,-0.490888,0.339236,-0.0218934,0.312939,-0.0707507,0.0139661,0.00883833,0.230389,5,0.1,16,1.5,-3.21021,3.46322,0.613069,0.855808,-0.696162,-0.00822078,-0.0451356,0.0689179,0.000499189,0.0161038,1.69488,5,0.1,17,1.5,-2.66361,3.14296,0.58487,0.77024,-0.662627,0.0134954,-0.376254,0.323698,-0.00659376,0.014127,0.579751,5,0.1,18,1.5,0.715864,3.80567,0.714057,-0.858704,0.214733,0.0315879,0.00815839,-0.0977516,-0.0144057,0.0150914,0.948612,5,0.1,19,1.5,-0.841527,-2.96721,0.619054,0.243534,0.51352,-0.0174551,-0.126466,0.419781,0.0107028,0.0100563,1.03874,5,0.1,20,1.5,-2.43078,-4.13116,0.652769,0.866026,0.226714,-0.0174121,0,0.0106096,0.00210479,0.0129502,2.23756,5,0.1,21,1.5,-1.12996,2.03891,0.601006,0.285947,-0.66538,-0.0590966,-0.184387,0.424094,0.0376664,0.0126809,0.250699,5,0.1,22,1.5,3.76244,-1.7291,0.553564,-0.104655,0.866025,0.0125354,-0.0255853,1.49012e-05,-0.00289828,0.0251064,2.26438,5,0.1,23,1.5,3.19843,2.90027,0.633073,0.166995,3.98606e-05,-0.0138754,-0.00964105,0.168428,-0.013411,0.00980388,1.23583,5,0.1,24,1.5,1.46412,-0.0915657,0.594903,-0.749674,-0.856015,0.00234572,0.733458,-0.0215663,7.07805e-05,0.0137551,2.14321,5,0.1,25,1.5,4.23472,1.97601,0.577244,0.117155,0.75138,0.0243886,-0.208825,0.817642,0.0322722,0.0125795,2.13445,5,0.1,26,1.5,0.260176,-3.56372,0.624405,-0.542525,0.32135,-0.023179,0.378425,-0.0940859,0.0147559,0.0264356,0.215747,5,0.1,27,1.5,3.85789,1.08886,0.5491,0.0408914,-0.685629,-0.042918,0.0847727,0.488803,0.0197366,0.0124103,0.321176,5,0.1,28,1.5,-0.723366,-1.79621,0.58141,0.68669,-0.00344925,0.0176278,-0.437785,0.00266731,-0.011269,0.0118913,0.224049,5,0.1,29,1.5,-0.417563,1.66265,0.611014,-0.175859,-0.0120029,-0.0104602,-0.080198,0.0076592,0.00667572,0.0113692,0.293298,5,0.1,30,1.5,-1.28327,-1.20108,0.609168,-0.224361,-0.866026,-0.00655549,0.0173077,0,0.00115857,0.0110519,2.24107,5,0.1,31,1.5,-0.626198,-2.14564,0.636219,0.283317,0.561442,0.00476213,-0.0243261,-1.19938,0.100937,0.0296143,3.18465,5,0.1,32,1.5,3.68214,0.612157,0.596476,-0.265125,0.859897,0.00643851,-0.134453,0.0798143,0.00986829,0.012477,2.25348,5,0.1,33,1.5,-1.1542,-1.77308,0.666998,-0.161999,-0.860775,0.0167215,0.148818,-0.144802,-0.0529289,0.0115962,2.28337,5,0.1,34,1.5,-2.49493,-0.983076,0.634216,0.277159,-0.360016,0.0253393,-0.0973344,0.126336,-0.00889227,0.00904209,0.162257,5,0.1,35,1.5,-3.62352,0.973511,0.722899,0.449541,0.357412,0.0257302,-0.286505,-0.227842,-0.0164136,0.0162188,0.1569,5,0.1,36,1.5,1.62978,2.96947,0.677551,-0.589755,0.00588708,0.0639858,0.193812,-0.0839382,0.0132546,0.0114144,2.94709,5,0.1,37,1.5,2.0769,3.19507,0.567802,0.852393,-0.00730269,0.00495426,-0.0725091,-0.448242,0.0361279,0.0103141,0.870646,5,0.1,38,1.5,0.202562,3.38024,0.651489,0.233741,-0.618792,-0.0353866,-0.149005,0.394344,0.0225715,0.0118341,0.208335,5,0.1,39,1.5,-0.217348,2.08289,0.595555,-0.0351319,-0.758009,0.0035719,0.2034,0.389948,-0.00456348,0.0109407,0.545222,5,0.1
0,1.6,-1.81119,-0.284439,0.588655,0.188202,0.259176,0.0132412,-0.192642,-0.291348,-0.0135303,0.0130169,0.263045,5,0.1,1,1.6,3.96285,0.185449,0.673504,-0.309491,0.856403,0.0258714,0.0208616,-0.192449,-0.0896156,0.0252646,2.50504,5,0.1,2,1.6,-3.46577,-3.04261,0.605833,0.691032,-0.250548,-0.00566989,-0.510573,0.203848,0.00458956,0.0108534,2.77131,5,0.1,3,1.6,3.25739,3.16754,0.502041,0.11335,0.270873,-0.00768304,0.482678,0.194669,0.0109076,0.00977667,0.26462,5,0.1,4,1.6,-1.39079,-3.48796,0.631339,-0.865552,0.118959,-0.0209138,0.00935793,-0.00917912,0.00500679,0.00893071,2.17208,5,0.1,5,1.6,0.502771,-1.60193,0.60324,-0.174256,-0.370738,-0.107951,1.60156,0.423253,-0.0808835,0.00661052,0.374568,5,0.1,6,1.6,-1.89067,3.60102,0.628231,0.791329,0.416613,-0.0262722,-0.361919,-0.310659,0.0190437,0.00886824,0.461058,5,0.1,7,1.6,-1.6185,4.05678,0.573742,0.860119,-0.00658035,0.02556,-0.118077,0.00524521,-0.0207722,0.0112827,0.785895,5,0.1,8,1.6,1.30585,-3.29237,0.57063,-0.0460565,-0.744271,0.016427,0.398099,0.367045,-0.0443757,0.00807126,1.42465,5,0.1,9,1.6,-0.0866594,-0.468483,0.622612,-0.207666,0.411911,-0.022015,0.168886,-0.239223,0.0179112,0.0171138,0.16518,5,0.1,10,1.6,3.77529,-0.607607,0.500148,-0.160313,0.866026,-0.0015527,0.0325441,0,0.0114441,0.0155265,2.25606,5,0.1,11,1.6,3.5724,-2.58504,0.643693,-0.0297964,0.866026,-0.0106424,0.00572205,0,0.00199676,0.0141108,2.27129,5,0.1,12,1.6,0.0646778,2.68057,0.620433,-0.277382,-0.866026,-0.0155419,0.0926852,0,0.0051856,0.0139687,1.41007,5,0.1,13,1.6,2.04162,2.60691,0.500031,0.412613,0.0791371,0.00012368,0.778556,0.441194,-0.000596046,0.0106659,0.801966,5,0.1,14,1.6,0.261777,-1.55559,0.732716,0.208297,-0.166884,0.0825956,-0.676796,0.476241,0.0760853,0.00944631,0.356045,5,0.1,15,1.6,-2.83036,-3.44322,0.620943,-0.45715,0.33012,-0.0203878,0.371933,-0.123501,0.0165999,0.00995314,0.175538,5,0.1,16,1.6,-3.12506,3.39414,0.612251,0.844401,-0.683159,-0.00809133,-0.213861,0.213385,0.00238419,0.016622,1.24942,5,0.1,17,1.6,-2.58862,3.07845,0.586184,0.727457,-0.625825,0.0127465,-0.49603,0.426769,-0.00870228,0.0137687,0.384472,5,0.1,18,1.6,0.630217,3.8266,0.717137,-0.851531,0.203449,0.029926,0.169128,-0.132799,-0.0195205,0.0116005,2.27803,5,0.1,19,1.6,-0.817615,-2.91386,0.617365,0.236046,0.55145,-0.0163049,-0.0452995,0.302196,0.0126958,0.0133062,0.788895,5,0.1,20,1.6,-2.34418,-4.10846,0.651043,0.866026,0.226581,-0.0170469,0,-0.0238419,0.00572205,0.0111125,2.2384,5,0.1,21,1.6,-1.10233,1.97459,0.595294,0.266036,-0.619653,-0.0550359,-0.219405,0.503957,0.0447631,0.00994437,0.173127,5,0.1,22,1.6,3.75187,-1.6425,0.554801,-0.106299,0.866026,0.0121817,-0.0026226,-5.96046e-05,-0.00461936,0.0233367,2.26415,5,0.1,23,1.6,3.21505,2.90094,0.631622,0.164872,0.0115931,-0.0150993,-0.0392199,0.0596046,-0.00995398,0.0132978,3.83164,5,0.1,24,1.6,1.39345,-0.177118,0.595138,-0.658253,-0.852506,0.00233799,1.06221,0.128366,-0.000357628,0.0103004,2.41754,5,0.1,25,1.6,4.24535,2.05494,0.579839,0.0953555,0.823152,0.0274077,-0.223398,0.567555,0.025928,0.00964593,1.65925,5,0.1,26,1.6,0.207881,-3.53212,0.622164,-0.502438,0.309688,-0.0215873,0.434138,-0.148535,0.0175536,0.0249521,0.144425,5,0.1,27,1.6,3.86228,1.02271,0.544922,0.0455499,-0.636996,-0.040482,0.0122786,0.504851,0.0295341,0.00984998,0.254985,5,0.1,28,1.6,-0.656988,-1.79654,0.583114,0.639491,-0.00317991,0.0164151,-0.52011,0.00280142,-0.0133812,0.0141239,0.147264,5,0.1,29,1.6,-0.435766,1.66149,0.610003,-0.189667,-0.0111789,-0.00974089,-0.168025,0.00911951,0.00792742,0.00803576,0.596911,5,0.1,30,1.6,-1.30557,-1.28768,0.60852,-0.220928,-0.866026,-0.00636876,0.0594854,0,0.00268221,0.0105307,2.24315,5,0.1,31,1.6,-0.59827,-2.09558,0.637207,0.272562,0.439566,0.0149459,-0.185549,-1.21784,0.098139,0.0106395,0.60498,5,0.1,32,1.6,3.65521,0.69851,0.597154,-0.270879,0.865865,0.00697523,0.0211,0.00318885,0.0012517,0.00671215,1.2718,5,0.1,33,1.6,-1.1696,-1.85954,0.668407,-0.145587,-0.866026,0.0115201,0.179112,0,-0.0501573,0.00919116,2.26739,5,0.1,34,1.6,-2.46768,-1.01847,0.636707,0.267678,-0.347713,0.0244737,-0.105262,0.136793,-0.00962615,0.0100685,0.0940191,5,0.1,35,1.6,-3.58006,1.00806,0.725386,0.418645,0.332847,0.0239611,-0.340343,-0.270724,-0.0194907,0.0160475,0.188495,5,0.1,36,1.6,1.57103,2.97048,0.683848,-0.590459,0.0213087,0.0604883,-0.131071,0.335932,-0.0753701,0.0126593,2.63926,5,0.1,37,1.6,2.16157,3.19215,0.568471,0.838244,-0.0501454,0.00831783,-0.240088,-0.395179,0.0300109,0.0117053,0.622844,5,0.1,38,1.6,0.225157,3.32043,0.648068,0.217675,-0.57627,-0.0329524,-0.177033,0.468493,0.0267923,0.00939432,0.136927,5,0.1,39,1.6,-0.219868,2.00912,0.595889,-0.0156168,-0.716007,0.00312179,0.18286,0.471056,-0.00444055,0.00968234,0.397749,5,0.1
0,1.7,-1.79331,-0.26022,0.589914,0.169792,0.223129,0.0119478,-0.179186,-0.415682,-0.0125915,0.0130169,0.263045,5,0.1,1,1.7,3.93151,0.269509,0.675881,-0.321217,0.818866,0.0237121,-0.212297,-0.547597,0.0331141,0.0252646,2.50504,5,0.1,2,1.7,-3.39987,-3.06679,0.605282,0.621288,-0.234307,-0.00538956,-0.855505,0.13417,0.00150502,0.0108534,2.77131,5,0.1,3,1.7,3.27067,3.19577,0.501337,0.147943,0.294579,-0.00631269,0.219256,0.252083,0.0157803,0.00977667,0.26462,5,0.1,4,1.7,-1.47636,-3.47608,0.629267,-0.838228,0.118714,-0.0205538,0.474602,-0.00192225,0.00322983,0.00893071,2.17208,5,0.1,5,1.7,0.493213,-1.63668,0.591873,-0.0191547,-0.32261,-0.120597,1.46711,0.528373,-0.154585,0.00661052,0.374568,5,0.1,6,1.7,-1.81323,3.6412,0.625694,0.757966,0.387311,-0.0244776,-0.333384,-0.286862,0.0175908,0.00886824,0.461058,5,0.1,7,1.7,-1.53288,4.05614,0.576199,0.853091,-0.00608787,0.0236124,-0.0656173,0.00479817,-0.0188798,0.0112827,0.785895,5,0.1,8,1.7,1.30275,-3.36517,0.572028,-0.0221601,-0.712762,0.0113355,0.0396743,0.294283,-0.0552684,0.00807126,1.42465,5,0.1,9,1.7,-0.106723,-0.428199,0.620485,-0.19471,0.395941,-0.0206407,0.102407,-0.107765,0.0108629,0.0171138,0.16518,5,0.1,10,1.7,3.75936,-0.521005,0.500042,-0.158634,0.866026,-0.000642892,0.0102669,-3.57628e-06,0.00689551,0.0155265,2.25606,5,0.1,11,1.7,3.56944,-2.49844,0.642635,-0.0295267,0.866026,-0.010549,0.00143051,0,0.000488013,0.0141108,2.27129,5,0.1,12,1.7,0.0373631,2.59397,0.618902,-0.269033,-0.865798,-0.0150748,0.085052,0.00908971,0.00476092,0.0139687,1.41007,5,0.1,13,1.7,2.08676,2.617,0.500041,0.488932,0.122045,6.1281e-05,0.708714,0.402078,-0.000633299,0.0106659,0.801966,5,0.1,14,1.7,0.279946,-1.57019,0.741228,0.161454,-0.127761,0.0864027,-0.293367,0.316799,0.002563,0.00944631,0.356045,5,0.1,15,1.7,-2.874,-3.41102,0.618987,-0.413539,0.31197,-0.0187253,0.493363,-0.236586,0.0169761,0.00995314,0.175538,5,0.1,16,1.7,-3.04156,3.3268,0.611453,0.82584,-0.663719,-0.00787433,-0.192404,0.201613,0.00227243,0.016622,1.24942,5,0.1,17,1.7,-2.51824,3.0179,0.587417,0.680726,-0.585619,0.0119265,-0.459686,0.395507,-0.00806153,0.0137687,0.384472,5,0.1,18,1.7,0.545269,3.84627,0.72003,-0.852071,0.189734,0.02791,-0.112666,-0.144869,-0.0212975,0.0116005,2.27803,5,0.1,19,1.7,-0.794011,-2.85708,0.615794,0.237721,0.584579,-0.0151242,0.0565052,0.320897,0.0113957,0.0133062,0.788895,5,0.1,20,1.7,-2.25758,-4.08581,0.649441,0.866026,0.227201,-0.0143751,0,0.0207424,0.0435822,0.0111125,2.2384,5,0.1,21,1.7,-1.07704,1.91503,0.590003,0.237802,-0.572409,-0.0508394,-0.335462,0.457846,0.0406727,0.00994437,0.173127,5,0.1,22,1.7,3.74119,-1.55589,0.556001,-0.107516,0.866025,0.0118538,-0.0150353,1.49012e-05,-0.00260398,0.0233367,2.26415,5,0.1,23,1.7,3.23132,2.9026,0.630064,0.160388,0.0219204,-0.0159957,-0.0548959,0.0781119,-0.00723079,0.0132978,3.83164,5,0.1,24,1.7,1.33346,-0.262075,0.595371,-0.537862,-0.848781,0.00232719,1.29508,-0.00176758,0,0.0103004,2.41754,5,0.1,25,1.7,4.25377,2.13939,0.582717,0.0730142,0.859271,0.0301538,-0.220239,0.179663,0.0266582,0.00964593,1.65925,5,0.1,26,1.7,0.159701,-3.50185,0.620089,-0.461882,0.296088,-0.0199413,0.390546,-0.134557,0.0159517,0.0249521,0.144425,5,0.1,27,1.7,3.86694,0.961813,0.540934,0.0479814,-0.578425,-0.0399852,0.0313669,0.659231,-0.0133812,0.00984998,0.254985,5,0.1,28,1.7,-0.595516,-1.79685,0.584692,0.590734,-0.00292622,0.0151619,-0.47249,0.00236928,-0.012137,0.0141239,0.147264,5,0.1,29,1.7,-0.456126,1.66057,0.609067,-0.221834,-0.00587925,-0.00899779,-0.427743,0.0873059,0.00720099,0.00803576,0.596911,5,0.1,30,1.7,-1.32744,-1.37428,0.607895,-0.216796,-0.866026,-0.00613276,0.034593,0,0.00229478,0.0105307,2.24315,5,0.1,31,1.7,-0.572128,-2.05846,0.639249,0.248573,0.296948,0.0262638,-0.287659,-1.56705,0.121024,0.0106395,0.60498,5,0.1,32,1.7,3.62823,0.782715,0.597969,-0.268641,0.79723,0.010237,0.0342578,-1.25861,0.0566281,0.00671215,1.2718,5,0.1,33,1.7,-1.18328,-1.94615,0.669312,-0.128186,-0.866026,0.00661854,0.170425,7.45058e-06,-0.0469983,0.00919116,2.26739,5,0.1,34,1.7,-2.44137,-1.05264,0.639113,0.258809,-0.336186,0.0236626,-0.0838339,0.108957,-0.00766292,0.0100685,0.0940191,5,0.1,35,1.7,-3.53966,1.04005,0.72769,0.391183,0.307469,0.0221339,-0.230223,-0.245944,-0.0177063,0.0160475,0.188495,5,0.1,36,1.7,1.51046,2.97499,0.689546,-0.627726,0.0746895,0.05369,-0.531435,0.675991,-0.0623614,0.0126593,2.63926,5,0.1,37,1.7,2.24432,3.18517,0.569452,0.817236,-0.0891715,0.0112528,-0.214413,-0.371605,0.027515,0.0117053,0.622844,5,0.1,38,1.7,0.246081,3.26503,0.644901,0.20108,-0.532349,-0.0304407,-0.16083,0.425681,0.0243373,0.00939432,0.136927,5,0.1,39,1.7,-0.220709,1.93958,0.596182,-0.00296268,-0.67678,0.00276119,0.0775047,0.346042,-0.00295043,0.00968234,0.397749,5,0.1
0,1.8,-1.77722,-0.240096,0.591045,0.151756,0.178562,0.0106797,-0.18388,-0.464335,-0.0129044,0.0104155,0.256596,5,0.1,1,1.8,3.89823,0.348148,0.67853,-0.344419,0.749121,0.0301152,-0.219703,-0.835582,0.084579,0.0294519,2.64345,5,0.1,2,1.8,-3.34239,-3.08958,0.604749,0.525242,-0.221425,-0.00528395,-1.04094,0.132918,0.00101328,0.00929844,1.40581,5,0.1,3,1.8,3.2862,3.2264,0.500788,0.159144,0.31659,-0.00465363,0.0143051,0.168562,0.0168383,0.0165247,4.01891,5,0.1,4,1.8,-1.55744,-3.46425,0.627232,-0.78043,0.117517,-0.0200927,0.645936,-0.0263453,0.00670552,0.00947766,1.84767,5,0.1,5,1.8,0.498186,-1.6662,0.579037,0.113527,-0.267079,-0.135839,1.16341,0.573158,-0.137359,0.00674788,0.262791,5,0.1,6,1.8,-1.73924,3.67846,0.623337,0.719938,0.357306,-0.0226289,-0.4462,-0.320792,0.0198185,0.00871482,0.314031,5,0.1,7,1.8,-1.4481,4.05556,0.578464,0.839683,-0.00559092,0.0216678,-0.232518,0.00524521,-0.020504,0.0100801,0.564155,5,0.1,8,1.8,1.3,-3.43488,0.572882,-0.039652,-0.680131,0.00576079,-0.364602,0.380158,-0.0545382,0.00764778,1.16347,5,0.1,9,1.8,-0.12571,-0.389112,0.618472,-0.185078,0.385588,-0.0196189,0.0991076,-0.119418,0.0105202,0.0171022,0.109776,5,0.1,10,1.8,3.74357,-0.434402,0.500006,-0.156689,0.866025,-0.000140071,0.0352859,1.43051e-05,0.00330806,0.0156047,2.2568,5,0.1,11,1.8,3.5665,-2.41184,0.641584,-0.0292122,0.866026,-0.0104398,0.00607967,0,0.00220537,0.0141022,2.27131,5,0.1,12,1.8,0.0109442,2.50751,0.617422,-0.258559,-0.862396,-0.0144884,0.131778,0.0727177,0.00739098,0.016698,1.05524,5,0.1,13,1.8,2.13882,2.63105,0.500044,0.547767,0.157046,1.49012e-06,0.441194,0.287771,-0.000566244,0.0141456,0.580222,5,0.1,14,1.8,0.295031,-1.58158,0.749777,0.143649,-0.101608,0.0836089,-0.0892282,0.214756,-0.0559688,0.00886449,0.29013,5,0.1,15,1.8,-2.91273,-3.38118,0.617202,-0.359833,0.283444,-0.0169411,0.573993,-0.330567,0.0188649,0.00955779,0.264903,5,0.1,16,1.8,-2.96014,3.26159,0.610679,0.80002,-0.638437,-0.00758469,-0.347972,0.321865,0.00375509,0.0137748,0.912815,5,0.1,17,1.8,-2.45255,2.96139,0.588568,0.631976,-0.543684,0.0110731,-0.529647,0.455737,-0.00932813,0.0141873,0.25452,5,0.1,18,1.8,0.459473,3.86448,0.722708,-0.86296,0.17395,0.0255883,-0.0613189,-0.172973,-0.0254512,0.0122052,2.26193,5,0.1,19,1.8,-0.769938,-2.79725,0.61434,0.243478,0.608921,-0.013946,0.0422299,0.138402,0.0124872,0.0137347,0.575851,5,0.1,20,1.8,-2.17097,-4.06302,0.648256,0.866026,0.228083,-0.00907183,0,-0.0145435,0.059247,0.0126374,2.23714,5,0.1,21,1.8,-1.05507,1.86011,0.585126,0.200763,-0.525236,-0.0466496,-0.397146,0.497043,0.0441372,0.0130434,0.123943,5,0.1,22,1.8,3.73039,-1.46929,0.557173,-0.108165,0.866026,0.0115484,0.00679493,0,-0.00402331,0.0226169,2.26411,5,0.1,23,1.8,3.24703,2.9048,0.628438,0.15316,0.0174105,-0.0164241,-0.092268,-0.197649,-0.000834465,0.0121908,3.54453,5,0.1,24,1.8,1.28619,-0.346827,0.595603,-0.407887,-0.843947,0.00231415,1.26845,0.135497,-0.00038743,0.0131356,2.65694,5,0.1,25,1.8,4.26,2.22581,0.585851,0.051856,0.866026,0.032343,-0.200272,0,0.0154972,0.0114147,1.25732,5,0.1,26,1.8,0.115484,-3.47296,0.618176,-0.422042,0.280917,-0.0182971,0.415564,-0.176549,0.0173151,0.0266065,0.168161,5,0.1,27,1.8,3.87189,0.907468,0.53684,0.0509501,-0.506626,-0.0420645,0.0246763,0.769347,-0.0234842,0.0129568,0.197651,5,0.1,28,1.8,-0.538842,-1.79713,0.586146,0.542055,-0.00268817,0.0139132,-0.513017,0.00244379,-0.0131726,0.0119334,0.0971724,5,0.1,29,1.8,-0.480555,1.66048,0.608204,-0.266881,0.00457466,-0.00825524,-0.437453,0.114381,0.00780821,0.00874049,0.476299,5,0.1,30,1.8,-1.34891,-1.46088,0.607294,-0.212055,-0.866026,-0.00586659,0.0681877,0,0.00315905,0.012382,1.90512,5,0.1,31,1.8,-0.548832,-2.03672,0.642469,0.216277,0.138068,0.0378996,-0.352353,-1.55902,0.106454,0.0309176,4.02655,5,0.1,32,1.8,3.60162,0.854864,0.599317,-0.262266,0.635362,0.0169963,0.100374,-1.88389,0.0728965,0.010202,0.370933,5,0.1,33,1.8,-1.19525,-2.03275,0.66975,-0.111258,-0.866026,0.00226945,0.169039,0,-0.0393391,0.0109832,2.269,5,0.1,34,1.8,-2.41595,-1.08566,0.641437,0.248933,-0.323343,0.02276,-0.12207,0.15831,-0.0111759,0.0104992,0.0713243,5,0.1,35,1.8,-3.50166,1.06955,0.729813,0.368917,0.28213,0.0203103,-0.230312,-0.267029,-0.0192523,0.0137771,0.134057,5,0.1,36,1.8,1.44493,2.98603,0.694613,-0.682309,0.146687,0.0477105,-0.498712,0.721574,-0.0584424,0.0133755,2.39679,5,0.1,37,1.8,2.32479,3.17453,0.570703,0.789577,-0.122124,0.0136241,-0.362158,-0.277996,0.0190735,0.0105538,0.433221,5,0.1,38,1.8,0.265372,3.21396,0.64198,0.184509,-0.488484,-0.0279322,-0.174612,0.462174,0.0264347,0.00937804,0.0903445,5,0.1,39,1.8,-0.220742,1.87365,0.596445,0.00121221,-0.641224,0.0025034,0.0120103,0.388324,-0.00241399,0.0109698,0.282936,5,0.1
0,1.9,-1.76287,-0.224564,0.592056,0.136142,0.132261,0.0095835,-0.135101,-0.453006,-0.00948459,0.0104155,0.256596,5,0.1,1,1.9,3.86283,0.419136,0.682105,-0.361952,0.672673,0.0424583,-0.118643,-0.713406,0.1495,0.0294519,2.64345,5,0.1,2,1.9,-3.29522,-3.11089,0.604218,0.417181,-0.203196,-0.00540353,-1.09906,0.225767,-0.00272691,0.00929844,1.40581,5,0.1,3,1.9,3.29995,3.25768,0.500405,0.0969134,0.298513,-0.00304487,-1.12462,-0.471264,0.0150055,0.0165247,4.01891,5,0.1,4,1.9,-1.63191,-3.45261,0.625253,-0.708867,0.115284,-0.019513,0.666723,-0.0233054,0.00572577,0.00947766,1.84767,5,0.1,5,1.9,0.514896,-1.69028,0.564979,0.215786,-0.216675,-0.143297,0.870602,0.443153,-0.0153519,0.00674788,0.262791,5,0.1,6,1.9,-1.66933,3.71268,0.621168,0.678942,0.327825,-0.0207952,-0.397779,-0.279337,0.0174977,0.00871482,0.314031,5,0.1,7,1.9,-1.36547,4.05503,0.580534,0.810806,-0.00510365,0.0197681,-0.360183,0.00464916,-0.0180826,0.0100801,0.564155,5,0.1,8,1.9,1.29344,-3.50115,0.573182,-0.0976529,-0.646116,0.000261143,-0.734136,0.325501,-0.0538379,0.00764778,1.16347,5,0.1,9,1.9,-0.143778,-0.35138,0.616557,-0.176638,0.366833,-0.0187228,0.0776583,-0.253187,0.00824034,0.0171022,0.109776,5,0.1,10,1.9,3.72802,-0.3478,0.500004,-0.1548,0.866025,8.05594e-05,0.0116229,-1.78814e-06,0.00124797,0.0156047,2.2568,5,0.1,11,1.9,3.5636,-2.32523,0.640547,-0.0289183,0.866026,-0.0103316,0.00153482,0,0.00057742,0.0141022,2.27131,5,0.1,12,1.9,-0.0142835,2.42136,0.616008,-0.246089,-0.861904,-0.0137967,0.125881,-0.013724,0.00691786,0.016698,1.05524,5,0.1,13,1.9,2.19573,2.64814,0.500041,0.588926,0.183855,-4.37722e-05,0.351205,0.236854,-0.000342727,0.0141456,0.580222,5,0.1,14,1.9,0.309435,-1.5909,0.757776,0.148419,-0.0868654,0.0756402,0.15101,0.0924245,-0.0998564,0.00886449,0.29013,5,0.1,15,1.9,-2.94557,-3.35444,0.615603,-0.294759,0.251618,-0.0150432,0.70712,-0.309989,0.0191741,0.00955779,0.264903,5,0.1,16,1.9,-2.88177,3.19927,0.609938,0.767721,-0.608338,-0.00723675,-0.326097,0.301346,0.00346452,0.0137748,0.912815,5,0.1,17,1.9,-2.39186,2.90918,0.589631,0.582661,-0.501251,0.0102052,-0.474378,0.408143,-0.00834092,0.0141873,0.25452,5,0.1,18,1.9,0.372989,3.88105,0.725146,-0.865834,0.157768,0.0232076,-0.00766128,-0.154912,-0.0227913,0.0122052,2.26193,5,0.1,19,1.9,-0.745293,-2.73566,0.613003,0.249877,0.622273,-0.0128294,0.0692718,0.0995696,0.0103228,0.0137347,0.575851,5,0.1,20,1.9,-2.08437,-4.04018,0.647588,0.866026,0.229236,-0.00479342,0,0.0226796,0.02845,0.0126374,2.23714,5,0.1,21,1.9,-1.03702,1.80994,0.58067,0.15974,-0.479185,-0.04256,-0.415809,0.438251,0.0389218,0.0130434,0.123943,5,0.1,22,1.9,3.71957,-1.38269,0.558313,-0.108497,0.866026,0.0112849,-0.00686944,0,-0.00191107,0.0226169,2.26411,5,0.1,23,1.9,3.26199,2.90521,0.626783,0.146629,-0.0153538,-0.0167356,-0.0478476,-0.54799,-0.0041686,0.0121908,3.54453,5,0.1,24,1.9,1.25167,-0.430885,0.595833,-0.284724,-0.839302,0.00230027,1.13774,0.0084506,-3.35276e-05,0.0131356,2.65694,5,0.1,25,1.9,4.26421,2.3124,0.589164,0.0327602,0.865728,0.0338804,-0.17947,-0.0119209,0.0134185,0.0114147,1.25732,5,0.1,26,1.9,0.0752423,-3.44554,0.616428,-0.383649,0.269039,-0.0166927,0.363746,-0.0800043,0.0152737,0.0266065,0.168161,5,0.1,27,1.9,3.87719,0.86034,0.53251,0.0557937,-0.438658,-0.0445123,0.063777,0.606366,-0.0226609,0.0129568,0.197651,5,0.1,28,1.9,-0.487063,-1.79738,0.587475,0.494526,-0.00246633,0.0126936,-0.452297,0.00207871,-0.0116006,0.0119334,0.0971724,5,0.1,29,1.9,-0.509512,1.66157,0.607418,-0.312325,0.0176081,-0.00744639,-0.442289,0.138856,0.00840053,0.00874049,0.476299,5,0.1,30,1.9,-1.36982,-1.54748,0.606566,-0.206544,-0.86565,-0.0100286,0.051707,0.0150204,-0.0763051,0.012382,1.90512,5,0.1,31,1.9,-0.529421,-2.02904,0.646698,0.168169,0.0305522,0.0457824,-0.578988,-0.654414,0.0523143,0.0309176,4.02655,5,0.1,32,1.9,3.57542,0.909115,0.601497,-0.265579,0.451613,0.0274928,-0.128835,-1.7673,0.126757,0.010202,0.370933,5,0.1,33,1.9,-1.20558,-2.11935,0.669786,-0.095661,-0.866026,-0.0014591,0.145063,0,-0.0345148,0.0109832,2.269,5,0.1,34,1.9,-2.39158,-1.11732,0.643665,0.238985,-0.31044,0.0218494,-0.0891089,0.115596,-0.00815094,0.0104992,0.0713243,5,0.1,35,1.9,-3.46577,1.0965,0.731753,0.349901,0.25739,0.018527,-0.167087,-0.235423,-0.016965,0.0137771,0.134057,5,0.1,36,1.9,1.37375,3.00458,0.699118,-0.743921,0.22608,0.0425883,-0.662558,0.820756,-0.0457391,0.0133755,2.39679,5,0.1,37,1.9,2.40205,3.16097,0.572157,0.756229,-0.148344,0.0154068,-0.332832,-0.235781,0.0156723,0.0105538,0.433221,5,0.1,38,1.9,0.282997,3.1673,0.639312,0.168332,-0.445663,-0.0254833,-0.153949,0.407532,0.0233091,0.00937804,0.0903445,5,0.1,39,1.9,-0.220654,1.81127,0.596685,-0.000245217,-0.607681,0.00231201,-0.0356901,0.308849,-0.00155345,0.0109698,0.282936,5,0.1
0,2,-1.74989,-0.213526,0.592969,0.123569,0.0894379,0.00870079,-0.121176,-0.397384,-0.00852346,0.0100675,0.25581,5,0.1,1,2,3.82629,0.482905,0.687119,-0.366175,0.603014,0.0577793,0.041604,-0.694007,0.147372,0.0102854,0.844629,5,0.1,2,2,-3.25895,-3.12997,0.603662,0.309169,-0.177389,-0.00571162,-1.04475,0.28491,-0.00286102,0.00807734,0.573616,5,0.1,3,2,3.30305,3.28452,0.50017,-0.0418305,0.232971,-0.00170469,-1.54519,-0.791907,0.0116527,0.0197112,3.23771,5,0.1,4,2,-1.7,-3.44123,0.623334,-0.658497,0.112003,-0.0188068,0.34517,-0.0454187,0.0089705,0.0134853,1.52047,5,0.1,5,2,0.54027,-1.70989,0.550748,0.285976,-0.176981,-0.139636,0.52762,0.357211,0.0848174,0.0074454,0.254831,5,0.1,6,2,-1.60351,3.74406,0.619176,0.636318,0.299656,-0.0190198,-0.471056,-0.291467,0.0184774,0.00827209,0.21219,5,0.1,7,2,-1.2865,4.05454,0.582421,0.765267,-0.00463724,0.0179529,-0.559151,0.00476837,-0.0186563,0.0105725,0.490343,5,0.1,8,2,1.27981,-3.56406,0.572951,-0.175679,-0.610739,-0.00472814,-0.779748,0.39959,-0.0448227,0.00805567,0.910602,5,0.1,9,2,-0.161036,-0.316164,0.614728,-0.168192,0.335544,-0.0178263,0.0968277,-0.369132,0.010252,0.0162938,0.141031,5,0.1,10,2,3.71262,-0.261197,0.500016,-0.152808,0.866025,0.000135601,0.0348091,0,-2.98023e-05,0.0156474,2.25753,5,0.1,11,2,3.56072,-2.23863,0.639518,-0.0286102,0.866026,-0.0102192,0.00596046,0,0.00214577,0.0141356,2.27133,5,0.1,12,2,-0.0382179,2.33529,0.614665,-0.232004,-0.856781,-0.0130221,0.16137,0.150919,0.00882149,0.0136065,0.767572,5,0.1,13,2,2.25602,2.66755,0.500036,0.612885,0.202501,-6.85453e-05,0.107288,0.128508,-0.000178814,0.00994965,0.603206,5,0.1,14,2,0.325201,-1.59924,0.764793,0.167918,-0.0809252,0.0642926,0.213265,0.035882,-0.124127,0.00876283,0.231232,5,0.1,15,2,-2.97144,-3.33082,0.614195,-0.222057,0.220782,-0.0130951,0.730515,-0.309348,0.0198185,0.00937084,0.24661,5,0.1,16,2,-2.80678,3.14005,0.609233,0.730079,-0.574607,-0.00684708,-0.445962,0.387549,0.00447035,0.0134212,0.668082,5,0.1,17,2,-2.336,2.86112,0.59061,0.534111,-0.45948,0.00935346,-0.508785,0.437737,-0.0089705,0.014447,0.16898,5,0.1,18,2,0.286391,3.89606,0.727353,-0.866025,0.142246,0.0209242,-1.43051e-05,-0.158191,-0.0233054,0.0106615,2.26415,5,0.1,19,2,-0.720025,-2.67319,0.611771,0.254522,0.623965,-0.0117987,0.0119209,-0.0854731,0.0106096,0.0154794,0.407545,5,0.1,20,2,-1.99777,-4.01718,0.647215,0.866026,0.23005,-0.00299215,0,-0.0170469,0.00929832,0.0105731,2.23696,5,0.1,21,2,-1.02311,1.76421,0.576608,0.118932,-0.435171,-0.0386521,-0.394583,0.451922,0.0401735,0.00922738,0.166162,5,0.1,22,2,3.70871,-1.29609,0.559431,-0.108409,0.866026,0.0110522,0.0132322,-5.96046e-05,-0.00321865,0.0244067,2.26586,5,0.1,23,2,3.27642,2.9,0.625091,0.141954,-0.0975847,-0.0170469,-0.0525713,-1.06013,-0.00119209,0.0100211,3.08644,5,0.1,24,2,1.22832,-0.51464,0.596063,-0.188613,-0.833525,0.00228435,0.758648,0.143349,-0.000417233,0.014671,2.7319,5,0.1,25,2,4.26664,2.39882,0.592604,0.0163317,0.861257,0.0347167,-0.147581,-0.0954866,0.00205636,0.0130157,0.936168,5,0.1,26,2,0.0386866,-3.41901,0.614835,-0.34735,0.261623,-0.0151575,0.370191,-0.0822544,0.0157058,0.0237124,0.134364,5,0.1,27,2,3.8831,0.819346,0.527966,0.0622451,-0.382495,-0.0461236,0.0587702,0.529051,-0.00759959,0.0102955,0.154504,5,0.1,28,2,-0.43987,-1.79762,0.588687,0.449102,-0.00225902,0.011529,-0.466391,0.00214577,-0.0119507,0.0132491,0.151256,5,0.1,29,2,-0.542768,1.66402,0.606717,-0.350374,0.031054,-0.00656992,-0.298172,0.124574,0.00914931,0.00917491,0.223356,5,0.1,30,2,-1.39018,-1.63385,0.605119,-0.200075,-0.860018,-0.0193343,0.0844002,0.120103,-0.101984,0.00996376,1.51622,5,0.1,31,2,-0.515663,-2.02819,0.651457,0.105979,-0.0043273,0.0485986,-0.640661,-0.0948906,0.00533462,0.029592,3.63522,5,0.1,32,2,3.5481,0.945795,0.604899,-0.281411,0.285988,0.0405475,-0.159502,-1.52814,0.1266,0.0167751,3.48305,5,0.1,33,2,-1.21445,-2.20595,0.669481,-0.0818759,-0.866026,-0.00451356,0.132203,0,-0.0261366,0.00853895,2.27002,5,0.1,34,2,-2.36816,-1.14775,0.645806,0.229043,-0.297537,0.0209406,-0.118017,0.153422,-0.0107884,0.00953333,0.0317974,5,0.1,35,2,-3.43162,1.12107,0.733521,0.332576,0.233746,0.0168234,-0.191569,-0.24271,-0.017494,0.016036,0.187991,5,0.1,36,2,1.29625,3.03115,0.703157,-0.802621,0.30297,0.0382617,-0.460267,0.683904,-0.0420213,0.0122859,2.21158,5,0.1,37,2,2.47587,3.14509,0.573764,0.718296,-0.167513,0.0166059,-0.445008,-0.140429,0.007689,0.00920138,0.295091,5,0.1,38,2,0.299061,3.12477,0.63688,0.15287,-0.404727,-0.023143,-0.158757,0.420213,0.0240505,0.0115279,0.103296,5,0.1,39,2,-0.220899,1.75209,0.596909,-0.00495017,-0.574976,0.00216961,-0.0541285,0.363827,-0.00146031,0.0116649,0.335351,5,0.1
0,2.1,-1.73813,-0.206427,0.593797,0.111722,0.053988,0.00786735,-0.117667,-0.309866,-0.00828132,0.0100675,0.25581,5,0.1,1,2.1,3.79039,0.53833,0.6938,-0.347132,0.493618,0.0770823,0.320241,-1.40755,0.221211,0.0102854,0.844629,5,0.1,2,2.1,-3.23376,-3.14564,0.603062,0.190747,-0.130865,-0.00641225,-1.27168,0.603542,-0.0098832,0.00807734,0.573616,5,0.1,3,2.1,3.2908,3.30375,0.500246,-0.204754,0.150928,0.00478243,-1.64306,-0.82694,0.105958,0.0197112,3.23771,5,0.1,4,2.1,-1.76508,-3.43024,0.621495,-0.650611,0.107825,-0.0179886,-0.111587,-0.042215,0.0080727,0.0134853,1.52047,5,0.1,5,2.1,0.571169,-1.72608,0.537385,0.32848,-0.149034,-0.126075,0.316061,0.215068,0.178453,0.0074454,0.254831,5,0.1,6,2.1,-1.54209,3.77266,0.617361,0.592929,0.273003,-0.0173226,-0.416681,-0.250414,0.0160038,0.00827209,0.21219,5,0.1,7,2.1,-1.21349,4.0541,0.584128,0.688673,-0.0041984,0.0162399,-0.933692,0.00414252,-0.016097,0.0105725,0.490343,5,0.1,8,2.1,1.2581,-3.62327,0.57226,-0.259859,-0.574341,-0.00901781,-0.857532,0.349194,-0.0397488,0.00805567,0.910602,5,0.1,9,2.1,-0.177437,-0.284684,0.612989,-0.160263,0.292034,-0.0169865,0.070042,-0.489989,0.00741705,0.0162938,0.141031,5,0.1,10,2.1,3.69745,-0.174595,0.500029,-0.150971,0.866025,0.00010971,0.0109375,1.19209e-06,-0.000447035,0.0156474,2.25753,5,0.1,11,2.1,3.55787,-2.15203,0.638503,-0.0283308,0.866026,-0.0101178,0.0013411,0,0.000495464,0.0141356,2.27133,5,0.1,12,2.1,-0.0606146,2.25038,0.613406,-0.215845,-0.840513,-0.0121677,0.166359,0.203133,0.00859052,0.0136065,0.767572,5,0.1,13,2.1,2.31744,2.68839,0.500028,0.611362,0.213774,-7.78586e-05,-0.139847,0.0877827,-1.49012e-05,0.00994965,0.603206,5,0.1,14,2.1,0.343256,-1.60727,0.770582,0.19451,-0.0805918,0.0513536,0.292908,-0.0197142,-0.132199,0.00876283,0.231232,5,0.1,15,2.1,-2.99001,-3.31009,0.612981,-0.149863,0.195609,-0.0112182,0.699714,-0.205725,0.0178479,0.00937084,0.24661,5,0.1,16,2.1,-2.73588,3.08443,0.608569,0.688461,-0.538439,-0.00643441,-0.409499,0.353336,0.00400469,0.0134212,0.668082,5,0.1,17,2.1,-2.28499,2.81724,0.591503,0.487171,-0.419096,0.00852682,-0.444934,0.382796,-0.00782311,0.014447,0.16898,5,0.1,18,2.1,0.199788,3.90955,0.729338,-0.866025,0.128094,0.0188396,2.98023e-07,-0.129476,-0.0190698,0.0106615,2.26415,5,0.1,19,2.1,-0.694469,-2.61122,0.610639,0.256684,0.614777,-0.0108754,0.0180304,-0.120446,0.0083223,0.0154794,0.407545,5,0.1,20,2.1,-1.91117,-3.99417,0.646932,0.866026,0.230765,-0.00291737,0,0.0168085,-0.00607595,0.0105731,2.23696,5,0.1,21,2.1,-1.01314,1.72262,0.572914,0.0811996,-0.399406,-0.0354728,-0.353254,0.288345,0.0256374,0.00922738,0.166162,5,0.1,22,2.1,3.69793,-1.20948,0.560529,-0.106867,0.866025,0.0109751,0.0212789,1.49012e-05,0.00076741,0.0244067,2.26586,5,0.1,23,2.1,3.29043,2.88378,0.623374,0.138779,-0.235501,-0.0173327,-0.0198632,-1.58903,-0.00339001,0.0100211,3.08644,5,0.1,24,2.1,1.21268,-0.597583,0.59629,-0.131931,-0.827153,0.00226488,0.306033,0.0323616,-0.000100583,0.014671,2.7319,5,0.1,25,2.1,4.26757,2.48474,0.596086,0.00269637,0.858623,0.034897,-0.123531,-0.00585616,7.45058e-05,0.0130157,0.936168,5,0.1,26,2.1,0.00569054,-3.39349,0.613393,-0.313443,0.246432,-0.0137147,0.317604,-0.214472,0.0135638,0.0237124,0.134364,5,0.1,27,2.1,3.88946,0.783341,0.523367,0.0633989,-0.340983,-0.0453675,-0.029698,0.325605,0.0215471,0.0102955,0.154504,5,0.1,28,2.1,-0.396997,-1.79784,0.589783,0.410727,-0.00206418,0.0104321,-0.323406,0.00181794,-0.0103042,0.0132491,0.151256,5,0.1,29,2.1,-0.579021,1.66767,0.60611,-0.371796,0.0410981,-0.00552284,-0.124536,0.0763386,0.0114776,0.00917491,0.223356,5,0.1,30,2.1,-1.40981,-1.71859,0.602773,-0.19258,-0.831073,-0.0266669,0.0733286,0.358976,-0.0469387,0.00996376,1.51622,5,0.1,31,2.1,-0.508369,-2.02746,0.656264,0.0394601,0.0327196,0.0468357,-0.668086,0.735655,-0.0377148,0.029592,3.63522,5,0.1,32,2.1,3.51944,0.969518,0.60943,-0.288994,0.212577,0.0486132,0.00627339,-0.0793524,0.0391304,0.0167751,3.48305,5,0.1,33,2.1,-1.22202,-2.29256,0.668904,-0.0700815,-0.866026,-0.00695288,0.106044,0,-0.022009,0.00853895,2.27002,5,0.1,34,2.1,-2.34584,-1.17674,0.647847,0.217257,-0.282217,0.0198634,-0.123963,0.161149,-0.0113323,0.00953333,0.0317974,5,0.1,35,2.1,-3.39907,1.1433,0.735121,0.320528,0.211462,0.0152178,-0.0730455,-0.209436,-0.0150874,0.016036,0.187991,5,0.1,36,2.1,1.21381,3.06498,0.706796,-0.843977,0.373565,0.0346965,-0.33126,0.688255,-0.0309609,0.0122859,2.21158,5,0.1,37,2.1,2.54561,3.12768,0.575461,0.677016,-0.180113,0.0172759,-0.403747,-0.103176,0.00498816,0.00920138,0.295091,5,0.1,38,2.1,0.313673,3.08608,0.634668,0.140307,-0.371471,-0.0212398,-0.101285,0.268131,0.0153445,0.0115279,0.103296,5,0.1,39,2.1,-0.221701,1.6961,0.59712,-0.0113331,-0.547037,0.00205366,-0.0694217,0.226282,-0.000972301,0.0116649,0.335351,5,0.1
0,2.2,-1.72756,-0.202423,0.594542,0.0997216,0.0276461,0.00702292,-0.123501,-0.216886,-0.00870228,0.0102585,0.498208,5,0.1,1,2.2,3.75761,0.580065,0.702618,-0.305665,0.336955,0.0989765,0.492692,-1.65758,0.203699,0.00792879,0.36612,5,0.1,2,2.2,-3.22107,-3.15547,0.602368,0.0639737,-0.0641704,-0.00746697,-1.2244,0.697613,-0.0102818,0.00795994,0.356167,5,0.1,3,2.2,3.26242,3.3148,0.501327,-0.358319,0.0714302,0.017333,-1.37722,-0.746846,0.13563,0.0200055,2.86467,5,0.1,4,2.2,-1.83094,-3.41969,0.619739,-0.667542,0.102884,-0.0170782,-0.170231,-0.0597239,0.0106394,0.00845096,1.1774,5,0.1,5,2.2,0.605207,-1.74005,0.525769,0.348297,-0.131598,-0.105406,0.0777543,0.144005,0.228256,0.00659993,0.273995,5,0.1,6,2.2,-1.48492,3.79872,0.615709,0.549614,0.24808,-0.0157252,-0.463367,-0.254154,0.0162721,0.00807261,0.256892,5,0.1,7,2.2,-1.14964,4.0537,0.585673,0.585461,-0.00379086,0.0146493,-1.10036,0.00405312,-0.0160635,0.0100021,0.442907,5,0.1,8,2.2,1.22801,-3.6789,0.571176,-0.339198,-0.537384,-0.0124753,-0.695705,0.404477,-0.0285506,0.00778942,0.685287,5,0.1,9,2.2,-0.193102,-0.258053,0.611329,-0.152777,0.239624,-0.0161931,0.0854656,-0.548534,0.00905991,0.01673,0.254332,5,0.1,10,2.2,3.68242,-0.087992,0.500037,-0.149083,0.866026,5.51343e-05,0.033021,-5.96046e-06,-0.000625849,0.0158193,2.41805,5,0.1,11,2.2,3.55505,-2.06543,0.637495,-0.0280499,0.866026,-0.0100151,0.00560284,-5.96046e-05,0.00196695,0.0139223,2.27135,5,0.1,12,2.2,-0.0813292,2.16762,0.612234,-0.197991,-0.811404,-0.0112489,0.193577,0.398159,0.00998378,0.0127383,0.55668,5,0.1,13,2.2,2.37746,2.71008,0.500021,0.584835,0.21854,-7.30157e-05,-0.389218,0.00166893,5.96046e-05,0.0104908,0.369267,5,0.1,14,2.2,0.36413,-1.61546,0.77506,0.222059,-0.0832111,0.03829,0.239342,-0.0254512,-0.127137,0.0087597,0.304819,5,0.1,15,2.2,-3.00164,-3.29146,0.611946,-0.0844419,0.177586,-0.00950247,0.599027,-0.163674,0.0165701,0.0113982,0.21724,5,0.1,16,2.2,-2.66918,3.03241,0.607947,0.644302,-0.500995,-0.00600815,-0.489235,0.407457,0.00464916,0.0167239,0.494074,5,0.1,17,2.2,-2.23849,2.77723,0.592316,0.4426,-0.380754,0.00774413,-0.456929,0.393152,-0.00801682,0.0127583,0.190398,5,0.1,18,2.2,0.113185,3.92173,0.731129,-0.866026,0.115561,0.0169948,3.57628e-06,-0.124574,-0.0183284,0.0113172,2.10265,5,0.1,19,2.2,-0.668789,-2.55055,0.609593,0.255883,0.596189,-0.0100553,-0.043273,-0.265837,0.00840425,0.0137323,0.283348,5,0.1,20,2.2,-1.82456,-3.97105,0.646596,0.866026,0.230926,-0.00390112,-5.96046e-05,-0.0239611,-0.0121891,0.0117721,2.23615,5,0.1,21,2.2,-1.00667,1.68402,0.569486,0.0493646,-0.373161,-0.0331402,-0.279486,0.254989,0.0226796,0.00943122,0.119073,5,0.1,22,2.2,3.68739,-1.12288,0.56163,-0.103545,0.866026,0.0110492,0.0475645,-5.96046e-05,5.96046e-05,0.0254605,2.268,5,0.1,23,2.2,3.3042,2.85216,0.621628,0.136447,-0.396258,-0.0175342,-0.0331402,-1.544,0.000208616,0.0141508,2.63221,5,0.1,24,2.2,1.2,-0.679995,0.596516,-0.131431,-0.81881,0.00224262,-0.267267,0.168651,-0.000506639,0.0112215,2.59584,5,0.1,25,2.2,4.26727,2.5704,0.599563,-0.00813007,0.851804,0.0344858,-0.0917912,-0.164986,-0.00932813,0.0116307,0.670891,5,0.1,26,2.2,-0.0240884,-3.37009,0.612089,-0.282186,0.220084,-0.0123724,0.314338,-0.30601,0.0135303,0.0219707,0.227407,5,0.1,27,2.2,3.89554,0.750699,0.518978,0.0574052,-0.313087,-0.0420451,-0.0851154,0.250846,0.04372,0.0115965,0.205484,5,0.1,28,2.2,-0.357455,-1.79803,0.590776,0.380553,-0.00188351,0.00941306,-0.296488,0.00184774,-0.0102818,0.0112413,0.227957,5,0.1,29,2.2,-0.6165,1.67208,0.605617,-0.37448,0.0463694,-0.00433028,0.0730753,0.0296235,0.0121295,0.00748754,0.747763,5,0.1,30,2.2,-1.42866,-1.8,0.599947,-0.184086,-0.798211,-0.0291556,0.101864,0.298202,-0.00491738,0.0096615,1.18342,5,0.1,31,2.2,-0.507662,-2.01982,0.660708,-0.023891,0.124973,0.0415906,-0.583082,1.03116,-0.0647306,0.0290454,3.11527,5,0.1,32,2.2,3.49083,0.991823,0.614373,-0.280601,0.24514,0.0492051,0.158906,0.620216,-0.0233948,0.0159376,2.9487,5,0.1,33,2.2,-1.22853,-2.37916,0.66811,-0.0602543,-0.866026,-0.00880808,0.0923276,0,-0.0146627,0.00873646,1.93743,5,0.1,34,2.2,-2.32478,-1.20409,0.649772,0.203222,-0.263974,0.0185803,-0.160933,0.209093,-0.0147223,0.00925323,0.0119938,5,0.1,35,2.2,-3.36734,1.16341,0.736568,0.313866,0.190759,0.0137255,-0.0777245,-0.209153,-0.0150204,0.0153,0.145442,5,0.1,36,2.2,1.12819,3.10551,0.710118,-0.863689,0.433844,0.0317782,-0.04673,0.489473,-0.0285804,0.0119373,1.71909,5,0.1,37,2.2,2.6112,3.10927,0.577204,0.633657,-0.186765,0.017482,-0.479341,-0.0243187,-0.0013113,0.00912072,0.198447,5,0.1,38,2.2,0.327233,3.05018,0.632616,0.131088,-0.347066,-0.0198439,-0.089556,0.237226,0.0135899,0.0122259,0.0866041,5,0.1,39,2.2,-0.223178,1.64251,0.59732,-0.0181179,-0.52433,0.00195652,-0.0632256,0.250578,-0.00107288,0.0117114,0.244096,5,0.1
0,2.3,-1.71815,-0.200686,0.595205,0.088938,0.00789617,0.00626277,-0.0959188,-0.169341,-0.00676513,0.0102585,0.498208,5,0.1,1,2.3,3.72924,0.605605,0.713783,-0.264034,0.175918,0.126138,0.354037,-1.5342,0.313483,0.00792879,0.36612,5,0.1,2,2.3,-3.22073,-3.15835,0.601558,-0.0557348,0.00665337,-0.00882735,-1.13881,0.69654,-0.0155307,0.00795994,0.356167,5,0.1,3,2.3,3.21972,3.31887,0.503533,-0.49425,0.0160515,0.0249351,-1.28587,-0.382602,0.0245534,0.0200055,2.86467,5,0.1,4,2.3,-1.89897,-3.40968,0.618082,-0.695863,0.0973348,-0.0160964,-0.3374,-0.0546128,0.00955909,0.00845096,1.1774,5,0.1,5,2.3,0.640319,-1.75251,0.516412,0.352628,-0.117847,-0.0814784,-0.000812113,0.133485,0.244223,0.00659993,0.273995,5,0.1,6,2.3,-1.43211,3.82227,0.614214,0.507813,0.222998,-0.0141827,-0.391021,-0.250533,0.0149086,0.00807261,0.256892,5,0.1,7,2.3,-1.09683,4.05334,0.587062,0.469754,-0.00341982,0.0131851,-1.16483,0.00351667,-0.013642,0.0100021,0.442907,5,0.1,8,2.3,1.1906,-3.73074,0.569792,-0.408242,-0.500339,-0.0151026,-0.649609,0.353634,-0.0230558,0.00778942,0.685287,5,0.1,9,2.3,-0.207932,-0.236887,0.609757,-0.143582,0.183448,-0.0152182,0.100718,-0.563042,0.0106767,0.01673,0.254332,5,0.1,10,2.3,3.66737,-0.00185198,0.50004,-0.154508,0.852004,-1.86265e-07,-0.116915,-0.285843,-0.000476837,0.0158193,2.41805,5,0.1,11,2.3,3.55226,-1.97882,0.636499,-0.0278022,0.866025,-0.00992948,0.00102818,1.49012e-05,0.000353903,0.0139223,2.27135,5,0.1,12,2.3,-0.100198,2.08842,0.611157,-0.179657,-0.77276,-0.0103115,0.177504,0.39874,0.00904873,0.0127383,0.55668,5,0.1,13,2.3,2.43337,2.73192,0.500014,0.527834,0.217906,-6.28643e-05,-0.722781,-0.0218749,0.000137836,0.0104908,0.369267,5,0.1,14,2.3,0.387719,-1.62394,0.77827,0.250856,-0.08671,0.026134,0.308698,-0.0380799,-0.114746,0.0087597,0.304819,5,0.1,15,2.3,-3.00771,-3.27445,0.611068,-0.0426255,0.163319,-0.00814823,0.261754,-0.128537,0.0110529,0.0113982,0.21724,5,0.1,16,2.3,-2.60706,2.98423,0.607368,0.598888,-0.463235,-0.00558235,-0.438303,0.362411,0.00406057,0.0167239,0.494074,5,0.1,17,2.3,-2.19637,2.74085,0.593053,0.400761,-0.349202,0.00701053,-0.392407,0.25855,-0.00687316,0.0127583,0.190398,5,0.1,18,2.3,0.0267194,3.93272,0.732745,-0.861259,0.104633,0.015387,0.12131,-0.0982732,-0.0144579,0.0113172,2.10265,5,0.1,19,2.3,-0.643378,-2.49216,0.608628,0.252457,0.572028,-0.00924906,-0.0366531,-0.239372,0.00794604,0.0137323,0.283348,5,0.1,20,2.3,-1.73796,-3.94797,0.64613,0.866025,0.231413,-0.0055423,1.49012e-05,0.0182986,-0.0191405,0.0117721,2.23615,5,0.1,21,2.3,-1.00303,1.64783,0.566272,0.0247864,-0.351628,-0.0312252,-0.203647,0.192158,0.0170842,0.00943122,0.119073,5,0.1,22,2.3,3.6772,-1.03628,0.562889,-0.100902,0.866025,0.0154076,0.012815,1.11759e-05,0.0769645,0.0254605,2.268,5,0.1,23,2.3,3.31774,2.80445,0.619869,0.134848,-0.559407,-0.0176664,-0.00734627,-1.63305,-0.00177696,0.0141508,2.63221,5,0.1,24,2.3,1.18432,-0.761303,0.596723,-0.191957,-0.808883,0.00177519,-0.853993,0.0744499,-0.0079982,0.0112215,2.59584,5,0.1,25,2.3,4.26603,2.65491,0.602967,-0.0163555,0.839032,0.0335759,-0.0715256,-0.129387,-0.0100806,0.0116307,0.670891,5,0.1,26,2.3,-0.050969,-3.34975,0.610909,-0.257338,0.185653,-0.0113021,0.199167,-0.373587,0.0086017,0.0219707,0.227407,5,0.1,27,2.3,3.90074,0.720131,0.515014,0.0457011,-0.302457,-0.0370484,-0.141501,-0.000700355,0.0551865,0.0115965,0.205484,5,0.1,28,2.3,-0.321039,-1.79821,0.591673,0.346408,-0.00174325,0.00860095,-0.378434,0.00108033,-0.00651181,0.0112413,0.227957,5,0.1,29,2.3,-0.652016,1.67673,0.605328,-0.322388,0.045328,-0.000738446,0.882134,-0.0444427,0.0541694,0.00748754,0.747763,5,0.1,30,2.3,-1.4466,-1.87894,0.597053,-0.174764,-0.785067,-0.0282919,0.0909939,0.0258312,0.0205636,0.0096615,1.18342,5,0.1,31,2.3,-0.512293,-2.00103,0.664467,-0.0625991,0.259531,0.0329552,-0.214834,1.55163,-0.102848,0.0290454,3.11527,5,0.1,32,2.3,3.46367,1.0207,0.619106,-0.261714,0.342351,0.0448389,0.218898,1.21546,-0.060752,0.0159376,2.9487,5,0.1,33,2.3,-1.23413,-2.46576,0.66716,-0.0521531,-0.866026,-0.0101369,0.0717863,0,-0.0113696,0.00873646,1.93743,5,0.1,34,2.3,-2.30527,-1.22943,0.651555,0.186736,-0.242553,0.0170723,-0.171527,0.222869,-0.0156835,0.00925323,0.0119938,5,0.1,35,2.3,-3.33645,1.18151,0.73787,0.302885,0.171696,0.0123563,-0.145495,-0.177547,-0.0127517,0.0153,0.145442,5,0.1,36,2.3,1.04168,3.15134,0.713168,-0.865591,0.481697,0.0293551,0.00571087,0.435904,-0.0212714,0.0119373,1.71909,5,0.1,37,2.3,2.67231,3.0905,0.578945,0.589296,-0.188361,0.0173061,-0.427157,-0.000804663,-0.00280514,0.00912072,0.198447,5,0.1,38,2.3,0.33999,3.01641,0.630685,0.12478,-0.330354,-0.0188865,-0.0455286,0.12067,0.00690669,0.0122259,0.0866041,5,0.1,39,2.3,-0.225314,1.59114,0.597511,-0.0245839,-0.504205,0.00186805,-0.0629723,0.176936,-0.000789762,0.0117114,0.244096,5,0.1
0,2.4,-1.70971,-0.20061,0.595799,0.0798911,-0.00492483,0.00562519,-0.0877976,-0.0828803,-0.00616908,0.00986871,0.61693,5,0.1,1,2.4,3.70447,0.615927,0.727969,-0.232381,0.0350401,0.157136,0.289798,-1.26308,0.287175,0.00755536,0.266264,5,0.1,2,2.4,-3.23164,-3.15435,0.600598,-0.158525,0.0712991,-0.010331,-0.895619,0.580311,-0.0135005,0.00817439,0.240501,5,0.1,3,2.4,3.16439,3.31901,0.506021,-0.60609,-0.00910759,0.0237301,-0.912189,-0.13876,-0.0419319,0.0181999,2.51189,5,0.1,4,2.4,-1.97012,-3.40024,0.616522,-0.724909,0.0913978,-0.0150725,-0.201106,-0.0663996,0.0113249,0.00853375,0.879436,5,0.1,5,2.4,0.675384,-1.76363,0.50947,0.346588,-0.10449,-0.0576198,-0.125766,0.135243,0.228465,0.00647608,0.30628,5,0.1,6,2.4,-1.38329,3.8433,0.61287,0.46829,0.197494,-0.0126898,-0.412345,-0.261307,0.0151992,0.00774738,0.197522,5,0.1,7,2.4,-1.05548,4.05301,0.588314,0.360122,-0.00308752,0.0118509,-1.0004,0.0038147,-0.0133216,0.00697711,0.305982,5,0.1,8,2.4,1.14684,-3.77898,0.568182,-0.463098,-0.463748,-0.0169307,-0.423014,0.390291,-0.0129044,0.00841464,0.492057,5,0.1,9,2.4,-0.221747,-0.221301,0.608293,-0.132276,0.129084,-0.014019,0.12669,-0.515491,0.013411,0.0161316,0.251731,5,0.1,10,2.4,3.65125,0.0814153,0.500038,-0.168139,0.808281,-4.02331e-05,-0.137448,-0.588968,-0.000327826,0.0143766,2.73358,5,0.1,11,2.4,3.54949,-1.89222,0.635509,-0.0275493,0.866026,-0.00983924,0.005126,-5.96046e-05,0.00181794,0.0147583,2.27137,5,0.1,12,2.4,-0.117274,2.01329,0.610171,-0.161754,-0.727654,-0.00939071,0.18353,0.519335,0.00959635,0.0126176,0.407543,5,0.1,13,2.4,2.48218,2.75352,0.500008,0.445437,0.212932,-4.76837e-05,-0.901699,-0.0824928,0.000149012,0.00908837,0.200152,5,0.1,14,2.4,0.414274,-1.63278,0.780339,0.278991,-0.0897229,0.0155494,0.233844,-0.0175834,-0.0960529,0.00876501,0.234399,5,0.1,15,2.4,-3.01105,-3.25874,0.610303,-0.0276506,0.150687,-0.00719577,0.0576973,-0.128746,0.00837445,0.00809714,0.205794,5,0.1,16,2.4,-2.54941,2.93975,0.60683,0.553405,-0.426042,-0.00516325,-0.484705,0.391603,0.00441074,0.0143234,0.369706,5,0.1,17,2.4,-2.15823,2.70714,0.59372,0.361991,-0.325453,0.0063315,-0.391841,0.231743,-0.00682473,0.0143154,0.135768,5,0.1,18,2.4,-0.0584278,3.9427,0.734213,-0.837531,0.0951707,0.0139967,0.369587,-0.0939369,-0.0138283,0.0110133,2.03246,5,0.1,19,2.4,-0.618381,-2.43626,0.607744,0.246628,0.544614,-0.00842661,-0.0877976,-0.32413,0.00864267,0.0109566,0.266882,5,0.1,20,2.4,-1.65136,-3.92477,0.645478,0.866026,0.231951,-0.00746697,-5.96046e-05,-0.0184774,-0.0182688,0.0132021,2.2361,5,0.1,21,2.4,-1.00139,1.61363,0.563236,0.00970662,-0.331905,-0.029473,-0.0956059,0.213921,0.0190139,0.0092047,0.122124,5,0.1,22,2.4,3.66717,-0.949676,0.564873,-0.0996768,0.866026,0.024645,0.0171661,0,0.0999272,0.0236975,2.26564,5,0.1,23,2.4,3.33118,2.74077,0.618098,0.133514,-0.708115,-0.017707,-0.0251532,-1.27935,0.00175834,0.0120927,2.62721,5,0.1,24,2.4,1.16049,-0.841676,0.596854,-0.286475,-0.796326,0.000795722,-0.968158,0.20808,-0.0109375,0.011953,1.77405,5,0.1,25,2.4,4.26408,2.73796,0.606265,-0.0222564,0.819355,0.0322685,-0.0455379,-0.291348,-0.0168681,0.011477,0.467581,5,0.1,26,2.4,-0.0757858,-3.3331,0.609819,-0.239467,0.147003,-0.0105262,0.17054,-0.392199,0.00739098,0.0222834,0.208228,5,0.1,27,2.4,3.90456,0.68972,0.511597,0.0304401,-0.306642,-0.0311986,-0.157952,-0.0546873,0.0609159,0.00907821,0.13147,5,0.1,28,2.4,-0.288372,-1.79838,0.592503,0.306249,-0.00164807,0.00801384,-0.418916,0.000953674,-0.00560284,0.0101608,0.198561,5,0.1,29,2.4,-0.679099,1.68095,0.605557,-0.21359,0.0385791,0.00552237,1.22508,-0.0855923,0.0667572,0.0127503,0.266918,5,0.1,30,2.4,-1.46359,-1.95735,0.594358,-0.164807,-0.782463,-0.0253439,0.112534,0.0709295,0.0369847,0.00850677,0.884769,5,0.1,31,2.4,-0.519181,-1.96719,0.66722,-0.0712231,0.416315,0.0219405,0.0225008,1.50269,-0.113487,0.0289525,2.59103,5,0.1,32,2.4,3.43869,1.06126,0.623247,-0.236899,0.469187,0.0376374,0.276566,1.23924,-0.0806451,0.0150076,2.41262,5,0.1,33,2.4,-1.23901,-2.55236,0.666098,-0.045535,-0.866026,-0.0109941,0.0621676,0,-0.00542402,0.0103664,1.51597,5,0.1,34,2.4,-2.28749,-1.25252,0.653181,0.16849,-0.21885,0.0154048,-0.194907,0.253201,-0.0178516,0.0110087,0.00605988,5,0.1,35,2.4,-3.30702,1.1978,0.739043,0.284249,0.154325,0.0111073,-0.229001,-0.173807,-0.0124574,0.0160869,0.263754,5,0.1,36,2.4,0.955263,3.20138,0.716,-0.861406,0.515699,0.0272855,0.0923872,0.222564,-0.0211298,0.0132374,1.26264,5,0.1,37,2.4,2.72906,3.07174,0.580655,0.544983,-0.185806,0.0168234,-0.472426,0.0565052,-0.00727177,0.00856192,0.132685,5,0.1,38,2.4,0.352253,2.98394,0.628829,0.120444,-0.318867,-0.0182301,-0.0476092,0.126243,0.00724196,0.0182477,0.0422495,5,0.1,39,2.4,-0.228065,1.54165,0.597694,-0.0301797,-0.484669,0.00178367,-0.0467375,0.231445,-0.000983477,0.010793,0.180029,5,0.1
