id,t,px,py,pz,vx,vy,vz,ax,ay,az,planning_time,qp_cost,planning_report,size,id,t,px,py,pz,vx,vy,vz,ax,ay,az,planning_time,qp_cost,planning_report,size,id,t,px,py,pz,vx,vy,vz,ax,ay,az,planning_time,qp_cost,planning_report,size,id,t,px,py,pz,vx,vy,vz,ax,ay,az,planning_time,qp_cost,planning_report,size,id,t,px,py,pz,vx,vy,vz,ax,ay,az,planning_time,qp_cost,planning_report,size,id,t,px,py,pz,vx,vy,vz,ax,ay,az,planning_time,qp_cost,planning_report,size,id,t,px,py,pz,vx,vy,vz,ax,ay,az,planning_time,qp_cost,planning_report,size,id,t,px,py,pz,vx,vy,vz,ax,ay,az,planning_time,qp_cost,planning_report,size,id,t,px,py,pz,vx,vy,vz,ax,ay,az,planning_time,qp_cost,planning_report,size,id,t,px,py,pz,vx,vy,vz,ax,ay,az,planning_time,qp_cost,planning_report,size,id,t,px,py,pz,vx,vy,vz,ax,ay,az,planning_time,qp_cost,planning_report,size,id,t,px,py,pz,vx,vy,vz,ax,ay,az,planning_time,qp_cost,planning_report,size,id,t,px,py,pz,vx,vy,vz,ax,ay,az,planning_time,qp_cost,planning_report,size,id,t,px,py,pz,vx,vy,vz,ax,ay,az,planning_time,qp_cost,planning_report,size,id,t,px,py,pz,vx,vy,vz,ax,ay,az,planning_time,qp_cost,planning_report,size,id,t,px,py,pz,vx,vy,vz,ax,ay,az,planning_time,qp_cost,planning_report,size,id,t,px,py,pz,vx,vy,vz,ax,ay,az,planning_time,qp_cost,planning_report,size,id,t,px,py,pz,vx,vy,vz,ax,ay,az,planning_time,qp_cost,planning_report,size,id,t,px,py,pz,vx,vy,vz,ax,ay,az,planning_time,qp_cost,planning_report,size,id,t,px,py,pz,vx,vy,vz,ax,ay,az,planning_time,qp_cost,planning_report,size,id,t,px,py,pz,vx,vy,vz,ax,ay,az,planning_time,qp_cost,planning_report,size,id,t,px,py,pz,vx,vy,vz,ax,ay,az,planning_time,qp_cost,planning_report,size,id,t,px,py,pz,vx,vy,vz,ax,ay,az,planning_time,qp_cost,planning_report,size,id,t,px,py,pz,vx,vy,vz,ax,ay,az,planning_time,qp_cost,planning_report,size,id,t,px,py,pz,vx,vy,vz,ax,ay,az,planning_time,qp_cost,planning_report,size,id,t,px,py,pz,vx,vy,vz,ax,ay,az,planning_time,qp_cost,planning_report,size,id,t,px,py,pz,vx,vy,vz,ax,ay,az,planning_time,qp_cost,planning_report,size,id,t,px,py,pz,vx,vy,vz,ax,ay,az,planning_time,qp_cost,planning_report,size,id,t,px,py,pz,vx,vy,vz,ax,ay,az,planning_time,qp_cost,planning_report,size,id,t,px,py,pz,vx,vy,vz,ax,ay,az,planning_time,qp_cost,planning_report,size,id,t,px,py,pz,vx,vy,vz,ax,ay,az,planning_time,qp_cost,planning_report,size,id,t,px,py,pz,vx,vy,vz,ax,ay,az,planning_time,qp_cost,planning_report,size,id,t,px,py,pz,vx,vy,vz,ax,ay,az,planning_time,qp_cost,planning_report,size,id,t,px,py,pz,vx,vy,vz,ax,ay,az,planning_time,qp_cost,planning_report,size,id,t,px,py,pz,vx,vy,vz,ax,ay,az,planning_time,qp_cost,planning_report,size,id,t,px,py,pz,vx,vy,vz,ax,ay,az,planning_time,qp_cost,planning_report,size,id,t,px,py,pz,vx,vy,vz,ax,ay,az,planning_time,qp_cost,planning_report,size,id,t,px,py,pz,vx,vy,vz,ax,ay,az,planning_time,qp_cost,planning_report,size,id,t,px,py,pz,vx,vy,vz,ax,ay,az,planning_time,qp_cost,planning_report,size,id,t,px,py,pz,vx,vy,vz,ax,ay,az,planning_time,qp_cost,planning_report,size
0,0,-1.8621,2.74658,0.555341,0,0,0,0,0,0,0.0240947,1.87035,5,0.1,1,0,4.24819,0.734838,0.626216,0,0,0,0,0,0,0.0157899,3.5122,5,0.1,2,0,0.0155993,-3.6102,0.592502,0,0,0,0,0,0,0.0121042,0.814938,5,0.1,3,0,2.32133,-1.38323,0.583308,0,0,0,0,0,0,0.0106758,3.31643,5,0.1,4,0,3.70622,0.990757,0.574074,0,0,0,0,0,0,0.0189947,3.51219,5,0.1,5,0,-3.07324,-3.5403,0.647562,0,0,0,0,0,0,0.0120084,1.83126,5,0.1,6,0,1.21507,-0.812145,0.608235,0,0,0,0,0,0,0.0232011,2.24586,5,0.1,7,0,1.98328,-4.38055,0.681287,0,0,0,0,0,0,0.0138786,3.51219,5,0.1,8,0,-1.38884,-3.13368,0.53413,0,0,0,0,0,0,0.00929541,3.5122,5,0.1,9,0,-3.18669,3.71736,0.54223,0,0,0,0,0,0,0.0166236,3.21516,5,0.1,10,0,1.76189,-1.74035,0.559053,0,0,0,0,0,0,0.010728,3.5122,5,0.1,11,0,0.551775,2.70413,0.624533,0,0,0,0,0,0,0.0120366,1.61968,5,0.1,12,0,-4.28899,-0.37443,0.567738,0,0,0,0,0,0,0.0394451,3.5122,5,0.1,13,0,-4.03939,-3.51246,0.687882,0,0,0,0,0,0,0.0314785,3.5122,5,0.1,14,0,2.39977,3.96573,0.57821,0,0,0,0,0,0,0.00911807,3.5122,5,0.1,15,0,2.01036,3.32367,0.577902,0,0,0,0,0,0,0.0134546,3.5122,5,0.1,16,0,0.85645,-1.55824,0.642163,0,0,0,0,0,0,0.0233528,2.2372,5,0.1,17,0,-3.03211,-0.898128,0.608509,0,0,0,0,0,0,0.0111257,1.8294,5,0.1,18,0,4.30154,-0.693473,0.546892,0,0,0,0,0,0,0.0157757,3.5122,5,0.1,19,0,1.79048,0.524446,0.665891,0,0,0,0,0,0,0.0146295,2.06677,5,0.1,20,0,-3.61215,-2.62484,0.683425,0,0,0,0,0,0,0.014119,1.02585,5,0.1,21,0,-0.413544,-4.28314,0.613724,0,0,0,0,0,0,0.0177175,3.51219,5,0.1,22,0,-3.57642,-1.35193,0.597183,0,0,0,0,0,0,0.00990218,2.84884,5,0.1,23,0,3.68824,-2.07672,0.551641,0,0,0,0,0,0,0.00899525,2.50986,5,0.1,24,0,3.6265,-0.844138,0.509171,0,0,0,0,0,0,0.0186243,3.5122,5,0.1,25,0,-2.00984,-1.21788,0.503231,0,0,0,0,0,0,0.011246,2.69728,5,0.1,26,0,0.395545,4.20847,0.515683,0,0,0,0,0,0,0.0131941,3.5122,5,0.1,27,0,4.17036,2.71767,0.670101,0,0,0,0,0,0,0.00844784,3.51219,5,0.1,28,0,0.115628,1.63686,0.59222,0,0,0,0,0,0,0.0109348,0.454142,5,0.1,29,0,3.60138,-4.3773,0.584822,0,0,0,0,0,0,0.0235553,3.5122,5,0.1,30,0,0.537726,3.4483,0.678525,0,0,0,0,0,0,0.0213582,3.51219,5,0.1,31,0,1.28255,3.70342,0.656432,0,0,0,0,0,0,0.0218469,3.5122,5,0.1,32,0,-2.41186,3.68075,0.575872,0,0,0,0,0,0,0.0165363,3.5122,5,0.1,33,0,-3.19862,-4.14126,0.616575,0,0,0,0,0,0,0.00954805,3.51928,5,0.1,34,0,-1.44816,-1.93082,0.54651,0,0,0,0,0,0,0.0213601,3.51219,5,0.1,35,0,-1.69957,4.06191,0.57837,0,0,0,0,0,0,0.00951525,3.5122,5,0.1,36,0,0.433662,-0.535991,0.642553,0,0,0,0,0,0,0.00996694,3.5122,5,0.1,37,0,-2.52533,-3.97419,0.655822,0,0,0,0,0,0,0.0478394,3.5122,5,0.1,38,0,-2.37077,4.29812,0.533377,0,0,0,0,0,0,0.0114835,3.5122,5,0.1,39,0,-3.82339,2.96339,0.574375,0,0,0,0,0,0,0.0189232,1.38737,5,0.1
0,0.1,-1.8611,2.74543,0.555387,0.0285111,-0.0324953,0.00132332,0.506863,-0.577703,0.0235252,0.0240947,1.87035,5,0.1,1,0.1,4.24728,0.736717,0.626195,-0.0258543,0.0533281,-0.000617187,-0.459641,0.948057,-0.010971,0.0157899,3.5122,5,0.1,2,0.1,0.0152698,-3.60925,0.592509,-0.00935252,0.026973,0.000222214,-0.166267,0.479504,0.00394881,0.0121042,0.814938,5,0.1,3,0.1,2.32071,-1.38516,0.583382,-0.01757,-0.0548068,0.00211233,-0.312358,-0.974342,0.0375472,0.0106758,3.31643,5,0.1,4,0.1,3.70567,0.992768,0.5741,-0.0158109,0.0571156,0.000736956,-0.281096,1.01539,0.0131018,0.0189947,3.51219,5,0.1,5,0.1,-3.07175,-3.54005,0.647513,0.0421762,0.00712052,-0.00140956,0.749797,0.1266,-0.0250526,0.0120084,1.83126,5,0.1,6,0.1,1.21349,-0.81161,0.608227,-0.0448978,0.0151768,-0.000244007,-0.798188,0.269808,-0.00433624,0.0232011,2.24586,5,0.1,7,0.1,1.98303,-4.37847,0.681314,-0.00705663,0.0588432,0.000765733,-0.125445,1.04606,0.0136122,0.0138786,3.51219,5,0.1,8,0.1,-1.38867,-3.1316,0.534153,0.00500027,0.0590533,0.000655558,0.0888929,1.04985,0.0116564,0.00929541,3.5122,5,0.1,9,0.1,-3.18525,3.71599,0.54229,0.0410933,-0.0390388,0.00171205,0.730559,-0.694007,0.0304319,0.0166236,3.21516,5,0.1,10,0.1,1.76229,-1.74239,0.559136,0.0113558,-0.0581225,0.00235457,0.201881,-1.03328,0.0418648,0.010728,3.5122,5,0.1,11,0.1,0.551668,2.70272,0.624507,-0.00301609,-0.0401288,-0.00072699,-0.0536181,-0.713408,-0.0129193,0.0120366,1.61968,5,0.1,12,0.1,-4.2869,-0.374313,0.567755,0.059171,0.0033292,0.000478607,1.05196,0.0591837,0.00851229,0.0394451,3.5122,5,0.1,13,0.1,-4.03732,-3.51227,0.687936,0.0590153,0.00524819,0.00153407,1.04913,0.0932813,0.0272766,0.0314785,3.5122,5,0.1,14,0.1,2.39768,3.96582,0.578236,-0.0592049,0.00262819,0.000739843,-1.05254,0.0467151,0.0131503,0.00911807,3.5122,5,0.1,15,0.1,2.00863,3.32249,0.577917,-0.0490032,-0.0333346,0.000440236,-0.871152,-0.592619,0.00782683,0.0134546,3.5122,5,0.1,16,0.1,0.856808,-1.55661,0.642119,0.0101808,0.0461772,-0.00124928,0.180993,0.82092,-0.0222102,0.0233528,2.2372,5,0.1,17,0.1,-3.03082,-0.898913,0.608501,0.0365127,-0.0222812,-0.000252202,0.649109,-0.396106,-0.00448525,0.0111257,1.8294,5,0.1,18,0.1,4.30099,-0.691458,0.546921,-0.0155106,0.0571971,0.000822265,-0.275731,1.01684,0.0146218,0.0157757,3.5122,5,0.1,19,0.1,1.7894,0.525621,0.665822,-0.0308337,0.0333549,-0.0019527,-0.548162,0.592977,-0.0347085,0.0146295,2.06677,5,0.1,20,0.1,-3.61166,-2.62382,0.683495,0.0136957,0.0288889,0.00197291,0.243485,0.513583,0.0350699,0.014119,1.02585,5,0.1,21,0.1,-0.414475,-4.28127,0.613714,-0.0264273,0.0530504,-0.000261422,-0.469817,0.943094,-0.00465289,0.0177175,3.51219,5,0.1,22,0.1,-3.57456,-1.35225,0.597186,0.0526424,-0.00883285,8.35396e-05,0.935867,-0.157036,0.00148639,0.00990218,2.84884,5,0.1,23,0.1,3.68893,-2.07835,0.551756,0.0195514,-0.0460144,0.0032614,0.34757,-0.818029,0.0579841,0.00899525,2.50986,5,0.1,24,0.1,3.62638,-0.842054,0.509133,-0.00321902,0.059171,-0.00107931,-0.0572056,1.05193,-0.019189,0.0186243,3.5122,5,0.1,25,0.1,-2.00895,-1.21628,0.503255,0.0252806,0.0453668,0.000685826,0.449419,0.806518,0.0121891,0.011246,2.69728,5,0.1,26,0.1,0.397528,4.20782,0.515626,0.0562767,-0.0185229,-0.00160392,1.00048,-0.329286,-0.0285134,0.0131941,3.5122,5,0.1,27,0.1,4.16829,2.7179,0.670044,-0.0588775,0.00659525,-0.00163764,-1.04672,0.117242,-0.0291094,0.00844784,3.51219,5,0.1,28,0.1,0.115194,1.63625,0.592228,-0.0123168,-0.0173913,0.000230502,-0.218965,-0.309177,0.00410154,0.0109348,0.454142,5,0.1,29,0.1,3.60134,-4.37521,0.584873,-0.00132322,0.0592358,0.00144355,-0.023514,1.05307,0.0256673,0.0235553,3.5122,5,0.1,30,0.1,0.536721,3.44647,0.678598,-0.0285153,-0.0519168,0.00206353,-0.506941,-0.922963,0.0366829,0.0213582,3.51219,5,0.1,31,0.1,1.28447,3.70261,0.656378,0.0545673,-0.0230826,-0.00152625,0.97008,-0.410378,-0.027135,0.0218469,3.5122,5,0.1,32,0.1,-2.4107,3.67902,0.575893,0.0330087,-0.0492219,0.000584777,0.586823,-0.875041,0.0103973,0.0165363,3.5122,5,0.1,33,0.1,-3.19875,-4.13942,0.616558,-0.00386834,0.0522271,-0.000484008,-0.0687838,0.928462,-0.00860915,0.00954805,3.51928,5,0.1,34,0.1,-1.44721,-1.92896,0.546555,0.0271169,0.0526862,0.00126325,0.482075,0.93665,0.022456,0.0213601,3.51219,5,0.1,35,0.1,-1.69954,4.05983,0.578385,0.000975281,-0.0592589,0.000425521,0.017345,-1.05351,0.00756606,0.00951525,3.5122,5,0.1,36,0.1,0.432483,-0.537714,0.642497,-0.0334598,-0.048894,-0.00159433,-0.594841,-0.869226,-0.0283383,0.00996694,3.5122,5,0.1,37,0.1,-2.52394,-3.97264,0.655787,0.0396285,0.0440605,-0.000994094,0.704512,0.783294,-0.0176728,0.0478394,3.5122,5,0.1,38,0.1,-2.3687,4.29781,0.533429,0.0586025,-0.00873655,0.00146171,1.04183,-0.15533,0.0259914,0.0114835,3.5122,5,0.1,39,0.1,-3.82221,2.96281,0.574402,0.0332903,-0.0166949,0.000759307,0.591829,-0.296816,0.0135042,0.0189232,1.38737,5,0.1
0,0.2,-1.85531,2.73883,0.555656,0.0901073,-0.102705,0.00418276,0.675857,-0.770211,0.0313818,0.0175346,1.53453,5,0.1,1,0.2,4.24203,0.747549,0.626069,-0.081706,0.168543,-0.00195056,-0.612974,1.2641,-0.0146329,0.0171595,2.92579,5,0.1,2,0.2,0.01337,-3.60377,0.592555,-0.0295586,0.0852466,0.000701845,-0.221689,0.639439,0.00527501,0.0130173,0.668612,5,0.1,3,0.2,2.31714,-1.39629,0.583811,-0.0555277,-0.173217,0.00667572,-0.416517,-1.29908,0.0500679,0.0128739,2.72097,5,0.1,4,0.2,3.70246,1.00437,0.57425,-0.0499725,0.180513,0.00232905,-0.374794,1.35386,0.0174642,0.017716,2.92579,5,0.1,5,0.2,-3.06318,-3.5386,0.647226,0.1333,0.0225067,-0.00445545,0.999689,0.1688,-0.0333786,0.0092863,1.50246,5,0.1,6,0.2,1.20437,-0.808527,0.608177,-0.141901,0.0479668,-0.00077188,-1.06418,0.359744,-0.00575185,0.0168621,1.84262,5,0.1,7,0.2,1.98159,-4.36652,0.68147,-0.0223041,0.185966,0.00241995,-0.167251,1.39475,0.0181496,0.0153135,2.9258,5,0.1,8,0.2,-1.38765,-3.11961,0.534286,0.0158012,0.18664,0.00207275,0.118613,1.39976,0.0155568,0.00988674,2.92579,5,0.1,9,0.2,-3.1769,3.70806,0.542638,0.129879,-0.123382,0.00541061,0.97394,-0.925422,0.0405908,0.0167606,2.63788,5,0.1,10,0.2,1.7646,-1.7542,0.559614,0.0358909,-0.183696,0.00744015,0.269115,-1.3777,0.0558496,0.0103649,2.9258,5,0.1,11,0.2,0.551056,2.69457,0.62436,-0.00953227,-0.126827,-0.00229776,-0.071466,-0.951171,-0.0172257,0.0135666,1.32887,5,0.1,12,0.2,-4.27488,-0.373637,0.567852,0.187016,0.0105225,0.00151247,1.40262,0.0789016,0.0113249,0.0352869,2.92579,5,0.1,13,0.2,-4.02533,-3.51121,0.688247,0.186515,0.016588,0.00484884,1.39904,0.124216,0.0363886,0.0328819,2.92578,5,0.1,14,0.2,2.38565,3.96636,0.578387,-0.187123,0.00830293,0.00233799,-1.40321,0.0623465,0.0175536,0.00973232,2.92581,5,0.1,15,0.2,1.99868,3.31572,0.578007,-0.154877,-0.105351,0.00139177,-1.16152,-0.790238,0.010401,0.0128302,2.92579,5,0.1,16,0.2,0.858876,-1.54723,0.641865,0.0321761,0.145942,-0.00394881,0.241339,1.09458,-0.0296235,0.0227,1.83551,5,0.1,17,0.2,-3.02341,-0.903439,0.608449,0.115395,-0.0704199,-0.000797212,0.865579,-0.528127,-0.00599027,0.0108357,1.50093,5,0.1,18,0.2,4.29784,-0.67984,0.547088,-0.0490189,0.18077,0.00259876,-0.367641,1.3558,0.0195205,0.0167034,2.92579,5,0.1,19,0.2,1.78313,0.532396,0.665425,-0.0974506,0.105418,-0.00617206,-0.730813,0.790626,-0.0462532,0.0165748,1.69568,5,0.1,20,0.2,-3.60888,-2.61795,0.683896,0.0432789,0.0913024,0.00623614,0.324726,0.684738,0.04673,0.0212872,0.841656,5,0.1,21,0.2,-0.419843,-4.27049,0.613661,-0.083524,0.167656,-0.000827014,-0.626415,1.25766,-0.00619888,0.0197219,2.92591,5,0.1,22,0.2,-3.56387,-1.35404,0.597203,0.16638,-0.0279158,0.000263751,1.24776,-0.209391,0.00196695,0.0116979,2.33733,5,0.1,23,0.2,3.6929,-2.08769,0.552419,0.0617921,-0.145429,0.0103071,0.463367,-1.09076,0.077337,0.00992709,2.05921,5,0.1,24,0.2,3.62573,-0.830034,0.508914,-0.0101745,0.18701,-0.00341088,-0.0762939,1.40256,-0.0255704,0.0184298,2.92579,5,0.1,25,0.2,-2.00381,-1.20707,0.503394,0.0798941,0.143382,0.00216812,0.599325,1.07539,0.0162423,0.0148293,2.21298,5,0.1,26,0.2,0.408959,4.20406,0.515301,0.177862,-0.0585437,-0.00506938,1.33395,-0.438929,-0.0380278,0.0113642,2.9258,5,0.1,27,0.2,4.15633,2.71924,0.669711,-0.186074,0.0208437,-0.00517517,-1.39594,0.156403,-0.0388324,0.0110528,2.92576,5,0.1,28,0.2,0.112692,1.63272,0.592275,-0.0389272,-0.0549644,0.000728667,-0.291951,-0.412285,0.00545382,0.0129969,0.372599,5,0.1,29,0.2,3.60107,-4.36318,0.585166,-0.00417829,0.187218,0.00456274,-0.0314713,1.40405,0.0342429,0.0162763,2.92598,5,0.1,30,0.2,0.530929,3.43593,0.679017,-0.0901237,-0.16408,0.00652075,-0.675887,-1.23072,0.0489354,0.0170701,2.92579,5,0.1,31,0.2,1.29556,3.69792,0.656068,0.172457,-0.0729501,-0.00482351,1.29354,-0.54729,-0.03618,0.0150951,2.92654,5,0.1,32,0.2,-2.404,3.66902,0.576012,0.104326,-0.155568,0.00184774,0.78249,-1.1667,0.0138581,0.0178415,2.92579,5,0.1,33,0.2,-3.19954,-4.12881,0.61646,-0.0122249,0.165057,-0.00153035,-0.0917912,1.23811,-0.0114739,0.0118643,2.97857,5,0.1,34,0.2,-1.4417,-1.91826,0.546811,0.0856996,0.166512,0.00399202,0.642836,1.24896,0.0299513,0.0239,2.92578,5,0.1,35,0.2,-1.69934,4.04779,0.578471,0.00308156,-0.18729,0.00134408,0.0231862,-1.40452,0.0101328,0.0121678,2.9258,5,0.1,36,0.2,0.425687,-0.547645,0.642173,-0.105749,-0.15453,-0.00503808,-0.793129,-1.15898,-0.0378191,0.0144812,2.92579,5,0.1,37,0.2,-2.51589,-3.96369,0.655585,0.125247,0.139254,-0.00314265,0.93925,1.04439,-0.0235438,0.0459928,2.9258,5,0.1,38,0.2,-2.3568,4.29604,0.533726,0.185215,-0.0276089,0.00461936,1.38903,-0.206947,0.0346899,0.0123894,2.9258,5,0.1,39,0.2,-3.81545,2.95941,0.574556,0.105214,-0.052768,0.00239909,0.789046,-0.395656,0.0180304,0.0196542,1.13828,5,0.1
0,0.3,-1.84255,2.72428,0.556249,0.167634,-0.191058,0.00778213,0.827014,-0.942528,0.0383928,0.0175346,1.53453,5,0.1,1,0.3,4.23045,0.771433,0.625793,-0.152198,0.313924,-0.00363328,-0.753254,1.55354,-0.0179783,0.0171595,2.92579,5,0.1,2,0.3,0.00918366,-3.5917,0.592654,-0.0549888,0.158595,0.00130665,-0.271276,0.78243,0.0064522,0.0130173,0.668612,5,0.1,3,0.3,2.30928,-1.42083,0.584757,-0.103305,-0.322238,0.0124189,-0.509664,-1.58969,0.0612624,0.0128739,2.72097,5,0.1,4,0.3,3.69537,1.02995,0.57458,-0.0930768,0.336218,0.00433791,-0.46061,1.66386,0.0214651,0.017716,2.92579,5,0.1,5,0.3,-3.0443,-3.53541,0.646596,0.247977,0.0418704,-0.00828542,1.22331,0.206545,-0.040859,0.0092863,1.50246,5,0.1,6,0.3,1.18427,-0.801734,0.608068,-0.263976,0.0892338,-0.00143275,-1.30225,0.440214,-0.0070557,0.0168621,1.84262,5,0.1,7,0.3,1.97843,-4.34017,0.681813,-0.04154,0.346377,0.00450732,-0.205547,1.71411,0.0223108,0.0153135,2.9258,5,0.1,8,0.3,-1.38541,-3.09316,0.53458,0.0294397,0.347626,0.00386145,0.145711,1.72028,0.0191107,0.00988674,2.92579,5,0.1,9,0.3,-3.15851,3.69058,0.543404,0.241605,-0.229535,0.0100663,1.19187,-1.1324,0.0496656,0.0167606,2.63788,5,0.1,10,0.3,1.76968,-1.78023,0.560669,0.0668438,-0.342144,0.013862,0.330769,-1.69317,0.0686124,0.0103649,2.9258,5,0.1,11,0.3,0.549706,2.67661,0.624034,-0.017731,-0.235938,-0.00427384,-0.0874661,-1.16394,-0.0210851,0.0135666,1.32887,5,0.1,12,0.3,-4.24838,-0.372146,0.568066,0.34833,0.0195973,0.00281567,1.72383,0.0969749,0.0139289,0.0352869,2.92579,5,0.1,13,0.3,-3.9989,-3.50886,0.688935,0.347411,0.03088,0.00903308,1.71928,0.152752,0.0447109,0.0328819,2.92578,5,0.1,14,0.3,2.35914,3.96754,0.578718,-0.348511,0.0154711,0.00435626,-1.72463,0.076592,0.0215657,0.00973232,2.92581,5,0.1,15,0.3,1.97673,3.30079,0.578204,-0.288463,-0.196233,0.00258908,-1.4275,-0.971124,0.0128001,0.0128302,2.92579,5,0.1,16,0.3,0.863433,-1.52656,0.641306,0.0598597,0.271502,-0.00734674,0.295307,1.33941,-0.0362508,0.0227,1.83551,5,0.1,17,0.3,-3.00706,-0.913413,0.608336,0.214683,-0.131002,-0.00148378,1.05914,-0.646271,-0.00732392,0.0108357,1.50093,5,0.1,18,0.3,4.29089,-0.654223,0.547456,-0.0913024,0.336699,0.00484297,-0.451803,1.66623,0.0239722,0.0167034,2.92579,5,0.1,19,0.3,1.76933,0.547326,0.664551,-0.181285,0.196112,-0.0114791,-0.894323,0.967473,-0.056617,0.0165748,1.69568,5,0.1,20,0.3,-3.60275,-2.60502,0.684779,0.0805251,0.169851,0.0115979,0.397295,0.837937,0.0572093,0.0212872,0.841656,5,0.1,21,0.3,-0.431714,-4.24675,0.613545,-0.156554,0.311788,-0.0015012,-0.787398,1.53658,-0.00693277,0.0197219,2.92591,5,0.1,22,0.3,-3.54031,-1.35799,0.59724,0.309515,-0.0519348,0.000489876,1.52691,-0.256218,0.00241399,0.0116979,2.33733,5,0.1,23,0.3,3.70165,-2.10829,0.553879,0.114948,-0.270551,0.0191773,0.567064,-1.3347,0.0946186,0.00992709,2.05921,5,0.1,24,0.3,3.62429,-0.803534,0.50843,-0.0189491,0.348317,-0.00635209,-0.0937581,1.72372,-0.0314303,0.0184298,2.92579,5,0.1,25,0.3,-1.9925,-1.18676,0.503701,0.14864,0.26674,0.00403179,0.733323,1.31591,0.0198819,0.0148293,2.21298,5,0.1,26,0.3,0.434164,4.19576,0.514582,0.33128,-0.10903,-0.00944259,1.6394,-0.539511,-0.0467338,0.0113642,2.9258,5,0.1,27,0.3,4.12996,2.72219,0.668978,-0.346607,0.0388287,-0.00964077,-1.71536,0.192165,-0.0477172,0.0110528,2.92576,5,0.1,28,0.3,0.107179,1.62493,0.592378,-0.0724173,-0.102256,0.00135452,-0.357255,-0.504486,0.00668317,0.0129969,0.372599,5,0.1,29,0.3,3.60047,-4.33665,0.585766,-0.0077948,0.348718,0.00718646,-0.0386238,1.72588,0.0187159,0.0162763,2.92598,5,0.1,30,0.3,0.518158,3.41267,0.679941,-0.167858,-0.305619,0.0121478,-0.830673,-1.51245,0.0601262,0.0170701,2.92579,5,0.1,31,0.3,1.31995,3.68765,0.655388,0.319864,-0.133988,-0.00890521,1.56552,-0.638723,-0.0430532,0.0150951,2.92654,5,0.1,32,0.3,-2.38921,3.64697,0.576274,0.194317,-0.28975,0.0034417,0.961632,-1.43385,0.0170358,0.0178415,2.92579,5,0.1,33,0.3,-3.20122,-4.10517,0.616246,-0.0213102,0.314437,-0.00275904,-0.0866354,1.6458,-0.0124834,0.0118643,2.97857,5,0.1,34,0.3,-1.42956,-1.89467,0.547377,0.159629,0.310149,0.00743652,0.789978,1.53487,0.0368021,0.0239,2.92578,5,0.1,35,0.3,-1.6989,4.02125,0.578662,0.00574589,-0.348828,0.00250787,0.0284463,-1.72623,0.0124201,0.0121678,2.9258,5,0.1,36,0.3,0.410701,-0.569544,0.641459,-0.196966,-0.287823,-0.00938643,-0.974732,-1.42435,-0.0464544,0.0144812,2.92579,5,0.1,37,0.3,-2.49814,-3.94396,0.65514,0.233273,0.259368,-0.00585103,1.15439,1.28354,-0.0289492,0.0459928,2.9258,5,0.1,38,0.3,-2.33055,4.29213,0.53438,0.344969,-0.0514135,0.00860756,1.70712,-0.254393,0.0426061,0.0123894,2.9258,5,0.1,39,0.3,-3.80055,2.95194,0.574896,0.195729,-0.0981573,0.00446634,0.96558,-0.484213,0.0220425,0.0196542,1.13828,5,0.1
0,0.4,-1.82172,2.70055,0.557215,0.247222,-0.281769,0.0114769,0.72968,-0.831485,0.0338554,0.0272598,1.21418,5,0.1,1,0.4,4.21153,0.810461,0.625341,-0.224781,0.463602,-0.00536591,-0.665665,1.37362,-0.0159144,0.0216927,2.5116,5,0.1,2,0.4,0.00235245,-3.572,0.592816,-0.081096,0.233895,0.00192821,-0.239329,0.690222,0.00566244,0.00835598,0.52901,5,0.1,3,0.4,2.29644,-1.46086,0.5863,-0.152349,-0.475225,0.018315,-0.449657,-1.40256,0.0540614,0.0106617,2.16076,5,0.1,4,0.4,3.6838,1.07175,0.575119,-0.137454,0.496528,0.00640601,-0.407338,1.4711,0.0189841,0.0145393,2.51051,5,0.1,5,0.4,-3.0135,-3.53021,0.645566,0.36571,0.0617504,-0.012219,1.07932,0.182152,-0.036031,0.00842263,1.18876,5,0.1,6,0.4,1.15148,-0.790648,0.60789,-0.389305,0.1316,-0.00211298,-1.14888,0.388354,-0.00622869,0.0165173,1.45791,5,0.1,7,0.4,1.97327,-4.29711,0.682373,-0.0613451,0.511527,0.00665635,-0.181794,1.51563,0.0196993,0.0193561,2.51419,5,0.1,8,0.4,-1.38175,-3.04994,0.53506,0.0434786,0.513369,0.00570267,0.128806,1.52111,0.0168979,0.0113677,2.51489,5,0.1,9,0.4,-3.12849,3.66207,0.544655,0.356311,-0.338513,0.014846,1.05155,-0.998974,0.0438094,0.0147313,2.08712,5,0.1,10,0.4,1.77799,-1.82277,0.562392,0.0987142,-0.50528,0.0204727,0.29248,-1.49703,0.0606477,0.00998453,2.5122,5,0.1,11,0.4,0.547503,2.6473,0.623503,-0.02615,-0.347954,-0.00630319,-0.0771582,-1.02687,-0.0185966,0.0126185,1.19889,5,0.1,12,0.4,-4.20508,-0.369709,0.568416,0.5144,0.028941,0.00415891,1.52445,0.0857413,0.0123084,0.0354517,2.51605,5,0.1,13,0.4,-3.9557,-3.50502,0.690058,0.513059,0.0456035,0.013341,1.52016,0.135064,0.0394881,0.0350662,2.52786,5,0.1,14,0.4,2.31581,3.96946,0.57926,-0.51468,0.0228465,0.00643283,-1.52481,0.0678301,0.0190735,0.00953791,2.51545,5,0.1,15,0.4,1.94087,3.2764,0.578525,-0.426,-0.289798,0.00382364,-1.26219,-0.858665,0.0112951,0.0140386,2.51007,5,0.1,16,0.4,0.87087,-1.49284,0.640393,0.0882804,0.400406,-0.0108346,0.260502,1.1816,-0.0319779,0.0245929,1.45232,5,0.1,17,0.4,-2.98039,-0.929687,0.608152,0.316614,-0.193198,-0.00218749,0.934243,-0.570178,-0.00649691,0.0119133,1.18755,5,0.1,18,0.4,4.27954,-0.612363,0.548058,-0.134838,0.497235,0.00715256,-0.399351,1.47325,0.0211895,0.0182992,2.5106,5,0.1,19,0.4,1.74681,0.571689,0.663126,-0.267354,0.28922,-0.0169277,-0.789046,0.853568,-0.0499785,0.0168962,1.34164,5,0.1,20,0.4,-3.59275,-2.58392,0.686219,0.118756,0.250489,0.0171036,0.350595,0.739336,0.0504553,0.0166055,0.665926,5,0.1,21,0.4,-0.451255,-4.20803,0.613362,-0.23286,0.459599,-0.00215173,-0.704065,1.35469,-0.00584126,0.0199338,2.51014,5,0.1,22,0.4,-3.50185,-1.36445,0.597301,0.456464,-0.076592,0.000722706,1.34706,-0.226021,0.00211596,0.0124861,1.84932,5,0.1,23,0.4,3.71593,-2.1419,0.556261,0.169522,-0.399005,0.0282839,0.500321,-1.17743,0.0834465,0.0168334,1.62927,5,0.1,24,0.4,3.62193,-0.76023,0.507641,-0.0279844,0.514393,-0.00938028,-0.0829697,1.52409,-0.0278056,0.0219988,2.51582,5,0.1,25,0.4,-1.97403,-1.15362,0.504202,0.219211,0.393382,0.00594556,0.646949,1.16092,0.0175238,0.0134763,1.75093,5,0.1,26,0.4,0.47535,4.18221,0.513408,0.489232,-0.161016,-0.0139445,1.44954,-0.476837,-0.0413358,0.0112938,2.51013,5,0.1,27,0.4,4.08687,2.72702,0.667779,-0.511885,0.0573456,-0.0142381,-1.51634,0.169873,-0.0421703,0.0120249,2.51426,5,0.1,28,0.4,0.0981829,1.61223,0.592546,-0.106799,-0.150806,0.00199825,-0.315182,-0.445008,0.00587106,0.0107948,0.294804,5,0.1,29,0.4,3.59951,-4.29329,0.586556,-0.0115156,0.515008,0.00840127,-0.0340939,1.52612,0.00604987,0.018185,2.51572,5,0.1,30,0.4,0.497289,3.37468,0.681451,-0.247892,-0.451338,0.017941,-0.734463,-1.33729,0.0531375,0.0159226,2.42271,5,0.1,31,0.4,1.35961,3.67114,0.654287,0.47009,-0.194675,-0.0130177,1.37323,-0.549555,-0.0374615,0.0163794,2.51978,5,0.1,32,0.4,-2.36505,3.61095,0.576702,0.286967,-0.427902,0.00508279,0.85032,-1.26779,0.01508,0.0157826,2.51007,5,0.1,33,0.4,-3.20375,-4.06553,0.61591,-0.0289977,0.476134,-0.00392199,-0.0649691,1.51086,-0.0102818,0.012252,2.55504,5,0.1,34,0.4,-1.40971,-1.85611,0.548302,0.235742,0.458029,0.0109822,0.698447,1.35708,0.0325739,0.020639,2.51006,5,0.1,35,0.4,-1.69819,3.97788,0.578974,0.00848472,-0.515139,0.00370443,0.0252128,-1.52647,0.0109673,0.0130175,2.51565,5,0.1,36,0.4,0.386213,-0.605327,0.640292,-0.290879,-0.425056,-0.0138626,-0.861838,-1.25936,-0.0410676,0.0107262,2.51008,5,0.1,37,0.4,-2.46914,-3.91171,0.654412,0.344491,0.383037,-0.00864118,1.02079,1.13475,-0.0255704,0.0399055,2.51009,5,0.1,38,0.4,-2.28766,4.28574,0.535451,0.509447,-0.0759244,0.0127137,1.50943,-0.225067,0.0376105,0.0144478,2.51346,5,0.1,39,0.4,-3.77623,2.93975,0.575451,0.288653,-0.144762,0.0065878,0.851989,-0.427127,0.0194311,0.0180177,0.90062,5,0.1
0,0.5,-1.79328,2.66816,0.558536,0.321253,-0.365533,0.014912,0.714637,-0.803769,0.0331625,0.0272598,1.21418,5,0.1,1,0.5,4.18573,0.863824,0.624725,-0.290453,0.603226,-0.00693938,-0.618845,1.35,-0.0148527,0.0216927,2.5116,5,0.1,2,0.5,-0.00697566,-3.54509,0.593038,-0.105378,0.303924,0.00250321,-0.234405,0.676036,0.00555068,0.00835598,0.52901,5,0.1,3,0.5,2.2791,-1.51532,0.588409,-0.192937,-0.611912,0.0238817,-0.350907,-1.27385,0.0543967,0.0106617,2.16076,5,0.1,4,0.5,3.66796,1.1289,0.575857,-0.179369,0.645993,0.00835955,-0.409395,1.44394,0.0190809,0.0145393,2.51051,5,0.1,5,0.5,-2.97143,-3.52311,0.644161,0.475217,0.0802331,-0.0158755,1.05709,0.178427,-0.0353083,0.00842263,1.18876,5,0.1,6,0.5,1.1067,-0.775511,0.607647,-0.505871,0.171002,-0.00274545,-1.12526,0.380371,-0.0061132,0.0165173,1.45791,5,0.1,7,0.5,1.9662,-4.23837,0.68314,-0.0800515,0.661599,0.00868393,-0.182711,1.41659,0.0198074,0.0193561,2.51419,5,0.1,8,0.5,-1.37674,-2.991,0.535717,0.0567323,0.663516,0.00744117,0.129454,1.41326,0.0169761,0.0113677,2.51489,5,0.1,9,0.5,-3.08751,3.62313,0.546363,0.463002,-0.439869,0.0192907,1.02992,-0.97841,0.0429079,0.0147313,2.08712,5,0.1,10,0.5,1.78937,-1.88085,0.564751,0.128812,-0.655096,0.0267133,0.293985,-1.42796,0.0609532,0.00998453,2.5122,5,0.1,11,0.5,0.544495,2.60846,0.622778,-0.033979,-0.418535,-0.00819024,-0.0755824,-0.409544,-0.0182167,0.0126185,1.19889,5,0.1,12,0.5,-4.14603,-0.366295,0.568896,0.6646,0.0400212,0.00542458,1.41141,0.126308,0.0123531,0.0354517,2.51605,5,0.1,13,0.5,-3.89691,-3.49954,0.691614,0.66005,0.0657376,0.0179439,1.36019,0.246599,0.0492744,0.0350662,2.52786,5,0.1,14,0.5,2.25674,3.97209,0.580001,-0.664868,0.0298232,0.00839522,-1.4108,0.0680983,0.0191666,0.00953791,2.51545,5,0.1,15,0.5,1.89178,3.243,0.578966,-0.555884,-0.378155,0.00498714,-1.26869,-0.863045,0.0113733,0.0140386,2.51007,5,0.1,16,0.5,0.881026,-1.4468,0.639147,0.114769,0.519713,-0.0140715,0.256177,1.147,-0.0311881,0.0245929,1.45232,5,0.1,17,0.5,-2.94398,-0.95191,0.6079,0.411404,-0.251048,-0.00284547,0.915036,-0.558443,-0.00634417,0.0119133,1.18755,5,0.1,18,0.5,4.264,-0.555137,0.548883,-0.175935,0.646732,0.0093326,-0.401437,1.44264,0.0212938,0.0182992,2.5106,5,0.1,19,0.5,1.71606,0.604957,0.661178,-0.34741,0.375822,-0.0219984,-0.772819,0.835996,-0.0489503,0.0168962,1.34164,5,0.1,20,0.5,-3.57909,-2.55511,0.688187,0.154324,0.325501,0.0222235,0.343338,0.724092,0.0494309,0.0166055,0.665926,5,0.1,21,0.5,-0.478172,-4.1551,0.613117,-0.30561,0.598846,-0.0027407,-0.713201,1.35878,-0.00564754,0.0199338,2.51014,5,0.1,22,0.5,-3.44935,-1.37326,0.597384,0.593139,-0.0995243,0.000938121,1.31936,-0.221379,0.00208244,0.0124861,1.84932,5,0.1,23,0.5,3.73543,-2.18779,0.559514,0.220284,-0.518469,0.0367503,0.490025,-1.15322,0.0817291,0.0168334,1.62927,5,0.1,24,0.5,3.61864,-0.701185,0.506585,-0.0383571,0.664574,-0.0115238,-0.11602,1.41135,-0.0151917,0.0219988,2.51582,5,0.1,25,0.5,-1.94882,-1.10837,0.504886,0.284849,0.511168,0.00772411,0.633605,1.13703,0.0171699,0.0134763,1.75093,5,0.1,26,0.5,0.531727,4.16365,0.511821,0.638394,-0.210091,-0.0176291,1.45699,-0.47943,-0.0314377,0.0112938,2.51013,5,0.1,27,0.5,4.02809,2.73363,0.666138,-0.66195,0.0748254,-0.0185777,-1.41586,0.170738,-0.0423901,0.0120249,2.51426,5,0.1,28,0.5,0.0858983,1.59488,0.592776,-0.138778,-0.195957,0.00259466,-0.308698,-0.435859,0.00576675,0.0107948,0.294804,5,0.1,29,0.5,3.59818,-4.23418,0.587414,-0.0150234,0.66523,0.00863578,-0.0342429,1.41031,-0.00108778,0.018185,2.51572,5,0.1,30,0.5,0.468739,3.3227,0.683517,-0.323028,-0.588141,0.0233771,-0.730367,-1.32978,0.052847,0.0159226,2.42271,5,0.1,31,0.5,1.41371,3.6488,0.65279,0.612366,-0.252586,-0.0169287,1.3972,-0.576183,-0.0386313,0.0163794,2.51978,5,0.1,32,0.5,-2.33198,3.56164,0.577287,0.374465,-0.558363,0.00663418,0.854641,-1.27433,0.015147,0.0157826,2.51007,5,0.1,33,0.5,-3.20697,-4.01018,0.615466,-0.0352174,0.630752,-0.00495147,-0.0567138,1.50385,-0.00980496,0.012252,2.55504,5,0.1,34,0.5,-1.38254,-1.80332,0.549567,0.307615,0.597676,0.0143332,0.702031,1.36404,0.0327229,0.020639,2.51006,5,0.1,35,0.5,-1.69721,3.91876,0.579401,0.011077,-0.665364,0.00483254,0.0252947,-1.41002,0.0110157,0.0130175,2.51565,5,0.1,36,0.5,0.352694,-0.654308,0.638695,-0.379565,-0.554648,-0.0180884,-0.866268,-1.26584,-0.0412725,0.0107262,2.51008,5,0.1,37,0.5,-2.42944,-3.86757,0.653417,0.449532,0.49981,-0.0112733,1.026,1.14062,-0.025712,0.0399055,2.51009,5,0.1,38,0.5,-2.22914,4.27699,0.536915,0.659432,-0.0990845,0.0165847,1.42038,-0.226229,0.0378154,0.0144478,2.51346,5,0.1,39,0.5,-3.74303,2.9231,0.576209,0.375095,-0.188101,0.00855904,0.83445,-0.41838,0.0190288,0.0180177,0.90062,5,0.1
0,0.6,-1.75785,2.6279,0.56018,0.383964,-0.435716,0.0178233,0.51409,-0.571847,0.0238121,0.0186687,0.976777,5,0.1,1,0.6,4.15386,0.930394,0.623963,-0.343645,0.72187,-0.00821799,-0.424862,0.974476,-0.010252,0.0206112,2.25114,5,0.1,2,0.6,-0.0185971,-3.51157,0.593314,-0.125948,0.363249,0.00299066,-0.168625,0.486255,0.00399351,0.00814622,0.449581,5,0.1,3,0.6,2.25828,-1.58228,0.591051,-0.22071,-0.720325,0.0287056,-0.19753,-0.855148,0.0399947,0.00967572,1.6551,5,0.1,4,0.6,3.64812,1.20018,0.576782,-0.215656,0.772744,0.0100508,-0.301003,1.0398,0.0140369,0.0168962,1.94787,5,0.1,5,0.6,-2.91902,-3.51426,0.64241,0.567985,0.095892,-0.0189736,0.760317,0.128388,-0.0254214,0.0137383,0.885005,5,0.1,6,0.6,1.05091,-0.756652,0.607344,-0.604618,0.204383,-0.00328124,-0.80955,0.273615,-0.00441074,0.0241869,1.08538,5,0.1,7,0.6,1.95734,-4.16575,0.684101,-0.0962466,0.783384,0.0104412,-0.134349,0.973701,0.0145435,0.0168979,2.32786,5,0.1,8,0.6,-1.37047,-2.91822,0.53654,0.0682056,0.784689,0.00894666,0.0951886,0.965714,0.0124574,0.0116011,2.3314,5,0.1,9,0.6,-3.03644,3.57462,0.54849,0.553387,-0.525731,0.0230566,0.740767,-0.703812,0.0308454,0.0173321,1.55382,5,0.1,10,0.6,1.80362,-1.95291,0.567706,0.154871,-0.778952,0.032115,0.216186,-1.00124,0.0448525,0.00890358,1.96513,5,0.1,11,0.6,0.540748,2.5654,0.621875,-0.0406116,-0.434619,-0.00978857,-0.0543892,0.0649691,-0.013113,0.0128001,1.10281,5,0.1,12,0.6,-4.07315,-0.361659,0.569496,0.785434,0.0525355,0.00651926,0.961304,0.1169,0.00908971,0.0377015,2.33221,5,0.1,13,0.6,-3.82477,-3.4917,0.693649,0.775087,0.0912368,0.0226259,0.899911,0.247717,0.0419915,0.0381629,2.60378,5,0.1,14,0.6,2.18383,3.97539,0.58093,-0.785613,0.0358582,0.0100926,-0.959873,0.0500679,0.0141263,0.0106461,2.33395,5,0.1,15,0.6,1.83028,3.20117,0.579518,-0.668329,-0.454646,0.00599623,-0.933051,-0.634789,0.00834465,0.0152509,2.21925,5,0.1,16,0.6,0.893689,-1.38954,0.637596,0.137284,0.620022,-0.0168025,0.184953,0.818789,-0.0223815,0.027187,1.08267,5,0.1,17,0.6,-2.89861,-0.979596,0.607586,0.491709,-0.300054,-0.00340194,0.658154,-0.401735,-0.00455976,0.00982946,0.884102,5,0.1,18,0.6,4.24454,-0.483798,0.549915,-0.211525,0.77325,0.0112191,-0.295162,1.03661,0.015676,0.0207213,2.30223,5,0.1,19,0.6,1.67774,0.646404,0.658752,-0.41523,0.449185,-0.0262931,-0.555873,0.601381,-0.0352263,0.0117745,0.998819,5,0.1,20,0.6,-3.56207,-2.51921,0.690638,0.184453,0.38904,0.0265628,0.247002,0.520945,0.0355542,0.0164139,0.49576,5,0.1,21,0.6,-0.51206,-4.0889,0.612817,-0.369054,0.719154,-0.00323206,-0.528932,0.996828,-0.00396371,0.0175416,2.23544,5,0.1,22,0.6,-3.38394,-1.38423,0.597488,0.70892,-0.11895,0.00112057,0.949144,-0.159264,0.00149012,0.0107735,1.37878,5,0.1,23,0.6,3.75973,-2.24497,0.563567,0.263286,-0.619674,0.0439227,0.352621,-0.829458,0.0588,0.0123375,1.21296,5,0.1,24,0.6,3.61423,-0.628309,0.505377,-0.0497103,0.785416,-0.0124499,-0.104904,0.961185,-0.00354648,0.0162435,2.3326,5,0.1,25,0.6,-1.9174,-1.052,0.505738,0.340453,0.610951,0.00923127,0.455737,0.817895,0.012368,0.0145897,1.30352,5,0.1,26,0.6,0.602346,4.14041,0.509924,0.767532,-0.252581,-0.0200823,1.07145,-0.352859,-0.0170767,0.0134694,2.28967,5,0.1,27,0.6,3.95544,2.74191,0.664083,-0.783622,0.0899613,-0.0223354,-0.972152,0.125527,-0.0311732,0.00951719,2.32811,5,0.1,28,0.6,0.0705934,1.57327,0.593062,-0.165867,-0.234205,0.00309944,-0.222068,-0.31358,0.00417233,0.0102947,0.219475,5,0.1,29,0.6,3.59652,-4.16125,0.588262,-0.0180602,0.785863,0.00823736,-0.0251532,0.958443,-0.00661612,0.0160651,2.33481,5,0.1,30,0.6,0.433047,3.25771,0.6861,-0.387503,-0.705528,0.0280425,-0.532418,-0.96941,0.0385046,0.0178515,1.81417,5,0.1,31,0.6,1.48147,3.62083,0.650917,0.736693,-0.304347,-0.0203818,1.03599,-0.435591,-0.0289083,0.0130764,2.19915,5,0.1,32,0.6,-2.29056,3.49987,0.578021,0.450212,-0.671309,0.00797808,0.628591,-0.937104,0.0111163,0.0169178,2.21944,5,0.1,33,0.6,-3.21074,-3.94012,0.614926,-0.0398934,0.763786,-0.00579953,-0.0348091,1.10316,-0.00676513,0.0162576,2.39096,5,0.1,34,0.6,-1.34852,-1.73721,0.551153,0.369838,0.718573,0.0172332,0.516236,1.00315,0.0240803,0.0261009,2.236,5,0.1,35,0.6,-1.69599,3.84581,0.579935,0.0133187,-0.785953,0.00580847,0.0185966,-0.957847,0.00810623,0.0177193,2.33486,5,0.1,36,0.6,0.310706,-0.715663,0.636694,-0.456344,-0.666843,-0.0217453,-0.637069,-0.930876,-0.0303686,0.0122742,2.2192,5,0.1,37,0.6,-2.37971,-3.81228,0.65217,0.540477,0.60091,-0.0135541,0.754356,0.838757,-0.0188947,0.0396452,2.21916,5,0.1,38,0.6,-2.15671,4.26602,0.53875,0.781906,-0.119126,0.0199378,0.983,-0.166655,0.0277758,0.0150081,2.32396,5,0.1,39,0.6,-3.70166,2.90235,0.577153,0.448322,-0.224817,0.0102282,0.6001,-0.301003,0.0137091,0.0171193,0.67049,5,0.1
0,0.7,-1.71693,2.58245,0.562079,0.433318,-0.464514,0.02011,0.44477,-0.0370741,0.0206158,0.0186687,0.976777,5,0.1,1,0.7,4.11742,1.00704,0.623091,-0.383902,0.806005,-0.00919877,-0.357062,0.67782,-0.00878796,0.0206112,2.25114,5,0.1,2,0.7,-0.0320206,-3.47357,0.593633,-0.142137,0.389896,0.00337437,-0.145893,0.064522,0.00345707,0.00814622,0.449581,5,0.1,3,0.7,2.2354,-1.65821,0.594122,-0.235003,-0.793595,0.0326549,-0.0847876,-0.579491,0.036601,0.00967572,1.6551,5,0.1,4,0.7,3.62507,1.28161,0.577857,-0.244821,0.845892,0.0114108,-0.265598,0.439644,0.0123829,0.0168962,1.94787,5,0.1,5,0.7,-2.85849,-3.50404,0.640388,0.64098,0.108219,-0.0214144,0.657856,0.111088,-0.0219978,0.0137383,0.885005,5,0.1,6,0.7,0.986466,-0.73487,0.606994,-0.682337,0.230651,-0.00370489,-0.700418,0.236738,-0.00381842,0.0241869,1.08538,5,0.1,7,0.7,1.94704,-4.08359,0.685219,-0.109731,0.849634,0.0119017,-0.126831,0.376403,0.0137463,0.0168979,2.32786,5,0.1,8,0.7,-1.36316,-2.83598,0.537498,0.0777591,0.850089,0.0101973,0.089854,0.368595,0.0117682,0.0116011,2.3314,5,0.1,9,0.7,-2.97747,3.51859,0.550947,0.624507,-0.593299,0.026018,0.640944,-0.608951,0.026688,0.0173321,1.55382,5,0.1,10,0.7,1.82017,-2.03476,0.57114,0.175826,-0.848045,0.0364619,0.190891,-0.402741,0.0395887,0.00890358,1.96513,5,0.1,11,0.7,0.536419,2.52313,0.620832,-0.0458332,-0.403414,-0.0110473,-0.0470579,0.509441,-0.0113472,0.0128001,1.10281,5,0.1,12,0.7,-3.99086,-0.355784,0.570194,0.850352,0.0651211,0.00743102,0.36411,0.126835,0.00856817,0.0377015,2.33221,5,0.1,13,0.7,-3.74407,-3.48074,0.696316,0.826593,0.13254,0.0323151,0.153989,0.529781,0.137281,0.0381629,2.60378,5,0.1,14,0.7,2.10153,3.97923,0.582011,-0.850407,0.040881,0.0115094,-0.363126,0.0472218,0.0133179,0.0106461,2.33395,5,0.1,15,0.7,1.75876,3.15249,0.580159,-0.760952,-0.518364,0.00683516,-0.862509,-0.599384,0.00789762,0.0152509,2.21925,5,0.1,16,0.7,0.908325,-1.3235,0.635805,0.155008,0.698952,-0.0189549,0.15948,0.71381,-0.0194199,0.027187,1.08267,5,0.1,17,0.7,-2.8462,-1.01158,0.607224,0.554896,-0.338622,-0.00383928,0.569463,-0.347581,-0.00393391,0.00982946,0.884102,5,0.1,18,0.7,4.22189,-0.402328,0.551116,-0.241155,0.846118,0.012792,-0.278741,0.436658,0.0147931,0.0207213,2.30223,5,0.1,19,0.7,1.63349,0.694277,0.65595,-0.468596,0.50692,-0.0296746,-0.48095,0.520308,-0.0304766,0.0117745,0.998819,5,0.1,20,0.7,-3.54241,-2.47775,0.693469,0.208163,0.43905,0.0299767,0.213668,0.450701,0.0307709,0.0164139,0.49576,5,0.1,21,0.7,-0.551648,-4.01244,0.612474,-0.422238,0.80491,-0.00362648,-0.501469,0.688553,-0.00366196,0.0175416,2.23544,5,0.1,22,0.7,-3.30855,-1.39691,0.597607,0.795305,-0.13424,0.00126408,0.736982,-0.137791,0.00129268,0.0107735,1.37878,5,0.1,23,0.7,3.78779,-2.31102,0.568248,0.297137,-0.699307,0.0495675,0.305057,-0.717685,0.0508688,0.0123375,1.21296,5,0.1,24,0.7,3.6087,-0.546022,0.504138,-0.0609335,0.850339,-0.0121107,-0.112459,0.364272,0.00943244,0.0162435,2.3326,5,0.1,25,0.7,-1.88112,-0.986885,0.506721,0.384206,0.689472,0.0104187,0.394315,0.707649,0.010699,0.0145897,1.30352,5,0.1,26,0.7,0.683431,4.11337,0.507873,0.844117,-0.287998,-0.0205288,0.470839,-0.33316,0.00674278,0.0134694,2.28967,5,0.1,27,0.7,3.87328,2.75155,0.661688,-0.849713,0.10301,-0.0255759,-0.374988,0.126511,-0.0314154,0.00951719,2.32811,5,0.1,28,0.7,0.0529155,1.54831,0.593393,-0.187187,-0.264309,0.00350019,-0.192133,-0.271298,0.00360981,0.0102947,0.219475,5,0.1,29,0.7,3.59458,-4.07893,0.58905,-0.0205856,0.850498,0.00747107,-0.0237674,0.361577,-0.00861287,0.0160651,2.33481,5,0.1,30,0.7,0.391671,3.18257,0.689094,-0.438891,-0.793651,0.0317593,-0.465941,-0.751406,0.0337027,0.0178515,1.81417,5,0.1,31,0.7,1.55965,3.58818,0.648732,0.819701,-0.348366,-0.0232882,0.610024,-0.41689,-0.0273921,0.0130764,2.19915,5,0.1,32,0.7,-2.24235,3.42805,0.578875,0.513309,-0.763663,0.00909427,0.593543,-0.854239,0.0105016,0.0169178,2.21944,5,0.1,33,0.7,-3.21433,-3.85927,0.614238,-0.0269812,0.842977,-0.00857376,0.259414,0.491008,-0.0435933,0.0162576,2.39096,5,0.1,34,0.7,-1.30892,-1.66078,0.552998,0.421659,0.804751,0.0196497,0.487499,0.690974,0.022728,0.0261009,2.236,5,0.1,35,0.7,-1.69456,3.76349,0.580557,0.0151834,-0.850526,0.0066217,0.0175312,-0.361085,0.0076443,0.0177193,2.33486,5,0.1,36,0.7,0.261844,-0.78704,0.634365,-0.520293,-0.759592,-0.0247934,-0.601592,-0.866611,-0.0286661,0.0122742,2.2192,5,0.1,37,0.7,-2.32184,-3.74794,0.650719,0.616204,0.685109,-0.0154516,0.71241,0.792101,-0.017859,0.0396452,2.21916,5,0.1,38,0.7,-2.07466,4.25327,0.540884,0.849124,-0.135844,0.0227266,0.385143,-0.157207,0.0262372,0.0150081,2.32396,5,0.1,39,0.7,-3.65388,2.87839,0.578243,0.505936,-0.253715,0.0115438,0.519246,-0.260457,0.0118501,0.0171193,0.67049,5,0.1
0,0.8,-1.67168,2.53647,0.564179,0.468189,-0.449103,0.0217259,0.233531,0.318527,0.010848,0.0163491,0.771714,5,0.1,1,0.8,4.07752,1.09035,0.622134,-0.411165,0.853246,-0.00987798,-0.172615,0.255585,-0.00441074,0.0174713,2.16479,5,0.1,2,0.8,-0.0468642,-3.43483,0.593985,-0.153576,0.379592,0.00364631,-0.0766107,-0.254035,0.00178814,0.0109012,0.248904,5,0.1,3,0.8,2.21169,-1.73981,0.597548,-0.237179,-0.831264,0.0356227,0.0426769,-0.155151,0.0211298,0.0085316,1.25899,5,0.1,4,0.8,3.59943,1.36757,0.579052,-0.265962,0.866026,0.0123978,-0.145793,0,0.00676513,0.0157454,1.50039,5,0.1,5,0.8,-2.79155,-3.49274,0.638151,0.692552,0.116926,-0.02314,0.345588,0.0584126,-0.0115633,0.00816196,0.678716,5,0.1,6,0.8,0.915209,-0.710782,0.606607,-0.737251,0.249213,-0.00400394,-0.36782,0.124305,-0.00202656,0.0163298,0.766339,5,0.1,7,0.8,1.9355,-3.9975,0.68647,-0.120175,0.866026,0.013034,-0.0761151,0,0.00822544,0.0144877,2.26067,5,0.1,8,0.8,-1.35499,-2.74987,0.53857,0.0851572,0.866026,0.0111669,0.0539422,0,0.00706315,0.00908481,2.26623,5,0.1,9,0.8,-2.91225,3.45663,0.553664,0.67476,-0.641048,0.028111,0.336647,-0.3196,0.0140071,0.0177605,1.0971,5,0.1,10,0.8,1.83859,-2.1208,0.574958,0.191027,-0.866026,0.0396147,0.104904,0,0.0217259,0.012736,1.48261,5,0.1,11,0.8,0.531633,2.48574,0.619678,-0.0495225,-0.341398,-0.0119373,-0.0247359,0.693917,-0.00596046,0.0119266,1.03825,5,0.1,12,0.8,-3.90474,-0.348675,0.570975,0.86602,0.0765346,0.00813603,0.000119209,0.0957102,0.0051558,0.0395216,2.26639,5,0.1,13,0.8,-3.6617,-3.4647,0.700293,0.810665,0.188655,0.0475228,-0.448704,0.555634,0.155777,0.0341971,2.90502,5,0.1,14,0.8,2.01541,3.98353,0.583221,-0.866023,0.044775,0.0126064,-5.96046e-05,0.0281334,0.00798702,0.0132085,2.30804,5,0.1,15,0.8,1.67885,3.09798,0.580878,-0.831273,-0.567722,0.00748485,-0.505328,-0.360131,0.00476837,0.0152321,2.07214,5,0.1,16,0.8,0.924514,-1.25052,0.633826,0.167497,0.75506,-0.0204802,0.0835359,0.377238,-0.0102222,0.0291263,0.765965,5,0.1,17,0.8,-2.78825,-1.04694,0.606823,0.599545,-0.365874,-0.00414699,0.299096,-0.182509,-0.00208616,0.00913586,0.624234,5,0.1,18,0.8,4.19654,-0.316355,0.552461,-0.264108,0.866026,0.0140101,-0.16737,-1.43051e-05,0.00888109,0.0164626,2.21473,5,0.1,19,0.8,1.58455,0.747216,0.652851,-0.506306,0.547713,-0.0320643,-0.252545,0.273228,-0.015974,0.0114159,0.872587,5,0.1,20,0.8,-3.52067,-2.4319,0.696599,0.224912,0.474387,0.0323907,0.112176,0.23663,0.0161231,0.0147462,0.350025,5,0.1,21,0.8,-0.59611,-3.92919,0.612095,-0.463715,0.852925,-0.0039205,-0.304997,0.262022,-0.00208616,0.0172631,2.12428,5,0.1,22,0.8,-3.22595,-1.41093,0.597739,0.8497,-0.145042,0.00136644,0.326514,-0.07236,0.000655651,0.0097895,0.995959,5,0.1,23,0.8,3.81882,-2.38405,0.573425,0.321054,-0.755578,0.0535563,0.160217,-0.376821,0.0267029,0.00896218,0.856423,5,0.1,24,0.8,3.60208,-0.459898,0.502989,-0.0709772,0.866026,-0.0107303,-0.0835657,-1.43051e-05,0.0174046,0.0178724,2.2674,5,0.1,25,0.8,-1.841,-0.914883,0.50781,0.41512,0.744954,0.0112578,0.207007,0.371605,0.00563264,0.0116387,0.920361,5,0.1,26,0.8,0.769332,4.08309,0.505884,0.866026,-0.31544,-0.018996,-2.98023e-05,-0.200033,0.0226796,0.0133861,2.21897,5,0.1,27,0.8,3.78717,2.76243,0.658988,-0.866026,0.113738,-0.0282407,0,0.0818968,-0.0203252,0.0106589,2.26087,5,0.1,28,0.8,0.0333672,1.52071,0.593758,-0.20225,-0.285578,0.00378191,-0.100895,-0.142515,0.00193715,0.0113281,0.154961,5,0.1,29,0.8,3.59242,-3.9928,0.589751,-0.0225425,0.866026,0.00653416,-0.0143051,0,-0.0100136,0.01704,2.27152,5,0.1,30,0.8,0.345759,3.10008,0.692417,-0.475755,-0.849229,0.0344262,-0.251383,-0.335932,0.0181794,0.0130918,1.31157,5,0.1,31,0.8,1.6439,3.55148,0.646281,0.857949,-0.382996,-0.025551,0.161529,-0.256181,-0.0165999,0.0138469,1.65657,5,0.1,32,0.8,-2.18838,3.34793,0.579832,0.562185,-0.832838,0.00995994,0.356436,-0.492096,0.00628829,0.0114039,2.07497,5,0.1,33,0.8,-3.21548,-3.7734,0.613137,0.00599027,0.866026,-0.0136107,0.373483,0,-0.0532269,0.0107683,2.31743,5,0.1,34,0.8,-1.26458,-1.57754,0.555064,0.461808,0.852895,0.0215203,0.292778,0.262618,0.0136793,0.0195776,2.12604,5,0.1,35,0.8,-1.69296,3.67736,0.581253,0.0166267,-0.866026,0.00725091,0.0104904,0,0.00458956,0.0142559,2.29428,5,0.1,36,0.8,0.207136,-0.866841,0.631759,-0.569836,-0.830486,-0.0271544,-0.361331,-0.511914,-0.0172257,0.0113676,2.07076,5,0.1,37,0.8,-2.25705,-3.6759,0.649094,0.674874,0.750339,-0.0169232,0.427961,0.475883,-0.0107288,0.038892,2.07648,5,0.1,38,0.8,-1.98858,4.23898,0.543274,0.866026,-0.148785,0.0248864,0,-0.0944138,0.0157654,0.0118222,2.25448,5,0.1,39,0.8,-3.60105,2.8519,0.579448,0.546646,-0.274134,0.0124723,0.272632,-0.136852,0.00625849,0.0190749,0.871171,5,0.1
0,0.9,-1.62375,2.49376,0.566404,0.489349,-0.400468,0.0227091,0.167258,0.598878,0.00777468,0.0163491,0.771714,5,0.1,1,0.9,4.03563,1.17646,0.621125,-0.425101,0.865065,-0.0102642,-0.0905544,0.0254661,-0.0028722,0.0174713,2.16479,5,0.1,2,0.9,-0.0625872,-3.39863,0.594358,-0.160518,0.340092,0.00380874,-0.0548761,-0.512391,0.00128895,0.0109012,0.248904,5,0.1,3,0.9,2.18824,-1.82339,0.601215,-0.231225,-0.836796,0.0376407,0.0812858,0.062421,0.0172555,0.0085316,1.25899,5,0.1,4,0.9,3.57213,1.45381,0.580324,-0.279342,0.854879,0.013019,-0.10854,-0.229038,0.00504404,0.0157454,1.50039,5,0.1,5,0.9,-2.72065,-3.48061,0.635782,0.723867,0.126663,-0.0241878,0.247523,0.120863,-0.00828877,0.00816196,0.678716,5,0.1,6,0.9,0.839729,-0.685268,0.606197,-0.770581,0.260477,-0.00418751,-0.263467,0.0890493,-0.00144914,0.0163298,0.766339,5,0.1,7,0.9,1.92309,-3.91089,0.687816,-0.128041,0.866026,0.0138854,-0.0731274,0,0.00792369,0.0144877,2.26067,5,0.1,8,0.9,-1.34619,-2.66326,0.539724,0.0907287,0.866026,0.0118966,0.0517517,0,0.0067763,0.00908481,2.26623,5,0.1,9,0.9,-2.84317,3.391,0.556542,0.705266,-0.67001,0.0293805,0.241145,-0.228956,0.0100322,0.0177605,1.0971,5,0.1,10,0.9,1.8582,-2.2074,0.579024,0.200658,-0.865849,0.0416094,0.0781938,0.00706315,0.0161938,0.012736,1.48261,5,0.1,11,0.9,0.526563,2.45531,0.618456,-0.0517637,-0.266249,-0.0124774,-0.0177175,0.753731,-0.00426546,0.0119266,1.03825,5,0.1,12,0.9,-3.81814,-0.340525,0.571815,0.866025,0.0864798,0.00866745,1.49012e-05,0.0960473,0.00493228,0.0395216,2.26639,5,0.1,13,0.9,-3.58372,-3.44307,0.706063,0.741528,0.243248,0.069689,-0.899747,0.512466,0.265859,0.0341971,2.90502,5,0.1,14,0.9,1.92882,3.98828,0.584561,-0.865172,0.0514168,0.014499,0.0317022,0.0934154,0.0266507,0.0132085,2.30804,5,0.1,15,0.9,1.5939,3.03933,0.581652,-0.861482,-0.605028,0.00797892,-0.134312,-0.347525,0.00460818,0.0152321,2.07214,5,0.1,16,0.9,0.941661,-1.17321,0.631729,0.175049,0.789413,-0.0214083,0.0595264,0.273287,-0.00735372,0.0291263,0.765965,5,0.1,17,0.9,-2.72687,-1.0844,0.606398,0.626648,-0.382412,-0.00433549,0.214264,-0.130728,-0.00148267,0.00913586,0.624234,5,0.1,18,0.9,4.16917,-0.229752,0.553908,-0.283777,0.866025,0.0149177,-0.202984,1.78814e-06,0.0083521,0.0164626,2.21473,5,0.1,19,0.9,1.53256,0.80329,0.649568,-0.533636,0.572472,-0.0335121,-0.259936,0.195708,-0.0114404,0.0114159,0.872587,5,0.1,20,0.9,-3.49764,-2.38333,0.699915,0.235077,0.495829,0.0338524,0.0803322,0.169486,0.0115596,0.0147462,0.350025,5,0.1,21,0.9,-0.644069,-3.8431,0.611692,-0.495252,0.865207,-0.00413721,-0.294019,0.0327528,-0.00199303,0.0172631,2.12428,5,0.1,22,0.9,-3.13999,-1.42578,0.597879,0.864581,-0.151599,0.00142632,0.0238419,-0.0518188,0.000473112,0.0097895,0.995959,5,0.1,23,0.9,3.85169,-2.4614,0.578908,0.335572,-0.789726,0.0559759,0.114754,-0.269935,0.0191294,0.00896218,0.856423,5,0.1,24,0.9,3.59455,-0.373295,0.502011,-0.0796556,0.866025,-0.00876542,-0.0835955,0,0.0212491,0.0178724,2.2674,5,0.1,25,0.9,-1.7985,-0.838615,0.508962,0.433878,0.778627,0.011768,0.148281,0.266187,0.00403821,0.0116387,0.920361,5,0.1,26,0.9,0.855923,4.0504,0.504117,0.865439,-0.338895,-0.016183,-0.0234284,-0.241607,0.03241,0.0133861,2.21897,5,0.1,27,0.9,3.70057,2.77423,0.656057,-0.866026,0.122332,-0.030374,0,0.0816286,-0.0202656,0.0106589,2.26087,5,0.1,28,0.9,0.0126609,1.49147,0.594146,-0.211393,-0.298491,0.0039571,-0.0722709,-0.10208,0.00138953,0.0113281,0.154961,5,0.1,29,0.9,3.59009,-3.9062,0.590355,-0.0240214,0.866026,0.00556316,-0.0137389,0,-0.00943244,0.01704,2.27152,5,0.1,30,0.9,0.296979,3.01413,0.695946,-0.498708,-0.86459,0.036086,-0.184336,-0.026539,0.0133328,0.0130918,1.31157,5,0.1,31,0.9,1.73019,3.51191,0.643644,0.86538,-0.407502,-0.0271321,0.014551,-0.211999,-0.0135861,0.0138469,1.65657,5,0.1,32,0.9,-2.13031,3.26289,0.58086,0.599109,-0.861806,0.010612,0.343964,-0.125885,0.00607595,0.0114039,2.07497,5,0.1,33,0.9,-3.21286,-3.6868,0.611463,0.0472784,0.865999,-0.0202035,0.43118,-0.00108778,-0.0735037,0.0107683,2.31743,5,0.1,34,0.9,-1.21687,-1.49145,0.557288,0.492104,0.865205,0.0229346,0.281945,0.0328273,0.0131503,0.0195776,2.12604,5,0.1,35,0.9,-1.69094,3.59076,0.582002,0.0263613,-0.865721,0.00772458,0.163853,0.0121742,0.00439584,0.0142559,2.29428,5,0.1,36,0.9,0.148269,-0.951743,0.628953,-0.60727,-0.861319,-0.0289386,-0.348761,-0.138566,-0.0166222,0.0113676,2.07076,5,0.1,37,0.9,-2.18728,-3.59899,0.647344,0.720758,0.782717,-0.0180739,0.440568,0.158474,-0.0110529,0.038892,2.07648,5,0.1,38,0.9,-1.90197,4.22362,0.545844,0.866026,-0.158512,0.0265116,0,-0.090152,0.0150725,0.0118222,2.25448,5,0.1,39,0.9,-3.54477,2.82383,0.580725,0.580242,-0.286534,0.0130387,0.353351,-0.0980198,0.0044778,0.0190749,0.871171,5,0.1
0,1,-1.57424,2.45682,0.568702,0.497916,-0.338155,0.0231087,-0.0107884,0.614524,-0.000506639,0.0207466,0.626675,5,0.1,1,1,3.99291,1.26294,0.62009,-0.426733,0.863433,-0.0103801,0.0675917,-0.051856,0.000834465,0.0158922,1.99336,5,0.1,2,1,-0.0788284,-3.36744,0.594744,-0.163328,0.281405,0.0038743,0.003528,-0.641704,-8.9407e-05,0.0120107,0.230714,5,0.1,3,1,2.16562,-1.90629,0.605046,-0.22015,-0.816,0.038743,0.143051,0.363469,0.00345707,0.00935346,0.957835,5,0.1,4,1,3.5438,1.53773,0.581644,-0.285459,0.81934,0.0133023,-0.00524521,-0.484407,0.000238419,0.0418817,1.27898,5,0.1,5,1,-2.64741,-3.46734,0.633335,0.736552,0.138414,-0.0246122,-0.015974,0.102639,0.000506639,0.0119022,0.467992,5,0.1,6,1,0.761761,-0.658913,0.605774,-0.784077,0.26504,-0.00426322,0.0168979,-0.00575185,8.9407e-05,0.0158604,0.521139,5,0.1,7,1,1.90998,-3.82429,0.689238,-0.133431,0.866026,0.014469,-0.0290871,0,0.00315905,0.0160638,2.2595,5,0.1,8,1,-1.3369,-2.57666,0.540942,0.0945389,0.866026,0.0123963,0.0205636,0,0.00271201,0.012968,2.26565,5,0.1,9,1,-2.77181,3.32321,0.559515,0.717622,-0.681734,0.0298947,-0.0154972,0.0146627,-0.000655651,0.0166591,0.746082,5,0.1,10,1,1.87854,-2.29389,0.583244,0.205079,-0.863206,0.0425234,0.0038743,0.0565052,0.000804663,0.0109838,1.11603,5,0.1,11,1,0.521325,2.43221,0.617194,-0.0526711,-0.199008,-0.0126973,0.00110269,0.562787,0.000298023,0.0137017,0.96331,5,0.1,12,1,-3.73153,-0.331444,0.572702,0.866026,0.0945285,0.0090301,0,0.0599325,0.00193715,0.040896,2.30835,5,0.1,13,1,-3.51457,-3.41641,0.714395,0.637066,0.287139,0.0968933,-1.16014,0.348926,0.261962,0.00831903,0.699401,5,0.1,14,1,1.84269,3.99392,0.586153,-0.854307,0.0614762,0.0173703,0.22471,0.0990629,0.0283718,0.0143362,2.41016,5,0.1,15,1,1.50741,2.97737,0.582469,-0.866026,-0.630724,0.00831932,0,-0.139832,0.00190735,0.011942,2.02351,5,0.1,16,1,0.959371,-1.09331,0.629563,0.178075,0.803638,-0.0217885,-0.00426173,-0.0129342,0.000447035,0.0284208,0.521773,5,0.1,17,1,-2.66347,-1.12309,0.60596,0.637627,-0.389108,-0.00441074,-0.0138283,0.00840425,8.9407e-05,0.0113971,0.424505,5,0.1,18,1,4.13988,-0.14315,0.555435,-0.300753,0.866025,0.0155255,-0.120163,0,0.00312924,0.0194617,2.20442,5,0.1,19,1,1.47811,0.861213,0.646177,-0.552505,0.582495,-0.0340983,-0.0937581,-0.0125766,0.000745058,0.0113744,0.504956,5,0.1,20,1,-3.47386,-2.33316,0.70334,0.239187,0.504512,0.034444,-0.00524521,-0.0109673,-0.000745058,0.0140135,0.238026,5,0.1,21,1,-0.694833,-3.75651,0.61127,-0.517157,0.866026,-0.00427812,-0.1221,0,-0.000625849,0.015862,2.09768,5,0.1,22,1,-3.05367,-1.44112,0.598023,0.859243,-0.154254,0.00145137,-0.135779,0.00327826,-5.96046e-05,0.0107052,0.709209,5,0.1,23,1,3.88564,-2.54131,0.584571,0.341451,-0.803554,0.0569552,-0.00739098,0.0174046,-0.0012219,0.00840149,0.582409,5,0.1,24,1,3.58621,-0.286693,0.501243,-0.0866055,0.866025,-0.00659376,-0.0510216,1.43051e-05,0.0216961,0.0184664,2.2663,5,0.1,25,1,-1.7546,-0.759833,0.510153,0.441471,0.792262,0.0119746,-0.00953674,-0.0171363,-0.000238419,0.0129823,0.625884,5,0.1,26,1,0.942162,4.01542,0.502668,0.856653,-0.35907,-0.0127226,-0.187486,-0.142574,0.0358522,0.0113817,1.83516,5,0.1,27,1,3.61397,2.78682,0.652932,-0.866026,0.128657,-0.0319421,0,0.0388622,-0.00971556,0.0104545,1.67769,5,0.1,28,1,-0.00872785,1.46127,0.594546,-0.215095,-0.303721,0.00402927,0.0046438,0.00661612,-5.96046e-05,0.00885433,0.197516,5,0.1,29,1,3.58763,-3.8196,0.590865,-0.025034,0.866026,0.00464469,-0.00548363,0,-0.00891089,0.0157429,2.27148,5,0.1,30,1,0.246453,2.92779,0.699602,-0.508742,-0.859845,0.0368118,-0.000878572,0.12362,8.9407e-05,0.0130816,0.92694,5,0.1,31,1,1.8167,3.47032,0.640878,0.863773,-0.421721,-0.0280276,-0.0451207,-0.0575781,-0.00333786,0.0112052,1.23194,5,0.1,32,1,-2.06895,3.17639,0.581947,0.624543,-0.866026,0.0110626,0.138283,0,0.00241399,0.015792,1.62538,5,0.1,33,1,-3.20603,-3.60022,0.609076,0.0885546,0.865585,-0.0274181,0.378728,-0.00858307,-0.0669956,0.00952311,2.53605,5,0.1,34,1,-1.16648,-1.40486,0.559636,0.512922,0.866026,0.0239059,0.112891,-5.96046e-05,0.00524521,0.0222295,1.87576,5,0.1,35,1,-1.68737,3.50435,0.582793,0.0457942,-0.861162,0.00804812,0.208974,0.097394,0.00172853,0.0116854,2.40987,5,0.1,36,1,0.0860782,-1.03823,0.62599,-0.63306,-0.866026,-0.0301659,-0.140364,0,-0.00673532,0.0112632,1.64666,5,0.1,37,1,-2.11331,-3.52053,0.645489,0.754642,0.780129,-0.0189245,0.203013,-0.216365,-0.0050962,0.0451422,2.28041,5,0.1,38,1,-1.81537,4.20739,0.548558,0.866026,-0.165129,0.0276193,-5.96046e-05,-0.0352859,0.00593066,0.00994883,2.25284,5,0.1,39,1,-3.48515,2.79484,0.582045,0.609457,-0.291556,0.013268,0.198007,0.00607967,-0.000268221,0.0189521,0.637844,5,0.1
0,1.1,-1.52452,2.42601,0.571009,0.49573,-0.280117,0.0230069,-0.0511557,0.491634,-0.00237301,0.0207466,0.626675,5,0.1,1,1.1,3.95071,1.34925,0.619058,-0.415863,0.86383,-0.0102469,0.156507,0.0184402,0.00212714,0.0158922,1.99336,5,0.1,2,1.1,-0.0951366,-3.34259,0.59513,-0.162612,0.215242,0.00385726,0.0167681,-0.66641,-0.000391155,0.0120107,0.230714,5,0.1,3,1.1,2.14416,-1.98618,0.608933,-0.21013,-0.782336,0.0389308,0.0715554,0.338495,-0.00109524,0.00935346,0.957835,5,0.1,4,1.1,3.51524,1.61642,0.582975,-0.285318,0.747941,0.0132956,0.0188053,-0.875331,-0.000879169,0.0418817,1.27898,5,0.1,5,1.1,-2.57386,-3.45293,0.630877,0.733319,0.149951,-0.0245065,-0.0756532,0.11614,0.00250712,0.0119022,0.467992,5,0.1,6,1.1,0.683472,-0.632449,0.605348,-0.780642,0.263876,-0.00424478,0.0804812,-0.0272244,0.000432134,0.0158604,0.521139,5,0.1,7,1.1,1.89646,-3.73769,0.690704,-0.136978,0.866026,0.0148544,-0.0338629,0,0.00368059,0.0160638,2.2595,5,0.1,8,1.1,-1.32733,-2.49006,0.542197,0.097036,0.866026,0.012725,0.0237525,0,0.00312924,0.012968,2.26565,5,0.1,9,1.1,-2.70015,3.25514,0.5625,0.714477,-0.678751,0.029763,-0.0736415,0.0699311,-0.00307709,0.0166591,0.746082,5,0.1,10,1.1,1.89906,-2.38017,0.587498,0.204991,-0.863594,0.0425053,-0.0133589,-0.0205487,-0.00277534,0.0109838,1.11603,5,0.1,11,1.1,0.516066,2.41478,0.615926,-0.0524429,-0.154488,-0.0126398,0.0053905,0.273556,0.00131503,0.0137017,0.96331,5,0.1,12,1.1,-3.64497,-0.321673,0.573617,0.864386,0.100885,0.00926489,-0.0523776,0.0604745,0.002224,0.040896,2.30835,5,0.1,13,1.1,-3.4577,-3.38631,0.725266,0.49191,0.311277,0.119142,-1.66719,0.134304,0.179194,0.00831903,0.699401,5,0.1,14,1.1,1.75807,4.00128,0.588111,-0.839947,0.0913769,0.022423,0.109352,0.448704,0.0661127,0.0143362,2.41016,5,0.1,15,1.1,1.42082,2.91346,0.583312,-0.865834,-0.647964,0.00855224,0.00765175,-0.166565,0.00224635,0.011942,2.02351,5,0.1,16,1.1,0.977149,-1.01305,0.627387,0.177246,0.800612,-0.0216966,-0.0187941,-0.0772513,0.0021942,0.0284208,0.521773,5,0.1,17,1.1,-2.5998,-1.16194,0.605519,0.634828,-0.387402,-0.00439128,-0.0654757,0.0399426,0.000458211,0.0113971,0.424505,5,0.1,18,1.1,4.1091,-0.0565472,0.557006,-0.315113,0.866025,0.015908,-0.145257,4.47035e-07,0.00360981,0.0194617,2.20442,5,0.1,19,1.1,1.42303,0.919375,0.642773,-0.543183,0.579942,-0.0339483,0.264995,-0.0597984,0.0035055,0.0113744,0.504956,5,0.1,20,1.1,-3.44998,-2.28279,0.706779,0.238131,0.502293,0.0342935,-0.0246316,-0.0518709,-0.00352412,0.0140135,0.238026,5,0.1,21,1.1,-0.747271,-3.66991,0.610838,-0.531912,0.866008,-0.00436325,-0.141576,-0.000715256,-0.000827014,0.015862,2.09768,5,0.1,22,1.1,-2.96842,-1.45662,0.598167,0.845161,-0.156335,0.00142604,-0.176653,-0.0331476,-0.000461936,0.0107052,0.709209,5,0.1,23,1.1,3.91974,-2.62154,0.590258,0.339952,-0.800028,0.056706,-0.0350922,0.0824928,-0.00584126,0.00840149,0.582409,5,0.1,24,1.1,3.57728,-0.20009,0.500689,-0.0920452,0.866025,-0.00451487,-0.051707,-2.98023e-07,0.019528,0.0184664,2.2663,5,0.1,25,1.1,-1.71052,-0.680726,0.511349,0.439535,0.788787,0.0119237,-0.0453293,-0.0813492,-0.00121444,0.0129823,0.625884,5,0.1,26,1.1,1.02727,3.97846,0.501574,0.847927,-0.382434,-0.00918852,-0.039421,-0.284702,0.034187,0.0113817,1.83516,5,0.1,27,1.1,3.52835,2.79988,0.649688,-0.837149,0.132518,-0.032906,0.549927,0.0317395,-0.00791997,0.0104545,1.67769,5,0.1,28,1.1,-0.0303559,1.43112,0.594951,-0.218434,-0.29734,0.00409381,-0.0538802,0.121169,0.00102445,0.00885433,0.197516,5,0.1,29,1.1,3.58509,-3.73299,0.591288,-0.0257045,0.866026,0.00383323,-0.0064075,0,-0.0074096,0.0157429,2.27148,5,0.1,30,1.1,0.195597,2.84227,0.703282,-0.507667,-0.851187,0.0367361,0.0413048,0.0900775,-0.00297651,0.0130816,0.92694,5,0.1,31,1.1,1.90305,3.42788,0.638059,0.864159,-0.426568,-0.028301,0.0123382,-0.0217408,-0.000976026,0.0112052,1.23194,5,0.1,32,1.1,-2.00576,3.0898,0.583066,0.638858,-0.865648,0.0113135,0.116102,0.0151247,0.00203401,0.015792,1.62538,5,0.1,33,1.1,-3.1957,-3.51479,0.606059,0.114102,0.83302,-0.0323351,0.143096,-0.608683,-0.0318512,0.00952311,2.53605,5,0.1,34,1.1,-1.11456,-1.31826,0.562056,0.525503,0.865906,0.0244904,0.110567,-0.00476092,0.00513345,0.0222295,1.87576,5,0.1,35,1.1,-1.68152,3.41888,0.583608,0.072982,-0.846087,0.00824239,0.312127,0.225484,0.00171363,0.0116854,2.40987,5,0.1,36,1.1,0.0220188,-1.12482,0.622937,-0.647797,-0.865646,-0.0308716,-0.121568,0.0151768,-0.00581518,0.0112632,1.64666,5,0.1,37,1.1,-2.03663,-3.44464,0.643567,0.77952,0.728244,-0.019549,0.245966,-0.780076,-0.00617653,0.0451422,2.28041,5,0.1,38,1.1,-1.72877,4.19067,0.551355,0.866025,-0.169351,0.0283285,1.49012e-05,-0.0394881,0.00663474,0.00994883,2.25284,5,0.1,39,1.1,-3.42313,2.76572,0.58337,0.631069,-0.290296,0.013211,0.198096,0.0298023,-0.00135601,0.0189521,0.637844,5,0.1
0,1.2,-1.47539,2.4,0.573289,0.484669,-0.244701,0.0224948,-0.182152,0.222802,-0.00849366,0.0253034,0.494968,5,0.1,1,1.2,3.91009,1.43557,0.618048,-0.394416,0.860441,-0.0099048,0.27597,-0.111818,0.00491738,0.0149035,1.54836,5,0.1,2,1.2,-0.111252,-3.32434,0.595513,-0.158984,0.15074,0.00377148,0.0597239,-0.612497,-0.00143051,0.00959078,0.210338,5,0.1,3,1.2,2.12348,-2.06257,0.612804,-0.203377,-0.743479,0.038293,0.0737906,0.458241,-0.0125468,0.01207,0.731081,5,0.1,4,1.2,3.48692,1.68663,0.584295,-0.279921,0.65513,0.0130445,0.0964403,-0.940681,-0.00450015,0.0144568,1.09314,5,0.1,5,1.2,-2.50119,-3.43742,0.628448,0.716954,0.159597,-0.0239611,-0.269294,0.0681877,0.0090003,0.00825367,0.315091,5,0.1,6,1.2,0.606106,-0.606298,0.604927,-0.763227,0.257987,-0.00414997,0.286698,-0.0968874,0.00154972,0.0155542,0.346529,5,0.1,7,1.2,1.88264,-3.65109,0.692203,-0.138849,0.866026,0.0150591,0.00196695,0,-0.000208616,0.01247,2.27045,5,0.1,8,1.2,-1.31754,-2.40346,0.543481,0.0983328,0.866026,0.0128955,-0.00172853,0,-0.000208616,0.00836844,2.26554,5,0.1,9,1.2,-2.62934,3.18787,0.56545,0.698543,-0.663614,0.029099,-0.262499,0.249267,-0.0109375,0.0156129,0.496111,5,0.1,10,1.2,1.91942,-2.46647,0.591718,0.201127,-0.860143,0.0417039,-0.0690818,0.117898,-0.0143349,0.0119803,0.811381,5,0.1,11,1.2,0.510868,2.4,0.614673,-0.0512749,-0.147831,-0.012356,0.0192523,-0.121593,0.00461936,0.0103176,0.82613,5,0.1,12,1.2,-3.55906,-0.311327,0.574551,0.85035,0.105482,0.00938475,-0.260711,0.0267923,-0.000238419,0.0385389,2.7434,5,0.1,13,1.2,-3.41717,-3.35486,0.737915,0.317109,0.314289,0.132157,-1.76978,-0.0716448,0.0791252,0.00754536,0.4161,5,0.1,14,1.2,1.67475,4.01289,0.590702,-0.824437,0.142336,0.0294387,0.233948,0.531912,0.0692308,0.0131899,2.34838,5,0.1,15,1.2,1.33433,2.84804,0.584176,-0.862965,-0.657529,0.00868291,0.061214,0.00190735,-2.98023e-05,0.0107767,2.04807,5,0.1,16,1.2,0.994713,-0.933676,0.625236,0.173242,0.783269,-0.0212163,-0.0656545,-0.289142,0.00789762,0.0258531,0.347394,5,0.1,17,1.2,-2.53689,-1.20033,0.605084,0.620657,-0.378758,-0.00429302,-0.232935,0.142276,0.00160933,0.00928728,0.282278,5,0.1,18,1.2,4.07697,0.0300553,0.558609,-0.326097,0.866026,0.0160933,-0.0591278,-7.15256e-06,-0.000566244,0.0172772,2.19842,5,0.1,19,1.2,1.37052,0.97685,0.639408,-0.502476,0.567003,-0.0331908,0.534713,-0.212967,0.0124872,0.00885654,0.393641,5,0.1,20,1.2,-3.42638,-2.23301,0.710178,0.23281,0.491083,0.0335291,-0.0873804,-0.184536,-0.0125766,0.0135857,0.158275,5,0.1,21,1.2,-0.800991,-3.58332,0.610399,-0.540142,0.865746,-0.00440031,-0.00116229,-0.00584126,0.000268221,0.0163734,2.08823,5,0.1,22,1.2,-2.88506,-1.4724,0.598307,0.818795,-0.158861,0.00135601,-0.371218,-0.00882149,-0.000923872,0.00912953,0.506943,5,0.1,23,1.2,3.95343,-2.70083,0.595878,0.332367,-0.78218,0.0554413,-0.124931,0.293732,-0.0208318,0.00970444,0.387278,5,0.1,24,1.2,3.56785,-0.113488,0.500329,-0.0959218,0.866026,-0.0027433,-0.0216961,-3.57628e-06,0.0157058,0.016576,2.26579,5,0.1,25,1.2,-1.66696,-0.602553,0.512531,0.429729,0.771189,0.0116587,-0.161409,-0.289738,-0.00438094,0.0108267,0.419051,5,0.1,26,1.2,1.11176,3.93883,0.500819,0.839791,-0.409096,-0.00599474,-0.160694,-0.219226,0.0292659,0.0124394,1.39309,5,0.1,27,1.2,3.4481,2.81324,0.646372,-0.761336,0.133884,-0.033249,0.941157,-0.00858307,0.00214577,0.00850148,0.958376,5,0.1,28,1.2,-0.0524473,1.40218,0.595365,-0.222851,-0.279596,0.0041768,-0.0218135,0.232399,0.000447035,0.0115559,0.166845,5,0.1,29,1.2,3.5825,-3.64639,0.591636,-0.0260592,0.866026,0.00314862,0.000238419,0,-0.0063777,0.0171133,2.27148,5,0.1,30,1.2,0.145232,2.75781,0.706927,-0.497343,-0.834972,0.0359908,0.17763,0.262141,-0.0128448,0.0116838,0.641191,5,0.1,31,1.2,1.98936,3.38529,0.635236,0.859687,-0.423133,-0.0280291,-0.12666,0.102282,0.00715256,0.0132856,2.02575,5,0.1,32,1.2,-1.94155,3.00343,0.584203,0.642398,-0.859976,0.0113755,-0.0669956,0.120878,-0.0012219,0.0101302,1.18212,5,0.1,33,1.2,-3.18388,-3.43528,0.602721,0.119239,0.750285,-0.0339076,-0.0305176,-1.01566,-0.000357628,0.00945512,2.47002,5,0.1,34,1.2,-1.06165,-1.23173,0.564522,0.530282,0.864115,0.0247106,-0.0343919,-0.0382066,-0.00160933,0.0211605,1.40607,5,0.1,35,1.2,-1.67264,3.33575,0.584437,0.104263,-0.812626,0.00831634,0.296533,0.456572,-0.000536442,0.0115449,2.56124,5,0.1,36,1.2,-0.0431183,-1.21119,0.619833,-0.651853,-0.859955,-0.0310659,0.0628293,0.121415,0.00298023,0.0119899,1.19331,5,0.1,37,1.2,-1.95771,-3.37637,0.641587,0.795582,0.63175,-0.0199541,0.0412464,-1.11496,-0.00101328,0.038821,2.56271,5,0.1,38,1.2,-1.64217,4.17359,0.554212,0.866026,-0.171387,0.0286728,0,0.00500679,-0.000864267,0.0112137,2.249,5,0.1,39,1.2,-3.35927,2.73695,0.584679,0.642967,-0.283831,0.0129163,0.0149012,0.106573,-0.00485778,0.0195047,0.449636,5,0.1
0,1.3,-1.42781,2.37606,0.575497,0.466664,-0.238952,0.0216561,-0.193007,-0.0679195,-0.00898167,0.0253034,0.494968,5,0.1,1,1.3,3.87193,1.52141,0.617079,-0.369418,0.85848,-0.00948906,0.237525,0.0193939,0.0038296,0.0149035,1.54836,5,0.1,2,1.3,-0.126952,-3.31216,0.595885,-0.155738,0.0946783,0.0036939,0.0161402,-0.502557,-0.000383705,0.00959078,0.210338,5,0.1,3,1.3,2.10335,-2.13509,0.616567,-0.20058,-0.710334,0.0369063,-0.00147521,0.249475,-0.0161082,0.01207,0.731081,5,0.1,4,1.3,3.4594,1.74738,0.585577,-0.270346,0.561859,0.0125981,0.103921,-0.83454,-0.0048466,0.0144568,1.09314,5,0.1,5,1.3,-2.43081,-3.4211,0.626096,0.690334,0.166636,-0.0230714,-0.285417,0.063166,0.00954047,0.00825367,0.315091,5,0.1,6,1.3,0.531185,-0.580973,0.60452,-0.734885,0.248409,-0.00399668,0.303855,-0.102695,0.00164658,0.0155542,0.346529,5,0.1,7,1.3,1.86856,-3.56449,0.693733,-0.144424,0.86581,0.0157333,-0.0948459,-0.00862777,0.0115223,0.01247,2.27045,5,0.1,8,1.3,-1.30768,-2.31685,0.544773,0.0988418,0.866026,0.0129635,0.00631064,0,0.00083819,0.00836844,2.26554,5,0.1,9,1.3,-2.56077,3.12273,0.568306,0.672595,-0.638973,0.0280179,-0.278145,0.264183,-0.0115931,0.0156129,0.496111,5,0.1,10,1.3,1.93921,-2.55206,0.595816,0.194759,-0.852109,0.0402202,-0.065729,0.0836253,-0.0165217,0.0119803,0.811381,5,0.1,11,1.3,0.505835,2.38382,0.61346,-0.0493714,-0.182167,-0.011899,0.0204109,-0.505656,0.00490621,0.0103176,0.82613,5,0.1,12,1.3,-3.47638,-0.300621,0.575491,0.79376,0.108706,0.00942498,-0.828639,0.0311509,0.00051409,0.0385389,2.7434,5,0.1,13,1.3,-3.39426,-3.32406,0.751662,0.142414,0.299305,0.143722,-1.68522,-0.22161,0.135783,0.00754536,0.4161,5,0.1,14,1.3,1.59251,4.02928,0.593923,-0.827687,0.18049,0.0343205,-0.2122,0.241429,0.029467,0.0131899,2.34838,5,0.1,15,1.3,1.24831,2.78237,0.585041,-0.857027,-0.654528,0.00858642,0.0924245,0.0795424,-0.00205636,0.0107767,2.04807,5,0.1,16,1.3,1.01172,-0.856762,0.623153,0.166753,0.754694,-0.0204355,-0.0695176,-0.306867,0.00837818,0.0258531,0.347394,5,0.1,17,1.3,-2.47596,-1.23751,0.604663,0.597627,-0.364693,-0.0041334,-0.246942,0.150792,0.00171363,0.00928728,0.282278,5,0.1,18,1.3,4.04397,0.116658,0.56022,-0.334435,0.866025,0.0161482,-0.0865757,-8.9407e-07,0.000752509,0.0172772,2.19842,5,0.1,19,1.3,1.3234,1.03251,0.63615,-0.436239,0.545949,-0.031957,0.765577,-0.225719,0.0132248,0.00885654,0.393641,5,0.1,20,1.3,-3.40352,-2.1848,0.71347,0.22417,0.472842,0.032286,-0.0926554,-0.195548,-0.0133291,0.0135857,0.158275,5,0.1,21,1.3,-0.855207,-3.49674,0.60996,-0.545267,0.86583,-0.00439286,-0.0673756,0.00217557,9.68575e-05,0.0163734,2.08823,5,0.1,22,1.3,-2.80505,-1.48842,0.598437,0.780697,-0.162222,0.00125039,-0.411183,-0.0458881,-0.00118464,0.00912953,0.506943,5,0.1,23,1.3,3.98605,-2.77761,0.60132,0.320019,-0.753142,0.053382,-0.132352,0.311315,-0.0220723,0.00970444,0.387278,5,0.1,24,1.3,3.55813,-0.0268851,0.500126,-0.0985973,0.866025,-0.00140974,-0.0259578,-5.96046e-07,0.0109635,0.016576,2.26579,5,0.1,25,1.3,-1.62477,-0.527016,0.513675,0.413772,0.737861,0.0112255,-0.171073,-0.390194,-0.00464544,0.0108267,0.419051,5,0.1,26,1.3,1.19547,3.89708,0.500355,0.83828,-0.423282,-0.0034038,0.067845,-0.0573546,0.0223145,0.0124394,1.39309,5,0.1,27,1.3,3.37726,2.82659,0.643057,-0.650454,0.133012,-0.0330312,1.24089,-0.0142008,0.00353903,0.00850148,0.958376,5,0.1,28,1.3,-0.0748666,1.37565,0.595786,-0.225496,-0.248702,0.00422886,-0.0198199,0.373036,0.000391155,0.0115559,0.166845,5,0.1,29,1.3,3.57989,-3.55979,0.591922,-0.0262227,0.866026,0.00259494,-0.00201166,0,-0.00480935,0.0171133,2.27148,5,0.1,30,1.3,0.0963673,2.67551,0.710463,-0.479738,-0.811464,0.0347175,0.190096,0.240833,-0.0137538,0.0116838,0.641191,5,0.1,31,1.3,2.07518,3.34317,0.632468,0.860184,-0.421737,-0.0273115,0.0792071,-0.0401586,0.00814721,0.0132856,2.02575,5,0.1,32,1.3,-1.87775,2.91793,0.585336,0.631904,-0.850156,0.0112781,-0.15942,0.112996,-0.0012219,0.0101302,1.18212,5,0.1,33,1.3,-3.17239,-3.36588,0.599376,0.108296,0.633139,-0.0325645,-0.174835,-1.29116,0.0255965,0.00945512,2.47002,5,0.1,34,1.3,-1.00875,-1.14534,0.566987,0.527447,0.864522,0.0245773,-0.0449345,0.0105202,-0.00210479,0.0211605,1.40607,5,0.1,35,1.3,-1.66089,3.25676,0.585268,0.129046,-0.766744,0.00829808,0.195965,0.480175,-0.000245869,0.0115449,2.56124,5,0.1,36,1.3,-0.108027,-1.29681,0.616739,-0.646,-0.853679,-0.0307876,0.0806864,0.0495464,0.00384822,0.0119899,1.19331,5,0.1,37,1.3,-1.8777,-3.3191,0.63958,0.805801,0.510881,-0.020209,0.114664,-1.27052,-0.00286847,0.038821,2.56271,5,0.1,38,1.3,-1.55556,4.15631,0.557078,0.866026,-0.175413,0.028648,0,-0.0684261,-0.000946224,0.0112137,2.249,5,0.1,39,1.3,-3.29486,2.70909,0.585947,0.645035,-0.273294,0.0124358,-0.00245869,0.112966,-0.0051558,0.0195047,0.449636,5,0.1
0,1.4,-1.38223,2.35161,0.577612,0.443563,-0.251257,0.020583,-0.27895,-0.1477,-0.012964,0.0204671,0.374606,5,0.1,1,1.4,3.83621,1.60721,0.61615,-0.344616,0.855216,-0.00906587,0.267744,-0.122488,0.00488758,0.0152551,1.17029,5,0.1,2,1.4,-0.142444,-3.30498,0.596253,-0.153871,0.051111,0.00365078,0.0291318,-0.366449,-0.000715256,0.00964702,0.293529,5,0.1,3,1.4,2.08327,-2.20492,0.620165,-0.200832,-0.685853,0.0349224,0.00846386,0.272751,-0.0241697,0.0118317,0.538732,5,0.1,4,1.4,3.43295,1.8,0.58681,-0.257665,0.496683,0.0120074,0.155568,-0.474513,-0.00724196,0.0146624,0.901782,5,0.1,5,1.4,-2.36338,-3.40419,0.623843,0.65617,0.170642,-0.02193,-0.412583,0.0103712,0.0137985,0.00779347,0.209333,5,0.1,6,1.4,0.459402,-0.556708,0.604129,-0.698515,0.236118,-0.0037998,0.439242,-0.148475,0.00241399,0.0145644,0.228091,5,0.1,7,1.4,1.85361,-3.47802,0.695368,-0.15457,0.862575,0.0169814,-0.0941157,-0.0691414,0.0118911,0.0130613,2.26136,5,0.1,8,1.4,-1.29779,-2.23025,0.546071,0.0986367,0.866026,0.0129372,-0.0142455,0,-0.00184774,0.00876381,2.26567,5,0.1,9,1.4,-2.49507,3.06031,0.571043,0.639307,-0.607353,0.0266314,-0.402093,0.381947,-0.0167191,0.0149213,0.326559,5,0.1,10,1.4,1.95831,-2.63663,0.599744,0.186729,-0.836504,0.0382021,-0.100076,0.256658,-0.0245571,0.0109238,0.573748,5,0.1,11,1.4,0.501012,2.36284,0.612298,-0.0469275,-0.23849,-0.0113115,0.0295043,-0.575542,0.00709295,0.0104349,0.665417,5,0.1,12,1.4,-3.40179,-0.289631,0.576434,0.692433,0.110605,0.00939667,-1.16205,0.00229478,-0.00146031,0.0384491,3.19646,5,0.1,13,1.4,-3.38804,-3.29544,0.766696,-0.013274,0.271231,0.15648,-1.40083,-0.333667,0.107467,0.0337691,3.26907,5,0.1,14,1.4,1.50853,4.04812,0.597444,-0.851884,0.192642,0.0355497,-0.208557,0.0107288,-0.00378489,0.00882448,1.23746,5,0.1,15,1.4,1.16335,2.71759,0.585885,-0.838652,-0.638098,0.00824779,0.29856,0.262856,-0.00479817,0.0129066,2.03641,5,0.1,16,1.4,1.028,-0.783019,0.621157,0.158447,0.717822,-0.0194311,-0.100076,-0.446767,0.0121593,0.0237308,0.228857,5,0.1,17,1.4,-2.41758,-1.27314,0.604259,0.568062,-0.346643,-0.00392795,-0.357151,0.217915,0.00247359,0.00936332,0.386245,5,0.1,18,1.4,4.01019,0.20326,0.561835,-0.339824,0.866025,0.0160888,-0.0064373,0,-0.0025332,0.0155263,2.19615,5,0.1,19,1.4,1.28381,1.08584,0.633029,-0.353807,0.51893,-0.0303745,0.862896,-0.326276,0.0191033,0.0129777,0.328185,5,0.1,20,1.4,-3.38163,-2.13862,0.716623,0.213075,0.449437,0.0306904,-0.133872,-0.282645,-0.0192821,0.0121161,0.104179,5,0.1,21,1.4,-0.909952,-3.41017,0.609522,-0.547816,0.865471,-0.0043422,0.0404119,-0.0110865,0.00101328,0.0145797,2.08701,5,0.1,22,1.4,-2.72924,-1.50485,0.598556,0.733209,-0.165889,0.00111908,-0.55182,-0.018537,-0.00140071,0.0104562,0.368049,5,0.1,23,1.4,4.01731,-2.85118,0.606535,0.304174,-0.715876,0.0507385,-0.19145,0.450015,-0.0318885,0.00899948,0.254916,5,0.1,24,1.4,3.54818,0.0597174,0.500032,-0.100118,0.866025,-0.000542402,-0.000238419,-1.19209e-06,0.0064671,0.0174788,2.2657,5,0.1,25,1.4,-1.58436,-0.455434,0.514771,0.393295,0.691044,0.0106692,-0.2473,-0.553787,-0.00667572,0.0098204,0.333142,5,0.1,26,1.4,1.2796,3.85478,0.500114,0.842562,-0.419527,-0.00155717,-0.0274777,0.135779,0.0146329,0.00958837,1.01788,5,0.1,27,1.4,3.31867,2.83977,0.639783,-0.519615,0.130153,-0.0323191,1.34706,-0.0466108,0.0115931,0.0108902,0.67998,5,0.1,28,1.4,-0.0974368,1.35279,0.596209,-0.224921,-0.207287,0.00421852,0.0389963,0.444829,-0.000715256,0.0112304,0.147698,5,0.1,29,1.4,3.57726,-3.47319,0.592159,-0.0262022,0.866026,0.00216514,0.00345707,0,-0.0038147,0.0158683,2.27148,5,0.1,30,1.4,0.0494683,2.59575,0.713857,-0.456728,-0.78128,0.0330523,0.280456,0.385165,-0.0202656,0.0140178,0.435248,5,0.1,31,1.4,2.16156,3.30079,0.629785,0.866026,-0.425249,-0.0262409,0,-0.00524521,0.0138581,0.0104473,1.15083,5,0.1,32,1.4,-1.81562,2.83371,0.586454,0.607845,-0.831068,0.0110492,-0.331879,0.29397,-0.00375509,0.0151451,1.0133,5,0.1,33,1.4,-3.16258,-3.30923,0.596279,0.0867069,0.498575,-0.0290915,-0.24581,-1.37115,0.0424683,0.00942983,1.26417,5,0.1,34,1.4,-0.956399,-1.05898,0.569426,0.517501,0.860685,0.0241131,-0.169307,-0.106841,-0.00789762,0.0221862,1.02212,5,0.1,35,1.4,-1.64719,3.18265,0.586094,0.143015,-0.713456,0.00819862,0.0820756,0.597835,-0.00205636,0.011476,2.68576,5,0.1,36,1.4,-0.172017,-1.38175,0.61369,-0.631289,-0.842327,-0.0300854,0.231355,0.209332,0.0109971,0.00905132,0.881593,5,0.1,37,1.4,-1.79675,-3.27441,0.63755,0.810263,0.383294,-0.0203207,-0.059545,-1.25635,0.00149012,0.0422294,3.0706,5,0.1,38,1.4,-1.46896,4.13842,0.559929,0.866026,-0.182104,0.0282615,0,-0.0524521,-0.007689,0.00867499,2.26198,5,0.1,39,1.4,-3.23059,2.6824,0.587161,0.637627,-0.259769,0.0118196,-0.165462,0.163317,-0.00745058,0.0171065,0.308116,5,0.1
0,1.5,-1.33921,2.3255,0.579608,0.416955,-0.272891,0.0193469,-0.265807,-0.254348,-0.0123382,0.0204671,0.374606,5,0.1,1,1.5,3.80275,1.6924,0.615262,-0.327272,0.850084,-0.00874577,0.106037,-0.0281334,0.00211224,0.0152551,1.17029,5,0.1,2,1.5,-0.157772,-3.30146,0.596616,-0.153254,0.0216234,0.00363505,-0.00561588,-0.22538,0.000130385,0.00964702,0.293529,5,0.1,3,1.5,2.06315,-2.2724,0.623539,-0.202084,-0.665524,0.0325489,-0.0206232,0.169426,-0.0240915,0.0118317,0.538732,5,0.1,4,1.5,3.40796,1.84816,0.587976,-0.242002,0.473713,0.0113155,0.163347,-0.0449643,-0.00694022,0.0146624,0.901782,5,0.1,5,1.5,-2.29974,-3.38707,0.621716,0.616815,0.171683,-0.0206142,-0.393137,0.00289083,0.0131465,0.00779347,0.209333,5,0.1,6,1.5,0.391662,-0.53381,0.603761,-0.656617,0.221955,-0.00356995,0.418563,-0.141475,0.00228733,0.0145644,0.228091,5,0.1,7,1.5,1.8377,-3.39182,0.697121,-0.163053,0.863151,0.0180032,-0.0680536,0.0431687,0.00781566,0.0130613,2.26136,5,0.1,8,1.5,-1.28797,-2.14365,0.54736,0.0980617,0.866026,0.0128632,-0.00283867,0,-0.000365078,0.00876381,2.26567,5,0.1,9,1.5,-2.43308,3.00141,0.573625,0.600956,-0.570922,0.0250364,-0.383109,0.363946,-0.0159368,0.0149213,0.326559,5,0.1,10,1.5,1.97649,-2.71915,0.603447,0.1769,-0.814601,0.035888,-0.101574,0.216797,-0.0228547,0.0109238,0.573748,5,0.1,11,1.5,0.496461,2.33583,0.611201,-0.044113,-0.303492,-0.0106346,0.0281204,-0.679314,0.00676513,0.0104349,0.665417,5,0.1,12,1.5,-3.33893,-0.27853,0.577369,0.560722,0.111559,0.00932794,-1.4118,0.0104401,-0.000439584,0.0384491,3.19646,5,0.1,13,1.5,-3.39453,-3.27016,0.782742,-0.0998184,0.23285,0.163029,-0.403315,-0.423506,0.0227764,0.0337691,3.26907,5,0.1,14,1.5,1.42473,4.06764,0.601203,-0.80261,0.199196,0.0414704,1.08022,0.0994802,0.106703,0.00882448,1.23746,5,0.1,15,1.5,1.08113,2.65537,0.58668,-0.803807,-0.60362,0.00760658,0.41303,0.426948,-0.00785664,0.0129066,2.03641,5,0.1,16,1.5,1.04336,-0.713384,0.619272,0.148901,0.675206,-0.0182712,-0.0953376,-0.426035,0.0115931,0.0237308,0.228857,5,0.1,17,1.5,-2.3626,-1.30568,0.603897,0.531053,-0.295453,-0.00313912,-0.392765,0.747778,0.0121817,0.00936332,0.386245,5,0.1,18,1.5,3.97606,0.289863,0.563437,-0.343202,0.866025,0.0159738,-0.0404716,-8.9407e-07,-0.000666827,0.0155263,2.19615,5,0.1,19,1.5,1.25277,1.13616,0.630083,-0.267233,0.487807,-0.0285524,0.853032,-0.31092,0.018198,0.0129777,0.328185,5,0.1,20,1.5,-3.36096,-2.09503,0.7196,0.200303,0.422477,0.0288513,-0.127614,-0.269309,-0.0183731,0.0121161,0.104179,5,0.1,21,1.5,-0.964738,-3.32362,0.609092,-0.549098,0.865691,-0.00427505,-0.0324026,0.00600517,0.000555068,0.0145797,2.08701,5,0.1,22,1.5,-2.6586,-1.52157,0.598661,0.679819,-0.168713,0.000981055,-0.533149,-0.0282004,-0.00136346,0.0104562,0.368049,5,0.1,23,1.5,4.04681,-2.9206,0.611455,0.285917,-0.672948,0.0476965,-0.18236,0.428855,-0.0303872,0.00899948,0.254916,5,0.1,24,1.5,3.53813,0.14632,0.500004,-0.100835,0.866025,-7.62753e-05,-0.00831485,7.45058e-07,0.00307336,0.0174788,2.2657,5,0.1,25,1.5,-1.54621,-0.389703,0.515806,0.369706,0.618382,0.0100317,-0.235669,-0.86672,-0.00637397,0.0098204,0.333142,5,0.1,26,1.5,1.36398,3.8136,0.500019,0.846421,-0.402897,-0.000460166,0.0552833,0.203371,0.00770018,0.00958837,1.01788,5,0.1,27,1.5,3.27342,2.85256,0.636606,-0.386289,0.125668,-0.0312036,1.2977,-0.0474751,0.0118017,0.0108902,0.67998,5,0.1,28,1.5,-0.11972,1.33434,0.596627,-0.220422,-0.161453,0.00413489,0.0579823,0.462517,-0.00108778,0.0112304,0.147698,5,0.1,29,1.5,3.57465,-3.38658,0.592359,-0.0260927,0.866026,0.00185193,0.000268221,0,-0.00256673,0.0158683,2.27148,5,0.1,30,1.5,0.0051443,2.51943,0.717065,-0.429949,-0.745607,0.0311166,0.268182,0.355184,-0.0193864,0.0140178,0.435248,5,0.1,31,1.5,2.24791,3.25824,0.627228,0.857999,-0.425257,-0.0249118,-0.175834,0.0220686,0.0135079,0.0104473,1.15083,5,0.1,32,1.5,-1.75638,2.75225,0.587542,0.577546,-0.796157,0.0107019,-0.29549,0.417307,-0.00359491,0.0151451,1.0133,5,0.1,33,1.5,-3.15523,-3.26616,0.593598,0.0596181,0.364119,-0.0244007,-0.286132,-1.2964,0.0502169,0.00942983,1.26417,5,0.1,34,1.5,-0.905449,-0.973217,0.5718,0.501499,0.855715,0.0233663,-0.169192,-0.0381544,-0.00789762,0.0221862,1.02212,5,0.1,35,1.5,-1.63278,3.11392,0.586906,0.142683,-0.664081,0.00804523,-0.0784248,0.42367,-0.00140443,0.011476,2.68576,5,0.1,36,1.5,-0.234045,-1.46443,0.610733,-0.609262,-0.806463,-0.0290374,0.230846,0.502914,0.0109933,0.00905132,0.881593,5,0.1,37,1.5,-1.71641,-3.24226,0.635533,0.792433,0.261308,-0.0199505,-0.302948,-1.15494,0.00623241,0.0422294,3.0706,5,0.1,38,1.5,-1.38283,4.11985,0.562723,0.851705,-0.189935,0.0276352,-0.28991,-0.0890791,-0.00610575,0.00867499,2.26198,5,0.1,39,1.5,-3.1676,2.6572,0.588307,0.621945,-0.24419,0.011109,-0.171676,0.155628,-0.0071004,0.0171065,0.308116,5,0.1
0,1.6,-1.29891,2.29696,0.581478,0.388297,-0.296825,0.018017,-0.315785,-0.201941,-0.0146329,0.0165522,0.277524,5,0.1,1,1.6,3.77046,1.7771,0.614397,-0.31873,0.841412,-0.00853986,0.084877,-0.179112,0.00247359,0.0148489,0.856197,5,0.1,2,1.6,-0.173107,-3.30022,0.59698,-0.153083,0.00533462,0.00363141,0.016965,-0.105262,-0.00038743,0.0127038,0.362013,5,0.1,3,1.6,2.04287,-2.33804,0.626668,-0.202757,-0.645882,0.0299737,0.0163317,0.24879,-0.0279546,0.0136429,0.392338,5,0.1,4,1.6,3.38463,1.89561,0.589071,-0.224078,0.477126,0.0105619,0.198722,0.0675321,-0.00840425,0.0147252,0.706719,5,0.1,5,1.6,-2.24012,-3.36995,0.619723,0.574422,0.169957,-0.0191972,-0.467181,-0.0424385,0.0156164,0.00756171,0.138376,5,0.1,6,1.6,0.32819,-0.512355,0.603416,-0.611489,0.206701,-0.00332296,0.497326,-0.168115,0.00271201,0.0136978,0.149916,5,0.1,7,1.6,1.82115,-3.30533,0.698949,-0.166935,0.866026,0.0184253,-0.00476837,0,0.000178814,0.0128384,2.28706,5,0.1,8,1.6,-1.27819,-2.05705,0.548642,0.0971109,0.866026,0.012739,-0.0200272,-5.96046e-05,-0.0025928,0.00845598,2.26592,5,0.1,9,1.6,-2.37499,2.94623,0.576046,0.559646,-0.531685,0.0233158,-0.455022,0.432491,-0.0189245,0.0127851,0.214642,5,0.1,10,1.6,1.99364,-2.79936,0.606917,0.165582,-0.787163,0.0334397,-0.128269,0.356317,-0.0268817,0.0103545,0.396555,5,0.1,11,1.6,0.492197,2.30222,0.610173,-0.041081,-0.366557,-0.0099048,0.0334233,-0.549197,0.00804663,0.0118514,0.341451,5,0.1,12,1.6,-3.28993,-0.267351,0.578298,0.420308,0.111613,0.00922084,-1.35469,-0.0138283,-0.00205636,0.0399688,3.50026,5,0.1,13,1.6,-3.40538,-3.24907,0.799015,-0.107282,0.188434,0.160997,0.193715,-0.456333,-0.0630915,0.00766476,0.299865,5,0.1,14,1.6,1.35122,4.08807,0.605961,-0.656483,0.208938,0.0541538,1.74963,0.0796318,0.135124,0.0100644,2.94556,5,0.1,15,1.6,1.0031,2.59741,0.587398,-0.753736,-0.552881,0.0067085,0.596702,0.585675,-0.00995398,0.012323,1.72681,5,0.1,16,1.6,1.05776,-0.648096,0.617506,0.138628,0.62919,-0.0170201,-0.11307,-0.507981,0.0137687,0.0227379,0.150494,5,0.1,17,1.6,-2.31158,-1.33101,0.603653,0.487953,-0.207511,-0.00169128,-0.47493,0.96494,0.015825,0.00886362,0.253675,5,0.1,18,1.6,3.94162,0.376465,0.565028,-0.344408,0.866025,0.0158012,0.0311136,1.43051e-05,-0.00345707,0.017145,2.19652,5,0.1,19,1.6,1.23019,1.18332,0.627323,-0.18588,0.454283,-0.0265911,0.762939,-0.369489,0.0216365,0.0105574,0.287854,5,0.1,20,1.6,-3.3416,-2.05419,0.722389,0.186539,0.393438,0.0268698,-0.151634,-0.319958,-0.0218451,0.0128531,0.117061,5,0.1,21,1.6,-1.0197,-3.23704,0.608668,-0.548548,0.865656,-0.00419319,0.0672936,-0.00739098,0.0012815,0.0138209,2.08852,5,0.1,22,1.6,-2.59337,-1.53853,0.598752,0.623739,-0.16987,0.000843406,-0.59998,0.0118017,-0.0013411,0.0105157,0.268108,5,0.1,23,1.6,4.07445,-2.98565,0.616066,0.266254,-0.626707,0.0444189,-0.216484,0.50962,-0.0361204,0.0105634,0.167546,5,0.1,24,1.6,3.52803,0.232923,0.500007,-0.100797,0.866025,0.000111759,0.013113,1.43051e-05,0.000864267,0.0168794,2.26588,5,0.1,25,1.6,-1.51048,-0.332493,0.516776,0.344297,0.52353,0.00934452,-0.279963,-1.00474,-0.00759959,0.0110168,0.280921,5,0.1,26,1.6,1.4487,3.77448,0.500002,0.845209,-0.37784,5.51343e-05,-0.114202,0.301242,0.00301003,0.0124428,0.723849,5,0.1,27,1.6,3.24105,2.86486,0.633552,-0.263792,0.119925,-0.029777,1.13702,-0.0702143,0.0174642,0.0134494,0.671314,5,0.1,28,1.6,-0.141395,1.32047,0.597034,-0.212176,-0.11642,0.0039801,0.111438,0.43112,-0.00208616,0.00922175,0.330423,5,0.1,29,1.6,3.57205,-3.29998,0.592533,-0.0258923,0.866026,0.00163019,0.00476837,0,-0.00196695,0.0189915,2.27149,5,0.1,30,1.6,-0.0364433,2.44678,0.720075,-0.40091,-0.705719,0.0290155,0.321356,0.460744,-0.0232458,0.0105382,0.292282,5,0.1,31,1.6,2.33243,3.21598,0.624809,0.828421,-0.418007,-0.0234067,-0.424862,0.13411,0.0171065,0.00993569,0.691223,5,0.1,32,1.6,-1.70019,2.67501,0.588592,0.545141,-0.745577,0.0102609,-0.367343,0.601649,-0.00548363,0.0120442,0.848506,5,0.1,33,1.6,-3.1507,-3.23596,0.591414,0.031215,0.242925,-0.0192493,-0.274539,-1.1127,0.0518262,0.00868818,0.468712,5,0.1,34,1.6,-0.856268,-0.888028,0.574092,0.480574,0.845306,0.0223905,-0.261754,-0.201851,-0.0121891,0.0226144,2.20337,5,0.1,35,1.6,-1.61909,3.04957,0.587702,0.129241,-0.622869,0.00784993,-0.181615,0.42522,-0.00277162,0.0113948,2.75325,5,0.1,36,1.6,-0.293674,-1.54212,0.607891,-0.581498,-0.742948,-0.0277147,0.339,0.760317,0.0161529,0.00945119,0.74241,5,0.1,37,1.6,-1.63912,-3.22155,0.633579,0.748968,0.156879,-0.0190258,-0.567377,-0.9166,0.0123978,0.0378294,3.588,5,0.1,38,1.6,-1.29961,4.10045,0.56545,0.807774,-0.197315,0.0268281,-0.587821,-0.0479221,-0.0109076,0.0101802,2.12896,5,0.1,39,1.6,-3.10643,2.6336,0.589381,0.59936,-0.22741,0.0103429,-0.295997,0.185013,-0.00840425,0.0174586,0.207389,5,0.1
0,1.7,-1.26158,2.26618,0.58321,0.358694,-0.319147,0.0166452,-0.286885,-0.220701,-0.0132956,0.0165522,0.277524,5,0.1,1,1.7,3.73877,1.86052,0.613551,-0.316805,0.827559,-0.00840677,-0.0210702,-0.136718,0.000726432,0.0148489,0.856197,5,0.1,2,1.7,-0.18825,-3.30016,0.597339,-0.148957,-0.00355914,0.00353502,0.066082,-0.0684559,-0.00155345,0.0127038,0.362013,5,0.1,3,1.7,2.02277,-2.40137,0.62952,-0.198344,-0.619988,0.0270051,0.0737756,0.286102,-0.031393,0.0136429,0.392338,5,0.1,4,1.7,3.36339,1.94406,0.590087,-0.199072,0.494728,0.00977349,0.293061,0.238068,-0.00765175,0.0147252,0.706719,5,0.1,5,1.7,-2.1849,-3.35316,0.617878,0.530626,0.165864,-0.0177334,-0.424415,-0.0455379,0.0141822,0.00756171,0.138376,5,0.1,6,1.7,0.26941,-0.492485,0.603097,-0.564867,0.190942,-0.00306889,0.451812,-0.152724,0.00245869,0.0136978,0.149916,5,0.1,7,1.7,1.80409,-3.21873,0.70082,-0.176855,0.865633,0.019215,-0.165455,-0.0157207,0.0131205,0.0128384,2.28706,5,0.1,8,1.7,-1.26855,-1.97044,0.549907,0.0960525,0.866025,0.0126028,-0.00670552,1.49012e-05,-0.000860542,0.00845598,2.26592,5,0.1,9,1.7,-2.32119,2.89512,0.578287,0.516989,-0.491143,0.0215412,-0.413403,0.392869,-0.0171997,0.0127851,0.214642,5,0.1,10,1.7,2.00958,-2.87643,0.610134,0.153397,-0.754725,0.0309344,-0.119731,0.321269,-0.0241771,0.0103545,0.396555,5,0.1,11,1.7,0.488248,2.26292,0.609221,-0.0379479,-0.417764,-0.00915024,0.0303648,-0.450015,0.00730902,0.0118514,0.341451,5,0.1,12,1.7,-3.2546,-0.256247,0.579214,0.288998,0.110453,0.00911532,-1.19746,-0.0141347,-0.000599772,0.0399688,3.50026,5,0.1,13,1.7,-3.41581,-3.23254,0.815134,-0.107018,0.142193,0.164068,-0.147387,-0.460312,0.098709,0.00766476,0.299865,5,0.1,14,1.7,1.29193,4.10906,0.611895,-0.550212,0.208072,0.0630314,0.499785,-0.0887215,0.0460856,0.0100644,2.94556,5,0.1,15,1.7,0.930066,2.54546,0.588026,-0.711987,-0.482616,0.00591325,0.290707,0.798106,-0.00635907,0.012323,1.72681,5,0.1,16,1.7,1.07108,-0.587596,0.615869,0.128029,0.581563,-0.015729,-0.102714,-0.461787,0.0125207,0.0227379,0.150494,5,0.1,17,1.7,-2.26495,-1.34677,0.603566,0.446322,-0.106677,-1.7602e-05,-0.37618,1.01949,0.0169985,0.00886362,0.253675,5,0.1,18,1.7,3.90722,0.463068,0.566597,-0.344337,0.866025,0.0156095,-0.00940263,-1.78814e-06,-0.00127405,0.017145,2.19652,5,0.1,19,1.7,1.21518,1.22698,0.624767,-0.116727,0.419646,-0.0245632,0.615157,-0.335671,0.0196509,0.0105574,0.287854,5,0.1,20,1.7,-3.32358,-2.01618,0.724985,0.174905,0.368893,0.0251943,-0.09197,-0.194021,-0.0132397,0.0128531,0.117061,5,0.1,21,1.7,-1.07444,-3.15048,0.608253,-0.547384,0.865799,-0.0041076,-0.0106618,0.0038743,0.000659376,0.0138209,2.08852,5,0.1,22,1.7,-2.53364,-1.55534,0.598831,0.573426,-0.164973,0.000738818,-0.434786,0.0846684,-0.000808388,0.0105157,0.268108,5,0.1,23,1.7,4.10004,-3.04589,0.620336,0.24596,-0.578932,0.0410328,-0.196695,0.462994,-0.0328198,0.0105634,0.167546,5,0.1,24,1.7,3.51799,0.319525,0.500021,-0.100319,0.866025,0.000145938,0.00213087,-1.78814e-06,-0.000100583,0.0168794,2.26588,5,0.1,25,1.7,-1.47738,-0.285342,0.517674,0.318052,0.41872,0.00863196,-0.254363,-1.05185,-0.00691041,0.0110168,0.280921,5,0.1,26,1.7,1.5328,3.7382,0.500018,0.837132,-0.347621,0.000229105,-0.0867695,0.309154,0.000648201,0.0124428,0.723849,5,0.1,27,1.7,3.21998,2.87652,0.630658,-0.161527,0.11328,-0.028125,0.901461,-0.0662953,0.0164807,0.0134494,0.671314,5,0.1,28,1.7,-0.162041,1.31095,0.597421,-0.200497,-0.0746682,0.00376087,0.126372,0.391588,-0.00237674,0.00922175,0.330423,5,0.1,29,1.7,3.56947,-3.21338,0.592688,-0.0256781,0.866026,0.0014835,0.00105798,0,-0.00108406,0.0189915,2.27149,5,0.1,30,1.7,-0.0750033,2.37838,0.722866,-0.370763,-0.662931,0.0268347,0.29257,0.417247,-0.0211708,0.0105382,0.292282,5,0.1,31,1.7,2.41236,3.17483,0.62255,0.763435,-0.404869,-0.0217963,-0.820681,0.142589,0.0157654,0.00993569,0.691223,5,0.1,32,1.7,-1.64721,2.60414,0.589591,0.516665,-0.666003,0.00972906,-0.231713,0.951007,-0.0054501,0.0120442,0.848506,5,0.1,33,1.7,-3.14895,-3.21681,0.589747,0.00389367,0.144278,-0.0141006,-0.264645,-0.85555,0.0503659,0.00868818,0.468712,5,0.1,34,1.7,-0.809476,-0.803745,0.576266,0.45533,0.846026,0.0210575,-0.257056,0.141434,-0.0147708,0.0226144,2.20337,5,0.1,35,1.7,-1.60741,2.98892,0.588475,0.101746,-0.593895,0.00763042,-0.34713,0.196978,-0.00199303,0.0113948,2.75325,5,0.1,36,1.7,-0.350209,-1.61196,0.605197,-0.549544,-0.648517,-0.0261917,0.318028,1.08587,0.0151657,0.00945119,0.74241,5,0.1,37,1.7,-1.56714,-3.21026,0.631743,0.689668,0.0723787,-0.0176282,-0.626273,-0.712037,0.0156127,0.0378294,3.588,5,0.1,38,1.7,-1.22268,4.08072,0.568082,0.723332,-0.195138,0.0258465,-1.04509,0.0858903,-0.00974163,0.0101802,2.12896,5,0.1,39,1.7,-3.04791,2.61174,0.590376,0.571387,-0.210066,0.00955472,-0.282839,0.168085,-0.00764057,0.0174586,0.207389,5,0.1
0,1.8,-1.22717,2.23329,0.584807,0.329137,-0.336921,0.0152752,-0.311553,-0.118136,-0.0144541,0.0167197,0.198844,5,0.1,1,1.8,3.70698,1.9424,0.612715,-0.318563,0.807509,-0.00830293,0.00417233,-0.291169,0.00172853,0.01423,0.609475,5,0.1,2,1.8,-0.202732,-3.30077,0.597683,-0.139839,-0.00778437,0.00331998,0.11602,-0.0144243,-0.00274181,0.0116616,1.39031,5,0.1,3,1.8,2.00341,-2.46176,0.632058,-0.187752,-0.585872,0.0237048,0.138521,0.4071,-0.0345111,0.0100785,0.288388,5,0.1,4,1.8,3.34505,1.9947,0.591025,-0.167006,0.516716,0.00898242,0.341296,0.167787,-0.00837445,0.0120085,0.513068,5,0.1,5,1.8,-2.13399,-3.33684,0.616177,0.486898,0.159824,-0.0162721,-0.460744,-0.0795126,0.0154078,0.00836508,0.156971,5,0.1,6,1.8,0.215218,-0.474167,0.602802,-0.518318,0.175207,-0.00281483,0.490561,-0.16582,0.00265241,0.014603,0.145118,5,0.1,7,1.8,1.78551,-3.13237,0.702811,-0.195089,0.859731,0.0206128,-0.178099,-0.125647,0.012964,0.00667884,1.02118,5,0.1,8,1.8,-1.25899,-1.88384,0.551161,0.094825,0.866026,0.0124425,-0.0218749,-5.96046e-05,-0.00286102,0.00980686,2.2662,5,0.1,9,1.8,-2.27159,2.848,0.580354,0.474399,-0.450671,0.0197679,-0.448942,0.42665,-0.0186861,0.0122898,0.229407,5,0.1,10,1.8,2.02431,-2.95016,0.613105,0.140923,-0.718045,0.0284448,-0.13268,0.432014,-0.0262856,0.0089679,0.269775,5,0.1,11,1.8,0.484608,2.21922,0.608343,-0.0348195,-0.452417,-0.00839531,0.0329614,-0.226378,0.00789762,0.0121193,0.0887485,5,0.1,12,1.8,-3.23098,-0.245305,0.580121,0.191438,0.107986,0.00900924,-0.721693,-0.0384375,-0.00196695,0.0373194,3.47996,5,0.1,13,1.8,-3.42753,-3.22057,0.832127,-0.129479,0.0978053,0.176212,-0.26989,-0.421405,0.124723,0.0122602,0.238765,5,0.1,14,1.8,1.23818,4.1292,0.618307,-0.534385,0.192761,0.0640765,-0.0859499,-0.20957,-0.0218153,0.0122476,2.6556,5,0.1,15,1.8,0.860169,2.50139,0.588588,-0.686479,-0.397199,0.00536591,0.258237,0.892162,-0.00491738,0.0095492,1.02775,5,0.1,16,1.8,1.08336,-0.531787,0.61436,0.117451,0.533932,-0.0144377,-0.111401,-0.502601,0.0136495,0.0265905,0.0993228,5,0.1,17,1.8,-2.22215,-1.35246,0.603647,0.409549,-0.00921488,0.00159591,-0.372767,0.905931,0.0148416,0.0113452,0.210377,5,0.1,18,1.8,3.87281,0.549671,0.568149,-0.342828,0.866026,0.0153929,0.0538826,0,-0.00372529,0.00914873,0.827718,5,0.1,19,1.8,1.20631,1.26724,0.62241,-0.0635207,0.385061,-0.022538,0.447214,-0.364423,0.0213087,0.00972538,0.682537,5,0.1,20,1.8,-3.30652,-1.98021,0.727442,0.166249,0.350645,0.0239491,-0.0890493,-0.187695,-0.012815,0.0136547,0.0675141,5,0.1,21,1.8,-1.12913,-3.06389,0.607846,-0.54498,0.865728,-0.00402033,0.0824928,-0.00596046,0.00119209,0.0139581,2.0918,5,0.1,22,1.8,-2.47839,-1.5713,0.598901,0.531846,-0.15327,0.000672042,-0.417233,0.147521,-0.000566244,0.00935991,0.191067,5,0.1,23,1.8,4.12364,-3.10144,0.624272,0.225687,-0.531226,0.0376523,-0.213385,0.502706,-0.0356734,0.0128833,0.11055,5,0.1,24,1.8,3.50799,0.406128,0.500034,-0.0994027,0.866025,0.000105798,0.0202656,1.43051e-05,-0.000566244,0.0165008,2.2695,5,0.1,25,1.8,-1.44687,-0.248555,0.518502,0.291845,0.319372,0.00791997,-0.276208,-0.912562,-0.00751019,0.00943212,0.246809,5,0.1,26,1.8,1.61586,3.70504,0.500042,0.821194,-0.315028,0.000220537,-0.259101,0.346065,-0.000745058,0.0132844,0.502501,5,0.1,27,1.8,3.2079,2.8875,0.627932,-0.0843704,0.106055,-0.0263289,0.639677,-0.0807047,0.0200272,0.00965801,0.899249,5,0.1,28,1.8,-0.181406,1.3053,0.597784,-0.186221,-0.0400513,0.00349283,0.161752,0.293493,-0.00306964,0.010207,0.310152,5,0.1,29,1.8,3.56691,-3.12678,0.592831,-0.0254273,0.866026,0.00139326,0.00524521,0,-0.000804663,0.0175063,2.27151,5,0.1,30,1.8,-0.110591,2.31425,0.725441,-0.340549,-0.618517,0.024648,0.319209,0.486016,-0.0231266,0.0125939,0.195411,5,0.1,31,1.8,2.48429,3.13516,0.620451,0.673109,-0.387168,-0.0201449,-0.951648,0.220776,0.0177622,0.0100938,0.547586,5,0.1,32,1.8,-1.59667,2.54261,0.590535,0.493708,-0.562245,0.00912249,-0.24873,1.09458,-0.00688434,0.00870829,0.72328,5,0.1,33,1.8,-3.14982,-3.20621,0.588581,-0.0204742,0.0722349,-0.00931323,-0.217557,-0.585794,0.0448525,0.0105496,0.277555,5,0.1,34,1.8,-0.765313,-0.718367,0.578292,0.426844,0.860871,0.0193894,-0.321984,0.103086,-0.0187159,0.0195094,2.19266,5,0.1,35,1.8,-1.5991,2.93043,0.589227,0.0635892,-0.576067,0.00738949,-0.399411,0.191092,-0.00309944,0.0111341,2.37112,5,0.1,36,1.8,-0.403488,-1.67113,0.602658,-0.514884,-0.53322,-0.0245377,0.387326,1.18816,0.0184476,0.0115204,0.650855,5,0.1,37,1.8,-1.50145,-3.20588,0.630064,0.622565,0.0229478,-0.015901,-0.719786,-0.25332,0.0189245,0.00694736,0.875318,5,0.1,38,1.8,-1.15595,4.06182,0.570614,0.608495,-0.181246,0.0247061,-1.21027,0.18692,-0.0137687,0.0102739,1.57035,5,0.1,39,1.8,-2.99229,2.59159,0.591292,0.539547,-0.19275,0.00876635,-0.367165,0.182509,-0.00828505,0.016893,0.138336,5,0.1
0,1.9,-1.19573,2.19898,0.586267,0.300273,-0.349057,0.0139362,-0.274666,-0.105858,-0.0127442,0.0167197,0.198844,5,0.1,1,1.9,3.67513,2.02184,0.611892,-0.318339,0.781809,-0.00814972,0.0140667,-0.255115,0.00167266,0.01423,0.609475,5,0.1,2,1.9,-0.216116,-3.30177,0.598001,-0.127623,-0.0126697,0.00303099,0.129105,-0.0402927,-0.00305101,0.0116616,1.39031,5,0.1,3,1.9,1.98541,-2.51851,0.634255,-0.171483,-0.550353,0.0202478,0.184946,0.326455,-0.0345074,0.0100785,0.288388,5,0.1,4,1.9,3.33009,2.04624,0.591816,-0.132039,0.50536,0.00629462,0.352025,-0.359423,-0.0413507,0.0120085,0.513068,5,0.1,5,1.9,-2.08725,-3.32115,0.614615,0.450701,0.154915,-0.0150618,-0.291079,-0.029698,0.00972673,0.00836508,0.156971,5,0.1,6,1.9,0.165707,-0.457274,0.602533,-0.472869,0.16429,-0.00256905,0.432508,-0.0671707,0.00233576,0.014603,0.145118,5,0.1,7,1.9,1.76491,-3.04908,0.705154,-0.218241,0.788237,0.0280268,-0.258878,-1.20495,0.120319,0.00667884,1.02118,5,0.1,8,1.9,-1.24958,-1.79724,0.552396,0.0936221,0.866025,0.0122851,-0.0076741,1.49012e-05,-0.00100583,0.00980686,2.2662,5,0.1,9,1.9,-2.22627,2.80479,0.582242,0.432807,-0.415591,0.0180361,-0.39582,0.297099,-0.0164844,0.0122898,0.229407,5,0.1,10,1.9,2.03777,-3.01993,0.615825,0.12854,-0.678153,0.0260171,-0.118643,0.389576,-0.023067,0.0089679,0.269775,5,0.1,11,1.9,0.481265,2.1731,0.607537,-0.0322298,-0.467358,-0.00777468,0.0208262,-0.0629723,0.00499934,0.0121193,0.0887485,5,0.1,12,1.9,-3.21474,-0.234823,0.581015,0.142778,0.100516,0.00889236,-0.161633,-0.106223,-0.000860542,0.0373194,3.47996,5,0.1,13,1.9,-3.44207,-3.21278,0.850554,-0.162946,0.0591781,0.193584,-0.370651,-0.349477,0.200178,0.0122602,0.238765,5,0.1,14,1.9,1.18307,4.14735,0.624543,-0.577504,0.169469,0.0600834,-0.67436,-0.252426,-0.0560246,0.0122476,2.6556,5,0.1,15,1.9,0.792424,2.46616,0.589108,-0.671187,-0.307325,0.00508819,0.0916682,0.890821,-0.00118464,0.0095492,1.02775,5,0.1,16,1.9,1.09458,-0.480771,0.612981,0.10713,0.487361,-0.0131734,-0.0982061,-0.44338,0.0120327,0.0265905,0.0993228,5,0.1,17,1.9,-2.18283,-1.34896,0.603879,0.378817,0.0778431,0.00301823,-0.261873,0.814073,0.013195,0.0113452,0.210377,5,0.1,18,1.9,3.84024,0.634987,0.569802,-0.295987,0.828632,0.018782,0.803038,-0.701141,0.0625476,0.00914873,0.827718,5,0.1,19,1.9,1.20204,1.30418,0.620257,-0.0240678,0.355743,-0.0205637,0.320919,-0.242278,0.0187941,0.00972538,0.682537,5,0.1,20,1.9,-3.29029,-1.94598,0.72978,0.158664,0.334661,0.0228581,-0.0698268,-0.147089,-0.0100397,0.0136547,0.0675141,5,0.1,21,1.9,-1.18344,-2.97732,0.607449,-0.542428,0.865847,-0.00394545,0.00156462,0.00327826,0.000536442,0.0139581,2.0918,5,0.1,22,1.9,-2.42707,-1.58585,0.598966,0.496412,-0.137455,0.00063125,-0.314444,0.168145,-0.000290573,0.00935991,0.191067,5,0.1,23,1.9,4.1452,-3.15218,0.627869,0.205915,-0.484651,0.0343477,-0.188231,0.44322,-0.0314415,0.0128833,0.11055,5,0.1,24,1.9,3.49795,0.49273,0.500042,-0.102916,0.866026,4.72181e-05,-0.0746697,-1.93715e-06,-0.000584871,0.0165008,2.2695,5,0.1,25,1.9,-1.41899,-0.220884,0.519259,0.266255,0.237923,0.00722418,-0.243522,-0.684667,-0.00661984,0.00943212,0.246809,5,0.1,26,1.9,1.69679,3.67521,0.50006,0.797813,-0.281921,0.000132062,-0.240453,0.321552,-0.000983477,0.0132844,0.502501,5,0.1,27,1.9,3.20237,2.89772,0.625395,-0.0299606,0.0985101,-0.0244566,0.427499,-0.0732541,0.0181757,0.00965801,0.899249,5,0.1,28,1.9,-0.19922,1.30267,0.598118,-0.169982,-0.0141254,0.00318503,0.165562,0.204243,-0.00313297,0.010207,0.310152,5,0.1,29,1.9,3.56439,-3.04017,0.592968,-0.0251804,0.866026,0.00134734,0.00120699,0,-0.000227243,0.0175063,2.27151,5,0.1,30,1.9,-0.143136,2.25469,0.727797,-0.310958,-0.573552,0.0225044,0.28188,0.431821,-0.0204183,0.0125939,0.195411,5,0.1,31,1.9,2.54669,3.0975,0.618521,0.575371,-0.366149,-0.0184935,-0.92788,0.211209,0.015825,0.0100938,0.547586,5,0.1,32,1.9,-1.54837,2.49206,0.591414,0.473681,-0.448062,0.00847187,-0.175416,1.14042,-0.0063777,0.00870829,0.72328,5,0.1,33,1.9,-3.15292,-3.20147,0.587867,-0.0411328,0.0267953,-0.00505382,-0.190184,-0.334114,0.0397824,0.0105496,0.277555,5,0.1,34,1.9,-0.724107,-0.631964,0.580141,0.398185,0.865703,0.0176149,-0.266705,0.0128821,-0.0171997,0.0195094,2.19266,5,0.1,35,1.9,-1.59503,2.87315,0.589952,0.0154294,-0.574345,0.00712341,-0.535324,-0.0998527,-0.00253692,0.0111341,2.37112,5,0.1,36,1.9,-0.453139,-1.71841,0.600291,-0.478734,-0.412571,-0.0228154,0.350686,1.17803,0.0167117,0.0115204,0.650855,5,0.1,37,1.9,-1.44425,-3.20503,0.628635,0.509099,-0.00708662,-0.0121229,-1.45983,-0.329599,0.0524782,0.00694736,0.875318,5,0.1,38,1.9,-1.10138,4.04479,0.57302,0.482216,-0.157791,0.0234379,-1.24826,0.273198,-0.012435,0.0102739,1.57035,5,0.1,39,1.9,-2.94008,2.57318,0.59213,0.505164,-0.175841,0.00799838,-0.336647,0.160888,-0.00731647,0.016893,0.138336,5,0.1
0,2,-1.16708,2.16369,0.587597,0.272688,-0.354934,0.012657,-0.283182,0.00119209,-0.0131428,0.0179067,0.138216,5,0.1,1,2,3.64347,2.09859,0.611088,-0.313455,0.75103,-0.00791103,0.0932217,-0.382423,0.00330806,0.0133096,0.425135,5,0.1,2,2,-0.228206,-3.30303,0.598288,-0.113912,-0.00967979,0.00270605,0.145361,0.118971,-0.00342727,0.00990766,1.93677,5,0.1,3,2,1.96925,-2.57189,0.636109,-0.151151,-0.516635,0.0168294,0.219584,0.364184,-0.0337958,0.0135748,0.209666,5,0.1,4,2,3.31862,2.09435,0.592212,-0.0976622,0.451392,0.00143051,0.330806,-0.689626,-0.0528097,0.00662805,0.518762,5,0.1,5,2,-2.04355,-3.3058,0.613154,0.423843,0.151974,-0.0141636,-0.266671,-0.0370741,0.00891089,0.00835783,0.09075,5,0.1,6,2,0.12058,-0.441117,0.602288,-0.429432,0.159211,-0.00233352,0.445988,-0.045374,0.00241399,0.0159368,0.177577,5,0.1,7,2,1.74183,-2.97738,0.708634,-0.242361,0.636733,0.0420272,-0.204504,-1.74439,0.148147,0.0134937,2.95969,5,0.1,8,2,-1.24027,-1.71064,0.553618,0.0923514,0.866026,0.0121176,-0.0216365,-5.96046e-05,-0.00283122,0.0100353,2.26648,5,0.1,9,2,-2.18497,2.76465,0.583964,0.393051,-0.387424,0.0163808,-0.408053,0.282407,-0.0170171,0.0127277,0.161752,5,0.1,10,2,2.05003,-3.08571,0.618311,0.116581,-0.636131,0.0236958,-0.123024,0.467181,-0.0239313,0.0112701,0.181859,5,0.1,11,2,0.47814,2.12638,0.606783,-0.0303082,-0.463593,-0.007312,0.0190884,0.14317,0.00455976,0.00832401,0.206487,5,0.1,12,2,-3.2,-0.225382,0.581899,0.164133,0.0876226,0.00875294,0.549078,-0.147559,-0.00232458,0.0400227,3.10857,5,0.1,13,2,-3.46019,-3.20848,0.870886,-0.198615,0.0281513,0.21235,-0.321388,-0.270009,0.158757,0.0336637,2.26398,5,0.1,14,2,1.12167,4.16299,0.630229,-0.651371,0.14298,0.0532553,-0.726283,-0.273943,-0.0787377,0.00935352,2.41712,5,0.1,15,2,0.725784,2.43978,0.589613,-0.660558,-0.221568,0.00503361,0.152677,0.813723,-0.000298023,0.00934533,0.852541,5,0.1,16,2,1.1048,-0.434251,0.611724,0.0972688,0.442796,-0.0119641,-0.101149,-0.457972,0.0123978,0.0273677,0.113645,5,0.1,17,2,-2.14621,-1.3374,0.604242,0.353724,0.15004,0.00416636,-0.254512,0.615418,0.00941753,0.0122489,0.183585,5,0.1,18,2,3.81535,0.71351,0.572042,-0.196558,0.734487,0.0263199,1.12236,-1.14161,0.0812709,0.00760955,0.40066,5,0.1,19,2,1.2009,1.33861,0.618295,-0.00210106,0.333077,-0.0186756,0.111699,-0.225902,0.0193417,0.00976385,0.610182,5,0.1,20,2,-3.27479,-1.91328,0.732013,0.151074,0.318661,0.0217661,-0.0870228,-0.183403,-0.012517,0.0130233,0.111799,5,0.1,21,2,-1.23758,-2.89073,0.607057,-0.53902,0.865853,-0.00387281,0.0899434,-0.00369549,0.00104308,0.013106,2.096,5,0.1,22,2,-2.37898,-1.59873,0.599028,0.465018,-0.119793,0.000604987,-0.329971,0.184298,-0.000238419,0.00891399,0.135161,5,0.1,23,2,4.16485,-3.19843,0.631147,0.187016,-0.440133,0.0311896,-0.194311,0.457048,-0.0323951,0.013252,0.126407,5,0.1,24,2,3.48724,0.579333,0.500044,-0.111556,0.866026,-7.45058e-06,-0.0863075,0,-0.000536442,0.014044,2.26585,5,0.1,25,2,-1.39358,-0.2,0.519948,0.241798,0.184798,0.00655949,-0.251174,-0.385977,-0.00679493,0.0126371,0.200217,5,0.1,26,2,1.77519,3.64862,0.500068,0.767729,-0.249803,3.42727e-05,-0.3829,0.324368,-0.00101328,0.0123704,0.513501,5,0.1,27,2,3.20104,2.9072,0.623042,-0.00143051,0.0908971,-0.0225663,0.138521,-0.0811815,0.0201166,0.00894222,1.44138,5,0.1,28,2,-0.215367,1.30201,0.598421,-0.152704,-0.00196695,0.00285804,0.181504,0.0320077,-0.00339746,0.0101601,0.269723,5,0.1,29,2,3.56188,-2.95357,0.593102,-0.0249267,0.866026,0.00132918,0.005126,0,-0.000208616,0.0173232,2.27152,5,0.1,30,2,-0.172822,2.19953,0.729945,-0.282605,-0.529021,0.0204504,0.291579,0.471473,-0.0211,0.0114564,0.13065,5,0.1,31,2,2.6,3.06201,0.616751,0.495231,-0.342995,-0.0168875,-0.673056,0.259757,0.0167191,0.012851,0.435545,5,0.1,32,2,-1.50191,2.45272,0.592229,0.454599,-0.341696,0.00780523,-0.2231,0.960469,-0.00709295,0.00915125,0.621725,5,0.1,33,2,-3.1579,-3.20013,0.587549,-0.0576019,0.00318885,-0.00144839,-0.135541,-0.14925,0.0319779,0.0103547,0.262651,5,0.1,34,2,-0.685634,-0.545368,0.581816,0.370863,0.866026,0.0158772,-0.290632,0,-0.0178516,0.0182202,0.290603,5,0.1,35,2,-1.5962,2.81512,0.590651,-0.0384808,-0.586152,0.00683069,-0.521362,-0.0941753,-0.00351667,0.0096351,1.94419,5,0.1,36,2,-0.49922,-1.75409,0.598095,-0.442224,-0.304765,-0.0210747,0.38974,0.953436,0.0185668,0.0106864,0.574839,5,0.1,37,2,-1.40125,-3.20739,0.627712,0.346646,-0.0398576,-0.00614673,-1.7184,-0.312448,0.0638068,0.041096,3.71476,5,0.1,38,2,-1.05905,4.03046,0.575298,0.368977,-0.128245,0.0220761,-0.982165,0.310659,-0.0153184,0.00910025,1.45006,5,0.1,39,2,-2.8913,2.5564,0.592893,0.469506,-0.159687,0.00726432,-0.387311,0.165939,-0.00756979,0.0195723,0.158046,5,0.1
0,2.1,-1.14114,2.12819,0.5888,0.246689,-0.354866,0.0114505,-0.244349,0.015229,-0.0113361,0.0179067,0.138216,5,0.1,1,2.1,3.61247,2.17189,0.610311,-0.307337,0.715555,-0.00764122,0.0465065,-0.352636,0.00245497,0.0133096,0.425135,5,0.1,2,2.1,-0.239077,-3.30326,0.598467,-0.105218,0.00879131,0.000233296,0.0416273,0.333652,-0.0413023,0.00990766,1.93677,5,0.1,3,2.1,1.95505,-2.62192,0.637642,-0.134572,-0.485497,0.0140021,0.123262,0.28038,-0.023596,0.0135748,0.209666,5,0.1,4,2.1,3.31044,2.13573,0.592077,-0.0666358,0.373733,-0.00422345,0.28643,-0.840902,-0.0577755,0.00662805,0.518762,5,0.1,5,2.1,-2.00235,-3.29075,0.611777,0.401175,0.149108,-0.0134062,-0.20504,-0.0273883,0.00684708,0.00835783,0.09075,5,0.1,6,2.1,0.0795356,-0.425144,0.602065,-0.394138,0.162445,-0.00214269,0.284536,0.0873413,0.00153854,0.0159368,0.177577,5,0.1,7,2.1,1.71666,-2.92011,0.713447,-0.26,0.528827,0.0529799,-0.136159,-0.531614,0.0728182,0.0134937,2.95969,5,0.1,8,2.1,-1.2311,-1.62403,0.55482,0.0911735,0.866025,0.0119635,-0.00731647,1.49012e-05,-0.00096485,0.0100353,2.26648,5,0.1,9,2.1,-2.14758,2.72715,0.585522,0.355585,-0.363909,0.0148183,-0.352129,0.205636,-0.0146851,0.0127277,0.161752,5,0.1,10,2.1,2.06111,-3.14713,0.620568,0.105235,-0.592967,0.0215018,-0.106975,0.415787,-0.0206158,0.0112701,0.181859,5,0.1,11,2.1,0.474671,2.08076,0.606124,-0.0435165,-0.448158,-0.00543557,-0.248747,0.178158,0.0299513,0.00832401,0.206487,5,0.1,12,2.1,-3.1794,-0.217446,0.582768,0.25946,0.0703612,0.00866167,1.24303,-0.191046,-0.000104308,0.0400227,3.10857,5,0.1,13,2.1,-3.48096,-3.20523,0.892517,-0.210603,0.0519253,0.216588,0.0555813,0.640184,-0.0622161,0.0336637,2.26398,5,0.1,14,2.1,1.05244,4.17594,0.635152,-0.735807,0.11642,0.0451338,-0.884615,-0.2563,-0.0828505,0.00935352,2.41712,5,0.1,15,2.1,0.660282,2.42152,0.590119,-0.650683,-0.145661,0.00510244,0.0797771,0.694245,0.00125542,0.00934533,0.852541,5,0.1,16,2.1,1.1141,-0.391944,0.61058,0.0892609,0.405892,-0.0109834,-0.0645816,-0.304023,0.00790879,0.0273677,0.113645,5,0.1,17,2.1,-2.11195,-1.31939,0.604704,0.332572,0.208763,0.00505513,-0.184968,0.538938,0.00799075,0.0122489,0.183585,5,0.1,18,2.1,3.80163,0.781127,0.575151,-0.0759754,0.616958,0.0363678,1.2425,-1.19564,0.111617,0.00760955,0.40066,5,0.1,19,2.1,1.20097,1.37094,0.616518,-0.000164472,0.314748,-0.0168991,-0.101186,-0.156932,0.0167005,0.00976385,0.610182,5,0.1,20,2.1,-3.26014,-1.88229,0.73413,0.141565,0.301212,0.0205752,-0.105157,-0.1752,-0.0119582,0.0130233,0.111799,5,0.1,21,2.1,-1.29125,-2.80415,0.606673,-0.535744,0.865922,-0.00381237,0.00814348,0.00208616,0.000398606,0.013106,2.096,5,0.1,22,2.1,-2.33397,-1.6098,0.599088,0.436352,-0.101711,0.000589155,-0.261962,0.177249,-0.000111759,0.00891399,0.135161,5,0.1,23,2.1,4.18272,-3.2405,0.634128,0.171638,-0.403962,0.0286261,-0.124007,0.291601,-0.0206679,0.013252,0.126407,5,0.1,24,2.1,3.47571,0.665935,0.500041,-0.118127,0.866026,-4.94532e-05,-0.0422001,-3.72529e-06,-0.00031665,0.014044,2.26585,5,0.1,25,2.1,-1.37058,-0.182905,0.520572,0.218738,0.161778,0.00593532,-0.216722,-0.104415,-0.00586361,0.0126371,0.200217,5,0.1,26,2.1,1.85032,3.62519,0.500067,0.736639,-0.219521,-4.88013e-05,-0.274986,0.286177,-0.000663102,0.0123704,0.513501,5,0.1,27,2.1,3.20129,2.9159,0.62088,0.00165813,0.0833798,-0.0207032,-0.143453,-0.0717193,0.0177808,0.00894222,1.44138,5,0.1,28,2.1,-0.229746,1.30175,0.59869,-0.134977,-0.00625234,0.00252612,0.17459,-0.145696,-0.0032708,0.0101601,0.269723,5,0.1,29,2.1,3.5594,-2.86697,0.593234,-0.0246953,0.866026,0.00133235,0.00102818,0,0.000163913,0.0173232,2.27152,5,0.1,30,2.1,-0.199711,2.14884,0.731891,-0.255821,-0.48563,0.0185121,0.251918,0.411853,-0.0182316,0.0114564,0.13065,5,0.1,31,2.1,2.64681,3.02906,0.615141,0.44636,-0.315304,-0.015348,-0.344545,0.296354,0.0145435,0.012851,0.435545,5,0.1,32,2.1,-1.45745,2.423,0.592976,0.435451,-0.257521,0.00714427,-0.178881,0.680044,-0.00633672,0.00915125,0.621725,5,0.1,33,2.1,-3.16431,-3.20038,0.587556,-0.0699904,-0.00659712,0.00149375,-0.108019,-0.052765,0.0264682,0.0103547,0.262651,5,0.1,34,2.1,-0.649933,-0.459158,0.583323,0.343588,0.853997,0.0143344,-0.265133,-0.250414,-0.013642,0.0182202,0.290603,5,0.1,35,2.1,-1.60227,2.75512,0.591318,-0.0793703,-0.620758,0.0065391,-0.302985,-0.514194,-0.00262633,0.0096351,1.94419,5,0.1,36,2.1,-0.541601,-1.78021,0.596076,-0.406158,-0.223073,-0.0193562,0.344159,0.640467,0.0164062,0.0106864,0.574839,5,0.1,37,2.1,-1.37396,-3.21062,0.627367,0.210357,-0.00497922,-0.0012124,-1.04565,0.874847,0.0362992,0.041096,3.71476,5,0.1,38,2.1,-1.0266,4.0192,0.577433,0.286603,-0.097058,0.0206598,-0.596747,0.30753,-0.0136979,0.00910025,1.45006,5,0.1,39,2.1,-2.84595,2.54113,0.593587,0.440266,-0.146555,0.00666482,-0.226185,0.105843,-0.0048317,0.0195723,0.158046,5,0.1
0,2.2,-1.11768,2.0929,0.589889,0.222534,-0.349367,0.0103295,-0.243902,0.104785,-0.0113249,0.0181101,0.160786,5,0.1,1,2.2,3.58201,2.24156,0.60956,-0.301188,0.676215,-0.00735819,0.0886917,-0.451684,0.00342727,0.0120421,0.291809,5,0.1,2,2.2,-0.249473,-3.3,0.598253,-0.103274,0.0631869,-0.00471324,0.00726432,0.732541,-0.0539124,0.00882522,1.67702,5,0.1,3,2.2,1.94212,-2.66906,0.638935,-0.124514,-0.456822,0.0119597,0.0864267,0.308275,-0.017941,0.010831,0.149378,5,0.1,4,2.2,3.30512,2.16881,0.591374,-0.0409007,0.287277,-0.0096947,0.226736,-0.870109,-0.0497699,0.0104688,0.530531,5,0.1,5,2.2,-1.96328,-3.27601,0.610472,0.379702,0.14528,-0.0126898,-0.237286,-0.054121,0.00795722,0.00832597,0.0706033,5,0.1,6,2.2,0.0414436,-0.408397,0.601858,-0.36824,0.172707,-0.00200272,0.251612,0.100881,0.00137091,0.0152979,0.107551,5,0.1,7,2.2,1.69017,-2.86869,0.718998,-0.267646,0.509334,0.0569865,-0.00929832,0.0487566,0.00932813,0.00656024,0.646952,5,0.1,8,2.2,-1.22204,-1.53743,0.55601,0.0899643,0.866026,0.0118047,-0.0206232,-5.96046e-05,-0.00271201,0.0106146,2.26674,5,0.1,9,2.2,-2.11377,2.69178,0.586931,0.320774,-0.343251,0.0133663,-0.351548,0.220418,-0.0146627,0.0120823,0.113213,5,0.1,10,2.2,2.0711,-3.2043,0.622617,0.0946581,-0.54965,0.0194579,-0.106573,0.464201,-0.0207424,0.00874723,0.12213,5,0.1,11,2.2,0.468868,2.03698,0.605752,-0.0739381,-0.425893,-0.00185966,-0.333011,0.275016,0.0392497,0.00829528,0.162153,5,0.1,12,2.2,-3.14687,-0.211392,0.583633,0.392586,0.0505973,0.00862628,1.33252,-0.199035,-0.00101328,0.038666,0.589342,5,0.1,13,2.2,-3.5013,-3.19605,0.913581,-0.192279,0.137419,0.202131,0.288725,0.987172,-0.216514,0.0362172,1.84287,5,0.1,14,2.2,0.974698,4.18634,0.63925,-0.815113,0.0918984,0.0368401,-0.647485,-0.233889,-0.082314,0.0109438,2.30406,5,0.1,15,2.2,0.595727,2.41016,0.590635,-0.638649,-0.084269,0.00521094,0.18549,0.527978,0.000625849,0.0103761,1.07632,5,0.1,16,2.2,1.12272,-0.352781,0.609519,0.0833839,0.37784,-0.0102639,-0.0571012,-0.274613,0.00703335,0.025053,0.0925228,5,0.1,17,2.2,-2.07961,-1.29608,0.605244,0.313908,0.254461,0.00570416,-0.199795,0.361443,0.00473857,0.00768175,0.167545,5,0.1,18,2.2,3.80012,0.836848,0.579342,0.0437915,0.497797,0.0472412,1.11818,-1.17645,0.0998974,0.00958141,0.288278,5,0.1,19,2.2,1.2,1.40164,0.614911,-0.0234544,0.298899,-0.0152484,-0.347614,-0.171721,0.0167191,0.0147512,0.514288,5,0.1,20,2.2,-3.24655,-1.8531,0.736124,0.129747,0.282013,0.0192642,-0.132442,-0.215292,-0.0146925,0.011674,0.142406,5,0.1,21,2.2,-1.3447,-2.71755,0.606295,-0.531819,0.865972,-0.00375509,0.0934005,-0.00119209,0.00089407,0.0150749,2.10073,5,0.1,22,2.2,-2.29166,-1.6191,0.599146,0.409442,-0.0843734,0.000576675,-0.289202,0.169218,-0.000178814,0.00817366,0.163999,5,0.1,23,2.2,4.19931,-3.27954,0.636894,0.16036,-0.377423,0.0267446,-0.109673,0.25785,-0.018239,0.0102057,0.0730397,5,0.1,24,2.2,3.46378,0.752538,0.500034,-0.119549,0.866026,-7.15256e-05,0.0154972,0,-0.000149012,0.0192529,2.26568,5,0.1,25,2.2,-1.34978,-0.166988,0.521137,0.197318,0.158581,0.00535399,-0.216424,0.0171438,-0.00584126,0.00959954,0.278367,5,0.1,26,2.2,1.92254,3.60463,0.500059,0.706577,-0.191736,-9.98378e-05,-0.351846,0.272751,-0.000357628,0.0119564,0.364255,5,0.1,27,2.2,3.2,2.92388,0.618899,-0.0345647,0.0761211,-0.0189036,-0.558615,-0.0752211,0.0186861,0.0115163,3.5633,5,0.1,28,2.2,-0.242372,1.3,0.598926,-0.117536,-0.0323087,0.00219792,0.175163,-0.359535,-0.00324845,0.00934189,0.210777,5,0.1,29,2.2,3.55694,-2.78037,0.593368,-0.0244617,0.866026,0.00134557,0.00464916,0,0,0.0192201,2.27153,5,0.1,30,2.2,-0.224047,2.10234,0.733652,-0.230893,-0.444025,0.0167087,0.25209,0.430822,-0.0182688,0.0106647,0.151142,5,0.1,31,2.2,2.68999,2.99909,0.613679,0.419247,-0.283408,-0.0138998,-0.228167,0.342369,0.0147521,0.0110031,0.368873,5,0.1,32,2.2,-1.41485,2.4,0.593658,0.41559,-0.208735,0.00650287,-0.231624,0.308156,-0.00661612,0.0123332,0.501863,5,0.1,33,2.2,-3.17177,-3.20119,0.587826,-0.0785112,-0.00852346,0.00377893,-0.0598431,0.0089407,0.0190437,0.00892082,0.425377,5,0.1,34,2.2,-0.616926,-0.375485,0.584691,0.316112,0.814579,0.01304,-0.291407,-0.541731,-0.0127256,0.0148672,0.4026,5,0.1,35,2.2,-1.61141,2.69035,0.591959,-0.100383,-0.674379,0.00625253,-0.12356,-0.49603,-0.00327826,0.0114186,2.29504,5,0.1,36,2.2,-0.580488,-1.8,0.594222,-0.371267,-0.179201,-0.0176921,0.362337,0.251651,0.0172555,0.00860147,0.472618,5,0.1,37,2.2,-1.3573,-3.2057,0.627392,0.130486,0.11099,0.00137538,-0.583827,1.33848,0.0167191,0.037777,3.04934,5,0.1,38,2.2,-1,4.01099,0.579429,0.254245,-0.067687,0.019218,-0.0728071,0.27585,-0.0155866,0.0115272,0.939048,5,0.1,39,2.2,-2.80298,2.52697,0.594231,0.419301,-0.136918,0.00622422,-0.2141,0.0934601,-0.00423193,0.0140739,0.24652,5,0.1
0,2.3,-1.09647,2.05824,0.590874,0.20314,-0.345744,0.0094343,-0.156708,-0.00546873,-0.00718236,0.0181101,0.160786,5,0.1,1,2.3,3.55226,2.30705,0.60884,-0.29413,0.634265,-0.00705738,0.0663698,-0.408441,0.00288337,0.0120421,0.291809,5,0.1,2,2.3,-0.259863,-3.28913,0.597485,-0.10525,0.160942,-0.010832,-0.0366541,1.14183,-0.0649095,0.00882522,1.67702,5,0.1,3,2.3,1.93,-2.71335,0.640053,-0.118728,-0.429755,0.0105023,0.0381172,0.250787,-0.0118837,0.010831,0.149378,5,0.1,4,2.3,3.30205,2.1931,0.590154,-0.0215724,0.198331,-0.0146552,0.159621,-0.888422,-0.0474416,0.0104688,0.530531,5,0.1,5,2.3,-1.92633,-3.26178,0.609237,0.360359,0.139033,-0.0120415,-0.168629,-0.0737756,0.00565127,0.00832597,0.0706033,5,0.1,6,2.3,0.0057332,-0.390546,0.601664,-0.346994,0.1847,-0.00188714,0.189603,0.124065,0.00103191,0.0152979,0.107551,5,0.1,7,2.3,1.66316,-2.81906,0.724854,-0.273896,0.469622,0.0609811,-0.0920892,-0.766501,0.0609756,0.00656024,0.646952,5,0.1,8,2.3,-1.21311,-1.45083,0.557182,0.0888664,0.866025,0.01166,-0.00660121,1.49012e-05,-0.000879169,0.0106146,2.26674,5,0.1,9,2.3,-2.08333,2.65844,0.588199,0.288731,-0.324337,0.0120299,-0.29847,0.172213,-0.0124425,0.0120823,0.113213,5,0.1,10,2.3,2.08007,-3.25708,0.624465,0.084918,-0.50691,0.0175685,-0.0908375,0.40701,-0.0176132,0.00874723,0.12213,5,0.1,11,2.3,0.459914,1.99546,0.60577,-0.103936,-0.406663,0.00225967,-0.260357,0.137337,0.0415035,0.00829528,0.162153,5,0.1,12,2.3,-3.10265,-0.207225,0.584496,0.475883,0.0337099,0.00866223,0.384897,-0.141139,0.00109524,0.038666,0.589342,5,0.1,13,2.3,-3.5188,-3.17668,0.932558,-0.155406,0.254873,0.176071,0.429764,1.28268,-0.296447,0.0362172,1.84287,5,0.1,14,2.3,0.890716,4.19442,0.642537,-0.857347,0.0704378,0.0290476,-0.219975,-0.19592,-0.0734106,0.0109438,2.30406,5,0.1,15,2.3,0.532502,2.40418,0.591161,-0.627726,-0.0378311,0.0053145,0.0708976,0.380665,0.00111759,0.0103761,1.07632,5,0.1,16,2.3,1.13081,-0.31666,0.608523,0.0785608,0.341985,-0.00967039,-0.0430495,-0.431139,0.00529364,0.025053,0.0925228,5,0.1,17,2.3,-2.04914,-1.26882,0.605839,0.296043,0.290408,0.0061742,-0.169158,0.335321,0.00427291,0.00768175,0.167545,5,0.1,18,2.3,3.81,0.880969,0.584604,0.152054,0.386887,0.0582139,1.0168,-1.03981,0.112098,0.00958141,0.288278,5,0.1,19,2.3,1.19542,1.43077,0.613464,-0.0719739,0.284421,-0.0137242,-0.58002,-0.130922,0.0141971,0.0147512,0.514288,5,0.1,20,2.3,-3.23432,-1.82589,0.737982,0.114348,0.262609,0.0179401,-0.173122,-0.183024,-0.0124946,0.011674,0.142406,5,0.1,21,2.3,-1.39764,-2.63095,0.605922,-0.528138,0.865994,-0.00370787,0.0122488,0.000700355,0.000279397,0.0150749,2.10073,5,0.1,22,2.3,-2.25178,-1.62672,0.599203,0.390995,-0.0684587,0.000576675,-0.111252,0.149436,0.000119209,0.00817366,0.163999,5,0.1,23,2.3,4.21486,-3.31614,0.639488,0.151101,-0.355649,0.0252045,-0.082612,0.194326,-0.01375,0.0102057,0.0730397,5,0.1,24,2.3,3.45192,0.83914,0.500027,-0.117519,0.866026,-7.83242e-05,0.0285804,-3.72529e-06,3.72529e-06,0.0192529,2.26568,5,0.1,25,2.3,-1.33097,-0.150464,0.521647,0.180206,0.176592,0.00489196,-0.137337,0.299267,-0.00370666,0.00959954,0.278367,5,0.1,26,2.3,1.99163,3.58675,0.500048,0.676178,-0.16669,-0.000121072,-0.285283,0.232428,-8.19564e-05,0.0119564,0.364255,5,0.1,27,2.3,3.19361,2.93147,0.617103,-0.0940077,0.0785902,-0.0169985,-0.602841,0.101626,0.0195354,0.0115163,3.5633,5,0.1,28,2.3,-0.253276,1.29476,0.59913,-0.100777,-0.0739064,0.00188658,0.161026,-0.446603,-0.00299886,0.00934189,0.210777,5,0.1,29,2.3,3.55451,-2.69376,0.593504,-0.0242729,0.866026,0.00136374,0.00064075,0,0.000264496,0.0192201,2.27153,5,0.1,30,2.3,-0.246063,2.05974,0.735245,-0.210965,-0.410776,0.0152646,0.159957,0.261098,-0.0115931,0.0106647,0.151142,5,0.1,31,2.3,2.73061,2.97263,0.612356,0.391619,-0.244318,-0.0126021,-0.32407,0.429586,0.0117123,0.0110031,0.368873,5,0.1,32,2.3,-1.37435,2.37997,0.594277,0.394864,-0.197824,0.00589294,-0.198402,-0.0468045,-0.00576302,0.0123332,0.501863,5,0.1,33,2.3,-3.1799,-3.20202,0.588292,-0.0836488,-0.0082057,0.00547329,-0.0395626,0.0038594,0.0145398,0.00892082,0.425377,5,0.1,34,2.3,-0.586694,-0.296522,0.585937,0.289084,0.766067,0.0119358,-0.257798,-0.45804,-0.00987202,0.0148672,0.4026,5,0.1,35,2.3,-1.62187,2.62067,0.592569,-0.106931,-0.716766,0.00596568,-0.0120997,-0.345215,-0.00270456,0.0114186,2.29504,5,0.1,36,2.3,-0.615911,-1.81738,0.592534,-0.337983,-0.174396,-0.0161064,0.3139,-0.110857,0.0149645,0.00860147,0.472618,5,0.1,37,2.3,-1.34648,-3.18701,0.627587,0.0920441,0.269175,0.00229282,-0.216037,1.72332,0.00270829,0.037777,3.04934,5,0.1,38,2.3,-0.97406,4.00554,0.581277,0.271721,-0.0419691,0.0177807,0.358917,0.23663,-0.0137351,0.0115272,0.939048,5,0.1,39,2.3,-2.76185,2.51375,0.594832,0.405366,-0.127479,0.00579646,-0.0920147,0.0978857,-0.00444427,0.0140739,0.24652,5,0.1
0,2.4,-1.07688,2.02364,0.591785,0.188971,-0.345826,0.0087887,-0.136077,0.0231862,-0.00619888,0.0156983,0.101675,5,0.1,1,2.4,3.52324,2.36837,0.60815,-0.28556,0.590968,-0.00673085,0.11456,-0.472069,0.0038147,0.0127803,0.281108,5,0.1,2,2.4,-0.270575,-3.2672,0.596083,-0.108848,0.277394,-0.0170767,-0.0278801,1.12641,-0.0574291,0.00999512,1.35367,5,0.1,3,2.4,1.9183,-2.75504,0.641049,-0.115359,-0.403655,0.00946522,0.0357628,0.283718,-0.00938773,0.0142773,0.18262,5,0.1,4,2.4,3.30058,2.2086,0.588469,-0.00887513,0.113142,-0.018844,0.0952482,-0.800252,-0.0349581,0.0144365,0.60393,5,0.1,5,2.4,-1.89115,-3.24829,0.608062,0.342736,0.130063,-0.0114515,-0.197291,-0.107169,0.00658631,0.00786629,0.149154,5,0.1,6,2.4,-0.0280116,-0.371518,0.60148,-0.327535,0.194971,-0.00178069,0.211138,0.0707954,0.00113249,0.0133702,0.152841,5,0.1,7,2.4,1.63533,-2.77675,0.731277,-0.281987,0.369853,0.0675052,-0.0526309,-1.1673,0.0624061,0.00626736,0.249748,5,0.1,8,2.4,-1.20426,-1.36423,0.558342,0.087741,0.866026,0.0115111,-0.0196695,-5.96046e-05,-0.0025928,0.0093089,2.26699,5,0.1,9,2.4,-2.05593,2.62688,0.589341,0.259525,-0.306362,0.0108108,-0.292063,0.197411,-0.0121593,0.0140685,0.136284,5,0.1,10,2.4,2.08811,-3.30572,0.626135,0.0760496,-0.465465,0.0158384,-0.0883341,0.433326,-0.017345,0.0105482,0.141463,5,0.1,11,2.4,0.448382,1.95544,0.606196,-0.124946,-0.393629,0.00615865,-0.155792,0.143528,0.0353158,0.0125497,0.266221,5,0.1,12,2.4,-3.05435,-0.20448,0.585366,0.479192,0.0219166,0.00873655,-0.273824,-0.0968277,-8.9407e-05,0.0366329,0.326732,5,0.1,13,2.4,-3.53209,-3.14483,0.948608,-0.10972,0.380147,0.144348,0.468969,1.16396,-0.331193,0.0340683,1.47222,5,0.1,14,2.4,0.804362,4.20055,0.64509,-0.866024,0.0525832,0.0221774,-2.98023e-05,-0.161648,-0.0638962,0.0104493,2.27201,5,0.1,15,2.4,0.47015,2.40194,0.591697,-0.617968,-0.0107527,0.00537634,0.151352,0.154972,-5.96046e-05,0.0106011,0.895136,5,0.1,16,2.4,1.13845,-0.284797,0.607583,0.0741482,0.293739,-0.00912696,-0.0479817,-0.52385,0.00587106,0.0256929,0.252048,5,0.1,17,2.4,-2.02041,-1.23829,0.606474,0.278115,0.317782,0.00649393,-0.197649,0.196874,0.00184774,0.0114909,0.770274,5,0.1,18,2.4,3.82992,0.914698,0.590956,0.242043,0.290142,0.0683784,0.762105,-0.89404,0.0858307,0.0163332,3.57754,5,0.1,19,2.4,1.18523,1.45854,0.612162,-0.131941,0.270486,-0.0123367,-0.586987,-0.156999,0.0139177,0.0104081,0.41001,5,0.1,20,2.4,-3.2238,-1.80056,0.739713,0.0956178,0.243688,0.0166491,-0.19908,-0.202477,-0.0138581,0.0161704,0.252128,5,0.1,21,2.4,-1.45031,-2.54435,0.605553,-0.523892,0.866026,-0.00366271,0.0953674,0,0.000834465,0.0118907,1.26912,5,0.1,22,2.4,-2.21316,-1.63285,0.599262,0.38172,-0.054425,0.000590086,-0.0977516,0.131488,0.000119209,0.0103342,0.0986655,5,0.1,23,2.4,4.22956,-3.35073,0.641939,0.142622,-0.335705,0.0237927,-0.0920296,0.216484,-0.0153184,0.011268,0.0568594,5,0.1,24,2.4,3.44035,0.925743,0.500019,-0.113267,0.866026,-7.15256e-05,0.0587702,0,8.9407e-05,0.0189597,2.26667,5,0.1,25,2.4,-1.31358,-0.131139,0.522119,0.167847,0.210731,0.00455678,-0.118434,0.350289,-0.00318885,0.0100875,0.184677,5,0.1,26,2.4,2.05773,3.5712,0.500036,0.644577,-0.144517,-0.000119209,-0.366926,0.214219,8.9407e-05,0.0108312,0.253905,5,0.1,27,2.4,3.18131,2.93997,0.615503,-0.150394,0.0923753,-0.0149801,-0.50509,0.156164,0.0208318,0.0126547,3.49098,5,0.1,28,2.4,-0.262565,1.28517,0.599304,-0.0851639,-0.117144,0.00159442,0.151873,-0.399113,-0.00280142,0.0108413,0.195054,5,0.1,29,2.4,3.55209,-2.60716,0.593641,-0.0240803,0.866026,0.00138283,0.00429153,0,2.98023e-05,0.0205078,2.27155,5,0.1,30,2.4,-0.266421,2.01987,0.736718,-0.196557,-0.387126,0.0142202,0.138193,0.231922,-0.0100136,0.0120444,0.0879777,5,0.1,31,2.4,2.768,2.95042,0.611153,0.35463,-0.199294,-0.0114709,-0.414014,0.46289,0.0112951,0.0108171,0.778827,5,0.1,32,2.4,-1.33591,2.35966,0.594838,0.373286,-0.210458,0.00531971,-0.243783,-0.172496,-0.00578165,0.01396,0.388564,5,0.1,33,2.4,-3.1884,-3.20279,0.588903,-0.0858724,-0.00676513,0.00663847,-0.00274181,0.0282526,0.00855327,0.0102176,0.8709,5,0.1,34,2.4,-0.559076,-0.222264,0.587083,0.263089,0.717966,0.0109777,-0.268042,-0.524521,-0.00968575,0.0162839,0.275869,5,0.1,35,2.4,-1.63247,2.54757,0.593151,-0.103709,-0.74175,0.0056684,0.0722408,-0.144124,-0.00339746,0.0103408,1.90018,5,0.1,36,2.4,-0.648149,-1.83567,0.590998,-0.306694,-0.193447,-0.0146151,0.319213,-0.235736,0.0151992,0.0124835,0.372482,5,0.1,37,2.4,-1.33796,-3.15153,0.627814,0.0816941,0.437886,0.00211447,-0.0157356,1.57511,-0.00542402,0.0400072,2.59626,5,0.1,38,2.4,-0.944811,4.00245,0.582986,0.314854,-0.0206709,0.0163719,0.455379,0.188351,-0.0148118,0.0101552,0.0775959,5,0.1,39,2.4,-2.72175,2.50151,0.595389,0.396162,-0.116926,0.00531673,-0.111938,0.114799,-0.00521541,0.0152908,0.18163,5,0.1
