id,t,px,py,pz,vx,vy,vz,ax,ay,az,planning_time,qp_cost,planning_report,size,id,t,px,py,pz,vx,vy,vz,ax,ay,az,planning_time,qp_cost,planning_report,size,id,t,px,py,pz,vx,vy,vz,ax,ay,az,planning_time,qp_cost,planning_report,size,id,t,px,py,pz,vx,vy,vz,ax,ay,az,planning_time,qp_cost,planning_report,size,id,t,px,py,pz,vx,vy,vz,ax,ay,az,planning_time,qp_cost,planning_report,size,id,t,px,py,pz,vx,vy,vz,ax,ay,az,planning_time,qp_cost,planning_report,size,id,t,px,py,pz,vx,vy,vz,ax,ay,az,planning_time,qp_cost,planning_report,size,id,t,px,py,pz,vx,vy,vz,ax,ay,az,planning_time,qp_cost,planning_report,size,id,t,px,py,pz,vx,vy,vz,ax,ay,az,planning_time,qp_cost,planning_report,size,id,t,px,py,pz,vx,vy,vz,ax,ay,az,planning_time,qp_cost,planning_report,size,id,t,px,py,pz,vx,vy,vz,ax,ay,az,planning_time,qp_cost,planning_report,size,id,t,px,py,pz,vx,vy,vz,ax,ay,az,planning_time,qp_cost,planning_report,size,id,t,px,py,pz,vx,vy,vz,ax,ay,az,planning_time,qp_cost,planning_report,size,id,t,px,py,pz,vx,vy,vz,ax,ay,az,planning_time,qp_cost,planning_report,size,id,t,px,py,pz,vx,vy,vz,ax,ay,az,planning_time,qp_cost,planning_report,size,id,t,px,py,pz,vx,vy,vz,ax,ay,az,planning_time,qp_cost,planning_report,size,id,t,px,py,pz,vx,vy,vz,ax,ay,az,planning_time,qp_cost,planning_report,size,id,t,px,py,pz,vx,vy,vz,ax,ay,az,planning_time,qp_cost,planning_report,size,id,t,px,py,pz,vx,vy,vz,ax,ay,az,planning_time,qp_cost,planning_report,size,id,t,px,py,pz,vx,vy,vz,ax,ay,az,planning_time,qp_cost,planning_report,size,id,t,px,py,pz,vx,vy,vz,ax,ay,az,planning_time,qp_cost,planning_report,size,id,t,px,py,pz,vx,vy,vz,ax,ay,az,planning_time,qp_cost,planning_report,size,id,t,px,py,pz,vx,vy,vz,ax,ay,az,planning_time,qp_cost,planning_report,size,id,t,px,py,pz,vx,vy,vz,ax,ay,az,planning_time,qp_cost,planning_report,size,id,t,px,py,pz,vx,vy,vz,ax,ay,az,planning_time,qp_cost,planning_report,size,id,t,px,py,pz,vx,vy,vz,ax,ay,az,planning_time,qp_cost,planning_report,size,id,t,px,py,pz,vx,vy,vz,ax,ay,az,planning_time,qp_cost,planning_report,size,id,t,px,py,pz,vx,vy,vz,ax,ay,az,planning_time,qp_cost,planning_report,size,id,t,px,py,pz,vx,vy,vz,ax,ay,az,planning_time,qp_cost,planning_report,size,id,t,px,py,pz,vx,vy,vz,ax,ay,az,planning_time,qp_cost,planning_report,size,id,t,px,py,pz,vx,vy,vz,ax,ay,az,planning_time,qp_cost,planning_report,size,id,t,px,py,pz,vx,vy,vz,ax,ay,az,planning_time,qp_cost,planning_report,size,id,t,px,py,pz,vx,vy,vz,ax,ay,az,planning_time,qp_cost,planning_report,size,id,t,px,py,pz,vx,vy,vz,ax,ay,az,planning_time,qp_cost,planning_report,size,id,t,px,py,pz,vx,vy,vz,ax,ay,az,planning_time,qp_cost,planning_report,size,id,t,px,py,pz,vx,vy,vz,ax,ay,az,planning_time,qp_cost,planning_report,size,id,t,px,py,pz,vx,vy,vz,ax,ay,az,planning_time,qp_cost,planning_report,size,id,t,px,py,pz,vx,vy,vz,ax,ay,az,planning_time,qp_cost,planning_report,size,id,t,px,py,pz,vx,vy,vz,ax,ay,az,planning_time,qp_cost,planning_report,size,id,t,px,py,pz,vx,vy,vz,ax,ay,az,planning_time,qp_cost,planning_report,size
0,0,0.760952,-1.03185,0.504977,0,0,0,0,0,0,0.0173901,1.1068,5,0.1,1,0,2.0727,-3.52878,0.541848,0,0,0,0,0,0,0.0102959,3.51219,5,0.1,2,0,0.875547,-4.20067,0.607478,0,0,0,0,0,0,0.017284,1.16699,5,0.1,3,0,0.155631,2.98652,0.504349,0,0,0,0,0,0,0.00971201,1.31776,5,0.1,4,0,-2.47141,4.19593,0.515057,0,0,0,0,0,0,0.0354138,3.5122,5,0.1,5,0,3.98111,4.20736,0.610035,0,0,0,0,0,0,0.0156969,2.78006,5,0.1,6,0,-1.26998,3.83486,0.535717,0,0,0,0,0,0,0.0130691,3.5122,5,0.1,7,0,-2.64626,-0.468359,0.533025,0,0,0,0,0,0,0.0149011,0.964429,5,0.1,8,0,0.546025,3.85462,0.625986,0,0,0,0,0,0,0.0109555,3.51219,5,0.1,9,0,3.87187,-2.38813,0.535707,0,0,0,0,0,0,0.0246132,3.5122,5,0.1,10,0,-3.29849,3.24108,0.652501,0,0,0,0,0,0,0.011036,2.5952,5,0.1,11,0,4.39961,-2.12536,0.67204,0,0,0,0,0,0,0.0162147,3.5122,5,0.1,12,0,1.86362,2.70282,0.608594,0,0,0,0,0,0,0.0106013,3.5122,5,0.1,13,0,-1.42152,-3.32634,0.546817,0,0,0,0,0,0,0.0280228,3.5122,5,0.1,14,0,0.333802,-1.46979,0.656731,0,0,0,0,0,0,0.00898963,0.951179,5,0.1,15,0,-3.61711,-2.4709,0.502557,0,0,0,0,0,0,0.0140518,3.5122,5,0.1,16,0,2.11873,-1.425,0.635321,0,0,0,0,0,0,0.0267186,3.51219,5,0.1,17,0,2.09077,-0.338603,0.508784,0,0,0,0,0,0,0.0165665,3.51219,5,0.1,18,0,-1.21508,-1.50348,0.677308,0,0,0,0,0,0,0.0111757,3.5122,5,0.1,19,0,-4.37129,-0.0724769,0.646428,0,0,0,0,0,0,0.0155422,3.08823,5,0.1,20,0,0.864371,2.75915,0.562459,0,0,0,0,0,0,0.009759,0.379619,5,0.1,21,0,3.60501,0.454245,0.540845,0,0,0,0,0,0,0.00976097,3.51219,5,0.1,22,0,-1.27219,0.151238,0.563698,0,0,0,0,0,0,0.0130364,3.51219,5,0.1,23,0,-4.25296,-2.79042,0.562345,0,0,0,0,0,0,0.0129472,3.5122,5,0.1,24,0,-3.31721,-1.4418,0.659682,0,0,0,0,0,0,0.0114345,3.5122,5,0.1,25,0,-3.53068,-4.19296,0.548742,0,0,0,0,0,0,0.00857925,3.51219,5,0.1,26,0,2.44942,3.38857,0.540853,0,0,0,0,0,0,0.0102919,3.5122,5,0.1,27,0,-0.946724,0.93139,0.504664,0,0,0,0,0,0,0.00957415,0.855254,5,0.1,28,0,1.64698,0.912959,0.54112,0,0,0,0,0,0,0.0102284,3.5122,5,0.1,29,0,3.45547,3.40037,0.62245,0,0,0,0,0,0,0.0147517,0.986307,5,0.1,30,0,-1.26141,-2.15499,0.586562,0,0,0,0,0,0,0.00909475,1.50792,5,0.1,31,0,-0.747675,-3.46323,0.636235,0,0,0,0,0,0,0.0118879,3.14503,5,0.1,32,0,-0.198092,4.25027,0.523746,0,0,0,0,0,0,0.0100864,3.5122,5,0.1,33,0,-3.52589,-3.51082,0.616154,0,0,0,0,0,0,0.00887048,0.66975,5,0.1,34,0,-1.41015,1.9077,0.612408,0,0,0,0,0,0,0.00961883,0.286959,5,0.1,35,0,4.28713,-0.569425,0.618648,0,0,0,0,0,0,0.0109191,3.22886,5,0.1,36,0,-0.516283,1.46295,0.579612,0,0,0,0,0,0,0.0174387,1.86547,5,0.1,37,0,-2.43283,3.36441,0.696093,0,0,0,0,0,0,0.00982047,1.44464,5,0.1,38,0,3.55477,-1.35439,0.637299,0,0,0,0,0,0,0.0160938,3.5122,5,0.1,39,0,2.32567,-2.65851,0.543683,0,0,0,0,0,0,0.0130526,1.76255,5,0.1
0,0.1,0.76141,-1.03077,0.504935,0.0130109,0.0305781,-0.00120942,0.231307,0.543602,-0.0215024,0.0173901,1.1068,5,0.1,1,0.1,2.07061,-3.5289,0.541892,-0.0591625,-0.00329353,0.00127014,-1.0518,-0.0585467,0.0225753,0.0102959,3.51219,5,0.1,2,0.1,0.876042,-4.19957,0.607471,0.0140601,0.0311367,-0.000221469,0.249956,0.553519,-0.00394136,0.017284,1.16699,5,0.1,3,0.1,0.154998,2.98763,0.504312,-0.0179473,0.0315156,-0.00105696,-0.319064,0.560269,-0.0187866,0.00971201,1.31776,5,0.1,4,0.1,-2.46933,4.19579,0.514995,0.0591088,-0.00397116,-0.001771,1.05081,-0.0706315,-0.0314862,0.0354138,3.5122,5,0.1,5,0.1,3.97962,4.20625,0.610025,-0.0424098,-0.0313327,-0.000297185,-0.753954,-0.557065,-0.00528619,0.0156969,2.78006,5,0.1,6,0.1,-1.27011,3.83278,0.535739,-0.00369418,-0.0591502,0.000624731,-0.0656769,-1.05155,0.0111088,0.0130691,3.5122,5,0.1,7,0.1,-2.64522,-0.468026,0.533095,0.0295237,0.0094343,0.00198465,0.524849,0.16772,0.0352859,0.0149011,0.964429,5,0.1,8,0.1,0.545422,3.85262,0.625967,-0.017116,-0.0567406,-0.000525545,-0.304282,-1.00872,-0.00934675,0.0109555,3.51219,5,0.1,9,0.1,3.87169,-2.38605,0.535734,-0.00520125,0.0590347,0.000792835,-0.0924766,1.04949,0.0140928,0.0246132,3.5122,5,0.1,10,0.1,-3.29693,3.2402,0.652446,0.0444066,-0.0249252,-0.00155587,0.789449,-0.443101,-0.027664,0.011036,2.5952,5,0.1,11,0.1,4.39917,-2.12332,0.672012,-0.0124305,0.0579439,-0.000814348,-0.221014,1.03012,-0.0144765,0.0162147,3.5122,5,0.1,12,0.1,1.86181,2.70387,0.608587,-0.0512179,0.0298236,-0.000190176,-0.910535,0.530198,-0.00338256,0.0106013,3.5122,5,0.1,13,0.1,-1.42085,-3.32436,0.546849,0.0189336,0.056155,0.000897795,0.336595,0.998318,0.0159591,0.0280228,3.5122,5,0.1,14,0.1,0.334846,-1.46952,0.656599,0.0296359,0.00767633,-0.00375677,0.52686,0.136465,-0.066787,0.00898963,0.951179,5,0.1,15,0.1,-3.61695,-2.46882,0.502536,0.00454746,0.0590883,-0.000621378,0.0808388,1.05047,-0.0110492,0.0140518,3.5122,5,0.1,16,0.1,2.11804,-1.42303,0.635299,-0.0194561,0.0559803,-0.000643078,-0.345871,0.995204,-0.0114329,0.0267186,3.51219,5,0.1,17,0.1,2.08969,-0.336812,0.508731,-0.0304379,0.0508328,-0.00150269,-0.541121,0.903692,-0.0267141,0.0165665,3.51219,5,0.1,18,0.1,-1.21683,-1.50235,0.677369,-0.0496905,0.032258,0.00173263,-0.883386,0.573471,0.0308007,0.0111757,3.5122,5,0.1,19,0.1,-4.37002,-0.0709919,0.64638,0.0361927,0.0421539,-0.00137594,0.643402,0.749402,-0.0244603,0.0155422,3.08823,5,0.1,20,0.1,0.863939,2.75862,0.562499,-0.0122794,-0.0150882,0.00111237,-0.218306,-0.268251,0.0197813,0.009759,0.379619,5,0.1,21,0.1,3.60532,0.452183,0.540935,0.00885837,-0.0585467,0.00255862,0.15749,-1.04083,0.0454895,0.00976097,3.51219,5,0.1,22,0.1,-1.27245,0.149167,0.563642,-0.00738557,-0.0587848,-0.00159107,-0.131287,-1.04506,-0.0282824,0.0130364,3.51219,5,0.1,23,0.1,-4.25246,-2.7884,0.562362,0.0142872,0.0575181,0.000487734,0.254035,1.02256,0.0086762,0.0129472,3.5122,5,0.1,24,0.1,-3.31514,-1.44202,0.659644,0.0589155,-0.00636205,-0.00106003,1.0474,-0.1131,-0.01885,0.0114345,3.5122,5,0.1,25,0.1,-3.5286,-4.19292,0.548753,0.0592589,0.00102744,0.000306591,1.05348,0.0182688,0.00545382,0.00857925,3.51219,5,0.1,26,0.1,2.44755,3.38765,0.540908,-0.0531111,-0.0262588,0.00157105,-0.944182,-0.466824,0.0279285,0.0102919,3.5122,5,0.1,27,0.1,-0.946281,0.930477,0.504843,0.0125673,-0.0259193,0.0050636,0.223421,-0.460789,0.0900179,0.00957415,0.855254,5,0.1,28,0.1,1.64689,0.910873,0.541153,-0.00240877,-0.0592116,0.000964943,-0.0428259,-1.05265,0.017155,0.0102284,3.5122,5,0.1,29,0.1,3.45453,3.3998,0.622427,-0.0268333,-0.0163093,-0.000665057,-0.477046,-0.289947,-0.0118278,0.0147517,0.986307,5,0.1,30,0.1,-1.26009,-2.15462,0.586576,0.0373809,0.0105202,0.000398234,0.664555,0.18701,0.00707805,0.00909475,1.50792,5,0.1,31,0.1,-0.748617,-3.46149,0.636197,-0.0267394,0.0492882,-0.00107391,-0.475369,0.876233,-0.0190921,0.0118879,3.14503,5,0.1,32,0.1,-0.196081,4.24971,0.523695,0.057113,-0.0157706,-0.00145333,1.01534,-0.28035,-0.0258349,0.0100864,3.5122,5,0.1,33,0.1,-3.52522,-3.51142,0.616061,0.0190739,-0.0172954,-0.00263266,0.339076,-0.307485,-0.0468045,0.00887048,0.66975,5,0.1,34,0.1,-1.40961,1.90743,0.612395,0.0151176,-0.00763685,-0.000367779,0.268757,-0.135764,-0.00653788,0.00961883,0.286959,5,0.1,35,0.1,4.28631,-0.5676,0.618587,-0.0233069,0.051799,-0.00172528,-0.414371,0.920877,-0.0306703,0.0109191,3.22886,5,0.1,36,0.1,-0.515117,1.46393,0.579633,0.0330801,0.0277687,0.000604335,0.588093,0.493661,0.01074,0.0174387,1.86547,5,0.1,37,0.1,-2.43217,3.36324,0.696149,0.0187531,-0.0330251,0.0015974,0.333369,-0.587121,0.0284016,0.00982047,1.44464,5,0.1,38,0.1,3.55471,-1.3523,0.637278,-0.00165291,0.0592424,-0.000588503,-0.0294,1.05319,-0.0104643,0.0160938,3.5122,5,0.1,39,0.1,2.32449,-2.65762,0.543742,-0.0333577,0.0254408,0.00166893,-0.593036,0.45228,0.0296682,0.0130526,1.76255,5,0.1
0,0.2,0.764053,-1.02456,0.504689,0.0411212,0.096643,-0.00382215,0.308394,0.724733,-0.0286698,0.0167944,0.90843,5,0.1,1,0.2,2.0586,-3.52957,0.54215,-0.186986,-0.010407,0.00401437,-1.40238,-0.0782013,0.0301003,0.00982357,2.92579,5,0.1,2,0.2,0.878898,-4.19325,0.607426,0.0444368,0.0983953,-0.000700355,0.33325,0.738382,-0.00527501,0.0193947,0.957439,5,0.1,3,0.2,0.151353,2.99403,0.504097,-0.0567224,0.0996053,-0.00334084,-0.425421,0.746965,-0.025034,0.00854192,1.08154,5,0.1,4,0.2,-2.45733,4.19498,0.514635,0.186813,-0.0125527,-0.00559688,1.40107,-0.0941753,-0.0419915,0.0290608,2.9258,5,0.1,5,0.2,3.971,4.19989,0.609964,-0.134039,-0.0990272,-0.000940263,-1.00517,-0.742674,-0.00703335,0.0156931,0.843236,5,0.1,6,0.2,-1.27086,3.82076,0.535866,-0.0116765,-0.186938,0.0019744,-0.0874996,-1.40226,0.0148416,0.0136587,2.92578,5,0.1,7,0.2,-2.63923,-0.46611,0.533498,0.0933111,0.0298165,0.0062719,0.699759,0.223652,0.0470877,0.0153377,0.791267,5,0.1,8,0.2,0.541945,3.8411,0.62586,-0.0540957,-0.179332,-0.00166148,-0.405699,-1.3448,-0.0124574,0.0102743,2.92581,5,0.1,9,0.2,3.87063,-2.37406,0.535895,-0.016439,0.18658,0.00250489,-0.123262,1.39928,0.0188053,0.0232992,2.9258,5,0.1,10,0.2,-3.28791,3.23514,0.65213,0.140345,-0.0787735,-0.00491589,1.05262,-0.590801,-0.0369251,0.00999796,2.12923,5,0.1,11,0.2,4.39665,-2.11155,0.671846,-0.0392914,0.183135,-0.00257343,-0.294685,1.37341,-0.0193119,0.0151713,2.9258,5,0.1,12,0.2,1.85141,2.70993,0.608549,-0.161874,0.0942588,-0.000600517,-1.21403,0.706911,-0.00452995,0.0102332,2.92579,5,0.1,13,0.2,-1.41701,-3.31295,0.547031,0.0598401,0.177479,0.00283867,0.448763,1.33109,0.0212491,0.0307856,2.9258,5,0.1,14,0.2,0.340866,-1.46796,0.655835,0.0936635,0.0242621,-0.0118732,0.7025,0.181913,-0.0890493,0.00800527,0.780394,5,0.1,15,0.2,-3.61603,-2.45682,0.502409,0.0143707,0.186747,-0.00196397,0.107765,1.40071,-0.0147521,0.0156653,2.92586,5,0.1,16,0.2,2.11409,-1.41166,0.635168,-0.0614882,0.176924,-0.00203252,-0.461221,1.32698,-0.015229,0.0258462,2.92579,5,0.1,17,0.2,2.08351,-0.326486,0.508425,-0.0962019,0.160657,-0.004749,-0.721455,1.20492,-0.0356138,0.0180432,2.92584,5,0.1,18,0.2,-1.22692,-1.49579,0.677721,-0.157046,0.101951,0.00547618,-1.17785,0.764608,0.0410378,0.0131028,2.9258,5,0.1,19,0.2,-4.36266,-0.0624293,0.6461,0.114381,0.133227,-0.00434816,0.858068,0.999205,-0.0326335,0.0171777,2.53372,5,0.1,20,0.2,0.861444,2.75555,0.562725,-0.0388086,-0.0476837,0.00351518,-0.291109,-0.357747,0.0264049,0.0170003,0.311455,5,0.1,21,0.2,3.60712,0.44029,0.541455,0.0279963,-0.185037,0.00808835,0.209928,-1.38777,0.0606179,0.0105426,2.92579,5,0.1,22,0.2,-1.27395,0.137226,0.563318,-0.0233412,-0.185789,-0.00502765,-0.175059,-1.39342,-0.0377297,0.0116535,2.92579,5,0.1,23,0.2,-4.24955,-2.77671,0.562461,0.0451446,0.181788,0.00154078,0.339031,1.36328,0.0115633,0.0146629,2.9258,5,0.1,24,0.2,-3.30317,-1.44332,0.659429,0.186205,-0.0201076,-0.00334978,1.39654,-0.1508,-0.0251234,0.0136482,2.92579,5,0.1,25,0.2,-3.51656,-4.19271,0.548815,0.187284,0.00325441,0.000970066,1.40464,0.0240803,0.00724196,0.00883209,2.9258,5,0.1,26,0.2,2.43676,3.38231,0.541227,-0.167853,-0.0829935,0.00496507,-1.25897,-0.622392,0.0372529,0.0131611,2.92579,5,0.1,27,0.2,-0.943729,0.925212,0.505871,0.039719,-0.0819176,0.0160053,0.297874,-0.614375,0.119984,0.00859114,0.701694,5,0.1,28,0.2,1.6464,0.898846,0.54135,-0.00761449,-0.187136,0.00305027,-0.0570416,-1.40357,0.0228584,0.011344,2.92579,5,0.1,29,0.2,3.44907,3.39649,0.622292,-0.0847995,-0.0515521,-0.00210404,-0.63622,-0.386477,-0.0157356,0.0150184,0.809211,5,0.1,30,0.2,-1.2525,-2.15249,0.586657,0.118142,0.0332475,0.00125915,0.886083,0.249386,0.00941753,0.00850148,1.23717,5,0.1,31,0.2,-0.754049,-3.45148,0.635979,-0.0845104,0.155777,-0.00339299,-0.633836,1.16825,-0.025481,0.0136407,2.58034,5,0.1,32,0.2,-0.184479,4.24651,0.5234,0.180506,-0.0498533,-0.00459254,1.35378,-0.373602,-0.0344813,0.00971843,2.9258,5,0.1,33,0.2,-3.52134,-3.51494,0.615526,0.0602841,-0.0546575,-0.00832081,0.452042,-0.41008,-0.0624061,0.00900929,0.549495,5,0.1,34,0.2,-1.40654,1.90588,0.612321,0.0477821,-0.0241369,-0.00116229,0.358284,-0.181019,-0.00873208,0.010217,0.374465,5,0.1,35,0.2,4.28157,-0.557079,0.618236,-0.0736594,0.16371,-0.00545382,-0.552416,1.22783,-0.040859,0.014405,2.64912,5,0.1,36,0.2,-0.508398,1.46957,0.579756,0.10455,0.0877649,0.00190884,0.784129,0.658154,0.0143349,0.0185933,1.53053,5,0.1,37,0.2,-2.42836,3.35654,0.696474,0.0592709,-0.104374,0.00504851,0.444531,-0.782728,0.0378788,0.00936815,1.18526,5,0.1,38,0.2,3.55437,-1.34027,0.637159,-0.00522137,0.187236,-0.00185966,-0.0393391,1.40423,-0.0139475,0.0157636,2.9258,5,0.1,39,0.2,2.31772,-2.65245,0.544081,-0.105429,0.0804067,0.00527501,-0.790715,0.60308,0.0395477,0.0167335,1.44608,5,0.1
0,0.3,0.769877,-1.01087,0.504182,0.0764977,0.17978,-0.00613183,0.377379,0.886891,-0.0176802,0.0167944,0.90843,5,0.1,1,0.3,2.0321,-3.53104,0.542719,-0.348272,-0.0193961,0.00747629,-1.72351,-0.0960231,0.0369996,0.00982357,2.92579,5,0.1,2,0.3,0.885192,-4.17931,0.607326,0.082665,0.183083,-0.00130469,0.407811,0.903308,-0.00644103,0.0193947,0.957439,5,0.1,3,0.3,0.143319,3.00814,0.503654,-0.105523,0.185292,-0.0053579,-0.520577,0.914097,-0.0154376,0.00854192,1.08154,5,0.1,4,0.3,-2.43085,4.1932,0.513842,0.347949,-0.0233844,-0.0104257,1.72189,-0.115752,-0.051599,0.0290608,2.9258,5,0.1,5,0.3,3.95264,4.18618,0.609831,-0.231566,-0.175332,-0.00174744,-0.913978,-0.75075,-0.0086166,0.0156931,0.843236,5,0.1,6,0.3,-1.27251,3.79427,0.536146,-0.0217419,-0.348204,0.00368021,-0.107571,-1.72323,0.0182241,0.0136587,2.92578,5,0.1,7,0.3,-2.62601,-0.461887,0.534387,0.173583,0.0554709,0.0116718,0.85631,0.273664,0.0575967,0.0153377,0.791267,5,0.1,8,0.3,0.534279,3.81569,0.625625,-0.100755,-0.334002,-0.00309423,-0.498597,-1.65285,-0.0153109,0.0102743,2.92581,5,0.1,9,0.3,3.8683,-2.34762,0.536251,-0.030617,0.347512,0.00466714,-0.1515,1.7197,0.0231005,0.0232992,2.9258,5,0.1,10,0.3,-3.26803,3.22398,0.651433,0.261091,-0.146546,-0.00914987,1.28804,-0.72296,-0.045158,0.00999796,2.12923,5,0.1,11,0.3,4.39108,-2.0856,0.671482,-0.0731811,0.341092,-0.00479426,-0.362158,1.68794,-0.0237301,0.0151713,2.9258,5,0.1,12,0.3,1.82847,2.72328,0.608463,-0.3015,0.17556,-0.00112075,-1.49202,0.868767,-0.00555813,0.0102332,2.92579,5,0.1,13,0.3,-1.40853,-3.2878,0.547433,0.111453,0.330567,0.00528367,0.551537,1.63589,0.0261404,0.0307856,2.9258,5,0.1,14,0.3,0.354131,-1.46452,0.654154,0.174247,0.0451308,-0.0220881,0.859622,0.222623,-0.108961,0.00800527,0.780394,5,0.1,15,0.3,-3.61399,-2.43035,0.502149,0.0267655,0.347839,-0.00315197,0.132471,1.72137,-0.00908971,0.0156653,2.92586,5,0.1,16,0.3,2.10538,-1.38659,0.63488,-0.114531,0.329538,-0.00378443,-0.566825,1.6308,-0.018727,0.0258462,2.92579,5,0.1,17,0.3,2.06988,-0.30372,0.507773,-0.179178,0.299234,-0.00824993,-0.886679,1.48082,-0.0331961,0.0180432,2.92584,5,0.1,18,0.3,-1.24918,-1.48135,0.678497,-0.292509,0.189889,0.0101969,-1.44756,0.939704,0.0504553,0.0131028,2.9258,5,0.1,19,0.3,-4.34646,-0.0435603,0.645484,0.212803,0.247847,-0.00809077,1.04988,1.2227,-0.0399202,0.0171777,2.53372,5,0.1,20,0.3,0.855948,2.7488,0.563223,-0.0722007,-0.0887174,0.00654282,-0.356201,-0.437692,0.0322871,0.0170003,0.311455,5,0.1,21,0.3,3.61109,0.414069,0.542601,0.0521421,-0.344643,0.015061,0.258029,-1.70554,0.0745207,0.0105426,2.92579,5,0.1,22,0.3,-1.27726,0.110898,0.562606,-0.0434743,-0.346045,-0.00936631,-0.215136,-1.71248,-0.0463575,0.0116535,2.92579,5,0.1,23,0.3,-4.24315,-2.75095,0.56268,0.0841208,0.338582,0.0028708,0.416428,1.67552,0.014212,0.0146629,2.9258,5,0.1,24,0.3,-3.27678,-1.44617,0.658954,0.346819,-0.0374509,-0.0062394,1.71632,-0.185333,-0.0308789,0.0136482,2.92579,5,0.1,25,0.3,-3.49002,-4.19225,0.548952,0.34883,0.00603497,0.00180388,1.72627,0.0298023,0.00891462,0.00883209,2.9258,5,0.1,26,0.3,2.41297,3.37055,0.541931,-0.312643,-0.154576,0.00924906,-1.54722,-0.764936,0.0457801,0.0131611,2.92579,5,0.1,27,0.3,-0.938103,0.91361,0.508138,0.0738892,-0.152394,0.0297705,0.364508,-0.751801,0.146851,0.00859114,0.701694,5,0.1,28,0.3,1.64532,0.872327,0.541782,-0.0141768,-0.348558,0.00567958,-0.0701323,-1.72493,0.0281036,0.011344,2.92579,5,0.1,29,0.3,3.43706,3.38919,0.621994,-0.157775,-0.0958897,-0.00391034,-0.778422,-0.473022,-0.0192784,0.0150184,0.809211,5,0.1,30,0.3,-1.23577,-2.14778,0.586835,0.219785,0.061854,0.00234013,1.08426,0.305146,0.0115372,0.00850148,1.23717,5,0.1,31,0.3,-0.766018,-3.42942,0.635498,-0.157218,0.289791,-0.00631502,-0.775605,1.4296,-0.0311621,0.0136407,2.58034,5,0.1,32,0.3,-0.1589,4.23944,0.522749,0.336203,-0.0928305,-0.0085569,1.66377,-0.459284,-0.0423528,0.00971843,2.9258,5,0.1,33,0.3,-3.5128,-3.52268,0.614348,0.11214,-0.101694,-0.0154795,0.553191,-0.501737,-0.076361,0.00900929,0.549495,5,0.1,34,0.3,-1.39962,1.90246,0.612156,0.0933284,-0.0449019,-0.00216356,0.51748,-0.221513,-0.010673,0.010217,0.374465,5,0.1,35,0.3,4.27114,-0.533892,0.617464,-0.13703,0.304555,-0.010142,-0.676006,1.50247,-0.0500195,0.014405,2.64912,5,0.1,36,0.3,-0.49359,1.482,0.580027,0.194497,0.163265,0.00355272,0.959516,0.805415,0.0175349,0.0185933,1.53053,5,0.1,37,0.3,-2.41997,3.34175,0.697189,0.110263,-0.194164,0.00939304,0.543952,-0.957876,0.0463463,0.00936815,1.18526,5,0.1,38,0.3,3.55363,-1.31373,0.636895,-0.00974089,0.348736,-0.00346405,-0.04825,1.72579,-0.0171475,0.0157636,2.9258,5,0.1,39,0.3,2.30279,-2.64106,0.544828,-0.196132,0.149585,0.00981195,-0.967577,0.737965,0.0483952,0.0167335,1.44608,5,0.1
0,0.4,0.77938,-0.988538,0.503498,0.112817,0.265135,-0.00739247,0.332952,0.78243,-0.0077486,0.0259692,0.719267,5,0.1,1,0.4,1.9888,-3.53345,0.543649,-0.514325,-0.028646,0.0110403,-1.52391,-0.084877,0.0327229,0.0153226,2.51528,5,0.1,2,0.4,0.895461,-4.15657,0.607164,0.121911,0.270021,-0.00192374,0.359833,0.796795,-0.00569224,0.028869,0.757522,5,0.1,3,0.4,0.13021,3.03115,0.503056,-0.155622,0.273263,-0.00645965,-0.459269,0.806451,-0.00676513,0.00995643,0.856235,5,0.1,4,0.4,-2.38759,4.1903,0.512546,0.513852,-0.034523,-0.0153974,1.52242,-0.10252,-0.0455976,0.0334019,2.51528,5,0.1,5,0.4,3.92528,4.1651,0.609614,-0.311536,-0.243592,-0.00257641,-0.663638,-0.59104,-0.00762939,0.0184753,0.631903,5,0.1,6,0.4,-1.27522,3.75098,0.536603,-0.032106,-0.514227,0.00543594,-0.0951886,-1.52361,0.0160933,0.0135303,2.51521,5,0.1,7,0.4,-2.60445,-0.454996,0.535837,0.255996,0.0818074,0.0172138,0.755429,0.241429,0.050813,0.0155696,0.62606,5,0.1,8,0.4,0.521753,3.77416,0.62524,-0.148796,-0.493246,-0.00457019,-0.440836,-1.46151,-0.0135303,0.0101648,2.51717,5,0.1,9,0.4,3.8645,-2.30441,0.536831,-0.0452161,0.513202,0.00689179,-0.133872,1.52051,0.0204444,0.0224443,2.51483,5,0.1,10,0.4,-3.2356,3.20577,0.650297,0.385052,-0.21612,-0.0134945,1.13642,-0.63777,-0.0398457,0.0109317,1.68467,5,0.1,11,0.4,4.38198,-2.0432,0.670886,-0.108075,0.503725,-0.00708103,-0.320196,1.49238,-0.0209808,0.0155072,2.51182,5,0.1,12,0.4,1.79099,2.74511,0.608324,-0.445253,0.259262,-0.00165552,-1.31923,0.768304,-0.00491738,0.0106746,2.51008,5,0.1,13,0.4,-1.39467,-3.2467,0.54809,0.164592,0.48818,0.00780225,0.487685,1.44637,0.0230968,0.0296553,2.5102,5,0.1,14,0.4,0.375778,-1.45892,0.65141,0.256976,0.0665575,-0.0325754,0.758395,0.196457,-0.0961125,0.0084782,0.617456,5,0.1,15,0.4,-3.61066,-2.38711,0.501797,0.0395298,0.513691,-0.0037998,0.116944,1.52194,-0.00399351,0.015142,2.51517,5,0.1,16,0.4,2.09114,-1.34562,0.63441,-0.16914,0.48666,-0.00558794,-0.501156,1.4419,-0.0165701,0.0268937,2.51007,5,0.1,17,0.4,2.0476,-0.266518,0.506795,-0.264603,0.441907,-0.0111803,-0.784159,1.30932,-0.0246167,0.0184881,2.56,5,0.1,18,0.4,-1.28555,-1.45774,0.679764,-0.431976,0.280425,0.0150591,-1.27995,0.830948,0.0445843,0.0124238,2.51008,5,0.1,19,0.4,-4.32003,-0.0127705,0.644479,0.313842,0.365518,-0.0119328,0.926256,1.07871,-0.0351965,0.0164992,2.0047,5,0.1,20,0.4,0.846978,2.73778,0.564036,-0.106481,-0.130844,0.00964999,-0.314236,-0.386,0.028491,0.0103593,0.246425,5,0.1,21,0.4,3.61757,0.371222,0.544473,0.0770032,-0.508968,0.0222415,0.228047,-1.50801,0.0658929,0.00979623,2.51329,5,0.1,22,0.4,-1.28267,0.0678768,0.561441,-0.0642031,-0.511038,-0.0138327,-0.190198,-1.51414,-0.0409782,0.0102092,2.514,5,0.1,23,0.4,-4.2327,-2.70886,0.563037,0.12424,0.500011,0.00423938,0.368118,1.48165,0.0125766,0.0152172,2.51104,5,0.1,24,0.4,-3.23367,-1.45082,0.658179,0.512183,-0.0553071,-0.00921488,1.51742,-0.163853,-0.0272989,0.0123411,2.51443,5,0.1,25,0.4,-3.44665,-4.1915,0.549177,0.515151,0.00890493,0.00266284,1.52647,0.0264645,0.00789762,0.00872388,2.51563,5,0.1,26,0.4,2.3741,3.35133,0.543081,-0.461709,-0.22828,0.0136584,-1.36805,-0.676274,0.0405014,0.0116051,2.51047,5,0.1,27,0.4,-0.928924,0.894679,0.511836,0.108969,-0.224745,0.0439033,0.321597,-0.66328,0.12958,0.00932754,0.555188,5,0.1,28,0.4,1.64356,0.828993,0.542488,-0.0209361,-0.51475,0.00838786,-0.0619888,-1.52513,0.0248253,0.0112605,2.52747,5,0.1,29,0.4,3.41746,3.37727,0.621508,-0.232685,-0.141412,-0.00576526,-0.686765,-0.417352,-0.0170469,0.0158408,0.640252,5,0.1,30,0.4,-1.20846,-2.14009,0.587126,0.324133,0.0912249,0.00345111,0.956595,0.269055,0.0101626,0.0091834,0.978865,5,0.1,31,0.4,-0.785549,-3.39342,0.634714,-0.231861,0.427371,-0.00931323,-0.684291,1.26135,-0.0275075,0.0191639,2.09161,5,0.1,32,0.4,-0.117102,4.2279,0.521685,0.496503,-0.137079,-0.0126377,1.47108,-0.406265,-0.0374615,0.0166081,2.51052,5,0.1,33,0.4,-3.49887,-3.53531,0.612425,0.165379,-0.149977,-0.0228286,0.488162,-0.442624,-0.0673831,0.010437,0.434765,5,0.1,34,0.4,-1.38768,1.89688,0.611887,0.145128,-0.0662178,-0.00319034,0.492275,-0.195444,-0.00941753,0.0135807,2.41739,5,0.1,35,0.4,4.25412,-0.496058,0.616204,-0.202096,0.44915,-0.0149578,-0.596285,1.32553,-0.0441074,0.0143813,2.09682,5,0.1,36,0.4,-0.469428,1.50228,0.580468,0.28684,0.240776,0.00524074,0.84652,0.710607,0.0154376,0.0256742,1.24524,5,0.1,37,0.4,-2.40627,3.31763,0.698356,0.162613,-0.286347,0.0138536,0.479937,-0.845075,0.040859,0.0116632,0.937793,5,0.1,38,0.4,3.55242,-1.27038,0.636464,-0.0143826,0.515011,-0.00511557,-0.0427961,1.52594,-0.0151396,0.0254533,2.51666,5,0.1,39,0.4,2.27842,-2.62248,0.546046,-0.289249,0.220603,0.0144705,-0.853658,0.651121,0.0427067,0.019755,1.14415,5,0.1
0,0.5,0.792357,-0.958041,0.502739,0.146598,0.344522,-0.00760797,0.326097,0.766356,0.00275671,0.0259692,0.719267,5,0.1,1,0.5,1.92976,-3.53675,0.544921,-0.664509,-0.0373781,0.0144076,-1.41149,-0.0852942,0.0328869,0.0153226,2.51528,5,0.1,2,0.5,0.909484,-4.12551,0.606943,0.158419,0.35086,-0.00250079,0.35242,0.780344,-0.00556558,0.028869,0.757522,5,0.1,3,0.5,0.11231,3.06259,0.502393,-0.20222,0.355086,-0.00664759,-0.449819,0.789866,0.00241399,0.00995643,0.856235,5,0.1,4,0.5,-2.32861,4.18632,0.510813,0.66401,-0.0450671,-0.0189142,1.41233,-0.102937,-0.0249371,0.0334019,2.51528,5,0.1,5,0.5,3.89094,4.13782,0.609318,-0.373287,-0.300769,-0.00335025,-0.547096,-0.527471,-0.00746921,0.0184753,0.631903,5,0.1,6,0.5,-1.27892,3.69196,0.53723,-0.0419009,-0.664406,0.00709193,-0.0956655,-1.41166,0.0161715,0.0135303,2.51521,5,0.1,7,0.5,-2.575,-0.445586,0.537817,0.332643,0.106302,0.0223686,0.739917,0.236457,0.0497587,0.0155696,0.62606,5,0.1,8,0.5,0.504829,3.71744,0.624731,-0.187863,-0.640314,-0.00547757,-0.331182,-1.40987,-0.00498071,0.0101648,2.51717,5,0.1,9,0.5,3.85929,-2.2455,0.537625,-0.0589948,0.663336,0.00899481,-0.134602,1.41352,0.0205375,0.0224443,2.51483,5,0.1,10,0.5,-3.19131,3.18091,0.648744,0.500352,-0.28083,-0.0175363,1.11301,-0.624657,-0.0390075,0.0109317,1.68467,5,0.1,11,0.5,4.36953,-1.98528,0.67007,-0.141025,0.653476,-0.00923993,-0.321835,1.43079,-0.0210814,0.0155072,2.51182,5,0.1,12,0.5,1.73968,2.77499,0.608133,-0.581006,0.33832,-0.00216123,-1.32602,0.772208,-0.00493228,0.0106746,2.51008,5,0.1,13,0.5,-1.37573,-3.19044,0.548988,0.214021,0.637266,0.010144,0.476755,1.45826,0.0225976,0.0296553,2.5102,5,0.1,14,0.5,0.405337,-1.45126,0.647663,0.333922,0.0864899,-0.0423274,0.74278,0.192411,-0.0941418,0.0084782,0.617456,5,0.1,15,0.5,-3.60611,-2.32814,0.501407,0.0515681,0.663843,-0.00391109,0.117615,1.41264,0.00141934,0.015142,2.51517,5,0.1,16,0.5,2.07165,-1.28954,0.633766,-0.22071,0.635036,-0.00729291,-0.503719,1.44931,-0.0166483,0.0268937,2.51007,5,0.1,17,0.5,2.01743,-0.216178,0.505587,-0.33624,0.560066,-0.0126554,-0.627227,1.0214,-0.00581145,0.0184881,2.56,5,0.1,18,0.5,-1.33533,-1.42542,0.6815,-0.563685,0.365931,0.0196481,-1.28651,0.835195,0.0448301,0.0124238,2.51008,5,0.1,19,0.5,-4.28393,0.0292734,0.643107,0.407816,0.474964,-0.015504,0.907153,1.05652,-0.0344776,0.0164992,2.0047,5,0.1,20,0.5,0.83473,2.72273,0.565146,-0.138363,-0.170009,0.0125399,-0.307761,-0.378087,0.027895,0.0103593,0.246425,5,0.1,21,0.5,3.62644,0.312752,0.547036,0.100473,-0.658935,0.0290223,0.229284,-1.42126,0.0662394,0.00979623,2.51329,5,0.1,22,0.5,-1.29006,0.00918799,0.559847,-0.0837756,-0.661087,-0.0180492,-0.191189,-1.41748,-0.0411868,0.0102092,2.514,5,0.1,23,0.5,-4.21838,-2.65134,0.563525,0.162115,0.64963,0.00553317,0.369936,1.4376,0.0126362,0.0152172,2.51104,5,0.1,24,0.5,-3.17486,-1.45719,0.657117,0.662271,-0.0721687,-0.0120241,1.41539,-0.164695,-0.0274405,0.0123411,2.51443,5,0.1,25,0.5,-3.38753,-4.19048,0.549484,0.665374,0.0116296,0.00347551,1.41002,0.0266135,0.00794232,0.00872388,2.51563,5,0.1,26,0.5,2.32095,3.32505,0.544654,-0.600959,-0.297162,0.0177888,-1.34796,-0.66717,0.0400469,0.0116051,2.51047,5,0.1,27,0.5,-0.91639,0.868827,0.516886,0.141598,-0.292041,0.0570509,0.314984,-0.649627,0.126917,0.00932754,0.555188,5,0.1,28,0.5,1.64096,0.770021,0.543464,-0.0326807,-0.66187,0.0112199,-0.157692,-1.35837,0.0298806,0.0112605,2.52747,5,0.1,29,0.5,3.3907,3.36101,0.620845,-0.302359,-0.183758,-0.00749454,-0.672579,-0.408784,-0.0166893,0.0158408,0.640252,5,0.1,30,0.5,-1.17118,-2.1296,0.587523,0.421188,0.118526,0.00448283,0.936911,0.263587,0.00996888,0.0091834,0.978865,5,0.1,31,0.5,-0.811639,-3.34459,0.633675,-0.284815,0.54597,-0.0111798,-0.37735,1.0687,-0.0105128,0.0191639,2.09161,5,0.1,32,0.5,-0.0599541,4.21211,0.520229,0.64597,-0.178884,-0.0164918,1.44398,-0.408351,-0.0376441,0.0166081,2.51052,5,0.1,33,0.5,-3.47985,-3.55256,0.609799,0.214906,-0.194884,-0.029665,0.478104,-0.43349,-0.0659935,0.010437,0.434765,5,0.1,34,0.5,-1.36951,1.88895,0.61152,0.227586,-0.0949375,-0.00414569,1.06104,-0.349462,-0.00921637,0.0135807,2.41739,5,0.1,35,0.5,4.23095,-0.444429,0.614486,-0.260404,0.582645,-0.0193772,-0.545055,1.2806,-0.0422038,0.0143813,2.09682,5,0.1,36,0.5,-0.436434,1.5294,0.581071,0.372727,0.296676,0.00680732,0.829097,0.408605,0.0151284,0.0256742,1.24524,5,0.1,37,0.5,-2.38756,3.2847,0.699949,0.211306,-0.372088,0.0179996,0.470042,-0.827715,0.0400208,0.0116632,0.937793,5,0.1,38,0.5,3.55076,-1.21127,0.63596,-0.0187796,0.665221,-0.00425372,-0.0429004,1.41025,0.0278056,0.0254533,2.51666,5,0.1,39,0.5,2.24515,-2.5971,0.547711,-0.375861,0.286663,0.0188037,-0.836074,0.63771,0.0418313,0.019755,1.14415,5,0.1
0,0.6,0.808524,-0.920046,0.502004,0.175215,0.411774,-0.00696778,0.234574,0.551313,0.00950694,0.027297,0.536109,5,0.1,1,0.6,1.85689,-3.54089,0.546515,-0.785369,-0.0449359,0.0173211,-0.961423,-0.0627041,0.0242293,0.0109996,2.33323,5,0.1,2,0.6,0.926955,-4.08681,0.606667,0.189345,0.419343,-0.00298917,0.253528,0.561237,-0.00399351,0.0227903,0.762921,5,0.1,3,0.6,0.0900082,3.10175,0.501752,-0.241693,0.424403,-0.00608712,-0.323594,0.568271,0.00825524,0.0149928,0.638079,5,0.1,4,0.6,-2.25578,4.18133,0.50883,0.785029,-0.0541925,-0.0204369,0.963569,-0.0758171,-0.00584126,0.0334379,2.22398,5,0.1,5,0.6,3.85123,4.10538,0.608948,-0.416929,-0.344861,-0.00400543,-0.309467,-0.337601,-0.00536442,0.0182392,0.446128,5,0.1,6,0.6,-1.28355,3.61909,0.538014,-0.0503778,-0.785297,0.00852495,-0.0703931,-0.9619,0.0119209,0.0176198,2.33293,5,0.1,7,0.6,-2.53832,-0.433862,0.540284,0.397575,0.127053,0.0267342,0.532389,0.170097,0.0357926,0.0227562,0.46609,5,0.1,8,0.6,0.48463,3.64692,0.62417,-0.213534,-0.763327,-0.00563562,-0.176638,-1.0016,0.00149012,0.0255945,2.29937,5,0.1,9,0.6,3.85276,-2.17273,0.53862,-0.0709295,0.78457,0.0108153,-0.0988245,0.966311,0.01508,0.0413623,2.33106,5,0.1,10,0.6,-3.13612,3.14994,0.64681,0.598019,-0.335646,-0.02096,0.800848,-0.449419,-0.0280142,0.032705,1.25419,5,0.1,11,0.6,4.35393,-1.91336,0.669047,-0.169551,0.777847,-0.0111088,-0.236511,1.00809,-0.015527,0.0302866,2.31349,5,0.1,12,0.6,1.67541,2.81241,0.607894,-0.698534,0.40676,-0.00259876,-0.975132,0.567913,-0.00360608,0.0242023,2.22549,5,0.1,13,0.6,-1.35213,-3.11992,0.550106,0.255835,0.766665,0.0121251,0.342548,1.07503,0.0162721,0.0615023,2.28972,5,0.1,14,0.6,0.442163,-1.44172,0.642995,0.399105,0.103375,-0.0505894,0.534326,0.138402,-0.0677109,0.0323307,0.459679,5,0.1,15,0.6,-3.60041,-2.25532,0.501029,0.0619948,0.784916,-0.00358075,0.0865459,0.964165,0.00485778,0.042411,2.33222,5,0.1,16,0.6,2.04723,-1.21929,0.632959,-0.26536,0.763491,-0.00876933,-0.370383,1.06585,-0.0122488,0.057178,2.28336,5,0.1,17,0.6,1.98107,-0.155757,0.504317,-0.386536,0.640903,-0.0125185,-0.365078,0.574969,0.0077486,0.0582242,2.66768,5,0.1,18,0.6,-1.39768,-1.38494,0.683673,-0.677711,0.439954,0.0236228,-0.946105,0.614285,0.0329614,0.0333467,2.25509,5,0.1,19,0.6,-4.23895,0.0816539,0.641397,0.487423,0.567678,-0.0185296,0.652313,0.760031,-0.0247955,0.0386859,1.49244,5,0.1,20,0.6,0.819471,2.70398,0.566528,-0.16537,-0.203192,0.0149876,-0.221401,-0.271916,0.020057,0.0171485,0.183457,5,0.1,21,0.6,3.63756,0.240362,0.550247,0.120795,-0.781569,0.034894,0.168681,-0.984997,0.0487268,0.0197116,2.32303,5,0.1,22,0.6,-1.29933,-0.0633881,0.557851,-0.100723,-0.783036,-0.0216991,-0.140548,-0.975895,-0.030309,0.0171853,2.32692,5,0.1,23,0.6,-4.20045,-2.57975,0.564137,0.194907,0.77523,0.00665337,0.271797,1.02437,0.00929832,0.0157522,2.30698,5,0.1,24,0.6,-3.10218,-1.46518,0.655787,0.783837,-0.0867665,-0.0144556,0.97096,-0.121176,-0.020206,0.0148632,2.32911,5,0.1,25,0.6,-3.31458,-4.18919,0.549868,0.785959,0.0139952,0.00417978,0.957727,0.0195503,0.00584126,0.0159807,2.33485,5,0.1,26,0.6,2.25461,3.29225,0.546618,-0.719541,-0.355881,0.0213161,-0.975013,-0.483036,0.0290871,0.0141924,2.24156,5,0.1,27,0.6,-0.900774,0.83662,0.523178,0.169238,-0.349049,0.0681892,0.226617,-0.46733,0.0912845,0.0130562,0.413324,5,0.1,28,0.6,1.63685,0.697713,0.544731,-0.0497937,-0.776522,0.0140309,-0.173032,-0.894547,0.0249147,0.022666,2.38441,5,0.1,29,0.6,3.35735,3.34074,0.620018,-0.361377,-0.219631,-0.00895858,-0.483871,-0.29397,-0.0120103,0.0152649,0.486335,5,0.1,30,0.6,-1.12473,-2.11653,0.588017,0.503403,0.141656,0.00535697,0.674069,0.189662,0.00721216,0.01014,0.728742,5,0.1,31,0.6,-0.84152,-3.28525,0.632528,-0.308038,0.634122,-0.0115469,-0.0916421,0.66638,0.0025034,0.0129199,1.72051,5,0.1,32,0.6,0.0113197,4.19232,0.518405,0.772731,-0.215077,-0.0198275,1.03984,-0.300169,-0.0276566,0.0115413,2.30101,5,0.1,33,0.6,-3.45615,-3.57406,0.606527,0.25686,-0.232923,-0.0354558,0.343919,-0.311852,-0.0474751,0.0113991,0.323668,5,0.1,34,0.6,-1.34116,1.87766,0.611063,0.340471,-0.130939,-0.00495464,1.12396,-0.348508,-0.00661612,0.00983448,0.232425,5,0.1,35,0.6,4.20244,-0.380265,0.612354,-0.306928,0.694427,-0.0230476,-0.368118,0.910401,-0.0297725,0.0110913,1.56655,5,0.1,36,0.6,-0.395329,1.56063,0.581821,0.445484,0.322965,0.00813454,0.596449,0.12064,0.0109076,0.0244336,1.02985,5,0.1,37,0.6,-2.36426,3.24366,0.701934,0.252557,-0.444722,0.0215128,0.338078,-0.59557,0.028789,0.0118674,0.698165,5,0.1,38,0.6,3.54869,-1.13833,0.635714,-0.0225842,0.785854,-0.000375509,-0.031352,0.958383,0.0461936,0.0265746,2.33501,5,0.1,39,0.6,2.2037,-2.56549,0.549785,-0.449234,0.342619,0.0224739,-0.601411,0.458837,0.0301003,0.0230341,0.851789,5,0.1
0,0.7,0.827198,-0.876159,0.501362,0.197735,0.464703,-0.00581471,0.202954,0.477001,0.013072,0.027297,0.536109,5,0.1,1,0.7,1.77461,-3.5457,0.54837,-0.850323,-0.0512291,0.0197519,-0.364564,-0.0592023,0.0228584,0.0109996,2.33323,5,0.1,2,0.7,0.947136,-4.04197,0.606349,0.213684,0.477669,-0.00337223,0.219345,0.564575,-0.00345334,0.0227903,0.762921,5,0.1,3,0.7,0.0642487,3.14698,0.50119,-0.272759,0.478958,-0.00508279,-0.27997,0.491649,0.0114068,0.0149928,0.638079,5,0.1,4,0.7,-2.17352,4.17553,0.506796,0.850191,-0.0617184,-0.019882,0.366583,-0.0700653,0.0154637,0.0334379,2.22398,5,0.1,5,0.7,3.8081,4.06928,0.608521,-0.44416,-0.376029,-0.00452055,-0.215828,-0.266105,-0.00463799,0.0182392,0.446128,5,0.1,6,0.7,-1.28895,3.53681,0.538928,-0.0576396,-0.850298,0.00975421,-0.069961,-0.364989,0.0118427,0.0176198,2.33293,5,0.1,7,0.7,-2.49594,-0.420321,0.543133,0.448686,0.143382,0.03017,0.46061,0.147166,0.0309572,0.0227562,0.46609,5,0.1,8,0.7,0.462232,3.56642,0.623602,-0.235404,-0.838147,-0.0058054,-0.236705,-0.493243,-0.00398979,0.0255945,2.29937,5,0.1,9,0.7,3.84517,-2.0905,0.539778,-0.0808533,0.850043,0.0123289,-0.0933856,0.36934,0.0142343,0.0413623,2.33106,5,0.1,10,0.7,-3.07239,3.11417,0.644577,0.6749,-0.378792,-0.0236496,0.692815,-0.388846,-0.0242442,0.032705,1.25419,5,0.1,11,0.7,4.33577,-1.83158,0.667858,-0.193293,0.847713,-0.012667,-0.223368,0.40932,-0.0146516,0.0302866,2.31349,5,0.1,12,0.7,1.60089,2.85596,0.607616,-0.788484,0.463766,-0.00296086,-0.778787,0.536248,-0.00340492,0.0242023,2.22549,5,0.1,13,0.7,-1.32482,-3.0389,0.551401,0.289933,0.843775,0.0137447,0.317924,0.47645,0.0150986,0.0615023,2.28972,5,0.1,14,0.7,0.484699,-1.4307,0.637603,0.450402,0.116663,-0.0570904,0.462292,0.119746,-0.0585914,0.0323307,0.459679,5,0.1,15,0.7,-3.59377,-2.17307,0.500699,0.0706818,0.850165,-0.00298945,0.0817031,0.367284,0.0067167,0.042411,2.33222,5,0.1,16,0.7,2.01882,-1.13857,0.63202,-0.302541,0.841249,-0.00999887,-0.34979,0.49375,-0.0115708,0.057178,2.28336,5,0.1,17,0.7,1.94185,-0.0893475,0.503122,-0.38664,0.681507,-0.0112154,0.310197,0.229062,0.0174046,0.0582242,2.66768,5,0.1,18,0.7,-1.46943,-1.33784,0.686202,-0.750142,0.501615,0.0269324,-0.512332,0.580035,0.031136,0.0333467,2.25509,5,0.1,19,0.7,-4.187,0.142156,0.639422,0.55005,0.640644,-0.0209102,0.564396,0.657574,-0.0214502,0.0386859,1.49244,5,0.1,20,0.7,0.801846,2.68232,0.568126,-0.186625,-0.229299,0.0169127,-0.191547,-0.235304,0.0173487,0.0171485,0.183457,5,0.1,21,0.7,3.65049,0.158333,0.553983,0.137725,-0.849004,0.0397842,0.159264,-0.387176,0.0459999,0.0197116,2.32303,5,0.1,22,0.7,-1.31012,-0.145515,0.555527,-0.11483,-0.849513,-0.0247404,-0.132695,-0.378448,-0.0286028,0.0171853,2.32692,5,0.1,23,0.7,-4.17958,-2.49815,0.56485,0.222192,0.846806,0.00758646,0.256628,0.424862,0.00877306,0.0157522,2.30698,5,0.1,24,0.7,-3.02,-1.47447,0.654239,0.849792,-0.0989264,-0.0164829,0.373676,-0.114359,-0.0190586,0.0148632,2.32911,5,0.1,25,0.7,-3.23226,-4.18769,0.550316,0.850527,0.0159591,0.00476614,0.36107,0.0184774,0.00551343,0.0159807,2.33485,5,0.1,26,0.7,2.17818,3.25408,0.548896,-0.804267,-0.408208,0.0242054,-0.687674,-0.52397,0.0269003,0.0141924,2.24156,5,0.1,27,0.7,-0.882736,0.799419,0.530446,0.190994,-0.393914,0.0769532,0.196062,-0.404332,0.0789873,0.0130562,0.413324,5,0.1,28,0.7,1.63046,0.61631,0.5463,-0.0823466,-0.844063,0.0176696,-0.436462,-0.447642,0.0439137,0.022666,2.38441,5,0.1,29,0.7,3.31926,3.31734,0.619063,-0.396127,-0.247856,-0.0101113,-0.220776,-0.254378,-0.0103898,0.0152649,0.486335,5,0.1,30,0.7,-1.07108,-2.10143,0.588588,0.568114,0.159866,0.00604913,0.583179,0.164121,0.00623614,0.01014,0.728742,5,0.1,31,0.7,-0.872376,-3.21918,0.631422,-0.305285,0.680281,-0.0102581,0.136193,0.254065,0.021372,0.0129199,1.72051,5,0.1,32,0.7,0.092755,4.16929,0.516282,0.845937,-0.245211,-0.0226036,0.439749,-0.28348,-0.0261143,0.0115413,2.30101,5,0.1,33,0.7,-3.42877,-3.59888,0.602749,0.289877,-0.26286,-0.0400134,0.297561,-0.2698,-0.0410713,0.0113991,0.323668,5,0.1,34,0.7,-1.3022,1.86303,0.610535,0.431677,-0.159448,-0.0055898,0.696652,-0.218995,-0.00572205,0.00983448,0.232425,5,0.1,35,0.7,4.16989,-0.306363,0.609902,-0.343491,0.7814,-0.0259376,-0.338912,0.779322,-0.0262894,0.0110913,1.56655,5,0.1,36,0.7,-0.348323,1.59285,0.582688,0.489581,0.315709,0.00918144,0.293462,-0.233307,0.00943616,0.0244336,1.02985,5,0.1,37,0.7,-2.33734,3.19626,0.704227,0.285014,-0.501898,0.024277,0.292525,-0.515252,0.0249147,0.0118674,0.698165,5,0.1,38,0.7,3.54627,-1.05602,0.635941,-0.0257306,0.850491,0.00518076,-0.0295937,0.361685,0.0613779,0.0265746,2.33501,5,0.1,39,0.7,2.15582,-2.52897,0.55218,-0.506972,0.386666,0.0253635,-0.520349,0.396922,0.0260398,0.0230341,0.851789,5,0.1
0,0.8,0.847848,-0.82763,0.500849,0.213647,0.502102,-0.00444055,0.106603,0.250489,0.0140369,0.0204105,0.37926,5,0.1,1,0.8,1.68849,-3.55109,0.550446,-0.866026,-0.0560999,0.0216335,0,-0.0356436,0.0137389,0.00856454,2.43455,5,0.1,2,0.8,0.969451,-3.99164,0.605996,0.23088,0.525343,-0.00364333,0.115186,0.36025,-0.00178814,0.0242288,0.611778,5,0.1,3,0.8,0.035764,3.197,0.500742,-0.29471,0.517505,-0.00388324,-0.147019,0.258207,0.0123084,0.0191377,0.451253,5,0.1,4,0.8,-2.0874,4.16905,0.50491,0.866026,-0.0674248,-0.0176191,0,-0.0412464,0.0285804,0.034173,1.72246,5,0.1,5,0.8,3.76289,4.0306,0.608049,-0.456917,-0.394809,-0.0048846,-0.0268221,-0.0963211,-0.00241399,0.0157964,0.302064,5,0.1,6,0.8,-1.29503,3.45069,0.539957,-0.0635386,-0.866026,0.0107527,-0.0445843,0,0.00751019,0.0137013,2.26873,5,0.1,7,0.8,-2.44908,-0.405348,0.546284,0.4848,0.154921,0.0325978,0.241756,0.0772625,0.0162125,0.0168731,0.329082,5,0.1,8,0.8,0.437571,3.48094,0.622999,-0.256733,-0.863898,-0.00627488,-0.172511,-0.0425577,-0.00473857,0.0100365,2.21822,5,0.1,9,0.8,3.83667,-2.00438,0.541074,-0.0885427,0.866026,0.0135005,-0.0560284,0,0.00855327,0.024259,2.26573,5,0.1,10,0.8,-3.00191,3.07461,0.642107,0.729215,-0.409275,-0.0255495,0.363946,-0.204206,-0.0127554,0.0103573,0.885515,5,0.1,11,0.8,4.31545,-1.74555,0.666526,-0.211692,0.866026,-0.013873,-0.133991,0,-0.00879169,0.0162063,2.23758,5,0.1,12,0.8,1.51876,2.90473,0.607305,-0.847214,0.507927,-0.003241,-0.370145,0.321984,-0.00205636,0.0123136,2.10417,5,0.1,13,0.8,-1.29442,-2.95301,0.552842,0.315788,0.866026,0.0149727,0.184357,0,0.00873208,0.0292813,2.19835,5,0.1,14,0.8,0.531735,-1.41852,0.631641,0.486647,0.126052,-0.0616834,0.24274,0.0628233,-0.0307858,0.00887969,0.324558,5,0.1,15,0.8,-3.58634,-2.08695,0.500435,0.0774145,0.866026,-0.00228137,0.048995,0,0.00718236,0.0187458,2.26749,5,0.1,16,0.8,1.98701,-1.05284,0.630969,-0.331345,0.865322,-0.0109509,-0.210106,0.0140667,-0.00694394,0.0271127,2.18997,5,0.1,17,0.8,1.90549,-0.020673,0.502098,-0.334141,0.685698,-0.00920147,0.696182,-0.147384,0.0221431,0.0198621,2.39649,5,0.1,18,0.8,-1.54635,-1.28509,0.689034,-0.781599,0.549382,0.0294983,-0.121236,0.348389,0.0186861,0.014793,2.1881,5,0.1,19,0.8,-4.12956,0.20906,0.637239,0.594294,0.692199,-0.0225931,0.296593,0.345312,-0.0112355,0.01647,1.05375,5,0.1,20,0.8,0.782357,2.65838,0.569892,-0.201643,-0.247747,0.0182718,-0.100613,-0.123501,0.00914931,0.0128688,0.221521,5,0.1,21,0.8,3.66497,0.0722567,0.558166,0.150836,-0.866025,0.0435725,0.0956059,1.19209e-06,0.027597,0.0108237,2.28018,5,0.1,22,0.8,-1.32219,-0.23161,0.552926,-0.12576,-0.866025,-0.0270948,-0.0795722,-7.15256e-06,-0.0171959,0.0100724,2.25919,5,0.1,23,0.8,-4.15622,-2.41215,0.565647,0.24333,0.866026,0.00830889,0.154018,0,0.00524521,0.01408,2.22691,5,0.1,24,0.8,-2.93389,-1.48487,0.652506,0.866026,-0.108343,-0.0180528,0,-0.0686049,-0.0114441,0.0110364,2.26264,5,0.1,25,0.8,-3.14613,-4.18601,0.550817,0.866026,0.017488,0.00521988,0,0.0109673,0.00333786,0.00912029,2.27166,5,0.1,26,0.8,2.09499,3.21083,0.551435,-0.85265,-0.453919,0.0263944,-0.267506,-0.361919,0.0156164,0.0108378,1.88012,5,0.1,27,0.8,-0.86279,0.758281,0.538482,0.206365,-0.425614,0.083147,0.102967,-0.212312,0.041455,0.00936337,0.291829,5,0.1,28,0.8,1.61989,0.530431,0.548291,-0.129756,-0.866025,0.0221238,-0.480056,-1.43051e-05,0.0422597,0.0138016,2.27511,5,0.1,29,0.8,3.27892,3.29145,0.618007,-0.407076,-0.267804,-0.0109255,-0.00429153,-0.133514,-0.00545382,0.0163517,0.364987,5,0.1,30,0.8,-1.01175,-2.08474,0.58922,0.613834,0.172728,0.00653863,0.306249,0.0863075,0.00327826,0.00897624,0.514527,5,0.1,31,0.8,-0.901921,-3.15058,0.630521,-0.282829,0.684881,-0.00761449,0.303179,-0.15986,0.0299811,0.0165076,1.43396,5,0.1,32,0.8,0.178722,4.14351,0.513905,0.866025,-0.268543,-0.0247523,0,-0.170469,-0.0157058,0.0212345,2.21711,5,0.1,33,0.8,-3.3985,-3.62633,0.59857,0.313205,-0.284016,-0.0432342,0.156283,-0.141501,-0.0215471,0.0128388,0.228524,5,0.1,34,0.8,-1.25627,1.84622,0.609951,0.479582,-0.1744,-0.00603944,0.262618,-0.0793934,-0.00298023,0.0232217,0.123,5,0.1,35,0.8,4.13406,-0.224875,0.607194,-0.37061,0.842011,-0.0280127,-0.18692,0.399821,-0.0140667,0.0256732,1.12577,5,0.1,36,0.8,-0.298352,1.62289,0.583647,0.505441,0.282022,0.00992119,0.0283718,-0.415564,0.00494719,0.0438398,0.862877,5,0.1,37,0.8,-2.30758,3.14385,0.706762,0.307947,-0.542289,0.026229,0.153542,-0.270724,0.013113,0.027245,0.49294,5,0.1,38,0.8,3.54356,-0.969889,0.636767,-0.0281692,0.866026,0.0112787,-0.017643,0,0.0579059,0.0395444,2.32431,5,0.1,39,0.8,2.10288,-2.48859,0.554829,-0.547767,0.417787,0.0274047,-0.273228,0.208497,0.0136793,0.0331434,0.601404,5,0.1
0,0.9,0.869721,-0.776225,0.500474,0.223306,0.524801,-0.00307532,0.0763535,0.179436,0.0129975,0.0204105,0.37926,5,0.1,1,0.9,1.60211,-3.55609,0.552625,-0.858631,-0.0373248,0.0214419,0.168025,0.365034,-0.0154488,0.00856454,2.43455,5,0.1,2,0.9,0.992535,-3.93773,0.605654,0.225597,0.54855,-0.0029467,-0.196982,0.0985712,0.0139922,0.0242288,0.611778,5,0.1,3,0.9,0.00559179,3.24998,0.500414,-0.308032,0.540903,-0.00268733,-0.105308,0.184938,0.0113733,0.0191377,0.451253,5,0.1,4,0.9,-2.0008,4.1621,0.503304,0.866026,-0.0713035,-0.0143937,0,-0.0327229,0.0348799,0.034173,1.72246,5,0.1,5,0.9,3.71711,3.99068,0.607549,-0.457622,-0.402674,-0.00510365,0.0285059,-0.0451356,-0.00173599,0.0157964,0.302064,5,0.1,6,0.9,-1.30161,3.36409,0.541071,-0.0680026,-0.866026,0.0115051,-0.040561,0,0.00684336,0.0137013,2.26873,5,0.1,7,0.9,-2.39945,-0.389487,0.549621,0.506708,0.161922,0.034067,0.173181,0.0553448,0.011608,0.0168731,0.329082,5,0.1,8,0.9,0.410933,3.39442,0.622341,-0.276495,-0.865893,-0.00691498,-0.200752,-0.00531971,-0.00727549,0.0100365,2.21822,5,0.1,9,0.9,3.82752,-1.91778,0.542469,-0.0943344,0.866026,0.0143839,-0.0538379,0,0.00821054,0.024259,2.26573,5,0.1,10,0.9,-2.92725,3.03271,0.639491,0.762191,-0.427779,-0.0267052,0.260651,-0.146285,-0.00913069,0.0103573,0.885515,5,0.1,11,0.9,4.29358,-1.65895,0.665093,-0.22555,0.866026,-0.0147816,-0.128865,0,-0.00844896,0.0162063,2.23758,5,0.1,12,0.9,1.4329,2.9572,0.60697,-0.864774,0.541266,-0.00345381,-0.048548,0.310421,-0.00197813,0.0123136,2.10417,5,0.1,13,0.9,-1.26188,-2.86641,0.554385,0.33483,0.866026,0.015875,0.175856,0,0.0083372,0.0292813,2.19835,5,0.1,14,0.9,0.581557,-1.40562,0.625326,0.508643,0.131745,-0.0644731,0.17387,0.0450015,-0.0220574,0.00887969,0.324558,5,0.1,15,0.9,-3.57834,-2.00035,0.500243,0.0824749,0.866026,-0.00158064,0.0469983,0,0.00669062,0.0187458,2.26749,5,0.1,16,0.9,1.95278,-0.966269,0.629837,-0.35307,0.865982,-0.0116688,-0.202045,0.00175461,-0.00667945,0.0271127,2.18997,5,0.1,17,0.9,1.87536,0.0479393,0.50129,-0.270561,0.692508,-0.00694105,0.574328,0.211941,0.0225939,0.0198621,2.39649,5,0.1,18,0.9,-1.62418,-1.22834,0.692081,-0.769374,0.58541,0.0314317,0.236347,0.335105,0.0179894,0.014793,2.1881,5,0.1,19,0.9,-4.06872,0.279927,0.634926,0.621168,0.723489,-0.0236116,0.212401,0.247343,-0.00804663,0.01647,1.05375,5,0.1,20,0.9,0.761713,2.63286,0.571763,-0.210759,-0.263384,0.0191004,-0.0720583,-0.167519,0.00654534,0.0128688,0.221521,5,0.1,21,0.9,3.68094,-0.01434,0.562636,0.171638,-0.865735,0.0455464,0.286028,0.0116207,0.0108965,0.0108237,2.28018,5,0.1,22,0.9,-1.33518,-0.318212,0.550127,-0.133981,-0.866026,-0.0288699,-0.0763834,2.68221e-06,-0.0164807,0.0100724,2.25919,5,0.1,23,0.9,-4.13108,-2.32555,0.566506,0.259256,0.866026,0.00885166,0.148118,0,0.00505149,0.01408,2.22691,5,0.1,24,0.9,-2.84729,-1.49606,0.650641,0.866026,-0.11542,-0.0192329,0,-0.065662,-0.0109524,0.0110364,2.26264,5,0.1,25,0.9,-3.05953,-4.18421,0.551356,0.866026,0.0186257,0.00556419,0,0.0106394,0.00319257,0.00912029,2.27166,5,0.1,26,0.9,2.0089,3.16356,0.554153,-0.865065,-0.491379,0.02793,-0.0284463,-0.353634,0.0135303,0.0108378,1.88012,5,0.1,27,0.9,-0.841663,0.714707,0.546994,0.215695,-0.444853,0.0869039,0.0737533,-0.152074,0.0297055,0.00936337,0.291829,5,0.1,28,0.9,1.60489,0.443829,0.550683,-0.166616,-0.866025,0.0253987,-0.260949,1.78814e-06,0.0230595,0.0138016,2.27511,5,0.1,29,0.9,3.23864,3.26403,0.616889,-0.395492,-0.279905,-0.0114197,0.179097,-0.0956655,-0.00391155,0.0163517,0.364987,5,0.1,30,0.9,-0.948905,-2.06705,0.58989,0.641583,0.180548,0.00683535,0.219345,0.06181,0.00234693,0.00897624,0.514527,5,0.1,31,0.9,-0.928858,-3.08332,0.629918,-0.257293,0.656234,-0.00440013,0.220329,-0.408739,0.0331849,0.0165076,1.43396,5,0.1,32,0.9,0.265324,4.11577,0.511383,0.866025,-0.286146,-0.025385,8.9407e-07,-0.163525,0.00252202,0.0212345,2.21711,5,0.1,33,0.9,-3.36643,-3.65541,0.594144,0.327366,-0.29684,-0.0451867,0.111938,-0.101358,-0.0154339,0.0128388,0.228524,5,0.1,34,0.9,-1.20767,1.8285,0.609333,0.486112,-0.178983,-0.0063098,-0.116877,-0.00979006,-0.00213459,0.0232217,0.123,5,0.1,35,0.9,4.09608,-0.139342,0.604325,-0.388191,0.863133,-0.0293039,-0.145525,0.0647375,-0.0103787,0.0256732,1.12577,5,0.1,36,0.9,-0.248237,1.64874,0.584663,0.493042,0.233265,0.0103695,-0.206884,-0.518546,0.00354648,0.0438398,0.862877,5,0.1,37,0.9,-2.27605,3.08833,0.709448,0.321862,-0.566819,0.0274171,0.109985,-0.193879,0.00939146,0.027245,0.49294,5,0.1,38,0.9,3.54012,-0.883296,0.638145,-0.0450384,0.865557,0.0159009,-0.284418,-0.0187568,0.0347979,0.0395444,2.32431,5,0.1,39,0.9,2.0468,-2.44582,0.557635,-0.572526,0.436679,0.0286442,-0.195734,0.14931,0.00980124,0.0331434,0.601404,5,0.1
0,1,0.892315,-0.723125,0.500228,0.227217,0.533992,-0.001885,-0.00488758,-0.0115037,0.0106394,0.037556,0.258713,5,0.1,1,1,1.5175,-3.55765,0.554658,-0.829226,0.00867248,0.0189349,0.431895,0.518799,-0.0329614,0.0149458,2.61377,5,0.1,2,1,1.01376,-3.88285,0.605443,0.195858,0.544429,-0.00115633,-0.377953,-0.181913,0.0204742,0.0371966,0.548508,5,0.1,3,1,-0.0255749,3.30471,0.500199,-0.313426,0.550377,-0.00164509,0.0067699,-0.0119209,0.00926852,0.00995524,0.307667,5,0.1,4,1,-1.9142,4.15485,0.502042,0.866026,-0.0733614,-0.0108302,0,-0.00619888,0.0356138,0.0287307,1.32798,5,0.1,5,1,3.67169,3.95038,0.607033,-0.448632,-0.401217,-0.00519156,0.161767,0.0847578,0.000119209,0.0161189,0.199544,5,0.1,6,1,-1.30858,3.27749,0.542249,-0.0709534,-0.866026,0.0120014,-0.015676,0,0.00265241,0.0126763,2.26838,5,0.1,7,1,-2.34818,-0.373104,0.553068,0.515574,0.164756,0.0346616,-0.0110865,-0.00357628,-0.000804663,0.0156493,0.223792,5,0.1,8,1,0.382381,3.30782,0.621614,-0.293128,-0.866026,-0.00759363,-0.116348,0,-0.00572205,0.0090351,2.20824,5,0.1,9,1,3.81786,-1.83118,0.543942,-0.0983059,0.866026,0.0149891,-0.0213385,-5.96046e-05,0.00324845,0.0267077,2.26419,5,0.1,10,1,-2.85013,2.98943,0.636789,0.77554,-0.435275,-0.0271723,-0.0166893,0.00941753,0.000566244,0.0107316,0.606007,5,0.1,11,1,4.27049,-1.57235,0.663579,-0.235069,0.866026,-0.0154048,-0.0510216,-5.96046e-05,-0.00336766,0.015317,2.23395,5,0.1,12,1,1.34632,3.01263,0.606616,-0.866026,0.564212,-0.00360012,5.96046e-05,0.124454,-0.000804663,0.0102415,2.06845,5,0.1,13,1,-1.22767,-2.77981,0.556007,0.347477,0.866026,0.0164747,0.0628233,0,0.00298023,0.0078278,0.61641,5,0.1,14,1,0.633022,-1.39229,0.618803,0.517549,0.134051,-0.0656024,-0.0112057,-0.00298023,0.00137091,0.00991602,0.220713,5,0.1,15,1,-3.5699,-1.91375,0.500116,0.085938,0.866026,-0.000965595,0.0185966,-5.96046e-05,0.00545382,0.0150929,2.26706,5,0.1,16,1,1.91663,-0.879668,0.628642,-0.367975,0.866026,-0.0121608,-0.0805855,0,-0.00268221,0.0271818,2.20835,5,0.1,17,1,1.85097,0.118359,0.500707,-0.219271,0.715608,-0.00476539,0.452518,0.196934,0.0205934,0.0171324,1.93922,5,0.1,18,1,-1.7,-1.1684,0.6953,-0.748089,0.610134,0.0327587,0.181198,0.133812,0.00721216,0.0116719,1.89411,5,0.1,19,1,-4.00587,0.35313,0.632537,0.632054,0.736159,-0.0240237,-0.0135899,-0.0159144,0.000536442,0.0148323,0.71658,5,0.1,20,1,0.740388,2.60575,0.573695,-0.21445,-0.277519,0.0194341,0.00461936,-0.099659,-0.00038743,0.0101563,0.161195,5,0.1,21,1,3.69961,-0.100762,0.567211,0.202006,-0.861377,0.0456035,0.295401,0.0929606,-0.010252,0.00810493,0.927282,5,0.1,22,1,-1.3489,-0.404815,0.547171,-0.139606,-0.866025,-0.0300825,-0.0302196,-1.43051e-05,-0.00655651,0.0107062,2.2579,5,0.1,23,1,-4.10454,-2.23894,0.567412,0.270176,0.866026,0.00922233,0.0591278,0,0.00205636,0.0134836,2.22216,5,0.1,24,1,-2.76069,-1.50788,0.648672,0.866026,-0.120249,-0.0200376,0,-0.025928,-0.00432134,0.0116079,2.26174,5,0.1,25,1,-2.97292,-4.1823,0.551926,0.866026,0.0194073,0.00579953,0,0.00405312,0.0012517,0.00876707,2.27164,5,0.1,26,1,1.9224,3.1129,0.557,-0.864032,-0.518942,0.0288397,0.0399351,-0.174522,0.00354648,0.0114831,1.39221,5,0.1,27,1,-0.819839,0.669697,0.555787,0.219473,-0.452644,0.088425,-0.00476837,0.00980496,-0.00190735,0.00977506,0.198455,5,0.1,28,1,1.58726,0.357226,0.553306,-0.182793,-0.866025,0.0267223,-0.0671148,-1.43051e-05,0.00345707,0.00801913,1.13715,5,0.1,29,1,3.2,3.23571,0.615733,-0.37747,-0.284803,-0.0116184,0.175834,0.00607967,0.000208616,0.0162739,0.271074,5,0.1,30,1,-0.88399,-2.04878,0.590581,0.652818,0.183719,0.00695735,-0.0140965,-0.00405312,-0.000178814,0.00985315,0.349891,5,0.1,31,1,-0.953537,-3.02012,0.629641,-0.236546,0.604182,-0.0011757,0.203997,-0.626206,0.0305176,0.0112545,1.16882,5,0.1,32,1,0.351927,4.08647,0.508883,0.866026,-0.29819,-0.0243574,0,-0.0650883,0.0174642,0.0126999,2.21184,5,0.1,33,1,-3.33331,-3.68544,0.589572,0.333095,-0.302029,-0.0459775,-0.00703335,0.00655651,0.00101328,0.00815492,0.155406,5,0.1,34,1,-1.16016,1.81068,0.608695,0.45917,-0.176015,-0.00641793,-0.407517,0.0700951,0.000119209,0.0125661,1.46932,5,0.1,35,1,4.05673,-0.0530382,0.601358,-0.396502,0.859858,-0.0298589,-0.00786781,-0.123343,0.000208616,0.0123989,0.787391,5,0.1,36,1,-0.2,1.66956,0.585712,0.471684,0.184646,0.0105515,-0.213534,-0.431538,-0.000238419,0.0156872,0.727377,5,0.1,37,1,-2.24349,3.03098,0.712222,0.327492,-0.576752,0.027898,-0.00703335,0.0123978,-0.000566244,0.0103199,0.33521,5,0.1,38,1,3.534,-0.796984,0.639873,-0.0787914,0.858523,0.0183016,-0.363231,-0.150055,0.0135601,0.0158616,2.29246,5,0.1,39,1,1.98887,-2.40164,0.560533,-0.582549,0.444323,0.0291452,0.0125766,-0.00953674,-0.000596046,0.0117513,0.408973,5,0.1
0,1.1,0.915003,-0.669806,0.500087,0.226223,0.531654,-0.000975467,-0.0233129,-0.0547916,0.00752509,0.037556,0.258713,5,0.1,1,1.1,1.43644,-3.55355,0.556344,-0.793997,0.0783596,0.0144255,0.31139,0.818208,-0.0542589,0.0149458,2.61377,5,0.1,2,1.1,1.03118,-3.82986,0.605469,0.150355,0.510254,0.00199191,-0.511058,-0.4832,0.0394359,0.0371966,0.548508,5,0.1,3,1.1,-0.0568702,3.35966,0.500076,-0.312052,0.547962,-0.000851788,0.0321795,-0.056535,0.00657141,0.00995524,0.307667,5,0.1,4,1.1,-1.8276,4.14749,0.501133,0.865775,-0.0738129,-0.0074178,-0.0100359,5.96046e-05,0.0320673,0.0287307,1.32798,5,0.1,5,1.1,3.62763,3.91068,0.606515,-0.43218,-0.39221,-0.00516837,0.180423,0.108406,0.000532717,0.0161189,0.199544,5,0.1,6,1.1,-1.31577,3.19088,0.543465,-0.0728004,-0.866026,0.0123139,-0.0171363,0,0.00289828,0.0126763,2.26838,5,0.1,7,1.1,-2.2967,-0.356653,0.556528,0.513319,0.164032,0.0345051,-0.0528991,-0.0169259,-0.00359863,0.0156493,0.223792,5,0.1,8,1.1,0.352398,3.22121,0.620823,-0.30686,-0.866026,-0.00826102,-0.137502,0,-0.00690669,0.0090351,2.20824,5,0.1,9,1.1,3.80786,-1.74458,0.545456,-0.102089,0.866025,0.0152863,-0.045836,1.49012e-05,0.00202283,0.0267077,2.26419,5,0.1,10,1.1,-2.77288,2.94598,0.634065,0.766899,-0.433099,-0.0273738,-0.172839,0.0494123,-0.00289828,0.0107316,0.606007,5,0.1,11,1.1,4.24668,-1.48575,0.662019,-0.241315,0.866025,-0.0158159,-0.0597835,1.49012e-05,-0.00392646,0.015317,2.23395,5,0.1,12,1.1,1.25972,3.06979,0.606251,-0.865945,0.579466,-0.00369819,0.0031963,0.146583,-0.000942498,0.0102415,2.06845,5,0.1,13,1.1,-1.19399,-2.69422,0.557452,0.314067,0.836148,0.0105971,-0.659063,-0.567645,-0.107516,0.0078278,0.61641,5,0.1,14,1.1,0.684699,-1.3789,0.612252,0.515278,0.133457,-0.0653185,-0.0531524,-0.0138134,0.00670552,0.00991602,0.220713,5,0.1,15,1.1,-3.56119,-1.82715,0.500044,0.0881944,0.866025,-0.000498816,0.021413,1.49012e-05,0.00386685,0.0150929,2.26706,5,0.1,16,1.1,1.87964,-0.793076,0.627428,-0.369577,0.865471,-0.0119853,0.052318,-0.0221953,0.00580773,0.0271818,2.20835,5,0.1,17,1.1,1.8303,0.191307,0.500327,-0.202527,0.745822,-0.00288002,-0.0596195,0.347407,0.0168458,0.0171324,1.93922,5,0.1,18,1.1,-1.7746,-1.10665,0.698615,-0.749243,0.624697,0.0335434,-0.135705,0.12476,0.00672787,0.0116719,1.89411,5,0.1,19,1.1,-3.94276,0.426635,0.630138,0.629286,0.732931,-0.0239171,-0.0648648,-0.075586,0.00247359,0.0148323,0.71658,5,0.1,20,1.1,0.718975,2.57746,0.575636,-0.21351,-0.288451,0.0193511,0.0220127,-0.101894,-0.00198558,0.0101563,0.161195,5,0.1,21,1.1,3.72016,-0.185094,0.571538,0.199039,-0.813199,0.0393735,-0.300005,0.817262,-0.104323,0.00810493,0.927282,5,0.1,22,1.1,-1.36304,-0.491417,0.544124,-0.143278,-0.866025,-0.0308767,-0.0348985,-1.78814e-06,-0.00753999,0.0107062,2.2579,5,0.1,23,1.1,-4.07717,-2.15234,0.568346,0.277379,0.866026,0.00947118,0.0687242,0,0.00236928,0.0134836,2.22216,5,0.1,24,1.1,-2.67409,-1.52006,0.646643,0.866026,-0.123372,-0.020558,0,-0.0294521,-0.00490993,0.0116079,2.26174,5,0.1,25,1.1,-2.88632,-4.18034,0.552513,0.866026,0.0199087,0.00595208,0,0.00485778,0.00145286,0.00876707,2.27164,5,0.1,26,1.1,1.83601,3.06012,0.559902,-0.864414,-0.535999,0.0291577,-0.00818819,-0.139967,0.00156462,0.0114831,1.39221,5,0.1,27,1.1,-0.797925,0.624501,0.564617,0.218509,-0.450657,0.0880379,-0.0225529,0.0464879,-0.00906736,0.00977506,0.198455,5,0.1,28,1.1,1.56836,0.272861,0.556078,-0.197349,-0.801642,0.0293917,-0.196479,1.18053,0.0434779,0.00801913,1.13715,5,0.1,29,1.1,3.16288,3.20728,0.614573,-0.366762,-0.283561,-0.0115709,0.0638664,0.0291914,0.00116974,0.0162739,0.271074,5,0.1,30,1.1,-0.818806,-2.03044,0.591276,0.649956,0.182907,0.00692466,-0.0670329,-0.0189096,-0.000733882,0.00985315,0.349891,5,0.1,31,1.1,-0.976682,-2.96234,0.629638,-0.230552,0.55539,0.000780821,-0.048697,-0.385717,0.0101104,0.0112545,1.16882,5,0.1,32,1.1,0.438529,4.05626,0.506563,0.866026,-0.306036,-0.0218137,-3.57628e-06,-0.074178,0.0321008,0.0126999,2.21184,5,0.1,33,1.1,-3.30005,-3.7156,0.584981,0.331647,-0.300702,-0.0457743,-0.0341237,0.0310242,0.00473112,0.00815492,0.155406,5,0.1,34,1.1,-1.11676,1.79315,0.608054,0.404629,-0.176626,-0.00639157,-0.658862,-0.0602007,0.000644475,0.0125661,1.46932,5,0.1,35,1.1,4.01705,0.0324408,0.598374,-0.396623,0.849852,-0.029777,0.0209808,-0.114291,0.0025481,0.0123989,0.787391,5,0.1,36,1.1,-0.153603,1.68605,0.586766,0.458427,0.148007,0.0105044,-0.0826465,-0.260957,-0.00108778,0.0156872,0.727377,5,0.1,37,1.1,-2.21079,2.97339,0.715007,0.32606,-0.574228,0.0277783,-0.0335872,0.0591725,-0.0028424,0.0103199,0.33521,5,0.1,38,1.1,3.52463,-0.711338,0.641708,-0.105499,0.858239,0.0178441,-0.177264,0.0828579,-0.0198931,0.0158616,2.29246,5,0.1,39,1.1,1.9307,-2.35727,0.563443,-0.579996,0.442377,0.0290199,0.0598058,-0.0455976,-0.00296906,0.0117513,0.408973,5,0.1
0,1.2,0.937423,-0.617116,0.500022,0.221176,0.519794,-0.000378489,-0.0830889,-0.195235,0.00450015,0.0161653,0.172867,5,0.1,1,1.2,1.35865,-3.54151,0.5575,-0.760332,0.162351,0.00861138,0.389218,0.81861,-0.0597239,0.0113313,2.57886,5,0.1,2,1.2,1.04358,-3.78162,0.605876,0.097388,0.451261,0.00619143,-0.531852,-0.680208,0.0421703,0.00978399,0.618273,5,0.1,3,1.2,-0.0877963,3.41397,0.500019,-0.305089,0.535733,-0.000329316,0.114605,-0.201225,0.0039041,0.00862457,0.20542,5,0.1,4,1.2,-1.74115,4.14013,0.500542,0.862014,-0.0728607,-0.00450909,-0.0802875,0.0207424,0.0257492,0.0282012,0.99467,5,0.1,5,1.2,3.58544,3.87213,0.606002,-0.410384,-0.377375,-0.00505298,0.264049,0.196695,0.00190735,0.0157927,0.130413,5,0.1,6,1.2,-1.32311,3.10428,0.544707,-0.0736833,-0.866026,0.0124633,0.00232458,0,-0.00038743,0.0118157,2.26832,5,0.1,7,1.2,-2.24583,-0.340397,0.559948,0.501871,0.160372,0.0337332,-0.188589,-0.0602603,-0.0126958,0.0164631,0.14881,5,0.1,8,1.2,0.32113,3.13461,0.619965,-0.31709,-0.866026,-0.00885278,-0.0524968,0,-0.00441074,0.00810658,2.20315,5,0.1,9,1.2,3.79744,-1.65797,0.546989,-0.106007,0.866026,0.0152797,-0.0263453,-5.96046e-05,-0.0025928,0.027619,2.26543,5,0.1,10,1.2,-2.69742,2.90308,0.631319,0.738341,-0.422853,-0.0274599,-0.407934,0.165462,0.00235438,0.0093545,0.419074,5,0.1,11,1.2,4.22233,-1.39914,0.660423,-0.244641,0.866026,-0.0160336,0.00333786,0,0.000208616,0.0157661,2.23306,5,0.1,12,1.2,1.17317,3.12828,0.605878,-0.864744,0.587744,-0.00375211,0.0256896,-0.00452995,5.96046e-05,0.0111272,1.72822,5,0.1,13,1.2,-1.16658,-2.61418,0.557881,0.228614,0.758201,-0.00270754,-0.992417,-0.964165,-0.148386,0.00685402,0.194747,5,0.1,14,1.2,0.735765,-1.36568,0.605778,0.50378,0.130478,-0.0638634,-0.189275,-0.0490546,0.0239611,0.00889189,0.146764,5,0.1,15,1.2,-3.55229,-1.74054,0.500011,0.0893593,0.866026,-0.000192225,-0.00190735,-5.96046e-05,0.00232458,0.0170612,2.26592,5,0.1,16,1.2,1.84318,-0.706818,0.62627,-0.357017,0.857149,-0.0110745,0.199974,-0.177532,0.0120401,0.0254648,2.25789,5,0.1,17,1.2,1.8093,0.267471,0.500116,-0.220874,0.774795,-0.00143349,-0.262141,0.189066,0.0119805,0.0162,1.48144,5,0.1,18,1.2,-1.85027,-1.04379,0.701991,-0.76333,0.629574,0.0338078,-0.0956059,-0.0497103,-0.00265241,0.0112395,1.40928,5,0.1,19,1.2,-3.88039,0.499272,0.627768,0.615245,0.716577,-0.0233829,-0.231028,-0.269159,0.00879169,0.014802,0.476482,5,0.1,20,1.2,0.697815,2.54821,0.577554,-0.208747,-0.295007,0.01892,0.0784397,-0.0174046,-0.00709295,0.0093486,0.394527,5,0.1,21,1.2,3.73796,-0.261499,0.574867,0.151879,-0.70776,0.0265375,-0.599027,1.2465,-0.144392,0.0120848,2.71356,5,0.1,22,1.2,-1.37749,-0.57802,0.541009,-0.145179,-0.866026,-0.031288,0.0026226,0,0.000596046,0.0107093,2.25765,5,0.1,23,1.2,-4.04918,-2.06574,0.569302,0.281179,0.866026,0.00960231,-0.0038147,-5.96046e-05,-0.000119209,0.01311,2.22104,5,0.1,24,1.2,-2.58748,-1.5325,0.644569,0.866026,-0.124934,-0.0208184,0,0.00303984,0.000536442,0.0115988,2.26162,5,0.1,25,1.2,-2.79972,-4.17833,0.553114,0.866026,0.0201702,0.00603199,0,0,-8.9407e-05,0.00846936,2.27163,5,0.1,26,1.2,1.74971,3.00605,0.562814,-0.859326,-0.542462,0.0289425,0.133932,0.0286102,-0.00664592,0.011735,0.999801,5,0.1,27,1.2,-0.776269,0.579838,0.573342,0.213632,-0.440601,0.0860751,-0.0802577,0.165522,-0.0323355,0.0104952,0.131963,5,0.1,28,1.2,1.54761,0.199815,0.559257,-0.217295,-0.649336,0.0342846,-0.182033,1.77857,0.0495017,0.00793846,0.261186,5,0.1,29,1.2,3.12651,3.17917,0.613426,-0.36028,-0.277245,-0.0113145,0.0844002,0.104189,0.00423193,0.0148203,0.196215,5,0.1,30,1.2,-0.754392,-2.01231,0.591962,0.635453,0.17882,0.00676811,-0.238717,-0.0671148,-0.0025332,0.0125679,0.232657,5,0.1,31,1.2,-1.00016,-2.90857,0.629744,-0.240046,0.52076,0.00111908,-0.114262,-0.333667,-0.00211596,0.0103022,0.975007,5,0.1,32,1.2,0.525132,4.02539,0.504557,0.866026,-0.310028,-0.0181764,0,0.00667572,0.0395775,0.0100866,2.21134,5,0.1,33,1.2,-3.26718,-3.7454,0.580445,0.324255,-0.293994,-0.0447527,-0.121832,0.110507,0.0168383,0.00954862,0.103334,5,0.1,34,1.2,-1.07984,1.77513,0.60742,0.331852,-0.18419,-0.00624955,-0.77647,-0.0744462,0.00232458,0.011016,1.11018,5,0.1,35,1.2,3.97764,0.116619,0.595421,-0.389725,0.830687,-0.0291631,0.127077,-0.294615,0.0104308,0.00850475,0.541023,5,0.1,36,1.2,-0.108166,1.7,0.587807,0.449802,0.135434,0.0102699,-0.112366,-0.00101328,-0.0038743,0.0187616,2.40543,5,0.1,37,1.2,-2.17847,2.91648,0.717761,0.318784,-0.561416,0.0271603,-0.119567,0.211,-0.0101924,0.00815202,0.222891,5,0.1,38,1.2,3.51346,-0.625112,0.643357,-0.115484,0.865151,0.0148356,-0.0286102,0.017494,-0.0379682,0.0159174,2.26415,5,0.1,39,1.2,1.87322,-2.31343,0.566319,-0.567058,0.432509,0.0283733,0.213087,-0.162482,-0.0106394,0.0106991,0.27194,5,0.1
0,1.3,0.959134,-0.566092,0.500003,0.212962,0.500494,-5.40167e-05,-0.0880621,-0.206925,0.00213832,0.0161653,0.172867,5,0.1,1,1.3,1.28351,-3.52146,0.558097,-0.751038,0.235565,0.00365674,-0.119284,0.626728,-0.0397712,0.0113313,2.57886,5,0.1,2,1.3,1.05017,-3.74076,0.606774,0.0305455,0.358829,0.0122817,-0.761285,-1.11093,0.0738055,0.00978399,0.618273,5,0.1,3,1.3,-0.117745,3.46656,0.500002,-0.29376,0.515841,-4.76837e-05,0.121463,-0.21328,0.00186265,0.00862457,0.20542,5,0.1,4,1.3,-1.65506,4.13295,0.500207,0.861507,-0.070782,-0.00231983,0.0196248,0.0231862,0.0180192,0.0282012,0.99467,5,0.1,5,1.3,3.54567,3.83535,0.605506,-0.384981,-0.358279,-0.00486467,0.255063,0.196084,0.00201911,0.0157927,0.130413,5,0.1,6,1.3,-1.33049,3.01768,0.545954,-0.0739571,-0.866026,0.0125102,-0.00365078,0,0.000622123,0.0118157,2.26832,5,0.1,7,1.3,-2.19657,-0.324654,0.563259,0.483229,0.154416,0.0324789,-0.199825,-0.0638571,-0.0134446,0.0164631,0.14881,5,0.1,8,1.3,0.289067,3.04801,0.619055,-0.324559,-0.866026,-0.00936408,-0.0768788,0,-0.0051409,0.00810658,2.20315,5,0.1,9,1.3,3.78666,-1.57137,0.54864,-0.109813,0.866025,0.0188757,-0.0418425,1.49012e-05,0.0653788,0.027619,2.26543,5,0.1,10,1.3,-2.62576,2.86163,0.628569,0.693258,-0.405659,-0.0276432,-0.502214,0.189528,-0.00400469,0.0093545,0.419074,5,0.1,11,1.3,4.19781,-1.31254,0.658816,-0.246064,0.866026,-0.0161273,-0.0176728,0,-0.00115484,0.0157661,2.23306,5,0.1,12,1.3,1.0867,3.18713,0.605503,-0.86509,0.589536,-0.00376115,-0.00745803,0.0107139,-4.84288e-05,0.0111272,1.72822,5,0.1,13,1.3,-1.14877,-2.54304,0.556798,0.127469,0.665649,-0.0194116,-1.00369,-0.896528,-0.176582,0.00685402,0.194747,5,0.1,14,1.3,0.785218,-1.35287,0.599509,0.48507,0.12563,-0.0614941,-0.200585,-0.0519529,0.0254065,0.00889189,0.146764,5,0.1,15,1.3,-3.54325,-1.65394,0.500001,0.092366,0.866025,-2.50526e-05,0.0512451,1.49012e-05,0.00109896,0.0170612,2.26592,5,0.1,16,1.3,1.80856,-0.621715,0.625223,-0.334498,0.846471,-0.00986867,0.253446,-0.0822134,0.0121519,0.0254648,2.25789,5,0.1,17,1.3,1.78547,0.346061,0.500023,-0.258949,0.797438,-0.000499841,-0.45523,0.216687,0.00687316,0.0162,1.48144,5,0.1,18,1.3,-1.9274,-0.981034,0.705361,-0.781116,0.6252,0.0335746,-0.206515,-0.064075,-0.00342727,0.0112395,1.40928,5,0.1,19,1.3,-3.82,0.569613,0.625472,0.592404,0.689969,-0.0225143,-0.244901,-0.285277,0.0093095,0.014802,0.476482,5,0.1,20,1.3,0.677324,2.51892,0.579411,-0.200993,-0.287977,0.0182182,0.0831261,0.15153,-0.00753254,0.0093486,0.394527,5,0.1,21,1.3,3.75054,-0.327812,0.576947,0.103478,-0.633578,0.0163937,-0.381649,0.339024,-0.0644922,0.0120848,2.71356,5,0.1,22,1.3,-1.39204,-0.664622,0.537875,-0.145914,-0.866026,-0.0314432,-0.00905991,3.72529e-06,-0.00191852,0.0107093,2.25765,5,0.1,23,1.3,-4.021,-1.97914,0.570265,0.282779,0.866025,0.00965763,0.0196695,1.49012e-05,0.000670552,0.01311,2.22104,5,0.1,24,1.3,-2.50088,-1.54501,0.642484,0.866026,-0.12544,-0.0209005,0,-0.00617653,-0.00100955,0.0115988,2.26162,5,0.1,25,1.3,-2.71311,-4.1763,0.553718,0.866026,0.020308,0.00606542,0,0.00157952,0.000406057,0.00846936,2.27163,5,0.1,26,1.3,1.66425,2.95194,0.565676,-0.85053,-0.539393,0.0282834,0.0841692,0.05427,-0.00755861,0.011735,0.999801,5,0.1,27,1.3,-0.755299,0.536588,0.581791,0.205698,-0.424238,0.0828789,-0.0850558,0.175418,-0.0342689,0.0104952,0.131963,5,0.1,28,1.3,1.52465,0.14335,0.563028,-0.244393,-0.484253,0.0418527,-0.32483,1.52154,0.0929311,0.00793846,0.261186,5,0.1,29,1.3,3.09077,3.15196,0.612315,-0.355311,-0.266947,-0.0108956,0.0351965,0.110388,0.00449643,0.0148203,0.196215,5,0.1,30,1.3,-0.692014,-1.99476,0.592626,0.611854,0.172184,0.00651758,-0.253007,-0.071153,-0.00268221,0.0125679,0.232657,5,0.1,31,1.3,-1.02491,-2.85809,0.629852,-0.256028,0.489202,0.00110455,-0.181437,-0.31276,0.00140816,0.0103022,0.975007,5,0.1,32,1.3,0.611734,3.99434,0.502942,0.866026,-0.311383,-0.0140951,-3.72529e-06,-0.0164211,0.0411905,0.0100866,2.21134,5,0.1,33,1.3,-3.23535,-3.77426,0.576052,0.312211,-0.283071,-0.0430886,-0.129133,0.117078,0.0178292,0.00954862,0.103334,5,0.1,34,1.3,-1.05059,1.75622,0.606807,0.253037,-0.194749,-0.00601914,-0.784501,-0.119619,0.00247359,0.011016,1.11018,5,0.1,35,1.3,3.93929,0.198315,0.592555,-0.377195,0.803452,-0.0281322,0.136301,-0.280618,0.0111051,0.00850475,0.541023,5,0.1,36,1.3,-0.0628056,1.71454,0.588815,0.46493,0.163634,0.0098872,0.34097,0.496447,-0.00410154,0.0187616,2.40543,5,0.1,37,1.3,-2.14718,2.86137,0.720427,0.306961,-0.540559,0.0261526,-0.126794,0.223592,-0.0108071,0.00815202,0.222891,5,0.1,38,1.3,3.50177,-0.538543,0.644635,-0.11805,0.865971,0.0105906,-0.0175983,0.00218317,-0.0453368,0.0159174,2.26415,5,0.1,39,1.3,1.81756,-2.27097,0.569104,-0.545994,0.416445,0.0273211,0.225797,-0.172243,-0.0112876,0.0106991,0.27194,5,0.1
0,1.4,0.979936,-0.517203,0.500005,0.202422,0.475726,7.7486e-05,-0.127286,-0.299141,0.000596046,0.0152567,0.114639,5,0.1,1,1.4,1.20754,-3.49521,0.558293,-0.769457,0.284731,0.000566244,-0.185788,0.345945,-0.0225604,0.0091441,2.43847,5,0.1,2,1.4,1.04934,-3.71075,0.608384,-0.047183,0.239336,0.0199303,-0.760078,-1.2337,0.074774,0.00738686,0.407202,5,0.1,3,1.4,-0.146439,3.51695,0.500004,-0.279221,0.490314,6.55651e-05,0.17558,-0.308394,0.000536442,0.0108513,0.136066,5,0.1,4,1.4,-1.56898,4.12601,0.500052,0.857323,-0.0678182,-0.00089407,-0.138938,0.0376701,0.0106692,0.0288356,0.716511,5,0.1,5,1.4,3.50851,3.80057,0.605031,-0.357527,-0.336349,-0.00462383,0.301123,0.249624,0.00289083,0.0160795,0.145201,5,0.1,6,1.4,-1.33788,2.93108,0.547206,-0.0737041,-0.866026,0.0124678,0.0116229,0,-0.00196695,0.0115925,2.26839,5,0.1,7,1.4,-2.14936,-0.309571,0.566432,0.459307,0.146773,0.0308707,-0.288725,-0.0922978,-0.0194311,0.0147107,0.0979513,5,0.1,8,1.4,0.256321,2.96141,0.618096,-0.32906,-0.866026,-0.00976622,0.000901818,0,-0.00247359,0.00918835,2.1765,5,0.1,9,1.4,3.7755,-1.48477,0.550905,-0.113022,0.866026,0.0267401,-0.0165701,0,0.0848174,0.0260248,2.35124,5,0.1,10,1.4,-2.55916,2.82213,0.625787,0.636625,-0.383133,-0.0279158,-0.634789,0.268102,5.96046e-05,0.0103312,0.302744,5,0.1,11,1.4,4.17317,-1.22594,0.657201,-0.245786,0.866026,-0.0161082,0.033617,-5.96046e-05,0.00217557,0.0163243,2.2602,5,0.1,12,1.4,1.00026,3.24597,0.605127,-0.862595,0.584877,-0.00372827,0.0685751,-0.124335,0.00077486,0.0125066,1.27646,5,0.1,13,1.4,-1.14088,-2.48091,0.553989,0.0325114,0.577307,-0.0364393,-0.87589,-0.876546,-0.157237,0.00911107,0.161248,5,0.1,14,1.4,0.832599,-1.3406,0.593503,0.461063,0.119409,-0.0584513,-0.289947,-0.0749826,0.0367165,0.00923851,0.0966043,5,0.1,15,1.4,-3.53374,-1.56734,0.500003,0.0977159,0.866026,4.17233e-05,0.0479221,0,0.000298023,0.0164915,2.26406,5,0.1,16,1.4,1.77649,-0.537631,0.624297,-0.305906,0.832835,-0.00863224,0.31966,-0.223011,0.0125766,0.0300742,2.34307,5,0.1,17,1.4,1.75728,0.426618,0.500001,-0.304234,0.810143,-1.78814e-05,-0.41759,0.00464916,0.00295043,0.0186084,1.09704,5,0.1,18,1.4,-2.00637,-0.919034,0.70869,-0.795472,0.612351,0.0328869,-0.0423193,-0.210673,-0.0113249,0.0121098,1.01388,5,0.1,19,1.4,-3.76213,0.63701,0.623273,0.563085,0.655822,-0.0213996,-0.354052,-0.412375,0.0134408,0.0152234,0.313623,5,0.1,20,1.4,0.657691,2.49112,0.581191,-0.191043,-0.26598,0.0173151,0.120133,0.281811,-0.0108778,0.0109219,0.379901,5,0.1,21,1.4,3.75926,-0.390282,0.578355,0.0732303,-0.621884,0.0125483,-0.233889,-0.0263011,-0.0172555,0.0110091,2.65163,5,0.1,22,1.4,-1.40664,-0.751225,0.534728,-0.145587,-0.866026,-0.0313699,0.0213981,0,0.00464916,0.0123042,2.25798,5,0.1,23,1.4,-3.99269,-1.89253,0.571231,0.282365,0.866026,0.00964403,-0.0392199,-5.96046e-05,-0.0013411,0.0140068,2.22194,5,0.1,24,1.4,-2.41428,-1.55755,0.640395,0.866026,-0.124985,-0.0208229,0,0.0201464,0.00339746,0.0115714,2.26197,5,0.1,25,1.4,-2.62651,-4.17427,0.554325,0.866026,0.0202894,0.00605583,0,-0.0026226,-0.000864267,0.00861686,2.27164,5,0.1,26,1.4,1.57982,2.89846,0.568458,-0.835347,-0.528014,0.0272617,0.248909,0.187635,-0.0135899,0.0107243,0.696782,5,0.1,27,1.4,-0.735206,0.495148,0.589887,0.195518,-0.403242,0.078778,-0.122964,0.253558,-0.0495613,0.0129741,0.147931,5,0.1,28,1.4,1.49858,0.102096,0.567689,-0.276166,-0.345196,0.0513092,-0.284791,1.25948,0.0895858,0.0116639,3.38862,5,0.1,29,1.4,3.05547,3.12588,0.611251,-0.34979,-0.253737,-0.0103563,0.0895262,0.159621,0.00649691,0.015533,0.138642,5,0.1,30,1.4,-0.632249,-1.97794,0.593263,0.58157,0.163665,0.00619441,-0.365704,-0.102818,-0.0038445,0.0103105,0.153137,5,0.1,31,1.4,-1.05137,-2.8108,0.629972,-0.272208,0.455654,0.00132769,-0.124931,-0.368476,0.00268221,0.0108379,0.802523,5,0.1,32,1.4,0.698337,3.9632,0.501735,0.866026,-0.310355,-0.0100911,0,0.048995,0.038296,0.0112551,2.21356,5,0.1,33,1.4,-3.20486,-3.80191,0.571843,0.296754,-0.269061,-0.0409544,-0.186563,0.169277,0.0257194,0.00861225,0.115837,5,0.1,34,1.4,-1.02912,1.73618,0.606219,0.177604,-0.205171,-0.00572354,-0.712931,-0.0766516,0.00360608,0.0101356,1.4007,5,0.1,35,1.4,3.90235,0.277077,0.589805,-0.360346,0.769441,-0.0267878,0.209093,-0.420332,0.0163913,0.00885952,0.365353,5,0.1,36,1.4,-0.0143599,1.73374,0.58978,0.505022,0.222591,0.00939667,0.405103,0.629961,-0.00590086,0.0177779,1.19742,5,0.1,37,1.4,-2.11719,2.80857,0.722981,0.291777,-0.513798,0.0248581,-0.183344,0.323176,-0.0156462,0.00802671,0.146708,5,0.1,38,1.4,3.48993,-0.451942,0.645466,-0.118142,0.866025,0.00604838,0.0190735,1.43051e-05,-0.0442266,0.00781823,0.847922,5,0.1,39,1.4,1.76422,-2.23029,0.571773,-0.518972,0.395828,0.0259697,0.326395,-0.24879,-0.0163317,0.0108492,0.178995,5,0.1
0,1.5,0.999567,-0.471069,0.500015,0.19028,0.447192,0.000100862,-0.121299,-0.285055,-7.07805e-05,0.0152567,0.114639,5,0.1,1,1.5,1.12904,-3.46582,0.558298,-0.804749,0.295509,6.25849e-05,-0.443771,-0.100657,0.00929832,0.0091441,2.43847,5,0.1,2,1.5,1.04097,-3.69319,0.610825,-0.118219,0.110921,0.0294336,-0.645041,-1.29339,0.107471,0.00738686,0.407202,5,0.1,3,1.5,-0.173517,3.5645,0.500012,-0.262473,0.460898,8.72649e-05,0.167312,-0.293851,-4.84288e-05,0.0108513,0.136066,5,0.1,4,1.5,-1.48378,4.11941,0.500006,0.84731,-0.0642098,-0.00012517,-0.101678,0.0365078,0.00506639,0.0288356,0.716511,5,0.1,5,1.5,3.47403,3.76797,0.60458,-0.333964,-0.317463,-0.0044167,0.190258,0.147954,0.00153482,0.0160795,0.145201,5,0.1,6,1.5,-1.34522,2.84447,0.548447,-0.0731992,-0.866026,0.0123823,0.00267476,0,-0.000454485,0.0115925,2.26839,5,0.1,7,1.5,-2.10482,-0.295337,0.569425,0.431766,0.137969,0.0290178,-0.275165,-0.0879485,-0.0185072,0.0147107,0.0979513,5,0.1,8,1.5,0.223322,2.8748,0.617104,-0.331386,-0.866026,-0.0100788,-0.0281856,0,-0.00313669,0.00918835,2.1765,5,0.1,9,1.5,3.76392,-1.39837,0.554053,-0.120186,0.859479,0.0365693,-0.109151,-0.152953,0.104912,0.0260248,2.35124,5,0.1,10,1.5,-2.49861,2.78514,0.622986,0.574664,-0.356645,-0.0281559,-0.614211,0.26992,-0.00313669,0.0103312,0.302744,5,0.1,11,1.5,4.14915,-1.13934,0.655623,-0.231223,0.86601,-0.0152698,0.242054,-0.000581145,0.0138283,0.0163243,2.2602,5,0.1,12,1.5,0.914055,3.3039,0.604758,-0.862971,0.573896,-0.00365973,-0.0263043,-0.119165,0.000745058,0.0125066,1.27646,5,0.1,13,1.5,-1.14161,-2.42707,0.549551,-0.0431355,0.503653,-0.0522362,-0.636667,-0.623986,-0.151873,0.00911107,0.161248,5,0.1,14,1.5,0.877312,-1.32902,0.587834,0.433406,0.112255,-0.0549483,-0.276282,-0.0714734,0.0350066,0.00923851,0.0966043,5,0.1,15,1.5,-3.52366,-1.48074,0.500008,0.104314,0.866026,5.27129e-05,0.0743419,0,-4.47035e-05,0.0164915,2.26406,5,0.1,16,1.5,1.74774,-0.455009,0.623491,-0.266825,0.822718,-0.00755191,0.448763,-0.0343733,0.00938028,0.0300742,2.34307,5,0.1,17,1.5,1.72462,0.507737,0.50001,-0.349406,0.812074,0.000163913,-0.451967,-0.00364333,0.000841916,0.0186084,1.09704,5,0.1,18,1.5,-2.08627,-0.858797,0.711925,-0.803071,0.592378,0.0318134,-0.0672191,-0.210296,-0.0112951,0.0121098,1.01388,5,0.1,19,1.5,-3.70752,0.700609,0.621198,0.529311,0.616487,-0.0201175,-0.337407,-0.392962,0.0128075,0.0152234,0.313623,5,0.1,20,1.5,0.639164,2.46618,0.58287,-0.179584,-0.230669,0.0162769,0.114482,0.409886,-0.0103787,0.0109219,0.379901,5,0.1,21,1.5,3.76571,-0.452785,0.579605,0.05854,-0.62903,0.0131251,-0.0748038,-0.0794901,0.0237003,0.0110091,2.65163,5,0.1,22,1.5,-1.42114,-0.837828,0.531604,-0.144689,-0.866026,-0.0311729,0.00479072,3.72529e-06,0.00106543,0.0123042,2.25798,5,0.1,23,1.5,-3.96455,-1.80593,0.572192,0.280911,0.866025,0.00959411,-0.00602007,1.49012e-05,-0.000208616,0.0140068,2.22194,5,0.1,24,1.5,-2.32768,-1.56999,0.638323,0.866026,-0.123972,-0.0206511,0,0.00695884,0.00118092,0.0115714,2.26197,5,0.1,25,1.5,-2.53991,-4.17225,0.554929,0.866026,0.0202,0.0060224,0,-0.000357628,-0.000145286,0.00861686,2.27164,5,0.1,26,1.5,1.4974,2.84656,0.571119,-0.813515,-0.509887,0.0259619,0.221796,0.192553,-0.0132471,0.0107243,0.696782,5,0.1,27,1.5,-0.716143,0.455831,0.597568,0.1867,-0.385058,0.075224,-0.065539,0.135131,-0.0264086,0.0129741,0.147931,5,0.1,28,1.5,1.47006,0.0719552,0.573168,-0.289355,-0.274354,0.0572966,0.00788271,0.253806,0.0317171,0.0116639,3.38862,5,0.1,29,1.5,3.02086,3.10128,0.610247,-0.342762,-0.238514,-0.00973614,0.0672042,0.152066,0.00619516,0.015533,0.138642,5,0.1,30,1.5,-0.57585,-1.96207,0.593864,0.546686,0.153856,0.00582691,-0.34849,-0.0980049,-0.00368059,0.0103105,0.153137,5,0.1,31,1.5,-1.07933,-2.76681,0.630113,-0.287843,0.426109,0.00143861,-0.165276,-0.246018,-0.000257045,0.0108379,0.802523,5,0.1,32,1.5,0.784939,3.93231,0.500908,0.866026,-0.307934,-0.00654887,-3.72529e-06,0.0164658,0.0321418,0.0112551,2.21356,5,0.1,33,1.5,-3.17592,-3.82814,0.56785,0.283373,-0.256921,-0.0391104,-0.0994503,0.0902116,0.0136979,0.00861225,0.115837,5,0.1,34,1.5,-1.01482,1.71524,0.605664,0.10993,-0.21385,-0.0053796,-0.623219,-0.0835359,0.00343099,0.0101356,1.4007,5,0.1,35,1.5,3.86732,0.352034,0.587205,-0.340402,0.7302,-0.0252242,0.200421,-0.389628,0.0156499,0.00885952,0.365353,5,0.1,36,1.5,0.0382404,1.75937,0.590692,0.546753,0.291165,0.00883387,0.392425,0.699446,-0.00562146,0.0177779,1.19742,5,0.1,37,1.5,-2.0889,2.75874,0.725392,0.274286,-0.482973,0.023366,-0.174776,0.307947,-0.0149086,0.00802671,0.146708,5,0.1,38,1.5,3.47754,-0.367161,0.646092,-0.135229,0.813421,0.00854619,-0.313878,-0.971317,0.0798777,0.00781823,0.847922,5,0.1,39,1.5,1.7139,-2.19191,0.574292,-0.487839,0.372094,0.0244116,0.310995,-0.237137,-0.0155643,0.0108492,0.178995,5,0.1
0,1.6,1.01796,-0.427841,0.500024,0.177205,0.416458,7.45058e-05,-0.144184,-0.338703,-0.000417233,0.0172344,0.132296,5,0.1,1,1.6,1.04643,-3.43731,0.558382,-0.845316,0.270098,0.00185519,-0.314862,-0.382304,0.0239611,0.0111267,2.32855,5,0.1,2,1.6,1.02622,-3.68838,0.614307,-0.17361,-0.0121951,0.0400618,-0.452578,-1.13857,0.0993013,0.0202658,0.726876,5,0.1,3,1.6,-0.198889,3.60905,0.50002,-0.244434,0.429219,6.55651e-05,0.198796,-0.349164,-0.00038743,0.010864,0.155092,5,0.1,4,1.6,-1.39977,4.11318,0.500012,0.830165,-0.0601768,0.000184774,-0.269055,0.0452995,0.00143051,0.0285586,0.545178,5,0.1,5,1.6,3.44153,3.73692,0.604146,-0.315994,-0.30334,-0.00426769,0.183821,0.14925,0.00166893,0.0146856,0.110445,5,0.1,6,1.6,-1.35251,2.75787,0.549681,-0.0724524,-0.866026,0.0122562,0.0151396,0,-0.0025928,0.0116342,2.26852,5,0.1,7,1.6,-2.06308,-0.282001,0.57223,0.402099,0.128487,0.0270233,-0.32711,-0.104502,-0.0219941,0.0142416,0.11007,5,0.1,8,1.6,0.190124,2.7882,0.616084,-0.331424,-0.866026,-0.0102848,0.0409186,0,-0.000566244,0.00933341,1.70211,5,0.1,9,1.6,3.75132,-1.31358,0.558222,-0.131786,0.831905,0.0465348,-0.109911,-0.411808,0.0893474,0.0255875,2.59283,5,0.1,10,1.6,-2.44424,2.75088,0.620161,0.512177,-0.327796,-0.0282496,-0.641584,0.312448,0.00247359,0.010357,0.228673,5,0.1,11,1.6,4.12747,-1.05274,0.654179,-0.200236,0.86579,-0.013487,0.363827,-0.00479817,0.0211596,0.0159824,2.25616,5,0.1,12,1.6,0.827803,3.36055,0.604397,-0.859401,0.557017,-0.00355393,0.132561,-0.234604,0.00151992,0.00978838,0.910267,5,0.1,13,1.6,-1.14871,-2.37959,0.543623,-0.0949383,0.447696,-0.06565,-0.400901,-0.515938,-0.111669,0.00772695,0.178656,5,0.1,14,1.6,0.919207,-1.31817,0.582522,0.403617,0.104547,-0.0511736,-0.328243,-0.0849366,0.041604,0.00908367,0.108554,5,0.1,15,1.6,-3.51288,-1.39413,0.500013,0.110924,0.866026,3.8743e-05,0.0506639,-5.96046e-05,-0.000238419,0.0140873,2.26239,5,0.1,16,1.6,1.72343,-0.372968,0.622779,-0.218564,0.816493,-0.0066936,0.505507,-0.129744,0.00801682,0.0265235,2.3267,5,0.1,17,1.6,1.6876,0.588661,0.500028,-0.388831,0.803089,0.000178814,-0.312448,-0.201702,-0.00038743,0.0170107,0.952249,5,0.1,18,1.6,-2.16667,-0.800753,0.715043,-0.801742,0.566694,0.0304341,0.123382,-0.317752,-0.0170469,0.0110334,0.707903,5,0.1,19,1.6,-3.65636,0.760202,0.619253,0.49293,0.574116,-0.0187367,-0.400901,-0.466883,0.0152588,0.0134142,0.206129,5,0.1,20,1.6,0.621805,2.44527,0.584443,-0.16724,-0.18661,0.0151575,0.135988,0.459433,-0.0123084,0.00938304,0.370315,5,0.1,21,1.6,3.77135,-0.515924,0.581069,0.0556052,-0.631459,0.0163853,0.00429153,0.0569224,0.0375807,0.00918543,2.81076,5,0.1,22,1.6,-1.43556,-0.92443,0.528498,-0.143227,-0.866026,-0.0308558,0.03016,0,0.00652671,0.00911886,2.2594,5,0.1,23,1.6,-3.93655,-1.71933,0.573149,0.278413,0.866026,0.00950843,-0.0555515,-5.96046e-05,-0.00190735,0.0141666,2.2255,5,0.1,24,1.6,-2.24107,-1.58233,0.636267,0.866026,-0.122425,-0.0203907,0,0.0287294,0.00476837,0.00951753,2.26253,5,0.1,25,1.6,-2.45331,-4.17023,0.555529,0.866026,0.0200391,0.00596642,0,-0.00429153,-0.00119209,0.00866003,2.27165,5,0.1,26,1.6,1.41734,2.79666,0.573644,-0.785252,-0.486553,0.0244707,0.366807,0.285864,-0.0171363,0.012759,0.475735,5,0.1,27,1.6,-0.697787,0.417974,0.604963,0.180317,-0.371898,0.0726536,-0.0709295,0.146255,-0.0285804,0.0156755,0.0857172,5,0.1,28,1.6,1.44156,0.044784,0.578971,-0.277111,-0.277162,0.05797,0.224829,-0.233675,-0.0166297,0.0128122,3.04269,5,0.1,29,1.6,2.98699,3.07822,0.609306,-0.333613,-0.222117,-0.00906587,0.127077,0.180602,0.00733137,0.0158626,0.165204,5,0.1,30,1.6,-0.523005,-1.9472,0.594427,0.509112,0.143287,0.00542998,-0.414073,-0.116467,-0.00444055,0.0104404,0.10065,5,0.1,31,1.6,-1.10886,-2.72539,0.630252,-0.301412,0.402379,0.00131279,-0.0900626,-0.24581,-0.00202656,0.0120939,0.643944,5,0.1,32,1.6,0.871542,3.90166,0.500402,0.866026,-0.304163,-0.00372231,0,0.0710487,0.0241697,0.00950754,1.90746,5,0.1,33,1.6,-3.14806,-3.8534,0.564004,0.273687,-0.24814,-0.0377759,-0.107765,0.0976324,0.0148416,0.00814253,0.0671218,5,0.1,34,1.6,-1.00668,1.69351,0.605144,0.0556529,-0.219607,-0.00500828,-0.452638,-0.0222921,0.00405312,0.0110988,3.80879,5,0.1,35,1.6,3.83434,0.422989,0.584765,-0.318485,0.687293,-0.0235289,0.244856,-0.485599,0.0187755,0.00749783,0.244499,5,0.1,36,1.6,0.0946079,1.79182,0.591546,0.577228,0.355232,0.00822693,0.191373,0.551641,-0.00667572,0.0150349,0.891645,5,0.1,37,1.6,-2.06238,2.71205,0.727651,0.255442,-0.449771,0.0217587,-0.207782,0.365734,-0.0177026,0.00943185,0.0964238,5,0.1,38,1.6,3.46221,-0.291726,0.647454,-0.172633,0.686497,0.0194758,-0.398159,-1.5006,0.127494,0.013834,2.84219,5,0.1,39,1.6,1.66674,-2.15594,0.576651,-0.454307,0.346524,0.0227332,0.36943,-0.281811,-0.0184774,0.0117918,0.117644,5,0.1
0,1.7,1.03499,-0.387651,0.500029,0.163584,0.389156,2.63564e-05,-0.132933,-0.228817,-0.000517815,0.0172344,0.132296,5,0.1,1,1.7,0.960788,-3.4125,0.558714,-0.86349,0.223524,0.00498798,-0.0766031,-0.529721,0.0362024,0.0111267,2.32855,5,0.1,2,1.7,1.0072,-3.69389,0.619289,-0.201013,-0.0851315,0.0635011,-0.113249,-0.373885,0.334576,0.0202658,0.726876,5,0.1,3,1.7,-0.222505,3.65052,0.500025,-0.229183,0.402433,2.23517e-05,0.120546,-0.211716,-0.000454485,0.010864,0.155092,5,0.1,4,1.7,-1.31862,4.10738,0.500035,0.787834,-0.0559151,0.000241119,-0.569001,0.041604,-0.000167638,0.0285586,0.545178,5,0.1,5,1.7,3.41072,3.70737,0.603728,-0.301113,-0.287133,-0.00407696,0.128999,0.180021,0.00222027,0.0146856,0.110445,5,0.1,6,1.7,-1.35971,2.67127,0.550898,-0.0716757,-0.866026,0.0121224,0.00460446,0,-0.000793487,0.0116342,2.26852,5,0.1,7,1.7,-2.02424,-0.269587,0.574841,0.377005,0.12047,0.0253365,-0.198334,-0.0633635,-0.0133254,0.0142416,0.11007,5,0.1,8,1.7,0.157132,2.7016,0.615051,-0.328544,-0.865955,-0.0103654,0.0320426,0.00284612,-0.000543892,0.00933341,1.70211,5,0.1,9,1.7,3.73676,-1.23256,0.563197,-0.166237,0.786883,0.0517897,-0.51789,-0.501953,0.0190809,0.0255875,2.59283,5,0.1,10,1.7,-2.39604,2.71961,0.617347,0.453563,-0.298007,-0.0280202,-0.543937,0.290349,0.00326708,0.010357,0.228673,5,0.1,11,1.7,4.10888,-0.966164,0.652913,-0.174948,0.865892,-0.0120243,0.163347,0.00296161,0.00943989,0.0159824,2.25616,5,0.1,12,1.7,0.74236,3.41515,0.604048,-0.85006,0.535176,-0.00341274,0.0949614,-0.221774,0.00143051,0.00978838,0.910267,5,0.1,13,1.7,-1.15981,-2.33694,0.536618,-0.12346,0.409287,-0.0732928,-0.17833,-0.284091,-0.0425689,0.00772695,0.178656,5,0.1,14,1.7,0.958202,-1.30806,0.577578,0.378436,0.0980314,-0.0479814,-0.199027,-0.0514984,0.0252351,0.00908367,0.108554,5,0.1,15,1.7,-3.50149,-1.30753,0.500015,0.117168,0.866025,1.546e-05,0.0652671,1.49012e-05,-0.000223517,0.0140873,2.26239,5,0.1,16,1.7,1.70341,-0.291126,0.622132,-0.187654,0.826671,-0.00640005,0.149131,0.251468,-0.000990927,0.0265235,2.3267,5,0.1,17,1.7,1.64697,0.668034,0.500043,-0.424504,0.784316,0.000121724,-0.364676,-0.204287,-0.00071153,0.0170107,0.952249,5,0.1,18,1.7,-2.24632,-0.745596,0.718005,-0.791309,0.536761,0.0288283,0.119373,-0.298686,-0.0160225,0.0110334,0.707903,5,0.1,19,1.7,-3.60897,0.81539,0.617452,0.455347,0.530348,-0.0173069,-0.364229,-0.424169,0.0138544,0.0134142,0.206129,5,0.1,20,1.7,0.605729,2.42897,0.5859,-0.154492,-0.139179,0.0140029,0.123553,0.473246,-0.0111945,0.00938304,0.370315,5,0.1,21,1.7,3.77742,-0.5785,0.582909,0.0698891,-0.617056,0.0204811,0.253424,0.237141,0.0419617,0.00918543,2.81076,5,0.1,22,1.7,-1.44971,-1.01103,0.525427,-0.139439,-0.866026,-0.0306815,0.0489578,0,-0.000886619,0.00911886,2.2594,5,0.1,23,1.7,-3.90899,-1.63273,0.5741,0.272477,0.866025,0.00958089,-0.0722855,1.49012e-05,0.00242889,0.0141666,2.2255,5,0.1,24,1.7,-2.15447,-1.59447,0.634245,0.866026,-0.120656,-0.0200979,0,0.0133589,0.00220537,0.00951753,2.26253,5,0.1,25,1.7,-2.3667,-4.16824,0.556122,0.866026,0.0198126,0.00590598,0,-0.00137091,-0.000361353,0.00866003,2.27165,5,0.1,26,1.7,1.34053,2.74937,0.576009,-0.751491,-0.45947,0.0228583,0.336252,0.270471,-0.0158139,0.012759,0.475735,5,0.1,27,1.7,-0.680066,0.381425,0.612103,0.174341,-0.359573,0.0702456,-0.056494,0.116499,-0.0227541,0.0156755,0.0857172,5,0.1,28,1.7,1.41562,0.0145774,0.584664,-0.236021,-0.337589,0.0556446,0.560075,-0.873288,-0.0303201,0.0128122,3.04269,5,0.1,29,1.7,2.95398,3.05676,0.60843,-0.328824,-0.208263,-0.00850288,-0.00344217,0.109479,0.00445172,0.0158626,0.165204,5,0.1,30,1.7,-0.474066,-1.93342,0.594949,0.470294,0.132367,0.00501405,-0.376182,-0.105835,-0.00403076,0.0104404,0.10065,5,0.1,31,1.7,-1.13953,-2.68599,0.630356,-0.312126,0.388688,0.000608899,-0.1048,-0.0612736,-0.01093,0.0120939,0.643944,5,0.1,32,1.7,0.958144,3.87152,0.500136,0.866026,-0.298944,-0.00173887,0,0.0480562,0.0156574,0.00950754,1.90746,5,0.1,33,1.7,-3.12117,-3.87779,0.560292,0.264606,-0.239915,-0.0365252,-0.0858456,0.0777394,0.0118241,0.00814253,0.0671218,5,0.1,34,1.7,-1.00341,1.67146,0.604663,0.0112157,-0.221071,-0.0046121,-0.369057,0.0012964,0.00397116,0.0110988,3.80879,5,0.1,35,1.7,3.80366,0.489422,0.582501,-0.29551,0.64212,-0.0217685,0.223592,-0.438751,0.0170879,0.00749783,0.244499,5,0.1,36,1.7,0.15323,1.82998,0.592337,0.593993,0.406309,0.00761161,0.118653,0.446215,-0.00587478,0.0150349,0.891645,5,0.1,37,1.7,-2.03783,2.66882,0.729742,0.235963,-0.415484,0.0200992,-0.188783,0.332281,-0.0160784,0.00943185,0.0964238,5,0.1,38,1.7,3.44349,-0.228408,0.649881,-0.196777,0.598519,0.0276094,-0.0994503,-0.377555,0.0405088,0.013834,2.84219,5,0.1,39,1.7,1.62307,-2.12263,0.578837,-0.419674,0.320103,0.021001,0.335634,-0.256047,-0.0167936,0.0117918,0.117644,5,0.1
0,1.8,1.05067,-0.349843,0.500029,0.149828,0.366991,-2.23517e-05,-0.145376,-0.230044,-0.000447035,0.0159979,0.108045,5,0.1,1,1.8,0.874249,-3.39291,0.559397,-0.866026,0.16765,0.00866055,0,-0.572324,0.0353456,0.0108131,2.29637,5,0.1,2,1.8,0.986974,-3.70337,0.627464,-0.199595,-0.0967801,0.100809,0.126004,0.0964403,0.384867,0.0201706,0.555338,5,0.1,3,1.8,-0.244853,3.68976,0.500025,-0.217846,0.382519,-1.93715e-05,0.116654,-0.204682,-0.000417233,0.00808005,0.0915665,5,0.1,4,1.8,-1.24311,4.102,0.500056,0.718179,-0.0515699,0.000177324,-0.814497,0.0462532,-0.00104308,0.0269636,0.494245,5,0.1,5,1.8,3.38127,3.67965,0.603333,-0.287592,-0.266522,-0.00381172,0.15223,0.2352,0.00312924,0.015201,0.288743,5,0.1,6,1.8,-1.36684,2.58467,0.552104,-0.0708103,-0.866026,0.0119746,0.0156164,0,-0.00265241,0.0134881,2.26866,5,0.1,7,1.8,-1.98747,-0.257839,0.577312,0.358352,0.114511,0.0240833,-0.191927,-0.0613257,-0.0129044,0.0149779,0.0638432,5,0.1,8,1.8,0.124526,2.61504,0.614015,-0.322421,-0.864887,-0.0103071,0.100985,0.022769,0.00202656,0.0092776,1.34511,5,0.1,9,1.8,3.71728,-1.15662,0.568378,-0.22456,0.729424,0.0509858,-0.601649,-0.654757,-0.0322163,0.0248519,2.55343,5,0.1,10,1.8,-2.35333,2.69127,0.614571,0.401115,-0.268561,-0.0274032,-0.514627,0.303388,0.00986457,0.00954766,0.176614,5,0.1,11,1.8,4.09202,-0.879565,0.651748,-0.16377,0.866026,-0.0113636,0.0765324,0,0.00485778,0.00973878,1.29859,5,0.1,12,1.8,0.658039,3.46744,0.603715,-0.833522,0.509375,-0.00324696,0.263959,-0.307322,0.00196695,0.0100813,0.632316,5,0.1,13,1.8,-1.17274,-2.29726,0.52918,-0.132301,0.385308,-0.0744656,-0.00661612,-0.219345,0.0175238,0.00736677,0.192659,5,0.1,14,1.8,0.995105,-1.2985,0.572899,0.359717,0.0931859,-0.045608,-0.192583,-0.0498891,0.0244677,0.0111592,0.0626094,5,0.1,15,1.8,-3.48948,-1.22093,0.500016,0.122458,0.866026,-4.47035e-06,0.0339746,-5.96046e-05,-0.000208616,0.0166107,2.26123,5,0.1,16,1.8,1.68505,-0.207123,0.62148,-0.182241,0.852615,-0.00668913,-0.0123382,0.207543,-0.0038743,0.0238622,2.15483,5,0.1,17,1.8,1.60286,0.745236,0.500052,-0.455552,0.757119,4.47035e-05,-0.230491,-0.360221,-0.00077486,0.0153147,0.8567,5,0.1,18,1.8,-2.32464,-0.6935,0.720803,-0.77213,0.503977,0.0270694,0.287414,-0.369012,-0.0198185,0.0108706,0.483527,5,0.1,19,1.8,-3.56529,0.86627,0.615792,0.417817,0.486645,-0.0158787,-0.395298,-0.460565,0.0149906,0.0126357,0.136006,5,0.1,20,1.8,0.590907,2.41734,0.587244,-0.141761,-0.0945985,0.0128478,0.13414,0.407934,-0.0121295,0.0108396,0.357784,5,0.1,21,1.8,3.78589,-0.638685,0.585158,0.101185,-0.583251,0.0243649,0.349522,0.440836,0.033915,0.0126156,2.68447,5,0.1,22,1.8,-1.46335,-1.09764,0.522357,-0.132895,-0.866026,-0.0306621,0.0839233,5.96046e-05,0.00283122,0.00851688,2.46386,5,0.1,23,1.8,-3.88219,-1.54612,0.575071,0.262445,0.866026,0.00983477,-0.134349,-5.96046e-05,0.00193715,0.0141632,2.23511,5,0.1,24,1.8,-2.06787,-1.60645,0.63225,0.866026,-0.118613,-0.0197574,-5.96046e-05,0.0322461,0.00530481,0.0115592,2.42419,5,0.1,25,1.8,-2.2801,-4.16627,0.55671,0.866026,0.0195622,0.00583529,0,-0.00452995,-0.0012815,0.00823828,2.27166,5,0.1,26,1.8,1.26719,2.70485,0.578213,-0.713325,-0.430006,0.021188,0.446022,0.32866,-0.0180304,0.0100964,0.320752,5,0.1,27,1.8,-0.662943,0.346109,0.619003,0.167683,-0.345844,0.0675648,-0.0821054,0.169381,-0.0331104,0.0116667,0.0650245,5,0.1,28,1.8,1.39512,-0.0239149,0.590051,-0.171727,-0.433934,0.0518516,0.696361,-0.976354,-0.0457168,0.00911159,0.935964,5,0.1,29,1.8,2.92105,3.03645,0.6076,-0.329483,-0.197965,-0.00808239,0.0106096,0.105858,0.00429153,0.0150261,0.0989626,5,0.1,30,1.8,-0.428947,-1.92072,0.59543,0.431538,0.121462,0.00459999,-0.408471,-0.114918,-0.00441074,0.0112505,0.114262,5,0.1,31,1.8,-1.17116,-2.64735,0.630355,-0.319073,0.384331,-0.000672042,-0.0205636,-0.0504255,-0.0138581,0.0105329,0.499592,5,0.1,32,1.8,1.04475,3.84193,0.500027,0.866026,-0.292051,-0.000549853,0,0.100255,0.00837445,0.00919068,1.47512,5,0.1,33,1.8,-3.09518,-3.90135,0.556704,0.254494,-0.230753,-0.035131,-0.124693,0.11301,0.0171959,0.00902787,0.0509204,5,0.1,34,1.8,-1.0036,1.64945,0.604222,-0.00872016,-0.217977,-0.00419617,-0.00226498,0.0660419,0.00435114,0.0121623,3.57411,5,0.1,35,1.8,3.77525,0.551378,0.580411,-0.272274,0.596024,-0.0200033,0.24724,-0.497431,0.0186861,0.00807925,0.163156,5,0.1,36,1.8,0.212934,1.87251,0.593068,0.596766,0.440541,0.00700951,-0.0798404,0.222921,-0.00631809,0.0183401,1.56453,5,0.1,37,1.8,-2.01519,2.62896,0.73167,0.216514,-0.381249,0.0184417,-0.20498,0.360847,-0.0174344,0.00862161,0.109167,5,0.1,38,1.8,3.42371,-0.169395,0.652737,-0.195301,0.589875,0.0285611,0.115871,0.11215,-0.0169575,0.0149113,2.58875,5,0.1,39,1.8,1.5828,-2.09192,0.580851,-0.385094,0.293726,0.0192702,0.364363,-0.278115,-0.018239,0.0111291,0.13319,5,0.1
0,1.9,1.06504,-0.314612,0.500025,0.138435,0.334752,-5.34579e-05,-0.0912026,-0.402512,-0.000193715,0.0159979,0.108045,5,0.1,1,1.9,0.787646,-3.37904,0.560449,-0.866026,0.109849,0.0124282,3.72529e-06,-0.571072,0.0379868,0.0108131,2.29637,5,0.1,2,1.9,0.967912,-3.71192,0.639638,-0.179286,-0.0686634,0.143683,0.267409,0.425801,0.4462,0.0201706,0.555338,5,0.1,3,1.9,-0.266121,3.7271,0.500021,-0.207911,0.365088,-4.79631e-05,0.0914084,-0.160411,-0.000175089,0.00808005,0.0915665,5,0.1,4,1.9,-1.17595,4.09706,0.500069,0.6203,-0.0472717,7.35745e-05,-1.10278,0.041157,-0.00100583,0.0269636,0.494245,5,0.1,5,1.9,3.35302,3.65415,0.602967,-0.279398,-0.243445,-0.0035014,0.0345409,0.230983,0.00313669,0.015201,0.288743,5,0.1,6,1.9,-1.37388,2.49806,0.553294,-0.0700174,-0.866026,0.0118395,0.004448,0,-0.000752509,0.0134881,2.26866,5,0.1,7,1.9,-1.95249,-0.246714,0.579663,0.342008,0.107769,0.0229849,-0.150375,-0.0750721,-0.010103,0.0149779,0.0638432,5,0.1,8,1.9,0.0927466,2.52928,0.612994,-0.313266,-0.844901,-0.0101222,0.0945729,0.349388,0.00208616,0.0092776,1.34511,5,0.1,9,1.9,3.69201,-1.08565,0.573275,-0.278603,0.70064,0.0465896,-0.461251,-0.0108629,-0.0541806,0.0248519,2.55343,5,0.1,10,1.9,-2.31556,2.66585,0.611881,0.356213,-0.24041,-0.0263416,-0.398353,0.26606,0.0120364,0.00954766,0.176614,5,0.1,11,1.9,4.07699,-0.795149,0.650809,-0.128632,0.803079,-0.00593821,0.569195,-1.15501,0.0929274,0.00973878,1.29859,5,0.1,12,1.9,0.575885,3.51693,0.6034,-0.80994,0.480695,-0.00306368,0.240618,-0.282452,0.00180304,0.0100813,0.632316,5,0.1,13,1.9,-1.18576,-2.25948,0.521934,-0.12576,0.372928,-0.0694323,0.127196,-0.0589788,0.0785142,0.00736677,0.192659,5,0.1,14,1.9,1.03022,-1.28941,0.568447,0.343316,0.0889368,-0.0435241,-0.150919,-0.0391006,0.0191741,0.0111592,0.0626094,5,0.1,15,1.9,-3.47703,-1.13433,0.500014,0.126842,0.866025,-2.0396e-05,0.0452399,1.49012e-05,-0.000108033,0.0166107,2.26123,5,0.1,16,1.9,1.66638,-0.121138,0.620782,-0.194227,0.864429,-0.00734357,-0.195384,0.0486895,-0.00821427,0.0238622,2.15483,5,0.1,17,1.9,1.55594,0.81924,0.500053,-0.483866,0.723225,-2.16067e-05,-0.29742,-0.342753,-0.000551343,0.0153147,0.8567,5,0.1,18,1.9,-2.4005,-0.644853,0.723416,-0.745404,0.469525,0.0252193,0.274956,-0.334848,-0.0179783,0.0108706,0.483527,5,0.1,19,1.9,-3.52538,0.912756,0.614275,0.381191,0.443975,-0.0144895,-0.348583,-0.406072,0.0132248,0.0126357,0.136006,5,0.1,20,1.9,0.577366,2.40983,0.588471,-0.129333,-0.0570465,0.011723,0.118278,0.323966,-0.0107102,0.0108396,0.357784,5,0.1,21,1.9,3.79795,-0.69619,0.5878,0.141086,-0.578224,0.0287308,0.41987,-0.244111,0.0490882,0.0126156,2.68447,5,0.1,22,1.9,-1.47535,-1.18399,0.51927,-0.0997363,-0.858134,-0.0313389,0.527106,0.176802,-0.0130348,0.00851688,2.46386,5,0.1,23,1.9,-3.85663,-1.45952,0.576075,0.248545,0.866009,0.0103262,-0.149369,-0.00064075,0.0067465,0.0141632,2.23511,5,0.1,24,1.9,-1.98171,-1.61837,0.630546,0.852614,-0.121485,-0.012244,-0.274956,-0.0733584,0.130106,0.0115592,2.42419,5,0.1,25,1.9,-2.1935,-4.16433,0.557289,0.866026,0.0193216,0.00576824,0,-0.00146031,-0.000402331,0.00823828,2.27166,5,0.1,26,1.9,1.19796,2.66341,0.580247,-0.671973,-0.399264,0.0195105,0.403985,0.29847,-0.0161156,0.0100964,0.320752,5,0.1,27,1.9,-0.646528,0.312253,0.625617,0.160991,-0.332038,0.0648667,-0.0599511,0.12368,-0.024166,0.0116667,0.0650245,5,0.1,28,1.9,1.38109,-0.0703909,0.594929,-0.112054,-0.479288,0.0450213,0.503883,0.0026162,-0.0865757,0.00911159,0.935964,5,0.1,29,1.9,2.88808,3.01712,0.606811,-0.330372,-0.18895,-0.00771619,-0.0103116,0.0829548,0.00338256,0.0150261,0.0989626,5,0.1,30,1.9,-0.387572,-1.90906,0.595872,0.398035,0.112434,0.00425335,-0.283176,-0.0726208,-0.00278652,0.0112505,0.114262,5,0.1,31,1.9,-1.20318,-2.60881,0.630198,-0.321216,0.389025,-0.00263108,-0.00797212,0.108093,-0.0235774,0.0105329,0.499592,5,0.1,32,1.9,1.13135,3.81317,0.500005,0.865834,-0.283287,3.44589e-05,-0.00765175,0.0869334,0.00362843,0.00919068,1.47512,5,0.1,33,1.9,-3.07026,-3.92394,0.553265,0.244331,-0.221544,-0.0337292,-0.0910461,0.0824779,0.012558,0.00902787,0.0509204,5,0.1,34,1.9,-1.00399,1.62798,0.603823,0.00818316,-0.211439,-0.00378741,0.426702,0.0719577,0.00391528,0.0121623,3.57411,5,0.1,35,1.9,3.74919,0.608633,0.578499,-0.249338,0.550026,-0.0182718,0.218958,-0.439998,0.0164956,0.00807925,0.163156,5,0.1,36,1.9,0.271656,1.91734,0.593585,0.572456,0.452619,0.00203177,-0.3927,0.0155419,-0.08367,0.0183401,1.56453,5,0.1,37,1.9,-1.99441,2.59236,0.733441,0.200409,-0.3529,0.0170721,-0.129536,0.227988,-0.0110194,0.00862161,0.109167,5,0.1,38,1.9,3.40498,-0.108709,0.655436,-0.177233,0.632678,0.0247904,0.235587,0.645198,-0.0545047,0.0149113,2.58875,5,0.1,39,1.9,1.54584,-2.06372,0.582701,-0.356469,0.271874,0.0178369,0.230201,-0.175729,-0.011526,0.0111291,0.13319,5,0.1
0,2,1.07846,-0.283349,0.500019,0.130078,0.288779,-6.25849e-05,-0.082314,-0.506237,-5.96046e-05,0.0171883,0.144316,5,0.1,1,2,0.701043,-3.37082,0.561873,-0.866026,0.0556231,0.01591,0,-0.503898,0.0301898,0.00891053,2.28118,5,0.1,2,2,0.951467,-3.71638,0.65616,-0.148442,-0.0187635,0.185487,0.338942,0.540853,0.370622,0.0218844,0.311925,5,0.1,3,2,-0.286434,3.76277,0.500016,-0.19797,0.347638,-5.51343e-05,0.113964,-0.200033,-2.98023e-05,0.0110147,0.127699,5,0.1,4,2,-1.11964,4.09254,0.500071,0.504687,-0.0431061,-1.93715e-05,-1.17922,0.0431538,-0.000834465,0.0250734,0.97221,5,0.1,5,2,3.32521,3.63098,0.602633,-0.276721,-0.21956,-0.00317246,0.035882,0.249624,0.00345707,0.0156816,0.267927,5,0.1,6,2,-1.38085,2.41146,0.554472,-0.069204,-0.866026,0.0117019,0.014782,0,-0.0025034,0.0118803,2.26878,5,0.1,7,2,-1.91907,-0.236345,0.581908,0.325656,0.0992581,0.0218868,-0.187516,-0.0959635,-0.0126064,0.0165667,0.205576,5,0.1,8,2,0.0619653,2.44691,0.611995,-0.301413,-0.799268,-0.00982136,0.150965,0.548244,0.00420213,0.00895999,1.08411,5,0.1,9,2,3.66219,-1.01519,0.577637,-0.313944,0.711401,0.0404358,-0.234842,0.157475,-0.0675321,0.00692318,1.11663,5,0.1,10,2,-2.28184,2.64312,0.609316,0.318855,-0.214261,-0.0248864,-0.359774,0.261545,0.017494,0.00970004,0.136144,5,0.1,11,2,4.0674,-0.721812,0.650752,-0.0601172,0.653869,0.00531077,0.756502,-1.74463,0.123739,0.00804727,0.413656,5,0.1,12,2,0.496275,3.56352,0.603103,-0.779853,0.45017,-0.00286847,0.383615,-0.33915,0.00214577,0.0102484,0.431146,5,0.1,13,2,-1.19755,-2.22242,0.515452,-0.108746,0.36819,-0.0596151,0.204504,-0.0582933,0.113904,0.00699273,0.203661,5,0.1,14,2,1.06376,-1.28072,0.564195,0.326905,0.0846833,-0.0414401,-0.188231,-0.048697,0.0239015,0.0128185,0.0478562,5,0.1,15,2,-3.46416,-1.04772,0.500012,0.130063,0.866026,-2.83122e-05,0.0133514,-2.98023e-05,-2.98023e-05,0.0136632,2.26068,5,0.1,16,2,1.6459,-0.0345755,0.620006,-0.215715,0.866025,-0.00815839,-0.210345,-1.19209e-06,-0.00730157,0.024082,1.68089,5,0.1,17,2,1.50621,0.88971,0.500048,-0.508472,0.684366,-6.70552e-05,-0.16737,-0.451386,-0.000327826,0.0143671,0.62491,5,0.1,18,2,-2.47351,-0.599617,0.725846,-0.712472,0.434513,0.0233397,0.402331,-0.375569,-0.0201762,0.012038,0.325795,5,0.1,19,2,-3.489,0.955125,0.612892,0.346178,0.403193,-0.0131607,-0.359416,-0.418752,0.0136197,0.0143605,0.0903321,5,0.1,20,2,0.565023,2.40549,0.58959,-0.117452,-0.0324309,0.0106469,0.121951,0.161171,-0.0110567,0.00967249,0.523166,5,0.1,21,2,3.81408,-0.755712,0.590914,0.180256,-0.615102,0.0334352,0.343084,-0.419885,0.0418127,0.0161043,2.47652,5,0.1,22,2,-1.48231,-1.2685,0.516068,-0.036779,-0.827664,-0.0326887,0.691056,0.443578,-0.0114739,0.00929069,2.64038,5,0.1,23,2,-3.83258,-1.37293,0.577142,0.231642,0.86576,0.0109881,-0.192165,-0.0051856,0.00563264,0.0148718,2.24712,5,0.1,24,2,-1.89831,-1.63095,0.630077,0.810218,-0.1304,0.00361651,-0.57441,-0.0924468,0.175446,0.00992562,2.54054,5,0.1,25,2,-2.1069,-4.16241,0.557863,0.866026,0.0190735,0.00569671,0,-0.00429153,-0.0012517,0.00891124,2.27167,5,0.1,26,2,1.13287,2.625,0.582116,-0.628659,-0.368243,0.0178665,0.47785,0.33021,-0.0172257,0.0110264,0.214965,5,0.1,27,2,-0.630747,0.279705,0.631975,0.1543,-0.318237,0.0621706,-0.0795722,0.164121,-0.0320673,0.0118104,0.028988,5,0.1,28,2,1.37214,-0.117147,0.59896,-0.0696599,-0.445665,0.0353158,0.350058,0.613976,-0.1041,0.00845085,0.582884,5,0.1,29,2,2.85507,2.99866,0.606057,-0.328481,-0.179929,-0.00734776,0.0606775,0.103593,0.00423193,0.0229627,0.130018,5,0.1,30,2,-0.349122,-1.89816,0.596284,0.37117,0.105733,0.00399649,-0.269875,-0.0665784,-0.0025034,0.00976256,0.0941386,5,0.1,31,2,-1.23523,-2.56935,0.629813,-0.318265,0.399661,-0.00507981,0.076592,0.0782013,-0.0240505,0.0107894,0.371829,5,0.1,32,2,1.21783,3.78534,0.500021,0.862965,-0.272661,0.000233948,-0.061214,0.133872,0.000596046,0.00986437,1.10863,5,0.1,33,2,-3.04631,-3.94566,0.549959,0.234169,-0.212336,-0.0323281,-0.120759,0.109315,0.0166893,0.00811422,0.022701,5,0.1,34,2,-1,1.60725,0.603464,0.0813439,-0.202385,-0.00339448,0.997365,0.113904,0.00393391,0.0107999,3.11679,5,0.1,35,2,3.72536,0.661415,0.576755,-0.227213,0.505075,-0.0166118,0.228882,-0.471056,0.0170767,0.00913481,0.109014,5,0.1,36,2,0.326518,1.96232,0.593307,0.520901,0.443348,-0.0080213,-0.625297,-0.200927,-0.11,0.0194282,0.812707,5,0.1,37,2,-1.97497,2.55814,0.735096,0.188458,-0.331861,0.0160545,-0.118673,0.208735,-0.010103,0.00857937,0.0684739,5,0.1,38,2,3.38857,-0.0420032,0.657607,-0.150001,0.701652,0.0183716,0.300765,0.660374,-0.0707209,0.0160636,2.37965,5,0.1,39,2,1.51127,-2.03736,0.584431,-0.335228,0.255656,0.0167727,0.210941,-0.160933,-0.01055,0.0109966,0.189818,5,0.1
0,2.1,1.09112,-0.257108,0.500013,0.123573,0.235237,-6.01634e-05,-0.054881,-0.554469,9.68575e-05,0.0171883,0.144316,5,0.1,1,2.1,0.614441,-3.36771,0.563618,-0.866026,0.00752211,0.0189799,3.72529e-06,-0.44933,0.0294559,0.00891053,2.28118,5,0.1,2,2.1,0.938235,-3.71549,0.676586,-0.116994,0.0368528,0.222766,0.290796,0.551432,0.354707,0.0218844,0.311925,5,0.1,3,2.1,-0.305759,3.79658,0.50001,-0.189238,0.328607,-5.11296e-05,0.0715088,-0.191107,9.31323e-05,0.0110147,0.127699,5,0.1,4,2.1,-1.07519,4.08828,0.500066,0.384317,-0.0435762,-8.45641e-05,-1.17183,-0.0415146,-0.000484288,0.0250734,0.97221,5,0.1,5,2.1,3.29804,3.61023,0.602333,-0.263598,-0.195919,-0.00284323,0.215918,0.227347,0.00318512,0.0156816,0.267927,5,0.1,6,2.1,-1.38772,2.32486,0.555635,-0.0684962,-0.866026,0.0115822,0.00353158,0,-0.000592321,0.0118803,2.26878,5,0.1,7,2.1,-1.88713,-0.226971,0.584037,0.315719,0.0875724,0.0206882,-0.0387579,-0.134382,-0.0120327,0.0165667,0.205576,5,0.1,8,2.1,0.0325346,2.37019,0.611033,-0.287379,-0.733038,-0.00942629,0.139946,0.677526,0.00403076,0.00895999,1.08411,5,0.1,9,2.1,3.62993,-0.945518,0.58128,-0.328241,0.662247,0.0319068,-0.050649,-1.03077,-0.0986047,0.00692318,1.11663,5,0.1,10,2.1,-2.25148,2.62289,0.606925,0.290569,-0.191393,-0.0228113,-0.224933,0.203729,0.0237711,0.00970004,0.136144,5,0.1,11,2.1,4.06557,-0.664867,0.652006,0.0265554,0.488104,0.020514,0.93025,-1.56129,0.169743,0.00804727,0.413656,5,0.1,12,2.1,0.420088,3.60693,0.602826,-0.744378,0.418678,-0.00266898,0.352856,-0.304148,0.0019297,0.0102484,0.431146,5,0.1,13,2.1,-1.20726,-2.18566,0.510095,-0.0844756,0.368664,-0.0472913,0.270329,0.0398457,0.129044,0.00699273,0.203661,5,0.1,14,2.1,1.09564,-1.27246,0.560154,0.31149,0.0806948,-0.0394828,-0.136159,-0.0352338,0.0172891,0.0128185,0.0478562,5,0.1,15,2.1,-3.45104,-0.96112,0.500009,0.132397,0.866025,-2.86847e-05,0.0251681,3.72529e-06,2.23517e-05,0.0136632,2.26068,5,0.1,16,2.1,1.62312,0.0520241,0.61915,-0.240656,0.865877,-0.00897534,-0.263907,-0.00595137,-0.00826269,0.024082,1.68089,5,0.1,17,2.1,1.45479,0.956005,0.50004,-0.517034,0.642146,-8.83825e-05,0.00483543,-0.413842,-0.000115484,0.0143671,0.62491,5,0.1,18,2.1,-2.54285,-0.55794,0.728084,-0.674864,0.399739,0.0214716,0.372797,-0.332341,-0.0178516,0.012038,0.325795,5,0.1,19,2.1,-3.45607,0.993475,0.61164,0.313176,0.364746,-0.0119096,-0.310197,-0.361331,0.0117645,0.0143605,0.0903321,5,0.1,20,2.1,0.553879,2.40279,0.590608,-0.105467,-0.0245061,0.0097706,0.119254,-0.00973046,-0.00706688,0.00967249,0.523166,5,0.1,21,2.1,3.8336,-0.820176,0.59448,0.207715,-0.680373,0.0379188,0.202641,-0.794306,0.0444278,0.0161043,2.47652,5,0.1,22,2.1,-1.48212,-1.34924,0.512787,0.043701,-0.788188,-0.0325036,0.872076,0.377133,0.0140704,0.00929069,2.64038,5,0.1,23,2.1,-3.81034,-1.28635,0.578277,0.213577,0.865825,0.0117686,-0.175267,0.00118464,0.00885129,0.0148718,2.24712,5,0.1,24,2.1,-1.82081,-1.64416,0.631582,0.734174,-0.131503,0.0285811,-0.920236,0.0509992,0.30141,0.00992562,2.54054,5,0.1,25,2.1,-2.02029,-4.16051,0.558429,0.866026,0.0188522,0.00563273,0,-0.0012219,-0.000368804,0.00891124,2.27167,5,0.1,26,2.1,1.07226,2.58974,0.583822,-0.584452,-0.337658,0.0162786,0.425383,0.291839,-0.0150278,0.0110264,0.214965,5,0.1,27,2.1,-0.615711,0.248693,0.638034,0.146355,-0.301849,0.0589693,-0.0835732,0.172362,-0.0336692,0.0118104,0.028988,5,0.1,28,2.1,1.36755,-0.157859,0.602249,-0.0170548,-0.362012,0.032832,0.654235,1.00831,0.0385605,0.00845085,0.582884,5,0.1,29,2.1,2.82253,2.98114,0.605343,-0.322111,-0.170901,-0.00694459,0.0780821,0.0843704,0.00405684,0.0229627,0.130018,5,0.1,30,2.1,-0.313647,-1.88788,0.596672,0.335711,0.100073,0.00378378,-0.427663,-0.0511855,-0.00192225,0.00976256,0.0941386,5,0.1,31,2.1,-1.26669,-2.52884,0.629178,-0.310914,0.41149,-0.00763452,0.0820681,0.130057,-0.0257231,0.0107894,0.371829,5,0.1,32,2.1,1.30408,3.75869,0.500045,0.863352,-0.260411,0.000230037,0.0231713,0.120878,-0.000558794,0.00986437,1.10863,5,0.1,33,2.1,-3.02349,-3.96635,0.546808,0.22211,-0.201418,-0.0306621,-0.126824,0.114888,0.0175238,0.00811422,0.022701,5,0.1,34,2.1,-0.985652,1.58755,0.603143,0.215052,-0.191658,-0.00303276,1.56573,0.106983,0.00338256,0.0107999,3.11679,5,0.1,35,2.1,3.70371,0.709707,0.575174,-0.20617,0.461781,-0.0150434,0.198275,-0.409439,0.0147484,0.00913481,0.109014,5,0.1,36,2.1,0.375087,2.0053,0.592042,0.447128,0.412835,-0.0164595,-0.826962,-0.39842,-0.0605695,0.0194282,0.812707,5,0.1,37,2.1,-1.95666,2.52609,0.736657,0.178371,-0.308138,0.0151955,-0.0912249,0.26682,-0.00777096,0.00857937,0.0684739,5,0.1,38,2.1,3.37513,0.0317353,0.659066,-0.118468,0.774118,0.010634,0.323281,0.722709,-0.0810549,0.0160636,2.37965,5,0.1,39,2.1,1.47845,-2.01251,0.586061,-0.323875,0.241977,0.0158757,0.0453815,-0.123739,-0.00812113,0.0109966,0.189818,5,0.1
0,2.2,1.1032,-0.236366,0.500007,0.117895,0.179724,-4.61936e-05,-0.0637174,-0.547558,0.000149012,0.0184743,0.259012,5,0.1,1,2.2,0.527838,-3.36905,0.56565,-0.866026,-0.0327647,0.0215009,0,-0.350356,0.0197589,0.010214,2.27046,5,0.1,2,2.2,0.927915,-3.70916,0.700474,-0.0901341,0.0880718,0.252993,0.247121,0.458479,0.235677,0.0209692,0.341368,5,0.1,3,2.2,-0.324323,3.82843,0.500006,-0.181814,0.307661,-3.8743e-05,0.084728,-0.234723,0.000149012,0.00835806,0.270484,5,0.1,4,2.2,-1.04226,4.08365,0.500056,0.278854,-0.049448,-0.000117719,-0.908494,-0.0674725,-0.000238419,0.0238075,0.900688,5,0.1,5,2.2,3.27299,3.59176,0.602064,-0.235546,-0.17339,-0.00252575,0.335693,0.226021,0.00324845,0.0158828,0.259481,5,0.1,6,2.2,-1.39454,2.23826,0.556788,-0.0677884,-0.866026,0.011462,0.0136495,0,-0.00229478,0.0123195,2.26889,5,0.1,7,2.2,-1.85569,-0.218926,0.586042,0.313121,0.0730071,0.01937,-0.0334978,-0.154018,-0.0147521,0.0153478,0.242263,5,0.1,8,2.2,0.00454628,2.3,0.610112,-0.271707,-0.673884,-0.00895858,0.180432,0.502944,0.00554323,0.00778875,0.858649,5,0.1,9,2.2,3.59716,-0.885659,0.583957,-0.324178,0.525096,0.0215083,0.130296,-1.62351,-0.105917,0.0251474,3.12088,5,0.1,10,2.2,-2.22345,2.60472,0.604772,0.270563,-0.172138,-0.0201821,-0.189424,0.187039,0.0285506,0.0113221,0.192086,5,0.1,11,2.2,4.07285,-0.623495,0.65491,0.117779,0.343177,0.0374109,0.859261,-1.33091,0.160217,0.0148675,3.49557,5,0.1,12,2.2,0.347544,3.64725,0.602569,-0.704746,0.387073,-0.00246912,0.458151,-0.337243,0.00217557,0.00927914,0.437783,5,0.1,13,2.2,-1.21432,-2.14862,0.506012,-0.0565559,0.371355,-0.0344262,0.279784,-0.00631809,0.125587,0.00820124,0.212033,5,0.1,14,2.2,1.12609,-1.26457,0.556295,0.296941,0.0769287,-0.0376359,-0.166178,-0.0430942,0.0210702,0.0107701,0.0214287,5,0.1,15,2.2,-3.43771,-0.874518,0.500006,0.133711,0.866026,-2.68221e-05,-0.00441074,0,8.9407e-05,0.0146511,2.26066,5,0.1,16,2.2,1.59781,0.138534,0.618215,-0.264272,0.863645,-0.00967979,-0.190735,-0.047617,-0.00524521,0.0234553,1.27277,5,0.1,17,2.2,1.40346,1.01807,0.500031,-0.506219,0.598097,-9.23872e-05,0.215471,-0.481367,2.98023e-05,0.0159532,0.529056,5,0.1,18,2.2,-2.60837,-0.519639,0.730142,-0.634062,0.365946,0.0196576,0.458837,-0.352144,-0.0189543,0.00967849,0.218076,5,0.1,19,2.2,-3.42629,1.02816,0.610507,0.282514,0.32903,-0.0107467,-0.309706,-0.360727,0.0118017,0.0125596,0.122574,5,0.1,20,2.2,0.543934,2.4,0.591552,-0.0933602,-0.033772,0.00912696,0.123769,-0.162482,-0.00619888,0.00859338,0.509572,5,0.1,21,2.2,3.85513,-0.892186,0.598475,0.220329,-0.758108,0.0417352,0.0486374,-0.693113,0.0294447,0.010073,2.3022,5,0.1,22,2.2,-1.4734,-1.42608,0.509641,0.129524,-0.746956,-0.0300914,0.809729,0.469208,0.0331104,0.0093178,2.86947,5,0.1,23,2.2,-3.78987,-1.19979,0.579496,0.195551,0.865185,0.0125632,-0.189304,-0.0167489,0.00625849,0.0135318,2.25776,5,0.1,24,2.2,-1.75238,-1.65694,0.636003,0.631049,-0.12342,0.0599548,-1.11949,0.0978112,0.30902,0.00877062,0.689567,5,0.1,25,2.2,-1.93369,-4.15864,0.55899,0.866026,0.0186324,0.00556558,0,-0.00405312,-0.00116229,0.0100382,2.27168,5,0.1,26,2.2,1.01598,2.55744,0.585375,-0.540359,-0.308138,0.014776,0.469565,0.305891,-0.0153482,0.00980462,0.146356,5,0.1,27,2.2,-0.601527,0.219441,0.643749,0.136892,-0.282333,0.0551581,-0.108361,0.223532,-0.0436604,0.0132444,0.0109347,5,0.1,28,2.2,1.36929,-0.188714,0.605853,0.0527471,-0.253079,0.0402048,0.705123,1.13033,0.0964701,0.00853647,0.33068,5,0.1,29,2.2,2.79081,2.96449,0.60467,-0.310975,-0.161791,-0.00649989,0.151992,0.102878,0.00497699,0.0183708,0.10456,5,0.1,30,2.2,-0.282394,-1.87814,0.597041,0.287817,0.0947118,0.00358224,-0.520065,-0.0591874,-0.00220537,0.0113333,0.252861,5,0.1,31,2.2,-1.29729,-2.48714,0.628293,-0.299901,0.420839,-0.00999719,0.145972,0.0367165,-0.0205636,0.00931425,0.267571,5,0.1,32,2.2,1.39037,3.7333,0.500065,0.859997,-0.246853,0.000141561,-0.12058,0.156999,-0.00113249,0.0093811,0.804313,5,0.1,33,2.2,-3.00197,-3.98587,0.543837,0.207752,-0.188404,-0.0286788,-0.164509,0.149012,0.0227094,0.00871948,0.0133812,5,0.1,34,2.2,-0.956133,1.56895,0.602856,0.375003,-0.179923,-0.00270307,1.54948,0.131965,0.00330806,0.0102011,2.65569,5,0.1,35,2.2,3.68408,0.753842,0.573743,-0.186479,0.420707,-0.0135824,0.199914,-0.42218,0.0147521,0.00904509,0.126189,5,0.1,36,2.2,0.415492,2.04434,0.590162,0.359724,0.365752,-0.0204861,-0.902161,-0.532985,-0.0216365,0.00912099,0.718427,5,0.1,37,2.2,-1.93928,2.49671,0.738137,0.168818,-0.278401,0.0143811,-0.10556,0.327706,-0.0089705,0.00943108,0.192813,5,0.1,38,2.2,3.36489,0.112429,0.659727,-0.0865161,0.83532,0.00268519,0.31054,0.458816,-0.0757277,0.0125693,2.29587,5,0.1,39,2.2,1.44621,-1.98894,0.587608,-0.321057,0.229019,0.0150248,0.0327229,-0.14323,-0.00935793,0.0111253,0.153119,5,0.1
0,2.3,1.11468,-0.221072,0.500003,0.111725,0.126956,-2.98955e-05,-0.063099,-0.500037,0.000167638,0.0184743,0.259012,5,0.1,1,2.3,0.441236,-3.374,0.567902,-0.866026,-0.0652723,0.0235154,3.57628e-06,-0.292748,0.0188984,0.010214,2.27046,5,0.1,2,2.3,0.920061,-3.69795,0.726929,-0.0676958,0.136876,0.275472,0.202544,0.492558,0.198033,0.0209692,0.341368,5,0.1,3,2.3,-0.341904,3.85804,0.500003,-0.168205,0.284677,-2.40281e-05,0.181347,-0.231564,0.000141561,0.00835806,0.270484,5,0.1,4,2.3,-1.01844,4.0783,0.500043,0.203662,-0.0580721,-0.000127964,-0.545382,-0.0965893,1.49012e-05,0.0238075,0.900688,5,0.1,5,2.3,3.25127,3.5755,0.601827,-0.197524,-0.152417,-0.00222381,0.413835,0.197083,0.00284612,0.0158828,0.259481,5,0.1,6,2.3,-1.40128,2.15165,0.557928,-0.0671815,-0.866026,0.0113607,0.0025928,0,-0.000428408,0.0123195,2.26889,5,0.1,7,2.3,-1.82446,-0.212414,0.587902,0.312069,0.0571427,0.0177956,-0.00479072,-0.160138,-0.0168569,0.0153478,0.242263,5,0.1,8,2.3,-0.0217717,2.23445,0.609243,-0.254929,-0.642576,-0.00843927,0.163601,0.177667,0.00511855,0.00778875,0.858649,5,0.1,9,2.3,3.56568,-0.838771,0.585634,-0.302717,0.434326,0.0125586,0.289664,-0.320815,-0.074219,0.0251474,3.12088,5,0.1,10,2.3,-2.19716,2.58839,0.602864,0.256462,-0.155059,-0.0182454,-0.108957,0.159562,0.0121519,0.0113221,0.192086,5,0.1,11,2.3,4.08769,-0.593325,0.659249,0.167851,0.281924,0.0475125,0.189185,-0.0253916,0.0482351,0.0148675,3.49557,5,0.1,12,2.3,0.279074,3.68437,0.602332,-0.666672,0.355951,-0.00226852,0.335528,-0.296459,0.00190735,0.00927914,0.437783,5,0.1,13,2.3,-1.21843,-2.11146,0.503173,-0.0245549,0.371898,-0.0226283,0.344574,-0.00117719,0.108562,0.00820124,0.212033,5,0.1,14,2.3,1.15497,-1.25709,0.552635,0.280648,0.0727033,-0.03557,-0.168093,-0.0435933,0.0213087,0.0107701,0.0214287,5,0.1,15,2.3,-3.42432,-0.787915,0.500004,0.13435,0.866026,-1.88127e-05,0.00926852,-3.72529e-06,6.70552e-05,0.0146511,2.26066,5,0.1,16,2.3,1.57039,0.224867,0.61722,-0.284169,0.864043,-0.0102172,-0.188075,0.0157031,-0.00489503,0.0234553,1.27277,5,0.1,17,2.3,1.35453,1.07561,0.500022,-0.46689,0.553413,-8.40053e-05,0.546046,-0.42972,0.00012666,0.0159532,0.529056,5,0.1,18,2.3,-2.6696,-0.484701,0.732018,-0.591377,0.333577,0.0179159,0.413954,-0.305662,-0.0164434,0.00967849,0.218076,5,0.1,19,2.3,-3.39933,1.05938,0.609488,0.25873,0.296151,-0.00967113,-0.18391,-0.306211,0.0100099,0.0125596,0.122574,5,0.1,20,2.3,0.535205,2.39586,0.592445,-0.0813278,-0.0483949,0.00883508,0.117604,-0.126913,-0.000551343,0.00859338,0.509572,5,0.1,21,2.3,3.87732,-0.971261,0.602804,0.222389,-0.820418,0.044858,-0.0120401,-0.516586,0.0299104,0.010073,2.3022,5,0.1,22,2.3,-1.45701,-1.49817,0.506816,0.192188,-0.692377,-0.02623,0.444479,0.620387,0.0437722,0.0093178,2.86947,5,0.1,23,2.3,-3.77117,-1.11327,0.580789,0.179032,0.865502,0.0133294,-0.148609,0.00841916,0.00802055,0.0135318,2.25776,5,0.1,24,2.3,-1.69584,-1.66877,0.643492,0.491891,-0.113087,0.0890778,-1.5933,0.0987649,0.264816,0.00877062,0.689567,5,0.1,25,2.3,-1.84709,-4.15679,0.559543,0.866026,0.0184312,0.00550877,0,-0.00107288,-0.000298023,0.0100382,2.27168,5,0.1,26,2.3,0.964296,2.52811,0.58678,-0.493064,-0.278909,0.0133564,0.483271,0.28488,-0.0134297,0.00980462,0.146356,5,0.1,27,2.3,-0.588387,0.192341,0.649043,0.12579,-0.259431,0.050685,-0.115529,0.238302,-0.0465438,0.0132444,0.0109347,5,0.1,28,2.3,1.37828,-0.208642,0.610542,0.128092,-0.148391,0.0550263,0.765763,0.956154,0.183523,0.00853647,0.33068,5,0.1,29,2.3,2.76049,2.94897,0.604044,-0.295167,-0.147213,-0.00601225,0.171125,0.182882,0.00490993,0.0183708,0.10456,5,0.1,30,2.3,-0.256312,-1.86895,0.597389,0.233101,0.0891605,0.00337493,-0.563545,-0.0547692,-0.00204891,0.0113333,0.252861,5,0.1,31,2.3,-1.32658,-2.4448,0.62719,-0.286049,0.426066,-0.0120225,0.140674,0.0454187,-0.0189282,0.00931425,0.267571,5,0.1,32,2.3,1.47595,3.70935,0.500073,0.852515,-0.23235,3.59491e-05,-0.0716448,0.141099,-0.000968575,0.0093811,0.804313,5,0.1,33,2.3,-2.982,-4.00398,0.541081,0.191589,-0.173761,-0.0264478,-0.163749,0.148401,0.0226013,0.00871948,0.0133812,5,0.1,34,2.3,-0.910489,1.55158,0.602601,0.539593,-0.167843,-0.0024057,1.65514,0.115439,0.00272319,0.0102011,2.65569,5,0.1,35,2.3,3.66628,0.794138,0.572447,-0.170718,0.387927,-0.0124174,0.126228,-0.25877,0.00934675,0.00904509,0.126189,5,0.1,36,2.3,0.446681,2.07711,0.588057,0.262131,0.280312,-0.0211324,-1.01919,-1.10212,0.00689551,0.00912099,0.718427,5,0.1,37,2.3,-1.9229,2.47069,0.739532,0.15892,-0.240593,0.0135395,-0.0976473,0.418723,-0.00830367,0.00943108,0.192813,5,0.1,38,2.3,3.35772,0.197589,0.659618,-0.0574607,0.862165,-0.00482155,0.268653,0.115586,-0.0722297,0.0125693,2.29587,5,0.1,39,2.3,1.41465,-1.96672,0.589066,-0.306838,0.215589,0.0141464,0.240102,-0.132501,-0.00867248,0.0111253,0.153119,5,0.1
0,2.4,1.12551,-0.210746,0.500001,0.104707,0.0809908,-1.49012e-05,-0.079453,-0.414297,0.000149012,0.0161058,0.010065,5,0.1,1,2.4,0.354633,-3.38185,0.570335,-0.866025,-0.0901461,0.0250041,-1.43051e-05,-0.200391,0.00977516,0.0102579,2.26402,5,0.1,2,2.4,0.914236,-3.68191,0.755298,-0.049451,0.182265,0.289947,0.163198,0.397205,0.0807941,0.0204151,0.253852,5,0.1,3,2.4,-0.357701,3.88531,0.500001,-0.146699,0.260264,-1.19209e-05,0.243306,-0.26083,8.9407e-05,0.00842175,0.259382,5,0.1,4,2.4,-1,4.07201,0.500031,0.172819,-0.0673056,-0.000119209,-0.0910759,-0.0815392,0.000208616,0.0245343,0.543386,5,0.1,5,2.4,3.23364,3.56122,0.601619,-0.154752,-0.133348,-0.00194758,0.433087,0.186801,0.00271201,0.0171153,0.25674,5,0.1,6,2.4,-1.40798,2.06505,0.55906,-0.0665665,-0.866026,0.0112578,0.0125766,5.96046e-05,-0.00211596,0.0103496,2.26899,5,0.1,7,2.4,-1.79334,-0.207489,0.589593,0.309229,0.0415284,0.015983,-0.0641346,-0.149794,-0.0194609,0.0152047,0.741892,5,0.1,8,2.4,-0.0464181,2.17091,0.608425,-0.237562,-0.628865,-0.00788867,0.189517,0.137091,0.00610948,0.00830832,0.647986,5,0.1,9,2.4,3.53706,-0.795668,0.586563,-0.268,0.437886,0.00644773,0.396252,0.290453,-0.0490546,0.0250171,2.75362,5,0.1,10,2.4,-2.17204,2.57367,0.601086,0.245947,-0.139385,-0.0174046,-0.113249,0.157475,0.00616908,0.00959863,0.252578,5,0.1,11,2.4,4.10464,-0.563997,0.664101,0.164235,0.314623,0.04825,-0.22316,0.57584,-0.0279844,0.0146502,2.94825,5,0.1,12,2.4,0.214098,3.71847,0.602115,-0.632127,0.325876,-0.00207573,0.378267,-0.312805,0.00199676,0.00874763,0.309093,5,0.1,13,2.4,-1.21916,-2.07439,0.501413,0.00961423,0.368035,-0.0129879,0.32711,-0.0885725,0.0832379,0.00847883,0.215125,5,0.1,14,2.4,1.18214,-1.25005,0.549192,0.261939,0.0678539,-0.0331983,-0.211537,-0.0547767,0.0267923,0.0111126,0.012795,5,0.1,15,2.4,-3.41087,-0.701313,0.500003,0.134218,0.866026,-1.3411e-05,-0.0174046,0,5.96046e-05,0.0165348,2.33562,5,0.1,16,2.4,1.54116,0.311198,0.616179,-0.298646,0.860403,-0.010556,-0.0880957,-0.112443,-0.00149012,0.0229841,0.93017,5,0.1,17,2.4,1.31094,1.12877,0.500014,-0.401649,0.509211,-6.85453e-05,0.737488,-0.466168,0.000178814,0.0165311,0.46749,5,0.1,18,2.4,-2.72662,-0.452864,0.733728,-0.548053,0.303044,0.016275,0.465512,-0.312254,-0.0168085,0.00962705,0.21225,5,0.1,19,2.4,-3.37429,1.08749,0.60857,0.242603,0.266188,-0.00869036,-0.151992,-0.299692,0.00977516,0.0135669,0.156634,5,0.1,20,2.4,0.527654,2.39047,0.593329,-0.069727,-0.0586629,0.00885576,0.114858,-0.0767708,0.000298023,0.00959643,0.45063,5,0.1,21,2.4,3.89936,-1.05538,0.60742,0.217199,-0.856462,0.047189,-0.0941753,-0.191271,0.0145435,0.00956095,2.25479,5,0.1,22,2.4,-1.43616,-1.56407,0.504426,0.219071,-0.623417,-0.0214309,0.0988245,0.755429,0.0516772,0.00959151,2.98533,5,0.1,23,2.4,-3.75399,-1.02672,0.582158,0.164539,0.8652,0.0139877,-0.146627,-0.0165701,0.00447035,0.0150242,2.26483,5,0.1,24,2.4,-1.65492,-1.67964,0.653593,0.324923,-0.105029,0.111482,-1.69116,0.058949,0.177503,0.00801468,0.417369,5,0.1,25,2.4,-1.76049,-4.15495,0.560091,0.866026,0.018239,0.00544935,-5.96046e-05,-0.00405312,-0.00116229,0.0107636,2.27169,5,0.1,26,2.4,0.917474,2.50164,0.588049,-0.442609,-0.250131,0.0120252,0.529885,0.294685,-0.0134706,0.0122193,0.111338,5,0.1,27,2.4,-0.57641,0.167638,0.653869,0.113499,-0.234083,0.0457346,-0.131249,0.270769,-0.0528991,0.0113608,0.00552381,5,0.1,28,2.4,1.39478,-0.219038,0.616995,0.199687,-0.0630036,0.074029,0.640094,0.747338,0.184238,0.00790267,0.243845,5,0.1,29,2.4,2.73191,2.93526,0.603468,-0.275618,-0.126302,-0.00549406,0.224233,0.230312,0.00551343,0.0148156,0.135316,5,0.1,30,2.4,-0.235817,-1.86032,0.597715,0.17702,0.0832677,0.00315458,-0.549637,-0.0652075,-0.00247359,0.0105263,0.251281,5,0.1,31,2.4,-1.35442,-2.4021,0.625903,-0.270158,0.426131,-0.0136107,0.183642,-0.0594854,-0.0121295,0.00933946,0.186817,5,0.1,32,2.4,1.56064,3.68685,0.500072,0.83845,-0.217283,-4.91738e-05,-0.239253,0.165701,-0.000745058,0.00895845,2.29071,5,0.1,33,2.4,-2.96369,-4.02059,0.538553,0.174206,-0.158012,-0.0240475,-0.18692,0.169516,0.025779,0.00855595,0.00416346,5,0.1,34,2.4,-0.848669,1.53538,0.602374,0.69104,-0.155848,-0.00214428,1.31112,0.128508,0.0025332,0.0086449,1.44191,5,0.1,35,2.4,3.64979,0.831736,0.571248,-0.159329,0.364548,-0.0115752,0.109673,-0.2276,0.00807643,0.0100567,0.0734353,5,0.1,36,2.4,0.467814,2.0992,0.586013,0.161264,0.158453,-0.019446,-0.974923,-1.27757,0.0253618,0.00822688,0.422428,5,0.1,37,2.4,-1.90752,2.4488,0.740843,0.14841,-0.196445,0.0126436,-0.11611,0.456095,-0.00986457,0.0087832,0.187426,5,0.1,38,2.4,3.35324,0.284095,0.658795,-0.0330925,0.866025,-0.011389,0.217557,1.43051e-05,-0.0575781,0.0127595,2.31551,5,0.1,39,2.4,1.38543,-1.94585,0.590435,-0.275236,0.20133,0.0132114,0.381589,-0.157535,-0.0103116,0.00983891,0.137953,5,0.1
