id,t,px,py,pz,vx,vy,vz,ax,ay,az,planning_time,qp_cost,planning_report,size,id,t,px,py,pz,vx,vy,vz,ax,ay,az,planning_time,qp_cost,planning_report,size,id,t,px,py,pz,vx,vy,vz,ax,ay,az,planning_time,qp_cost,planning_report,size,id,t,px,py,pz,vx,vy,vz,ax,ay,az,planning_time,qp_cost,planning_report,size,id,t,px,py,pz,vx,vy,vz,ax,ay,az,planning_time,qp_cost,planning_report,size,id,t,px,py,pz,vx,vy,vz,ax,ay,az,planning_time,qp_cost,planning_report,size,id,t,px,py,pz,vx,vy,vz,ax,ay,az,planning_time,qp_cost,planning_report,size,id,t,px,py,pz,vx,vy,vz,ax,ay,az,planning_time,qp_cost,planning_report,size,id,t,px,py,pz,vx,vy,vz,ax,ay,az,planning_time,qp_cost,planning_report,size,id,t,px,py,pz,vx,vy,vz,ax,ay,az,planning_time,qp_cost,planning_report,size,id,t,px,py,pz,vx,vy,vz,ax,ay,az,planning_time,qp_cost,planning_report,size,id,t,px,py,pz,vx,vy,vz,ax,ay,az,planning_time,qp_cost,planning_report,size,id,t,px,py,pz,vx,vy,vz,ax,ay,az,planning_time,qp_cost,planning_report,size,id,t,px,py,pz,vx,vy,vz,ax,ay,az,planning_time,qp_cost,planning_report,size,id,t,px,py,pz,vx,vy,vz,ax,ay,az,planning_time,qp_cost,planning_report,size,id,t,px,py,pz,vx,vy,vz,ax,ay,az,planning_time,qp_cost,planning_report,size,id,t,px,py,pz,vx,vy,vz,ax,ay,az,planning_time,qp_cost,planning_report,size,id,t,px,py,pz,vx,vy,vz,ax,ay,az,planning_time,qp_cost,planning_report,size,id,t,px,py,pz,vx,vy,vz,ax,ay,az,planning_time,qp_cost,planning_report,size,id,t,px,py,pz,vx,vy,vz,ax,ay,az,planning_time,qp_cost,planning_report,size,id,t,px,py,pz,vx,vy,vz,ax,ay,az,planning_time,qp_cost,planning_report,size,id,t,px,py,pz,vx,vy,vz,ax,ay,az,planning_time,qp_cost,planning_report,size,id,t,px,py,pz,vx,vy,vz,ax,ay,az,planning_time,qp_cost,planning_report,size,id,t,px,py,pz,vx,vy,vz,ax,ay,az,planning_time,qp_cost,planning_report,size,id,t,px,py,pz,vx,vy,vz,ax,ay,az,planning_time,qp_cost,planning_report,size,id,t,px,py,pz,vx,vy,vz,ax,ay,az,planning_time,qp_cost,planning_report,size,id,t,px,py,pz,vx,vy,vz,ax,ay,az,planning_time,qp_cost,planning_report,size,id,t,px,py,pz,vx,vy,vz,ax,ay,az,planning_time,qp_cost,planning_report,size,id,t,px,py,pz,vx,vy,vz,ax,ay,az,planning_time,qp_cost,planning_report,size,id,t,px,py,pz,vx,vy,vz,ax,ay,az,planning_time,qp_cost,planning_report,size,id,t,px,py,pz,vx,vy,vz,ax,ay,az,planning_time,qp_cost,planning_report,size,id,t,px,py,pz,vx,vy,vz,ax,ay,az,planning_time,qp_cost,planning_report,size,id,t,px,py,pz,vx,vy,vz,ax,ay,az,planning_time,qp_cost,planning_report,size,id,t,px,py,pz,vx,vy,vz,ax,ay,az,planning_time,qp_cost,planning_report,size,id,t,px,py,pz,vx,vy,vz,ax,ay,az,planning_time,qp_cost,planning_report,size,id,t,px,py,pz,vx,vy,vz,ax,ay,az,planning_time,qp_cost,planning_report,size,id,t,px,py,pz,vx,vy,vz,ax,ay,az,planning_time,qp_cost,planning_report,size,id,t,px,py,pz,vx,vy,vz,ax,ay,az,planning_time,qp_cost,planning_report,size,id,t,px,py,pz,vx,vy,vz,ax,ay,az,planning_time,qp_cost,planning_report,size,id,t,px,py,pz,vx,vy,vz,ax,ay,az,planning_time,qp_cost,planning_report,size
0,0,4.35579,-2.09808e-05,0.619463,0,0,0,0,0,0,0.0299929,3.5122,5,0.1,1,0,0.927692,-1.32024,0.581022,0,0,0,0,0,0,0.011126,1.59589,5,0.1,2,0,-3.10493,-4.25465,0.626714,0,0,0,0,0,0,0.00984694,3.5183,5,0.1,3,0,1.57159,3.71356,0.579939,0,0,0,0,0,0,0.0122745,2.98568,5,0.1,4,0,-1.86117,-4.36667,0.578158,0,0,0,0,0,0,0.00928612,0.402742,5,0.1,5,0,-3.58256,-0.74905,0.568354,0,0,0,0,0,0,0.0101719,3.51219,5,0.1,6,0,-4.19058,1.29082,0.511901,0,0,0,0,0,0,0.0145701,3.51219,5,0.1,7,0,0.234685,4.26037,0.671955,0,0,0,0,0,0,0.0108754,3.5122,5,0.1,8,0,-1.46797,-0.561831,0.62231,0,0,0,0,0,0,0.0137215,3.51521,5,0.1,9,0,-2.96124,3.77474,0.694185,0,0,0,0,0,0,0.0180746,3.5122,5,0.1,10,0,1.72513,-1.91659,0.577094,0,0,0,0,0,0,0.0238931,3.5122,5,0.1,11,0,1.57904,-4.0714,0.501418,0,0,0,0,0,0,0.0240316,3.5122,5,0.1,12,0,-3.85149,-3.76748,0.632486,0,0,0,0,0,0,0.0110887,3.5122,5,0.1,13,0,2.30179,-2.71295,0.680182,0,0,0,0,0,0,0.0192654,3.5122,5,0.1,14,0,-1.45203,-2.47628,0.604071,0,0,0,0,0,0,0.0348165,3.5122,5,0.1,15,0,-1.0629,-3.15861,0.671898,0,0,0,0,0,0,0.0272589,3.5122,5,0.1,16,0,3.88341,-4.14848,0.636462,0,0,0,0,0,0,0.00766227,3.51219,5,0.1,17,0,0.628713,3.59551,0.523006,0,0,0,0,0,0,0.0118967,3.5122,5,0.1,18,0,-2.49893,-4.27845,0.546853,0,0,0,0,0,0,0.0129624,1.75339,5,0.1,19,0,-3.76496,3.5609,0.53881,0,0,0,0,0,0,0.0159222,3.5122,5,0.1,20,0,-3.92224,-1.38858,0.588709,0,0,0,0,0,0,0.0436338,3.51219,5,0.1,21,0,-1.03619,1.05918,0.672208,0,0,0,0,0,0,0.0127961,3.51219,5,0.1,22,0,-0.0808101,1.83358,0.527652,0,0,0,0,0,0,0.0108774,0.585903,5,0.1,23,0,-1.33871,0.0571914,0.693389,0,0,0,0,0,0,0.0101519,0.844018,5,0.1,24,0,2.47638,3.04935,0.613166,0,0,0,0,0,0,0.0150396,3.5122,5,0.1,25,0,-2.88397,-0.437753,0.571798,0,0,0,0,0,0,0.0137495,1.35436,5,0.1,26,0,3.636,0.418496,0.591142,0,0,0,0,0,0,0.012012,3.5122,5,0.1,27,0,4.16827,2.80912,0.65916,0,0,0,0,0,0,0.00959946,3.51219,5,0.1,28,0,1.67196,0.317181,0.60005,0,0,0,0,0,0,0.0268181,1.13221,5,0.1,29,0,-0.824206,-1.09688,0.537453,0,0,0,0,0,0,0.0112504,3.5122,5,0.1,30,0,-3.48757,-2.89626,0.591528,0,0,0,0,0,0,0.01386,3.5122,5,0.1,31,0,3.77947,-2.59823,0.618254,0,0,0,0,0,0,0.0203982,3.5122,5,0.1,32,0,-0.254303,-1.27598,0.610832,0,0,0,0,0,0,0.00966812,1.4315,5,0.1,33,0,-2.19253,-1.4495,0.575315,0,0,0,0,0,0,0.0127434,3.51219,5,0.1,34,0,2.32246,3.91554,0.527913,0,0,0,0,0,0,0.0249971,3.51219,5,0.1,35,0,-2.25918,4.34386,0.52556,0,0,0,0,0,0,0.010007,3.34037,5,0.1,36,0,-2.99832,-1.3328,0.650712,0,0,0,0,0,0,0.0129705,0.683383,5,0.1,37,0,2.04139,-1.10214,0.533998,0,0,0,0,0,0,0.00925993,2.88855,5,0.1,38,0,-3.56708,4.13684,0.683941,0,0,0,0,0,0,0.0103494,2.75111,5,0.1,39,0,2.17504,-4.17518,0.511257,0,0,0,0,0,0,0.020134,3.5122,5,0.1
0,0.1,4.35501,0.00191617,0.61945,-0.0221014,0.0549916,-0.00035679,-0.392914,0.977628,-0.00634417,0.0299929,3.5122,5,0.1,1,0.1,0.927977,-1.31886,0.581042,0.00806954,0.0391245,0.000562426,0.143461,0.695542,0.00999495,0.011126,1.59589,5,0.1,2,0.1,-3.10316,-4.25407,0.626761,0.0503808,0.0164516,0.00134064,0.895649,0.29245,0.0238381,0.00984694,3.5183,5,0.1,3,0.1,1.57041,3.71203,0.57996,-0.0332372,-0.0433709,0.000594277,-0.590883,-0.771031,0.0105686,0.0122745,2.98568,5,0.1,4,0.1,-1.86135,-4.36599,0.578241,-0.00507273,0.0192769,0.00234237,-0.0901818,0.342697,0.0416376,0.00928612,0.402742,5,0.1,5,0.1,-3.58047,-0.749061,0.568351,0.0592671,-0.000335369,-7.06874e-05,1.05363,-0.00596419,-0.00125542,0.0101719,3.51219,5,0.1,6,0.1,-4.18935,1.28913,0.51185,0.0349484,-0.0478471,-0.00145128,0.621289,-0.85061,-0.0257976,0.0145701,3.51219,5,0.1,7,0.1,0.232661,4.25986,0.671917,-0.0574832,-0.0143953,-0.00107875,-1.02192,-0.255913,-0.0191741,0.0108754,3.5122,5,0.1,8,0.1,-1.4681,-0.559905,0.622296,-0.00365544,0.0546493,-0.000375416,-0.0649765,0.971541,-0.00667945,0.0137215,3.51521,5,0.1,9,0.1,-2.95917,3.77501,0.694241,0.0587258,0.00784248,0.00159005,1.04402,0.139415,0.0282712,0.0180746,3.5122,5,0.1,10,0.1,1.72483,-1.91453,0.577108,-0.00863299,0.0586351,0.000376534,-0.153482,1.0424,0.00669435,0.0238931,3.5122,5,0.1,11,0.1,1.5789,-4.06931,0.501406,-0.00391789,0.0591367,-0.000344496,-0.069648,1.05131,-0.0061281,0.0240316,3.5122,5,0.1,12,0.1,-3.84942,-3.76771,0.632448,0.0588756,-0.00672452,-0.00108583,1.04667,-0.119522,-0.0193007,0.0110887,3.5122,5,0.1,13,0.1,2.30026,-2.71153,0.680223,-0.0434473,0.040295,0.00116602,-0.772417,0.716358,0.0207275,0.0192654,3.5122,5,0.1,14,0.1,-1.45119,-2.47437,0.604068,0.0238081,0.0542764,-8.40053e-05,0.42326,0.964895,-0.00149757,0.0348165,3.5122,5,0.1,15,0.1,-1.06241,-3.15658,0.671851,0.0139119,0.0575971,-0.00131102,0.247322,1.02396,-0.0233091,0.0272589,3.5122,5,0.1,16,0.1,3.88324,-4.1464,0.636503,-0.00477955,0.0590645,0.00116732,-0.0849664,1.05003,0.0207499,0.00766227,3.51219,5,0.1,17,0.1,0.627701,3.59368,0.522937,-0.0287246,-0.0518061,-0.00194414,-0.510655,-0.920981,-0.0345595,0.0118967,3.5122,5,0.1,18,0.1,-2.49804,-4.27728,0.546908,0.0251576,0.0334412,0.00157505,0.447243,0.594497,0.0279993,0.0129624,1.75339,5,0.1,19,0.1,-3.76321,3.55977,0.53885,0.0497162,-0.0322461,0.00112047,0.883847,-0.573248,0.0199191,0.0159222,3.5122,5,0.1,20,0.1,-3.92044,-1.38752,0.588715,0.0510365,0.0301322,0.000159163,0.907332,0.535674,0.0028275,0.0436338,3.51219,5,0.1,21,0.1,-1.03648,1.05711,0.672174,-0.00826307,-0.0586813,-0.000971928,-0.146896,-1.04322,-0.0172779,0.0127961,3.51219,5,0.1,22,0.1,-0.0810389,1.83276,0.527728,-0.00649553,-0.023221,0.0021439,-0.115476,-0.412814,0.0381172,0.0108774,0.585903,5,0.1,23,0.1,-1.33966,0.0568185,0.693448,-0.0270052,-0.0105851,0.00167759,-0.480093,-0.188179,0.0298209,0.0101519,0.844018,5,0.1,24,0.1,2.47441,3.05003,0.613157,-0.0560805,0.0191763,-0.000252295,-0.996977,0.340909,-0.00448897,0.0150396,3.5122,5,0.1,25,0.1,-2.88269,-0.437609,0.571828,0.0365674,0.00408213,0.000835676,0.650108,0.0725742,0.0148527,0.0137495,1.35436,5,0.1,26,0.1,3.63573,0.420566,0.591149,-0.00764877,0.0587722,0.000201631,-0.135988,1.04484,0.00358745,0.012012,3.5122,5,0.1,27,0.1,4.16618,2.80923,0.659125,-0.0591762,0.00316538,-0.000980962,-1.05199,0.0562817,-0.0174381,0.00959946,3.51219,5,0.1,28,0.1,1.67147,0.318259,0.600049,-0.0139866,0.0306066,-1.58325e-06,-0.248641,0.54412,-2.6077e-05,0.0268181,1.13221,5,0.1,29,0.1,-0.822264,-1.09611,0.537513,0.0551258,0.0217013,0.00170348,0.980016,0.385806,0.0302829,0.0112504,3.5122,5,0.1,30,0.1,-3.48747,-2.89417,0.591532,0.00261553,0.0592098,0.000118092,0.0465065,1.05262,0.00210106,0.01386,3.5122,5,0.1,31,0.1,3.77933,-2.59615,0.618184,-0.00389591,0.0591073,-0.00198986,-0.0692606,1.05079,-0.0353754,0.0203982,3.5122,5,0.1,32,0.1,-0.254351,-1.27464,0.610821,-0.00135419,0.0378126,-0.000321027,-0.0240747,0.672214,-0.00571087,0.00966812,1.4315,5,0.1,33,0.1,-2.19045,-1.44966,0.575335,0.0590961,-0.00448357,0.000552181,1.05061,-0.0797138,0.00981614,0.0127434,3.51219,5,0.1,34,0.1,2.3209,3.91415,0.527973,-0.0442654,-0.0393748,0.00170404,-0.78696,-0.699997,0.0302978,0.0249971,3.51219,5,0.1,35,0.1,-2.26119,4.34356,0.525694,-0.0570517,-0.00844821,0.00382168,-1.01425,-0.150234,0.0679381,0.010007,3.34037,5,0.1,36,0.1,-2.99757,-1.33226,0.650698,0.0211746,0.0153285,-0.000387244,0.376433,0.272512,-0.00688434,0.0129705,0.683383,5,0.1,37,0.1,2.04172,-1.10028,0.534154,0.00938475,0.0527395,0.00441596,0.166833,0.937589,0.0785068,0.00925993,2.88855,5,0.1,38,0.1,-3.56583,4.13548,0.683886,0.0354722,-0.0386126,-0.00153845,0.630617,-0.686437,-0.0273474,0.0103494,2.75111,5,0.1,39,0.1,2.17469,-4.17312,0.511235,-0.00978336,0.058452,-0.000614673,-0.173926,1.03912,-0.0109226,0.020134,3.5122,5,0.1
0,0.2,4.35053,0.0130865,0.619378,-0.0698566,0.173801,-0.00112653,-0.524044,1.3035,-0.00849366,0.0263608,2.92579,5,0.1,1,0.2,0.929616,-1.31091,0.581156,0.0255033,0.123653,0.00177771,0.191301,0.927329,0.0133216,0.0142034,1.30935,5,0.1,2,0.2,-3.09292,-4.25073,0.627033,0.159234,0.0519991,0.0042364,1.19412,0.389814,0.0317991,0.010542,2.99188,5,0.1,3,0.2,1.56366,3.70322,0.580081,-0.105047,-0.137079,0.00187904,-0.787854,-1.02794,0.0140965,0.0117903,2.4496,5,0.1,4,0.2,-1.86238,-4.36208,0.578717,-0.0160336,0.0609159,0.0074029,-0.120223,0.457048,0.0555217,0.00919657,0.330428,5,0.1,5,0.2,-3.56844,-0.74913,0.568337,0.187314,-0.00105947,-0.000223517,1.40488,-0.00795722,-0.00166893,0.00872526,2.92579,5,0.1,6,0.2,-4.18225,1.27941,0.511556,0.110447,-0.15122,-0.00458658,0.828266,-1.13416,-0.0343919,0.0123463,2.58535,5,0.1,7,0.2,0.220984,4.25694,0.671698,-0.181675,-0.0455022,-0.00340939,-1.36256,-0.341177,-0.0255704,0.0108983,2.92579,5,0.1,8,0.2,-1.46884,-0.548805,0.62222,-0.0115514,0.172718,-0.00118613,-0.0867248,1.29542,-0.00891089,0.0100891,3.08329,5,0.1,9,0.2,-2.94724,3.77661,0.694564,0.185603,0.0247896,0.00502616,1.39189,0.185728,0.0376701,0.0177333,2.92581,5,0.1,10,0.2,1.72307,-1.90262,0.577184,-0.027284,0.185317,0.0011906,-0.204682,1.3898,0.00891089,0.0191116,2.9258,5,0.1,11,0.2,1.5781,-4.0573,0.501336,-0.0123829,0.186896,-0.00108927,-0.092864,1.4019,-0.00819564,0.0182921,2.92582,5,0.1,12,0.2,-3.83746,-3.76908,0.632227,0.186074,-0.021255,-0.00343174,1.39558,-0.159264,-0.0257492,0.00918006,2.9258,5,0.1,13,0.2,2.29143,-2.70335,0.68046,-0.137317,0.127351,0.00368506,-1.02985,0.955105,0.0276268,0.0148467,2.9258,5,0.1,14,0.2,-1.44635,-2.46334,0.604051,0.0752449,0.171542,-0.000266731,0.564396,1.28651,-0.00196695,0.0332038,2.92579,5,0.1,15,0.2,-1.05958,-3.14488,0.671585,0.0439644,0.182039,-0.00414401,0.329852,1.36518,-0.031054,0.0242099,2.9258,5,0.1,16,0.2,3.88227,-4.13441,0.63674,-0.0151098,0.18667,0.00368953,-0.11313,1.39999,0.0276566,0.0081285,2.9258,5,0.1,17,0.2,0.621866,3.58316,0.522542,-0.0907838,-0.163734,-0.00614375,-0.680864,-1.22797,-0.0461042,0.0117586,2.92579,5,0.1,18,0.2,-2.49293,-4.27048,0.547228,0.0795066,0.105691,0.00497848,0.596404,0.792503,0.0373125,0.0140113,1.43858,5,0.1,19,0.2,-3.75311,3.55322,0.539078,0.157124,-0.101912,0.00354052,1.17862,-0.764251,0.0265837,0.0167136,2.92579,5,0.1,20,0.2,-3.91008,-1.3814,0.588747,0.161302,0.0952333,0.000503659,1.20974,0.714242,0.00375509,0.049408,2.9258,5,0.1,21,0.2,-1.03815,1.04519,0.671976,-0.0261158,-0.185463,-0.00307262,-0.195861,-1.39093,-0.0230074,0.0118871,2.9258,5,0.1,22,0.2,-0.0823583,1.82805,0.528163,-0.020529,-0.0733882,0.00677556,-0.15397,-0.550449,0.050813,0.0102951,0.480703,5,0.1,23,0.2,-1.34515,0.0546684,0.693789,-0.0853509,-0.033454,0.00530183,-0.640094,-0.250906,0.0397563,0.0115941,0.692476,5,0.1,24,0.2,2.46301,3.05392,0.613106,-0.17724,0.060606,-0.000797212,-1.3293,0.454545,-0.00599027,0.0143912,2.92579,5,0.1,25,0.2,-2.87526,-0.43678,0.571997,0.115573,0.0129014,0.00264198,0.866771,0.0967681,0.0197887,0.0188817,1.11118,5,0.1,26,0.2,3.63417,0.432504,0.59119,-0.0241816,0.18575,0.00063777,-0.181198,1.39311,0.00476837,0.0102344,2.92579,5,0.1,27,0.2,4.15416,2.80988,0.658926,-0.187016,0.0100017,-0.00310093,-1.40285,0.0751019,-0.0232458,0.0107793,2.92578,5,0.1,28,0.2,1.66863,0.324476,0.600049,-0.0442028,0.0967324,-4.47035e-06,-0.331521,0.725493,-2.98023e-05,0.0242713,0.928925,5,0.1,29,0.2,-0.811067,-1.0917,0.537859,0.174226,0.06859,0.0053823,1.30665,0.514328,0.0404119,0.0132244,2.97042,5,0.1,30,0.2,-3.48694,-2.88214,0.591556,0.00826716,0.187135,0.000374019,0.0618696,1.40357,0.00280142,0.0138454,2.92579,5,0.1,31,0.2,3.77854,-2.58414,0.61778,-0.0123143,0.186801,-0.00628829,-0.0923872,1.40119,-0.0471473,0.020207,2.92612,5,0.1,32,0.2,-0.254626,-1.26696,0.610756,-0.00427961,0.119507,-0.00101477,-0.032112,0.896275,-0.00759959,0.0115229,1.17448,5,0.1,33,0.2,-2.17845,-1.45057,0.575447,0.186771,-0.014171,0.00174344,1.40083,-0.106335,0.013113,0.0130276,2.92579,5,0.1,34,0.2,2.31191,3.90615,0.52832,-0.139904,-0.124443,0.00538528,-1.04928,-0.93329,0.0404119,0.0276795,2.92579,5,0.1,35,0.2,-2.27278,4.34184,0.526471,-0.18031,-0.0267029,0.0120789,-1.35243,-0.200272,0.0905693,0.0154976,2.7406,5,0.1,36,0.2,-2.99327,-1.32915,0.650619,0.0669241,0.0484467,-0.00122339,0.501871,0.36329,-0.00917912,0.0101879,0.560684,5,0.1,37,0.2,2.04363,-1.08957,0.535051,0.0296593,0.166681,0.0139564,0.222325,1.25015,0.104666,0.0175982,2.36991,5,0.1,38,0.2,-3.55862,4.12764,0.683574,0.11211,-0.122035,-0.00486225,0.840783,-0.915289,-0.036478,0.0107602,2.25715,5,0.1,39,0.2,2.17271,-4.16125,0.51111,-0.0309229,0.184739,-0.00194311,-0.231862,1.38545,-0.0145435,0.0209605,2.9258,5,0.1
0,0.3,4.34063,0.0377156,0.619218,-0.130123,0.323715,-0.002102,-0.643969,1.60197,-0.0104159,0.0263608,2.92579,5,0.1,1,0.3,0.933228,-1.2934,0.581408,0.0474468,0.23003,0.00330629,0.234075,1.1348,0.0163056,0.0142034,1.30935,5,0.1,2,0.3,-3.07053,-4.24341,0.627642,0.291805,0.0955202,0.00812039,1.38287,0.455767,0.0431091,0.010542,2.99188,5,0.1,3,0.3,1.54879,3.6838,0.580347,-0.195423,-0.254999,0.00349572,-0.964083,-1.25794,0.0172444,0.0117903,2.4496,5,0.1,4,0.3,-1.86465,-4.35345,0.579765,-0.0298252,0.113341,0.0137718,-0.147127,0.559211,0.0679418,0.00919657,0.330428,5,0.1,5,0.3,-3.54189,-0.74928,0.568305,0.348887,-0.00197422,-0.000415649,1.72657,-0.00977516,-0.00205263,0.00872526,2.92579,5,0.1,6,0.3,-4.16676,1.25802,0.510897,0.201353,-0.280616,-0.00879811,0.940531,-1.37532,-0.0468232,0.0123463,2.58535,5,0.1,7,0.3,0.195239,4.25049,0.671215,-0.338382,-0.0847422,-0.00634994,-1.67456,-0.419348,-0.0314265,0.0108983,2.92579,5,0.1,8,0.3,-1.47054,-0.525213,0.621997,-0.0233736,0.2966,-0.00376143,-0.13943,1.14577,-0.0385195,0.0100891,3.08329,5,0.1,9,0.3,-2.92094,3.78012,0.695277,0.345687,0.0461552,0.00935942,1.71068,0.22836,0.0463128,0.0177333,2.92581,5,0.1,10,0.3,1.71921,-1.87636,0.577353,-0.0508228,0.345159,0.0022159,-0.251524,1.70808,0.0109635,0.0191116,2.9258,5,0.1,11,0.3,1.57635,-4.03082,0.501192,-0.0230631,0.348123,-0.00174921,-0.114135,1.72283,-0.00504404,0.0182921,2.92582,5,0.1,12,0.3,-3.81109,-3.77209,0.631741,0.346578,-0.0395764,-0.00639269,1.71512,-0.195816,-0.0316389,0.00918006,2.9258,5,0.1,13,0.3,2.27197,-2.6853,0.680982,-0.255761,0.237198,0.00686254,-1.26567,1.17381,0.0339597,0.0148467,2.9258,5,0.1,14,0.3,-1.43569,-2.43903,0.604014,0.140153,0.319504,-0.000493787,0.693597,1.58109,-0.00243634,0.0332038,2.92579,5,0.1,15,0.3,-1.05335,-3.11908,0.670998,0.0818966,0.339051,-0.00771638,0.405319,1.67783,-0.0381842,0.0242099,2.9258,5,0.1,16,0.3,3.88013,-4.10795,0.637263,-0.0281271,0.347682,0.00687074,-0.139132,1.72058,0.033997,0.0081285,2.9258,5,0.1,17,0.3,0.609001,3.55996,0.521671,-0.16909,-0.304963,-0.0114453,-0.836775,-1.50914,-0.056643,0.0117586,2.92579,5,0.1,18,0.3,-2.48167,-4.25551,0.547933,0.147918,0.196607,0.0092593,0.729769,0.969857,0.0456758,0.0140113,1.43858,5,0.1,19,0.3,-3.73085,3.53878,0.539579,0.29267,-0.189811,0.00659702,1.44838,-0.939295,0.0326596,0.0167136,2.92579,5,0.1,20,0.3,-3.88722,-1.3679,0.588818,0.300433,0.177378,0.000935979,1.48676,0.87779,0.00462681,0.049408,2.9258,5,0.1,21,0.3,-1.04186,1.01891,0.671541,-0.0486419,-0.345434,-0.00571981,-0.240713,-1.70944,-0.0282973,0.0118871,2.9258,5,0.1,22,0.3,-0.0852658,1.81765,0.529123,-0.038191,-0.13653,0.0126047,-0.188408,-0.673547,0.06219,0.0102951,0.480703,5,0.1,23,0.3,-1.35723,0.0499303,0.69454,-0.158778,-0.0622357,0.00986271,-0.783287,-0.307027,0.0486523,0.0115941,0.692476,5,0.1,24,0.3,2.4379,3.06251,0.612993,-0.330121,0.112883,-0.00148574,-1.63369,0.558615,-0.00735745,0.0143912,2.92579,5,0.1,25,0.3,-2.85889,-0.434953,0.572371,0.215002,0.0240016,0.00491273,1.06065,0.118412,0.0242293,0.0188817,1.11118,5,0.1,26,0.3,3.63075,0.458827,0.591281,-0.0450253,0.34597,0.0011865,-0.222743,1.71211,0.00587106,0.0102344,2.92579,5,0.1,27,0.3,4.12766,2.81129,0.658487,-0.34835,0.0186361,-0.00577457,-1.72397,0.092268,-0.028573,0.0107793,2.92578,5,0.1,28,0.3,1.66237,0.338176,0.600049,-0.0822322,0.179954,-7.91624e-06,-0.405692,0.88777,-4.09782e-05,0.0242713,0.928925,5,0.1,29,0.3,-0.786976,-1.08178,0.538594,0.30752,0.133422,0.00921041,1.30394,0.73307,0.0350922,0.0132244,2.97042,5,0.1,30,0.3,-3.48577,-2.85562,0.591609,0.0153869,0.348555,0.000696164,0.0761151,1.7249,0.00344589,0.0138454,2.92579,5,0.1,31,0.3,3.77679,-2.55767,0.616951,-0.0229411,0.347978,-0.00993256,-0.113547,1.72253,-0.0263378,0.020207,2.92612,5,0.1,32,0.3,-0.255232,-1.25004,0.610612,-0.00796271,0.22232,-0.00188705,-0.0392869,1.09676,-0.00930578,0.0115229,1.17448,5,0.1,33,0.3,-2.15198,-1.45258,0.575694,0.347877,-0.0263989,0.00325069,1.72156,-0.130653,0.0161007,0.0130276,2.92579,5,0.1,34,0.3,2.29209,3.88852,0.529083,-0.260581,-0.23178,0.0100323,-1.28953,-1.147,0.0496544,0.0276795,2.92579,5,0.1,35,0.3,-2.29832,4.33806,0.528181,-0.335446,-0.0496775,0.0224688,-1.65488,-0.245094,0.110839,0.0154976,2.7406,5,0.1,36,0.3,-2.98379,-1.32228,0.650446,0.124496,0.090122,-0.00227634,0.614151,0.444584,-0.0112355,0.0101879,0.560684,5,0.1,37,0.3,2.04783,-1.06596,0.537028,0.0551667,0.310086,0.025963,0.27214,1.52975,0.128083,0.0175982,2.36991,5,0.1,38,0.3,-3.54274,4.11035,0.682885,0.208559,-0.227029,-0.00904649,1.02888,-1.12,-0.044629,0.0107602,2.25715,5,0.1,39,0.3,2.16832,-4.13507,0.510835,-0.0575904,0.344081,-0.00361688,-0.284985,1.70273,-0.0178888,0.0209605,2.9258,5,0.1
0,0.4,4.32445,0.0779611,0.618956,-0.192153,0.478062,-0.0031054,-0.569582,1.41643,-0.00917912,0.0259048,2.51007,5,0.1,1,0.4,0.939122,-1.26483,0.581818,0.0699744,0.33924,0.00487566,0.2065,1.00118,0.0143945,0.0139771,1.03598,5,0.1,2,0.4,-3.03462,-4.23164,0.628669,0.422907,0.138843,0.0123754,1.1847,0.392675,0.0399351,0.0136267,2.69826,5,0.1,3,0.4,1.52451,3.65213,0.580781,-0.288203,-0.376064,0.0051558,-0.850499,-1.10984,0.0151992,0.0121492,1.93816,5,0.1,4,0.4,-1.86835,-4.33937,0.581476,-0.0439852,0.167155,0.0203103,-0.129819,0.493288,0.0599325,0.00741413,0.261437,5,0.1,5,0.4,-3.49852,-0.749525,0.568254,0.515234,-0.00291616,-0.000613928,1.52659,-0.00861287,-0.00181794,0.0093438,2.51566,5,0.1,6,0.4,-4.14207,1.22322,0.509783,0.290024,-0.412655,-0.0134245,0.796795,-1.20777,-0.043422,0.012441,2.03843,5,0.1,7,0.4,0.15317,4.23995,0.670425,-0.499722,-0.125146,-0.0093773,-1.48061,-0.370741,-0.0277758,0.0106503,2.5111,5,0.1,8,0.4,-1.47359,-0.490317,0.621408,-0.0376344,0.395754,-0.00816584,-0.138104,0.81262,-0.0464618,0.00970283,3.1167,5,0.1,9,0.4,-2.87797,3.78586,0.69644,0.510508,0.0681579,0.0138223,1.51265,0.20206,0.0409186,0.0169262,2.50305,5,0.1,10,0.4,1.71289,-1.83345,0.577628,-0.0750571,0.50973,0.00327229,-0.222325,1.5102,0.00968575,0.0193825,2.51355,5,0.1,11,0.4,1.57348,-3.98754,0.500997,-0.0340581,0.514108,-0.00210851,-0.100911,1.52326,-0.00220537,0.0194729,2.51526,5,0.1,12,0.4,-3.768,-3.77701,0.630946,0.511831,-0.0584424,-0.00943989,1.51634,-0.173211,-0.0279844,0.0088593,2.51429,5,0.1,13,0.4,2.24017,-2.65581,0.681835,-0.377709,0.350296,0.0101358,-1.11902,1.03772,0.0300109,0.0139346,2.51008,5,0.1,14,0.4,-1.41826,-2.39931,0.603952,0.20698,0.471842,-0.000728667,0.613272,1.39797,-0.00217557,0.0319274,2.51007,5,0.1,15,0.4,-1.04317,-3.07693,0.670039,0.12095,0.500709,-0.0113949,0.358284,1.48356,-0.033766,0.0212956,2.51117,5,0.1,16,0.4,3.87663,-4.06473,0.638117,-0.0415325,0.513458,0.0101462,-0.123143,1.52135,0.0300705,0.00991215,2.51493,5,0.1,17,0.4,0.587979,3.52204,0.520249,-0.249711,-0.450367,-0.0169024,-0.739872,-1.33443,-0.0500679,0.0114624,2.51008,5,0.1,18,0.4,-2.4633,-4.23109,0.549083,0.218147,0.289941,0.0136539,0.643849,0.855923,0.0403225,0.0105011,1.13822,5,0.1,19,0.4,-3.69446,3.51518,0.5404,0.432223,-0.280309,0.00974238,1.28043,-0.83065,0.0288785,0.01644,2.51007,5,0.1,20,0.4,-3.84987,-1.34585,0.588935,0.443679,0.26195,0.00138134,1.31452,0.776112,0.00411272,0.0403166,2.51626,5,0.1,21,0.4,-1.0479,0.975967,0.67083,-0.0718325,-0.510135,-0.00844747,-0.212848,-1.51145,-0.0250041,0.0138169,2.51369,5,0.1,22,0.4,-0.0900103,1.80069,0.530689,-0.056323,-0.20135,0.0185892,-0.166219,-0.594258,0.0548363,0.0104878,0.380336,5,0.1,23,0.4,-1.37696,0.0421988,0.695765,-0.23416,-0.0917835,0.014545,-0.691116,-0.270871,0.0429153,0.00896688,0.547896,5,0.1,24,0.4,2.39686,3.07655,0.612808,-0.487524,0.166708,-0.00219494,-1.44446,0.493765,-0.00649691,0.0140328,2.51008,5,0.1,25,0.4,-2.83218,-0.431971,0.572982,0.317079,0.035397,0.00724494,0.935793,0.104472,0.0213981,0.013837,0.879179,5,0.1,26,0.4,3.62515,0.501839,0.591428,-0.066489,0.510928,0.00175238,-0.197053,1.51378,0.0051856,0.00973577,2.51397,5,0.1,27,0.4,4.08435,2.81361,0.657769,-0.514448,0.0275254,-0.00852942,-1.52445,0.0815392,-0.0252128,0.0124418,2.5153,5,0.1,28,0.4,1.65215,0.360532,0.600048,-0.121272,0.265392,-1.19209e-05,-0.357985,0.78322,-5.96046e-05,0.0343938,0.734975,5,0.1,29,0.4,-0.750082,-1.06475,0.539674,0.425549,0.206593,0.0122249,1.01733,0.6935,0.0244677,0.0123223,2.80135,5,0.1,30,0.4,-3.48386,-2.81229,0.591696,0.0227213,0.514746,0.00102669,0.0673532,1.52516,0.00306964,0.0164639,2.55697,5,0.1,31,0.4,3.77394,-2.5144,0.615857,-0.0338852,0.513953,-0.0116736,-0.100255,1.52314,-0.00905991,0.0160415,2.51537,5,0.1,32,0.4,-0.256221,-1.22242,0.610378,-0.0117436,0.327873,-0.00278205,-0.0346601,0.967562,-0.00822544,0.0102608,0.939511,5,0.1,33,0.4,-2.10873,-1.45586,0.576098,0.513744,-0.0389844,0.00480115,1.52218,-0.115573,0.0142157,0.0154569,2.51504,5,0.1,34,0.4,2.25969,3.8597,0.53033,-0.38482,-0.342292,0.0148162,-1.14036,-1.01411,0.0439286,0.0238975,2.51018,5,0.1,35,0.4,-2.33999,4.33189,0.530973,-0.494707,-0.0732541,0.0331357,-1.45996,-0.216484,0.0978112,0.00957704,2.16839,5,0.1,36,0.4,-2.96833,-1.31109,0.650163,0.183606,0.132909,-0.00335723,0.541687,0.392199,-0.00992417,0.00963705,0.443623,5,0.1,37,0.4,2.05468,-1.02744,0.540253,0.0813603,0.457308,0.0382885,0.239968,1.3496,0.11304,0.0128337,1.8751,5,0.1,38,0.4,-3.51683,4.08215,0.681761,0.307578,-0.334811,-0.013341,0.90766,-0.988007,-0.0393689,0.00980186,1.78588,5,0.1,39,0.4,2.16116,-4.09229,0.510386,-0.0850499,0.508142,-0.00534058,-0.252008,1.50537,-0.015825,0.0216645,2.51304,5,0.1
0,0.5,4.3023,0.133051,0.618599,-0.250758,0.623817,-0.00404986,-0.572383,1.42371,-0.00922754,0.0259048,2.51007,5,0.1,1,0.5,0.947171,-1.2258,0.582379,0.0909259,0.44082,0.00633616,0.20225,0.980578,0.0140965,0.0139771,1.03598,5,0.1,2,0.5,-2.98674,-4.21592,0.630137,0.530743,0.173919,0.017185,0.939623,0.299633,0.0526309,0.0136267,2.69826,5,0.1,3,0.5,1.49136,3.60887,0.581374,-0.374495,-0.488668,0.00669807,-0.833012,-1.08701,0.0148937,0.0121492,1.93816,5,0.1,4,0.5,-1.87341,-4.32014,0.583812,-0.0571569,0.217205,0.0263911,-0.127144,0.483125,0.0586957,0.00741413,0.261437,5,0.1,5,0.5,-3.43938,-0.749861,0.568183,0.665453,-0.00380287,-0.000800937,1.40984,-0.00866875,-0.00182539,0.0093438,2.51566,5,0.1,6,0.5,-4.10905,1.17581,0.508268,0.369576,-0.534972,-0.0164325,0.756651,-1.17881,-0.0177361,0.012441,2.03843,5,0.1,7,0.5,0.0956834,4.22553,0.669345,-0.649265,-0.163298,-0.0122358,-1.43791,-0.372678,-0.0279211,0.0106503,2.5111,5,0.1,8,0.5,-1.4777,-0.44761,0.620214,-0.0413274,0.449527,-0.0168632,0.0477955,0.281032,-0.116643,0.00970283,3.1167,5,0.1,9,0.5,-2.81933,3.79371,0.698033,0.660539,0.088935,0.0180312,1.41844,0.20282,0.0410974,0.0169262,2.50305,5,0.1,10,0.5,1.70424,-1.7749,0.578005,-0.0979358,0.659724,0.00426937,-0.22348,1.41984,0.00974536,0.0193825,2.51355,5,0.1,11,0.5,1.56956,-3.92852,0.50078,-0.0444422,0.664283,-0.00216942,-0.101425,1.41189,0.000797212,0.0194729,2.51526,5,0.1,12,0.5,-3.70923,-3.78375,0.629858,0.661904,-0.0762668,-0.0123191,1.416,-0.17412,-0.0281222,0.0088593,2.51429,5,0.1,13,0.5,2.19665,-2.61545,0.683003,-0.492862,0.457085,0.0132244,-1.12478,1.04311,0.0301674,0.0139346,2.51008,5,0.1,14,0.5,-1.39441,-2.34494,0.603868,0.270087,0.615699,-0.000952557,0.616409,1.40518,-0.00219047,0.0319274,2.51007,5,0.1,15,0.5,-1.02923,-3.01934,0.668725,0.157819,0.650346,-0.0148698,0.360131,1.43632,-0.0339411,0.0212956,2.51117,5,0.1,16,0.5,3.87185,-4.00578,0.639286,-0.0542041,0.663607,0.0132404,-0.123784,1.41305,0.030227,0.00991215,2.51493,5,0.1,17,0.5,0.559204,3.47015,0.518301,-0.325846,-0.587683,-0.0220544,-0.743672,-1.34127,-0.0503249,0.0114624,2.51008,5,0.1,18,0.5,-2.4382,-4.19774,0.550654,0.28347,0.376781,0.0177448,0.630572,0.83825,0.0394844,0.0105011,1.13822,5,0.1,19,0.5,-3.64465,3.48288,0.541522,0.563985,-0.365784,0.0127135,1.28706,-0.834897,0.0290126,0.01644,2.51007,5,0.1,20,0.5,-3.7989,-1.31583,0.589096,0.574292,0.337036,0.00186823,1.23852,0.695154,0.00526756,0.0403166,2.51626,5,0.1,21,0.5,-1.05618,0.917374,0.669856,-0.0937352,-0.660148,-0.0110215,-0.213929,-1.41912,-0.0251457,0.0138169,2.51369,5,0.1,22,0.5,-0.0964888,1.77753,0.532827,-0.0731876,-0.261643,0.0241537,-0.162798,-0.58201,0.0537261,0.0104878,0.380336,5,0.1,23,0.5,-1.40389,0.0316444,0.697438,-0.304293,-0.119179,0.0189082,-0.677124,-0.263745,0.0421889,0.00896688,0.547896,5,0.1,24,0.5,2.34068,3.09576,0.612555,-0.636164,0.217523,-0.00286354,-1.45186,0.496358,-0.00653043,0.0140328,2.51008,5,0.1,25,0.5,-2.79571,-0.4279,0.573815,0.412023,0.0459964,0.00941576,0.916526,0.102319,0.0209548,0.013837,0.879179,5,0.1,26,0.5,3.61749,0.560516,0.59163,-0.0867669,0.660971,0.0022863,-0.198081,1.41767,0.00521913,0.00973577,2.51397,5,0.1,27,0.5,4.0253,2.81679,0.656785,-0.664646,0.0360582,-0.0111693,-1.41133,0.0844747,-0.0261478,0.0124418,2.5153,5,0.1,28,0.5,1.6382,0.391059,0.600046,-0.157591,0.344857,-1.74157e-05,-0.35058,0.767104,-4.84288e-05,0.0343938,0.734975,5,0.1,29,0.5,-0.703147,-1.04018,0.540953,0.505981,0.287738,0.0127529,0.587896,0.872113,-0.0109486,0.0123223,2.80135,5,0.1,30,0.5,-3.48071,-2.75321,0.591816,0.0446904,0.664881,0.00141067,0.335053,1.41047,0.00430271,0.0164639,2.55697,5,0.1,31,0.5,3.77004,-2.45541,0.614661,-0.0442062,0.664141,-0.0120761,-0.100836,1.41224,0.000678003,0.0160415,2.51537,5,0.1,32,0.5,-0.25729,-1.18481,0.610078,-0.00725095,0.422984,-0.00304952,0.108438,0.893287,0.00202656,0.0102608,0.939511,5,0.1,33,0.5,-2.04976,-1.46035,0.576651,0.663904,-0.050875,0.00626417,1.41256,-0.116132,0.0142865,0.0154569,2.51504,5,0.1,34,0.5,2.21534,3.82029,0.532036,-0.502291,-0.445803,0.0193009,-1.14845,-1.00431,0.0435188,0.0238975,2.51018,5,0.1,35,0.5,-2.39689,4.32346,0.534784,-0.642832,-0.0952139,0.0430592,-1.42992,-0.211954,0.0957884,0.00957704,2.16839,5,0.1,36,0.5,-2.94721,-1.2958,0.649777,0.238569,0.172704,-0.00436381,0.530601,0.384152,-0.00971556,0.00963705,0.443623,5,0.1,37,0.5,2.06404,-0.974836,0.544657,0.105712,0.594237,0.0497567,0.235125,1.32182,0.110697,0.0128337,1.8751,5,0.1,38,0.5,-3.48145,4.04364,0.680227,0.39967,-0.435055,-0.0173352,0.889018,-0.967711,-0.038553,0.00980186,1.78588,5,0.1,39,0.5,2.15136,-4.03391,0.50977,-0.110983,0.658064,-0.00696937,-0.253305,1.42272,-0.0159107,0.0216645,2.51304,5,0.1
0,0.6,4.27456,0.202058,0.618151,-0.30148,0.750004,-0.00486821,-0.421047,1.047,-0.00676513,0.0289487,2.26577,5,0.1,1,0.6,0.957199,-1.17719,0.583078,0.108673,0.526869,0.00757426,0.145525,0.705481,0.010103,0.0125738,0.771263,5,0.1,2,0.6,-2.92958,-4.19725,0.632115,0.605524,0.197279,0.0222713,0.53525,0.162125,0.0464618,0.0104658,2.5645,5,0.1,3,0.6,1.45006,3.55498,0.582113,-0.447598,-0.584066,0.0080049,-0.599205,-0.781775,0.0107288,0.0156832,1.44291,5,0.1,4,0.6,-1.87972,-4.29619,0.586722,-0.0683159,0.259602,0.0315428,-0.0914335,0.347376,0.0422299,0.00863158,0.194632,5,0.1,5,0.6,-3.36643,-0.750282,0.568094,0.786012,-0.00457168,-0.000964105,0.95737,-0.00634789,-0.0013113,0.00988764,2.33499,5,0.1,6,0.6,-4.06863,1.11687,0.506572,0.434971,-0.638247,-0.0171646,0.524759,-0.844598,0.00211596,0.0139237,1.51202,5,0.1,7,0.6,0.0241244,4.20747,0.667991,-0.775026,-0.196338,-0.0147104,-1.02688,-0.273943,-0.0205338,0.0112433,2.6413,5,0.1,8,0.6,-1.48139,-0.402003,0.617903,-0.0310451,0.455552,-0.0295788,0.144601,-0.142843,-0.129431,0.00988722,3.09931,5,0.1,9,0.6,-2.7468,3.80355,0.700027,0.782663,0.106901,0.0216708,0.978351,0.149131,0.0302494,0.019945,2.32904,5,0.1,10,0.6,1.69341,-1.70244,0.578478,-0.117746,0.782105,0.00513345,-0.16427,0.981688,0.00715256,0.0207219,2.32447,5,0.1,11,0.6,1.56464,-3.85567,0.500571,-0.0534326,0.785214,-0.00198632,-0.0745654,0.962377,0.00271201,0.0214739,2.3329,5,0.1,12,0.6,-3.63658,-3.79218,0.628495,0.783587,-0.0917017,-0.0148118,0.972509,-0.127912,-0.020653,0.0101707,2.32843,5,0.1,13,0.6,2.14213,-2.56488,0.684466,-0.59256,0.549537,0.0158995,-0.827074,0.767231,0.0221729,0.0139224,2.21917,5,0.1,14,0.6,-1.36453,-2.27683,0.603763,0.32472,0.740242,-0.0011459,0.453293,1.03331,-0.00160933,0.0342586,2.25481,5,0.1,15,0.6,-1.01177,-2.94769,0.667081,0.189736,0.775713,-0.0178784,0.264883,1.02139,-0.0249743,0.0224703,2.30819,5,0.1,16,0.6,3.86585,-3.93299,0.640751,-0.0651717,0.784755,0.0159204,-0.0911951,0.965238,0.0222027,0.00921062,2.33156,5,0.1,17,0.6,0.523159,3.40514,0.515861,-0.391759,-0.706559,-0.0265151,-0.546917,-0.986457,-0.0370145,0.0137014,2.22927,5,0.1,18,0.6,-2.40694,-4.15619,0.552611,0.338799,0.450337,0.0212103,0.453711,0.603199,0.0283718,0.0115646,0.847368,5,0.1,19,0.6,-3.58226,3.44241,0.542929,0.678056,-0.439781,0.0152856,0.946641,-0.614047,0.0213385,0.0163344,2.22022,5,0.1,20,0.6,-3.73581,-1.27899,0.589309,0.681341,0.395855,0.00237226,0.861406,0.460446,0.00455976,0.041624,2.28717,5,0.1,21,0.6,-1.06655,0.844879,0.668637,-0.112697,-0.782394,-0.0132501,-0.157297,-0.9799,-0.0185072,0.0134821,2.32523,5,0.1,22,0.6,-0.10456,1.74868,0.535491,-0.0874739,-0.312716,0.028868,-0.117112,-0.418723,0.0386238,0.0115311,0.283149,5,0.1,23,0.6,-1.43745,0.0185091,0.699524,-0.363719,-0.142271,0.0226155,-0.487328,-0.188778,0.0304878,0.0103559,0.41626,5,0.1,24,0.6,2.2703,3.11982,0.612239,-0.764853,0.261515,-0.00344217,-1.06764,0.365138,-0.00479817,0.013897,2.34135,5,0.1,25,0.6,-2.75027,-0.422827,0.574853,0.492454,0.0549749,0.0112548,0.659347,0.0736266,0.01508,0.0156096,0.654525,5,0.1,26,0.6,3.60789,0.633082,0.591883,-0.10432,0.782956,0.00274777,-0.145674,0.976384,0.0038743,0.0107268,2.32672,5,0.1,27,0.6,3.95242,2.82079,0.655545,-0.785464,0.0436306,-0.0135124,-0.960827,0.0635386,-0.0197291,0.00986176,2.33329,5,0.1,28,0.6,1.62082,0.42909,0.600044,-0.188357,0.412175,-2.23517e-05,-0.252187,0.55182,0,0.0233329,0.547169,5,0.1,29,0.6,-0.650339,-1.00714,0.542135,0.542937,0.371079,0.0105709,0.152707,0.752658,-0.0302196,0.0172714,2.70427,5,0.1,30,0.6,-3.47438,-2.68031,0.591979,0.0831842,0.785685,0.00183135,0.406146,0.961065,0.0039041,0.0138671,2.34172,5,0.1,31,0.6,3.76515,-2.38257,0.613471,-0.0531435,0.785124,-0.011605,-0.0742674,0.962973,0.00843406,0.0196156,2.3329,5,0.1,32,0.6,-0.257346,-1.13845,0.609794,0.00707433,0.499538,-0.00253022,0.165418,0.609279,0.00762939,0.010032,0.74572,5,0.1,33,0.6,-1.97694,-1.46598,0.577344,0.784957,-0.0611663,0.00753105,0.963926,-0.0854135,0.0104904,0.0164952,2.33209,5,0.1,34,0.6,2.15976,3.77105,0.534168,-0.604153,-0.534326,0.023137,-0.845909,-0.729561,0.0316501,0.0200397,2.35835,5,0.1,35,0.6,-2.46779,4.31296,0.539533,-0.76831,-0.113809,0.0514656,-1.02866,-0.152349,0.0689328,0.0129167,1.65553,5,0.1,36,0.6,-2.9209,-1.27675,0.649296,0.285137,0.206417,-0.00521541,0.381708,0.276327,-0.00700355,0.00930293,0.330274,5,0.1,37,0.6,2.0757,-0.909302,0.550145,0.126344,0.710234,0.059472,0.169277,0.950873,0.079602,0.0110447,1.39826,5,0.1,38,0.6,-3.43738,3.99566,0.678315,0.477684,-0.519979,-0.0207201,0.639558,-0.696063,-0.0276864,0.01306,1.32955,5,0.1,39,0.6,2.13909,-3.9616,0.508999,-0.133437,0.780976,-0.00838041,-0.186205,0.988603,-0.0116825,0.0193154,2.3215,5,0.1
0,0.7,4.24228,0.281482,0.61763,-0.34374,0.830191,-0.0055478,-0.397503,0.551745,-0.00639632,0.0289487,2.26577,5,0.1,1,0.7,0.968781,-1.12104,0.583885,0.122643,0.594597,0.00854488,0.125896,0.610359,0.00875443,0.0125738,0.771263,5,0.1,2,0.7,-2.86654,-4.17698,0.634591,0.652917,0.205487,0.027346,0.383407,0.00625849,0.0516437,0.0104658,2.5645,5,0.1,3,0.7,1.40235,3.49273,0.582966,-0.505125,-0.659123,0.00903467,-0.518441,-0.676438,0.0092797,0.0156832,1.44291,5,0.1,4,0.7,-1.887,-4.26852,0.590084,-0.0770947,0.292953,0.0355971,-0.0791177,0.300556,0.0365339,0.00863158,0.194632,5,0.1,5,0.7,-3.2841,-0.750771,0.567991,0.850546,-0.00520963,-0.00109635,0.360757,-0.00600517,-0.00124425,0.00988764,2.33499,5,0.1,6,0.7,-4.02257,1.0489,0.504897,0.484779,-0.719233,-0.0160635,0.442088,-0.728689,0.0185817,0.0139237,1.51202,5,0.1,7,0.7,-0.0566874,4.18651,0.666414,-0.824348,-0.222067,-0.0168262,-0.0143756,-0.227243,-0.0203624,0.0112433,2.6413,5,0.1,8,0.7,-1.48287,-0.356887,0.614222,0.0089813,0.448748,-0.0445374,0.594676,-0.0231992,-0.159625,0.00988722,3.09931,5,0.1,9,0.7,-2.6647,3.81491,0.702331,0.84939,0.119634,0.0242536,0.380635,0.10106,0.0205003,0.019945,2.32904,5,0.1,10,0.7,1.6808,-1.62037,0.579027,-0.134235,0.849191,0.00585178,-0.155106,0.383966,0.0067614,0.0207219,2.32447,5,0.1,11,0.7,1.55892,-3.7734,0.500388,-0.0609169,0.850269,-0.00165738,-0.0704005,0.365496,0.00373274,0.0214739,2.3329,5,0.1,12,0.7,-3.55442,-3.802,0.626909,0.849706,-0.104542,-0.0168851,0.375167,-0.120804,-0.0194982,0.0101707,2.32843,5,0.1,13,0.7,2.07868,-2.50604,0.686169,-0.675587,0.626553,0.0181261,-0.781074,0.724509,0.020951,0.0139224,2.21917,5,0.1,14,0.7,-1.32977,-2.19834,0.60364,0.370222,0.822222,-0.00130739,0.428051,0.594199,-0.00151992,0.0342586,2.25481,5,0.1,15,0.7,-0.991458,-2.86605,0.665166,0.216322,0.846974,-0.0203849,0.250068,0.422001,-0.0235774,0.0224703,2.30819,5,0.1,16,0.7,3.85887,-3.85075,0.642455,-0.0743192,0.85011,0.0181489,-0.0860244,0.368223,0.0209659,0.00921062,2.33156,5,0.1,17,0.7,0.481211,3.32985,0.513078,-0.446659,-0.795067,-0.0286539,-0.516461,-0.744626,-0.00692531,0.0137014,2.22927,5,0.1,18,0.7,-2.37083,-4.10819,0.554871,0.382354,0.508242,0.0239344,0.392497,0.521809,0.0245497,0.0115646,0.847368,5,0.1,19,0.7,-3.50978,3.39532,0.544565,0.76982,-0.501418,0.0174274,0.835553,-0.579834,0.0201426,0.0163344,2.22022,5,0.1,20,0.7,-3.66368,-1.23732,0.589574,0.757046,0.434979,0.00297464,0.619382,0.305861,0.00691414,0.041624,2.28717,5,0.1,21,0.7,-1.07862,0.762794,0.667219,-0.128485,-0.849292,-0.015108,-0.14849,-0.382259,-0.0174753,0.0134821,2.32523,5,0.1,22,0.7,-0.113883,1.71535,0.538567,-0.0987171,-0.352913,0.0325769,-0.101325,-0.362247,0.0334308,0.0115311,0.283149,5,0.1,23,0.7,-1.47595,0.00335258,0.701936,-0.402747,-0.160443,0.0255372,-0.283748,-0.16414,0.0262931,0.0103559,0.41626,5,0.1,24,0.7,2.18945,3.14711,0.611923,-0.842525,0.278169,-0.00242759,-0.490323,-0.0107139,0.0220686,0.013897,2.34135,5,0.1,25,0.7,-2.69778,-0.416968,0.576053,0.555753,0.0620428,0.0127025,0.570431,0.0636932,0.013046,0.0156096,0.654525,5,0.1,26,0.7,3.59672,0.715204,0.592177,-0.118939,0.849486,0.00313576,-0.137478,0.378925,0.00364333,0.0107268,2.32672,5,0.1,27,0.7,3.87013,2.82548,0.654092,-0.850355,0.0502255,-0.0155595,-0.364006,0.0639409,-0.0198446,0.00986176,2.33329,5,0.1,28,0.7,1.60075,0.47302,0.600042,-0.212567,0.465152,-2.27243e-05,-0.218175,0.477433,-7.45058e-06,0.0233329,0.547169,5,0.1,29,0.7,-0.595566,-0.965923,0.542984,0.549459,0.455142,0.00595264,-0.0304244,0.868998,-0.0580475,0.0172714,2.70427,5,0.1,30,0.7,-3.46435,-2.598,0.59218,0.114079,0.850474,0.00217725,0.216767,0.362292,0.00291318,0.0138671,2.34172,5,0.1,31,0.7,3.75946,-2.3003,0.612357,-0.0605982,0.85024,-0.0106124,-0.07011,0.366017,0.0113025,0.0196156,2.3329,5,0.1,32,0.7,-0.25544,-1.08573,0.609619,0.0340315,0.551395,-0.000642799,0.344953,0.407301,0.0274777,0.010032,0.74572,5,0.1,33,0.7,-1.89468,-1.47253,0.578151,0.850179,-0.0697354,0.008584,0.367031,-0.080578,0.00990182,0.0164952,2.33209,5,0.1,34,0.7,2.09495,3.715,0.536561,-0.692179,-0.576917,0.024002,-0.854224,-0.143692,-0.0112392,0.0200397,2.35835,5,0.1,35,0.7,-2.54883,4.30083,0.545018,-0.843363,-0.128434,0.0580829,-0.475705,-0.131816,0.0596344,0.0129167,1.65553,5,0.1,36,0.7,-2.89051,-1.25476,0.64874,0.321784,0.232947,-0.00588754,0.330284,0.239104,-0.0060536,0.00930293,0.330274,5,0.1,37,0.7,2.08917,-0.833787,0.556483,0.142595,0.796361,0.0671143,0.146449,0.731118,0.0688732,0.0110447,1.39826,5,0.1,38,0.7,-3.38647,3.94024,0.676107,0.539084,-0.586806,-0.0233789,0.55337,-0.602275,-0.0239722,0.01306,1.32955,5,0.1,39,0.7,2.1248,-3.87961,0.508102,-0.152128,0.848797,-0.0095536,-0.175819,0.390723,-0.011038,0.0193154,2.3215,5,0.1
0,0.8,4.20614,0.366452,0.617046,-0.376475,0.861493,-0.0060752,-0.238657,0.0906444,-0.0038147,0.0260774,2.16851,5,0.1,1,0.8,0.981589,-1.05894,0.584777,0.132513,0.642452,0.00922978,0.0661314,0.320494,0.00464916,0.0142733,0.544551,5,0.1,2,0.8,-2.79977,-4.15663,0.63757,0.677407,0.199413,0.0320181,0.0874996,-0.123501,0.0393391,0.00997658,2.5043,5,0.1,3,0.8,1.3496,3.4239,0.58391,-0.545773,-0.712156,0.00976324,-0.272214,-0.355363,0.00485778,0.0170616,1.0188,5,0.1,4,0.8,-1.89505,-4.23793,0.593802,-0.0832945,0.316525,0.0384614,-0.041604,0.157833,0.0191927,0.00803292,0.137425,5,0.1,5,0.8,-3.19797,-0.751319,0.567876,0.866026,-0.00570416,-0.00119954,0,-0.00363588,-0.000745058,0.014287,2.2719,5,0.1,6,0.8,-3.97222,0.973833,0.503401,0.518477,-0.776199,-0.0136897,0.212073,-0.379235,0.0277758,0.0124486,1.06481,5,0.1,7,0.8,-0.1379,4.16333,0.664639,-0.788169,-0.239551,-0.0185415,0.690118,-0.113249,-0.0129044,0.00963194,2.94162,5,0.1,8,0.8,-1.47867,-0.312133,0.608988,0.077045,0.445721,-0.0597537,0.719488,-0.0592321,-0.137329,0.00764104,0.824738,5,0.1,9,0.8,-2.57861,3.82727,0.704837,0.866026,0.126398,0.0256255,0,0.0315905,0.0064075,0.014876,2.26173,5,0.1,10,0.8,1.66668,-1.53429,0.579642,-0.147006,0.866026,0.00640899,-0.0931025,0,0.00405312,0.0197602,2.2553,5,0.1,11,0.8,1.55251,-3.68728,0.500241,-0.0667125,0.866026,-0.00126511,-0.0423193,0,0.00402331,0.0190531,2.26858,5,0.1,12,0.8,-3.46832,-3.81299,0.625134,0.86602,-0.114489,-0.0184909,0.000119209,-0.0725985,-0.0117123,0.00860247,2.26156,5,0.1,13,0.8,2.00765,-2.44016,0.688074,-0.739911,0.686222,0.0198513,-0.469148,0.434995,0.0125766,0.0128028,2.04193,5,0.1,14,0.8,-1.29084,-2.11391,0.603502,0.405473,0.858754,-0.001432,0.257075,0.145435,-0.000923872,0.0324104,2.15426,5,0.1,15,0.8,-0.968713,-2.78005,0.663023,0.236914,0.866026,-0.0223264,0.150144,0,-0.0141561,0.0200614,2.22892,5,0.1,16,0.8,3.85106,-3.76463,0.644364,-0.0813961,0.866026,0.0198737,-0.0517368,0,0.0126064,0.0107561,2.26652,5,0.1,17,0.8,0.434246,3.24727,0.510219,-0.48919,-0.849646,-0.0281259,-0.310197,-0.327587,0.0163615,0.0133171,1.68126,5,0.1,18,0.8,-2.3309,-4.05511,0.557371,0.413126,0.54915,0.025861,0.206113,0.274181,0.0128746,0.0111538,0.598268,5,0.1,19,0.8,-3.42915,3.3426,0.546398,0.836414,-0.549167,0.0190854,0.461578,-0.34821,0.0121295,0.0146815,2.08161,5,0.1,20,0.8,-3.5855,-1.19265,0.589907,0.799781,0.454429,0.00365525,0.214458,0.0734329,0.00628829,0.0415968,2.24221,5,0.1,21,0.8,-1.09213,0.676708,0.66563,-0.140715,-0.866026,-0.0165462,-0.0891089,2.98023e-05,-0.0105202,0.0126759,2.28866,5,0.1,22,0.8,-0.124192,1.67849,0.541969,-0.106661,-0.381315,0.035198,-0.0532083,-0.190198,0.0175536,0.0133091,0.199916,5,0.1,23,0.8,-1.51724,-0.0134012,0.704603,-0.419047,-0.173334,0.027597,-0.0376701,-0.0865433,0.0137687,0.00785348,0.371237,5,0.1,24,0.8,2.10362,3.1744,0.611814,-0.865895,0.263357,0.000430644,-0.0026226,-0.26691,0.0327826,0.0137843,2.40198,5,0.1,25,0.8,-2.63974,-0.410488,0.57738,0.600481,0.0670366,0.013724,0.299454,0.0334382,0.00688434,0.0201326,0.44941,5,0.1,26,0.8,3.58421,0.801297,0.592507,-0.130254,0.866026,0.00343621,-0.082612,-2.98023e-05,0.00217557,0.0093457,2.25889,5,0.1,27,0.8,3.784,2.83079,0.652445,-0.866026,0.0556648,-0.0172481,0,0.041604,-0.012964,0.00958094,2.26897,5,0.1,28,0.8,1.57855,0.521596,0.60004,-0.229675,0.502585,-2.38419e-05,-0.114501,0.250697,2.98023e-05,0.0234356,0.386331,5,0.1,29,0.8,-0.541127,-0.916274,0.543271,0.535673,0.534618,-0.000311434,-0.248939,0.677496,-0.0641048,0.0166066,2.25129,5,0.1,30,0.8,-3.45214,-2.51187,0.59241,0.127554,0.86602,0.00239611,0.0578165,0.000119209,0.00143051,0.0126029,2.27059,5,0.1,31,0.8,3.75308,-2.21418,0.611357,-0.0663698,0.866026,-0.00936687,-0.0420809,0,0.0134408,0.0190919,2.26851,5,0.1,32,0.8,-0.250211,-1.02903,0.609707,0.0709891,0.5777,0.00249743,0.372216,0.106364,0.0332892,0.00788049,0.667738,5,0.1,33,0.8,-1.80856,-1.47986,0.579053,0.866026,-0.0763714,0.00939965,-5.96046e-05,-0.0482798,0.00596046,0.012883,2.34219,5,0.1,34,0.8,2.02186,3.65741,0.538855,-0.76471,-0.567263,0.0214592,-0.554204,0.315905,-0.0369549,0.0222068,2.27983,5,0.1,35,0.8,-2.6347,4.28742,0.551084,-0.866026,-0.138772,0.0627577,0,-0.0691414,0.0313222,0.00976322,1.21808,5,0.1,36,0.8,-2.8569,-1.23043,0.648125,0.34768,0.251693,-0.00636131,0.173569,0.125587,-0.00318885,0.0108904,0.233199,5,0.1,37,0.8,2.10406,-0.751122,0.563492,0.154078,0.850056,0.0725135,0.0770092,0.319391,0.03618,0.00924096,1.01033,5,0.1,38,0.8,-3.33017,3.87896,0.673666,0.582469,-0.634021,-0.0252575,0.290513,-0.316381,-0.0126064,0.00958051,0.938751,5,0.1,39,0.8,2.1088,-3.79354,0.507097,-0.166607,0.866026,-0.0104636,-0.105619,0,-0.00661612,0.0217607,2.25054,5,0.1
0,0.9,4.16725,0.452879,0.616419,-0.401158,0.865742,-0.00647083,-0.229567,0.0113323,-0.00368804,0.0260774,2.16851,5,0.1,1,0.9,0.995156,-0.993167,0.585723,0.138505,0.671493,0.00965083,0.0473633,0.229567,0.00332668,0.0142733,0.544551,5,0.1,2,0.9,-2.73126,-4.13744,0.640965,0.694814,0.18307,0.0357768,0.209987,-0.198901,0.0336096,0.00997658,2.5043,5,0.1,3,0.9,1.29373,3.35099,0.584909,-0.570441,-0.744358,0.0102035,-0.194997,-0.254557,0.00348315,0.0170616,1.0188,5,0.1,4,0.9,-1.90358,-4.20552,0.597739,-0.0870638,0.330827,0.0402005,-0.0298023,0.11307,0.0137463,0.00803292,0.137425,5,0.1,5,0.9,-3.11137,-0.751908,0.567752,0.866026,-0.0060793,-0.00127684,0,-0.00347942,-0.000722706,0.014287,2.2719,5,0.1,6,0.9,-3.91937,0.894406,0.502179,0.537297,-0.810494,-0.0107056,0.14092,-0.269752,0.0310317,0.0124486,1.06481,5,0.1,7,0.9,-0.212109,4.13882,0.662718,-0.68648,-0.250307,-0.0198916,1.26393,-0.0893772,-0.0127628,0.00963194,2.94162,5,0.1,8,0.9,-1.46797,-0.269521,0.602266,0.13125,0.39215,-0.075015,0.37764,-0.922651,-0.157464,0.00764104,0.824738,5,0.1,9,0.9,-2.49201,3.84006,0.707431,0.866026,0.129231,0.0262005,0,0.019446,0.00394881,0.014876,2.26173,5,0.1,10,0.9,1.6515,-1.44769,0.580304,-0.156617,0.866026,0.00682771,-0.0892505,0,0.0038892,0.0197602,2.2553,5,0.1,11,0.9,1.54562,-3.60067,0.500135,-0.0710854,0.866026,-0.000874884,-0.0406429,0,0.00371039,0.0190531,2.26858,5,0.1,12,0.9,-3.38171,-3.82482,0.623224,0.866025,-0.121988,-0.0197006,1.49012e-05,-0.0696629,-0.0112429,0.00860247,2.26156,5,0.1,13,0.9,1.93121,-2.36927,0.690125,-0.788521,0.731296,0.0211548,-0.452921,0.419989,0.0121519,0.0128028,2.04193,5,0.1,14,0.9,-1.24895,-2.02759,0.603354,0.432063,0.865571,-0.00152728,0.247367,0.0181794,-0.000882894,0.0324104,2.15426,5,0.1,15,0.9,-0.944241,-2.69344,0.660717,0.252418,0.866026,-0.023788,0.14402,0,-0.013575,0.0200614,2.22892,5,0.1,16,0.9,3.84265,-3.67803,0.646416,-0.0867184,0.866026,0.0211717,-0.0492781,0,0.0120215,0.0107561,2.26652,5,0.1,17,0.9,0.383799,3.1613,0.507526,-0.518808,-0.864827,-0.0254066,-0.254627,-0.0339299,0.0362806,0.0133171,1.68126,5,0.1,18,0.9,-2.28861,-3.99889,0.560018,0.431801,0.57399,0.0270281,0.147626,0.196323,0.00923127,0.0111538,0.598268,5,0.1,19,0.9,-3.34391,3.28587,0.54837,0.862542,-0.585237,0.0203409,0.106692,-0.335976,0.0116937,0.0146815,2.08161,5,0.1,20,0.9,-3.50474,-1.14691,0.59031,0.812187,0.459386,0.00445293,0.0130832,0.00946969,0.00893697,0.0415968,2.24221,5,0.1,21,0.9,-1.10634,0.590115,0.663953,-0.140886,-0.865531,-0.016725,0.0750646,0.0197701,0.00604615,0.0126759,2.28866,5,0.1,22,0.9,-0.135112,1.63945,0.545573,-0.111483,-0.398549,0.0367891,-0.038113,-0.136226,0.012584,0.0133091,0.199916,5,0.1,23,0.9,-1.55866,-0.0311483,0.707428,-0.403098,-0.181202,0.0288419,0.331737,-0.0624528,0.00981241,0.00785348,0.371237,5,0.1,24,0.9,2.01703,3.19871,0.612098,-0.865633,0.216898,0.0058474,0.0150353,-0.620872,0.0697225,0.0137843,2.40198,5,0.1,25,0.9,-2.57889,-0.403469,0.579411,0.609836,0.0745115,0.032128,-0.101581,0.102973,0.321023,0.0201326,0.44941,5,0.1,26,0.9,3.57076,0.8879,0.592862,-0.138763,0.866025,0.00366019,-0.078842,3.72529e-06,0.00207499,0.0093457,2.25889,5,0.1,27,0.9,3.6974,2.83659,0.650648,-0.866026,0.0604205,-0.0187278,0,0.0484884,-0.0150725,0.00958094,2.26897,5,0.1,28,0.9,1.55504,0.57305,0.600037,-0.24005,0.525302,-2.14204e-05,-0.0820085,0.179581,1.49012e-05,0.0234356,0.386331,5,0.1,29,0.9,-0.4884,-0.8593,0.542925,0.522099,0.604645,-0.00650119,-0.0545585,0.666589,-0.0571609,0.0166066,2.25129,5,0.1,30,0.9,-3.43924,-2.42527,0.592656,0.128966,0.866025,0.0025223,-0.0271052,1.49012e-05,0.000979751,0.0126029,2.27059,5,0.1,31,0.9,3.74623,-2.12758,0.610486,-0.0707176,0.866026,-0.00805585,-0.0404269,0,0.0128187,0.0190919,2.26851,5,0.1,32,0.9,-0.240833,-0.972219,0.610285,0.119701,0.545264,0.0103995,0.56116,-0.686787,0.113323,0.00788049,0.667738,5,0.1,33,0.9,-1.72201,-1.48726,0.580011,0.864032,-0.0674406,0.00966005,-0.0616759,0.201114,-0.000596046,0.012883,2.34219,5,0.1,34,0.9,1.9426,3.60255,0.540772,-0.819428,-0.52733,0.0165235,-0.492238,0.475645,-0.058502,0.0222068,2.27983,5,0.1,35,0.9,-2.7213,4.27321,0.557509,-0.865681,-0.145037,0.0655956,0.0137687,-0.0495315,0.02243,0.00976322,1.21808,5,0.1,36,0.9,-2.82131,-1.20466,0.647474,0.363408,0.263073,-0.00664983,0.124335,0.0899658,-0.00227988,0.0108904,0.233199,5,0.1,37,0.9,2.11983,-0.665146,0.570916,0.161056,0.864605,0.0757919,0.0551492,0.023026,0.0259094,0.00924096,1.01033,5,0.1,38,0.9,-3.27054,3.81405,0.67108,0.608795,-0.66269,-0.0264001,0.208095,-0.226647,-0.00903383,0.00958051,0.938751,5,0.1,39,0.9,2.09159,-3.70694,0.506021,-0.177526,0.866026,-0.0110259,-0.101551,0,-0.00419468,0.0217607,2.25054,5,0.1
0,1,4.12617,0.539476,0.615756,-0.418103,0.866026,-0.00674278,-0.0915527,0,-0.00146031,0.0262842,2.15584,5,0.1,1,1,1.00917,-0.925225,0.586699,0.140932,0.683253,0.00982285,-0.00309944,-0.014782,-0.000208616,0.0131668,0.370314,5,0.1,2,1,-2.66087,-4.12022,0.644686,0.71072,0.160491,0.0383645,0.071764,-0.249147,0.0166893,0.0143155,2.57546,5,0.1,3,1,1.23601,3.27567,0.585942,-0.58043,-0.757402,0.0103816,0.0125766,0.0163317,-0.000238419,0.0113702,0.692826,5,0.1,4,1,-1.91239,-4.17205,0.601807,-0.0885904,0.336623,0.0409037,0.00184774,-0.00739098,-0.000864267,0.00778173,0.158576,5,0.1,5,1,-3.02477,-0.752531,0.567622,0.866026,-0.00633597,-0.00133067,0,-0.00140071,-0.000268221,0.00872465,2.27189,5,0.1,6,1,-3.86521,0.812435,0.501263,0.542772,-0.824013,-0.00763535,-0.0468493,0.0238419,0.0297129,0.012353,0.723283,5,0.1,7,1,-0.274023,4.11347,0.660674,-0.549196,-0.255334,-0.0208691,1.42336,-0.00286102,-0.00587106,0.00952089,3.30388,5,0.1,8,1,-1.45344,-0.235734,0.594015,0.155082,0.277282,-0.0894502,0.111043,-1.30336,-0.123709,0.0105351,3.59429,5,0.1,9,1,-2.40541,3.85303,0.710059,0.866026,0.129348,0.0262246,0,-0.0207424,-0.00420213,0.0156468,1.42726,5,0.1,10,1,1.63546,-1.36108,0.581004,-0.163186,0.866026,0.00711381,-0.0353456,0,0.00154972,0.0195275,2.25365,5,0.1,11,1,1.53834,-3.51407,0.500065,-0.0740796,0.866026,-0.000536442,-0.0162125,0,0.00303984,0.0187561,2.38718,5,0.1,12,1,-3.29511,-3.83731,0.621207,0.866026,-0.127119,-0.0205278,0,-0.0277758,-0.00450015,0.00817925,2.26051,5,0.1,13,1,1.85046,-2.29438,0.692292,-0.822017,0.762349,0.0220537,-0.182331,0.169277,0.00488758,0.0124377,1.95391,5,0.1,14,1,-1.20471,-1.941,0.603198,0.450319,0.866026,-0.00159293,0.0988245,0,-0.000357628,0.0331683,2.1383,5,0.1,15,1,-0.918396,-2.60684,0.658281,0.263023,0.866026,-0.0247881,0.0571012,0,-0.00539422,0.0182005,2.22456,5,0.1,16,1,3.83377,-3.59143,0.648584,-0.0903368,0.866026,0.0220537,-0.0191927,0,0.00470877,0.0100892,2.26453,5,0.1,17,1,0.330921,3.07483,0.505188,-0.535508,-0.863212,-0.0211909,-0.0607967,0.0560284,0.0466108,0.0111482,1.22579,5,0.1,18,1,-2.24492,-3.94081,0.562753,0.439364,0.584048,0.0275001,-0.00965595,-0.012517,-0.000596046,0.0107117,0.406823,5,0.1,19,1,-3.25739,3.22593,0.550453,0.866026,-0.610083,0.0212044,0,-0.134945,0.00470877,0.0152577,2.0374,5,0.1,20,1,-3.42392,-1.10114,0.590799,0.799137,0.453651,0.00531524,-0.286102,-0.134647,0.0077486,0.0395969,2.28699,5,0.1,21,1,-1.11986,0.503819,0.662331,-0.12767,-0.858115,-0.0155076,0.180185,0.158191,0.0175238,0.0131874,2.34504,5,0.1,22,1,-0.146392,1.59913,0.549295,-0.113435,-0.405526,0.0374347,0.00244379,0.00882149,-0.000804663,0.0116042,0.135949,5,0.1,23,1,-1.59687,-0.0494852,0.710346,-0.357321,-0.184435,0.0293419,0.562489,0.00333428,-0.000715256,0.00849632,0.196761,5,0.1,24,1,1.93067,3.217,0.613052,-0.85988,0.146604,0.013347,0.122845,-0.75233,0.0757873,0.0161304,2.63821,5,0.1,25,1,-2.519,-0.395476,0.584475,0.582409,0.0853412,0.0707939,-0.435352,0.103831,0.421196,0.0167158,0.871799,5,0.1,26,1,3.55655,0.974502,0.593237,-0.144547,0.866026,0.00381172,-0.0309944,0,0.000834465,0.00928319,2.25768,5,0.1,27,1,3.6108,2.84286,0.648707,-0.866026,0.0645041,-0.0199974,0,0.0296831,-0.00920892,0.011285,2.61322,5,0.1,28,1,1.53075,0.6262,0.600035,-0.244251,0.5345,-2.08616e-05,0.00536442,-0.0115633,2.98023e-05,0.0221135,0.262721,5,0.1,29,1,-0.436362,-0.795896,0.542017,0.51898,0.658527,-0.0113413,-0.033617,0.373393,-0.038147,0.0146583,1.80893,5,0.1,30,1,-3.42661,-2.33867,0.592912,0.122637,0.866026,0.00257492,-0.0967979,0,0,0.0123679,2.26955,5,0.1,31,1,3.73899,-2.04097,0.609744,-0.0736892,0.866026,-0.00679791,-0.0162125,-5.96046e-05,0.0123382,0.0183738,2.26816,5,0.1,32,1,-0.226022,-0.921969,0.611946,0.176081,0.452754,0.0231415,0.535913,-1.1076,0.132769,0.0104084,0.417021,5,0.1,33,1,-1.6362,-1.49276,0.580965,0.84857,-0.0407815,0.00931323,-0.276983,0.311553,-0.00613928,0.013555,2.62482,5,0.1,34,1,1.8586,3.55241,0.542119,-0.855702,-0.473517,0.010334,-0.206411,0.593781,-0.0627637,0.0105098,1.017,5,0.1,35,1,-2.80768,4.25854,0.564146,-0.860518,-0.147569,0.0667453,0.110269,0.00333786,-0.00146031,0.00924706,0.899757,5,0.1,36,1,-2.78454,-1.17804,0.646801,0.369775,0.267684,-0.00676662,-0.0077486,-0.00578165,0.000119209,0.0106198,0.158585,5,0.1,37,1,2.13613,-0.578826,0.578584,0.163883,0.859268,0.0771195,-0.00345707,-0.135154,-0.00166893,0.0106704,0.716953,5,0.1,38,1,-3.20894,3.747,0.668409,0.619453,-0.674301,-0.0268623,-0.0133514,0.0145435,0.000536442,0.0102755,0.63839,5,0.1,39,1,2.07341,-3.62033,0.504904,-0.185019,0.866026,-0.011231,-0.0404119,0,0.000357628,0.0197323,2.24834,5,0.1
0,1.1,4.08382,0.626078,0.615073,-0.429246,0.866026,-0.0069215,-0.106275,-3.72529e-06,-0.00170991,0.0262842,2.15584,5,0.1,1,1.1,1.02324,-0.857003,0.58768,0.14031,0.680255,0.0097801,-0.0145063,-0.0701621,-0.00100955,0.0131668,0.370314,5,0.1,2,1.1,-2.5897,-4.10505,0.648602,0.709677,0.145996,0.0398668,-0.106677,-0.0626445,0.0115708,0.0143155,2.57546,5,0.1,3,1.1,1.17805,3.20004,0.586978,-0.577883,-0.754084,0.0103349,0.0595972,0.0777245,-0.00107288,0.0113702,0.692826,5,0.1,4,1.1,-1.92128,-4.13825,0.605922,-0.0895705,0.340479,0.0415849,-0.0151247,0.0601113,0.0110529,0.00778173,0.158576,5,0.1,5,1.1,-2.93816,-0.753173,0.567487,0.866026,-0.00650454,-0.0013642,0,-0.00159442,-0.000320375,0.00872465,2.27189,5,0.1,6,1.1,-3.81119,0.730187,0.500641,0.537048,-0.819825,-0.0048819,-0.0867397,0.089936,0.024993,0.012353,0.723283,5,0.1,7,1.1,-0.321645,4.08829,0.658547,-0.40376,-0.244907,-0.0217325,1.39628,0.198454,-0.00971928,0.00952089,3.30388,5,0.1,8,1.1,-1.43798,-0.2129,0.58456,0.148692,0.193725,-0.0985421,-0.210091,-0.44144,-0.0576526,0.0105351,3.59429,5,0.1,9,1.1,-2.31881,3.86589,0.712666,0.865835,0.128018,0.0259553,-0.0076443,-0.0123084,-0.00248477,0.0156468,1.42726,5,0.1,10,1.1,1.61894,-1.27448,0.581724,-0.167457,0.866026,0.0073011,-0.0404119,0,0.00176951,0.0195275,2.25365,5,0.1,11,1.1,1.53084,-3.42829,0.500025,-0.0760557,0.842892,-0.000277162,-0.0188723,-0.4085,0.00214577,0.0187561,2.38718,5,0.1,12,1.1,-3.20851,-3.85019,0.619127,0.866026,-0.130489,-0.0210733,0,-0.0320375,-0.00518188,0.00817925,2.26051,5,0.1,13,1.1,1.76718,-2.21712,0.694526,-0.843962,0.783296,0.0226592,-0.207759,0.203073,0.00587478,0.0124377,1.95391,5,0.1,14,1.1,-1.15909,-1.8544,0.603037,0.462333,0.866026,-0.00163615,0.11453,0,-0.000409782,0.0331683,2.1383,5,0.1,15,1.1,-0.891755,-2.52024,0.65577,0.269923,0.866026,-0.0254394,0.0652894,0,-0.00616163,0.0182005,2.22456,5,0.1,16,1.1,3.82463,-3.50482,0.650817,-0.0926208,0.866026,0.0226135,-0.0212342,0,0.00521168,0.0100892,2.26453,5,0.1,17,1.1,0.277084,2.98855,0.503309,-0.540495,-0.863583,-0.0163475,-0.0168113,-0.0164062,0.0491142,0.0111482,1.22579,5,0.1,18,1.1,-2.20105,-3.88249,0.565499,0.437423,0.581493,0.0273796,-0.045225,-0.0599623,-0.00282377,0.0107117,0.406823,5,0.1,19,1.1,-3.17079,3.16411,0.552601,0.86587,-0.626713,0.0217835,-0.00624359,-0.16056,0.00559166,0.0152577,2.0374,5,0.1,20,1.1,-3.34531,-1.05618,0.591371,0.773534,0.447443,0.00612363,-0.257179,-0.0204593,0.00787526,0.0395969,2.28699,5,0.1,21,1.1,-1.13152,0.418576,0.660898,-0.103887,-0.847875,-0.0129149,0.282258,0.0901541,0.0325479,0.0131874,2.34504,5,0.1,22,1.1,-0.157718,1.55864,0.553033,-0.112938,-0.403743,0.0372711,0.0116406,0.0416785,-0.00383332,0.0116042,0.135949,5,0.1,23,1.1,-1.62955,-0.0679044,0.713275,-0.294231,-0.1837,0.0292045,0.680469,0.0181531,-0.00309572,0.00849632,0.196761,5,0.1,24,1.1,1.84528,3.22753,0.614848,-0.847239,0.0615276,0.023193,0.161543,-0.909269,0.113089,0.0161304,2.63821,5,0.1,25,1.1,-2.46226,-0.386212,0.593265,0.557926,0.101561,0.101299,-0.107199,0.20064,0.198167,0.0167158,0.871799,5,0.1,26,1.1,3.54192,1.0611,0.593623,-0.14824,0.866026,0.00391044,-0.0344217,0,0.000923872,0.00928319,2.25768,5,0.1,27,1.1,3.52521,2.84949,0.646649,-0.836379,0.0684727,-0.0212277,0.563636,0.0437647,-0.0135712,0.011285,2.61322,5,0.1,28,1.1,1.50636,0.67957,0.600033,-0.243173,0.532156,-1.84402e-05,0.0251308,-0.054881,1.49012e-05,0.0221135,0.262721,5,0.1,29,1.1,-0.383664,-0.7289,0.540797,0.542611,0.674349,-0.0121332,0.425424,-0.0489689,0.017304,0.0146583,1.80893,5,0.1,30,1.1,-3.41486,-2.25206,0.59317,0.111818,0.866026,0.00257855,-0.11912,0,-4.09782e-05,0.0123679,2.26955,5,0.1,31,1.1,3.73152,-1.95437,0.609122,-0.0756558,0.866025,-0.00566766,-0.018701,1.49012e-05,0.0103861,0.0183738,2.26816,5,0.1,32,1.1,-0.205724,-0.882658,0.61503,0.229358,0.330298,0.0392899,0.505384,-1.29863,0.178471,0.0104084,0.417021,5,0.1,33,1.1,-1.55333,-1.49526,0.581849,0.803262,-0.0093149,0.00823447,-0.616953,0.308774,-0.0145994,0.013555,2.62482,5,0.1,34,1.1,1.77357,3.50933,0.542681,-0.83061,-0.377136,-0.000370201,0.649124,1.25191,-0.139806,0.0105098,1.017,5,0.1,35,1.1,-2.89344,4.2438,0.57081,-0.855811,-0.14691,0.0664509,0.0307113,0.0152886,-0.00686571,0.00924706,0.899757,5,0.1,36,1.1,-2.74762,-1.15131,0.646125,0.368173,0.266511,-0.00673896,-0.0378191,-0.0274777,0.000681728,0.0106198,0.158585,5,0.1,37,1.1,2.15249,-0.49343,0.586285,0.163171,0.849094,0.0767811,-0.0167787,-0.107672,-0.00791624,0.0106704,0.716953,5,0.1,38,1.1,-3.14709,3.67967,0.665726,0.61674,-0.671348,-0.0267482,-0.0635684,0.069201,0.00273064,0.0102755,0.63839,5,0.1,39,1.1,2.05467,-3.53373,0.503799,-0.18996,0.866026,-0.0107219,-0.0473112,0,0.00923499,0.0197323,2.24834,5,0.1
0,1.2,4.0405,0.712681,0.614375,-0.435126,0.866026,-0.00701696,0.0064373,0,0.000119209,0.0297528,2.15326,5,0.1,1,1.2,1.03715,-0.789586,0.588649,0.137177,0.665078,0.00956208,-0.051558,-0.249863,-0.00360608,0.0118425,0.24624,5,0.1,2,1.2,-2.51965,-4.09061,0.652626,0.687212,0.144088,0.0403807,-0.349998,0.00739098,-0.00244379,0.00939343,2.83966,5,0.1,3,1.2,1.12078,3.12531,0.588002,-0.564989,-0.737262,0.010103,0.212252,0.276923,-0.00378489,0.0151991,0.4607,5,0.1,4,1.2,-1.9303,-4.10395,0.610132,-0.0905275,0.344443,0.0425234,0.000476837,0.00190735,0.0051856,0.0084519,0.0961198,5,0.1,5,1.2,-2.85156,-0.753829,0.567349,0.866026,-0.00659078,-0.00138283,0,8.9407e-05,5.96046e-05,0.00828343,2.27189,5,0.1,6,1.2,-3.75811,0.648963,0.500268,0.522256,-0.801052,-0.00269115,-0.221372,0.305295,0.0186861,0.0112199,0.481136,5,0.1,7,1.2,-0.355634,4.06503,0.65633,-0.283179,-0.218058,-0.0225231,0.971973,0.327349,-0.00488758,0.00854479,3.39396,5,0.1,8,1.2,-1.42449,-0.194813,0.574529,0.118268,0.175732,-0.100963,-0.375032,0.02262,0.0089407,0.0105586,3.22228,5,0.1,9,1.2,-2.23232,3.8786,0.715243,0.862968,0.12579,0.0255048,-0.0611544,-0.0365973,-0.00742078,0.017179,1.07521,5,0.1,10,1.2,1.60204,-1.18788,0.582461,-0.169632,0.866026,0.00739694,0.00363588,-5.96046e-05,-0.000149012,0.0187058,2.25339,5,0.1,11,1.2,1.52316,-3.34638,0.500006,-0.0771016,0.79267,-0.000107288,0.00107288,-0.566483,0.0012815,0.0196017,2.52089,5,0.1,12,1.2,-3.12191,-3.86335,0.617001,0.866026,-0.132245,-0.0213563,0,0.00214577,0.000327826,0.0086036,2.28195,5,0.1,13,1.2,1.68203,-2.13804,0.696814,-0.855294,0.79506,0.0229999,0.0151396,-0.000119209,0,0.0128173,2.15368,5,0.1,14,1.2,-1.11244,-1.76779,0.602872,0.468659,0.866026,-0.0016585,-0.00679493,-5.96046e-05,2.98023e-05,0.0346032,2.18072,5,0.1,15,1.2,-0.864527,-2.43364,0.653204,0.273441,0.866026,-0.0257716,-0.00578165,0,0.000566244,0.0205244,2.24733,5,0.1,16,1.2,3.81529,-3.41822,0.653096,-0.0936985,0.866026,0.0228778,0.00345707,0,-0.00077486,0.00901521,1.80143,5,0.1,17,1.2,0.22317,2.9023,0.501916,-0.535185,-0.858551,-0.0115678,0.137731,0.149727,0.0456572,0.0107954,0.868409,5,0.1,18,1.2,-2.1577,-3.82486,0.568212,0.427651,0.568521,0.0267684,-0.160694,-0.213623,-0.0100136,0.00967491,0.488297,5,0.1,19,1.2,-3.08429,3.10085,0.554801,0.863534,-0.635904,0.0221029,-0.0499487,0.00238419,-8.9407e-05,0.0144103,2.03126,5,0.1,20,1.2,-3.2694,-1.01155,0.592019,0.742447,0.44423,0.00679493,-0.386,-0.0661314,0.00521541,0.0423565,2.31957,5,0.1,21,1.2,-1.14042,0.334418,0.659782,-0.0735849,-0.832691,-0.00931472,0.313282,0.243874,0.0379682,0.0127482,2.34974,5,0.1,22,1.2,-0.168911,1.51862,0.556727,-0.110418,-0.394729,0.0364408,0.0414774,0.148237,-0.0136793,0.0110749,0.158046,5,0.1,23,1.2,-1.6555,-0.086114,0.716169,-0.224596,-0.179679,0.0285432,0.697374,0.0667349,-0.0107884,0.010934,0.358628,5,0.1,24,1.2,1.76164,3.22915,0.61774,-0.822315,-0.0282586,0.0345573,0.357807,-0.856161,0.108182,0.0136672,2.58078,5,0.1,25,1.2,-2.40682,-0.375027,0.604082,0.551724,0.121989,0.112195,-0.056386,0.193045,0.0282228,0.0186341,0.355952,5,0.1,26,1.2,3.52697,1.14771,0.594017,-0.150007,0.866026,0.00395626,0.00476837,0,-8.9407e-05,0.0100968,1.89752,5,0.1,27,1.2,3.44511,2.85654,0.644464,-0.758892,0.0722468,-0.0223964,0.959277,0.0274181,-0.00855327,0.0100124,2.00905,5,0.1,28,1.2,1.48226,0.73231,0.600031,-0.237742,0.520281,-1.78814e-05,0.0892878,-0.195414,2.98023e-05,0.0251772,0.174698,5,0.1,29,1.2,-0.327064,-0.662349,0.539727,0.589921,0.650527,-0.00878423,0.460148,-0.417501,0.0455976,0.0122078,1.36707,5,0.1,30,1.2,-3.40431,-2.16546,0.593427,0.0989318,0.866026,0.00254512,-0.137925,0,-0.000655651,0.0142768,2.27013,5,0.1,31,1.2,3.72389,-1.86777,0.608605,-0.0766873,0.866026,-0.00469983,0.00119209,-5.96046e-05,0.00905991,0.0197485,2.26809,5,0.1,32,1.2,-0.180475,-0.856144,0.619847,0.273052,0.200598,0.0567898,0.351667,-1.26255,0.162899,0.0139045,0.792029,5,0.1,33,1.2,-1.47656,-1.49472,0.582591,0.727668,0.0194222,0.00654459,-0.882208,0.259459,-0.0184774,0.014419,2.60126,5,0.1,34,1.2,1.69476,3.4784,0.541896,-0.736812,-0.237763,-0.0155941,1.17677,1.47104,-0.155777,0.0210781,2.35293,5,0.1,35,1.2,-2.97868,4.22924,0.577396,-0.846416,-0.143623,0.0649661,0.190258,0.0538826,-0.0243783,0.010417,0.640987,5,0.1,36,1.2,-2.71113,-1.1249,0.645457,0.35997,0.260568,-0.00658929,-0.135183,-0.0979304,0.00247359,0.012624,0.106241,5,0.1,37,1.2,2.16866,-0.409276,0.593894,0.159538,0.83109,0.0750676,-0.0599623,-0.279502,-0.0282228,0.0102537,0.498318,5,0.1,38,1.2,-3.08596,3.61313,0.663075,0.602984,-0.656366,-0.026153,-0.226498,0.246406,0.00980496,0.0113933,0.424497,5,0.1,39,1.2,2.0355,-3.44713,0.502784,-0.192595,0.866026,-0.00949353,0.00238419,0,0.0148118,0.0218113,2.24783,5,0.1
0,1.3,3.9969,0.799283,0.613672,-0.437491,0.866026,-0.00705412,-0.0289083,-3.72529e-06,-0.000465661,0.0297528,2.15326,5,0.1,1,1.3,1.05061,-0.7243,0.589588,0.132081,0.640378,0.00920584,-0.0546426,-0.264801,-0.00381097,0.0118425,0.24624,5,0.1,2,1.3,-2.4531,-4.07624,0.656682,0.639904,0.14255,0.0409458,-0.58654,-0.0394285,0.0103191,0.00939343,2.83966,5,0.1,3,1.3,1.06532,3.05294,0.588994,-0.544008,-0.709886,0.0097286,0.22494,0.293478,-0.00401586,0.0151991,0.4607,5,0.1,4,1.3,-1.93937,-4.06943,0.614414,-0.0909643,0.346363,0.0430974,-0.00428408,0.0178516,0.0041835,0.0084519,0.0961198,5,0.1,5,1.3,-2.76496,-0.754489,0.567211,0.866026,-0.00662589,-0.0013873,0,-0.000413507,-7.45058e-05,0.00828343,2.27189,5,0.1,6,1.3,-3.70696,0.57035,0.50008,0.500531,-0.7709,-0.00117207,-0.228956,0.322565,0.0118054,0.0112199,0.481136,5,0.1,7,1.3,-0.379776,4.04501,0.65405,-0.209294,-0.181229,-0.0230698,0.407293,0.398666,-0.00480562,0.00854479,3.39396,5,0.1,8,1.3,-1.4146,-0.175324,0.564633,0.0793653,0.228965,-0.0955566,-0.392802,0.920616,0.0931285,0.0105586,3.22228,5,0.1,9,1.3,-2.14608,3.89102,0.717761,0.863355,0.122608,0.02486,0.0231564,-0.0322163,-0.00652671,0.017179,1.07521,5,0.1,10,1.3,1.58505,-1.10128,0.583202,-0.170396,0.866025,0.00743121,-0.00938028,1.49012e-05,0.000417233,0.0187058,2.25339,5,0.1,11,1.3,1.51544,-3.27036,0.500001,-0.0775414,0.727395,-1.49943e-05,-0.00543147,-0.59934,0.000607222,0.0196017,2.52089,5,0.1,12,1.3,-3.03531,-3.87649,0.614843,0.86555,-0.129703,-0.0219994,-0.0190437,0.0490099,-0.0107996,0.0086036,2.28195,5,0.1,13,1.3,1.59777,-2.05828,0.699122,-0.819088,0.801302,0.0231809,0.66597,0.0774786,0.00224635,0.0128173,2.15368,5,0.1,14,1.3,-1.06575,-1.68119,0.602791,0.463483,0.866025,0.000772905,-0.106305,1.49012e-05,0.0432692,0.0346032,2.18072,5,0.1,15,1.3,-0.837334,-2.34703,0.650714,0.269111,0.866026,-0.0232807,-0.0838414,0,0.0449084,0.0205244,2.24733,5,0.1,16,1.3,3.80593,-3.33162,0.655382,-0.0935107,0.866026,0.0228379,0.00447035,0,-0.00104308,0.00901521,1.80143,5,0.1,17,1.3,0.170325,2.81704,0.500975,-0.521403,-0.847144,-0.00737095,0.156054,0.117779,0.0378229,0.0107954,0.868409,5,0.1,18,1.3,-2.11699,-3.76926,0.57069,0.37565,0.541638,0.0215051,-0.81192,-0.329003,-0.0865273,0.00967491,0.488297,5,0.1,19,1.3,-2.99797,3.03708,0.557017,0.863996,-0.640413,0.0222586,0.0273883,-0.0552237,0.00190735,0.0144103,2.03126,5,0.1,20,1.3,-3.19654,-0.967008,0.592816,0.718852,0.450113,0.00988683,-0.138164,0.139397,0.0504516,0.0423565,2.31957,5,0.1,21,1.3,-1.14622,0.251442,0.65904,-0.0426697,-0.833938,-0.00554677,0.298955,-0.184549,0.0366196,0.0127482,2.34974,5,0.1,22,1.3,-0.179815,1.47984,0.560326,-0.108164,-0.381012,0.0356982,0.0112103,0.140488,-0.00368431,0.0110749,0.158046,5,0.1,23,1.3,-1.67455,-0.103862,0.718987,-0.157331,-0.176099,0.0279524,0.637129,0.0172867,-0.00298396,0.010934,0.358628,5,0.1,24,1.3,1.68019,3.22344,0.621591,-0.81457,-0.0736613,0.0411275,-0.117421,-0.112459,0.0277124,0.0136672,2.58078,5,0.1,25,1.3,-2.35269,-0.362105,0.615879,0.523875,0.134149,0.127267,-0.47271,0.054663,0.240348,0.0186341,0.355952,5,0.1,26,1.3,3.51197,1.23431,0.594413,-0.149936,0.866026,0.00395719,0.00374019,0,-7.45058e-05,0.0100968,1.89752,5,0.1,27,1.3,3.37465,2.86393,0.642174,-0.645236,0.0755575,-0.023427,1.2736,0.0336021,-0.010442,0.0100124,2.00905,5,0.1,28,1.3,1.45892,0.783382,0.60003,-0.228916,0.500963,-1.57394e-05,0.0946298,-0.207115,1.11759e-05,0.0251772,0.174698,5,0.1,29,1.3,-0.265381,-0.599659,0.539119,0.646052,0.600624,-0.00304133,0.600242,-0.576444,0.0655353,0.0122078,1.36707,5,0.1,30,1.3,-3.39509,-2.07886,0.593679,0.0856221,0.866026,0.00249539,-0.129074,0,-0.000461936,0.0142768,2.27013,5,0.1,31,1.3,3.7162,-1.78117,0.608176,-0.0771053,0.866025,-0.00390653,-0.0051558,1.49012e-05,0.00696629,0.0197485,2.26809,5,0.1,32,1.3,-0.152194,-0.840879,0.626118,0.285435,0.118232,0.0665627,-0.0762315,-0.45009,0.0393987,0.0139045,0.792029,5,0.1,33,1.3,-1.40789,-1.49225,0.583158,0.648207,0.0231316,0.004825,-0.728779,-0.145026,-0.0158846,0.014419,2.60126,5,0.1,34,1.3,1.62606,3.46096,0.539672,-0.644893,-0.120623,-0.0277907,0.712037,0.900954,-0.0899956,0.0210781,2.35293,5,0.1,35,1.3,-3.06252,4.21514,0.583773,-0.830963,-0.138294,0.0625555,0.156328,0.0571311,-0.0258498,0.010417,0.640987,5,0.1,36,1.3,-2.67583,-1.0994,0.644816,0.345599,0.248727,-0.0061864,-0.161186,-0.142179,0.00543892,0.012624,0.106241,5,0.1,37,1.3,2.18433,-0.32745,0.601263,0.153611,0.805763,0.072278,-0.0635386,-0.258959,-0.0299029,0.0102537,0.498318,5,0.1,38,1.3,-3.02677,3.5487,0.660508,0.580594,-0.632005,-0.0251834,-0.240043,0.261232,0.0103973,0.0113933,0.424497,5,0.1,39,1.3,2.0162,-3.36053,0.501915,-0.193748,0.866026,-0.0078395,-0.0142902,0,0.017792,0.0218113,2.24783,5,0.1
0,1.4,3.95312,0.885886,0.612966,-0.436682,0.866026,-0.0070408,0.0625849,0,0.000983477,0.0264031,2.15897,5,0.1,1,1.4,1.06351,-0.661748,0.590487,0.125542,0.608684,0.00874847,-0.0789165,-0.382751,-0.00548363,0.0143218,0.16208,5,0.1,2,1.4,-2.39236,-4.06226,0.660826,0.571835,0.136054,0.0418529,-0.764966,-0.0910759,0.00533462,0.0107404,3.14892,5,0.1,3,1.4,1.01218,2.9836,0.589944,-0.517084,-0.674754,0.00924915,0.325114,0.424147,-0.00584126,0.0104913,0.303244,5,0.1,4,1.4,-1.94846,-4.0348,0.618729,-0.0905484,0.344861,0.0430062,0.0160336,-0.0607967,-0.00742078,0.00831091,0.0745717,5,0.1,5,1.4,-2.67836,-0.755152,0.567072,0.866026,-0.00661016,-0.00138283,0,0.000953674,0.000208616,0.00736682,0.858068,5,0.1,6,1.4,-3.65817,0.495066,0.500012,0.473833,-0.732413,-0.000296533,-0.315547,0.463575,0.00593066,0.0111324,0.317344,5,0.1,7,1.4,-0.4,4.02892,0.651728,-0.207912,-0.140226,-0.0232756,-0.343129,0.412703,0.00151992,0.00896653,3.08448,5,0.1,8,1.4,-1.40859,-0.147167,0.55564,0.0414878,0.338353,-0.083454,-0.357151,1.17354,0.143737,0.00896201,2.7596,5,0.1,9,1.4,-2.05979,3.90309,0.720209,0.86,0.118476,0.0240222,-0.12058,-0.0542402,-0.0109971,0.0164705,0.780979,5,0.1,10,1.4,1.56801,-1.01467,0.583945,-0.169882,0.866024,0.00741035,0.0262856,2.98023e-05,-0.00116229,0.0197857,2.25392,5,0.1,11,1.4,1.50767,-3.2,0.500001,-0.0774324,0.686222,2.23517e-05,0.0106692,-0.229359,0.000178814,0.018934,2.50201,5,0.1,12,1.4,-2.94901,-3.88914,0.612587,0.858414,-0.12244,-0.0230998,-0.152469,0.0960827,-0.00944734,0.00823268,2.43296,5,0.1,13,1.4,1.51997,-1.97795,0.701445,-0.730079,0.802472,0.023216,1.07741,-0.0873804,-0.0025332,0.0122913,2.44418,5,0.1,14,1.4,-1.02016,-1.59459,0.60312,0.445902,0.866026,0.00604689,-0.250667,-5.96046e-05,0.0580847,0.00778875,0.758253,5,0.1,15,1.4,-0.810991,-2.26043,0.648654,0.256255,0.866026,-0.0175729,-0.174403,0,0.0657737,0.0197611,2.24683,5,0.1,16,1.4,3.79663,-3.24502,0.657654,-0.0920951,0.866026,0.0224963,0.0265837,0,-0.00649691,0.0106756,1.39593,5,0.1,17,1.4,0.119116,2.73313,0.500412,-0.500957,-0.82835,-0.00406951,0.264897,0.285149,0.0280142,0.0104692,0.600034,5,0.1,18,1.4,-2.0841,-3.71696,0.572341,0.277388,0.50205,0.0110209,-1.09923,-0.464559,-0.116289,0.00924387,0.226072,5,0.1,19,1.4,-2.9115,2.97292,0.559247,0.864518,-0.640601,0.0222653,-0.0302792,0.0777245,-0.00274181,0.0158843,2.03166,5,0.1,20,1.4,-3.12529,-0.92126,0.594089,0.705773,0.464398,0.0157937,-0.161767,0.113666,0.0629425,0.0409559,2.28427,5,0.1,21,1.4,-1.14906,0.166987,0.658661,-0.0148356,-0.854936,-0.00212193,0.253379,-0.173039,0.0313222,0.0150844,2.29903,5,0.1,22,1.4,-0.190575,1.44253,0.563877,-0.106867,-0.364217,0.035271,0.0202283,0.2051,-0.00664592,0.00951649,0.162424,5,0.1,23,1.4,-1.68726,-0.121383,0.721767,-0.0989318,-0.174081,0.0276074,0.524044,0.0320488,-0.00530481,0.00892927,0.34416,5,0.1,24,1.4,1.59794,3.21632,0.625741,-0.830886,-0.0617266,0.0409395,-0.145257,0.302076,-0.0275671,0.0159232,2.39929,5,0.1,25,1.4,-2.30316,-0.348614,0.629934,0.462365,0.133819,0.154477,-0.733256,-0.0567585,0.27889,0.0142423,0.511988,5,0.1,26,1.4,3.49705,1.32091,0.594807,-0.148064,0.866026,0.00390857,0.0385046,0,-0.000983477,0.0101869,1.54524,5,0.1,27,1.4,3.31673,2.87163,0.639787,-0.511396,0.0780821,-0.0242114,1.37091,0.0132322,-0.00408292,0.0104411,1.58991,5,0.1,28,1.4,1.43656,0.832316,0.600028,-0.217587,0.476173,-1.49012e-05,0.136733,-0.299424,2.98023e-05,0.0276718,0.114989,5,0.1,29,1.4,-0.197963,-0.54271,0.539151,0.699274,0.536165,0.00366569,0.419461,-0.707656,0.0658035,0.0111037,1.01531,5,0.1,30,1.4,-3.38716,-1.99225,0.593925,0.0729859,0.866026,0.00243336,-0.124097,-5.96046e-05,-0.00089407,0.0135258,2.27076,5,0.1,31,1.4,3.70849,-1.69456,0.607818,-0.0769794,0.866026,-0.00327826,0.0110865,-5.96046e-05,0.00569224,0.0186783,2.26816,5,0.1,32,1.4,-0.124547,-0.830409,0.632814,0.262942,0.0987753,0.0659451,-0.350043,0.00822544,-0.045836,0.0113404,0.609443,5,0.1,33,1.4,-1.34661,-1.49106,0.583565,0.578171,-0.0023663,0.00337362,-0.68754,-0.333011,-0.0131428,0.0157644,2.18164,5,0.1,34,1.4,1.56471,3.45266,0.536539,-0.585505,-0.0521541,-0.0339597,0.514328,0.493407,-0.0352561,0.00901253,0.436401,5,0.1,35,1.4,-3.14464,4.20164,0.589884,-0.808805,-0.131464,0.0594601,0.312567,0.0829697,-0.0373721,0.0135474,0.444883,5,0.1,36,1.4,-2.64217,-1.07533,0.644228,0.326276,0.231639,-0.00553131,-0.231147,-0.201166,0.00756979,0.00933042,0.12365,5,0.1,37,1.4,2.19933,-0.248347,0.608323,0.146008,0.773932,0.0686988,-0.0919104,-0.399388,-0.0431836,0.010116,0.339578,5,0.1,38,1.4,-2.97006,3.48697,0.658048,0.551862,-0.600737,-0.0239372,-0.347018,0.377774,0.0150204,0.0138136,0.279409,5,0.1,39,1.4,1.9968,-3.27392,0.501221,-0.193557,0.866026,-0.00601858,0.0258684,0,0.018239,0.0178515,2.24822,5,0.1
0,1.5,3.90974,0.972486,0.612266,-0.430676,0.865922,-0.00696685,0.0745058,-0.00414997,0.000812113,0.0264031,2.15897,5,0.1,1,1.5,1.07569,-0.60272,0.591335,0.118014,0.572175,0.00822507,-0.0752136,-0.364725,-0.00523031,0.0143218,0.16208,5,0.1,2,1.5,-2.33889,-4.0496,0.665072,0.498501,0.113145,0.0433173,-0.708222,-0.33921,0.0199452,0.0107404,3.14892,5,0.1,3,1.5,0.962037,2.91816,0.590841,-0.486072,-0.634295,0.00869241,0.309803,0.404224,-0.00555813,0.0104913,0.303244,5,0.1,4,1.5,-1.95746,-4.00051,0.623002,-0.0896458,0.341379,0.042495,0.00713766,-0.028193,-0.00501052,0.00831091,0.0745717,5,0.1,5,1.5,-2.59348,-0.7549,0.566721,0.816255,0.019271,-0.00742488,-0.920966,0.459205,-0.10743,0.00736682,0.858068,5,0.1,6,1.5,-3.6123,0.424053,0.500005,0.443825,-0.688209,0.000105333,-0.297919,0.441266,0.00235066,0.0111324,0.317344,5,0.1,7,1.5,-0.424038,4.01691,0.649394,-0.285207,-0.100579,-0.0234922,-1.08742,0.376135,-0.00409782,0.00896653,3.08448,5,0.1,8,1.5,-1.40616,-0.106734,0.548059,0.0077378,0.475158,-0.0678211,-0.312462,1.46723,0.165019,0.00896201,2.7596,5,0.1,9,1.5,-1.9742,3.91468,0.72256,0.852522,0.113497,0.0230128,-0.0715777,-0.0495762,-0.0100508,0.0164705,0.780979,5,0.1,10,1.5,1.5511,-0.928071,0.584682,-0.168652,0.866026,0.00735559,0.00775605,0,-0.000342727,0.0197857,2.25392,5,0.1,11,1.5,1.49996,-3.13128,0.500004,-0.0770316,0.697975,2.94298e-05,0.00175834,0.365734,-1.49012e-05,0.018934,2.50201,5,0.1,12,1.5,-2.8642,-3.90077,0.61017,0.834736,-0.109152,-0.025708,-0.333667,0.163555,-0.0377372,0.00823268,2.43296,5,0.1,13,1.5,1.45299,-1.89785,0.703763,-0.604373,0.801417,0.0231856,1.37937,0.0181422,0.000525266,0.0122913,2.44418,5,0.1,14,1.5,-0.976572,-1.50989,0.604011,0.427602,0.811178,0.011674,-0.14136,-1.0111,0.0527166,0.00778875,0.758253,5,0.1,15,1.5,-0.786217,-2.17383,0.647178,0.239266,0.866026,-0.0123864,-0.171583,0,0.0396669,0.0197611,2.24683,5,0.1,16,1.5,3.78754,-3.15842,0.659873,-0.089607,0.865822,0.0218884,0.0265688,-0.00816584,-0.00649318,0.0106756,1.39593,5,0.1,17,1.5,0.070295,2.6516,0.500127,-0.47557,-0.802586,-0.0017982,0.257905,0.262022,0.0176579,0.0104692,0.600034,5,0.1,18,1.5,-2.06187,-3.66881,0.57281,0.167846,0.463254,-0.00199536,-1.06858,-0.334814,-0.137623,0.00924387,0.226072,5,0.1,19,1.5,-2.82506,2.90902,0.561468,0.864984,-0.638658,0.0221941,0.0144988,-0.00138581,1.86265e-05,0.0158843,2.03166,5,0.1,20,1.5,-3.05471,-0.873908,0.595919,0.712189,0.484944,0.0201889,0.215292,0.253588,0.0264831,0.0409559,2.28427,5,0.1,21,1.5,-1.14974,0.080893,0.65855,-0.00277683,-0.864723,-0.00056373,0.00977516,-0.0399122,0.00241771,0.0150844,2.29903,5,0.1,22,1.5,-0.201132,1.40749,0.567361,-0.103945,-0.333256,0.0343096,0.0400655,0.395782,-0.0132024,0.00951649,0.162424,5,0.1,23,1.5,-1.69478,-0.138663,0.724507,-0.053731,-0.171606,0.0271928,0.379235,0.0254759,-0.00425428,0.00892927,0.34416,5,0.1,24,1.5,1.51389,3.21232,0.629632,-0.850926,-0.0130169,0.0363319,-0.206068,0.623882,-0.0613146,0.0159232,2.39929,5,0.1,25,1.5,-2.2599,-0.335307,0.646158,0.408786,0.133963,0.164432,-0.378087,0.0428818,-0.0554472,0.0142423,0.511988,5,0.1,26,1.5,3.48242,1.40714,0.595193,-0.14454,0.854596,0.00381786,0.0377148,-0.238881,-0.000983477,0.0101869,1.54524,5,0.1,27,1.5,3.27249,2.87951,0.637343,-0.373926,0.0795819,-0.0246744,1.34279,0.012666,-0.00390038,0.0104411,1.58991,5,0.1,28,1.5,1.41546,0.878494,0.600027,-0.204543,0.447611,-1.27591e-05,0.130311,-0.285327,1.11759e-05,0.0276718,0.114989,5,0.1,29,1.5,-0.125814,-0.492652,0.539856,0.743701,0.464827,0.0104794,0.420525,-0.717651,0.0676811,0.0111037,1.01531,5,0.1,30,1.5,-3.38045,-1.90565,0.594165,0.061661,0.866025,0.00236649,-0.103891,1.49012e-05,-0.000566244,0.0135258,2.27076,5,0.1,31,1.5,3.70082,-1.60796,0.607515,-0.0765461,0.866025,-0.00280375,0.00195205,1.49012e-05,0.00395998,0.0186783,2.26816,5,0.1,32,1.5,-0.100319,-0.819775,0.639081,0.218995,0.119801,0.0585495,-0.508844,0.362951,-0.0971369,0.0113404,0.609443,5,0.1,33,1.5,-1.29078,-1.4929,0.583857,0.5505,-0.033661,0.00261832,0.0405684,-0.286505,-0.00292063,0.0157644,2.18164,5,0.1,34,1.5,1.50929,3.45047,0.532874,-0.517802,0.0129286,-0.040035,0.811562,0.759169,-0.0778623,0.00901253,0.436401,5,0.1,35,1.5,-3.22408,4.18889,0.59565,-0.780441,-0.123554,0.0558949,0.285238,0.0789464,-0.035625,0.0135474,0.444883,5,0.1,36,1.5,-2.61051,-1.05301,0.643709,0.308471,0.216151,-0.00489922,-0.14326,-0.122309,0.00534579,0.00933042,0.12365,5,0.1,37,1.5,2.21349,-0.172832,0.614985,0.137242,0.736868,0.0645796,-0.0875592,-0.368083,-0.041157,0.010116,0.339578,5,0.1,38,1.5,-2.91654,3.42871,0.655726,0.518761,-0.564703,-0.0225038,-0.330672,0.359997,0.0143312,0.0138136,0.279409,5,0.1,39,1.5,1.97751,-3.18732,0.500709,-0.192705,0.866026,-0.00425875,0.00236183,0,0.0166968,0.0178515,2.24822,5,0.1
0,1.6,3.86718,1.05902,0.611575,-0.418943,0.864366,-0.00682324,0.171542,-0.0331998,0.00226498,0.0265508,2.21921,5,0.1,1,1.6,1.0871,-0.547411,0.592131,0.109905,0.532851,0.00766069,-0.089407,-0.433385,-0.00619888,0.0153165,0.10653,5,0.1,2,1.6,-2.29253,-4.0402,0.669501,0.429112,0.0732064,0.045149,-0.683665,-0.437737,0.0137687,0.00706609,0.691257,5,0.1,3,1.6,0.915051,2.85685,0.591681,-0.452667,-0.590712,0.00809431,0.368088,0.480413,-0.00658631,0.0102261,0.19931,5,0.1,4,1.6,-1.96637,-3.96659,0.627216,-0.0882536,0.335956,0.0416324,0.0241995,-0.0936985,-0.0136793,0.00792807,0.0340976,5,0.1,5,1.6,-2.51747,-0.750311,0.565356,0.695437,0.0750244,-0.0204489,-1.43361,0.611186,-0.142515,0.00750955,0.318459,5,0.1,6,1.6,-3.56947,0.35754,0.500023,0.412035,-0.640689,0.000219047,-0.346899,0.523075,0.000119209,0.0116084,0.293007,5,0.1,7,1.6,-0.458442,4.00865,0.647027,-0.405057,-0.0656724,-0.0237942,-1.22157,0.319004,-0.000655651,0.00887017,0.216409,5,0.1,8,1.6,-1.40684,-0.0520419,0.54211,-0.0201046,0.615264,-0.0511497,-0.240922,1.26486,0.165313,0.00988412,2.43076,5,0.1,9,1.6,-1.88951,3.92577,0.724807,0.838464,0.107843,0.0218675,-0.239074,-0.0661612,-0.0134408,0.0165528,2.31704,5,0.1,10,1.6,1.5343,-0.841469,0.585415,-0.166726,0.866026,0.00727028,0.0374317,0,-0.00160933,0.0192093,2.25487,5,0.1,11,1.6,1.49228,-3.05934,0.500007,-0.0763297,0.742084,2.08616e-05,0.0154376,0.442266,-8.9407e-05,0.0190201,2.34248,5,0.1,12,1.6,-2.78277,-3.9108,0.607397,0.789785,-0.0908434,-0.0297755,-0.571728,0.19753,-0.0398755,0.00834981,2.64593,5,0.1,13,1.6,1.39957,-1.81776,0.70608,-0.46407,0.797883,0.0230834,1.38545,-0.123024,-0.00357628,0.0119953,2.71788,5,0.1,14,1.6,-0.934513,-1.43491,0.605421,0.413153,0.679433,0.0162974,-0.166357,-1.55348,0.0385344,0.00823719,0.197704,5,0.1,15,1.6,-0.763184,-2.08723,0.646106,0.220911,0.866026,-0.00932813,-0.199586,0,0.022918,0.0196819,2.31263,5,0.1,16,1.6,3.77874,-3.07194,0.662024,-0.0862062,0.862765,0.0210568,0.0436306,-0.0653267,-0.0106692,0.0113048,1.05045,5,0.1,17,1.6,0.024116,2.57283,0.50002,-0.446861,-0.770581,-0.000479817,0.326356,0.399828,0.00908971,0.0101242,0.407841,5,0.1,18,1.6,-2.05022,-3.6241,0.57193,0.0676513,0.431043,-0.0153854,-0.918627,-0.326395,-0.125378,0.00865228,0.187795,5,0.1,19,1.6,-2.73855,2.84527,0.563683,0.864273,-0.63448,0.0220478,-0.0349283,0.11158,-0.00393391,0.0155553,2.00189,5,0.1,20,1.6,-2.98229,-0.824209,0.598021,0.735819,0.507583,0.0213832,0.201702,0.167578,-0.00119209,0.0422815,2.29702,5,0.1,21,1.6,-1.15022,-0.00567737,0.658476,-0.0089258,-0.866025,-0.00117421,-0.115156,-1.19209e-06,-0.012517,0.0134204,0.911407,5,0.1,22,1.6,-0.211281,1.37634,0.570711,-0.0985652,-0.28832,0.0325352,0.0685453,0.488758,-0.0225902,0.0104918,0.281697,5,0.1,23,1.6,-1.69849,-0.155653,0.727198,-0.0229627,-0.167632,0.0265449,0.238001,0.0595003,-0.00965595,0.0094722,0.327435,5,0.1,24,1.6,1.42799,3.21434,0.632926,-0.864333,0.0545144,0.0292704,-0.0338554,0.689507,-0.0772476,0.0168124,2.30204,5,0.1,25,1.6,-2.22059,-0.321645,0.661939,0.379717,0.139464,0.147848,-0.233769,0.0545532,-0.256062,0.0140407,0.393892,5,0.1,26,1.6,3.46819,1.49095,0.595569,-0.139558,0.816783,0.00368655,0.0658035,-0.521719,-0.00169873,0.0102571,1.42555,5,0.1,27,1.6,3.24153,2.8875,0.634865,-0.248718,0.0799179,-0.0247777,1.13785,-0.00870228,0.00274181,0.0109426,1.20804,5,0.1,28,1.6,1.39569,0.921762,0.600026,-0.190488,0.416848,-1.19209e-05,0.154793,-0.339001,0,0.0250574,0.129209,5,0.1,29,1.6,-0.0496649,-0.449762,0.541227,0.775152,0.39297,0.0167206,0.174752,-0.717565,0.0551641,0.0121309,0.727832,5,0.1,30,1.6,-3.37478,-1.81905,0.594398,0.0519454,0.866026,0.00229925,-0.0915527,0,-0.000864267,0.0121552,2.27116,5,0.1,31,1.6,3.69319,-1.52136,0.607253,-0.075835,0.866026,-0.00245571,0.0152588,-5.96046e-05,0.00306964,0.0184115,2.2683,5,0.1,32,1.6,-0.0810881,-0.805729,0.6444,0.164776,0.16264,0.047417,-0.559539,0.455946,-0.121534,0.00989045,0.49888,5,0.1,33,1.6,-1.23496,-1.49758,0.584114,0.569758,-0.0586122,0.00261664,0.27281,-0.208199,0.00211596,0.0135187,1.8525,5,0.1,34,1.6,1.46187,3.45567,0.528468,-0.428337,0.091058,-0.0480697,0.95433,0.766277,-0.0765622,0.00889338,0.353034,5,0.1,35,1.6,-3.30054,4.17695,0.601053,-0.74662,-0.115049,0.0520542,0.411749,0.0936985,-0.0423491,0.010269,0.303172,5,0.1,36,1.6,-2.58036,-1.03197,0.643244,0.294465,0.204799,-0.00441372,-0.149965,-0.114799,0.00450015,0.0106466,0.0751844,5,0.1,37,1.6,2.22675,-0.101109,0.621228,0.127804,0.695913,0.0601411,-0.103951,-0.468837,-0.0488758,0.0104996,0.228701,5,0.1,38,1.6,-2.8664,3.37412,0.653551,0.483108,-0.525892,-0.0209585,-0.392914,0.427842,0.0170171,0.0102804,0.183648,5,0.1,39,1.6,1.95828,-3.10072,0.500362,-0.191176,0.866026,-0.00272095,0.03618,0,0.0138283,0.0195066,2.24898,5,0.1
0,1.7,3.82638,1.14541,0.610905,-0.394686,0.863541,-0.0065472,0.309989,-0.0242814,0.00336021,0.0265508,2.21921,5,0.1,1,1.7,1.09766,-0.49619,0.592867,0.101524,0.492224,0.00707898,-0.0812262,-0.393715,-0.00564009,0.0153165,0.10653,5,0.1,2,1.7,-2.25395,-4.03515,0.674125,0.335124,0.0274017,0.0476141,-1.13468,-0.462711,0.0307374,0.00706609,0.691257,5,0.1,3,1.7,0.871538,2.80006,0.59246,-0.418161,-0.545675,0.00747694,0.334408,0.436455,-0.00597909,0.0102261,0.19931,5,0.1,4,1.7,-1.97507,-3.93349,0.631307,-0.0856107,0.325723,0.040134,0.0312701,-0.120804,-0.0173897,0.00792807,0.0340976,5,0.1,5,1.7,-2.45506,-0.739504,0.562509,0.553406,0.142637,-0.0371302,-1.39301,0.703447,-0.180166,0.00750955,0.318459,5,0.1,6,1.7,-3.52976,0.295962,0.500044,0.384027,-0.591665,0.000188034,-0.234336,0.4749,-0.000659376,0.0116084,0.293007,5,0.1,7,1.7,-0.504186,4.00358,0.64463,-0.501174,-0.0365838,-0.0242205,-0.702176,0.261486,-0.00604242,0.00887017,0.216409,5,0.1,8,1.7,-1.40999,0.0156337,0.537812,-0.0422185,0.735093,-0.0349682,-0.19715,1.07787,0.155926,0.00988412,2.43076,5,0.1,9,1.7,-1.80597,3.93621,0.727174,0.839088,0.100959,0.0275428,0.168927,-0.0733584,0.110861,0.0165528,2.31704,5,0.1,10,1.7,1.51778,-0.754866,0.586136,-0.163934,0.866026,0.00717361,0.0263453,-3.72529e-06,-0.000722706,0.0192093,2.25487,5,0.1,11,1.7,1.4847,-2.98254,0.500009,-0.0755202,0.795922,1.07102e-05,0.0051111,0.566557,-0.000108033,0.0190201,2.34248,5,0.1,12,1.7,-2.70663,-3.91867,0.604157,0.732834,-0.0646848,-0.0354852,-0.582725,0.308856,-0.0679456,0.00834981,2.64593,5,0.1,13,1.7,1.36005,-1.73828,0.708379,-0.3284,0.793529,0.0229564,1.26474,-0.0114292,-0.000335276,0.0119953,2.71788,5,0.1,14,1.7,-0.893764,-1.37458,0.607247,0.403745,0.528903,0.0201933,-0.0501797,-1.44637,0.0373423,0.00823719,0.197704,5,0.1,15,1.7,-0.74184,-2.0007,0.645275,0.208009,0.863143,-0.00743084,-0.0770427,-0.0850782,0.0155643,0.0196819,2.31263,5,0.1,16,1.7,3.77032,-2.98572,0.664079,-0.082102,0.863146,0.0200533,0.0412613,0.0254065,-0.0100918,0.0113048,1.05045,5,0.1,17,1.7,-0.0190133,2.49765,0.500008,-0.416149,-0.733535,0.000139233,0.300513,0.367269,0.00366196,0.0101242,0.407841,5,0.1,18,1.7,-2.04766,-3.58228,0.569749,-0.0126291,0.40795,-0.0282445,-0.685915,-0.164598,-0.126351,0.00865228,0.187795,5,0.1,19,1.7,-2.65215,2.78214,0.565876,0.864743,-0.629526,0.0218712,0.0175536,0.0244826,-0.000886619,0.0155553,2.00189,5,0.1,20,1.7,-2.90804,-0.772206,0.600178,0.74547,0.535242,0.021957,-0.0228733,0.334553,0.0102594,0.0422815,2.29702,5,0.1,21,1.7,-1.15074,-0.0905085,0.658686,0.00639576,-0.814855,0.00866149,0.365652,0.945831,0.184871,0.0134204,0.911407,5,0.1,22,1.7,-0.22083,1.35019,0.573863,-0.0926457,-0.233431,0.030584,0.0539133,0.567444,-0.0177734,0.0104918,0.281697,5,0.1,23,1.7,-1.69974,-0.17212,0.729804,-0.00333972,-0.161597,0.0255684,0.15156,0.0662431,-0.010673,0.0094722,0.327435,5,0.1,24,1.7,1.34145,3.2235,0.635446,-0.86592,0.13042,0.0210014,-0.00423193,0.788614,-0.0856705,0.0168124,2.30204,5,0.1,25,1.7,-2.18343,-0.307336,0.675191,0.366455,0.147309,0.115128,-0.0624359,0.0893772,-0.380516,0.0140407,0.393892,5,0.1,26,1.7,3.45454,1.56911,0.59593,-0.1334,0.738714,0.00352645,0.0620782,-0.987925,-0.0016205,0.0102571,1.42555,5,0.1,27,1.7,3.22199,2.89546,0.632399,-0.146651,0.079146,-0.0245346,0.872105,-0.0100434,0.0031516,0.0109426,1.20804,5,0.1,28,1.7,1.37729,0.962036,0.600025,-0.178612,0.390841,-1.24797e-05,0.0938773,-0.205562,-1.49012e-05,0.0250574,0.129209,5,0.1,29,1.7,0.0287602,-0.413952,0.543171,0.792718,0.324232,0.0220786,0.138014,-0.657385,0.049863,0.0121309,0.727832,5,0.1,30,1.7,-3.37,-1.73245,0.594625,0.043929,0.866026,0.0022376,-0.0705272,0,-0.000491738,0.0121552,2.27116,5,0.1,31,1.7,3.68565,-1.43476,0.60702,-0.0750579,0.866025,-0.00221897,0.00464916,1.49012e-05,0.00182539,0.0184115,2.2683,5,0.1,32,1.7,-0.0674715,-0.786916,0.648506,0.107293,0.215359,0.0345269,-0.575657,0.56104,-0.132717,0.00989045,0.49888,5,0.1,33,1.7,-1.17684,-1.50406,0.584346,0.590018,-0.0671925,0.00167396,0.115156,0.0185892,-0.0185817,0.0135187,1.8525,5,0.1,34,1.7,1.42397,3.46867,0.523384,-0.328609,0.168848,-0.0526111,1.01785,0.758111,-0.0165142,0.00889338,0.353034,5,0.1,35,1.7,-3.37327,4.16589,0.606057,-0.708508,-0.106269,0.048084,0.375539,0.0850558,-0.0384748,0.010269,0.303172,5,0.1,36,1.7,-2.55154,-1.01195,0.642819,0.282644,0.196307,-0.00412473,-0.101268,-0.0667162,0.00168011,0.0106466,0.0751844,5,0.1,37,1.7,2.23904,-0.0337315,0.627009,0.11806,0.652373,0.0555587,-0.0944287,-0.423677,-0.0444166,0.0104996,0.228701,5,0.1,38,1.7,-2.81996,3.32357,0.651536,0.446274,-0.485785,-0.0193627,-0.356942,0.388652,0.0154711,0.0102804,0.183648,5,0.1,39,1.7,1.93927,-3.01412,0.500153,-0.18949,0.866026,-0.00151256,0.00873208,0,0.0102706,0.0195066,2.24898,5,0.1
0,1.8,3.78866,1.23139,0.61027,-0.357741,0.852606,-0.0061363,0.424743,-0.222623,0.00497699,0.0303614,2.02372,5,0.1,1,1.8,1.1074,-0.448967,0.593546,0.0931561,0.45166,0.00649691,-0.0881553,-0.427485,-0.00613928,0.0127576,0.120614,5,0.1,2,1.8,-2.22643,-4.03466,0.679036,0.213116,-0.0166297,0.0504673,-1.25742,-0.406504,0.0228286,0.0116079,3.53978,5,0.1,3,1.8,0.83142,2.74771,0.593177,-0.383705,-0.500709,0.00686049,0.363111,0.473857,-0.00649691,0.0126923,0.13151,5,0.1,4,1.8,-1.98345,-3.90163,0.63522,-0.0815749,0.310189,0.0379786,0.0511408,-0.196218,-0.0264347,0.00706814,0.385403,5,0.1,5,1.8,-2.40652,-0.721825,0.557907,0.419307,0.209203,-0.05458,-1.27828,0.600398,-0.160724,0.00700162,0.218068,5,0.1,6,1.8,-3.49248,0.239206,0.500059,0.361526,-0.542767,0.000101328,-0.230908,0.514969,-0.000983477,0.0108874,0.203678,5,0.1,7,1.8,-0.55697,4.00113,0.642182,-0.546195,-0.0135422,-0.0246882,-0.203758,0.198364,-0.00202656,0.0085117,0.06085,5,0.1,8,1.8,-1.4151,0.0938782,0.535063,-0.0588447,0.822444,-0.0203758,-0.13274,0.639058,0.1342,0.00838136,2.30236,5,0.1,9,1.8,-1.7211,3.94592,0.730578,0.858054,0.0928819,0.0411868,0.151098,-0.0892878,0.149548,0.0162775,2.27323,5,0.1,10,1.8,1.50155,-0.668264,0.586849,-0.16011,0.866026,0.00705719,0.0557303,0,-0.00184774,0.0170645,2.27231,5,0.1,11,1.8,1.47718,-2.90036,0.500009,-0.0745624,0.844175,0,0.0170469,0.353932,-0.000119209,0.0182137,2.28056,5,0.1,12,1.8,-2.63638,-3.92352,0.600266,0.670725,-0.0320435,-0.0422537,-0.669241,0.331044,-0.0627339,0.00893696,2.88143,5,0.1,13,1.8,1.33294,-1.65912,0.710669,-0.220373,0.787497,0.0227809,0.866592,-0.142753,-0.00411272,0.0120856,2.80898,5,0.1,14,1.8,-0.85364,-1.32867,0.609437,0.398222,0.392026,0.0234187,-0.0808835,-1.28329,0.0257194,0.00802735,0.176309,5,0.1,15,1.8,-0.721347,-1.91514,0.644601,0.202255,0.844088,-0.0061214,-0.0519753,-0.317812,0.0110865,0.0177536,2.54429,5,0.1,16,1.8,3.76234,-2.89944,0.66603,-0.0774801,0.859874,0.0189245,0.0529289,-0.123024,-0.0129342,0.0106023,0.761358,5,0.1,17,1.8,-0.0590845,2.42625,0.500033,-0.38464,-0.692725,0.000320375,0.338225,0.466704,0.000268221,0.0129389,0.274832,5,0.1,18,1.8,-2.05196,-3.54224,0.566328,-0.0695169,0.393069,-0.039722,-0.452757,-0.154614,-0.0993013,0.0110701,0.265025,5,0.1,19,1.8,-2.56565,2.71941,0.568056,0.864297,-0.623268,0.0216499,-0.0344515,0.126839,-0.00441074,0.0149207,1.52424,5,0.1,20,1.8,-2.83407,-0.717078,0.602428,0.729096,0.565679,0.0230178,-0.31209,0.237137,0.00914931,0.0407541,2.30631,5,0.1,21,1.8,-1.14786,-0.166235,0.660637,0.0542372,-0.691024,0.0314713,0.547528,1.46672,0.252396,0.0133522,2.87174,5,0.1,22,1.8,-0.229821,1.32955,0.576832,-0.0870883,-0.181189,0.0287518,0.0600889,0.455379,-0.0198185,0.0110438,0.241727,5,0.1,23,1.8,-1.69947,-0.187904,0.732301,0.00704825,-0.153553,0.02428,0.0561476,0.0979081,-0.0156462,0.0116624,0.698319,5,0.1,24,1.8,1.25485,3.24038,0.637121,-0.866026,0.205314,0.0125706,5.96046e-05,0.679731,-0.0810623,0.0127772,1.93214,5,0.1,25,1.8,-2.14702,-0.292188,0.684717,0.361836,0.155111,0.0749201,-0.0528097,0.0573248,-0.409663,0.0169164,0.269329,5,0.1,26,1.8,3.44154,1.63762,0.596274,-0.12635,0.628278,0.00334084,0.082016,-1.18166,-0.00214577,0.00913382,1.3687,5,0.1,27,1.8,3.21106,2.9033,0.629968,-0.0784039,0.0773549,-0.0239775,0.483036,-0.0280142,0.00876188,0.00780425,1.44298,5,0.1,28,1.8,1.35987,1.00015,0.600023,-0.169784,0.37151,-1.3411e-05,0.0909567,-0.19896,-2.98023e-05,0.0287108,0.149666,5,0.1,29,1.8,0.108404,-0.384716,0.545605,0.796282,0.261478,0.0263333,-0.0928915,-0.5977,0.0337958,0.016185,0.504556,5,0.1,30,1.8,-3.36594,-1.64584,0.594846,0.0375271,0.866026,0.00218004,-0.0590086,-5.96046e-05,-0.00077486,0.0122401,2.27139,5,0.1,31,1.8,3.67818,-1.34815,0.606806,-0.0741601,0.866026,-0.00206232,0.0165701,-5.96046e-05,0.00143051,0.0201862,2.26846,5,0.1,32,1.8,-0.0595485,-0.762654,0.651301,0.0521665,0.268376,0.0214994,-0.51613,0.47192,-0.12514,0.00940312,0.391828,5,0.1,33,1.8,-1.11763,-1.51043,0.584402,0.590035,-0.0581712,-0.000673532,-0.125051,0.147104,-0.0264943,0.0129137,1.73194,5,0.1,34,1.8,1.39615,3.48912,0.518124,-0.228718,0.237316,-0.0518143,0.962794,0.589013,0.0302494,0.022915,2.52545,5,0.1,35,1.8,-3.44214,4.15569,0.61067,-0.667298,-0.0975013,0.0441208,0.46587,0.0920296,-0.0417829,0.0111226,0.204368,5,0.1,36,1.8,-2.5238,-0.992653,0.642413,0.271684,0.189443,-0.00400543,-0.128388,-0.0789464,0.000953674,0.0143222,0.0602355,5,0.1,37,1.8,2.25037,0.0293176,0.632339,0.108331,0.607524,0.0509828,-0.10252,-0.488124,-0.04825,0.0104937,0.153216,5,0.1,38,1.8,-2.77714,3.27697,0.649679,0.409502,-0.445747,-0.0177681,-0.387669,0.421882,0.0168383,0.0102649,0.121181,5,0.1,39,1.8,1.9204,-2.92751,0.500047,-0.187516,0.866026,-0.000672042,0.038743,0,0.00658631,0.0194401,2.24982,5,0.1
0,1.9,3.75531,1.31563,0.609683,-0.306619,0.83243,-0.00558617,0.579879,-0.214338,0.00600889,0.0303614,2.02372,5,0.1,1,1.9,1.11634,-0.405611,0.59417,0.0862306,0.418076,0.00601439,-0.0556931,-0.270074,-0.00387803,0.0127576,0.120614,5,0.1,2,1.9,-2.20948,-4.03825,0.684145,0.142863,-0.0542,0.051207,-0.239447,-0.337958,-0.00746921,0.0116079,3.53978,5,0.1,3,1.9,0.794767,2.69988,0.593832,-0.350064,-0.456807,0.00625867,0.320148,0.417814,-0.00572205,0.0126923,0.13151,5,0.1,4,1.9,-1.99043,-3.87157,0.638691,-0.0504194,0.29084,0.0297809,0.515498,-0.1982,-0.125848,0.00706814,0.385403,5,0.1,5,1.9,-2.37039,-0.697953,0.55165,0.308658,0.267141,-0.0703324,-0.949457,0.534609,-0.147462,0.00700162,0.218068,5,0.1,6,1.9,-3.45733,0.187365,0.500065,0.342508,-0.495066,1.21072e-05,-0.166342,0.45382,-0.000797212,0.0108874,0.203678,5,0.1,7,1.9,-0.612061,4.00072,0.639672,-0.550309,0.00497401,-0.0257285,0.115007,0.169039,-0.0157803,0.0085117,0.06085,5,0.1,8,1.9,-1.42161,0.178414,0.53367,-0.070833,0.860394,-0.00779619,-0.103116,0.167093,0.115793,0.00838136,2.30236,5,0.1,9,1.9,-1.63482,3.95477,0.735573,0.865423,0.0842001,0.0596277,0.0220165,-0.085935,0.204965,0.0162775,2.27323,5,0.1,10,1.9,1.48575,-0.581672,0.587548,-0.156523,0.865505,0.00694338,0.0253916,-0.0208355,-0.000827014,0.0170645,2.27231,5,0.1,11,1.9,1.46978,-2.81474,0.500008,-0.0736348,0.863621,-9.31323e-06,0.00584126,0.0753999,-6.70552e-05,0.0182137,2.28056,5,0.1,12,1.9,-2.57238,-3.92478,0.595604,0.611368,0.00908636,-0.0519097,-0.541478,0.464395,-0.11906,0.00893696,2.88143,5,0.1,13,1.9,1.31462,-1.58081,0.712935,-0.154328,0.780477,0.0225795,0.380866,-0.0424162,-0.00121072,0.0120856,2.80898,5,0.1,14,1.9,-0.814141,-1.29507,0.611915,0.392083,0.287298,0.0261732,-0.0606142,-0.839062,0.0271238,0.00802735,0.176309,5,0.1,15,1.9,-0.701176,-1.83272,0.644043,0.202734,0.80032,-0.00504898,0.0420697,-0.556298,0.0103377,0.0177536,2.54429,5,0.1,16,1.9,3.75484,-2.81389,0.667861,-0.0725336,0.851949,0.0177156,0.0483394,-0.0775456,-0.0118092,0.0106023,0.761358,5,0.1,17,1.9,-0.0959458,2.35918,0.500065,-0.353194,-0.649418,0.000280607,0.301313,0.421122,-0.000935048,0.0129389,0.274832,5,0.1,18,1.9,-2.06032,-3.50376,0.562026,-0.0901829,0.375721,-0.0448218,0.00225008,-0.19975,-0.00854582,0.0110701,0.265025,5,0.1,19,1.9,-2.47923,2.65807,0.570203,0.864693,-0.600001,0.0213234,0.00709295,0.337213,-0.0031516,0.0149207,1.52424,5,0.1,20,1.9,-2.76241,-0.658903,0.604803,0.706204,0.600583,0.0246816,-0.184938,0.40454,0.0211932,0.0407541,2.30631,5,0.1,21,1.9,-1.14051,-0.230117,0.664776,0.0855369,-0.604765,0.0488125,0.110649,0.374623,0.10252,0.0133522,2.87174,5,0.1,22,1.9,-0.238245,1.31349,0.579613,-0.0814621,-0.143328,0.0268959,0.0550551,0.263788,-0.0181645,0.0110438,0.241727,5,0.1,23,1.9,-1.69849,-0.202732,0.734645,0.0118613,-0.142611,0.0225361,0.0172406,0.121695,-0.0193492,0.0116624,0.698319,5,0.1,24,1.9,1.16825,3.26436,0.637975,-0.865906,0.273896,0.00456665,0.00476092,0.659958,-0.0771657,0.0127772,1.93214,5,0.1,25,1.9,-2.11155,-0.276511,0.690887,0.343589,0.157185,0.0548112,-0.296891,-0.0161137,-0.02883,0.0169164,0.269329,5,0.1,26,1.9,3.42913,1.69424,0.596597,-0.123139,0.502841,0.00313977,-0.00400841,-1.25923,-0.00197813,0.00913382,1.3687,5,0.1,27,1.9,3.20512,2.9109,0.627612,-0.0470392,0.0747088,-0.0231508,0.0886619,-0.0276119,0.00861287,0.00780425,1.44298,5,0.1,28,1.9,1.34301,1.03642,0.600022,-0.169938,0.354566,-1.62981e-05,-0.0690445,-0.155896,-2.6077e-05,0.0287108,0.149666,5,0.1,29,1.9,0.187603,-0.361418,0.548401,0.787241,0.205855,0.0294717,-0.119103,-0.515753,0.0273064,0.016185,0.504556,5,0.1,30,1.9,-3.36245,-1.55924,0.595061,0.0325903,0.866025,0.00212779,-0.0415742,1.49012e-05,-0.000391155,0.0122401,2.27139,5,0.1,31,1.9,3.67082,-1.26155,0.606606,-0.0732843,0.866025,-0.00196919,0.00526011,1.49012e-05,0.000588596,0.0201862,2.26846,5,0.1,32,1.9,-0.0568642,-0.7334,0.652831,0.00227535,0.316545,0.00923136,-0.47109,0.462763,-0.117641,0.00940312,0.391828,5,0.1,33,1.9,-1.05982,-1.51539,0.584148,0.560809,-0.0400577,-0.00486141,-0.443198,0.205323,-0.0529625,0.0129137,1.73194,5,0.1,34,1.9,1.37674,3.51373,0.513169,-0.171355,0.23669,-0.0466067,0.249594,-0.498235,0.0702366,0.022915,2.52545,5,0.1,35,1.9,-3.50667,4.14638,0.614884,-0.624137,-0.0889726,0.04025,0.418127,0.0812113,-0.0368319,0.0111226,0.204368,5,0.1,36,1.9,-2.49715,-0.974003,0.642013,0.262089,0.18424,-0.00402192,-0.0787675,-0.0371039,-0.000882894,0.0143222,0.0602355,5,0.1,37,1.9,2.26072,0.0877676,0.637209,0.0988334,0.562389,0.0465124,-0.0903904,-0.432679,-0.0425391,0.0104937,0.153216,5,0.1,38,1.9,-2.73803,3.23439,0.647981,0.373587,-0.406662,-0.0162083,-0.341758,0.371948,0.0148453,0.0102649,0.121181,5,0.1,39,1.9,1.90176,-2.84091,0.500007,-0.185659,0.866026,-0.000182912,0.00956655,0,0.00339001,0.0194401,2.24982,5,0.1
0,2,3.72769,1.39759,0.609156,-0.244993,0.804114,-0.00493973,0.638247,-0.374615,0.00691414,0.0275622,1.65664,5,0.1,1,2,1.12471,-0.365068,0.594753,0.0810921,0.393156,0.00565648,-0.0510812,-0.247359,-0.00357628,0.0119451,0.0936682,5,0.1,2,2,-2.19533,-4.0452,0.689182,0.148726,-0.0830889,0.0490993,0.28348,-0.235081,-0.033915,0.0121724,3.03714,5,0.1,3,2,0.76136,2.65629,0.594429,-0.31791,-0.414848,0.00568479,0.33015,0.430822,-0.00593066,0.00884513,0.168946,5,0.1,4,2,-1.99252,-3.84353,0.640955,0.0114679,0.269312,0.0148922,0.67836,-0.237107,-0.16275,0.0068057,0.250829,5,0.1,5,2,-2.34383,-0.668833,0.543947,0.226694,0.312135,-0.0829145,-0.702262,0.349134,-0.0995398,0.00723569,0.198718,5,0.1,6,2,-3.42392,0.140125,0.500062,0.32537,-0.449507,-5.66244e-05,-0.18847,0.467569,-0.000566244,0.010638,0.141179,5,0.1,7,2,-0.666038,4.002,0.637018,-0.524631,0.0197768,-0.0273257,0.390649,0.125647,-0.0139177,0.00880572,0.362185,5,0.1,8,2,-1.42913,0.264875,0.533428,-0.0788301,0.866026,0.00252128,-0.0543594,-1.43051e-05,0.0894666,0.00852179,2.26771,5,0.1,9,2,-1.54823,3.96275,0.742555,0.866026,0.0754356,0.0796899,-5.96046e-05,-0.0904799,0.185609,0.0156862,2.48068,5,0.1,10,2,1.47023,-0.495392,0.588237,-0.153425,0.857692,0.00682473,0.0433326,-0.166655,-0.00184774,0.0171045,2.46566,5,0.1,11,2,1.46246,-2.7282,0.500007,-0.0726551,0.866026,-1.49012e-05,0.0168085,0,-2.98023e-05,0.0199692,2.26874,5,0.1,12,2,-2.5139,-3.92152,0.589802,0.558388,0.0560701,-0.0640869,-0.534892,0.454783,-0.115961,0.0088743,2.9442,5,0.1,13,2,1.3,-1.50311,0.715183,-0.148535,0.771371,0.0223175,-0.234962,-0.171304,-0.00491738,0.0124217,2.65905,5,0.1,14,2,-0.775327,-1.26999,0.614656,0.382933,0.21916,0.0284612,-0.135303,-0.546396,0.0170767,0.00855316,0.200974,5,0.1,15,2,-0.680668,-1.75585,0.643588,0.207284,0.733352,-0.0040561,0.0346005,-0.779033,0.00947714,0.0160416,2.84049,5,0.1,16,2,3.74783,-2.72929,0.669572,-0.0674188,0.837243,0.0164673,0.0555515,-0.245929,-0.0135899,0.0128134,0.53504,5,0.1,17,2,-0.129749,2.29641,0.500087,-0.322584,-0.604844,0.000156462,0.318177,0.484943,-0.00149012,0.014485,0.18478,5,0.1,18,2,-2.06883,-3.46731,0.55761,-0.0758052,0.351936,-0.042513,0.255108,-0.28038,0.0497699,0.0103812,0.200643,5,0.1,19,2,-2.39288,2.60009,0.572315,0.860232,-0.556302,0.0208467,-0.115871,0.533223,-0.00712276,0.0147678,1.04834,5,0.1,20,2,-2.69277,-0.596925,0.607377,0.685388,0.636867,0.0267491,-0.25928,0.280291,0.017941,0.0413299,2.3856,5,0.1,21,2,-1.1319,-0.289735,0.669978,0.0822365,-0.595429,0.0534818,-0.150204,-0.0973487,-0.00208616,0.0140452,2.60699,5,0.1,22,2,-0.246107,1.3,0.582209,-0.0756383,-0.131035,0.0249743,0.0632033,-0.00590086,-0.0208914,0.00971713,0.193307,5,0.1,23,2,-1.69742,-0.216341,0.736795,0.00739694,-0.129123,0.0203952,-0.114441,0.148199,-0.0234842,0.0126146,2.86516,5,0.1,24,2,1.08172,3.2948,0.638064,-0.864115,0.331879,-0.00254661,0.0382662,0.477076,-0.0637174,0.0142496,1.46245,5,0.1,25,2,-2.07897,-0.260996,0.696606,0.305319,0.151923,0.0626415,-0.45526,-0.0885129,0.156611,0.0105718,0.632504,5,0.1,26,2,3.41675,1.73852,0.596901,-0.124741,0.386807,0.00292808,-0.017643,-1.02556,-0.00232458,0.00806244,1.25509,5,0.1,27,2,3.2,2.91822,0.625345,-0.0635386,0.0713766,-0.0221148,-0.39196,-0.0407696,0.0126958,0.0082049,2.81178,5,0.1,28,2,1.32558,1.07106,0.60002,-0.179213,0.33761,-1.78814e-05,-0.0975728,-0.194311,-2.98023e-05,0.0244483,0.0908598,5,0.1,29,2,0.26548,-0.343282,0.551463,0.767252,0.158133,0.0315174,-0.301614,-0.439629,0.0125468,0.0100396,0.341302,5,0.1,30,2,-3.35938,-1.47264,0.595272,0.0288963,0.866026,0.0020802,-0.0337362,-5.96046e-05,-0.000655651,0.013623,2.79083,5,0.1,31,2,3.66353,-1.17495,0.606411,-0.072366,0.866026,-0.00191927,0.0162125,-5.96046e-05,0.000566244,0.0201365,2.26861,5,0.1,32,2,-0.058846,-0.69964,0.653196,-0.0402584,0.356048,-0.00158995,-0.372255,0.307232,-0.0969172,0.0131451,0.289495,5,0.1,33,2,-1.00637,-1.51834,0.583382,0.504522,-0.01885,-0.0105083,-0.667483,0.211179,-0.0566542,0.0124766,1.6151,5,0.1,34,2,1.36012,3.53381,0.508901,-0.167114,0.15626,-0.0384331,-0.112951,-1.02746,0.0902116,0.0201915,2.05132,5,0.1,35,2,-3.56693,4.13789,0.618725,-0.580174,-0.080812,0.0365511,0.475407,0.0836849,-0.0379682,0.0104891,0.137098,5,0.1,36,2,-2.47136,-0.955776,0.641606,0.253332,0.179972,-0.00411123,-0.107408,-0.0567734,-0.000596046,0.0092751,0.0281523,5,0.1,37,2,2.27015,0.141814,0.641648,0.0897527,0.517933,0.0422388,-0.0931025,-0.468887,-0.0438392,0.0118528,0.102576,5,0.1,38,2,-2.70238,3.19558,0.646435,0.339264,-0.36931,-0.0147164,-0.352263,0.383615,0.0152588,0.0118806,0.138569,5,0.1,39,2,1.88327,-2.75431,0.500002,-0.183696,0.866026,4.17233e-05,0.0376105,0,0.0012517,0.0206353,2.25062,5,0.1
0,2.1,3.70625,1.47662,0.608694,-0.184978,0.78008,-0.00433279,0.560284,-0.157788,0.00539795,0.0275622,1.65664,5,0.1,1,2.1,1.13259,-0.32729,0.595303,0.0767507,0.359653,0.0053524,-0.0392646,-0.412056,-0.00275299,0.0119451,0.0936682,5,0.1,2,2.1,-2.17769,-4.05412,0.693883,0.215254,-0.0900999,0.0445642,0.94682,0.0693202,-0.0552237,0.0121724,3.03714,5,0.1,3,2.1,0.731122,2.61667,0.59497,-0.287598,-0.379738,0.0051409,0.28488,0.292718,-0.0051111,0.00884513,0.168946,5,0.1,4,2.1,-1.98789,-3.81746,0.641578,0.0812721,0.254861,-0.00277096,0.690758,-0.0764132,-0.182752,0.0068057,0.250829,5,0.1,5,2.1,-2.32408,-0.63612,0.535347,0.173716,0.339461,-0.0873436,-0.382677,0.189595,0.0054948,0.00723569,0.198718,5,0.1,6,2.1,-3.39223,0.0973733,0.500054,0.309201,-0.406584,-9.76957e-05,-0.14852,0.40331,-0.000271946,0.010638,0.141179,5,0.1,7,2.1,-0.716467,4.00458,0.634158,-0.483031,0.0315733,-0.0303015,0.445291,0.107139,-0.040479,0.00880572,0.362185,5,0.1,8,2.1,-1.43727,0.351477,0.534103,-0.0837687,0.866025,0.0106957,-0.0404418,0,0.0727475,0.00852179,2.26771,5,0.1,9,2.1,-1.46223,3.96974,0.751417,0.848042,0.0633802,0.0970157,-0.356235,-0.144199,0.154302,0.0156862,2.48068,5,0.1,10,2.1,1.45504,-0.411446,0.588913,-0.15086,0.813342,0.00670999,0.0169873,-0.643246,-0.000834465,0.0171045,2.46566,5,0.1,11,2.1,1.45525,-2.64159,0.500006,-0.0717707,0.866026,-1.6205e-05,0.0051707,0,0,0.0199692,2.26874,5,0.1,12,2.1,-2.46019,-3.91401,0.582854,0.520069,0.0905856,-0.0743826,-0.271544,0.242859,-0.0864007,0.0088743,2.9442,5,0.1,13,2.1,1.28269,-1.42658,0.717397,-0.207989,0.760505,0.0220063,-0.860386,-0.0869855,-0.00249222,0.0124217,2.65905,5,0.1,14,2.1,-0.73769,-1.25011,0.617606,0.369687,0.184601,0.0306471,-0.142198,-0.181295,0.0238009,0.00855316,0.200974,5,0.1,15,2.1,-0.659676,-1.6865,0.64322,0.213097,0.652811,-0.00338433,0.0665672,-0.831775,0.00443682,0.0160416,2.84049,5,0.1,16,2.1,3.74136,-2.64667,0.671154,-0.0622675,0.815592,0.0152072,0.0494421,-0.221059,-0.0120848,0.0128134,0.53504,5,0.1,17,2.1,-0.160508,2.23822,0.500095,-0.293276,-0.560019,2.16067e-05,0.276935,0.429615,-0.00119954,0.014485,0.18478,5,0.1,18,2.1,-2.07478,-3.4335,0.553679,-0.0401139,0.324252,-0.0355281,0.431061,-0.279903,0.0856593,0.0103812,0.200643,5,0.1,19,2.1,-2.30722,2.5476,0.574367,0.854095,-0.489364,0.0202152,-0.051558,0.781581,-0.00633672,0.0147678,1.04834,5,0.1,20,2.1,-2.62537,-0.532277,0.610012,0.663341,0.651528,0.024809,-0.210881,0.00671834,-0.0501536,0.0413299,2.3856,5,0.1,21,2.1,-1.1248,-0.350875,0.675191,0.0568692,-0.635973,0.0496704,-0.332773,-0.616798,-0.0683218,0.0140452,2.60699,5,0.1,22,2.1,-0.253363,1.28669,0.584604,-0.0695355,-0.136389,0.0229573,0.0605118,-0.0845492,-0.0199974,0.00971713,0.193307,5,0.1,23,2.1,-1.69742,-0.228761,0.738711,-0.00982061,-0.121325,0.01788,-0.255644,0.0240495,-0.0265501,0.0126146,2.86516,5,0.1,24,2.1,0.995327,3.33033,0.637502,-0.86452,0.377514,-0.00856929,-0.0105388,0.41084,-0.0553504,0.0142496,1.46245,5,0.1,25,2.1,-2.05184,-0.246567,0.703315,0.227866,0.133866,0.0685167,-1.02055,-0.255635,-0.0249706,0.0105718,0.632504,5,0.1,26,2.1,3.40411,1.77251,0.597183,-0.12869,0.299156,0.00271201,-0.0506639,-0.66144,-0.00207871,0.00806244,1.25509,5,0.1,27,2.1,3.19013,2.92516,0.623194,-0.146422,0.0675425,-0.0209219,-1.15329,-0.038147,0.0118576,0.0082049,2.81178,5,0.1,28,2.1,1.30716,1.10389,0.600018,-0.189009,0.319123,-2.03028e-05,-0.0873804,-0.185609,-1.49012e-05,0.0244483,0.0908598,5,0.1,29,2.1,0.340763,-0.329534,0.554673,0.738408,0.118121,0.0325915,-0.300866,-0.361908,0.00760332,0.0100396,0.341302,5,0.1,30,2.1,-3.35504,-1.38608,0.595478,0.0714704,0.864227,0.00205794,0.782996,-0.056535,4.84288e-05,0.013623,2.79083,5,0.1,31,2.1,3.65634,-1.08835,0.606221,-0.0715278,0.866025,-0.00189869,0.00482798,1.49012e-05,-1.11759e-05,0.0201365,2.26861,5,0.1,32,2.1,-0.0646543,-0.662517,0.65257,-0.0749144,0.385664,-0.0107093,-0.31288,0.262603,-0.0835508,0.0131451,0.289495,5,0.1,33,2.1,-0.959306,-1.51949,0.582035,0.436367,-0.00706464,-0.0164771,-0.692297,0.0392497,-0.0597723,0.0124766,1.6151,5,0.1,34,2.1,1.34222,3.54348,0.505521,-0.195799,0.0308365,-0.0290972,-0.411406,-1.40408,0.0941418,0.0201915,2.05132,5,0.1,35,2.1,-3.62271,4.1302,0.622202,-0.536295,-0.073126,0.0330652,0.419468,0.0723004,-0.0327639,0.0104891,0.137098,5,0.1,36,2.1,-2.44655,-0.938053,0.641192,0.242753,0.174425,-0.00418117,-0.112206,-0.0605918,-0.000569969,0.0092751,0.0281523,5,0.1,37,2.1,2.27868,0.191402,0.645666,0.0812035,0.474811,0.0382135,-0.080362,-0.408691,-0.0378415,0.0118528,0.102576,5,0.1,38,2.1,-2.66995,3.16028,0.645028,0.311388,-0.338953,-0.0135085,-0.224724,0.244737,0.00973791,0.0118806,0.138569,5,0.1,39,2.1,1.86501,-2.66771,0.50001,-0.181962,0.866026,0.000111107,0.00811368,0,0.000219792,0.0206353,2.25062,5,0.1
0,2.2,3.69042,1.55385,0.608286,-0.133216,0.763634,-0.0038296,0.474095,-0.208557,0.00476837,0.0288552,1.31798,5,0.1,1,2.2,1.14006,-0.293583,0.595824,0.0726402,0.312762,0.0050649,-0.0454187,-0.516251,-0.00318885,0.0108611,0.252467,5,0.1,2,2.2,-2.15101,-4.06245,0.698039,0.320393,-0.073874,0.0383466,1.07944,0.234842,-0.0678003,0.00950533,2.51361,5,0.1,3,2.2,0.70377,2.58008,0.595459,-0.25944,-0.352591,0.00463575,0.284463,0.265718,-0.00506639,0.0126197,0.122252,5,0.1,4,2.2,-1.97647,-3.79225,0.640406,0.144988,0.249743,-0.0203088,0.564277,-0.0442266,-0.162244,0.00711635,0.210615,5,0.1,5,2.2,-2.30826,-0.601541,0.526776,0.14559,0.348888,-0.082849,-0.199914,-0.00491738,0.079602,0.00871435,3.43368,5,0.1,6,2.2,-3.36207,0.058708,0.500044,0.293344,-0.36673,-0.000113249,-0.178099,0.402493,-5.96046e-05,0.0105663,0.180129,5,0.1,7,2.2,-0.762429,4.00822,0.630917,-0.435022,0.0406742,-0.034526,0.516504,0.0727177,-0.0401735,0.00830218,3.36908,5,0.1,8,2.2,-1.4458,0.43808,0.5355,-0.0862569,0.866025,0.0168666,-0.00673532,2.86102e-05,0.0498295,0.00858913,2.26709,5,0.1,9,2.2,-1.37976,3.97531,0.761794,0.795767,0.0477433,0.109455,-0.682831,-0.163198,0.0900626,0.0150479,2.83648,5,0.1,10,2.2,1.44006,-0.33363,0.589579,-0.148484,0.741127,0.00659227,0.0368953,-0.757351,-0.00178814,0.00759757,0.750808,5,0.1,11,2.2,1.4481,-2.55499,0.500004,-0.0708818,0.866026,-1.49012e-05,0.0154972,0,0,0.0198844,2.26889,5,0.1,12,2.2,-2.40938,-3.90403,0.575056,0.497091,0.106072,-0.0807896,-0.218034,0.074029,-0.0395179,0.00876948,2.93816,5,0.1,13,2.2,1.2572,-1.3511,0.719581,-0.304064,0.746992,0.0216171,-0.989377,-0.211954,-0.00610948,0.0124149,2.09716,5,0.1,14,2.2,-0.701527,-1.2322,0.620781,0.352402,0.176388,0.0327349,-0.211865,-0.0115037,0.0158548,0.00874883,0.197831,5,0.1,15,2.2,-0.638082,-1.62546,0.642899,0.218013,0.567147,-0.00308454,0.0210404,-0.880003,0.00199676,0.00700751,0.455171,5,0.1,16,2.2,3.73538,-2.5664,0.672614,-0.0572026,0.787318,0.0139683,0.0532866,-0.36788,-0.012964,0.00777346,0.367579,5,0.1,17,2.2,-0.18846,2.18439,0.500092,-0.26568,-0.515872,-8.19564e-05,0.281215,0.46587,-0.000864267,0.00919051,0.124545,5,0.1,18,2.2,-2.07653,-3.40252,0.550584,0.00551939,0.29487,-0.0261486,0.460267,-0.311732,0.0985265,0.0112383,0.280478,5,0.1,19,2.2,-2.22226,2.50282,0.576353,0.842333,-0.40437,0.0194401,-0.215054,0.898242,-0.00977516,0.0145684,0.68794,5,0.1,20,2.2,-2.56021,-0.467581,0.612174,0.638264,0.637451,0.0179067,-0.310779,-0.289619,-0.0826418,0.0106771,0.907693,5,0.1,21,2.2,-1.12091,-0.417759,0.679747,0.0200152,-0.701877,0.0408739,-0.385284,-0.628858,-0.102848,0.013624,2.38556,5,0.1,22,2.2,-0.260008,1.27261,0.586798,-0.0632606,-0.145057,0.020884,0.0660568,-0.0765324,-0.0218153,0.00913115,0.185357,5,0.1,23,2.2,-1.7,-0.240868,0.740363,-0.0447333,-0.121444,0.0151366,-0.426948,-0.0139996,-0.0281036,0.0128018,3.52967,5,0.1,24,2.2,0.908967,3.36986,0.636391,-0.860685,0.409895,-0.0133872,0.106841,0.219941,-0.0400245,0.0126017,1.06703,5,0.1,25,2.2,-2.03459,-0.234618,0.709839,0.114244,0.103864,0.0602201,-1.19448,-0.330731,-0.129342,0.00886415,0.432453,5,0.1,26,2.2,3.391,1.8,0.597444,-0.133032,0.259137,0.00249743,-0.0283718,-0.158906,-0.00226498,0.0109007,1.06389,5,0.1,27,2.2,3.16923,2.93171,0.621165,-0.274336,0.0633717,-0.0196278,-1.31869,-0.0468493,0.0145435,0.00790304,2.81854,5,0.1,28,2.2,1.28791,1.13482,0.600016,-0.194845,0.29878,-2.08616e-05,-0.0219345,-0.227988,-2.98023e-05,0.0247627,0.0985824,5,0.1,29,2.2,0.412931,-0.319412,0.557953,0.702801,0.0854947,0.0328168,-0.428468,-0.291884,-0.00393391,0.0104929,0.227574,5,0.1,30,2.2,-3.34333,-1.30022,0.595684,0.167328,0.849554,0.00206083,1.05441,-0.267982,-8.9407e-05,0.0117552,2.50438,5,0.1,31,2.2,3.64922,-1.00174,0.606031,-0.0706673,0.866024,-0.00189692,0.0152588,2.98023e-05,0.000149012,0.0190514,2.26875,5,0.1,32,2.2,-0.0735585,-0.622861,0.651116,-0.101516,0.4048,-0.0179812,-0.21394,0.104934,-0.0606179,0.0104076,0.203116,5,0.1,33,2.2,-0.919147,-1.52019,0.580104,0.366731,-0.00833869,-0.0219569,-0.697047,-0.0530481,-0.0477433,0.0174063,1.47737,5,0.1,34,2.2,1.32042,3.53944,0.503072,-0.240725,-0.111043,-0.0200093,-0.449657,-1.37544,0.0859201,0.0234049,1.67207,5,0.1,35,2.2,-3.67422,4.12324,0.625346,-0.49336,-0.0659823,0.0298277,0.451446,0.0724792,-0.0327229,0.0093182,0.158427,5,0.1,36,2.2,-2.4229,-0.920962,0.640772,0.229555,0.166789,-0.00418723,-0.156879,-0.0963211,0.000566244,0.00864175,0.584157,5,0.1,37,2.2,2.28641,0.236838,0.6493,0.0732601,0.433631,0.0344738,-0.0803471,-0.425398,-0.0378191,0.0115051,0.118776,5,0.1,38,2.2,-2.63985,3.12752,0.643722,0.290936,-0.316679,-0.0126213,-0.198841,0.216365,0.00861287,0.0109393,0.0800709,5,0.1,39,2.2,1.84688,-2.5811,0.500021,-0.180182,0.866026,9.98378e-05,0.0352859,0,-0.000357628,0.0196727,2.25135,5,0.1
0,2.3,3.67891,1.62969,0.607921,-0.101684,0.756643,-0.00350764,0.182182,0.0124127,0.00202283,0.0288552,1.31798,5,0.1,1,2.3,1.14711,-0.265026,0.596316,0.0683818,0.257304,0.00476623,-0.0420064,-0.580938,-0.0029467,0.0108611,0.252467,5,0.1,2,2.3,-2.11296,-4.06811,0.70151,0.444574,-0.0348434,0.0308694,1.3198,0.506759,-0.0796244,0.00950533,2.51361,5,0.1,3,2.3,0.679158,2.54606,0.595899,-0.233512,-0.328312,0.00417382,0.24147,0.231206,-0.00429899,0.0126197,0.122252,5,0.1,4,2.3,-1.95937,-3.76717,0.637568,0.194466,0.254605,-0.0362926,0.416309,0.111446,-0.151832,0.00711635,0.210615,5,0.1,5,2.3,-2.29305,-0.56773,0.518987,0.172415,0.318136,-0.0720765,0.632644,-0.557449,0.130478,0.00871435,3.43368,5,0.1,6,2.3,-3.33354,0.0239195,0.500032,0.278054,-0.33005,-0.000110362,-0.139952,0.341558,0.000100583,0.0105663,0.180129,5,0.1,7,2.3,-0.803363,4.01282,0.626787,-0.383723,0.0526674,-0.0519863,0.511974,0.152618,-0.276405,0.00830218,3.36908,5,0.1,8,2.3,-1.45447,0.524683,0.53742,-0.0870485,0.866026,0.0213441,-0.00497699,-5.51343e-06,0.038527,0.00858913,2.26709,5,0.1,9,2.3,-1.30404,3.97888,0.77349,0.714786,0.0204399,0.126784,-0.920162,-0.355244,0.230502,0.0150479,2.83648,5,0.1,10,2.3,1.42656,-0.264212,0.590199,-0.111516,0.639446,0.00555506,0.633121,-1.22519,-0.0172593,0.00759757,0.750808,5,0.1,11,2.3,1.44106,-2.46839,0.500003,-0.0701206,0.866026,-1.33179e-05,0.00397116,0,2.6077e-05,0.0198844,2.26889,5,0.1,12,2.3,-2.36033,-3.89338,0.566794,0.487222,0.104176,-0.0842147,-0.0198483,-0.0981688,-0.0254735,0.00876948,2.93816,5,0.1,13,2.3,1.22139,-1.27731,0.721717,-0.414888,0.729512,0.0211134,-1.15597,-0.170611,-0.00492111,0.0124149,2.09716,5,0.1,14,2.3,-0.667282,-1.2142,0.624164,0.332854,0.186835,0.0351271,-0.19091,0.187315,0.0282675,0.00874883,0.197831,5,0.1,15,2.3,-0.615749,-1.57383,0.642795,0.231961,0.459925,0.00262894,0.221424,-1.21699,0.0999942,0.00700751,0.455171,5,0.1,16,2.3,3.72991,-2.48939,0.67395,-0.0522971,0.753401,0.0127742,0.0464618,-0.338212,-0.0113174,0.00777346,0.367579,5,0.1,17,2.3,-0.213708,2.13499,0.50008,-0.239971,-0.473035,-0.000144634,0.240483,0.405967,-0.000413507,0.00919051,0.124545,5,0.1,18,2.3,-2.07326,-3.37443,0.548524,0.0629757,0.268304,-0.0145759,0.648066,-0.232369,0.126991,0.0112383,0.280478,5,0.1,19,2.3,-2.13896,2.46693,0.578251,0.824117,-0.313228,0.018541,-0.185192,0.908494,-0.00888854,0.0145684,0.68794,5,0.1,20,2.3,-2.49967,-0.405936,0.61385,0.557599,0.589542,0.0181521,-1.20866,-0.643996,0.0704266,0.0106771,0.907693,5,0.1,21,2.3,-1.12096,-0.49141,0.683385,-0.0217961,-0.772561,0.0324677,-0.432082,-0.716766,-0.0678636,0.013624,2.38556,5,0.1,22,2.3,-0.266012,1.25796,0.58878,-0.0568771,-0.145948,0.0187759,0.0626631,0.0525787,-0.020694,0.00913115,0.185357,5,0.1,23,2.3,-1.70704,-0.253133,0.741634,-0.0993367,-0.124167,0.0094329,-0.623003,-0.0319462,-0.0792705,0.0128018,3.52967,5,0.1,24,2.3,0.823204,3.41189,0.634863,-0.855715,0.429773,-0.0170355,0.0381656,0.157923,-0.0318699,0.0126017,1.06703,5,0.1,25,2.3,-2.02869,-0.225814,0.715205,0.00830404,0.0729744,0.0470773,-0.920221,-0.285633,-0.131365,0.00886415,0.432453,5,0.1,26,2.3,3.37752,1.82611,0.597683,-0.136705,0.271124,0.00228835,-0.0367314,0.330865,-0.00198558,0.0109007,1.06389,5,0.1,27,2.3,3.13448,2.93781,0.619276,-0.425393,0.0585537,-0.0181333,-1.60575,-0.0503808,0.0156127,0.00790304,2.81854,5,0.1,28,2.3,1.26859,1.16364,0.600014,-0.189191,0.27823,-2.29105e-05,0.127606,-0.193834,-7.45058e-06,0.0247627,0.0985824,5,0.1,29,2.3,0.481168,-0.312214,0.561213,0.662386,0.0594874,0.0323489,-0.401113,-0.229536,-0.00651926,0.0104929,0.227574,5,0.1,30,2.3,-3.32063,-1.21645,0.595891,0.291399,0.826296,0.00207899,1.34455,-0.232287,0.000309199,0.0117552,2.50438,5,0.1,31,2.3,3.6422,-0.915141,0.605841,-0.0699081,0.866026,-0.00190875,0.00411272,0,-0.000257045,0.0190514,2.26875,5,0.1,32,2.3,-0.0847108,-0.581879,0.649032,-0.12068,0.414167,-0.0234865,-0.163126,0.0644214,-0.0480115,0.0104076,0.203116,5,0.1,33,2.3,-0.885453,-1.52168,0.577696,0.311584,-0.024635,-0.0259201,-0.431266,-0.246391,-0.0308566,0.0174063,1.47737,5,0.1,34,2.3,1.29388,3.52128,0.501475,-0.291524,-0.252514,-0.0122199,-0.528701,-1.39624,0.0690594,0.0234049,1.67207,5,0.1,35,2.3,-3.72168,4.11695,0.62819,-0.458904,-0.0602514,0.0272403,0.267968,0.0460148,-0.020761,0.0093182,0.158427,5,0.1,36,2.3,-2.40133,-0.905828,0.640659,0.196664,0.126875,0.00446895,-0.467122,-0.638168,0.153471,0.00864175,0.584157,5,0.1,37,2.3,2.29339,0.278419,0.652586,0.066907,0.400748,0.0314831,-0.0509918,-0.258541,-0.0240095,0.0115051,0.118776,5,0.1,38,2.3,-2.61164,3.09681,0.642498,0.274147,-0.29841,-0.0118934,-0.149831,0.163049,0.00649691,0.0109393,0.0800709,5,0.1,39,2.3,1.82896,-2.4945,0.500029,-0.178653,0.866026,5.78351e-05,0.00621378,0,-0.000458211,0.0196727,2.25135,5,0.1
0,2.4,3.66935,1.7054,0.607579,-0.0921786,0.756395,-0.0033617,0.0283718,-0.0582933,0.00110269,0.0291912,1.00812,5,0.1,1,2.4,1.15373,-0.242224,0.596777,0.0638574,0.198729,0.00444949,-0.0498891,-0.580996,-0.00348687,0.0205656,0.251159,5,0.1,2,2.4,-2.06208,-4.06888,0.704193,0.569725,0.0205636,0.0227988,1.12164,0.571489,-0.0801086,0.0094574,1.97696,5,0.1,3,2.4,0.656993,2.51441,0.596295,-0.209884,-0.304431,0.00375211,0.236273,0.254154,-0.00417233,0.00771237,0.364724,5,0.1,4,2.4,-1.93815,-3.74109,0.633234,0.226843,0.266808,-0.0497252,0.226259,0.110269,-0.112921,0.00798351,0.19711,5,0.1,5,2.4,-2.27198,-0.539255,0.512479,0.253695,0.246915,-0.0577256,0.912666,-0.824422,0.1522,0.00962453,3.01558,5,0.1,6,2.4,-3.30645,-0.00740874,0.500022,0.263268,-0.296635,-9.53674e-05,-0.164509,0.334131,0.000208616,0.0104057,0.159294,5,0.1,7,2.4,-0.839167,4.01889,0.620038,-0.33226,0.0686407,-0.0840306,0.518441,0.155926,-0.339389,0.00873053,3.50517,5,0.1,8,2.4,-1.46317,0.611285,0.539721,-0.0865579,0.866026,0.0243783,0.0175238,0,0.0213981,0.00834036,2.26711,5,0.1,9,2.4,-1.23744,3.97902,0.787376,0.61489,-0.0184,0.150999,-1.06275,-0.400186,0.234216,0.0146523,2.63288,5,0.1,10,2.4,1.41909,-0.206816,0.590655,-0.0342339,0.505323,0.00344366,0.858068,-1.41601,-0.0235736,0.00744108,0.368162,5,0.1,11,2.4,1.43408,-2.38179,0.500001,-0.0693619,0.866026,-1.04308e-05,0.0143051,0,2.98023e-05,0.0201285,2.26902,5,0.1,12,2.4,-2.31165,-3.88364,0.558292,0.486094,0.0889599,-0.0853032,-0.0321865,-0.194907,0.00596046,0.00850255,2.87901,5,0.1,13,2.4,1.17432,-1.20536,0.723799,-0.522965,0.707293,0.0204712,-0.953853,-0.296593,-0.00858307,0.0117948,1.58732,5,0.1,14,2.4,-0.634995,-1.19448,0.627814,0.312233,0.20805,0.0377476,-0.229597,0.212014,0.0213981,0.0277991,3.07709,5,0.1,15,2.4,-0.591362,-1.53415,0.643636,0.25592,0.332233,0.0147343,0.230402,-1.2995,0.132591,0.0073109,0.254682,5,0.1,16,2.4,3.72491,-2.41587,0.675171,-0.047636,0.715005,0.0116378,0.0481606,-0.448585,-0.0117123,0.0105571,0.248863,5,0.1,17,2.4,-0.23652,2.08972,0.500065,-0.216303,-0.432122,-0.000168383,0.238165,0.422955,-5.96046e-05,0.0100521,0.146483,5,0.1,18,2.4,-2.06369,-3.34871,0.547708,0.127995,0.246197,-0.0017941,0.621796,-0.218987,0.124097,0.0117501,0.189092,5,0.1,19,2.4,-2.05767,2.44006,0.580058,0.799227,-0.225484,0.0175476,-0.337183,0.834465,-0.0114441,0.0125605,0.439271,5,0.1,20,2.4,-2.45079,-0.350617,0.616154,0.413412,0.513236,0.0289395,-1.59991,-0.860825,0.131994,0.04031,3.27535,5,0.1,21,2.4,-1.12525,-0.571946,0.686332,-0.0631243,-0.833936,0.026837,-0.380516,-0.4659,-0.0468194,0.0154425,2.28545,5,0.1,22,2.4,-0.271385,1.2438,0.590554,-0.0505552,-0.135717,0.0166878,0.0644326,0.146329,-0.0212491,0.00861418,0.272566,5,0.1,23,2.4,-1.72013,-0.265682,0.742142,-0.161967,-0.126376,0.000472367,-0.597835,-0.00615418,-0.0947118,0.0113533,3.39262,5,0.1,24,2.4,0.738015,3.45543,0.633021,-0.845306,0.438207,-0.0195876,0.201881,-0.00214577,-0.0184476,0.0123455,0.75145,5,0.1,25,2.4,-2.03198,-0.21986,0.719267,-0.0692964,0.0469644,0.0343278,-0.630856,-0.233732,-0.122041,0.00811273,0.314919,5,0.1,26,2.4,3.36371,1.85522,0.597901,-0.13895,0.313342,0.00208765,-0.00214577,0.461578,-0.00205636,0.00975126,0.854611,5,0.1,27,2.4,3.0841,2.9434,0.617544,-0.578701,0.0531554,-0.0164613,-1.3895,-0.0579357,0.017941,0.0111307,2.45821,5,0.1,28,2.4,1.2505,1.19048,0.600011,-0.170761,0.258186,-2.38419e-05,0.234067,-0.214398,2.98023e-05,0.0222026,0.189669,5,0.1,29,2.4,0.545305,-0.307319,0.564404,0.619015,0.0393346,0.0313312,-0.480711,-0.174776,-0.0144839,0.0113446,0.150884,5,0.1,30,2.4,-3.28485,-1.13516,0.5961,0.421894,0.797176,0.00209659,1.20437,-0.374258,0,0.0116263,2.28713,5,0.1,31,2.4,3.63524,-0.828538,0.605649,-0.0691235,0.866026,-0.00192374,0.0144243,0,2.98023e-05,0.0215014,2.26833,5,0.1,32,2.4,-0.0974691,-0.540327,0.646474,-0.133127,0.414693,-0.0273436,-0.081889,-0.0658333,-0.0281334,0.00987595,0.137498,5,0.1,33,2.4,-0.856183,-1.52551,0.574982,0.275974,-0.052923,-0.0280306,-0.300556,-0.298917,-0.0110567,0.0145122,1.32547,5,0.1,34,2.4,1.2622,3.48941,0.500566,-0.339985,-0.380379,-0.00630617,-0.413358,-1.11997,0.048995,0.0191891,1.28543,5,0.1,35,2.4,-3.76633,4.11114,0.630818,-0.434506,-0.0561118,0.0253707,0.242233,0.0398159,-0.0178814,0.0130674,0.0923577,5,0.1,36,2.4,-2.38428,-0.896792,0.641996,0.142205,0.0505373,0.0231147,-0.595331,-0.838578,0.204653,0.0113007,0.365749,5,0.1,37,2.4,2.29985,0.3173,0.655624,0.0623167,0.377355,0.0293225,-0.043869,-0.228733,-0.0206828,0.00976621,0.0691878,5,0.1,38,2.4,-2.58498,3.06779,0.641342,0.258774,-0.28168,-0.0112265,-0.166893,0.181556,0.00724196,0.0124782,0.0623348,5,0.1,39,2.4,1.81116,-2.4079,0.500033,-0.177073,0.866026,1.19209e-05,0.0332594,0,-0.000447035,0.0185465,2.25201,5,0.1
