id,t,px,py,pz,vx,vy,vz,ax,ay,az,planning_time,qp_cost,planning_report,size,id,t,px,py,pz,vx,vy,vz,ax,ay,az,planning_time,qp_cost,planning_report,size,id,t,px,py,pz,vx,vy,vz,ax,ay,az,planning_time,qp_cost,planning_report,size,id,t,px,py,pz,vx,vy,vz,ax,ay,az,planning_time,qp_cost,planning_report,size,id,t,px,py,pz,vx,vy,vz,ax,ay,az,planning_time,qp_cost,planning_report,size,id,t,px,py,pz,vx,vy,vz,ax,ay,az,planning_time,qp_cost,planning_report,size,id,t,px,py,pz,vx,vy,vz,ax,ay,az,planning_time,qp_cost,planning_report,size,id,t,px,py,pz,vx,vy,vz,ax,ay,az,planning_time,qp_cost,planning_report,size,id,t,px,py,pz,vx,vy,vz,ax,ay,az,planning_time,qp_cost,planning_report,size,id,t,px,py,pz,vx,vy,vz,ax,ay,az,planning_time,qp_cost,planning_report,size,id,t,px,py,pz,vx,vy,vz,ax,ay,az,planning_time,qp_cost,planning_report,size,id,t,px,py,pz,vx,vy,vz,ax,ay,az,planning_time,qp_cost,planning_report,size,id,t,px,py,pz,vx,vy,vz,ax,ay,az,planning_time,qp_cost,planning_report,size,id,t,px,py,pz,vx,vy,vz,ax,ay,az,planning_time,qp_cost,planning_report,size,id,t,px,py,pz,vx,vy,vz,ax,ay,az,planning_time,qp_cost,planning_report,size,id,t,px,py,pz,vx,vy,vz,ax,ay,az,planning_time,qp_cost,planning_report,size,id,t,px,py,pz,vx,vy,vz,ax,ay,az,planning_time,qp_cost,planning_report,size,id,t,px,py,pz,vx,vy,vz,ax,ay,az,planning_time,qp_cost,planning_report,size,id,t,px,py,pz,vx,vy,vz,ax,ay,az,planning_time,qp_cost,planning_report,size,id,t,px,py,pz,vx,vy,vz,ax,ay,az,planning_time,qp_cost,planning_report,size,id,t,px,py,pz,vx,vy,vz,ax,ay,az,planning_time,qp_cost,planning_report,size,id,t,px,py,pz,vx,vy,vz,ax,ay,az,planning_time,qp_cost,planning_report,size,id,t,px,py,pz,vx,vy,vz,ax,ay,az,planning_time,qp_cost,planning_report,size,id,t,px,py,pz,vx,vy,vz,ax,ay,az,planning_time,qp_cost,planning_report,size,id,t,px,py,pz,vx,vy,vz,ax,ay,az,planning_time,qp_cost,planning_report,size,id,t,px,py,pz,vx,vy,vz,ax,ay,az,planning_time,qp_cost,planning_report,size,id,t,px,py,pz,vx,vy,vz,ax,ay,az,planning_time,qp_cost,planning_report,size,id,t,px,py,pz,vx,vy,vz,ax,ay,az,planning_time,qp_cost,planning_report,size,id,t,px,py,pz,vx,vy,vz,ax,ay,az,planning_time,qp_cost,planning_report,size,id,t,px,py,pz,vx,vy,vz,ax,ay,az,planning_time,qp_cost,planning_report,size,id,t,px,py,pz,vx,vy,vz,ax,ay,az,planning_time,qp_cost,planning_report,size,id,t,px,py,pz,vx,vy,vz,ax,ay,az,planning_time,qp_cost,planning_report,size,id,t,px,py,pz,vx,vy,vz,ax,ay,az,planning_time,qp_cost,planning_report,size,id,t,px,py,pz,vx,vy,vz,ax,ay,az,planning_time,qp_cost,planning_report,size,id,t,px,py,pz,vx,vy,vz,ax,ay,az,planning_time,qp_cost,planning_report,size,id,t,px,py,pz,vx,vy,vz,ax,ay,az,planning_time,qp_cost,planning_report,size,id,t,px,py,pz,vx,vy,vz,ax,ay,az,planning_time,qp_cost,planning_report,size,id,t,px,py,pz,vx,vy,vz,ax,ay,az,planning_time,qp_cost,planning_report,size,id,t,px,py,pz,vx,vy,vz,ax,ay,az,planning_time,qp_cost,planning_report,size,id,t,px,py,pz,vx,vy,vz,ax,ay,az,planning_time,qp_cost,planning_report,size
0,0,1.26635,-1.25474,0.515036,0,0,0,0,0,0,0.0188017,1.38995,5,0.1,1,0,-3.43061,0.808065,0.677727,0,0,0,0,0,0,0.0115595,3.51525,5,0.1,2,0,1.6963,-3.19325,0.538968,0,0,0,0,0,0,0.00982335,1.16015,5,0.1,3,0,0.471823,3.12245,0.663898,0,0,0,0,0,0,0.0148761,3.5122,5,0.1,4,0,2.20532,-1.40647,0.638309,0,0,0,0,0,0,0.0176933,3.51219,5,0.1,5,0,3.85389,-2.87496,0.625981,0,0,0,0,0,0,0.0163876,3.5122,5,0.1,6,0,-1.34631,2.91895,0.564012,0,0,0,0,0,0,0.0105375,0.515913,5,0.1,7,0,-0.413041,-3.76261,0.59037,0,0,0,0,0,0,0.0148138,3.51219,5,0.1,8,0,-1.97417,-3.40073,0.633009,0,0,0,0,0,0,0.00808465,0.80913,5,0.1,9,0,1.62613,2.70821,0.670663,0,0,0,0,0,0,0.0108811,3.51219,5,0.1,10,0,-0.885026,-2.1667,0.650004,0,0,0,0,0,0,0.013271,3.5122,5,0.1,11,0,3.84257,2.29236,0.579851,0,0,0,0,0,0,0.00986564,3.51219,5,0.1,12,0,2.49421,2.9032,0.524472,0,0,0,0,0,0,0.0122996,1.69793,5,0.1,13,0,0.616021,-1.00996,0.599946,0,0,0,0,0,0,0.0111491,1.51267,5,0.1,14,0,-2.73252,4.18502,0.522639,0,0,0,0,0,0,0.0153204,3.5122,5,0.1,15,0,1.71418,0.460396,0.647982,0,0,0,0,0,0,0.0185328,0.929044,5,0.1,16,0,-0.501571,1.40878,0.69733,0,0,0,0,0,0,0.0155896,1.93061,5,0.1,17,0,4.12373,-1.27992,0.66875,0,0,0,0,0,0,0.0182861,3.5122,5,0.1,18,0,0.106116,3.83586,0.573907,0,0,0,0,0,0,0.0188427,3.51219,5,0.1,19,0,-3.74421,2.75718,0.647759,0,0,0,0,0,0,0.0187194,1.29192,5,0.1,20,0,1.63844,3.74253,0.647604,0,0,0,0,0,0,0.00908036,1.06661,5,0.1,21,0,0.840666,-3.6786,0.594338,0,0,0,0,0,0,0.011898,3.5122,5,0.1,22,0,-2.36174,3.41817,0.677322,0,0,0,0,0,0,0.0113598,2.23129,5,0.1,23,0,-2.25586,-1.15503,0.686465,0,0,0,0,0,0,0.011409,1.32608,5,0.1,24,0,-4.35179,2.93502,0.520734,0,0,0,0,0,0,0.0134853,1.86023,5,0.1,25,0,4.16084,-2.18713,0.575946,0,0,0,0,0,0,0.0268742,3.5122,5,0.1,26,0,-3.3289,3.22197,0.516616,0,0,0,0,0,0,0.0220525,3.51219,5,0.1,27,0,-3.674,-0.833446,0.545438,0,0,0,0,0,0,0.0263446,3.5122,5,0.1,28,0,-1.19414,0.74784,0.589282,0,0,0,0,0,0,0.0156733,3.5122,5,0.1,29,0,3.71734,-3.72608,0.510042,0,0,0,0,0,0,0.0208967,3.5122,5,0.1,30,0,1.08119,4.39296,0.662371,0,0,0,0,0,0,0.0144761,3.5122,5,0.1,31,0,-0.128937,-1.13304,0.598809,0,0,0,0,0,0,0.008887,1.15292,5,0.1,32,0,0.179619,2.36426,0.604349,0,0,0,0,0,0,0.0090964,2.84325,5,0.1,33,0,3.49496,-0.896042,0.691184,0,0,0,0,0,0,0.0291153,3.51219,5,0.1,34,0,-1.04222,-2.90954,0.636066,0,0,0,0,0,0,0.0151123,3.51219,5,0.1,35,0,-1.12478,-0.374085,0.554262,0,0,0,0,0,0,0.0108494,3.51219,5,0.1,36,0,2.23142,-2.72038,0.542028,0,0,0,0,0,0,0.00890613,1.39859,5,0.1,37,0,-0.143244,3.20003,0.643294,0,0,0,0,0,0,0.012299,2.13281,5,0.1,38,0,-3.57553,0.178317,0.599937,0,0,0,0,0,0,0.00943868,1.38415,5,0.1,39,0,-2.09015,-0.53939,0.654705,0,0,0,0,0,0,0.00911005,1.66891,5,0.1
0,0.1,1.26628,-1.25343,0.514968,-0.00196602,0.0371832,-0.00192728,-0.0349507,0.66103,-0.0342578,0.0188017,1.38995,5,0.1,1,0.1,-3.43117,0.806228,0.677594,-0.0157166,-0.0521442,-0.00378769,-0.279412,-0.927009,-0.0673383,0.0115595,3.51525,5,0.1,2,0.1,1.69687,-3.19429,0.539132,0.0160823,-0.0296641,0.00466248,0.285916,-0.527367,0.0828914,0.00982335,1.16015,5,0.1,3,0.1,0.473909,3.12235,0.663851,0.0591977,-0.00256263,-0.00133757,1.05241,-0.0455528,-0.0237748,0.0148761,3.5122,5,0.1,4,0.1,2.20459,-1.40452,0.638284,-0.0209544,0.0554362,-0.000694953,-0.372544,0.985526,-0.0123531,0.0176933,3.51219,5,0.1,5,0.1,3.85373,-2.87288,0.625971,-0.00452474,0.0590947,-0.000291225,-0.0804365,1.05058,-0.00517443,0.0163876,3.5122,5,0.1,6,0.1,-1.34669,2.91965,0.564124,-0.0108853,0.0196811,0.00319174,-0.193521,0.349864,0.0567399,0.0105375,0.515913,5,0.1,7,0.1,-0.415129,-3.76259,0.590358,-0.0592645,0.000569224,-0.000357907,-1.05359,0.010103,-0.00635907,0.0148138,3.51219,5,0.1,8,0.1,-1.97418,-3.40172,0.632875,-0.000383519,-0.0281882,-0.00380743,-0.00681728,-0.501141,-0.0676885,0.00808465,0.80913,5,0.1,9,0.1,1.62792,2.70927,0.670611,0.0508953,0.0303354,-0.00147717,0.904799,0.539288,-0.0262596,0.0108811,3.51219,5,0.1,10,0.1,-0.886628,-2.16536,0.649971,-0.0454864,0.0379842,-0.000941847,-0.808645,0.675276,-0.0167452,0.013271,3.5122,5,0.1,11,0.1,3.84253,2.29027,0.579859,-0.00130162,-0.0592537,0.00024559,-0.0231266,-1.05339,0.00436231,0.00986564,3.51219,5,0.1,12,0.1,2.49286,2.90268,0.524395,-0.038353,-0.014912,-0.00220677,-0.681832,-0.265107,-0.039231,0.0122996,1.69793,5,0.1,13,0.1,0.615065,-1.01094,0.599946,-0.0271455,-0.027857,1.58325e-06,-0.482593,-0.49524,2.6077e-05,0.0111491,1.51267,5,0.1,14,0.1,-2.73137,4.18328,0.522589,0.0327654,-0.0493675,-0.0014144,0.582516,-0.877678,-0.0251494,0.0153204,3.5122,5,0.1,15,0.1,1.71364,0.461325,0.647932,-0.015237,0.0263626,-0.00142176,-0.270881,0.468669,-0.0252798,0.0185328,0.929044,5,0.1,16,0.1,-0.500421,1.40982,0.697385,0.0326443,0.0293737,0.0015608,0.580337,0.522204,0.0277497,0.0155896,1.93061,5,0.1,17,0.1,4.12334,-1.27787,0.668717,-0.0111997,0.0581931,-0.000934582,-0.199139,1.03454,-0.0166185,0.0182861,3.5122,5,0.1,18,0.1,0.105815,3.83379,0.573926,-0.00854927,-0.0586454,0.000549387,-0.151987,-1.04259,0.00977144,0.0188427,3.51219,5,0.1,19,0.1,-3.74297,2.75697,0.647709,0.0353899,-0.0061404,-0.00141542,0.629142,-0.109151,-0.0251606,0.0187194,1.29192,5,0.1,20,0.1,1.63955,3.74223,0.647554,0.0314588,-0.00866912,-0.00141058,0.559263,-0.154123,-0.0250787,0.00908036,1.06661,5,0.1,21,0.1,0.838579,-3.67866,0.594294,-0.0592276,-0.00181049,-0.00124229,-1.05293,-0.0321865,-0.0220872,0.011898,3.5122,5,0.1,22,0.1,-2.36022,3.41883,0.677398,0.0433173,0.0187241,0.00215396,0.770107,0.332892,0.0382885,0.0113598,2.23129,5,0.1,23,0.1,-2.25695,-1.1557,0.686531,-0.0309426,-0.0191132,0.00188285,-0.550076,-0.339799,0.0334717,0.011409,1.32608,5,0.1,24,0.1,-4.35038,2.93446,0.52066,0.0400603,-0.0158548,-0.00209603,0.712156,-0.28187,-0.0372604,0.0134853,1.86023,5,0.1,25,0.1,4.1605,-2.18507,0.575956,-0.00970364,0.0584677,0.000271108,-0.172496,1.03945,0.0048168,0.0268742,3.5122,5,0.1,26,0.1,-3.32692,3.22265,0.516562,0.056079,0.0191186,-0.00153808,0.996947,0.339881,-0.0273399,0.0220525,3.51219,5,0.1,27,0.1,-3.67205,-0.832703,0.54547,0.0553895,0.0210699,0.000895746,0.984713,0.37457,0.0159219,0.0263446,3.5122,5,0.1,28,0.1,-1.1937,0.745798,0.589287,0.0123473,-0.0579678,0.00014808,0.219502,-1.03053,0.00263005,0.0156733,3.5122,5,0.1,29,0.1,3.71725,-3.72399,0.510021,-0.00258386,0.0592094,-0.000580493,-0.0459254,1.0526,-0.0103153,0.0208967,3.5122,5,0.1,30,0.1,1.08063,4.39095,0.662317,-0.0157246,-0.0571229,-0.00155382,-0.279538,-1.01551,-0.0276268,0.0144761,3.5122,5,0.1,31,0.1,-0.129115,-1.13186,0.59881,-0.00506935,0.033577,3.51109e-05,-0.0901213,0.596918,0.000629574,0.008887,1.15292,5,0.1,32,0.1,0.178962,2.36602,0.604344,-0.0186582,0.049955,-0.000128802,-0.331703,0.888094,-0.00229105,0.0090964,2.84325,5,0.1,33,0.1,3.49494,-0.893954,0.691221,-0.000808015,0.0592533,0.00105742,-0.0143498,1.05339,0.0187978,0.0291153,3.51219,5,0.1,34,0.1,-1.04192,-2.90747,0.636047,0.00845324,0.0586599,-0.000514835,0.150271,1.04284,-0.00915676,0.0151123,3.51219,5,0.1,35,0.1,-1.1242,-0.376091,0.554289,0.0164403,-0.0569372,0.000771508,0.292279,-1.01222,0.0137165,0.0108494,3.51219,5,0.1,36,0.1,2.23077,-2.72152,0.542091,-0.0184391,-0.0324905,0.0017805,-0.327811,-0.577629,0.0316575,0.00890613,1.39859,5,0.1,37,0.1,-0.143408,3.19841,0.643248,-0.00464534,-0.0459336,-0.0012829,-0.0825841,-0.816584,-0.0228025,0.012299,2.13281,5,0.1,38,0.1,-3.57508,0.17954,0.59978,0.0126097,0.0347219,-0.00444315,0.224188,0.617277,-0.0789911,0.00943868,1.38415,5,0.1,39,0.1,-2.0888,-0.539881,0.654692,0.0383969,-0.0139532,-0.000395812,0.682607,-0.248056,-0.00703335,0.00911005,1.66891,5,0.1
0,0.2,1.26588,-1.24587,0.514576,-0.00621676,0.117517,-0.00609159,-0.0465512,0.881374,-0.0456572,0.0138874,1.14038,5,0.1,1,0.2,-3.43436,0.795636,0.676825,-0.0496745,-0.164802,-0.0119716,-0.37241,-1.23599,-0.0897944,0.00968332,3.1726,5,0.1,2,0.2,1.70014,-3.20032,0.540079,0.0508279,-0.0937521,0.0147358,0.381231,-0.703096,0.110537,0.0105444,0.951847,5,0.1,3,0.2,0.485933,3.12183,0.663579,0.187094,-0.00810027,-0.00422746,1.40321,-0.0607967,-0.0317097,0.0149446,2.92579,5,0.1,4,0.2,2.20033,-1.39326,0.638143,-0.0662267,0.175205,-0.00219494,-0.496626,1.31404,-0.0165105,0.0163314,2.9258,5,0.1,5,0.2,3.85281,-2.86088,0.625912,-0.0142992,0.186765,-0.000919402,-0.107288,1.40083,-0.00691414,0.0141814,2.92579,5,0.1,6,0.2,-1.3489,2.92365,0.564772,-0.0344038,0.0621974,0.0100881,-0.258029,0.466585,0.0756383,0.00810978,0.423278,5,0.1,7,0.2,-0.427167,-3.76248,0.590285,-0.187305,0.00180006,-0.00113249,-1.40478,0.0135899,-0.00846386,0.00772129,2.92579,5,0.1,8,0.2,-1.97426,-3.40745,0.632102,-0.00121295,-0.0890911,-0.0120342,-0.00911951,-0.668168,-0.0902414,0.00740236,0.663851,5,0.1,9,0.2,1.63826,2.71544,0.670311,0.160855,0.0958741,-0.00466853,1.2064,0.71907,-0.0350475,0.00895801,2.92851,5,0.1,10,0.2,-0.895867,-2.15765,0.649779,-0.143759,0.120056,-0.00297725,-1.07819,0.900269,-0.0223219,0.0111289,2.9258,5,0.1,11,0.2,3.84226,2.27824,0.579909,-0.00411272,-0.187272,0.000777841,-0.030756,-1.40452,0.00578165,0.0089241,2.92579,5,0.1,12,0.2,2.48507,2.89965,0.523946,-0.121212,-0.0471294,-0.00697523,-0.90909,-0.353456,-0.0523031,0.0103605,1.39307,5,0.1,13,0.2,0.609551,-1.0166,0.599947,-0.0857919,-0.088045,5.96046e-06,-0.643492,-0.660241,0,0.0093597,1.24107,5,0.1,14,0.2,-2.72471,4.17326,0.522301,0.103557,-0.156021,-0.00447035,0.776649,-1.1704,-0.0335276,0.0158273,2.92578,5,0.1,15,0.2,1.71055,0.46668,0.647643,-0.0481576,0.0833191,-0.00449419,-0.361204,0.62488,-0.0337064,0.0152994,0.762234,5,0.1,16,0.2,-0.49379,1.41578,0.697702,0.103171,0.0928372,0.00493228,0.773802,0.696242,0.0370145,0.0163028,1.58397,5,0.1,17,0.2,4.12106,-1.26605,0.668527,-0.0353932,0.183919,-0.0029549,-0.265598,1.37937,-0.0221431,0.0192779,2.92579,5,0.1,18,0.2,0.104079,3.82188,0.574038,-0.0270199,-0.185353,0.00173599,-0.202648,-1.38998,0.0130236,0.0196135,2.92581,5,0.1,19,0.2,-3.73578,2.75572,0.647421,0.111848,-0.0194073,-0.00447184,0.838876,-0.145435,-0.0335872,0.0195595,1.05996,5,0.1,20,0.2,1.64594,3.74046,0.647268,0.0994235,-0.0273943,-0.00445843,0.745714,-0.205636,-0.0334382,0.0101942,0.875099,5,0.1,21,0.2,0.826549,-3.67903,0.594042,-0.187188,-0.00572205,-0.00392795,-1.40393,-0.0429153,-0.0294149,0.00815192,2.92579,5,0.1,22,0.2,-2.35142,3.42263,0.677836,0.136906,0.0591755,0.00680685,1.02675,0.443816,0.0510514,0.0138179,1.83066,5,0.1,23,0.2,-2.26323,-1.15958,0.686913,-0.0977933,-0.0604063,0.00595152,-0.733376,-0.453115,0.0446141,0.00985104,1.08798,5,0.1,24,0.2,-4.34225,2.93124,0.520234,0.126612,-0.0501096,-0.00662506,0.949383,-0.375867,-0.0496805,0.0128344,1.52623,5,0.1,25,0.2,4.15853,-2.17319,0.576011,-0.0306726,0.184786,0.000856817,-0.229836,1.38593,0.0064373,0.0302264,2.92579,5,0.1,26,0.2,-3.31553,3.22653,0.51625,0.17724,0.0604212,-0.00486076,1.32918,0.453115,-0.0364482,0.0287163,2.9258,5,0.1,27,0.2,-3.6608,-0.828424,0.545652,0.175059,0.0665903,0.00283122,1.31297,0.499457,0.0212193,0.0280919,2.92579,5,0.1,28,0.2,-1.19119,0.734023,0.589317,0.0390232,-0.183207,0.000467896,0.292718,-1.37404,0.00348687,0.0183523,2.92579,5,0.1,29,0.2,3.71672,-3.71196,0.509903,-0.00816584,0.187129,-0.00183284,-0.0612736,1.40357,-0.0137985,0.0215094,2.92578,5,0.1,30,0.2,1.07744,4.37935,0.662001,-0.0496984,-0.180531,-0.00490993,-0.372648,-1.35422,-0.0368655,0.0156743,2.92578,5,0.1,31,0.2,-0.130145,-1.12504,0.598818,-0.0160214,0.10612,0.000111759,-0.12017,0.795841,0.000834465,0.00909571,0.945915,5,0.1,32,0.2,0.175172,2.37617,0.604318,-0.0589691,0.157881,-0.000408292,-0.442274,1.18423,-0.00303984,0.00940909,2.33512,5,0.1,33,0.2,3.49477,-0.881918,0.691436,-0.00255704,0.18727,0.00334233,-0.0190735,1.40449,0.025034,0.0270022,2.9258,5,0.1,34,0.2,-1.0402,-2.89556,0.635943,0.0267178,0.185394,-0.00162721,0.200331,1.39046,-0.0121891,0.01796,2.9258,5,0.1,35,0.2,-1.12086,-0.387657,0.554446,0.0519603,-0.17995,0.00243783,0.389695,-1.34961,0.0182986,0.0142602,2.92579,5,0.1,36,0.2,2.22702,-2.72812,0.542453,-0.0582755,-0.102687,0.00562668,-0.437021,-0.770092,0.0422299,0.0101666,1.14748,5,0.1,37,0.2,-0.144351,3.18908,0.642988,-0.0146814,-0.145173,-0.0040561,-0.11012,-1.08886,-0.0303686,0.0145295,1.74986,5,0.1,38,0.2,-3.57252,0.186593,0.598878,0.0398517,0.109738,-0.0140429,0.298977,0.823036,-0.105321,0.0120391,1.18724,5,0.1,39,0.2,-2.081,-0.542715,0.654611,0.121355,-0.0440985,-0.00125021,0.910044,-0.330746,-0.00938773,0.0127732,1.36926,5,0.1
0,0.3,1.265,-1.22923,0.513714,-0.0115585,0.21862,-0.01133,-0.0569969,1.07852,-0.0558831,0.0138874,1.14038,5,0.1,1,0.3,-3.44129,0.773486,0.675224,-0.0895265,-0.272791,-0.0195763,-0.40473,-0.911687,-0.0619553,0.00968332,3.1726,5,0.1,2,0.3,1.70733,-3.2136,0.542166,0.0945583,-0.174406,0.027415,0.466496,-0.860393,0.13525,0.0105444,0.951847,5,0.1,3,0.3,0.512446,3.12069,0.66298,0.348476,-0.0150912,-0.00787405,1.72451,-0.0747144,-0.0389703,0.0149446,2.92579,5,0.1,4,0.3,2.19094,-1.36843,0.637832,-0.123346,0.326332,-0.00409223,-0.610411,1.61492,-0.0202656,0.0163314,2.9258,5,0.1,5,0.3,3.85079,-2.83441,0.625782,-0.0266369,0.347871,-0.00171419,-0.131831,1.72155,-0.00848621,0.0141814,2.92579,5,0.1,6,0.3,-1.35377,2.93246,0.566201,-0.0640023,0.115717,0.0187654,-0.315741,0.570878,0.092566,0.00810978,0.423278,5,0.1,7,0.3,-0.45371,-3.76222,0.590125,-0.348868,0.00335984,-0.00210656,-1.72644,0.0166446,-0.0104122,0.00772129,2.92579,5,0.1,8,0.3,-1.97443,-3.42007,0.630397,-0.00225827,-0.165738,-0.0223864,-0.0111461,-0.817642,-0.110433,0.00740236,0.663851,5,0.1,9,0.3,1.6609,2.72902,0.669661,0.29519,0.178496,-0.00836952,1.4042,0.882357,-0.0372119,0.00895801,2.92851,5,0.1,10,0.3,-0.916239,-2.14064,0.649358,-0.267761,0.223599,-0.00554472,-1.32507,1.10647,-0.027433,0.0111289,2.9258,5,0.1,11,0.3,3.84168,2.2517,0.580019,-0.00765249,-0.348806,0.0014442,-0.0378489,-1.72612,0.00713393,0.0089241,2.92579,5,0.1,12,0.3,2.46791,2.89297,0.522958,-0.225496,-0.0876755,-0.0129753,-1.11246,-0.432521,-0.0640117,0.0103605,1.39307,5,0.1,13,0.3,0.5974,-1.02907,0.599947,-0.159606,-0.163785,7.45058e-06,-0.787403,-0.807963,2.23517e-05,0.0093597,1.24107,5,0.1,14,0.3,-2.71004,4.15115,0.521668,0.19288,-0.29062,-0.00832658,0.954494,-1.43829,-0.0412092,0.0158273,2.92578,5,0.1,15,0.3,1.70373,0.47848,0.647007,-0.0895908,0.155,-0.00836067,-0.441976,0.764659,-0.0412464,0.0152994,0.762234,5,0.1,16,0.3,-0.479178,1.42893,0.698401,0.191934,0.172705,0.00917772,0.946878,0.851996,0.0452809,0.0163028,1.58397,5,0.1,17,0.3,4.11604,-1.23999,0.668108,-0.0659354,0.34256,-0.00550207,-0.326365,1.69523,-0.0272244,0.0192779,2.92579,5,0.1,18,0.3,0.10025,3.79561,0.574284,-0.0503263,-0.345218,0.00323383,-0.249051,-1.70833,0.0160001,0.0196135,2.92581,5,0.1,19,0.3,-3.71994,2.75297,0.646788,0.208076,-0.0360943,-0.00832332,1.02653,-0.178039,-0.0410788,0.0195595,1.05996,5,0.1,20,0.3,1.66002,3.73658,0.646636,0.184964,-0.0509776,-0.00829427,0.912488,-0.251561,-0.0409149,0.0101942,0.875099,5,0.1,21,0.3,0.800022,-3.67984,0.593486,-0.348652,-0.0106573,-0.00731219,-1.72538,-0.0527501,-0.0361726,0.00815192,2.92579,5,0.1,22,0.3,-2.33203,3.43101,0.6788,0.254687,0.110086,0.0126631,1.25642,0.543103,0.0624694,0.0138179,1.83066,5,0.1,23,0.3,-2.27709,-1.16814,0.687756,-0.181923,-0.112381,0.0110698,-0.897452,-0.554435,0.0546016,0.00985104,1.08798,5,0.1,24,0.3,-4.32432,2.92414,0.519296,0.235523,-0.0932243,-0.0123243,1.16181,-0.459924,-0.0608005,0.0128344,1.52623,5,0.1,25,0.3,4.15418,-2.147,0.576132,-0.0571124,0.34418,0.00159685,-0.282556,1.70323,0.00790507,0.0302264,2.92579,5,0.1,26,0.3,-3.29042,3.23509,0.515561,0.330112,0.112535,-0.0090532,1.63358,0.556901,-0.0448003,0.0287163,2.9258,5,0.1,27,0.3,-3.63599,-0.818987,0.546053,0.326061,0.124031,0.00527222,1.61359,0.613797,0.0260845,0.0280919,2.92579,5,0.1,28,0.3,-1.18566,0.708061,0.589383,0.0726867,-0.341234,0.000869855,0.359714,-1.68866,0.00429899,0.0183523,2.92579,5,0.1,29,0.3,3.71557,-3.68545,0.509643,-0.0152115,0.348549,-0.00341833,-0.0752658,1.72488,-0.0169277,0.0215094,2.92578,5,0.1,30,0.3,1.0704,4.35376,0.661305,-0.0925589,-0.336272,-0.00914857,-0.458032,-1.66416,-0.0452846,0.0156743,2.92578,5,0.1,31,0.3,-0.132414,-1.11001,0.598833,-0.0298059,0.197414,0.000207406,-0.147045,0.97388,0.00102445,0.00909571,0.945915,5,0.1,32,0.3,0.166895,2.39841,0.604258,-0.107568,0.290171,-0.000826549,-0.503255,1.38594,-0.00495091,0.00940909,2.33512,5,0.1,33,0.3,3.49441,-0.855381,0.69191,-0.00475422,0.348801,0.00622263,-0.0234842,1.72611,0.0307821,0.0270022,2.9258,5,0.1,34,0.3,-1.03642,-2.86928,0.635716,0.0495106,0.345345,-0.00291299,0.241816,1.70948,-0.0129193,0.01796,2.9258,5,0.1,35,0.3,-1.1135,-0.413157,0.554791,0.0967789,-0.335168,0.00454187,0.478923,-1.65865,0.0224784,0.0142602,2.92579,5,0.1,36,0.3,2.21877,-2.74267,0.54325,-0.108409,-0.191027,0.0104699,-0.534803,-0.942364,0.0516623,0.0101666,1.14748,5,0.1,37,0.3,-0.146431,3.16852,0.642414,-0.027313,-0.270075,-0.00754138,-0.134746,-1.33237,-0.0371896,0.0145295,1.74986,5,0.1,38,0.3,-3.56695,0.201461,0.596839,0.0721544,0.185026,-0.0275378,0.330418,0.667157,-0.154007,0.0120391,1.18724,5,0.1,39,0.3,-2.06381,-0.548961,0.654434,0.225751,-0.0820385,-0.002327,1.11367,-0.404723,-0.0114888,0.0127732,1.36926,5,0.1
0,0.4,1.26357,-1.20207,0.512306,-0.0170439,0.322413,-0.0167087,-0.0503063,0.951588,-0.0493228,0.0144493,0.9026,5,0.1,1,0.4,-3.45219,0.742263,0.673005,-0.12719,-0.345337,-0.0243276,-0.334024,-0.533313,-0.033021,0.0112301,3.17347,5,0.1,2,0.4,1.71908,-3.23526,0.545572,0.139451,-0.257212,0.0404313,0.41163,-0.759006,0.119299,0.0139628,0.753113,5,0.1,3,0.4,0.55577,3.11881,0.662001,0.514628,-0.0222862,-0.0116274,1.52475,-0.0659227,-0.0344813,0.0136138,2.51541,5,0.1,4,0.4,2.17561,-1.32786,0.637323,-0.182152,0.481924,-0.00604391,-0.53978,1.42795,-0.0179112,0.0164875,2.51008,5,0.1,5,0.4,3.84748,-2.79116,0.625569,-0.0393391,0.513732,-0.00253171,-0.116587,1.5223,-0.00751019,0.0173177,2.51503,5,0.1,6,0.4,-1.36172,2.94683,0.568532,-0.0943899,0.170654,0.0276729,-0.278533,0.503778,0.0816882,0.00788143,0.334899,5,0.1,7,0.4,-0.497082,-3.76181,0.589863,-0.515206,0.00495911,-0.00311136,-1.5265,0.014782,-0.00917912,0.00976065,2.51565,5,0.1,8,0.4,-1.97471,-3.44066,0.627616,-0.0033319,-0.244421,-0.0330135,-0.00977516,-0.721455,-0.0974536,0.00850228,0.525246,5,0.1,9,0.4,1.69725,2.7512,0.668646,0.428507,0.26347,-0.0118062,1.20634,0.77951,-0.030309,0.0105589,2.56227,5,0.1,10,0.4,-0.949528,-2.11284,0.648668,-0.395428,0.330204,-0.00818819,-1.17159,0.978351,-0.0242591,0.011153,2.51009,5,0.1,11,0.4,3.84073,2.20833,0.580199,-0.011301,-0.515115,0.00213087,-0.0334978,-1.52612,0.00634789,0.0093955,2.51561,5,0.1,12,0.4,2.43989,2.88208,0.521347,-0.332552,-0.1293,-0.0191346,-0.981569,-0.381589,-0.0565052,0.0103758,1.12053,5,0.1,13,0.4,0.577572,-1.04942,0.599948,-0.235385,-0.241545,1.04308e-05,-0.694633,-0.712812,2.98023e-05,0.0102198,0.981952,5,0.1,14,0.4,-2.68606,4.11501,0.520633,0.284839,-0.429189,-0.0122964,0.844121,-1.27172,-0.0364482,0.0172752,2.51932,5,0.1,15,0.4,1.6926,0.497736,0.645968,-0.132126,0.228591,-0.0123307,-0.389934,0.67459,-0.0363588,0.0187054,0.603088,5,0.1,16,0.4,-0.455334,1.45039,0.699541,0.283059,0.2547,0.0135362,0.835374,0.751674,0.0399351,0.0152796,1.2586,5,0.1,17,0.4,4.10785,-1.1974,0.667424,-0.0973821,0.505888,-0.00812411,-0.288248,1.49894,-0.0241101,0.0198571,2.51237,5,0.1,18,0.4,0.0939928,3.75269,0.574686,-0.0743218,-0.509816,0.00477582,-0.220206,-1.51038,0.0141561,0.0190263,2.51702,5,0.1,19,0.4,-3.69409,2.74849,0.645754,0.306863,-0.0532269,-0.0122756,0.905633,-0.157118,-0.0362396,0.0210452,0.83865,5,0.1,20,0.4,1.683,3.73025,0.645606,0.272781,-0.0751793,-0.0122324,0.80502,-0.221968,-0.0360906,0.0105868,0.692385,5,0.1,21,0.4,0.756677,-3.68116,0.592577,-0.514889,-0.0157416,-0.0107974,-1.52555,-0.0466108,-0.0320077,0.0133774,2.51551,5,0.1,22,0.4,-2.30039,3.44469,0.680373,0.375605,0.162351,0.0186741,1.10853,0.479221,0.0551343,0.0127765,1.44844,5,0.1,23,0.4,-2.29969,-1.1821,0.689131,-0.268292,-0.16574,0.0163257,-0.791788,-0.489056,0.0481606,0.0109176,0.860825,5,0.1,24,0.4,-4.29506,2.91256,0.517765,0.34734,-0.137484,-0.0181749,1.02496,-0.405669,-0.0536442,0.0121519,1.20763,5,0.1,25,0.4,4.14708,-2.10421,0.576331,-0.0843406,0.508285,0.00235736,-0.249863,1.50597,0.00700355,0.0236308,2.51307,5,0.1,26,0.4,-3.24937,3.24908,0.514435,0.487506,0.166196,-0.0133693,1.44446,0.492334,-0.0396073,0.0233443,2.51009,5,0.1,27,0.4,-3.59546,-0.803567,0.546708,0.481528,0.183171,0.00778586,1.42658,0.54267,0.023067,0.0289461,2.51007,5,0.1,28,0.4,-1.17663,0.665638,0.589491,0.107345,-0.503933,0.00128299,0.317991,-1.49307,0.0038445,0.0151382,2.51186,5,0.1,29,0.4,3.71367,-3.64211,0.509218,-0.022465,0.51474,-0.00505,-0.066638,1.52504,-0.014931,0.0234338,2.51543,5,0.1,30,0.4,1.05889,4.31196,0.660168,-0.136688,-0.496614,-0.0135109,-0.405014,-1.47128,-0.0400543,0.0139861,2.5105,5,0.1,31,0.4,-0.136117,-1.08548,0.598859,-0.0439573,0.291139,0.000305474,-0.129722,0.859261,0.000923872,0.00844796,0.74842,5,0.1,32,0.4,0.153701,2.43418,0.60415,-0.155041,0.421953,-0.00133365,-0.426881,1.19424,-0.00491738,0.0104081,1.98205,5,0.1,33,0.4,3.49382,-0.812016,0.692683,-0.00702143,0.515108,0.00918955,-0.0207424,1.52618,0.0272095,0.03755,2.51561,5,0.1,34,0.4,-1.03029,-2.82635,0.635363,0.0726968,0.510067,-0.00410527,0.211775,1.51181,-0.0105202,0.0145065,2.51371,5,0.1,35,0.4,-1.10147,-0.454826,0.555356,0.142923,-0.494975,0.00670701,0.423431,-1.46654,0.0198781,0.0133354,2.51035,5,0.1,36,0.4,2.2053,-2.7664,0.54455,-0.159878,-0.281721,0.0154421,-0.47183,-0.831485,0.0455379,0.0105889,0.907898,5,0.1,37,0.4,-0.149824,3.13497,0.641477,-0.0402804,-0.398296,-0.0111192,-0.118881,-1.17552,-0.032872,0.011122,1.39626,5,0.1,38,0.4,-3.55814,0.222938,0.593306,0.103056,0.240634,-0.0429943,0.275493,0.435226,-0.147194,0.0130985,1.07927,5,0.1,39,0.4,-2.03577,-0.559153,0.654145,0.332928,-0.12099,-0.00343174,0.982523,-0.357032,-0.0101328,0.009014,1.08338,5,0.1
0,0.5,1.2616,-1.16498,0.510438,-0.0221487,0.418959,-0.0201974,-0.0492781,0.931978,-0.0213683,0.0144493,0.9026,5,0.1,1,0.5,-3.46714,0.705737,0.670549,-0.17625,-0.378756,-0.0235525,-0.596255,-0.147548,0.0415556,0.0112301,3.17347,5,0.1,2,0.5,1.73512,-3.26485,0.550222,0.181213,-0.334223,0.0525354,0.403129,-0.743434,0.116851,0.0139628,0.753113,5,0.1,3,0.5,0.614839,3.11624,0.660661,0.664819,-0.0290722,-0.0151747,1.41093,-0.0662804,-0.0346415,0.0136138,2.51541,5,0.1,4,0.5,2.15462,-1.27232,0.636627,-0.237697,0.628863,-0.00788635,-0.542551,1.43526,-0.0179969,0.0164875,2.51008,5,0.1,5,0.5,3.84294,-2.73219,0.625277,-0.0513356,0.6639,-0.00330405,-0.117168,1.4126,-0.00753626,0.0173177,2.51503,5,0.1,6,0.5,-1.37258,2.96646,0.571715,-0.12265,0.221764,0.0359609,-0.27281,0.493348,0.0800006,0.00788143,0.334899,5,0.1,7,0.5,-0.556213,-3.76123,0.589504,-0.665424,0.00647716,-0.00405693,-1.40988,0.0147969,-0.00924245,0.00976065,2.51565,5,0.1,8,0.5,-1.97509,-3.46877,0.623819,-0.0043245,-0.317617,-0.042901,-0.0095889,-0.706568,-0.0954419,0.00850228,0.525246,5,0.1,9,0.5,1.74596,2.78185,0.66738,0.542971,0.35203,-0.0129324,1.03969,0.931859,0.00502542,0.0105589,2.56227,5,0.1,10,0.5,-0.995096,-2.07479,0.647725,-0.515988,0.43088,-0.0106845,-1.17763,0.983417,-0.0243858,0.011153,2.51009,5,0.1,11,0.5,3.83943,2.14921,0.580444,-0.0147488,-0.665322,0.00278372,-0.0336915,-1.41001,0.0063777,0.0093955,2.51561,5,0.1,12,0.5,2.40198,2.86699,0.519144,-0.422497,-0.174256,-0.0248939,-0.789896,-0.484675,-0.0558048,0.0103758,1.12053,5,0.1,13,0.5,0.550497,-1.0772,0.599949,-0.305862,-0.313868,1.38767e-05,-0.680346,-0.698164,4.09782e-05,0.0102198,0.981952,5,0.1,14,0.5,-2.65348,4.0657,0.519191,0.364647,-0.555986,-0.0167594,0.723049,-1.20592,-0.0493042,0.0172752,2.51932,5,0.1,15,0.5,1.6774,0.52403,0.64455,-0.171688,0.297035,-0.0160202,-0.381902,0.660723,-0.0356212,0.0187054,0.603088,5,0.1,16,0.5,-0.422775,1.47946,0.701098,0.367816,0.324567,0.0175881,0.81818,0.622712,0.0391118,0.0152796,1.2586,5,0.1,17,0.5,4.09663,-1.13926,0.666488,-0.127049,0.655735,-0.0106045,-0.289798,1.42688,-0.0242256,0.0198571,2.51237,5,0.1,18,0.5,0.085431,3.69417,0.575236,-0.0969053,-0.658862,0.0062298,-0.21998,-1.40478,0.0141785,0.0190263,2.51702,5,0.1,19,0.5,-3.65879,2.74237,0.644342,0.398748,-0.0691686,-0.0159517,0.887007,-0.153884,-0.0354797,0.0210452,0.83865,5,0.1,20,0.5,1.71437,3.7216,0.644199,0.354458,-0.0976969,-0.0158943,0.78845,-0.217363,-0.035353,0.0105868,0.692385,5,0.1,21,0.5,0.69758,-3.68298,0.591332,-0.665093,-0.0205383,-0.0140911,-1.41046,-0.0468493,-0.0321716,0.0133774,2.51551,5,0.1,22,0.5,-2.25719,3.46336,0.682521,0.488075,0.210971,0.0242678,1.0857,0.469312,0.0539906,0.0127765,1.44844,5,0.1,23,0.5,-2.33055,-1.20116,0.691009,-0.348628,-0.21536,0.0212125,-0.775516,-0.479005,0.0471771,0.0109176,0.860825,5,0.1,24,0.5,-4.2551,2.89674,0.515695,0.451337,-0.178644,-0.0230337,1.00398,-0.397339,-0.0421554,0.0121519,1.20763,5,0.1,25,0.5,4.13736,-2.04582,0.576603,-0.110055,0.658224,0.00307774,-0.251204,1.42249,0.00702962,0.0236308,2.51307,5,0.1,26,0.5,-3.1932,3.26823,0.5129,0.636146,0.21686,-0.0172843,1.45188,0.494897,-0.0369586,0.0233443,2.51009,5,0.1,27,0.5,-3.53997,-0.782459,0.547606,0.62833,0.239014,0.0101598,1.43394,0.545468,0.0231862,0.0289461,2.51007,5,0.1,28,0.5,-1.16426,0.607702,0.589639,0.140068,-0.653697,0.00167806,0.31963,-1.43043,0.0038594,0.0151382,2.51186,5,0.1,29,0.5,3.71109,-3.58303,0.508636,-0.0293203,0.664934,-0.0065865,-0.066936,1.41071,-0.0150129,0.0234338,2.51543,5,0.1,30,0.5,1.04314,4.2548,0.658611,-0.178366,-0.646079,-0.0176315,-0.4071,-1.44374,-0.0402443,0.0139861,2.5105,5,0.1,31,0.5,-0.141173,-1.052,0.598894,-0.0571188,0.378318,0.000398792,-0.127052,0.841573,0.00089407,0.00844796,0.74842,5,0.1,32,0.5,0.13685,2.48201,0.603964,-0.174869,0.530592,-0.00262633,-0.000177883,0.946209,-0.0189394,0.0104081,1.98205,5,0.1,33,0.5,3.49301,-0.752896,0.693742,-0.00915751,0.665319,0.0119903,-0.0208914,1.41006,0.0273623,0.03755,2.51561,5,0.1,34,0.5,-1.02193,-2.76776,0.6349,0.0944167,0.66011,-0.00515273,0.211522,1.4194,-0.0099279,0.0145065,2.51371,5,0.1,35,0.5,-1.085,-0.511813,0.556129,0.186496,-0.644381,0.00875229,0.425622,-1.44677,0.0199787,0.0133354,2.51035,5,0.1,36,0.5,2.18691,-2.7988,0.546326,-0.20775,-0.366083,0.0200627,-0.462145,-0.814363,0.0446066,0.0105889,0.907898,5,0.1,37,0.5,-0.154735,3.08932,0.640207,-0.0602299,-0.512831,-0.014188,-0.256663,-1.06721,-0.0274591,0.011122,1.39626,5,0.1,38,0.5,-3.54616,0.248696,0.588326,0.138796,0.269886,-0.0559906,0.407889,0.157345,-0.11,0.0130985,1.07927,5,0.1,39,0.5,-1.99747,-0.57307,0.65375,0.432616,-0.157215,-0.00445964,0.962339,-0.349693,-0.00992045,0.009014,1.08338,5,0.1
0,0.6,1.25916,-1.11878,0.508351,-0.0264734,0.500745,-0.0211626,-0.0354052,0.670433,0.00116229,0.0168331,0.67251,5,0.1,1,0.6,-3.48783,0.667673,0.668477,-0.237519,-0.377338,-0.0172734,-0.590801,0.163466,0.0784099,0.0111046,2.96284,5,0.1,2,0.6,1.75511,-3.30171,0.556016,0.216588,-0.399464,0.062789,0.289977,-0.534773,0.0840724,0.00822245,0.560677,5,0.1,3,0.6,0.687737,3.11303,0.658982,0.785579,-0.0349522,-0.0182465,0.960112,-0.0486374,-0.0254214,0.0144428,2.33382,5,0.1,4,0.6,2.12832,-1.20276,0.635754,-0.285786,0.756073,-0.00948161,-0.398874,1.05548,-0.0132024,0.0168036,2.27334,5,0.1,5,0.6,3.83726,-2.65937,0.624911,-0.0617146,0.784957,-0.00397265,-0.0863075,0.963926,-0.00554323,0.016253,2.33206,5,0.1,6,0.6,-1.38611,2.99092,0.575681,-0.146592,0.26505,0.0429824,-0.196218,0.355005,0.0575483,0.00743849,0.249319,5,0.1,7,0.6,-0.629163,-3.76052,0.589056,-0.785993,0.00778437,-0.00487715,-0.957519,0.0109673,-0.00679493,0.010033,2.33495,5,0.1,8,0.6,-1.97557,-3.5038,0.619088,-0.00516772,-0.379622,-0.0512749,-0.00685453,-0.508308,-0.0686944,0.00868603,0.391028,5,0.1,9,0.6,1.80489,2.82156,0.666151,0.629213,0.439501,-0.0113025,0.656128,0.773907,0.0252724,0.0114037,2.28047,5,0.1,10,0.6,-1.05217,-2.02712,0.646543,-0.620365,0.518042,-0.0128448,-0.865996,0.723243,-0.017941,0.0150189,2.21916,5,0.1,11,0.6,3.8378,2.07627,0.580752,-0.0177383,-0.785923,0.00334829,-0.0246763,-0.957847,0.00470877,0.0149971,2.33475,5,0.1,12,0.6,2.35628,2.84719,0.516397,-0.486028,-0.220537,-0.0298083,-0.463009,-0.416756,-0.0404119,0.0152108,0.842533,5,0.1,13,0.6,0.516766,-1.11182,0.599951,-0.365566,-0.375137,1.63913e-05,-0.489399,-0.502288,5.96046e-05,0.0115182,0.731043,5,0.1,14,0.6,-2.6138,4.00457,0.517271,0.424612,-0.660491,-0.0215456,0.456691,-0.843763,-0.0438392,0.0166437,2.25036,5,0.1,15,0.6,1.65847,0.556787,0.642783,-0.205201,0.355016,-0.0191465,-0.274718,0.475347,-0.02563,0.0160254,0.448985,5,0.1,16,0.6,-0.382211,1.51466,0.703037,0.439615,0.375435,0.0210196,0.588566,0.379503,0.0281632,0.0174071,1.0507,5,0.1,17,0.6,4.08257,-1.06714,0.665315,-0.152731,0.77939,-0.0127509,-0.213385,0.998437,-0.017792,0.0186119,2.31736,5,0.1,18,0.6,0.0747184,3.62188,0.575925,-0.116358,-0.779641,0.00748485,-0.160959,-0.965357,0.0103712,0.0223315,2.4083,5,0.1,19,0.6,-3.61482,2.73474,0.642582,0.476587,-0.0826716,-0.019066,0.638008,-0.110745,-0.025481,0.0175662,0.624353,5,0.1,20,0.6,1.75346,3.71083,0.642446,0.423649,-0.116765,-0.018996,0.567138,-0.156403,-0.0254512,0.0138433,0.515461,5,0.1,21,0.6,0.624658,-3.68525,0.589774,-0.785765,-0.0246882,-0.0169426,-0.958979,-0.0345707,-0.023663,0.00999052,2.33433,5,0.1,22,0.6,-2.20336,3.48663,0.685197,0.583351,0.252157,0.0290051,0.781059,0.337601,0.0388622,0.0148271,1.07832,5,0.1,23,0.6,-2.36899,-1.22491,0.693348,-0.416678,-0.257394,0.0253528,-0.558019,-0.344634,0.0339448,0.0114913,0.640868,5,0.1,24,0.6,-4.20533,2.87704,0.513209,0.539446,-0.21351,-0.026381,0.721931,-0.285983,-0.0239909,0.0117203,0.899615,5,0.1,25,0.6,4.12519,-1.97349,0.576943,-0.13231,0.781083,0.00369996,-0.185013,0.988007,0.0051856,0.0262614,2.32176,5,0.1,26,0.6,-3.12283,3.29222,0.511003,0.764829,0.260729,-0.0204667,1.06776,0.363827,-0.0254512,0.0259894,2.37824,5,0.1,27,0.6,-3.47046,-0.75602,0.54873,0.755429,0.28736,0.0122145,1.05441,0.401169,0.0170767,0.0271145,2.27251,5,0.1,28,0.6,-1.14876,0.535763,0.589825,0.168398,-0.777999,0.00201911,0.235081,-1.00713,0.00283122,0.01448,2.31384,5,0.1,29,0.6,3.70784,-3.51012,0.507908,-0.0352502,0.785655,-0.00791699,-0.0492334,0.959635,-0.0110269,0.0235375,2.33401,5,0.1,30,0.6,1.02341,4.18352,0.65666,-0.214449,-0.77281,-0.0211984,-0.299454,-1.03927,-0.0295937,0.0134838,3.38129,5,0.1,31,0.6,-0.147472,-1.01027,0.598938,-0.0682686,0.45217,0.000476837,-0.0913888,0.605404,0.000655651,0.0119749,0.557179,5,0.1,32,0.6,0.119858,2.53918,0.603597,-0.160662,0.605893,-0.00476837,0.258952,0.539422,-0.0223815,0.00932663,1.62185,5,0.1,33,0.6,3.492,-0.679956,0.695068,-0.011009,0.78592,0.0144154,-0.015378,0.957996,0.0201464,0.0290746,2.33477,5,0.1,34,0.6,-1.01151,-2.69527,0.634339,0.113109,0.782377,-0.00600666,0.154436,0.98002,-0.00676513,0.0149115,2.32539,5,0.1,35,0.6,-1.06437,-0.582949,0.557097,0.224221,-0.771648,0.0105217,0.312984,-1.04657,0.0147223,0.0139568,2.29652,5,0.1,36,0.6,2.164,-2.83918,0.548539,-0.248301,-0.437546,0.0239775,-0.332594,-0.585794,0.0320971,0.00985207,0.675908,5,0.1,37,0.6,-0.16211,3.0332,0.638667,-0.0874892,-0.60364,-0.0164375,-0.270732,-0.71609,-0.0168681,0.0121139,1.72801,5,0.1,38,0.6,-3.53023,0.276065,0.582257,0.179154,0.273646,-0.0645623,0.375867,-0.0742823,-0.0597835,0.0147365,0.880698,5,0.1,39,0.6,-1.94976,-0.590408,0.653258,0.517067,-0.187902,-0.00533015,0.692248,-0.251591,-0.00715256,0.0105534,0.806556,5,0.1
0,0.7,1.25634,-1.06541,0.506278,-0.0298737,0.565108,-0.0199564,-0.0306442,0.580043,0.0213906,0.0168331,0.67251,5,0.1,1,0.7,-3.51505,0.630053,0.667096,-0.310355,-0.380882,-0.0107773,-0.801191,-0.185642,0.0518039,0.0111046,2.96284,5,0.1,2,0.7,1.77819,-3.34428,0.562708,0.244426,-0.450806,0.0708603,0.250876,-0.462711,0.0727363,0.00822245,0.560677,5,0.1,3,0.7,0.770035,3.10928,0.657029,0.850396,-0.0398364,-0.0207982,0.363324,-0.0459403,-0.024002,0.0144428,2.33382,5,0.1,4,0.7,2.09773,-1.12275,0.634739,-0.325828,0.835167,-0.0108072,-0.376686,0.525646,-0.0124685,0.0168036,2.27334,5,0.1,5,0.7,3.83066,-2.57711,0.624486,-0.0703733,0.850179,-0.00452902,-0.081405,0.367031,-0.00523031,0.016253,2.33206,5,0.1,6,0.7,-1.40173,3.01917,0.580262,-0.16543,0.299127,0.0485073,-0.169784,0.307083,0.0497885,0.00743849,0.249319,5,0.1,7,0.7,-0.711489,-3.75968,0.588534,-0.850539,0.00888184,-0.00555972,-0.360861,0.0103116,-0.00642613,0.010033,2.33495,5,0.1,8,0.7,-1.97612,-3.54426,0.613623,-0.00582691,-0.42842,-0.0578691,-0.00595301,-0.439748,-0.0594221,0.00868603,0.391028,5,0.1,9,0.7,1.87148,2.86924,0.665093,0.704753,0.511692,-0.0103266,0.784896,0.637978,-0.00264123,0.0114037,2.28047,5,0.1,10,0.7,-1.1186,-1.97165,0.645167,-0.707296,0.590642,-0.0146456,-0.817798,0.682972,-0.0169352,0.0150189,2.21916,5,0.1,11,0.7,3.8359,1.99395,0.581111,-0.0202175,-0.850512,0.00382029,-0.0233501,-0.361308,0.0044331,0.0149971,2.33475,5,0.1,12,0.7,2.30521,2.82322,0.513284,-0.535844,-0.257074,-0.0317914,-0.49004,-0.302672,-0.00125915,0.0152108,0.842533,5,0.1,13,0.7,0.477804,-1.1518,0.599953,-0.41255,-0.423358,2.17929e-05,-0.42343,-0.434585,4.47035e-05,0.0115182,0.731043,5,0.1,14,0.7,-2.56886,3.93415,0.514921,0.475077,-0.747829,-0.0251845,0.509292,-0.841334,-0.028275,0.0166437,2.25036,5,0.1,15,0.7,1.6366,0.594625,0.640743,-0.231575,0.40065,-0.0216072,-0.237681,0.411265,-0.0221804,0.0160254,0.448985,5,0.1,16,0.7,-0.336178,1.55328,0.705278,0.473302,0.389569,0.023723,0.123443,-0.0654235,0.0243634,0.0174071,1.0507,5,0.1,17,0.7,4.06622,-0.985262,0.663949,-0.174147,0.848246,-0.0145365,-0.201404,0.400156,-0.0167973,0.0186119,2.31736,5,0.1,18,0.7,0.0620297,3.54006,0.57659,-0.139248,-0.847111,0.00467114,-0.271646,-0.385389,-0.0587329,0.0223315,2.4083,5,0.1,19,0.7,-3.56402,2.72593,0.640551,0.537838,-0.0933036,-0.0215126,0.552014,-0.0958145,-0.0220537,0.0175662,0.624353,5,0.1,20,0.7,1.79862,3.69838,0.640422,0.478097,-0.131777,-0.0214392,0.490688,-0.135273,-0.0220165,0.0138433,0.515461,5,0.1,21,0.7,0.542348,-3.68789,0.587959,-0.850461,-0.028155,-0.0193174,-0.362208,-0.0326037,-0.0223331,0.00999052,2.33433,5,0.1,22,0.7,-2.14119,3.51351,0.688289,0.658334,0.284568,0.0327354,0.675753,0.292078,0.033617,0.0148271,1.07832,5,0.1,23,0.7,-2.4134,-1.25235,0.69605,-0.470248,-0.29048,0.0286116,-0.482783,-0.298172,0.0293739,0.0114913,0.640868,5,0.1,24,0.7,-4.14784,2.85429,0.510508,0.608762,-0.240964,-0.0271042,0.624716,-0.247389,0.00768527,0.0117203,0.899615,5,0.1,25,0.7,4.11102,-1.89149,0.577339,-0.150876,0.848836,0.00421982,-0.174612,0.390068,0.00488758,0.0262614,2.32176,5,0.1,26,0.7,-3.04198,3.31948,0.508877,0.842307,0.278529,-0.0216269,0.48466,0.0107437,0.000853091,0.0259894,2.37824,5,0.1,27,0.7,-3.39052,-0.725251,0.550038,0.834631,0.32763,0.0139284,0.528425,0.378828,0.0161193,0.0271145,2.27251,5,0.1,28,0.7,-1.13073,0.453974,0.590041,0.191993,-0.847765,0.00230297,0.221938,-0.408418,0.00266731,0.01448,2.31384,5,0.1,29,0.7,3.70407,-3.42782,0.50706,-0.0401899,0.850422,-0.00902405,-0.0464618,0.362873,-0.0104122,0.0235375,2.33401,5,0.1,30,0.7,0.998916,4.1028,0.654388,-0.287907,-0.825141,-0.0242303,-1.05431,-0.0559092,-0.0290386,0.0134838,3.38129,5,0.1,31,0.7,-0.154748,-0.962081,0.598989,-0.0770423,0.510291,0.000539329,-0.0790702,0.523787,0.000562519,0.0119749,0.557179,5,0.1,32,0.7,0.104735,2.60179,0.603041,-0.144771,0.639593,-0.00606338,0.0795391,0.136584,-0.00469759,0.00932663,1.62185,5,0.1,33,0.7,3.49082,-0.597635,0.696612,-0.0125527,0.850514,0.0164372,-0.0145435,0.36129,0.0190102,0.0290746,2.33477,5,0.1,34,0.7,-0.999416,-2.61318,0.633705,0.12859,0.849286,-0.00667637,0.145357,0.382364,-0.00617281,0.0149115,2.32539,5,0.1,35,0.7,-1.0403,-0.664312,0.558223,0.257306,-0.845555,0.0119573,0.325195,-0.446193,0.0131503,0.0139568,2.29652,5,0.1,36,0.7,2.13754,-2.88581,0.551094,-0.280229,-0.493784,0.0270591,-0.287712,-0.506818,0.027772,0.00985207,0.675908,5,0.1,37,0.7,-0.172187,2.96891,0.636778,-0.113535,-0.683909,-0.0226492,-0.240053,-0.821486,-0.0960752,0.0121139,1.72801,5,0.1,38,0.7,-3.51033,0.303535,0.575615,0.219202,0.279586,-0.0671844,0.398204,0.156339,0.00483915,0.0147365,0.880698,5,0.1,39,0.7,-1.89465,-0.610434,0.65269,0.583527,-0.212056,-0.00601653,0.598952,-0.217669,-0.00618398,0.0105534,0.806556,5,0.1
0,0.8,1.25322,-1.0064,0.504412,-0.0322789,0.610583,-0.0171706,-0.0160336,0.30461,0.0329912,0.0132659,0.47553,5,0.1,1,0.8,-3.55001,0.590793,0.666236,-0.386637,-0.405747,-0.00682324,-0.678062,-0.273198,0.027895,0.0118156,2.72312,5,0.1,2,0.8,1.80372,-3.39136,0.570108,0.264096,-0.487083,0.0765637,0.131667,-0.243068,0.0381768,0.0132465,0.395873,5,0.1,3,0.8,0.856161,3.1051,0.654842,0.866026,-0.0436187,-0.0227734,-2.98023e-05,-0.0276566,-0.0144243,0.0110933,2.27006,5,0.1,4,0.8,2.06347,-1.03744,0.633603,-0.356847,0.863215,-0.0118345,-0.226378,0.056237,-0.00748038,0.0153582,2.17792,5,0.1,5,0.8,3.82326,-2.49099,0.62401,-0.0770748,0.866026,-0.00495911,-0.048995,0,-0.00312924,0.0149952,2.26732,5,0.1,6,0.8,-1.41901,3.05041,0.585328,-0.178742,0.3232,0.0524119,-0.0891089,0.16129,0.0261068,0.00855198,0.176025,5,0.1,7,0.8,-0.797619,-3.75875,0.587949,-0.866026,0.00972748,-0.0060901,0,0.00607967,-0.0038445,0.00826972,2.27182,5,0.1,8,0.8,-1.97673,-3.589,0.607579,-0.00629425,-0.462902,-0.0625283,-0.00315905,-0.230789,-0.0311732,0.00758148,0.276081,5,0.1,9,0.8,1.94563,2.92316,0.664022,0.774214,0.561786,-0.0112772,0.554383,0.342727,-0.0139475,0.00767039,1.44396,5,0.1,10,0.8,-1.19297,-1.90955,0.643628,-0.774643,0.646886,-0.0160411,-0.491202,0.410259,-0.0101626,0.00996839,2.05788,5,0.1,11,0.8,3.83377,1.90782,0.581513,-0.0221372,-0.866023,0.00418574,-0.0140667,-5.96046e-05,0.00265241,0.00832465,2.27153,5,0.1,12,0.8,2.24942,2.79626,0.510149,-0.576669,-0.279254,-0.0304416,-0.295997,-0.133753,0.0265241,0.0112138,0.610142,5,0.1,13,0.8,0.434721,-1.19601,0.599955,-0.445748,-0.457433,2.68221e-05,-0.222355,-0.228167,0,0.010112,0.516157,5,0.1,14,0.8,-2.51901,3.85558,0.512291,0.519067,-0.818276,-0.0271007,0.339508,-0.52464,-0.00974536,0.0143823,2.09997,5,0.1,15,0.8,1.61241,0.636466,0.638486,-0.250208,0.432894,-0.0233471,-0.124812,0.215977,-0.0116229,0.0145479,0.317008,5,0.1,16,0.8,-0.288755,1.59139,0.707755,0.470591,0.367981,0.0256315,-0.15308,-0.341475,0.012815,0.0151899,0.86589,5,0.1,17,0.8,4.04791,-0.899213,0.662421,-0.190723,0.866026,-0.0159204,-0.121117,-2.98023e-05,-0.0100732,0.0175586,2.24391,5,0.1,18,0.8,0.0467345,3.45436,0.576703,-0.166295,-0.857562,-0.00285208,-0.250572,0.169277,-0.0854731,0.0207729,2.68551,5,0.1,19,0.8,-3.50786,2.71618,0.638304,0.581121,-0.100815,-0.0232413,0.289798,-0.0503063,-0.0115633,0.0164966,0.44083,5,0.1,20,0.8,1.84854,3.68462,0.638183,0.51657,-0.142384,-0.0231653,0.257671,-0.0709295,-0.0115633,0.0125632,2.38615,5,0.1,21,0.8,0.45622,-3.69085,0.585928,-0.866026,-0.0308394,-0.0211567,0,-0.0195503,-0.013411,0.00881409,2.27084,5,0.1,22,0.8,-2.07243,3.54322,0.691708,0.71131,0.307471,0.0353709,0.355005,0.153303,0.017643,0.0117411,0.76135,5,0.1,23,0.8,-2.46251,-1.28268,0.699039,-0.5081,-0.313854,0.0309154,-0.253558,-0.156641,0.0154078,0.0123916,0.452483,5,0.1,24,0.8,-4.08426,2.82912,0.507876,0.657737,-0.260359,-0.0251859,0.328302,-0.129938,0.0290275,0.0120342,0.635853,5,0.1,25,0.8,4.09516,-1.80542,0.577783,-0.165248,0.866023,0.00462234,-0.104904,5.96046e-05,0.00292063,0.0255037,2.25096,5,0.1,26,0.8,-2.95626,3.34693,0.506752,0.863081,0.266373,-0.0205591,-0.0591278,-0.237346,0.0193119,0.0257577,2.48654,5,0.1,27,0.8,-3.30524,-0.690801,0.551502,0.863028,0.358827,0.0152558,0.0599623,0.227511,0.00965595,0.0273767,2.1769,5,0.1,28,0.8,-1.11055,0.367942,0.590283,0.210267,-0.866025,0.00252277,0.133276,-1.43051e-05,0.00157952,0.0139783,2.23819,5,0.1,29,0.8,3.69984,-3.34169,0.506112,-0.044018,0.866026,-0.00988096,-0.0277758,0,-0.00628829,0.0235613,2.27036,5,0.1,30,0.8,0.964391,4.02129,0.651834,-0.404957,-0.793195,-0.0266641,-1.19856,0.65136,-0.018239,0.0138322,2.39581,5,0.1,31,0.8,-0.162794,-0.908791,0.599046,-0.0832416,0.551356,0.000584126,-0.0415221,0.275075,0.000268221,0.0104096,0.393398,5,0.1,32,0.8,0.0904997,2.66578,0.602432,-0.141094,0.633961,-0.00592172,0.00995785,-0.243902,0.00649691,0.0115659,1.55288,5,0.1,33,0.8,3.4895,-0.511505,0.69834,-0.0137508,0.866026,0.0180021,-0.00870228,0,0.0114441,0.0285271,2.27153,5,0.1,34,0.8,-0.985912,-2.5271,0.63301,0.140516,0.866026,-0.00716299,0.0863671,0,-0.00330806,0.014547,2.25679,5,0.1,35,0.8,-1.01308,-0.750264,0.559476,0.28525,-0.866024,0.0130117,0.216991,-2.98023e-05,0.00733137,0.0149128,2.20681,5,0.1,36,0.8,2.10827,-2.93738,0.55392,-0.302786,-0.533521,0.0292361,-0.151157,-0.266194,0.0146031,0.00802071,0.477226,5,0.1,37,0.8,-0.184622,2.8967,0.633979,-0.133798,-0.756311,-0.0336558,-0.158288,-0.578046,-0.115365,0.0074208,1.16878,5,0.1,38,0.8,-3.48657,0.332407,0.56901,0.254226,0.298419,-0.0640899,0.283599,0.192136,0.0546277,0.00908674,0.683216,5,0.1,39,0.8,-1.83371,-0.63258,0.652062,0.630486,-0.229122,-0.00650138,0.314593,-0.114322,-0.00324845,0.0115299,0.569479,5,0.1
0,0.9,1.24992,-0.943884,0.50287,-0.0337329,0.638184,-0.0135934,-0.0115037,0.218183,0.0375062,0.0132659,0.47553,5,0.1,1,0.9,-3.59154,0.547638,0.665541,-0.438804,-0.466898,-0.0083846,-0.36186,-0.848712,-0.0500642,0.0118156,2.72312,5,0.1,2,0.9,1.83075,-3.44123,0.577947,0.276027,-0.509109,0.0800231,0.0943169,-0.174105,0.0273436,0.0132465,0.395873,5,0.1,3,0.9,0.942763,3.10059,0.65249,0.866025,-0.0464685,-0.0242596,7.45058e-06,-0.0264049,-0.0137761,0.0110933,2.27006,5,0.1,4,0.9,2.0266,-0.950948,0.632381,-0.380257,0.86585,-0.0126086,-0.217758,0.00701472,-0.00720471,0.0153582,2.17792,5,0.1,5,0.9,3.81529,-2.40439,0.623498,-0.0821326,0.866026,-0.00528274,-0.0469834,0,-0.00300631,0.0149952,2.26732,5,0.1,6,0.9,-1.43731,3.08349,0.590694,-0.186818,0.337812,0.054778,-0.063844,0.115484,0.0187084,0.00855198,0.176025,5,0.1,7,0.9,-0.884222,-3.75774,0.58732,-0.866026,0.0103552,-0.00648769,3.72529e-06,0.00582635,-0.00369176,0.00826972,2.27182,5,0.1,8,0.9,-1.97737,-3.63639,0.601178,-0.00658073,-0.483815,-0.065353,-0.00226498,-0.165299,-0.0223294,0.00758148,0.276081,5,0.1,9,0.9,2.02315,2.98005,0.66325,0.75278,0.566838,-0.000584871,-0.862084,-0.211388,0.201672,0.00767039,1.44396,5,0.1,10,0.9,-1.2726,-1.84272,0.64197,-0.814477,0.689391,-0.0170942,-0.277974,0.396013,-0.00981241,0.00996839,2.05788,5,0.1,11,0.9,3.83149,1.82122,0.581945,-0.0235919,-0.866026,0.0044601,-0.0135452,-7.45058e-06,0.0025481,0.00832465,2.27153,5,0.1,12,0.9,2.19024,2.76776,0.507275,-0.606322,-0.289543,-0.0267216,-0.263065,-0.0628084,0.0459068,0.0112138,0.610142,5,0.1,13,0.9,0.389086,-1.24284,0.599958,-0.465897,-0.478109,2.68221e-05,-0.159273,-0.163443,0,0.010112,0.516157,5,0.1,14,0.9,-2.46526,3.77163,0.509582,0.55635,-0.855724,-0.026628,0.365868,-0.22696,0.0174418,0.0143823,2.09997,5,0.1,15,0.9,1.5868,0.680785,0.636096,-0.261519,0.452464,-0.0244007,-0.0893995,0.1547,-0.00832602,0.0145479,0.317008,5,0.1,16,0.9,-0.242914,1.62602,0.71038,0.443675,0.321331,0.0267925,-0.312167,-0.543877,0.00917166,0.0151899,0.86589,5,0.1,17,0.9,4.02821,-0.81261,0.660776,-0.203231,0.866025,-0.0169615,-0.116169,3.72529e-06,-0.00967458,0.0175586,2.24391,5,0.1,18,0.9,0.0282858,3.37034,0.575994,-0.207059,-0.81473,-0.0112279,-0.514708,0.660554,-0.0795536,0.0207729,2.68551,5,0.1,19,0.9,-3.44836,2.70586,0.635925,0.607383,-0.105374,-0.0242895,0.207573,-0.036031,-0.00828132,0.0164966,0.44083,5,0.1,20,0.9,1.90253,3.67005,0.635811,0.571035,-0.14881,-0.0242131,0.737734,-0.0507832,-0.00828505,0.0125632,2.38615,5,0.1,21,0.9,0.369617,-3.69404,0.583743,-0.866026,-0.0328556,-0.0225399,3.57628e-06,-0.0186861,-0.0128374,0.00881409,2.27084,5,0.1,22,0.9,-1.99961,3.5747,0.695329,0.743477,0.321362,0.0369693,0.254259,0.109792,0.0126325,0.0117411,0.76135,5,0.1,23,0.9,-2.51453,-1.31481,0.702204,-0.531075,-0.328047,0.0323119,-0.1816,-0.112183,0.0110418,0.0123916,0.452483,5,0.1,24,0.9,-4.01692,2.80247,0.505528,0.687488,-0.272132,-0.0215393,0.2352,-0.0930429,0.0423491,0.0120342,0.635853,5,0.1,25,0.9,4.07809,-1.71882,0.578261,-0.176086,0.866026,0.004924,-0.100702,7.45058e-06,0.00280514,0.0255037,2.25096,5,0.1,26,0.9,-2.87103,3.37277,0.504817,0.834065,0.253573,-0.0179341,-0.504404,-0.0465512,0.0318736,0.0257577,2.48654,5,0.1,27,0.9,-3.21876,-0.653734,0.553078,0.865838,0.382362,0.016255,0.00749528,0.21895,0.0092946,0.0273767,2.1769,5,0.1,28,0.9,-1.08883,0.281339,0.590544,0.224039,-0.866025,0.00268621,0.128001,1.78814e-06,0.00151619,0.0139783,2.23819,5,0.1,29,0.9,3.6953,-3.25509,0.5051,-0.046891,0.866026,-0.010271,-0.0267327,0,-0.00142306,0.0235613,2.27036,5,0.1,30,0.9,0.918835,3.94392,0.649075,-0.496985,-0.765017,-0.0284908,-0.648122,0.00683963,-0.0165775,0.0138322,2.39581,5,0.1,31,0.9,-0.171316,-0.852343,0.599105,-0.0870042,0.576282,0.000608526,-0.0297436,0.197031,0.000193715,0.0104096,0.393398,5,0.1,32,0.9,0.0766479,2.72716,0.601942,-0.134064,0.586392,-0.00329595,0.122854,-0.674888,0.0416711,0.0115659,1.55288,5,0.1,33,0.9,3.48808,-0.424902,0.7002,-0.0146486,0.866026,0.0191814,-0.00834465,-3.57628e-06,0.0109337,0.0285271,2.27153,5,0.1,34,0.9,-0.97141,-2.44049,0.632277,0.149454,0.866026,-0.00750944,0.0830069,0,-0.0031814,0.014547,2.25679,5,0.1,35,0.9,-0.983412,-0.836867,0.560815,0.308223,-0.866026,0.0137562,0.220601,0,0.00675023,0.0149128,2.20681,5,0.1,36,0.9,2.07727,-2.992,0.556913,-0.316481,-0.557642,0.0305591,-0.108242,-0.19069,0.0104532,0.00802071,0.477226,5,0.1,37,0.9,-0.199125,2.82064,0.630272,-0.158783,-0.74281,-0.038374,-0.310079,0.73956,0.0109226,0.0074208,1.16878,5,0.1,38,0.9,-3.46022,0.361652,0.562632,0.268101,0.272968,-0.0654706,0.00625849,-0.62017,-0.0659712,0.00908674,0.683216,5,0.1,39,0.9,-1.76917,-0.656037,0.651396,0.658993,-0.239481,-0.00679558,0.225358,-0.0818856,-0.00232831,0.0115299,0.569479,5,0.1
0,1,1.2465,-0.879313,0.501699,-0.0343204,0.64936,-0.00985563,0.000715256,-0.0140667,0.036478,0.0158464,0.324181,5,0.1,1,1,-3.63669,0.49644,0.664385,-0.458723,-0.557754,-0.015223,-0.0370741,-0.892162,-0.079602,0.0118688,2.42783,5,0.1,2,1,1.85868,-3.49274,0.586043,0.280857,-0.51803,0.0814229,-0.00607967,0.0110865,-0.00172853,0.00835371,0.269209,5,0.1,3,1,1.02937,3.09583,0.650006,0.866026,-0.0484109,-0.0252709,0,-0.0103712,-0.00539422,0.0126424,2.26988,5,0.1,4,1,1.98766,-0.864349,0.63109,-0.396326,0.866026,-0.0131398,-0.0869036,0,-0.00286102,0.0186335,2.16708,5,0.1,5,1,3.80688,-2.31779,0.622957,-0.0855923,0.866026,-0.00550449,-0.0185966,0,-0.00119209,0.0137614,2.26684,5,0.1,6,1,-1.45621,3.11767,0.596236,-0.190088,0.343728,0.0557363,0.00411272,-0.00751019,-0.0012517,0.00765038,0.119698,5,0.1,7,1,-0.970824,-3.75668,0.586656,-0.866026,0.0107825,-0.00675917,0,0.00214577,-0.00146031,0.00779293,2.27181,5,0.1,8,1,-1.97804,-3.68534,0.594565,-0.00669658,-0.492281,-0.0664964,0.000119209,0.0107288,0.00146031,0.00708055,0.187747,5,0.1,9,1,2.09261,3.03497,0.664378,0.623757,0.525218,0.0244111,-1.61982,-0.594497,0.277907,0.00896905,2.82176,5,0.1,10,1,-1.35491,-1.77212,0.64022,-0.825793,0.71868,-0.0178188,0.0686049,0.159383,-0.00396371,0.00981537,2.21169,5,0.1,11,1,3.82907,1.73462,0.582402,-0.0245929,-0.866026,0.00464767,-0.00536442,5.96046e-05,0.00101328,0.00847736,2.27149,5,0.1,12,1,2.12858,2.73867,0.504851,-0.623554,-0.290322,-0.0216171,-0.0584126,0.0528097,0.0546277,0.00910654,0.425293,5,0.1,13,1,0.341946,-1.29122,0.599961,-0.474055,-0.486478,2.83122e-05,0.0102371,0.0104308,-2.98023e-05,0.0097551,0.351009,5,0.1,14,1,-2.40802,3.68535,0.50704,0.585395,-0.866026,-0.0239387,0.186682,0,0.0348091,0.0135109,2.04746,5,0.1,15,1,1.56034,0.726566,0.633627,-0.266096,0.460389,-0.0248283,0.00572205,-0.00995398,0.000566244,0.0125701,0.215576,5,0.1,16,1,-0.2,1.6554,0.71309,0.41599,0.266731,0.0272632,-0.236257,-0.520527,-0.000625849,0.0105903,0.733232,5,0.1,17,1,4.0074,-0.726008,0.65904,-0.211799,0.866026,-0.0176743,-0.046134,0,-0.0038445,0.0238818,2.24101,5,0.1,18,1,0.00490907,3.29279,0.5745,-0.260478,-0.730562,-0.0183403,-0.51607,0.998616,-0.0609159,0.0172556,2.79233,5,0.1,19,1,-3.38691,2.6952,0.633467,0.618017,-0.107223,-0.0247136,-0.0134706,0.00238419,0.000536442,0.0175764,0.34372,5,0.1,20,1,1.96348,3.65499,0.633361,0.647715,-0.151408,-0.0246361,0.725687,0.00333786,0.000506639,0.0102209,0.367148,5,0.1,21,1,0.283015,-3.6974,0.581435,-0.866025,-0.0342309,-0.0234827,0,-0.00727177,-0.0050962,0.00854214,2.27074,5,0.1,22,1,-1.92438,3.60722,0.699069,0.756502,0.326985,0.0376165,-0.0163317,-0.00703335,-0.000834465,0.0109788,0.517736,5,0.1,23,1,-2.56827,-1.34801,0.705473,-0.540382,-0.333795,0.0328779,0.0118017,0.00721216,-0.000715256,0.0108443,0.307698,5,0.1,24,1,-3.94736,2.77493,0.503598,0.699538,-0.276899,-0.0169978,-0.0149012,0.00596046,0.0472665,0.0130019,0.433206,5,0.1,25,1,4.06006,-1.63222,0.578765,-0.183511,0.866026,0.00513047,-0.0400543,-5.96046e-05,0.00113249,0.0232532,2.24876,5,0.1,26,1,-2.79076,3.39802,0.503195,0.765562,0.252169,-0.0144228,-0.849009,-0.0026226,0.0372827,0.0241005,2.47835,5,0.1,27,1,-3.13216,-0.61458,0.554742,0.866026,0.398521,0.0169411,0,0.0875294,0.00372529,0.0254023,2.16579,5,0.1,28,1,-1.06589,0.194737,0.590819,0.233471,-0.866025,0.00279844,0.0509024,0,0.000625849,0.0151399,2.2306,5,0.1,29,1,3.69049,-3.16849,0.504074,-0.0488579,0.866026,-0.0101551,-0.0107288,0,0.00375509,0.0242621,2.27025,5,0.1,30,1,0.866759,3.86703,0.646158,-0.536115,-0.775212,-0.0296891,-0.143737,-0.139236,-0.00622869,0.0173071,1.79054,5,0.1,31,1,-0.180119,-0.794035,0.599167,-0.0885278,0.586374,0.000618398,0.00192225,-0.0126362,-5.96046e-05,0.0110787,0.267524,5,0.1,32,1,0.0639885,2.78193,0.601849,-0.117965,0.505006,0.00163764,0.192489,-0.925183,0.0535846,0.0108101,1.40801,5,0.1,33,1,3.48658,-0.3383,0.702164,-0.0152647,0.866025,0.0199854,-0.00321865,1.43051e-05,0.00429153,0.0259247,2.27149,5,0.1,34,1,-0.956118,-2.35389,0.631513,0.155529,0.866026,-0.00772178,0.0320673,0,-0.000834465,0.0173289,2.25529,5,0.1,35,1,-0.951628,-0.923469,0.562218,0.325659,-0.866026,0.0142246,0.112802,0,0.00205636,0.017169,2.19661,5,0.1,36,1,2.04525,-3.04842,0.560005,-0.322032,-0.567406,0.0310957,0.00703335,0.0121593,-0.000685453,0.00841021,0.324525,5,0.1,37,1,-0.216592,2.75149,0.626629,-0.19034,-0.628144,-0.0332996,-0.297695,1.46484,0.082314,0.00693899,0.299015,5,0.1,38,1,-3.43375,0.385059,0.555667,0.25785,0.188944,-0.0744089,-0.200033,-0.995696,-0.100344,0.0124809,0.857832,5,0.1,39,1,-1.70249,-0.680268,0.650709,0.670537,-0.243676,-0.00691414,-0.0144243,0.00527501,0.000149012,0.0109516,0.387268,5,0.1
0,1.1,1.24308,-0.814475,0.500888,-0.0341728,0.646509,-0.00643833,0.00350177,-0.0667013,0.0313632,0.0158464,0.324181,5,0.1,1,1.1,-3.68254,0.435651,0.662397,-0.455939,-0.661385,-0.0250224,0.0988692,-1.09613,-0.109091,0.0118688,2.42783,5,0.1,2,1.1,1.88673,-3.54446,0.594174,0.279625,-0.515767,0.0810683,-0.0288486,0.0531226,-0.0083372,0.00835371,0.269209,5,0.1,3,1.1,1.11597,3.09093,0.647447,0.866026,-0.0496518,-0.0259165,0,-0.011608,-0.00603497,0.0126424,2.26988,5,0.1,4,1.1,1.94751,-0.777746,0.629759,-0.406889,0.866026,-0.0134886,-0.100665,-3.72529e-06,-0.00332668,0.0186335,2.16708,5,0.1,5,1.1,3.79821,-2.23118,0.622399,-0.087858,0.866026,-0.00565015,-0.0216067,0,-0.00138581,0.0137614,2.26684,5,0.1,6,1.1,-1.47519,3.152,0.601801,-0.189254,0.342212,0.0554883,0.0195056,-0.0353754,-0.00574812,0.00765038,0.119698,5,0.1,7,1.1,-1.05743,-3.75559,0.585971,-0.866026,0.0110481,-0.00693584,0,0.0025481,-0.00167266,0.00779293,2.27181,5,0.1,8,1.1,-1.97871,-3.7345,0.587926,-0.00666976,-0.490114,-0.0662028,0.000670552,0.0505894,0.00684336,0.00708055,0.187747,5,0.1,9,1.1,2.14872,3.08429,0.667962,0.514489,0.459256,0.0449582,-0.656813,-0.713289,0.139143,0.00896905,2.82176,5,0.1,10,1.1,-1.43595,-1.69929,0.638414,-0.784633,0.738379,-0.0183083,0.699393,0.190765,-0.00473857,0.00981537,2.21169,5,0.1,11,1.1,3.82658,1.64801,0.582873,-0.0252496,-0.866025,0.00477163,-0.00630319,-1.49012e-05,0.00118092,0.00847736,2.27149,5,0.1,12,1.1,2.06592,2.70994,0.502965,-0.62896,-0.28378,-0.01609,-0.022471,0.085786,0.0547059,0.00910654,0.425293,5,0.1,13,1.1,0.294612,-1.33979,0.599963,-0.471977,-0.484352,2.57976e-05,0.0486653,0.0498891,-1.86265e-05,0.0097551,0.351009,5,0.1,14,1.1,-2.34839,3.59875,0.504839,0.607877,-0.865846,-0.0199216,0.223741,0.00719726,0.0441931,0.0135109,2.04746,5,0.1,15,1.1,1.53377,0.772535,0.631148,-0.264931,0.45837,-0.0247172,0.0273064,-0.0472739,0.00256673,0.0125701,0.215576,5,0.1,16,1.1,-0.159187,1.67958,0.715812,0.403333,0.219106,0.0271404,-0.05122,-0.384964,-0.00283122,0.0105903,0.733232,5,0.1,17,1.1,3.98594,-0.639405,0.657249,-0.217407,0.866026,-0.018142,-0.0533909,-3.72529e-06,-0.00445545,0.0238818,2.24101,5,0.1,18,1.1,-0.0238225,3.22435,0.572383,-0.314202,-0.64147,-0.0237416,-0.520219,0.80061,-0.0455379,0.0172556,2.79233,5,0.1,19,1.1,-3.3252,2.68434,0.631,0.615298,-0.111192,-0.0246049,-0.0635087,-0.0679791,0.00253692,0.0175764,0.34372,5,0.1,20,1.1,2.03132,3.63987,0.630901,0.703242,-0.150738,-0.02453,0.371985,0.0156164,0.00251457,0.0102209,0.367148,5,0.1,21,1.1,0.196412,-3.70087,0.579057,-0.866025,-0.0351112,-0.0240956,-5.96046e-07,-0.00832975,-0.0057742,0.00854214,2.27074,5,0.1,22,1.1,-1.84885,3.63987,0.702825,0.753185,0.325554,0.0374498,-0.0776798,-0.0335574,-0.00388175,0.0109788,0.517736,5,0.1,23,1.1,-2.62222,-1.38134,0.708756,-0.538001,-0.332331,0.0327335,0.0555813,0.0342727,-0.00337884,0.0108443,0.307698,5,0.1,24,1.1,-3.87751,2.74728,0.502133,0.69649,-0.275686,-0.0123247,-0.0716746,0.0284314,0.0453256,0.0130019,0.433206,5,0.1,25,1.1,4.04147,-1.54561,0.579284,-0.188395,0.866025,0.00526803,-0.0466704,1.49012e-05,0.00130758,0.0232532,2.24876,5,0.1,26,1.1,-2.71733,3.42373,0.50194,0.712315,0.266097,-0.0106721,-0.291243,0.239104,0.0369437,0.0241005,2.47835,5,0.1,27,1.1,-3.04556,-0.574206,0.556459,0.866026,0.409183,0.0173948,0,0.101816,0.00433251,0.0254023,2.16579,5,0.1,28,1.1,-1.04216,0.108134,0.591102,0.241916,-0.866025,0.00287257,0.0990555,0,0.000692904,0.0151399,2.2306,5,0.1,29,1.1,3.68554,-3.08189,0.503091,-0.0501662,0.866026,-0.00939881,-0.0124872,0,0.0108369,0.0242621,2.27025,5,0.1,30,1.1,0.812888,3.78821,0.643157,-0.536799,-0.805318,-0.0302749,0.126917,-0.389725,-0.00411272,0.0173071,1.79054,5,0.1,31,1.1,-0.188959,-0.735486,0.599228,-0.0881389,0.583806,0.000611972,0.00909343,-0.0601858,-9.31323e-05,0.0110787,0.267524,5,0.1,32,1.1,0.0536026,2.82831,0.602296,-0.0860467,0.426859,0.00737878,0.415514,-0.660434,0.058528,0.0108101,1.40801,5,0.1,33,1.1,3.48503,-0.251697,0.704188,-0.0156555,0.866025,0.0205019,-0.00368059,0,0.00485778,0.0259247,2.27149,5,0.1,34,1.1,-0.940372,-2.26729,0.630735,0.159492,0.866026,-0.00784611,0.0378937,0,-0.00120327,0.0173289,2.25529,5,0.1,35,1.1,-0.918423,-1.01007,0.563653,0.338621,-0.866026,0.0144936,0.125315,0,0.0025183,0.017169,2.19661,5,0.1,36,1.1,2.0131,-3.10508,0.56311,-0.320613,-0.564927,0.0309582,0.0331253,0.0582039,-0.00320002,0.00841021,0.324525,5,0.1,37,1.1,-0.237297,2.69592,0.623789,-0.224836,-0.484651,-0.0228819,-0.363758,1.39084,0.119891,0.00693899,0.299015,5,0.1,38,1.1,-3.4089,0.400429,0.547953,0.239509,0.131257,-0.0777893,-0.17491,-0.227017,0.0243261,0.0124809,0.857832,5,0.1,39,1.1,-1.63553,-0.704599,0.650018,0.667603,-0.242606,-0.00688378,-0.0687987,0.0250302,0.000707805,0.0109516,0.387268,5,0.1
0,1.2,1.23969,-0.750402,0.500389,-0.0334144,0.632082,-0.00366122,0.0125766,-0.237495,0.0239313,0.0149881,0.216401,5,0.1,1,1.2,-3.72737,0.364264,0.65935,-0.438064,-0.762435,-0.0357702,0.261188,-0.863731,-0.100374,0.0107324,2.25979,5,0.1,2,1.2,1.91444,-3.59558,0.602208,0.273386,-0.504267,0.0792608,-0.102699,0.189424,-0.0297725,0.00863372,0.179008,5,0.1,3,1.2,1.20257,3.08593,0.644835,0.866026,-0.0502527,-0.026229,0,0.00154972,0.000834465,0.0131182,2.26987,5,0.1,4,1.2,1.90646,-0.691144,0.628398,-0.412443,0.866026,-0.0136718,0.00613928,0,0.000208616,0.0159035,2.16484,5,0.1,5,1.2,3.78935,-2.14458,0.621829,-0.0890493,0.866026,-0.00572652,0.00154972,0,8.9407e-05,0.0143633,2.26674,5,0.1,6,1.2,-1.49395,3.18591,0.6073,-0.185034,0.334567,0.0542492,0.069499,-0.125766,-0.0204146,0.00822361,0.135066,5,0.1,7,1.2,-1.14403,-3.75448,0.585272,-0.866026,0.0111759,-0.0070259,0,-0.000238419,0.000149012,0.00738677,2.2728,5,0.1,8,1.2,-1.97937,-3.78307,0.581365,-0.00652075,-0.479174,-0.0647247,0.00238419,0.180006,0.0243485,0.00753557,0.124845,5,0.1,9,1.2,2.19786,3.12654,0.672967,0.47608,0.384694,0.0533983,-0.183225,-0.767946,0.0351965,0.00825262,2.70637,5,0.1,10,1.2,-1.51025,-1.62474,0.636566,-0.69572,0.749394,-0.0185817,1.03593,-0.00101328,2.98023e-05,0.0102255,2.43284,5,0.1,11,1.2,3.82403,1.56141,0.583354,-0.0256062,-0.866026,0.00483841,0.000476837,0,-8.9407e-05,0.00880472,2.27148,5,0.1,12,1.2,2.00315,2.68209,0.501622,-0.623491,-0.271904,-0.0108823,0.150025,0.156641,0.0486672,0.0091256,0.288827,5,0.1,13,1.2,0.247836,-1.38779,0.599966,-0.461447,-0.47355,2.5332e-05,0.173345,0.17786,-5.96046e-05,0.00916718,0.233402,5,0.1,14,1.2,-2.28668,3.51226,0.503074,0.623471,-0.863153,-0.0153407,0.0607967,0.0575781,0.046432,0.01163,2.03439,5,0.1,15,1.2,1.50751,0.817962,0.628699,-0.259021,0.448142,-0.0241652,0.0972748,-0.168324,0.00908971,0.012728,0.143347,5,0.1,16,1.2,-0.119036,1.7,0.718502,0.399777,0.193694,0.026533,-0.0452775,-0.130653,-0.00998378,0.0129039,0.590776,5,0.1,17,1.2,3.96401,-0.552803,0.655419,-0.220335,0.866026,-0.0183865,0.00369549,0,0.000327826,0.0218804,2.2404,5,0.1,18,1.2,-0.0575968,3.164,0.569817,-0.35814,-0.567293,-0.0272021,-0.33294,0.696898,-0.0227392,0.00658613,0.810556,5,0.1,19,1.2,-3.26422,2.67285,0.628561,0.601566,-0.118411,-0.0240564,-0.226021,-0.0661612,0.00905991,0.0172992,0.367991,5,0.1,20,1.2,2.10284,3.62493,0.62847,0.720274,-0.147372,-0.0239834,-0.0368357,0.0555515,0.0090003,0.0144069,0.20464,5,0.1,21,1.2,0.10981,-3.70441,0.576627,-0.866026,-0.0355542,-0.0244036,3.57628e-06,0.000953674,0.000566244,0.00864361,2.27072,5,0.1,22,1.2,-1.7742,3.67213,0.706537,0.73638,0.318289,0.0366122,-0.276685,-0.119567,-0.0137389,0.0096832,0.344262,5,0.1,23,1.2,-2.67554,-1.41427,0.712,-0.525993,-0.324914,0.0320032,0.197768,0.122011,-0.0120103,0.0113656,0.204605,5,0.1,24,1.2,-3.80849,2.71996,0.501118,0.680965,-0.269532,-0.00807941,-0.255704,0.101209,0.0389516,0.00975759,0.288902,5,0.1,25,1.2,4.02246,-1.45901,0.579816,-0.190973,0.866026,0.00533909,0.0026226,0,-5.96046e-05,0.0245537,2.24824,5,0.1,26,1.2,-2.64714,3.45165,0.501052,0.694078,0.292617,-0.00716746,-0.130534,0.259638,0.0325739,0.0221753,1.98297,5,0.1,27,1.2,-2.95895,-0.532915,0.558214,0.866026,0.414833,0.0176355,0,-0.00537932,-0.000238419,0.0277035,2.17531,5,0.1,28,1.2,-1.01752,0.0215317,0.591392,0.250027,-0.866025,0.0029102,0.0495613,1.19209e-06,-0.000119209,0.0153597,2.22655,5,0.1,29,1.2,3.68048,-2.99528,0.502213,-0.0508606,0.866026,-0.00808835,0.000715256,0,0.014931,0.022818,2.27026,5,0.1,30,1.2,0.760265,3.70581,0.640122,-0.511563,-0.840521,-0.0302836,0.372618,-0.261188,0.00488758,0.0149912,1.33226,5,0.1,31,1.2,-0.197694,-0.677627,0.599289,-0.0861719,0.57078,0.000596046,0.0323728,-0.214368,-0.000238419,0.00976613,0.177888,5,0.1,32,1.2,0.0472373,2.86798,0.603316,-0.0402439,0.368893,0.0128776,0.477083,-0.516653,0.0494719,0.0131359,1.23894,5,0.1,33,1.2,3.48345,-0.165094,0.706255,-0.0158489,0.866025,0.0207588,0.000357628,0,-0.000536442,0.0267253,2.27148,5,0.1,34,1.2,-0.924286,-2.18069,0.629947,0.161535,0.866026,-0.00788718,-0.00345707,0,0.000685453,0.0198995,2.43721,5,0.1,35,1.2,-0.884056,-1.09667,0.565111,0.347137,-0.866026,0.0145912,0.0302494,0,-0.00116229,0.0157301,2.26886,5,0.1,36,1.2,1.98132,-3.16106,0.566178,-0.313452,-0.552326,0.0302672,0.117719,0.207543,-0.0113845,0.00822069,0.215788,5,0.1,37,1.2,-0.261516,2.65418,0.62212,-0.25819,-0.352436,-0.0104114,-0.282779,1.24288,0.124842,0.00981689,0.845566,5,0.1,38,1.2,-3.38584,0.41322,0.540444,0.221491,0.131143,-0.0710949,-0.191092,0.169739,0.10249,0.0103188,0.677326,5,0.1,39,1.2,-1.56937,-0.728642,0.649336,0.652713,-0.237194,-0.00672936,-0.245154,0.0891387,0.0025034,0.0123872,0.257512,5,0.1
0,1.3,1.23641,-0.688356,0.500129,-0.0321722,0.608605,-0.00169305,0.0133142,-0.251684,0.0155531,0.0149881,0.216401,5,0.1,1,1.3,-3.76986,0.284274,0.655243,-0.411152,-0.831211,-0.0464791,0.285372,-0.49618,-0.107571,0.0107324,2.25979,5,0.1,2,1.3,1.94127,-3.64508,0.609989,0.263233,-0.485542,0.0763174,-0.108838,0.200748,-0.0315607,0.00863372,0.179008,5,0.1,3,1.3,1.28917,3.0809,0.642209,0.866026,-0.050405,-0.0263061,0,-0.00186265,-0.000938773,0.0131182,2.26987,5,0.1,4,1.3,1.86513,-0.604541,0.627028,-0.414662,0.866026,-0.0137451,-0.0270084,-3.72529e-06,-0.000890344,0.0159035,2.16484,5,0.1,5,1.3,3.78043,-2.05798,0.621255,-0.0895277,0.866026,-0.00575809,-0.00602007,0,-0.000391155,0.0143633,2.26674,5,0.1,6,1.3,-1.51222,3.21895,0.612657,-0.181258,0.327726,0.0531394,0.018768,-0.0340641,-0.00552088,0.00822361,0.135066,5,0.1,7,1.3,-1.23063,-3.7533,0.58457,-0.866026,0.0130214,-0.0070041,0,0.0325143,0.000558794,0.00738677,2.2728,5,0.1,8,1.3,-1.98001,-3.83011,0.575011,-0.00628382,-0.46138,-0.0623183,0.0025481,0.19078,0.0257865,0.00753557,0.124845,5,0.1,9,1.3,2.24587,3.1618,0.678323,0.494936,0.326093,0.0522991,0.46353,-0.436008,-0.0503026,0.00825262,2.70637,5,0.1,10,1.3,-1.57406,-1.54958,0.634702,-0.576974,0.754913,-0.0187182,1.25488,0.0672862,-0.0016652,0.0102255,2.43284,5,0.1,11,1.3,3.82146,1.47481,0.583839,-0.0257481,-0.866026,0.00486523,-0.00183284,0,0.000350177,0.00880472,2.27148,5,0.1,12,1.3,1.94152,2.65568,0.500761,-0.608815,-0.25632,-0.00652084,0.165723,0.161633,0.0382252,0.0091256,0.288827,5,0.1,13,1.3,0.202539,-1.43428,0.599968,-0.444311,-0.455967,2.05822e-05,0.183714,0.188507,-4.09782e-05,0.00916718,0.233402,5,0.1,14,1.3,-2.22384,3.426,0.501768,0.634328,-0.863607,-0.0108239,0.117451,-0.0314415,0.0430979,0.01163,2.03439,5,0.1,15,1.3,1.48208,0.861953,0.626327,-0.249404,0.431502,-0.023267,0.103109,-0.178404,0.00962242,0.012728,0.143347,5,0.1,16,1.3,-0.0790897,1.71926,0.721107,0.400412,0.195884,0.0255464,0.0310858,0.136584,-0.0105724,0.0129039,0.590776,5,0.1,17,1.3,3.94193,-0.4662,0.653577,-0.221497,0.866026,-0.0184823,-0.0143498,-3.57628e-06,-0.00119209,0.0218804,2.2404,5,0.1,18,1.3,-0.0944489,3.11213,0.566954,-0.373016,-0.458459,-0.0302661,0.0203171,1.39372,-0.0348687,0.00658613,0.810556,5,0.1,19,1.3,-3.20501,2.66062,0.6262,0.58367,-0.126621,-0.0231612,-0.160486,-0.0873953,0.0095889,0.0172992,0.367991,5,0.1,20,1.3,2.17443,3.61047,0.626115,0.708684,-0.141884,-0.0230935,-0.206634,0.0588,0.00954792,0.0144069,0.20464,5,0.1,21,1.3,0.023207,-3.70797,0.574183,-0.866025,-0.0356931,-0.0245059,0,-0.00174344,-0.00124425,0.00864361,2.27072,5,0.1,22,1.3,-1.70192,3.70337,0.710131,0.709028,0.306468,0.0352536,-0.293225,-0.126719,-0.0145696,0.0096832,0.344262,5,0.1,23,1.3,-2.72717,-1.44617,0.715141,-0.506446,-0.312851,0.0308157,0.20951,0.129342,-0.0127293,0.0113656,0.204605,5,0.1,24,1.3,-3.74164,2.6935,0.500491,0.655686,-0.259525,-0.004627,-0.271022,0.107288,0.0298023,0.00975759,0.288902,5,0.1,25,1.3,4.00332,-1.37241,0.580351,-0.192069,0.866026,0.00537075,-0.0135452,0,0.00037998,0.0245537,2.24824,5,0.1,26,1.3,-2.57749,3.48222,0.500487,0.705884,0.318209,-0.00425782,0.286296,0.232294,0.0254065,0.0221753,1.98297,5,0.1,27,1.3,-2.87235,-0.491441,0.559982,0.866026,0.414364,0.0177504,0,-0.0215042,0.00149384,0.0277035,2.17531,5,0.1,28,1.3,-0.992165,-0.0650709,0.591683,0.257582,-0.866025,0.00291876,0.0836253,-4.47035e-07,0.00012666,0.0153597,2.22655,5,0.1,29,1.3,3.67539,-2.90868,0.501482,-0.0511557,0.866026,-0.00649355,-0.00369549,0,0.0165775,0.022818,2.27026,5,0.1,30,1.3,0.711129,3.62065,0.637117,-0.469592,-0.860237,-0.0297923,0.465933,-0.125408,0.00605732,0.0149912,1.33226,5,0.1,31,1.3,-0.206153,-0.621598,0.599347,-0.0829718,0.549587,0.000572857,0.0343071,-0.22722,-0.000242144,0.00976613,0.177888,5,0.1,32,1.3,0.0455503,2.90291,0.604836,0.00530425,0.335417,0.017314,0.406644,-0.18166,0.0372082,0.0131359,1.23894,5,0.1,33,1.3,3.48187,-0.0784919,0.708334,-0.0159148,0.866025,0.0208382,-0.000789762,4.47035e-07,0.000972301,0.0267253,2.27148,5,0.1,34,1.3,-0.908589,-2.09454,0.629224,0.148549,0.852224,-0.00604456,-0.234876,-0.281945,0.032533,0.0198995,2.43721,5,0.1,35,1.3,-0.848702,-1.18316,0.566525,0.36365,-0.861761,0.0133613,0.254393,0.112385,-0.0215396,0.0157301,2.26886,5,0.1,36,1.3,1.95055,-3.21528,0.569149,-0.301814,-0.531811,0.0291422,0.124782,0.219941,-0.0120625,0.00822069,0.215788,5,0.1,37,1.3,-0.288201,2.62372,0.621448,-0.270421,-0.269501,-0.00526253,0.0225119,0.482574,-0.00914186,0.00981689,0.845566,5,0.1,38,1.3,-3.36459,0.427844,0.533939,0.20399,0.166618,-0.0582373,-0.165686,0.487644,0.148565,0.0103188,0.677326,5,0.1,39,1.3,-1.5053,-0.751926,0.648675,0.628477,-0.228383,-0.00648135,-0.259846,0.0944585,0.00266358,0.0123872,0.257512,5,0.1
0,1.4,1.23327,-0.628907,0.500024,-0.0305802,0.578481,-0.00051409,0.0191927,-0.363767,0.00831485,0.0170542,0.143287,5,0.1,1,1.4,-3.80945,0.199342,0.650088,-0.379652,-0.86084,-0.0562131,0.349998,-0.103698,-0.0826418,0.0113287,1.93531,5,0.1,2,1.4,1.96699,-3.69251,0.617443,0.250205,-0.461513,0.0725403,-0.157356,0.290155,-0.0455976,0.00911553,0.117825,5,0.1,3,1.4,1.37578,3.07586,0.639581,0.866026,-0.0501513,-0.0261724,0,0.00882149,0.00461936,0.012502,2.06611,5,0.1,4,1.4,1.82363,-0.517939,0.625652,-0.41385,0.866026,-0.0137195,0.0598431,0,0.00202656,0.0200373,2.16718,5,0.1,5,1.4,3.77146,-1.97138,0.620679,-0.0893772,0.866026,-0.00575036,0.012517,0,0.000834465,0.0143222,2.26683,5,0.1,6,1.4,-1.53025,3.25155,0.617943,-0.179085,0.323784,0.0525013,0.0338554,-0.0612736,-0.00992417,0.00886095,0.079068,5,0.1,7,1.4,-1.31723,-3.75181,0.583875,-0.866026,0.0168622,-0.00686795,0,0.0407696,0.00235438,0.0073961,2.27337,5,0.1,8,1.4,-1.98062,-3.87517,0.568924,-0.00597537,-0.438547,-0.0592321,0.00369549,0.275731,0.0372529,0.0075755,0.13995,5,0.1,9,1.4,2.29809,3.19256,0.683207,0.551748,0.291818,0.0445917,0.599265,-0.27442,-0.0982285,0.00904538,2.70568,5,0.1,10,1.4,-1.62566,-1.47394,0.632826,-0.457805,0.755349,-0.0187278,1.082,-0.089705,0.00220537,0.0104687,2.59754,5,0.1,11,1.4,3.81889,1.38821,0.584326,-0.0257194,-0.866026,0.00485927,0.00333786,0,-0.000655651,0.00952266,2.27148,5,0.1,12,1.4,1.88164,2.63091,0.50028,-0.586641,-0.23849,-0.00327826,0.292599,0.199437,0.0265539,0.00908248,0.193362,5,0.1,13,1.4,0.159139,-1.47882,0.59997,-0.422322,-0.4334,1.78814e-05,0.265568,0.272453,-2.98023e-05,0.00943946,0.2464,5,0.1,14,1.4,-2.15999,3.33955,0.500891,0.640333,-0.864226,-0.00685155,-0.0245571,0.0360012,0.0358224,0.0113589,2.02822,5,0.1,15,1.4,1.45772,0.904102,0.624054,-0.237063,0.410147,-0.0221163,0.149071,-0.257909,0.0139177,0.0121287,0.160689,5,0.1,16,1.4,-0.0389477,1.73971,0.723602,0.40138,0.214338,0.0242814,-0.0309533,0.20355,-0.0152886,0.0135078,0.453577,5,0.1,17,1.4,3.91976,-0.379598,0.651727,-0.221068,0.866025,-0.0184447,0.0318289,1.43051e-05,0.0026226,0.0219141,2.24105,5,0.1,18,1.4,-0.131171,3.07382,0.563758,-0.356996,-0.303936,-0.0335425,0.286006,1.62911,-0.0279546,0.00713778,0.320022,5,0.1,19,1.4,-3.14753,2.64756,0.623937,0.564605,-0.134063,-0.0220135,-0.240803,-0.053525,0.0138283,0.0177329,0.261602,5,0.1,20,1.4,2.2439,3.59661,0.62386,0.677186,-0.13485,-0.0219509,-0.429273,0.084877,0.0137985,0.0105944,0.119216,5,0.1,21,1.4,-0.0633956,-3.71154,0.571732,-0.866025,-0.0355661,-0.02442,0,0.00572205,0.0038743,0.00868985,2.27076,5,0.1,22,1.4,-1.63266,3.73331,0.713574,0.673932,0.2913,0.0335097,-0.423789,-0.183105,-0.0210702,0.00922176,0.226598,5,0.1,23,1.4,-2.77664,-1.47673,0.718151,-0.481373,-0.297368,0.0292912,0.302792,0.18692,-0.018388,0.0112882,0.134678,5,0.1,24,1.4,-3.67759,2.66815,0.50016,0.623244,-0.24668,-0.00215024,-0.391841,0.155091,0.0196695,0.0102219,0.315765,5,0.1,25,1.4,3.98409,-1.28581,0.580889,-0.191814,0.866026,0.00536442,0.0264645,0,-0.00077486,0.0253863,2.24863,5,0.1,26,1.4,-2.50533,3.51502,0.500175,0.737339,0.335729,-0.00211,0.283003,0.104547,0.0175238,0.025317,1.51905,5,0.1,27,1.4,-2.78575,-0.450256,0.56176,0.866026,0.407606,0.0177547,0,-0.125438,-0.00208616,0.0227701,2.18138,5,0.1,28,1.4,-0.966053,-0.151673,0.591975,0.263685,-0.866026,0.00290722,0.0257194,7.15256e-06,-0.000447035,0.0167018,2.22394,5,0.1,29,1.4,3.67026,-2.82208,0.500916,-0.0510991,0.866026,-0.00483841,0.00691414,0,0.0161529,0.0266805,2.27034,5,0.1,30,1.4,0.666646,3.53424,0.634178,-0.418676,-0.865793,-0.0288859,0.55027,0.00452995,0.0127852,0.0106631,2.18656,5,0.1,31,1.4,-0.214257,-0.567914,0.599403,-0.0788655,0.522389,0.000543892,0.0495911,-0.328451,-0.000327826,0.0103923,0.117087,5,0.1,32,1.4,0.0478303,2.93589,0.60672,0.03711,0.327051,0.0200167,0.216959,-0.0122786,0.015825,0.0123549,1.06169,5,0.1,33,1.4,3.48027,0.00811061,0.710417,-0.0158608,0.866025,0.0207573,0.0026226,-1.19209e-06,-0.00342727,0.0253666,2.27262,5,0.1,34,1.4,-0.895144,-2.01123,0.62881,0.118431,0.808978,-0.00202954,-0.350147,-0.583768,0.0449121,0.0150533,2.49761,5,0.1,35,1.4,-0.811003,-1.26841,0.567733,0.390071,-0.839117,0.010626,0.240117,0.357687,-0.0315905,0.012274,2.24254,5,0.1,36,1.4,1.92107,-3.26723,0.571996,-0.286877,-0.505483,0.0276998,0.180364,0.317812,-0.0174344,0.0109716,0.142035,5,0.1,37,1.4,-0.314735,2.59838,0.620741,-0.256647,-0.243944,-0.00995696,0.239044,0.0817776,-0.0745952,0.00916955,0.631707,5,0.1,38,1.4,-3.34502,0.447116,0.528892,0.187206,0.219502,-0.0424743,-0.17488,0.530466,0.161827,0.00976816,0.542714,5,0.1,39,1.4,-1.44391,-0.774234,0.648042,0.597376,-0.217079,-0.00616163,-0.375569,0.136554,0.0038743,0.0124452,0.169499,5,0.1
0,1.5,1.2303,-0.572808,0.500006,-0.0287492,0.543782,6.21192e-05,0.0182986,-0.346642,0.00352785,0.0170542,0.143287,5,0.1,1,1.5,-3.84573,0.112941,0.644047,-0.346281,-0.865701,-0.0645377,0.325799,-0.0129634,-0.0786781,0.0113287,1.93531,5,0.1,2,1.5,1.99125,-3.73726,0.624478,0.235196,-0.433835,0.0681907,-0.149943,0.276506,-0.0434592,0.00911553,0.117825,5,0.1,3,1.5,1.46238,3.07088,0.63698,0.866026,-0.0495587,-0.0258619,0,0.00549853,0.00288337,0.012502,2.06611,5,0.1,4,1.5,1.78241,-0.431336,0.624286,-0.411349,0.866026,-0.0136334,0.0134632,-3.57628e-06,0.000465661,0.0200373,2.16718,5,0.1,5,1.5,3.76256,-1.88477,0.620106,-0.0889145,0.866026,-0.00571813,0.00187755,0,0.000141561,0.0143222,2.26683,5,0.1,6,1.5,-1.54802,3.28368,0.623153,-0.176452,0.319015,0.0517299,0.0270456,-0.0489652,-0.00791252,0.00886095,0.079068,5,0.1,7,1.5,-1.40384,-3.74985,0.583199,-0.866026,0.0227854,-0.00664098,0,0.0715852,0.00241771,0.0073961,2.27337,5,0.1,8,1.5,-1.98121,-3.91793,0.563149,-0.0057105,-0.418773,-0.0565607,0.00196695,0.14694,0.0198483,0.0075755,0.13995,5,0.1,9,1.5,2.35532,3.22069,0.687274,0.58419,0.273321,0.0376083,0.0803918,-0.118718,-0.0464767,0.00904538,2.70568,5,0.1,10,1.5,-1.66637,-1.3986,0.630958,-0.36252,0.752719,-0.0186639,0.727102,-0.00599027,0.00013411,0.0104687,2.59754,5,0.1,11,1.5,3.81632,1.3016,0.58481,-0.0256177,-0.866026,0.00483785,0.000193715,0,-5.21541e-05,0.00952266,2.27148,5,0.1,12,1.5,1.82438,2.60802,0.500065,-0.558745,-0.219459,-0.00121053,0.283696,0.186861,0.0152588,0.00908248,0.193362,5,0.1,13,1.5,0.118184,-1.521,0.599972,-0.39699,-0.411856,1.546e-05,0.253061,0.180639,-1.49012e-05,0.00943946,0.2464,5,0.1,14,1.5,-2.09585,3.25315,0.500369,0.643519,-0.864686,-0.00374615,0.0495017,-0.0171959,0.0261739,0.0113589,2.02822,5,0.1,15,1.5,1.43461,0.944092,0.621897,-0.226371,0.391651,-0.0211186,0.0794679,-0.137459,0.0074096,0.0121287,0.160689,5,0.1,16,1.5,0.00113427,1.76239,0.725957,0.400698,0.240713,0.0228235,-0.00399992,0.294954,-0.0145584,0.0135078,0.453577,5,0.1,17,1.5,3.89774,-0.292995,0.64989,-0.219792,0.866025,-0.0183411,0.00622869,-1.78814e-06,0.000491738,0.0219141,2.24105,5,0.1,18,1.5,-0.165722,3.0514,0.560175,-0.336232,-0.146784,-0.0387883,0.152753,1.48679,-0.0691414,0.00713778,0.320022,5,0.1,19,1.5,-3.09215,2.63386,0.621803,0.543673,-0.139862,-0.0206943,-0.200912,-0.0540763,0.0131838,0.0177329,0.261602,5,0.1,20,1.5,2.30936,3.58368,0.621718,0.630448,-0.12248,-0.0209956,-0.511795,0.156835,0.0067316,0.0105944,0.119216,5,0.1,21,1.5,-0.149998,-3.71508,0.569301,-0.866025,-0.035283,-0.0242297,-8.9407e-07,0.00190735,0.0012815,0.00868985,2.27076,5,0.1,22,1.5,-1.56731,3.76156,0.716824,0.633508,0.273833,0.0314996,-0.403844,-0.174493,-0.0200793,0.00922176,0.226598,5,0.1,23,1.5,-2.82332,-1.50556,0.720992,-0.452493,-0.279536,0.0275368,0.288486,0.178151,-0.0175312,0.0112882,0.134678,5,0.1,24,1.5,-3.617,2.64423,0.500027,0.590312,-0.231885,-0.000660401,-0.294372,0.14782,0.0105686,0.0102219,0.315765,5,0.1,25,1.5,3.96497,-1.1992,0.581423,-0.190864,0.866026,0.00533499,0.00354648,0,-0.000119209,0.0253863,2.24863,5,0.1,26,1.5,-2.42979,3.54911,0.500038,0.775565,0.345417,-0.000752881,0.419199,0.0733882,0.00993907,0.025317,1.51905,5,0.1,27,1.5,-2.69915,-0.410028,0.563531,0.866026,0.397426,0.0177035,0,-0.0965763,2.98023e-05,0.0227701,2.18138,5,0.1,28,1.5,-0.939461,-0.238276,0.592265,0.268649,-0.866025,0.00288757,0.0562854,1.78814e-06,-0.000108033,0.0167018,2.22394,5,0.1,29,1.5,3.66517,-2.73548,0.50051,-0.0508659,0.866026,-0.00330769,0.000715256,0,0.0142604,0.0266805,2.27034,5,0.1,30,1.5,0.626988,3.44766,0.63136,-0.379027,-0.865896,-0.0274049,0.276826,-0.00287592,0.0171885,0.0106631,2.18656,5,0.1,31,1.5,-0.221905,-0.517254,0.599456,-0.0741352,0.491058,0.000512414,0.0472544,-0.313006,-0.000312924,0.0103923,0.117087,5,0.1,32,1.5,0.0518937,2.96923,0.608753,0.0378062,0.345099,0.0202034,-0.164927,0.316992,-0.0103414,0.0123549,1.06169,5,0.1,33,1.5,3.4786,0.0947131,0.712475,-0.0185393,0.866025,0.0203819,-0.0490844,7.45058e-07,-0.0047721,0.0253666,2.27262,5,0.1,34,1.5,-0.885414,-1.93232,0.628839,0.0733212,0.77665,0.00265343,-0.522494,-0.13566,0.0469051,0.0150533,2.49761,5,0.1,35,1.5,-0.77094,-1.35155,0.568674,0.40941,-0.831815,0.00852905,0.132844,-0.124477,-0.0121444,0.012274,2.24254,5,0.1,36,1.5,1.89325,-3.31625,0.574682,-0.269672,-0.475168,0.0260371,0.171885,0.302866,-0.0166036,0.0109716,0.142035,5,0.1,37,1.5,-0.338914,2.5737,0.61942,-0.224426,-0.255181,-0.0160033,0.390004,-0.255704,-0.0466481,0.00916955,0.631707,5,0.1,38,1.5,-3.32712,0.471951,0.525473,0.171237,0.278517,-0.0258401,-0.150174,0.610217,0.166431,0.00976816,0.542714,5,0.1,39,1.5,-1.38598,-0.795285,0.647445,0.56155,-0.204054,-0.0057918,-0.357911,0.130106,0.00369176,0.0124452,0.169499,5,0.1
0,1.6,1.22752,-0.520244,0.500024,-0.0267774,0.506409,0.000248849,0.0217557,-0.411869,0.000536442,0.0148719,0.194172,5,0.1,1,1.6,-3.87871,0.0263448,0.637241,-0.313103,-0.866025,-0.0710741,0.34368,0,-0.048399,0.0116127,1.50296,5,0.1,2,1.6,2.01399,-3.7792,0.63107,0.219029,-0.404024,0.0635043,-0.178099,0.32866,-0.0516176,0.014075,0.132398,5,0.1,3,1.6,1.54898,3.06596,0.634414,0.866026,-0.0486314,-0.0253767,0,0.014782,0.0077188,0.0161819,1.6284,5,0.1,4,1.6,1.74142,-0.344734,0.622927,-0.407186,0.866025,-0.013493,0.0860691,1.43051e-05,0.00283122,0.0200931,2.17174,5,0.1,5,1.6,3.75369,-1.79817,0.619536,-0.0881314,0.866026,-0.00566691,0.0174046,0,0.00113249,0.0144876,2.26701,5,0.1,6,1.6,-1.56549,3.31526,0.628274,-0.17229,0.311482,0.0505105,0.0618696,-0.111938,-0.0181198,0.0106461,0.0597327,5,0.1,7,1.6,-1.49044,-3.74721,0.582549,-0.866026,0.0301063,-0.00634491,0,0.0700951,0.00363588,0.0080975,2.27232,5,0.1,8,1.6,-1.98177,-3.9591,0.557588,-0.00551939,-0.404465,-0.0546277,0.00220537,0.159144,0.0214875,0.00740866,0.0810929,5,0.1,9,1.6,2.41349,3.24753,0.690854,0.573313,0.264013,0.0343978,-0.274062,-0.084877,-0.0216365,0.00738465,0.690359,5,0.1,10,1.6,-1.7,-1.32351,0.629096,-0.320113,0.746807,-0.0185177,0.140309,-0.142634,0.00351667,0.0110236,2.49224,5,0.1,11,1.6,3.81377,1.215,0.585293,-0.0254273,-0.866026,0.00480115,0.00476837,0,-0.000923872,0.00894098,2.2715,5,0.1,12,1.6,1.77003,2.58702,0.500005,-0.526831,-0.200176,-0.00013262,0.366926,0.202775,0.00682473,0.00870024,0.23746,5,0.1,13,1.6,0.0798088,-1.56129,0.599973,-0.369706,-0.393462,1.49012e-05,0.300678,0.203133,-2.98023e-05,0.00879435,0.287302,5,0.1,14,1.6,-2.03139,3.16666,0.500109,0.643617,-0.86391,-0.00161827,-0.0748038,0.0424385,0.0165105,0.0108343,1.56194,5,0.1,15,1.6,1.41235,0.982598,0.619821,-0.218636,0.378264,-0.0203967,0.0860691,-0.148803,0.00798702,0.0120054,0.181484,5,0.1,16,1.6,0.0410858,1.78789,0.728163,0.396963,0.268316,0.0212535,-0.0855696,0.236034,-0.0172853,0.0110815,0.336793,5,0.1,17,1.6,3.87583,-0.206393,0.648061,-0.217682,0.866025,-0.018166,0.0448227,0,0.00369549,0.0180201,2.24264,5,0.1,18,1.6,-0.198643,3.04374,0.555936,-0.322373,-0.011158,-0.0460014,0.141658,1.20664,-0.0692904,0.00807676,0.256513,5,0.1,19,1.6,-3.03887,2.61966,0.619802,0.520509,-0.143462,-0.0192732,-0.277996,-0.0120401,0.0156462,0.019226,0.181755,5,0.1,20,1.6,2.36967,3.5723,0.61965,0.573915,-0.104529,-0.020358,-0.621676,0.197411,0.00706315,0.00905448,1.02554,5,0.1,21,1.6,-0.236601,-3.71859,0.56689,-0.866025,-0.0348568,-0.0239357,-1.43051e-05,0.00822544,0.00554323,0.00989081,2.27083,5,0.1,22,1.6,-1.50607,3.78803,0.719869,0.589967,0.255018,0.0293344,-0.479877,-0.207424,-0.0238419,0.0106355,0.148933,5,0.1,23,1.6,-2.86706,-1.53259,0.723654,-0.421393,-0.260326,0.0256464,0.342727,0.211716,-0.0208616,0.00906579,0.149078,5,0.1,24,1.6,-3.55946,2.62182,0.500002,0.559658,-0.215948,5.21541e-05,-0.338435,0.175714,0.00420213,0.0133711,0.363118,5,0.1,25,1.6,3.94594,-1.1126,0.581955,-0.189227,0.866026,0.00528693,0.0369549,0,-0.00107288,0.0217477,2.24942,5,0.1,26,1.6,-2.35034,3.58386,0.500002,0.810492,0.347763,-5.51343e-05,0.234962,-0.0370741,0.00432134,0.0235454,1.11942,5,0.1,27,1.6,-2.61254,-0.370843,0.565299,0.866026,0.385169,0.0175834,0,-0.161365,-0.00309944,0.0247386,2.21759,5,0.1,28,1.6,-0.91238,-0.324878,0.592552,0.271994,-0.866025,0.00285655,-0.00163913,-1.43051e-05,-0.000596046,0.0122368,2.22288,5,0.1,29,1.6,3.6601,-2.64887,0.500246,-0.0504553,0.866026,-0.0020206,0.00965595,0,0.0114143,0.024583,2.27042,5,0.1,30,1.6,0.590248,3.36106,0.628715,-0.357309,-0.866026,-0.0253946,0.183463,0,0.0232458,0.012396,2.19005,5,0.1,31,1.6,-0.229072,-0.469786,0.599506,-0.0690404,0.457308,0.000478327,0.056155,-0.371903,-0.00038743,0.0119029,0.131565,5,0.1,32,1.6,0.0544788,3.00549,0.610691,0.0109642,0.380588,0.0182703,-0.34163,0.350714,-0.0268519,0.0111019,0.844009,5,0.1,33,1.6,3.47646,0.181316,0.714483,-0.02442,0.866025,0.0196874,-0.0629425,0,-0.00953674,0.0272302,2.27124,5,0.1,34,1.6,-0.880778,-1.85508,0.62933,0.0191435,0.769114,0.00703484,-0.538588,-0.069499,0.0393987,0.0138895,2.43152,5,0.1,35,1.6,-0.729603,-1.43557,0.569487,0.414409,-0.848815,0.00787824,-0.0413358,-0.150502,-0.00232458,0.0120689,2.18703,5,0.1,36,1.6,1.86718,-3.36218,0.577199,-0.251135,-0.442511,0.0242457,0.204206,0.359893,-0.0196993,0.00844817,0.0933524,5,0.1,37,1.6,-0.359263,2.5467,0.61763,-0.181441,-0.28615,-0.0193641,0.457123,-0.324726,-0.0210106,0.0097074,0.502202,5,0.1,38,1.6,-3.31074,0.502718,0.523699,0.156218,0.334717,-0.00995696,-0.154257,0.485092,0.147939,0.0112399,0.411504,5,0.1,39,1.6,-1.3317,-0.81501,0.646885,0.522959,-0.190027,-0.00539273,-0.425279,0.154555,0.00438094,0.0132886,0.111404,5,0.1
0,1.7,1.22495,-0.471408,0.500049,-0.0247382,0.472244,0.000238512,0.0197589,-0.295149,-0.000629574,0.0148719,0.194172,5,0.1,1,1.7,-3.90839,-0.0602547,0.629896,-0.281025,-0.865875,-0.0756926,0.305086,0.00602737,-0.0399016,0.0116127,1.50296,5,0.1,2,1.7,2.03515,-3.81824,0.637205,0.205366,-0.378811,0.059544,-0.108004,0.199303,-0.0313036,0.014075,0.132398,5,0.1,3,1.7,1.63558,3.06116,0.631911,0.865973,-0.0473429,-0.0247037,-0.00210106,0.0129789,0.00678748,0.0161819,1.6284,5,0.1,4,1.7,1.70099,-0.258131,0.621587,-0.402402,0.866025,-0.0133366,0.0325218,0,0.00105426,0.0200931,2.17174,5,0.1,5,1.7,3.74493,-1.71157,0.618973,-0.0872672,0.866026,-0.00561038,0.00497699,0,0.0003241,0.0144876,2.26701,5,0.1,6,1.7,-1.58246,3.34594,0.633249,-0.167395,0.302622,0.0490773,0.044629,-0.0807643,-0.0130646,0.0106461,0.0597327,5,0.1,7,1.7,-1.57704,-3.74393,0.581928,-0.866026,0.034776,-0.0061159,0,0.0249892,0.00139698,0.0080975,2.27232,5,0.1,8,1.7,-1.98231,-3.99885,0.552219,-0.00533294,-0.391055,-0.0528172,0.00175089,0.126779,0.0171065,0.00740866,0.0810929,5,0.1,9,1.7,2.46872,3.27218,0.694335,0.524699,0.217705,0.036468,-0.666291,-0.76513,0.0528023,0.00738465,0.690359,5,0.1,10,1.7,-1.73261,-1.24932,0.627257,-0.342803,0.738406,-0.0183108,-0.503503,-0.0653565,0.0016056,0.0110236,2.49224,5,0.1,11,1.7,3.81124,1.1284,0.58577,-0.0252109,-0.866026,0.0047585,0.00105798,0,-0.000216067,0.00894098,2.2715,5,0.1,12,1.7,1.71894,2.56797,0.500018,-0.496796,-0.181224,0.000300631,0.258975,0.181139,0.00217557,0.00870024,0.23746,5,0.1,13,1.7,0.0442703,-1.59988,0.599974,-0.341519,-0.380306,1.24797e-05,0.273159,0.0859573,-1.49012e-05,0.00879435,0.287302,5,0.1,14,1.7,-1.96727,3.0803,0.500015,0.639267,-0.864307,-0.00039991,-0.0438988,-0.0124574,0.00835955,0.0108343,1.56194,5,0.1,15,1.7,1.39059,1.01977,0.617816,-0.219284,0.365726,-0.0197238,-0.0717938,-0.118528,0.00635907,0.0120054,0.181484,5,0.1,16,1.7,0.0804158,1.81598,0.730206,0.389809,0.293503,0.0196333,-0.0746255,0.245243,-0.0156946,0.0110815,0.336793,5,0.1,17,1.7,3.85426,-0.11979,0.646254,-0.213992,0.866025,-0.0180568,0.0384748,1.49012e-07,-0.000286847,0.0180201,2.24264,5,0.1,18,1.7,-0.230412,3.04785,0.550936,-0.314773,0.0858068,-0.0543313,0.0342933,0.746936,-0.0899583,0.00807676,0.256513,5,0.1,19,1.7,-2.98811,2.60525,0.617949,0.495324,-0.144774,-0.017806,-0.244528,-0.00751019,0.0142232,0.019226,0.181755,5,0.1,20,1.7,2.42376,3.56295,0.617623,0.506319,-0.0815935,-0.0203964,-0.722364,0.252247,-0.00554696,0.00905448,1.02554,5,0.1,21,1.7,-0.323203,-3.72205,0.564515,-0.866025,-0.0343557,-0.0235993,1.78814e-06,0.00371039,0.0025034,0.00989081,2.27083,5,0.1,22,1.7,-1.44936,3.81254,0.722689,0.544982,0.235573,0.0270989,-0.435948,-0.18844,-0.0216663,0.0106355,0.148933,5,0.1,23,1.7,-2.90757,-1.55777,0.726119,-0.389265,-0.244923,0.0236907,0.311345,0.113323,-0.0189506,0.00906579,0.149078,5,0.1,24,1.7,-3.50487,2.60106,0.500022,0.534586,-0.199475,0.000299141,-0.19519,0.159621,0.000983477,0.0133711,0.363118,5,0.1,25,1.7,3.92713,-1.026,0.582481,-0.187418,0.866026,0.00523338,0.0102073,-3.72529e-06,-0.000309199,0.0217477,2.24942,5,0.1,26,1.7,-2.26796,3.61845,0.500013,0.83722,0.343775,0.000215042,0.250638,-0.0555664,0.00130758,0.0235454,1.11942,5,0.1,27,1.7,-2.52594,-0.333467,0.56705,0.866026,0.359298,0.0175116,0,-0.34548,0.000488013,0.0247386,2.21759,5,0.1,28,1.7,-0.885093,-0.411481,0.592836,0.274266,-0.866025,0.0028247,0.0302307,1.78814e-06,-0.000201166,0.0122368,2.22288,5,0.1,29,1.7,3.65508,-2.56227,0.500096,-0.0500012,0.866026,-0.00104979,0.00239909,0,0.00799447,0.024583,2.27042,5,0.1,30,1.7,0.555076,3.27446,0.626288,-0.348906,-0.866026,-0.0231689,0.0158735,0,0.0218153,0.012396,2.19005,5,0.1,31,1.7,-0.235742,-0.425603,0.599552,-0.0647326,0.428777,0.000448804,0.0340492,-0.225529,-0.000227243,0.0119029,0.131565,5,0.1,32,1.7,0.0535732,3.04557,0.612365,-0.0312834,0.422787,0.0150624,-0.474811,0.450075,-0.0360496,0.0111019,0.844009,5,0.1,33,1.7,3.47366,0.267918,0.716408,-0.03202,0.866025,0.0188407,-0.0831038,-8.9407e-07,-0.00816211,0.0272302,2.27124,5,0.1,34,1.7,-0.880969,-1.77759,0.630188,-0.0175472,0.787712,0.00974042,-0.21293,0.355542,0.0156499,0.0138895,2.43152,5,0.1,35,1.7,-0.688371,-1.52114,0.570283,0.409805,-0.861742,0.00822106,-0.065852,-0.0914559,0.00764802,0.0120689,2.18703,5,0.1,36,1.7,1.84304,-3.40472,0.57953,-0.231991,-0.408773,0.0223988,0.185534,0.326961,-0.0179,0.00844817,0.0933524,5,0.1,37,1.7,-0.375121,2.51618,0.615614,-0.135887,-0.325972,-0.0207073,0.44718,-0.432819,-0.0060387,0.0097074,0.502202,5,0.1,38,1.7,-3.296,0.538653,0.523272,0.137733,0.383589,-9.69507e-05,-0.21027,0.461768,0.0558831,0.0112399,0.411504,5,0.1,39,1.7,-1.28142,-0.833277,0.646366,0.483091,-0.175539,-0.00498174,-0.38638,0.140406,0.00398234,0.0132886,0.111404,5,0.1
0,1.8,1.22257,-0.425625,0.500069,-0.0227004,0.443298,0.000143051,0.0214577,-0.300914,-0.00116229,0.0157145,0.141347,5,0.1,1,1.8,-3.93498,-0.146764,0.622168,-0.250858,-0.863614,-0.0783727,0.303268,0.0482202,-0.0109971,0.00820923,1.13537,5,0.1,2,1.8,2.05517,-3.85517,0.643012,0.195211,-0.360066,0.0565991,-0.104666,0.192881,-0.030309,0.0102639,0.0763639,5,0.1,3,1.8,1.72215,3.0565,0.62948,0.865185,-0.0456989,-0.0238448,-0.0168085,0.0213385,0.0111163,0.0158537,1.24751,5,0.1,4,1.8,1.66097,-0.171529,0.620261,-0.39677,0.866025,-0.0131518,0.0963807,0,0.00318885,0.0129603,1.96718,5,0.1,5,1.8,3.73625,-1.62497,0.618414,-0.0862598,0.866026,-0.00554472,0.0185966,0,0.00119209,0.0141497,2.26721,5,0.1,6,1.8,-1.59894,3.37574,0.638083,-0.161913,0.292701,0.0474721,0.0708699,-0.128031,-0.0207424,0.0102393,0.0266242,5,0.1,7,1.8,-1.66365,-3.74039,0.581322,-0.866026,0.035429,-0.00598729,0,-0.0103712,0.00149012,0.00844042,2.27196,5,0.1,8,1.8,-1.98283,-4.03726,0.547032,-0.005126,-0.376117,-0.0507995,0.0025034,0.184298,0.0248253,0.00746078,0.0615196,5,0.1,9,1.8,2.51743,3.28952,0.6983,0.445914,0.124609,0.0431493,-0.882626,-1.03676,0.0730157,0.00677779,0.38473,5,0.1,10,1.8,-1.76986,-1.17594,0.625437,-0.40482,0.726932,-0.0180274,-0.667453,-0.192225,0.00476837,0.00947756,1.94344,5,0.1,11,1.8,3.80873,1.0418,0.586245,-0.0249565,-0.866026,0.00471026,0.00500679,2.98023e-05,-0.000983477,0.00823089,2.50543,5,0.1,12,1.8,1.67055,2.55075,0.500053,-0.470704,-0.163126,0.000365078,0.280976,0.184059,-0.000625849,0.00852685,0.170195,5,0.1,13,1.8,0.0115057,-1.6375,0.599976,-0.313376,-0.371781,1.19209e-05,0.296589,0.103414,0,0.00842527,0.248924,5,0.1,14,1.8,-1.90373,2.99396,0.500006,0.629464,-0.860417,0.000144541,-0.174046,0.112176,0.00292063,0.01064,1.13306,5,0.1,15,1.8,1.36822,1.05569,0.615879,-0.228232,0.351757,-0.0189736,-0.0869036,-0.172257,0.00929832,0.0117714,0.108197,5,0.1,16,1.8,0.118927,1.84642,0.732089,0.379151,0.313547,0.0180155,-0.15027,0.139832,-0.0170767,0.0139768,0.240677,5,0.1,17,1.8,3.8331,-0.0331876,0.644448,-0.208384,0.866025,-0.0180125,0.0803471,-1.19209e-06,0.00205636,0.0216388,2.45603,5,0.1,18,1.8,-0.261734,3.05951,0.545069,-0.311378,0.141031,-0.0627235,0.0510067,0.371218,-0.0725091,0.00739577,0.31236,5,0.1,19,1.8,-2.93987,2.59078,0.616241,0.468421,-0.143844,-0.0163406,-0.306368,0.0306368,0.0154674,0.0192063,0.231194,5,0.1,20,1.8,2.47067,3.55608,0.61555,0.430954,-0.0556946,-0.0210688,-0.777602,0.258923,-0.00616908,0.0076726,0.742217,5,0.1,21,1.8,-0.409806,-3.72546,0.562172,-0.866025,-0.0337839,-0.0232115,-1.43051e-05,0.0089407,0.00619888,0.00897442,2.2709,5,0.1,22,1.8,-1.39707,3.83514,0.725288,0.500068,0.216162,0.0248656,-0.47332,-0.204682,-0.023514,0.00956726,0.193491,5,0.1,23,1.8,-2.94492,-1.58174,0.728392,-0.357193,-0.234708,0.0217378,0.338197,0.103474,-0.0205636,0.011912,0.203383,5,0.1,24,1.8,-3.45236,2.58192,0.500054,0.515062,-0.183034,0.000293553,-0.21863,0.17333,-0.000864267,0.0105561,0.264923,5,0.1,25,1.8,3.90847,-0.939395,0.583001,-0.185311,0.866026,0.00517219,0.0399351,0,-0.00110269,0.0285689,2.25031,5,0.1,26,1.8,-2.18329,3.65243,0.500037,0.852323,0.334513,0.000245869,0.0175238,-0.138283,-0.000476837,0.0233326,0.794351,5,0.1,27,1.8,-2.43934,-0.299495,0.568802,0.866026,0.318087,0.0174806,0,-0.469178,-0.00193715,0.0207155,1.88818,5,0.1,28,1.8,-0.857576,-0.498084,0.593117,0.275166,-0.866025,0.00278652,-0.0241101,-1.43051e-05,-0.000596046,0.0143804,2.24678,5,0.1,29,1.8,3.6501,-2.47567,0.500025,-0.0494719,0.866026,-0.000415742,0.010252,0,0.00479817,0.0230359,2.27049,5,0.1,30,1.8,0.520199,3.18786,0.624081,-0.348695,-0.866026,-0.0209421,0.0115335,0,0.0230968,0.0160559,2.18581,5,0.1,31,1.8,-0.242054,-0.383792,0.599596,-0.0615306,0.407565,0.000427663,0.0329539,-0.218272,-0.000238419,0.0094301,0.134728,5,0.1,32,1.8,0.0480445,3.08997,0.613684,-0.0790005,0.463164,0.0112861,-0.458067,0.326395,-0.0384748,0.0113634,0.648816,5,0.1,33,1.8,3.47005,0.354521,0.718249,-0.0400066,0.866025,0.0179276,-0.0721216,1.43051e-05,-0.0106394,0.0243133,2.27004,5,0.1,34,1.8,-0.883375,-1.69692,0.631208,-0.0268668,0.825232,0.0103533,0.00998378,0.330806,-0.00244379,0.0153171,2.39976,5,0.1,35,1.8,-0.647861,-1.60761,0.57115,0.398724,-0.866026,0.0091359,-0.165761,0,0.00953674,0.0100896,2.18883,5,0.1,36,1.8,1.82079,-3.44394,0.581679,-0.212872,-0.375086,0.0205532,0.201404,0.355005,-0.0194013,0.00991271,0.105688,5,0.1,37,1.8,-0.386537,2.4815,0.613537,-0.0931866,-0.366002,-0.0206202,0.40181,-0.339627,0.00751019,0.0123877,0.241503,5,0.1,38,1.8,-3.28333,0.579077,0.523435,0.11512,0.421894,0.00242293,-0.237584,0.283092,0,0.00863616,0.304999,5,0.1,39,1.8,-1.23508,-0.850117,0.645888,0.443283,-0.161073,-0.00457168,-0.419557,0.152409,0.00435114,0.0114582,0.126521,5,0.1
0,1.9,1.22041,-0.382745,0.500078,-0.0207124,0.414564,3.44589e-05,0.018917,-0.285689,-0.000998378,0.0157145,0.141347,5,0.1,1,1.9,-3.95863,-0.233093,0.614279,-0.222952,-0.864013,-0.0792948,0.261053,-0.0160363,-0.00417605,0.00820923,1.13537,5,0.1,2,1.9,2.07423,-3.89033,0.648537,0.186298,-0.343641,0.0540176,-0.0820011,0.151142,-0.0237525,0.0102639,0.0763639,5,0.1,3,1.9,1.80866,3.05203,0.627147,0.865265,-0.0437405,-0.0228244,-0.00102073,0.019446,0.010144,0.0158537,1.24751,5,0.1,4,1.9,1.62165,-0.084926,0.618958,-0.390319,0.866025,-0.0129384,0.0533834,1.49012e-07,0.00176206,0.0129603,1.96718,5,0.1,5,1.9,3.72768,-1.53836,0.617864,-0.085311,0.866026,-0.00548409,0.00546873,0,0.000346452,0.0141497,2.26721,5,0.1,6,1.9,-1.61478,3.40437,0.642725,-0.154618,0.279518,0.0453362,0.0794008,-0.143513,-0.0232533,0.0102393,0.0266242,5,0.1,7,1.9,-1.75025,-3.73693,0.580727,-0.866026,0.0334192,-0.00593551,0,-0.0288337,-2.98023e-05,0.00844042,2.27196,5,0.1,8,1.9,-1.98334,-4.07408,0.542059,-0.00492148,-0.361098,-0.0487761,0.00183284,0.134557,0.018131,0.00746078,0.0615196,5,0.1,9,1.9,2.55763,3.29651,0.703112,0.358449,0.0135679,0.0541116,-0.858784,-1.13918,0.133824,0.00677779,0.38473,5,0.1,10,1.9,-1.81419,-1.10407,0.623655,-0.485246,0.711115,-0.0176349,-0.872076,-0.156187,0.00387803,0.00947756,1.94344,5,0.1,11,1.9,3.80655,0.955874,0.586643,-0.0161685,-0.845846,0.00268202,0.153214,0.395294,-0.0354573,0.00823089,2.50543,5,0.1,12,1.9,1.62472,2.53531,0.500085,-0.446874,-0.146154,0.000259466,0.215925,0.159502,-0.00138581,0.00852685,0.170195,5,0.1,13,1.9,-0.0184289,-1.67375,0.599977,-0.285898,-0.349405,1.20141e-05,0.26149,0.329725,3.72529e-06,0.00842527,0.248924,5,0.1,14,1.9,-1.84156,2.90826,0.500031,0.614143,-0.854594,0.000298861,-0.15796,0.0489801,0.000368804,0.01064,1.13306,5,0.1,15,1.9,1.34487,1.09003,0.614027,-0.239298,0.335005,-0.0180696,-0.116527,-0.173256,0.00934675,0.0117714,0.108197,5,0.1,16,1.9,0.156145,1.87848,0.73381,0.365372,0.327508,0.0164338,-0.139246,0.121698,-0.0150464,0.0139768,0.240677,5,0.1,17,1.9,3.81227,0.0527782,0.642718,-0.211543,0.847056,-0.0160513,-0.112459,-0.373792,0.0339597,0.0216388,2.45603,5,0.1,18,1.9,-0.292252,3.07482,0.538472,-0.295656,0.159338,-0.0687626,0.251712,0.0189543,-0.0459217,0.00739577,0.31236,5,0.1,19,1.9,-2.89431,2.57654,0.61468,0.44475,-0.140933,-0.0149074,-0.192463,0.033021,0.0136383,0.0192063,0.231194,5,0.1,20,1.9,2.50978,3.55158,0.613432,0.350635,-0.03612,-0.0211119,-0.816137,0.140622,0.00512227,0.0076726,0.742217,5,0.1,21,1.9,-0.496408,-3.72881,0.559873,-0.866025,-0.0332184,-0.0228169,-1.78814e-06,0.00423193,0.00296906,0.00897442,2.2709,5,0.1,22,1.9,-1.34915,3.85579,0.727664,0.460662,0.197199,0.0226866,-0.338279,-0.180438,-0.0207424,0.00956726,0.193491,5,0.1,23,1.9,-2.9792,-1.60463,0.730479,-0.330625,-0.222307,0.0201222,0.213623,0.146814,-0.0129975,0.011912,0.203383,5,0.1,24,1.9,-3.40176,2.56444,0.500078,0.498135,-0.166977,0.000184122,-0.145569,0.152811,-0.00126287,0.0105561,0.264923,5,0.1,25,1.9,3.89006,-0.852793,0.583515,-0.183287,0.866026,0.00511687,0.0114441,-3.72529e-06,-0.000305474,0.0285689,2.25031,5,0.1,26,1.9,-2.0979,3.68522,0.500059,0.855234,0.321112,0.000171177,0.00157952,-0.140339,-0.000953674,0.0233326,0.794351,5,0.1,27,1.9,-2.35274,-0.270211,0.570549,0.866026,0.266133,0.0175045,0,-0.556952,0.00125542,0.0207155,1.88818,5,0.1,28,1.9,-0.82988,-0.584676,0.59338,0.281,-0.865515,0.00235485,0.11161,0.0204054,-0.00730529,0.0143804,2.24678,5,0.1,29,1.9,3.64518,-2.38907,0.500003,-0.0489786,0.866026,-6.82659e-05,0.002563,0,0.00231341,0.0230359,2.27049,5,0.1,30,1.9,0.485144,3.10126,0.622094,-0.354087,-0.866026,-0.0188548,-0.090491,0,0.0192821,0.0160559,2.18581,5,0.1,31,1.9,-0.248037,-0.344389,0.599637,-0.0580254,0.378036,0.000402611,0.0382196,-0.36538,-0.000271946,0.0094301,0.134728,5,0.1,32,1.9,0.0377843,3.13801,0.614618,-0.126349,0.497414,0.00737607,-0.467386,0.324965,-0.038825,0.0113634,0.648816,5,0.1,33,1.9,3.46566,0.441123,0.719995,-0.0477593,0.866025,0.0170343,-0.0777096,-3.57628e-06,-0.00801682,0.0243133,2.27004,5,0.1,34,1.9,-0.885862,-1.61304,0.632228,-0.0215924,0.848834,0.00999309,0.0868179,0.116788,-0.00485778,0.0153171,2.39976,5,0.1,35,1.9,-0.608716,-1.69421,0.572116,0.384752,-0.866026,0.0102115,-0.130959,0,0.0110082,0.0100896,2.18883,5,0.1,36,1.9,1.80035,-3.47994,0.583652,-0.197048,-0.347196,0.0190289,0.127263,0.224307,-0.0122599,0.00991271,0.105688,5,0.1,37,1.9,-0.393912,2.44328,0.611523,-0.055078,-0.397198,-0.0195485,0.355955,-0.264049,0.0138357,0.0123877,0.241503,5,0.1,38,1.9,-3.27286,0.622659,0.523597,0.0954848,0.448906,0.000142958,-0.161484,0.233106,-0.0406392,0.00863616,0.304999,5,0.1,39,1.9,-1.19258,-0.86558,0.645452,0.408731,-0.149121,-0.00417,-0.293352,0.0959039,0.00381097,0.0114582,0.126521,5,0.1
0,2,1.21843,-0.342771,0.500076,-0.0188112,0.384168,-5.51343e-05,0.0194907,-0.33021,-0.000715256,0.0134359,0.239496,5,0.1,1,2,-3.97965,-0.319422,0.606362,-0.197595,-0.860385,-0.0786647,0.250697,0.112816,0.0189841,0.00861886,0.829834,5,0.1,2,2,2.09243,-3.9239,0.653815,0.177383,-0.327206,0.0514328,-0.102043,0.188351,-0.0295937,0.0130956,0.0583704,5,0.1,3,2,1.89507,3.04776,0.62492,0.861415,-0.0415325,-0.0216737,-0.0921488,0.0257492,0.0134706,0.0121584,0.941885,5,0.1,4,2,1.58296,0.00167652,0.617675,-0.382563,0.866025,-0.0126839,0.116229,-1.19209e-06,0.0039041,0.0160672,1.51496,5,0.1,5,2,3.71919,-1.45176,0.617318,-0.0843048,0.866026,-0.00541955,0.0183582,-5.96046e-05,0.00116229,0.0140669,2.2674,5,0.1,6,2,-1.6298,3.43152,0.64713,-0.145325,0.262713,0.0426129,0.109315,-0.19753,-0.0320077,0.0097522,0.00995959,5,0.1,7,2,-1.83685,-3.73375,0.580134,-0.866026,0.02985,-0.00592172,0,-0.0414848,0.000625849,0.00805709,2.27193,5,0.1,8,2,-1.98382,-4.10948,0.537277,-0.00471771,-0.346076,-0.0467524,0.00244379,0.178337,0.0241101,0.00764314,0.0274272,5,0.1,9,2,2.58927,3.29231,0.709209,0.275564,-0.095433,0.0677451,-0.792742,-1.00768,0.12961,0.00711504,0.263622,5,0.1,10,2,-1.86695,-1.03389,0.621914,-0.567299,0.690272,-0.0171185,-0.718474,-0.282735,0.00703335,0.00948357,1.46528,5,0.1,11,2,3.80582,0.873857,0.586705,0.002563,-0.788823,-0.00164807,0.207663,0.734925,-0.0478625,0.00968878,2.73027,5,0.1,12,2,1.58114,2.52148,0.500103,-0.424057,-0.130516,0.000105798,0.25481,0.156164,-0.00157952,0.00939081,0.229612,5,0.1,13,2,-0.0457126,-1.70677,0.599978,-0.259636,-0.308532,1.19209e-05,0.26964,0.475049,0,0.00810941,0.230287,5,0.1,14,2,-1.78108,2.82324,0.50006,0.593564,-0.84303,0.0002563,-0.271261,0.213385,-0.00107288,0.010319,0.974117,5,0.1,15,2,1.32043,1.12259,0.61227,-0.248483,0.315365,-0.0170112,-0.0545979,-0.226438,0.012219,0.0114726,0.0732362,5,0.1,16,2,0.191911,1.9117,0.735378,0.348959,0.33491,0.0149235,-0.198513,0.0143051,-0.015527,0.0122839,0.252305,5,0.1,17,2,3.79044,0.135041,0.641314,-0.225425,0.792645,-0.0117987,-0.14174,-0.706233,0.048548,0.0167849,2.59745,5,0.1,18,2,-0.32031,3.09043,0.531426,-0.263259,0.149232,-0.071533,0.385746,-0.200987,-0.00810623,0.00716769,0.38006,5,0.1,19,2,-2.85078,2.56265,0.613258,0.425559,-0.136334,-0.0135392,-0.209689,0.0625849,0.0140965,0.0210462,0.293852,5,0.1,20,2,2.54079,3.54854,0.611363,0.269985,-0.0261068,-0.0200883,-0.78702,0.0661612,0.01508,0.0114882,0.506586,5,0.1,21,2,-0.583011,-3.7321,0.557609,-0.866026,-0.0326157,-0.0223979,0,0.00917912,0.00631809,0.00935618,2.27097,5,0.1,22,2,-1.30471,3.87461,0.729829,0.428358,0.179082,0.0206023,-0.324965,-0.186086,-0.0213683,0.00957158,0.138586,5,0.1,23,2,-3.01127,-1.62604,0.73243,-0.310916,-0.205028,0.0189245,0.195742,0.199676,-0.0119507,0.00882283,0.169762,5,0.1,24,2,-3.35273,2.5485,0.50009,0.481564,-0.151634,5.36442e-05,-0.204086,0.157595,-0.0012815,0.0121786,0.189115,5,0.1,25,2,3.87182,-0.76619,0.584025,-0.181156,0.866026,0.00505745,0.0391006,0,-0.00104308,0.0229452,2.25117,5,0.1,26,2,-2.01265,3.71655,0.500071,0.846067,0.304675,6.55651e-05,-0.211656,-0.195622,-0.00104308,0.0204386,0.547651,5,0.1,27,2,-2.26613,-0.246438,0.572303,0.866026,0.209033,0.0175327,0,-0.574611,-0.00149012,0.0216069,1.13107,5,0.1,28,2,-0.801195,-0.670962,0.593573,0.292422,-0.857863,0.00145584,0.0953078,0.163257,-0.010103,0.0130344,2.24354,5,0.1,29,2,3.64031,-2.30246,0.500005,-0.0484586,0.866026,7.45058e-05,0.00989437,0,0.000685453,0.0243606,2.27055,5,0.1,30,2,0.449309,3.01465,0.620303,-0.361808,-0.866026,-0.0169769,-0.04296,0,0.0187159,0.0116166,2.17912,5,0.1,31,2,-0.253632,-0.308606,0.599676,-0.0537157,0.335856,0.000372529,0.0485778,-0.471488,-0.000357628,0.0137735,0.252465,5,0.1,32,2,0.0229424,3.18914,0.615167,-0.168788,0.522453,0.00367761,-0.366026,0.152349,-0.0344813,0.0091637,0.474679,5,0.1,33,2,3.46052,0.527726,0.721657,-0.0546575,0.866026,0.0161886,-0.0565052,0,-0.00947714,0.0274699,2.26911,5,0.1,34,2,-0.88752,-1.52809,0.633198,-0.0110582,0.844687,0.00936836,0.117034,-0.214398,-0.0077188,0.019427,2.67476,5,0.1,35,2,-0.570954,-1.78082,0.573188,0.369599,-0.866026,0.0111729,-0.184089,0,0.00751019,0.00880897,2.19901,5,0.1,36,2,1.78124,-3.51361,0.585497,-0.185305,-0.326496,0.0178978,0.116646,0.205398,-0.0112653,0.00827019,0.0609264,5,0.1,37,2,-0.397745,2.4025,0.609647,-0.0227302,-0.415444,-0.0178754,0.28801,-0.087738,0.0194907,0.0100961,0.166184,5,0.1,38,2,-3.26404,0.668472,0.523375,0.0816882,0.46449,-0.00482053,-0.119448,0.0623465,-0.0547469,0.0119454,0.212981,5,0.1,39,2,-1.15311,-0.880044,0.645054,0.380832,-0.140284,-0.00378788,-0.28044,0.087738,0.00393391,0.0102576,0.0758982,5,0.1
0,2.1,1.21663,-0.306341,0.500068,-0.0172691,0.341624,-0.000113714,0.012435,-0.499237,-0.000458211,0.0134359,0.239496,5,0.1,1,2.1,-3.99824,-0.405108,0.598588,-0.174773,-0.854322,-0.0767514,0.210986,0.0527352,0.0219569,0.00861886,0.829834,5,0.1,2,2.1,2.10973,-3.95581,0.65883,0.169028,-0.311781,0.0490087,-0.0738204,0.136241,-0.0214167,0.0130956,0.0583704,5,0.1,3,2.1,1.98068,3.04361,0.622785,0.849425,-0.0426944,-0.0212902,-0.174902,-0.0397712,-0.00317395,0.0121584,0.941885,5,0.1,4,2.1,1.5452,0.088275,0.616423,-0.372849,0.865824,-0.012358,0.0946969,-0.00805244,0.00317022,0.0160672,1.51496,5,0.1,5,2.1,3.71081,-1.36516,0.616779,-0.0833858,0.866025,-0.005362,0.00505149,1.49012e-05,0.000312924,0.0140669,2.2674,5,0.1,6,2.1,-1.64377,3.45678,0.651228,-0.133977,0.242204,0.039289,0.119485,-0.215992,-0.0350103,0.0097522,0.00995959,5,0.1,7,2.1,-1.92345,-3.73098,0.579542,-0.866026,0.0254858,-0.00593411,0,-0.045225,-0.000473112,0.00805709,2.27193,5,0.1,8,2.1,-1.98428,-4.1432,0.532721,-0.0044737,-0.328267,-0.0443447,0.002563,0.187337,0.0253245,0.00764314,0.0274272,5,0.1,9,2.1,2.61314,3.27785,0.716728,0.204448,-0.19175,0.0832657,-0.633806,-0.891805,0.16797,0.00711504,0.263622,5,0.1,10,2.1,-1.92741,-0.966166,0.620235,-0.641898,0.664707,-0.0164825,-0.720292,-0.254624,0.00632927,0.00948357,1.46528,5,0.1,11,2.1,3.80795,0.798309,0.586248,0.0467297,-0.724768,-0.00789575,0.616863,0.576764,-0.0722259,0.00968878,2.73027,5,0.1,12,2.1,1.53974,2.50916,0.500107,-0.406075,-0.116264,-3.11062e-05,0.13119,0.132397,-0.00115484,0.00939081,0.229612,5,0.1,13,2.1,-0.0704078,-1.73506,0.599979,-0.23488,-0.255954,1.19209e-05,0.232665,0.562698,0,0.00810941,0.230287,5,0.1,14,2.1,-1.72284,2.74046,0.50008,0.572957,-0.808145,0.000138301,-0.171684,0.482336,-0.00124052,0.010319,0.974117,5,0.1,15,2.1,1.29565,1.15301,0.61063,-0.244058,0.292906,-0.0157995,0.133537,-0.229262,0.012368,0.0114726,0.0732362,5,0.1,16,2.1,0.226028,1.94526,0.736798,0.334966,0.336164,0.0134984,-0.102689,-0.00343472,-0.0133887,0.0122839,0.252305,5,0.1,17,2.1,3.76643,0.211261,0.64041,-0.260838,0.735581,-0.00603348,-0.505239,-0.475893,0.0636652,0.0167849,2.59745,5,0.1,18,2.1,-0.344532,3.10398,0.524345,-0.219748,0.118655,-0.0690459,0.472145,-0.386938,0.0538938,0.00716769,0.38006,5,0.1,19,2.1,-2.80896,2.54932,0.61197,0.41312,-0.130402,-0.0122455,-0.0692606,0.0605285,0.0121556,0.0210462,0.293852,5,0.1,20,2.1,2.56397,3.54614,0.609437,0.195047,-0.0227135,-0.0183805,-0.704691,0.00785291,0.0189878,0.0114882,0.506586,5,0.1,21,2.1,-0.669613,-3.73533,0.555393,-0.866026,-0.0320233,-0.0219894,3.72529e-06,0.00447035,0.00308827,0.00935618,2.27097,5,0.1,22,2.1,-1.26331,3.89164,0.731789,0.400936,0.161998,0.01864,-0.242375,-0.160545,-0.0184439,0.00957158,0.138586,5,0.1,23,2.1,-3.04149,-1.64538,0.73427,-0.294282,-0.180411,0.0179091,0.150442,0.284791,-0.00918284,0.00882283,0.169762,5,0.1,24,2.1,-3.30547,2.53408,0.500089,0.46426,-0.137167,-5.41098e-05,-0.162646,0.135958,-0.000875443,0.0121786,0.189115,5,0.1,25,2.1,3.85382,-0.679588,0.584527,-0.179226,0.866026,0.00500763,0.0102967,-3.72529e-06,-0.000257045,0.0229452,2.25117,5,0.1,26,2.1,-1.92903,3.74608,0.500072,0.826192,0.286149,-2.48663e-05,-0.217609,-0.183761,-0.000763685,0.0204386,0.547651,5,0.1,27,2.1,-2.17954,-0.228353,0.574053,0.865633,0.153383,0.017486,-0.0157207,-0.531913,-0.000365078,0.0216069,1.13107,5,0.1,28,2.1,-0.771212,-0.756526,0.593663,0.309088,-0.857642,0.000333786,0.206754,-0.0929572,-0.0118315,0.0130344,2.24354,5,0.1,29,2.1,3.63549,-2.21586,0.500014,-0.0480037,0.866026,0.000103842,0.00213087,0,-4.09782e-05,0.0243606,2.27055,5,0.1,30,2.1,0.412734,2.92805,0.61869,-0.370809,-0.866026,-0.0153525,-0.109958,0,0.0144318,0.0116166,2.17912,5,0.1,31,2.1,-0.258785,-0.277559,0.599712,-0.049525,0.283568,0.000341982,0.037441,-0.56207,-0.000268221,0.0137735,0.252465,5,0.1,32,2.1,0.00425488,3.24217,0.615366,-0.204321,0.537558,0.000362936,-0.32808,0.123069,-0.0311546,0.0091637,0.474679,5,0.1,33,2.1,3.45476,0.614328,0.723235,-0.0605937,0.866026,0.0154293,-0.0574738,-3.72529e-06,-0.00650063,0.0274699,2.26911,5,0.1,34,2.1,-0.888,-1.44544,0.634113,0.00171997,0.80134,0.00906326,0.132836,-0.632614,0.000432134,0.019427,2.67476,5,0.1,35,2.1,-0.534781,-1.86742,0.574346,0.354735,-0.866026,0.0120082,-0.13075,0,0.00829622,0.00880897,2.19901,5,0.1,36,2.1,1.76323,-3.54535,0.587237,-0.175389,-0.309037,0.0169402,0.0896975,0.157923,-0.00866503,0.00827019,0.0609264,5,0.1,37,2.1,-0.398653,2.36056,0.607959,0.00375709,-0.422401,-0.0158655,0.238558,-0.0350773,0.0207052,0.0100961,0.166184,5,0.1,38,2.1,-3.25638,0.715215,0.52259,0.0721894,0.469695,-0.0110879,-0.0755489,0.0224113,-0.0668727,0.0119454,0.212981,5,0.1,39,2.1,-1.11629,-0.893608,0.644692,0.356539,-0.13072,-0.00346079,-0.220954,0.104956,0.00278652,0.0102576,0.0758982,5,0.1
0,2.2,1.21496,-0.27481,0.500055,-0.016135,0.288045,-0.000146031,0.0109673,-0.556529,-0.000178814,0.0149165,0.215917,5,0.1,1,2.2,-4.01469,-0.490079,0.591046,-0.154495,-0.842322,-0.0738278,0.198364,0.218167,0.0382662,0.007951,0.58687,5,0.1,2,2.2,2.12625,-3.98628,0.66362,0.161135,-0.297225,0.0467196,-0.0901222,0.166416,-0.0261366,0.00944164,0.0261368,5,0.1,3,2.2,2.06444,3.03909,0.620631,0.82196,-0.0478566,-0.0218511,-0.392079,-0.0565052,-0.00599027,0.0126117,0.766094,5,0.1,4,2.2,1.50847,0.174753,0.615206,-0.360808,0.862804,-0.0119567,0.157654,-0.0644183,0.00524521,0.0137928,1.13386,5,0.1,5,2.2,3.70251,-1.27856,0.616245,-0.0824451,0.866026,-0.00530183,0.0175238,-5.96046e-05,0.00107288,0.0146214,2.26758,5,0.1,6,2.2,-1.65654,3.47987,0.654973,-0.121146,0.219011,0.0355288,0.138164,-0.249743,-0.0405014,0.00871485,0.551355,5,0.1,7,2.2,-2.01006,-3.72866,0.578947,-0.866026,0.0209093,-0.00595003,0,-0.0460148,0.000476837,0.00801662,2.27194,5,0.1,8,2.2,-1.98471,-4.17501,0.528424,-0.00418425,-0.307059,-0.0414774,0.00339746,0.243187,0.0328124,0.00730468,0.0103451,5,0.1,9,2.2,2.63065,3.25459,0.725871,0.147992,-0.269288,0.0991181,-0.49901,-0.640631,0.139743,0.00687716,0.197922,5,0.1,10,2.2,-1.99484,-0.901096,0.618621,-0.702307,0.634961,-0.0157446,-0.450671,-0.358164,0.00891089,0.00882291,1.0577,5,0.1,11,2.2,3.81598,0.728659,0.58509,0.115532,-0.668219,-0.0152424,0.713825,0.576168,-0.0710189,0.00853999,2.66766,5,0.1,12,2.2,1.49976,2.49818,0.500099,-0.393265,-0.103438,-0.00012666,0.144184,0.1266,-0.000745058,0.0091662,0.16962,5,0.1,13,2.2,-0.0927458,-1.7578,0.59998,-0.211882,-0.198475,1.3411e-05,0.23232,0.576019,-2.98023e-05,0.00842351,0.210261,5,0.1,14,2.2,-1.66644,2.66248,0.500087,0.553954,-0.747228,1.63913e-05,-0.230312,0.73123,-0.00113249,0.0104512,0.814349,5,0.1,15,2.2,1.27215,1.18111,0.609114,-0.223601,0.26845,-0.0144809,0.26685,-0.264049,0.0142455,0.0111084,0.192098,5,0.1,16,2.2,0.259026,1.97874,0.738081,0.324735,0.331849,0.0121757,-0.117436,-0.0924468,-0.0133514,0.0115938,0.17985,5,0.1,17,2.2,3.73763,0.282545,0.640129,-0.315708,0.690401,0.000391901,-0.545859,-0.457495,0.0624657,0.0154047,2.54264,5,0.1,18,2.2,-0.364088,3.11377,0.517785,-0.17105,0.0760615,-0.0614941,0.491932,-0.44632,0.0936687,0.0162911,1.90433,5,0.1,19,2.2,-2.76796,2.53661,0.610805,0.406486,-0.123477,-0.0110447,-0.0854731,0.0807047,0.0121295,0.0167022,0.218215,5,0.1,20,2.2,2.58014,3.54386,0.607699,0.130212,-0.0234485,-0.0163093,-0.587583,-0.017643,0.0222623,0.0102096,0.315465,5,0.1,21,2.2,-0.756216,-3.7385,0.553212,-0.866026,-0.0314176,-0.0215679,0,0.00905991,0.00619888,0.0115293,2.00054,5,0.1,22,2.2,-1.22442,3.90705,0.733561,0.376642,0.146133,0.0168145,-0.256956,-0.160336,-0.018388,0.010177,0.76132,5,0.1,23,2.2,-3.07015,-1.66191,0.736014,-0.278533,-0.149524,0.0169486,0.174165,0.326216,-0.0106096,0.00904291,0.149386,5,0.1,24,2.2,-3.25993,2.52104,0.50008,0.445539,-0.123733,-0.00012368,-0.226498,0.135779,-0.000506639,0.0126182,0.132486,5,0.1,25,2.2,3.83598,-0.592985,0.585026,-0.177246,0.866026,0.00495464,0.0367165,0,-0.00101328,0.0227524,2.25197,5,0.1,26,2.2,-1.84772,3.77374,0.500067,0.797224,0.266439,-8.64267e-05,-0.383139,-0.216365,-0.000506639,0.0195244,0.370677,5,0.1,27,2.2,-2.09318,-0.215559,0.575795,0.859743,0.103746,0.0173032,-0.125885,-0.456363,-0.00393391,0.0205971,0.11554,5,0.1,28,2.2,-0.739296,-0.84274,0.593638,0.328363,-0.865299,-0.000821054,0.155926,-0.0145435,-0.010848,0.00816034,0.702083,5,0.1,29,2.2,3.63071,-2.12926,0.500024,-0.0475347,0.866026,7.7486e-05,0.00941753,0,-0.00038743,0.0238516,2.27061,5,0.1,30,2.2,0.375175,2.84145,0.617224,-0.379148,-0.866026,-0.0139743,-0.0374466,0,0.0135601,0.0116807,1.99364,5,0.1,31,2.2,-0.263554,-0.252078,0.599745,-0.0458486,0.225662,0.000315905,0.0376552,-0.586033,-0.000268221,0.0111527,0.250922,5,0.1,32,2.2,-0.0176438,3.29631,0.615256,-0.23162,0.542587,-0.0024423,-0.206597,-0.0404119,-0.0244677,0.0114354,0.332667,5,0.1,33,2.2,3.44844,0.700931,0.724745,-0.0653386,0.866026,0.0147492,-0.0342131,0,-0.00759959,0.0252624,2.26853,5,0.1,34,2.2,-0.887176,-1.36902,0.635027,0.0145182,0.722036,0.00924617,0.118881,-0.93478,0.00235438,0.0152706,3.02457,5,0.1,35,2.2,-0.499991,-1.95402,0.575584,0.340452,-0.866026,0.0126779,-0.167295,5.96046e-05,0.00450015,0.00914289,2.20797,5,0.1,36,2.2,1.74615,-3.57545,0.588887,-0.165999,-0.292504,0.0160322,0.103891,0.182986,-0.0100136,0.0117181,0.0469979,5,0.1,37,2.2,-0.397187,2.31834,0.606478,0.0244707,-0.419754,-0.0137404,0.173748,0.0984669,0.0217557,0.00941272,0.11078,5,0.1,38,2.2,-3.2495,0.762102,0.521152,0.0656903,0.465755,-0.0175461,-0.0581741,-0.113994,-0.059545,0.00904286,0.144733,5,0.1,39,2.2,-1.08175,-0.906118,0.64436,0.333989,-0.119087,-0.00319928,-0.241101,0.128329,0.0026226,0.0140428,0.0784556,5,0.1
0,2.3,1.2134,-0.248907,0.50004,-0.0152085,0.229678,-0.000147242,0.00827014,-0.578435,0.000122935,0.0149165,0.215917,5,0.1,1,2.3,-4.02922,-0.573358,0.583847,-0.136593,-0.823701,-0.0701536,0.164151,0.18988,0.0374429,0.007951,0.58687,5,0.1,2,2.3,2.14192,-4.01519,0.668164,0.152297,-0.280909,0.0441564,-0.0911951,0.168264,-0.0264496,0.00944164,0.0261368,5,0.1,3,2.3,2.14428,3.03387,0.618308,0.771133,-0.0578009,-0.0254748,-0.620708,-0.129014,-0.0586435,0.0126117,0.766094,5,0.1,4,2.3,1.47311,0.260979,0.614034,-0.346565,0.863189,-0.0114836,0.140741,0.0249521,0.00467151,0.0137928,1.13386,5,0.1,5,2.3,3.69432,-1.19195,0.615718,-0.0815976,0.866025,-0.00525163,0.00433624,1.49012e-05,0.000249594,0.0146214,2.26758,5,0.1,6,2.3,-1.66739,3.4996,0.658665,-0.0908572,0.167812,0.0411437,0.431418,-0.716761,0.13097,0.00871485,0.551355,5,0.1,7,2.3,-2.09666,-3.7268,0.578352,-0.866026,0.0164427,-0.00596531,0,-0.0430346,-0.000409782,0.00801662,2.27194,5,0.1,8,2.3,-1.98511,-4.20449,0.524443,-0.00383798,-0.282145,-0.0381148,0.00358373,0.259191,0.0349917,0.00730468,0.0103451,5,0.1,9,2.3,2.64322,3.22462,0.736531,0.105923,-0.32789,0.114297,-0.349998,-0.511318,0.152372,0.00687716,0.197922,5,0.1,10,2.3,-2.06733,-0.839281,0.617089,-0.746305,0.601905,-0.0149224,-0.387497,-0.324354,0.00806898,0.00882291,1.0577,5,0.1,11,2.3,3.83078,0.663451,0.583264,0.176832,-0.646496,-0.0207255,0.496611,-0.0584908,-0.038594,0.00853999,2.66766,5,0.1,12,2.3,1.461,2.48843,0.500083,-0.382877,-0.0919767,-0.000177044,0.0844821,0.10556,-0.000286847,0.0091662,0.16962,5,0.1,13,2.3,-0.112945,-1.77482,0.599982,-0.193514,-0.142699,1.15484e-05,0.14742,0.531398,-1.49012e-05,0.00842351,0.210261,5,0.1,14,2.3,-1.61204,2.59207,0.500084,0.534861,-0.655358,-7.59028e-05,-0.176258,1.06427,-0.000726432,0.0104512,0.814349,5,0.1,15,2.3,1.25132,1.20665,0.607736,-0.191439,0.242566,-0.0130847,0.365049,-0.257678,0.0138953,0.0111084,0.192098,5,0.1,16,2.3,0.291032,2.01148,0.739236,0.316158,0.322864,0.0109591,-0.0710655,-0.0988692,-0.0113323,0.0115938,0.17985,5,0.1,17,2.3,3.70395,0.350298,0.640389,-0.352029,0.672683,0.00399854,-0.190243,0.0264457,0.0135079,0.0154047,2.54264,5,0.1,18,2.3,-0.378773,3.11783,0.51215,-0.123195,-0.00562258,-0.0508181,0.459507,-1.09385,0.116389,0.0162911,1.90433,5,0.1,19,2.3,-2.72758,2.52464,0.609758,0.402164,-0.1159,-0.00993954,-0.0247657,0.0745356,0.0102855,0.0167022,0.218215,5,0.1,20,2.3,2.59045,3.54137,0.60618,0.0782751,-0.0266109,-0.0140908,-0.449598,-0.0409335,0.0220947,0.0102096,0.315465,5,0.1,21,2.3,-0.842818,-3.74161,0.55108,-0.866026,-0.0307534,-0.021113,3.72529e-06,0.00579655,0.00398234,0.0115293,2.00054,5,0.1,22,2.3,-1.18774,3.92091,0.735157,0.359258,0.131521,0.0151375,-0.116818,-0.136063,-0.0156239,0.010177,0.76132,5,0.1,23,2.3,-3.09718,-1.6752,0.737658,-0.262204,-0.116172,0.0159541,0.161052,0.334509,-0.00980496,0.00904291,0.149386,5,0.1,24,2.3,-3.21641,2.5093,0.500066,0.425268,-0.111359,-0.000155438,-0.195727,0.115231,-0.000145286,0.0126182,0.132486,5,0.1,25,2.3,3.81836,-0.506383,0.585519,-0.175518,0.866026,0.00490723,0.00847876,-3.57628e-06,-0.000227243,0.0227524,2.25197,5,0.1,26,2.3,-1.76982,3.79936,0.500056,0.761086,0.246226,-0.000120606,-0.365764,-0.195324,-0.00018999,0.0195244,0.370677,5,0.1,27,2.3,-2.00839,-0.207375,0.577509,0.830624,0.0609628,0.0169707,-0.452004,-0.395309,-0.00345707,0.0205971,0.11554,5,0.1,28,2.3,-0.705515,-0.927544,0.593378,0.348164,-0.814816,-0.00540381,0.211585,0.945345,-0.0725947,0.00816034,0.702083,5,0.1,29,2.3,3.62598,-2.04266,0.50003,-0.0471219,0.866026,3.6601e-05,0.00172853,0,-0.000413507,0.0238516,2.27061,5,0.1,30,2.3,0.336953,2.75511,0.615888,-0.385863,-0.857905,-0.0128215,-0.0730343,0.174835,0.010103,0.0116807,1.99364,5,0.1,31,2.3,-0.267962,-0.232421,0.599775,-0.0423986,0.167924,0.00029169,0.0327826,-0.55992,-0.000230968,0.0111527,0.250922,5,0.1,32,2.3,-0.0417987,3.35039,0.614895,-0.250739,0.538517,-0.00471128,-0.162777,-0.0625551,-0.0204109,0.0114354,0.332667,5,0.1,33,2.3,3.44173,0.787533,0.726189,-0.0690464,0.866026,0.0141704,-0.0354499,-3.72529e-06,-0.00476092,0.0252624,2.26853,5,0.1,34,2.3,-0.8848,-1.30177,0.635962,0.035822,0.620725,0.00943067,0.287868,-1.07341,0.00071153,0.0152706,3.02457,5,0.1,35,2.3,-0.466642,-2.04062,0.576878,0.327485,-0.866025,0.0132085,-0.109388,-1.49012e-05,0.00525638,0.00914289,2.20797,5,0.1,36,2.3,1.73,-3.60391,0.590447,-0.15753,-0.277588,0.0152155,0.0738278,0.130013,-0.00711903,0.0117181,0.0469979,5,0.1,37,2.3,-0.393932,2.27686,0.60521,0.0399475,-0.40941,-0.0116357,0.133373,0.121877,0.0203811,0.00941272,0.11078,5,0.1,38,2.3,-3.24318,0.808119,0.519095,0.0612572,0.454283,-0.0235793,-0.0344515,-0.131283,-0.0582896,0.00904286,0.144733,5,0.1,39,2.3,-1.04949,-0.917178,0.644051,0.311529,-0.100338,-0.00297315,-0.219062,0.234935,0.00204146,0.0140428,0.0784556,5,0.1
0,2.4,1.21192,-0.228666,0.500026,-0.0143588,0.17724,-0.00012517,0.00929832,-0.453889,0.000268221,0.0174159,0.186578,5,0.1,1,2.4,-4.04208,-0.654587,0.577032,-0.120902,-0.798337,-0.0659689,0.152588,0.341892,0.0477433,0.00754313,0.40517,5,0.1,2,2.4,2.15667,-4.04238,0.672439,0.142151,-0.262177,0.0412121,-0.114918,0.211716,-0.0332892,0.00855695,0.00996302,5,0.1,3,2.4,2.21794,3.02741,0.615434,0.698763,-0.071311,-0.0321984,-0.820994,-0.13113,-0.0698268,0.0113833,0.69295,5,0.1,4,2.4,1.43922,0.347258,0.612911,-0.330377,0.859901,-0.0109479,0.192285,-0.122519,0.0064075,0.0157343,0.818914,5,0.1,5,2.4,3.68619,-1.10535,0.615195,-0.0807285,0.866026,-0.00519902,0.0164509,0,0.00107288,0.0147903,2.26704,5,0.1,6,2.4,-1.67408,3.51242,0.663569,-0.041312,0.0859082,0.0578523,0.531197,-0.876427,0.186354,0.00832729,0.360132,5,0.1,7,2.4,-2.18326,-3.72536,0.577755,-0.866026,0.012356,-0.00596792,0,-0.0383854,0.000655651,0.00778655,2.04318,5,0.1,8,2.4,-1.98548,-4.23135,0.520813,-0.00345707,-0.254571,-0.0343904,0.00399351,0.294209,0.0397265,0.00729438,0.00522588,5,0.1,9,2.4,2.65226,3.18963,0.748666,0.0765979,-0.368249,0.12763,-0.242949,-0.282645,0.106156,0.00690331,0.163177,5,0.1,10,2.4,-2.14351,-0.780798,0.615639,-0.77278,0.566487,-0.0140429,-0.113964,-0.398606,0.00989437,0.00869427,0.735876,5,0.1,11,2.4,3.85049,0.59803,0.581052,0.212729,-0.665028,-0.0230044,0.21565,-0.246495,-0.00753999,0.00866878,0.943456,5,0.1,12,2.4,1.42318,2.47974,0.500065,-0.372791,-0.0818133,-0.000187755,0.132084,0.0997782,2.98023e-05,0.00986363,0.122347,5,0.1,13,2.4,-0.131616,-1.78656,0.599983,-0.180244,-0.0935316,1.04308e-05,0.127144,0.446618,0,0.00872632,0.198729,5,0.1,14,2.4,-1.55951,2.53213,0.500073,0.514501,-0.541741,-0.00013113,-0.248194,1.17648,-0.00038743,0.0109509,0.700608,5,0.1,15,2.4,1.23408,1.22961,0.606498,-0.15265,0.216261,-0.0116661,0.401497,-0.270963,0.0146031,0.0110764,0.411191,5,0.1,16,2.4,0.322255,2.04318,0.740277,0.307624,0.310141,0.00985116,-0.111625,-0.163436,-0.0110865,0.0117848,0.125472,5,0.1,17,2.4,3.66832,0.417979,0.640802,-0.355738,0.682259,0.00378788,0.106096,0.107453,-0.0145435,0.0167068,2.43691,5,0.1,18,2.4,-0.388888,3.11136,0.507664,-0.0801206,-0.126153,-0.0388339,0.397936,-1.24454,0.12055,0.0164243,0.233495,5,0.1,19,2.4,-2.68755,2.51344,0.608814,0.397462,-0.10795,-0.00893176,-0.0860691,0.087142,0.0100136,0.0167744,0.157342,5,0.1,20,2.4,2.59626,3.5385,0.604881,0.0403762,-0.0308275,-0.0118956,-0.309229,-0.0396967,0.0218153,0.0106027,0.331295,5,0.1,21,2.4,-0.929421,-3.74465,0.548992,-0.866026,-0.0299871,-0.0205889,0,0.0104904,0.00724196,0.0109164,1.57122,5,0.1,22,2.4,-1.15234,3.9334,0.736594,0.34875,0.118208,0.0136077,-0.112534,-0.133157,-0.0152886,0.00941384,0.738735,5,0.1,23,2.4,-3.12255,-1.68518,0.739202,-0.244868,-0.0837326,0.0148997,0.19145,0.309646,-0.0116825,0.00971116,0.332874,5,0.1,24,2.4,-3.17493,2.49873,0.50005,0.403553,-0.100088,-0.000156462,-0.249982,0.112772,5.96046e-05,0.0128194,0.158737,5,0.1,25,2.4,3.80088,-0.41978,0.586007,-0.173736,0.866025,0.00485778,0.0346899,1.43051e-05,-0.000983477,0.02568,2.27419,5,0.1,26,2.4,-1.69569,3.82299,0.500043,0.71969,0.226116,-0.00012815,-0.479817,-0.211716,2.98023e-05,0.0196366,1.40309,5,0.1,27,2.4,-1.92809,-0.203127,0.579184,0.770494,0.0253364,0.0164881,-0.743568,-0.314668,-0.00673532,0.0205258,1.32307,5,0.1,28,2.4,-0.669741,-1.00326,0.592429,0.3658,-0.690621,-0.0138819,0.120819,1.47337,-0.0906587,0.00779463,0.205301,5,0.1,29,2.4,3.62128,-1.95605,0.500031,-0.0467002,0.866026,-2.98023e-06,0.00870228,0,-0.00038743,0.0242113,2.27067,5,0.1,30,2.4,0.298103,2.67056,0.614654,-0.389698,-0.829059,-0.0118509,0.0130832,0.41008,0.00980496,0.0117397,1.70592,5,0.1,31,2.4,-0.272037,-0.218325,0.599803,-0.0390492,0.115175,0.000269711,0.0352263,-0.488907,-0.000268221,0.0138865,0.250034,5,0.1,32,2.4,-0.0675272,3.40375,0.614332,-0.262011,0.526482,-0.00644475,-0.0540167,-0.192642,-0.0138879,0.0113047,0.226126,5,0.1,33,2.4,3.43467,0.874136,0.727582,-0.0716627,0.866026,0.0136644,-0.0138283,0,-0.00590086,0.0256461,2.26827,5,0.1,34,2.4,-0.879634,-1.24516,0.636902,0.0685006,0.510648,0.00929087,0.349194,-1.11336,-0.0039041,0.00817979,0.720527,5,0.1,35,2.4,-0.434461,-2.12723,0.57822,0.315604,-0.866026,0.0135839,-0.140563,0,0.00157952,0.0095843,1.75848,5,0.1,36,2.4,1.71462,-3.63101,0.591932,-0.149816,-0.264001,0.0144705,0.0863075,0.151992,-0.00831485,0.011378,0.0211893,5,0.1,37,2.4,-0.389354,2.23666,0.604147,0.050766,-0.393152,-0.00966042,0.0816137,0.211954,0.0191629,0.00954395,0.160274,5,0.1,38,2.4,-3.23721,0.852757,0.516466,0.0581145,0.436866,-0.0287205,-0.0315905,-0.227571,-0.0425577,0.00863383,0.166321,5,0.1,39,2.4,-1.01947,-0.925942,0.643764,0.288346,-0.0742242,-0.00276715,-0.25177,0.277817,0.00220537,0.0144588,0.0609086,5,0.1
