id,t,px,py,pz,vx,vy,vz,ax,ay,az,planning_time,qp_cost,planning_report,size,id,t,px,py,pz,vx,vy,vz,ax,ay,az,planning_time,qp_cost,planning_report,size,id,t,px,py,pz,vx,vy,vz,ax,ay,az,planning_time,qp_cost,planning_report,size,id,t,px,py,pz,vx,vy,vz,ax,ay,az,planning_time,qp_cost,planning_report,size,id,t,px,py,pz,vx,vy,vz,ax,ay,az,planning_time,qp_cost,planning_report,size,id,t,px,py,pz,vx,vy,vz,ax,ay,az,planning_time,qp_cost,planning_report,size,id,t,px,py,pz,vx,vy,vz,ax,ay,az,planning_time,qp_cost,planning_report,size,id,t,px,py,pz,vx,vy,vz,ax,ay,az,planning_time,qp_cost,planning_report,size,id,t,px,py,pz,vx,vy,vz,ax,ay,az,planning_time,qp_cost,planning_report,size,id,t,px,py,pz,vx,vy,vz,ax,ay,az,planning_time,qp_cost,planning_report,size,id,t,px,py,pz,vx,vy,vz,ax,ay,az,planning_time,qp_cost,planning_report,size,id,t,px,py,pz,vx,vy,vz,ax,ay,az,planning_time,qp_cost,planning_report,size,id,t,px,py,pz,vx,vy,vz,ax,ay,az,planning_time,qp_cost,planning_report,size,id,t,px,py,pz,vx,vy,vz,ax,ay,az,planning_time,qp_cost,planning_report,size,id,t,px,py,pz,vx,vy,vz,ax,ay,az,planning_time,qp_cost,planning_report,size,id,t,px,py,pz,vx,vy,vz,ax,ay,az,planning_time,qp_cost,planning_report,size,id,t,px,py,pz,vx,vy,vz,ax,ay,az,planning_time,qp_cost,planning_report,size,id,t,px,py,pz,vx,vy,vz,ax,ay,az,planning_time,qp_cost,planning_report,size,id,t,px,py,pz,vx,vy,vz,ax,ay,az,planning_time,qp_cost,planning_report,size,id,t,px,py,pz,vx,vy,vz,ax,ay,az,planning_time,qp_cost,planning_report,size,id,t,px,py,pz,vx,vy,vz,ax,ay,az,planning_time,qp_cost,planning_report,size,id,t,px,py,pz,vx,vy,vz,ax,ay,az,planning_time,qp_cost,planning_report,size,id,t,px,py,pz,vx,vy,vz,ax,ay,az,planning_time,qp_cost,planning_report,size,id,t,px,py,pz,vx,vy,vz,ax,ay,az,planning_time,qp_cost,planning_report,size,id,t,px,py,pz,vx,vy,vz,ax,ay,az,planning_time,qp_cost,planning_report,size,id,t,px,py,pz,vx,vy,vz,ax,ay,az,planning_time,qp_cost,planning_report,size,id,t,px,py,pz,vx,vy,vz,ax,ay,az,planning_time,qp_cost,planning_report,size,id,t,px,py,pz,vx,vy,vz,ax,ay,az,planning_time,qp_cost,planning_report,size,id,t,px,py,pz,vx,vy,vz,ax,ay,az,planning_time,qp_cost,planning_report,size,id,t,px,py,pz,vx,vy,vz,ax,ay,az,planning_time,qp_cost,planning_report,size,id,t,px,py,pz,vx,vy,vz,ax,ay,az,planning_time,qp_cost,planning_report,size,id,t,px,py,pz,vx,vy,vz,ax,ay,az,planning_time,qp_cost,planning_report,size,id,t,px,py,pz,vx,vy,vz,ax,ay,az,planning_time,qp_cost,planning_report,size,id,t,px,py,pz,vx,vy,vz,ax,ay,az,planning_time,qp_cost,planning_report,size,id,t,px,py,pz,vx,vy,vz,ax,ay,az,planning_time,qp_cost,planning_report,size,id,t,px,py,pz,vx,vy,vz,ax,ay,az,planning_time,qp_cost,planning_report,size,id,t,px,py,pz,vx,vy,vz,ax,ay,az,planning_time,qp_cost,planning_report,size,id,t,px,py,pz,vx,vy,vz,ax,ay,az,planning_time,qp_cost,planning_report,size,id,t,px,py,pz,vx,vy,vz,ax,ay,az,planning_time,qp_cost,planning_report,size,id,t,px,py,pz,vx,vy,vz,ax,ay,az,planning_time,qp_cost,planning_report,size
0,0,-3.65325,1.16697,0.636009,0,0,0,0,0,0,0.0367289,0.597077,5,0.1,1,0,4.30833,-0.998798,0.573322,0,0,0,0,0,0,0.0212783,3.5122,5,0.1,2,0,-1.40451,-2.02124,0.611556,0,0,0,0,0,0,0.00777823,1.48884,5,0.1,3,0,-2.83881,4.00224,0.649197,0,0,0,0,0,0,0.0104138,1.33836,5,0.1,4,0,-1.65355,4.15758,0.686476,0,0,0,0,0,0,0.0136896,3.51219,5,0.1,5,0,2.19882,-2.1431,0.661151,0,0,0,0,0,0,0.0103863,0.982631,5,0.1,6,0,-2.85465,-0.586362,0.697938,0,0,0,0,0,0,0.00945688,2.87942,5,0.1,7,0,2.35851,-0.861258,0.571839,0,0,0,0,0,0,0.0110371,3.5122,5,0.1,8,0,-4.00767,-2.90082,0.591702,0,0,0,0,0,0,0.00888178,2.00564,5,0.1,9,0,2.06334,3.36061,0.617617,0,0,0,0,0,0,0.020608,3.36874,5,0.1,10,0,-1.10243,-4.38296,0.509294,0,0,0,0,0,0,0.0344129,3.51219,5,0.1,11,0,4.26841,4.01679,0.543449,0,0,0,0,0,0,0.0119544,1.38318,5,0.1,12,0,0.237927,4.34302,0.654822,0,0,0,0,0,0,0.00986546,1.5345,5,0.1,13,0,0.956248,-3.88897,0.610557,0,0,0,0,0,0,0.00898941,1.69038,5,0.1,14,0,-2.22153,3.85084,0.574195,0,0,0,0,0,0,0.0140776,3.5122,5,0.1,15,0,-4.13831,3.23251,0.527031,0,0,0,0,0,0,0.0230891,3.26644,5,0.1,16,0,4.23774,-2.34431,0.662225,0,0,0,0,0,0,0.0128259,3.5122,5,0.1,17,0,3.75832,1.73227,0.589957,0,0,0,0,0,0,0.00963348,3.31529,5,0.1,18,0,1.34869,3.9795,0.688678,0,0,0,0,0,0,0.0156239,3.33885,5,0.1,19,0,1.62451,1.33117,0.595183,0,0,0,0,0,0,0.0188057,1.0919,5,0.1,20,0,4.07776,0.494722,0.562313,0,0,0,0,0,0,0.0136898,3.51219,5,0.1,21,0,-0.360026,-4.38826,0.529281,0,0,0,0,0,0,0.00908395,3.5122,5,0.1,22,0,0.454239,2.82808,0.581876,0,0,0,0,0,0,0.00912559,1.0763,5,0.1,23,0,-2.93411,-3.58494,0.698406,0,0,0,0,0,0,0.0176874,1.61628,5,0.1,24,0,3.56402,-3.13445,0.649945,0,0,0,0,0,0,0.0129391,3.5122,5,0.1,25,0,3.81174,-3.7328,0.659519,0,0,0,0,0,0,0.0158363,3.51256,5,0.1,26,0,4.07047,-0.142792,0.545184,0,0,0,0,0,0,0.00895666,1.35113,5,0.1,27,0,-0.578454,4.38061,0.601703,0,0,0,0,0,0,0.0106446,3.5122,5,0.1,28,0,1.44884,0.323978,0.617054,0,0,0,0,0,0,0.019341,0.978967,5,0.1,29,0,0.35978,3.63349,0.608396,0,0,0,0,0,0,0.0115675,3.5122,5,0.1,30,0,2.20994,2.78091,0.674886,0,0,0,0,0,0,0.0119873,1.23312,5,0.1,31,0,-1.89662,-1.06528,0.627819,0,0,0,0,0,0,0.0128698,2.46556,5,0.1,32,0,1.77961,-1.43237,0.698051,0,0,0,0,0,0,0.01727,3.5122,5,0.1,33,0,-1.44629,-3.72258,0.619303,0,0,0,0,0,0,0.0114893,3.51219,5,0.1,34,0,-1.22326,-2.62714,0.526017,0,0,0,0,0,0,0.00966976,3.5122,5,0.1,35,0,-1.21902,1.09757,0.531801,0,0,0,0,0,0,0.00755403,0.543792,5,0.1,36,0,3.66017,3.87917,0.548926,0,0,0,0,0,0,0.00857955,3.5122,5,0.1,37,0,-3.54487,-2.15176,0.667557,0,0,0,0,0,0,0.00917811,3.5122,5,0.1,38,0,-1.01768,-0.532335,0.611759,0,0,0,0,0,0,0.0143269,3.51219,5,0.1,39,0,1.6472,-0.402113,0.692222,0,0,0,0,0,0,0.02566,1.0603,5,0.1
0,0.1,-3.65241,1.16717,0.635972,0.0238031,0.00542402,-0.00106702,0.423163,0.0964254,-0.0189729,0.0367289,0.597077,5,0.1,1,0.1,4.30782,-0.996774,0.573336,-0.0144914,0.0574682,0.000383426,-0.257671,1.02165,0.00681356,0.0212783,3.5122,5,0.1,2,0.1,-1.40477,-2.02258,0.611544,-0.00727493,-0.0378951,-0.000342354,-0.129335,-0.673681,-0.00608712,0.00777823,1.48884,5,0.1,3,0.1,-2.83833,4.00105,0.649042,0.0135146,-0.0337124,-0.00440683,0.240266,-0.599295,-0.0783429,0.0104138,1.33836,5,0.1,4,0.1,-1.65355,4.1555,0.686519,6.79865e-05,-0.059256,0.00121137,0.00119954,-1.05345,0.0215359,0.0136896,3.51219,5,0.1,5,0.1,2.19778,-2.14275,0.661087,-0.0295985,0.0101682,-0.00181217,-0.526205,0.180766,-0.0322163,0.0103863,0.982631,5,0.1,6,0.1,-2.85292,-0.587118,0.697908,0.0491749,-0.0214683,-0.000864081,0.874236,-0.381656,-0.0153631,0.00945688,2.87942,5,0.1,7,0.1,2.35643,-0.861295,0.571863,-0.0592556,-0.00102874,0.000672694,-1.05344,-0.0182912,0.0119545,0.0110371,3.5122,5,0.1,8,0.1,-4.00614,-2.90123,0.591711,0.0431959,-0.0118293,0.000245962,0.767961,-0.210315,0.00436977,0.00888178,2.00564,5,0.1,9,0.1,2.06165,3.35945,0.617599,-0.04781,-0.0329126,-0.000521913,-0.849947,-0.585094,-0.00928342,0.020608,3.36874,5,0.1,10,0.1,-1.10206,-4.3809,0.509266,0.0106722,0.0582941,-0.000788737,0.189736,1.03632,-0.0140183,0.0344129,3.51219,5,0.1,11,0.1,4.26725,4.01619,0.543508,-0.0331424,-0.0167973,0.00167591,-0.589222,-0.298589,0.0297911,0.0119544,1.38318,5,0.1,12,0.1,0.236583,4.34271,0.654765,-0.0381666,-0.00868291,-0.0016246,-0.678518,-0.154316,-0.0288859,0.00986546,1.5345,5,0.1,13,0.1,0.954936,-3.88836,0.610546,-0.0372279,0.0174534,-0.000312738,-0.661831,0.310287,-0.00555813,0.00898941,1.69038,5,0.1,14,0.1,-2.22055,3.849,0.574217,0.0278473,-0.052315,0.000613462,0.495076,-0.930041,0.0109039,0.0140776,3.5122,5,0.1,15,0.1,-4.13649,3.23164,0.527107,0.0515133,-0.0246715,0.00216234,0.915766,-0.438586,0.038445,0.0230891,3.26644,5,0.1,16,0.1,4.23748,-2.34224,0.662208,-0.00742897,0.0587985,-0.000487082,-0.132054,1.04532,-0.00865757,0.0128259,3.5122,5,0.1,17,0.1,3.75737,1.73406,0.589967,-0.0269171,0.0509035,0.000297558,-0.478521,0.904948,0.00529364,0.00963348,3.31529,5,0.1,18,0.1,1.34775,3.97769,0.688742,-0.0266321,-0.0512518,0.00181738,-0.473455,-0.911146,0.0323057,0.0156239,3.33885,5,0.1,19,0.1,1.62407,1.3301,0.595188,-0.0125797,-0.0305578,0.000142772,-0.223644,-0.543252,0.00253692,0.0188057,1.0919,5,0.1,20,0.1,4.07703,0.49668,0.562343,-0.02058,0.0555741,0.000836048,-0.365853,0.987984,0.0148602,0.0136898,3.51219,5,0.1,21,0.1,-0.359978,-4.38617,0.529338,0.00137356,0.0592299,0.00161836,0.0244211,1.05301,0.0287704,0.00908395,3.5122,5,0.1,22,0.1,0.455394,2.82805,0.581872,0.0327913,-0.00109076,-0.000100769,0.582954,-0.0193715,-0.00178814,0.00912559,1.0763,5,0.1,23,0.1,-2.93277,-3.58448,0.69846,0.0380542,0.0128888,0.00152877,0.676498,0.22912,0.0271834,0.0176874,1.61628,5,0.1,24,0.1,3.56397,-3.13236,0.649926,-0.00122078,0.0592537,-0.000534579,-0.0216812,1.05339,-0.00950694,0.0129391,3.5122,5,0.1,25,0.1,3.81164,-3.73077,0.659499,-0.00287332,0.0576738,-0.0005682,-0.0510663,1.0253,-0.0100993,0.0158363,3.51256,5,0.1,26,0.1,4.07065,-0.141512,0.545259,0.0051856,0.0363318,0.00210665,0.0922084,0.645898,0.0374466,0.00895666,1.35113,5,0.1,27,0.1,-0.576485,4.37992,0.601659,0.0559199,-0.0195965,-0.00127312,0.994127,-0.348389,-0.0226349,0.0106446,3.5122,5,0.1,28,0.1,1.44858,0.325049,0.617036,-0.0073744,0.0304053,-0.000505336,-0.131093,0.540538,-0.0089854,0.019341,0.978967,5,0.1,29,0.1,0.359264,3.63147,0.60839,-0.0146653,-0.0574242,-0.000186451,-0.260718,-1.02089,-0.00331551,0.0115675,3.5122,5,0.1,30,0.1,2.20873,2.78067,0.674808,-0.0343733,-0.00684336,-0.00221906,-0.611097,-0.121653,-0.0394471,0.0119873,1.23312,5,0.1,31,0.1,-1.89808,-1.06433,0.62779,-0.0415878,0.0271235,-0.000824314,-0.739343,0.482187,-0.014659,0.0128698,2.46556,5,0.1,32,0.1,1.77753,-1.43248,0.698078,-0.0591774,-0.00319611,0.000762939,-1.05204,-0.0568107,0.0135675,0.01727,3.5122,5,0.1,33,0.1,-1.44522,-3.72079,0.619285,0.0303505,0.0509046,-0.00051111,0.539564,0.904977,-0.00908971,0.0114893,3.51219,5,0.1,34,0.1,-1.2229,-2.62509,0.526049,0.0101654,0.0581577,0.000928715,0.180729,1.0339,0.0165105,0.00966976,3.5122,5,0.1,35,0.1,-1.21919,1.09676,0.531801,-0.00500754,-0.022777,-2.468e-05,-0.0890195,-0.404932,-0.000435859,0.00755403,0.543792,5,0.1,36,0.1,3.66022,3.87708,0.54894,0.00145994,-0.0592493,0.000380166,0.0259429,-1.05333,0.00675768,0.00857955,3.5122,5,0.1,37,0.1,-3.54459,-2.15383,0.667443,0.0079859,-0.0586383,-0.00324445,0.141963,-1.04246,-0.0576787,0.00917811,3.5122,5,0.1,38,0.1,-1.01831,-0.530344,0.611749,-0.0178145,0.0565268,-0.000267848,-0.316702,1.00492,-0.00476092,0.0143269,3.51219,5,0.1,39,0.1,1.64674,-0.401067,0.692282,-0.0132527,0.0296968,0.00171214,-0.235602,0.527944,0.0304356,0.02566,1.0603,5,0.1
0,0.2,-3.64758,1.16827,0.635755,0.075233,0.0171423,-0.00337362,0.564218,0.128508,-0.0252724,0.0359543,0.489872,5,0.1,1,0.2,4.30488,-0.985101,0.573414,-0.0457883,0.181629,0.00121146,-0.3438,1.36217,0.00908971,0.0218574,2.92579,5,0.1,2,0.2,-1.40625,-2.03027,0.611474,-0.0229895,-0.119764,-0.00108331,-0.172496,-0.898361,-0.00807643,0.00870757,1.22151,5,0.1,3,0.2,-2.83558,3.9942,0.648147,0.0427127,-0.106543,-0.0139281,0.320315,-0.799179,-0.104427,0.00894176,1.09805,5,0.1,4,0.2,-1.65354,4.14346,0.686765,0.000214577,-0.187278,0.00382811,0.00160933,-1.40452,0.0286996,0.0124346,2.9258,5,0.1,5,0.2,2.19177,-2.14068,0.660719,-0.0935495,0.0321329,-0.00572652,-0.701547,0.241041,-0.0429749,0.0100675,0.806203,5,0.1,6,0.2,-2.84293,-0.591479,0.697732,0.155419,-0.0678495,-0.00273138,1.16563,-0.508904,-0.0204444,0.0103092,2.36242,5,0.1,7,0.2,2.34439,-0.861503,0.572,-0.187278,-0.00325143,0.0021264,-1.40464,-0.0243783,0.0159144,0.0112854,2.92578,5,0.1,8,0.2,-3.99737,-2.90364,0.591761,0.136524,-0.03739,0.000777841,1.02389,-0.280261,0.00581145,0.0079209,1.64553,5,0.1,9,0.2,2.05194,3.35276,0.617493,-0.151104,-0.104016,-0.00164956,-1.1332,-0.780225,-0.0123978,0.0222221,2.76388,5,0.1,10,0.2,-1.09989,-4.36906,0.509106,0.0337303,0.184238,-0.00249147,0.253022,1.38187,-0.0187159,0.0378718,2.92578,5,0.1,11,0.2,4.26051,4.01278,0.543848,-0.104749,-0.0530839,0.00529587,-0.785589,-0.398159,0.0397265,0.0121362,1.13483,5,0.1,12,0.2,0.22883,4.34095,0.654435,-0.120626,-0.0274539,-0.00513345,-0.904687,-0.205517,-0.0385344,0.00964785,1.26027,5,0.1,13,0.2,0.947374,-3.88481,0.610482,-0.117658,0.0551641,-0.000989437,-0.882447,0.413656,-0.00739098,0.00930326,1.38687,5,0.1,14,0.2,-2.21489,3.83838,0.574341,0.0880122,-0.165337,0.00193864,0.660181,-1.24013,0.0145435,0.0129146,2.92578,5,0.1,15,0.2,-4.12603,3.22663,0.527547,0.162804,-0.0779748,0.00683367,1.22118,-0.584722,0.0512898,0.017592,2.67994,5,0.1,16,0.2,4.23597,-2.3303,0.662109,-0.0234842,0.185835,-0.00153929,-0.175953,1.39368,-0.0115335,0.0105305,2.9258,5,0.1,17,0.2,3.7519,1.7444,0.590028,-0.0850737,0.160882,0.000940263,-0.638008,1.20658,0.00706315,0.0116911,2.72003,5,0.1,18,0.2,1.34234,3.96728,0.689112,-0.0841707,-0.161982,0.00574291,-0.631273,-1.21498,0.0430942,0.0171035,2.73935,5,0.1,19,0.2,1.62152,1.32389,0.595217,-0.0397593,-0.0965774,0.000451505,-0.298202,-0.724375,0.00336766,0.0186997,0.895845,5,0.1,20,0.2,4.07285,0.507969,0.562513,-0.0650525,0.175641,0.00264198,-0.487566,1.31732,0.0198185,0.0146058,2.9258,5,0.1,21,0.2,-0.359698,-4.37414,0.529667,0.00434145,0.187194,0.00511408,0.032559,1.40405,0.0383854,0.0093415,2.92579,5,0.1,22,0.2,0.462055,2.82783,0.581852,0.103636,-0.00344515,-0.000318885,0.777274,-0.0257492,-0.00238419,0.0134356,0.883049,5,0.1,23,0.2,-2.92504,-3.58187,0.698771,0.12027,0.0407398,0.00483245,0.901937,0.305414,0.0362396,0.0409092,1.32608,5,0.1,24,0.2,3.56372,-3.12033,0.649817,-0.00386238,0.187272,-0.00168979,-0.0288486,1.40452,-0.0126958,0.0181052,2.92579,5,0.1,25,0.2,3.81106,-3.71906,0.659384,-0.00908375,0.182271,-0.00179559,-0.0679493,1.36721,-0.0135005,0.0163462,2.93702,5,0.1,26,0.2,4.07171,-0.134132,0.545686,0.0163913,0.114826,0.00665933,0.122786,0.861198,0.0498891,0.00899818,1.10854,5,0.1,27,0.2,-0.565126,4.37594,0.6014,0.176734,-0.0619411,-0.00402331,1.32555,-0.464439,-0.0301898,0.0110333,2.96757,5,0.1,28,0.2,1.44709,0.331226,0.616934,-0.0233054,0.0960961,-0.0015974,-0.17482,0.72071,-0.0119805,0.0193309,0.803193,5,0.1,29,0.2,0.356285,3.61981,0.608352,-0.0463493,-0.181496,-0.000590086,-0.347644,-1.36101,-0.00441074,0.0151925,2.92581,5,0.1,30,0.2,2.20175,2.77928,0.674357,-0.108641,-0.0216246,-0.00701398,-0.814676,-0.162244,-0.0526011,0.0121492,1.01172,5,0.1,31,0.2,-1.90653,-1.05882,0.627623,-0.13144,0.0857264,-0.00260472,-0.985742,0.642836,-0.0195503,0.0115463,2.02287,5,0.1,32,0.2,1.76551,-1.43313,0.698233,-0.18703,-0.010103,0.00241101,-1.40268,-0.0756979,0.01809,0.0150824,2.9258,5,0.1,33,0.2,-1.43906,-3.71045,0.619181,0.0959218,0.160885,-0.00161529,0.719488,1.20664,-0.0120997,0.0108236,2.92579,5,0.1,34,0.2,-1.22084,-2.61328,0.526238,0.0321269,0.183809,0.00293553,0.240982,1.37842,0.0219941,0.011039,2.93659,5,0.1,35,0.2,-1.22021,1.09214,0.531796,-0.015825,-0.0719875,-7.7486e-05,-0.118673,-0.539899,-0.000596046,0.00806019,0.446154,5,0.1,36,0.2,3.66052,3.86504,0.549017,0.0046134,-0.187254,0.00120103,0.0345707,-1.40452,0.0090003,0.00828589,2.92578,5,0.1,37,0.2,-3.54297,-2.16574,0.666784,0.0252366,-0.185329,-0.0102535,0.189424,-1.38986,-0.07689,0.0102893,2.9258,5,0.1,38,0.2,-1.02193,-0.518862,0.611695,-0.0563025,0.178654,-0.000846386,-0.422299,1.33985,-0.00634789,0.0193576,2.9258,5,0.1,39,0.2,1.64404,-0.395035,0.69263,-0.0418842,0.0938565,0.0054121,-0.314116,0.703916,0.040561,0.0293516,0.869921,5,0.1
0,0.3,-3.63692,1.17069,0.635277,0.139956,0.0318859,-0.00627339,0.69043,0.157282,-0.0309348,0.0359543,0.489872,5,0.1,1,0.3,4.29839,-0.959362,0.573585,-0.0853188,0.338292,0.00225678,-0.422329,1.6741,0.0111684,0.0218574,2.92579,5,0.1,2,0.3,-1.4095,-2.04724,0.611321,-0.0427745,-0.222812,-0.002011,-0.211045,-1.09924,-0.00990555,0.00870757,1.22151,5,0.1,3,0.3,-2.82954,3.97911,0.646174,0.0794567,-0.198215,-0.0259079,0.39199,-0.977904,-0.1278,0.00894176,1.09805,5,0.1,4,0.3,-1.6535,4.11692,0.687307,0.000399724,-0.348812,0.00712918,0.00198185,-1.72615,0.0352822,0.0124346,2.9258,5,0.1,5,0.3,2.17852,-2.13613,0.659908,-0.174026,0.0597816,-0.0106555,-0.858516,0.294939,-0.052575,0.0100675,0.806203,5,0.1,6,0.3,-2.82092,-0.601089,0.697345,0.28913,-0.126226,-0.00507794,1.42635,-0.622723,-0.0250414,0.0103092,2.36242,5,0.1,7,0.3,2.31785,-0.861964,0.572301,-0.348822,-0.00605555,0.00395784,-1.72621,-0.0299625,0.0195839,0.0112854,2.92578,5,0.1,8,0.3,-3.97803,-2.90893,0.591871,0.253977,-0.0695437,0.00144504,1.25292,-0.343055,0.00712276,0.0079209,1.64553,5,0.1,9,0.3,2.03054,3.33803,0.617259,-0.281097,-0.193514,-0.00307094,-1.3867,-0.954702,-0.0151545,0.0222221,2.76388,5,0.1,10,0.3,-1.09511,-4.34295,0.508753,0.0628283,0.343163,-0.0046432,0.310935,1.69823,-0.022985,0.0378718,2.92578,5,0.1,11,0.3,4.24568,4.00526,0.544598,-0.194867,-0.0987563,0.00985293,-0.961304,-0.487193,0.0486113,0.0121362,1.13483,5,0.1,12,0.3,0.211853,4.33706,0.653711,-0.221356,-0.050988,-0.00946112,-1.05287,-0.250727,-0.0455081,0.00964785,1.26027,5,0.1,13,0.3,0.93071,-3.877,0.610342,-0.218884,0.102617,-0.00183797,-1.07983,0.506207,-0.00905618,0.00930326,1.38687,5,0.1,14,0.3,-2.20242,3.81494,0.574616,0.163936,-0.307962,0.0036113,0.811294,-1.52405,0.0178739,0.0129146,2.92578,5,0.1,15,0.3,-4.10297,3.21559,0.528515,0.302882,-0.145051,0.012716,1.49423,-0.715539,0.0627451,0.017592,2.67994,5,0.1,16,0.3,4.23264,-2.30397,0.661891,-0.043726,0.346123,-0.00286605,-0.216305,1.71281,-0.0141785,0.0105305,2.9258,5,0.1,17,0.3,3.73985,1.76719,0.590161,-0.158261,0.299291,0.00175023,-0.780746,1.47647,0.00863895,0.0116911,2.72003,5,0.1,18,0.3,1.33042,3.94434,0.689925,-0.156585,-0.30135,0.0106854,-0.772469,-1.48667,0.0527203,0.0171035,2.73935,5,0.1,19,0.3,1.61588,1.31021,0.595281,-0.0739662,-0.17967,0.00083847,-0.364892,-0.886381,0.00413135,0.0186997,0.895845,5,0.1,20,0.3,4.06363,0.532859,0.562887,-0.121137,0.327145,0.00492111,-0.599355,1.61895,0.0243559,0.0146058,2.9258,5,0.1,21,0.3,-0.359083,-4.34762,0.530392,0.00808612,0.348669,0.00952808,0.0400171,1.72549,0.0471584,0.0093415,2.92579,5,0.1,22,0.3,0.476733,2.82734,0.581807,0.192798,-0.00640191,-0.000592694,0.951134,-0.0315756,-0.00292063,0.0134356,0.883049,5,0.1,23,0.3,-2.908,-3.5761,0.699455,0.223735,0.0757776,0.00898959,1.10371,0.373781,0.0443496,0.0409092,1.32608,5,0.1,24,0.3,3.56318,-3.09379,0.649578,-0.00718273,0.348805,-0.00314927,-0.0355095,1.72611,-0.0155903,0.0181052,2.92579,5,0.1,25,0.3,3.80975,-3.69317,0.659129,-0.0175219,0.340997,-0.00335304,-0.0945777,1.70667,-0.0166781,0.0163462,2.93702,5,0.1,26,0.3,4.07403,-0.117869,0.546629,0.0304803,0.213615,0.0123837,0.150323,1.05383,0.0610761,0.00899818,1.10854,5,0.1,27,0.3,-0.540691,4.36715,0.600811,0.311849,-0.115655,-0.00801655,1.32089,-0.576079,-0.0463687,0.0110333,2.96757,5,0.1,28,0.3,1.44378,0.344836,0.616707,-0.0433583,0.17877,-0.00297157,-0.213906,0.881922,-0.014659,0.0193309,0.803193,5,0.1,29,0.3,0.349717,3.59409,0.608268,-0.0863307,-0.338031,-0.00109794,-0.427231,-1.67277,-0.00542775,0.0151925,2.92581,5,0.1,30,0.3,2.18636,2.77622,0.673364,-0.202097,-0.0402339,-0.0130479,-0.996962,-0.198513,-0.0643693,0.0121492,1.01172,5,0.1,31,0.3,-1.92515,-1.04668,0.627254,-0.244517,0.15947,-0.00484707,-1.20626,0.786684,-0.0239201,0.0115463,2.02287,5,0.1,32,0.3,1.739,-1.43456,0.698574,-0.348352,-0.0188107,0.00449149,-1.72389,-0.0930652,0.0222288,0.0150824,2.9258,5,0.1,33,0.3,-1.42546,-3.68765,0.618952,0.178667,0.299659,-0.00300761,0.884198,1.48295,-0.0148788,0.0108236,2.92579,5,0.1,34,0.3,-1.21607,-2.5874,0.526637,0.0660019,0.337394,0.0049796,0.405677,1.60611,0.0184029,0.011039,2.93659,5,0.1,35,0.3,-1.22245,1.08194,0.531784,-0.0294384,-0.13392,-0.000145659,-0.145227,-0.660658,-0.000722706,0.00806019,0.446154,5,0.1,36,0.3,3.66117,3.83851,0.549187,0.00859126,-0.348784,0.00223638,0.0424981,-1.72608,0.0110678,0.00828589,2.92578,5,0.1,37,0.3,-3.53939,-2.192,0.665331,0.0470176,-0.345178,-0.019097,0.232726,-1.70815,-0.0944994,0.0102893,2.9258,5,0.1,38,0.3,-1.02991,-0.493545,0.611575,-0.10487,0.332751,-0.00157636,-0.518985,1.64668,-0.00780076,0.0193576,2.9258,5,0.1,39,0.3,1.63811,-0.381742,0.693396,-0.0779174,0.174604,0.0100658,-0.38439,0.861373,0.0496469,0.0293516,0.869921,5,0.1
0,0.4,-3.61953,1.17466,0.634498,0.206399,0.0470251,-0.00925213,0.609279,0.1387,-0.0272691,0.045964,0.387591,5,0.1,1,0.4,4.28778,-0.917305,0.573866,-0.126004,0.499588,0.00333339,-0.373363,1.48019,0.00986457,0.0228241,2.51095,5,0.1,2,0.4,-1.41482,-2.07492,0.611071,-0.0630856,-0.328594,-0.00296533,-0.186145,-0.969887,-0.00876188,0.0105796,0.966468,5,0.1,3,0.4,-2.81966,3.95449,0.642956,0.117183,-0.292325,-0.0382081,0.345826,-0.862718,-0.112772,0.00988288,0.868787,5,0.1,4,0.4,-1.65345,4.07356,0.688194,0.000587106,-0.515127,0.0105277,0.00184774,-1.52612,0.0312328,0.0144901,2.51563,5,0.1,5,0.4,2.1569,-2.1287,0.658584,-0.256652,0.0881672,-0.0157148,-0.757337,0.260115,-0.0464022,0.0106359,0.637879,5,0.1,6,0.4,-2.785,-0.61677,0.696715,0.426406,-0.186154,-0.00748783,1.25825,-0.549406,-0.0221133,0.0116746,2.02656,5,0.1,7,0.4,2.27448,-0.862717,0.572793,-0.515139,-0.00894219,0.00584424,-1.52624,-0.0265241,0.0173151,0.0109076,2.51561,5,0.1,8,0.4,-3.94648,-2.91757,0.59205,0.374556,-0.102556,0.00213087,1.10543,-0.302792,0.00628829,0.0101147,1.30197,5,0.1,9,0.4,1.99562,3.31399,0.616877,-0.414553,-0.285387,-0.00452995,-1.22344,-0.842333,-0.0133514,0.0199917,2.18681,5,0.1,10,0.4,-1.0873,-4.30029,0.508176,0.0927866,0.506783,-0.00685751,0.274897,1.50156,-0.0203252,0.035755,2.5126,5,0.1,11,0.4,4.22147,3.99299,0.545822,-0.28739,-0.145644,0.0145316,-0.847816,-0.429749,0.0428855,0.0123239,0.897896,5,0.1,12,0.4,0.184595,4.33073,0.652543,-0.321313,-0.0751019,-0.0137985,-0.904434,-0.220776,-0.0394285,0.0139399,1.16813,5,0.1,13,0.4,0.903519,-3.86425,0.610114,-0.322804,0.151336,-0.00271052,-0.952691,0.446558,-0.00798702,0.00950092,1.09731,5,0.1,14,0.4,-2.18204,3.77666,0.575065,0.242102,-0.454801,0.00533164,0.717282,-1.34742,0.015825,0.0127298,2.51007,5,0.1,15,0.4,-4.06534,3.19757,0.530094,0.446689,-0.213921,0.0187531,1.31798,-0.631094,0.0553727,0.0176977,2.1204,5,0.1,16,0.4,4.22721,-2.26093,0.661535,-0.0645757,0.511158,-0.00423193,-0.191212,1.51432,-0.0125468,0.0107777,2.51406,5,0.1,17,0.4,3.72019,1.80437,0.590378,-0.2334,0.441384,0.00258088,-0.688672,1.3026,0.00762939,0.00898963,2.15212,5,0.1,18,0.4,1.31097,3.9069,0.691252,-0.230929,-0.444424,0.0157595,-0.68146,-1.31154,0.0464916,0.0166632,2.16739,5,0.1,19,0.4,1.6067,1.28789,0.595385,-0.109085,-0.264972,0.00123531,-0.321865,-0.782013,0.00366569,0.0191124,0.708801,5,0.1,20,0.4,4.04857,0.573531,0.563499,-0.178885,0.483127,0.00726879,-0.530005,1.43144,0.0215173,0.0135707,2.51009,5,0.1,21,0.4,-0.358078,-4.30427,0.531576,0.0119418,0.514913,0.0140712,0.0353754,1.52564,0.0416934,0.0088404,2.51552,5,0.1,22,0.4,0.500684,2.82654,0.581733,0.284334,-0.00944138,-0.000873208,0.839144,-0.027895,-0.0025928,0.0100655,0.698678,5,0.1,23,0.4,-2.88021,-3.56668,0.700572,0.329959,0.111753,0.0132576,0.973701,0.329733,0.0391304,0.0170498,1.04922,5,0.1,24,0.4,3.56229,-3.05042,0.649186,-0.0106096,0.515109,-0.00465065,-0.0312328,1.52636,-0.0137985,0.0120267,2.51561,5,0.1,25,0.4,3.80752,-3.65066,0.658711,-0.0269175,0.506091,-0.00496209,-0.0884533,1.52087,-0.014782,0.016458,2.52361,5,0.1,26,0.4,4.07781,-0.0913322,0.548168,0.0449538,0.315034,0.0182629,0.132799,0.929728,0.0538826,0.00864789,0.877089,5,0.1,27,0.4,-0.503287,4.35275,0.599774,0.431353,-0.171292,-0.0127181,1.02951,-0.511885,-0.0451505,0.0101655,2.9217,5,0.1,28,0.4,1.4384,0.367044,0.616338,-0.0639468,0.263645,-0.00438243,-0.188649,0.778064,-0.0129342,0.021485,0.635495,5,0.1,29,0.4,0.338984,3.55206,0.608132,-0.127494,-0.499201,-0.00162125,-0.377744,-1.47903,-0.00479817,0.0121699,2.51091,5,0.1,30,0.4,2.16125,2.77122,0.671743,-0.298047,-0.0593364,-0.0192419,-0.879526,-0.175118,-0.0568032,0.0180636,0.800487,5,0.1,31,0.4,-1.95552,-1.02686,0.626652,-0.360608,0.235179,-0.00714958,-1.06418,0.694096,-0.0210702,0.0127269,1.72026,5,0.1,32,0.4,1.69569,-1.4369,0.699133,-0.514445,-0.0277787,0.00663251,-1.52421,-0.082314,0.0196695,0.0202173,2.59938,5,0.1,33,0.4,-1.40325,-3.6504,0.618578,0.263855,0.442535,-0.00444055,0.781834,1.31118,-0.0131726,0.0127247,2.51007,5,0.1,34,0.4,-1.20737,-2.54585,0.527218,0.107846,0.489926,0.00653565,0.407875,1.38056,0.012368,0.0160766,2.53385,5,0.1,35,0.4,-1.22611,1.0653,0.531766,-0.043416,-0.197503,-0.000214577,-0.12809,-0.582814,-0.000625849,0.0116361,0.353003,5,0.1,36,0.4,3.66224,3.79515,0.549465,0.0126898,-0.515079,0.0033021,0.0375509,-1.52624,0.00980496,0.014762,2.51559,5,0.1,37,0.4,-3.53355,-2.23492,0.662956,0.0694394,-0.509757,-0.0282019,0.205636,-1.51026,-0.0835657,0.0124457,2.53949,5,0.1,38,0.4,-1.04295,-0.452176,0.611379,-0.154871,0.491405,-0.00232905,-0.458896,1.45596,-0.00685453,0.0175918,2.51012,5,0.1,39,0.4,1.62843,-0.360051,0.694647,-0.114909,0.257501,0.0148445,-0.33915,0.759929,0.0438094,0.0275587,0.688291,5,0.1
0,0.5,-3.59579,1.18006,0.633434,0.268213,0.0611,-0.0120199,0.596702,0.135884,-0.0267215,0.045964,0.387591,5,0.1,1,0.5,4.27326,-0.85983,0.57425,-0.164421,0.649178,0.00434881,-0.375211,1.43836,0.00992045,0.0228241,2.51095,5,0.1,2,0.5,-1.42207,-2.11271,0.61073,-0.0819718,-0.426995,-0.00385456,-0.182323,-0.949845,-0.00858307,0.0105796,0.966468,5,0.1,3,0.5,-2.80619,3.92086,0.638561,0.15227,-0.379856,-0.0496497,0.338733,-0.844941,-0.110455,0.00988288,0.868787,5,0.1,4,0.5,-1.65339,4.01443,0.689407,0.000774674,-0.665332,0.013741,0.00181049,-1.41001,0.0313781,0.0144901,2.51563,5,0.1,5,0.5,2.12738,-2.11856,0.656777,-0.333494,0.11456,-0.020422,-0.741795,0.254795,-0.0454336,0.0106359,0.637879,5,0.1,6,0.5,-2.73705,-0.637728,0.695921,0.523027,-0.229015,-0.007811,0.680521,-0.309084,0.0124872,0.0116746,2.02656,5,0.1,7,0.5,2.21536,-0.863748,0.573466,-0.665351,-0.0116711,0.0076266,-1.40999,-0.026647,0.017412,0.0109076,2.51561,5,0.1,8,0.5,-3.9034,-2.92937,0.592295,0.486712,-0.133276,0.0027691,1.08266,-0.296563,0.00616536,0.0101147,1.30197,5,0.1,9,0.5,1.94794,3.28116,0.616356,-0.538684,-0.370847,-0.00588465,-1.19828,-0.824943,-0.0130758,0.0199917,2.18681,5,0.1,10,0.5,-1.07661,-4.24205,0.507385,0.121074,0.656664,-0.00894871,0.276305,1.4253,-0.020422,0.035755,2.5126,5,0.1,11,0.5,4.18841,3.97624,0.547494,-0.373415,-0.189247,0.0188828,-0.830501,-0.420943,0.0419989,0.0123239,0.897896,5,0.1,12,0.5,0.148954,4.32237,0.651038,-0.381967,-0.0898823,-0.0156368,-0.332146,-0.0807643,-0.000160187,0.0139399,1.16813,5,0.1,13,0.5,0.866388,-3.84684,0.609802,-0.419463,0.196645,-0.00352152,-0.933073,0.437409,-0.00783056,0.00950092,1.09731,5,0.1,14,0.5,-2.15414,3.72425,0.575679,0.315913,-0.593457,0.0069594,0.720948,-1.35437,0.0158995,0.0127298,2.51007,5,0.1,15,0.5,-4.01396,3.17296,0.532252,0.580416,-0.277957,0.0243703,1.29095,-0.618204,0.0542179,0.0176977,2.1204,5,0.1,16,0.5,4.21977,-2.20223,0.661047,-0.0842549,0.661202,-0.00552312,-0.192255,1.41722,-0.0126138,0.0107777,2.51406,5,0.1,17,0.5,3.69335,1.85514,0.590675,-0.303276,0.573547,0.00335472,-0.674561,1.2758,0.00746921,0.00898963,2.15212,5,0.1,18,0.5,1.28441,3.85579,0.693065,-0.300071,-0.577492,0.0204767,-0.667453,-1.28455,0.0455342,0.0166632,2.16739,5,0.1,19,0.5,1.59415,1.25741,0.595527,-0.141743,-0.344314,0.001607,-0.315271,-0.765912,0.00358745,0.0191124,0.708801,5,0.1,20,0.5,4.02796,0.629204,0.564336,-0.233429,0.630427,0.00948338,-0.532776,1.43879,0.0216328,0.0135707,2.51009,5,0.1,21,0.5,-0.356702,-4.24517,0.533198,0.0155821,0.665118,0.0183612,0.0355579,1.41042,0.0419021,0.0088404,2.51552,5,0.1,22,0.5,0.53339,2.82546,0.581633,0.369472,-0.0122722,-0.00113603,0.82187,-0.0273436,-0.0025332,0.0100655,0.698678,5,0.1,23,0.5,-2.84226,-3.55383,0.702097,0.428753,0.14521,0.0172275,0.953689,0.323012,0.0383221,0.0170498,1.04922,5,0.1,24,0.5,3.56106,-2.9913,0.64865,-0.013829,0.665331,-0.00606989,-0.0314713,1.41007,-0.0138544,0.0120267,2.51561,5,0.1,25,0.5,3.80437,-3.59242,0.658139,-0.0362065,0.657217,-0.00648443,-0.0923723,1.43135,-0.0148863,0.016458,2.52361,5,0.1,26,0.5,4.08299,-0.0550952,0.550268,0.0584267,0.409364,0.0237306,0.130087,0.910597,0.0527836,0.00864789,0.877089,5,0.1,27,0.5,-0.456066,4.33262,0.598173,0.502897,-0.234521,-0.0201216,0.419788,-0.702232,-0.0945106,0.0101655,2.9217,5,0.1,28,0.5,1.43104,0.39737,0.615834,-0.0830881,0.342587,-0.00569457,-0.184774,0.762055,-0.0126697,0.021485,0.635495,5,0.1,29,0.5,0.324292,3.49463,0.607945,-0.166364,-0.648774,-0.00211531,-0.37968,-1.43905,-0.00482425,0.0121699,2.51091,5,0.1,30,0.5,2.12697,2.76439,0.669529,-0.387287,-0.0771031,-0.025005,-0.861481,-0.171512,-0.0556298,0.0180636,0.800487,5,0.1,31,0.5,-1.99605,-1.00021,0.62577,-0.441504,0.294367,-0.0109632,-0.560924,0.480074,-0.0504255,0.0127269,1.72026,5,0.1,32,0.5,1.63746,-1.4401,0.699897,-0.641808,-0.0362493,0.00865599,-1.01538,-0.0827461,0.0197627,0.0202173,2.59938,5,0.1,33,0.5,-1.37284,-3.5994,0.618066,0.344306,0.57746,-0.00579609,0.78582,1.31792,-0.013236,0.0127247,2.51007,5,0.1,34,0.5,-1.19465,-2.48965,0.527948,0.145324,0.635026,0.00816612,0.331342,1.44033,0.0186898,0.0160766,2.53385,5,0.1,35,0.5,-1.2311,1.04259,0.531742,-0.0564132,-0.256637,-0.000278186,-0.125483,-0.570841,-0.000614673,0.0116361,0.353003,5,0.1,36,0.5,3.6637,3.73603,0.549846,0.0165548,-0.665298,0.00431063,0.0377744,-1.41013,0.00985339,0.014762,2.51559,5,0.1,37,0.5,-3.52532,-2.2932,0.659721,0.0971437,-0.652178,-0.0363958,0.323027,-1.2871,-0.0767894,0.0124457,2.53949,5,0.1,38,0.5,-1.06079,-0.395569,0.611111,-0.202092,0.640668,-0.00303527,-0.461236,1.45328,-0.00690296,0.0175918,2.51012,5,0.1,39,0.5,1.61521,-0.330432,0.696354,-0.149318,0.334604,0.0192897,-0.332169,0.744294,0.0429079,0.0275587,0.688291,5,0.1
0,0.6,-3.56621,1.1868,0.632108,0.320572,0.0730276,-0.0143647,0.429273,0.0977516,-0.0192523,0.0434306,0.288548,5,0.1,1,0.6,4.25507,-0.788279,0.574731,-0.197673,0.774917,0.00522882,-0.27585,1.02627,0.00727177,0.0277764,2.30623,5,0.1,2,0.6,-1.43111,-2.1598,0.610305,-0.0979722,-0.510353,-0.00460893,-0.13113,-0.683188,-0.00616908,0.0121267,0.719497,5,0.1,3,0.6,-2.78939,3.87897,0.633085,0.181991,-0.454003,-0.0593424,0.243783,-0.607848,-0.079453,0.00907351,0.646788,5,0.1,4,0.6,-1.6533,3.94149,0.690927,0.000935793,-0.785929,0.0165224,0.0012517,-0.957966,0.023067,0.0141976,2.34155,5,0.1,5,0.6,2.0906,-2.10593,0.654524,-0.398594,0.136918,-0.0244096,-0.533581,0.183344,-0.0326633,0.0128039,0.474892,5,0.1,6,0.6,-2.68225,-0.661789,0.695238,0.56411,-0.248402,-0.0055626,0.1508,-0.0817776,0.0299215,0.0110424,1.89921,5,0.1,7,0.6,2.14242,-0.865039,0.57431,-0.785935,-0.0140324,0.00916868,-0.958085,-0.0196099,0.0128448,0.0132469,2.33483,5,0.1,8,0.6,-3.84972,-2.94407,0.592601,0.581723,-0.159299,0.00330955,0.778794,-0.213265,0.00444055,0.0120268,1.54561,5,0.1,9,0.6,1.88853,3.24027,0.615708,-0.643837,-0.443238,-0.00703186,-0.862062,-0.593424,-0.00941753,0.0251227,1.62802,5,0.1,10,0.6,-1.06321,-4.16986,0.506396,0.145563,0.78001,-0.0107586,0.203133,0.994921,-0.0150204,0.0435762,2.31907,5,0.1,11,0.6,4.14723,3.95537,0.549576,-0.446296,-0.226188,0.0225678,-0.597477,-0.302792,0.0302494,0.0205443,0.668481,5,0.1,12,0.6,0.109879,4.31317,0.649519,-0.392261,-0.0923872,-0.0143483,0.104557,0.025034,0.0236034,0.0119689,1.00974,5,0.1,13,0.6,0.820128,-3.82516,0.609414,-0.501344,0.235033,-0.00420809,-0.671238,0.314593,-0.00566244,0.0119555,0.816921,5,0.1,14,0.6,-2.1192,3.6586,0.576449,0.379813,-0.713497,0.00836849,0.530124,-0.996113,0.0116825,0.0181674,2.23273,5,0.1,15,0.6,-3.94995,3.14231,0.534939,0.693703,-0.332212,0.0291273,0.92876,-0.444651,0.0389814,0.026512,1.57873,5,0.1,16,0.6,4.21045,-2.12965,0.660436,-0.101292,0.78311,-0.00664145,-0.141621,0.97549,-0.00923872,0.0109202,2.32717,5,0.1,17,0.6,3.6599,1.91839,0.591045,-0.362468,0.685504,0.0040099,-0.48542,0.917792,0.00536442,0.013263,1.77691,5,0.1,18,0.6,1.25132,3.7921,0.695323,-0.358644,-0.690216,0.0244737,-0.480115,-0.92411,0.0327229,0.0211649,1.61358,5,0.1,19,0.6,1.57852,1.21944,0.595704,-0.169408,-0.411525,0.00192225,-0.226855,-0.550926,0.002563,0.025487,0.540036,5,0.1,20,0.6,4.00214,0.698942,0.565385,-0.280648,0.757951,0.0114009,-0.39196,1.05807,0.0159144,0.0187087,2.27581,5,0.1,21,0.6,-0.354978,-4.17224,0.535229,0.0187345,0.785792,0.0220746,0.0261366,0.958681,0.0308156,0.0119937,2.33435,5,0.1,22,0.6,0.574136,2.8241,0.581507,0.441594,-0.0146687,-0.0013575,0.591248,-0.0196695,-0.00184774,0.0151999,0.520147,5,0.1,23,0.6,-2.79497,-3.53781,0.703997,0.512445,0.173551,0.0205904,0.686049,0.232458,0.0275671,0.0184592,0.781124,5,0.1,24,0.6,3.55953,-2.91836,0.647979,-0.0166237,0.785935,-0.0072971,-0.0231266,0.957847,-0.0101924,0.0157822,2.33475,5,0.1,25,0.6,3.80031,-3.52016,0.657421,-0.0445366,0.780702,-0.00780374,-0.0706911,0.99206,-0.0109971,0.0176927,2.33671,5,0.1,26,0.6,4.08943,-0.00994922,0.552885,0.0698447,0.489274,0.0283629,0.0934601,0.655061,0.037998,0.0166187,0.652971,5,0.1,27,0.6,-0.404556,4.30568,0.595663,0.519003,-0.302947,-0.0301391,-0.079155,-0.629187,-0.09951,0.0152475,2.72277,5,0.1,28,0.6,1.42188,0.435152,0.615206,-0.0993043,0.409462,-0.00680536,-0.132978,0.548199,-0.00914931,0.025381,0.474934,5,0.1,29,0.6,0.305889,3.42311,0.607711,-0.200017,-0.774646,-0.00254363,-0.279203,-1.02782,-0.00354648,0.011794,2.30558,5,0.1,30,0.6,2.08426,2.75589,0.666772,-0.462884,-0.0921547,-0.0298858,-0.619769,-0.123382,-0.0400543,0.0159153,0.595951,5,0.1,31,0.6,-2.04222,-0.968788,0.624406,-0.474471,0.329749,-0.0163943,-0.108004,0.222743,-0.0545681,0.0140249,1.5834,5,0.1,32,0.6,1.56909,-1.44411,0.700855,-0.716493,-0.0435829,0.0104085,-0.475705,-0.0608563,0.0145137,0.0232443,2.61152,5,0.1,33,0.6,-1.33476,-3.53552,0.617425,0.413954,0.694269,-0.00696927,0.577807,0.969172,-0.00974536,0.0138822,2.22403,5,0.1,34,0.6,-1.17866,-2.41939,0.528858,0.172415,0.764138,0.0100046,0.203848,1.08457,0.0168979,0.0103394,1.39771,5,0.1,35,0.6,-1.23732,1.01428,0.531711,-0.0674218,-0.306731,-0.000332296,-0.0903606,-0.410616,-0.000417233,0.0102327,0.262804,5,0.1,36,0.6,3.66553,3.66309,0.550323,0.019902,-0.785905,0.00518411,0.027895,-0.958204,0.00724196,0.0130014,2.3347,5,0.1,37,0.6,-3.51396,-2.36414,0.655732,0.129604,-0.75866,-0.0429645,0.306964,-0.808477,-0.0521541,0.0117199,2.30442,5,0.1,38,0.6,-1.08315,-0.324752,0.610775,-0.242972,0.769117,-0.0036478,-0.33915,1.06226,-0.0050962,0.0166991,2.29268,5,0.1,39,0.6,1.59875,-0.293531,0.698482,-0.178468,0.399919,0.0230566,-0.238955,0.535443,0.0308454,0.0253063,0.512416,5,0.1
0,0.7,-3.53205,1.19459,0.630577,0.361781,0.0824135,-0.0162131,0.371352,0.0845939,-0.0166558,0.0434306,0.288548,5,0.1,1,0.7,4.2339,-0.706697,0.575291,-0.225361,0.846696,0.00595925,-0.260442,0.426743,0.00687316,0.0277764,2.30623,5,0.1,2,0.7,-1.44156,-2.2142,0.609814,-0.110561,-0.575941,-0.00520134,-0.11345,-0.591069,-0.00534579,0.0121267,0.719497,5,0.1,3,0.7,-2.76999,3.83058,0.626761,0.205393,-0.512357,-0.0669701,0.210911,-0.525907,-0.0687391,0.00907351,0.646788,5,0.1,4,0.7,-1.65299,3.85918,0.692721,0.00703298,-0.85044,0.0195312,0.107348,-0.361234,0.0341125,0.0141976,2.34155,5,0.1,5,0.7,2.04812,-2.09133,0.651923,-0.449822,0.154519,-0.0275451,-0.461683,0.158608,-0.0282563,0.0128039,0.474892,5,0.1,6,0.7,-2.6262,-0.68692,0.694977,0.546686,-0.252898,0.00155754,-0.455707,-0.0031963,0.10258,0.0110424,1.89921,5,0.1,7,0.7,2.06009,-0.866541,0.575292,-0.850524,-0.0160001,0.0104573,-0.361159,-0.0184998,0.0121146,0.0132469,2.33483,5,0.1,8,0.7,-3.78741,-2.96105,0.592954,0.665381,-0.179774,0.00373581,0.831872,-0.184536,0.00384077,0.0120268,1.54561,5,0.1,9,0.7,1.81991,3.19303,0.614958,-0.726598,-0.500208,-0.00793589,-0.74584,-0.51342,-0.00814721,0.0251227,1.62802,5,0.1,10,0.7,-1.04763,-4.08793,0.505266,0.165953,0.84847,-0.0116168,0.191785,0.396401,-0.00263005,0.0435762,2.31907,5,0.1,11,0.7,4.09967,3.93126,0.551981,-0.503659,-0.255258,0.0254714,-0.516981,-0.261977,0.0261627,0.0205443,0.668481,5,0.1,12,0.7,0.0711996,4.30463,0.648237,-0.380807,-0.0735097,-0.0110167,0.135509,0.319213,0.0407137,0.0119689,1.00974,5,0.1,13,0.7,0.766695,-3.80011,0.608965,-0.565784,0.265237,-0.00475161,-0.580739,0.272229,-0.00489503,0.0119555,0.816921,5,0.1,14,0.7,-2.07853,3.58266,0.577345,0.433029,-0.80066,0.00954121,0.500634,-0.713646,0.0110269,0.0181674,2.23273,5,0.1,15,0.7,-3.87606,3.1069,0.538044,0.78179,-0.374905,0.0328694,0.784308,-0.384778,0.0337176,0.026512,1.57873,5,0.1,16,0.7,4.1996,-2.04751,0.659725,-0.115503,0.849541,-0.00756951,-0.133634,0.37799,-0.00873581,0.0109202,2.32717,5,0.1,17,0.7,3.62111,1.99145,0.591473,-0.413514,0.773616,0.00452502,-0.49898,0.794061,0.00463799,0.013263,1.77691,5,0.1,18,0.7,1.21309,3.71855,0.697931,-0.404738,-0.778625,0.0276159,-0.415407,-0.794008,0.0283197,0.0211649,1.61358,5,0.1,19,0.7,1.56057,1.17589,0.595906,-0.188042,-0.455525,0.0020707,-0.140361,-0.318587,0.000484288,0.025487,0.540036,5,0.1,20,0.7,3.97209,0.779127,0.566606,-0.319992,0.836705,0.0129984,-0.37013,0.517573,0.0150315,0.0187087,2.27581,5,0.1,21,0.7,-0.352972,-4.08993,0.537592,0.0213576,0.850467,0.0251666,0.0246707,0.362098,0.0290722,0.0119937,2.33435,5,0.1,22,0.7,0.621201,2.82254,0.581363,0.498356,-0.0165571,-0.00153445,0.511538,-0.017032,-0.00159442,0.0151999,0.520147,5,0.1,23,0.7,-2.74036,-3.51932,0.706191,0.57831,0.195868,0.0232371,0.593573,0.201136,0.0238493,0.0184592,0.781124,5,0.1,24,0.7,3.55775,-2.83604,0.647198,-0.0189479,0.850518,-0.0083195,-0.0218898,0.361219,-0.0096187,0.0157822,2.33475,5,0.1,25,0.7,3.7955,-3.43818,0.656585,-0.0516821,0.848756,-0.00890717,-0.0678748,0.391915,-0.0103787,0.0176927,2.33671,5,0.1,26,0.7,4.09687,0.0421971,0.555909,0.0788182,0.552162,0.032011,0.0808835,0.566754,0.0328794,0.0166187,0.652971,5,0.1,27,0.7,-0.352793,4.27185,0.592119,0.518101,-0.376091,-0.0408877,0.0328943,-0.772208,-0.108503,0.0152475,2.72277,5,0.1,28,0.7,1.41125,0.478671,0.614482,-0.113278,0.458675,-0.00764569,-0.136517,0.413582,-0.00723824,0.025381,0.474934,5,0.1,29,0.7,0.284472,3.34155,0.607439,-0.22804,-0.846598,-0.00289986,-0.263594,-0.428393,-0.00334904,0.011794,2.30558,5,0.1,30,0.7,2.03493,2.74607,0.663586,-0.522384,-0.104,-0.0337302,-0.536241,-0.106737,-0.0346415,0.0159153,0.595951,5,0.1,31,0.7,-2.08923,-0.934817,0.622368,-0.456819,0.348166,-0.025359,0.421315,0.13306,-0.114486,0.0140249,1.5834,5,0.1,32,0.7,1.49651,-1.44878,0.701969,-0.723142,-0.0496857,0.011864,0.245817,-0.0573695,0.013683,0.0232443,2.61152,5,0.1,33,0.7,-1.29043,-3.46143,0.616679,0.471956,0.784595,-0.00794735,0.545636,0.790626,-0.00920147,0.0138822,2.22403,5,0.1,34,0.7,-1.16025,-2.34049,0.529707,0.196622,0.787494,0.00497913,0.257745,-0.494838,-0.103358,0.0103394,1.39771,5,0.1,35,0.7,-1.24451,0.981593,0.531676,-0.0760959,-0.346153,-0.000372902,-0.078164,-0.355285,-0.000365078,0.0102327,0.262804,5,0.1,36,0.7,3.66767,3.58077,0.550878,0.0226993,-0.850511,0.00591082,0.0263005,-0.361353,0.00683591,0.0130014,2.3347,5,0.1,37,0.7,-3.49913,-2.44304,0.651211,0.169605,-0.809373,-0.0470599,0.457004,-0.214681,-0.0287443,0.0117199,2.30442,5,0.1,38,0.7,-1.10916,-0.243559,0.610385,-0.277016,0.844683,-0.00415966,-0.320256,0.46125,-0.00481308,0.0166991,2.29268,5,0.1,39,0.7,1.57973,-0.250908,0.700939,-0.201408,0.451323,0.0260184,-0.206739,0.463259,0.0266954,0.0253063,0.512416,5,0.1
0,0.8,-3.49426,1.20319,0.628884,0.390893,0.0890464,-0.0175193,0.195026,0.0444651,-0.00876188,0.0484207,0.203726,5,0.1,1,0.8,4.21021,-0.620704,0.575917,-0.246811,0.866026,0.00652522,-0.156164,0,0.00414252,0.0181588,2.22567,5,0.1,2,0.8,-1.4531,-2.27434,0.609271,-0.11946,-0.622284,-0.00562072,-0.0594854,-0.310302,-0.00280142,0.00787231,0.508001,5,0.1,3,0.8,-2.74855,3.77708,0.619767,0.221926,-0.55359,-0.0723615,0.110745,-0.276089,-0.0360608,0.0102448,0.456662,5,0.1,4,0.8,-1.65167,3.77305,0.694843,0.0200331,-0.86602,0.0228226,0.142217,-0.000119209,0.0295341,0.0143413,2.36999,5,0.1,5,0.8,2.00114,-2.0752,0.649046,-0.486022,0.166959,-0.0297606,-0.242412,0.0832081,-0.0148416,0.0108808,0.335306,5,0.1,6,0.8,-2.57452,-0.712064,0.695698,0.480992,-0.248292,0.0131965,-0.821352,0.097841,0.122577,0.00880433,1.67667,5,0.1,7,0.8,1.97396,-0.868224,0.576392,-0.866026,-0.0175238,0.011456,0,-0.0111163,0.00724196,0.0101268,2.27158,5,0.1,8,0.8,-3.71705,-2.97982,0.593344,0.737417,-0.194246,0.00403672,0.564575,-0.0967979,0.00202656,0.00954772,0.889595,5,0.1,9,0.8,1.74403,3.14079,0.614129,-0.785074,-0.540453,-0.00857413,-0.391662,-0.269771,-0.00429153,0.0178231,1.16872,5,0.1,10,0.8,-1.03018,-4.00188,0.504109,0.181746,0.866026,-0.0113815,0.115097,0,0.00685453,0.0382811,2.24666,5,0.1,11,0.8,4.04707,3.90461,0.554642,-0.54419,-0.275797,0.0275224,-0.271559,-0.137687,0.0137389,0.0143464,0.472,5,0.1,12,0.8,0.0339201,4.29913,0.647351,-0.36336,-0.0344992,-0.00661761,0.220451,0.434875,0.0454485,0.00913978,0.841669,5,0.1,13,0.8,0.707609,-3.77241,0.608469,-0.611314,0.286579,-0.00513643,-0.304997,0.143051,-0.002563,0.00868293,0.576793,5,0.1,14,0.8,-2.033,3.49969,0.578349,0.474256,-0.851524,0.0104487,0.300705,-0.290036,0.00664592,0.0126371,2.12017,5,0.1,15,0.8,-3.79452,3.06775,0.541476,0.84247,-0.405073,0.0355139,0.397325,-0.20206,0.0176728,0.0176956,1.12832,5,0.1,16,0.8,4.18745,-1.96142,0.65893,-0.126505,0.866026,-0.00828952,-0.0803471,0,-0.00521541,0.0134417,2.25955,5,0.1,17,0.8,3.57749,2.07224,0.591945,-0.456047,0.835872,0.00488907,-0.325799,0.416994,0.00241399,0.00894017,1.29735,5,0.1,18,0.8,1.17082,3.63726,0.700815,-0.43731,-0.840646,0.0298366,-0.218093,-0.412703,0.0148714,0.0157174,1.16527,5,0.1,19,0.8,1.54124,1.1292,0.596112,-0.196636,-0.473684,0.00203401,-0.0286102,-0.0395775,-0.00116229,0.019202,0.485424,5,0.1,20,0.8,3.93844,0.864545,0.567973,-0.350475,0.863747,0.0142366,-0.222325,0.0455678,0.0090301,0.0162334,2.18095,5,0.1,21,0.8,-0.350727,-4.0038,0.540238,0.0233881,0.866026,0.0275597,0.0148267,0,0.0174642,0.00869199,2.27092,5,0.1,22,0.8,0.673245,2.82081,0.581202,0.538461,-0.0178933,-0.0016585,0.268608,-0.00882149,-0.000834465,0.00894846,0.367251,5,0.1,23,0.8,-2.67996,-3.49886,0.708618,0.624853,0.211632,0.025107,0.311613,0.105739,0.012517,0.0167895,0.551523,5,0.1,24,0.8,3.55576,-2.74991,0.646323,-0.0207543,0.866026,-0.00911057,-0.013113,0,-0.00578165,0.0122636,2.27152,5,0.1,25,0.8,3.79003,-3.35211,0.655648,-0.0573814,0.866026,-0.00976175,-0.0430346,0,-0.00625849,0.0168612,2.26921,5,0.1,26,0.8,4.1051,0.0998603,0.559252,0.0851631,0.596597,0.0345886,0.0424385,0.297618,0.0172853,0.00914933,0.461033,5,0.1,27,0.8,-0.300827,4.23055,0.58752,0.520571,-0.446904,-0.050661,-0.00539422,-0.600338,-0.0821352,0.00736331,1.02437,5,0.1,28,0.8,1.3993,0.526234,0.613687,-0.12491,0.488481,-0.00818372,-0.0889897,0.168145,-0.00324845,0.0204319,0.374893,5,0.1,29,0.8,0.260495,3.25556,0.607134,-0.249746,-0.866026,-0.00317544,-0.158258,0,-0.00202656,0.00862921,2.22466,5,0.1,30,0.8,1.98037,2.73521,0.660064,-0.564426,-0.112367,-0.0364468,-0.281632,-0.0561476,-0.0181794,0.0123132,0.473289,5,0.1,31,0.8,-2.1322,-0.899566,0.61923,-0.397503,0.354332,-0.0374883,0.731826,-0.0175834,-0.120312,0.0110088,1.35053,5,0.1,32,0.8,1.426,-1.454,0.703216,-0.682795,-0.0544071,0.0129893,0.50348,-0.0343919,0.00819564,0.0162539,2.66928,5,0.1,33,0.8,-1.24081,-3.37961,0.615843,0.516891,0.844961,-0.00870526,0.327647,0.389218,-0.00551343,0.0125759,1.69803,5,0.1,34,0.8,-1.13936,-2.26599,0.529585,0.220084,0.687522,-0.00816286,0.195205,-1.40357,-0.148475,0.00897229,2.74738,5,0.1,35,0.8,-1.25246,0.945443,0.531637,-0.0822216,-0.374009,-0.000402331,-0.0411272,-0.186563,-0.000178814,0.00817002,0.185557,5,0.1,36,0.8,3.67005,3.49464,0.551499,0.0248671,-0.866026,0.00647306,0.0157356,0,0.00411272,0.0110725,2.27141,5,0.1,37,0.8,-3.47988,-2.52414,0.646407,0.214726,-0.803691,-0.0485659,0.418663,0.316262,-0.00089407,0.00890207,2.11185,5,0.1,38,0.8,-1.13829,-0.157637,0.609947,-0.303391,0.866026,-0.00455678,-0.192285,-4.76837e-06,-0.00289083,0.0150118,2.20661,5,0.1,39,0.8,1.55869,-0.203775,0.703656,-0.21762,0.487644,0.0281125,-0.10848,0.243269,0.0139773,0.0290646,0.523709,5,0.1
0,0.9,-3.45424,1.21231,0.62709,0.408563,0.0930758,-0.0183132,0.139669,0.0318661,-0.00627711,0.0484207,0.203726,5,0.1,1,0.9,4.18472,-0.534101,0.576591,-0.262957,0.866026,0.00695344,-0.150114,-3.57628e-06,0.00398606,0.0181588,2.22567,5,0.1,2,0.9,-1.46533,-2.33805,0.608695,-0.124851,-0.650403,-0.0058746,-0.0426248,-0.222251,-0.00201166,0.00787231,0.508001,5,0.1,3,0.9,-2.72582,3.7204,0.612359,0.23196,-0.578608,-0.0756296,0.079304,-0.197753,-0.0258349,0.0102448,0.456662,5,0.1,4,0.9,-1.64854,3.68653,0.697358,0.0458149,-0.862889,0.028166,0.342302,0.0917166,0.07011,0.0143413,2.36999,5,0.1,5,0.9,1.95138,-2.05811,0.645999,-0.50799,0.174499,-0.0311052,-0.173673,0.0596046,-0.0106245,0.0108808,0.335306,5,0.1,6,0.9,-2.53043,-0.737078,0.69767,0.401547,-0.257462,0.0264511,-0.766098,-0.231441,0.135615,0.00880433,1.67667,5,0.1,7,0.9,1.88736,-0.870034,0.577575,-0.866026,-0.018672,0.0122047,0,-0.010673,0.00696257,0.0101268,2.27158,5,0.1,8,0.9,-3.64068,-2.99971,0.593757,0.787113,-0.203018,0.00422029,0.39506,-0.0693649,0.00144914,0.00954772,0.889595,5,0.1,9,0.9,1.66406,3.08552,0.613258,-0.808938,-0.563047,-0.00876533,-0.0738576,-0.160351,0.00044331,0.0178231,1.16872,5,0.1,10,0.9,-1.0114,-3.91527,0.50302,0.193641,0.866026,-0.0102602,0.110548,0,0.0148639,0.0382811,2.24666,5,0.1,11,0.9,3.99135,3.87637,0.557459,-0.568799,-0.288272,0.0287672,-0.194564,-0.098601,0.00983849,0.0143464,0.472,5,0.1,12,0.9,-0.00173523,4.2978,0.646889,-0.353287,0.00675172,-0.00290815,0.00774257,0.371277,0.0283197,0.00913978,0.841669,5,0.1,13,0.9,0.645023,-3.74307,0.607943,-0.638951,0.299542,-0.00536861,-0.218451,0.10249,-0.00183657,0.00868293,0.576793,5,0.1,14,0.9,-1.984,3.41365,0.579428,0.505377,-0.865119,0.0111358,0.289664,-0.0362545,0.0063926,0.0126371,2.12017,5,0.1,15,0.9,-3.70896,3.02628,0.545112,0.863228,-0.423386,0.0371155,0.061214,-0.144765,0.0126623,0.0176956,1.12832,5,0.1,16,0.9,4.17439,-1.87482,0.658073,-0.134806,0.866026,-0.0088295,-0.0771582,0,-0.00502914,0.0134417,2.25955,5,0.1,17,0.9,3.53067,2.15737,0.592445,-0.476126,0.861462,0.00510812,-0.0742674,0.10778,0.00173599,0.00894017,1.29735,5,0.1,18,0.9,1.12608,3.55183,0.703905,-0.456207,-0.861903,0.032177,-0.140823,-0.038445,0.0283048,0.0157174,1.16527,5,0.1,19,0.9,1.52192,1.08225,0.596297,-0.185675,-0.459532,0.00156006,0.226326,0.303648,-0.00757352,0.019202,0.485424,5,0.1,20,0.9,3.90224,0.951059,0.569443,-0.373454,0.865883,0.01517,-0.213638,0.00568852,0.0086762,0.0162334,2.18095,5,0.1,21,0.9,-0.348311,-3.9172,0.543085,0.0249144,0.866026,0.0293573,0.0141356,0,0.0166446,0.00869199,2.27092,5,0.1,22,0.9,0.728373,2.81898,0.581032,0.562801,-0.0186943,-0.00173366,0.1924,-0.00634789,-0.000592321,0.00894846,0.367251,5,0.1,23,0.9,-2.61599,-3.47719,0.711188,0.653093,0.221213,0.0262414,0.223249,0.0757277,0.00896677,0.0167895,0.551523,5,0.1,24,0.9,3.55362,-2.66331,0.645382,-0.0221122,0.866026,-0.00970755,-0.0126511,0,-0.00554323,0.0122636,2.27152,5,0.1,25,0.9,3.78407,-3.26551,0.65464,-0.0618018,0.866026,-0.0104077,-0.041306,0,-0.00599772,0.0168612,2.26921,5,0.1,26,0.9,4.11382,0.16094,0.562793,0.0890099,0.623565,0.0361548,0.0303686,0.213182,0.0123791,0.00914933,0.461033,5,0.1,27,0.9,-0.250663,4.18399,0.582043,0.466555,-0.473939,-0.0587574,-0.977264,0.0243783,-0.0752248,0.00736331,1.02437,5,0.1,28,0.9,1.38609,0.575474,0.612861,-0.14163,0.491913,-0.00824118,-0.219896,-0.0958107,0.00195578,0.0204319,0.374893,5,0.1,29,0.9,0.234698,3.16896,0.606806,-0.266078,-0.866026,-0.00338433,-0.151619,0,-0.00194088,0.00862921,2.22466,5,0.1,30,0.9,1.92259,2.72355,0.656332,-0.589947,-0.121899,-0.0380937,-0.201739,-0.119239,-0.0130162,0.0123132,0.473289,5,0.1,31,0.9,-2.16846,-0.863675,0.614861,-0.329263,0.367692,-0.0499047,0.634804,0.23618,-0.12137,0.0110088,1.35053,5,0.1,32,0.9,1.36063,-1.45962,0.704558,-0.624797,-0.0579335,0.01383,0.509255,-0.0325441,0.00775605,0.0162539,2.66928,5,0.1,33,0.9,-1.1875,-3.29388,0.614945,0.54837,0.864146,-0.0092349,0.272401,0.0541657,-0.00458583,0.0125759,1.69803,5,0.1,34,0.9,-1.1165,-2.20218,0.528181,0.235713,0.606318,-0.0184953,0.11044,-0.335768,-0.0630841,0.00897229,2.74738,5,0.1,35,0.9,-1.26087,0.907152,0.531596,-0.0859473,-0.390915,-0.000418723,-0.0294447,-0.133649,-0.00013411,0.00817002,0.185557,5,0.1,36,0.9,3.67262,3.40804,0.552168,0.0264924,-0.866026,0.00689747,0.0150949,0,0.00393763,0.0110725,2.27141,5,0.1,37,0.9,-3.45673,-2.60198,0.641576,0.244151,-0.744752,-0.0477565,0.17491,0.825569,0.0171587,0.00890207,2.11185,5,0.1,38,0.9,-1.16963,-0.0710382,0.609486,-0.3232,0.865859,-0.00459794,-0.183612,-0.00664949,0.00180304,0.0150118,2.20661,5,0.1,39,0.9,1.53641,-0.153694,0.706534,-0.22745,0.514133,0.0293799,-0.0777096,0.253275,0.010021,0.0290646,0.523709,5,0.1
0,1,-3.41291,1.22173,0.625237,0.415719,0.0947088,-0.0186354,-0.00905991,-0.00196695,0.00038743,0.0344182,0.450123,5,0.1,1,1,4.15779,-0.447499,0.577303,-0.274014,0.866025,0.00724792,-0.0598431,1.43051e-05,0.00157952,0.0216105,2.22083,5,0.1,2,1,-1.47796,-2.40386,0.608101,-0.127032,-0.661784,-0.00597835,0.00274181,0.0143051,0.000149012,0.00753081,0.562829,5,0.1,3,1,-2.70235,3.66186,0.604707,0.236022,-0.588733,-0.0769526,-0.005126,0.0127554,0.00166893,0.0101087,0.310547,5,0.1,4,1,-1.64213,3.60104,0.700543,0.0830024,-0.842822,0.0355765,0.377595,0.329614,0.0726283,0.010843,2.52269,5,0.1,5,1,1.89999,-2.04045,0.642852,-0.516886,0.17755,-0.0316486,0.0110865,-0.0038147,0.000655651,0.0114891,0.364337,5,0.1,6,1,-2.49401,-0.764188,0.700968,0.328034,-0.285822,0.039129,-0.703096,-0.298053,0.112951,0.0102129,1.44216,5,0.1,7,1,1.80076,-0.871946,0.578825,-0.866026,-0.0194579,0.0127181,5.96046e-05,-0.00423193,0.00277162,0.0106254,2.27155,5,0.1,8,1,-3.5605,-3.02025,0.594184,0.810784,-0.206572,0.00429451,0.0560284,0.00452995,-5.96046e-05,0.00735406,0.836247,5,0.1,9,1,1.5834,3.02874,0.612392,-0.79819,-0.56895,-0.00849664,0.293672,0.0561476,0.00488758,0.0160432,0.92911,5,0.1,10,1,-0.991578,-3.82867,0.502077,0.201789,0.866026,-0.00853837,0.0438988,0,0.0189543,0.0377434,2.24414,5,0.1,11,1,3.9338,3.8472,0.56037,-0.578767,-0.293326,0.0292704,0.0123978,0.00631809,-0.000625849,0.0118343,0.471248,5,0.1,12,1,-0.0371886,4.30011,0.64671,-0.356828,0.0369549,-0.000976026,-0.055477,0.223637,0.0105202,0.00978533,0.699878,5,0.1,13,1,0.580374,-3.71276,0.6074,-0.650141,0.304794,-0.00546277,0.0140369,-0.00655651,8.9407e-05,0.0106884,0.480721,5,0.1,14,1,-1.93225,3.32707,0.580568,0.526768,-0.866026,0.0116065,0.115991,0,0.0025928,0.00979331,1.82397,5,0.1,15,1,-3.62266,2.98344,0.548867,0.859571,-0.430804,0.0377625,-0.128865,0.00929832,-0.000834465,0.0184733,0.785391,5,0.1,16,1,4.16058,-1.78821,0.657169,-0.140488,0.866026,-0.00919998,-0.030756,-5.96046e-05,-0.00202656,0.00973908,2.25826,5,0.1,17,1,3.48311,2.24364,0.592962,-0.470889,0.860375,0.00519603,0.177622,-0.112891,-0.000119209,0.00774711,0.980263,5,0.1,18,1,1.08001,3.466,0.707262,-0.462335,-0.848639,0.0348672,0.0305772,0.326395,0.0228584,0.0178975,0.816128,5,0.1,19,1,1.50475,1.03825,0.59641,-0.155285,-0.416544,0.000654161,0.363827,0.539184,-0.0100136,0.019974,0.405601,5,0.1,20,1,3.86399,1.03766,0.570997,-0.389206,0.866026,0.0158101,-0.0852346,0,0.00345707,0.0146863,2.17086,5,0.1,21,1,-0.34576,-3.8306,0.54609,0.0259511,0.866026,0.0305787,0.00554323,0,0.00649691,0.00841795,2.29867,5,0.1,22,1,0.785317,2.81709,0.580857,0.572656,-0.0190198,-0.0017643,-0.0123978,0.000476837,2.98023e-05,0.00962487,0.30212,5,0.1,23,1,-2.54991,-3.45481,0.713844,0.664526,0.225097,0.0266999,-0.0144243,-0.00476837,-0.000566244,0.0154884,0.375063,5,0.1,24,1,3.55135,-2.5767,0.644388,-0.0230432,0.866026,-0.0101164,-0.005126,0,-0.00217557,0.0116789,2.27148,5,0.1,25,1,3.77771,-3.17891,0.653574,-0.0649512,0.866026,-0.010851,-0.0189543,0,-0.00238419,0.0172222,2.26886,5,0.1,26,1,4.12283,0.224032,0.566451,0.0905752,0.634485,0.036791,-0.00214577,-0.0137091,-0.000804663,0.00777802,0.31352,5,0.1,27,1,-0.209831,4.13751,0.575833,0.342692,-0.44862,-0.0649333,-1.42189,0.451088,-0.0452101,0.00929543,0.357483,5,0.1,28,1,1.37078,0.623779,0.612055,-0.164428,0.47023,-0.00782162,-0.216901,-0.332445,0.00622869,0.0200242,0.266928,5,0.1,29,1,0.207455,3.08236,0.606459,-0.277234,-0.866026,-0.0035271,-0.0599325,0,-0.00077486,0.0127179,2.22,5,0.1,30,1,1.86289,2.71076,0.652478,-0.600281,-0.133562,-0.0387609,0.0128746,-0.102758,0.000864267,0.0132607,0.484103,5,0.1,31,1,-2.19836,-0.825635,0.609307,-0.270164,0.393099,-0.0606328,0.549197,0.235826,-0.0886023,0.00849686,0.701197,5,0.1,32,1,1.3,-1.46555,0.705973,-0.595066,-0.060308,0.014396,0.0913143,-0.0123978,0.00295043,0.0169503,2.60095,5,0.1,33,1,-1.13159,-3.20742,0.614004,0.566426,0.863421,-0.00953972,0.0687838,-0.0520945,-0.00113249,0.0109636,1.22954,5,0.1,34,1,-1.09256,-2.14225,0.526123,0.24108,0.599879,-0.0216872,-0.00709295,0.117064,-0.00491738,0.0116387,2.52894,5,0.1,35,1,-1.26957,0.8676,0.531553,-0.0874579,-0.397761,-0.000426173,0.00190735,0.00858307,2.98023e-05,0.00882273,0.129477,5,0.1,36,1,3.67533,3.32143,0.552874,0.0276029,-0.866026,0.00718832,0.00607967,0,0.00154972,0.0091703,2.27136,5,0.1,37,1,-3.43181,-2.67174,0.636916,0.250804,-0.645435,-0.0451401,-0.0360012,1.12915,0.0349879,0.00779397,1.88808,5,0.1,38,1,-1.20272,0.0154613,0.609041,-0.336683,0.863366,-0.00424534,-0.0719428,-0.0531948,0.00497699,0.0121221,2.37939,5,0.1,39,1,1.5134,-0.101221,0.709506,-0.23143,0.532662,0.0298932,0.00500679,0.0941646,-0.000655651,0.0223429,0.545978,5,0.1
0,1.1,-3.37172,1.23118,0.623377,0.404754,0.0943005,-0.0185549,-0.205129,-0.00967085,0.0018999,0.0344182,0.450123,5,0.1,1,1.1,4.13003,-0.360896,0.578038,-0.281292,0.866025,0.00744024,-0.0693202,-1.78814e-06,0.00183657,0.0216105,2.22083,5,0.1,2,1.1,-1.4908,-2.47009,0.607504,-0.130921,-0.663327,-0.00595059,-0.0659972,-0.0110716,0.000625849,0.00753081,0.562829,5,0.1,3,1.1,-2.67879,3.60307,0.597023,0.234985,-0.586148,-0.0766149,-0.0242591,0.0604689,0.00789762,0.0101087,0.310547,5,0.1,4,1.1,-1.6319,3.51853,0.704526,0.121439,-0.805904,0.0445073,0.373945,0.424907,0.0984408,0.010843,2.52269,5,0.1,5,1.1,1.84822,-2.02272,0.639692,-0.519072,0.176775,-0.031512,-0.0260174,-0.0182092,0.00322983,0.0114891,0.364337,5,0.1,6,1.1,-2.46402,-0.794535,0.705377,0.278227,-0.322679,0.0482688,-0.313252,-0.393476,0.0668243,0.0102129,1.44216,5,0.1,7,1.1,1.71416,-0.873917,0.580113,-0.866025,-0.0199748,0.0130567,-1.49012e-05,-0.00493973,0.00323728,0.0106254,2.27155,5,0.1,8,1.1,-3.48102,-3.04136,0.594499,0.762114,-0.219583,0.00104783,-0.944391,-0.225946,-0.0577979,0.00735406,0.836247,5,0.1,9,1.1,1.50585,2.97199,0.611596,-0.745597,-0.566623,-0.00717416,0.730798,0.019908,0.019908,0.0160432,0.92911,5,0.1,10,1.1,-0.971137,-3.74207,0.50132,0.20713,0.866026,-0.00657141,0.0508837,0,0.0199229,0.0377434,2.24414,5,0.1,11,1.1,3.87586,3.81792,0.563293,-0.580685,-0.292041,0.0291425,-0.0196993,0.0301003,-0.00300631,0.0118343,0.471248,5,0.1,12,1.1,-0.0736404,4.30444,0.64661,-0.375921,0.0455223,-0.00149235,-0.279412,-0.0303686,-0.0176579,0.00978533,0.699878,5,0.1,13,1.1,0.515458,-3.68217,0.606854,-0.64729,0.307906,-0.00544125,0.0667535,0.0477731,0.000540167,0.0106884,0.480721,5,0.1,14,1.1,-1.87893,3.24047,0.581743,0.539467,-0.865866,0.0118891,0.109561,0.0063926,0.00242889,0.00979331,1.82397,5,0.1,15,1.1,-3.53724,2.94043,0.552637,0.848878,-0.428918,0.0375954,-0.121981,0.0441819,-0.00389293,0.0184733,0.785391,5,0.1,16,1.1,4.14635,-1.70161,0.656237,-0.144234,0.866025,-0.00944678,-0.0357628,1.49012e-05,-0.00236183,0.00973908,2.25826,5,0.1,17,1.1,3.43755,2.32919,0.593481,-0.434818,0.85042,0.00517284,0.510886,-0.121862,-0.000532717,0.00774711,0.980263,5,0.1,18,1.1,1.03385,3.38267,0.710858,-0.461122,-0.818128,0.0369634,0.0163317,0.313848,0.0172742,0.0178975,0.816128,5,0.1,19,1.1,1.49129,0.999088,0.596425,-0.112081,-0.368478,-0.000350736,0.479311,0.434991,-0.00976771,0.019974,0.405601,5,0.1,20,1.1,3.82457,1.12426,0.572598,-0.399498,0.866026,0.0162276,-0.0974834,0,0.00395998,0.0146863,2.17086,5,0.1,21,1.1,-0.343133,-3.74401,0.549186,0.0266102,0.865406,0.0313522,0.00612997,-0.0247955,0.00719726,0.00841795,2.29867,5,0.1,22,1.1,0.841817,2.81527,0.580659,0.550862,-0.0166897,-0.00238456,-0.401579,0.0418276,-0.0109747,0.00962487,0.30212,5,0.1,23,1.1,-2.48356,-3.43233,0.71651,0.661608,0.224117,0.0265839,-0.0682473,-0.023067,-0.00273436,0.0154884,0.375063,5,0.1,24,1.1,3.54902,-2.4901,0.643363,-0.0236653,0.866026,-0.0103826,-0.00593066,0,-0.00254065,0.0116789,2.27148,5,0.1,25,1.1,3.77111,-3.09231,0.652475,-0.0671335,0.866026,-0.0111417,-0.0207126,0,-0.00277534,0.0172222,2.26886,5,0.1,26,1.1,4.13187,0.287385,0.570125,0.0901625,0.631703,0.036629,-0.00941753,-0.0651425,-0.00378117,0.00777802,0.31352,5,0.1,27,1.1,-0.182831,4.09508,0.569006,0.19675,-0.398503,-0.0724249,-1.45691,0.53674,-0.0937283,0.00929543,0.357483,5,0.1,28,1.1,1.35329,0.669342,0.611301,-0.184685,0.442524,-0.00726394,-0.17719,-0.242945,0.00519305,0.0200242,0.266928,5,0.1,29,1.1,0.179378,2.99575,0.606102,-0.284428,-0.866026,-0.00361977,-0.0676401,0,-0.000867993,0.0127179,2.22,5,0.1,30,1.1,1.80288,2.6968,0.64861,-0.59983,-0.146076,-0.0385444,0.0229254,-0.133604,0.004787,0.0132607,0.484103,5,0.1,31,1.1,-2.22169,-0.786249,0.602715,-0.188754,0.384766,-0.0717923,1.01337,-0.355501,-0.123978,0.00849686,0.701197,5,0.1,32,1.1,1.23967,-1.47165,0.70743,-0.6216,-0.0617744,0.0147453,-0.520557,-0.0134781,0.0032112,0.0169503,2.60095,5,0.1,33,1.1,-1.07462,-3.12111,0.613044,0.572218,0.863779,-0.00963509,0.0233427,0.0126064,-0.00037998,0.0109636,1.22954,5,0.1,34,1.1,-1.06852,-2.08058,0.524004,0.239449,0.641919,-0.020063,-0.0334233,0.627235,0.0337698,0.0116387,2.52894,5,0.1,35,1.1,-1.27827,0.828052,0.5315,-0.0862256,-0.391236,-0.000744034,0.0240505,0.125848,-0.00565872,0.00882273,0.129477,5,0.1,36,1.1,3.67813,3.23483,0.553602,0.0283375,-0.866026,0.00737682,0.00697374,0,0.00178814,0.0091703,2.27136,5,0.1,37,1.1,-3.40769,-2.73098,0.632556,0.224892,-0.542355,-0.042228,-0.442088,0.945151,0.025332,0.00779397,1.88808,5,0.1,38,1.1,-1.23704,0.101001,0.608721,-0.351902,0.842137,-0.00147112,-0.198081,-0.370764,0.0454709,0.0121221,2.37939,5,0.1,39,1.1,1.49029,-0.0472911,0.712491,-0.230415,0.54692,0.0297619,0.0237674,0.154714,-0.00306964,0.0223429,0.545978,5,0.1
0,1.2,-3.33256,1.24053,0.621538,0.375777,0.0922024,-0.0181422,-0.368476,-0.0346303,0.00682473,0.0348817,0.437342,5,0.1,1,1.2,4.10165,-0.274294,0.578788,-0.285113,0.866025,0.00754148,0.00476837,0,-0.000119209,0.0229515,2.21978,5,0.1,2,1.2,-1.50424,-2.53629,0.606914,-0.137705,-0.658232,-0.00581741,-0.058949,0.136733,0.00217557,0.00735484,0.655477,5,0.1,3,1.2,-2.6555,3.54498,0.58943,0.22974,-0.573069,-0.0749066,-0.0863075,0.215292,0.0281632,0.00862518,0.206498,5,0.1,4,1.2,-1.61801,3.44032,0.709461,0.154859,-0.755268,0.0539541,0.282347,0.597477,0.0849366,0.0111723,2.66405,5,0.1,5,1.2,1.79631,-2.0052,0.636569,-0.517198,0.172833,-0.0308096,0.0835061,-0.0649095,0.0115633,0.00820875,0.258512,5,0.1,6,1.2,-2.43727,-0.828627,0.710444,0.261086,-0.356954,0.0521034,-0.0524521,-0.261992,0.00905991,0.00902895,1.20348,5,0.1,7,1.2,1.62755,-0.875932,0.58143,-0.866026,-0.0202477,0.0132367,5.96046e-05,0.000268221,-0.000208616,0.0118164,2.27154,5,0.1,8,1.2,-3.4106,-3.06457,0.594268,0.637388,-0.244957,-0.00600815,-1.48034,-0.252485,-0.0777841,0.00644175,0.32866,5,0.1,9,1.2,1.43547,2.91557,0.610991,-0.657186,-0.559962,-0.00481158,1.01334,0.133872,0.0260472,0.00943201,0.690314,5,0.1,10,1.2,-0.950239,-3.65547,0.500761,0.209923,0.866026,-0.00463575,-0.00342727,0,0.0185072,0.0356429,2.24365,5,0.1,11,1.2,3.81784,3.78897,0.566181,-0.577438,-0.285524,0.0284925,0.106096,0.107169,-0.0107288,0.0120632,0.33118,5,0.1,12,1.2,-0.112682,4.30857,0.646347,-0.404535,0.034833,-0.00393987,-0.25807,-0.165701,-0.0287592,0.0102838,0.544388,5,0.1,13,1.2,0.451308,-3.65119,0.606315,-0.632848,0.310743,-0.0053212,0.237733,-0.00619888,0.00199676,0.0094167,0.330494,5,0.1,14,1.2,-1.82464,3.15396,0.58294,0.543886,-0.863475,0.0119865,-0.0405908,0.05126,-0.000864267,0.0108764,1.36024,5,0.1,15,1.2,-3.4532,2.89792,0.556363,0.828946,-0.419354,0.0367552,-0.301838,0.157475,-0.0137985,0.0190716,0.537704,5,0.1,16,1.2,4.13179,-1.61501,0.655284,-0.14621,0.866026,-0.00957698,0.00190735,-5.96046e-05,8.9407e-05,0.0120797,2.25795,5,0.1,17,1.2,3.39695,2.41337,0.593994,-0.374532,0.830024,0.00505596,0.66936,-0.310302,-0.00187755,0.00838171,0.751685,5,0.1,18,1.2,0.987949,3.30261,0.71462,-0.455242,-0.780833,0.0380263,0.116795,0.452518,0.00274181,0.0163067,0.578472,5,0.1,19,1.2,1.48253,0.964329,0.596344,-0.0631183,-0.327316,-0.00124574,0.48393,0.397742,-0.00792742,0.00865445,0.602798,5,0.1,20,1.2,3.78427,1.21086,0.574235,-0.404793,0.866026,0.0164419,0.00786781,-5.96046e-05,-0.000298023,0.0124572,1.90116,5,0.1,21,1.2,-0.34045,-3.65779,0.552347,0.0269219,0.856113,0.0317171,-0.000938773,-0.198364,-0.00110269,0.00849894,2.19953,5,0.1,22,1.2,0.894405,2.81385,0.580357,0.496484,-0.0114202,-0.00370145,-0.66644,0.0600815,-0.0142157,0.0116771,0.235687,5,0.1,23,1.2,-2.41799,-3.41012,0.719144,0.646847,0.219119,0.0259906,-0.242949,-0.0822544,-0.00974536,0.0142862,0.249403,5,0.1,24,1.2,3.54663,-2.4035,0.642316,-0.0240028,0.866026,-0.0105232,0.000476837,0,0.000178814,0.0137881,2.27147,5,0.1,25,1.2,3.76431,-3.0057,0.65135,-0.0684142,0.866026,-0.0112966,-0.00226498,0,0.000119209,0.0159843,2.26874,5,0.1,26,1.2,4.14081,0.34999,0.573755,0.0881433,0.617608,0.0358105,-0.0331402,-0.232011,-0.0134408,0.00819509,0.208476,5,0.1,27,1.2,-0.170226,4.05796,0.561288,0.0582527,-0.343621,-0.0817835,-1.28364,0.551701,-0.0854135,0.00738374,0.284485,5,0.1,28,1.2,1.33408,0.712385,0.610601,-0.19803,0.417988,-0.00673831,-0.0823736,-0.263005,0.00557303,0.020372,0.196458,5,0.1,29,1.2,0.150694,2.90915,0.605737,-0.288,-0.866026,-0.00366569,0.00751019,0,8.9407e-05,0.00918544,1.98467,5,0.1,30,1.2,1.74321,2.68157,0.644794,-0.591195,-0.157887,-0.0375867,0.167906,-0.0927448,0.015229,0.0124065,0.37092,5,0.1,31,1.2,-2.23518,-0.750205,0.594929,-0.079143,0.330572,-0.0835896,1.12796,-0.689596,-0.104189,0.00922111,0.309669,5,0.1,32,1.2,1.17459,-1.47788,0.708915,-0.681388,-0.062421,0.0148997,-0.598729,0.00298023,-0.000745058,0.017055,2.39285,5,0.1,33,1.2,-1.01751,-3.03488,0.612083,0.567146,0.858057,-0.00954866,-0.140578,-0.159502,0.00238419,0.0104012,0.866375,5,0.1,34,1.2,-1.04483,-2.01307,0.522205,0.233096,0.708464,-0.0155881,-0.0987649,0.631392,0.0528097,0.00967178,2.3397,5,0.1,35,1.2,-1.28673,0.789776,0.531393,-0.0824511,-0.372069,-0.00142902,0.0520945,0.258803,-0.00742078,0.00909615,0.194365,5,0.1,36,1.2,3.68099,3.14823,0.554347,0.0287175,-0.866026,0.00747442,-0.000476837,0,-0.000119209,0.00955529,2.27135,5,0.1,37,1.2,-3.3878,-2.78071,0.628457,0.169629,-0.454181,-0.0397161,-0.630975,0.828028,0.0264347,0.00816455,1.72606,5,0.1,38,1.2,-1.2732,0.182846,0.608834,-0.370356,0.789694,0.00395179,-0.145853,-0.673906,0.0590384,0.0121934,2.0757,5,0.1,39,1.2,1.46746,0.00803077,0.715441,-0.225276,0.557412,0.029099,0.0846386,0.0294828,-0.0109375,0.023461,0.394426,5,0.1
0,1.3,-3.29715,1.24958,0.619757,0.329424,0.0887791,-0.0174676,-0.541449,-0.0366941,0.00723079,0.0348817,0.437342,5,0.1,1,1.3,4.07308,-0.187691,0.579544,-0.286624,0.866025,0.00758227,-0.0187159,5.96046e-07,0.000506639,0.0229515,2.21978,5,0.1,2,1.3,-1.51853,-2.60168,0.606343,-0.149648,-0.650832,-0.00560237,-0.15875,0.0485927,0.00230595,0.00735484,0.655477,5,0.1,3,1.3,-2.63295,3.48873,0.582077,0.221208,-0.551787,-0.0721232,-0.0914931,0.228167,0.0298359,0.00862518,0.206498,5,0.1,4,1.3,-1.6014,3.36753,0.715288,0.174451,-0.702376,0.0625298,0.113063,0.488222,0.081379,0.0111723,2.66405,5,0.1,5,1.3,1.74493,-1.98824,0.633545,-0.510612,0.166416,-0.029666,0.0712797,-0.0687987,0.0122637,0.00820875,0.258512,5,0.1,6,1.3,-2.41048,-0.865419,0.715573,0.282595,-0.376534,0.0493493,0.413865,-0.1208,-0.058502,0.00902895,1.20348,5,0.1,7,1.3,1.54095,-0.877962,0.582757,-0.866025,-0.0203658,0.0133115,-1.49012e-05,-0.00146031,0.000935048,0.0118164,2.27154,5,0.1,8,1.3,-3.35435,-3.09059,0.59324,0.487284,-0.277116,-0.0147858,-1.49617,-0.35654,-0.0927411,0.00644175,0.32866,5,0.1,9,1.3,1.37523,2.86119,0.610581,-0.544378,-0.519071,-0.00390168,1.21181,0.642255,-0.00471622,0.00943201,0.690314,5,0.1,10,1.3,-0.929205,-3.56886,0.500385,0.211044,0.866026,-0.00293953,0.0138506,0,0.0152402,0.0356429,2.24365,5,0.1,11,1.3,3.76055,3.76094,0.568978,-0.568618,-0.274928,0.0274322,0.0952333,0.113621,-0.0113659,0.0120632,0.33118,5,0.1,12,1.3,-0.154621,4.31103,0.645788,-0.435257,0.0126667,-0.00740327,-0.320051,-0.261277,-0.0381097,0.0102838,0.544388,5,0.1,13,1.3,0.389186,-3.62008,0.605793,-0.609346,0.311803,-0.00512367,0.251962,0.0107735,0.00211969,0.0094167,0.330494,5,0.1,14,1.3,-1.77042,3.06765,0.584135,0.540367,-0.863864,0.0119109,-0.0526458,-0.0176132,-0.00114739,0.0108764,1.36024,5,0.1,15,1.3,-3.37172,2.85675,0.559971,0.800959,-0.403788,0.0353908,-0.288025,0.166878,-0.0146255,0.0190716,0.537704,5,0.1,16,1.3,4.11714,-1.52841,0.654324,-0.147057,0.866025,-0.00963565,-0.010401,1.49012e-05,-0.000707805,0.0120797,2.25795,5,0.1,17,1.3,3.36306,2.49491,0.59449,-0.302068,0.800837,0.00486989,0.740528,-0.302613,-0.00199676,0.00838171,0.751685,5,0.1,18,1.3,0.943032,3.22651,0.718415,-0.44252,-0.743056,0.0376618,0.150796,0.338003,-0.0103042,0.0163067,0.578472,5,0.1,19,1.3,1.47884,0.934681,0.596143,-0.00924412,-0.256434,-0.00306871,0.568233,0.951298,-0.0259131,0.00865445,0.602798,5,0.1,20,1.3,3.74375,1.29747,0.575881,-0.405639,0.866025,0.016478,-0.00433624,1.49012e-05,0.000182539,0.0124572,1.90116,5,0.1,21,1.3,-0.33776,-3.57424,0.555517,0.0268942,0.805615,0.0316847,-0.000867993,-0.759736,-0.00102073,0.00849894,2.19953,5,0.1,22,1.3,0.940743,2.81327,0.57991,0.430483,0.00213645,-0.00527166,-0.654209,0.192627,-0.0162348,0.0116771,0.235687,5,0.1,23,1.3,-2.35449,-3.38861,0.721696,0.622831,0.210986,0.0250268,-0.257492,-0.0872016,-0.0103377,0.0142862,0.249403,5,0.1,24,1.3,3.54423,-2.3169,0.641261,-0.0241291,0.866026,-0.0105807,-0.00162423,0,-0.000718981,0.0137881,2.27147,5,0.1,25,1.3,3.75744,-2.9191,0.650218,-0.0691034,0.866026,-0.0113658,-0.00751019,0,-0.000845641,0.0159843,2.26874,5,0.1,26,1.3,4.14946,0.410616,0.57727,0.0848703,0.594673,0.0344818,-0.0350773,-0.245889,-0.0142492,0.00819509,0.208476,5,0.1,27,1.3,-0.170106,4.02648,0.552698,-0.0489133,-0.286678,-0.0897302,-0.867859,0.517517,-0.0685342,0.00738374,0.284485,5,0.1,28,1.3,1.31407,0.753111,0.60995,-0.199994,0.398332,-0.00632629,0.040181,-0.154052,0.00309199,0.020372,0.196458,5,0.1,29,1.3,0.121879,2.82255,0.60537,-0.288435,-0.866026,-0.00367183,-0.00165299,0,-2.23517e-05,0.00918544,1.98467,5,0.1,30,1.3,1.68524,2.6652,0.641117,-0.56512,-0.170249,-0.0358897,0.352502,-0.137985,0.0194199,0.0124065,0.37092,5,0.1,31,1.3,-2.23744,-0.72037,0.585852,0.0332907,0.268209,-0.0994368,1.08823,-0.564102,-0.193652,0.00922111,0.309669,5,0.1,32,1.3,1.10297,-1.48412,0.710405,-0.753861,-0.0624891,0.0149133,-0.774123,-0.000983477,0.000216067,0.017055,2.39285,5,0.1,33,1.3,-0.961484,-2.94973,0.61114,0.553085,0.845386,-0.00931071,-0.160038,-0.132307,0.00270084,0.0104012,0.866375,5,0.1,34,1.3,-1.02198,-1.93879,0.520937,0.22409,0.7782,-0.00956813,-0.089936,0.697412,0.0649057,0.00967178,2.3397,5,0.1,35,1.3,-1.29445,0.75394,0.531166,-0.0695989,-0.343808,-0.00349479,0.189871,0.308793,-0.0306629,0.00909615,0.194365,5,0.1,36,1.3,3.68387,3.06163,0.555095,0.0288676,-0.866026,0.00751372,0.00183284,0,0.000484288,0.00955529,2.27135,5,0.1,37,1.3,-3.37403,-2.82245,0.624603,0.105904,-0.384586,-0.0374904,-0.628948,0.585735,0.0198334,0.00816455,1.72606,5,0.1,38,1.3,-1.31153,0.258754,0.609573,-0.400607,0.730769,0.011196,-0.404023,-0.535047,0.0807941,0.0121934,2.0757,5,0.1,39,1.3,1.44534,0.0640085,0.718297,-0.216909,0.562293,0.0280183,0.0896975,0.0393611,-0.0115857,0.023461,0.394426,5,0.1
0,1.4,-3.26708,1.25825,0.618051,0.270617,0.0843853,-0.0166029,-0.620484,-0.0530481,0.0104606,0.0399769,0.431938,5,0.1,1,1.4,4.0444,-0.101089,0.580303,-0.286078,0.866026,0.0075683,0.041008,-3.57628e-06,-0.00110269,0.0195163,2.22085,5,0.1,2,1.4,-1.53431,-2.66641,0.605796,-0.165769,-0.642139,-0.00532568,-0.147939,0.151515,0.00333786,0.00723077,0.479182,5,0.1,3,1.4,-2.61134,3.43483,0.575032,0.210261,-0.524473,-0.0685528,-0.132322,0.329733,0.0430942,0.00816371,0.135922,5,0.1,4,1.4,-1.58365,3.29974,0.721907,0.178239,-0.652868,0.06935,-0.0331998,0.52166,0.0513792,0.0121025,2.72407,5,0.1,5,1.4,1.69436,-1.97198,0.630647,-0.499049,0.158182,-0.0281975,0.175655,-0.0994205,0.0177324,0.00975313,0.178655,5,0.1,6,1.4,-2.37984,-0.903386,0.720142,0.33173,-0.379765,0.0414327,0.516415,0.0608265,-0.0952482,0.0101572,0.942244,5,0.1,7,1.4,1.45435,-0.880001,0.584089,-0.866026,-0.0203416,0.0132933,5.96046e-05,0.00280142,-0.00178814,0.0115957,2.27155,5,0.1,8,1.4,-3.31296,-3.12002,0.591307,0.342655,-0.310373,-0.0236869,-1.37711,-0.283718,-0.0815094,0.00680992,0.216042,5,0.1,9,1.4,1.32696,2.81305,0.610138,-0.420392,-0.439149,-0.00519454,1.24329,0.921607,-0.0186861,0.00866123,0.517515,5,0.1,10,1.4,-0.908083,-3.48226,0.500161,0.210652,0.866026,-0.00161231,-0.03016,0,0.0112355,0.0354906,2.24427,5,0.1,11,1.4,3.70431,3.73409,0.571657,-0.554192,-0.261325,0.0260726,0.210524,0.16439,-0.0163913,0.0110851,0.227247,5,0.1,12,1.4,-0.199605,4.31094,0.644858,-0.462326,-0.0145555,-0.0111431,-0.195444,-0.270605,-0.0348985,0.0106771,0.408827,5,0.1,13,1.4,0.329665,-3.58893,0.605292,-0.579188,0.310069,-0.0048697,0.364213,-0.0571012,0.00303984,0.0117223,0.223438,5,0.1,14,1.4,-1.71682,2.98133,0.585317,0.529525,-0.860298,0.0116721,-0.179648,0.114441,-0.00396371,0.0119821,0.982099,5,0.1,15,1.4,-3.29324,2.81731,0.563428,0.766277,-0.383806,0.0336394,-0.426054,0.24116,-0.0211298,0.0167592,0.36222,5,0.1,16,1.4,4.10242,-1.4418,0.653359,-0.146866,0.866026,-0.00962615,0.0202656,-5.96046e-05,0.0013113,0.0115542,2.25818,5,0.1,17,1.4,3.33643,2.5733,0.594966,-0.232536,0.764626,0.00463128,0.628233,-0.441313,-0.00292063,0.00800623,0.587288,5,0.1,18,1.4,0.899677,3.15394,0.722106,-0.422923,-0.707257,0.0359342,0.249565,0.402808,-0.0242889,0.0088347,1.03702,5,0.1,19,1.4,1.48072,0.914241,0.595694,0.0461131,-0.149296,-0.00596493,0.520051,1.13767,-0.0300407,0.00908461,0.347532,5,0.1,20,1.4,3.70329,1.38407,0.577525,-0.402194,0.866026,0.0163406,0.0872612,0,-0.00357628,0.011379,1.45356,5,0.1,21,1.4,-0.335083,-3.49805,0.558671,0.0265367,0.713313,0.0312626,-0.00712276,-1.04666,-0.00837445,0.00929675,2.03189,5,0.1,22,1.4,0.980538,2.81454,0.579305,0.365598,0.0238359,-0.00678152,-0.643313,0.227094,-0.0133216,0.0127797,0.212335,5,0.1,23,1.4,-2.29365,-3.368,0.72414,0.592017,0.20054,0.0237882,-0.37241,-0.125885,-0.014931,0.0132931,0.164164,5,0.1,24,1.4,3.54181,-2.23029,0.640202,-0.0240922,0.866026,-0.0105649,0.00333786,0,0.00149012,0.0125639,2.27148,5,0.1,25,1.4,3.75051,-2.8325,0.64908,-0.0692427,0.866026,-0.0113547,0.00762939,0,0.00151992,0.0154154,2.26876,5,0.1,26,1.4,4.15775,0.468704,0.580638,0.0806689,0.565241,0.0327766,-0.0507832,-0.355407,-0.0206232,0.00847863,0.137223,5,0.1,27,1.4,-0.178707,4,0.543444,-0.117033,-0.247151,-0.0946626,-0.503488,0.272393,-0.0267923,0.00706031,0.29671,5,0.1,28,1.4,1.29446,0.792193,0.609331,-0.190622,0.383049,-0.0060454,0.144005,-0.168949,0.00286102,0.0189999,0.14006,5,0.1,29,1.4,0.0931095,2.73595,0.605004,-0.28587,-0.866026,-0.00363886,0.0630093,0,0.00077486,0.00856822,1.54165,5,0.1,30,1.4,1.63078,2.64752,0.637637,-0.521111,-0.182641,-0.0335902,0.52458,-0.0977516,0.0270009,0.0150586,0.277914,5,0.1,31,1.4,-2.22896,-0.696205,0.574922,0.132942,0.216602,-0.118986,0.88191,-0.473112,-0.183195,0.00965612,1.55175,5,0.1,32,1.4,1.02393,-1.49036,0.711894,-0.823264,-0.0620484,0.0148073,-0.560969,0.0120401,-0.00292063,0.0151689,2.29456,5,0.1,33,1.4,-0.907137,-2.86606,0.610225,0.531909,0.825119,-0.00895262,-0.276417,-0.299335,0.00461936,0.00938489,0.59568,5,0.1,34,1.4,-1.00007,-1.8578,0.520307,0.213662,0.837103,-0.00308007,-0.124484,0.438213,0.0628233,0.0113222,2.26615,5,0.1,35,1.4,-1.30033,0.7212,0.530646,-0.047189,-0.310002,-0.00698864,0.246346,0.368059,-0.0367463,0.0115968,0.130376,5,0.1,36,1.4,3.68676,2.97502,0.555847,0.0288069,-0.866026,0.00749826,-0.00417233,0,-0.00107288,0.0099837,2.27136,5,0.1,37,1.4,-3.36648,-2.85823,0.620954,0.0463605,-0.333166,-0.0354499,-0.551105,0.459313,0.0222325,0.00823235,1.55661,5,0.1,38,1.4,-1.35367,0.329181,0.611099,-0.441551,0.677475,0.0192285,-0.37396,-0.552506,0.0760853,0.0123157,1.65775,5,0.1,39,1.4,1.42416,0.120258,0.721034,-0.206172,0.560422,0.0266328,0.12958,-0.0966275,-0.0167489,0.0226265,0.275918,5,0.1
0,1.5,-3.24316,1.26644,0.616441,0.207899,0.0793254,-0.0156056,-0.622794,-0.0505522,0.00996143,0.0399769,0.431938,5,0.1,1,1.5,4.0159,-0.014486,0.581057,-0.284443,0.866025,0.00752369,0.00791252,-2.98023e-07,-0.000219792,0.0195163,2.22085,5,0.1,2,1.5,-1.55171,-2.73001,0.605279,-0.182608,-0.630412,-0.00500716,-0.172533,0.112846,0.0031814,0.00723077,0.479182,5,0.1,3,1.5,-2.59095,3.38397,0.568384,0.197642,-0.493019,-0.0644423,-0.126064,0.314221,0.0410601,0.00816371,0.135922,5,0.1,4,1.5,-1.56633,3.23647,0.729071,0.165182,-0.617256,0.0735865,-0.212751,0.238135,0.0307746,0.0121025,2.72407,5,0.1,5,1.5,1.64527,-1.95664,0.627912,-0.482982,0.148698,-0.0265058,0.164427,-0.094749,0.0168979,0.00975313,0.178655,5,0.1,6,1.5,-2.34372,-0.940969,0.723764,0.393185,-0.370802,0.0306568,0.660256,0.12612,-0.116166,0.0101572,0.942244,5,0.1,7,1.5,1.36775,-0.882028,0.585414,-0.866025,-0.0202432,0.0132329,-1.49012e-05,0.000342727,-0.00018999,0.0115957,2.27155,5,0.1,8,1.5,-3.28494,-3.15258,0.588538,0.223761,-0.340964,-0.0315577,-1.0127,-0.300661,-0.0728741,0.00680992,0.216042,5,0.1,9,1.5,1.29073,2.77369,0.609508,-0.308251,-0.348778,-0.0075412,1.00385,0.879019,-0.0263713,0.00866123,0.517515,5,0.1,10,1.5,-0.887098,-3.39566,0.500049,0.209458,0.866026,-0.000704173,-0.00568107,0,0.00703707,0.0354906,2.24427,5,0.1,11,1.5,3.64987,3.70875,0.574186,-0.534803,-0.245645,0.0245091,0.19756,0.156641,-0.0156239,0.0110851,0.227247,5,0.1,12,1.5,-0.246879,4.30808,0.643564,-0.483079,-0.0429168,-0.0147359,-0.191124,-0.284374,-0.0351295,0.0106771,0.408827,5,0.1,13,1.5,0.273497,-3.55816,0.60482,-0.544447,0.305315,-0.00457922,0.347068,-0.0513345,0.00290945,0.0117223,0.223438,5,0.1,14,1.5,-1.66471,2.89567,0.586465,0.512505,-0.853928,0.0112962,-0.179417,0.0568628,-0.00396371,0.0119821,0.982099,5,0.1,15,1.5,-3.21863,2.78009,0.566691,0.72648,-0.360801,0.0316234,-0.394747,0.229836,-0.0201464,0.0167592,0.36222,5,0.1,16,1.5,4.08778,-1.3552,0.6524,-0.146139,0.866025,-0.00958005,0.00268221,1.49012e-05,0.000167638,0.0115542,2.25818,5,0.1,17,1.5,3.31608,2.64766,0.595415,-0.177715,0.723211,0.00435263,0.433087,-0.411093,-0.00277907,0.00800623,0.587288,5,0.1,18,1.5,0.859027,3.08706,0.725882,-0.386538,-0.614366,0.0421021,0.462499,1.35434,0.127658,0.0088347,1.03702,5,0.1,19,1.5,1.48821,0.904883,0.594926,0.105476,-0.0395801,-0.00955472,0.631839,1.03509,-0.0392161,0.00908461,0.347532,5,0.1,20,1.5,3.66345,1.47067,0.579143,-0.394517,0.865777,0.0160261,0.0828058,-0.00993162,-0.00338629,0.011379,1.45356,5,0.1,21,1.5,-0.332462,-3.43249,0.561758,0.0258808,0.594715,0.0304911,-0.00701286,-1.24185,-0.00824779,0.00929675,2.03189,5,0.1,22,1.5,1.01407,2.81818,0.578561,0.306725,0.0495479,-0.0080768,-0.54029,0.271469,-0.0119135,0.0127797,0.212335,5,0.1,23,1.5,-2.23624,-3.34856,0.726447,0.556497,0.188528,0.0223636,-0.354812,-0.120029,-0.0142343,0.0132931,0.164164,5,0.1,24,1.5,3.53941,-2.14369,0.639149,-0.023973,0.866026,-0.0105101,0.000447035,0,0.000212342,0.0125639,2.27148,5,0.1,25,1.5,3.7436,-2.74589,0.647948,-0.0690766,0.866026,-0.0113043,-0.000298023,0,0.000145286,0.0154154,2.26876,5,0.1,26,1.5,4.16557,0.523519,0.583817,0.0758275,0.53134,0.0308098,-0.0483394,-0.338681,-0.0196472,0.00847863,0.137223,5,0.1,27,1.5,-0.192249,3.97601,0.533999,-0.147619,-0.237871,-0.0928,-0.131088,-0.0448972,0.0589266,0.00706031,0.29671,5,0.1,28,1.5,1.27619,0.829795,0.608738,-0.17395,0.369911,-0.00583855,0.187784,-0.112899,0.0016205,0.0189999,0.14006,5,0.1,29,1.5,0.064802,2.64935,0.604643,-0.280331,-0.865879,-0.0035705,0.0595001,0.00587106,0.000737607,0.00856822,1.54165,5,0.1,30,1.5,1.58114,2.62869,0.634409,-0.472791,-0.194547,-0.0309924,0.456125,-0.124797,0.0257269,0.0150586,0.277914,5,0.1,31,1.5,-2.21321,-0.676315,0.562442,0.164767,0.18636,-0.127534,-0.154197,-0.163555,0.00144169,0.00965612,1.55175,5,0.1,32,1.5,0.939489,-1.49652,0.713365,-0.859259,-0.0613326,0.014633,-0.180468,0.00559539,-0.00135973,0.0151689,2.29456,5,0.1,33,1.5,-0.855276,-2.78493,0.609352,0.505419,0.797874,-0.00850968,-0.269495,-0.276715,0.00451505,0.00938489,0.59568,5,0.1,34,1.5,-0.979253,-1.77255,0.520318,0.203035,0.862465,0.00329623,-0.0970997,0.10737,0.0625961,0.0113222,2.26615,5,0.1,35,1.5,-1.30409,0.6916,0.529807,-0.0303632,-0.285658,-0.00941036,0.101648,0.147983,-0.0129975,0.0115968,0.130376,5,0.1,36,1.5,3.68962,2.88842,0.556594,0.0286363,-0.866026,0.00745505,-0.000864267,0,-0.000216067,0.0099837,2.27136,5,0.1,37,1.5,-3.36445,-2.88983,0.617502,-0.0041157,-0.303812,-0.0337209,-0.452936,0.163898,0.0142269,0.00823235,1.55661,5,0.1,38,1.5,-1.39944,0.395116,0.613331,-0.470909,0.649009,0.0247337,-0.195429,-0.0835618,0.0348389,0.0123157,1.65775,5,0.1,39,1.5,1.40416,0.175877,0.723617,-0.193812,0.551945,0.0250354,0.123486,-0.096093,-0.0159517,0.0226265,0.275918,5,0.1
0,1.6,-3.22541,1.2741,0.614932,0.14798,0.073874,-0.0145316,-0.567555,-0.0600815,0.0118017,0.0367546,0.428902,5,0.1,1,1.6,3.98755,0.0721166,0.581807,-0.281721,0.866025,0.00745207,0.0579357,0,-0.00157952,0.0184317,2.22287,5,0.1,2,1.6,-1.57076,-2.79235,0.604795,-0.197479,-0.614512,-0.00466406,-0.113368,0.225782,0.00378489,0.00731135,0.340989,5,0.1,3,1.6,-2.57185,3.33631,0.562155,0.184053,-0.459141,-0.0600144,-0.149727,0.373483,0.0487864,0.00836339,0.152737,5,0.1,4,1.6,-1.55107,3.17579,0.736533,0.138459,-0.596964,0.0750884,-0.309169,0.203013,-0.00232458,0.0135004,2.68376,5,0.1,5,1.6,1.5979,-1.94227,0.62535,-0.463015,0.138482,-0.0246823,0.247657,-0.112653,0.020057,0.00915231,0.121275,5,0.1,6,1.6,-2.30121,-0.977261,0.726242,0.454712,-0.353333,0.0189245,0.532269,0.22772,-0.115305,0.00964531,0.714065,5,0.1,7,1.6,1.28114,-0.884047,0.586734,-0.866026,-0.0200748,0.0131249,0,0.0039041,-0.0025332,0.0110852,2.27156,5,0.1,8,1.6,-3.26711,-3.18802,0.585052,0.137836,-0.365835,-0.0377506,-0.716567,-0.177503,-0.0489354,0.00735443,0.195922,5,0.1,9,1.6,1.26456,2.74309,0.608622,-0.218749,-0.264561,-0.0101417,0.790536,0.800014,-0.0242293,0.00898246,0.512509,5,0.1,10,1.6,-0.86622,-3.30905,0.500007,0.207473,0.866026,-0.000180304,-0.0424683,0,0.00357628,0.0357995,2.24782,5,0.1,11,1.6,3.5975,3.685,0.576555,-0.511265,-0.228757,0.0228241,0.287056,0.186086,-0.018537,0.0128875,0.620412,5,0.1,12,1.6,-0.295945,4.30242,0.641927,-0.495731,-0.0693202,-0.017859,-0.0422597,-0.235081,-0.0260174,0.0113971,0.294118,5,0.1,13,1.6,0.220869,-3.52797,0.604377,-0.507026,0.297552,-0.00426471,0.412368,-0.113368,0.00342727,0.0106425,0.149594,5,0.1,14,1.6,-1.61448,2.81076,0.587572,0.490516,-0.841475,0.0108093,-0.27287,0.222802,-0.00599027,0.00941971,0.691866,5,0.1,15,1.6,-3.14807,2.74521,0.569748,0.683153,-0.336015,0.0294507,-0.488758,0.273228,-0.0239313,0.0164961,0.556682,5,0.1,16,1.6,4.07321,-1.2686,0.651444,-0.144887,0.866026,-0.009498,0.0283718,-5.96046e-05,0.00181794,0.0102219,2.25864,5,0.1,17,1.6,3.3,2.71782,0.595836,-0.148481,0.678366,0.00405312,0.160933,-0.502229,-0.00327826,0.00907601,0.756821,5,0.1,18,1.6,0.822929,3.03328,0.730846,-0.333336,-0.454497,0.0579298,0.588059,1.76263,0.17342,0.0137095,0.755872,5,0.1,19,1.6,1.50186,0.905785,0.593777,0.166342,0.0540778,-0.0133663,0.559449,0.82323,-0.0351071,0.0181142,1.10431,5,0.1,20,1.6,3.62452,1.55712,0.580725,-0.382864,0.862053,0.0155509,0.161529,-0.079453,-0.00658631,0.011848,1.08058,5,0.1,21,1.6,-0.329915,-3.37903,0.564758,0.0249639,0.477797,0.0294119,-0.0120103,-1.05155,-0.0141561,0.00993059,1.85966,5,0.1,22,1.6,1.04217,2.82445,0.5777,0.256455,0.0754237,-0.00905097,-0.469983,0.234723,-0.00715256,0.00922757,0.18656,5,0.1,23,1.6,-2.18245,-3.33033,0.728609,0.51825,0.175577,0.0208274,-0.421643,-0.142694,-0.0169277,0.0157584,0.107904,5,0.1,24,1.6,3.53702,-2.05709,0.638101,-0.0237703,0.866026,-0.0104189,0.00452995,-5.96046e-05,0.00205636,0.0110286,2.2715,5,0.1,25,1.6,3.73671,-2.65929,0.64682,-0.0686228,0.866026,-0.0112131,0.0122786,0,0.00211596,0.0159307,2.26885,5,0.1,26,1.6,4.1729,0.574881,0.586795,0.0706196,0.494823,0.0286922,-0.0574589,-0.402421,-0.023365,0.0102345,0.154197,5,0.1,27,1.6,-0.207209,3.95176,0.52512,-0.147476,-0.248748,-0.0838369,0.114545,-0.140429,0.115842,0.0125345,3.64862,5,0.1,28,1.6,1.25979,0.866186,0.608163,-0.153407,0.357211,-0.00566393,0.221252,-0.154585,0.00211596,0.0199608,0.171875,5,0.1,29,1.6,0.0371389,2.56283,0.604291,-0.271997,-0.863677,-0.00346452,0.115178,0.0470877,0.00143051,0.00817804,1.16362,5,0.1,30,1.6,1.53613,2.60867,0.631441,-0.427464,-0.204927,-0.0283152,0.460505,-0.071764,0.0283122,0.0110962,0.21114,5,0.1,31,1.6,-2.19859,-0.658201,0.549926,0.118583,0.178224,-0.12071,-0.696182,-0.0240505,0.125736,0.0123111,1.24715,5,0.1,32,1.6,0.853072,-1.50261,0.714818,-0.866026,-0.0603646,0.0144005,0,0.0160933,-0.0038743,0.0144314,2.26958,5,0.1,33,1.6,-0.806177,-2.7067,0.608525,0.475322,0.764531,-0.0080049,-0.343263,-0.411272,0.00578165,0.00997177,0.403043,5,0.1,34,1.6,-0.959451,-1.68603,0.520946,0.192697,0.866026,0.00907779,-0.11602,-5.96046e-05,0.051558,0.0122076,2.25221,5,0.1,35,1.6,-1.30678,0.663608,0.528831,-0.0247866,-0.275287,-0.00983328,0.0191331,0.0815094,0.00342727,0.0102795,0.117628,5,0.1,36,1.6,3.69248,2.80182,0.557337,0.0283599,-0.866026,0.00738204,-0.00596046,0,-0.00151992,0.0104811,2.27139,5,0.1,37,1.6,-3.36693,-2.91964,0.6142,-0.0433445,-0.294018,-0.0322804,-0.328541,0.0597239,0.0158846,0.00869005,1.36526,5,0.1,38,1.6,-1.4471,0.459919,0.615917,-0.477967,0.648922,0.0263914,0.0631809,0.0301743,-0.000536442,0.00684035,0.921566,5,0.1,39,1.6,1.38543,0.230437,0.726037,-0.180495,0.537309,0.0233158,0.146806,-0.212371,-0.0189543,0.0238973,0.188535,5,0.1
0,1.7,-3.21334,1.28121,0.613535,0.0946078,0.0682417,-0.0134251,-0.489667,-0.054583,0.0107251,0.0367546,0.428902,5,0.1,1,1.7,3.95956,0.158719,0.582547,-0.278658,0.866025,0.00736751,0.019446,8.9407e-07,-0.000536442,0.0184317,2.22287,5,0.1,2,1.7,-1.59099,-2.85277,0.604347,-0.206248,-0.594404,-0.00430923,-0.0557378,0.200555,0.00344217,0.00731135,0.340989,5,0.1,3,1.7,-2.55406,3.29195,0.556356,0.172567,-0.430489,-0.0562721,-0.0907928,0.226468,0.0295751,0.00836339,0.152737,5,0.1,4,1.7,-1.53897,3.1164,0.743995,0.101731,-0.596212,0.073781,-0.408359,-0.125855,-0.024531,0.0135004,2.68376,5,0.1,5,1.7,1.55276,-1.92895,0.622977,-0.439978,0.127922,-0.0228015,0.228494,-0.102334,0.0182278,0.00915231,0.121275,5,0.1,6,1.7,-2.25298,-1.01145,0.727554,0.509816,-0.330206,0.00735642,0.529319,0.241615,-0.113059,0.00964531,0.714065,5,0.1,7,1.7,1.19454,-0.886042,0.588039,-0.866026,-0.0198873,0.0130039,0,0.00102073,-0.000655651,0.0110852,2.27156,5,0.1,8,1.7,-3.25627,-3.22553,0.581048,0.0845671,-0.384192,-0.0421251,-0.372529,-0.166893,-0.036519,0.00735443,0.195922,5,0.1,9,1.7,1.24683,2.72067,0.607631,-0.134767,-0.183686,-0.00842558,0.861436,0.801086,0.0505038,0.00898246,0.512509,5,0.1,10,1.7,-0.845672,-3.22245,0.500003,0.203408,0.866001,6.23055e-05,-0.0466257,-0.000968575,0.00141934,0.0357995,2.24782,5,0.1,11,1.7,3.54725,3.66301,0.578749,-0.497873,-0.211313,0.0210859,0.0271499,0.169054,-0.0168532,0.0128875,0.620412,5,0.1,12,1.7,-0.345756,4.29433,0.640012,-0.50017,-0.0922926,-0.0203801,-0.0237487,-0.215083,-0.0229925,0.0113971,0.294118,5,0.1,13,1.7,0.17213,-3.49874,0.603967,-0.468369,0.28711,-0.00394257,0.374632,-0.106394,0.00313297,0.0106425,0.149594,5,0.1,14,1.7,-1.56673,2.7278,0.588625,0.464814,-0.816425,0.0102445,-0.256635,0.298873,-0.00564754,0.00941971,0.691866,5,0.1,15,1.7,-3.08175,2.71291,0.572579,0.646579,-0.310402,0.0272068,-0.283167,0.248224,-0.021752,0.0164961,0.556682,5,0.1,16,1.7,4.05881,-1.182,0.6505,-0.143498,0.866025,-0.00941027,0.00786781,1.49012e-05,0.000491738,0.0102219,2.25864,5,0.1,17,1.7,3.28564,2.78343,0.596225,-0.141282,0.636023,0.00374531,0.00351667,-0.374585,-0.00298396,0.00907601,0.756821,5,0.1,18,1.7,0.792208,2.99506,0.737314,-0.283934,-0.324274,0.0696358,0.415996,0.906542,0.0651889,0.0137095,0.755872,5,0.1,19,1.7,1.52033,0.913684,0.592316,0.194208,0.0895689,-0.0153665,0.0352263,-0.0381507,-0.00656024,0.0181142,1.10431,5,0.1,20,1.7,3.58699,1.64322,0.582249,-0.367848,0.861662,0.0149388,0.152275,0.0209957,-0.00619888,0.011848,1.08058,5,0.1,21,1.7,-0.327476,-3.33614,0.567632,0.0238384,0.386215,0.0280851,-0.0113342,-0.692278,-0.0133589,0.00993059,1.85966,5,0.1,22,1.7,1.06569,2.83317,0.576763,0.216003,0.0985283,-0.00964589,-0.342377,0.209704,-0.00401586,0.00922757,0.18656,5,0.1,23,1.7,-2.13263,-3.31345,0.730611,0.478727,0.162197,0.0192401,-0.382975,-0.129685,-0.0153892,0.0157584,0.107904,5,0.1,24,1.7,3.53466,-1.97049,0.637066,-0.0235539,0.866025,-0.0103178,0.00117719,1.49012e-05,0.000573695,0.0110286,2.2715,5,0.1,25,1.7,3.72988,-2.57269,0.645705,-0.0680737,0.866026,-0.0111144,0.00271201,0,0.00051409,0.0159307,2.26885,5,0.1,26,1.7,4.17972,0.622688,0.589567,0.0662148,0.463951,0.0268999,-0.0348091,-0.244021,-0.0141636,0.0102345,0.154197,5,0.1,27,1.7,-0.219225,3.92614,0.517384,-0.0746947,-0.263606,-0.0703111,1.20734,-0.139892,0.150114,0.0125345,3.64862,5,0.1,28,1.7,1.24556,0.901486,0.607601,-0.131287,0.3515,-0.0056251,0.220522,0.0083372,-0.000778586,0.0199608,0.171875,5,0.1,29,1.7,0.0104796,2.4765,0.603951,-0.261297,-0.864074,-0.00333106,0.108417,-0.015378,0.00135973,0.00817804,1.16362,5,0.1,30,1.7,1.4954,2.58786,0.628742,-0.389462,-0.210576,-0.0257406,0.320628,-0.0336319,0.0240356,0.0110962,0.21114,5,0.1,31,1.7,-2.19103,-0.640213,0.538622,0.0261948,0.183764,-0.104184,-1.08355,0.110447,0.197053,0.0123111,1.24715,5,0.1,32,1.7,0.76647,-1.50859,0.716244,-0.866026,-0.0593275,0.014151,3.72529e-06,0.00794232,-0.00191107,0.0144314,2.26958,5,0.1,33,1.7,-0.760282,-2.63218,0.607752,0.443013,0.726368,-0.00746064,-0.316396,-0.37761,0.00532717,0.00997177,0.403043,5,0.1,34,1.7,-0.94068,-1.59943,0.522109,0.183284,0.866025,0.0141192,-0.0814982,1.49012e-05,0.0474826,0.0122076,2.25221,5,0.1,35,1.7,-1.30933,0.636176,0.527888,-0.0275416,-0.275695,-0.00881311,-0.0630245,-0.0604056,0.0157431,0.0102795,0.117628,5,0.1,36,1.7,3.6953,2.71522,0.558071,0.0280399,-0.866026,0.00730138,-0.00204146,0,-0.00051409,0.0104811,2.27139,5,0.1,37,1.7,-3.37275,-2.94926,0.611035,-0.0714757,-0.302536,-0.031131,-0.23216,-0.187412,0.00892952,0.00869005,1.36526,5,0.1,38,1.7,-1.49423,0.523003,0.618813,-0.461334,0.59564,0.0336675,0.264734,-0.998482,0.128545,0.00684035,0.921566,5,0.1,39,1.7,1.36808,0.283169,0.728278,-0.166733,0.517467,0.0215391,0.133373,-0.203408,-0.0172183,0.0238973,0.188535,5,0.1
0,1.8,-3.20614,1.28775,0.612247,0.0516236,0.0626177,-0.0123203,-0.364304,-0.059247,0.0116527,0.0373747,0.627653,5,0.1,1,1.8,3.93184,0.245322,0.58328,-0.275087,0.866025,0.00727177,0.0633001,1.43051e-05,-0.00169873,0.0205595,2.22519,5,0.1,2,1.8,-1.61176,-2.91109,0.603933,-0.207621,-0.570333,-0.00395477,0.0320077,0.297546,0.00372529,0.00806255,0.253008,5,0.1,3,1.8,-2.53724,3.24997,0.550869,0.164026,-0.409186,-0.0534907,-0.087738,0.218987,0.02864,0.00805683,0.0880909,5,0.1,4,1.8,-1.53089,3.05603,0.751209,0.0598103,-0.611311,0.0700891,-0.416994,-0.130177,-0.0495315,0.0133503,2.58584,5,0.1,5,1.8,1.50998,-1.91668,0.62079,-0.414726,0.117379,-0.0209227,0.286996,-0.111103,0.0197887,0.00790747,0.149699,5,0.1,6,1.8,-2.19963,-1.04319,0.727749,0.553685,-0.303909,-0.00317097,0.319958,0.288606,-0.0953078,0.00948446,0.51706,5,0.1,7,1.8,1.10794,-0.888023,0.589334,-0.866026,-0.019671,0.0128642,0,0.00417233,-0.00274181,0.00982946,2.27157,5,0.1,8,1.8,-3.24927,-3.26461,0.576687,0.0590146,-0.395381,-0.0447199,-0.157952,-0.0411272,-0.0140667,0.0083454,0.181897,5,0.1,9,1.8,1.23758,2.7062,0.60711,-0.0512868,-0.107205,-0.00148118,0.787437,0.716448,0.0820458,0.00856475,0.4379,5,0.1,10,1.8,-0.825624,-3.13587,0.500014,0.196844,0.865638,0.00013113,-0.089854,-0.00786781,5.96046e-05,0.0381731,2.2732,5,0.1,11,1.8,3.49749,3.64274,0.580772,-0.497752,-0.1939,0.0193492,0.00953674,0.183582,-0.0182986,0.0126128,0.481786,5,0.1,12,1.8,-0.395709,4.28412,0.637874,-0.496663,-0.110757,-0.0222191,0.10927,-0.148058,-0.0128448,0.00951465,0.267733,5,0.1,13,1.8,0.127196,-3.47062,0.603589,-0.429771,0.274444,-0.00361949,0.406764,-0.154257,0.00339746,0.0105878,0.171215,5,0.1,14,1.8,-1.52161,2.64792,0.589619,0.436604,-0.778294,0.00962168,-0.317991,0.476956,-0.00697374,0.00951141,0.533067,5,0.1,15,1.8,-3.01844,2.68313,0.575189,0.619525,-0.284821,0.0249654,-0.287294,0.269413,-0.0236332,0.0162831,0.406417,5,0.1,16,1.8,4.04452,-1.09539,0.649563,-0.141883,0.866026,-0.00930578,0.0302792,-5.96046e-05,0.00196695,0.0125085,2.25916,5,0.1,17,1.8,3.27141,2.84517,0.596585,-0.14416,0.598305,0.00343919,-0.0454187,-0.40102,-0.00327826,0.0106123,0.641245,5,0.1,18,1.8,0.765719,2.96619,0.744456,-0.247306,-0.261497,0.0718296,0.328898,0.401258,-0.0171363,0.0133131,0.566553,5,0.1,19,1.8,1.53931,0.921541,0.590782,0.180224,0.0600353,-0.0149876,-0.283897,-0.491917,0.0127256,0.0210868,1.45473,5,0.1,20,1.8,3.55104,1.72932,0.583709,-0.350142,0.857618,0.0142202,0.210762,-0.137568,-0.00861287,0.0108179,0.774052,5,0.1,21,1.8,-0.325153,-3.3,0.570369,0.0225574,0.345999,0.0265747,-0.0148714,-0.133395,-0.017494,0.00974359,1.58228,5,0.1,22,1.8,1.08576,2.84392,0.575788,0.187105,0.114638,-0.00974536,-0.241041,0.102997,0.00235438,0.0114499,0.300451,5,0.1,23,1.8,-2.08671,-3.29789,0.732457,0.439274,0.148833,0.0176549,-0.415802,-0.140786,-0.0167191,0.0158175,0.360594,5,0.1,24,1.8,3.53231,-1.88388,0.636038,-0.0232935,0.866026,-0.0102013,0.00488758,-5.96046e-05,0.00220537,0.0135103,2.27151,5,0.1,25,1.8,3.7231,-2.48609,0.644598,-0.067395,0.866026,-0.0109985,0.0137091,0,0.00229478,0.0155079,2.26896,5,0.1,26,1.8,4.18618,0.66793,0.59219,0.0629425,0.441001,0.0255674,-0.0338554,-0.236183,-0.0136793,0.00914375,0.0889356,5,0.1,27,1.8,-0.219764,3.8992,0.511129,0.0701748,-0.273877,-0.0546336,1.58563,-0.0537634,0.15977,0.0116226,2.9955,5,0.1,28,1.8,1.23353,0.936731,0.607033,-0.109437,0.353314,-0.00572205,0.215828,0.00438094,-0.000745058,0.0183064,0.105149,5,0.1,29,1.8,-0.0150553,2.39017,0.603626,-0.248704,-0.860423,-0.00317246,0.149943,0.112057,0.00190735,0.00895603,0.849966,5,0.1,30,1.8,1.45796,2.56675,0.626287,-0.359675,-0.210422,-0.023362,0.290573,0.0417233,0.0241101,0.0111835,0.156801,5,0.1,31,1.8,-2.19401,-0.621228,0.529254,-0.0861347,0.19605,-0.0827,-1.11127,0.116974,0.226289,0.0109851,1.02063,5,0.1,32,1.8,0.679867,-1.51448,0.717648,-0.866026,-0.0582129,0.0138834,0,0.0167489,-0.00396371,0.0165671,2.32829,5,0.1,33,1.8,-0.717608,-2.56154,0.607033,0.409779,0.684702,-0.00690073,-0.357449,-0.473022,0.00602007,0.00905105,0.353992,5,0.1,34,1.8,-0.922764,-1.51283,0.52374,0.17481,0.866026,0.0182718,-0.0945628,-5.96046e-05,0.0343323,0.0116419,2.25455,5,0.1,35,1.8,-1.31246,0.608267,0.527098,-0.0354171,-0.282307,-0.00690818,-0.0859499,-0.0504553,0.0213981,0.00998591,0.0631503,5,0.1,36,1.8,3.69808,2.62861,0.558797,0.0276744,-0.866026,0.00720769,-0.0064373,0,-0.00169873,0.0112486,2.27141,5,0.1,37,1.8,-3.38089,-2.98057,0.607968,-0.0895321,-0.324023,-0.0301808,-0.128269,-0.210404,0.0113845,0.0089095,1.16325,5,0.1,38,1.8,-1.53874,0.576541,0.622916,-0.426066,0.466812,0.049001,0.435054,-1.49965,0.164688,0.00845748,0.303893,5,0.1,39,1.8,1.35208,0.333787,0.730345,-0.152993,0.493451,0.0197649,0.144839,-0.289723,-0.0186861,0.0243834,0.126967,5,0.1
0,1.9,-3.20268,1.29373,0.61107,0.0192322,0.0571284,-0.0112406,-0.26077,-0.0522286,0.0102706,0.0373747,0.627653,5,0.1,1,1.9,3.90454,0.331924,0.584001,-0.271588,0.866025,0.0071777,0.0225604,-1.78814e-06,-0.000603497,0.0205595,2.22519,5,0.1,2,1.9,-1.63208,-2.96663,0.603518,-0.196079,-0.539936,-0.00466891,0.18803,0.323474,-0.0155419,0.00806255,0.253008,5,0.1,3,1.9,-2.52122,3.21003,0.545647,0.156553,-0.390536,-0.0510518,-0.068754,0.171617,0.0224411,0.00805683,0.0880909,5,0.1,4,1.9,-1.52705,2.99367,0.757959,0.0168385,-0.639822,0.0647955,-0.428699,-0.375599,-0.0569522,0.0133503,2.58584,5,0.1,5,1.9,1.46992,-1.90541,0.618781,-0.386553,0.108651,-0.0193677,0.286154,-0.0701845,0.0125133,0.00790747,0.149699,5,0.1,6,1.9,-2.14266,-1.07218,0.726968,0.584869,-0.276162,-0.0122671,0.271842,0.272334,-0.0843741,0.00948446,0.51706,5,0.1,7,1.9,1.02134,-0.889977,0.590612,-0.866026,-0.0194654,0.0127286,3.72529e-06,0.00111014,-0.000737607,0.00982946,2.27157,5,0.1,8,1.9,-3.24376,-3.30442,0.572148,0.0547256,-0.400903,-0.0459952,0.0490397,-0.047937,-0.00936538,0.0083454,0.181897,5,0.1,9,1.9,1.23627,2.69875,0.607444,0.0233144,-0.0449553,0.00869865,0.692457,0.525951,0.114571,0.00856475,0.4379,5,0.1,10,1.9,-0.80649,-3.04931,0.500026,0.184851,0.865335,0.000111759,-0.14874,-0.0139773,-0.000394881,0.0381731,2.2732,5,0.1,11,1.9,3.4478,3.62422,0.58262,-0.495049,-0.176892,0.0176534,0.061363,0.161856,-0.016138,0.0126128,0.481786,5,0.1,12,1.9,-0.44486,4.27217,0.63559,-0.486206,-0.129025,-0.0233987,0.118371,-0.200152,-0.0096336,0.00951465,0.267733,5,0.1,13,1.9,0.0861427,-3.44375,0.603243,-0.392086,0.264526,-0.00330405,0.358629,-0.0629574,0.00301376,0.0105878,0.171215,5,0.1,14,1.9,-1.47946,2.57316,0.590548,0.406914,-0.711178,0.00896975,-0.288695,0.817165,-0.00634789,0.00951141,0.533067,5,0.1,15,1.9,-2.95767,2.65592,0.577574,0.597654,-0.25986,0.0227759,-0.182271,0.237569,-0.0208318,0.0162831,0.406417,5,0.1,16,1.9,4.03043,-1.00879,0.648639,-0.140361,0.866025,-0.00920733,0.00849366,1.11759e-05,0.000547618,0.0125085,2.25916,5,0.1,17,1.9,3.25697,2.9032,0.596913,-0.142873,0.563565,0.00313558,0.0606626,-0.31805,-0.00288337,0.0106123,0.641245,5,0.1,18,1.9,0.742427,2.94123,0.751466,-0.220244,-0.244459,0.0675727,0.225127,-0.0110865,-0.064835,0.0133131,0.566553,5,0.1,19,1.9,1.5555,0.92408,0.589213,0.140157,-0.0173651,-0.0175186,-0.48995,-0.980087,-0.0546686,0.0210868,1.45473,5,0.1,20,1.9,3.51702,1.81455,0.58509,-0.330483,0.84775,0.0134176,0.193551,-0.100218,-0.00789016,0.0108179,0.774052,5,0.1,21,1.9,-0.322968,-3.26491,0.572944,0.0211691,0.36516,0.0249411,-0.0135861,0.434086,-0.0159927,0.00974359,1.58228,5,0.1,22,1.9,1.10378,2.85583,0.574827,0.177833,0.122604,-0.0094383,0.0221357,0.0534654,0.00395253,0.0114499,0.300451,5,0.1,23,1.9,-2.04494,-3.28374,0.734222,0.395154,0.133829,0.0183482,-0.466123,-0.158995,0.0251159,0.0158175,0.360594,5,0.1,24,1.9,3.53,-1.79728,0.635025,-0.0230506,0.866025,-0.0100899,0.0013411,1.49012e-05,0.000629574,0.0135103,2.27151,5,0.1,25,1.9,3.7164,-2.39948,0.643505,-0.0667404,0.866026,-0.0108874,0.00338256,0,0.00057742,0.0155079,2.26896,5,0.1,26,1.9,4.19233,0.710982,0.594686,0.0600629,0.420888,0.0244029,-0.0264943,-0.185069,-0.0107139,0.00914375,0.0889356,5,0.1,27,1.9,-0.204044,3.87151,0.506449,0.249403,-0.279859,-0.0391547,1.89896,-0.0512302,0.147887,0.0116226,2.9955,5,0.1,28,1.9,1.22366,0.972187,0.606456,-0.0881122,0.356286,-0.00583977,0.208907,0.0341646,-0.00124425,0.0183064,0.105149,5,0.1,29,1.9,-0.0392166,2.30447,0.603317,-0.234724,-0.854497,-0.00299411,0.137577,0.0509024,0.00175461,0.00895603,0.849966,5,0.1,30,1.9,1.42318,2.54602,0.62406,-0.337991,-0.203077,-0.0212474,0.165321,0.105649,0.0190511,0.0111835,0.156801,5,0.1,31,1.9,-2.20839,-0.60092,0.522146,-0.20249,0.210806,-0.059292,-1.16476,0.159305,0.236344,0.0109851,1.02063,5,0.1,32,1.9,0.593265,-1.52088,0.719026,-0.866026,-0.07546,0.013747,3.72529e-06,-0.31773,0.00019744,0.0165671,2.32829,5,0.1,33,1.9,-0.678167,-2.49531,0.606372,0.380983,0.640806,-0.006341,-0.239693,-0.426129,0.00536442,0.00905105,0.353992,5,0.1,34,1.9,-0.905675,-1.42623,0.525736,0.167545,0.866025,0.0215978,-0.0599362,1.49012e-05,0.0305511,0.0116419,2.25455,5,0.1,35,1.9,-1.31647,0.579737,0.52652,-0.045043,-0.288329,-0.00459058,-0.0997111,-0.0534132,0.0241287,0.00998591,0.0631503,5,0.1,36,1.9,3.70083,2.54201,0.559512,0.0273179,-0.866026,0.00711288,-0.00227988,0,-0.000618398,0.0112486,2.27141,5,0.1,37,1.9,-3.39036,-3.01441,0.604993,-0.098715,-0.355462,-0.0293907,-0.0555813,-0.374794,0.00609457,0.0089095,1.16325,5,0.1,38,1.9,-1.57893,0.615923,0.628776,-0.375404,0.323184,0.0691586,0.566565,-1.35822,0.222761,0.00845748,0.303893,5,0.1,39,1.9,1.33747,0.38176,0.732233,-0.139575,0.46635,0.0180336,0.127696,-0.267955,-0.0164732,0.0243834,0.126967,5,0.1
0,2,-3.20176,1.29919,0.609998,0.00251532,0.0518799,-0.0102073,-0.0659227,-0.053823,0.01055,0.0382719,0.825074,5,0.1,1,2,3.87753,0.418527,0.584715,-0.267863,0.866025,0.00707954,0.0630617,1.43051e-05,-0.00166893,0.0158953,2.22751,5,0.1,2,2,-1.65056,-3.01887,0.602959,-0.172019,-0.503504,-0.00662804,0.283837,0.413418,-0.0216961,0.00714454,0.194207,5,0.1,3,2,-2.50593,3.17187,0.540659,0.149071,-0.371873,-0.0486106,-0.0857115,0.214219,0.0279546,0.00984975,0.0673325,5,0.1,4,2,-1.52743,2.92784,0.764138,-0.0235528,-0.675279,0.0586122,-0.369132,-0.286341,-0.0669956,0.013553,2.47041,5,0.1,5,2,1.43275,-1.89488,0.616903,-0.355896,0.102174,-0.0182137,0.33319,-0.0642538,0.0115037,0.0106046,0.137611,5,0.1,6,2,-2.08311,-1.09843,0.725352,0.602704,-0.248447,-0.019671,0.0631809,0.286043,-0.0621974,0.0102931,0.36001,5,0.1,7,2,0.934733,-0.891915,0.59188,-0.866026,-0.0192493,0.012587,0,0.00402331,-0.0026226,0.00900843,2.27158,5,0.1,8,2,-3.23785,-3.34462,0.567523,0.0647068,-0.40136,-0.0462502,0.132561,0.053525,0.00569224,0.00759224,0.174303,5,0.1,9,2,1.24182,2.69656,0.608893,0.0851393,-0.00221133,0.020209,0.535548,0.329494,0.110388,0.00932764,0.400178,5,0.1,10,2,-0.788836,-2.96301,0.500035,0.167389,0.858486,6.10948e-05,-0.198841,-0.1508,-0.000625849,0.034583,2.32705,5,0.1,11,2,3.3988,3.60734,0.584305,-0.482708,-0.16064,0.0160322,0.196338,0.166893,-0.0166297,0.0107209,0.453904,5,0.1,12,2,-0.492751,4.2583,0.633215,-0.469898,-0.14782,-0.0239581,0.220224,-0.163317,-0.000864267,0.00796037,0.18934,5,0.1,13,2,0.0487254,-3.41759,0.602927,-0.356069,0.258589,-0.00300109,0.3698,-0.0697374,0.00309944,0.0120868,0.136845,5,0.1,14,2,-1.44025,2.50638,0.591413,0.376701,-0.62272,0.00830442,-0.324368,0.921726,-0.00715256,0.0102093,0.5026,5,0.1,15,2,-2.89886,2.63112,0.579747,0.577569,-0.235993,0.0206828,-0.242233,0.244856,-0.0214875,0.0157468,0.290414,5,0.1,16,2,4.01645,-0.92219,0.647722,-0.138748,0.866026,-0.00910163,0.0295639,0,0.00193715,0.0107577,2.25967,5,0.1,17,2,3.24309,2.95794,0.597212,-0.133812,0.530559,0.00284612,0.113368,-0.359178,-0.00295043,0.00913216,0.550083,5,0.1,18,2,0.721443,2.91639,0.757842,-0.200042,-0.254953,0.0594541,0.18847,-0.160575,-0.0947416,0.0135807,0.447758,5,0.1,19,2,1.56692,0.917153,0.587136,0.087139,-0.122553,-0.0243828,-0.548899,-1.0654,-0.0759065,0.0208659,1.20391,5,0.1,20,2,3.48499,1.89862,0.586391,-0.309557,0.83074,0.0125661,0.232458,-0.267923,-0.00944734,0.014182,0.539599,5,0.1,21,2,-0.320921,-3.22585,0.575355,0.0197232,0.418264,0.0232399,-0.0157803,0.565171,-0.0186265,0.0103435,1.26368,5,0.1,22,2,1.12189,2.86825,0.573907,0.185624,0.124907,-0.00892878,0.108123,-0.00917912,0.0063777,0.0106678,0.228076,5,0.1,23,2,-2.00783,-3.27118,0.736215,0.34624,0.117123,0.0217125,-0.510693,-0.174522,0.0379384,0.01397,0.343109,5,0.1,24,2,3.5277,-1.71068,0.634021,-0.0227928,0.866026,-0.00997335,0.00488758,-5.96046e-05,0.00214577,0.0113103,2.27153,5,0.1,25,2,3.70975,-2.31288,0.642421,-0.066036,0.866026,-0.0107706,0.0135899,0,0.00220537,0.0163879,2.26906,5,0.1,26,2,4.19819,0.752103,0.59707,0.0571966,0.400762,0.0232369,-0.0331402,-0.230759,-0.0133514,0.00954566,0.0679813,5,0.1,27,2,-0.169769,3.84337,0.503241,0.432577,-0.281656,-0.0253797,1.69058,0.0255108,0.126243,0.010348,2.54527,5,0.1,28,2,1.21587,1.0079,0.605867,-0.0679702,0.3566,-0.00590831,0.192583,-0.0426173,0.000119209,0.0206729,0.0834179,5,0.1,29,2,-0.0619689,2.21947,0.603027,-0.219857,-0.842696,-0.0028044,0.165155,0.216246,0.00211596,0.00800975,0.600821,5,0.1,30,2,1.39015,2.52635,0.622028,-0.322759,-0.189286,-0.0194028,0.155687,0.169635,0.0184774,0.0118024,0.198914,5,0.1,31,2,-2.23421,-0.5791,0.517377,-0.310302,0.224675,-0.036402,-0.95439,0.104487,0.217319,0.0111647,0.78774,5,0.1,32,2,0.506662,-1.53027,0.720401,-0.866026,-0.113964,0.0137433,0,-0.418365,-0.000983477,0.0136497,2.2794,5,0.1,33,2,-0.641216,-2.43342,0.605765,0.35817,0.595903,-0.00579506,-0.232071,-0.486612,0.00569224,0.0094954,0.245494,5,0.1,34,2,-0.889225,-1.33962,0.528032,0.161244,0.866026,0.0241056,-0.0727177,-5.96046e-05,0.0185072,0.0115525,2.25629,5,0.1,35,2,-1.32145,0.550743,0.526181,-0.0541806,-0.290206,-0.00222623,-0.0782013,0.0271797,0.0225306,0.00949648,0.0295256,5,0.1,36,2,3.70355,2.45541,0.560219,0.0269413,-0.866026,0.00701398,-0.00631809,0,-0.00166893,0.0105004,2.27144,5,0.1,37,2,-3.40039,-3.05181,0.602087,-0.100744,-0.39143,-0.0286728,0.0139475,-0.312567,0.00944734,0.00919097,0.95768,5,0.1,38,2,-1.6135,0.641784,0.636796,-0.314921,0.197648,0.0908241,0.633121,-1.14241,0.198901,0.0104183,1.55398,5,0.1,39,2,1.32415,0.426987,0.733954,-0.126752,0.437231,0.0163779,0.131667,-0.325039,-0.0169575,0.0231552,0.14575,5,0.1
0,2.1,-3.20162,1.30412,0.609026,0.00381991,0.0469377,-0.00923797,0.14028,-0.0464544,0.00911951,0.0382719,0.825074,5,0.1,1,2.1,3.85095,0.505129,0.585417,-0.264381,0.866026,0.00698762,0.0221282,-1.93715e-06,-0.00057742,0.0158953,2.22751,5,0.1,2,2.1,-1.66625,-3.06728,0.602139,-0.14097,-0.465558,-0.0101558,0.329338,0.360981,-0.0448637,0.00714454,0.194207,5,0.1,3,2.1,-2.49139,3.13561,0.535919,0.142052,-0.354331,-0.0463215,-0.0620186,0.154942,0.0202246,0.00984975,0.0673325,5,0.1,4,2.1,-1.53168,2.85836,0.769677,-0.0615215,-0.71797,0.0522715,-0.37501,-0.498489,-0.0609271,0.013553,2.47041,5,0.1,5,2.1,1.3991,-1.88495,0.615133,-0.314944,0.0967128,-0.0172359,0.473455,-0.0494048,0.00884011,0.0106046,0.137611,5,0.1,6,2.1,-2.02253,-1.12191,0.723089,0.608172,-0.22164,-0.0253895,0.0205636,0.255369,-0.0504479,0.0102931,0.36001,5,0.1,7,2.1,0.848131,-0.893828,0.59313,-0.866026,-0.0190591,0.0124633,3.72529e-06,0.000931323,-0.000603497,0.00900843,2.27158,5,0.1,8,2.1,-3.2305,-3.38459,0.562913,0.0840805,-0.398428,-0.0460132,0.234157,0.0259131,0.0015758,0.00759224,0.174303,5,0.1,9,2.1,1.2528,2.69749,0.61149,0.132148,0.0161689,0.0318517,0.402167,0.0470728,0.116725,0.00932764,0.400178,5,0.1,10,2.1,-0.773255,-2.87766,0.500038,0.142834,0.849852,5.30854e-06,-0.282541,-0.0675768,-0.000488013,0.034583,2.32705,5,0.1,11,2.1,3.35207,3.59206,0.58583,-0.446925,-0.145318,0.014505,0.497505,0.143975,-0.0143573,0.0107209,0.453904,5,0.1,12,2.1,-0.53869,4.24266,0.630816,-0.448998,-0.164933,-0.0239844,0.213021,-0.165731,0.00124425,0.00796037,0.18934,5,0.1,13,2.1,0.0148582,-3.39233,0.602642,-0.322116,0.244267,-0.00271583,0.319091,-0.209033,0.00268593,0.0120868,0.136845,5,0.1,14,2.1,-1.40395,2.44883,0.592209,0.351109,-0.52888,0.00764169,-0.208132,0.888422,-0.00634044,0.0102093,0.5026,5,0.1,15,2.1,-2.84215,2.60868,0.581714,0.55749,-0.213509,0.0187101,-0.185147,0.211328,-0.018537,0.0157468,0.290414,5,0.1,16,2.1,4.00267,-0.835587,0.646818,-0.137304,0.866026,-0.00900682,0.00756979,-3.72529e-06,0.000499189,0.0107577,2.25967,5,0.1,17,2.1,3.23045,3.00935,0.597483,-0.11807,0.498662,0.0025752,0.17482,-0.2985,-0.00255182,0.00913216,0.550083,5,0.1,18,2.1,0.702255,2.88973,0.763287,-0.18472,-0.28084,0.049236,0.128172,-0.319362,-0.107426,0.0135807,0.447758,5,0.1,19,2.1,1.57294,0.899356,0.58424,0.0341803,-0.234241,-0.0340953,-0.50056,-1.11742,-0.110157,0.0208659,1.20391,5,0.1,20,2.1,3.45513,1.98048,0.587603,-0.287975,0.806769,0.0116895,0.208452,-0.244215,-0.00846758,0.014182,0.539599,5,0.1,21,2.1,-0.319024,-3.18074,0.577591,0.0182595,0.486992,0.0215124,-0.0140723,0.746399,-0.0165999,0.0103435,1.26368,5,0.1,22,2.1,1.14126,2.88056,0.573051,0.203993,0.119936,-0.00814451,0.230841,-0.0860989,0.00914559,0.0106678,0.228076,5,0.1,23,2.1,-1.97586,-3.26018,0.738658,0.292397,0.10439,0.0277923,-0.558183,-0.0899583,0.0764355,0.01397,0.343109,5,0.1,24,2.1,3.52544,-1.62408,0.63303,-0.0225525,0.866025,-0.00986839,0.0012666,1.49012e-05,0.000555068,0.0113103,2.27153,5,0.1,25,2.1,3.70319,-2.22628,0.641351,-0.0654034,0.866026,-0.0106687,0.00303984,0,0.000476837,0.0163879,2.26906,5,0.1,26,2.1,4.20377,0.791182,0.599336,0.0544883,0.381865,0.0221435,-0.0238717,-0.166919,-0.00965595,0.00954566,0.0679813,5,0.1,27,2.1,-0.117927,3.81528,0.501293,0.603603,-0.280269,-0.013974,1.65245,0.0158995,0.101585,0.010348,2.54527,5,0.1,28,2.1,1.20999,1.04346,0.605275,-0.0498848,0.355422,-0.00594715,0.168331,-0.00254065,-0.000517815,0.0206729,0.0834179,5,0.1,29,2.1,-0.0831741,2.13614,0.602757,-0.204528,-0.824289,-0.00260789,0.148032,0.18765,0.0018999,0.00800975,0.600821,5,0.1,30,2.1,1.35823,2.50825,0.620161,-0.319163,-0.172686,-0.0180958,-0.0482649,0.165761,0.00909716,0.0118024,0.198914,5,0.1,31,2.1,-2.26997,-0.556069,0.514648,-0.403548,0.235977,-0.0197737,-0.871554,0.106793,0.12112,0.0111647,0.78774,5,0.1,32,2.1,0.42006,-1.54339,0.721776,-0.866026,-0.144824,0.0137907,3.57628e-06,-0.204921,0.00106171,0.0136497,2.2794,5,0.1,33,2.1,-0.606404,-2.37613,0.605212,0.339167,0.550945,-0.00527063,-0.164989,-0.430271,0.00495836,0.0094954,0.245494,5,0.1,34,2.1,-0.873388,-1.25302,0.530536,0.156005,0.866025,0.0259367,-0.0410452,1.49012e-05,0.016544,0.0115525,2.25629,5,0.1,35,2.1,-1.32724,0.521907,0.526069,-0.0614217,-0.285813,-4.88013e-05,-0.0628904,0.0688769,0.0205263,0.00949648,0.0295256,5,0.1,36,2.1,3.70622,2.36881,0.560915,0.026596,-0.866026,0.00692215,-0.00216067,0,-0.000573695,0.0105004,2.27144,5,0.1,37,2.1,-3.41028,-3.0928,0.599256,-0.0960384,-0.43018,-0.0280311,0.0766069,-0.419185,0.00496209,0.00919097,0.95768,5,0.1,38,2.1,-1.64176,0.657744,0.646555,-0.250081,0.138239,0.101464,0.652842,-0.139151,0.0242218,0.0104183,1.55398,5,0.1,39,2.1,1.31203,0.469403,0.735519,-0.116333,0.41355,0.015036,0.0839904,-0.176419,-0.0108182,0.0231552,0.14575,5,0.1
0,2.2,-3.2,1.30859,0.608148,0.0336647,0.0423431,-0.0083372,0.439525,-0.0463724,0.00914931,0.0369956,0.971918,5,0.1,1,2.2,3.82466,0.591732,0.586112,-0.260782,0.866026,0.00689477,0.0611544,0,-0.00163913,0.0189384,2.22975,5,0.1,2,2.2,-1.67868,-3.11202,0.600888,-0.107551,-0.428683,-0.0148967,0.332773,0.387073,-0.0469685,0.0090666,0.574052,5,0.1,3,2.2,-2.4775,3.10097,0.531391,0.135416,-0.337774,-0.0441581,-0.0755787,0.188947,0.0246465,0.0102837,0.0301492,5,0.1,4,2.2,-1.53962,2.78418,0.774603,-0.0959367,-0.763077,0.0462398,-0.302494,-0.353813,-0.0604987,0.0131337,2.55408,5,0.1,5,2.2,1.37011,-1.87553,0.613455,-0.263503,0.0915378,-0.0163093,0.544786,-0.0571609,0.0101924,0.00793676,0.196481,5,0.1,6,2.2,-1.96185,-1.14281,0.720329,0.602552,-0.196484,-0.0294775,-0.150144,0.251353,-0.0302196,0.00909396,0.243849,5,0.1,7,2.2,0.761528,-0.895727,0.594372,-0.866026,-0.0188649,0.0123367,0,0.00378489,-0.00247359,0.010538,2.2716,5,0.1,8,2.2,-3.22089,-3.42421,0.55833,0.107902,-0.392646,-0.0455037,0.226974,0.103951,0.0103712,0.00842347,0.171023,5,0.1,9,2.2,1.26778,2.69895,0.615231,0.165123,0.00941753,0.0425637,0.255406,-0.1688,0.0934005,0.00874301,0.329556,5,0.1,10,2.2,-0.760456,-2.79318,0.500037,0.112641,0.837189,-3.57628e-05,-0.31352,-0.217795,-0.000327826,0.0358211,2.36907,5,0.1,11,2.2,3.31021,3.57824,0.587209,-0.387257,-0.131088,0.0130847,0.67699,0.143766,-0.0143349,0.0110948,0.438423,5,0.1,12,2.2,-0.582435,4.22542,0.628433,-0.424746,-0.178719,-0.0235602,0.282288,-0.100374,0.00786781,0.00983473,0.13088,5,0.1,13,2.2,-0.0157763,-3.36912,0.602384,-0.290576,0.218242,-0.00244975,0.318615,-0.30458,0.00268221,0.00848253,0.229889,5,0.1,14,2.2,-1.36983,2.4,0.592941,0.331494,-0.451851,0.0069961,-0.199258,0.650644,-0.00670552,0.00967912,0.39696,5,0.1,15,2.2,-2.78741,2.58837,0.583494,0.536156,-0.192612,0.0168771,-0.259399,0.211,-0.0185072,0.0157409,0.203222,5,0.1,16,2.2,3.989,-0.748984,0.645921,-0.135821,0.866026,-0.0089094,0.0281334,0,0.00187755,0.00948573,2.26013,5,0.1,17,2.2,3.21945,3.05769,0.597728,-0.102812,0.467497,0.00232309,0.117064,-0.338554,-0.0025332,0.00819815,0.468798,5,0.1,18,2.2,0.684393,2.86004,0.767668,-0.17264,-0.312263,0.0383645,0.120908,-0.281096,-0.108212,0.014966,1.60415,5,0.1,19,2.2,1.574,0.870603,0.580279,-0.0113279,-0.33727,-0.0449851,-0.402927,-0.906438,-0.101566,0.0187838,0.536677,5,0.1,20,2.2,3.4274,2.05975,0.588728,-0.266296,0.776386,0.0108108,0.231266,-0.385523,-0.00941753,0.00778597,0.885154,5,0.1,21,2.2,-0.317269,-3.12843,0.579658,0.0168115,0.556648,0.0198036,-0.0153035,0.601053,-0.0180304,0.00944011,0.970111,5,0.1,22,2.2,1.16283,2.89202,0.572286,0.226855,0.10848,-0.0071317,0.205457,-0.139356,0.0109971,0.0106184,0.160741,5,0.1,23,2.2,-1.94944,-3.25012,0.741834,0.236067,0.0974059,0.0357345,-0.561774,-0.0573397,0.0769794,0.00771406,0.516188,5,0.1,24,2.2,3.52319,-1.53747,0.632047,-0.02231,0.866026,-0.00976175,0.00476837,-5.96046e-05,0.00202656,0.0119657,2.27154,5,0.1,25,2.2,3.69667,-2.13968,0.640288,-0.0647485,0.866026,-0.0105649,0.0127554,0,0.00208616,0.0151357,2.26916,5,0.1,26,2.2,4.2091,0.828508,0.601501,0.0519395,0.364026,0.0211105,-0.0290871,-0.203669,-0.0117719,0.00993274,0.030441,5,0.1,27,2.2,-0.0498885,3.78741,0.500361,0.749907,-0.276166,-0.00509769,1.21955,0.0754595,0.0758767,0.0122316,2.32378,5,0.1,28,2.2,1.2058,1.07891,0.604679,-0.0344306,0.352433,-0.00594854,0.14025,-0.0723004,0.00077486,0.0190298,0.106487,5,0.1,29,2.2,-0.102871,2.05485,0.602506,-0.189139,-0.799131,-0.00241101,0.164263,0.339985,0.00211596,0.00793221,0.41467,5,0.1,30,2.2,1.32597,2.49183,0.618391,-0.326216,-0.155586,-0.0173315,-0.0662804,0.178456,0.00721216,0.0110026,0.123913,5,0.1,31,2.2,-2.31429,-0.532032,0.513158,-0.478029,0.243536,-0.0111014,-0.591397,0.0341237,0.0572205,0.0099427,0.572242,5,0.1,32,2.2,0.333457,-1.55859,0.723158,-0.866025,-0.156179,0.0138059,-1.43051e-05,-0.0283122,-0.00137091,0.0140625,2.27184,5,0.1,33,2.2,-0.573316,-2.32321,0.60471,0.32226,0.50686,-0.00477731,-0.185251,-0.463605,0.00506639,0.0088075,0.169099,5,0.1,34,2.2,-0.858001,-1.16642,0.533198,0.151494,0.866026,0.0271499,-0.0556409,0,0.00664592,0.0111197,2.2576,5,0.1,35,2.2,-1.33365,0.493793,0.52616,-0.0661433,-0.275113,0.00179708,-0.0290871,0.150099,0.0160635,0.00795242,0.388106,5,0.1,36,2.2,3.70887,2.2822,0.561604,0.0262439,-0.866026,0.00682771,-0.00607967,0,-0.00154972,0.00970285,2.27146,5,0.1,37,2.2,-3.41942,-3.1378,0.596481,-0.0860929,-0.467819,-0.0274092,0.118971,-0.302553,0.00858307,0.00812518,0.757485,5,0.1,38,2.2,-1.66355,0.671893,0.656605,-0.186273,0.15305,0.0975862,0.61506,0.361085,-0.0929534,0.0115437,0.318464,5,0.1,39,2.2,1.30079,0.509934,0.736973,-0.108689,0.397126,0.0140518,0.0742674,-0.172377,-0.00959635,0.0218489,0.126251,5,0.1
0,2.3,-3.19366,1.3126,0.607357,0.0993371,0.0381161,-0.00750329,0.810087,-0.0393838,0.00777096,0.0369956,0.971918,5,0.1,1,2.3,3.79878,0.678334,0.586796,-0.257429,0.866026,0.0068048,0.0210702,-3.72529e-06,-0.000558794,0.0189384,2.22975,5,0.1,2,2.3,-1.68774,-3.15328,0.599172,-0.0736779,-0.399096,-0.0192774,0.331618,0.230581,-0.0392124,0.0090666,0.574052,5,0.1,3,2.3,-2.46433,3.06812,0.527096,0.128,-0.319245,-0.04174,-0.0765473,0.191167,0.0249669,0.0102837,0.0301492,5,0.1,4,2.3,-1.5504,2.70702,0.778794,-0.116607,-0.77155,0.0364999,-0.118397,0.156552,-0.126105,0.0131337,2.55408,5,0.1,5,2.3,1.34653,-1.86662,0.611868,-0.207882,0.0868784,-0.0154784,0.558808,-0.040628,0.00724941,0.00793676,0.196481,5,0.1,6,2.3,-1.90232,-1.16127,0.717242,0.58768,-0.173311,-0.0321161,-0.168219,0.216663,-0.0211895,0.00909396,0.243849,5,0.1,7,2.3,0.674926,-0.897602,0.595599,-0.866026,-0.0186956,0.012226,3.72529e-06,0.000737607,-0.000484288,0.010538,2.2716,5,0.1,8,2.3,-3.20883,-3.46306,0.553807,0.134376,-0.384931,-0.0451108,0.282049,0.0697225,0.000532717,0.00842347,0.171023,5,0.1,9,2.3,1.28549,2.69836,0.619978,0.188108,-0.0267427,0.0524712,0.194661,-0.506178,0.0986196,0.00874301,0.329556,5,0.1,10,2.3,-0.750845,-2.71006,0.500032,0.0789742,0.82855,-5.9139e-05,-0.349324,-0.012517,-0.000152737,0.0358211,2.36907,5,0.1,11,2.3,3.27505,3.5658,0.588451,-0.314596,-0.117986,0.0117778,0.759363,0.122011,-0.0121705,0.0110948,0.438423,5,0.1,12,2.3,-0.623567,4.20705,0.626116,-0.398247,-0.188592,-0.0227761,0.260368,-0.0866652,0.00855699,0.00983473,0.13088,5,0.1,13,2.3,-0.0434776,-3.34896,0.60215,-0.265384,0.183913,-0.00223713,0.202184,-0.372872,0.00171736,0.00848253,0.229889,5,0.1,14,2.3,-1.33753,2.35748,0.593609,0.315576,-0.403634,0.00637909,-0.135586,0.349253,-0.00583753,0.00967912,0.39696,5,0.1,15,2.3,-2.73497,2.5701,0.585095,0.513199,-0.173378,0.0151902,-0.220656,0.179157,-0.0157058,0.0157409,0.203222,5,0.1,16,2.3,3.9755,-0.662382,0.645036,-0.134501,0.866026,-0.0088199,0.0064224,-3.72529e-06,0.00045076,0.00948573,2.26013,5,0.1,17,2.3,3.20968,3.10278,0.597949,-0.0943586,0.434219,0.00210777,0.0154078,-0.337139,-0.00187755,0.00819815,0.468798,5,0.1,18,2.3,0.667655,2.8265,0.770967,-0.162699,-0.365716,0.0277003,0.0860803,-0.7094,-0.103556,0.014966,1.60415,5,0.1,19,2.3,1.57078,0.832592,0.575433,-0.0535684,-0.419812,-0.0504505,-0.424094,-0.718951,-0.0129938,0.0187838,0.536677,5,0.1,20,2.3,3.40191,2.13374,0.589819,-0.243644,0.688505,0.0114889,0.226915,-1.28229,0.0191964,0.00778597,0.885154,5,0.1,21,2.3,-0.31566,-3.06963,0.581553,0.0154016,0.619382,0.0181426,-0.0133757,0.604913,-0.0157617,0.00944011,0.970111,5,0.1,22,2.3,1.18668,2.90193,0.571642,0.251029,0.0874858,-0.00563562,0.253536,-0.264809,0.0179783,0.0106184,0.160741,5,0.1,23,2.3,-1.92939,-3.24118,0.746055,0.15893,0.0768792,0.050781,-0.925854,-0.322357,0.203472,0.00771406,0.516188,5,0.1,24,2.3,3.52097,-1.45087,0.631077,-0.0220817,0.866025,-0.00966676,0.00114739,1.49012e-05,0.000454485,0.0119657,2.27154,5,0.1,25,2.3,3.69023,-2.05307,0.639237,-0.0641897,0.866026,-0.0104738,0.00232458,0,0.000372529,0.0151357,2.26916,5,0.1,26,2.3,4.21415,0.863914,0.603554,0.0490904,0.344055,0.0199555,-0.0293255,-0.206042,-0.0119247,0.00993274,0.030441,5,0.1,27,2.3,0.0300525,3.76009,0.5002,0.837707,-0.270518,0.00155997,0.549443,0.0509471,0.0571162,0.0122316,2.32378,5,0.1,28,2.3,1.20301,1.11377,0.604088,-0.0218308,0.344255,-0.0058515,0.111215,-0.102393,0.00136346,0.0190298,0.106487,5,0.1,29,2.3,-0.121011,1.97651,0.602275,-0.173983,-0.767994,-0.0022159,0.144378,0.311919,0.00185892,0.00793221,0.41467,5,0.1,30,2.3,1.29289,2.47714,0.616687,-0.336071,-0.138316,-0.0168089,-0.107512,0.169054,0.00418723,0.0110026,0.123913,5,0.1,31,2.3,-2.36494,-0.507492,0.512243,-0.533216,0.247109,-0.00800407,-0.481874,0.0256095,0.00918284,0.0099427,0.572242,5,0.1,32,2.3,0.246855,-1.57417,0.724534,-0.866025,-0.153811,0.0137226,0,0.0716299,-0.0009574,0.0140625,2.27184,5,0.1,33,2.3,-0.541913,-2.2747,0.604256,0.306459,0.464255,-0.00431454,-0.144463,-0.403285,0.00432506,0.0088075,0.169099,5,0.1,34,2.3,-0.843062,-1.07982,0.53595,0.147761,0.866026,0.0278926,-0.0276938,-3.72529e-06,0.00667199,0.0111197,2.2576,5,0.1,35,2.3,-1.33949,0.467011,0.52616,-0.0429042,-0.260524,-0.0039841,0.439107,0.149477,-0.115719,0.00795242,0.388106,5,0.1,36,2.3,3.71147,2.1956,0.562281,0.025918,-0.866026,0.00674566,-0.00198185,0,-0.000495464,0.00970285,2.27146,5,0.1,37,2.3,-3.42728,-3.18633,0.593771,-0.0698071,-0.504028,-0.0268721,0.1968,-0.378907,0.00375137,0.00812518,0.757485,5,0.1,38,2.3,-1.67925,0.689223,0.665764,-0.129168,0.194948,0.0844309,0.524648,0.445914,-0.162706,0.0115437,0.318464,5,0.1,39,2.3,1.29029,0.548889,0.73833,-0.10119,0.38259,0.0130826,0.0777617,-0.135563,-0.0100546,0.0218489,0.126251,5,0.1
0,2.4,-3.1795,1.31622,0.606645,0.184441,0.0342607,-0.00674278,0.843406,-0.0385046,0.00759959,0.0392469,1.05124,5,0.1,1,2.4,3.77318,0.764937,0.587473,-0.253969,0.866026,0.00671297,0.0588894,0,-0.00154972,0.0182477,2.22633,5,0.1,2,2.4,-1.69353,-3.19212,0.597071,-0.0433505,-0.378072,-0.0224978,0.266731,0.209093,-0.0243187,0.00978554,0.512921,5,0.1,3,2.4,-2.45194,3.03722,0.523055,0.119478,-0.29797,-0.0389606,-0.0965595,0.240684,0.0314713,0.0083467,0.0114905,5,0.1,4,2.4,-1.5624,2.63131,0.781761,-0.12106,-0.736761,0.0224829,0.022471,0.516772,-0.14776,0.012176,2.77875,5,0.1,5,2.4,1.3285,-1.85814,0.610357,-0.153321,0.0826299,-0.0147209,0.525475,-0.0475049,0.00846386,0.00798777,0.193984,5,0.1,6,2.4,-1.84457,-1.17754,0.713948,0.565422,-0.15237,-0.0334904,-0.290751,0.205338,-0.00548363,0.00868618,0.162549,5,0.1,7,2.4,0.588323,-0.899466,0.596817,-0.866026,-0.0185221,0.0121117,0,0.00357628,-0.00229478,0.010141,2.27161,5,0.1,8,2.4,-3.19402,-3.50113,0.549303,0.160784,-0.375414,-0.0448734,0.231147,0.13411,0.0063777,0.00796428,0.169857,5,0.1,9,2.4,1.30511,2.69293,0.625686,0.202474,-0.0832796,0.0612408,0.0865459,-0.587702,0.0724196,0.00987928,0.252953,5,0.1,10,2.4,-0.744682,-2.62732,0.500025,0.0446215,0.824779,-6.85453e-05,-0.329763,-0.104308,0,0.036195,2.34788,5,0.1,11,2.4,3.24741,3.5546,0.589569,-0.238407,-0.106049,0.0105858,0.751257,0.119448,-0.0119209,0.0110684,0.26321,5,0.1,12,2.4,-0.662042,4.18785,0.623887,-0.370543,-0.194299,-0.0217244,0.302285,-0.0207424,0.0129938,0.00893948,0.152104,5,0.1,13,2.4,-0.0690833,-3.33248,0.601934,-0.247185,0.145334,-0.00208318,0.174373,-0.391483,0.00151992,0.0107325,0.209634,5,0.1,14,2.4,-1.30665,2.3186,0.594218,0.301549,-0.375742,0.00579655,-0.15676,0.235915,-0.00599027,0.0111438,0.298129,5,0.1,15,2.4,-2.68483,2.55364,0.586537,0.48849,-0.155842,0.0136524,-0.28801,0.175476,-0.0153482,0.0160004,0.139874,5,0.1,16,2.4,3.9621,-0.575779,0.644157,-0.133145,0.866026,-0.0087291,0.0264645,0,0.00175834,0.0102697,2.26056,5,0.1,17,2.4,3.2,3.14445,0.598151,-0.102454,0.398403,0.00193119,-0.167847,-0.385523,-0.00175834,0.00802259,0.385861,5,0.1,18,2.4,0.651813,2.7862,0.773237,-0.154021,-0.440377,0.0179172,0.0933111,-0.724792,-0.0910163,0.013923,1.28301,5,0.1,19,2.4,1.56338,0.787496,0.570433,-0.0930756,-0.476889,-0.0485614,-0.353277,-0.406295,0.0463128,0.00840723,0.88482,5,0.1,20,2.4,3.3787,2.19532,0.591086,-0.220078,0.536144,0.0139818,0.247717,-1.69277,0.027746,0.0111678,0.468594,5,0.1,21,2.4,-0.314187,-3.00499,0.583288,0.0140533,0.669348,0.0165552,-0.0139028,0.360489,-0.0163913,0.0104503,0.708038,5,0.1,22,2.4,1.21297,2.90925,0.571173,0.273359,0.0583291,-0.00370443,0.175595,-0.306129,0.0199676,0.0138484,0.103485,5,0.1,23,2.4,-1.91835,-3.23533,0.75222,0.0606596,0.0384331,0.0728264,-0.996888,-0.42212,0.221848,0.0113781,0.329352,5,0.1,24,2.4,3.51877,-1.36427,0.630114,-0.021857,0.866026,-0.00956953,0.00452995,-5.96046e-05,0.00187755,0.0156373,2.27156,5,0.1,25,2.4,3.68384,-1.96647,0.638193,-0.0636101,0.866026,-0.0103801,0.0119209,-5.96046e-05,0.00193715,0.0166841,2.26925,5,0.1,26,2.4,4.2189,0.897218,0.605486,0.0458241,0.321122,0.0186265,-0.0369549,-0.25928,-0.0150204,0.0110665,0.0116033,5,0.1,27,2.4,0.115611,3.73334,0.50061,0.864701,-0.263697,0.00631213,0.0264835,0.095129,0.0378788,0.0114667,2.23227,5,0.1,28,2.4,1.20133,1.14757,0.603512,-0.0122458,0.330138,-0.00564456,0.0804663,-0.18698,0.00292063,0.0189056,0.191874,5,0.1,29,2.4,-0.137683,1.90142,0.602062,-0.159331,-0.731847,-0.00202805,0.152476,0.430882,0.00196695,0.00841798,0.281612,5,0.1,30,2.4,1.25884,2.46415,0.615028,-0.343743,-0.121421,-0.0163302,-0.0294447,0.169992,0.00602007,0.010879,0.369725,5,0.1,31,2.4,-2.42029,-0.482746,0.511439,-0.569332,0.246686,-0.00846386,-0.22018,-0.042066,-0.0148714,0.0106042,0.396621,5,0.1,32,2.4,0.160252,-1.58905,0.725898,-0.866025,-0.142649,0.0135034,0,0.1477,-0.0038743,0.0153149,2.27023,5,0.1,33,2.4,-0.512014,-2.23029,0.603845,0.291035,0.423694,-0.0038892,-0.173643,-0.418425,0.00429153,0.0111584,0.115764,5,0.1,34,2.4,-0.828436,-0.993215,0.538763,0.144468,0.866026,0.0282258,-0.0443161,0,-0.00107288,0.0112921,2.25864,5,0.1,35,2.4,-1.34118,0.441757,0.525074,0.0119179,-0.243922,-0.0185072,0.614524,0.187725,-0.162274,0.00932978,0.0514655,5,0.1,36,2.4,3.71405,2.109,0.562953,0.0255823,-0.866026,0.00666082,-0.00572205,0,-0.00149012,0.00953322,2.27267,5,0.1,37,2.4,-3.43322,-3.23846,0.591105,-0.0485122,-0.536281,-0.0263855,0.221252,-0.235558,0.00712276,0.00943792,0.573474,5,0.1,38,2.4,-1.68971,0.710878,0.67333,-0.081712,0.236878,0.0663936,0.423253,0.370026,-0.192016,0.0112552,0.227681,5,0.1,39,2.4,1.28058,0.586416,0.739585,-0.0928104,0.36709,0.0119984,0.0911951,-0.186384,-0.0117719,0.0218021,0.322712,5,0.1
