id,t,px,py,pz,vx,vy,vz,ax,ay,az,planning_time,qp_cost,planning_report,size,id,t,px,py,pz,vx,vy,vz,ax,ay,az,planning_time,qp_cost,planning_report,size,id,t,px,py,pz,vx,vy,vz,ax,ay,az,planning_time,qp_cost,planning_report,size,id,t,px,py,pz,vx,vy,vz,ax,ay,az,planning_time,qp_cost,planning_report,size,id,t,px,py,pz,vx,vy,vz,ax,ay,az,planning_time,qp_cost,planning_report,size,id,t,px,py,pz,vx,vy,vz,ax,ay,az,planning_time,qp_cost,planning_report,size,id,t,px,py,pz,vx,vy,vz,ax,ay,az,planning_time,qp_cost,planning_report,size,id,t,px,py,pz,vx,vy,vz,ax,ay,az,planning_time,qp_cost,planning_report,size,id,t,px,py,pz,vx,vy,vz,ax,ay,az,planning_time,qp_cost,planning_report,size,id,t,px,py,pz,vx,vy,vz,ax,ay,az,planning_time,qp_cost,planning_report,size,id,t,px,py,pz,vx,vy,vz,ax,ay,az,planning_time,qp_cost,planning_report,size,id,t,px,py,pz,vx,vy,vz,ax,ay,az,planning_time,qp_cost,planning_report,size,id,t,px,py,pz,vx,vy,vz,ax,ay,az,planning_time,qp_cost,planning_report,size,id,t,px,py,pz,vx,vy,vz,ax,ay,az,planning_time,qp_cost,planning_report,size,id,t,px,py,pz,vx,vy,vz,ax,ay,az,planning_time,qp_cost,planning_report,size,id,t,px,py,pz,vx,vy,vz,ax,ay,az,planning_time,qp_cost,planning_report,size,id,t,px,py,pz,vx,vy,vz,ax,ay,az,planning_time,qp_cost,planning_report,size,id,t,px,py,pz,vx,vy,vz,ax,ay,az,planning_time,qp_cost,planning_report,size,id,t,px,py,pz,vx,vy,vz,ax,ay,az,planning_time,qp_cost,planning_report,size,id,t,px,py,pz,vx,vy,vz,ax,ay,az,planning_time,qp_cost,planning_report,size
0,0,-0.778764,-1.40485,0.665374,0,0,0,0,0,0,0.0125417,1.16343,5,0.1,1,0,2.30487,-3.43284,0.655739,0,0,0,0,0,0,0.015176,3.51219,5,0.1,2,0,-2.65798,4.58698,0.574171,0,0,0,0,0,0,0.0263188,3.51219,5,0.1,3,0,-4.28846,-3.54446,0.655838,0,0,0,0,0,0,0.0132803,3.51219,5,0.1,4,0,-0.469686,4.97441,0.508922,0,0,0,0,0,0,0.025073,3.5122,5,0.1,5,0,4.4777,-2.26032,0.597682,0,0,0,0,0,0,0.0119445,3.5122,5,0.1,6,0,-3.81289,1.70317,0.595058,0,0,0,0,0,0,0.00945699,3.5122,5,0.1,7,0,0.423277,-4.1672,0.636279,0,0,0,0,0,0,0.0099624,3.5122,5,0.1,8,0,1.74872,-2.60213,0.607845,0,0,0,0,0,0,0.0270216,0.300299,5,0.1,9,0,-3.66057,-4.33588,0.680797,0,0,0,0,0,0,0.0159641,0.534485,5,0.1,10,0,2.22329,-0.313318,0.639924,0,0,0,0,0,0,0.0162494,3.51219,5,0.1,11,0,-3.9717,-5.73573,0.659278,0,0,0,0,0,0,0.0234539,3.5122,5,0.1,12,0,-2.24305,5.37225,0.546573,0,0,0,0,0,0,0.0128191,3.5122,5,0.1,13,0,3.75297,-4.0057,0.681769,0,0,0,0,0,0,0.0232658,3.41047,5,0.1,14,0,-1.69218,-0.65662,0.571341,0,0,0,0,0,0,0.0134542,1.24969,5,0.1,15,0,-3.68278,4.04068,0.580252,0,0,0,0,0,0,0.0100598,0.554853,5,0.1,16,0,-4.69781,4.32302,0.518405,0,0,0,0,0,0,0.0826945,3.5122,5,0.1,17,0,-4.83757,-3.12689,0.547435,0,0,0,0,0,0,0.0478485,1.69772,5,0.1,18,0,0.261735,-5.66741,0.602615,0,0,0,0,0,0,0.0131327,3.51219,5,0.1,19,0,-0.83309,1.75303,0.513615,0,0,0,0,0,0,0.0157568,3.5122,5,0.1
0,0.1,-0.777951,-1.40574,0.665306,0.023078,-0.0250455,-0.00193724,0.410274,-0.445247,-0.0344403,0.0125417,1.16343,5,0.1,1,0.1,2.30618,-3.43122,0.655688,0.0373095,0.0460289,-0.00143899,0.66328,0.818282,-0.0255816,0.015176,3.51219,5,0.1,2,0.1,-2.656,4.58632,0.574191,0.0562172,-0.0187606,0.00057891,0.999406,-0.333548,0.0102893,0.0263188,3.51219,5,0.1,3,0.1,-4.28654,-3.54365,0.655793,0.0545286,0.0231892,-0.00130199,0.96938,0.412256,-0.023149,0.0132803,3.51219,5,0.1,4,0.1,-0.469357,4.97235,0.508897,0.00933683,-0.0585243,-0.000714697,0.16599,-1.0404,-0.0127032,0.025073,3.5122,5,0.1,5,0.1,4.47561,-2.26042,0.597684,-0.0591964,-0.00292435,4.85219e-05,-1.05238,-0.0519753,0.000860542,0.0119445,3.5122,5,0.1,6,0.1,-3.8108,1.70313,0.595062,0.0592563,-0.0011405,0.000106078,1.05347,-0.020273,0.00188127,0.00945699,3.5122,5,0.1,7,0.1,0.422858,-4.16515,0.636243,-0.0118873,0.0580549,-0.00101877,-0.211326,1.03211,-0.0181086,0.0099624,3.5122,5,0.1,8,0.1,1.74814,-2.60191,0.607837,-0.0162607,0.00598952,-0.000232551,-0.289075,0.106484,-0.0041388,0.0270216,0.300299,5,0.1,9,0.1,-3.66004,-4.33526,0.680869,0.0151295,0.0173636,0.00205077,0.268981,0.308663,0.0364557,0.0159641,0.534485,5,0.1,10,0.1,2.22129,-0.312726,0.639886,-0.0568237,0.0168096,-0.00109421,-1.01022,0.298837,-0.0194572,0.0162494,3.51219,5,0.1,11,0.1,-3.97136,-5.73367,0.65924,0.00957623,0.0584811,-0.00108797,0.170261,1.03962,-0.0193417,0.0234539,3.5122,5,0.1,12,0.1,-2.24147,5.37089,0.546599,0.0450347,-0.038524,0.000734441,0.800595,-0.684857,0.0130534,0.0128191,3.5122,5,0.1,13,0.1,3.75094,-4.00543,0.68184,-0.0578746,0.00757799,0.00202199,-1.02887,0.134736,0.0359453,0.0232658,3.41047,5,0.1,14,0.1,-1.69261,-0.655778,0.572154,-0.0120856,0.0239034,0.0230747,-0.214845,0.424948,0.410218,0.0134542,1.24969,5,0.1,15,0.1,-3.68348,4.04038,0.580586,-0.0197724,-0.00861436,0.00947546,-0.351518,-0.153124,0.16845,0.0100598,0.554853,5,0.1,16,0.1,-4.69573,4.32282,0.518374,0.0590056,-0.0054881,-0.00088755,1.04898,-0.0975728,-0.0157803,0.0826945,3.5122,5,0.1,17,0.1,-4.838,-3.12551,0.547489,-0.0122219,0.0393219,0.00155754,-0.217259,0.699043,0.0276938,0.0478485,1.69772,5,0.1,18,0.1,0.261572,-5.66533,0.602614,-0.00463091,0.0590861,-2.14204e-05,-0.0823252,1.05047,-0.00037998,0.0131327,3.51219,5,0.1,19,0.1,-0.831829,1.75453,0.514351,0.0357872,0.0423763,0.0208861,0.636213,0.753358,0.371311,0.0157568,3.5122,5,0.1
0,0.2,-0.773263,-1.41082,0.664912,0.0729382,-0.079155,-0.00612289,0.547022,-0.593662,-0.0459254,0.00793436,0.954536,5,0.1,1,0.2,2.31376,-3.42187,0.655396,0.117916,0.145477,-0.00454783,0.884414,1.09088,-0.0341237,0.0175301,2.9258,5,0.1,2,0.2,-2.64458,4.58251,0.574309,0.177675,-0.0592947,0.00182986,1.33252,-0.444651,0.0137389,0.0295319,2.9258,5,0.1,3,0.2,-4.27546,-3.53894,0.655528,0.172329,0.0732839,-0.00411421,1.29271,0.549793,-0.0308752,0.016306,2.92577,5,0.1,4,0.2,-0.467461,4.96046,0.508752,0.0295088,-0.184965,-0.00225902,0.221327,-1.38712,-0.0169575,0.0243648,2.92581,5,0.1,5,0.2,4.46359,-2.26102,0.597694,-0.187087,-0.00924468,0.000153482,-1.40333,-0.0692606,0.00113249,0.0113205,2.92578,5,0.1,6,0.2,-3.79877,1.7029,0.595083,0.187284,-0.00360608,0.000335276,1.40452,-0.0269413,0.0025034,0.0111623,2.92586,5,0.1,7,0.2,0.420444,-4.15336,0.636036,-0.0375703,0.183475,-0.00322014,-0.281751,1.37639,-0.0241399,0.0101364,2.92577,5,0.1,8,0.2,1.74484,-2.6007,0.607789,-0.0513911,0.0189304,-0.000734627,-0.385463,0.141978,-0.00551343,0.0224549,0.581983,5,0.1,9,0.2,-3.65696,-4.33174,0.681286,0.0478208,0.054872,0.00648201,0.358582,0.41151,0.0485778,0.0164785,0.438521,5,0.1,10,0.2,2.20975,-0.309312,0.639664,-0.179589,0.0531271,-0.00345856,-1.34706,0.398442,-0.025928,0.0155982,2.99228,5,0.1,11,0.2,-3.96941,-5.72179,0.659019,0.0302672,0.184822,-0.00343919,0.226974,1.38617,-0.0258088,0.0220876,2.49093,5,0.1,12,0.2,-2.23232,5.36307,0.546748,0.142336,-0.121748,0.00232011,1.0674,-0.913382,0.0174344,0.015054,2.92578,5,0.1,13,0.2,3.73918,-4.0039,0.682251,-0.182915,0.0239491,0.00638962,-1.37174,0.179529,0.0479519,0.0223938,2.79813,5,0.1,14,0.2,-1.69507,-0.650922,0.576841,-0.0381947,0.0755474,0.0729293,-0.28652,0.566572,0.546932,0.0143912,1.02531,5,0.1,15,0.2,-3.68749,4.03863,0.58251,-0.0624895,-0.0272274,0.0299469,-0.468731,-0.204086,0.22459,0.00945236,0.455229,5,0.1,16,0.2,-4.68374,4.32171,0.518194,0.186491,-0.017345,-0.00280589,1.3988,-0.129938,-0.0210106,0.0917828,2.92578,5,0.1,17,0.2,-4.84048,-3.11752,0.547806,-0.0386357,0.124276,0.00492334,-0.28944,0.931978,0.0369251,0.044601,1.3929,5,0.1,18,0.2,0.260631,-5.65333,0.60261,-0.0146359,0.186741,-6.85453e-05,-0.109762,1.40071,-0.000506639,0.0159219,2.92578,5,0.1,19,0.2,-0.82456,1.76313,0.518593,0.113104,0.133932,0.0660107,0.848293,1.00446,0.495076,0.0147188,2.9258,5,0.1
0,0.3,-0.762933,-1.42204,0.664045,0.135688,-0.147255,-0.011391,0.669386,-0.726454,-0.0561923,0.00793436,0.954536,5,0.1,1,0.3,2.33047,-3.40126,0.654751,0.21963,0.270944,-0.00847187,1.08689,1.34076,-0.0419244,0.0175301,2.9258,5,0.1,2,0.3,-2.61941,4.57411,0.574568,0.330929,-0.110435,0.00340948,1.63767,-0.546485,0.0168718,0.0295319,2.9258,5,0.1,3,0.3,-4.25104,-3.52855,0.654945,0.320995,0.13651,-0.00766478,1.58858,0.675589,-0.0379384,0.016306,2.92577,5,0.1,4,0.3,-0.463279,4.93425,0.508432,0.0549631,-0.3445,-0.00420865,0.271998,-1.70481,-0.0208318,0.0243648,2.92581,5,0.1,5,0.3,4.43708,-2.26233,0.597715,-0.348477,-0.017212,0.000284519,-1.72454,-0.0851601,0.00140443,0.0113205,2.92578,5,0.1,6,0.3,-3.77223,1.70242,0.595128,0.34883,-0.005945,0.000552647,1.72637,-0.0196174,0.00182539,0.0111623,2.92586,5,0.1,7,0.3,0.41512,-4.12736,0.635579,-0.069975,0.341763,-0.00599679,-0.346281,1.69134,-0.0296757,0.0101364,2.92577,5,0.1,8,0.3,1.73725,-2.59802,0.607685,-0.104497,0.035217,-0.001367,-0.629708,0.173733,-0.00674278,0.0224549,0.581983,5,0.1,9,0.3,-3.65019,-4.32397,0.682203,0.0889566,0.10208,0.0120556,0.438824,0.50357,0.0594631,0.0164785,0.438521,5,0.1,10,0.3,2.18509,-0.301783,0.639174,-0.311942,0.0989518,-0.00644084,-1.2551,0.48968,-0.0318736,0.0155982,2.99228,5,0.1,11,0.3,-3.96523,-5.69647,0.658508,0.0532974,0.319596,-0.0070679,0.224307,1.26538,-0.0434555,0.0220876,2.49093,5,0.1,12,0.3,-2.21215,5.34581,0.547077,0.2651,-0.226788,0.00432441,1.31187,-1.12236,0.0214092,0.015054,2.92578,5,0.1,13,0.3,3.71327,-4.0005,0.683156,-0.340272,0.0445463,0.0118893,-1.67862,0.219733,0.0586659,0.0223938,2.79813,5,0.1,14,0.3,-1.70047,-0.640222,0.58717,-0.0710599,0.140541,0.135669,-0.35058,0.693321,0.669293,0.0143912,1.02531,5,0.1,15,0.3,-3.69635,4.03478,0.586752,-0.116257,-0.0506409,0.0557105,-0.573561,-0.249773,0.274833,0.00945236,0.455229,5,0.1,16,0.3,-4.65732,4.31925,0.517797,0.347362,-0.032296,-0.00522323,1.71906,-0.15977,-0.0258386,0.0917828,2.92578,5,0.1,17,0.3,-4.84595,-3.09992,0.548503,-0.0718467,0.231186,0.00915891,-0.354379,1.14051,0.045184,0.044601,1.3929,5,0.1,18,0.3,0.258557,-5.62686,0.6026,-0.0272597,0.347833,-0.000126846,-0.1349,1.72135,-0.000625849,0.0159219,2.92578,5,0.1,19,0.3,-0.808532,1.78211,0.527947,0.210665,0.249454,0.122949,1.04253,1.23447,0.608441,0.0147188,2.9258,5,0.1
0,0.4,-0.746076,-1.44033,0.66263,0.200109,-0.217167,-0.0167996,0.590563,-0.640929,-0.0495613,0.00856884,0.755239,5,0.1,1,0.4,2.35778,-3.36757,0.653698,0.324351,0.400126,-0.0125125,0.961065,1.18566,-0.0370443,0.0184747,2.51008,5,0.1,2,0.4,-2.57826,4.56038,0.574992,0.48871,-0.16309,0.0050351,1.44815,-0.483274,0.0149012,0.0274561,2.51008,5,0.1,3,0.4,-4.21113,-3.51158,0.653992,0.474048,0.201601,-0.0113189,1.40476,0.597358,-0.0335574,0.0133009,2.51004,5,0.1,4,0.4,-0.456446,4.89142,0.507909,0.0811696,-0.508749,-0.00621527,0.24049,-1.50752,-0.0184178,0.0277552,2.51324,5,0.1,5,0.4,4.39375,-2.26447,0.597751,-0.514638,-0.0254154,0.000418723,-1.52469,-0.0753403,0.0012815,0.0138811,2.51538,5,0.1,6,0.4,-3.72886,1.70174,0.595191,0.515169,-0.0074923,0.000697374,1.52636,-0.0113249,0.00101328,0.0124021,2.5157,5,0.1,7,0.4,0.40642,-4.08487,0.634834,-0.103338,0.50472,-0.00885576,-0.306189,1.49536,-0.0262558,0.0096305,2.51202,5,0.1,8,0.4,1.72357,-2.59364,0.607515,-0.169098,0.0519395,-0.00201613,-0.626802,0.153303,-0.00596046,0.0238549,0.469339,5,0.1,9,0.4,-3.63914,-4.31128,0.683701,0.13119,0.150537,0.0177786,0.387073,0.444412,0.0524521,0.0176498,0.346965,5,0.1,10,0.4,2.14808,-0.289481,0.638373,-0.422972,0.146131,-0.00951141,-0.934243,0.432968,-0.028193,0.0175537,2.96231,5,0.1,11,0.4,-3.95885,-5.65868,0.657577,0.0735343,0.430489,-0.0115499,0.173807,0.921726,-0.0436902,0.024737,2.38925,5,0.1,12,0.4,-2.17919,5.31762,0.547615,0.391495,-0.33493,0.00638664,1.15991,-0.99206,0.0188947,0.0159162,2.51007,5,0.1,13,0.4,3.671,-3.99497,0.684633,-0.501823,0.0656962,0.0175342,-1.48106,0.193834,0.0517666,0.0249981,2.59529,5,0.1,14,0.4,-1.7093,-0.622763,0.604024,-0.104797,0.207265,0.200081,-0.309289,0.611693,0.590473,0.0154575,0.811236,5,0.1,15,0.4,-3.71079,4.02848,0.593673,-0.171453,-0.0746846,0.0821605,-0.505924,-0.220537,0.242472,0.011529,0.360182,5,0.1,16,0.4,-4.61413,4.31524,0.517147,0.512981,-0.0476956,-0.00771284,1.51992,-0.141382,-0.0228584,0.0892331,2.51601,5,0.1,17,0.4,-4.85488,-3.0712,0.549641,-0.105953,0.340945,0.0135079,-0.312567,1.00636,0.0398457,0.0444213,1.10208,5,0.1,18,0.4,0.255168,-5.58362,0.602584,-0.040257,0.513673,-0.000187755,-0.119284,1.52206,-0.000536442,0.0131287,2.515,5,0.1,19,0.4,-0.782341,1.81313,0.543233,0.311111,0.368392,0.181571,0.921756,1.09154,0.537962,0.0162223,2.51008,5,0.1
0,0.5,-0.723059,-1.46531,0.660698,0.260028,-0.282194,-0.0218283,0.578418,-0.627726,-0.048548,0.00856884,0.755239,5,0.1,1,0.5,2.39515,-3.32146,0.652257,0.423245,0.522133,-0.0163248,0.965983,1.19174,-0.0372455,0.0184747,2.51008,5,0.1,2,0.5,-2.52195,4.54158,0.575572,0.637727,-0.212821,0.00656862,1.45553,-0.485748,0.0149831,0.0274561,2.51008,5,0.1,3,0.5,-4.1565,-3.48835,0.652687,0.618596,0.263069,-0.0147716,1.41186,0.600398,-0.0337176,0.0133009,2.51004,5,0.1,4,0.5,-0.447092,4.83298,0.507192,0.105917,-0.658717,-0.00811024,0.241727,-1.42172,-0.0185035,0.0277552,2.51324,5,0.1,5,0.5,4.33468,-2.2674,0.597799,-0.664826,-0.0331677,0.000550039,-1.4109,-0.0757277,0.00127405,0.0138811,2.51538,5,0.1,6,0.5,-3.66973,1.70094,0.595266,0.665383,-0.0084335,0.000781659,1.40993,-0.00723451,0.000644475,0.0124021,2.5157,5,0.1,7,0.5,0.394512,-4.02685,0.633813,-0.134846,0.654513,-0.0115573,-0.307765,1.42899,-0.0263825,0.0096305,2.51202,5,0.1,8,0.5,1.70337,-2.58767,0.607283,-0.235487,0.0674926,-0.00262046,-0.665389,0.150114,-0.00583008,0.0238549,0.469339,5,0.1,9,0.5,-3.62405,-4.29397,0.685746,0.170465,0.195625,0.0231011,0.37916,0.435233,0.0513867,0.0176498,0.346965,5,0.1,10,0.5,2.10242,-0.272643,0.637277,-0.478559,0.190644,-0.0124098,-0.227928,0.434458,-0.0282861,0.0175537,2.96231,5,0.1,11,0.5,-3.95064,-5.61231,0.656193,0.0902236,0.484986,-0.0161925,0.152826,0.204057,-0.046663,0.024737,2.38925,5,0.1,12,0.5,-2.13408,5.27902,0.548351,0.510856,-0.43702,0.00833133,1.1659,-0.997245,0.0189953,0.0159162,2.51007,5,0.1,13,0.5,3.61336,-3.98674,0.68654,-0.649732,0.104433,0.0196728,-1.40864,0.528872,-0.00465289,0.0249981,2.59529,5,0.1,14,0.5,-1.72136,-0.598922,0.627039,-0.136176,0.269327,0.259991,-0.302903,0.599105,0.578333,0.0154575,0.811236,5,0.1,15,0.5,-3.73051,4.01989,0.603123,-0.222785,-0.0970587,0.106762,-0.495538,-0.215948,0.237487,0.011529,0.360182,5,0.1,16,0.5,-4.55524,4.30983,0.516248,0.66302,-0.0596486,-0.0103607,1.41355,-0.0959337,-0.028234,0.0892331,2.51601,5,0.1,17,0.5,-4.86707,-3.03198,0.551195,-0.13767,0.443048,0.017551,-0.306249,0.985608,0.0390261,0.0444213,1.10208,5,0.1,18,0.5,0.250529,-5.52465,0.602563,-0.0525316,0.663836,-0.000243448,-0.119896,1.41272,-0.000551343,0.0131287,2.515,5,0.1,19,0.5,-0.74649,1.85558,0.564156,0.405963,0.480714,0.236929,0.926498,1.09714,0.54073,0.0162223,2.51008,5,0.1
0,0.6,-0.694382,-1.49643,0.65829,0.310786,-0.337279,-0.0260875,0.41607,-0.451624,-0.0349581,0.0100782,0.562257,5,0.1,1,0.6,2.44197,-3.2637,0.650451,0.508863,0.627756,-0.0196263,0.710368,0.876546,-0.0273585,0.0204224,2.21914,5,0.1,2,0.6,-2.4514,4.51804,0.576298,0.766736,-0.255871,0.00789762,1.07038,-0.357389,0.0109673,0.0269883,2.28801,5,0.1,3,0.6,-4.08807,-3.45925,0.651053,0.743735,0.31628,-0.0177607,1.03807,0.441551,-0.0247657,0.0138379,2.25849,5,0.1,4,0.6,-0.435375,4.7606,0.506295,0.127342,-0.781429,-0.00974983,0.177771,-0.985622,-0.0136495,0.0234658,2.32266,5,0.1,5,0.6,4.26178,-2.27107,0.59786,-0.785577,-0.0398815,0.000663102,-0.96035,-0.0556707,0.000923872,0.0122633,2.33382,5,0.1,6,0.6,-3.59679,1.70007,0.595346,0.785965,-0.00890195,0.000824034,0.957727,-0.00190735,0.000149012,0.0118548,2.33501,5,0.1,7,0.6,0.379595,-3.95484,0.632535,-0.162124,0.77855,-0.0138968,-0.226334,1.00374,-0.0193715,0.0102019,2.02648,5,0.1,8,0.6,1.67667,-2.58022,0.606994,-0.296065,0.0806689,-0.00313222,-0.520706,0.108004,-0.00420213,0.0231095,0.357968,5,0.1,9,0.6,-3.60525,-4.27239,0.688294,0.203741,0.233817,0.0276119,0.272751,0.313044,0.0369549,0.0160208,0.258307,5,0.1,10,0.6,2.05425,-0.251558,0.635904,-0.477481,0.229127,-0.0149146,0.210762,0.319056,-0.0207722,0.0174291,2.95825,5,0.1,11,0.6,-3.94094,-5.56373,0.654352,0.102895,0.478065,-0.0204518,0.0957251,-0.310659,-0.0367165,0.0230196,1.87196,5,0.1,12,0.6,-2.07757,5.23068,0.549272,0.614196,-0.525415,0.0100151,0.857353,-0.733137,0.0139773,0.0185825,2.21916,5,0.1,13,0.6,3.54193,-3.97345,0.688421,-0.771928,0.162292,0.0173956,-0.987649,0.588655,-0.0373423,0.023743,2.32397,5,0.1,14,0.6,-1.73637,-0.56922,0.655711,-0.162756,0.321902,0.310741,-0.217915,0.430971,0.41607,0.0138951,0.603945,5,0.1,15,0.6,-3.75508,4.00919,0.614897,-0.266272,-0.116014,0.127603,-0.356436,-0.15533,0.170827,0.0122798,0.268146,5,0.1,16,0.6,-4.48249,4.30347,0.515074,0.784445,-0.0666261,-0.0130355,0.969172,-0.0431538,-0.0239313,0.0845385,2.33207,5,0.1,17,0.6,-4.88225,-2.98312,0.55313,-0.164545,0.52954,0.0209764,-0.220299,0.708938,0.0280738,0.0437278,0.820475,5,0.1,18,0.6,0.244718,-5.45184,0.602536,-0.0631582,0.78491,-0.000292063,-0.0881702,0.964165,-0.00038743,0.0129162,2.33193,5,0.1,19,0.6,-0.701582,1.90876,0.590365,0.488083,0.577959,0.284857,0.681311,0.806749,0.397623,0.014367,2.22103,5,0.1
0,0.7,-0.661259,-1.53238,0.65551,0.350731,-0.380635,-0.0294431,0.359993,-0.390731,-0.0302382,0.0100782,0.562257,5,0.1,1,0.7,2.49646,-3.19649,0.648349,0.58017,0.715741,-0.0223735,0.670806,0.827685,-0.0258461,0.0204224,2.21914,5,0.1,2,0.7,-2.37038,4.49064,0.577144,0.843693,-0.291744,0.00899965,0.477076,-0.337422,0.0103749,0.0269883,2.28801,5,0.1,3,0.7,-4.00925,-3.42538,0.649152,0.825045,0.360602,-0.0202471,0.578716,0.416949,-0.0233948,0.0138379,2.25849,5,0.1,4,0.7,-0.421741,4.67859,0.505268,0.145184,-0.848949,-0.0106513,0.167826,-0.388086,-0.00455603,0.0234658,2.32266,5,0.1,5,0.7,4.17949,-2.27534,0.597931,-0.850401,-0.0454683,0.000755861,-0.363261,-0.0525266,0.000871718,0.0122633,2.33382,5,0.1,6,0.7,-3.51446,1.69917,0.595429,0.850531,-0.009037,0.000834372,0.361025,-0.000484288,3.35276e-05,0.0118548,2.33501,5,0.1,7,0.7,0.362258,-3.87301,0.631049,-0.184205,0.847915,-0.0157873,-0.202384,0.405133,-0.0173263,0.0102019,2.02648,5,0.1,8,0.7,1.64446,-2.57163,0.606661,-0.347296,0.0910368,-0.0035353,-0.476502,0.0934452,-0.00363588,0.0231095,0.357968,5,0.1,9,0.7,-3.58354,-4.24747,0.691236,0.229926,0.263871,0.0311602,0.236005,0.270844,0.0319853,0.0160208,0.258307,5,0.1,10,0.7,2.00841,-0.227044,0.634308,-0.433323,0.260717,-0.0169713,0.579119,0.29349,-0.0191107,0.0174291,2.95825,5,0.1,11,0.7,-3.93019,-5.51821,0.652124,0.111665,0.426021,-0.02407,0.0740141,-0.691891,-0.0337213,0.0230196,1.87196,5,0.1,12,0.7,-2.0118,5.17442,0.550344,0.700261,-0.599016,0.0114181,0.809655,-0.692427,0.0131987,0.0185825,2.21916,5,0.1,13,0.7,3.46068,-3.95401,0.689931,-0.844173,0.228383,0.0124528,-0.458822,0.691324,-0.0583567,0.023743,2.32397,5,0.1,14,0.7,-1.75372,-0.534912,0.68883,-0.183676,0.363277,0.350685,-0.188522,0.372877,0.359975,0.0138951,0.603945,5,0.1,15,0.7,-3.78346,3.99682,0.628497,-0.300492,-0.130926,0.144004,-0.308409,-0.134364,0.147805,0.0122798,0.268146,5,0.1,16,0.7,-4.40027,4.29653,0.513657,0.850052,-0.0726588,-0.0152429,0.369579,-0.0694692,-0.0193082,0.0845385,2.33207,5,0.1,17,0.7,-4.89979,-2.92668,0.555366,-0.185698,0.5976,0.0236719,-0.190675,0.613376,0.0243001,0.0437278,0.820475,5,0.1,18,0.7,0.237955,-5.36958,0.602505,-0.0720078,0.850162,-0.000331551,-0.0832416,0.367343,-0.000372529,0.0129162,2.33193,5,0.1,19,0.7,-0.649383,1.97071,0.62083,0.554743,0.660817,0.32376,0.612598,0.795148,0.357516,0.014367,2.22103,5,0.1
0,0.8,-0.624632,-1.57213,0.652435,0.378954,-0.411266,-0.031814,0.189066,-0.205278,-0.0158846,0.0102864,0.396983,5,0.1,1,0.8,2.55746,-3.12123,0.645997,0.635409,0.783902,-0.0245035,0.402927,0.497103,-0.0154972,0.0185875,1.78436,5,0.1,2,0.8,-2.2845,4.45997,0.57809,0.866026,-0.319529,0.00985414,-0.000119209,-0.202656,0.00625849,0.0256771,2.19547,5,0.1,3,0.8,-3.92463,-3.38747,0.647023,0.859708,0.394934,-0.0221729,0.126362,0.250459,-0.0140667,0.0139523,2.15919,5,0.1,4,0.8,-0.406475,4.59251,0.504193,0.159004,-0.866032,-0.0107005,0.100762,0.000238419,0.00336766,0.0237309,2.25252,5,0.1,5,0.8,4.09336,-2.28012,0.59801,-0.86602,-0.0497937,0.000827014,-0.000238419,-0.0314713,0.000536442,0.0124374,2.27001,5,0.1,6,0.8,-3.42833,1.69827,0.595512,0.866026,-0.00894666,0.000825524,0,0.0025034,-0.000238419,0.00927645,2.27188,5,0.1,7,0.8,0.342952,-3.78698,0.629394,-0.200427,0.866026,-0.0171766,-0.113234,0,-0.00968575,0.00983707,1.53512,5,0.1,8,0.8,1.60761,-2.56212,0.606291,-0.386736,0.0983596,-0.00381917,-0.293553,0.0491142,-0.00193715,0.0218372,0.257906,5,0.1,9,0.8,-3.55952,-4.21992,0.694491,0.248432,0.285101,0.0336692,0.123978,0.142336,0.0167787,0.0180065,0.182381,5,0.1,10,0.8,1.96799,-0.199676,0.632527,-0.376058,0.284575,-0.0185251,0.515401,0.170424,-0.0110567,0.0153698,2.66084,5,0.1,11,0.8,-3.91873,-5.47943,0.649566,0.116765,0.346601,-0.0268713,0.0241995,-0.865698,-0.020951,0.0234317,1.83832,5,0.1,12,0.8,-1.93817,5.11144,0.551545,0.766936,-0.656033,0.0125065,0.486374,-0.41604,0.00789762,0.0136052,2.04194,5,0.1,13,0.8,3.37479,-3.92782,0.690871,-0.866026,0.293308,0.00628382,0,0.576854,-0.0625849,0.019814,1.61245,5,0.1,14,0.8,-1.7729,-0.496974,0.725453,-0.19846,0.392511,0.378908,-0.0988841,0.195816,0.189036,0.0159636,0.426417,5,0.1,15,0.8,-3.81484,3.98315,0.643535,-0.324672,-0.14146,0.155592,-0.162005,-0.0706911,0.0776052,0.00856624,0.255737,5,0.1,16,0.8,-4.31415,4.28893,0.512049,0.866032,-0.0791311,-0.0167474,-0.000238419,-0.054121,-0.0101626,0.0898591,2.26632,5,0.1,17,0.8,-4.91918,-2.86428,0.557838,-0.200653,0.645691,0.0255764,-0.0998974,0.322104,0.0127554,0.0432164,0.579305,5,0.1,18,0.8,0.230384,-5.28347,0.60247,-0.0788622,0.866032,-0.000362098,-0.0499859,-0.000238419,-0.000238419,0.0134539,2.26712,5,0.1,19,0.8,-0.591223,2.04037,0.654774,0.603984,0.727606,0.352499,0.345379,0.50199,0.201583,0.0148793,2.09473,5,0.1
0,0.9,-0.585834,-1.61423,0.649178,0.396087,-0.429866,-0.033253,0.135425,-0.14703,-0.0113733,0.0102864,0.396983,5,0.1,1,0.9,2.62303,-3.04037,0.643468,0.675185,0.831989,-0.0260343,0.353917,0.419378,-0.0136234,0.0185875,1.78436,5,0.1,2,0.9,-2.19789,4.42696,0.579108,0.866024,-0.340466,0.0105009,2.98023e-05,-0.194609,0.00601634,0.0256771,2.19547,5,0.1,3,0.9,-3.83828,-3.34667,0.644732,0.865631,0.420829,-0.0236272,0.0157952,0.240788,-0.0135265,0.0139523,2.15919,5,0.1,4,0.9,-0.390051,4.50591,0.503156,0.169416,-0.866023,-0.00991514,0.0967775,-2.98023e-05,0.0116862,0.0237309,2.25252,5,0.1,5,0.9,4.00676,-2.28526,0.598096,-0.866027,-0.0530377,0.000881776,1.49012e-05,-0.0300705,0.000506639,0.0124374,2.27001,5,0.1,6,0.9,-3.34173,1.69738,0.595594,0.866026,-0.0087278,0.000804942,0,0.00224262,-0.000204891,0.00927645,2.27188,5,0.1,7,0.9,0.322363,-3.70038,0.62763,-0.210901,0.86588,-0.0180727,-0.086017,-0.00581145,-0.00736117,0.00983707,1.53512,5,0.1,8,0.9,1.56751,-2.55205,0.6059,-0.414199,0.102809,-0.00399398,-0.234127,0.0351816,-0.00138208,0.0218372,0.257906,5,0.1,9,0.9,-3.53409,-4.19073,0.697938,0.259667,0.297996,0.0351901,0.0888258,0.101924,0.012029,0.0180065,0.182381,5,0.1,10,0.9,1.93281,-0.170388,0.630621,-0.332094,0.300581,-0.0195642,0.258215,0.134499,-0.00873581,0.0153698,2.66084,5,0.1,11,0.9,-3.90695,-5.44929,0.646777,0.118666,0.255129,-0.0288349,0.00926852,-0.926673,-0.0168011,0.0234317,1.83832,5,0.1,12,0.9,-1.85894,5.04367,0.552837,0.817328,-0.699139,0.0133255,0.469521,-0.401616,0.00763312,0.0136052,2.04194,5,0.1,13,0.9,3.28819,-3.89628,0.691284,-0.865935,0.33132,0.00285227,0.00362098,0.196129,-0.0105724,0.019814,1.61245,5,0.1,14,0.9,-1.79322,-0.456789,0.764245,-0.207421,0.410255,0.396037,-0.0708401,0.140263,0.135399,0.0159636,0.426417,5,0.1,15,0.9,-3.84808,3.96878,0.659621,-0.339352,-0.144812,0.16707,-0.11602,0.00362098,0.134617,0.00856624,0.255737,5,0.1,16,0.9,-4.22755,4.2807,0.510325,0.866023,-0.0855051,-0.0177077,2.98023e-05,-0.0661314,-0.00813231,0.0898591,2.26632,5,0.1,17,0.9,-4.93972,-2.79817,0.560456,-0.20971,0.674878,0.0267325,-0.0716448,0.230715,0.00914186,0.0432164,0.579305,5,0.1,18,0.9,0.222238,-5.19686,0.602432,-0.0840309,0.866023,-0.000387058,-0.0480702,2.98023e-05,-0.000230968,0.0134539,2.26712,5,0.1,19,0.9,-0.529044,2.11509,0.691063,0.639157,0.761014,0.373027,0.320023,0.156611,0.186779,0.0148793,2.09473,5,0.1
0,1,-0.545758,-1.65773,0.645813,0.403024,-0.437397,-0.0338361,-0.00870228,0.00941753,0.000745058,0.00873542,0.269958,5,0.1,1,1,2.69198,-2.9555,0.64081,0.699693,0.860238,-0.0269786,0.109911,0.115752,-0.00423193,0.0166665,1.25931,5,0.1,2,1,-2.11129,4.3921,0.580183,0.866026,-0.354803,0.0109449,0,-0.0777245,0.00238419,0.0211455,2.18756,5,0.1,3,1,-3.75168,-3.30358,0.642313,0.866026,0.438589,-0.0246257,0,0.0960827,-0.00539422,0.0175623,2.02048,5,0.1,4,1,-0.372703,4.41931,0.502232,0.176549,-0.866032,-0.00848323,0.0384748,0.000238419,0.0163913,0.0225719,2.25058,5,0.1,5,1,3.92015,-2.29069,0.598186,-0.866026,-0.0552475,0.000919402,0,-0.0118017,0.000178814,0.0117649,2.26983,5,0.1,6,1,-3.25513,1.69652,0.595673,0.866026,-0.00843704,0.000777841,0,0.0038743,-0.000327826,0.00967907,2.27188,5,0.1,7,1,0.300956,-3.61387,0.625795,-0.215928,0.863701,-0.0185043,-0.0077039,-0.0466108,-0.000625849,0.00907092,1.15948,5,0.1,8,1,1.52516,-2.54165,0.605496,-0.429961,0.104612,-0.00406653,-0.0667572,-0.00226498,0.000119209,0.0203507,0.177895,5,0.1,9,1,-3.50782,-4.16058,0.701498,0.264215,0.303221,0.035806,-0.00560284,-0.00667572,-0.000745058,0.0199207,0.124024,5,0.1,10,1,1.9,-0.139818,0.628631,-0.332811,0.308935,-0.0201061,-0.250936,0.0224149,-0.00146031,0.0180075,2.25323,5,0.1,11,1,-3.89509,-5.42827,0.643826,0.117868,0.167418,-0.0299782,-0.0282526,-0.802755,-0.00506639,0.0212775,2.66223,5,0.1,12,1,-1.77524,4.97207,0.554201,0.852048,-0.728846,0.0138909,0.189126,-0.161648,0.00303984,0.0141087,1.96055,5,0.1,13,1,3.20164,-3.8627,0.691572,-0.864577,0.335062,0.00335127,0.0289679,-0.108957,0.0169277,0.0193633,1.2078,5,0.1,14,1,-1.81421,-0.41528,0.804316,-0.211045,0.41744,0.402974,0.00452995,-0.0090003,-0.00870228,0.016562,0.28998,5,0.1,15,1,-3.88241,3.95443,0.676979,-0.345302,-0.14081,0.179522,0.00751019,0.0754595,0.101775,0.0094586,0.18798,5,0.1,16,1,-4.14095,4.27185,0.508523,0.866032,-0.0911236,-0.0182211,-0.000238419,-0.0407696,-0.00154972,0.0904291,2.26533,5,0.1,17,1,-4.96094,-2.72989,0.563161,-0.213373,0.686699,0.0272006,0.00429153,-0.0149012,-0.000596046,0.0398824,0.393955,5,0.1,18,1,0.213633,-5.11026,0.602393,-0.0875767,0.866032,-0.000403821,-0.0191778,-0.000238419,-8.9407e-05,0.0127312,2.26661,5,0.1,19,1,-0.463825,2.19134,0.729126,0.661572,0.757653,0.38611,0.102147,-0.226736,0.0596046,0.0156184,1.97167,5,0.1
0,1.1,-0.505516,-1.7014,0.642435,0.401258,-0.435481,-0.0336864,-0.0413749,0.0449121,0.0034906,0.00873542,0.269958,5,0.1,1,1.1,2.76249,-2.86914,0.638091,0.709719,0.865001,-0.0273651,0.0596642,-0.0120401,-0.00230968,0.0166665,1.25931,5,0.1,2,1.1,-2.02469,4.35616,0.581292,0.866026,-0.364155,0.0112326,0,-0.0883043,0.00272319,0.0211455,2.18756,5,0.1,3,1.1,-3.66508,-3.25917,0.63982,0.866026,0.449686,-0.0252489,0,0.10094,-0.00566989,0.0175623,2.02048,5,0.1,4,1.1,-0.354819,4.3327,0.50147,0.181235,-0.866023,-0.00673449,0.044696,-2.98023e-05,0.0181384,0.0225719,2.25058,5,0.1,5,1.1,3.83355,-2.29628,0.598279,-0.866026,-0.0566594,0.000941195,0,-0.0132024,0.000208616,0.0117649,2.26983,5,0.1,6,1.1,-3.16852,1.6957,0.59575,0.866026,-0.00812709,0.000752043,0,0.00272691,-0.000227243,0.00967907,2.27188,5,0.1,7,1.1,0.279334,-3.52753,0.623943,-0.216206,0.864097,-0.0185254,0.010414,0.0151247,0.000912696,0.00907092,1.15948,5,0.1,8,1.1,1.48186,-2.5312,0.60509,-0.43532,0.104152,-0.00404585,-0.0230446,-0.0107437,0.000439584,0.0203507,0.177895,5,0.1,9,1.1,-3.48143,-4.1303,0.705073,0.263066,0.301881,0.0356518,-0.0270307,-0.0312328,-0.00365078,0.0199207,0.124024,5,0.1,10,1.1,1.86431,-0.108825,0.626614,-0.390127,0.310502,-0.0202083,-0.801638,-0.00335686,0.000212342,0.0180075,2.25323,5,0.1,11,1.1,-3.88344,-5.41544,0.640805,0.114902,0.0916436,-0.0303912,-0.034824,-0.65583,-0.00197813,0.0212775,2.66223,5,0.1,12,1.1,-1.68933,4.89821,0.555609,0.863747,-0.748857,0.0142691,0.0465438,-0.194043,0.00367686,0.0141087,1.96055,5,0.1,13,1.1,3.11519,-3.83004,0.692035,-0.864896,0.315499,0.00626855,-0.00549853,-0.27366,0.0380129,0.0193633,1.2078,5,0.1,14,1.1,-1.83528,-0.373598,0.844553,-0.210122,0.415611,0.401207,0.0216365,-0.0428464,-0.0413768,0.016562,0.28998,5,0.1,15,1.1,-3.91689,3.9409,0.695491,-0.343784,-0.128402,0.190882,0.0354946,0.165388,0.111941,0.0094586,0.18798,5,0.1,16,1.1,-4.05435,4.26251,0.506718,0.866024,-0.0959203,-0.0176622,4.47035e-05,-0.048399,0.0119582,0.0904291,2.26533,5,0.1,17,1.1,-4.98225,-2.66132,0.565877,-0.212465,0.683682,0.0270806,0.0216961,-0.0705421,-0.00279397,0.0398824,0.393955,5,0.1,18,1.1,0.204761,-5.02366,0.602352,-0.0899244,0.866023,-0.000414997,-0.0225054,2.98023e-05,-0.000111759,0.0127312,2.26661,5,0.1,19,1.1,-0.397094,2.26494,0.768072,0.672793,0.704885,0.392658,0.088807,-0.784829,0.0518188,0.0156184,1.97167,5,0.1
0,1.2,-0.46575,-1.74456,0.639096,0.392306,-0.425765,-0.0329345,-0.147387,0.159979,0.0123978,0.00914484,1.43668,5,0.1,1,1.2,2.83348,-2.78295,0.635354,0.706458,0.855416,-0.0272393,-0.145435,-0.211954,0.00557303,0.0143759,1.03521,5,0.1,2,1.2,-1.93809,4.31942,0.582425,0.866026,-0.368905,0.01138,0,0.00762939,-0.000268221,0.024072,1.86146,5,0.1,3,1.2,-3.57848,-3.21385,0.637275,0.866026,0.454569,-0.0255227,0,-0.0207424,0.00116229,0.0148672,1.54395,5,0.1,4,1.2,-0.336533,4.2461,0.500887,0.183698,-0.866032,-0.00493377,-0.00278652,0.000238419,0.0175238,0.022384,2.45555,5,0.1,5,1.2,3.74695,-2.302,0.598374,-0.866026,-0.0573397,0.000952184,0,0.00166893,-5.96046e-05,0.0117111,2.53721,5,0.1,6,1.2,-3.08192,1.6949,0.595824,0.866026,-0.00782311,0.000725687,0,0.00369549,-0.000327826,0.0101696,2.27189,5,0.1,7,1.2,0.25785,-3.44119,0.622102,-0.212472,0.860435,-0.0182047,0.0697076,-0.111699,0.00599027,0.00946933,0.847229,5,0.1,8,1.2,1.4384,-2.52088,0.604689,-0.431687,0.101829,-0.00395328,0.107169,-0.0382662,0.00149012,0.024379,0.119299,5,0.1,9,1.2,-3.45536,-4.10038,0.708607,0.2572,0.295138,0.0348583,-0.0964403,-0.110865,-0.0130832,0.0191929,0.139946,5,0.1,10,1.2,1.82102,-0.0779156,0.624602,-0.476676,0.306226,-0.0199303,-0.858486,-0.090273,0.00587106,0.0149965,1.7885,5,0.1,11,1.2,-3.87216,-5.40897,0.63777,0.110286,0.0442266,-0.0301704,-0.0600815,-0.269413,0.00721216,0.0239903,3.60993,5,0.1,12,1.2,-1.60295,4.8226,0.55705,0.861624,-0.760102,0.0144824,-0.0879765,0.000476837,-2.98023e-05,0.013348,1.94819,5,0.1,13,1.2,3.02881,-3.80007,0.692864,-0.860989,0.281984,0.0103533,0.100851,-0.388741,0.0410676,0.0245421,0.890271,5,0.1,14,1.2,-1.8561,-0.332409,0.884315,-0.205433,0.406339,0.392257,0.0770688,-0.152633,-0.147402,0.0131279,0.19282,5,0.1,15,1.2,-3.95096,3.92898,0.715065,-0.336111,-0.109071,0.199614,0.126243,0.215054,0.0532269,0.00906139,0.136634,5,0.1,16,1.2,-3.96774,4.25271,0.505028,0.866026,-0.099659,-0.015974,0,-0.0214577,0.0211298,0.0890639,2.26482,5,0.1,17,1.2,-5.0033,-2.59356,0.568561,-0.207746,0.668424,0.0264764,0.0777245,-0.251055,-0.00992417,0.0394501,1.73224,5,0.1,18,1.2,0.195686,-4.93706,0.60231,-0.0911839,0.866032,-0.000420213,0.000983477,-0.000238419,-2.98023e-05,0.0136958,2.26647,5,0.1,19,1.2,-0.329617,2.33088,0.807453,0.673701,0.608724,0.393188,-0.0934756,-1.10197,-0.0545979,0.0112547,1.7045,5,0.1
0,1.3,-0.426695,-1.78655,0.635766,0.393197,-0.415617,-0.0344804,0.118656,0.0682995,-0.0361316,0.00914484,1.43668,5,0.1,1,1.3,2.9023,-2.69889,0.632692,0.660141,0.82146,-0.0256936,-0.735417,-0.46809,0.0241138,0.0143759,1.03521,5,0.1,2,1.3,-1.85148,4.28251,0.583563,0.866026,-0.369385,0.0113925,0,0.00089407,-4.47035e-05,0.024072,1.86146,5,0.1,3,1.3,-3.49188,-3.16846,0.634727,0.865795,0.45315,-0.0254434,-0.00920892,-0.0276268,0.00154972,0.0148672,1.54395,5,0.1,4,1.3,-0.318125,4.16019,0.500477,0.184714,-0.84558,-0.0032885,0.0125635,0.398397,0.0151619,0.022384,2.45555,5,0.1,5,1.3,3.66101,-2.30707,0.598423,-0.846241,-0.038733,-0.000351109,0.388309,0.331834,-0.0231564,0.0117111,2.53721,5,0.1,6,1.3,-2.99532,1.69413,0.595895,0.866026,-0.00754856,0.000701565,0,0.00220537,-0.00019744,0.0101696,2.27189,5,0.1,7,1.3,0.236944,-3.35549,0.620311,-0.205542,0.854567,-0.0176097,0.0757165,-0.0501871,0.00649318,0.00946933,0.847229,5,0.1,8,1.3,1.39577,-2.51088,0.604301,-0.420742,0.0980455,-0.00380613,0.125982,-0.0405461,0.00157952,0.024379,0.119299,5,0.1,9,1.3,-3.42996,-4.07124,0.712049,0.251963,0.289112,0.034148,-0.0260174,-0.0299215,-0.0035204,0.0191929,0.139946,5,0.1,10,1.3,1.76864,-0.0477348,0.622638,-0.573203,0.297224,-0.0193452,-1.00053,-0.0998382,0.00649318,0.0149965,1.7885,5,0.1,11,1.3,-3.86147,-5.40544,0.634803,0.103136,0.0340767,-0.0290202,-0.0830889,0.172585,0.0158846,0.0239903,3.60993,5,0.1,12,1.3,-1.51687,4.74635,0.558502,0.862027,-0.766026,0.0145941,0.0435486,-0.0736415,0.00139698,0.013348,1.94819,5,0.1,13,1.3,2.94297,-3.77389,0.694119,-0.857064,0.240865,0.0148281,0.024423,-0.428021,0.0458509,0.0245421,0.890271,5,0.1,14,1.3,-1.87627,-0.292522,0.92282,-0.197813,0.39125,0.377686,0.0817254,-0.161767,-0.156198,0.0131279,0.19282,5,0.1,15,1.3,-3.98396,3.91919,0.735309,-0.32363,-0.0864681,0.205173,0.133812,0.231907,0.0472739,0.00906139,0.136634,5,0.1,16,1.3,-3.88114,4.2426,0.503549,0.866026,-0.10253,-0.0135143,0,-0.0294149,0.0272803,0.0890639,2.26482,5,0.1,17,1.3,-5.0237,-2.52701,0.57116,-0.200059,0.670277,0.025495,0.0824928,0.20805,-0.0105277,0.0394501,1.73224,5,0.1,18,1.3,0.186545,-4.85045,0.602268,-0.0917529,0.866023,-0.000425801,-0.00706129,2.98023e-05,-5.96046e-05,0.0136958,2.26647,5,0.1,19,1.3,-0.262667,2.38582,0.846526,0.665063,0.487055,0.388143,-0.106297,-1.28429,-0.0620596,0.0112547,1.7045,5,0.1
0,1.4,-0.386657,-1.82775,0.632106,0.407904,-0.407743,-0.0388965,0.140712,0.107467,-0.0467002,0.0101562,1.24971,5,0.1,1,1.4,2.96397,-2.61951,0.630266,0.567734,0.761962,-0.0226453,-1.07443,-0.71919,0.0357926,0.012885,0.917055,5,0.1,2,1.4,-1.76488,4.24569,0.584699,0.866026,-0.365674,0.0112772,-5.96046e-05,0.0855923,-0.00265241,0.0220212,1.42476,5,0.1,3,1.4,-3.40542,-3.12343,0.632198,0.862348,0.445688,-0.0250235,-0.0737906,-0.135183,0.00753999,0.0140504,1.14677,5,0.1,4,1.4,-0.299636,4.07821,0.500219,0.184418,-0.788534,-0.00193417,-0.0258833,0.730753,0.0117719,0.0208268,2.87666,5,0.1,5,1.4,3.57891,-2.30901,0.598254,-0.790066,0.00213981,-0.00317395,0.725508,0.455379,-0.0310838,0.0112985,2.73084,5,0.1,6,1.4,-2.90872,1.69339,0.595964,0.866026,-0.00730753,0.000680983,0,0.00292063,-0.000298023,0.00959637,2.27189,5,0.1,7,1.4,0.216824,-3.27048,0.618587,-0.196197,0.842845,-0.01681,0.115693,-0.215292,0.00995398,0.0120902,0.598898,5,0.1,8,1.4,1.35445,-2.50131,0.60393,-0.404119,0.0931919,-0.00361651,0.215828,-0.058651,0.00226498,0.0203754,0.134097,5,0.1,9,1.4,-3.4049,-4.04248,0.715446,0.248951,0.285637,0.0337407,-0.0470877,-0.0538826,-0.0064075,0.0182969,0.181848,5,0.1,10,1.4,1.70656,-0.0185944,0.620741,-0.66447,0.284583,-0.0185221,-0.773251,-0.15967,0.0103712,0.0201177,1.36006,5,0.1,11,1.4,-3.85161,-5.4,0.631995,0.0936687,0.0858665,-0.026992,-0.106096,0.828266,0.0247061,0.022916,3.16478,5,0.1,12,1.4,-1.43059,4.66956,0.559965,0.861442,-0.7671,0.0146136,-0.0917315,0.0841618,-0.00157952,0.0153945,1.94807,5,0.1,13,1.4,2.85757,-3.75197,0.695822,-0.848138,0.197417,0.0190794,0.186682,-0.436187,0.0372827,0.0181469,1.13619,5,0.1,14,1.4,-1.89559,-0.254304,0.959712,-0.188029,0.371887,0.358991,0.118196,-0.233843,-0.225753,0.0138481,0.126918,5,0.1,15,1.4,-4.01557,3.9117,0.755982,-0.30762,-0.0635862,0.207274,0.193596,0.221968,-0.0125468,0.00921359,0.176851,5,0.1,16,1.4,-3.79454,4.23223,0.502338,0.866026,-0.104439,-0.0106603,0,-0.00405312,0.0291467,0.0864461,2.2647,5,0.1,17,1.4,-5.04324,-2.45872,0.57365,-0.190175,0.696051,0.0242352,0.119448,0.247359,-0.0152588,0.0341743,0.266723,5,0.1,18,1.4,0.177357,-4.76385,0.602225,-0.0916943,0.866032,-0.000427663,0.0119507,-0.000238419,2.98023e-05,0.0118834,2.26654,5,0.1,19,1.4,-0.196894,2.42812,0.884913,0.647919,0.359905,0.378135,-0.254818,-1.22535,-0.148714,0.0121206,1.51614,5,0.1
0,1.5,-0.344918,-1.8675,0.627943,0.428407,-0.383031,-0.0446209,0.233311,0.361733,-0.062298,0.0101562,1.24971,5,0.1,1,1.5,3.01489,-2.54706,0.628207,0.446936,0.685551,-0.0183025,-1.3006,-0.807792,0.049144,0.012885,0.917055,5,0.1,2,1.5,-1.67828,4.20951,0.585815,0.865775,-0.357985,0.0110394,-0.00997633,0.0828207,-0.00255182,0.0220212,1.42476,5,0.1,3,1.5,-3.31925,-3.07949,0.629731,0.862718,0.432982,-0.0243141,0.0300407,-0.135213,0.00755861,0.0140504,1.14677,5,0.1,4,1.5,-0.281261,4.00388,0.500078,0.183432,-0.69094,-0.000946503,-0.00434928,1.15989,0.0079833,0.0208268,2.87666,5,0.1,5,1.5,3.50398,-2.30612,0.597735,-0.704587,0.0585932,-0.00756364,0.965238,0.634626,-0.0527278,0.0112985,2.73084,5,0.1,6,1.5,-2.82211,1.69267,0.596031,0.866026,-0.00711232,0.000660773,0,0.00141561,-0.000145286,0.00959637,2.27189,5,0.1,7,1.5,0.197761,-3.18714,0.616954,-0.185136,0.824536,-0.0158593,0.111206,-0.186697,0.00955164,0.0120902,0.598898,5,0.1,8,1.5,1.31486,-2.49222,0.603577,-0.389626,0.0889856,-0.0034539,0.100136,-0.0312775,0.00120699,0.0203754,0.134097,5,0.1,9,1.5,-3.37992,-4.01413,0.718794,0.253186,0.281445,0.0332426,0.102699,-0.0430793,-0.0051111,0.0182969,0.181848,5,0.1,10,1.5,1.63617,0.00889716,0.618939,-0.74287,0.263703,-0.0175294,-0.739396,-0.252461,0.0100285,0.0201177,1.36006,5,0.1,11,1.5,-3.84278,-5.38592,0.629423,0.0829309,0.206478,-0.0244015,-0.108898,1.46967,0.0271834,0.022916,3.16478,5,0.1,12,1.5,-1.34454,4.59299,0.561424,0.861843,-0.766103,0.014597,0.0461191,-0.0180602,0.000372529,0.0153945,1.94807,5,0.1,13,1.5,2.77323,-3.73438,0.697917,-0.841838,0.154768,0.0227959,-0.00341237,-0.413209,0.0350662,0.0181469,1.13619,5,0.1,14,1.5,-1.91383,-0.21824,0.994526,-0.176753,0.349581,0.337458,0.112653,-0.222837,-0.215109,0.0138481,0.126918,5,0.1,15,1.5,-4.04556,3.90641,0.776814,-0.293735,-0.0427548,0.210575,0.103176,0.192091,0.0599325,0.00921359,0.176851,5,0.1,16,1.5,-3.70794,4.22174,0.501417,0.866026,-0.105666,-0.00779526,0,-0.0141263,0.0276752,0.0864461,2.2647,5,0.1,17,1.5,-5.06168,-2.38824,0.576001,-0.178778,0.709639,0.0227801,0.113845,0.0118166,-0.0145324,0.0341743,0.266723,5,0.1,18,1.5,0.168215,-4.67725,0.602182,-0.0913334,0.866023,-0.000428129,0.000608154,2.98023e-05,-1.11759e-05,0.0118834,2.26654,5,0.1,19,1.5,-0.133312,2.45814,0.92202,0.623781,0.243463,0.364048,-0.250069,-1.05831,-0.145935,0.0121206,1.51614,5,0.1
0,1.6,-0.301001,-1.90375,0.623181,0.44837,-0.339767,-0.0504076,0.139996,0.484824,-0.0494421,0.00772001,1.0829,5,0.1,1,1.6,3.05299,-2.48268,0.626631,0.314885,0.600803,-0.0131592,-1.3088,-0.884652,0.0522137,0.0135962,0.876415,5,0.1,2,1.6,-1.59184,4.17422,0.586903,0.862029,-0.346661,0.0106901,-0.0799298,0.15378,-0.00473857,0.0253763,1.07634,5,0.1,3,1.6,-3.233,-3.03698,0.627344,0.859624,0.415921,-0.0233576,-0.128031,-0.216842,0.0121295,0.0117436,0.820963,5,0.1,4,1.6,-0.262974,3.94088,0.500017,0.181755,-0.56712,-0.000329316,-0.0365898,1.2722,0.00447035,0.0194708,3.21446,5,0.1,5,1.6,3.43861,-2.29705,0.596706,-0.600564,0.122225,-0.0130177,1.09887,0.608563,-0.0533462,0.0137123,2.62978,5,0.1,6,1.6,-2.73551,1.69196,0.596096,0.866026,-0.00695288,0.00064522,0,0.00214577,-0.000238419,0.0103697,2.27189,5,0.1,7,1.6,0.179834,-3.10581,0.615418,-0.173006,0.799471,-0.0148192,0.135206,-0.339389,0.0115931,0.0104327,0.413284,5,0.1,8,1.6,1.27638,-2.48347,0.603237,-0.379592,0.085938,-0.00333637,0.119448,-0.0337362,0.0013411,0.02502,0.0780077,5,0.1,9,1.6,-3.35403,-3.98627,0.722085,0.264424,0.274807,0.0324577,0.100374,-0.0985861,-0.0116527,0.0156977,0.152278,5,0.1,10,1.6,1.55861,0.0338896,0.617239,-0.802976,0.235109,-0.0164241,-0.424266,-0.314688,0.0124276,0.0132892,0.988138,5,0.1,11,1.6,-3.83504,-5.35764,0.627124,0.0718594,0.359714,-0.0215486,-0.112414,1.50824,0.0298619,0.0235337,2.69147,5,0.1,12,1.6,-1.25825,4.51643,0.562883,0.861552,-0.762832,0.0145361,-0.0895858,0.116348,-0.00217557,0.0110298,1.95229,5,0.1,13,1.6,2.6891,-3.72091,0.700355,-0.838971,0.115395,0.0257581,0.101924,-0.371456,0.022769,0.024867,2.32429,5,0.1,14,1.6,-1.93091,-0.184448,1.02715,-0.164607,0.325555,0.314263,0.133872,-0.264764,-0.255525,0.0120647,0.142613,5,0.1,15,1.6,-4.07444,3.90303,0.798166,-0.283694,-0.0255704,0.216042,0.111818,0.150084,0.0358224,0.0105674,0.258158,5,0.1,16,1.6,-3.62133,4.21112,0.50077,0.866026,-0.10618,-0.00520498,0,0.00858307,0.0238121,0.0842141,2.26481,5,0.1,17,1.6,-5.07897,-2.31769,0.578203,-0.1665,0.69654,0.0212133,0.135422,-0.279903,-0.0172555,0.0336478,0.167655,5,0.1,18,1.6,0.159102,-4.59065,0.602139,-0.0906616,0.866032,-0.000426173,0.0166073,-0.000238419,8.9407e-05,0.0131374,2.26669,5,0.1,19,1.6,-0.0723238,2.47775,0.957614,0.594202,0.154698,0.346786,-0.356421,-0.697613,-0.20802,0.0124998,1.32552,5,0.1
0,1.7,-0.255367,-1.93503,0.617881,0.464547,-0.2844,-0.0555901,0.155254,0.577793,-0.0499561,0.00772001,1.0829,5,0.1,1,1.7,3.07807,-2.42698,0.62559,0.188714,0.513843,-0.00759242,-1.19251,-0.852779,0.057023,0.0135962,0.876415,5,0.1,2,1.7,-1.50608,4.14012,0.587956,0.851781,-0.336771,0.0104123,-0.153847,0.0659227,-0.00155345,0.0253763,1.07634,5,0.1,3,1.7,-3.14751,-2.99642,0.625066,0.850784,0.395516,-0.0222154,-0.0897497,-0.204682,0.0114664,0.0117436,0.820963,5,0.1,4,1.7,-0.244916,3.89075,0.500002,0.179805,-0.435382,-1.27591e-05,-0.0127042,1.27788,0.00202283,0.0194708,3.21446,5,0.1,5,1.7,3.38393,-2.28163,0.595107,-0.494436,0.187036,-0.0191552,1.01875,0.652328,-0.0651665,0.0137123,2.62978,5,0.1,6,1.7,-2.64891,1.69128,0.59616,0.866026,-0.00683069,0.000630971,0,0.000730157,-8.56817e-05,0.0103697,2.27189,5,0.1,7,1.7,0.163177,-3.02744,0.613992,-0.16031,0.768394,-0.0137312,0.123497,-0.311315,0.0105798,0.0104327,0.413284,5,0.1,8,1.7,1.23893,-2.47503,0.60291,-0.369705,0.0830952,-0.00322321,0.0952259,-0.0268966,0.00106171,0.02502,0.0780077,5,0.1,9,1.7,-3.32729,-3.95937,0.725262,0.268421,0.262301,0.0309801,-0.0214279,-0.154093,-0.0182018,0.0156977,0.152278,5,0.1,10,1.7,1.47622,0.0556895,0.615656,-0.843373,0.199922,-0.0152555,-0.340685,-0.373364,0.0113957,0.0132892,0.988138,5,0.1,11,1.7,-3.82839,-5.31366,0.625113,0.0613131,0.522005,-0.0187145,-0.0994503,1.64834,0.0271089,0.0235337,2.69147,5,0.1,12,1.7,-1.17219,4.44041,0.564332,0.861952,-0.759436,0.014475,0.0447333,-0.00166893,5.96046e-05,0.0110298,1.95229,5,0.1,13,1.7,2.60509,-3.71115,0.703456,-0.845694,0.0806917,0.0396627,-0.168055,-0.320956,0.227664,0.024867,2.32429,5,0.1,14,1.7,-1.94682,-0.152994,1.05751,-0.154336,0.305244,0.29466,0.081189,-0.160547,-0.15495,0.0120647,0.142613,5,0.1,15,1.7,-4.10232,3.90114,0.819983,-0.274274,-0.0129089,0.220354,0.0889897,0.103027,0.0384152,0.0105674,0.258158,5,0.1,16,1.7,-3.53473,4.20051,0.50036,0.866026,-0.106251,-0.00309208,0,-0.00369549,0.0183396,0.0842141,2.26481,5,0.1,17,1.7,-5.09497,-2.24995,0.580242,-0.153805,0.65331,0.0195957,0.123024,-0.570804,-0.0156723,0.0336478,0.167655,5,0.1,18,1.7,0.150083,-4.50404,0.602097,-0.0899305,0.866023,-0.000421703,0.00337418,2.98023e-05,2.23517e-05,0.0131374,2.26669,5,0.1,19,1.7,-0.0145988,2.4903,0.991303,0.560693,0.103144,0.327229,-0.332088,-0.288934,-0.193812,0.0124998,1.32552,5,0.1
0,1.8,-0.208301,-1.96071,0.6121,0.474624,-0.231007,-0.0596762,0.0265986,0.466764,-0.028789,0.010758,0.924337,5,0.1,1,1.8,3.09132,-2.37979,0.62511,0.080055,0.430578,-0.00211596,-0.965953,-0.810862,0.0509918,0.0124995,0.853729,5,0.1,2,1.8,-1.42199,4.10677,0.588989,0.826502,-0.329697,0.0102535,-0.370443,0.0908375,-0.00217557,0.0169097,0.810371,5,0.1,3,1.8,-3.06309,-2.95796,0.622905,0.834745,0.372738,-0.0209376,-0.259519,-0.260115,0.0146031,0.014191,0.572038,5,0.1,4,1.8,-0.227029,3.85309,0.500008,0.177457,-0.32413,0.000104308,-0.041537,0.90611,0.000447035,0.0193355,3.28441,5,0.1,5,1.8,3.33942,-2.25983,0.592875,-0.397635,0.24665,-0.025323,0.914216,0.514984,-0.0550747,0.00778912,0.562782,5,0.1,6,1.8,-2.5623,1.6906,0.596223,0.866026,-0.00673234,0.000619888,0,0.00154972,-0.000149012,0.00854985,2.27189,5,0.1,7,1.8,0.147776,-2.9523,0.612672,-0.147504,0.732297,-0.0126347,0.135876,-0.430465,0.0116229,0.00810379,0.994931,5,0.1,8,1.8,1.20251,-2.46686,0.602593,-0.357687,0.0799239,-0.00309795,0.156879,-0.0391006,0.00149012,0.0268431,0.0923911,5,0.1,9,1.8,-3.30076,-3.93402,0.728256,0.260103,0.243634,0.0287756,-0.144124,-0.22006,-0.0259876,0.0153716,0.265174,5,0.1,10,1.8,1.39061,0.0738188,0.614189,-0.863937,0.162955,-0.0140682,-0.0417829,-0.356473,0.0126958,0.0126401,0.692891,5,0.1,11,1.8,-3.82274,-5.25359,0.623374,0.0518024,0.673997,-0.0160798,-0.0913143,1.32728,0.0258088,0.0212106,2.39383,5,0.1,12,1.8,-1.0859,4.36458,0.565777,0.861543,-0.755167,0.014396,-0.0896454,0.12064,-0.00229478,0.0109345,1.9577,5,0.1,13,1.8,2.51968,-3.70459,0.708711,-0.861198,0.0514746,0.0663906,-0.0965595,-0.262499,0.285506,0.0240557,2.3143,5,0.1,14,1.8,-1.96187,-0.123229,1.08624,-0.146699,0.290144,0.280088,0.0785589,-0.155378,-0.149965,0.0112096,0.146089,5,0.1,15,1.8,-4.12926,3.90029,0.842135,-0.263798,-0.00488162,0.221695,0.129461,0.058651,-0.019908,0.00853817,3.95325,5,0.1,16,1.8,-3.44813,4.18989,0.500133,0.866026,-0.105858,-0.00154674,0,0.0162125,0.0125766,0.0815948,2.26504,5,0.1,17,1.8,-5.10973,-2.18786,0.582122,-0.14112,0.585085,0.0179812,0.133276,-0.780582,-0.0170171,0.0332161,0.430046,5,0.1,18,1.8,0.141121,-4.41744,0.602055,-0.0890709,0.866032,-0.000415742,0.0176281,-0.000238419,5.96046e-05,0.0121471,2.26685,5,0.1,19,1.8,0.0397283,2.5,1.02301,0.524707,0.0988245,0.306228,-0.400051,0.177264,-0.233471,0.0130211,1.09487,5,0.1
0,1.9,-0.160661,-1.98167,0.605987,0.478024,-0.191537,-0.0625114,0.0188626,0.271901,-0.0245683,0.010758,0.924337,5,0.1,1,1.9,3.09503,-2.34068,0.625152,-0.00080131,0.352821,0.00290032,-0.655398,-0.741541,0.0477508,0.0124995,0.853729,5,0.1,2,1.9,-1.34123,4.07423,0.590008,0.78791,-0.32115,0.0101354,-0.420928,0.0923276,-0.00077486,0.0169097,0.810371,5,0.1,3,1.9,-2.98079,-2.92192,0.620881,0.81161,0.348441,-0.019573,-0.236332,-0.237003,0.0133142,0.014191,0.572038,5,0.1,4,1.9,-0.209428,3.82463,0.50002,0.174947,-0.253809,0.000113901,-0.0184663,0.400186,-0.00018999,0.0193355,3.28441,5,0.1,5,1.9,3.30507,-2.23306,0.590051,-0.282461,0.284165,-0.0312342,1.32333,0.239328,-0.05937,0.00778912,0.562782,5,0.1,6,1.9,-2.4757,1.68993,0.596284,0.866026,-0.00666305,0.000613276,0,0.00025332,-2.6077e-05,0.00854985,2.27189,5,0.1,7,1.9,0.133356,-2.88063,0.611464,-0.143787,0.70573,-0.0115566,-0.0377577,-0.154525,0.0102818,0.00810379,0.994931,5,0.1,8,1.9,1.16751,-2.45886,0.60229,-0.342225,0.081991,-0.00295257,0.163026,0.0648946,0.00150874,0.0268431,0.0923911,5,0.1,9,1.9,-3.27576,-3.9107,0.731011,0.237238,0.223262,0.0263703,-0.301048,-0.194281,-0.0229366,0.0153716,0.265174,5,0.1,10,1.9,1.30412,0.0883872,0.612842,-0.86454,0.129397,-0.0128893,0.0401884,-0.299117,0.0112653,0.0126401,0.692891,5,0.1,11,1.9,-3.81799,-5.18024,0.621886,0.0436097,0.785619,-0.0137489,-0.07388,0.881314,0.0212118,0.0212106,2.39383,5,0.1,12,1.9,-0.999835,4.28938,0.567212,0.861939,-0.750595,0.0143497,0.0437535,0.0154674,0.000428408,0.0109345,1.9577,5,0.1,13,1.9,2.4333,-3.70067,0.716959,-0.864452,0.0276756,0.0998102,0.031665,-0.212625,0.360057,0.0240557,2.3143,5,0.1,14,1.9,-1.97629,-0.0948631,1.11347,-0.142787,0.278061,0.264135,0.0120997,-0.101204,-0.173964,0.0112096,0.146089,5,0.1,15,1.9,-4.15488,3.90004,0.864072,-0.247745,-0.000659376,0.215731,0.191689,0.0277758,-0.0992529,0.00853817,3.95325,5,0.1,16,1.9,-3.36153,4.17935,0.500031,0.866026,-0.10524,-0.000571832,0,0.00229478,0.00716001,0.0815948,2.26504,5,0.1,17,1.9,-5.12321,-2.1337,0.583839,-0.128768,0.494697,0.016405,0.11763,-0.992015,-0.0150017,0.0332161,0.430046,5,0.1,18,1.9,0.132265,-4.33084,0.602014,-0.0882789,0.866023,-0.000413787,0.00356417,2.98023e-05,3.72529e-06,0.0121471,2.26685,5,0.1,19,1.9,0.0903028,2.51164,1.05253,0.487428,0.141111,0.284472,-0.360859,0.604019,-0.210598,0.0130211,1.09487,5,0.1
0,2,-0.112928,-2,0.599642,0.474606,-0.180376,-0.0640273,-0.102591,-0.0355244,-0.00342727,0.00776674,0.749624,5,0.1,1,2,3.09215,-2.30897,0.625664,-0.0520647,0.282681,0.00717342,-0.376225,-0.660062,0.0366271,0.0132764,0.76024,5,0.1,2,2,-1.26475,4.04266,0.591016,0.73913,-0.309193,0.0100002,-0.5669,0.154972,-0.00235438,0.019773,0.607195,5,0.1,3,2,-2.901,-2.8883,0.618992,0.781894,0.323462,-0.0181705,-0.380397,-0.270247,0.0151992,0.010389,0.390836,5,0.1,4,2,-0.192053,3.8,0.500029,0.172089,-0.250721,7.45058e-05,-0.0456125,-0.30458,-0.000476837,0.0193442,2.99806,5,0.1,5,2,3.28367,-2.20387,0.586649,-0.144655,0.295454,-0.0365496,1.38199,-0.00798702,-0.0442863,0.00611656,0.326219,5,0.1,6,2,-2.3891,1.68926,0.596345,0.866026,-0.00660717,0.000607967,0,0.00113249,-5.96046e-05,0.00936484,2.27189,5,0.1,7,2,0.118663,-2.81074,0.61036,-0.150862,0.692075,-0.0105187,-0.0855958,-0.157952,0.010699,0.00951692,0.55268,5,0.1,8,2,1.13419,-2.45027,0.602003,-0.323313,0.0901639,-0.00278056,0.222266,0.0869036,0.00199676,0.0215309,0.0985242,5,0.1,9,2,-3.25372,-3.88935,0.733533,0.202131,0.203615,0.024052,-0.39053,-0.203371,-0.0240505,0.0158853,0.254812,5,0.1,10,2,1.21814,0.1,0.61161,-0.851369,0.104555,-0.0117481,0.257909,-0.19905,0.0117719,0.0125916,0.47451,5,0.1,11,2,-3.81397,-5.09813,0.620613,0.0367939,0.847864,-0.0117674,-0.0634193,0.363111,0.0187457,0.0216642,2.28537,5,0.1,12,2,-0.913563,4.21452,0.568648,0.861116,-0.74445,0.01432,-0.0981688,0.13876,-0.00169873,0.0095213,2.0936,5,0.1,13,2,2.34731,-3.69888,0.728709,-0.851393,0.00905991,0.13444,0.264168,-0.159264,0.315636,0.0227273,2.62653,5,0.1,14,2,-1.99053,-0.0675736,1.13895,-0.142115,0.267345,0.244522,0.0104904,-0.123775,-0.221252,0.0115157,0.188241,5,0.1,15,2,-4.1786,3.90007,0.88502,-0.225544,0.00103116,0.201957,0.25177,0.0077486,-0.175178,0.00976988,3.95239,5,0.1,16,2,-3.27492,4.16885,0.500003,0.866026,-0.104344,-6.55651e-05,0,0.0200272,0.00318885,0.0814424,2.26534,5,0.1,17,2,-5.1355,-2.0893,0.585405,-0.116956,0.392795,0.0148982,0.121355,-1.02019,-0.0154674,0.0322816,0.408838,5,0.1,18,2,0.123468,-4.24424,0.601972,-0.0874426,0.866032,-0.000409782,0.0169612,-0.000238419,2.98023e-05,0.0156495,2.267,5,0.1,19,2,0.137204,2.52904,1.0799,0.449956,0.208247,0.262603,-0.399053,0.689507,-0.232875,0.0108456,0.866289,5,0.1
0,2.1,-0.0659416,-2.01887,0.593222,0.465035,-0.202181,-0.0643155,-0.107086,-0.35128,0.000357628,0.00776674,0.749624,5,0.1,1,2.1,3.08584,-2.28338,0.626515,-0.0671063,0.234566,0.00939285,0.0395328,-0.332668,0.00948831,0.0132764,0.76024,5,0.1,2,2.1,-1.19328,4.01256,0.592002,0.693348,-0.292292,0.00968333,-0.38591,0.187978,-0.00414997,0.019773,0.607195,5,0.1,3,2.1,-2.82459,-2.85723,0.617247,0.746724,0.298415,-0.0167618,-0.350133,-0.240043,0.0135005,0.010389,0.390836,5,0.1,4,2.1,-0.175013,3.77193,0.500035,0.169057,-0.322635,2.71946e-05,-0.0242358,-1.02121,-0.000461936,0.0193442,2.99806,5,0.1,5,2.1,3.27609,-2.17447,0.582713,-0.00813678,0.291316,-0.042596,1.31336,-0.0796616,-0.0700168,0.00611656,0.326219,5,0.1,6,2.1,-2.3025,1.68861,0.596406,0.866026,-0.00657327,0.000608619,0,-2.98023e-05,3.35276e-05,0.00936484,2.27189,5,0.1,7,2.1,0.102993,-2.74219,0.609359,-0.163624,0.679301,-0.00951951,-0.151171,-0.128403,0.00954047,0.00951692,0.55268,5,0.1,8,2.1,1.10289,-2.44095,0.601735,-0.303015,0.0949532,-0.00259895,0.195071,0.00983477,0.00173599,0.0215309,0.0985242,5,0.1,9,2.1,-3.23555,-3.86996,0.735823,0.160675,0.184337,0.0217729,-0.428528,-0.186637,-0.0220574,0.0158853,0.254812,5,0.1,10,2.1,1.13424,0.10966,0.61049,-0.826315,0.0903741,-0.0106647,0.27243,-0.0952981,0.0102259,0.0125916,0.47451,5,0.1,11,2.1,-3.81058,-5.01223,0.619521,0.0313383,0.864888,-0.0101457,-0.047192,0.0454485,0.0141449,0.0216642,2.28537,5,0.1,12,2.1,-0.827625,4.14165,0.570081,0.859491,-0.705095,0.0144061,0.0142679,0.610262,0.00230223,0.0095213,2.0936,5,0.1,13,2.1,2.26458,-3.69871,0.743807,-0.79382,-0.00501238,0.167776,0.830814,-0.121549,0.331312,0.0227273,2.62653,5,0.1,14,2.1,-2.00476,-0.041254,1.16231,-0.142896,0.260578,0.222931,-0.0163764,-0.0313333,-0.214934,0.0115157,0.188241,5,0.1,15,2.1,-4.19999,3.9002,0.904297,-0.203107,0.00132993,0.183142,0.204444,-0.00101328,-0.201117,0.00976988,3.95239,5,0.1,16,2.1,-3.18832,4.15848,0.500008,0.866026,-0.103384,0.00013737,0,0.00527501,0.00102445,0.0814424,2.26534,5,0.1,17,2.1,-5.14662,-2.0551,0.586822,-0.105812,0.292233,0.0134781,0.104785,-0.955775,-0.0133514,0.0322816,0.408838,5,0.1,18,2.1,0.114771,-4.15763,0.601931,-0.0867241,0.866023,-0.000410248,0.00272691,2.98023e-05,-1.11759e-05,0.0156495,2.267,5,0.1,19,2.1,0.180316,2.55362,1.10506,0.413067,0.285214,0.241076,-0.35157,0.801012,-0.205159,0.0108456,0.866289,5,0.1
0,2.2,-0.0201027,-2.04103,0.586816,0.45013,-0.241941,-0.0635058,-0.20334,-0.406742,0.0176132,0.00925386,0.578913,5,0.1,1,2.2,3.07977,-2.26125,0.627469,-0.0506401,0.21072,0.00938773,0.26083,-0.168204,-0.00810623,0.013012,0.641579,5,0.1,2,2.2,-1.12582,3.98435,0.592945,0.655538,-0.27082,0.00914633,-0.397146,0.24426,-0.00673532,0.0164272,0.449777,5,0.1,3,2.2,-2.7518,-2.8286,0.615639,0.70731,0.273877,-0.0153825,-0.45681,-0.257254,0.0144839,0.0104246,0.263814,5,0.1,4,2.2,-0.158255,3.73414,0.500035,0.165674,-0.435132,-1.49012e-05,-0.049904,-1.1431,-0.00038743,0.020662,2.61596,5,0.1,5,2.2,3.28149,-2.14589,0.578105,0.112045,0.278795,-0.0494048,1.06549,-0.17345,-0.0612736,0.0102169,0.223487,5,0.1,6,2.2,-2.21589,1.68795,0.596467,0.866026,-0.00654161,0.000607967,0,0.000953674,-5.96046e-05,0.00841856,2.27189,5,0.1,7,2.2,0.0858909,-2.67506,0.608454,-0.1779,0.661188,-0.00856668,-0.120845,-0.255227,0.00965595,0.00836389,0.490589,5,0.1,8,2.2,1.0736,-2.43152,0.601484,-0.282389,0.0923932,-0.00241697,0.225186,-0.0593662,0.00199676,0.0234912,0.0799854,5,0.1,9,2.2,-3.22162,-3.85246,0.73789,0.118196,0.165546,0.0195533,-0.413418,-0.192285,-0.0227094,0.016449,0.255039,5,0.1,10,2.2,1.05319,0.11832,0.609475,-0.791997,0.0835923,-0.0096485,0.433385,-0.0486486,0.0103116,0.0110277,0.31945,5,0.1,11,2.2,-3.80767,-4.92565,0.618572,0.0270963,0.866032,-0.00885874,-0.038743,-0.000238419,0.0119507,0.020116,2.27158,5,0.1,12,2.2,-0.741764,4.07471,0.571532,0.855193,-0.62921,0.0145882,-0.136554,0.877142,0.000506639,0.014608,2.26663,5,0.1,13,2.2,2.18991,-3.69975,0.762134,-0.695133,-0.0151694,0.197315,1.10018,-0.0814199,0.245333,0.0212175,2.93366,5,0.1,14,2.2,-2.01911,-0.0153334,1.18351,-0.143725,0.257656,0.200814,0.00691414,-0.0415772,-0.230193,0.0116649,0.162498,5,0.1,15,2.2,-4.21931,3.90032,0.921564,-0.183368,0.000965595,0.161785,0.19598,-0.00560284,-0.225544,0.00803251,3.96524,5,0.1,16,2.2,-3.10172,4.14818,0.500024,0.866026,-0.102246,0.000168383,0,0.0214577,-0.000268221,0.076632,2.26567,5,0.1,17,2.2,-5.15668,-2.03033,0.588104,-0.0954628,0.206918,0.0121593,0.104904,-0.733018,-0.0133514,0.0321224,0.812212,5,0.1,18,2.2,0.106124,-4.07103,0.60189,-0.0859868,0.866032,-0.000408292,0.0158064,-0.000238419,5.96046e-05,0.0134137,2.26714,5,0.1,19,2.2,0.219858,2.586,1.12814,0.37747,0.360018,0.220302,-0.369244,0.659466,-0.21553,0.011116,0.660239,5,0.1
0,2.3,0.0239448,-2.0675,0.580551,0.430944,-0.289046,-0.0617836,-0.195373,-0.497743,0.0190288,0.00925386,0.578913,5,0.1,1,2.3,3.07651,-2.24061,0.628336,-0.0106759,0.205554,0.00769477,0.501335,0.0354946,-0.0239238,0.013012,0.641579,5,0.1,2,2.3,-1.06191,3.95847,0.593825,0.625199,-0.246987,0.0084348,-0.24534,0.237286,-0.00757724,0.0164272,0.449777,5,0.1,3,2.3,-2.68322,-2.80242,0.614169,0.664913,0.250205,-0.0140499,-0.413582,-0.224039,0.0126064,0.0104246,0.263814,5,0.1,4,2.3,-0.14188,3.68431,0.500032,0.162178,-0.565053,-4.48897e-05,-0.0287378,-1.36542,-0.000216067,0.020662,2.61596,5,0.1,5,2.3,3.29775,-2.11885,0.572807,0.210031,0.262122,-0.0568998,0.873953,-0.167802,-0.0814684,0.0102169,0.223487,5,0.1,6,2.3,-2.12929,1.6873,0.596528,0.866026,-0.00652149,0.000608526,0,-0.00013411,2.98023e-05,0.00841856,2.27189,5,0.1,7,2.3,0.0672616,-2.61012,0.607644,-0.19638,0.637888,-0.00764383,-0.223143,-0.235409,0.00894442,0.00836389,0.490589,5,0.1,8,2.3,1.04647,-2.4227,0.601252,-0.260129,0.0828862,-0.0022212,0.225611,-0.125349,0.00196695,0.0234912,0.0799854,5,0.1,9,2.3,-3.21178,-3.83687,0.739732,0.0794321,0.146394,0.0172915,-0.35733,-0.191733,-0.0226423,0.016449,0.255039,5,0.1,10,2.3,0.976068,0.126538,0.608558,-0.750817,0.0815767,-0.00870647,0.41448,4.23752e-05,0.00880286,0.0110277,0.31945,5,0.1,11,2.3,-3.80512,-4.83905,0.617739,0.0239369,0.866023,-0.00787694,-0.0259429,2.98023e-05,0.00814348,0.020116,2.27158,5,0.1,12,2.3,-0.656477,4.01669,0.57299,0.853554,-0.527936,0.0145474,0.0453703,1.07896,-0.00175089,0.014608,2.26663,5,0.1,13,2.3,2.12643,-3.70164,0.783132,-0.571572,-0.0221483,0.222571,1.27839,-0.0574589,0.241943,0.0212175,2.93366,5,0.1,14,2.3,-2.03348,0.00992037,1.20249,-0.14387,0.244636,0.179072,-0.00213087,-0.208656,-0.208549,0.0116649,0.162498,5,0.1,15,2.3,-4.23675,3.90039,0.936639,-0.166248,0.000403821,0.139946,0.153363,-0.00548363,-0.212379,0.00803251,3.96524,5,0.1,16,2.3,-3.01512,4.13803,0.500039,0.866026,-0.101148,0.000120979,0,0.0064373,-0.000637025,0.076632,2.26567,5,0.1,17,2.3,-5.16574,-2.01299,0.589257,-0.0859022,0.144761,0.0109427,0.0889897,-0.446871,-0.0113323,0.0321224,0.812212,5,0.1,18,2.3,0.0975681,-3.98443,0.60185,-0.085373,0.866025,-0.000406243,0.00173924,1.49012e-05,7.45058e-06,0.0134137,2.26714,5,0.1,19,2.3,0.255869,2.62535,1.14915,0.343576,0.426441,0.200518,-0.319406,0.631467,-0.186428,0.011116,0.660239,5,0.1
0,2.4,0.0659757,-2.09879,0.574485,0.408542,-0.335002,-0.0593334,-0.26279,-0.394106,0.0314415,0.00828268,0.432188,5,0.1,1,2.4,3.07809,-2.21974,0.628973,0.0430644,0.212657,0.00492781,0.544906,0.0841618,-0.0299215,0.0113249,0.52806,5,0.1,2,2.4,-1.00061,3.93498,0.594629,0.600322,-0.222564,0.00761896,-0.277907,0.254393,-0.00882149,0.0158625,0.324866,5,0.1,3,2.4,-2.61888,-2.77852,0.612827,0.620812,0.227743,-0.0127852,-0.483513,-0.230789,0.0129342,0.0117411,0.232063,5,0.1,4,2.4,-0.125829,3.62122,0.500027,0.158442,-0.692683,-5.81145e-05,-0.0521281,-1.12164,-0.000119209,0.0189128,2.35886,5,0.1,5,2.4,3.32267,-2.09351,0.566724,0.283521,0.243944,-0.0644624,0.583172,-0.200987,-0.0645518,0.00779758,0.185483,5,0.1,6,2.4,-2.04269,1.68665,0.596589,0.866026,-0.00649989,0.000607967,-5.96046e-05,0.000953674,-8.9407e-05,0.0107189,2.27189,5,0.1,7,2.4,0.0465121,-2.54764,0.606925,-0.21808,0.609964,-0.00675172,-0.19199,-0.339746,0.0089407,0.00864507,0.306905,5,0.1,8,2.4,1.02162,-2.41511,0.60104,-0.236356,0.0683367,-0.00201464,0.25332,-0.161052,0.00217557,0.0260052,0.274537,5,0.1,9,2.4,-3.2055,-3.82319,0.741347,0.0474393,0.127065,0.0150099,-0.280261,-0.195503,-0.0230968,0.0171273,0.422808,5,0.1,10,2.4,0.903189,0.13472,0.607731,-0.705041,0.0821527,-0.00784099,0.517339,0.00529736,0.00870228,0.0107419,0.213842,5,0.1,11,2.4,-3.80285,-4.75245,0.616989,0.0216484,0.866032,-0.00714809,-0.0209808,-0.000238419,0.00679493,0.021249,2.27164,5,0.1,12,2.4,-0.570987,3.96919,0.57443,0.854231,-0.424254,0.014168,-0.0737309,0.95582,-0.00610948,0.00908683,2.43932,5,0.1,13,2.4,2.07538,-3.70409,0.806473,-0.453597,-0.0265718,0.242674,1.03235,-0.0305176,0.147671,0.0210111,3.06797,5,0.1,14,2.4,-2.04784,0.0331353,1.21936,-0.142843,0.217835,0.158453,0.0281334,-0.318423,-0.206649,0.0122009,0.275661,5,0.1,15,2.4,-4.25264,3.9004,0.949586,-0.151503,-0.000107288,0.119126,0.146627,-0.00464916,-0.204742,0.00838458,1.10718,5,0.1,16,2.4,-2.92851,4.12796,0.500048,0.866026,-0.0999451,5.06639e-05,0,0.0221729,-0.000745058,0.0751198,2.26602,5,0.1,17,2.4,-5.17389,-2,0.590296,-0.077188,0.122452,0.00983477,0.0867844,-0.0135899,-0.0110567,0.0283211,0.980232,5,0.1,18,2.4,0.0890516,-3.89783,0.601809,-0.0847368,0.866026,-0.000403821,0.0147372,0,8.9407e-05,0.0136468,2.26726,5,0.1,19,2.4,0.28864,2.67085,1.16828,0.311759,0.479949,0.181949,-0.324473,0.412703,-0.189424,0.0123067,0.478901,5,0.1
0,2.5,0.105582,-2.13432,0.568702,0.383918,-0.375418,-0.0563388,-0.242154,-0.385165,0.0302754,0.00828268,0.432188,5,0.1,1,2.5,3.08532,-2.19785,0.629303,0.102574,0.226603,0.00160411,0.614733,0.170767,-0.0350624,0.0113249,0.52806,5,0.1,2,2.5,-0.941757,3.91394,0.595347,0.578,-0.198538,0.00675907,-0.197064,0.230476,-0.00846013,0.0158625,0.324866,5,0.1,3,2.5,-2.55908,-2.75667,0.611609,0.576082,0.211085,-0.0116022,-0.429764,-0.118837,0.0110939,0.0117411,0.232063,5,0.1,4,2.5,-0.110187,3.54679,0.50002,0.15478,-0.790498,-6.29574e-05,-0.0295648,-0.801086,7.45058e-06,0.0189128,2.35886,5,0.1,5,2.5,3.35375,-2.07032,0.559922,0.335708,0.218112,-0.0717307,0.44322,-0.306875,-0.0741407,0.00779758,0.185483,5,0.1,6,2.5,-1.95609,1.686,0.596649,0.866025,-0.00647847,0.000605918,1.49012e-05,-0.00012666,7.45058e-06,0.0107189,2.27189,5,0.1,7,2.5,0.0241565,-2.48837,0.60676,-0.225198,0.574878,0.00736956,0.0381798,-0.374332,0.244088,0.00864507,0.306905,5,0.1,8,2.5,0.999246,-2.40911,0.600849,-0.211158,0.0513863,-0.00179894,0.252958,-0.172988,0.00216067,0.0260052,0.274537,5,0.1,9,2.5,-3.20207,-3.81143,0.742736,0.0223573,0.108441,0.0128098,-0.215724,-0.178099,-0.021033,0.0171273,0.422808,5,0.1,10,2.5,0.835146,0.14301,0.606987,-0.656547,0.0839491,-0.00705095,0.472847,0.0241762,0.00732765,0.0107419,0.213842,5,0.1,11,2.5,-3.80077,-4.66585,0.616302,0.0200834,0.866023,-0.00663307,-0.011757,2.98023e-05,0.00395626,0.021249,2.27164,5,0.1,12,2.5,-0.485559,3.93109,0.575825,0.856625,-0.342005,0.0137993,0.0662057,0.695482,-0.00220165,0.00908683,2.43932,5,0.1,13,2.5,2.03476,-3.70688,0.831509,-0.366121,-0.0290185,0.25794,0.606641,-0.017643,0.141524,0.0210111,3.06797,5,0.1,14,2.5,-2.06201,0.0531854,1.23423,-0.140507,0.182012,0.139311,0.0247508,-0.387968,-0.179604,0.0122009,0.275661,5,0.1,15,2.5,-4.26704,3.9004,0.960554,-0.136387,0.00042133,0.100922,0.156343,0.0119954,-0.162806,0.00838458,1.10718,5,0.1,16,2.5,-2.84191,4.11804,0.500049,0.866026,-0.0987701,-1.36904e-05,0,0.00712276,-0.000547618,0.0751198,2.26602,5,0.1,17,2.5,-5.18121,-1.98742,0.591228,-0.0693232,0.132498,0.00883294,0.0727773,0.188559,-0.0092648,0.0283211,0.980232,5,0.1,18,2.5,0.0806155,-3.81122,0.601769,-0.084212,0.866026,-0.000399351,0.000969507,0,2.23517e-05,0.0136468,2.26726,5,0.1,19,2.5,0.318297,2.72087,1.18559,0.282156,0.519343,0.164668,-0.276612,0.345781,-0.161462,0.0123067,0.478901,5,0.1
0,2.6,0.142714,-2.17358,0.56323,0.35802,-0.407094,-0.0529736,-0.284269,-0.228286,0.0382662,0.00835692,0.309527,5,0.1,1,2.6,3.09856,-2.17435,0.62929,0.16073,0.242662,-0.0018239,0.525832,0.132918,-0.0323355,0.0108451,0.415842,5,0.1,2,2.6,-0.885,3.89523,0.595981,0.55604,-0.175744,0.00591278,-0.26235,0.228524,-0.00852346,0.0171583,0.229783,5,0.1,3,2.6,-2.50365,-2.73608,0.610504,0.531703,0.201106,-0.0105038,-0.470519,-0.0931025,0.0111461,0.0112405,0.161616,5,0.1,4,2.6,-0.094876,3.46446,0.500014,0.151084,-0.848538,-5.66244e-05,-0.05034,-0.34976,5.96046e-05,0.0219841,2.27148,5,0.1,5,2.6,3.38919,-2.05016,0.552408,0.36934,0.184196,-0.0781491,0.218511,-0.363946,-0.0495017,0.00738674,0.176127,5,0.1,6,2.6,-1.86948,1.68535,0.59671,0.866026,-0.0064522,0.000603497,-5.96046e-05,0.000834465,-8.9407e-05,0.0103086,2.2719,5,0.1,7,2.6,0.0021283,-2.43289,0.608906,-0.21262,0.533104,0.0368387,0.20308,-0.46885,0.322431,0.00779409,0.750596,5,0.1,8,2.6,0.979409,-2.40483,0.60068,-0.185409,0.0345945,-0.00157803,0.263214,-0.159264,0.00220537,0.0202471,0.271921,5,0.1,9,2.6,-3.20077,-3.80145,0.743915,0.00510216,0.0912547,0.0107795,-0.126958,-0.166297,-0.0196099,0.0180113,0.873611,5,0.1,10,2.6,0.771917,0.151513,0.606318,-0.60706,0.085878,-0.00633597,0.53063,0.00977516,0.00712276,0.0113489,0.143443,5,0.1,11,2.6,-3.79882,-4.57924,0.615657,0.0190496,0.866032,-0.00627935,-0.00989437,-0.000238419,0.00348687,0.0235361,2.27167,5,0.1,12,2.6,-0.399707,3.9,0.577194,0.857988,-0.283176,0.013566,-0.0784099,0.494719,-0.00318885,0.0113783,2.75494,5,0.1,13,2.6,2,-3.70985,0.857893,-0.340629,-0.0299871,0.268257,-0.0698566,-0.00119209,0.0536442,0.0205386,2.87158,5,0.1,14,2.6,-2.0759,0.0694012,1.24729,-0.136852,0.142054,0.121951,0.0526905,-0.403136,-0.170052,0.0124207,0.267951,5,0.1,15,2.6,-4.27988,3.90051,0.969878,-0.120139,0.00175238,0.0859544,0.168324,0.0122786,-0.139236,0.00786866,1.09591,5,0.1,16,2.6,-2.75531,4.10821,0.500046,0.866026,-0.0975132,-5.81145e-05,0,0.0219345,-0.000357628,0.0765193,2.26638,5,0.1,17,2.6,-5.18778,-1.97307,0.592066,-0.0622392,0.155473,0.0079304,0.0703335,0.249982,-0.0089407,0.0274207,1.19971,5,0.1,18,2.6,0.0722114,-3.72462,0.601729,-0.0836506,0.866026,-0.000394881,0.0139661,0,8.9407e-05,0.0146657,2.26963,5,0.1,19,2.6,0.345148,2.77423,1.20126,0.254898,0.544184,0.148758,-0.274897,0.131369,-0.160456,0.0118949,0.333269,5,0.1
0,2.7,0.177171,-2.21542,0.558114,0.331598,-0.429185,-0.0493817,-0.254581,-0.19066,0.0350997,0.00835692,0.309527,5,0.1,1,2.7,3.11732,-2.14938,0.628942,0.214447,0.256826,-0.0051531,0.522256,0.133887,-0.0329129,0.0108451,0.415842,5,0.1,2,2.7,-0.830568,3.87874,0.596531,0.53341,-0.154577,0.00510942,-0.213273,0.198618,-0.00762939,0.0171583,0.229783,5,0.1,3,2.7,-2.4527,-2.71631,0.609505,0.488394,0.195143,-0.00948999,-0.411287,-0.0390857,0.00943989,0.0112405,0.161616,5,0.1,4,2.7,-0.079958,3.37854,0.500009,0.147673,-0.864933,-4.70318e-05,-0.0262531,-0.04372,0.000122935,0.0219841,2.27148,5,0.1,5,2.7,3.42718,-2.03361,0.54437,0.389626,0.146455,-0.0822712,0.167817,-0.383615,-0.0298172,0.00738674,0.176127,5,0.1,6,2.7,-1.78288,1.68471,0.59677,0.866025,-0.00643916,0.000601169,1.49012e-05,-0.000178814,3.72529e-06,0.0103086,2.2719,5,0.1,7,2.7,-0.0181603,-2.38336,0.614019,-0.19344,0.445411,0.0635948,0.185591,-1.20117,0.212908,0.00779409,0.750596,5,0.1,8,2.7,0.962165,-2.40212,0.600533,-0.159643,0.0200409,-0.00136178,0.252768,-0.12891,0.00212342,0.0202471,0.271921,5,0.1,9,2.7,-3.20091,-3.79312,0.744899,-0.00727139,0.075813,0.00895821,-0.0909418,-0.143662,-0.0169501,0.0180113,0.873611,5,0.1,10,2.7,0.713721,0.160103,0.605718,-0.557827,0.0854154,-0.00569271,0.471074,-0.0197692,0.00593439,0.0113489,0.143443,5,0.1,11,2.7,-3.79695,-4.49264,0.615042,0.0184447,0.866023,-0.00605332,-0.00354648,2.98023e-05,0.00145659,0.0235361,2.27167,5,0.1,12,2.7,-0.315254,3.87418,0.578542,0.822266,-0.233309,0.0134383,-0.606437,0.487968,-0.000257045,0.0113783,2.75494,5,0.1,13,2.7,1.96411,-3.71285,0.885018,-0.389295,-0.0298757,0.274205,-0.794202,0.00421703,0.0509657,0.0205386,2.87158,5,0.1,14,2.7,-2.08934,0.0816228,1.25868,-0.132014,0.102849,0.106419,0.0491142,-0.375161,-0.143528,0.0124207,0.267951,5,0.1,15,2.7,-4.29107,3.90085,0.977836,-0.103854,0.00570901,0.0737142,0.15825,0.0516623,-0.108451,0.00786866,1.09591,5,0.1,16,2.7,-2.66871,4.09853,0.500039,0.866026,-0.0963353,-8.23289e-05,0,0.00730157,-0.000141561,0.0765193,2.26638,5,0.1,17,2.7,-5.19368,-1.9566,0.592817,-0.0558943,0.171494,0.00712397,0.0584722,0.104673,-0.00743195,0.0274207,1.19971,5,0.1,18,2.7,0.063881,-3.63802,0.60181,-0.0831771,0.866026,0.00299877,0.000637975,0,0.0602715,0.0146657,2.26963,5,0.1,19,2.7,0.369355,2.82927,1.21538,0.229948,0.555672,0.134197,-0.231642,0.0748336,-0.135198,0.0118949,0.333269,5,0.1
0,2.8,0.209037,-2.25908,0.553357,0.305349,-0.441378,-0.0456974,-0.277542,-0.0377893,0.0395775,0.00932942,0.214159,5,0.1,1,2.8,3.14119,-2.12314,0.62827,0.260705,0.266653,-0.00817925,0.384331,0.05126,-0.0266135,0.012884,0.335852,5,0.1,2,2.8,-0.778366,3.86425,0.597005,0.509478,-0.135368,0.00437349,-0.281394,0.188112,-0.00718236,0.014105,0.159516,5,0.1,3,2.8,-2.40592,-2.69699,0.608603,0.446808,0.191057,-0.0085637,-0.431299,-0.051856,0.00929832,0.0109258,0.11206,5,0.1,4,2.8,-0.0653383,3.29196,0.500005,0.144403,-0.866026,-3.42727e-05,-0.045087,0,0.000149012,0.021273,2.25949,5,0.1,5,2.8,3.46677,-2.02087,0.536047,0.399685,0.108755,-0.0836045,0.0203848,-0.36478,0.005126,0.00665778,0.179337,5,0.1,6,2.8,-1.69628,1.68406,0.59683,0.866026,-0.00641942,0.000599027,-5.96046e-05,0.00089407,-0.000119209,0.0125925,2.2719,5,0.1,7,2.8,-0.0365716,-2.34546,0.621264,-0.174651,0.307894,0.0795484,0.193626,-1.48296,0.107259,0.00726272,0.209048,5,0.1,8,2.8,0.947451,-2.40069,0.600408,-0.134765,0.00921488,-0.00115186,0.245094,-0.0865459,0.00208616,0.0249427,0.270928,5,0.1,9,2.8,-3.20185,-3.78623,0.745714,-0.0089705,0.0623226,0.00736713,0.0685453,-0.126958,-0.0150204,0.0151209,1.78077,5,0.1,10,2.8,0.660309,0.168492,0.605177,-0.509965,0.0818331,-0.00511557,0.497848,-0.0520498,0.00572205,0.0164357,0.0986056,5,0.1,11,2.8,-3.79512,-4.40604,0.614443,0.0181079,0.866032,-0.00591427,-0.00417233,-0.000238419,0.00163913,0.019684,2.27168,5,0.1,12,2.8,-0.236726,3.85319,0.579883,0.742292,-0.18791,0.0133604,-0.966713,0.41163,-0.00193715,0.0115438,3.11742,5,0.1,13,2.8,1.92075,-3.7158,0.912593,-0.480214,-0.0290155,0.276031,-0.940859,0.0133514,-0.0243187,0.0210594,2.54955,5,0.1,14,2.8,-2.10227,0.090117,1.26863,-0.126183,0.0679871,0.0927359,0.0708103,-0.318218,-0.132143,0.0119741,0.434804,5,0.1,15,2.8,-4.30067,3.90165,0.984697,-0.0883579,0.00964999,0.0637591,0.152349,0.0181198,-0.092864,0.00734635,3.84872,5,0.1,16,2.8,-2.5821,4.08894,0.50003,0.866026,-0.0950933,-8.64267e-05,0,0.0219345,-2.98023e-05,0.0677958,2.26676,5,0.1,17,2.8,-5.19898,-1.93897,0.593493,-0.0502348,0.181389,0.00640154,0.0565052,0.108898,-0.00712276,0.0281444,1.07995,5,0.1,18,2.8,0.055579,-3.55142,0.602459,-0.0826445,0.866026,0.010325,0.0136644,0,0.0804365,0.0102899,2.268,5,0.1,19,2.8,0.391212,2.88496,1.22814,0.20728,0.555235,0.120968,-0.227094,-0.0991821,-0.132561,0.0121447,0.506964,5,0.1
0,2.9,0.238264,-2.3034,0.548974,0.279745,-0.444508,-0.0420216,-0.243261,-0.0063777,0.0352226,0.00932942,0.214159,5,0.1,1,2.9,3.16916,-2.09662,0.627321,0.297765,0.259825,-0.0107568,0.336543,-0.174165,-0.0239164,0.012884,0.335852,5,0.1,2,2.9,-0.728714,3.8516,0.597408,0.484187,-0.118185,0.00371113,-0.243202,0.158817,-0.00614673,0.014105,0.159516,5,0.1,3,2.9,-2.36326,-2.67808,0.60779,0.407318,0.187606,-0.00772178,-0.37156,-0.0274181,0.00780076,0.0109258,0.11206,5,0.1,4,2.9,-0.0510621,3.20535,0.500002,0.141524,-0.866026,-2.10479e-05,-0.0207594,0,0.000119209,0.021273,2.25949,5,0.1,5,2.9,3.50693,-2.01176,0.527831,0.403861,0.0741519,-0.0796428,0.0406355,-0.322104,0.0699088,0.00665778,0.179337,5,0.1,6,2.9,-1.60968,1.68342,0.596889,0.866025,-0.00639986,0.000594184,1.49012e-05,-0.000111759,-1.49012e-05,0.0125925,2.2719,5,0.1,7,2.9,-0.0529672,-2.32103,0.629482,-0.152376,0.190452,0.0823445,0.246737,-0.899836,-0.0404753,0.00726272,0.209048,5,0.1,8,2.9,0.935162,-2.40013,0.600303,-0.111389,0.00281483,-0.000951719,0.222757,-0.043273,0.00191852,0.0249427,0.270928,5,0.1,9,2.9,-3.20233,-3.78059,0.74638,0.00295825,0.0507571,0.00599921,0.261322,-0.105411,-0.0124648,0.0151209,1.78077,5,0.1,10,2.9,0.611657,0.176327,0.604692,-0.464157,0.0740935,-0.00460073,0.432651,-0.0988878,0.00473112,0.0164357,0.0986056,5,0.1,11,2.9,-3.79332,-4.31944,0.613857,0.0179745,0.866023,-0.00584293,0.000238419,2.98023e-05,0.000193715,0.019684,2.27168,5,0.1,12,2.9,-0.168003,3.83652,0.581215,0.626855,-0.146019,0.0133192,-1.28774,0.38217,0.000268221,0.0115438,3.11742,5,0.1,13,2.9,1.86737,-3.71863,0.940117,-0.59152,-0.0276823,0.274549,-1.1964,0.0141114,-0.0182912,0.0210594,2.54955,5,0.1,14,2.9,-2.11455,0.0954553,1.27729,-0.119597,0.0400851,0.0807993,0.0650287,-0.239905,-0.109076,0.0119741,0.434804,5,0.1,15,2.9,-4.30877,3.903,0.990639,-0.0738271,0.0183605,0.055347,0.13867,0.0814795,-0.0770241,0.00734635,3.84872,5,0.1,16,2.9,-2.4955,4.07951,0.500021,0.866026,-0.0938892,-8.22358e-05,0,0.00762939,0.000100583,0.0677958,2.26676,5,0.1,17,2.9,-5.20375,-1.92036,0.594101,-0.0451587,0.191672,0.00576098,0.0466406,0.162892,-0.00589341,0.0281444,1.07995,5,0.1,18,2.9,0.0473479,-3.46481,0.603819,-0.0821946,0.866026,0.0161709,0.000420213,0,0.0383332,0.0102899,2.268,5,0.1,19,2.9,0.411196,2.94015,1.23962,0.195648,0.549307,0.10899,-0.0315849,-0.0484735,-0.110678,0.0121447,0.506964,5,0.1
0,3,0.26502,-2.34771,0.54495,0.255219,-0.43959,-0.0384375,-0.25332,0.117064,0.0373721,0.010853,0.144725,5,0.1,1,3,3.2004,-2.07179,0.626137,0.324601,0.234377,-0.0127926,0.186205,-0.322938,-0.0160635,0.0113725,0.187193,5,0.1,2,3,-0.681574,3.84055,0.59775,0.457664,-0.103045,0.00313073,-0.300229,0.146508,-0.00548363,0.0158845,0.109412,5,0.1,3,3,-2.32438,-2.65948,0.607056,0.370276,0.183821,-0.00696033,-0.37837,-0.0554323,0.00762939,0.0102576,0.133541,5,0.1,4,3,-0.0370288,3.11875,0.500001,0.138836,-0.866026,-1.04308e-05,-0.0388891,0,8.9407e-05,0.0228219,2.26071,5,0.1,5,3,3.54741,-2.00585,0.520294,0.404,0.0451565,-0.070408,-0.053525,-0.25475,0.111133,0.00667713,0.18243,5,0.1,6,3,-1.52307,1.68278,0.596949,0.866026,-0.00637472,0.000591576,-5.96046e-05,0.00101328,-0.000149012,0.0128149,2.2719,5,0.1,7,3,-0.0669191,-2.30575,0.637344,-0.126255,0.121701,0.0734434,0.271298,-0.503421,-0.128537,0.00686032,0.213918,5,0.1,8,3,0.925102,-2.40001,0.600217,-0.0901595,0.000149012,-0.00076741,0.20203,-0.012517,0.00172853,0.026249,0.268158,5,0.1,9,3,-3.2,-3.77601,0.746921,0.0505924,0.0410557,0.00485182,0.672817,-0.089407,-0.0105798,0.0145828,3.29812,5,0.1,10,3,0.567392,0.183191,0.604255,-0.421003,0.0627656,-0.00414103,0.440359,-0.124425,0.00458956,0.0194177,0.2269,5,0.1,11,3,-3.79152,-4.23283,0.613274,0.017941,0.866032,-0.00580698,-0.00178814,-0.000238419,0.000834465,0.0199859,2.27168,5,0.1,12,3,-0.111922,3.82351,0.582547,0.494119,-0.117719,0.0132725,-1.32754,0.165224,-0.00187755,0.0117611,3.30948,5,0.1,13,3,1.80242,-3.72132,0.967404,-0.704119,-0.0260592,0.270182,-0.990748,0.0188351,-0.0779927,0.0181769,2.293,5,0.1,14,3,-2.12617,0.0983922,1.28484,-0.112474,0.0199119,0.0704855,0.0801086,-0.164416,-0.0989437,0.011794,0.426983,5,0.1,15,3,-4.31548,3.90489,0.995804,-0.0605583,0.0151694,0.0480711,0.1266,-0.178456,-0.0697076,0.00693548,2.00364,5,0.1,16,3,-2.4089,4.07017,0.500014,0.866026,-0.0926256,-6.85453e-05,0,0.0219345,0.000178814,0.067828,2.26715,5,0.1,17,3,-5.20803,-1.9,0.594648,-0.0406504,0.219318,0.00519007,0.0448227,0.377417,-0.00572205,0.0266997,0.915767,5,0.1,18,3,0.0391429,-3.37821,0.605571,-0.0816899,0.866026,0.0183448,0.0132883,0,0.00682473,0.0106949,2.26777,5,0.1,19,3,0.43075,2.99472,1.24998,0.196373,0.540584,0.0982016,0.0262111,-0.14627,-0.107646,0.0109242,0.3721,5,0.1
0,3.1,0.289353,-2.3911,0.541282,0.232005,-0.42801,-0.0349965,-0.218282,0.129625,0.0325218,0.010853,0.144725,5,0.1,1,3.1,3.23375,-2.05015,0.624781,0.341612,0.196993,-0.0142809,0.13788,-0.412762,-0.0129044,0.0113725,0.187193,5,0.1,2,3.1,-0.637209,3.83097,0.598037,0.430244,-0.0885919,0.00263285,-0.263613,0.142604,-0.00454485,0.0158845,0.109412,5,0.1,3,3.1,-2.28894,-2.6412,0.606392,0.340935,0.183285,-0.00637006,-0.230938,0.0274628,0.00461191,0.0102576,0.133541,5,0.1,4,3.1,-0.0232914,3.03215,0.5,0.136204,-0.866026,-2.6077e-06,-0.021145,0,5.96046e-05,0.0228219,2.26071,5,0.1,5,3.1,3.5877,-2.00249,0.513857,0.402805,0.0233617,-0.0579557,0.00479817,-0.178888,0.134218,0.00667713,0.18243,5,0.1,6,3.1,-1.43647,1.68215,0.597008,0.866025,-0.00634436,0.000584591,1.49012e-05,-2.23517e-05,-2.6077e-05,0.0128149,2.2719,5,0.1,7,3.1,-0.078178,-2.29543,0.643902,-0.0989165,0.0906866,0.0565427,0.271805,-0.149801,-0.199083,0.00686032,0.213918,5,0.1,8,3.1,0.917058,-2.40011,0.600148,-0.0710869,-0.00254884,-0.000604521,0.179224,-0.0332892,0.00152364,0.026249,0.268158,5,0.1,9,3.1,-3.19059,-3.77095,0.747357,0.145186,0.0720695,0.00388632,1.13456,0.622064,-0.00880286,0.0145828,3.29812,5,0.1,10,3.1,0.527157,0.188825,0.60386,-0.386429,0.0497778,-0.00378918,0.27594,-0.132616,0.00271946,0.0194177,0.2269,5,0.1,11,3.1,-3.78973,-4.14623,0.612694,0.0179846,0.866023,-0.00579739,0.00147521,2.98023e-05,-0.000264496,0.0199859,2.27168,5,0.1,12,3.1,-0.0691683,3.81231,0.583869,0.362371,-0.110893,0.0132062,-1.24599,-0.0989586,-0.000212342,0.0117611,3.30948,5,0.1,13,3.1,1.72735,-3.72384,0.994091,-0.793278,-0.0243135,0.263827,-0.752389,0.0168681,-0.061214,0.0181769,2.293,5,0.1,14,3.1,-2.13704,0.0996138,1.29143,-0.105037,0.00519691,0.0616284,0.0720918,-0.12413,-0.0802949,0.011794,0.426983,5,0.1,15,3.1,-4.32094,3.90505,1.0003,-0.0490457,-0.0178371,0.0421448,0.104666,-0.520363,-0.0509322,0.00693548,2.00364,5,0.1,16,3.1,-2.3223,4.06098,0.500008,0.866026,-0.0913866,-4.96395e-05,0,0.00813603,0.00018999,0.067828,2.26715,5,0.1,17,3.1,-5.21189,-1.87558,0.59514,-0.036633,0.273645,0.00467692,0.0368357,0.65086,-0.00470132,0.0266997,0.915767,5,0.1,18,3.1,0.0310061,-3.29161,0.607405,-0.0812592,0.866026,0.0180277,0.000343174,0,-0.0119396,0.0106949,2.26777,5,0.1,19,3.1,0.4507,3.04809,1.2593,0.203929,0.526639,0.0885073,0.104809,-0.1522,-0.0893027,0.0109242,0.3721,5,0.1
0,3.2,0.311471,-2.43313,0.537944,0.210318,-0.411159,-0.0317499,-0.220567,0.217438,0.03317,0.00853926,0.16493,5,0.1,1,3.2,3.26841,-2.03258,0.623298,0.349498,0.153983,-0.0152409,0.00905991,-0.437737,-0.00581145,0.0118294,0.140784,5,0.1,2,3.2,-0.595545,3.82282,0.598279,0.402336,-0.0745237,0.00220984,-0.305206,0.13876,-0.00393391,0.0171246,0.129989,5,0.1,3,3.2,-2.25591,-2.62271,0.605776,0.320172,0.186318,-0.00596344,-0.201106,0.0206232,0.0039041,0.00910419,0.0794025,5,0.1,4,3.2,-0.00979705,2.94555,0.5,0.133344,-0.866026,0,-0.0412917,0,5.96046e-05,0.0185734,2.26155,5,0.1,5,3.2,3.62793,-2.00091,0.508745,0.400728,0.00956655,-0.0442237,-0.0638962,-0.097394,0.137448,0.00670127,0.186005,5,0.1,6,3.2,-1.34987,1.68151,0.597066,0.866026,-0.00631213,0.000579655,-5.96046e-05,0.00101328,-0.000119209,0.00935253,2.2719,5,0.1,7,3.2,-0.0867353,-2.28675,0.648515,-0.0725508,0.0858605,0.0354663,0.252597,0.0274181,-0.214398,0.00902892,0.175697,5,0.1,8,3.2,0.910806,-2.40051,0.600095,-0.054346,-0.00520349,-0.000461936,0.155509,-0.0149012,0.0013113,0.0265512,0.253012,5,0.1,9,3.2,-3.17021,-3.76005,0.747704,0.262654,0.149876,0.00307858,1.15061,0.866175,-0.00736117,0.0166706,2.7845,5,0.1,10,3.2,0.489789,0.193145,0.603494,-0.361497,0.036722,-0.00355095,0.241056,-0.126436,0.00223517,0.0145569,0.195948,5,0.1,11,3.2,-3.78792,-4.05963,0.612114,0.0180304,0.866032,-0.00579208,-0.0013113,-0.000119209,0.000566244,0.0236888,2.27168,5,0.1,12,3.2,-0.0386475,3.8,0.585186,0.253996,-0.142175,0.0130981,-0.892188,-0.503182,-0.0025034,0.0096677,3.18695,5,0.1,13,3.2,1.6449,-3.72619,1.02011,-0.848889,-0.0225484,0.255889,-0.342667,0.0188351,-0.105917,0.0195571,1.78783,5,0.1,14,3.2,-2.14717,0.099615,1.29721,-0.0974834,-0.00407714,0.0540644,0.0815392,-0.0587292,-0.0724792,0.00987659,0.875206,5,0.1,15,3.2,-4.32535,3.9,1.00428,-0.0394464,-0.0891685,0.0375181,0.0884533,-0.870228,-0.0431538,0.0106468,3.13527,5,0.1,16,3.2,-2.23569,4.0519,0.500004,0.866026,-0.0900865,-3.12924e-05,0,0.0216961,0.000149012,0.0644546,2.26756,5,0.1,17,3.2,-5.21538,-1.8449,0.595585,-0.0330567,0.339308,0.00422001,0.0352859,0.618935,-0.00450015,0.0264114,0.343741,5,0.1,18,3.2,0.0228942,-3.20501,0.609126,-0.0807628,0.866026,0.0161842,0.0131531,0,-0.0238419,0.0128479,2.26777,5,0.1,19,3.2,0.471611,3.09985,1.26771,0.213853,0.506872,0.0798196,0.079006,-0.2563,-0.0866055,0.0103003,0.304804,5,0.1
0,3.3,0.331572,-2.47343,0.53491,0.193093,-0.396935,-0.029144,-0.136554,0.0943244,0.0208132,0.00853926,0.16493,5,0.1,1,3.3,3.30339,-2.01934,0.621748,0.349516,0.111154,-0.0157351,-0.0217855,-0.411749,-0.00343472,0.0118294,0.140784,5,0.1,2,3.3,-0.556521,3.81606,0.598482,0.380618,-0.0605263,0.00187932,-0.156105,0.139624,-0.00278279,0.0171246,0.129989,5,0.1,3,3.3,-2.22477,-2.60393,0.605196,0.30353,0.189542,-0.00564549,-0.146613,0.0326186,0.00274181,0.00910419,0.0794025,5,0.1,4,3.3,0.00338303,2.85894,0.5,0.13059,-0.866026,3.72529e-06,-0.0211366,0,1.49012e-05,0.0185734,2.26155,5,0.1,5,3.3,3.66787,-2.00031,0.504996,0.399135,0.00361912,-0.030964,0.00630319,-0.0267774,0.125613,0.00670127,0.186005,5,0.1,6,3.3,-1.26327,1.68088,0.597123,0.866025,-0.00628158,0.000575278,1.49012e-05,-1.49012e-05,-3.72529e-06,0.00935253,2.2719,5,0.1,7,3.3,-0.092772,-2.27776,0.650972,-0.0487178,0.0957973,0.0136529,0.22064,0.149965,-0.21534,0.00902892,0.175697,5,0.1,8,3.3,0.906109,-2.40118,0.600055,-0.0399981,-0.00816323,-0.00034105,0.131391,-0.0197142,0.00111014,0.0265512,0.253012,5,0.1,9,3.3,-3.13788,-3.74018,0.747978,0.385557,0.251418,0.00242405,1.24186,1.09728,-0.005804,0.0166706,2.7845,5,0.1,10,3.3,0.454847,0.19621,0.60315,-0.337158,0.0248494,-0.00332706,0.252703,-0.109754,0.00232458,0.0145569,0.195948,5,0.1,11,3.3,-3.78612,-3.97303,0.611535,0.0180878,0.866026,-0.00579748,0.0013113,-1.49012e-05,-0.000312924,0.0236888,2.27168,5,0.1,12,3.3,-0.0171372,3.78234,0.586487,0.183785,-0.218396,0.0129438,-0.446902,-0.94144,-0.00127032,0.0096677,3.18695,5,0.1,13,3.3,1.55896,-3.72835,1.04522,-0.864954,-0.0208095,0.246391,-0.0428557,0.0165999,-0.0938699,0.0195571,1.78783,5,0.1,14,3.3,-2.15653,0.098858,1.30228,-0.0899527,-0.010812,0.0476219,0.0719279,-0.0454714,-0.0581145,0.00987659,0.875206,5,0.1,15,3.3,-4.32889,3.88663,1.00784,-0.031542,-0.17829,0.0338778,0.0705421,-0.876933,-0.0313371,0.0106468,3.13527,5,0.1,16,3.3,-2.14909,4.04296,0.500001,0.866026,-0.0888303,-1.70432e-05,0,0.00858307,0.000130385,0.0644546,2.26756,5,0.1,17,3.3,-5.21852,-1.808,0.595986,-0.0298977,0.396942,0.00381665,0.0289679,0.508927,-0.00369921,0.0264114,0.343741,5,0.1,18,3.3,0.01485,-3.1184,0.610614,-0.0803298,0.866026,0.0135043,0.00045456,0,-0.0290163,0.0128479,2.26777,5,0.1,19,3.3,0.493283,3.14875,1.27529,0.218401,0.466459,0.0720393,0.00801124,-0.52771,-0.0715405,0.0103003,0.304804,5,0.1
0,3.4,0.350252,-2.51268,0.532091,0.180812,-0.387579,-0.0272617,-0.118405,0.112534,0.0181794,0.0106242,0.0963606,5,0.1,1,3.4,3.3381,-2.0102,0.620165,0.342977,0.072813,-0.0158235,-0.11766,-0.350237,0.00211596,0.0112983,0.190184,5,0.1,2,3.4,-0.519175,3.8107,0.598657,0.366443,-0.046885,0.00163466,-0.147194,0.132203,-0.00223517,0.0141233,0.157226,5,0.1,3,3.4,-2.19516,-2.58487,0.604645,0.288302,0.190938,-0.00536442,-0.168562,-0.012517,0.00306964,0.0130486,0.156695,5,0.1,4,3.4,0.0163203,2.77234,0.500001,0.127859,-0.866026,4.47035e-06,-0.0387132,0,-2.98023e-05,0.0185443,2.26234,5,0.1,5,3.4,3.70775,-2,0.502494,0.397575,0.00322163,-0.019449,-0.0557899,0.0141859,0.103325,0.00758837,0.188729,5,0.1,6,3.4,-1.17666,1.68026,0.597181,0.866026,-0.00624657,0.000570714,-5.96046e-05,0.000953674,-5.96046e-05,0.00947166,2.2719,5,0.1,7,3.4,-0.0966156,-2.26738,0.651303,-0.0289563,0.112128,-0.00648052,0.172671,0.160813,-0.182718,0.00734461,0.152971,5,0.1,8,3.4,0.902726,-2.40195,0.600026,-0.0280678,-0.00568628,-0.000239909,0.107288,0.0792742,0.00089407,0.0235993,0.214634,5,0.1,9,3.4,-3.09341,-3.70963,0.748193,0.499737,0.357604,0.00190288,0.994444,0.976562,-0.00461936,0.015407,2.41488,5,0.1,10,3.4,0.422459,0.198182,0.602829,-0.309823,0.0149727,-0.00307411,0.298336,-0.0870302,0.00280142,0.0125006,0.508259,5,0.1,11,3.4,-3.78431,-3.88642,0.610955,0.0181019,0.866026,-0.00579208,-0.00190735,0,0.000685453,0.0287722,2.27169,5,0.1,12,3.4,0,3.75561,0.587773,0.168449,-0.316453,0.0127271,0.1134,-0.959516,-0.00354648,0.00846998,2.84501,5,0.1,13,3.4,1.47238,-3.73035,1.06934,-0.866026,-0.0191152,0.235459,0,0.0178814,-0.131547,0.017315,1.36833,5,0.1,14,3.4,-2.16517,0.0977533,1.30677,-0.082612,-0.00888947,0.0421435,0.0770092,0.0962391,-0.0528097,0.0104821,1.09284,5,0.1,15,3.4,-4.33171,3.86465,1.01107,-0.0251651,-0.258487,0.0309527,0.0572205,-0.701785,-0.0283122,0.0078442,3.30359,5,0.1,16,3.4,-2.06249,4.03413,0.5,0.866026,-0.0874877,-5.96046e-06,-5.96046e-05,0.0214577,8.9407e-05,0.0657726,2.04209,5,0.1,17,3.4,-5.22137,-1.76611,0.59635,-0.0270724,0.436974,0.00345707,0.0283718,0.275254,-0.00363588,0.0273914,0.238523,5,0.1,18,3.4,0.00683154,-3.0318,0.611816,-0.0798254,0.866026,0.0105157,0.0131497,0,-0.0301898,0.0109988,2.3241,5,0.1,19,3.4,0.51502,3.19247,1.28215,0.214864,0.405663,0.0650764,-0.0807643,-0.669003,-0.0694394,0.0130141,1.53897,5,0.1
0,3.5,0.367815,-2.55096,0.529445,0.170975,-0.378486,-0.0257399,-0.0866931,0.0870377,0.013493,0.0106242,0.0963606,5,0.1,1,3.5,3.37182,-2.00453,0.618594,0.331258,0.0419807,-0.0155776,-0.127509,-0.265077,0.00332668,0.0112983,0.190184,5,0.1,2,3.5,-0.483156,3.80665,0.59881,0.35458,-0.034295,0.00142893,-0.10716,0.118554,-0.00191852,0.0141233,0.157226,5,0.1,3,3.5,-2.16712,-2.56608,0.604123,0.27268,0.18249,-0.00508325,-0.153467,-0.148341,0.00274554,0.0130486,0.156695,5,0.1,4,3.5,0.0289651,2.68574,0.500001,0.125376,-0.866026,1.95578e-06,-0.0181748,0,-1.86265e-05,0.0185443,2.26234,5,0.1,5,3.5,3.74742,-1.9996,0.50102,0.396857,0.00482704,-0.0104962,0.015378,0.0169054,0.0752062,0.00758837,0.188729,5,0.1,6,3.5,-1.09006,1.67963,0.597238,0.866025,-0.00622012,0.00057118,1.49012e-05,-2.98023e-05,2.6077e-05,0.00947166,2.2719,5,0.1,7,3.5,-0.0987392,-2.25532,0.64978,-0.014438,0.129134,-0.0234955,0.117519,0.166714,-0.154007,0.00734461,0.152971,5,0.1,8,3.5,0.90042,-2.40201,0.600006,-0.0184198,0.00665113,-0.000159349,0.0857897,0.201881,0.000718981,0.0235993,0.214634,5,0.1,9,3.5,-3.03839,-3.6688,0.748362,0.599981,0.459188,0.00150362,0.955507,0.999808,-0.00343099,0.015407,2.41488,5,0.1,10,3.5,0.392923,0.199205,0.602535,-0.281203,0.00534763,-0.00280645,0.280229,-0.0954373,0.0026226,0.0125006,0.508259,5,0.1,11,3.5,-3.7825,-3.79982,0.610377,0.0180867,0.866026,-0.00578035,0.000491738,0,-0.000104308,0.0287722,2.27169,5,0.1,12,3.5,0.0181476,3.71882,0.589031,0.200422,-0.420998,0.0124563,0.469826,-1.06803,-0.00248104,0.00846998,2.84501,5,0.1,13,3.5,1.38578,-3.73218,1.09227,-0.865787,-0.0174742,0.223364,0.00955909,0.0154823,-0.11842,0.017315,1.36833,5,0.1,14,3.5,-2.17307,0.097479,1.31074,-0.0755411,0.00641295,0.0374731,0.0668019,0.269123,-0.0420362,0.0104821,1.09284,5,0.1,15,3.5,-4.33397,3.83622,1.01404,-0.0201195,-0.301693,0.028521,0.0444055,-0.203967,-0.0215992,0.0078442,3.30359,5,0.1,16,3.5,-1.97589,4.02547,0.5,0.866025,-0.0860319,3.72529e-07,1.49012e-05,0.012219,3.72529e-05,0.0657726,2.04209,5,0.1,17,3.5,-5.22394,-1.72113,0.596679,-0.0245333,0.461101,0.00313185,0.0233054,0.187524,-0.00298768,0.0273914,0.238523,5,0.1,18,3.5,-0.000975093,-2.94526,0.612708,-0.0753112,0.863542,0.00724308,0.0729727,-0.0745803,-0.0341758,0.0109988,2.3241,5,0.1,19,3.5,0.535807,3.22928,1.28833,0.198339,0.32825,0.0588475,-0.233166,-0.811219,-0.0572279,0.0130141,1.53897,5,0.1
0,3.6,0.384476,-2.5883,0.526939,0.162046,-0.367171,-0.024353,-0.0978261,0.151396,0.0151396,0.00962507,0.0736869,5,0.1,1,3.6,3.40422,-2.00151,0.617058,0.315684,0.0198901,-0.015071,-0.191212,-0.177026,0.00715256,0.0148017,0.293721,5,0.1,2,3.6,-0.448282,3.80378,0.598944,0.342106,-0.0233591,0.00124425,-0.154287,0.099659,-0.00175834,0.0116098,0.428795,5,0.1,3,3.6,-2.14066,-2.54874,0.603629,0.256002,0.162792,-0.00478476,-0.186682,-0.238657,0.00333786,0.0110347,0.140409,5,0.1,4,3.6,0.0413972,2.59914,0.500001,0.122985,-0.866026,0,-0.0347903,0,0,0.018887,2.26304,5,0.1,5,3.6,3.78712,-1.99904,0.500297,0.396192,0.00642538,-0.00443459,-0.0470877,0.0143051,0.046283,0.0144132,4.36302,5,0.1,6,3.6,-1.00346,1.67901,0.597295,0.866024,-0.00618994,0.000570714,2.98023e-05,0.00101328,-5.96046e-05,0.0110479,2.2719,5,0.1,7,3.6,-0.0996852,-2.24165,0.646732,-0.00535436,0.143343,-0.0366971,0.0653081,0.1086,-0.107676,0.00753376,0.0244719,5,0.1,8,3.6,0.898972,-2.4,0.599994,-0.0108778,0.0367284,-9.68575e-05,0.0652671,0.385642,0.000566244,0.0228246,0.153062,5,0.1,9,3.6,-2.97404,-3.61822,0.748497,0.68152,0.548112,0.00120252,0.636935,0.739336,-0.0025928,0.0146749,2.16236,5,0.1,10,3.6,0.366214,0.199313,0.602268,-0.252752,-0.00252239,-0.00253916,0.292867,-0.0560731,0.00277162,0.00989003,0.978607,5,0.1,11,3.6,-3.78069,-3.71322,0.6098,0.0180185,0.866026,-0.00575483,-0.00274181,0,0.000923872,0.0200002,2.27169,5,0.1,12,3.6,0.0407459,3.67163,0.590262,0.252509,-0.519139,0.0121281,0.529098,-0.849247,-0.00450015,0.00931276,2.67803,5,0.1,13,3.6,1.29933,-3.73385,1.11399,-0.862202,-0.0159204,0.210419,0.0764132,0.0158548,-0.145972,0.0162051,1.02382,5,0.1,14,3.6,-2.18029,0.1,1.31429,-0.0688434,0.049098,0.0334889,0.068903,0.566892,-0.038743,0.00910926,1.66827,5,0.1,15,3.6,-4.33577,3.80558,1.01679,-0.0161409,-0.306487,0.0264108,0.0352859,0.0778437,-0.0214577,0.00929082,1.92105,5,0.1,16,3.6,-1.88928,4.01694,0.5,0.866026,-0.084281,1.49012e-06,-5.96046e-05,0.026226,2.98023e-05,0.0606563,1.60686,5,0.1,17,3.6,-5.22628,-1.67436,0.596977,-0.0222683,0.471216,0.00284016,0.0228882,0.00208616,-0.00292063,0.0254673,0.159548,5,0.1,18,3.6,-0.00807132,-2.85959,0.613262,-0.0660035,0.846094,0.0038743,0.109617,-0.299335,-0.0323951,0.0132476,2.53724,5,0.1,19,3.6,0.554335,3.25824,1.29394,0.171123,0.253844,0.0532687,-0.298798,-0.64075,-0.0557899,0.0108271,1.42645,5,0.1
0,3.7,0.400266,-2.62438,0.524568,0.154301,-0.355139,-0.0231434,-0.0657048,0.107691,0.010334,0.00962507,0.0736869,5,0.1,1,3.7,3.43486,-2.00027,0.615586,0.297399,0.00616983,-0.0143696,-0.183538,-0.100851,0.00730902,0.0148017,0.293721,5,0.1,2,3.7,-0.41461,3.80192,0.59906,0.333071,-0.0142995,0.00108415,-0.0500865,0.0807792,-0.00147894,0.0116098,0.428795,5,0.1,3,3.7,-2.11597,-2.53377,0.603167,0.237869,0.135716,-0.00446085,-0.182003,-0.294864,0.0032559,0.0110347,0.140409,5,0.1,4,3.7,0.0535727,2.51253,0.500001,0.120854,-0.866026,-9.31323e-08,-0.0148984,0,-3.72529e-06,0.018887,2.26304,5,0.1,5,3.7,3.82499,-1.99874,0.500043,0.347961,-0.00409223,-0.00103218,-0.836015,-0.198841,0.0231899,0.0144132,4.36302,5,0.1,6,3.7,-0.916857,1.6784,0.597352,0.866026,-0.00615772,0.000570621,0,2.23517e-05,2.6077e-05,0.0110479,2.2719,5,0.1,7,3.7,-0.0999376,-2.22719,0.642702,-0.000102248,0.141886,-0.0423091,0.0407179,-0.118539,-0.0114404,0.00753376,0.0244719,5,0.1,8,3.7,0.898182,-2.39405,0.599987,-0.00520349,0.0847578,-4.74975e-05,0.048466,0.538439,0.000417233,0.0228246,0.153062,5,0.1,9,3.7,-2.90265,-3.55963,0.748606,0.745653,0.623178,0.000987574,0.59548,0.712514,-0.00177324,0.0146749,2.16236,5,0.1,10,3.7,0.342337,0.198697,0.602027,-0.225338,-0.00973528,-0.00227988,0.260804,-0.0543492,0.00247359,0.00989003,0.978607,5,0.1,11,3.7,-3.7789,-3.62662,0.609227,0.0179134,0.866026,-0.00571739,-0.00038743,0,0.000163913,0.0200002,2.27169,5,0.1,12,3.7,0.0680324,3.61537,0.591456,0.287662,-0.605819,0.0117646,0.19513,-0.831187,-0.00333413,0.00931276,2.67803,5,0.1,13,3.7,1.21319,-3.73537,1.13434,-0.862234,-0.0144724,0.196941,-0.0260547,0.013575,-0.130266,0.0162051,1.02382,5,0.1,14,3.7,-2.18716,0.10872,1.31746,-0.0714406,0.133002,0.0300707,-0.0990629,1.03037,-0.0307932,0.00910926,1.66827,5,0.1,15,3.7,-4.33723,3.77585,1.01933,-0.0130996,-0.28446,0.0245787,0.0261664,0.298917,-0.0163019,0.00929082,1.92105,5,0.1,16,3.7,-1.80268,4.00862,0.5,0.865955,-0.0820771,2.8871e-06,-0.00276417,0.0214577,3.72529e-06,0.0606563,1.60686,5,0.1,17,3.7,-5.2284,-1.62727,0.597248,-0.0202194,0.469706,0.00257855,0.0188351,-0.0484213,-0.00240281,0.0254673,0.159548,5,0.1,18,3.7,-0.0139438,-2.77681,0.613487,-0.049956,0.806002,0.000655744,0.199287,-0.506014,-0.0311397,0.0132476,2.53724,5,0.1,19,3.7,0.569839,3.28075,1.29901,0.138436,0.201604,0.0482682,-0.331871,-0.338256,-0.0459552,0.0108271,1.42645,5,0.1
0,3.8,0.415363,-2.6593,0.522306,0.147434,-0.342512,-0.0220686,-0.0777245,0.157714,0.0120699,0.00963521,0.0331109,5,0.1,1,3.8,3.46364,-2.00005,0.614189,0.277472,-0.000941753,-0.0135347,-0.221014,-0.0447035,0.00962615,0.0120136,0.446695,5,0.1,2,3.8,-0.38154,3.80085,0.599162,0.327996,-0.00731349,0.000944734,-0.0686496,0.0584126,-0.00137091,0.0121857,0.302198,5,0.1,3,3.8,-2.09312,-2.52171,0.602738,0.218594,0.105256,-0.00411421,-0.207305,-0.307679,0.00378489,0.00911642,0.197914,5,0.1,4,3.8,0.0655691,2.42593,0.500001,0.118796,-0.866026,-1.49012e-06,-0.0312887,0,2.98023e-05,0.0200909,2.26367,5,0.1,5,3.8,3.85486,-2.00032,0.500028,0.24364,-0.0287414,0.000463426,-1.18518,-0.274301,0.00789762,0.0169854,3.80747,5,0.1,6,3.8,-0.830254,1.67778,0.597409,0.866026,-0.00612438,0.000569224,0,0.00101328,-5.96046e-05,0.00818788,2.2719,5,0.1,7,3.8,-0.0997781,-2.21384,0.638526,0.00297558,0.123066,-0.0402257,0.0217184,-0.242591,0.0475347,0.0103052,0.254977,5,0.1,8,3.8,0.897878,-2.38288,0.599984,-0.00113249,0.138074,-1.19209e-05,0.0332594,0.501156,0.000268221,0.0209278,0.0928232,5,0.1,9,3.8,-2.82551,-3.49413,0.748697,0.792116,0.682229,0.000835955,0.299215,0.433922,-0.0013113,0.0138874,2.01424,5,0.1,10,3.8,0.321089,0.197657,0.601812,-0.199679,-0.0085935,-0.0020355,0.256106,0.0913367,0.00244379,0.0130947,2.34207,5,0.1,11,3.8,-3.77711,-3.54001,0.608657,0.0177562,0.866026,-0.00566542,-0.00345707,0,0.00113249,0.0192302,1.97239,5,0.1,12,3.8,0.0973627,3.55102,0.592614,0.295239,-0.67634,0.0113666,-0.0277388,-0.542045,-0.00500679,0.00923769,2.62237,5,0.1,13,3.8,1.12701,-3.73675,1.15336,-0.858715,-0.0131249,0.183243,0.132501,0.0135899,-0.148296,0.0171253,0.73677,5,0.1,14,3.8,-2.19493,0.127389,1.32032,-0.0848055,0.240953,0.0271261,-0.151396,1.06725,-0.0289679,0.0108404,1.35472,5,0.1,15,3.8,-4.33842,3.74887,1.02171,-0.0108004,-0.256354,0.0229597,0.020504,0.230312,-0.0169277,0.00944863,0.365581,5,0.1,16,3.8,-1.71612,4.00054,0.500001,0.864911,-0.0793695,2.98023e-06,-0.0221729,0.0351667,-2.98023e-05,0.0549003,1.26547,5,0.1,17,3.8,-5.23033,-1.58073,0.597494,-0.0183821,0.458872,0.00234395,0.0185966,-0.178814,-0.00235438,0.0263405,0.10463,5,0.1,18,3.8,-0.0178771,-2.6991,0.613405,-0.0282928,0.744575,-0.00221133,0.224556,-0.722051,-0.0256002,0.011452,2.88942,5,0.1,19,3.8,0.582112,3.3,1.30361,0.108248,0.190818,0.0437796,-0.259936,0.103116,-0.0450611,0.0125919,1.23477,5,0.1
0,3.9,0.429731,-2.69276,0.520158,0.13993,-0.326516,-0.020905,-0.0769272,0.171646,0.0118762,0.00963521,0.0331109,5,0.1,1,3.9,3.49033,-2.00038,0.612882,0.256721,-0.0055261,-0.0126197,-0.201598,-0.0400841,0.00904128,0.0120136,0.446695,5,0.1,2,3.9,-0.349118,3.80043,0.59925,0.319868,-0.00116006,0.000821427,-0.102747,0.0582933,-0.00111759,0.0121857,0.302198,5,0.1,3,3.9,-2.07224,-2.5127,0.602344,0.199491,0.0752833,-0.00376664,-0.181288,-0.286981,0.00329316,0.00911642,0.197914,5,0.1,4,3.9,0.077341,2.33933,0.500001,0.116952,-0.866026,2.79397e-07,-0.0124536,0,1.11759e-05,0.0200909,2.26367,5,0.1,5,3.9,3.87309,-2.00493,0.5001,0.120044,-0.0662617,0.000867341,-1.24756,-0.443637,0.000763685,0.0169854,3.80747,5,0.1,6,3.9,-0.743652,1.67717,0.597466,0.866026,-0.00609104,0.000569038,-3.72529e-06,2.23517e-05,2.23517e-05,0.00818788,2.2719,5,0.1,7,3.9,-0.0994276,-2.20258,0.634707,0.00355315,0.103799,-0.0364324,-0.00716327,-0.151277,0.0306517,0.0103052,0.254977,5,0.1,8,3.9,0.89791,-2.36658,0.599984,0.00157477,0.187321,1.04308e-05,0.0212304,0.462666,0.000178814,0.0209278,0.0928232,5,0.1,9,3.9,-2.74467,-3.42362,0.748775,0.824777,0.727798,0.000735186,0.304833,0.429839,-0.000759959,0.0138874,2.01424,5,0.1,10,3.9,0.302331,0.197372,0.60162,-0.176087,0.00614978,-0.00181021,0.220392,0.277388,0.00211224,0.0130947,2.34207,5,0.1,11,3.9,-3.77535,-3.45341,0.608094,0.0175279,0.866026,-0.00559036,-0.00201166,0,0.000655651,0.0192302,1.97239,5,0.1,12,3.9,0.126186,3.48061,0.593729,0.277239,-0.731292,0.0109604,-0.270268,-0.509337,-0.00365078,0.00923769,2.62237,5,0.1,13,3.9,1.04163,-3.73799,1.17099,-0.849385,-0.0118889,0.169578,0.0948049,0.0115037,-0.130542,0.0171253,0.73677,5,0.1,14,3.9,-2.2043,0.157016,1.3229,-0.103586,0.352199,0.0245694,-0.207648,1.10562,-0.0231266,0.0108404,1.35472,5,0.1,15,3.9,-4.33941,3.72411,1.02393,-0.00907034,-0.24175,0.0214856,0.0146031,0.0610948,-0.0134706,0.00944863,0.365581,5,0.1,16,3.9,-1.62964,3.99261,0.500001,0.8651,-0.0806335,4.65661e-07,0.0018999,-0.0476092,-1.86265e-05,0.0549003,1.26547,5,0.1,17,3.9,-5.23208,-1.53573,0.597717,-0.0167191,0.44091,0.0021331,0.0153184,-0.193864,-0.0019446,0.0263405,0.10463,5,0.1,18,3.9,-0.0192421,-2.62843,0.613042,0.00371046,0.667177,-0.00512972,0.388252,-0.822529,-0.031054,0.011452,2.88942,5,0.1,19,3.9,0.591764,3.32049,1.30778,0.0867435,0.226307,0.0397412,-0.145864,0.539318,-0.0371411,0.0125919,1.23477,5,0.1
0,4,0.44331,-2.72447,0.518131,0.13129,-0.306636,-0.0195801,-0.0988841,0.231981,0.0150502,0.00966306,0.0125656,5,0.1,1,4,3.51498,-2.00108,0.611667,0.235873,-0.00789762,-0.0116661,-0.220299,-0.00393391,0.0103116,0.0111944,0.633418,5,0.1,2,4,-0.31776,3.80057,0.599326,0.306008,0.00335574,0.000716746,-0.180021,0.0283718,-0.00104308,0.0118678,1.54418,5,0.1,3,4,-2.0532,-2.50654,0.601984,0.181246,0.0486612,-0.00343323,-0.188112,-0.242114,0.00342727,0.00917171,0.323821,5,0.1,4,4,0.088959,2.25273,0.500001,0.115131,-0.866026,0,-0.0288449,0,0,0.0212916,2.26426,5,0.1,5,4,3.87902,-2.01383,0.500183,0.000935793,-0.111771,0.000721216,-1.10543,-0.442028,-0.00318885,0.00808707,0.627266,5,0.1,6,4,-0.657049,1.67656,0.597523,0.866026,-0.00605583,0.000567734,0,0.00101328,-8.9407e-05,0.0110274,2.30286,5,0.1,7,4,-0.0991355,-2.19286,0.631205,0.00207573,0.0912964,-0.03369,-0.0200681,-0.1055,0.0258684,0.0091861,0.250812,5,0.1,8,4,0.898156,-2.34574,0.599985,0.00318289,0.227058,2.38419e-05,0.0112653,0.317574,8.9407e-05,0.0244934,0.123495,5,0.1,9,4,-2.66099,-3.34902,0.748845,0.844759,0.760126,0.000672042,0.0607967,0.183821,-0.000506639,0.013064,1.5058,5,0.1,10,4,0.285796,0.2,0.601449,-0.154802,0.0524331,-0.00160336,0.208601,0.629917,0.00199676,0.0122445,3.49064,5,0.1,11,4,-3.77361,-3.36681,0.60754,0.0172019,0.866026,-0.00548512,-0.005126,0,0.00163913,0.0189944,1.54676,5,0.1,12,4,0.152544,3.4053,0.594805,0.250646,-0.770146,0.0105485,-0.228956,-0.235081,-0.00500679,0.00964121,2.568,5,0.1,13,4,0.957378,-3.73913,1.18729,-0.832872,-0.0107527,0.156197,0.263572,0.0114441,-0.140965,0.0176764,0.515207,5,0.1,14,4,-2.21568,0.197473,1.32524,-0.123465,0.453057,0.0223309,-0.17786,0.873395,-0.0222325,0.00977854,0.166452,5,0.1,15,4,-4.34025,3.7,1.02601,-0.00779629,-0.24237,0.0201136,0.0116825,-0.0549555,-0.0147223,0.00976075,1.6385,5,0.1,16,4,-1.54324,3.98426,0.500001,0.861222,-0.0866413,0,-0.0959635,-0.0625849,-2.98023e-05,0.0555703,0.941177,5,0.1,17,4,-5.23368,-1.49272,0.597921,-0.0152111,0.417876,0.00194162,0.0150204,-0.275612,-0.00190735,0.0293656,0.919637,5,0.1,18,4,-0.0168448,-2.56597,0.612377,0.0445489,0.580835,-0.00812262,0.407691,-0.899911,-0.027597,0.0117398,3.128,5,0.1,19,4,0.6,3.34608,1.31157,0.0807717,0.286824,0.0361055,0.0191629,0.61965,-0.0365973,0.0118816,1.00155,5,0.1
0,4.1,0.455941,-2.75395,0.516248,0.121217,-0.282657,-0.0180512,-0.104684,0.251651,0.0158437,0.00966306,0.0125656,5,0.1,1,4.1,3.53752,-2.00195,0.610549,0.215439,-0.00944957,-0.0107026,-0.194818,-0.00202656,0.00926852,0.0111944,0.633418,5,0.1,2,4.1,-0.288047,3.80124,0.599393,0.288185,0.0108704,0.000624079,-0.183957,0.0734925,-0.00083074,0.0118678,1.54418,5,0.1,3,4.1,-2.03601,-2.50279,0.601658,0.162445,0.0274085,-0.0030892,-0.189558,-0.181943,0.00348687,0.00917171,0.323821,5,0.1,4,4.1,0.100374,2.16612,0.500001,0.113463,-0.866026,-9.31323e-08,-0.0111489,0,-3.72529e-06,0.0212916,2.26426,5,0.1,5,4.1,3.87535,-2.02669,0.500236,-0.0587005,-0.14049,0.000323541,-0.165299,-0.147879,-0.00445545,0.00808707,0.627266,5,0.1,6,4.1,-0.570457,1.6757,0.597617,0.865511,-0.0133796,0.00163289,-0.0205822,-0.130765,0.0189878,0.0110274,2.30286,5,0.1,7,4.1,-0.0990238,-2.18417,0.627949,0.000213273,0.0831552,-0.031526,-0.0167824,-0.0631809,0.0189543,0.0091861,0.250812,5,0.1,8,4.1,0.898515,-2.32138,0.599988,0.00383928,0.259956,3.01749e-05,0.00241399,0.317812,3.72529e-05,0.0244934,0.123495,5,0.1,9,4.1,-2.57618,-3.27212,0.748917,0.850774,0.77659,0.000820402,0.0220388,0.111684,0.00301376,0.013064,1.5058,5,0.1,10,4.1,0.271108,0.208153,0.601299,-0.14106,0.108379,-0.00140099,0.0818651,0.494761,0.00205263,0.0122445,3.49064,5,0.1,11,4.1,-3.77191,-3.28021,0.606998,0.0167631,0.865924,-0.00534495,-0.00438094,-0.00408292,0.00139698,0.0189944,1.54676,5,0.1,12,4.1,0.176505,3.32702,0.595839,0.231496,-0.795438,0.0101443,-0.0648871,-0.226691,-0.00357628,0.00964121,2.568,5,0.1,13,4.1,0.875286,-3.74015,1.20225,-0.809329,-0.00971556,0.143261,0.240225,0.00962615,-0.122391,0.0176764,0.515207,5,0.1,14,4.1,-2.22864,0.246419,1.32737,-0.133163,0.51862,0.0203624,-0.0231266,0.438989,-0.0179261,0.00977854,0.166452,5,0.1,15,4.1,-4.34097,3.67565,1.02796,-0.00683367,-0.24367,0.0188069,0.00798702,0.00064075,-0.0121519,0.00976075,1.6385,5,0.1,16,4.1,-1.45734,3.97521,0.500001,0.858098,-0.0947881,-1.86265e-06,-0.0141561,-0.0904948,-1.49012e-05,0.0555703,0.941177,5,0.1,17,4.1,-5.23513,-1.45148,0.59795,-0.013864,0.413685,-0.00267485,0.0124574,0.131093,-0.0806116,0.0293656,0.919637,5,0.1,18,4.1,-0.00999328,-2.51187,0.611435,0.095119,0.505519,-0.0106099,0.566914,-0.634551,-0.021521,0.0117398,3.128,5,0.1,19,4.1,0.60851,3.3782,1.31501,0.0921536,0.3574,0.0328247,0.183411,0.740662,-0.0302047,0.0118816,1.00155,5,0.1
0,4.2,0.467516,-2.7809,0.514526,0.110021,-0.255674,-0.0163615,-0.120431,0.290155,0.01809,0.0101341,0.00634339,5,0.1,1,4.2,3.55809,-2.00275,0.609525,0.195831,-0.00478029,-0.00976026,-0.201821,0.105262,0.00980496,0.011089,1.42497,5,0.1,2,4.2,-0.260204,3.80248,0.599452,0.267976,0.0110209,0.000546873,-0.225097,-0.0925064,-0.000745058,0.0124184,3.58473,5,0.1,3,4.2,-2.02073,-2.50085,0.601367,0.143087,0.0123382,-0.00273138,-0.198603,-0.119686,0.00372529,0.0101871,0.487278,5,0.1,4,4.2,0.111649,2.07952,0.500001,0.111767,-0.866026,-1.49012e-06,-0.0275001,0,2.98023e-05,0.0214086,2.26831,5,0.1,5,4.2,3.86968,-2.0411,0.500246,-0.0462294,-0.144249,-0.000114739,0.351667,0.059247,-0.00411272,0.00836008,0.39815,5,0.1,6,4.2,-0.484173,1.67361,0.59789,0.857794,-0.0292391,0.0039354,-0.164642,-0.17345,0.0252724,0.0106591,2.58798,5,0.1,7,4.2,-0.0990784,-2.17614,0.624891,-0.00121761,0.077641,-0.0296354,-0.0116117,-0.0516176,0.0199974,0.00770508,0.248406,5,0.1,8,4.2,0.8989,-2.29395,0.599991,0.00376701,0.286782,3.12924e-05,-0.00342727,0.203013,2.98023e-05,0.0239732,0.196254,5,0.1,9,4.2,-2.49131,-3.19425,0.749017,0.842893,0.776845,0.00119507,-0.20504,-0.129104,0.00414252,0.0126687,1.09671,5,0.1,10,4.2,0.257308,0.221273,0.601169,-0.135672,0.152186,-0.00119358,0.0378191,0.383608,0.00205636,0.0107054,3.382,5,0.1,11,4.2,-3.77026,-3.19367,0.606472,0.0162005,0.864393,-0.00516623,-0.00727177,-0.0326633,0.00229478,0.0186899,1.17826,5,0.1,12,4.2,0.2,3.24665,0.596834,0.24495,-0.808048,0.00974834,0.317603,0.00476837,-0.00470877,0.00900703,2.06747,5,0.1,13,4.2,0.795736,-3.74107,1.21596,-0.779286,-0.0087738,0.130934,0.383139,0.00941753,-0.127316,0.0154829,0.352757,5,0.1,14,4.2,-2.24187,0.29977,1.32932,-0.129437,0.541449,0.0186086,0.0914335,0.0224113,-0.0177026,0.0106857,0.0927396,5,0.1,15,4.2,-4.34162,3.65122,1.02978,-0.00613928,-0.246084,0.0175565,0.00667572,-0.0588894,-0.013411,0.00819714,0.411091,5,0.1,16,4.2,-1.37179,3.9653,0.500001,0.850278,-0.103033,-1.49012e-06,-0.175655,-0.0674725,-2.98023e-05,0.0554872,0.674743,5,0.1,17,4.2,-5.23646,-1.4092,0.597216,-0.0126481,0.43343,-0.012435,0.0126362,0.217795,-0.106931,0.02753,0.72302,5,0.1,18,4.2,0.00236656,-2.46424,0.610281,0.1515,0.448978,-0.0123248,0.533194,-0.517607,-0.0124276,0.010874,3.13092,5,0.1,19,4.2,0.618744,3.41749,1.31814,0.113039,0.426114,0.0298589,0.215203,0.596523,-0.0298619,0.0126143,0.153145,5,0.1
0,4.3,0.477925,-2.80503,0.512979,0.0982013,-0.227057,-0.0145881,-0.117559,0.285238,0.0176169,0.0101341,0.00634339,5,0.1,1,4.3,3.57673,-2.0027,0.608596,0.177284,0.00846386,-0.00885464,-0.174522,0.245839,0.00856817,0.011089,1.42497,5,0.1,2,4.3,-0.234458,3.80307,0.599503,0.247464,-0.00353381,0.000473484,-0.193651,-0.337183,-0.000730157,0.0124184,3.58473,5,0.1,3,4.3,-2.00741,-2.5002,0.601112,0.12346,0.00111125,-0.0023623,-0.19411,-0.0975877,0.00366196,0.0101871,0.487278,5,0.1,4,4.3,0.122732,1.99292,0.500001,0.110166,-0.865896,2.79397e-07,-0.0108951,0.00520051,1.11759e-05,0.0214086,2.26831,5,0.1,5,4.3,3.86749,-2.05511,0.500218,0.00792183,-0.134934,-0.00041388,0.679389,0.123709,-0.0019744,0.00836008,0.39815,5,0.1,6,4.3,-0.399915,1.66981,0.598543,0.820749,-0.0464944,0.0101996,-0.561444,-0.165038,0.0907294,0.0106591,2.58798,5,0.1,7,4.3,-0.0992441,-2.1686,0.62202,-0.00196713,0.0734907,-0.0278085,-0.00386173,-0.0353009,0.0175461,0.00770508,0.248406,5,0.1,8,4.3,0.899253,-2.26404,0.599995,0.0032478,0.312836,3.22238e-05,-0.00659749,0.286341,-7.45058e-06,0.0239732,0.196254,5,0.1,9,4.3,-2.40819,-3.11767,0.749211,0.817527,0.750098,0.00313763,-0.320479,-0.403732,0.0311285,0.0126687,1.09671,5,0.1,10,4.3,0.243789,0.23784,0.601059,-0.135771,0.175213,-0.000999589,-0.0266572,0.143747,0.00183657,0.0107054,3.382,5,0.1,11,4.3,-3.76867,-3.10724,0.605966,0.0155363,0.864784,-0.00495669,-0.00660121,0.00748038,0.00208616,0.0186899,1.17826,5,0.1,12,4.3,0.22698,3.16582,0.597788,0.30168,-0.808181,0.00934154,0.740935,0.027895,-0.0038296,0.00900703,2.06747,5,0.1,13,4.3,0.719603,-3.74191,1.22846,-0.743857,-0.00792257,0.119301,0.352409,0.00785291,-0.109203,0.0154829,0.352757,5,0.1,14,4.3,-2.2542,0.353832,1.33111,-0.115847,0.537563,0.0173327,0.172958,-0.110248,-0.00913441,0.0106857,0.0927396,5,0.1,15,4.3,-4.34221,3.62622,1.03147,-0.00559911,-0.254899,0.016351,0.00444055,-0.125214,-0.01131,0.00819714,0.411091,5,0.1,16,4.3,-1.28749,3.95463,0.5,0.836284,-0.110301,-2.79397e-06,-0.142395,-0.0701845,0,0.0554872,0.674743,5,0.1,17,4.3,-5.23766,-1.3644,0.595381,-0.0115149,0.464845,-0.0246624,0.0104606,0.363789,-0.13024,0.02753,0.72302,5,0.1,18,4.3,0.0203851,-2.42107,0.608995,0.209821,0.421742,-0.0132967,0.591577,-0.077188,-0.00659376,0.010874,3.13092,5,0.1,19,4.3,0.631094,3.46253,1.32099,0.133433,0.469013,0.0271793,0.183489,0.261486,-0.0247061,0.0126143,0.153145,5,0.1
0,4.4,0.487152,-2.8263,0.511609,0.0862613,-0.198168,-0.0128001,-0.122145,0.294209,0.0182092,0.0106869,0.00194465,5,0.1,1,4.4,3.59359,-2,0.607753,0.160009,0.051558,-0.00800192,-0.174642,0.60159,0.00867248,0.0102024,3.45122,5,0.1,2,4.4,-0.210685,3.8,0.599546,0.227804,-0.0679672,0.000402331,-0.205472,-0.928402,-0.000745058,0.0140781,3.14334,5,0.1,3,4.4,-1.99602,-2.50049,0.600894,0.10426,-0.00607967,-0.00199974,-0.18996,-0.0423193,0.00357628,0.010076,0.964294,5,0.1,4,4.4,0.133679,1.9064,0.500001,0.108496,-0.863945,0,-0.0270531,0.0415444,0,0.0233308,2.18777,5,0.1,5,4.4,3.87187,-2.06791,0.500169,0.0804842,-0.120157,-0.000528991,0.732064,0.168681,-0.000417233,0.00769877,0.297419,5,0.1,6,4.4,-0.321198,1.6644,0.600061,0.748485,-0.0611216,0.0204384,-0.868857,-0.122786,0.106871,0.00993449,2.84775,5,0.1,7,4.4,-0.0994506,-2.16143,0.61933,-0.00207927,0.0699103,-0.0259593,0.00121072,-0.0389814,0.0201762,0.00859124,0.24688,5,0.1,8,4.4,0.899542,-2.2314,0.599998,0.00251234,0.33859,2.98023e-05,-0.00786781,0.205994,-2.98023e-05,0.0232345,0.120039,5,0.1,9,4.4,-2.32835,-3.04512,0.7497,0.775898,0.69679,0.00678599,-0.522971,-0.657678,0.039041,0.0124844,1.0543,5,0.1,10,4.4,0.230061,0.256091,0.600968,-0.13872,0.19078,-0.000825524,-0.0226498,0.199184,0.00166893,0.0130039,3.20363,5,0.1,11,4.4,-3.76716,-3.02087,0.605482,0.014782,0.860858,-0.00471771,-0.0089407,-0.103474,0.00283122,0.0188682,0.869663,5,0.1,12,4.4,0.261036,3.08541,0.598702,0.379794,-0.796545,0.00891536,0.763953,0.228524,-0.00503659,0.00880726,1.58202,5,0.1,13,4.4,0.647108,-3.74266,1.23985,-0.704272,-0.00715256,0.108439,0.457674,0.00762939,-0.110865,0.0155263,0.238362,5,0.1,14,4.4,-2.26484,0.406752,1.3328,-0.09619,0.517849,0.0165492,0.213861,-0.289381,-0.00745058,0.00929423,0.293728,5,0.1,15,4.4,-4.34275,3.6,1.03305,-0.00519753,-0.270361,0.0151902,0.0038147,-0.168443,-0.0122786,0.00780839,1.6176,5,0.1,16,4.4,-1.20477,3.9433,0.5,0.81535,-0.115764,-1.49012e-06,-0.302613,-0.0338554,1.49012e-05,0.0578477,0.470776,5,0.1,17,4.4,-5.23876,-1.31617,0.592275,-0.0104904,0.498119,-0.0372007,0.010252,0.267804,-0.115037,0.0274945,0.548409,5,0.1,18,4.4,0.0441443,-2.3789,0.607644,0.262812,0.424516,-0.0135824,0.439854,0.0925064,0.00110269,0.0111773,2.95546,5,0.1,19,4.4,0.645241,3.51019,1.32359,0.148197,0.478733,0.0247478,0.105649,-0.0638962,-0.0245571,0.0128806,0.141472,5,0.1
0,4.5,0.495174,-2.84467,0.510419,0.0742579,-0.169289,-0.0110115,-0.118244,0.283733,0.0176094,0.0106869,0.00194465,5,0.1,1,4.5,3.60918,-1.99202,0.606994,0.155532,0.106342,-0.00718376,0.0551045,0.49644,0.00785664,0.0102024,3.45122,5,0.1,2,4.5,-0.188839,3.78727,0.599583,0.209809,-0.196705,0.000333786,-0.163109,-1.53378,-0.000633299,0.0140781,3.14334,5,0.1,3,4.5,-1.98651,-2.50139,0.600712,0.0862427,-0.0116654,-0.00165971,-0.170857,-0.0367761,0.00322983,0.010076,0.964294,5,0.1,4,4.5,0.144427,1.82093,0.500001,0.106655,-0.838873,0,-0.0154013,0.436045,0,0.0233308,2.18777,5,0.1,5,4.5,3.88369,-2.07919,0.500117,0.156204,-0.106563,-0.000508875,0.749469,0.110179,0.000707805,0.00769877,0.297419,5,0.1,6,4.5,-0.250602,1.65849,0.602711,0.664149,-0.0500264,0.0330418,-0.825563,0.298627,0.136442,0.00993449,2.84775,5,0.1,7,4.5,-0.0996466,-2.15462,0.616831,-0.00179178,0.0663724,-0.024025,0.00416441,-0.0343174,0.019148,0.00859124,0.24688,5,0.1,8,4.5,0.899754,-2.19651,0.600001,0.00173412,0.358773,2.62633e-05,-0.00751764,0.177428,-4.47035e-05,0.0232345,0.120039,5,0.1,9,4.5,-2.25311,-2.97903,0.750476,0.730686,0.622254,0.00787182,-0.412926,-0.821799,-0.0126101,0.0124844,1.0543,5,0.1,10,4.5,0.215996,0.276147,0.600894,-0.143091,0.213228,-0.000674557,-0.0534998,0.358572,0.00136718,0.0130039,3.20363,5,0.1,11,4.5,-3.76572,-2.93506,0.605023,0.0139553,0.856497,-0.00445582,-0.00806153,-0.0300407,0.002563,0.0188682,0.869663,5,0.1,12,4.5,0.303145,3.00684,0.59957,0.463994,-0.77482,0.0084633,0.862047,0.234738,-0.00433624,0.00880726,1.58202,5,0.1,13,4.5,0.578841,-3.74334,1.25017,-0.661798,-0.00646487,0.098354,0.414122,0.00634789,-0.094071,0.0155263,0.238362,5,0.1,14,4.5,-2.27338,0.457367,1.33442,-0.0748374,0.496458,0.0157651,0.210434,-0.167748,-0.00859797,0.00929423,0.293728,5,0.1,15,4.5,-4.34325,3.57108,1.03451,-0.00489131,-0.316463,0.0140781,0.0025928,-0.671759,-0.0104681,0.00780839,1.6176,5,0.1,16,4.5,-1.12463,3.93155,0.5,0.787932,-0.119194,3.72529e-07,-0.276737,-0.0286847,1.49012e-05,0.0578477,0.470776,5,0.1,17,4.5,-5.23977,-1.26489,0.58797,-0.00956953,0.527935,-0.0488581,0.00852346,0.292122,-0.112489,0.0274945,0.548409,5,0.1,18,4.5,0.072173,-2.33496,0.606301,0.293058,0.462704,-0.0131802,0.158414,0.594541,0.00697002,0.0111773,2.95546,5,0.1,19,4.5,0.660716,3.55749,1.32595,0.162143,0.464768,0.0225421,0.156097,-0.216708,-0.020355,0.0128806,0.141472,5,0.1
0,4.6,0.502014,-2.86019,0.509405,0.0625715,-0.141388,-0.0092715,-0.115544,0.27442,0.0171661,0.0113805,0.000987789,5,0.1,1,4.6,3.62518,-1.97907,0.606315,0.165731,0.151056,-0.00640303,0.126004,0.397503,0.00789762,0.0103998,3.33184,5,0.1,2,4.6,-0.168662,3.75969,0.599613,0.193697,-0.354958,0.000274181,-0.165299,-1.54591,-0.000566244,0.0203576,2.67617,5,0.1,3,4.6,-1.97872,-2.50253,0.600561,0.0700146,-0.00883341,-0.00135303,-0.154078,0.106812,0.00295043,0.0087784,3.58042,5,0.1,4,4.6,0.154997,1.73972,0.500001,0.104457,-0.780931,0,-0.0324994,0.704646,0,0.0102058,0.655797,5,0.1,5,4.6,3.90286,-2.08935,0.50007,0.224745,-0.0969052,-0.000406802,0.597596,0.0884533,0.0012517,0.00649271,0.242741,5,0.1,6,4.6,-0.188293,1.65536,0.606687,0.582105,-0.00962615,0.04621,-0.820309,0.473142,0.120461,0.00910011,2.87876,5,0.1,7,4.6,-0.0998026,-2.14816,0.614527,-0.00131205,0.0626206,-0.0220239,0.00514835,-0.0423193,0.0213385,0.00932071,0.24596,5,0.1,8,4.6,0.899892,-2.15993,0.600003,0.00103712,0.370681,2.08616e-05,-0.00631809,0.0472069,-2.98023e-05,0.0233633,0.065589,5,0.1,9,4.6,-2.18214,-2.9211,0.751147,0.687921,0.5346,0.00511706,-0.464916,-0.921011,-0.0387728,0.0130577,0.815565,5,0.1,10,4.6,0.201444,0.3,0.600833,-0.147484,0.270916,-0.000549853,-0.0262707,0.770628,0.00113249,0.0108171,2.88159,5,0.1,11,4.6,-3.76437,-2.84975,0.604591,0.0130832,0.84697,-0.00417978,-0.00965595,-0.192761,0.00306964,0.0181109,1.11573,5,0.1,12,4.6,0.353626,2.93073,0.600394,0.542232,-0.744784,0.00799298,0.66097,0.385284,-0.00530481,0.0108941,1.17039,5,0.1,13,4.6,0.514808,-3.74395,1.25954,-0.617693,-0.00584722,0.0890762,0.483199,0.00631809,-0.0938177,0.0135221,0.447778,5,0.1,14,4.6,-2.27984,0.506178,1.33595,-0.0545859,0.479254,0.01477,0.192404,-0.19744,-0.0116229,0.0110814,0.598734,5,0.1,15,4.6,-4.34373,3.5358,1.03586,-0.00462532,-0.390321,0.0130117,0.00238419,-0.743032,-0.0112653,0.00725322,0.369326,5,0.1,16,4.6,-1.04738,3.91953,0.5,0.754786,-0.120479,1.49012e-06,-0.407249,0.00727177,0,0.0497632,0.322272,5,0.1,17,4.6,-5.24068,-1.21084,0.582563,-0.00872612,0.550351,-0.0587419,0.00834465,0.130653,-0.0812411,0.0252164,0.806023,5,0.1,18,4.6,0.101774,-2.28541,0.605028,0.294033,0.529641,-0.0121951,-0.136867,0.683069,0.0126362,0.012843,2.64783,5,0.1,19,4.6,0.677678,3.60263,1.3281,0.176451,0.435352,0.0205368,0.11766,-0.370502,-0.0203252,0.00928305,0.357814,5,0.1
0,4.7,0.507706,-2.87299,0.508562,0.051399,-0.114942,-0.00761198,-0.107709,0.253886,0.0159927,0.0113805,0.000987789,5,0.1,1,4.7,3.64259,-1.96253,0.605712,0.183978,0.175662,-0.00567846,0.215337,0.15901,0.00675768,0.0103998,3.33184,5,0.1,2,4.7,-0.150025,3.71605,0.599721,0.179748,-0.519927,0.00256859,-0.122269,-1.66562,0.041239,0.0203576,2.67617,5,0.1,3,4.7,-1.97163,-2.50292,0.600448,0.0788117,0.00468194,-0.000836235,0.278242,0.300169,0.00685826,0.0087784,3.58042,5,0.1,4,4.7,0.165973,1.66626,0.500001,0.120794,-0.678603,-9.31323e-08,0.311994,1.28099,-3.72529e-06,0.0102058,0.655797,5,0.1,5,4.7,3.92824,-2.09881,0.500036,0.281455,-0.0940353,-0.000275578,0.514388,-0.0164211,0.00130758,0.00649271,0.242741,5,0.1,6,4.7,-0.133115,1.65708,0.611866,0.530608,0.0461781,0.0568505,-0.270194,0.604607,0.0888184,0.00910011,2.87876,5,0.1,7,4.7,-0.0999084,-2.1421,0.612429,-0.000812416,0.0585213,-0.0199605,0.00467803,-0.0412464,0.0203326,0.00932071,0.24596,5,0.1,8,4.7,0.899967,-2.12268,0.600005,0.0004909,0.373187,1.74157e-05,-0.00460818,-0.00950694,-4.09782e-05,0.0233633,0.065589,5,0.1,9,4.7,-2.11528,-2.87178,0.751363,0.652213,0.456037,-0.00164621,-0.287294,-0.672951,-0.0890791,0.0130577,0.815565,5,0.1,10,4.7,0.186513,0.332052,0.600783,-0.151409,0.378535,-0.00045076,-0.0422671,1.27759,0.000864267,0.0108171,2.88159,5,0.1,11,4.7,-3.7631,-2.76556,0.604187,0.0121899,0.840011,-0.00389572,-0.00861287,-0.00333786,0.00273436,0.0181109,1.11573,5,0.1,12,4.7,0.410924,2.85809,0.601168,0.600896,-0.70838,0.00750925,0.491383,0.366539,-0.00464171,0.0108941,1.17039,5,0.1,13,4.7,0.455005,-3.74451,1.26801,-0.581891,-0.00527985,0.0805756,0.271177,0.00520051,-0.0788942,0.0135221,0.447778,5,0.1,14,4.7,-2.28468,0.553592,1.33737,-0.0451453,0.47268,0.0136411,0.0143051,0.0228174,-0.0112727,0.0110814,0.598734,5,0.1,15,4.7,-4.34418,3.49329,1.03711,-0.00442564,-0.456727,0.0119889,0.00178814,-0.562221,-0.0096038,0.00725322,0.369326,5,0.1,16,4.7,-0.973818,3.90752,0.5,0.71708,-0.119773,1.39698e-06,-0.372324,0.011757,-3.72529e-06,0.0497632,0.322272,5,0.1,17,4.7,-5.24151,-1.15479,0.57629,-0.00797361,0.572929,-0.066535,0.00697374,0.272311,-0.070259,0.0252164,0.806023,5,0.1,18,4.7,0.12994,-2.22823,0.603877,0.26444,0.619543,-0.010759,-0.427657,1.02259,0.0158101,0.012843,2.64783,5,0.1,19,4.7,0.695955,3.64472,1.33006,0.189169,0.409764,0.0187101,0.123344,-0.173181,-0.0168756,0.00928305,0.357814,5,0.1
0,4.8,0.512321,-2.88326,0.507878,0.0410676,-0.0907242,-0.00607818,-0.0987053,0.230074,0.0146329,0.0102316,0.000831338,5,0.1,1,4.8,3.66206,-1.94417,0.605177,0.204706,0.192344,-0.00502467,0.181675,0.205159,0.0064373,0.0107959,3.15379,5,0.1,2,4.8,-0.132648,3.65612,0.600217,0.167766,-0.672966,0.00759363,-0.12356,-1.33157,0.0552237,0.0133675,2.38012,5,0.1,3,4.8,-1.962,-2.5,0.600402,0.116456,0.0630021,-7.45058e-05,0.434339,0.847459,0.00789762,0.00891409,3.11894,5,0.1,4,4.8,0.179861,1.60534,0.500001,0.158506,-0.535741,0,0.40599,1.52707,-2.98023e-05,0.00870943,0.342088,5,0.1,5,4.8,3.95867,-2.10837,0.500015,0.323915,-0.0976145,-0.000153482,0.319958,-0.0439882,0.00104308,0.0103247,0.209994,5,0.1,6,4.8,-0.0809101,1.66468,0.61792,0.517207,0.104719,0.0634193,-0.0458539,0.538945,0.0405014,0.0100933,2.78318,5,0.1,7,4.8,-0.0999681,-2.13647,0.610536,-0.000401773,0.0541031,-0.0178918,0.00344589,-0.0480413,0.0213683,0.00829167,0.245453,5,0.1,8,4.8,0.899996,-2.08559,0.600006,0.000111759,0.366759,1.19209e-05,-0.00301003,-0.126958,0,0.0258827,0.0438769,5,0.1,9,4.8,-2.05145,-2.82928,0.75072,0.623894,0.396001,-0.0113875,-0.306726,-0.545144,-0.100017,0.0125862,0.621665,5,0.1,10,4.8,0.171201,0.376425,0.600742,-0.154239,0.508206,-0.000374019,-0.00730157,1.23771,0.000715256,0.0121311,2.52047,5,0.1,11,4.8,-3.76193,-2.68164,0.603812,0.0112951,0.836521,-0.00361055,-0.00953674,-0.107646,0.00306964,0.0193158,2.34468,5,0.1,12,4.8,0.473045,2.78921,0.601895,0.63689,-0.6675,0.00701845,0.21322,0.467062,-0.00533462,0.00958881,0.867252,5,0.1,13,4.8,0.398079,-3.74501,1.27568,-0.556812,-0.00477433,0.0728369,0.258551,0.005126,-0.0778437,0.0139292,0.72195,5,0.1,14,4.8,-2.28929,0.601047,1.33867,-0.0485301,0.476317,0.0124633,-0.0678301,0.0180602,-0.0125766,0.0107692,0.457595,5,0.1,15,4.8,-4.34461,3.44526,1.03826,-0.00423193,-0.49904,0.0110179,0.00238419,-0.269532,-0.0100136,0.00775431,0.245668,5,0.1,16,4.8,-0.904083,3.89564,0.5,0.67604,-0.117314,1.49012e-06,-0.46584,0.0408888,-2.98023e-05,0.0512994,0.218234,5,0.1,17,4.8,-5.24228,-1.09623,0.569333,-0.00728369,0.596452,-0.072062,0.00715256,0.163078,-0.0373423,0.0242047,1.40005,5,0.1,18,4.8,0.153953,-2.16123,0.602884,0.213464,0.718123,-0.00908375,-0.569604,0.881314,0.0174046,0.0118786,2.39494,5,0.1,19,4.8,0.715408,3.68494,1.33185,0.19885,0.395155,0.0170469,0.0609159,-0.142813,-0.0168681,0.00856778,0.41355,5,0.1
0,4.9,0.515952,-2.89122,0.507341,0.0317265,-0.0690449,-0.0046934,-0.0878312,0.20282,0.0130199,0.0102316,0.000831338,5,0.1,1,4.9,3.68352,-1.92395,0.604704,0.224955,0.214816,-0.00444585,0.204176,0.351526,0.00528619,0.0107959,3.15379,5,0.1,2,4.9,-0.116391,3.58285,0.601201,0.158138,-0.78505,0.0116015,-0.078164,-0.886023,0.0262037,0.0133675,2.38012,5,0.1,3,4.9,-1.94784,-2.48826,0.600437,0.169185,0.181219,0.000780448,0.580691,1.41253,0.00880659,0.00891409,3.11894,5,0.1,4,4.9,0.197405,1.559,0.500001,0.189088,-0.394999,-1.86265e-06,0.20842,1.28774,-1.49012e-05,0.00870943,0.342088,5,0.1,5,4.9,3.99258,-2.11856,0.500004,0.352913,-0.107883,-6.53788e-05,0.242472,-0.142664,0.000700355,0.0103247,0.209994,5,0.1,6,4.9,-0.0287189,1.67742,0.624353,0.532003,0.146047,0.0642021,0.27897,0.293761,-0.0215732,0.0100933,2.78318,5,0.1,7,4.9,-0.0999937,-2.13129,0.60885,-0.000135112,0.0494108,-0.0158396,0.00192504,-0.0468194,0.0199303,0.00829167,0.245453,5,0.1,8,4.9,0.899994,-2.04952,0.600008,-0.00012191,0.354592,1.07102e-05,-0.00172481,-0.12973,-1.86265e-05,0.0258827,0.0438769,5,0.1,9,4.9,-1.9904,-2.79183,0.749013,0.598325,0.357847,-0.0232209,-0.232451,-0.253469,-0.128873,0.0125862,0.621665,5,0.1,10,4.9,0.155696,0.433853,0.600708,-0.156064,0.642389,-0.000314228,-0.0200234,1.36148,0.000499189,0.0121311,2.52047,5,0.1,11,4.9,-3.7603,-2.59787,0.603466,0.0257358,0.843629,-0.00331271,0.263959,0.179231,0.00296533,0.0193158,2.34468,5,0.1,12,4.9,0.53703,2.72468,0.602572,0.637304,-0.623791,0.0065295,-0.123648,0.426918,-0.00467151,0.00958881,0.867252,5,0.1,13,4.9,0.343124,-3.74547,1.2826,-0.546689,-0.004315,0.0658073,-0.00595704,0.00421703,-0.0649989,0.0139292,0.72195,5,0.1,14,4.9,-2.29464,0.648993,1.33986,-0.0595048,0.483981,0.0112779,-0.138104,0.101499,-0.0114143,0.0107692,0.457595,5,0.1,15,4.9,-4.34502,3.39416,1.03932,-0.00402257,-0.520924,0.0101076,0.00199676,-0.149667,-0.00854582,0.00775431,0.245668,5,0.1,16,4.9,-0.838677,3.8841,0.5,0.632858,-0.113396,-5.58794e-07,-0.418894,0.0414997,-7.45058e-06,0.0512994,0.218234,5,0.1,17,4.9,-5.24297,-1.03515,0.561949,-0.00663847,0.629541,-0.0754453,0.00596046,0.430983,-0.0268593,0.0242047,1.40005,5,0.1,18,4.9,0.172295,-2.08522,0.602062,0.1523,0.798874,-0.00737431,-0.634992,0.691175,0.0166781,0.0118786,2.39494,5,0.1,19,4.9,0.73561,3.72411,1.33348,0.205035,0.391174,0.0155302,0.0522174,0.0282228,-0.0140145,0.00856778,0.41355,5,0.1
0,5,0.518706,-2.89716,0.506934,0.0235498,-0.0502706,-0.0034824,-0.0755787,0.172257,0.0112355,0.0103315,0.000642623,5,0.1,1,5,3.70694,-1.9,0.604285,0.242269,0.271019,-0.00394136,0.128746,0.748932,0.00488758,0.0101654,2.84474,5,0.1,2,5,-0.100954,3.50078,0.602453,0.150551,-0.847703,0.0130743,-0.0802279,-0.366449,0.00441074,0.0140592,2.27533,5,0.1,3,5,-1.92804,-2.46285,0.600557,0.225708,0.327176,0.00161827,0.520468,1.42753,0.00762939,0.0119972,2.65706,5,0.1,4,5,0.21705,1.52554,0.500001,0.200835,-0.278094,-1.49012e-06,0.0302121,1.05137,-2.98023e-05,0.0103071,0.340476,5,0.1,5,5,4.02884,-2.1301,0.500001,0.369513,-0.122869,-1.49012e-05,0.0784397,-0.14329,0.000327826,0.0187739,4.21,5,0.1,6,5,0.0259879,1.69314,0.630586,0.562039,0.164726,0.0597253,0.27492,0.0863075,-0.0650287,0.0112897,2.91613,5,0.1,7,5,-0.0999997,-2.12659,0.607365,-6.33299e-06,0.0445843,-0.0138626,0.000715256,-0.0505447,0.0197887,0.00799623,0.245201,5,0.1,8,5,0.899975,-2.0148,0.600008,-0.000244379,0.338602,8.9407e-06,-0.000745058,-0.198722,-5.96046e-05,0.0209667,0.0791999,5,0.1,9,5,-1.9318,-2.75707,0.746052,0.572672,0.339055,-0.0358075,-0.300229,-0.149608,-0.117093,0.010561,0.458325,5,0.1,10,5,0.14003,0.504534,0.600678,-0.156681,0.765984,-0.000271201,0.0141263,1.04973,0.00038743,0.0128709,2.32987,5,0.1,11,5,-3.75619,-2.51261,0.60315,0.0579834,0.860512,-0.00300556,0.354171,0.110269,0.00321865,0.0169169,2.32996,5,0.1,12,5,0.6,2.6645,0.603202,0.621065,-0.578791,0.00604689,-0.193417,0.486612,-0.005126,0.0109426,0.629797,5,0.1,13,5,0.288326,-3.74588,1.28887,-0.549278,-0.0039041,0.0594556,-0.00877023,0.00405312,-0.0636578,0.0155038,0.595212,5,0.1,14,5,-2.3013,0.69781,1.34093,-0.0737846,0.49084,0.0101328,-0.137091,0.0116229,-0.0116825,0.00920524,0.33893,5,0.1,15,5,-4.34541,3.34164,1.04029,-0.0038147,-0.525963,0.00925362,0.00238419,0.0603199,-0.00888109,0.00780352,0.279662,5,0.1,16,5,-0.777548,3.873,0.5,0.588709,-0.108349,-1.49012e-06,-0.478566,0.0623465,0,0.0514767,0.147217,5,0.1,17,5,-5.24361,-0.970061,0.55431,-0.00605583,0.670908,-0.0768587,0.00619888,0.34672,0.000923872,0.0261499,1.53521,5,0.1,18,5,0.18437,-2.00245,0.601406,0.0897545,0.850207,-0.00576824,-0.601694,0.316381,0.0153482,0.00741914,0.569379,5,0.1,19,5,0.756289,3.76342,1.33496,0.207517,0.394726,0.0141472,-0.00977516,0.0170469,-0.0139475,0.00980909,0.310435,5,0.1
