id,t,px,py,pz,vx,vy,vz,ax,ay,az,planning_time,qp_cost,planning_report,size,id,t,px,py,pz,vx,vy,vz,ax,ay,az,planning_time,qp_cost,planning_report,size,id,t,px,py,pz,vx,vy,vz,ax,ay,az,planning_time,qp_cost,planning_report,size,id,t,px,py,pz,vx,vy,vz,ax,ay,az,planning_time,qp_cost,planning_report,size,id,t,px,py,pz,vx,vy,vz,ax,ay,az,planning_time,qp_cost,planning_report,size,id,t,px,py,pz,vx,vy,vz,ax,ay,az,planning_time,qp_cost,planning_report,size,id,t,px,py,pz,vx,vy,vz,ax,ay,az,planning_time,qp_cost,planning_report,size,id,t,px,py,pz,vx,vy,vz,ax,ay,az,planning_time,qp_cost,planning_report,size,id,t,px,py,pz,vx,vy,vz,ax,ay,az,planning_time,qp_cost,planning_report,size,id,t,px,py,pz,vx,vy,vz,ax,ay,az,planning_time,qp_cost,planning_report,size,id,t,px,py,pz,vx,vy,vz,ax,ay,az,planning_time,qp_cost,planning_report,size,id,t,px,py,pz,vx,vy,vz,ax,ay,az,planning_time,qp_cost,planning_report,size,id,t,px,py,pz,vx,vy,vz,ax,ay,az,planning_time,qp_cost,planning_report,size,id,t,px,py,pz,vx,vy,vz,ax,ay,az,planning_time,qp_cost,planning_report,size,id,t,px,py,pz,vx,vy,vz,ax,ay,az,planning_time,qp_cost,planning_report,size,id,t,px,py,pz,vx,vy,vz,ax,ay,az,planning_time,qp_cost,planning_report,size,id,t,px,py,pz,vx,vy,vz,ax,ay,az,planning_time,qp_cost,planning_report,size,id,t,px,py,pz,vx,vy,vz,ax,ay,az,planning_time,qp_cost,planning_report,size,id,t,px,py,pz,vx,vy,vz,ax,ay,az,planning_time,qp_cost,planning_report,size,id,t,px,py,pz,vx,vy,vz,ax,ay,az,planning_time,qp_cost,planning_report,size
0,0,0.298793,-2.65367,0.50017,0,0,0,0,0,0,0.00893703,2.63256,5,0.1,1,0,-0.117869,-0.120463,0.511159,0,0,0,0,0,0,0.0166799,3.5122,5,0.1,2,0,-0.431868,1.99533,0.682065,0,0,0,0,0,0,0.00881557,3.25917,5,0.1,3,0,4.89764,1.09516,0.607856,0,0,0,0,0,0,0.0179336,0.571314,5,0.1,4,0,-1.30519,-0.522453,0.564455,0,0,0,0,0,0,0.0101725,1.36631,5,0.1,5,0,4.75957,-0.90715,0.512607,0,0,0,0,0,0,0.0184167,0.438509,5,0.1,6,0,3.07707,-0.141695,0.61645,0,0,0,0,0,0,0.00865331,3.5122,5,0.1,7,0,1.66638,-3.10929,0.613921,0,0,0,0,0,0,0.0149986,3.5122,5,0.1,8,0,2.15319,-2.36776,0.665007,0,0,0,0,0,0,0.0128425,0.409573,5,0.1,9,0,-1.56006,1.89687,0.577417,0,0,0,0,0,0,0.00959211,0.665562,5,0.1,10,0,1.02071,2.46795,0.59754,0,0,0,0,0,0,0.0142549,3.51219,5,0.1,11,0,0.390008,-3.84562,0.633238,0,0,0,0,0,0,0.0114085,0.587249,5,0.1,12,0,0.155376,3.27988,0.658979,0,0,0,0,0,0,0.00829695,3.5122,5,0.1,13,0,5.08505,-5.83687,0.615006,0,0,0,0,0,0,0.00794706,0.500866,5,0.1,14,0,-3.07662,2.33768,0.540364,0,0,0,0,0,0,0.0146392,3.51219,5,0.1,15,0,-4.72841,-5.84271,0.676576,0,0,0,0,0,0,0.0285814,1.15375,5,0.1,16,0,-3.27993,4.33187,0.613513,0,0,0,0,0,0,0.0193081,3.5122,5,0.1,17,0,-5.61587,-1.80338,0.65809,0,0,0,0,0,0,0.0074294,1.84043,5,0.1,18,0,3.07292,-3.33819,0.61338,0,0,0,0,0,0,0.023153,3.51219,5,0.1,19,0,-4.65655,-3.8869,0.524147,0,0,0,0,0,0,0.0095174,2.8869,5,0.1
0,0.1,0.298458,-2.6519,0.500229,-0.00951225,0.0503957,0.00167312,-0.169106,0.895917,0.0297464,0.00893703,2.63256,5,0.1,1,0.1,-0.116955,-0.12234,0.511128,0.0259504,-0.0532776,-0.000897795,0.46134,-0.947157,-0.0159591,0.0166799,3.5122,5,0.1,2,0.1,-0.431573,1.99732,0.682136,0.00835294,0.056443,0.00201333,0.148498,1.00343,0.0357926,0.00881557,3.25917,5,0.1,3,0.1,4.89692,1.09558,0.607848,-0.0206731,0.0119971,-0.000232831,-0.367552,0.213288,-0.00413507,0.0179336,0.571314,5,0.1,4,0.1,-1.30649,-0.522377,0.564492,-0.0368893,0.00214707,0.00105333,-0.6558,0.0381693,0.0187233,0.0101725,1.36631,5,0.1,5,0.1,4.75961,-0.906673,0.513168,0.00119805,0.0135473,0.0159252,0.0212789,0.240836,0.283115,0.0184167,0.438509,5,0.1,6,0.1,3.07499,-0.141488,0.616438,-0.0589754,0.00587718,-0.000331271,-1.04843,0.104482,-0.00588968,0.00865331,3.5122,5,0.1,7,0.1,1.66451,-3.1098,0.614681,-0.0532845,-0.0143949,0.0215934,-0.947289,-0.255898,0.38388,0.0149986,3.5122,5,0.1,8,0.1,2.15226,-2.36782,0.664886,-0.0265043,-0.00169873,-0.00342401,-0.470772,-0.03016,-0.0608154,0.0128425,0.409573,5,0.1,9,0.1,-1.56,1.89646,0.578223,0.00177994,-0.0117609,0.0228949,0.0316352,-0.209086,0.407018,0.00959211,0.665562,5,0.1,10,0.1,1.01921,2.46941,0.597543,-0.0424635,0.041347,7.08736e-05,-0.754908,0.735074,0.00126287,0.0142549,3.51219,5,0.1,11,0.1,0.389601,-3.84568,0.633986,-0.0115575,-0.00161231,0.0212408,-0.205468,-0.02864,0.377614,0.0114085,0.587249,5,0.1,12,0.1,0.155042,3.27782,0.658946,-0.00949416,-0.0584956,-0.00092499,-0.168785,-1.03994,-0.0164434,0.00829695,3.5122,5,0.1,13,0.1,5.08506,-5.8361,0.614834,0.000444055,0.0218369,-0.00488991,0.00786781,0.388175,-0.0869296,0.00794706,0.500866,5,0.1,14,0.1,-3.07869,2.33744,0.540272,-0.0588052,-0.00690781,-0.00262633,-1.04544,-0.1228,-0.0466853,0.0146392,3.51219,5,0.1,15,0.1,-4.72739,-5.84209,0.676652,0.0289939,0.0175647,0.00217585,0.515431,0.312239,0.0386797,0.0285814,1.15375,5,0.1,16,0.1,-3.27786,4.33158,0.613504,0.0587113,-0.00810102,-0.000253506,1.04377,-0.144035,-0.0045076,0.0193081,3.5122,5,0.1,17,0.1,-5.61439,-1.80369,0.658029,0.0419572,-0.00879038,-0.00172155,0.745893,-0.156261,-0.0306033,0.0074294,1.84043,5,0.1,18,0.1,3.07089,-3.33835,0.613844,-0.0575971,-0.00467934,0.0131643,-1.02396,-0.0831932,0.234034,0.023153,3.51219,5,0.1,19,0.1,-4.65466,-3.88676,0.52407,0.0535347,0.00405721,-0.00219727,0.951737,0.0721365,-0.0390597,0.0095174,2.8869,5,0.1
0,0.2,0.296526,-2.64166,0.500569,-0.0300631,0.15927,0.00528842,-0.225484,1.19472,0.0396669,0.00948496,2.15987,5,0.1,1,0.2,-0.111684,-0.133162,0.510945,0.082016,-0.168384,-0.00283718,0.61512,-1.26287,-0.0212789,0.0180104,2.92579,5,0.1,2,0.2,-0.429877,2.00878,0.682545,0.0263996,0.178391,0.0063628,0.197977,1.33777,0.0477135,0.00849937,2.674,5,0.1,3,0.2,4.89272,1.09802,0.607801,-0.0653386,0.0379145,-0.000736117,-0.490189,0.284433,-0.00551343,0.0167127,0.468728,5,0.1,4,0.2,-1.31398,-0.521941,0.564706,-0.116587,0.00678599,0.00332892,-0.8744,0.0508726,0.0249743,0.0119665,1.12099,5,0.1,5,0.2,4.75986,-0.903921,0.516402,0.00379086,0.042817,0.0503317,0.0281334,0.32109,0.377506,0.020752,0.359775,5,0.1,6,0.2,3.06301,-0.140295,0.616371,-0.18639,0.0185747,-0.00104755,-1.39797,0.139311,-0.00786781,0.0103811,2.92579,5,0.1,7,0.2,1.65368,-3.11272,0.619068,-0.168407,-0.0454962,0.0682443,-1.26296,-0.341296,0.511885,0.0129797,2.9258,5,0.1,8,0.2,2.14688,-2.36816,0.664191,-0.0836134,-0.00535846,-0.0108033,-0.62561,-0.0400543,-0.0807643,0.0125499,0.287204,5,0.1,9,0.2,-1.55964,1.89407,0.582874,0.0056237,-0.0371695,0.0723585,0.0422597,-0.278771,0.5427,0.0113537,0.54606,5,0.1,10,0.2,1.01058,2.47781,0.597557,-0.134203,0.130677,0.000225008,-1.0066,0.980139,0.00166893,0.0142321,2.92578,5,0.1,11,0.2,0.387254,-3.84601,0.638301,-0.036528,-0.00509024,0.0671297,-0.273943,-0.0382662,0.50351,0.0129157,0.481808,5,0.1,12,0.2,0.153113,3.26594,0.658758,-0.0300057,-0.184876,-0.00292361,-0.225052,-1.38652,-0.0219047,0.00844067,2.9258,5,0.1,13,0.2,5.08515,-5.83167,0.613841,0.00139475,0.0690222,-0.015454,0.0107288,0.517368,-0.115901,0.00910025,0.615343,5,0.1,14,0.2,-3.09064,2.33603,0.539738,-0.185853,-0.0218332,-0.00829995,-1.39391,-0.163674,-0.0622869,0.0119364,2.9258,5,0.1,15,0.2,-4.7215,-5.83853,0.677094,0.0916362,0.0555158,0.00687689,0.687361,0.416279,0.0515878,0.0268101,0.946591,5,0.1,16,0.2,-3.26593,4.32994,0.613453,0.185555,-0.0256062,-0.000800192,1.39177,-0.191927,-0.00604987,0.0195344,2.92579,5,0.1,17,0.2,-5.60587,-1.80548,0.65768,0.132608,-0.0277817,-0.00544041,0.994682,-0.208318,-0.0407994,0.00778587,1.50997,5,0.1,18,0.2,3.05919,-3.3393,0.616518,-0.182039,-0.0147879,0.041607,-1.3653,-0.110865,0.31203,0.0222937,2.92579,5,0.1,19,0.2,-4.64379,-3.88594,0.523624,0.169206,0.012821,-0.00694394,1.26886,0.0962019,-0.0520945,0.0108447,2.36856,5,0.1
0,0.3,0.292268,-2.6191,0.501318,-0.0559283,0.296311,0.00983849,-0.275916,1.46186,0.0485405,0.00948496,2.15987,5,0.1,1,0.3,-0.100062,-0.157023,0.510543,0.15276,-0.313625,-0.0052846,0.755968,-1.55204,-0.0261553,0.0180104,2.92579,5,0.1,2,0.3,-0.426138,2.03405,0.683446,0.0491104,0.331853,0.0118363,0.242272,1.63707,0.0583865,0.00849937,2.674,5,0.1,3,0.3,4.88346,1.10339,0.607697,-0.121564,0.0705402,-0.00136886,-0.599742,0.348017,-0.00675023,0.0167127,0.468728,5,0.1,4,0.3,-1.33049,-0.52098,0.565177,-0.21689,0.0126223,0.00619357,-1.06999,0.0622682,0.0305586,0.0119665,1.12099,5,0.1,5,0.3,4.76039,-0.897857,0.523531,0.00702739,0.0796508,0.093635,0.0345707,0.392929,0.461929,0.020752,0.359775,5,0.1,6,0.3,3.0366,-0.137662,0.616222,-0.347167,0.0345967,-0.00195187,-1.71804,0.17121,-0.0096634,0.0103811,2.92579,5,0.1,7,0.3,1.62982,-3.11917,0.628739,-0.313661,-0.0847459,0.127114,-1.5522,-0.419408,0.629064,0.0129797,2.9258,5,0.1,8,0.3,2.13512,-2.36892,0.662672,-0.153223,-0.00981614,-0.0197915,-0.726894,-0.0465512,-0.0938699,0.0125499,0.287204,5,0.1,9,0.3,-1.55884,1.88881,0.593122,0.0104688,-0.0691477,0.134612,0.0516772,-0.341132,0.664081,0.0113537,0.54606,5,0.1,10,0.3,0.991566,2.49633,0.597589,-0.249969,0.2434,0.000417326,-1.23705,1.20452,0.00206009,0.0142321,2.92578,5,0.1,11,0.3,0.38208,-3.84673,0.647808,-0.0679527,-0.00947751,0.124887,-0.335226,-0.0467747,0.616115,0.0129157,0.481808,5,0.1,12,0.3,0.148861,3.23974,0.658344,-0.0558886,-0.34434,-0.00544349,-0.27658,-1.70404,-0.0269301,0.00844067,2.9258,5,0.1,13,0.3,5.08535,-5.82208,0.611652,0.00261739,0.123095,-0.0287496,0.012964,0.539631,-0.141829,0.00910025,0.615343,5,0.1,14,0.3,-3.11698,2.33294,0.538562,-0.346166,-0.0406589,-0.0154622,-1.71308,-0.201181,-0.0765249,0.0119364,2.9258,5,0.1,15,0.3,-4.70852,-5.83066,0.678068,0.170481,0.10327,0.0127942,0.841081,0.509411,0.0631176,0.0268101,0.946591,5,0.1,16,0.3,-3.23964,4.32631,0.613339,0.345619,-0.0476845,-0.00149431,1.7104,-0.235945,-0.0074096,0.0195344,2.92579,5,0.1,17,0.3,-5.58709,-1.80941,0.656909,0.246704,-0.0516793,-0.0101207,1.2171,-0.254937,-0.0499263,0.00778587,1.50997,5,0.1,18,0.3,3.0334,-3.3414,0.622414,-0.33906,-0.0275396,0.077494,-1.67793,-0.136286,0.383485,0.0222937,2.92579,5,0.1,19,0.3,-4.61982,-3.88412,0.52264,0.314764,0.0238556,-0.0129195,1.55273,0.117704,-0.0637397,0.0108447,2.36856,5,0.1
0,0.4,0.28532,-2.58229,0.50254,-0.0824817,0.436997,0.0145093,-0.243425,1.28961,0.0428259,0.00970091,1.7089,5,0.1,1,0.4,-0.0810699,-0.196014,0.509886,0.225596,-0.463161,-0.00780374,0.66841,-1.37228,-0.0231266,0.0235589,2.51008,5,0.1,2,0.4,-0.420037,2.07527,0.684916,0.0724263,0.489408,0.0174552,0.213742,1.44422,0.0515282,0.0100144,2.20994,5,0.1,3,0.4,4.86836,1.11215,0.607527,-0.179279,0.104031,-0.00201911,-0.529289,0.307024,-0.00593066,0.0327897,0.370857,5,0.1,4,0.4,-1.35744,-0.519412,0.565947,-0.319865,0.0186145,0.00913441,-0.943959,0.0549555,0.0269711,0.0156946,0.886938,5,0.1,5,0.4,4.76126,-0.887962,0.535163,0.0103593,0.117466,0.138091,0.0305176,0.346661,0.407547,0.0267928,0.284658,5,0.1,6,0.4,2.99344,-0.133361,0.615979,-0.512695,0.0510924,-0.00288188,-1.51908,0.151373,-0.00858307,0.0184134,2.51462,5,0.1,7,0.4,1.59082,-3.1297,0.644542,-0.463215,-0.125152,0.187722,-1.3724,-0.370741,0.556231,0.0157798,2.333,5,0.1,8,0.4,2.11627,-2.37012,0.660237,-0.222123,-0.0142336,-0.0286892,-0.621915,-0.0396967,-0.0803769,0.0117501,0.190389,5,0.1,9,0.4,-1.55754,1.88022,0.609845,0.0154406,-0.101978,0.198524,0.0455379,-0.301003,0.585854,0.0146279,0.432048,5,0.1,10,0.4,0.960489,2.52659,0.597641,-0.369154,0.359452,0.000615418,-1.0938,1.06502,0.00184774,0.0125597,2.42213,5,0.1,11,0.4,0.373639,-3.8479,0.663323,-0.100215,-0.0139832,0.184181,-0.295758,-0.0411272,0.543535,0.011651,0.381211,5,0.1,12,0.4,0.141913,3.19693,0.657667,-0.082536,-0.508523,-0.00803918,-0.24455,-1.50657,-0.0238121,0.0109564,2.51315,5,0.1,13,0.4,5.08568,-5.8072,0.60808,0.00386238,0.172758,-0.0423983,0.0116825,0.435591,-0.12514,0.00860808,1.0979,5,0.1,14,0.4,-3.16001,2.32788,0.536639,-0.511217,-0.0600457,-0.022836,-1.51467,-0.17786,-0.0676215,0.0108324,2.38732,5,0.1,15,0.4,-4.68735,-5.81783,0.679658,0.251412,0.15229,0.0188693,0.742197,0.449657,0.0556707,0.0359266,0.748951,5,0.1,16,0.4,-3.19667,4.32038,0.613154,0.510406,-0.070405,-0.00220835,1.51241,-0.208855,-0.00652671,0.0245414,2.51377,5,0.1,17,0.4,-5.55644,-1.81583,0.655652,0.363839,-0.0762165,-0.0149265,1.0736,-0.224888,-0.044018,0.0166453,1.21302,5,0.1,18,0.4,2.99124,-3.34482,0.632048,-0.500721,-0.0406742,0.114441,-1.48368,-0.120401,0.339121,0.0261332,2.51116,5,0.1,19,0.4,-4.58072,-3.88116,0.521035,0.464201,0.0351846,-0.0190541,1.36995,0.103712,-0.0562072,0.0114985,1.87404,5,0.1
0,0.5,0.275833,-2.53203,0.504209,-0.107179,0.56784,0.0188542,-0.238413,1.26304,0.041943,0.00970091,1.7089,5,0.1,1,0.5,-0.0550732,-0.249387,0.508987,0.294378,-0.604373,-0.0101835,0.671846,-1.37934,-0.0232421,0.0235589,2.51008,5,0.1,2,0.5,-0.411706,2.13062,0.686924,0.0941128,0.60908,0.0226831,0.209348,0.937998,0.0504628,0.0100144,2.20994,5,0.1,3,0.5,4.84774,1.12412,0.607294,-0.232974,0.135181,-0.00262139,-0.518292,0.300698,-0.00582263,0.0327897,0.370857,5,0.1,4,0.5,-1.39423,-0.517271,0.566998,-0.41564,0.02419,0.0118705,-0.924535,0.053823,0.0264086,0.0156946,0.886938,5,0.1,5,0.5,4.76246,-0.874451,0.551047,0.0134595,0.152638,0.179439,0.0299513,0.339534,0.399146,0.0267928,0.284658,5,0.1,6,0.5,2.93457,-0.127474,0.615647,-0.662813,0.0666693,-0.00376394,-1.41446,0.152155,-0.00860915,0.0184134,2.51462,5,0.1,7,0.5,1.5375,-3.14411,0.66615,-0.602744,-0.162845,0.244271,-1.34932,-0.364497,0.546847,0.0157798,2.333,5,0.1,8,0.5,2.09109,-2.37174,0.656972,-0.27949,-0.01808,-0.036471,-0.506476,-0.0355989,-0.071995,0.0117501,0.190389,5,0.1,9,0.5,-1.55577,1.86848,0.63268,0.0200609,-0.132517,0.257965,0.0446066,-0.294797,0.57381,0.0146279,0.432048,5,0.1,10,0.5,0.917973,2.56799,0.597712,-0.481043,0.468397,0.000804197,-1.08758,1.05897,0.00183657,0.0125597,2.42213,5,0.1,11,0.5,0.362111,-3.84951,0.684508,-0.130222,-0.0181578,0.239328,-0.289675,-0.0402927,0.532355,0.011651,0.381211,5,0.1,12,0.5,0.132402,3.13851,0.656741,-0.107701,-0.658466,-0.01049,-0.245803,-1.42203,-0.0239387,0.0109564,2.51315,5,0.1,13,0.5,5.08612,-5.78833,0.603203,0.00504032,0.199353,-0.0550948,0.0112951,0.121385,-0.122562,0.00860808,1.0979,5,0.1,14,0.5,-3.21872,2.32097,0.53401,-0.661241,-0.0781953,-0.0297359,-1.41704,-0.176042,-0.0669323,0.0108324,2.38732,5,0.1,15,0.5,-4.65843,-5.80032,0.681828,0.32671,0.19791,0.0245178,0.726849,0.440359,0.0545233,0.0359266,0.748951,5,0.1,16,0.5,-3.13804,4.31227,0.612899,0.660439,-0.0918917,-0.00287984,1.41868,-0.209838,-0.00655651,0.0245414,2.51377,5,0.1,17,0.5,-5.51499,-1.8246,0.653935,0.461281,-0.0990348,-0.0193935,0.84731,-0.220276,-0.043124,0.0166453,1.21302,5,0.1,18,0.5,2.93365,-3.34951,0.645236,-0.650363,-0.0530671,0.149337,-1.43632,-0.121072,0.340845,0.0261332,2.51116,5,0.1,19,0.5,-4.52733,-3.87711,0.518844,0.603197,0.0457093,-0.0247316,1.34173,0.101626,-0.0546016,0.0114985,1.87404,5,0.1
0,0.6,0.264013,-2.4694,0.506288,-0.128102,0.678682,0.022535,-0.171483,0.908494,0.03016,0.00831203,1.27223,5,0.1,1,0.6,-0.0225091,-0.316243,0.507861,0.353925,-0.726628,-0.0122443,0.494078,-1.01438,-0.0170767,0.0202876,2.24215,5,0.1,2,0.6,-0.401327,2.19531,0.689426,0.112484,0.675529,0.0271112,0.150606,0.387311,0.036329,0.0107518,1.99645,5,0.1,3,0.6,4.82204,1.13903,0.607005,-0.278461,0.161567,-0.00313222,-0.372648,0.216305,-0.00420213,0.0293546,0.276081,5,0.1,4,0.6,-1.44007,-0.514603,0.568307,-0.496772,0.0289127,0.0141874,-0.665128,0.038743,0.0190139,0.0148965,0.660306,5,0.1,5,0.6,4.76394,-0.857617,0.570836,0.0160933,0.182435,0.214466,0.0216961,0.24426,0.287145,0.0173165,0.211921,5,0.1,6,0.6,2.86185,-0.120099,0.615231,-0.784212,0.0801552,-0.00452697,-0.968575,0.111893,-0.00631809,0.00727038,2.33007,5,0.1,7,0.6,1.47098,-3.16208,0.693108,-0.721344,-0.194883,0.292337,-0.974357,-0.263214,0.394791,0.0147851,1.74557,5,0.1,8,0.6,2.06092,-2.37371,0.653,-0.320286,-0.0210822,-0.0425383,-0.297308,-0.023365,-0.0471473,0.0138985,0.159413,5,0.1,9,0.6,-1.55355,1.85387,0.661129,0.023973,-0.158387,0.308318,0.0321269,-0.212014,0.412792,0.0138623,0.321649,5,0.1,10,0.6,0.864821,2.61974,0.597801,-0.577049,0.561875,0.000965595,-0.792742,0.771999,0.0013113,0.0123236,1.81097,5,0.1,11,0.6,0.34775,-3.85151,0.710902,-0.155643,-0.0217021,0.286044,-0.208378,-0.0288486,0.38299,0.0128932,0.283803,5,0.1,12,0.6,0.120488,3.06616,0.655581,-0.129487,-0.781244,-0.0126123,-0.180766,-0.987053,-0.0176132,0.0090194,2.32222,5,0.1,13,0.6,5.08668,-5.76814,0.597127,0.00602007,0.201416,-0.0658497,0.00834465,-0.0619888,-0.0881851,0.00844773,1.70849,5,0.1,14,0.6,-3.29131,2.31234,0.530726,-0.783175,-0.0937104,-0.0356331,-0.975728,-0.127912,-0.0486374,0.00963294,1.85607,5,0.1,15,0.6,-4.62239,-5.77849,0.684532,0.390482,0.236547,0.0293031,0.52309,0.316858,0.0392199,0.0281909,0.557562,5,0.1,16,0.6,-3.06552,4.3021,0.612581,0.782591,-0.110495,-0.00346154,0.978827,-0.154257,-0.00479817,0.0189454,2.32573,5,0.1,17,0.6,-5.46519,-1.83552,0.651796,0.528741,-0.118366,-0.0231773,0.484228,-0.158489,-0.031054,0.00744592,1.11567,5,0.1,18,0.6,2.86199,-3.35538,0.661756,-0.775731,-0.0638008,0.179547,-1.02115,-0.0890493,0.250638,0.0240749,2.30817,5,0.1,19,0.6,-4.4608,-3.87207,0.516119,0.720954,0.0546277,-0.0295088,0.96488,0.0730753,-0.0389814,0.00909778,1.40136,5,0.1
0,0.7,0.25036,-2.39707,0.50869,-0.144565,0.765903,0.0254304,-0.14837,0.786036,0.0260957,0.00831203,1.27223,5,0.1,1,0.7,0.015387,-0.393438,0.506571,0.403522,-0.811247,-0.0133612,0.46657,-0.654995,-0.0055097,0.0202876,2.24215,5,0.1,2,0.7,-0.389338,2.26337,0.692315,0.126943,0.673088,0.0305983,0.130303,-0.371844,0.0314228,0.0107518,1.99645,5,0.1,3,0.7,4.79237,1.15625,0.606671,-0.314236,0.182333,-0.00353586,-0.322431,0.187136,-0.00363588,0.0293546,0.276081,5,0.1,4,0.7,-1.49301,-0.511521,0.569819,-0.560627,0.0326318,0.0160122,-0.57546,0.0335164,0.0164434,0.0148965,0.660306,5,0.1,5,0.7,4.76566,-0.838174,0.593694,0.0181757,0.205885,0.242033,0.0188053,0.211336,0.248428,0.0173165,0.211921,5,0.1,6,0.7,2.77964,-0.111516,0.614746,-0.849922,0.0913841,-0.00516046,-0.371456,0.105608,-0.00595301,0.00727038,2.33007,5,0.1,7,0.7,1.39439,-3.18286,0.724283,-0.805669,-0.220187,0.330289,-0.681311,-0.228405,0.342585,0.0147851,1.74557,5,0.1,8,0.7,2.0281,-2.37593,0.64853,-0.329806,-0.0231165,-0.0466413,0.0853539,-0.0163466,-0.0329353,0.0138985,0.159413,5,0.1,9,0.7,-1.551,1.83699,0.693989,0.0270564,-0.178742,0.347948,0.0277758,-0.183433,0.357151,0.0138623,0.321649,5,0.1,10,0.7,0.803207,2.67973,0.597904,-0.65356,0.636382,0.00109244,-0.693701,0.675514,0.00114739,0.0123236,1.81097,5,0.1,11,0.7,0.331162,-3.85383,0.741389,-0.175648,-0.0244752,0.322812,-0.180289,-0.0250041,0.331353,0.0128932,0.283803,5,0.1,12,0.7,0.106623,2.98415,0.65423,-0.147629,-0.848892,-0.0143803,-0.170641,-0.389099,-0.016626,0.0090194,2.32222,5,0.1,13,0.7,5.08732,-5.74878,0.590109,0.00681281,0.182792,-0.0743154,0.00709295,-0.248343,-0.0762902,0.00844773,1.70849,5,0.1,14,0.7,-3.37344,2.30233,0.526923,-0.849509,-0.106036,-0.0403194,-0.377446,-0.11155,-0.0424087,0.00963294,1.85607,5,0.1,15,0.7,-4.58078,-5.75328,0.687655,0.440693,0.266962,0.0330684,0.452459,0.274062,0.0339337,0.0281909,0.557562,5,0.1,16,0.7,-2.98343,4.29027,0.61221,0.849362,-0.125974,-0.00394341,0.381052,-0.145555,-0.00452995,0.0189454,2.32573,5,0.1,17,0.7,-5.41106,-1.84814,0.649326,0.543153,-0.133582,-0.0261586,-0.156969,-0.137128,-0.0268668,0.00744592,1.11567,5,0.1,18,0.7,2.78036,-3.36221,0.68098,-0.846976,-0.0727404,0.204703,-0.421926,-0.0840873,0.236623,0.0240749,2.30817,5,0.1,19,0.7,-4.38427,-3.86625,0.513043,0.804967,0.061645,-0.0313824,0.683308,0.0632554,-0.000491738,0.00909778,1.40136,5,0.1
0,0.8,0.235263,-2.31709,0.511346,-0.156197,0.827527,0.0274763,-0.0779107,0.412822,0.0136793,0.00924788,0.901206,5,0.1,1,0.8,0.0578164,-0.477119,0.505224,0.441945,-0.855075,-0.0133991,0.28023,-0.219017,0.00447035,0.0137091,2.1361,5,0.1,2,0.8,-0.376081,2.328,0.695511,0.13716,0.612551,0.0330627,0.0684112,-0.789285,0.0164807,0.0100147,1.80548,5,0.1,3,0.8,4.75955,1.17529,0.606302,-0.339508,0.197005,-0.00382066,-0.169277,0.0982285,-0.00193715,0.0197305,0.194926,5,0.1,4,0.8,-1.55156,-0.508113,0.571491,-0.605744,0.0352591,0.0173017,-0.302196,0.0175834,0.00861287,0.010554,1.49845,5,0.1,5,0.8,4.76755,-0.816673,0.61897,0.0196457,0.222455,0.261509,0.0100136,0.110954,0.130445,0.0170254,0.159009,5,0.1,6,0.8,2.69353,-0.101908,0.614204,-0.866026,0.100079,-0.00565052,0,0.0633895,-0.00357628,0.00987662,2.26419,5,0.1,7,0.8,1.31109,-3.20587,0.758794,-0.853211,-0.238138,0.35722,-0.2563,-0.120997,0.181347,0.0132374,1.26355,5,0.1,8,0.8,1.99603,-2.3783,0.643737,-0.307259,-0.0241935,-0.0488028,0.34672,-0.00441074,-0.00905991,0.0113788,0.135538,5,0.1,9,0.8,-1.54817,1.81832,0.730326,0.0292331,-0.193125,0.375949,0.0146031,-0.0963211,0.187546,0.0128884,0.227102,5,0.1,10,0.8,0.734839,2.7463,0.598018,-0.70844,0.689822,0.00118464,-0.374258,0.364542,0.000596046,0.013286,1.28342,5,0.1,11,0.8,0.312819,-3.85638,0.775101,-0.189783,-0.0264406,0.34879,-0.094682,-0.013113,0.174016,0.014277,0.20038,5,0.1,12,0.8,0.0911009,2.89808,0.652718,-0.16168,-0.866026,-0.015749,-0.102445,0,-0.0100136,0.0112182,2.25169,5,0.1,13,0.8,5.08803,-5.73167,0.582348,0.00736713,0.161123,-0.0802979,0.00357628,-0.153065,-0.0400245,0.00987214,1.56853,5,0.1,14,0.8,-3.45954,2.29125,0.522708,-0.866026,-0.11484,-0.0436649,0,-0.0596046,-0.0227094,0.0108376,1.39668,5,0.1,15,0.8,-4.53475,-5.7254,0.691108,0.47617,0.288463,0.0357285,0.237465,0.143528,0.0178218,0.0304713,0.393641,5,0.1,16,0.8,-2.89734,4.27703,0.611796,0.866026,-0.137973,-0.00431687,0,-0.0870228,-0.00274181,0.0205377,2.2573,5,0.1,17,0.8,-5.35832,-1.86209,0.646594,0.504601,-0.144333,-0.028266,-0.580788,-0.0720024,-0.0140965,0.00909463,0.754056,5,0.1,18,0.8,2.69435,-3.36986,0.702504,-0.866026,-0.0796676,0.224188,0,-0.0505447,0.142097,0.0245082,2.22893,5,0.1,19,0.8,-4.30102,-3.85981,0.509952,0.852942,0.0666022,-0.0299826,0.261545,0.0333786,0.0267029,0.0148864,1.0182,5,0.1
0,0.9,0.219271,-2.23264,0.514159,-0.163257,0.857436,0.0287162,-0.0558076,0.175685,0.00979751,0.00924788,0.901206,5,0.1,1,0.9,0.103471,-0.563297,0.503926,0.470953,-0.865341,-0.0123938,0.270056,-0.0273734,0.0148155,0.0137091,2.1361,5,0.1,2,0.9,-0.362039,2.38466,0.698896,0.143359,0.516231,0.0345562,0.0490062,-1.05131,0.0118017,0.0100147,1.80548,5,0.1,3,0.9,4.72479,1.19546,0.605911,-0.354847,0.205907,-0.00399603,-0.121206,0.0703558,-0.00138208,0.0197305,0.194926,5,0.1,4,0.9,-1.61391,-0.504504,0.573262,-0.642515,0.0368522,0.0180821,-0.383347,0.0125915,0.00616536,0.010554,1.49845,5,0.1,5,0.9,4.76957,-0.794187,0.645743,0.0205517,0.22429,0.273329,0.00721216,-0.0666454,0.0934303,0.0170254,0.159009,5,0.1,6,0.9,2.60693,-0.0915707,0.61362,-0.866026,0.106613,-0.00601867,0,0.0605904,-0.00340864,0.00987662,2.26419,5,0.1,7,0.9,1.22499,-3.23026,0.795382,-0.86483,-0.249124,0.373686,-0.0162497,-0.0872165,0.130754,0.0132374,1.26355,5,0.1,8,0.9,1.96736,-2.38073,0.638829,-0.263356,-0.0243645,-0.0491585,0.512399,0.00156462,0.00309572,0.0113788,0.135538,5,0.1,9,0.9,-1.54518,1.79855,0.768816,0.0305558,-0.201853,0.392943,0.0104532,-0.0689998,0.134341,0.0128884,0.227102,5,0.1,10,0.9,0.662203,2.81703,0.59814,-0.742609,0.723103,0.00123959,-0.274386,0.267252,0.000439584,0.013286,1.28342,5,0.1,11,0.9,0.293389,-3.85909,0.81081,-0.198362,-0.0276312,0.364558,-0.0678189,-0.00941753,0.124641,0.014277,0.20038,5,0.1,12,0.9,0.0744003,2.81147,0.651091,-0.172257,-0.866026,-0.0167822,-0.0982335,0,-0.00959262,0.0112182,2.25169,5,0.1,13,0.9,5.08879,-5.71617,0.574127,0.00768676,0.152437,-0.0839249,0.00247359,0.0534058,-0.0286661,0.00987214,1.56853,5,0.1,14,0.9,-3.54613,2.27948,0.518292,-0.865813,-0.120271,-0.0440343,0.00850856,-0.0434071,0.0136681,0.0108376,1.39668,5,0.1,15,0.9,-4.486,-5.69587,0.694766,0.497686,0.301471,0.0373433,0.170022,0.102788,0.0127666,0.0304713,0.393641,5,0.1,16,0.9,-2.81073,4.26278,0.61135,0.866026,-0.146958,-0.00459952,0,-0.0833869,-0.00261888,0.0205377,2.2573,5,0.1,17,0.9,-5.31138,-1.87686,0.6437,0.429102,-0.150857,-0.0295436,-0.88343,-0.0515729,-0.0100955,0.00909463,0.754056,5,0.1,18,0.9,2.60775,-3.37809,0.725662,-0.866026,-0.0848874,0.238863,0,-0.0484884,0.136316,0.0245082,2.22893,5,0.1,19,0.9,-4.21494,-3.85299,0.507123,0.864798,0.069626,-0.0262715,0.0164509,0.0238866,0.0455901,0.0148864,1.0182,5,0.1
0,1,0.202753,-2.14645,0.517064,-0.166116,0.862092,0.0292182,0.00359118,-0.0789165,-0.000655651,0.00910284,0.622004,5,0.1,1,1,0.151699,-0.649886,0.502772,0.490903,-0.866026,-0.0105873,0.108294,0,0.0206828,0.0156039,2.11447,5,0.1,2,1,-0.347534,2.43113,0.702392,0.145869,0.415623,0.0351593,-0.00312924,-0.913143,-0.000745058,0.0114809,1.71836,5,0.1,3,1,4.68889,1.21629,0.605507,-0.361061,0.20951,-0.00406802,0.00810623,-0.00452995,8.9407e-05,0.0155234,0.132556,5,0.1,4,1,-1.67987,-0.500775,0.575092,-0.673884,0.037498,0.0183985,-0.208616,-0.000834465,-0.000447035,0.0117065,1.39445,5,0.1,5,1,4.77165,-0.772332,0.673398,0.0209212,0.210603,0.278114,-0.000238419,-0.199944,-0.00599027,0.0167352,0.229047,5,0.1,6,1,2.52033,-0.080656,0.613004,-0.866026,0.111064,-0.00626892,0,0.0238046,-0.0013411,0.010376,2.26346,5,0.1,7,1,1.13865,-3.25548,0.833206,-0.859714,-0.253677,0.38051,0.126302,0.0038147,-0.00572205,0.0128082,0.900201,5,0.1,8,1,1.94373,-2.38315,0.633956,-0.208196,-0.0237882,-0.0480056,0.575423,0.0101328,0.020653,0.0144533,0.326772,5,0.1,9,1,-1.54209,1.77813,0.808574,0.0310928,-0.205386,0.399825,-0.000715256,0.00441074,-0.00864267,0.0144986,0.154439,5,0.1,10,1,0.586967,2.89029,0.598265,-0.757541,0.737649,0.00126362,-0.0012219,0.00107288,0,0.0144421,0.87518,5,0.1,11,1,0.273318,-3.86188,0.847696,-0.201837,-0.0281155,0.370942,0.00436604,0.000596046,-0.00801682,0.0101405,0.136265,5,0.1,12,1,0.0567633,2.72487,0.649373,-0.179489,-0.866026,-0.0174895,-0.0389016,0,-0.00378489,0.0124497,2.24965,5,0.1,13,1,5.08956,-5.7,0.565636,0.00780821,0.17724,-0.0853941,-0.000476837,0.422716,0.00190735,0.00685389,1.3456,5,0.1,14,1,-3.63261,2.2673,0.514006,-0.862622,-0.122595,-0.0412494,0.0680685,0.000596046,0.0405014,0.00899698,1.04969,5,0.1,15,1,-4.43565,-5.66537,0.698545,0.506389,0.306726,0.037998,-0.0109673,-0.00667572,-0.000834465,0.0352186,0.267689,5,0.1,16,1,-2.72413,4.24773,0.610879,0.866026,-0.153089,-0.00479221,0,-0.0329018,-0.00101328,0.0205784,2.25588,5,0.1,17,1,-5.27308,-1.89213,0.640711,0.33586,-0.1535,-0.0300616,-0.947952,0.00327826,0.000655651,0.00823377,0.715699,5,0.1,18,1,2.52115,-3.38678,0.750119,-0.866026,-0.0884593,0.248902,0,-0.0193119,0.0540614,0.0238286,2.22456,5,0.1,19,1,-4.1286,-3.84595,0.504742,0.859511,0.070852,-0.0212148,-0.130415,-0.00143051,0.0539422,0.0104694,0.731228,5,0.1
0,1.1,0.186166,-2.0606,0.519981,-0.165387,0.854347,0.0290881,0.0170553,-0.110164,-0.00301376,0.00910284,0.622004,5,0.1,1,1.1,0.201438,-0.736488,0.501822,0.504176,-0.866026,-0.00838712,0.127517,3.72529e-06,0.022769,0.0156039,2.11447,5,0.1,2,1.1,-0.332969,2.46863,0.705903,0.145231,0.338986,0.0350061,-0.0149626,-0.63923,-0.00360236,0.0114809,1.71836,5,0.1,3,1.1,4.65284,1.23721,0.6051,-0.359454,0.208591,-0.00404986,0.0372827,-0.0215173,0.000420958,0.0155234,0.132556,5,0.1,4,1.1,-1.74723,-0.497031,0.576929,-0.663301,0.0373316,0.0183137,0.384063,-0.00386499,-0.00192225,0.0117065,1.39445,5,0.1,5,1.1,4.77375,-0.752479,0.701363,0.021264,0.184649,0.282431,0.00536442,-0.308476,0.0696667,0.0167352,0.229047,5,0.1,6,1.1,2.43372,-0.0694091,0.612369,-0.866026,0.113918,-0.00642929,0,0.026769,-0.00150502,0.010376,2.26346,5,0.1,7,1.1,1.05314,-3.28082,0.871212,-0.851173,-0.252725,0.379083,0.0858307,0.0245273,-0.0368021,0.0128082,0.900201,5,0.1,8,1.1,1.92579,-2.38552,0.629269,-0.15093,-0.023875,-0.0456113,0.558257,-0.00868738,0.0278726,0.0144533,0.326772,5,0.1,9,1.1,-1.53898,1.75762,0.848496,0.0309527,-0.204487,0.398072,-0.00321865,0.0210702,-0.0410564,0.0144986,0.154439,5,0.1,10,1.1,0.51124,2.96403,0.598391,-0.755931,0.736071,0.00126092,0.0615977,-0.0600815,-0.000100583,0.0144421,0.87518,5,0.1,11,1.1,0.253165,-3.86469,0.884734,-0.200952,-0.0279948,0.369315,0.0207247,0.00286102,-0.0380911,0.0101405,0.136265,5,0.1,12,1.1,0.0385834,2.63827,0.647601,-0.1842,-0.866026,-0.0179479,-0.0446557,0,-0.00434369,0.0124497,2.24965,5,0.1,13,1.1,5.09034,-5.67932,0.55711,0.00774562,0.242853,-0.0850146,-0.00107288,0.816524,0.00880286,0.00685389,1.3456,5,0.1,14,1.1,-3.71881,2.25505,0.510125,-0.863004,-0.122256,-0.0360167,-0.0269562,0.0107139,0.0619516,0.00899698,1.04969,5,0.1,15,1.1,-4.38509,-5.63474,0.702339,0.504165,0.305378,0.0378304,-0.0520051,-0.0315011,-0.00390783,0.0352186,0.267689,5,0.1,16,1.1,-2.63753,4.23223,0.610394,0.866026,-0.157052,-0.00491487,0,-0.0373423,-0.00115857,0.0205784,2.25588,5,0.1,17,1.1,-5.24425,-1.90745,0.637709,0.241865,-0.15283,-0.0299296,-0.889063,0.0157356,0.00308827,0.00823377,0.715699,5,0.1,18,1.1,2.43455,-3.39574,0.77533,-0.866026,-0.0907909,0.255437,0,-0.0220686,0.0618957,0.0238286,2.22456,5,0.1,19,1.1,-4.04314,-3.83887,0.502893,0.850358,0.0705499,-0.0157646,-0.0933856,-0.00722706,0.0538789,0.0104694,0.731228,5,0.1
0,1.2,0.169776,-1.976,0.522864,-0.161697,0.834346,0.0284389,0.0607371,-0.312805,-0.010699,0.0113864,0.421012,5,0.1,1,1.2,0.252326,-0.823091,0.501097,0.511378,-0.866026,-0.00613034,-0.00411272,0,0.0219047,0.0123544,2.10991,5,0.1,2,1.2,-0.318576,2.49966,0.709372,0.141992,0.284243,0.0342265,-0.0533313,-0.471354,-0.0128746,0.00799212,1.66655,5,0.1,3,1.2,4.61722,1.25788,0.604699,-0.351417,0.203937,-0.00396073,0.132084,-0.076592,0.00151992,0.0203681,0.174419,5,0.1,4,1.2,-1.81091,-0.493331,0.578744,-0.603822,0.0364974,0.0179023,0.774384,-0.013724,-0.00673532,0.0102956,1.31765,5,0.1,5,1.2,4.7759,-0.735662,0.729927,0.0216961,0.150856,0.288142,0.00238419,-0.358611,0.0282228,0.017244,0.186991,5,0.1,6,1.2,2.34712,-0.0579222,0.611721,-0.866026,0.115316,-0.00650734,0,-0.00334159,0.000178814,0.00981101,2.26341,5,0.1,7,1.2,0.968658,-3.30587,0.908792,-0.835556,-0.247222,0.370833,0.255108,0.0915527,-0.137419,0.0104727,0.625364,5,0.1,8,1.2,1.91338,-2.38796,0.624864,-0.0985116,-0.0249743,-0.0423327,0.482202,-0.010848,0.0379682,0.0149947,0.323182,5,0.1,9,1.2,-1.53592,1.73735,0.887947,0.0302583,-0.199929,0.38919,-0.0113845,0.0751615,-0.14618,0.0150718,0.102694,5,0.1,10,1.2,0.436246,3.03705,0.598516,-0.740549,0.721085,0.00123531,0.264571,-0.257611,-0.000417233,0.0111184,0.582994,5,0.1,11,1.2,0.23325,-3.86747,0.921335,-0.196468,-0.0273705,0.361075,0.0738129,0.010252,-0.13566,0.0107125,0.147551,5,0.1,12,1.2,0.0200021,2.55167,0.645791,-0.186614,-0.866026,-0.0181824,0.00376552,0,0.000357628,0.00813553,1.03803,5,0.1,13,1.2,5.09111,-5.6508,0.548684,0.00755787,0.327754,-0.0831157,-0.00333786,0.826597,0.0312626,0.00887431,1.07805,5,0.1,14,1.2,-3.80508,2.24292,0.506853,-0.859791,-0.119698,-0.0292584,0.124693,0.043273,0.0713766,0.00821343,0.810007,5,0.1,15,1.2,-4.33512,-5.60448,0.706088,0.492907,0.29856,0.0369847,-0.185251,-0.112057,-0.0138581,0.0374921,0.254263,5,0.1,16,1.2,-2.55093,4.21639,0.609898,0.866026,-0.159025,-0.0049755,0,0.00405312,0.000119209,0.0217403,2.25572,5,0.1,17,1.2,-5.22414,-1.9226,0.634743,0.164425,-0.149423,-0.0292614,-0.639439,0.056088,0.0109971,0.00822801,0.662869,5,0.1,18,1.2,2.34794,-3.4049,0.801097,-0.866026,-0.0919819,0.25878,0,0.00178814,-0.00533462,0.0230377,2.22384,5,0.1,19,1.2,-3.95878,-3.83188,0.501578,0.833952,0.0689805,-0.0106394,-0.263095,-0.0258684,0.0478029,0.0102143,0.512272,5,0.1
0,1.3,0.153903,-1.89406,0.525656,-0.155693,0.80437,0.0273819,0.064373,-0.314765,-0.0113286,0.0113864,0.421012,5,0.1,1,1.3,0.303593,-0.909693,0.500589,0.514696,-0.866026,-0.00407584,0.0407211,3.72529e-06,0.0189096,0.0123544,2.10991,5,0.1,2,1.3,-0.304637,2.52565,0.712732,0.13672,0.235346,0.0329538,-0.0565257,-0.489056,-0.0136383,0.00799212,1.66655,5,0.1,3,1.3,4.58256,1.2779,0.60431,-0.342806,0.196365,-0.00381116,0.0609457,-0.0811815,0.00159442,0.0203681,0.174419,5,0.1,4,1.3,-1.86678,-0.489749,0.580501,-0.508565,0.035141,0.0172368,1.07947,-0.0145361,-0.00713393,0.0102956,1.31765,5,0.1,5,1.3,4.77809,-0.722397,0.758915,0.021974,0.114374,0.291562,0.00205636,-0.363413,0.02563,0.017244,0.186991,5,0.1,6,1.3,2.26052,-0.0463779,0.611069,-0.866026,0.115699,-0.00652941,0,0.0046622,-0.000264496,0.00981101,2.26341,5,0.1,7,1.3,0.886255,-3.33014,0.945203,-0.812897,-0.238163,0.357239,0.231471,0.0973195,-0.146035,0.0104727,0.625364,5,0.1,8,1.3,1.90579,-2.39048,0.620823,-0.0548776,-0.0251997,-0.038439,0.383317,0.00588596,0.0402629,0.0149947,0.323182,5,0.1,9,1.3,-1.53295,1.71773,0.926151,0.0291329,-0.1925,0.374739,-0.0120699,0.0796318,-0.154939,0.0150718,0.102694,5,0.1,10,1.3,0.363486,3.1079,0.598638,-0.714327,0.695553,0.00119349,0.283131,-0.275671,-0.000458211,0.0111184,0.582994,5,0.1,11,1.3,0.213807,-3.87015,0.956779,-0.193617,-0.0263572,0.347664,-0.000800937,0.0108778,-0.14377,0.0107125,0.147551,5,0.1,12,1.3,0.00260762,2.46682,0.643839,-0.150627,-0.815199,-0.0219767,0.644118,0.939727,-0.0669025,0.00813553,1.03803,5,0.1,13,1.3,5.09185,-5.61362,0.540526,0.007236,0.417183,-0.0800263,-0.00333786,0.906438,0.0331104,0.00887431,1.07805,5,0.1,14,1.3,-3.88982,2.23116,0.504287,-0.829436,-0.11541,-0.0220634,0.469342,0.0462383,0.0711381,0.00821343,0.810007,5,0.1,15,1.3,-4.28674,-5.57501,0.709719,0.474595,0.291926,0.0356142,-0.196338,-0.0397563,-0.0147037,0.0374921,0.254263,5,0.1,16,1.3,-2.46432,4.20046,0.6094,0.866026,-0.159641,-0.00499533,0,-0.00753999,-0.000234693,0.0217403,2.25572,5,0.1,17,1.3,-5.21047,-1.93727,0.631871,0.114312,-0.143878,-0.0281746,-0.324517,0.0594631,0.011649,0.00822801,0.662869,5,0.1,18,1.3,2.26134,-3.41411,0.827018,-0.866026,-0.0924107,0.259964,0,-0.00520051,0.0144504,0.0230377,2.22384,5,0.1,19,1.3,-3.87658,-3.82511,0.500737,0.810441,0.0664223,-0.0063587,-0.240088,-0.027433,0.0374839,0.0102143,0.512272,5,0.1
0,1.4,0.138695,-1.81539,0.52833,-0.147988,0.766706,0.0260249,0.0930503,-0.457227,-0.0163317,0.011454,0.281039,5,0.1,1,1.4,0.35514,-0.996296,0.500269,0.51446,-0.866027,-0.00239015,-0.0662804,2.98023e-05,0.0146627,0.0115061,2.11173,5,0.1,2,1.4,-0.291282,2.54682,0.715951,0.129954,0.189251,0.0313222,-0.0817031,-0.42212,-0.0197291,0.00843748,1.59829,5,0.1,3,1.4,4.54861,1.29708,0.603938,-0.335658,0.186649,-0.00361949,0.0967979,-0.117362,0.00226498,0.0199106,0.125432,5,0.1,4,1.4,-1.91208,-0.486316,0.582184,-0.396767,0.0334017,0.0163823,1.11943,-0.0210255,-0.0102818,0.010015,1.26959,5,0.1,5,1.4,4.78029,-0.712733,0.788098,0.0219345,0.0794873,0.29082,-0.00405312,-0.328839,-0.0504553,0.016877,0.15929,5,0.1,6,1.4,2.17392,-0.034814,0.610417,-0.866026,0.115169,-0.0064984,0,-0.0197235,0.00110269,0.0088514,2.26375,5,0.1,7,1.4,0.806306,-3.35341,0.980105,-0.783639,-0.22648,0.339706,0.376523,0.141501,-0.212252,0.0124938,0.425938,5,0.1,8,1.4,1.90202,-2.39295,0.617186,-0.0228733,-0.0239015,-0.034228,0.253737,0.0196695,0.0441372,0.0186603,0.305868,5,0.1,9,1.4,-1.5301,1.69893,0.962756,0.0276923,-0.182971,0.356194,-0.0174642,0.115156,-0.223994,0.0126998,0.118181,5,0.1,10,1.4,0.293654,3.1759,0.598755,-0.680057,0.662184,0.00113845,0.417664,-0.406742,-0.000715256,0.0108973,0.386041,5,0.1,11,1.4,0.194426,-3.87273,0.990739,-0.193858,-0.0250578,0.330456,0.00771135,0.0157356,-0.207812,0.0106415,0.180923,5,0.1,12,1.4,-0.00866676,2.39103,0.641259,-0.0706361,-0.692111,-0.0299126,0.899113,1.45853,-0.0846982,0.00838061,0.299026,5,0.1,13,1.4,5.09255,-5.56761,0.532709,0.00685453,0.499499,-0.0760645,-0.00476837,0.700235,0.0478327,0.00654574,0.820732,5,0.1,14,1.4,-3.96994,2.21988,0.502427,-0.768429,-0.109828,-0.0152677,0.738978,0.0678301,0.0637472,0.00875085,0.688418,5,0.1,15,1.4,-4.24038,-5.54603,0.713197,0.4511,0.287306,0.0338525,-0.283718,-0.0662804,-0.0212491,0.027442,0.184074,5,0.1,16,1.4,-2.37772,4.1845,0.6089,0.866026,-0.159025,-0.0049755,0,0.0259876,0.00077486,0.0197316,2.25629,5,0.1,17,1.4,-5.2,-1.95132,0.629119,0.101519,-0.136757,-0.0267789,0.0500679,0.0858903,0.0168085,0.00714352,0.830433,5,0.1,18,1.4,2.17474,-3.42336,0.853022,-0.866026,-0.0921428,0.259192,0,0.0143051,-0.0400543,0.0184513,2.22522,5,0.1,19,1.4,-3.79692,-3.81862,0.500269,0.780398,0.0631332,-0.0031814,-0.383615,-0.0395775,0.0259578,0.0104224,0.740691,5,0.1
0,1.5,0.124343,-1.7409,0.530854,-0.139112,0.723525,0.0244667,0.0886708,-0.42969,-0.015568,0.011454,0.281039,5,0.1,1,1.5,0.406434,-1.0829,0.500095,0.512444,-0.866026,-0.00116304,-0.0038743,3.72529e-06,0.00988692,0.0115061,2.11173,5,0.1,2,1.5,-0.278836,2.56359,0.718988,0.117715,0.146667,0.0294408,-0.156885,-0.387073,-0.0187904,0.00843748,1.59829,5,0.1,3,1.5,4.51543,1.31519,0.603587,-0.32846,0.175454,-0.00340333,0.0636876,-0.111833,0.00216439,0.0199106,0.125432,5,0.1,4,1.5,-1.94616,-0.483077,0.583773,-0.286272,0.0313966,0.0154015,1.03755,-0.0200253,-0.00980496,0.010015,1.26959,5,0.1,5,1.5,4.78246,-0.706332,0.816909,0.0214748,0.049568,0.284999,-0.00581145,-0.266589,-0.0749938,0.016877,0.15929,5,0.1,6,1.5,2.08731,-0.0233611,0.60977,-0.866026,0.114078,-0.0064373,0,-0.00827279,0.000469387,0.0088514,2.26375,5,0.1,7,1.5,0.729706,-3.37538,1.01306,-0.748856,-0.212978,0.319454,0.346452,0.135005,-0.202451,0.0124938,0.425938,5,0.1,8,1.5,1.90088,-2.39522,0.613981,-0.00154097,-0.0214715,-0.0298958,0.154786,0.0282973,0.0427142,0.0186603,0.305868,5,0.1,9,1.5,-1.52741,1.68103,0.997298,0.0260267,-0.176434,0.334829,-0.0166297,0.030674,-0.213437,0.0126998,0.118181,5,0.1,10,1.5,0.227657,3.23997,0.598865,-0.640177,0.618123,0.00107056,0.39938,-0.477254,-0.000674278,0.0108973,0.386041,5,0.1,11,1.5,0.174796,-3.87517,1.02296,-0.200911,-0.0239313,0.315552,-0.123244,0.00837445,-0.110749,0.0106415,0.180923,5,0.1,12,1.5,-0.0110249,2.32881,0.637758,0.0245932,-0.555196,-0.0407252,0.96734,1.28187,-0.122279,0.00838061,0.299026,5,0.1,13,1.5,5.09321,-5.51413,0.525395,0.00640824,0.569185,-0.0697353,-0.00438094,0.650555,0.0769906,0.00654574,0.820732,5,0.1,14,1.5,-4.04244,2.20923,0.5012,-0.676583,-0.10335,-0.00948058,1.03672,0.064835,0.0514425,0.00875085,0.688418,5,0.1,15,1.5,-4.19663,-5.51779,0.71648,0.424038,0.275812,0.0318249,-0.270367,-0.16281,-0.0202619,0.027442,0.184074,5,0.1,16,1.5,-2.29112,4.16868,0.608405,0.866026,-0.157682,-0.00493638,0,0.00950694,0.000275671,0.0197316,2.25629,5,0.1,17,1.5,-5.18933,-1.96458,0.626522,0.11411,-0.128562,-0.0251752,0.179648,0.0818819,0.0160225,0.00714352,0.830433,5,0.1,18,1.5,2.08814,-3.43253,0.878823,-0.866026,-0.0914663,0.257305,0,0.00435114,-0.0120513,0.0184513,2.22522,5,0.1,19,1.5,-3.72036,-3.8125,0.500061,0.753809,0.0593554,-0.00116238,-0.194907,-0.0377744,0.0148751,0.0104224,0.740691,5,0.1
0,1.6,0.110896,-1.6708,0.53322,-0.129551,0.67687,0.0227883,0.105355,-0.519216,-0.018537,0.009298,0.186582,5,0.1,1,1.6,0.457562,-1.1695,0.500021,0.508596,-0.866026,-0.000399351,-0.0941753,0,0.00551343,0.0120542,2.11638,5,0.1,2,1.6,-0.267931,2.57663,0.721834,0.0997163,0.117856,0.0274166,-0.197887,-0.171542,-0.0223517,0.0113288,1.47666,5,0.1,3,1.6,4.48296,1.33215,0.603258,-0.320089,0.163394,-0.00316948,0.115156,-0.132859,0.002563,0.0159533,0.159385,5,0.1,4,1.6,-1.97006,-0.480042,0.585262,-0.197026,0.0292383,0.0143439,0.722468,-0.0237972,-0.0116527,0.0107656,1.18246,5,0.1,5,1.6,4.78457,-0.702587,0.844934,0.020647,0.0265732,0.274335,-0.0107288,-0.192255,-0.144094,0.0170144,0.21054,5,0.1,6,1.6,2.00071,-0.0120172,0.60913,-0.866026,0.112461,-0.00634491,5.96046e-05,-0.0284146,0.00157952,0.0126847,1.88194,5,0.1,7,1.6,0.656685,-3.39597,1.04394,-0.709753,-0.198412,0.2976,0.454217,0.160933,-0.241101,0.0164505,0.286707,5,0.1,8,1.6,1.90123,-2.39722,0.611204,0.00576079,-0.0183702,-0.0256538,-0.0139475,0.0333786,0.0422299,0.0169592,0.266939,5,0.1,9,1.6,-1.5249,1.6635,1.02966,0.0242382,-0.174212,0.311816,-0.0197887,0.0249147,-0.253618,0.0105852,0.146472,5,0.1,10,1.6,0.165735,3.29926,0.598969,-0.596933,0.56625,0.000996888,0.478532,-0.56231,-0.00077486,0.0104153,0.266092,5,0.1,11,1.6,0.154045,-3.87752,1.05398,-0.214057,-0.0231206,0.304765,-0.120714,0.00917912,-0.119805,0.0109799,0.110675,5,0.1,12,1.6,-0.00387471,2.27942,0.633075,0.116229,-0.435346,-0.0527531,0.837491,1.11687,-0.111431,0.00834765,3.25965,5,0.1,13,1.6,5.09383,-5.45433,0.518842,0.00594854,0.622356,-0.0610039,-0.00500679,0.383615,0.0960231,0.00963188,0.595979,5,0.1,14,1.6,-4.10481,2.19923,0.500485,-0.570869,-0.096339,-0.00505298,1.0407,0.0776052,0.0369251,0.00865708,0.598972,5,0.1,15,1.6,-4.15564,-5.49117,0.719557,0.394893,0.255001,0.0296384,-0.321388,-0.251293,-0.0240505,0.0279349,0.150756,5,0.1,16,1.6,-2.20452,4.15299,0.607914,0.866026,-0.15564,-0.00487417,0,0.0371933,0.00116229,0.0161128,2.25412,5,0.1,17,1.6,-5.17695,-1.97701,0.624088,0.133538,-0.119731,-0.023447,0.192404,0.0973344,0.0190437,0.00937483,1.08281,5,0.1,18,1.6,2.00153,-3.44164,0.904444,-0.866026,-0.0904083,0.254336,0,0.020504,-0.0574291,0.0182499,2.22762,5,0.1,19,1.6,-3.64596,-3.80676,0.500005,0.733364,0.0552773,-0.000113249,-0.247598,-0.0448227,0.00658631,0.00796497,0.542588,5,0.1
0,1.7,0.0984428,-1.60558,0.53541,-0.119675,0.628383,0.0210507,0.0957148,-0.470012,-0.0168383,0.009298,0.186582,5,0.1,1,1.7,0.508147,-1.2561,0.500003,0.504281,-0.866026,-9.96515e-06,-0.0218973,0,0.00247732,0.0120542,2.11638,5,0.1,2,1.7,-0.258985,2.58783,0.724469,0.0789562,0.110594,0.0253221,-0.212988,0.0873804,-0.0202879,0.0113288,1.47666,5,0.1,3,1.7,4.45147,1.34793,0.602952,-0.309937,0.153202,-0.00297297,0.10094,-0.080578,0.00155717,0.0159533,0.159385,5,0.1,4,1.7,-1.98666,-0.477232,0.586641,-0.141645,0.0270078,0.0132512,0.333384,-0.0216123,-0.0105873,0.0107656,1.18246,5,0.1,5,1.7,4.78663,-0.700763,0.871688,0.0208274,0.011154,0.26092,0.0109673,-0.11703,-0.133883,0.0170144,0.21054,5,0.1,6,1.7,1.91411,-0.000888911,0.608502,-0.866025,0.110215,-0.00621993,-1.49012e-05,-0.021651,0.00121444,0.0126847,1.88194,5,0.1,7,1.7,0.587852,-3.41505,1.07255,-0.667599,-0.183325,0.274994,0.411458,0.14624,-0.219159,0.0164505,0.286707,5,0.1,8,1.7,1.90153,-2.39889,0.608844,-0.00258014,-0.0149626,-0.021617,-0.180423,0.0343174,0.0386424,0.0169592,0.266939,5,0.1,9,1.7,-1.52256,1.64593,1.05979,0.0227202,-0.179382,0.292359,-0.0119954,-0.104532,-0.15378,0.0105852,0.146472,5,0.1,10,1.7,0.108322,3.35281,0.599065,-0.552041,0.503421,0.000923872,0.435664,-0.649303,-0.000707805,0.0104153,0.266092,5,0.1,11,1.7,0.131995,-3.8798,1.08393,-0.226966,-0.0223491,0.294668,-0.122529,0.00728667,-0.0954345,0.0109799,0.110675,5,0.1,12,1.7,0.0107311,2.23925,0.627378,0.165007,-0.387031,-0.0599116,0.183875,-0.0273585,-0.0347793,0.00834765,3.25965,5,0.1,13,1.7,5.0944,-5.39043,0.51325,0.00548363,0.652726,-0.0506172,-0.00447035,0.204384,0.109434,0.00963188,0.595979,5,0.1,14,1.7,-4.15677,2.18997,0.500139,-0.47095,-0.0890601,-0.00211094,0.888884,0.0706166,0.0223592,0.00865708,0.598972,5,0.1,15,1.7,-4.11768,-5.46714,0.722406,0.364767,0.223768,0.0273828,-0.291944,-0.362456,-0.0218712,0.0279349,0.150756,5,0.1,16,1.7,-2.11791,4.13741,0.607431,0.866026,-0.157462,-0.00479817,0,-0.0559688,0.000610948,0.0161128,2.25412,5,0.1,17,1.7,-5.16298,-1.98852,0.621834,0.143094,-0.110605,-0.0216614,0.0168383,0.0884533,0.0173077,0.00937483,1.08281,5,0.1,18,1.7,1.91493,-3.45061,0.92968,-0.866026,-0.0891879,0.250924,0,0.00891089,-0.0248812,0.0182499,2.22762,5,0.1,19,1.7,-3.57362,-3.80144,0.500018,0.714997,0.0510722,0.00030268,-0.156939,-0.0407696,0.00206381,0.00796497,0.542588,5,0.1
0,1.8,0.0869614,-1.54514,0.53743,-0.109813,0.57959,0.0193164,0.103924,-0.519097,-0.0182986,0.00993091,0.123912,5,0.1,1,1.8,0.558385,-1.34271,0.500011,0.499129,-0.866026,0.00013262,-0.102311,0,0.000536442,0.0116418,2.13419,5,0.1,2,1.8,-0.252149,2.6,0.726898,0.0578873,0.139135,0.0232339,-0.20501,0.460267,-0.0220537,0.010168,1.2702,5,0.1,3,1.8,4.42105,1.36287,0.602662,-0.297689,0.145626,-0.00282675,0.152826,-0.0780225,0.00149012,0.0161189,0.142648,5,0.1,4,1.8,-2,-0.47464,0.587912,-0.133115,0.0247814,0.0121608,-0.138521,-0.0234395,-0.0115037,0.0120883,1.01421,5,0.1,5,1.8,4.78878,-0.700119,0.897064,0.0222564,0.00280589,0.245944,0.014782,-0.0526011,-0.172138,0.0154887,0.305145,5,0.1,6,1.8,1.82751,0.0100011,0.607888,-0.866026,0.107257,-0.00605285,0,-0.0410828,0.00229478,0.00772331,1.46575,5,0.1,7,1.8,0.523229,-3.43264,1.09894,-0.62366,-0.168252,0.252399,0.482768,0.158906,-0.238299,0.00927432,0.191962,5,0.1,8,1.8,1.9,-2.40021,0.60687,-0.0314981,-0.0115871,-0.0179023,-0.382185,0.0326633,0.0357032,0.0138,0.204857,5,0.1,9,1.8,-1.52034,1.62741,1.0883,0.0215918,-0.19097,0.277898,-0.0115633,-0.109434,-0.148833,0.0100388,0.0916941,5,0.1,10,1.8,0.0553336,3.4,0.599153,-0.507049,0.441414,0.000849366,0.475314,-0.585556,-0.00077486,0.0103339,0.186131,5,0.1,11,1.8,0.108783,-3.88199,1.11288,-0.23603,-0.0214934,0.28342,-0.0483766,0.0104904,-0.138819,0.0090543,0.0789794,5,0.1,12,1.8,0.0273853,2.19936,0.621318,0.161388,-0.418854,-0.0602975,-0.218222,-0.512838,0.0242591,0.0105252,2.81368,5,0.1,13,1.8,5.09493,-5.32456,0.508741,0.00503063,0.660098,-0.0395238,-0.00476837,-0.068903,0.110537,0.00914246,0.468628,5,0.1,14,1.8,-4.2,2.18142,0.500019,-0.39947,-0.0817716,-0.000479817,0.546217,0.0767708,0.010848,0.00716787,0.511451,5,0.1,15,1.8,-4.08269,-5.44669,0.725033,0.334692,0.1845,0.0251293,-0.316858,-0.413895,-0.0237823,0.0249843,0.111654,5,0.1,16,1.8,-2.03131,4.12135,0.606955,0.866026,-0.163758,-0.00470728,-5.96046e-05,-0.0562668,0.00137091,0.0144075,2.02497,5,0.1,17,1.8,-5.14875,-1.99913,0.619756,0.139952,-0.101495,-0.0198781,-0.0667572,0.0962019,0.0188053,0.00870204,1.92967,5,0.1,18,1.8,1.82833,-3.45947,0.954607,-0.866026,-0.0877738,0.246958,5.96046e-05,0.0228882,-0.0643432,0.0165581,2.23041,5,0.1,19,1.8,-3.503,-3.79654,0.500053,0.69564,0.0468671,0.000359118,-0.256538,-0.0443459,-0.000625849,0.00867977,2.91436,5,0.1
0,1.9,0.0764717,-1.48963,0.539275,-0.100185,0.531553,0.0176214,0.0916286,-0.45798,-0.0161305,0.00993091,0.123912,5,0.1,1,1.9,0.607887,-1.42931,0.500025,0.49131,-0.866026,0.000142679,-0.0772253,0,-0.00026077,0.0116418,2.13419,5,0.1,2,1.9,-0.247371,2.61703,0.729117,0.0378911,0.207847,0.0211919,-0.191872,0.842839,-0.0194237,0.010168,1.2702,5,0.1,3,1.9,4.39235,1.37709,0.602386,-0.27355,0.138982,-0.00269981,0.318199,-0.0611395,0.00117347,0.0161189,0.142648,5,0.1,4,1.9,-2.01491,-0.472273,0.589074,-0.172373,0.0226098,0.0110951,-0.580087,-0.020666,-0.010144,0.0120883,1.01421,5,0.1,5,1.9,4.79105,-0.700111,0.92072,0.0229254,-0.00258163,0.226427,-0.00107288,-0.0488684,-0.217918,0.0154887,0.305145,5,0.1,6,1.9,1.74091,0.0205396,0.607293,-0.865867,0.103587,-0.0058474,0.0063628,-0.0364952,0.00204891,0.00772331,1.46575,5,0.1,7,1.9,0.46314,-3.44871,1.12305,-0.578995,-0.153529,0.230318,0.429329,0.140145,-0.210188,0.00927432,0.191962,5,0.1,8,1.9,1.89456,-2.40121,0.605251,-0.0801636,-0.00844337,-0.0145575,-0.553973,0.0299066,0.0312999,0.0138,0.204857,5,0.1,9,1.9,-1.51823,1.60782,1.11543,0.0206077,-0.200173,0.265224,-0.00905246,-0.0667498,-0.116616,0.0100388,0.0916941,5,0.1,10,1.9,0.00687774,3.44151,0.599235,-0.462988,0.391347,0.000777002,0.419727,-0.434414,-0.000689179,0.0103339,0.186131,5,0.1,11,1.9,0.0853019,-3.88409,1.14054,-0.230259,-0.0204738,0.26992,0.151909,0.0105351,-0.139624,0.0090543,0.0789794,5,0.1,12,1.9,0.0418979,2.15386,0.615465,0.12438,-0.499025,-0.0562511,-0.487982,-0.992194,0.0548363,0.0105252,2.81368,5,0.1,13,1.9,5.09541,-5.25973,0.505331,0.00459105,0.629355,-0.0288221,-0.00417233,-0.49603,0.102121,0.00914246,0.468628,5,0.1,14,1.9,-4.23761,2.17361,0.500011,-0.35599,-0.0746537,0.000189152,0.347018,0.0677854,0.00320747,0.00716787,0.511451,5,0.1,15,1.9,-4.05056,-5.43033,0.727446,0.3098,0.142609,0.0232602,-0.200152,-0.416696,-0.0150353,0.0249843,0.111654,5,0.1,16,1.9,-1.94471,4.10459,0.606489,0.866025,-0.17217,-0.00460427,1.49012e-05,-0.0970662,0.000916421,0.0144075,2.02497,5,0.1,17,1.9,-5.13544,-2.00912,0.617903,0.124405,-0.100926,-0.0168381,-0.187248,-0.0635386,0.039652,0.00870204,1.92967,5,0.1,18,1.9,1.74173,-3.46816,0.979073,-0.866025,-0.0863377,0.242919,-1.49012e-05,0.0107139,-0.030119,0.0165581,2.23041,5,0.1,19,1.9,-3.43544,-3.79113,0.500238,0.649117,0.0692252,0.00461899,-0.646859,0.431433,0.0762269,0.00867977,2.91436,5,0.1
0,2,0.0669109,-1.43877,0.540956,-0.0909824,0.485229,0.0160024,0.0944845,-0.479877,-0.0166297,0.0107834,0.142275,5,0.1,1,2,0.656518,-1.51591,0.500037,0.479771,-0.866026,9.38773e-05,-0.169545,0,-0.000655651,0.0109208,2.15888,5,0.1,2,2,-0.244499,2.64218,0.731139,0.0200331,0.295228,0.0192419,-0.163108,0.851035,-0.0199974,0.00911375,1.02118,5,0.1,3,2,4.36677,1.39067,0.602122,-0.236249,0.132334,-0.00257045,0.417471,-0.0762343,0.00146031,0.017011,0.199101,5,0.1,4,2,-2.03532,-0.470115,0.590133,-0.237393,0.0205345,0.0100762,-0.669479,-0.0213236,-0.0104904,0.0112852,0.820088,5,0.1,5,2,4.79331,-0.700568,0.942201,0.0221252,-0.00599921,0.202483,-0.014782,-0.0160336,-0.260115,0.0155637,0.698138,5,0.1,6,2,1.6544,0.0306956,0.60672,-0.863481,0.099254,-0.00560284,0.0509024,-0.053038,0.00301003,0.00741234,1.10863,5,0.1,7,2,0.407424,-3.46336,1.14503,-0.534621,-0.139451,0.209203,0.471085,0.144601,-0.216961,0.00895358,0.12844,5,0.1,8,2,1.88374,-2.40191,0.603945,-0.135791,-0.00565648,-0.0116229,-0.530779,0.02563,0.0274777,0.0109908,0.140017,5,0.1,9,2,-1.51622,1.58759,1.14134,0.0196248,-0.203031,0.252539,-0.0113249,0.0146031,-0.145316,0.012005,0.101713,5,0.1,10,2,-0.0373225,3.4786,0.599309,-0.42077,0.351286,0.000707805,0.434168,-0.380754,-0.000745058,0.0105465,0.211537,5,0.1,11,2,0.0632839,-3.88608,1.16678,-0.207882,-0.0192761,0.254095,0.28518,0.0138283,-0.18245,0.00851731,0.195261,5,0.1,12,2,0.0516822,2.09887,0.610152,0.0698534,-0.6001,-0.049679,-0.575902,-0.955582,0.0749528,0.00923615,2.51648,5,0.1,13,2,5.09585,-5.19966,0.502936,0.00417233,0.569081,-0.0193313,-0.00429153,-0.67687,0.0868142,0.00727148,0.372179,5,0.1,14,2,-4.27164,2.16648,0.500038,-0.325906,-0.067836,0.000280142,0.272751,0.0700951,-0.000864267,0.00939873,0.477375,5,0.1,15,2,-4.02052,-5.41811,0.729701,0.291324,0.102425,0.0218734,-0.183105,-0.381231,-0.0137985,0.0239635,0.219399,5,0.1,16,2,-1.85811,4.08692,0.606034,0.866026,-0.180602,-0.00448376,-5.96046e-05,-0.0607967,0.00163913,0.0189793,0.714886,5,0.1,17,2,-5.12378,-2.01965,0.616436,0.110936,-0.110435,-0.0123695,-0.0548363,-0.110388,0.0478923,0.00877738,1.7683,5,0.1,18,2,1.65512,-3.47673,1.00318,-0.866026,-0.0847995,0.2386,5.96046e-05,0.0234842,-0.0659823,0.0160276,1.81584,5,0.1,19,2,-3.37422,-3.78168,0.501143,0.571275,0.122482,0.0138968,-0.886559,0.586987,0.101894,0.00876771,3.12038,5,0.1
0,2.1,0.0582149,-1.39228,0.542486,-0.0835051,0.447745,0.0146865,0.0602815,-0.298411,-0.0106059,0.0107834,0.142275,5,0.1,1,2.1,0.703452,-1.60251,0.500044,0.456912,-0.866026,3.09199e-05,-0.289317,0,-0.000596046,0.0109208,2.15888,5,0.1,2,2.1,-0.24328,2.67622,0.73297,0.00472169,0.386694,0.0174063,-0.140932,0.924274,-0.0172444,0.00911375,1.02118,5,0.1,3,2.1,4.34533,1.40357,0.601871,-0.191849,0.126091,-0.00245078,0.461549,-0.0551492,0.00106171,0.017011,0.199101,5,0.1,4,2.1,-2.06274,-0.468162,0.591091,-0.312836,0.0185768,0.00911336,-0.788897,-0.0183992,-0.009045,0.0112852,0.820088,5,0.1,5,2.1,4.79544,-0.701337,0.961153,0.0202157,-0.00950675,0.176581,-0.022918,-0.0249967,-0.258338,0.0155637,0.698138,5,0.1,6,2.1,1.56809,0.0403729,0.606173,-0.863877,0.0943746,-0.00532568,-0.0175089,-0.0479744,0.00272691,0.00741234,1.10863,5,0.1,7,2.1,0.356179,-3.47663,1.16493,-0.491254,-0.126174,0.189282,0.411958,0.124812,-0.187255,0.00895358,0.12844,5,0.1,8,2.1,1.86747,-2.40236,0.602913,-0.189345,-0.00328422,-0.00909483,-0.516184,0.0216365,0.0231825,0.0109908,0.140017,5,0.1,9,2.1,-1.51431,1.56762,1.16597,0.0186976,-0.193854,0.240639,-0.00818074,0.161007,-0.105128,0.012005,0.101713,5,0.1,10,2.1,-0.0775131,3.51202,0.599376,-0.385333,0.318832,0.000639539,0.296082,-0.28336,-0.000644475,0.0105465,0.211537,5,0.1,11,2.1,0.0440834,-3.88794,1.19129,-0.17478,-0.0179052,0.235998,0.366228,0.0139773,-0.184722,0.00851731,0.195261,5,0.1,12,2.1,0.0556148,2.03414,0.60557,0.00772532,-0.692716,-0.0418826,-0.640968,-0.847682,0.0799857,0.00923615,2.51648,5,0.1,13,2.1,5.09625,-5.14637,0.501406,0.00378042,0.49625,-0.0116052,-0.00369549,-0.7101,0.067234,0.00727148,0.372179,5,0.1,14,2.1,-4.30265,2.16003,0.500058,-0.292459,-0.0613969,0.000106823,0.381708,0.0605434,-0.00223145,0.00939873,0.477375,5,0.1,15,2.1,-3.9922,-5.40967,0.731827,0.275759,0.0672936,0.0207002,-0.140816,-0.318348,-0.0106134,0.0239635,0.219399,5,0.1,16,2.1,-1.77272,4.06867,0.606376,0.830662,-0.183183,0.0178837,-0.665195,0.0109673,0.396509,0.0189793,0.714886,5,0.1,17,2.1,-5.11278,-2.03138,0.61545,0.11289,-0.125099,-0.00726832,0.166029,-0.166595,0.0524186,0.00877738,1.7683,5,0.1,18,2.1,1.56852,-3.48511,1.02677,-0.866025,-0.0829771,0.233481,-1.49012e-05,0.0169575,-0.0476465,0.0160276,1.81584,5,0.1,19,2.1,-3.32201,-3.76608,0.503107,0.469249,0.192331,0.0258406,-1.10474,0.761151,0.129212,0.00876771,3.12038,5,0.1
0,2.2,0.0501444,-1.34889,0.543905,-0.0780184,0.420573,0.0137225,0.0533071,-0.266016,-0.00938773,0.0108612,0.0824978,5,0.1,1,2.2,0.74749,-1.68912,0.500044,0.421785,-0.866026,-2.23517e-05,-0.412703,0,-0.000476837,0.00986894,2.22965,5,0.1,2,2.2,-0.243461,2.71926,0.734625,-0.00779144,0.470793,0.0157028,-0.107899,0.718951,-0.0172257,0.0114625,0.778592,5,0.1,3,2.2,4.32846,1.41589,0.601632,-0.145555,0.120199,-0.0023365,0.45681,-0.067234,0.0013113,0.0180312,0.194418,5,0.1,4,2.2,-2.09782,-0.466396,0.591958,-0.386459,0.0167586,0.00821948,-0.646591,-0.0183731,-0.0090301,0.00912595,0.633837,5,0.1,5,2.2,4.79733,-0.702253,0.97752,0.017643,-0.00685006,0.150774,-0.0283718,0.0905097,-0.25779,0.0156963,1.19606,5,0.1,6,2.2,1.48177,0.049556,0.605655,-0.860307,0.0890825,-0.00502616,0.114441,-0.0602064,0.00342727,0.00749472,0.846008,5,0.1,7,2.2,0.309121,-3.48863,1.18293,-0.44957,-0.113833,0.17077,0.432611,0.124574,-0.187099,0.00857484,0.148606,5,0.1,8,2.2,1.84614,-2.40258,0.602113,-0.234923,-0.00135303,-0.00696778,-0.37843,0.0169277,0.0193715,0.0116187,0.118122,5,0.1,9,2.2,-1.51248,1.54923,1.18949,0.0178248,-0.172359,0.229403,-0.00995398,0.261486,-0.128329,0.0115726,0.191324,5,0.1,10,2.2,-0.114649,3.54255,0.599437,-0.35782,0.292003,0.000576675,0.269998,-0.264168,-0.000625849,0.0113145,0.266841,5,0.1,11,2.2,0.0284972,-3.88966,1.21392,-0.136556,-0.0164092,0.216293,0.389707,0.015974,-0.212729,0.00933088,0.187945,5,0.1,12,2.2,0.0532495,1.96114,0.601783,-0.0538697,-0.761375,-0.0338614,-0.571918,-0.492096,0.0795722,0.00906832,2.63922,5,0.1,13,2.2,5.0966,-5.1,0.500547,0.00342131,0.434363,-0.00593364,-0.0038147,-0.523806,0.0462234,0.00862121,0.320739,5,0.1,14,2.2,-4.3299,2.15419,0.500058,-0.252056,-0.0554025,-0.000107288,0.416517,0.0605583,-0.00178814,0.00937101,0.451173,5,0.1,15,2.2,-3.96534,-5.40441,0.733843,0.261009,0.0392079,0.0195906,-0.162959,-0.241995,-0.0123084,0.0225368,0.422049,5,0.1,16,2.2,-1.69379,4.05054,0.610465,0.740838,-0.178182,0.0660673,-1.09476,0.0898838,0.528932,0.015597,2.23285,5,0.1,17,2.2,-5.1,-2.04471,0.614981,0.149143,-0.140941,-0.002186,0.536919,-0.138164,0.0479817,0.00751876,1.51425,5,0.1,18,2.2,1.48192,-3.49331,1.04983,-0.866026,-0.0807345,0.227162,0,0.0308752,-0.0864267,0.0168312,1.40013,5,0.1,19,2.2,-3.28064,-3.74309,0.50633,0.358671,0.266206,0.0383884,-1.07265,0.680327,0.115931,0.00792231,3.23537,5,0.1
0,2.3,0.0425785,-1.308,0.545236,-0.073517,0.398252,0.0129301,0.0401712,-0.199281,-0.0070706,0.0108612,0.0824978,5,0.1,1,2.3,0.787264,-1.77572,0.50004,0.370716,-0.866026,-5.84871e-05,-0.591408,0,-0.00026077,0.00986894,2.22965,5,0.1,2,2.3,-0.244749,2.76995,0.736115,-0.0176067,0.542085,0.0141334,-0.0867657,0.665188,-0.0146106,0.0114625,0.778592,5,0.1,3,2.3,4.31615,1.42759,0.601404,-0.101435,0.113606,-0.00220779,0.418007,-0.0680313,0.0013262,0.0180312,0.194418,5,0.1,4,2.3,-2.13976,-0.464806,0.592737,-0.45187,0.015084,0.00739684,-0.622809,-0.0155941,-0.00765547,0.00912595,0.633837,5,0.1,5,2.3,4.79895,-0.702417,0.99135,0.0147372,0.00626305,0.126222,-0.0293851,0.244003,-0.234045,0.0156963,1.19606,5,0.1,6,2.3,1.3961,0.0583374,0.605169,-0.85395,0.0879619,-0.00470923,0.0566319,0.0250847,0.00306591,0.00749472,0.846008,5,0.1,7,2.3,0.265972,-3.49948,1.19922,-0.416241,-0.103984,0.155978,0.261308,0.0790507,-0.11871,0.00857484,0.148606,5,0.1,8,2.3,1.82072,-2.40264,0.601506,-0.273365,0.00019148,-0.00522221,-0.365727,0.0137687,0.015635,0.0116187,0.118122,5,0.1,9,2.3,-1.51075,1.53344,1.21176,0.0167539,-0.142268,0.215597,-0.0117347,0.329979,-0.151239,0.0115726,0.191324,5,0.1,10,2.3,-0.149163,3.57057,0.599492,-0.332964,0.269347,0.000519399,0.2383,-0.201106,-0.000532717,0.0113145,0.266841,5,0.1,11,2.3,0.0167724,-3.89122,1.23451,-0.0982912,-0.0148404,0.195439,0.368847,0.0156313,-0.20761,0.00933088,0.187945,5,0.1,12,2.3,0.044983,1.88399,0.598785,-0.111124,-0.768654,-0.0262027,-0.552331,0.287093,0.0731312,0.00906832,2.63922,5,0.1,13,2.3,5.09677,-5.05876,0.50015,-0.00136867,0.394016,-0.00232523,-0.0822246,-0.31063,0.0263788,0.00862121,0.320739,5,0.1,14,2.3,-4.35289,2.14893,0.50004,-0.207255,-0.0498809,-0.000224728,0.448734,0.0514686,-0.000480562,0.00937101,0.451173,5,0.1,15,2.3,-3.94002,-5.40165,0.735744,0.245724,0.0168465,0.018437,-0.150844,-0.196546,-0.0113696,0.0225368,0.422049,5,0.1,16,2.3,-1.62354,4.03305,0.619222,0.677785,-0.172401,0.104466,-0.265479,0.0375211,0.251412,0.015597,2.23285,5,0.1,17,2.3,-5.08156,-2.05954,0.615001,0.226239,-0.155737,0.00252929,0.929385,-0.145167,0.0450537,0.00751876,1.51425,5,0.1,18,2.3,1.39532,-3.50124,1.07216,-0.8658,-0.0780147,0.219544,0.00900775,0.0267476,-0.0750199,0.0168312,1.40013,5,0.1,19,2.3,-3.25013,-3.71292,0.51077,0.253449,0.337541,0.0504589,-0.967368,0.705868,0.119068,0.00792231,3.23537,5,0.1
0,2.4,0.0354291,-1.26919,0.546493,-0.0693941,0.377491,0.0122041,0.0447342,-0.22918,-0.00783801,0.0111398,0.0641975,5,0.1,1,2.4,0.821203,-1.86232,0.500033,0.306669,-0.866026,-7.59959e-05,-0.675201,0,-5.96046e-05,0.011933,2.06576,5,0.1,2,2.4,-0.246897,2.82712,0.737456,-0.0248805,0.596786,0.0127032,-0.0577122,0.399947,-0.0142753,0.00977361,0.561669,5,0.1,3,2.4,4.30798,1.43858,0.601191,-0.0631809,0.106034,-0.00206083,0.342607,-0.0855923,0.00169873,0.0135287,0.191668,5,0.1,4,2.4,-2.18776,-0.463374,0.59344,-0.504434,0.0135586,0.00664741,-0.401378,-0.0152737,-0.00748038,0.00841477,0.463283,5,0.1,5,2.4,4.80028,-0.7,1.00284,0.0118256,0.0476211,0.103837,-0.0288486,0.567585,-0.214219,0.0156367,3.28244,5,0.1,6,2.4,1.31119,0.0673138,0.604714,-0.841522,0.0918658,-0.00438541,0.222445,0.0433773,0.00351667,0.0076103,0.601302,5,0.1,7,2.4,0.225556,-3.50951,1.21427,-0.392556,-0.0968695,0.145289,0.232548,0.0683069,-0.102341,0.00848088,0.237438,5,0.1,8,2.4,1.79174,-2.40256,0.601057,-0.303906,0.00138283,-0.00382215,-0.228167,0.00965595,0.0124574,0.0114301,0.0592026,5,0.1,9,2.4,-1.50914,1.52091,1.2325,0.0154346,-0.108212,0.198621,-0.0147223,0.343025,-0.190258,0.0094925,0.27689,5,0.1,10,2.4,-0.181245,3.59652,0.599541,-0.308273,0.24969,0.000466406,0.263207,-0.200868,-0.000506639,0.00824099,0.250185,5,0.1,11,2.4,0.00870788,-3.89262,1.253,-0.0639146,-0.0132382,0.174245,0.314137,0.0164509,-0.218332,0.00931923,0.405838,5,0.1,12,2.4,0.031282,1.80945,0.596517,-0.160782,-0.714529,-0.0193164,-0.426115,0.749171,0.0642538,0.0082198,2.82744,5,0.1,13,2.4,5.09616,-5.02074,0.500021,-0.0112891,0.367403,-0.000524521,-0.10848,-0.242233,0.0104904,0.0063449,0.268721,5,0.1,14,2.4,-4.37151,2.14419,0.500018,-0.166917,-0.0448406,-0.000202656,0.343084,0.0503063,0.000864267,0.00802872,0.414316,5,0.1,15,2.4,-3.91623,-5.40082,0.737528,0.229484,0.00119209,0.0172138,-0.17941,-0.112057,-0.0134706,0.0225531,0.788455,5,0.1,16,2.4,-1.5564,4.01599,0.630553,0.670201,-0.168645,0.118697,0.0374913,0.0457764,0.0443459,0.0140691,0.553695,5,0.1,17,2.4,-5.05415,-2.07576,0.615466,0.32177,-0.167835,0.00661016,0.92411,-0.0879765,0.0356138,0.007895,1.2115,5,0.1,18,2.4,1.30886,-3.5089,1.0937,-0.862426,-0.0748396,0.210625,0.072062,0.0389814,-0.109613,0.0140373,1.04892,5,0.1,19,2.4,-3.22906,-3.67587,0.516373,0.174475,0.400454,0.0611022,-0.583768,0.523448,0.0892878,0.0105369,3.00841,5,0.1
0,2.5,0.0286815,-1.23242,0.54768,-0.0657819,0.359096,0.0115713,0.031083,-0.15825,-0.00544637,0.0111398,0.0641975,5,0.1,1,2.5,0.848453,-1.94892,0.500025,0.238236,-0.866025,-7.60891e-05,-0.681795,1.49012e-05,4.84288e-05,0.011933,2.06576,5,0.1,2,2.5,-0.249651,2.88875,0.73866,-0.0299209,0.634436,0.0114101,-0.0418108,0.320166,-0.0119619,0.00977361,0.561669,5,0.1,3,2.5,4.30322,1.44875,0.600993,-0.0336163,0.0973307,-0.00188882,0.246793,-0.0899732,0.00177696,0.0135287,0.191668,5,0.1,4,2.5,-2.24018,-0.462089,0.594069,-0.542871,0.0121749,0.00596968,-0.336915,-0.0128001,-0.00626966,0.00841477,0.463283,5,0.1,5,2.5,4.80132,-0.690796,1.01219,0.00904724,0.149411,0.0837579,-0.0265539,1.34784,-0.187829,0.0156367,3.28244,5,0.1,6,2.5,1.22802,0.0767934,0.604292,-0.822433,0.0982343,-0.00406122,0.194713,0.0742027,0.00310317,0.0076103,0.601302,5,0.1,7,2.5,0.18727,-3.51886,1.22829,-0.374552,-0.0900388,0.135054,0.148287,0.0701845,-0.105195,0.00848088,0.237438,5,0.1,8,2.5,1.76032,-2.40238,0.600732,-0.322879,0.00220649,-0.00271918,-0.138849,0.00675023,0.00967458,0.0114301,0.0592026,5,0.1,9,2.5,-1.50767,1.51177,1.25144,0.0140108,-0.0750907,0.180233,-0.0140518,0.31364,-0.181399,0.0094925,0.27689,5,0.1,10,2.5,-0.210528,3.62074,0.599585,-0.275337,0.236753,0.000426359,0.385667,-0.0779629,-0.000320375,0.00824099,0.250185,5,0.1,11,2.5,0.00383679,-3.89387,1.26936,-0.0342792,-0.0116482,0.15318,0.268298,0.0154972,-0.205025,0.00931923,0.405838,5,0.1,12,2.5,0.0130109,1.74259,0.594891,-0.204664,-0.61687,-0.0133663,-0.428192,1.10298,0.0545532,0.0082198,2.82744,5,0.1,13,2.5,5.09443,-4.98543,0.500002,-0.0236578,0.337195,0,-0.131518,-0.342965,0.00147521,0.0063449,0.268721,5,0.1,14,2.5,-4.38665,2.13994,0.500003,-0.138594,-0.0402797,-8.3819e-05,0.185966,0.042215,0.00130385,0.00802872,0.414316,5,0.1,15,2.5,-3.89421,-5.40124,0.73918,0.210495,-0.00883862,0.0157886,-0.201941,-0.0633299,-0.0151508,0.0225531,0.788455,5,0.1,16,2.5,-1.49014,3.99945,0.642552,0.64612,-0.161268,0.120359,-0.486761,0.101209,-0.0107288,0.0140691,0.553695,5,0.1,17,2.5,-5.01709,-2.09299,0.616298,0.420524,-0.176619,0.00996329,0.99349,-0.077799,0.0304803,0.007895,1.2115,5,0.1,18,2.5,1.22268,-3.5162,1.11425,-0.862803,-0.0712741,0.200594,-0.0291318,0.034973,-0.0984296,0.0140373,1.04892,5,0.1,19,2.5,-3.21396,-3.6332,0.522929,0.135245,0.452225,0.0698885,-0.124037,0.479475,0.0813007,0.0105369,3.00841,5,0.1
0,2.6,0.0222601,-1.19731,0.54881,-0.0625685,0.342512,0.0110075,0.0357069,-0.187278,-0.00625849,0.00890734,0.0291708,5,0.1,1,2.6,0.868937,-2.03553,0.500018,0.172347,-0.866026,-6.70552e-05,-0.627249,0,8.9407e-05,0.0104783,0.112959,5,0.1,2,2.6,-0.252817,2.95344,0.739743,-0.0330381,0.655329,0.010246,-0.0197738,0.0756979,-0.0115633,0.00756477,0.388217,5,0.1,3,2.6,4.30093,1.45802,0.600814,-0.0138998,0.0878006,-0.00170171,0.148296,-0.101447,0.00196695,0.0147372,0.321324,5,0.1,4,2.6,-2.29584,-0.460934,0.594636,-0.566715,0.0109307,0.00535995,-0.119448,-0.0123829,-0.00607967,0.00896753,0.323477,5,0.1,5,2.6,4.8021,-0.668645,1.01967,0.00655651,0.295939,0.066185,-0.023365,1.49056,-0.163913,0.0153007,2.77352,5,0.1,6,2.6,1.14694,0.0869727,0.603901,-0.796613,0.105016,-0.00374317,0.345886,0.0543371,0.00336766,0.00745722,0.417055,5,0.1,7,2.6,0.150556,-3.5275,1.24124,-0.359333,-0.0825226,0.123787,0.171009,0.0813007,-0.121951,0.00853139,0.578403,5,0.1,8,2.6,1.72757,-2.40213,0.600504,-0.329673,0.00272989,-0.00187159,0.0106096,0.00357628,0.00736117,0.0137687,0.0857488,5,0.1,9,2.6,-1.50634,1.50574,1.26854,0.0125736,-0.0464231,0.161695,-0.0149012,0.256181,-0.191748,0.00922659,0.36043,5,0.1,10,2.6,-0.236,3.64409,0.599627,-0.232977,0.230587,0.000397861,0.452995,-0.0603199,-0.000268221,0.00864709,0.22253,5,0.1,11,2.6,0.00160935,-3.89496,1.28366,-0.0118279,-0.0101149,0.132903,0.17527,0.0152588,-0.201762,0.00461086,0.397437,5,0.1,12,2.6,-0.00944257,1.68636,0.593809,-0.242436,-0.50965,-0.00843704,-0.310754,0.985503,0.0439882,0.00862082,2.95014,5,0.1,13,2.6,5.09142,-4.95347,0.500004,-0.0363111,0.301719,0,-0.116348,-0.356436,-0.000655651,0.00632384,0.230402,5,0.1,14,2.6,-4.4,2.13612,0.5,-0.13237,-0.0361681,0,-0.0503063,0.0407696,0,0.00690884,0.354033,5,0.1,15,2.6,-3.87422,-5.40221,0.740679,0.188875,-0.00804663,0.0141665,-0.231028,0.0882149,-0.017345,0.0286787,3.64089,5,0.1,16,2.6,-1.42861,3.98392,0.654446,0.578901,-0.148571,0.116666,-0.829339,0.151634,-0.0624359,0.0150811,0.501037,5,0.1,17,2.6,-4.97035,-2.11096,0.617432,0.510597,-0.181729,0.0125468,0.766993,-0.0177622,0.0205338,0.0078515,0.919204,5,0.1,18,2.6,1.13642,-3.52314,1.13378,-0.859672,-0.0674009,0.189686,0.127077,0.0443459,-0.124812,0.0152431,0.75605,5,0.1,19,2.6,-3.2,-3.58587,0.530277,0.154018,0.490874,0.0764951,0.466347,0.270844,0.0472963,0.00874265,2.52101,5,0.1
0,2.7,0.0161757,-1.16397,0.54988,-0.0591308,0.324372,0.0104044,0.034943,-0.185855,-0.00613183,0.00890734,0.0291708,5,0.1,1,2.7,0.883208,-2.12146,0.500012,0.114862,-0.84623,-5.53206e-05,-0.520159,0.388563,0.00013411,0.0104783,0.112959,5,0.1,2,2.7,-0.256206,3.01932,0.740713,-0.0345746,0.661265,0.00920324,-0.00990368,0.0165552,-0.00960752,0.00756477,0.388217,5,0.1,3,2.7,4.30013,1.46629,0.600653,-0.00329092,0.0774795,-0.00150176,0.06935,-0.105031,0.00203773,0.0147372,0.321324,5,0.1,4,2.7,-2.35308,-0.459899,0.595143,-0.577142,0.00981437,0.00481214,-0.0647008,-0.0102781,-0.00504404,0.00896753,0.323477,5,0.1,5,2.7,4.80264,-0.631033,1.02552,0.00439212,0.459586,0.0511654,-0.0198185,1.68945,-0.137046,0.0153007,2.77352,5,0.1,6,2.7,1.06888,0.0977742,0.603543,-0.764885,0.1111,-0.00343416,0.317529,0.0597048,0.00292808,0.00745722,0.417055,5,0.1,7,2.7,0.115837,-3.53536,1.25303,-0.331809,-0.0747535,0.112133,0.365967,0.0757724,-0.113636,0.00853139,0.578403,5,0.1,8,2.7,1.69457,-2.40184,0.600351,-0.330896,0.00296794,-0.00123242,-0.0162274,0.0012368,0.0054799,0.0137687,0.0857488,5,0.1,9,2.7,-1.50515,1.50231,1.28374,0.0110529,-0.0231255,0.142128,-0.0154972,0.203773,-0.199385,0.00922659,0.36043,5,0.1,10,2.7,-0.256965,3.66694,0.599665,-0.185877,0.226956,0.000375602,0.479935,-0.0255704,-0.00019744,0.00864709,0.22253,5,0.1,11,2.7,0.00111994,-3.89674,1.29595,0.000201838,-0.032666,0.113039,0.0653316,-0.412449,-0.195324,0.00461086,0.397437,5,0.1,12,2.7,-0.0352638,1.64007,0.593171,-0.273696,-0.422095,-0.00447743,-0.293782,0.646845,0.035122,0.00862082,2.95014,5,0.1,13,2.7,5.0872,-4.92514,0.500002,-0.0480846,0.265519,-3.27826e-05,-0.113547,-0.328749,0.000163913,0.00632384,0.230402,5,0.1,14,2.7,-4.41399,2.1327,0.5,-0.151396,-0.0324883,0,-0.291884,0.0339448,0,0.00690884,0.354033,5,0.1,15,2.7,-3.85651,-5.40268,0.742008,0.165224,0.00227392,0.0123915,-0.241295,0.278056,-0.0181086,0.0286787,3.64089,5,0.1,16,2.7,-1.37519,3.96984,0.665606,0.48687,-0.132788,0.104968,-0.988781,0.164032,-0.156641,0.0150811,0.501037,5,0.1,17,2.7,-4.91544,-2.12923,0.618784,0.586444,-0.18336,0.0144032,0.70554,-0.00692904,0.0158362,0.0078515,0.919204,5,0.1,18,2.7,1.05092,-3.52967,1.15217,-0.851006,-0.0633098,0.17817,0.0874214,0.0396669,-0.111647,0.0152431,0.75605,5,0.1,19,2.7,-3.18108,-3.53546,0.538156,0.233835,0.51627,0.0809126,1.03472,0.211403,0.0369959,0.00874265,2.52101,5,0.1
0,2.8,0.0104486,-1.13253,0.550888,-0.0552661,0.303635,0.00972599,0.0435933,-0.235677,-0.0076592,0.00933245,0.0113222,5,0.1,1,2.8,0.892285,-2.20356,0.500007,0.0686243,-0.790006,-4.17233e-05,-0.403821,0.726342,0.000178814,0.0102869,1.52503,5,0.1,2,2.8,-0.25969,3.08525,0.741587,-0.0348508,0.654238,0.00827163,0.00500679,-0.174642,-0.00926852,0.00929304,0.26093,5,0.1,3,2.8,4.30006,1.4735,0.600513,0.000977516,0.0668019,-0.00129342,0.0200272,-0.108361,0.00205636,0.0165457,0.320088,5,0.1,4,2.8,-2.41086,-0.458968,0.5956,-0.575596,0.00881776,0.00432283,0.111938,-0.00989437,-0.00482798,0.00885828,0.218896,5,0.1,5,2.8,4.80299,-0.576927,1.02999,0.00261068,0.617765,0.0386685,-0.0157356,1.40646,-0.113308,0.0158748,2.43061,5,0.1,6,2.8,0.994128,0.10914,0.603214,-0.728258,0.11566,-0.00313967,0.434667,0.0261441,0.00306964,0.00770872,0.284234,5,0.1,7,2.8,0.0847143,-3.54245,1.26367,-0.288661,-0.0670969,0.100645,0.485271,0.0785589,-0.117838,0.00798465,0.570707,5,0.1,8,2.8,1.66148,-2.40154,0.600252,-0.329718,0.00298023,-0.00076443,0.0528693,-0.000834465,0.0039041,0.0169662,0.155746,5,0.1,9,2.8,-1.50413,1.50089,1.29695,0.00948012,-0.00654459,0.121889,-0.015974,0.124991,-0.204921,0.00996158,0.784417,5,0.1,10,2.8,-0.273171,3.68948,0.599702,-0.138599,0.223213,0.000354648,0.458568,-0.0587702,-0.000208616,0.00775749,0.20541,5,0.1,11,2.8,0.00129229,-3.90241,1.30629,0.00157591,-0.0830472,0.0938892,-0.0344811,-0.553489,-0.187516,0.00571288,0.289343,5,0.1,12,2.8,-0.0639355,1.6,0.592884,-0.297697,-0.389999,-0.00142157,-0.171937,0.0165105,0.0259578,0.00921861,2.79055,5,0.1,13,2.8,5.08187,-4.9,0.5,-0.0580668,0.239599,0,-0.082016,-0.191927,0,0.0088387,0.189492,5,0.1,14,2.8,-4.43073,2.12961,0.5,-0.184023,-0.0292003,0,-0.330925,0.0327826,0,0.00655452,0.298947,5,0.1,15,2.8,-3.8412,-5.4,0.743155,0.140768,0.06181,0.010556,-0.246882,0.895023,-0.0185072,0.0262861,3.18928,5,0.1,16,2.8,-1.33155,3.9574,0.675262,0.385216,-0.115794,0.0878468,-1.02603,0.175476,-0.175536,0.012725,0.426124,5,0.1,17,2.8,-4.85367,-2.14753,0.62029,0.644219,-0.181794,0.0155911,0.41914,0.0436306,0.00742078,0.00910441,0.660708,5,0.1,18,2.8,0.966468,-3.5358,1.16941,-0.835219,-0.059104,0.166327,0.256807,0.0460148,-0.129521,0.0177145,0.529286,5,0.1,19,2.8,-3.15223,-3.48304,0.546388,0.344199,0.528854,0.083217,1.10018,0.023365,0.0063777,0.00921375,1.99541,5,0.1
0,2.9,0.00514103,-1.10335,0.551822,-0.0508517,0.279677,0.00894992,0.0455635,-0.248186,-0.0080131,0.00933245,0.0113222,5,0.1,1,2.9,0.897315,-2.27991,0.500003,0.0339021,-0.744967,-2.6077e-05,-0.288729,0.24569,0.00013411,0.0102869,1.52503,5,0.1,2,2.9,-0.263144,3.14982,0.742371,-0.0341601,0.636655,0.00743885,0.00969693,-0.198737,-0.00765175,0.00929304,0.26093,5,0.1,3,2.9,4.30023,1.47967,0.600394,0.00234172,0.0567786,-0.00109272,0.00753999,-0.0932515,0.00195578,0.0165457,0.320088,5,0.1,4,2.9,-2.46787,-0.458132,0.59601,-0.564064,0.00792891,0.00388892,0.13864,-0.00816211,-0.00398234,0.00885828,0.218896,5,0.1,5,2.9,4.80318,-0.50853,1.03333,0.00119284,0.744899,0.028584,-0.0125468,1.09264,-0.0891313,0.0158748,2.43061,5,0.1,6,2.9,0.92335,0.120847,0.602914,-0.687957,0.118417,-0.00285925,0.395138,0.0229506,0.00262633,0.00770872,0.284234,5,0.1,7,2.9,0.0584303,-3.54879,1.27318,-0.23582,-0.0597604,0.0896404,0.557524,0.069648,-0.10445,0.00798465,0.570707,5,0.1,8,2.9,1.62849,-2.40125,0.600193,-0.332118,0.00283569,-0.00043707,-0.071317,-0.00202656,0.00268593,0.0169662,0.155746,5,0.1,9,2.9,-1.50326,1.50088,1.30813,0.00794195,0.00582058,0.102149,-0.0148118,0.0936463,-0.190079,0.00996158,0.784417,5,0.1,10,2.9,-0.28482,3.71152,0.599736,-0.095357,0.21771,0.000335183,0.40134,-0.0597537,-0.00018999,0.00775749,0.20541,5,0.1,11,2.9,0.00114994,-3.91378,1.31482,-0.00558388,-0.146473,0.0774464,-0.103863,-0.675395,-0.144415,0.00571288,0.289343,5,0.1,12,2.9,-0.0945865,1.55964,0.592861,-0.315062,-0.428897,0.000850018,-0.156877,-0.688426,0.0194199,0.00921861,2.79055,5,0.1,13,2.9,5.07566,-4.87664,0.5,-0.065928,0.230567,0,-0.0708997,-0.0152588,0,0.0088387,0.189492,5,0.1,14,2.9,-4.45097,2.127,0.5,-0.221966,-0.0218078,0,-0.398695,0.106096,0,0.00655452,0.298947,5,0.1,15,2.9,-3.82834,-5.388,0.74412,0.116794,0.188702,0.00875872,-0.232175,1.52829,-0.017412,0.0262861,3.18928,5,0.1,16,2.9,-1.298,3.94668,0.683093,0.287601,-0.0987567,0.068662,-0.920564,0.165641,-0.18375,0.012725,0.426124,5,0.1,17,2.9,-4.78721,-2.16549,0.621883,0.68357,-0.177518,0.0162027,0.332832,0.0483543,0.00420585,0.00910441,0.660708,5,0.1,18,2.9,0.884107,-3.54149,1.18543,-0.812376,-0.054862,0.154386,0.233352,0.0406355,-0.114396,0.0177145,0.529286,5,0.1,19,2.9,-3.11191,-3.43006,0.554738,0.464233,0.530143,0.083656,1.22826,-0.0183582,-0.000875443,0.00921375,1.99541,5,0.1
0,3,0.000292552,-1.07667,0.552676,-0.0460157,0.253257,0.00809878,0.0516652,-0.283003,-0.00905991,0.0112208,0.00589368,5,0.1,1,3,0.899461,-2.35349,0.500001,0.0109926,-0.728387,-1.3411e-05,-0.170171,0.139594,5.96046e-05,0.00910545,2.70315,5,0.1,2,3,-0.266498,3.21231,0.743078,-0.0327677,0.610876,0.00669807,0.0186861,-0.331163,-0.00736117,0.00747003,0.187613,5,0.1,3,3,4.30049,1.4849,0.600295,0.00255108,0.0479519,-0.00090301,-0.0026226,-0.0841618,0.00184774,0.0172357,0.3156,5,0.1,4,3,-2.52341,-0.457379,0.596379,-0.544548,0.0071384,0.00350326,0.264764,-0.00783801,-0.0038445,0.00954259,0.1455,5,0.1,5,3,4.80324,-0.429366,1.03578,0.000107288,0.829958,0.0207007,-0.00929832,0.588789,-0.069201,0.0151085,2.302,5,0.1,6,3,0.856623,0.132758,0.602642,-0.645231,0.119233,-0.00259876,0.475615,-0.0107586,0.00268221,0.0077922,0.191849,5,0.1,7,3,0.0376593,-3.55442,1.28163,-0.179644,-0.052923,0.0793874,0.555126,0.0680685,-0.102162,0.00755319,0.811941,5,0.1,8,3,1.59491,-2.40098,0.600161,-0.338867,0.00258684,-0.000216067,-0.0420809,-0.00298023,0.00169873,0.0123532,0.274565,5,0.1,9,3,-1.50253,1.50171,1.31742,0.00651777,0.00818372,0.0838429,-0.0137687,-0.0578165,-0.176132,0.00890251,2.05045,5,0.1,10,3,-0.292477,3.73294,0.599769,-0.0591114,0.20985,0.000314415,0.320673,-0.103235,-0.000238419,0.0108124,0.193623,5,0.1,11,3,0,-3.93174,1.3219,-0.0179548,-0.211257,0.0644594,-0.135987,-0.59092,-0.117719,0.00639484,0.25115,5,0.1,12,3,-0.126728,1.51286,0.593031,-0.325955,-0.509,0.0024572,-0.0483167,-0.832975,0.0127554,0.00818394,2.5007,5,0.1,13,3,5.06876,-4.85355,0.5,-0.0715137,0.23191,0,-0.0379086,0.0219345,0,0.00667625,0.146842,5,0.1,14,3,-4.47507,2.12541,0.5,-0.258732,-0.00958443,0,-0.315189,0.131607,0,0.0086272,0.2191,5,0.1,15,3,-3.81779,-5.36122,0.744911,0.0944197,0.347316,0.00708252,-0.215054,1.55759,-0.0161529,0.0287211,2.70322,5,0.1,16,3,-1.27363,3.93762,0.689175,0.20206,-0.082612,0.0546351,-0.786304,0.157356,-0.0857711,0.0145197,0.381915,5,0.1,17,3,-4.71756,-2.18295,0.623515,0.704944,-0.171041,0.0163332,0.0712872,0.0852346,-0.00202656,0.00757066,0.45564,5,0.1,18,3,0.80422,-3.54677,1.20029,-0.782944,-0.0506759,0.142586,0.378072,0.0445843,-0.12511,0.0155464,0.362678,5,0.1,19,3,-3.05963,-3.37734,0.563065,0.577408,0.521731,0.0824988,0.982881,-0.163436,-0.0244975,0.0104989,1.50988,5,0.1
0,3.1,-0.00405496,-1.05274,0.553441,-0.04096,0.225518,0.00721132,0.0501096,-0.275351,-0.00880286,0.0112208,0.00589368,5,0.1,1,3.1,0.899639,-2.42627,0.5,-0.00702767,-0.732067,-6.51926e-06,-0.148367,-0.14773,6.70552e-05,0.00910545,2.70315,5,0.1,2,3.1,-0.269525,3.2718,0.743713,-0.0264449,0.579093,0.00603823,0.0986531,-0.32258,-0.00604615,0.00747003,0.187613,5,0.1,3,3.1,4.30081,1.48928,0.600213,0.00435188,0.039698,-0.000727735,0.0279844,-0.0805929,0.00165403,0.0172357,0.3156,5,0.1,4,3.1,-2.57658,-0.456701,0.596712,-0.519008,0.006436,0.00315867,0.262573,-0.00644103,-0.00315905,0.00954259,0.1455,5,0.1,5,3.1,4.80321,-0.344376,1.03754,-0.000719726,0.862114,0.0147851,-0.00715256,0.123305,-0.0499859,0.0151085,2.302,5,0.1,6,3.1,0.794343,0.144594,0.602394,-0.601194,0.117094,-0.00235522,0.424877,-0.0343472,0.0022687,0.0077922,0.191849,5,0.1,7,3.1,0.0224781,-3.55939,1.28908,-0.124367,-0.0466619,0.0699917,0.532601,0.0583977,-0.0876412,0.00755319,0.811941,5,0.1,8,3.1,1.56062,-2.40089,0.600147,-0.348256,-0.00217371,-7.80448e-05,-0.118524,-0.0823289,0.00108033,0.0123532,0.274565,5,0.1,9,3.1,-1.50195,1.5022,1.32497,0.00523254,-0.00174809,0.0673866,-0.0119656,-0.246517,-0.15343,0.00890251,2.05045,5,0.1,10,3.1,-0.29694,3.75341,0.599799,-0.0317176,0.199372,0.000291504,0.227487,-0.111595,-0.000230968,0.0108124,0.193623,5,0.1,11,3.1,-0.00242546,-3.95538,1.32783,-0.0300095,-0.257229,0.0547249,-0.103375,-0.329927,-0.0804514,0.00639484,0.25115,5,0.1,12,3.1,-0.159605,1.45714,0.593334,-0.331532,-0.60976,0.00352971,-0.0462356,-1.09509,0.00862777,0.00818394,2.5007,5,0.1,13,3.1,5.06143,-4.83008,0.5,-0.0749476,0.238626,0,-0.0273287,0.091821,0,0.00667625,0.146842,5,0.1,14,3.1,-4.50257,2.125,0.5,-0.290926,0.000407919,0,-0.30607,0.0714213,0,0.0086272,0.2191,5,0.1,15,3.1,-3.80937,-5.31826,0.745543,0.0745714,0.514022,0.00559203,-0.182658,1.68732,-0.0137091,0.0287211,2.70322,5,0.1,16,3.1,-1.257,3.93011,0.694344,0.133841,-0.0678319,0.0509663,-0.584401,0.138775,0.0437833,0.0145197,0.381915,5,0.1,17,3.1,-4.64674,-2.19965,0.625137,0.710342,-0.162909,0.0160756,0.00849366,0.0827461,-0.00362843,0.00757066,0.45564,5,0.1,18,3.1,0.727697,-3.55163,1.21396,-0.748008,-0.0465829,0.131093,0.347905,0.0387877,-0.109009,0.0155464,0.362678,5,0.1,19,3.1,-2.99693,-3.32597,0.571195,0.675501,0.505523,0.0800496,0.92335,-0.177801,-0.0271797,0.0104989,1.50988,5,0.1
0,3.2,-0.0078988,-1.03158,0.554118,-0.0358905,0.197631,0.00631958,0.051652,-0.284374,-0.00905991,0.0082439,0.00178705,5,0.1,1,3.2,0.898482,-2.50025,0.5,-0.0127405,-0.74659,-1.49012e-06,0.0516474,-0.0947714,2.98023e-05,0.0109305,2.29133,5,0.1,2,3.2,-0.271606,3.32799,0.744288,-0.014668,0.543344,0.00545233,0.12967,-0.404596,-0.00587106,0.0107142,0.126568,5,0.1,3,3.2,4.30136,1.49285,0.600148,0.0064373,0.0318944,-0.000573695,0.00786781,-0.0751615,0.00149012,0.0151247,0.298074,5,0.1,4,3.2,-2.62706,-0.456089,0.597012,-0.489283,0.00581071,0.00285208,0.343323,-0.00622869,-0.00303984,0.009034,0.0960055,5,0.1,5,3.2,4.8031,-0.257868,1.03879,-0.0013113,0.866025,0.0105441,-0.00500679,0,-0.0357032,0.0143417,0.156427,5,0.1,6,3.2,0.736396,0.156077,0.60217,-0.556925,0.112001,-0.00213087,0.474006,-0.068821,0.00223517,0.008072,0.124077,5,0.1,7,3.2,0.012551,-3.56377,1.29565,-0.076003,-0.0410259,0.0615388,0.423712,0.0550747,-0.0827909,0.00829283,0.789987,5,0.1,8,3.2,1.52526,-2.40158,0.600144,-0.357899,-0.0121236,5.96046e-06,-0.0547767,-0.108719,0.000625849,0.0150411,0.0700639,5,0.1,9,3.2,-1.50148,1.5,1.33097,0.00411868,-0.0499398,0.0530779,-0.0104308,-0.699878,-0.133097,0.00898978,3.24984,5,0.1,10,3.2,-0.299124,3.77274,0.599827,-0.0134133,0.18667,0.000266731,0.140324,-0.145674,-0.000268221,0.00864761,0.361289,5,0.1,11,3.2,-0.00587792,-3.98234,1.33293,-0.0383603,-0.277716,0.0477523,-0.0626801,-0.0829697,-0.0616312,0.0120498,3.73428,5,0.1,12,3.2,-0.192872,1.39085,0.593723,-0.332341,-0.712937,0.00417531,0.0417161,-0.904858,0.00429153,0.00992374,2.30342,5,0.1,13,3.2,5.05383,-4.80578,0.5,-0.0764012,0.246727,0,0.000238419,0.0553131,0,0.00627227,0.192928,5,0.1,14,3.2,-4.53302,2.12532,0.5,-0.316119,0.00530481,0,-0.182152,0.0289679,0,0.00661672,0.15972,5,0.1,15,3.2,-3.80278,-5.25881,0.746037,0.0577509,0.669432,0.00433028,-0.154376,1.35636,-0.0115931,0.0238499,2.39846,5,0.1,16,3.2,-1.24625,3.924,0.7,0.083968,-0.0547647,0.0653893,-0.418782,0.123143,0.233322,0.0129693,0.323557,5,0.1,17,3.2,-4.57596,-2.2155,0.62672,0.701952,-0.153595,0.015524,-0.194788,0.10705,-0.007689,0.0100454,0.30589,5,0.1,18,3.2,0.654767,-3.55609,1.22652,-0.708783,-0.042659,0.120065,0.455201,0.0407696,-0.114501,0.0116748,0.245305,5,0.1,19,3.2,-2.92523,-3.27644,0.579042,0.75267,0.483334,0.0766143,0.581384,-0.277281,-0.0433028,0.0101995,1.08616,5,0.1
0,3.3,-0.0112331,-1.01322,0.554705,-0.030827,0.169733,0.00543054,0.0497556,-0.274297,-0.00874698,0.0082439,0.00178705,5,0.1,1,3.3,0.897731,-2.57568,0.5,0.00190064,-0.763546,9.31323e-07,0.294432,-0.193149,1.49012e-05,0.0109305,2.29133,5,0.1,2,3.3,-0.272365,3.38035,0.744811,-0.000100024,0.503922,0.00508772,0.15457,-0.396043,-0.00195578,0.0107142,0.126568,5,0.1,3,3.3,4.3021,1.49568,0.600098,0.00807121,0.0247812,-0.000436231,0.00187755,-0.0669286,0.00125915,0.0151247,0.298074,5,0.1,4,3.3,-2.67435,-0.455537,0.597283,-0.456868,0.00525331,0.00257976,0.31881,-0.0051111,-0.0025034,0.009034,0.0960055,5,0.1,5,3.3,4.80295,-0.171802,1.03969,-0.00173897,0.849922,0.00762101,-0.00351667,-0.322851,-0.0234917,0.0143417,0.156427,5,0.1,6,3.3,0.682936,0.166812,0.601967,-0.513232,0.101621,-0.00192849,0.416324,-0.13352,0.00188127,0.008072,0.124077,5,0.1,7,3.3,0.00694811,-3.56762,1.30142,-0.0379508,-0.0360183,0.054013,0.311619,0.0461638,-0.0693351,0.00829283,0.789987,5,0.1,8,3.3,1.4892,-2.40322,0.600147,-0.362802,-0.0194654,4.26546e-05,-0.0267476,-0.0420213,0.000141561,0.0150411,0.0700639,5,0.1,9,3.3,-1.50112,1.49,1.33565,0.00315774,-0.16203,0.0407951,-0.00881404,-1.42369,-0.112794,0.00898978,3.24984,5,0.1,10,3.3,-0.299821,3.79064,0.599852,-0.00122827,0.171008,0.00023935,0.0988636,-0.168309,-0.000283122,0.00864761,0.361289,5,0.1,11,3.3,-0.010546,-4.00984,1.33739,-0.0593009,-0.266236,0.0413159,-0.321391,0.282988,-0.0665262,0.0120498,3.73428,5,0.1,12,3.3,-0.225857,1.31524,0.594159,-0.326709,-0.796061,0.00451673,0.0803544,-0.714228,0.00241399,0.00992374,2.30342,5,0.1,13,3.3,5.04614,-4.78049,0.5,-0.077714,0.261615,0,-0.0202656,0.209212,0,0.00627227,0.192928,5,0.1,14,3.3,-4.56554,2.12594,0.5,-0.333689,0.00660196,0,-0.151515,-0.000625849,0,0.00661672,0.15972,5,0.1,15,3.3,-3.79772,-5.18578,0.746417,0.0440214,0.783496,0.00329958,-0.121489,0.901133,-0.00911579,0.0238499,2.39846,5,0.1,16,3.3,-1.23971,3.9191,0.708118,0.0488564,-0.0434607,0.100175,-0.288546,0.103533,0.426657,0.0129693,0.323557,5,0.1,17,3.3,-4.50672,-2.23034,0.628235,0.682389,-0.143532,0.0147614,-0.219673,0.0986904,-0.0079833,0.0100454,0.30589,5,0.1,18,3.3,0.58607,-3.56017,1.23799,-0.665567,-0.0389162,0.109562,0.429489,0.0353009,-0.0990406,0.0116748,0.245305,5,0.1,19,3.3,-2.84713,-3.22944,0.586495,0.807745,0.456839,0.072467,0.476435,-0.266835,-0.0418946,0.0101995,1.08616,5,0.1
0,3.4,-0.0140694,-0.997603,0.555205,-0.0259218,0.142682,0.00456721,0.0483846,-0.26685,-0.00852346,0.0102841,0.000824967,5,0.1,1,3.4,0.9,-2.65282,0.5,0.049153,-0.77647,2.98023e-06,0.627458,-0.0290871,-2.98023e-05,0.0102766,1.8491,5,0.1,2,3.4,-0.27161,3.42869,0.745313,0.015004,0.462109,0.00496656,0.142172,-0.447989,-0.000864267,0.00828075,0.152859,5,0.1,3,3.4,4.30277,1.49784,0.60006,0.00361204,0.01854,-0.000320375,-0.0998974,-0.0578165,0.00101328,0.0169877,0.259545,5,0.1,4,3.4,-2.71839,-0.455036,0.597529,-0.423193,0.00475571,0.0023365,0.363946,-0.00496209,-0.00244379,0.00838673,0.142716,5,0.1,5,3.4,4.80276,-0.0889574,1.04035,-0.00201464,0.801701,0.00571012,-0.00143051,-0.638312,-0.0151992,0.0145727,2.42929,5,0.1,6,3.4,0.633708,0.176236,0.601784,-0.470872,0.0862669,-0.00174344,0.442266,-0.169128,0.00184774,0.0072752,0.143822,5,0.1,7,3.4,0.00437502,-3.571,1.30649,-0.0171352,-0.0316143,0.0473946,0.0958475,0.0427961,-0.0641346,0.0078112,1.00218,5,0.1,8,3.4,1.45294,-2.40529,0.600151,-0.36051,-0.0212491,4.32134e-05,0.0834465,0.00286102,-0.000149012,0.0109036,0.139078,5,0.1,9,3.4,-1.50085,1.46629,1.3392,0.00235438,-0.313842,0.0304729,-0.00739098,-1.5223,-0.0939369,0.0132254,2.74816,5,0.1,10,3.4,-0.299546,3.80686,0.599875,0.00572652,0.152922,0.000211596,0.0384003,-0.193357,-0.000327826,0.0101704,1.7614,5,0.1,11,3.4,-0.0182735,-4.03465,1.34119,-0.0964553,-0.22651,0.0345588,-0.394607,0.487089,-0.0680685,0.00882615,3.64178,5,0.1,12,3.4,-0.258,1.23264,0.594619,-0.314729,-0.849408,0.00464022,0.165194,-0.332355,-2.98023e-05,0.00897152,1.88315,5,0.1,13,3.4,5.03828,-4.75325,0.5,-0.0793815,0.282776,0,-0.00858307,0.189304,0,0.00731261,0.12531,5,0.1,14,3.4,-4.59949,2.12657,0.5,-0.34343,0.00561476,0,-0.0314713,-0.0171661,0,0.00851236,0.214013,5,0.1,15,3.4,-3.79387,-5.1038,0.746704,0.0332296,0.847292,0.00248849,-0.0957251,0.374556,-0.00715256,0.0213025,2.28658,5,0.1,16,3.4,-1.23609,3.91524,0.720345,0.0252992,-0.0339508,0.144449,-0.187159,0.087142,0.431865,0.0143653,0.258554,5,0.1,17,3.4,-4.43978,-2.24419,0.629667,0.654173,-0.133115,0.0138566,-0.36025,0.112891,-0.0103414,0.00845114,0.202472,5,0.1,18,3.4,0.521754,-3.56388,1.24845,-0.619476,-0.0353873,0.0996679,0.506059,0.0361204,-0.101388,0.0140667,0.486589,5,0.1,19,3.4,-2.76443,-3.18517,0.593519,0.840646,0.427592,0.0678614,0.152349,-0.327468,-0.0517368,0.00920502,0.750504,5,0.1
0,3.5,-0.0164252,-0.984639,0.55562,-0.0212516,0.116918,0.0037441,0.044944,-0.247981,-0.00791997,0.0102841,0.000824967,5,0.1,1,3.5,0.908776,-2.73075,0.5,0.131884,-0.782467,5.58794e-07,0.960462,-0.0502914,-1.49012e-05,0.0102766,1.8491,5,0.1,2,3.5,-0.269522,3.47268,0.745856,0.0255953,0.417627,0.00629788,0.0725444,-0.44769,0.0241585,0.00828075,0.152859,5,0.1,3,3.5,4.30251,1.49942,0.600033,-0.0108406,0.0132173,-0.000228453,-0.220716,-0.0485778,0.000823289,0.0169877,0.259545,5,0.1,4,3.5,-2.75919,-0.454859,0.597753,-0.395108,-0.00351779,0.00215294,0.222594,-0.143141,-0.00138953,0.00838673,0.142716,5,0.1,5,3.5,4.80255,-0.010606,1.04086,-0.00212044,0.776515,0.0045523,-0.000655651,0.0354344,-0.00850856,0.0145727,2.42929,5,0.1,6,3.5,0.588698,0.183995,0.601618,-0.430314,0.0687654,-0.00157664,0.38268,-0.177681,0.001546,0.0072752,0.143822,5,0.1,7,3.5,0.00289675,-3.57396,1.31093,-0.0163712,-0.0277594,0.0416182,-0.133412,0.0351965,-0.0527501,0.0078112,1.00218,5,0.1,8,3.5,1.4172,-2.40737,0.600154,-0.354907,-0.0199582,2.51457e-05,0.0472367,0.0215322,-0.000201166,0.0109036,0.139078,5,0.1,9,3.5,-1.50065,1.42678,1.3418,0.00168625,-0.47922,0.0219639,-0.00598282,-1.69372,-0.0764728,0.0132254,2.74816,5,0.1,10,3.5,-0.298604,3.8212,0.599894,0.0135694,0.13395,0.00018049,0.0688285,-0.187129,-0.000298023,0.0101704,1.7614,5,0.1,11,3.5,-0.0294492,-4.05462,1.34431,-0.123308,-0.171062,0.0279658,-0.168581,0.600725,-0.0635386,0.00882615,3.64178,5,0.1,12,3.5,-0.28844,1.14668,0.595082,-0.292147,-0.864987,0.00459868,0.280932,-0.0415444,-0.000908971,0.00897152,1.88315,5,0.1,13,3.5,5.0304,-4.72396,0.5,-0.0773847,0.30322,0,0.045836,0.197917,0,0.00731261,0.12531,5,0.1,14,3.5,-4.63426,2.12728,0.5,-0.353611,0.010496,0,-0.140727,0.10033,0,0.00851236,0.214013,5,0.1,15,3.5,-3.79098,-5.01793,0.746921,0.0250421,0.864852,0.00187689,-0.0694096,0.0468791,-0.00518188,0.0213025,2.28658,5,0.1,16,3.5,-1.23436,3.91225,0.73708,0.0105878,-0.0261065,0.190838,-0.111006,0.0703186,0.468783,0.0143653,0.258554,5,0.1,17,3.5,-4.37609,-2.25697,0.631003,0.619625,-0.122619,0.0128697,-0.349969,0.100777,-0.00974908,0.00845114,0.202472,5,0.1,18,3.5,0.462369,-3.56725,1.25793,-0.567694,-0.031874,0.0900166,0.536822,0.0347048,-0.0936612,0.0140667,0.486589,5,0.1,19,3.5,-2.67966,-3.14397,0.600059,0.853498,0.396838,0.0629975,0.0695884,-0.299543,-0.0474304,0.00920502,0.750504,5,0.1
0,3.6,-0.0183319,-0.974152,0.555956,-0.0169479,0.093174,0.00298619,0.0410574,-0.226527,-0.00727177,0.00816779,0.000670285,5,0.1,1,3.6,0.926864,-2.80901,0.5,0.229546,-0.779659,0,0.942558,0.134349,-2.98023e-05,0.0124026,1.41995,5,0.1,2,3.6,-0.266695,3.51216,0.746625,0.0300646,0.371611,0.00921041,0.0194311,-0.47648,0.0314713,0.0112576,0.181451,5,0.1,3,3.6,4.3,1.50051,0.600014,-0.0423312,0.00883043,-0.000154972,-0.395298,-0.0391603,0.000655651,0.0142627,0.198759,5,0.1,4,3.6,-2.79765,-0.456037,0.597962,-0.374377,-0.0207879,0.00203252,0.210166,-0.188768,-0.00116229,0.00825506,0.0872333,5,0.1,5,3.6,4.80234,0.0676644,1.04128,-0.00213385,0.791374,0.00390708,0.000238419,0.186764,-0.00476837,0.0137385,2.31444,5,0.1,6,3.6,0.547574,0.189991,0.601468,-0.391996,0.051301,-0.00142455,0.393271,-0.169106,0.00149012,0.00738941,0.214776,5,0.1,7,3.6,0,-3.57657,1.31484,-0.0471916,-0.02442,0.0366151,-0.46389,0.0323057,-0.048399,0.0104714,1.47123,5,0.1,8,3.6,1.38201,-2.40924,0.600156,-0.347891,-0.0172019,4.47035e-06,0.106096,0.0321865,-0.000178814,0.0136128,0.171212,5,0.1,9,3.6,-1.5005,1.37072,1.34364,0.00115335,-0.636795,0.0151277,-0.00464916,-1.39141,-0.0603199,0.00844952,2.41796,5,0.1,10,3.6,-0.297153,3.83366,0.599911,0.0123456,0.115341,0.000151992,-0.115126,-0.185609,-0.000268221,0.00602411,0.339015,5,0.1,11,3.6,-0.0424188,-4.06868,1.3468,-0.134488,-0.11009,0.0218987,-0.0720525,0.601768,-0.0575781,0.00996897,3.54629,5,0.1,12,3.6,-0.316098,1.0601,0.595535,-0.259624,-0.866026,0.00444055,0.364199,2.98023e-05,-0.00229478,0.00933003,1.46313,5,0.1,13,3.6,5.02296,-4.69278,0.5,-0.0707269,0.318694,0,0.0851154,0.0963211,0,0.00654971,0.0760801,5,0.1,14,3.6,-4.67029,2.12892,0.5,-0.366139,0.0231147,0,-0.087738,0.140905,0,0.0060017,0.122635,5,0.1,15,3.6,-3.78879,-4.93135,0.747085,0.0190914,0.866032,0.001432,-0.0507832,-0.000238419,-0.00378489,0.0263677,2.27185,5,0.1,16,3.6,-1.23376,3.90997,0.758385,0.00236928,-0.0197828,0.233541,-0.0568032,0.0566244,0.365853,0.0123836,0.196922,5,0.1,17,3.6,-4.31599,-2.26872,0.63224,0.580955,-0.112331,0.0118464,-0.436306,0.107646,-0.0109673,0.00931201,0.133417,5,0.1,18,3.6,0.408381,-3.57026,1.26646,-0.510988,-0.0283539,0.0805974,0.601291,0.035882,-0.0960827,0.0128893,0.865808,5,0.1,19,3.6,-2.59433,-3.10582,0.606116,0.848728,0.36568,0.0580579,-0.188231,-0.331759,-0.0526011,0.00862655,0.504867,5,0.1
0,3.7,-0.0198289,-0.965926,0.556219,-0.0130677,0.0717664,0.00229953,0.0364329,-0.200987,-0.00644103,0.00816779,0.000670285,5,0.1,1,3.7,0.954731,-2.88639,0.5,0.328502,-0.768056,-1.39698e-06,0.986051,0.130355,-3.72529e-06,0.0124026,1.41995,5,0.1,2,3.7,-0.263859,3.54698,0.747729,0.0243678,0.324862,0.0130632,-0.118101,-0.461102,0.042621,0.0112576,0.181451,5,0.1,3,3.7,4.29344,1.50122,0.600002,-0.0914149,0.00532251,-9.72301e-05,-0.5503,-0.0310019,0.000506639,0.0142627,0.198759,5,0.1,4,3.7,-2.83416,-0.459075,0.59816,-0.35655,-0.0399264,0.00194078,0.162631,-0.186352,-0.000778586,0.00825506,0.0872333,5,0.1,5,3.7,4.8015,0.148225,1.04165,-0.0198729,0.82296,0.00362396,-0.315458,0.376288,-0.0013411,0.0137385,2.31444,5,0.1,6,3.7,0.510216,0.194308,0.601332,-0.35611,0.0354127,-0.00129016,0.335973,-0.147189,0.00124797,0.00738941,0.214776,5,0.1,7,3.7,-0.00787522,-3.57886,1.31827,-0.116918,-0.0215311,0.0322886,-0.861833,0.0262111,-0.0392646,0.0104714,1.47123,5,0.1,8,3.7,1.34742,-2.41077,0.600155,-0.346308,-0.0133168,-1.76951e-05,-0.0428259,0.0437051,-0.000245869,0.0136128,0.171212,5,0.1,9,3.7,-1.50041,1.30058,1.34488,0.000752136,-0.759931,0.00990853,-0.00341237,-1.03296,-0.0445545,0.00844952,2.41796,5,0.1,10,3.7,-0.296505,3.84504,0.599541,0.000588968,0.118735,-0.0107703,-0.11624,0.205472,-0.193786,0.00602411,0.339015,5,0.1,11,3.7,-0.0558203,-4.07666,1.34871,-0.131282,-0.0496522,0.0165246,0.0672647,0.591695,-0.0498295,0.00996897,3.54629,5,0.1,12,3.7,-0.340092,0.973503,0.595967,-0.219041,-0.865841,0.0042025,0.437414,0.0073649,-0.002563,0.00933003,1.46313,5,0.1,13,3.7,5.01637,-4.66046,0.5,-0.0605501,0.326876,0,0.115007,0.053823,0,0.00654971,0.0760801,5,0.1,14,3.7,-4.70739,2.13173,0.5,-0.375673,0.0311431,0,-0.0827909,0.0276417,0,0.0060017,0.122635,5,0.1,15,3.7,-3.7871,-4.84474,0.747212,0.0149868,0.866023,0.00112606,-0.0326633,2.98023e-05,-0.00243261,0.0263677,2.27185,5,0.1,16,3.7,-1.23373,3.90825,0.783576,-0.00119247,-0.0147842,0.269804,-0.0174195,0.0438392,0.338476,0.0123836,0.196922,5,0.1,17,3.7,-4.25998,-2.27944,0.633373,0.5399,-0.10241,0.0108203,-0.40099,0.0939071,-0.00985712,0.00931201,0.133417,5,0.1,18,3.7,0.360104,-3.57292,1.27406,-0.45604,-0.0248786,0.0715552,0.511384,0.0339001,-0.086315,0.0128893,0.865808,5,0.1,19,3.7,-2.51039,-3.07082,0.611672,0.829447,0.334889,0.0531726,-0.226155,-0.294119,-0.0466928,0.00862655,0.504867,5,0.1
0,3.8,-0.0209619,-0.959708,0.556418,-0.0096797,0.0530824,0.00170022,0.031258,-0.172377,-0.00551343,0.0102165,0.000529757,5,0.1,1,3.8,0.992242,-2.96233,0.5,0.418089,-0.748098,-1.49012e-06,0.769526,0.291109,0,0.0100718,1.04523,5,0.1,2,3.8,-0.262136,3.57717,0.749247,0.00917166,0.278997,0.0172198,-0.173822,-0.457525,0.0383258,0.00918863,0.283668,5,0.1,3,3.8,4.28154,1.50161,0.599994,-0.146103,0.00261962,-5.36442e-05,-0.516653,-0.023067,0.00038743,0.0173181,0.134902,5,0.1,4,3.8,-2.86897,-0.463944,0.59835,-0.339079,-0.0567526,0.00185966,0.198364,-0.144765,-0.000923872,0.00959946,0.0812542,5,0.1,5,3.8,4.79768,0.232259,1.04201,-0.058198,0.855073,0.00356138,-0.420332,0.219061,-0.000238419,0.0128526,1.81451,5,0.1,6,3.8,0.476267,0.19716,0.601209,-0.322838,0.0220977,-0.00116825,0.337541,-0.118226,0.0012219,0.00835617,0.380316,5,0.1,7,3.8,-0.0240661,-3.58089,1.32131,-0.207451,-0.0190496,0.0285685,-0.896564,0.0239611,-0.0359416,0.00781428,1.73977,5,0.1,8,3.8,1.31255,-2.41188,0.600152,-0.350976,-0.0087738,-4.32134e-05,-0.0274181,0.0454187,-0.000208616,0.0108139,0.104578,5,0.1,9,3.8,-1.50035,1.22025,1.34567,0.000461936,-0.838092,0.00611842,-0.00244379,-0.515699,-0.0315905,0.00840371,0.477485,5,0.1,10,3.8,-0.297004,3.85826,0.597341,-0.010255,0.147921,-0.0342742,-0.0979155,0.340939,-0.257373,0.00740342,0.261309,5,0.1,11,3.8,-0.0688002,-4.07878,1.35013,-0.131079,0.00560284,0.0119448,-0.0947416,0.502586,-0.0417829,0.00982325,3.50422,5,0.1,12,3.8,-0.359758,0.887015,0.596374,-0.173963,-0.863078,0.00391304,0.45599,0.0589788,-0.00327826,0.00899519,0.603918,5,0.1,13,3.8,5.01092,-4.62767,0.5,-0.0483632,0.327241,0,0.125885,-0.0557899,0,0.00654362,0.211415,5,0.1,14,3.8,-4.74522,2.13485,0.5,-0.379288,0.0301123,0,0.0240803,-0.0418425,0,0.0106962,0.127303,5,0.1,15,3.8,-3.78575,-4.75814,0.747314,0.0123262,0.866032,0.000928342,-0.0218153,-0.000238419,-0.00163913,0.0213271,2.27186,5,0.1,16,3.8,-1.23389,3.90698,0.812063,-0.00165403,-0.0109315,0.2977,0.00578165,0.0338554,0.20501,0.0125274,0.142212,5,0.1,17,3.8,-4.20804,-2.28922,0.634405,0.498044,-0.093013,0.00982285,-0.447035,0.0962019,-0.0102818,0.00965543,0.151017,5,0.1,18,3.8,0.317,-3.57524,1.28079,-0.406367,-0.0215232,0.0630677,0.491813,0.0332594,-0.0844598,0.0110186,0.739856,5,0.1,19,3.8,-2.42883,-3.03881,0.616755,0.79872,0.305158,0.0484511,-0.407338,-0.307441,-0.0488758,0.0086517,0.334749,5,0.1
0,3.9,-0.0217817,-0.955217,0.556562,-0.00679736,0.0371915,0.00119209,0.0263168,-0.145044,-0.00464171,0.0102165,0.000529757,5,0.1,1,3.9,1.03788,-3.03578,0.5,0.493447,-0.720992,-4.65661e-07,0.698719,0.277683,1.11759e-05,0.0100718,1.04523,5,0.1,2,3.9,-0.262229,3.60323,0.751146,-0.0121032,0.246026,0.0205892,-0.237653,-0.227705,0.0281446,0.00918863,0.283668,5,0.1,3,3.9,4.26432,1.50176,0.59999,-0.197899,0.000624917,-2.08616e-05,-0.495911,-0.0168905,0.000275671,0.0173181,0.134902,5,0.1,4,3.9,-2.90203,-0.470177,0.598532,-0.322917,-0.0663415,0.00179121,0.141785,-0.0500716,-0.000555068,0.00959946,0.0812542,5,0.1,5,3.9,4.78953,0.318437,1.04237,-0.106428,0.865307,0.00362713,-0.514477,0.0260174,0.00121444,0.0128526,1.81451,5,0.1,6,3.9,0.445401,0.198748,0.601098,-0.296663,0.00964024,-0.00107521,0.205724,-0.120568,0.000718981,0.00835617,0.380316,5,0.1,7,3.9,-0.048491,-3.58268,1.32401,-0.27343,-0.0169192,0.025373,-0.439413,0.0192672,-0.0288934,0.00781428,1.73977,5,0.1,8,3.9,1.27722,-2.41252,0.600147,-0.355803,-0.00419058,-6.49132e-05,-0.0485778,0.0450462,-0.000212342,0.0108139,0.104578,5,0.1,9,3.9,-1.50031,1.13482,1.34615,0.000260212,-0.862887,0.00350401,-0.00161678,-0.0463426,-0.0211447,0.00840371,0.477485,5,0.1,10,3.9,-0.298523,3.87502,0.592457,-0.0200639,0.189083,-0.064598,-0.0946037,0.449076,-0.329003,0.00740342,0.261309,5,0.1,11,3.9,-0.082691,-4.07577,1.35113,-0.14912,0.0536658,0.0081487,-0.23845,0.447124,-0.0341386,0.00982325,3.50422,5,0.1,12,3.9,-0.374888,0.80099,0.596749,-0.128934,-0.856668,0.00359546,0.438502,0.102624,-0.00315905,0.00899519,0.603918,5,0.1,13,3.9,5.00671,-4.595,0.5,-0.0358529,0.327771,0,0.1221,0.040561,0,0.00654362,0.211415,5,0.1,14,3.9,-4.783,2.13729,0.5,-0.37559,0.0155367,0,0.0623763,-0.226319,0,0.0106962,0.127303,5,0.1,15,3.9,-3.7846,-4.67154,0.7474,0.0107668,0.866023,0.000811089,-0.0105798,2.98023e-05,-0.000793487,0.0213271,2.27186,5,0.1,16,3.9,-1.234,3.90604,0.842832,-0.00012517,-0.00801124,0.316994,0.0225753,0.0249594,0.164378,0.0125274,0.142212,5,0.1,17,3.9,-4.16012,-2.29811,0.635343,0.46326,-0.0854626,0.00899695,-0.277549,0.0602901,-0.00677258,0.00965543,0.151017,5,0.1,18,3.9,0.278294,-3.57724,1.28671,-0.372152,-0.0185803,0.0555944,0.227061,0.0262856,-0.0671148,0.0110186,0.739856,5,0.1,19,3.9,-2.35092,-3.00974,0.62137,0.759469,0.276881,0.0439542,-0.401571,-0.266567,-0.0423975,0.0086517,0.334749,5,0.1
0,4,-0.0223385,-0.952175,0.55666,-0.00442592,0.024128,0.00077486,0.0210879,-0.11608,-0.00372529,0.010001,0.000326987,5,0.1,1,4,1.09034,-3.10633,0.5,0.551274,-0.688094,0,0.43112,0.398397,0,0.00749134,0.737787,5,0.1,2,4,-0.264638,3.62689,0.753323,-0.0359043,0.228906,0.0227019,-0.227854,-0.134468,0.0135303,0.00694579,0.290717,5,0.1,3,4,4.24224,1.50175,0.59999,-0.241339,-0.00077188,1.49012e-06,-0.355959,-0.0112057,0.000178814,0.0178879,0.112645,5,0.1,4,4,-2.93359,-0.476927,0.598709,-0.307846,-0.0673912,0.00173002,0.171542,0.025928,-0.000715256,0.0090753,0.141676,5,0.1,5,4,4.77636,0.405005,1.04274,-0.155926,0.865481,0.00374317,-0.453234,-0.0108767,0.00089407,0.0122327,1.52679,5,0.1,6,4,0.416679,0.199172,0.600993,-0.278253,-0.00037998,-0.0010103,0.177115,-0.0738576,0.000566244,0.00807971,0.494783,5,0.1,7,4,-0.0773893,-3.58428,1.3264,-0.298504,-0.0150859,0.0226259,-0.0773817,0.0177622,-0.0267029,0.00804897,0.717816,5,0.1,8,4,1.2415,-2.41273,0.600139,-0.357211,2.98023e-05,-8.49366e-05,0.0348091,0.0383854,-0.000149012,0.0107955,0.204517,5,0.1,9,4,-1.5003,1.0488,1.34641,0.00013113,-0.852334,0.00180304,-0.000953674,0.273854,-0.0132322,0.00950582,2.30309,5,0.1,10,4,-0.300972,3.89613,0.58437,-0.0285514,0.231981,-0.0965789,-0.0725836,0.384569,-0.295728,0.00671852,0.219024,5,0.1,11,4,-0.0988455,-4.06834,1.35178,-0.173938,0.0930786,0.0051111,-0.237208,0.333548,-0.0267029,0.009667,3.57836,5,0.1,12,4,-0.38566,0.716131,0.597093,-0.0873193,-0.836986,0.00326782,0.389293,0.313312,-0.00342727,0.00751832,0.0941714,5,0.1,13,4,5.00371,-4.56203,0.5,-0.0243187,0.330901,0,0.106812,0.00333786,0,0.00757271,0.805145,5,0.1,14,4,-4.8201,2.13756,0.5,-0.364757,-0.011003,0,0.162601,-0.28646,0,0.00762663,0.123146,5,0.1,15,4,-3.78357,-4.58494,0.747478,0.0099957,0.866032,0.000752509,-0.00560284,-0.000238419,-0.000417233,0.021165,2.27185,5,0.1,16,4,-1.23388,3.90535,0.875176,0.00246465,-0.0058651,0.327821,0.0275373,0.018239,0.0411272,0.0129497,0.167147,5,0.1,17,4,-4.11509,-2.30638,0.636211,0.43751,-0.0800014,0.00837445,-0.258207,0.0528097,-0.00604987,0.00904423,0.0871646,5,0.1,18,4,0.24201,-3.57897,1.29195,-0.354881,-0.0161409,0.0492841,0.144541,0.022769,-0.0607371,0.0119177,1.20943,5,0.1,19,4,-2.27713,-2.98337,0.625556,0.714421,0.250411,0.0397429,-0.515342,-0.268698,-0.0427067,0.00872514,0.220855,5,0.1
0,4.1,-0.022683,-0.950302,0.55672,-0.00253981,0.0137506,0.000442006,0.0166235,-0.0914112,-0.00293553,0.010001,0.000326987,5,0.1,1,4.1,1.14755,-3.17326,0.5,0.591447,-0.650865,0,0.341699,0.368193,0,0.00749134,0.737787,5,0.1,2,4.1,-0.269174,3.64947,0.755614,-0.0529718,0.225528,0.0226941,-0.117343,0.0392199,-0.0120625,0.00694579,0.290717,5,0.1,3,4.1,4.21629,1.50162,0.599991,-0.27741,-0.0016937,1.55531e-05,-0.341535,-0.00726432,0.000108033,0.0178879,0.112645,5,0.1,4,4.1,-2.96348,-0.483416,0.598878,-0.289424,-0.0613092,0.00164947,0.201643,0.0899583,-0.000920147,0.0090753,0.141676,5,0.1,5,4.1,4.7583,0.491544,1.04312,-0.206368,0.865378,0.00386816,-0.523031,-0.00684157,0.00134856,0.0122327,1.52679,5,0.1,6,4.1,0.389741,0.198773,0.600895,-0.260333,-0.00700394,-0.000951998,0.186866,-0.039109,0.000618398,0.00807971,0.494783,5,0.1,7,4.1,-0.106945,-3.58571,1.32854,-0.286751,-0.0135113,0.0202594,0.275655,0.0142604,-0.0213906,0.00804897,0.717816,5,0.1,8,4.1,1.20579,-2.41255,0.60013,-0.358193,0.00341982,-9.70438e-05,-0.0305623,0.0291765,-8.9407e-05,0.0107955,0.204517,5,0.1,9,4.1,-1.50029,0.964096,1.34653,5.73695e-05,-0.848037,0.00077039,-0.000536442,-0.110067,-0.0077188,0.00950582,2.30309,5,0.1,10,4.1,-0.304184,3.92129,0.573411,-0.0355613,0.271068,-0.120779,-0.0645909,0.373349,-0.186406,0.00671852,0.219024,5,0.1,11,4.1,-0.117014,-4.05744,1.35217,-0.185681,0.123964,0.00274684,-0.0114049,0.274956,-0.0206158,0.009667,3.57836,5,0.1,12,4.1,-0.392511,0.634412,0.597403,-0.0504707,-0.793321,0.00294484,0.343444,0.557829,-0.00309944,0.00751832,0.0941714,5,0.1,13,4.1,5.00178,-4.52869,0.5,-0.0147358,0.337608,0,0.0841618,0.10258,0,0.00757271,0.805145,5,0.1,14,4.1,-4.85581,2.13512,0.5,-0.349621,-0.0366721,0,0.153512,-0.222698,0,0.00762663,0.123146,5,0.1,15,4.1,-3.78258,-4.49833,0.747553,0.00980534,0.866023,0.000738539,0.000730157,2.98023e-05,5.96046e-05,0.021165,2.27185,5,0.1,16,4.1,-1.23346,3.90484,0.908399,0.00622738,-0.00443123,0.338233,0.0444576,0.0109822,0.13769,0.0129497,0.167147,5,0.1,17,4.1,-4.07249,-2.31415,0.637022,0.415585,-0.0755776,0.00785636,-0.199288,0.0392646,-0.00466779,0.00904423,0.0871646,5,0.1,18,4.1,0.207177,-3.58047,1.29659,-0.3421,-0.0138484,0.0435995,0.125131,0.0229776,-0.0539497,0.0119177,1.20943,5,0.1,19,4.1,-2.20815,-2.95959,0.62933,0.665802,0.225878,0.0358427,-0.477061,-0.229076,-0.0364259,0.00872514,0.220855,5,0.1
0,4.2,-0.0228613,-0.949343,0.556751,-0.00109994,0.00583827,0.000189245,0.0121985,-0.066936,-0.00217557,0.00798586,0.000153435,5,0.1,1,4.2,1.20805,-3.2364,0.5,0.614506,-0.610757,0,0.0991821,0.448823,0,0.00727735,0.504626,5,0.1,2,4.2,-0.274902,3.67232,0.757792,-0.060124,0.231892,0.0205934,-0.0293404,0.0673532,-0.0285804,0.00816557,0.483867,5,0.1,3,4.2,4.18703,1.50142,0.599993,-0.305629,-0.00223815,2.23517e-05,-0.205994,-0.00363588,8.9407e-05,0.0179547,0.0559624,5,0.1,4,4.2,-2.99133,-0.489031,0.599038,-0.266784,-0.0504471,0.00153929,0.253916,0.122562,-0.0012517,0.00828238,0.19668,5,0.1,5,4.2,4.73516,0.577926,1.04351,-0.254905,0.860569,0.00396669,-0.424623,-0.109196,0.000417233,0.0126112,1.13956,5,0.1,6,4.2,0.364695,0.198049,0.600803,-0.239973,-0.00554733,-0.000883639,0.22383,0.0752807,0.000804663,0.00815483,0.917857,5,0.1,7,4.2,-0.133906,-3.58699,1.33047,-0.249801,-0.0121474,0.0182152,0.435859,0.0133514,-0.0201464,0.00803924,0.27739,5,0.1,8,4.2,1.16987,-2.41208,0.60012,-0.359231,0.00582933,-0.000104308,0.0268221,0.0189543,0,0.00949301,0.90221,5,0.1,9,4.2,-1.50028,0.878624,1.34657,1.78814e-05,-0.86114,0.000202656,-0.000238419,-0.097692,-0.00375509,0.0100609,2.27334,5,0.1,10,4.2,-0.30803,3.95008,0.560593,-0.0409618,0.302613,-0.133644,-0.0413656,0.240803,-0.0706017,0.00917717,0.219796,5,0.1,11,4.2,-0.13536,-4.04383,1.35235,-0.178739,0.146544,0.000974536,0.138797,0.170946,-0.014782,0.00947134,3.66476,5,0.1,12,4.2,-0.395945,0.558254,0.597682,-0.019335,-0.72611,0.00263453,0.276446,0.781745,-0.00312924,0.00947891,0.303741,5,0.1,13,4.2,5.00068,-4.49444,0.5,-0.00758171,0.346553,0,0.0588894,0.0553131,0,0.00726132,0.739282,5,0.1,14,4.2,-4.88993,2.13048,0.5,-0.331819,-0.0549078,0,0.211477,-0.139475,0,0.00840838,0.200172,5,0.1,15,4.2,-3.7816,-4.41173,0.747627,0.00995994,0.866032,0.000749528,0.00143051,-0.000238419,0.000119209,0.0214122,2.27184,5,0.1,16,4.2,-1.23261,3.90444,0.942872,0.0107855,-0.00357628,0.350289,0.044167,0.00655651,0.082165,0.014245,0.100798,5,0.1,17,4.2,-4.03196,-2.32151,0.637784,0.394416,-0.0715256,0.00738055,-0.237226,0.0442266,-0.005126,0.00801535,0.0670886,5,0.1,18,4.2,0.173655,-3.58174,1.30068,-0.327484,-0.0115573,0.0383288,0.176847,0.0225306,-0.0522137,0.0117186,1.13661,5,0.1,19,4.2,-2.14403,-2.93813,0.632735,0.615644,0.203389,0.032267,-0.539422,-0.225902,-0.0359118,0.0100951,0.145918,5,0.1
0,4.3,-0.0229163,-0.949061,0.55676,-5.72007e-05,0.000121631,3.91155e-06,0.00869506,-0.0476167,-0.00154227,0.00798586,0.000153435,5,0.1,1,4.3,1.26995,-3.29536,0.5,0.622415,-0.569025,0,0.0343248,0.404164,0,0.00727735,0.504626,5,0.1,2,4.3,-0.280921,3.69616,0.759691,-0.0590088,0.247334,0.0172363,0.0461228,0.210181,-0.0373982,0.00816557,0.483867,5,0.1,3,4.3,4.15555,1.50119,0.599995,-0.322488,-0.00247154,2.80328e-05,-0.11915,-0.00111014,3.35276e-05,0.0179547,0.0559624,5,0.1,4,4.3,-3.01677,-0.493441,0.599186,-0.24227,-0.0376327,0.00141729,0.241712,0.130018,-0.0012219,0.00828238,0.19668,5,0.1,5,4.3,4.70751,0.663682,1.04391,-0.297641,0.855807,0.00402182,-0.405043,-0.0325441,0.000476837,0.0126112,1.13956,5,0.1,6,4.3,0.341783,0.197925,0.600719,-0.218483,0.00539743,-0.000806246,0.210878,0.207298,0.000756234,0.00815483,0.917857,5,0.1,7,4.3,-0.156548,-3.58814,1.33219,-0.202262,-0.0109643,0.0164319,0.484476,0.0107288,-0.0161529,0.00803924,0.27739,5,0.1,8,4.3,1.13337,-2.41135,0.60011,-0.376412,0.00904314,-0.000103284,-0.311986,0.0415593,2.6077e-05,0.00949301,0.90221,5,0.1,9,4.3,-1.50028,0.792211,1.34658,4.84288e-06,-0.86572,-2.49594e-05,-4.47035e-05,-0.012219,-0.00101328,0.0100609,2.27334,5,0.1,10,4.3,-0.312313,3.98154,0.547144,-0.0444645,0.326062,-0.132887,-0.0270139,0.208855,0.0765286,0.00917717,0.219796,5,0.1,11,4.3,-0.152113,-4.02837,1.35238,-0.153066,0.161852,-0.000293367,0.334848,0.127494,-0.0106171,0.00947134,3.66476,5,0.1,12,4.3,-0.396569,0.489155,0.597931,0.00604554,-0.659063,0.0023447,0.228105,0.589391,-0.00272691,0.00947891,0.303741,5,0.1,13,4.3,5.0002,-4.4594,0.5,-0.00244975,0.354671,0,0.0430942,0.0848472,0,0.00726132,0.739282,5,0.1,14,4.3,-4.92199,2.12451,0.5,-0.308702,-0.062326,0,0.253707,-0.0170022,0,0.00840838,0.200172,5,0.1,15,4.3,-3.78058,-4.32513,0.747703,0.0103235,0.866023,0.000777841,0.00488758,2.98023e-05,0.000372529,0.0214122,2.27184,5,0.1,16,4.3,-1.23131,3.90411,0.978346,0.0153054,-0.0031136,0.359066,0.0441074,0.00306964,0.0744872,0.014245,0.100798,5,0.1,17,4.3,-3.99354,-2.32847,0.6385,0.375079,-0.0679884,0.00696005,-0.169203,0.0302643,-0.00365451,0.00801535,0.0670886,5,0.1,18,4.3,0.141876,-3.58278,1.30426,-0.307184,-0.00912547,0.0334021,0.231467,0.0254512,-0.0469089,0.0117186,1.13661,5,0.1,19,4.3,-2.08502,-2.91885,0.635794,0.565419,0.182889,0.0290077,-0.481948,-0.190035,-0.0302196,0.0100951,0.145918,5,0.1
0,4.4,-0.022884,-0.949256,0.556754,0.00064848,-0.00373572,-0.00012219,0.00547525,-0.0298917,-0.000923872,0.00829201,5.45508e-05,5,0.1,1,4.4,1.33209,-3.35019,0.5,0.617281,-0.526845,0,-0.153244,0.452161,0,0.0088498,0.338569,5,0.1,2,4.4,-0.286505,3.72197,0.761221,-0.0519142,0.268483,0.0133216,0.0911504,0.189543,-0.0399351,0.00796566,1.14274,5,0.1,3,4.4,4.12292,1.50094,0.599998,-0.327539,-0.00247359,2.98023e-05,0.0257492,0.00089407,-2.98023e-05,0.0173574,0.0834203,5,0.1,4,4.4,-3.03978,-0.496567,0.599321,-0.217557,-0.0250801,0.00128895,0.255942,0.11836,-0.0013411,0.00826881,0.322708,5,0.1,5,4.4,4.67592,0.748915,1.04431,-0.331664,0.846152,0.00402629,-0.258207,-0.193149,-0.000536442,0.0112868,0.816545,5,0.1,6,4.4,0.321,0.2,0.600642,-0.196982,0.040951,-0.000728667,0.222355,0.490472,0.000804663,0.0078972,0.965196,5,0.1,7,4.4,-0.174462,-3.58919,1.33376,-0.157563,-0.00993013,0.0148743,0.393376,0.0103712,-0.015378,0.00827292,0.880801,5,0.1,8,4.4,1.094,-2.41023,0.6001,-0.411394,0.0134706,-9.98378e-05,-0.34368,0.0441074,2.98023e-05,0.00918548,1.31282,5,0.1,9,4.4,-1.50028,0.705615,1.34658,5.96046e-06,-0.866026,-3.8743e-05,5.96046e-05,0,0.000536442,0.00887455,0.758937,5,0.1,10,4.4,-0.31686,4.01501,0.534417,-0.0460945,0.341141,-0.120057,-0.00455976,0.0796318,0.172049,0.00926173,0.241554,5,0.1,11,4.4,-0.165682,-4.01167,1.35231,-0.118382,0.170767,-0.00115335,0.332527,0.0457764,-0.00673532,0.0113395,3.66171,5,0.1,12,4.4,-0.394925,0.42608,0.598152,0.0257947,-0.603012,0.00207871,0.16503,0.553622,-0.00265241,0.00687912,0.586218,5,0.1,13,4.4,5.00014,-4.42361,0.5,0.000953674,0.35975,0,0.0243187,0.00119209,0,0.00706235,0.679442,5,0.1,14,4.4,-4.95151,2.11834,0.5,-0.280666,-0.0597954,0,0.308514,0.0610352,0,0.00640505,0.363308,5,0.1,15,4.4,-3.77953,-4.23853,0.747783,0.0107765,0.866032,0.000810623,0.00321865,-0.000238419,0.000298023,0.0209723,2.27183,5,0.1,16,4.4,-1.22957,3.90381,1.01449,0.0192434,-0.00290275,0.362009,0.0331402,0.00166893,-0.0284314,0.0126248,0.0998861,5,0.1,17,4.4,-3.95689,-2.33512,0.639177,0.357217,-0.064832,0.00658631,-0.201702,0.0354052,-0.00405312,0.00986994,0.0302007,5,0.1,18,4.4,0.112419,-3.58356,1.30738,-0.280885,-0.00657439,0.0288486,0.295263,0.025034,-0.0446439,0.0106388,1.08375,5,0.1,19,4.4,-2.03091,-2.90149,0.638546,0.516409,0.164366,0.0260621,-0.509799,-0.184894,-0.0293553,0.00871857,0.096896,5,0.1
0,4.5,-0.0227959,-0.949756,0.556738,0.00107322,-0.00604801,-0.000193529,0.0030857,-0.0167191,-0.00051409,0.00829201,5.45508e-05,5,0.1,1,4.5,1.39306,-3.40074,0.5,0.601572,-0.485072,0,-0.181191,0.398636,0,0.0088498,0.338569,5,0.1,2,4.5,-0.291184,3.74993,0.762253,-0.0412226,0.291628,0.00648461,0.117594,0.246614,-0.0897646,0.00796566,1.14274,5,0.1,3,4.5,4.0902,1.5007,0.600001,-0.327472,-0.00227708,2.59839e-05,-0.00563264,0.00286847,-4.84288e-05,0.0173574,0.0834203,5,0.1,4,4.5,-3.06026,-0.498523,0.599443,-0.19196,-0.0144647,0.00115205,0.256956,0.0929795,-0.00140071,0.00826881,0.322708,5,0.1,5,4.5,4.64149,0.832714,1.04471,-0.35629,0.830347,0.00398029,-0.214636,-0.160243,-0.000558794,0.0112868,0.816545,5,0.1,6,4.5,0.302298,0.206737,0.600527,-0.177987,0.0950345,-0.00196435,0.165896,0.566179,-0.0225902,0.0078972,0.965196,5,0.1,7,4.5,-0.18831,-3.59013,1.33518,-0.122207,-0.00901073,0.0135113,0.233624,0.00834465,-0.0124127,0.00827292,0.880801,5,0.1,8,4.5,1.05055,-2.40871,0.60009,-0.462079,0.016414,-9.62988e-05,-0.605322,0.0163764,4.47035e-05,0.00918548,1.31282,5,0.1,9,4.5,-1.50028,0.619031,1.34658,1.84402e-05,-0.86514,0.000106357,0.000171363,0.0325553,0.00213832,0.00887455,0.758937,5,0.1,10,4.5,-0.321478,4.04955,0.523383,-0.0460983,0.349532,-0.0996981,0.00558421,0.0700951,0.227287,0.00926173,0.241554,5,0.1,11,4.5,-0.175715,-3.99439,1.35216,-0.0825997,0.174433,-0.00169799,0.316579,0.0208765,-0.00417233,0.0113395,3.66171,5,0.1,12,4.5,-0.391892,0.36796,0.598347,0.0315729,-0.564123,0.00183629,-0.0320375,0.268375,-0.0022538,0.00687912,0.586218,5,0.1,13,4.5,5.0004,-4.38758,0.5,0.00463054,0.360954,0,0.0397861,0.00524521,0,0.00706235,0.679442,5,0.1,14,4.5,-4.978,2.11283,0.5,-0.248822,-0.0492692,0,0.328034,0.134766,0,0.00640505,0.363308,5,0.1,15,4.5,-3.77843,-4.15192,0.747866,0.0112444,0.866023,0.000850018,0.00524521,2.98023e-05,0.000428408,0.0209723,2.27183,5,0.1,16,4.5,-1.22749,3.90351,1.05051,0.0223,-0.00343435,0.357899,0.0266582,-0.0105351,-0.0654459,0.0126248,0.0998861,5,0.1,17,4.5,-3.92216,-2.34143,0.639816,0.337566,-0.061414,0.00619758,-0.201657,0.0349432,-0.00391901,0.00986994,0.0302007,5,0.1,18,4.5,0.0858169,-3.58408,1.31005,-0.251011,-0.00380985,0.0247076,0.303787,0.0291616,-0.0386685,0.0106388,1.08375,5,0.1,19,4.5,-1.98167,-2.88591,0.641016,0.469407,0.147672,0.023411,-0.444457,-0.153944,-0.0244528,0.00871857,0.096896,5,0.1
0,4.6,-0.0226767,-0.950426,0.556716,0.00127899,-0.00715405,-0.000226498,0.0010971,-0.00578165,-0.000178814,0.0108433,1.64289e-05,5,0.1,1,4.6,1.45213,-3.44724,0.5,0.577679,-0.444525,0,-0.310063,0.422716,0,0.00764802,0.225265,5,0.1,2,4.6,-0.294709,3.78024,0.762418,-0.0292808,0.313205,-0.00338107,0.117451,0.165939,-0.102133,0.00730338,1.2065,5,0.1,3,4.6,4.0575,1.50049,0.600003,-0.325489,-0.00193119,2.08616e-05,0.0588894,0.00399351,-5.96046e-05,0.0197189,0.153909,5,0.1,4,4.6,-3.07816,-0.499552,0.599551,-0.166035,-0.00660643,0.00100732,0.261903,0.0639707,-0.00146031,0.00824325,0.301088,5,0.1,5,4.6,4.60499,0.914752,1.04511,-0.371301,0.807804,0.0038892,-0.0722408,-0.316322,-0.00149012,0.0113943,0.682814,5,0.1,6,4.6,0.285292,0.219024,0.600199,-0.162356,0.149752,-0.00472516,0.152841,0.508837,-0.0303686,0.00789964,0.872936,5,0.1,7,4.6,-0.2,-3.59099,1.33647,-0.117955,-0.00819564,0.0123024,-0.139631,0.00810623,-0.0120997,0.00833894,1.3316,5,0.1,8,4.6,1.00132,-2.40702,0.60008,-0.521211,0.017035,-8.9407e-05,-0.529677,-0.0026226,2.98023e-05,0.0094632,1.03791,5,0.1,9,4.6,-1.50028,0.532908,1.3466,3.8743e-05,-0.854149,0.000354648,0.000238419,0.226156,0.0025034,0.00792615,0.224781,5,0.1,10,4.6,-0.326036,4.08472,0.514588,-0.0448026,0.352108,-0.0759989,0.020951,-0.030756,0.240475,0.00802907,0.268241,5,0.1,11,4.6,-0.182818,-3.97693,1.35198,-0.064531,0.173843,-0.00199676,0.0166744,-0.0368357,-0.00172853,0.0106982,0.861683,5,0.1,12,4.6,-0.389102,0.312717,0.59852,0.0225328,-0.541618,0.00161976,-0.134721,0.214666,-0.00211596,0.00713136,2.21782,5,0.1,13,4.6,5.00103,-4.35157,0.5,0.00743866,0.357819,0,0.0104904,-0.0801086,0,0.00639424,0.618401,5,0.1,14,4.6,-5.00121,2.1086,0.5,-0.215161,-0.0353038,0,0.344515,0.134706,0,0.00708294,1.06798,5,0.1,15,4.6,-3.77728,-4.06532,0.747952,0.0116765,0.866032,0.000885129,0.00274181,-0.000119209,0.000208616,0.0208975,2.27182,5,0.1,16,4.6,-1.22514,3.9031,1.08584,0.0243574,-0.00470281,0.346997,0.0136495,-0.0132322,-0.160098,0.0122194,0.104586,5,0.1,17,4.6,-3.88948,-2.34738,0.640415,0.315177,-0.0575125,0.00576973,-0.252724,0.0442266,-0.00473857,0.00933547,0.0115977,5,0.1,18,4.6,0.0622583,-3.58432,1.31233,-0.219907,-0.000935793,0.0210255,0.318926,0.0272989,-0.0352263,0.0106081,3.05937,5,0.1,19,4.6,-1.93694,-2.8719,0.643238,0.425106,0.132722,0.0210375,-0.451446,-0.148535,-0.0236034,0.0110233,0.111771,5,0.1
0,4.7,-0.0225457,-0.951156,0.556693,0.00131651,-0.00733528,-0.000231899,-0.00027474,0.00175834,5.96046e-05,0.0108433,1.64289e-05,5,0.1,1,4.7,1.5084,-3.48971,0.5,0.547794,-0.405712,0,-0.304528,0.36636,0,0.00764802,0.225265,5,0.1,2,4.7,-0.296987,3.81245,0.761574,-0.0159884,0.330994,-0.0133748,0.135461,0.168622,-0.09479,0.00730338,1.2065,5,0.1,3,4.7,4.02496,1.50032,0.600005,-0.327446,-0.00151228,1.49943e-05,-0.0685006,0.00428408,-5.58794e-05,0.0197189,0.153909,5,0.1,4,4.7,-3.09347,-0.499878,0.599645,-0.140487,4.57279e-05,0.000862963,0.249028,0.0622496,-0.00143051,0.00824325,0.301088,5,0.1,5,4.7,4.56736,0.994073,1.04549,-0.38197,0.779054,0.00375081,-0.115424,-0.288993,-0.00142306,0.0113943,0.682814,5,0.1,6,4.7,0.269742,0.236053,0.599557,-0.149244,0.186754,-0.0082247,0.116149,0.263643,-0.0374168,0.00789964,0.872936,5,0.1,7,4.7,-0.213575,-3.59177,1.33764,-0.162394,-0.00747479,0.0112263,-0.671949,0.00657141,-0.00984222,0.00833894,1.3316,5,0.1,8,4.7,0.946342,-2.40539,0.600072,-0.579054,0.0150707,-8.57748e-05,-0.577264,-0.0309497,4.84288e-05,0.0094632,1.03791,5,0.1,9,4.7,-1.50027,0.448847,1.34665,6.44475e-05,-0.824499,0.000636838,0.00025332,0.379983,0.00297278,0.00792615,0.224781,5,0.1,10,4.7,-0.330418,4.11986,0.508171,-0.0428651,0.351045,-0.0526519,0.0193808,-0.0090301,0.221938,0.00802907,0.268241,5,0.1,11,4.7,-0.189806,-3.95988,1.35177,-0.081083,0.165786,-0.00210591,-0.333129,-0.120744,-0.000447035,0.0106982,0.861683,5,0.1,12,4.7,-0.387502,0.258672,0.598629,0.00954224,-0.546907,0.000218116,-0.129092,-0.245035,-0.0232756,0.00713136,2.21782,5,0.1,13,4.7,5.00186,-4.31615,0.500205,0.00889748,0.350586,0.00581173,-0.00208616,-0.0788569,0.103321,0.00639424,0.618401,5,0.1,14,4.7,-5.02104,2.10589,0.5,-0.18182,-0.0186518,0,0.322729,0.157118,0,0.00708294,1.06798,5,0.1,15,4.7,-3.77609,-3.97872,0.748042,0.0120606,0.866026,0.000913627,0.00412762,-1.49012e-05,0.000305474,0.0208975,2.27182,5,0.1,16,4.7,-1.22264,3.90257,1.11978,0.0256523,-0.00588596,0.33204,0.0108629,-0.00950694,-0.151575,0.0122194,0.104586,5,0.1,17,4.7,-3.85923,-2.35291,0.640969,0.289521,-0.0530161,0.00529243,-0.265077,0.0466108,-0.00489876,0.00933547,0.0115977,5,0.1,18,4.7,0.0415848,-3.58425,1.31426,-0.195911,0.00260994,0.0176147,0.177545,0.0409484,-0.0329912,0.0106081,3.05937,5,0.1,19,4.7,-1.89635,-2.85925,0.645242,0.389443,0.121233,0.0192105,-0.286497,-0.0896007,-0.0142641,0.0110233,0.111771,5,0.1
0,4.8,-0.0224172,-0.951871,0.556671,0.00123763,-0.00687838,-0.000216067,-0.00123866,0.00706315,0.000178814,0.0109117,7.99019e-06,5,0.1,1,4.8,1.56155,-3.52846,0.5,0.513959,-0.369072,0,-0.383437,0.375271,0,0.00701431,0.149878,5,0.1,2,4.8,-0.297962,3.84625,0.759795,-0.00426099,0.343329,-0.0218406,0.0912994,0.0634193,-0.0724494,0.00741467,1.09649,5,0.1,3,4.8,3.99186,1.50019,0.600006,-0.334078,-0.00109076,8.9407e-06,-0.0425577,0.00405312,-2.98023e-05,0.0145601,0.0936476,5,0.1,4,4.8,-3.1063,-0.499609,0.599724,-0.116241,0.00477955,0.000722706,0.235796,0.0286102,-0.00143051,0.0106168,3.72651,5,0.1,5,4.8,4.52869,1.07038,1.04586,-0.390005,0.744903,0.00358224,-0.0274181,-0.414729,-0.00208616,0.0105986,0.480751,5,0.1,6,4.8,0.255383,0.25584,0.598551,-0.137962,0.207395,-0.0118241,0.114344,0.165895,-0.0329912,0.00758506,0.764849,5,0.1,7,4.8,-0.233529,-3.59249,1.33872,-0.238703,-0.00682473,0.010258,-0.795014,0.0064373,-0.00971556,0.00827417,0.257995,5,0.1,8,4.8,0.885807,-2.40405,0.600063,-0.628141,0.0117898,-8.04663e-05,-0.369191,-0.0309944,8.9407e-05,0.0100983,0.78762,5,0.1,9,4.8,-1.50026,0.368636,1.34673,8.64267e-05,-0.776144,0.000920892,0.000238419,0.594035,0.002563,0.00949392,2.4548,5,0.1,10,4.8,-0.3346,4.15483,0.503955,-0.0406601,0.347161,-0.032346,0.025779,-0.0815392,0.181317,0.00941022,3.30732,5,0.1,11,4.8,-0.2,-3.94401,1.35156,-0.126181,0.1504,-0.00208914,-0.533655,-0.183582,0.00077486,0.0116342,1.60511,5,0.1,12,4.8,-0.387207,0.202507,0.598518,-0.00382289,-0.577413,-0.00256449,-0.139564,-0.308357,-0.0303388,0.010199,1.86937,5,0.1,13,4.8,5.00259,-4.28158,0.501385,0.00414848,0.339663,0.0183672,-0.100851,-0.149488,0.137776,0.00661502,0.545779,5,0.1,14,4.8,-5.03765,2.10459,0.5,-0.150549,-0.00985861,0,0.302792,0,0,0.00668131,0.994881,5,0.1,15,4.8,-3.77487,-3.89212,0.748135,0.012362,0.866026,0.000935793,0.00119209,0,8.9407e-05,0.0227524,2.27182,5,0.1,16,4.8,-1.22004,3.90194,1.15216,0.0262976,-0.00647306,0.314599,0.00119209,-0.00166893,-0.205696,0.0113758,0.191431,5,0.1,17,4.8,-3.83165,-2.35797,0.641473,0.261432,-0.0480473,0.00477582,-0.299454,0.0532866,-0.00548363,0.00883795,0.00599278,5,0.1,18,4.8,0.0227598,-3.58378,1.31586,-0.181481,0.00678897,0.0144273,0.123664,0.0406504,-0.0306964,0.0119022,2.33641,5,0.1,19,4.8,-1.85873,-2.84753,0.647099,0.363514,0.113338,0.0179559,-0.250399,-0.0743866,-0.0118911,0.00967804,0.064839,5,0.1
0,4.9,-0.0223008,-0.952518,0.55665,0.00108125,-0.00599483,-0.000191573,-0.00182621,0.0102557,0.000294298,0.0109117,7.99019e-06,5,0.1,1,4.9,1.61112,-3.5636,0.5,0.477798,-0.334809,0,-0.353977,0.320718,0,0.00701431,0.149878,5,0.1,2,4.9,-0.297927,3.88093,0.75726,0.00437954,0.349896,-0.0286683,0.0573955,0.0508875,-0.0617765,0.00741467,1.09649,5,0.1,3,4.9,3.95817,1.5001,0.600007,-0.339892,-0.000715069,5.96046e-06,-0.0545681,0.00343472,-2.98023e-05,0.0145601,0.0936476,5,0.1,4,4.9,-3.11773,-0.498671,0.599789,-0.120641,0.0152824,0.000586454,-0.264302,0.110453,-0.00129268,0.0106168,3.72651,5,0.1,5,4.9,4.48967,1.14292,1.0462,-0.388937,0.706507,0.00338797,0.0576675,-0.378124,-0.0019148,0.0105986,0.480751,5,0.1,6,4.9,0.242104,0.277188,0.5972,-0.128032,0.21911,-0.0151768,0.089745,0.132186,-0.0323802,0.00758506,0.764849,5,0.1,7,4.9,-0.26114,-3.59314,1.3397,-0.310666,-0.00624917,0.00939053,-0.625294,0.00528991,-0.00799447,0.00827417,0.257995,5,0.1,8,4.9,0.821103,-2.40305,0.600056,-0.665379,0.00821576,-7.18981e-05,-0.336442,-0.0305176,8.19564e-05,0.0100983,0.78762,5,0.1,9,4.9,-1.50026,0.292613,1.34683,0.000105798,-0.75553,0.0011377,0.000149012,-0.0819294,0.00174344,0.00949392,2.4548,5,0.1,10,4.9,-0.340478,4.18934,0.501657,-0.093157,0.344241,-0.0134593,-0.952443,-0.000506639,0.190265,0.00941022,3.30732,5,0.1,11,4.9,-0.216156,-3.92993,1.35136,-0.203705,0.130848,-0.00198483,-0.941115,-0.205249,0.0013113,0.0116342,1.60511,5,0.1,12,4.9,-0.38815,0.142817,0.598094,-0.0143445,-0.618976,-0.0060034,-0.0971146,-0.464761,-0.036452,0.010199,1.86937,5,0.1,13,4.9,5.0024,-4.24832,0.503987,-0.0100508,0.325685,0.0341712,-0.215352,-0.14177,0.168584,0.00661502,0.545779,5,0.1,14,4.9,-5.05125,2.10338,0.5,-0.122173,-0.0179309,0,0.265539,-0.21024,0,0.00668131,0.994881,5,0.1,15,4.9,-3.77363,-3.80551,0.748229,0.0125833,0.866026,0.000951905,0.00244379,0,0.000175089,0.0227524,2.27182,5,0.1,16,4.9,-1.21741,3.90131,1.18253,0.02602,-0.00598133,0.292214,-0.00700355,0.0102222,-0.24467,0.0113758,0.191431,5,0.1,17,4.9,-3.80698,-2.36251,0.641923,0.232113,-0.0428233,0.00424059,-0.290468,0.0518709,-0.00528619,0.00883795,0.00599278,5,0.1,18,4.9,0.00463688,-3.5829,1.31717,-0.185861,0.0105683,0.0119835,-0.17037,0.0339597,-0.0191927,0.0119022,2.33641,5,0.1,19,4.9,-1.82348,-2.83652,0.648843,0.34248,0.1073,0.0169904,-0.186607,-0.0519156,-0.00829622,0.00967804,0.064839,5,0.1
0,5,-0.0222024,-0.953063,0.556633,0.000883732,-0.00488907,-0.000157952,-0.00207126,0.0115633,0.000357628,0.0108766,7.33088e-06,5,0.1,1,5,1.65708,-3.5955,0.5,0.440782,-0.303102,0,-0.395954,0.32115,0,0.00777646,0.167393,5,0.1,2,5,-0.2974,3.91604,0.754118,0.00390187,0.350648,-0.0338063,-0.0760108,-0.0476837,-0.0394881,0.006692,0.96519,5,0.1,3,5,3.92402,1.50004,0.600007,-0.341755,-0.000408292,2.98023e-06,0.0305176,0.00268221,-5.96046e-05,0.0154162,0.0730464,5,0.1,4,5,-3.13154,-0.496887,0.599842,-0.158525,0.0165015,0.000463426,-0.447154,-0.118777,-0.00113249,0.0114401,3.43306,5,0.1,5,5,4.45127,1.21157,1.04653,-0.377071,0.665087,0.00317991,0.184774,-0.4673,-0.00238419,0.00974935,0.371776,5,0.1,6,5,0.229745,0.3,0.595533,-0.119075,0.239553,-0.0180125,0.0933185,0.270069,-0.023216,0.00771651,0.639307,5,0.1,7,5,-0.294926,-3.59374,1.3406,-0.360677,-0.00572801,0.00860095,-0.363022,0.00548363,-0.00810623,0.0081667,0.905029,5,0.1,8,5,0.753199,-2.40232,0.600049,-0.688834,0.00709891,-6.4075e-05,-0.105858,0.0121593,8.9407e-05,0.00937041,0.576109,5,0.1,9,5,-1.50024,0.21621,1.34695,0.000116229,-0.774996,0.00126362,5.96046e-05,-0.231869,0.00077486,0.0101609,2.34656,5,0.1,10,5,-0.355332,4.22373,0.501236,-0.209245,0.342989,0.00463873,-1.27359,-0.0414848,0.167191,0.0124919,2.8098,5,0.1,11,5,-0.241391,-3.91789,1.35116,-0.301103,0.109774,-0.00182688,-0.949562,-0.214338,0.00184774,0.0106747,3.0209,5,0.1,12,5,-0.390156,0.0787289,0.597315,-0.0269577,-0.660351,-0.00950992,-0.166014,-0.320758,-0.0321865,0.00819854,1.52877,5,0.1,13,5,5,-4.21652,0.508232,-0.0408649,0.309348,0.0503942,-0.388384,-0.192881,0.148743,0.00770523,0.456499,5,0.1,14,5,-5.0622,2.1,0.5,-0.0972867,-0.0548303,0,0.232697,-0.508189,0,0.00704981,0.888466,5,0.1,15,5,-3.77236,-3.71891,0.748325,0.0127196,0.866026,0.000961125,-0.000357628,0,-2.98023e-05,0.0210356,2.27182,5,0.1,16,5,-1.21486,3.90078,1.21045,0.0248581,-0.00465512,0.265282,-0.0163317,0.015378,-0.294983,0.0128121,0.27546,5,0.1,17,5,-3.78523,-2.36653,0.642321,0.202787,-0.0375628,0.00370741,-0.297904,0.0536442,-0.00542402,0.0121277,0.00183277,5,0.1,18,5,-0.0150093,-3.5817,1.31829,-0.208339,0.013423,0.01041,-0.247911,0.0225306,-0.013113,0.0100645,1.35539,5,0.1,19,5,-1.79017,-2.82605,0.650501,0.3234,0.102001,0.0161454,-0.206649,-0.0579357,-0.00923872,0.00950785,0.0507746,5,0.1
