id,t,px,py,pz,vx,vy,vz,ax,ay,az,planning_time,qp_cost,planning_report,size,id,t,px,py,pz,vx,vy,vz,ax,ay,az,planning_time,qp_cost,planning_report,size,id,t,px,py,pz,vx,vy,vz,ax,ay,az,planning_time,qp_cost,planning_report,size,id,t,px,py,pz,vx,vy,vz,ax,ay,az,planning_time,qp_cost,planning_report,size,id,t,px,py,pz,vx,vy,vz,ax,ay,az,planning_time,qp_cost,planning_report,size,id,t,px,py,pz,vx,vy,vz,ax,ay,az,planning_time,qp_cost,planning_report,size,id,t,px,py,pz,vx,vy,vz,ax,ay,az,planning_time,qp_cost,planning_report,size,id,t,px,py,pz,vx,vy,vz,ax,ay,az,planning_time,qp_cost,planning_report,size,id,t,px,py,pz,vx,vy,vz,ax,ay,az,planning_time,qp_cost,planning_report,size,id,t,px,py,pz,vx,vy,vz,ax,ay,az,planning_time,qp_cost,planning_report,size,id,t,px,py,pz,vx,vy,vz,ax,ay,az,planning_time,qp_cost,planning_report,size,id,t,px,py,pz,vx,vy,vz,ax,ay,az,planning_time,qp_cost,planning_report,size,id,t,px,py,pz,vx,vy,vz,ax,ay,az,planning_time,qp_cost,planning_report,size,id,t,px,py,pz,vx,vy,vz,ax,ay,az,planning_time,qp_cost,planning_report,size,id,t,px,py,pz,vx,vy,vz,ax,ay,az,planning_time,qp_cost,planning_report,size,id,t,px,py,pz,vx,vy,vz,ax,ay,az,planning_time,qp_cost,planning_report,size,id,t,px,py,pz,vx,vy,vz,ax,ay,az,planning_time,qp_cost,planning_report,size,id,t,px,py,pz,vx,vy,vz,ax,ay,az,planning_time,qp_cost,planning_report,size,id,t,px,py,pz,vx,vy,vz,ax,ay,az,planning_time,qp_cost,planning_report,size,id,t,px,py,pz,vx,vy,vz,ax,ay,az,planning_time,qp_cost,planning_report,size
0,0,1.27054,1.7792,0.661564,0,0,0,0,0,0,0.0254747,0.675877,5,0.1,1,0,-0.326064,-0.0465231,0.510203,0,0,0,0,0,0,0.01011,2.10384,5,0.1,2,0,-1.20153,-1.07215,0.59672,0,0,0,0,0,0,0.0114381,2.40959,5,0.1,3,0,-1.11706,2.24629,0.64828,0,0,0,0,0,0,0.0083237,3.5122,5,0.1,4,0,2.10468,-3.68306,0.672204,0,0,0,0,0,0,0.0113259,3.5122,5,0.1,5,0,-2.99305,-3.15938,0.574282,0,0,0,0,0,0,0.00937693,0.516263,5,0.1,6,0,-1.38605,-0.151489,0.511437,0,0,0,0,0,0,0.0140293,3.5122,5,0.1,7,0,1.14514,5.46157,0.542249,0,0,0,0,0,0,0.0227595,1.66044,5,0.1,8,0,1.63853,5.10768,0.633255,0,0,0,0,0,0,0.0232955,1.1746,5,0.1,9,0,-3.63152,-3.95847,0.541662,0,0,0,0,0,0,0.0251965,1.37283,5,0.1,10,0,1.6792,-3.02488,0.515982,0,0,0,0,0,0,0.0138151,3.51219,5,0.1,11,0,-4.20305,-2.84394,0.573055,0,0,0,0,0,0,0.0101215,0.616366,5,0.1,12,0,1.95112,5.67065,0.557626,0,0,0,0,0,0,0.00803762,1.5533,5,0.1,13,0,-3.05727,4.36697,0.654184,0,0,0,0,0,0,0.0344647,3.5122,5,0.1,14,0,-3.48453,-5.36275,0.673656,0,0,0,0,0,0,0.0207515,3.5122,5,0.1,15,0,-1.85609,5.41105,0.639294,0,0,0,0,0,0,0.0238147,3.51219,5,0.1,16,0,0.543639,-0.0486503,0.613028,0,0,0,0,0,0,0.00934841,1.19604,5,0.1,17,0,1.93012,2.86445,0.5413,0,0,0,0,0,0,0.0116106,3.5122,5,0.1,18,0,-1.62279,-5.83324,0.698476,0,0,0,0,0,0,0.00761959,3.5122,5,0.1,19,0,-0.159663,-1.22175,0.688173,0,0,0,0,0,0,0.0100291,2.20828,5,0.1
0,0.1,1.2714,1.77891,0.6615,0.02458,-0.00827387,-0.00182446,0.436984,-0.147089,-0.0324324,0.0254747,0.675877,5,0.1,1,0.1,-0.326037,-0.0449087,0.51014,0.000772346,0.0458299,-0.00178386,0.0137314,0.814754,-0.0317171,0.01011,2.10384,5,0.1,2,0.1,-1.20231,-1.0737,0.596723,-0.0221808,-0.0437949,9.74163e-05,-0.394315,-0.778571,0.00172853,0.0114381,2.40959,5,0.1,3,0.1,-1.11914,2.2463,0.648246,-0.0592599,0.000298023,-0.000953767,-1.0535,0.00530481,-0.0169538,0.0083237,3.5122,5,0.1,4,0.1,2.10298,-3.68186,0.672149,-0.0484895,0.0340454,-0.00155289,-0.862017,0.605255,-0.0276044,0.0113259,3.5122,5,0.1,5,0.1,-2.9924,-3.15984,0.574219,0.0185292,-0.0130307,-0.00179457,0.32939,-0.231668,-0.0319071,0.00937693,0.516263,5,0.1,6,0.1,-1.38662,-0.153499,0.511402,-0.016072,-0.0570392,-0.000973884,-0.285715,-1.01403,-0.0173114,0.0140293,3.5122,5,0.1,7,0.1,1.1452,5.46041,0.543093,0.00162609,-0.0329413,0.0239369,0.0289083,-0.585645,0.425547,0.0227595,1.66044,5,0.1,8,0.1,1.63854,5.10673,0.634003,0.000339746,-0.0268973,0.0212403,0.00603497,-0.478178,0.377603,0.0232955,1.1746,5,0.1,9,0.1,-3.63023,-3.95825,0.541723,0.0364948,0.00617728,0.00172891,0.648811,0.109822,0.0307336,0.0251965,1.37283,5,0.1,10,0.1,1.6773,-3.02486,0.516848,-0.053923,0.000732765,0.0245861,-0.958629,0.0130385,0.437085,0.0138151,3.51219,5,0.1,11,0.1,-4.20358,-2.84464,0.573093,-0.0149146,-0.01982,0.00107763,-0.265121,-0.352353,0.0191592,0.0101215,0.616366,5,0.1,12,0.1,1.95028,5.66954,0.557618,-0.0238111,-0.0314094,-0.000225101,-0.423305,-0.558347,-0.00400469,0.00803762,1.5533,5,0.1,13,0.1,-3.05521,4.36664,0.654146,0.0585083,-0.00939816,-0.00109049,1.04015,-0.167072,-0.0193901,0.0344647,3.5122,5,0.1,14,0.1,-3.48446,-5.36068,0.673904,0.00191703,0.0588186,0.00702515,0.0340641,1.04567,0.124894,0.0207515,3.5122,5,0.1,15,0.1,-1.85466,5.40953,0.639261,0.0406351,-0.0431359,-0.000936072,0.722408,-0.766873,-0.0166409,0.0238147,3.51219,5,0.1,16,0.1,0.543228,-0.0475034,0.613014,-0.011665,0.0325576,-0.000386033,-0.207379,0.578801,-0.00686571,0.00934841,1.19604,5,0.1,17,0.1,1.92859,2.86303,0.54135,-0.0432791,-0.0404675,0.00142707,-0.769414,-0.719413,0.025373,0.0116106,3.5122,5,0.1,18,0.1,-1.62292,-5.83116,0.698389,-0.00378489,0.059095,-0.00248617,-0.0672936,1.05059,-0.0442006,0.00761959,3.5122,5,0.1,19,0.1,-0.158557,-1.22298,0.688237,0.0314022,-0.0349168,0.00183228,0.558262,-0.620738,0.0325739,0.0100291,2.20828,5,0.1
0,0.2,1.2764,1.77723,0.661129,0.0776887,-0.0261515,-0.00576526,0.582576,-0.19604,-0.043273,0.0264311,0.554527,5,0.1,1,0.2,-0.32588,-0.0355994,0.509777,0.00244156,0.144845,-0.0056386,0.0182986,1.08634,-0.0422895,0.0109169,1.78732,5,0.1,2,0.2,-1.20681,-1.08259,0.596743,-0.070101,-0.138411,0.000306964,-0.525773,-1.03819,0.00229478,0.0103774,1.97694,5,0.1,3,0.2,-1.13118,2.24636,0.648053,-0.18729,0.000941753,-0.00301301,-1.4047,0.00703335,-0.02262,0.0137562,2.92579,5,0.1,4,0.2,2.09313,-3.67495,0.671834,-0.15325,0.107604,-0.00490695,-1.14942,0.806928,-0.0368357,0.013344,2.92579,5,0.1,5,0.2,-2.98864,-3.16249,0.573854,0.0585616,-0.0411868,-0.00567138,0.439167,-0.308752,-0.0425577,0.0125792,0.423571,5,0.1,6,0.2,-1.38988,-0.165085,0.511204,-0.0507951,-0.180272,-0.00307858,-0.380993,-1.35203,-0.023067,0.0170884,2.95755,5,0.1,7,0.2,1.14553,5.45372,0.547955,0.00513792,-0.104105,0.0756532,0.0385046,-0.780821,0.567377,0.0219103,1.36231,5,0.1,8,0.2,1.63861,5.10127,0.638317,0.00107586,-0.0850201,0.0671282,0.00798702,-0.637293,0.50351,0.0226099,0.96371,5,0.1,9,0.2,-3.62282,-3.957,0.542074,0.115341,0.0195265,0.00546426,0.865102,0.146389,0.0409782,0.0266792,1.12633,5,0.1,10,0.2,1.66634,-3.02471,0.521842,-0.170425,0.00231862,0.0777051,-1.27816,0.0174046,0.582755,0.0153617,2.91445,5,0.1,11,0.2,-4.20661,-2.84866,0.573312,-0.0471354,-0.0626445,0.00340492,-0.353575,-0.469804,0.0255704,0.00867958,0.505697,5,0.1,12,0.2,1.94544,5.66316,0.557572,-0.0752538,-0.0992656,-0.000710785,-0.564396,-0.744581,-0.00536442,0.00845946,1.27441,5,0.1,13,0.2,-3.04332,4.36473,0.653924,0.184917,-0.029695,-0.00344515,1.38688,-0.222921,-0.0258982,0.033079,2.92579,5,0.1,14,0.2,-3.48407,-5.34873,0.675331,0.00605583,0.185895,0.0222042,0.0455379,1.39427,0.166476,0.0222657,2.92579,5,0.1,15,0.2,-1.84641,5.40076,0.639071,0.128427,-0.136328,-0.00295788,0.963211,-1.02234,-0.0221729,0.0254471,2.9258,5,0.1,16,0.2,0.540858,-0.04089,0.612936,-0.036867,0.102898,-0.00122041,-0.276536,0.771737,-0.00914931,0.00929803,1.0468,5,0.1,17,0.2,1.9198,2.85481,0.54164,-0.136784,-0.1279,0.00451058,-1.02592,-0.959158,0.0338256,0.0148121,2.92579,5,0.1,18,0.2,-1.62369,-5.81916,0.697884,-0.0119627,0.186765,-0.00785887,-0.089705,1.40071,-0.0589192,0.00806804,2.92581,5,0.1,19,0.2,-0.152178,-1.23007,0.68861,0.0992466,-0.110355,0.00579059,0.744343,-0.82761,0.043422,0.0167861,1.81179,5,0.1
0,0.3,1.2874,1.77353,0.660313,0.144519,-0.0486424,-0.0107282,0.712939,-0.239931,-0.0529326,0.0264311,0.554527,5,0.1,1,0.3,-0.325534,-0.0158479,0.509005,0.0045409,0.247821,-0.0097408,0.0223983,0.945429,-0.0384338,0.0109169,1.78732,5,0.1,2,0.3,-1.21674,-1.10219,0.596786,-0.130412,-0.2575,0.000570435,-0.643365,-1.27035,0.00281259,0.0103774,1.97694,5,0.1,3,0.3,-1.15772,2.24649,0.647626,-0.348843,0.001752,-0.00561392,-1.72633,0.00865757,-0.0277944,0.0137562,2.92579,5,0.1,4,0.3,2.07141,-3.6597,0.671138,-0.285441,0.200411,-0.00914261,-1.41257,0.991732,-0.0452548,0.013344,2.92579,5,0.1,5,0.3,-2.98034,-3.16832,0.573051,0.10894,-0.0766084,-0.0105526,0.537425,-0.377893,-0.0520647,0.0125792,0.423571,5,0.1,6,0.3,-1.39647,-0.190708,0.510741,-0.0774067,-0.337962,-0.006497,-0.162348,-1.7006,-0.0419579,0.0170884,2.95755,5,0.1,7,0.3,1.14626,5.43897,0.55867,0.00955611,-0.193674,0.140738,0.0471324,-0.955433,0.694293,0.0219103,1.36231,5,0.1,8,0.3,1.63877,5.08923,0.647825,0.00199415,-0.158135,0.124885,0.00981987,-0.780016,0.616115,0.0226099,0.96371,5,0.1,9,0.3,-3.60648,-3.95423,0.542848,0.214576,0.0363208,0.0101649,1.05856,0.179172,0.0501387,0.0266792,1.12633,5,0.1,10,0.3,1.6422,-3.02438,0.532852,-0.317328,0.00431873,0.144684,-1.56911,0.0213534,0.715423,0.0153617,2.91445,5,0.1,11,0.3,-4.21328,-2.85754,0.573794,-0.0876911,-0.116536,0.006337,-0.43264,-0.574887,0.0312664,0.00867958,0.505697,5,0.1,12,0.3,1.93478,5.6491,0.557472,-0.139997,-0.184675,-0.00132518,-0.690654,-0.911117,-0.00654534,0.00845946,1.27441,5,0.1,13,0.3,-3.01712,4.36052,0.653436,0.34442,-0.0553265,-0.00642193,1.70442,-0.273883,-0.0317954,0.033079,2.92579,5,0.1,14,0.3,-3.48321,-5.32239,0.678477,0.0112902,0.346247,0.0413523,0.0558943,1.71348,0.204626,0.0222657,2.92579,5,0.1,15,0.3,-1.82821,5.38145,0.638652,0.239205,-0.253909,-0.0055084,1.18376,-1.2565,-0.0272617,0.0254471,2.9258,5,0.1,16,0.3,0.535637,-0.0271063,0.612763,-0.0685877,0.169026,-0.00227001,-0.338379,0.546975,-0.0111982,0.00929803,1.0468,5,0.1,17,0.3,1.90042,2.83668,0.542279,-0.254772,-0.238214,0.00840081,-1.2608,-1.17883,0.0415705,0.0148121,2.92579,5,0.1,18,0.3,-1.62539,-5.79269,0.69677,-0.02228,0.347861,-0.0146357,-0.110246,1.72147,-0.0724196,0.00806804,2.92581,5,0.1,19,0.3,-0.138122,-1.2457,0.68943,0.184631,-0.205292,0.010772,0.910839,-1.01276,0.0531413,0.0167861,1.81179,5,0.1
0,0.4,1.30535,1.76748,0.65898,0.213131,-0.0717372,-0.0158221,0.628948,-0.211656,-0.0467002,0.0305877,0.438751,5,0.1,1,0.4,-0.32497,0.0132417,0.507854,0.00669658,0.329282,-0.0131026,0.0197589,0.665046,-0.027895,0.0109652,1.67497,5,0.1,2,0.4,-1.23294,-1.13418,0.596857,-0.192329,-0.379756,0.000841916,-0.567615,-1.12075,0.00247359,0.0109243,1.56417,5,0.1,3,0.4,-1.20109,2.24671,0.646927,-0.515169,0.00258684,-0.00829101,-1.52642,0.0077486,-0.0245571,0.0105384,2.51563,5,0.1,4,0.4,2.03592,-3.63478,0.670002,-0.421536,0.295961,-0.0135019,-1.24907,0.877023,-0.0399947,0.0127744,2.51109,5,0.1,5,0.4,-2.96681,-3.17784,0.57174,0.160658,-0.112981,-0.0155643,0.474215,-0.333309,-0.0458956,0.00831707,0.335137,5,0.1,6,0.4,-1.40474,-0.232898,0.509873,-0.0853449,-0.502792,-0.0108823,-0.00619888,-1.52116,-0.0432134,0.0160343,2.53519,5,0.1,7,0.4,1.14744,5.41491,0.576153,0.0140935,-0.285625,0.207557,0.041604,-0.843048,0.612557,0.0220914,1.07787,5,0.1,8,0.4,1.63901,5.06958,0.663339,0.00293851,-0.233209,0.184177,0.00870228,-0.688076,0.543565,0.0243802,0.762508,5,0.1,9,0.4,-3.57983,-3.94972,0.544111,0.316453,0.0535667,0.0149906,0.933886,0.157952,0.0442564,0.0282721,0.891166,5,0.1,10,0.4,1.60275,-3.02384,0.550836,-0.468463,0.00637174,0.213593,-1.38664,0.0189543,0.632197,0.0168659,2.30679,5,0.1,11,0.4,-4.22418,-2.87201,0.574581,-0.12933,-0.17187,0.0093475,-0.381708,-0.506997,0.0275373,0.0118405,0.400113,5,0.1,12,0.4,1.91739,5.62616,0.557307,-0.206465,-0.272357,-0.00195354,-0.609279,-0.803709,-0.00581145,0.00824048,1.00832,5,0.1,13,0.4,-2.9743,4.35364,0.652637,0.508636,-0.081706,-0.00948459,1.50704,-0.242233,-0.0281036,0.0425064,2.51318,5,0.1,14,0.4,-3.48181,-5.27934,0.683618,0.0166714,0.511336,0.0610679,0.0494719,1.51515,0.18093,0.025285,2.51411,5,0.1,15,0.4,-1.79847,5.34988,0.637967,0.353256,-0.374973,-0.00813454,1.04672,-1.11103,-0.0241101,0.0338286,2.51009,5,0.1,16,0.4,0.527116,-0.00786503,0.612481,-0.101151,0.211805,-0.0033468,-0.29856,0.307579,-0.00989437,0.017459,0.72189,5,0.1,17,0.4,1.86875,2.80707,0.543324,-0.376248,-0.351793,0.0124067,-1.11473,-1.04225,0.0367463,0.014272,2.51008,5,0.1,18,0.4,-1.62816,-5.74944,0.694951,-0.0329018,0.513732,-0.0216126,-0.0975132,1.52183,-0.064075,0.0135493,2.51505,5,0.1,19,0.4,-0.115185,-1.2712,0.690768,0.272289,-0.302759,0.0158861,0.803575,-0.893533,0.0468791,0.0138507,1.43351,5,0.1
0,0.5,1.32987,1.75923,0.65716,0.276946,-0.0932138,-0.0205599,0.616036,-0.207335,-0.0457317,0.0305877,0.438751,5,0.1,1,0.5,-0.3242,0.0484899,0.506444,0.00870158,0.366672,-0.014747,0.0193547,0.123471,-0.00609085,0.0109652,1.67497,5,0.1,2,0.5,-1.25506,-1.17787,0.596954,-0.249919,-0.493465,0.00109337,-0.555925,-1.09766,0.00242889,0.0109243,1.56417,5,0.1,3,0.5,-1.26022,2.24701,0.645972,-0.665386,0.00338219,-0.010818,-1.40995,0.0077635,-0.0246875,0.0105384,2.51563,5,0.1,4,0.5,1.98742,-3.60074,0.668444,-0.54804,0.384426,-0.0176598,-1.21941,0.849813,-0.0409521,0.0127744,2.51109,5,0.1,5,0.5,-2.94833,-3.19083,0.56995,0.208771,-0.146801,-0.0202213,0.464439,-0.326514,-0.0449605,0.00831707,0.335137,5,0.1,6,0.5,-1.41312,-0.290826,0.5086,-0.0805702,-0.654385,-0.01428,0.0935048,-1.43966,-0.0249371,0.0160343,2.53519,5,0.1,7,0.5,1.14906,5.38206,0.600028,0.0183146,-0.37116,0.269706,0.0407547,-0.825644,0.599951,0.0220914,1.07787,5,0.1,8,0.5,1.63935,5.04276,0.684524,0.00382159,-0.303026,0.239326,0.00853091,-0.674039,0.532363,0.0243802,0.762508,5,0.1,9,0.5,-3.54343,-3.94356,0.545835,0.411205,0.0695962,0.0194806,0.914678,0.154749,0.0433363,0.0282721,0.891166,5,0.1,10,0.5,1.54884,-3.02311,0.575415,-0.60924,0.00829399,0.277777,-1.35975,0.0185668,0.619948,0.0168659,2.30679,5,0.1,11,0.5,-4.23905,-2.89178,0.575656,-0.168057,-0.223315,0.0121419,-0.37384,-0.496641,0.0269823,0.0118405,0.400113,5,0.1,12,0.5,1.89364,5.59483,0.557082,-0.268283,-0.353902,-0.00254195,-0.596754,-0.787169,-0.00566989,0.00824048,1.00832,5,0.1,13,0.5,-2.91587,4.34422,0.651544,0.65859,-0.106627,-0.0123761,1.42187,-0.243396,-0.028234,0.0425064,2.51318,5,0.1,14,0.5,-3.47989,-5.22062,0.690655,0.0217594,0.661405,0.0796869,0.0496805,1.41695,0.181872,0.025285,2.51411,5,0.1,15,0.5,-1.75776,5.30667,0.63703,0.460965,-0.489303,-0.0106156,1.05207,-1.11678,-0.0242293,0.0338286,2.51009,5,0.1,16,0.5,0.515481,0.0142318,0.612096,-0.131441,0.224643,-0.00435039,-0.292391,-0.022466,-0.00968575,0.017459,0.72189,5,0.1,17,0.5,1.82539,2.76653,0.544753,-0.490958,-0.459045,0.0161883,-1.12047,-1.04763,0.0369437,0.014272,2.51008,5,0.1,18,0.5,-1.63195,-5.69047,0.69246,-0.0429355,0.663872,-0.0282055,-0.0980049,1.41251,-0.0643879,0.0135493,2.51505,5,0.1,19,0.5,-0.0838648,-1.30603,0.692595,0.35382,-0.393416,0.0206428,0.787042,-0.875145,0.0459179,0.0138507,1.43351,5,0.1
0,0.6,1.36041,1.74895,0.654893,0.331005,-0.111407,-0.0245735,0.44322,-0.14925,-0.032872,0.027081,0.326644,5,0.1,1,0.6,-0.32324,0.0851524,0.504967,0.0104003,0.361159,-0.0145257,0.0139177,-0.202608,0.00953674,0.010466,1.54379,5,0.1,2,0.6,-1.28263,-1.23229,0.597075,-0.298706,-0.589791,0.00130683,-0.399828,-0.789583,0.00172853,0.0129853,1.16448,5,0.1,3,0.6,-1.33316,2.24738,0.644775,-0.785968,0.004071,-0.0130057,-0.957668,0.00560284,-0.0181496,0.00978254,2.17408,5,0.1,4,0.6,1.92698,-3.55838,0.666487,-0.654933,0.458711,-0.0213146,-0.875175,0.605941,-0.0305474,0.0104405,2.24837,5,0.1,5,0.6,-2.92531,-3.20702,0.56772,0.249523,-0.175458,-0.0241682,0.334263,-0.234842,-0.0323057,0.00917924,0.249505,5,0.1,6,0.6,-1.4206,-0.362857,0.507076,-0.06814,-0.778915,-0.0159204,0.148416,-1.00394,-0.00816584,0.0149059,2.04181,5,0.1,7,0.6,1.15108,5.34112,0.629772,0.0218928,-0.443614,0.322355,0.0292659,-0.594139,0.431567,0.0248044,0.802441,5,0.1,8,0.6,1.63977,5.00934,0.710918,0.00457168,-0.362182,0.286043,0.00607967,-0.484943,0.38299,0.0303373,0.567683,5,0.1,9,0.6,-3.49808,-3.93588,0.547984,0.49147,0.0831783,0.0232831,0.658035,0.111341,0.031203,0.0282684,0.227547,5,0.1,10,0.6,1.48163,-3.02219,0.60606,-0.728634,0.00991821,0.332212,-0.979483,0.0134706,0.446588,0.0114218,1.72771,5,0.1,11,0.6,-4.25759,-2.91641,0.576995,-0.200868,-0.266898,0.0145093,-0.268698,-0.357389,0.0194311,0.00844441,0.297878,5,0.1,12,0.6,1.86406,5.5558,0.556802,-0.320652,-0.42299,-0.00303835,-0.429273,-0.566006,-0.00408292,0.00974379,0.750671,5,0.1,13,0.6,-2.8435,4.33243,0.650175,0.781333,-0.128198,-0.0148788,0.986457,-0.178814,-0.0207424,0.0352031,2.32241,5,0.1,14,0.6,-3.47748,-5.14802,0.69947,0.0261605,0.783253,0.095807,0.036478,0.974417,0.133783,0.0226225,2.32747,5,0.1,15,0.6,-1.70677,5.25254,0.635855,0.554213,-0.588286,-0.0127643,0.773668,-0.821352,-0.017792,0.0251286,2.21915,5,0.1,16,0.6,0.500985,0.0362284,0.611616,-0.157101,0.212288,-0.00520051,-0.2103,-0.203237,-0.00694394,0.00839515,0.654978,5,0.1,17,0.6,1.77108,2.71575,0.546544,-0.590268,-0.551903,0.0194624,-0.823975,-0.77033,0.0271797,0.0109256,2.21916,5,0.1,18,0.6,-1.6367,-5.61766,0.68934,-0.0516236,0.784934,-0.0339121,-0.0720024,0.963926,-0.0473559,0.0098522,2.33207,5,0.1,19,0.6,-0.0448445,-1.34941,0.694872,0.422886,-0.470215,0.0246719,0.566182,-0.629544,0.0330508,0.0112695,1.06721,5,0.1
0,0.7,1.39569,1.73708,0.652274,0.373556,-0.125735,-0.0277296,0.383466,-0.129126,-0.0284389,0.027081,0.326644,5,0.1,1,0.7,-0.322132,0.119647,0.503583,0.0117366,0.324462,-0.0129688,0.0120457,-0.4624,0.0205524,0.010466,1.54379,5,0.1,2,0.7,-1.31446,-1.29515,0.597214,-0.337092,-0.665594,0.00147326,-0.345953,-0.683129,0.00150129,0.0129853,1.16448,5,0.1,3,0.7,-1.41549,2.24782,0.643384,-0.850507,0.00462569,-0.0147995,-0.36101,0.0051707,-0.0166371,0.00978254,2.17408,5,0.1,4,0.7,1.85735,-3.50961,0.664178,-0.734227,0.514789,-0.0250322,-0.67313,0.486746,-0.0404455,0.0104405,2.24837,5,0.1,5,0.7,-2.89871,-3.22572,0.565144,0.28161,-0.198006,-0.0272706,0.289142,-0.203237,-0.027962,0.00917924,0.249505,5,0.1,6,0.7,-1.42661,-0.444711,0.505477,-0.0514748,-0.848116,-0.0157559,0.178926,-0.402344,0.0102073,0.0149059,2.04181,5,0.1,7,0.7,1.15342,5.29384,0.664128,0.0247031,-0.500649,0.363788,0.025332,-0.513971,0.37339,0.0248044,0.802441,5,0.1,8,0.7,1.64026,4.97074,0.741404,0.00515673,-0.408742,0.32281,0.00528246,-0.419617,0.331346,0.0303373,0.567683,5,0.1,9,0.7,-3.44655,-3.92702,0.550465,0.530404,0.0938687,0.0262781,0.138402,0.0963658,0.0269823,0.0282684,0.227547,5,0.1,10,0.7,1.40435,-3.02114,0.641476,-0.81137,0.0112098,0.375105,-0.649422,0.011608,0.386771,0.0114218,1.72771,5,0.1,11,0.7,-4.27899,-2.94486,0.578542,-0.226667,-0.301208,0.0163747,-0.232548,-0.309229,0.0168085,0.00844441,0.297878,5,0.1,12,0.7,1.82988,5.51072,0.556478,-0.361865,-0.477335,-0.0034296,-0.371419,-0.489771,-0.0035204,0.00974379,0.750671,5,0.1,13,0.7,-2.76149,4.3187,0.648582,0.848922,-0.146144,-0.0169606,0.388578,-0.168771,-0.0195764,0.0352031,2.32241,5,0.1,14,0.7,-3.47468,-5.06587,0.709729,0.0298213,0.849584,0.109234,0.0344366,0.377208,0.126295,0.0226225,2.32747,5,0.1,15,0.7,-1.64743,5.18955,0.634489,0.631875,-0.670734,-0.014551,0.730582,-0.775576,-0.0168085,0.0251286,2.21915,5,0.1,16,0.7,0.484242,0.0561258,0.611062,-0.17729,0.183598,-0.00586733,-0.181951,-0.328937,-0.00601262,0.00839515,0.654978,5,0.1,17,0.7,1.70788,2.65665,0.548628,-0.672981,-0.629234,0.0221907,-0.778116,-0.727504,0.025671,0.0109256,2.21916,5,0.1,18,0.7,-1.64223,-5.5354,0.685709,-0.0588505,0.850166,-0.0386639,-0.0679716,0.367224,-0.0446811,0.0098522,2.33207,5,0.1,19,0.7,0.000226368,-1.39953,0.697501,0.477242,-0.530653,0.0278445,0.489856,-0.544682,0.0285953,0.0112695,1.06721,5,0.1
0,0.8,1.4347,1.72395,0.649378,0.403622,-0.13586,-0.0299603,0.201404,-0.0678301,-0.0149012,0.0310385,0.230629,5,0.1,1,0.8,-0.320906,0.149784,0.5024,0.0126816,0.279305,-0.0106052,0.00630319,-0.403404,0.0258684,0.0140087,1.40739,5,0.1,2,0.8,-1.34966,-1.36465,0.597368,-0.364214,-0.719154,0.00159144,-0.181675,-0.358701,0.000804663,0.0115994,0.822186,5,0.1,3,0.8,-1.50162,2.24831,0.641831,-0.866026,0.00504255,-0.0161499,0,0.00298023,-0.00965595,0.00774858,1.68011,5,0.1,4,0.8,1.78115,-3.45608,0.661479,-0.783363,0.551265,-0.0288248,-0.285268,0.223875,-0.0329018,0.0139954,2.13685,5,0.1,5,0.8,-2.8693,-3.2464,0.562296,0.304282,-0.213939,-0.0294626,0.151753,-0.106931,-0.0147223,0.0109679,0.176163,5,0.1,6,0.8,-1.43085,-0.530755,0.503974,-0.0334114,-0.866026,-0.0141084,0.177741,0,0.0216961,0.0187016,2.34691,5,0.1,7,0.8,1.156,5.24156,0.702119,0.026691,-0.540948,0.393063,0.0132322,-0.269651,0.196069,0.0270129,0.566552,5,0.1,8,0.8,1.6408,4.92805,0.775116,0.00557005,-0.441635,0.348788,0.00280142,-0.220776,0.173986,0.0246642,0.400826,5,0.1,9,0.8,-3.39355,-3.91722,0.553209,0.522667,0.101429,0.0283942,-0.275493,0.0504255,0.0141561,0.02694,0.169551,5,0.1,10,0.8,1.32067,-3.01996,0.680658,-0.855133,0.0121176,0.405459,-0.217855,0.00619888,0.203729,0.0134285,1.25253,5,0.1,11,0.8,-4.30266,-2.97631,0.580252,-0.244892,-0.325453,0.0176936,-0.122309,-0.162482,0.00882149,0.00821159,0.210325,5,0.1,12,0.8,1.79209,5.46087,0.55612,-0.390986,-0.515735,-0.00370443,-0.195026,-0.257015,-0.00184774,0.0088873,0.530031,5,0.1,13,0.8,-2.67542,4.30334,0.646799,0.866026,-0.16005,-0.0185728,0,-0.101089,-0.0117421,0.0318792,2.24917,5,0.1,14,0.8,-3.47154,-4.97978,0.721214,0.0326574,0.866032,0.119634,0.0206232,-0.000238419,0.0758469,0.0235674,2.26008,5,0.1,15,0.8,-1.58099,5.11902,0.632959,0.69204,-0.734603,-0.0159353,0.438809,-0.46587,-0.010103,0.0275075,2.0419,5,0.1,16,0.8,0.465727,0.0728931,0.610449,-0.191554,0.15287,-0.00633895,-0.0955611,-0.263531,-0.00312924,0.0111159,0.82052,5,0.1,17,0.8,1.63711,2.59049,0.550961,-0.737059,-0.689143,0.0243038,-0.46736,-0.437021,0.0154376,0.0148299,2.04193,5,0.1,18,0.8,-1.64841,-5.44928,0.681643,-0.0644505,0.866032,-0.0423431,-0.04071,-0.000238419,-0.0268221,0.00938633,2.26734,5,0.1,19,0.8,0.0500655,-1.45495,0.700409,0.515648,-0.573358,0.0300869,0.257233,-0.286043,0.0149906,0.0101818,0.753508,5,0.1
0,0.9,1.47602,1.71004,0.646311,0.421872,-0.142006,-0.031311,0.144266,-0.0485927,-0.0106804,0.0310385,0.230629,5,0.1,1,0.9,-0.319608,0.175829,0.501471,0.0132531,0.245105,-0.00795117,0.00452064,-0.202803,0.026565,0.0140087,1.40739,5,0.1,2,0.9,-1.38695,-1.43828,0.597531,-0.380677,-0.751658,0.00166455,-0.130139,-0.256926,0.000584871,0.0115994,0.822186,5,0.1,3,0.9,-1.58822,2.24882,0.640169,-0.866006,0.00532195,-0.0170546,0.000797212,0.00235438,-0.00758469,0.00774858,1.68011,5,0.1,4,0.9,1.70151,-3.39978,0.658389,-0.807306,0.574374,-0.0332627,-0.161521,0.206202,-0.0510253,0.0139954,2.13685,5,0.1,5,0.9,-2.83815,-3.26831,0.55928,0.318032,-0.223628,-0.0307967,0.108704,-0.0766069,-0.0105463,0.0109679,0.176163,5,0.1,6,0.9,-1.43407,-0.617358,0.502684,-0.0374824,-0.866026,-0.0116072,-0.214919,3.72529e-06,0.0274442,0.0187016,2.34691,5,0.1,7,0.9,1.15873,5.18618,0.74236,0.0278916,-0.565382,0.41083,0.00949204,-0.193089,0.140447,0.0270129,0.566552,5,0.1,8,0.9,1.64137,4.88284,0.810825,0.00582449,-0.461637,0.364554,0.00201166,-0.158161,0.124615,0.0246642,0.400826,5,0.1,9,0.9,-3.34337,-3.90683,0.556116,0.474793,0.106002,0.0296765,-0.650004,0.03618,0.0101365,0.02694,0.169551,5,0.1,10,0.9,1.2345,-3.01872,0.722176,-0.864952,0.0126764,0.423933,-0.0115335,0.00441074,0.146281,0.0134285,1.25253,5,0.1,11,0.9,-4.32774,-3.00963,0.582063,-0.255975,-0.340175,0.0184929,-0.0876188,-0.116393,0.00631809,0.00821159,0.210325,5,0.1,12,0.9,1.75206,5.40807,0.55574,-0.408659,-0.539028,-0.00387151,-0.139706,-0.184149,-0.0013113,0.0088873,0.530031,5,0.1,13,0.9,-2.58882,4.28669,0.644881,0.866026,-0.173818,-0.0197723,0,-0.156134,-0.0110306,0.0318792,2.24917,5,0.1,14,0.9,-3.46817,-4.89317,0.733572,0.0347894,0.866023,0.127473,0.0198334,2.98023e-05,0.0728779,0.0235674,2.26008,5,0.1,15,0.9,-1.5095,5.04314,0.631313,0.737504,-0.782871,-0.0169824,0.423588,-0.449687,-0.00976399,0.0275075,2.0419,5,0.1,16,0.9,0.446116,0.0869509,0.6098,-0.200213,0.130909,-0.0066231,-0.0684466,-0.113552,-0.00224635,0.0111159,0.82052,5,0.1,17,0.9,1.56097,2.5193,0.553472,-0.785482,-0.734422,0.0259027,-0.45117,-0.421882,0.0148937,0.0148299,2.04193,5,0.1,18,0.9,-1.65507,-5.36268,0.67727,-0.0686513,0.866023,-0.0451089,-0.0389889,2.98023e-05,-0.0256561,0.00938633,2.26734,5,0.1,19,0.9,0.102857,-1.51365,0.703489,0.538957,-0.599278,0.0314455,0.184256,-0.204884,0.01074,0.0101818,0.753508,5,0.1
0,1,1.51871,1.69567,0.643143,0.429264,-0.144494,-0.0318572,-0.00929832,0.00303984,0.000715256,0.0239996,0.273379,5,0.1,1,1,-0.318267,0.2,0.500806,0.0134848,0.244873,-0.00540167,-0.000298023,0.18166,0.0239313,0.0136511,1.20295,5,0.1,2,1,-1.42547,-1.51433,0.597699,-0.387341,-0.764814,0.00169426,0.00828505,0.0165105,-2.98023e-05,0.0118689,0.559118,5,0.1,3,1,-1.67481,2.24937,0.638434,-0.865707,0.00546575,-0.0175238,0.00631809,0.000357628,-0.00119209,0.0074511,1.29222,5,0.1,4,1,1.62039,-3.34156,0.65481,-0.810376,0.587094,-0.0381917,0.120997,0.0263453,-0.044018,0.012246,2.11612,5,0.1,5,1,-2.80597,-3.29093,0.556164,0.323594,-0.227553,-0.0313371,-0.00691414,0.00464916,0.000625849,0.00908576,0.119796,5,0.1,6,1,-1.43924,-0.70396,0.501664,-0.0685096,-0.866026,-0.00877678,-0.370979,0,0.0284314,0.0167062,2.29005,5,0.1,7,1,1.16155,5.12897,0.783928,0.0283748,-0.57528,0.418024,-0.000596046,0.0128746,-0.0090301,0.0276511,0.385277,5,0.1,8,1,1.64196,4.83613,0.84771,0.00592768,-0.469744,0.370936,-5.96046e-05,0.0100136,-0.00801682,0.0274278,0.272569,5,0.1,9,1,-3.29954,-3.89611,0.559119,0.398529,0.107849,0.0301957,-0.84877,-0.00226498,-0.000685453,0.0321138,0.274057,5,0.1,10,1,1.14815,-3.01744,0.765076,-0.859746,0.0129104,0.431481,0.125527,-0.000357628,-0.00822544,0.0124267,0.896554,5,0.1,11,1,-4.35364,-3.04405,0.583934,-0.26046,-0.346142,0.0188172,0.00548363,0.00751019,-0.000417233,0.0111463,0.143025,5,0.1,12,1,1.71072,5.35354,0.555349,-0.415817,-0.54847,-0.00393838,0.00905991,0.0121593,0.000119209,0.010121,0.360458,5,0.1,13,1,-2.50221,4.26856,0.642858,0.866026,-0.188148,-0.0205725,0,-0.117064,-0.00414252,0.0348175,2.24212,5,0.1,14,1,-3.46461,-4.80657,0.746625,0.0362515,0.866032,0.132847,0.00786781,-0.000238419,0.0289977,0.0225198,2.25884,5,0.1,15,1,-1.43397,4.96296,0.629574,0.768828,-0.816119,-0.0177041,0.170588,-0.181437,-0.00393391,0.0250035,1.65098,5,0.1,16,1,0.425858,0.1,0.60913,-0.203719,0.135229,-0.00673831,0.00441074,0.188492,0.000178814,0.00874964,0.732197,5,0.1,17,1,1.48053,2.44409,0.556125,-0.818849,-0.765622,0.0270039,-0.181556,-0.169992,0.00602007,0.0126208,1.53841,5,0.1,18,1,-1.6621,-5.27608,0.672652,-0.0715196,0.866032,-0.0469938,-0.0153184,-0.000238419,-0.010103,0.00894005,2.2669,5,0.1,19,1,0.157389,-1.57428,0.706671,0.548395,-0.60977,0.0319958,-0.0118399,0.013113,-0.000715256,0.0118392,0.512413,5,0.1
0,1.1,1.56173,1.68124,0.639962,0.431825,-0.143867,-0.0317155,0.0349283,0.014782,0.00328198,0.0239996,0.273379,5,0.1,1,1.1,-0.316921,0.22626,0.500378,0.0134252,0.287178,-0.0032464,-0.00138395,0.594615,0.0189766,0.0136511,1.20295,5,0.1,2,1.1,-1.46415,-1.5907,0.597868,-0.38565,-0.761461,0.00168756,0.0397116,0.0785217,-0.000163913,0.0118689,0.559118,5,0.1,3,1.1,-1.76137,2.24991,0.636677,-0.865582,0.00548996,-0.0176044,0.00663102,-7.45058e-05,0.000268221,0.0074511,1.29222,5,0.1,4,1.1,1.53968,-3.28245,0.650755,-0.805475,0.596834,-0.0429872,0.0233427,0.127047,-0.0479817,0.012246,2.11612,5,0.1,5,1.1,-2.77366,-3.31365,0.553034,0.322181,-0.226577,-0.031204,-0.0331849,0.0231862,0.0031814,0.00908576,0.119796,5,0.1,6,1.1,-1.44829,-0.790563,0.500925,-0.115012,-0.866026,-0.00603683,-0.523314,3.72529e-06,0.0258759,0.0167062,2.29005,5,0.1,7,1.1,1.16438,5.07153,0.825668,0.0282522,-0.572722,0.416191,-0.00289083,0.0593662,-0.0429191,0.0276511,0.385277,5,0.1,8,1.1,1.64255,4.78922,0.884748,0.00590738,-0.467695,0.369309,-0.000558794,0.0481606,-0.0380948,0.0274278,0.272569,5,0.1,9,1.1,-3.26407,-3.88534,0.562134,0.309833,0.107383,0.0300606,-0.903964,-0.0109822,-0.00312552,0.0321138,0.274057,5,0.1,10,1.1,1.06262,-3.01615,0.808164,-0.851547,0.012847,0.429694,0.0804067,-0.00140071,-0.0433214,0.0124267,0.896554,5,0.1,11,1.1,-4.37964,-3.07861,0.585813,-0.259329,-0.344622,0.0187338,0.0266433,0.0355691,-0.00194088,0.0111463,0.143025,5,0.1,12,1.1,1.6692,5.29877,0.554956,-0.413988,-0.546043,-0.00391789,0.0427291,0.0564456,0.000432134,0.010121,0.360458,5,0.1,13,1.1,-2.41561,4.24907,0.640776,0.866026,-0.202043,-0.0210713,0,-0.144243,-0.00464544,0.0348175,2.24212,5,0.1,14,1.1,-3.46093,-4.71997,0.760083,0.0372138,0.866023,0.136387,0.00919402,2.98023e-05,0.0338368,0.0225198,2.25884,5,0.1,15,1.1,-1.35615,4.88035,0.627782,0.787355,-0.835814,-0.0181313,0.158727,-0.168681,-0.00366196,0.0250035,1.65098,5,0.1,16,1.1,0.405517,0.114472,0.608458,-0.202825,0.154097,-0.00670636,0.0209231,0.181683,0.00071153,0.00874964,0.732197,5,0.1,17,1.1,1.39769,2.36663,0.558857,-0.837475,-0.783056,0.0276208,-0.149496,-0.139937,0.00494719,0.0126208,1.53841,5,0.1,18,1.1,-1.66934,-5.18948,0.667892,-0.0733657,0.866023,-0.0482088,-0.0173822,2.98023e-05,-0.0114292,0.00894005,2.2669,5,0.1,19,1.1,0.212146,-1.63517,0.709866,0.545991,-0.607102,0.0318536,-0.0562993,0.06257,-0.00329688,0.0118392,0.512413,5,0.1
0,1.2,1.60499,1.66698,0.636819,0.431892,-0.140661,-0.0310063,-0.0516176,0.0528693,0.0116229,0.0249893,0.195795,5,0.1,1,1.2,-0.31559,0.258159,0.500139,0.0131257,0.35153,-0.00163168,-0.00491738,0.639588,0.0132322,0.0110876,0.9614,5,0.1,2,1.2,-1.50237,-1.66616,0.598036,-0.37705,-0.744471,0.00165105,0.141621,0.279605,-0.000625849,0.00967073,0.473748,5,0.1,3,1.2,-1.84781,2.25046,0.634925,-0.861785,0.0054121,-0.0173554,0.0848174,-0.00166893,0.00521541,0.0117447,0.965105,5,0.1,4,1.2,1.4594,-3.22224,0.646236,-0.797805,0.605404,-0.0471219,0.162601,0.014782,-0.0318885,0.0116017,2.0113,5,0.1,5,1.2,-2.74173,-3.33611,0.549942,0.314993,-0.221533,-0.0305101,-0.118256,0.0830889,0.0114441,0.00775394,0.135162,5,0.1,6,1.2,-1.46242,-0.877165,0.500443,-0.166932,-0.866026,-0.00368208,-0.4884,0,0.020951,0.0137863,2.24349,5,0.1,7,1.2,1.16718,5.01478,0.866915,0.0276268,-0.559914,0.406906,-0.0104308,0.210285,-0.152856,0.0293688,0.256202,5,0.1,8,1.2,1.64314,4.74287,0.921348,0.00577867,-0.457263,0.361069,-0.00214577,0.171661,-0.13566,0.0255207,0.181241,5,0.1,9,1.2,-3.23756,-3.8747,0.565113,0.221425,0.104994,0.0293881,-0.848293,-0.0394583,-0.0110567,0.0285421,0.269436,5,0.1,10,1.2,0.978075,-3.01488,0.850754,-0.836566,0.0125527,0.420195,0.248253,-0.00476837,-0.157028,0.0134894,0.624598,5,0.1,11,1.2,-4.40534,-3.11277,0.587669,-0.253558,-0.336933,0.0183165,0.0953674,0.1266,-0.00691414,0.00984906,0.161389,5,0.1,12,1.2,1.62817,5.24466,0.554568,-0.404748,-0.533843,-0.00382811,0.152051,0.200272,0.00146031,0.0099781,0.239706,5,0.1,13,1.2,-2.32901,4.22821,0.638653,0.866026,-0.214159,-0.0212997,0,-0.0863075,0.00089407,0.0306921,2.23689,5,0.1,14,1.2,-3.45718,-4.63337,0.773845,0.0377238,0.866032,0.138263,-0.000596046,-0.000238419,-0.00181794,0.02305,2.28475,5,0.1,15,1.2,-1.27691,4.79624,0.625957,0.793624,-0.842488,-0.0182763,-0.0615716,0.0653267,0.00143051,0.0217757,1.15835,5,0.1,16,1.2,0.385416,0.130728,0.607793,-0.198298,0.170247,-0.00655651,0.074476,0.135303,0.0025034,0.01211,0.928805,5,0.1,17,1.2,1.31352,2.28793,0.561633,-0.841779,-0.787097,0.0277638,0.0915527,0.0855923,-0.00303984,0.0124949,1.06964,5,0.1,18,1.2,-1.67674,-5.10287,0.663031,-0.0742853,0.866032,-0.0488132,0.00196695,-0.000238419,0.0013113,0.00821775,2.26685,5,0.1,19,1.2,0.266257,-1.69533,0.713023,0.53381,-0.593558,0.0311419,-0.200526,0.222921,-0.0116825,0.0104716,0.340724,5,0.1
0,1.3,1.64799,1.65318,0.633775,0.428461,-0.135435,-0.0298571,-0.0374243,0.0560284,0.0123307,0.0249893,0.195795,5,0.1,1,1.3,-0.314302,0.296823,0.500032,0.0126395,0.423506,-0.00059884,-0.00521541,0.746675,0.00763685,0.0110876,0.9614,5,0.1,2,1.3,-1.53953,-1.73888,0.598198,-0.367495,-0.706552,0.00158958,0.0710785,0.47645,-0.000655651,0.00967073,0.473748,5,0.1,3,1.3,-1.93384,2.25099,0.633215,-0.860523,0.00524744,-0.0168361,-0.00989437,-0.00178814,0.0057444,0.0117447,0.965105,5,0.1,4,1.3,1.3798,-3.16136,0.641409,-0.798569,0.6139,-0.0489787,-0.11161,0.113502,-0.00518933,0.0116017,2.0113,5,0.1,5,1.3,-2.71062,-3.35799,0.546929,0.308565,-0.217019,-0.0298886,-0.031963,0.0224411,0.00308454,0.00775394,0.135162,5,0.1,6,1.3,-1.48169,-0.963768,0.50017,-0.21912,-0.866025,-0.00189766,-0.525132,7.45058e-06,0.0147074,0.0137863,2.24349,5,0.1,7,1.3,1.1699,4.95981,0.906858,0.0265973,-0.539127,0.391795,-0.0110194,0.222862,-0.162002,0.0293688,0.256202,5,0.1,8,1.3,1.6437,4.69798,0.956792,0.00556614,-0.44029,0.347658,-0.00228733,0.182003,-0.143774,0.0255207,0.181241,5,0.1,9,1.3,-3.21946,-3.86433,0.568015,0.142802,0.10285,0.0287864,-0.713974,-0.0106245,-0.00299513,0.0285421,0.269436,5,0.1,10,1.3,0.895533,-3.01365,0.892005,-0.814681,0.0120811,0.404666,0.223309,-0.00503659,-0.166606,0.0134894,0.624598,5,0.1,11,1.3,-4.43038,-3.14604,0.589478,-0.248371,-0.330052,0.0179399,0.0258684,0.034228,-0.00187755,0.00984906,0.161389,5,0.1,12,1.3,1.58844,5.19225,0.554192,-0.389718,-0.514043,-0.00368413,0.161126,0.212282,0.00154227,0.0099781,0.239706,5,0.1,13,1.3,-2.24241,4.20629,0.636522,0.866026,-0.22447,-0.0213442,0,-0.104368,-0.000618398,0.0306921,2.23689,5,0.1,14,1.3,-3.4534,-4.54693,0.787703,0.0379372,0.860932,0.139072,0.00266731,-0.103652,0.0100099,0.02305,2.28475,5,0.1,15,1.3,-1.19781,4.71226,0.624135,0.788203,-0.836733,-0.0181507,-0.0800118,0.0849366,0.00184774,0.0217757,1.15835,5,0.1,16,1.3,0.36595,0.148066,0.60715,-0.190935,0.173872,-0.00631027,0.0789426,-0.025006,0.00263005,0.01211,0.928805,5,0.1,17,1.3,1.22976,2.20961,0.564396,-0.833027,-0.778914,0.0274731,0.116982,0.109375,-0.0038743,0.0124949,1.06964,5,0.1,18,1.3,-1.68418,-5.01627,0.658143,-0.0745662,0.866023,-0.0489955,-0.00345707,2.98023e-05,-0.0022389,0.00821775,2.26685,5,0.1,19,1.3,0.318657,-1.7536,0.71608,0.513986,-0.57152,0.029987,-0.212524,0.23628,-0.0123866,0.0104716,0.340724,5,0.1
0,1.4,1.69054,1.63995,0.630859,0.420958,-0.128731,-0.0283822,-0.126779,0.0810027,0.0178814,0.0219728,0.250769,5,0.1,1,1.4,-0.313067,0.342724,0.500002,0.0120148,0.491693,-5.96046e-05,-0.00753999,0.578611,0.00339746,0.00919734,0.733369,5,0.1,2,1.4,-1.5759,-1.80685,0.598353,-0.35913,-0.649777,0.00150949,0.11158,0.655293,-0.000923872,0.0104641,0.367082,5,0.1,3,1.4,-2.01977,2.25151,0.631564,-0.855291,0.00501871,-0.0161126,0.149488,-0.00274181,0.00908971,0.0113378,0.693326,5,0.1,4,1.4,1.29938,-3.09952,0.636529,-0.808662,0.620973,-0.0481769,-0.0419021,-0.00154972,0.020951,0.00941171,1.49869,5,0.1,5,1.4,-2.67993,-3.37958,0.543956,0.304866,-0.214422,-0.0295311,-0.0578165,0.0406504,0.00560284,0.00899637,0.0791224,5,0.1,6,1.4,-1.50608,-1.05037,0.500043,-0.266767,-0.866026,-0.000731647,-0.406206,0,0.00870228,0.0123663,2.20615,5,0.1,7,1.4,1.17249,4.90715,0.945128,0.0252783,-0.512445,0.372405,-0.0158548,0.322104,-0.234187,0.0248372,0.168639,5,0.1,8,1.4,1.64425,4.65498,0.990751,0.00529289,-0.418508,0.330451,-0.00333786,0.263214,-0.207841,0.0244345,0.119294,5,0.1,9,1.4,-3.20846,-3.8541,0.570878,0.0801444,0.10162,0.0284404,-0.534296,-0.0190735,-0.00536442,0.0253274,0.259528,5,0.1,10,1.4,0.815366,-3.01247,0.931536,-0.786202,0.0114799,0.384702,0.3694,-0.00727177,-0.241339,0.0128607,0.426335,5,0.1,11,1.4,-4.45509,-3.17887,0.591263,-0.245392,-0.326097,0.0177234,0.04673,0.0618696,-0.00333786,0.00908506,0.0944818,5,0.1,12,1.4,1.55037,5.14204,0.553832,-0.370431,-0.488615,-0.00349879,0.232875,0.306845,0.00217557,0.00708195,0.157781,5,0.1,13,1.4,-2.1558,4.1834,0.63439,0.866026,-0.232387,-0.0212237,0,-0.0426769,0.00378489,0.0283989,2.23401,5,0.1,14,1.4,-3.4496,-4.46156,0.801626,0.0378847,0.844359,0.138909,-0.005126,-0.235558,-0.0188947,0.0209573,2.37754,5,0.1,15,1.4,-1.11964,4.62928,0.622335,0.772068,-0.819612,-0.0177786,-0.265181,0.281811,0.00610948,0.0183952,0.791162,5,0.1,16,1.4,0.3473,0.165295,0.606533,-0.181486,0.170911,-0.00599623,0.114113,-0.0153482,0.00375509,0.0103362,1.44075,5,0.1,17,1.4,1.14731,2.13251,0.567115,-0.812784,-0.759983,0.0268042,0.310421,0.290155,-0.0102222,0.0116668,0.725541,5,0.1,18,1.4,-1.69163,-4.92967,0.653245,-0.0742733,0.866032,-0.0487998,0.012219,-0.000238419,0.00804663,0.00705348,2.26703,5,0.1,19,1.4,0.368863,-1.80943,0.719009,0.488549,-0.543234,0.0285044,-0.307202,0.341535,-0.017941,0.0091612,0.224269,5,0.1
0,1.5,1.73221,1.62746,0.628106,0.414002,-0.121005,-0.0266772,-0.038743,0.0771731,0.0170246,0.0219728,0.250769,5,0.1,1,1.5,-0.311902,0.394849,0.500009,0.0112955,0.550374,0.000155065,-0.00718608,0.553775,0.00106916,0.00919734,0.733369,5,0.1,2,1.5,-1.61136,-1.86807,0.598499,-0.350522,-0.570956,0.0014212,0.0778213,0.879146,-0.000886619,0.0104641,0.367082,5,0.1,3,1.5,-2.10471,2.252,0.629997,-0.844134,0.00475496,-0.0152428,0.113398,-0.00268221,0.00877678,0.0113378,0.693326,5,0.1,4,1.5,1.21802,-3.0373,0.631833,-0.820279,0.623883,-0.0455514,-0.138439,0.0267625,0.0317395,0.00941171,1.49869,5,0.1,5,1.5,-2.64968,-3.40085,0.541025,0.300365,-0.211257,-0.0290952,-0.0461936,0.0324696,0.00447407,0.00899637,0.0791224,5,0.1,6,1.5,-1.53486,-1.13697,0.500005,-0.308616,-0.866026,-0.000104029,-0.40371,0,0.0041388,0.0123663,2.20615,5,0.1,7,1.5,1.17495,4.85745,0.981243,0.0237662,-0.481719,0.350067,-0.0151098,0.306964,-0.223156,0.0248372,0.168639,5,0.1,8,1.5,1.64476,4.61439,1.0228,0.00497475,-0.393401,0.310626,-0.00317395,0.250816,-0.198044,0.0244345,0.119294,5,0.1,9,1.5,-3.20278,-3.84401,0.573701,0.0366975,0.100138,0.0280228,-0.339642,-0.0152439,-0.00428781,0.0253274,0.259528,5,0.1,10,1.5,0.738473,-3.01135,0.968846,-0.752138,0.0107866,0.361678,0.339568,-0.00692904,-0.230063,0.0128607,0.426335,5,0.1,11,1.5,-4.47944,-3.21123,0.593021,-0.241756,-0.321284,0.0174642,0.0372827,0.0493675,-0.00266731,0.00908506,0.0944818,5,0.1,12,1.5,1.51445,5.09465,0.553493,-0.348218,-0.459341,-0.00329083,0.221916,0.29251,0.00208244,0.00708195,0.157781,5,0.1,13,1.5,-2.0692,4.15988,0.63228,0.866026,-0.238304,-0.0210109,0,-0.0608563,0.00161305,0.0283989,2.23401,5,0.1,14,1.5,-3.44591,-4.3789,0.815496,0.035252,0.806244,0.138991,-0.0442713,-0.405997,0.0109114,0.0209573,2.37754,5,0.1,15,1.5,-1.04369,4.54866,0.620586,0.74692,-0.79289,-0.0171993,-0.264876,0.281423,0.00609457,0.0183952,0.791162,5,0.1,16,1.5,0.3297,0.182232,0.605952,-0.1706,0.16932,-0.00563832,0.108747,0.065444,0.00357255,0.0103362,1.44075,5,0.1,17,1.5,1.06751,2.0579,0.569747,-0.783159,-0.732291,0.0258285,0.309531,0.289373,-0.0102036,0.0116668,0.725541,5,0.1,18,1.5,-1.69902,-4.84307,0.64839,-0.073641,0.866023,-0.0483821,0.0044778,2.98023e-05,0.00296906,0.00705348,2.26703,5,0.1,19,1.5,0.416241,-1.86211,0.721773,0.459246,-0.510655,0.0267934,-0.292739,0.325486,-0.0170842,0.0091612,0.224269,5,0.1
0,1.6,1.77339,1.61577,0.625528,0.408676,-0.112686,-0.0248432,-0.086844,0.0916123,0.0202358,0.0171652,0.182858,5,0.1,1,1.6,-0.31081,0.452338,0.500027,0.0105195,0.595466,0.000184774,-0.00852346,0.319496,-0.000327826,0.00895888,0.531371,5,0.1,2,1.6,-1.64596,-1.92067,0.598637,-0.340638,-0.480759,0.00132471,0.131905,0.898659,-0.00104308,0.00875219,0.292861,5,0.1,3,1.6,-2.18835,2.25246,0.628519,-0.8259,0.00445843,-0.0142768,0.278711,-0.00321865,0.010848,0.00773709,0.484101,5,0.1,4,1.6,1.13549,-2.97495,0.627456,-0.827476,0.620741,-0.0418127,0.0312924,-0.112534,0.0429749,0.00972753,1.07813,5,0.1,5,1.6,-2.61995,-3.42176,0.538145,0.293273,-0.206268,-0.0284076,-0.105619,0.0742674,0.0101924,0.0074897,0.0597777,5,0.1,6,1.6,-1.56755,-1.22358,0.50001,-0.342903,-0.866026,0.000149012,-0.263035,0,0.00119209,0.0112804,2.21862,5,0.1,7,1.6,1.17724,4.81089,1.01508,0.0221342,-0.44862,0.326008,-0.017941,0.36478,-0.265121,0.0237269,0.200923,5,0.1,8,1.6,1.64524,4.57636,1.05282,0.00463128,-0.366354,0.289276,-0.00375509,0.297785,-0.235319,0.0232966,0.134047,5,0.1,9,1.6,-3.20053,-3.8341,0.576475,0.0110567,0.0977874,0.0273615,-0.179768,-0.0350475,-0.00980496,0.0267125,0.497774,5,0.1,10,1.6,0.665092,-3.01031,1.00381,-0.713634,0.0100434,0.336862,0.449359,-0.00822544,-0.273526,0.0100743,0.287386,5,0.1,11,1.6,-4.50337,-3.24303,0.59475,-0.236034,-0.313693,0.0170529,0.084877,0.112653,-0.00610948,0.00866945,0.0713883,5,0.1,12,1.6,1.48079,5.05025,0.553175,-0.324291,-0.427794,-0.00306517,0.263751,0.347853,0.00247359,0.0119502,0.103702,5,0.1,13,1.6,-1.9826,4.13582,0.630191,0.866026,-0.242019,-0.0207067,-5.96046e-05,-0.00309944,0.00530481,0.0251352,1.89363,5,0.1,14,1.6,-3.44265,-4.3,0.829434,0.0296354,0.774968,0.139435,-0.0655651,-0.222206,-0.0089705,0.0198165,2.39013,5,0.1,15,1.6,-0.9705,4.47097,0.618901,0.714558,-0.758517,-0.0164539,-0.400543,0.425339,0.00920892,0.017855,0.531576,5,0.1,16,1.6,0.313209,0.2,0.605407,-0.158875,0.191087,-0.00525117,0.129223,0.358857,0.00423193,0.00856556,1.28573,5,0.1,17,1.6,0.990923,1.98629,0.572272,-0.746287,-0.697818,0.0246122,0.446349,0.417352,-0.0146925,0.00931738,0.485211,5,0.1,18,1.6,-1.70635,-4.75646,0.643576,-0.0726879,0.866032,-0.0477523,0.0174642,-0.000238419,0.0114739,0.00823498,2.30552,5,0.1,19,1.6,0.460634,-1.91147,0.724363,0.427683,-0.475562,0.0249505,-0.347838,0.386834,-0.0202656,0.00988505,0.2342,5,0.1
0,1.7,1.81394,1.60493,0.62314,0.402927,-0.104097,-0.0229469,-0.0491217,0.0832304,0.0183731,0.0171652,0.182858,5,0.1,1,1.7,-0.309798,0.513466,0.500043,0.00972003,0.626107,0.000130665,-0.00775233,0.260787,-0.00070408,0.00895888,0.531371,5,0.1,2,1.7,-1.67943,-1.96429,0.598764,-0.329149,-0.393336,0.00122637,0.111781,0.802562,-0.000953674,0.00875219,0.292861,5,0.1,3,1.7,-2.26967,2.25289,0.627143,-0.800857,0.00415333,-0.0132572,0.254333,-0.00299513,0.00993907,0.00773709,0.484101,5,0.1,4,1.7,1.05275,-2.91335,0.623491,-0.827683,0.611254,-0.0374612,0.00591949,-0.103727,0.0443123,0.00972753,1.07813,5,0.1,5,1.7,-2.59106,-3.44208,0.535347,0.284914,-0.20039,-0.0276009,-0.0761896,0.0535697,0.00735372,0.0074897,0.0597777,5,0.1,6,1.7,-1.60314,-1.31012,0.500028,-0.368264,-0.863731,0.000196975,-0.223324,0.0696182,-0.000122935,0.0112804,2.21862,5,0.1,7,1.7,1.17937,4.76761,1.04642,0.0204518,-0.418786,0.301154,-0.0163168,0.253886,-0.240862,0.0237269,0.200923,5,0.1,8,1.7,1.64569,4.54097,1.08077,0.0043435,-0.34351,0.271223,-0.00227243,0.180572,-0.142679,0.0232966,0.134047,5,0.1,9,1.7,-3.20023,-3.82449,0.579162,-0.0040289,0.0942349,0.0263674,-0.116065,-0.0389218,-0.0109002,0.0267125,0.497774,5,0.1,10,1.7,0.595848,-3.00935,1.03619,-0.671945,0.00927299,0.311217,0.407305,-0.00745058,-0.248566,0.0100743,0.287386,5,0.1,11,1.7,-4.52662,-3.27393,0.59643,-0.229319,-0.304779,0.0165693,0.0611842,0.0812411,-0.00441074,0.00866945,0.0713883,5,0.1,12,1.7,1.44961,5.00913,0.55288,-0.299566,-0.395186,-0.0028329,0.239603,0.315994,0.00225753,0.0119502,0.103702,5,0.1,13,1.7,-1.896,4.11155,0.628142,0.866025,-0.243333,-0.020298,1.49012e-05,-0.0106096,0.00383705,0.0251352,1.89363,5,0.1,14,1.7,-3.44023,-4.2227,0.843462,0.0168633,0.778124,0.142055,-0.175223,0.203401,0.0479631,0.0198165,2.39013,5,0.1,15,1.7,-0.90095,4.39714,0.617299,0.676823,-0.718448,-0.0155863,-0.376586,0.399858,0.0086613,0.017855,0.531576,5,0.1,16,1.7,0.297937,0.220784,0.604902,-0.146762,0.223688,-0.00485415,0.117397,0.303399,0.00385568,0.00856556,1.28573,5,0.1,17,1.7,0.918421,1.91849,0.574664,-0.704202,-0.658466,0.0232263,0.41816,0.391006,-0.0137798,0.00931738,0.485211,5,0.1,18,1.7,-1.71356,-4.66994,0.638842,-0.0715896,0.863156,-0.0470302,0.00844896,-0.0811517,0.00556186,0.00823498,2.30552,5,0.1,19,1.7,0.501902,-1.95718,0.726762,0.39952,-0.439298,0.0230505,-0.236977,0.351422,-0.0184216,0.00988505,0.2342,5,0.1
0,1.8,1.85391,1.59495,0.620938,0.395286,-0.0955194,-0.0210553,-0.118434,0.0903606,0.0199676,0.0179909,0.12959,5,0.1,1,1.8,-0.308866,0.577066,0.500053,0.00892133,0.642177,5.21541e-05,-0.00844896,0.0386536,-0.000804663,0.0108508,0.369701,5,0.1,2,1.8,-1.71173,-2,0.598882,-0.315931,-0.324887,0.00112653,0.162244,0.567198,-0.00104308,0.00814101,0.228516,5,0.1,3,1.8,-2.34831,2.25329,0.625868,-0.769621,0.00383854,-0.0122219,0.392437,-0.00345707,0.0110567,0.00760106,0.331105,5,0.1,4,1.8,0.970243,-2.85291,0.61997,-0.819305,0.595534,-0.0329122,0.190228,-0.228763,0.0467896,0.00984734,0.752494,5,0.1,5,1.8,-2.563,-3.46182,0.532629,0.27557,-0.193816,-0.0266969,-0.120759,0.084877,0.0116825,0.0077917,0.0266465,5,0.1,6,1.8,-1.64088,-1.39584,0.500046,-0.384071,-0.847051,0.000144541,-0.0787377,0.290871,-0.000804663,0.0123725,2.37351,5,0.1,7,1.8,1.18133,4.72697,1.07531,0.0187695,-0.39407,0.276336,-0.0177026,0.2563,-0.261486,0.0255677,0.153037,5,0.1,8,1.8,1.64611,4.50747,1.10722,0.00412762,-0.326526,0.257802,-0.00214577,0.174999,-0.137985,0.0236413,0.215577,5,0.1,9,1.8,-3.20107,-3.81529,0.581737,-0.0113606,0.0895202,0.0250474,-0.0287294,-0.0573397,-0.0160635,0.0254762,0.40542,5,0.1,10,1.8,0.530773,-3.00846,1.06605,-0.628328,0.00850558,0.285602,0.480711,-0.00810623,-0.270069,0.00958927,0.192574,5,0.1,11,1.8,-4.5492,-3.30395,0.598062,-0.221801,-0.294805,0.0160292,0.0970364,0.129104,-0.00706315,0.00807304,0.0318227,5,0.1,12,1.8,1.42087,4.97121,0.552608,-0.274882,-0.362623,-0.00259876,0.260174,0.343323,0.00241399,0.00814216,0.117417,5,0.1,13,1.8,-1.80939,4.08724,0.626136,0.866026,-0.242031,-0.0197738,-5.96046e-05,0.0457764,0.00733137,0.023456,1.46636,5,0.1,14,1.8,-3.43951,-4.14372,0.85791,-0.00279546,0.801384,0.146703,-0.206709,0.20051,0.0351369,0.0202184,2.29931,5,0.1,15,1.8,-0.83526,4.32741,0.615786,0.635487,-0.674558,-0.0146359,-0.465363,0.494003,0.010699,0.0160309,0.487745,5,0.1,16,1.8,0.283857,0.244628,0.604436,-0.134666,0.252793,-0.00445694,0.127465,0.278748,0.00420213,0.00974659,1.1292,5,0.1,17,1.8,0.850197,1.8547,0.576914,-0.658835,-0.616047,0.0217304,0.504553,0.47183,-0.0166297,0.00898299,0.330299,5,0.1,18,1.8,-1.72066,-4.58432,0.634174,-0.0703245,0.84573,-0.0461996,0.0196099,-0.283718,0.0129342,0.00812477,2.46774,5,0.1,19,1.8,0.540708,-1.99933,0.728973,0.376567,-0.403094,0.0211537,-0.237763,0.381589,-0.020057,0.00805889,0.164363,5,0.1
0,1.9,1.89292,1.58582,0.618927,0.385243,-0.087147,-0.0192063,-0.0993013,0.079684,0.0175908,0.0179909,0.12959,5,0.1,1,1.9,-0.308014,0.641467,0.500054,0.0081386,0.645067,-1.72295e-05,-0.00744872,-0.00704825,-0.000584871,0.0108508,0.369701,5,0.1,2,1.9,-1.74257,-2.03016,0.59899,-0.301169,-0.282733,0.00102948,0.144355,0.303701,-0.000931323,0.00814101,0.228516,5,0.1,3,1.9,-2.42343,2.25365,0.624698,-0.733316,0.00351705,-0.0111954,0.360027,-0.00308454,0.00981241,0.00760106,0.331105,5,0.1,4,1.9,0.889162,-2.79442,0.616906,-0.802483,0.574382,-0.0284204,0.179555,-0.215888,0.04334,0.00984734,0.752494,5,0.1,5,1.9,-2.53605,-3.48077,0.530018,0.263143,-0.18508,-0.025494,-0.135183,0.0950843,0.0130981,0.0077917,0.0266465,5,0.1,6,1.9,-1.67973,-1.4788,0.500056,-0.392917,-0.808905,6.28643e-05,-0.0772476,0.478305,-0.000800937,0.0123725,2.37351,5,0.1,7,1.9,1.18313,4.68912,1.10171,0.0171289,-0.360687,0.25211,-0.0156164,0.392079,-0.230558,0.0255677,0.153037,5,0.1,8,1.9,1.64652,4.476,1.13239,0.00394415,-0.300612,0.246051,-0.00169128,0.315398,-0.108138,0.0236413,0.215577,5,0.1,9,1.9,-3.20228,-3.80665,0.584155,-0.0117574,0.0831194,0.0232547,0.0323206,-0.0711083,-0.0199117,0.0254762,0.40542,5,0.1,10,1.9,0.470207,-3.00764,1.09333,-0.583849,0.00775531,0.260579,0.427904,-0.00715256,-0.238158,0.00958927,0.192574,5,0.1,11,1.9,-4.57089,-3.33278,0.599629,-0.211812,-0.281518,0.0153033,0.108749,0.144586,-0.00788271,0.00807304,0.0318227,5,0.1,12,1.9,1.39449,4.93641,0.552358,-0.254443,-0.335651,-0.00240877,0.164367,0.216931,0.00153482,0.00814216,0.117417,5,0.1,13,1.9,-1.72279,4.06324,0.624191,0.86584,-0.238067,-0.0191258,-0.00739843,0.043571,0.00641495,0.023456,1.46636,5,0.1,14,1.9,-3.4406,-4.06221,0.872745,-0.0170603,0.830964,0.149702,-0.0860393,0.330403,0.0186488,0.0202184,2.29931,5,0.1,15,1.9,-0.773919,4.26214,0.614374,0.592039,-0.632881,-0.0136368,-0.422291,0.369251,0.00970811,0.0160309,0.487745,5,0.1,16,1.9,0.27115,0.271053,0.60401,-0.118412,0.275151,-0.00406774,0.191402,0.237464,0.00370666,0.00974659,1.1292,5,0.1,17,1.9,0.786707,1.79564,0.579008,-0.611753,-0.563359,0.0201782,0.456151,0.578307,-0.0150427,0.00898299,0.330299,5,0.1,18,1.9,-1.72762,-4.50213,0.629603,-0.0689946,0.790527,-0.0453214,0.0107288,-0.739157,0.00708923,0.00812477,2.46774,5,0.1,19,1.9,0.577326,-2.03783,0.730994,0.356865,-0.367742,0.0192961,-0.173584,0.336424,-0.0176728,0.00805889,0.164363,5,0.1
0,2,1.93086,1.57751,0.617095,0.372577,-0.079146,-0.0174403,-0.165701,0.0822544,0.01809,0.0169857,0.154515,5,0.1,1,2,-0.307237,0.705689,0.50005,0.00739098,0.636405,-6.55651e-05,-0.007689,-0.183612,-0.000357628,0.0085926,0.25048,5,0.1,2,2,-1.77192,-2.05716,0.599088,-0.285143,-0.259227,0.000935793,0.18388,0.188112,-0.000953674,0.00863172,0.169918,5,0.1,3,2,-2.49484,2.25399,0.623628,-0.693178,0.00320673,-0.0102028,0.460625,-0.00333786,0.010252,0.00849173,0.223588,5,0.1,4,2,0.810016,-2.73819,0.614277,-0.777785,0.548732,-0.0241935,0.337124,-0.311852,0.0413358,0.00756508,0.513904,5,0.1,5,2,-2.51049,-3.49875,0.527541,0.247318,-0.17395,-0.0239626,-0.185966,0.130773,0.0180602,0.00718761,0.00997045,5,0.1,6,2,-1.71927,-1.55695,0.500059,-0.395992,-0.750589,-1.3411e-05,0.0301003,0.689805,-0.000685453,0.0108359,2.59685,5,0.1,7,2,1.18476,4.65511,1.12577,0.0155598,-0.318754,0.228956,-0.0161529,0.434637,-0.237823,0.0215724,0.235472,5,0.1,8,2,1.6469,4.44757,1.15643,0.00375807,-0.267756,0.234291,-0.00214577,0.326395,-0.134885,0.0250502,0.161707,5,0.1,9,2,-3.20313,-3.79872,0.586374,-0.00352859,0.0752389,0.0210494,0.134468,-0.0864267,-0.0242293,0.0261974,0.808694,5,0.1,10,2,0.414001,-3.0069,1.1182,-0.539539,0.00704527,0.23666,0.471354,-0.00751019,-0.24569,0.00928868,0.128893,5,0.1,11,2,-4.59147,-3.36013,0.601116,-0.19908,-0.264591,0.0143811,0.149488,0.19896,-0.0108182,0.00836476,0.0119076,5,0.1,12,2,1.36981,4.90386,0.552125,-0.239277,-0.315642,-0.00226647,0.150561,0.198841,0.00143051,0.0091878,0.0676941,5,0.1,13,2,-1.63631,4.03971,0.622315,0.86306,-0.2316,-0.0183582,-0.059247,0.092268,0.00947714,0.0214732,1.10301,5,0.1,14,2,-3.44259,-3.97764,0.88774,-0.0213742,0.857687,0.149406,-0.00667572,0.166774,-0.0286102,0.0197021,2.265,5,0.1,15,2,-0.71688,4.20069,0.61306,0.547883,-0.595617,-0.0126213,-0.473589,0.397444,0.0109076,0.0155005,0.341296,5,0.1,16,2,0.260328,0.3,0.603622,-0.0975214,0.306185,-0.003694,0.221223,0.373155,0.00378489,0.00952579,0.941381,5,0.1,17,2,0.727859,1.74235,0.580949,-0.564398,-0.501129,0.018616,0.503957,0.662386,-0.0166297,0.00794687,0.37093,5,0.1,18,2,-1.73445,-4.42702,0.625113,-0.067541,0.710595,-0.0443622,0.0209808,-0.813484,0.0137985,0.00899331,2.16059,5,0.1,19,2,0.612135,-2.07293,0.732835,0.338891,-0.333959,0.0175223,-0.198156,0.346899,-0.018239,0.00856575,0.114339,5,0.1
0,2.1,1.9676,1.56994,0.615428,0.364408,-0.0726366,-0.0160095,-0.0269786,0.0524744,0.0115298,0.0169857,0.154515,5,0.1,1,2.1,-0.306534,0.768437,0.500042,0.00668508,0.618275,-8.96864e-05,-0.00663288,-0.20045,-0.000137836,0.0085926,0.25048,5,0.1,2,2.1,-1.79957,-2.08242,0.599177,-0.268216,-0.247959,0.000847876,0.164017,0.0588745,-0.000834465,0.00863172,0.169918,5,0.1,3,2.1,-2.56198,2.2543,0.622656,-0.650449,0.00290014,-0.0092594,0.415772,-0.00287592,0.00889599,0.00849173,0.223588,5,0.1,4,2.1,0.73382,-2.68479,0.612055,-0.746458,0.519659,-0.0203345,0.316702,-0.287414,0.0361428,0.00756508,0.513904,5,0.1,5,2.1,-2.48671,-3.51548,0.525237,0.228011,-0.160372,-0.0220886,-0.203297,0.142962,0.0197254,0.00718761,0.00997045,5,0.1,6,2.1,-1.75892,-1.62855,0.500054,-0.398582,-0.681093,-6.72415e-05,-0.0536889,0.708438,-0.000402331,0.0108359,2.59685,5,0.1,7,2.1,1.18631,4.62551,1.14754,0.0161644,-0.273471,0.207122,0.0231117,0.420868,-0.205204,0.0215724,0.235472,5,0.1,8,2.1,1.64727,4.42244,1.17921,0.00355337,-0.235726,0.221459,-0.00206381,0.277162,-0.128828,0.0250502,0.161707,5,0.1,9,2.1,-3.2028,-3.79162,0.588359,0.01189,0.0666745,0.0186492,0.234798,-0.0854433,-0.0239313,0.0261974,0.808694,5,0.1,10,2.1,0.362266,-3.00624,1.14071,-0.496136,0.00635907,0.214102,0.412602,-0.0064373,-0.212014,0.00928868,0.128893,5,0.1,11,2.1,-4.61062,-3.38557,0.602499,-0.183555,-0.243936,0.0132584,0.163555,0.217497,-0.0118203,0.00836476,0.0119076,5,0.1,12,2.1,1.34655,4.87317,0.551904,-0.22648,-0.298744,-0.00214428,0.115737,0.152797,0.00111014,0.0091878,0.0676941,5,0.1,13,2.1,-1.55005,4.01698,0.620523,0.863451,-0.223022,-0.0174891,0.0221208,0.0875145,0.00854582,0.0214732,1.10301,5,0.1,14,2.1,-3.44465,-3.89136,0.902562,-0.0190202,0.865505,0.147127,0.0481457,0.0208467,-0.023663,0.0197021,2.265,5,0.1,15,2.1,-0.664329,4.14307,0.611849,0.504032,-0.556785,-0.0116114,-0.419099,0.393391,0.00965595,0.0155005,0.341296,5,0.1,16,2.1,0.251706,0.333014,0.60327,-0.0747975,0.35794,-0.00334578,0.228907,0.604905,0.00327453,0.00952579,0.941381,5,0.1,17,2.1,0.673799,1.69584,0.582732,-0.51778,-0.426998,0.0170776,0.444382,0.784077,-0.0146665,0.00794687,0.37093,5,0.1,18,2.1,-1.74112,-4.36014,0.620736,-0.065814,0.629004,-0.0432262,0.0165552,-0.700086,0.0108927,0.00899331,2.16059,5,0.1,19,2.1,0.645136,-2.10469,0.734501,0.321795,-0.30211,0.0158483,-0.157725,0.29932,-0.0157207,0.00856575,0.114339,5,0.1
0,2.2,2.00394,1.56292,0.61388,0.362104,-0.0678599,-0.0149608,-0.0405312,0.046432,0.0102222,0.016221,0.0925882,5,0.1,1,2.2,-0.305898,0.829092,0.500033,0.0060305,0.592741,-9.53674e-05,-0.00664592,-0.324517,2.98023e-05,0.00967356,0.167403,5,0.1,2,2.2,-1.82554,-2.10698,0.599258,-0.25076,-0.243676,0.00076592,0.19145,0.0429153,-0.000864267,0.0103972,0.125713,5,0.1,3,2.2,-2.62488,2.25457,0.621774,-0.606346,0.00261664,-0.00837594,0.481248,-0.00286102,0.0090003,0.00777651,0.150046,5,0.1,4,2.2,0.660906,-2.63434,0.610196,-0.709864,0.488257,-0.0169143,0.433594,-0.35274,0.0325441,0.00777945,0.346325,5,0.1,5,2.2,-2.46497,-3.53077,0.523132,0.206178,-0.145018,-0.019972,-0.235081,0.165343,0.0227988,0.00731715,0.00494471,5,0.1,6,2.2,-1.799,-1.69303,0.500046,-0.401887,-0.607604,-9.53674e-05,0.0077486,0.766098,-0.000178814,0.0104282,2.86646,5,0.1,7,2.2,1.18808,4.6,1.16724,0.0192702,-0.239623,0.18684,0.0351071,0.255346,-0.204921,0.0251979,0.20511,5,0.1,8,2.2,1.64761,4.4,1.20067,0.00332594,-0.21559,0.207341,-0.0025034,0.130415,-0.15831,0.0232718,0.310717,5,0.1,9,2.2,-3.2,-3.78538,0.590104,0.0483334,0.0580668,0.0162378,0.482082,-0.0870228,-0.0243485,0.0248394,1.57908,5,0.1,10,2.2,0.314724,-3.00563,1.16108,-0.45433,0.00572801,0.193143,0.434518,-0.00631809,-0.211656,0.0116659,0.149116,5,0.1,11,2.2,-4.62811,-3.40883,0.603763,-0.165999,-0.220579,0.011988,0.189304,0.251412,-0.0136495,0.0089772,0.00590477,5,0.1,12,2.2,1.32449,4.84408,0.551696,-0.214359,-0.282741,-0.00202805,0.133991,0.176668,0.0012815,0.00785608,0.0522225,5,0.1,13,2.2,-1.46375,3.99517,0.61882,0.860053,-0.212711,-0.0165403,-0.119448,0.124216,0.0108778,0.0230866,0.800816,5,0.1,14,2.2,-3.44626,-3.80477,0.91712,-0.0127494,0.866026,0.143547,0.0728369,0,-0.0525415,0.0183804,2.2613,5,0.1,15,2.2,-0.616036,4.08945,0.610737,0.461416,-0.514591,-0.010629,-0.443995,0.460148,0.0101924,0.0140942,0.426023,5,0.1,16,2.2,0.245354,0.37183,0.602952,-0.0525068,0.417245,-0.00302047,0.213586,0.53902,0.00327826,0.00793892,0.735497,5,0.1,17,2.2,0.624251,1.65703,0.584366,-0.472818,-0.350034,0.0155941,0.4659,0.73415,-0.015378,0.00893138,0.462087,5,0.1,18,2.2,-1.7476,-4.3,0.616476,-0.0637203,0.581336,-0.0418499,0.0274181,-0.264406,0.0180006,0.0109692,1.80734,5,0.1,19,2.2,0.6765,-2.13342,0.736008,0.304969,-0.272524,0.0142947,-0.188589,0.298738,-0.015676,0.00863676,0.136478,5,0.1
0,2.3,2.04003,1.55634,0.612429,0.360251,-0.0639396,-0.0140981,-0.0155717,0.0349805,0.00769272,0.016221,0.0925882,5,0.1,1,2.3,-0.305326,0.886808,0.500023,0.00542519,0.561759,-8.69855e-05,-0.0056345,-0.312962,0.00012666,0.00967356,0.167403,5,0.1,2,2.3,-1.84972,-2.13127,0.59933,-0.233121,-0.243,0.000687409,0.169076,-0.0124723,-0.000733882,0.0103972,0.125713,5,0.1,3,2.3,-2.68324,2.25482,0.620979,-0.561862,0.00235587,-0.00755405,0.42659,-0.00244379,0.00767037,0.00777651,0.150046,5,0.1,4,2.3,0.59197,-2.58718,0.608658,-0.66945,0.455486,-0.0139365,0.397235,-0.317514,0.0272915,0.00777945,0.346325,5,0.1,5,2.3,-2.44551,-3.54445,0.521247,0.18296,-0.128686,-0.0177207,-0.231639,0.162929,0.0224523,0.00731715,0.00494471,5,0.1,6,2.3,-1.83878,-1.7502,0.500036,-0.390177,-0.537787,-0.000103097,0.218876,0.646293,1.11759e-05,0.0104282,2.86646,5,0.1,7,2.3,1.19015,4.5773,1.18497,0.0219263,-0.214542,0.168163,0.0178814,0.246316,-0.173934,0.0251979,0.20511,5,0.1,8,2.3,1.64793,4.37919,1.22058,0.00305772,-0.199736,0.190456,-0.00289083,0.185341,-0.180691,0.0232718,0.310717,5,0.1,9,2.3,-3.19172,-3.78,0.59161,0.12561,0.0497945,0.0139236,0.981286,-0.079006,-0.0221021,0.0248394,1.57908,5,0.1,10,2.3,0.271106,-3.00508,1.17949,-0.420892,0.00522994,0.176408,0.261904,-0.00397861,-0.134327,0.0116659,0.149116,5,0.1,11,2.3,-4.64378,-3.42964,0.604894,-0.147302,-0.195746,0.0106395,0.186533,0.247762,-0.013452,0.0089772,0.00590477,5,0.1,12,2.3,1.30364,4.81657,0.551498,-0.203438,-0.268343,-0.0019229,0.0951961,0.125468,0.000920147,0.00785608,0.0522225,5,0.1,13,2.3,-1.37815,3.97448,0.617217,0.85278,-0.201114,-0.0155357,-0.0688732,0.114515,0.00974908,0.0230866,0.800816,5,0.1,14,2.3,-3.44713,-3.71816,0.931258,-0.00438467,0.866026,0.139487,0.0902414,0,-0.0356846,0.0183804,2.2613,5,0.1,15,2.3,-0.571983,4.0407,0.609722,0.420603,-0.456803,-0.00969162,-0.385411,0.670537,0.00885502,0.0140942,0.426023,5,0.1,16,2.3,0.24115,0.41642,0.602665,-0.0318663,0.475142,-0.00272114,0.196155,0.575052,0.00279397,0.00793892,0.735497,5,0.1,17,2.3,0.57916,1.62559,0.585853,-0.43004,-0.281199,0.0141822,0.40308,0.59583,-0.0133067,0.00893138,0.462087,5,0.1,18,2.3,-1.75385,-4.24209,0.612374,-0.0612615,0.585818,-0.0402356,0.024192,0.269324,0.0158846,0.0109692,1.80734,5,0.1,19,2.3,0.706326,-2.1594,0.737371,0.293669,-0.248905,0.0130558,-0.0612028,0.189573,-0.00993907,0.00863676,0.136478,5,0.1
0,2.4,2.07589,1.55012,0.611058,0.35575,-0.0603497,-0.0133082,-0.0874996,0.0388622,0.00855327,0.0143418,0.160027,5,0.1,1,2.4,-0.304811,0.94132,0.500015,0.00487417,0.527169,-7.15256e-05,-0.00548363,-0.390768,0.000178814,0.00873554,0.111513,5,0.1,2,2.4,-1.87217,-2.15561,0.599396,-0.215632,-0.243258,0.000616908,0.186026,0.0195503,-0.000745058,0.00899791,0.158098,5,0.1,3,2.4,-2.73727,2.25504,0.620261,-0.517952,0.00212193,-0.00680238,0.464082,-0.0025034,0.00759959,0.0101244,0.100548,5,0.1,4,2.4,0.527101,-2.54326,0.607394,-0.626628,0.422257,-0.0114068,0.474542,-0.356913,0.0235438,0.00896978,0.23192,5,0.1,5,2.4,-2.42839,-3.5565,0.519588,0.159502,-0.112182,-0.015448,-0.238776,0.167847,0.0231564,0.00956388,0.00153102,5,0.1,6,2.4,-1.87641,-1.80084,0.500026,-0.35964,-0.475588,-9.53674e-05,0.384271,0.609219,0.000149012,0.0111086,3.10353,5,0.1,7,2.4,1.1924,4.55706,1.20093,0.0228375,-0.190294,0.151145,0.000536442,0.238895,-0.170231,0.0225681,0.524521,5,0.1,8,2.4,1.64822,4.36022,1.23868,0.00274777,-0.178838,0.171027,-0.00333786,0.231028,-0.208378,0.0248276,0.306361,5,0.1,9,2.4,-3.17398,-3.7754,0.592894,0.23011,0.0421643,0.0117883,1.04606,-0.074029,-0.0206828,0.0271382,2.8863,5,0.1,10,2.4,0.230227,-3.00458,1.19651,-0.397142,0.0048697,0.164318,0.233501,-0.00333786,-0.115931,0.0090856,0.238549,5,0.1,11,2.4,-4.65757,-3.44796,0.60589,-0.128412,-0.170648,0.00927597,0.192404,0.255346,-0.0138581,0.00816027,0.00182844,5,0.1,12,2.4,1.28378,4.79037,0.551311,-0.193489,-0.255227,-0.00182688,0.111341,0.146866,0.00107288,0.00803486,0.0235457,5,0.1,13,2.4,-1.29342,3.95497,0.615714,0.839019,-0.188661,-0.0145003,-0.236094,0.139236,0.0112951,0.0283566,0.56353,5,0.1,14,2.4,-3.44712,-3.63156,0.945009,0.00456572,0.866026,0.135215,0.0853539,0,-0.0547469,0.0200972,2.26146,5,0.1,15,2.4,-0.531841,3.99856,0.608797,0.382103,-0.384897,-0.00880659,-0.393748,0.748634,0.00905991,0.0176689,0.377288,5,0.1,16,2.4,0.238894,0.466574,0.602407,-0.013797,0.524763,-0.00244677,0.163071,0.386283,0.00274181,0.0146258,0.546089,5,0.1,17,2.4,0.538157,1.6,0.587205,-0.389923,-0.235048,0.0128567,0.408679,0.331998,-0.0134408,0.0100829,0.411777,5,0.1,18,2.4,-1.75985,-4.18185,0.608437,-0.0584692,0.620329,-0.0384033,0.0332594,0.357151,0.0219047,0.0159976,1.41711,5,0.1,19,2.4,0.735437,-2.18342,0.738631,0.288595,-0.231844,0.0121623,-0.0577569,0.163555,-0.00861287,0.00940554,0.0826477,5,0.1
0,2.5,2.11132,1.54427,0.609768,0.35475,-0.0567423,-0.0125143,0.037834,0.0352189,0.00775233,0.0143418,0.160027,5,0.1,1,2.5,-0.30435,0.992175,0.500009,0.00437745,0.490466,-5.29923e-05,-0.00459515,-0.358235,0.000182539,0.00873554,0.111513,5,0.1,2,2.5,-1.89297,-2.18013,0.599454,-0.201693,-0.249361,0.000558328,0.106327,-0.11383,-0.000465661,0.00899791,0.158098,5,0.1,3,2.5,-2.78688,2.25524,0.619616,-0.475271,0.00189692,-0.00611311,0.40476,-0.00208616,0.00638142,0.0101244,0.100548,5,0.1,4,2.5,0.466681,-2.50272,0.606363,-0.582597,0.389284,-0.00928873,0.424853,-0.314906,0.0190623,0.00896978,0.23192,5,0.1,5,2.5,-2.41361,-3.56689,0.518158,0.136063,-0.0957027,-0.0131758,-0.230253,0.161916,0.0223145,0.00956388,0.00153102,5,0.1,6,2.5,-1.91015,-1.84559,0.500017,-0.312542,-0.421471,-7.79517e-05,0.541188,0.488691,0.00019744,0.0111086,3.10353,5,0.1,7,2.5,1.19466,4.5394,1.21525,0.0221271,-0.161956,0.135723,-0.0140369,0.296235,-0.142671,0.0225681,0.524521,5,0.1,8,2.5,1.64848,4.34362,1.25476,0.00242051,-0.152221,0.150639,-0.0032261,0.292897,-0.20089,0.0248276,0.306361,5,0.1,9,2.5,-3.14494,-3.77154,0.594758,0.356457,0.0352982,0.0320955,1.38915,-0.0638813,0.377271,0.0271382,2.8863,5,0.1,10,2.5,0.191471,-3.00411,1.21236,-0.379529,0.00453442,0.152727,0.140745,-0.00345707,-0.119105,0.0090856,0.238549,5,0.1,11,2.5,-4.66946,-3.46377,0.606749,-0.109527,-0.145579,0.00791512,0.18546,0.246286,-0.0133738,0.00816027,0.00182844,5,0.1,12,2.5,1.26497,4.76556,0.551133,-0.182695,-0.240991,-0.00172295,0.110202,0.145376,0.00105798,0.00803486,0.0235457,5,0.1,13,2.5,-1.21057,3.93677,0.614317,0.818438,-0.175722,-0.0134581,-0.210062,0.125214,0.0099875,0.0283566,0.56353,5,0.1,14,2.5,-3.44623,-3.54496,0.958311,0.0132781,0.866026,0.131195,0.0855476,0,-0.0328273,0.0200972,2.26146,5,0.1,15,2.5,-0.495476,3.96394,0.607958,0.346137,-0.307062,-0.00797855,-0.336597,0.773355,0.00775233,0.0176689,0.377288,5,0.1,16,2.5,0.238295,0.521006,0.602175,0.0014106,0.563254,-0.00219801,0.138852,0.34924,0.00230595,0.0146258,0.546089,5,0.1,17,2.5,0.501079,1.57808,0.588428,-0.352637,-0.203996,0.0116299,0.348303,0.292465,-0.0114627,0.0100829,0.411777,5,0.1,18,2.5,-1.76554,-4.11756,0.604699,-0.0554141,0.668451,-0.0363914,0.029847,0.540018,0.0196397,0.0159976,1.41711,5,0.1,19,2.5,0.763991,-2.20588,0.739809,0.282075,-0.218158,0.0114423,-0.081487,0.120714,-0.00634417,0.00940554,0.0826477,5,0.1
0,2.6,2.14699,1.53878,0.608557,0.358182,-0.0529796,-0.0116855,0.00917912,0.041306,0.00908971,0.0176062,0.138436,5,0.1,1,2.6,-0.303934,1.03938,0.500005,0.00393093,0.453013,-3.57628e-05,-0.00445545,-0.40096,0.000178814,0.0109383,0.163226,5,0.1,2,2.6,-1.91265,-2.20567,0.599508,-0.192007,-0.261194,0.00051707,0.097394,-0.102282,-0.00038743,0.00917825,0.10202,5,0.1,3,2.6,-2.83238,2.25542,0.619036,-0.434428,0.00169873,-0.00549108,0.422597,-0.00202656,0.00619888,0.0156907,0.116462,5,0.1,4,2.6,0.410588,-2.46538,0.605523,-0.538492,0.357181,-0.00754893,0.470088,-0.335574,0.0159442,0.0116868,0.261932,5,0.1,5,2.6,-2.40115,-3.57566,0.516951,0.113434,-0.0797927,-0.0109822,-0.222087,0.156403,0.0214875,0.0105113,0.000822334,5,0.1,6,2.6,-1.93855,-1.88539,0.50001,-0.254405,-0.375158,-5.81145e-05,0.607967,0.448942,0.000208616,0.012433,2.82234,5,0.1,7,2.6,1.19679,4.52459,1.22812,0.0201702,-0.135767,0.12185,-0.0244975,0.212193,-0.137985,0.0283843,0.47964,5,0.1,8,2.6,1.64871,4.3299,1.26882,0.00209808,-0.121748,0.130612,-0.00321865,0.309467,-0.20057,0.030605,0.488452,5,0.1,9,2.6,-3.1024,-3.76832,0.600174,0.491965,0.0292897,0.0784338,1.25313,-0.0568628,0.510961,0.0298869,0.561075,5,0.1,10,2.6,0.154216,-3.00367,1.22702,-0.365207,0.0041604,0.139976,0.161558,-0.00393391,-0.137925,0.0118561,0.395274,5,0.1,11,2.6,-4.6795,-3.47711,0.607475,-0.0913143,-0.121373,0.00660121,0.179052,0.237584,-0.0129342,0.0073521,0.0009821,5,0.1,12,2.6,1.24729,4.74224,0.550967,-0.170511,-0.224924,-0.00160635,0.137091,0.180721,0.0013411,0.0097717,0.0142186,5,0.1,13,2.6,-1.12996,3.91983,0.613022,0.791183,-0.162667,-0.0124276,-0.358641,0.139713,0.0109375,0.0212263,0.387606,5,0.1,14,2.6,-3.44449,-3.45836,0.971255,0.0211,0.866026,0.12742,0.0686646,0,-0.0477135,0.0199107,2.26167,5,0.1,15,2.6,-0.462524,3.93692,0.607199,0.312907,-0.235546,-0.00721365,-0.335753,0.638485,0.0077486,0.012978,0.335072,5,0.1,16,2.6,0.239075,0.578787,0.601966,0.0136074,0.588831,-0.00197291,0.103652,0.138849,0.00220537,0.0106459,0.386973,5,0.1,17,2.6,0.467532,1.5591,0.589535,-0.318345,-0.175959,0.0104994,0.345483,0.270724,-0.0113547,0.0085896,0.900141,5,0.1,18,2.6,-1.77092,-4.04815,0.601163,-0.052163,0.717092,-0.0342533,0.0365376,0.385284,0.0240207,0.00864318,1.06948,5,0.1,19,2.6,0.791693,-2.2271,0.740922,0.270848,-0.205892,0.0107989,-0.148714,0.131965,-0.00694394,0.00830706,0.199923,5,0.1
0,2.7,2.18289,1.5337,0.607435,0.359956,-0.0486165,-0.0107247,0.0089556,0.0463426,0.0102073,0.0176062,0.138436,5,0.1,1,2.7,-0.303838,1.08301,0.500002,-0.00431705,0.422003,-2.01166e-05,-0.143066,-0.245869,0.00013411,0.0109383,0.163226,5,0.1,2,2.7,-1.93124,-2.23237,0.599558,-0.178707,-0.273029,0.000485126,0.165761,-0.116363,-0.000271946,0.00917825,0.10202,5,0.1,3,2.7,-2.87405,2.25558,0.618513,-0.401827,0.00154078,-0.00500744,0.255838,-0.0012219,0.00381097,0.0156907,0.116462,5,0.1,4,2.7,0.358798,-2.43124,0.604842,-0.499577,0.326363,-0.00613742,0.333791,-0.291154,0.0125021,0.0116868,0.261932,5,0.1,5,2.7,-2.39089,-3.58287,0.515957,0.0920374,-0.0647269,-0.00891183,-0.205323,0.144541,0.0198707,0.0105113,0.000822334,5,0.1,6,2.7,-1.96094,-1.92099,0.500006,-0.193501,-0.339448,-3.86499e-05,0.600003,0.287026,0.000182539,0.012433,2.82234,5,0.1,7,2.7,1.19867,4.51195,1.23967,0.0174779,-0.119349,0.109408,-0.0288785,0.0758767,-0.114568,0.0283843,0.47964,5,0.1,8,2.7,1.6489,4.31934,1.28092,0.00179391,-0.0892915,0.111675,-0.00289828,0.325292,-0.179723,0.030605,0.488452,5,0.1,9,2.7,-3.04753,-3.76565,0.610084,0.599015,0.0241123,0.115196,0.867307,-0.0472069,0.236366,0.0298869,0.561075,5,0.1,10,2.7,0.118874,-3.00343,1.24035,-0.338269,-0.000662357,0.126795,0.363467,-0.0827312,-0.128493,0.0118561,0.395274,5,0.1,11,2.7,-4.68775,-3.48809,0.608072,-0.0740714,-0.098481,0.00535538,0.165433,0.219673,-0.0119545,0.0073521,0.0009821,5,0.1,12,2.7,1.2309,4.72062,0.550813,-0.157207,-0.207384,-0.00147689,0.13341,0.175953,0.00128895,0.0097717,0.0142186,5,0.1,13,2.7,-1.05252,3.90423,0.61183,0.758183,-0.149763,-0.0114225,-0.329573,0.123128,0.00952929,0.0212263,0.387606,5,0.1,14,2.7,-3.44204,-3.37175,0.983815,0.0278547,0.866026,0.124155,0.0635684,0,-0.0247695,0.0199107,2.26167,5,0.1,15,2.7,-0.432802,3.91631,0.606514,0.282403,-0.180149,-0.00650967,-0.28353,0.436172,0.00654534,0.012978,0.335072,5,0.1,16,2.7,0.240922,0.638358,0.601779,0.0229701,0.601822,-0.00177342,0.0819163,0.0936277,0.00184029,0.0106459,0.386973,5,0.1,17,2.7,0.437154,1.54299,0.590532,-0.291438,-0.14528,0.00946848,0.211939,0.325873,-0.00957772,0.0085896,0.900141,5,0.1,18,2.7,-1.77597,-3.97435,0.597851,-0.0487918,0.759318,-0.0320375,0.0325367,0.408337,0.0213832,0.00864318,1.06948,5,0.1,19,2.7,0.817757,-2.24707,0.741969,0.247923,-0.193733,0.01016,-0.298839,0.118032,-0.00619143,0.00830706,0.199923,5,0.1
0,2.8,2.21882,1.52908,0.606416,0.357056,-0.0436544,-0.00963211,-0.0789165,0.0529885,0.0116825,0.0142401,0.165176,5,0.1,1,2.8,-0.305096,1.12406,0.500001,-0.0215836,0.399226,-8.9407e-06,-0.188738,-0.229299,8.9407e-05,0.00849175,0.1008,5,0.1,2,2.8,-1.94819,-2.26016,0.599605,-0.159425,-0.281394,0.000457466,0.217021,-0.0383854,-0.000268221,0.00946663,0.0953388,5,0.1,3,2.8,-2.91305,2.25573,0.61803,-0.378668,0.00143647,-0.00467002,0.226736,-0.00107288,0.00318885,0.00821905,0.0678709,5,0.1,4,2.8,0.310455,-2.40005,0.604286,-0.467322,0.297195,-0.00501126,0.329837,-0.299454,0.0101626,0.00801722,0.186411,5,0.1,5,2.8,-2.38268,-3.58864,0.515162,0.0724673,-0.0509501,-0.00701845,-0.185728,0.130653,0.0180006,0.00982807,0.000703335,5,0.1,6,2.8,-1.97737,-1.95362,0.500003,-0.136152,-0.313947,-2.23517e-05,0.539601,0.239313,0.000119209,0.0111427,0.346919,5,0.1,7,2.8,1.20027,4.5,1.25005,0.0144839,-0.123489,0.0983,-0.0305772,-0.147581,-0.110209,0.0253035,0.653275,5,0.1,8,2.8,1.64907,4.31197,1.29121,0.00151694,-0.0590563,0.0944048,-0.00274181,0.270367,-0.166595,0.0337017,0.699085,5,0.1,9,2.8,-2.98407,-3.76347,0.622415,0.662261,0.019753,0.128002,0.386834,-0.0404119,0.030607,0.0253829,1.96592,5,0.1,10,2.8,0.0871027,-3.00398,1.25238,-0.295084,-0.0106454,0.113803,0.488259,-0.109315,-0.133216,0.00945986,0.384016,5,0.1,11,2.8,-4.69436,-3.49687,0.608549,-0.0583053,-0.0775397,0.00421554,0.149488,0.198603,-0.0107884,0.00821191,0.000839245,5,0.1,12,2.8,1.21587,4.7008,0.550672,-0.143114,-0.188804,-0.00134259,0.151098,0.199318,0.00146031,0.00793442,0.00451508,5,0.1,13,2.8,-0.978489,3.88987,0.610736,0.720523,-0.137246,-0.0104576,-0.442773,0.130415,0.00998378,0.0210161,0.263086,5,0.1,14,2.8,-3.43897,-3.28515,0.996096,0.0333309,0.866026,0.121236,0.0439882,0,-0.0388622,0.0186343,2.26188,5,0.1,15,2.8,-0.405955,3.9,0.605895,0.254626,-0.150639,-0.00586808,-0.278547,0.163913,0.0064075,0.0125861,0.45655,5,0.1,16,2.8,0.243582,0.698751,0.601611,0.0297196,0.602987,-0.00159442,0.0520498,-0.0886917,0.00178814,0.00968506,0.264977,5,0.1,17,2.8,0.408979,1.53007,0.591431,-0.272591,-0.113586,0.00853091,0.179321,0.29695,-0.00938773,0.00727658,1.12718,5,0.1,18,2.8,-1.78068,-3.89668,0.594756,-0.045377,0.790113,-0.0297934,0.0369549,0.172019,0.0242293,0.00810522,0.772273,5,0.1,19,2.8,0.840883,-2.26583,0.742953,0.213119,-0.181139,0.00949949,-0.387788,0.138521,-0.00727177,0.00879453,0.189909,5,0.1
0,2.9,2.25442,1.52496,0.605508,0.357015,-0.0387592,-0.00855289,0.0478923,0.0459477,0.0101328,0.0142401,0.165176,5,0.1,1,2.9,-0.308277,1.16296,0.5,-0.0425177,0.37983,-2.23517e-06,-0.218274,-0.176117,4.47035e-05,0.00849175,0.1008,5,0.1,2,2.9,-1.96296,-2.28857,0.59965,-0.135338,-0.287306,0.00043679,0.259712,-0.0611842,-0.000171363,0.00946663,0.0953388,5,0.1,3,2.9,-2.94993,2.25587,0.617577,-0.359854,0.00135005,-0.00440842,0.166982,-0.000715256,0.00226125,0.00821905,0.0678709,5,0.1,4,2.9,0.265183,-2.37173,0.603832,-0.439501,0.269846,-0.00412576,0.247166,-0.256211,0.00772625,0.00801722,0.186411,5,0.1,5,2.9,-2.37632,-3.59311,0.514547,0.0549771,-0.0386477,-0.00532372,-0.163496,0.114977,0.0158362,0.00982807,0.000703335,5,0.1,6,2.9,-1.98845,-1.98408,0.500001,-0.0871301,-0.297258,-1.11759e-05,0.44018,0.116102,9.68575e-05,0.0111427,0.346919,5,0.1,7,2.9,1.20157,4.4869,1.25937,0.0114543,-0.138292,0.0883983,-0.0297055,-0.138432,-0.0909045,0.0253035,0.653275,5,0.1,8,2.9,1.6492,4.30741,1.29986,0.00126436,-0.0329688,0.0790222,-0.00232458,0.223041,-0.142507,0.0337017,0.699085,5,0.1,9,2.9,-2.91617,-3.76204,0.636009,0.692426,0.00590682,0.149094,0.194937,-0.214279,0.344753,0.0253829,1.96592,5,0.1,10,2.9,0.0601958,-3.00565,1.26313,-0.241808,-0.0231016,0.101361,0.563281,-0.132456,-0.118077,0.00945986,0.384016,5,0.1,11,2.9,-4.69947,-3.50367,0.608919,-0.0442289,-0.0588343,0.00319928,0.131577,0.17491,-0.00949949,0.00821191,0.000839245,5,0.1,12,2.9,1.20232,4.68291,0.550545,-0.127969,-0.168826,-0.00119731,0.153288,0.202209,0.00146031,0.00793442,0.00451508,5,0.1,13,2.9,-0.908586,3.87676,0.609737,0.677672,-0.12521,-0.00954056,-0.433575,0.114143,0.0086613,0.0210161,0.263086,5,0.1,14,2.9,-3.43541,-3.19855,1.00808,0.0376429,0.866026,0.118811,0.0396222,0,-0.0167415,0.0186343,2.26188,5,0.1,15,2.9,-0.381789,3.88547,0.605338,0.229434,-0.142461,-0.00528842,-0.232982,0.0189841,0.00536442,0.0125861,0.45655,5,0.1,16,2.9,0.246791,0.75862,0.60146,0.0342065,0.593949,-0.0014334,0.0363532,-0.114307,0.00147894,0.00968506,0.264977,5,0.1,17,2.9,0.38246,1.52027,0.592241,-0.258958,-0.0828063,0.00768229,0.108643,0.281326,-0.00784546,0.00727658,1.12718,5,0.1,18,2.9,-1.78504,-3.81675,0.591891,-0.0419745,0.807977,-0.0275624,0.0324771,0.144869,0.02129,0.00810522,0.772273,5,0.1,19,2.9,0.86016,-2.28327,0.743868,0.171707,-0.167777,0.00879886,-0.430722,0.133023,-0.00697002,0.00879453,0.189909,5,0.1
0,3,2.29036,1.52131,0.604702,0.361401,-0.0342846,-0.00756532,0.0178814,0.044167,0.00974536,0.0122784,0.0995464,5,0.1,1,3,-0.313589,1.20004,0.5,-0.0632174,0.361028,0,-0.187188,-0.212312,2.98023e-05,0.0090007,0.139132,5,0.1,2,3,-1.97516,-2.31752,0.599693,-0.108412,-0.290477,0.000418723,0.274599,0.0106096,-0.000208616,0.00935657,0.148639,5,0.1,3,3,-2.98506,2.256,0.617147,-0.342298,0.00127554,-0.00417829,0.196576,-0.000715256,0.00247359,0.0094396,0.053001,5,0.1,4,3,0.22247,-2.34602,0.603455,-0.414366,0.244474,-0.00343621,0.270202,-0.257134,0.00625849,0.00721365,0.131076,5,0.1,5,3,-2.3716,-3.59643,0.51409,0.0398576,-0.0280142,-0.0038594,-0.13864,0.0975132,0.013411,0.00727538,0.000537244,5,0.1,6,3,-1.99513,-2.01328,0.5,-0.0481755,-0.286961,-2.98023e-06,0.338972,0.105619,5.96046e-05,0.00981268,0.155553,5,0.1,7,3,1.20257,4.47246,1.26777,0.00860095,-0.149477,0.0795871,-0.0272393,-0.0782013,-0.08744,0.0242702,0.645526,5,0.1,8,3,1.64932,4.30498,1.30708,0.00104606,-0.0184417,0.0656486,-0.00208616,0.0565052,-0.126064,0.0249704,1.19943,5,0.1,9,3,-2.84641,-3.76266,0.652846,0.697815,-0.0191391,0.188759,-0.100255,-0.269532,0.413001,0.0295753,0.233918,5,0.1,10,3,0.0388595,-3.00861,1.27268,-0.184917,-0.0358582,0.0897676,0.56364,-0.117064,-0.115395,0.0117439,0.377525,5,0.1,11,3,-4.70327,-3.50872,0.609194,-0.0320673,-0.042659,0.00232011,0.11158,0.148177,-0.00804663,0.00950518,0.000640864,5,0.1,12,3,1.1903,4.66706,0.550432,-0.112239,-0.14807,-0.00104904,0.162005,0.213623,0.00154972,0.00996751,0.00136807,5,0.1,13,3,-0.8431,3.86481,0.608826,0.630593,-0.113767,-0.00867397,-0.520766,0.117183,0.00885129,0.0222099,0.183665,5,0.1,14,3,-3.43148,-3.11195,1.01987,0.0408113,0.866026,0.116667,0.0219345,0,-0.0312328,0.0259812,2.26214,5,0.1,15,3,-0.359987,3.87121,0.604835,0.206713,-0.143433,-0.0047639,-0.2269,-0.0238419,0.0051856,0.0257033,0.656338,5,0.1,16,3,0.250359,0.817253,0.601324,0.0367768,0.576423,-0.00129044,0.0142753,-0.251025,0.00143051,0.0208116,0.177609,5,0.1,17,3,0.357094,1.51314,0.592971,-0.248228,-0.0626594,0.00691861,0.117049,0.105619,-0.00762939,0.0131082,2.07371,5,0.1,18,3,-1.78907,-3.73555,0.589243,-0.0386506,0.812298,-0.0253811,0.0349879,-0.0858307,0.022918,0.0150769,0.537804,5,0.1,19,3,0.875173,-2.29936,0.744712,0.128706,-0.153816,0.00806749,-0.421762,0.149012,-0.00780821,0.0120645,0.277412,5,0.1
0,3.1,2.32666,1.51809,0.603992,0.364779,-0.0301642,-0.00665635,0.0301003,0.0389293,0.00859052,0.0122784,0.0995464,5,0.1,1,3.1,-0.321009,1.23513,0.5,-0.0863271,0.341001,1.39698e-06,-0.256334,-0.19943,3.72529e-06,0.0090007,0.139132,5,0.1,2,3.1,-1.98463,-2.34641,0.599733,-0.0809405,-0.28618,0.000396185,0.269726,0.0801235,-0.00025332,0.00935657,0.148639,5,0.1,3,3.1,-3.01846,2.25613,0.61674,-0.326711,0.00122264,-0.00398643,0.133172,-0.000417233,0.00159442,0.0094396,0.053001,5,0.1,4,3.1,0.182252,-2.32277,0.603139,-0.390888,0.221105,-0.00290005,0.216021,-0.217497,0.00460818,0.00721365,0.131076,5,0.1,5,3.1,-2.36827,-3.59877,0.513767,0.0271387,-0.0190686,-0.00262894,-0.115424,0.0811666,0.0111684,0.00727538,0.000537244,5,0.1,6,3.1,-1.99838,-2.04164,0.5,-0.018145,-0.281698,9.31323e-07,0.261344,0.0201017,2.23517e-05,0.00981268,0.155553,5,0.1,7,3.1,1.2033,4.45741,1.27532,0.00601728,-0.148952,0.0717495,-0.0242218,0.0780225,-0.0718683,0.0242702,0.645526,5,0.1,8,3.1,1.64941,4.30327,1.31306,0.000857376,-0.0192381,0.0542095,-0.00170618,-0.142366,-0.104018,0.0249704,1.19943,5,0.1,9,3.1,-2.77736,-3.76574,0.673486,0.680613,-0.0407685,0.220999,-0.25408,-0.165388,0.230648,0.0295753,0.233918,5,0.1,10,3.1,0.0231603,-3.01279,1.28111,-0.129673,-0.0477064,0.0791535,0.527806,-0.114307,-0.0990182,0.0117439,0.377525,5,0.1,11,3.1,-4.70595,-3.51229,0.609388,-0.0218332,-0.029061,0.00158167,0.092864,0.123441,-0.00670925,0.00950518,0.000640864,5,0.1,12,3.1,1.17988,4.65331,0.550335,-0.0961995,-0.126918,-0.000896677,0.158809,0.209421,0.00149757,0.00996751,0.00136807,5,0.1,13,3.1,-0.782662,3.85399,0.608,0.577765,-0.10271,-0.00785813,-0.543985,0.106454,0.00769645,0.0222099,0.183665,5,0.1,14,3.1,-3.42728,-3.02534,1.03143,0.0430584,0.866026,0.114923,0.0204444,0,-0.0106394,0.0259812,2.26214,5,0.1,15,3.1,-0.34037,3.85693,0.604383,0.186266,-0.140295,-0.004296,-0.188433,0.0802726,0.00432134,0.0257033,0.656338,5,0.1,16,3.1,0.254095,0.873687,0.601201,0.0377942,0.552262,-0.0011622,0.00497326,-0.250544,0.00118092,0.0208116,0.177609,5,0.1,17,3.1,0.332764,1.50728,0.593627,-0.23899,-0.0585796,0.00623148,0.0799019,-0.122346,-0.00632554,0.0131082,2.07371,5,0.1,18,3.1,-1.79278,-3.6547,0.586812,-0.0354419,0.804187,-0.0232785,0.0303462,-0.108957,0.0198893,0.0150769,0.537804,5,0.1,19,3.1,0.886001,-2.31404,0.745482,0.0886505,-0.140131,0.00735102,-0.373948,0.129312,-0.00676885,0.0120645,0.277412,5,0.1
0,3.2,2.36318,1.51527,0.603369,0.364113,-0.026381,-0.00582039,-0.0567436,0.0371933,0.00816584,0.0174444,0.0769911,5,0.1,1,3.2,-0.330912,1.26818,0.5,-0.111239,0.319269,1.49012e-06,-0.228152,-0.24277,0,0.0109699,0.111296,5,0.1,2,3.2,-1.99141,-2.37449,0.599772,-0.0553429,-0.273722,0.000368059,0.238657,0.171423,-0.000327826,0.0100994,0.200807,5,0.1,3,3.2,-3.05045,2.25625,0.616349,-0.312591,0.00117421,-0.00381917,0.161886,-0.000476837,0.00187755,0.00998921,0.02417,5,0.1,4,3.2,0.144265,-2.30173,0.602871,-0.368324,0.199735,-0.00248849,0.246972,-0.215054,0.00369549,0.00685035,0.157995,5,0.1,5,3.2,-2.3661,-3.6003,0.513556,0.0168145,-0.0118136,-0.00163019,-0.0910759,0.0641346,0.00882149,0.00756334,0.000316047,5,0.1,6,3.2,-1.99902,-2.06971,0.5,0.00409484,-0.279397,1.49012e-06,0.183761,0.0408888,2.98023e-05,0.010484,0.218012,5,0.1,7,3.2,1.20378,4.44309,1.28214,0.00379086,-0.135827,0.0647753,-0.0202656,0.175476,-0.0694394,0.0261304,0.634313,5,0.1,8,3.2,1.64949,4.3,1.31798,0.000700355,-0.0522137,0.0446141,-0.00143051,-0.500202,-0.0889301,0.0280392,1.69132,5,0.1,9,3.2,-2.71089,-3.77049,0.696431,0.645459,-0.0527024,0.23486,-0.454068,-0.0758171,0.0475049,0.0228608,0.574213,5,0.1,10,3.2,0.0126848,-3.01809,1.28855,-0.0815303,-0.0577629,0.0696003,0.426738,-0.0828505,-0.0935793,0.00896416,0.364592,5,0.1,11,3.2,-4.7077,-3.51462,0.609515,-0.0135303,-0.0180125,0.000981987,0.0734329,0.097394,-0.00530481,0.00893155,0.000377493,5,0.1,12,3.2,1.17105,4.64166,0.550253,-0.0804931,-0.106204,-0.000749528,0.15521,0.204802,0.00149012,0.00701156,0.000747095,5,0.1,13,3.2,-0.727697,3.84425,0.607253,0.520507,-0.0920594,-0.00709444,-0.605822,0.108361,0.0077486,0.0205529,0.138062,5,0.1,14,3.2,-3.42289,-2.93874,1.04285,0.044471,0.866026,0.113344,0.00607967,0,-0.025928,0.0200998,2.26245,5,0.1,15,3.2,-0.322665,3.84343,0.603975,0.167929,-0.128555,-0.0038743,-0.182852,0.149131,0.00420213,0.0136109,1.20555,5,0.1,16,3.2,0.257877,0.92754,0.601091,0.0375949,0.523256,-0.00104755,-0.00961125,-0.341892,0.00113249,0.00830186,0.132919,5,0.1,17,3.2,0.309284,1.5,0.594219,-0.230164,-0.0950158,0.00561625,0.105247,-0.586867,-0.00610948,0.0087891,3.38931,5,0.1,18,3.2,-1.79617,-3.57508,0.584584,-0.0323892,0.785053,-0.0212774,0.0315905,-0.29552,0.0207126,0.00894723,0.365255,5,0.1,19,3.2,0.89311,-2.32741,0.746183,0.0547752,-0.127172,0.00667274,-0.300318,0.133038,-0.00697374,0.0101912,0.273992,5,0.1
0,3.3,2.39941,1.5128,0.602825,0.361029,-0.0230148,-0.00508074,-0.0252724,0.0308752,0.00678748,0.0174444,0.0769911,5,0.1,1,3.3,-0.342884,1.29892,0.5,-0.125447,0.295579,1.39698e-06,-0.062868,-0.238068,-3.72529e-06,0.0109699,0.111296,5,0.1,2,3.3,-1.99583,-2.40099,0.599807,-0.0337882,-0.256194,0.000336673,0.19031,0.184685,-0.000309199,0.0100994,0.200807,5,0.1,3,3.3,-3.08092,2.25636,0.615976,-0.296846,0.00112839,-0.0036383,0.162497,-0.000491738,0.00186265,0.00998921,0.02417,5,0.1,4,3.3,0.108336,-2.28266,0.602637,-0.352845,0.183057,-0.00222148,0.0909263,-0.130847,0.00185892,0.00685035,0.157995,5,0.1,5,3.3,-2.36484,-3.60118,0.513434,0.00873096,-0.00612363,-0.000847224,-0.0705868,0.0496805,0.00683591,0.00756334,0.000316047,5,0.1,6,3.3,-1.99774,-2.09752,0.5,0.0209991,-0.27717,2.79397e-06,0.151485,0.0185817,0,0.010484,0.218012,5,0.1,7,3.3,1.20407,4.4306,1.2883,0.00192486,-0.112563,0.0585597,-0.0169277,0.26992,-0.0569969,0.0261304,0.634313,5,0.1,8,3.3,1.64956,4.29121,1.32203,0.000572763,-0.132228,0.0366688,-0.00113994,-1.0151,-0.0711083,0.0280392,1.69132,5,0.1,9,3.3,-2.64833,-3.77601,0.719974,0.60798,-0.0566013,0.2342,-0.325739,-0.00566244,-0.0601262,0.0228608,0.574213,5,0.1,10,3.3,0.00652633,-3.02427,1.29507,-0.0434783,-0.0657044,0.0610929,0.317546,-0.0716448,-0.078395,0.00896416,0.364592,5,0.1,11,3.3,-4.70871,-3.51597,0.609588,-0.00701621,-0.00936426,0.000511017,0.056833,0.075534,-0.004109,0.00893155,0.000377493,5,0.1,12,3.3,1.16376,4.63204,0.550185,-0.065469,-0.0863783,-0.000606664,0.144795,0.191063,0.00137091,0.00701156,0.000747095,5,0.1,13,3.3,-0.67864,3.83556,0.60658,0.460845,-0.0820942,-0.00638422,-0.591911,0.0932515,0.00664592,0.0205529,0.138062,5,0.1,14,3.3,-3.41841,-2.85214,1.05411,0.045282,0.866026,0.112046,0.00761449,0,-0.00684708,0.0200998,2.26245,5,0.1,15,3.3,-0.30672,3.83156,0.603607,0.151496,-0.107241,-0.00349628,-0.151122,0.253916,0.00348315,0.0136109,1.20555,5,0.1,16,3.3,0.261676,0.977877,0.600993,0.0390973,0.480868,-0.00089854,0.0329111,-0.498723,0.00178069,0.00830186,0.132919,5,0.1,17,3.3,0.286457,1.4874,0.594745,-0.22905,-0.157809,0.00485005,-0.0557266,-0.636943,-0.00890717,0.0087891,3.38931,5,0.1,18,3.3,-1.79926,-3.49799,0.582553,-0.029505,0.756887,-0.0193857,0.0270605,-0.294492,0.0177547,0.00894723,0.365255,5,0.1,19,3.3,0.897227,-2.33948,0.746817,0.0290088,-0.114366,0.00600191,-0.213981,0.125423,-0.00656769,0.0101912,0.273992,5,0.1
0,3.4,2.4353,1.51065,0.60235,0.355631,-0.0200838,-0.00443608,-0.0969172,0.0283718,0.00625849,0.0121209,0.107448,5,0.1,1,3.4,-0.355518,1.32725,0.500001,-0.125139,0.270489,0,0.0626147,-0.268161,0,0.0103951,0.142556,5,0.1,2,3.4,-1.99835,-2.42563,0.599839,-0.0175565,-0.235891,0.000305474,0.133693,0.22459,-0.000357628,0.010208,0.32385,5,0.1,3,3.4,-3.10973,2.25647,0.615623,-0.278515,0.00106692,-0.00342578,0.210404,-0.000596046,0.00247359,0.0074411,0.0146798,5,0.1,4,3.4,0.073439,-2.26495,0.602422,-0.34522,0.171423,-0.00207871,0.0824535,-0.111222,0.00113249,0.00688069,0.106959,5,0.1,5,3.4,-2.36428,-3.60157,0.51338,0.00268817,-0.00186563,-0.00026226,-0.0506639,0.0354052,0.00491738,0.00629991,0.423282,5,0.1,6,3.4,-1.99496,-2.12509,0.500001,0.033927,-0.27315,1.49012e-06,0.105262,0.0724792,-2.98023e-05,0.0128338,0.19057,5,0.1,7,3.4,1.20418,4.42071,1.29388,0.000429153,-0.085175,0.0530124,-0.0129342,0.264406,-0.0553727,0.0235801,0.866774,5,0.1,8,3.4,1.64961,4.27263,1.32537,0.000470877,-0.240266,0.0301957,-0.000953674,-1.08099,-0.0593066,0.0321941,1.71488,5,0.1,9,3.4,-2.58915,-3.78161,0.742921,0.575119,-0.0545025,0.223053,-0.353098,0.0444651,-0.161231,0.0292108,0.126699,5,0.1,10,3.4,0.00348803,-3.03115,1.3008,-0.0202321,-0.0713646,0.0536114,0.142024,-0.0385046,-0.0725985,0.0111536,0.336486,5,0.1,11,3.4,-4.70916,-3.51656,0.609621,-0.00214577,-0.00289083,0.000157952,0.0407696,0.054121,-0.00292063,0.0142818,0.000168266,5,0.1,12,3.4,1.15791,4.62433,0.550131,-0.0516206,-0.0681043,-0.000476837,0.131726,0.173807,0.0012219,0.0140018,0.000663733,5,0.1,13,3.4,-0.635521,3.82781,0.605974,0.401421,-0.0730097,-0.00573099,-0.599116,0.0901222,0.00652671,0.0314471,0.21924,5,0.1,14,3.4,-3.41385,-2.76554,1.06526,0.0455678,0.866026,0.110805,-0.0038147,0,-0.0228286,0.0330993,2.26278,5,0.1,15,3.4,-0.292309,3.82212,0.603274,0.136794,-0.0816286,-0.00315607,-0.146732,0.243068,0.00333786,0.0163871,2.78338,5,0.1,16,3.4,0.265775,1.02326,0.600913,0.0429906,0.424936,-0.000706315,0.0398606,-0.612676,0.00205636,0.0107453,0.207515,5,0.1,17,3.4,0.263192,1.46857,0.595183,-0.236546,-0.21688,0.00389069,-0.0737831,-0.521302,-0.0100732,0.00777114,3.31376,5,0.1,18,3.4,-1.80208,-3.42395,0.580702,-0.0268161,0.721687,-0.0176206,0.0274777,-0.427485,0.0180304,0.0121197,0.244488,5,0.1,19,3.4,0.899204,-2.35029,0.747384,0.0119686,-0.101703,0.00533909,-0.128001,0.129223,-0.00676513,0.0132458,0.271375,5,0.1
0,3.5,2.47056,1.50878,0.601936,0.350786,-0.0173822,-0.00383984,-0.0228435,0.0258982,0.00572205,0.0121209,0.107448,5,0.1,1,3.5,-0.367548,1.35303,0.500001,-0.11394,0.245664,-4.65661e-07,0.15457,-0.23593,-1.11759e-05,0.0103951,0.142556,5,0.1,2,3.5,-1.99953,-2.44806,0.599868,-0.00690985,-0.21245,0.000270084,0.0813082,0.244796,-0.000350177,0.010208,0.32385,5,0.1,3,3.5,-3.13656,2.25658,0.615292,-0.258017,0.0010062,-0.0031854,0.206977,-0.00064075,0.00243261,0.0074411,0.0146798,5,0.1,4,3.5,0.0395315,-2.24829,0.602219,-0.330937,0.162302,-0.00200691,0.201922,-0.0793785,0.00044331,0.00688069,0.106959,5,0.1,5,3.5,-2.36366,-3.60115,0.513249,0.0147365,0.0138227,-0.00345707,0.254869,0.250086,-0.060454,0.00629991,0.423282,5,0.1,6,3.5,-1.99109,-2.15205,0.500001,0.0427548,-0.265963,-9.31323e-07,0.0702441,0.0806153,-1.49012e-05,0.0128338,0.19057,5,0.1,7,3.5,1.20416,4.41359,1.29892,-0.000729039,-0.0576437,0.048057,-0.0101328,0.251114,-0.0454783,0.0235801,0.866774,5,0.1,8,3.5,1.64965,4.2427,1.32811,0.00038743,-0.361473,0.0249751,-0.000730157,-1.26907,-0.0460446,0.0321941,1.71488,5,0.1,9,3.5,-2.53329,-3.78671,0.764144,0.54267,-0.0464771,0.198986,-0.315353,0.108913,-0.306595,0.0292108,0.126699,5,0.1,10,3.5,0.00193721,-3.03847,1.30582,-0.0138184,-0.0748552,0.047073,-0.0363955,-0.0278354,-0.0597015,0.0111536,0.336486,5,0.1,11,3.5,-4.70919,-3.51661,0.609623,0.00128746,0.00167228,-8.85688e-05,0.0280738,0.0373572,-0.00202283,0.0142818,0.000168266,5,0.1,12,3.5,1.15339,4.61836,0.550089,-0.0391796,-0.0516884,-0.000361912,0.116616,0.153869,0.00107288,0.0140018,0.000663733,5,0.1,13,3.5,-0.598245,3.82098,0.605429,0.345229,-0.0634238,-0.00521084,-0.530969,0.100553,0.00420585,0.0314471,0.21924,5,0.1,14,3.5,-3.4093,-2.67893,1.07628,0.0455078,0.866026,0.109745,0.000104308,0,-0.00501424,0.0330993,2.26278,5,0.1,15,3.5,-0.279309,3.81539,0.602974,0.123631,-0.0526778,-0.0028559,-0.12093,0.271261,0.00276789,0.0163871,2.78338,5,0.1,16,3.5,0.270288,1.06269,0.600854,0.0473025,0.363499,-0.000442751,0.042554,-0.614233,0.00304729,0.0107453,0.207515,5,0.1,17,3.5,0.238606,1.44404,0.595518,-0.259578,-0.274916,0.00277217,-0.339704,-0.600323,-0.0118911,0.00777114,3.31376,5,0.1,18,3.5,-1.80463,-3.35381,0.579025,-0.0243183,0.681392,-0.0159811,0.0232756,-0.400558,0.0152811,0.0121197,0.244488,5,0.1,19,3.5,0.899891,-2.35982,0.747885,0.00295928,-0.0891495,0.00468194,-0.0564791,0.12289,-0.00642985,0.0132458,0.271375,5,0.1
0,3.6,2.5055,1.50717,0.60158,0.347137,-0.0148654,-0.00328422,-0.0665188,0.0246763,0.00545382,0.0163987,0.182009,5,0.1,1,3.6,-0.378065,1.37642,0.5,-0.0955053,0.222021,-1.49012e-06,0.20811,-0.242054,0,0.0110333,0.133467,5,0.1,2,3.6,-1.99989,-2.46805,0.599893,-0.000891089,-0.186884,0.000233948,0.0408888,0.266314,-0.000357628,0.0120638,0.30097,5,0.1,3,3.6,-3.16128,2.25667,0.614986,-0.235921,0.000935793,-0.00292361,0.239491,-0.000834465,0.00283122,0.00721296,0.00468921,5,0.1,4,3.6,0.00763397,-2.23246,0.60202,-0.305205,0.15415,-0.00196397,0.310324,-0.0896454,0.000506639,0.00774504,0.139513,5,0.1,5,3.6,-2.36066,-3.59836,0.512549,0.0471175,0.0431418,-0.0108734,0.364184,0.314474,-0.0814795,0.00612815,0.390476,5,0.1,6,3.6,-1.98653,-2.17817,0.500001,0.0478268,-0.255471,-1.49012e-06,0.030756,0.135303,0,0.0119313,0.711461,5,0.1,7,3.6,1.20405,4.40884,1.30351,-0.0015825,-0.0399828,0.0436157,-0.00685453,0.0863075,-0.0445247,0.0235754,1.08586,5,0.1,8,3.6,1.64969,4.2004,1.3304,0.000321865,-0.481248,0.0208199,-0.000596046,-1.07217,-0.0377893,0.0287568,0.291044,5,0.1,9,3.6,-2.48067,-3.79075,0.782363,0.508773,-0.0339985,0.164196,-0.375986,0.134826,-0.378102,0.0232749,0.106608,5,0.1,10,3.6,0,-3.04605,1.31024,-0.0284089,-0.0763595,0.0414073,-0.241747,0,-0.0547171,0.00846143,0.28924,5,0.1,11,3.6,-4.70894,-3.51628,0.609606,0.00350475,0.00463724,-0.000248849,0.0166893,0.0221729,-0.0012219,0.0083922,5.67319e-05,5,0.1,12,3.6,1.15002,4.61392,0.550058,-0.0283778,-0.0374436,-0.00026226,0.0992417,0.13113,0.00089407,0.00821108,0.000518806,5,0.1,13,3.6,-0.566305,3.81515,0.604927,0.29417,-0.0530958,-0.00483245,-0.49454,0.104904,0.00360608,0.0177997,0.258949,5,0.1,14,3.6,-3.40476,-2.59233,1.08721,0.0451565,0.866026,0.108659,-0.00870228,0,-0.0213981,0.0168821,2.26314,5,0.1,15,3.6,-0.267537,3.81113,0.602702,0.111853,-0.0367343,-0.00258535,-0.117764,0.0187159,0.00271201,0.0162478,3.53187,5,0.1,16,3.6,0.275209,1.09598,0.600826,0.0508495,0.302479,-0.00012666,0.0257045,-0.604153,0.00318885,0.00930256,0.195366,5,0.1,17,3.6,0.21083,1.41368,0.595735,-0.296227,-0.330213,0.00158399,-0.357792,-0.477254,-0.0115335,0.00682441,0.840285,5,0.1,18,3.6,-1.80695,-3.28778,0.577502,-0.0220239,0.637859,-0.0144735,0.0231862,-0.484943,0.015229,0.00870797,0.162644,5,0.1,19,3.6,0.89999,-2.36813,0.748321,-0.00025034,-0.0769615,0.00404418,-0.0126064,0.121355,-0.0063777,0.0096657,0.270314,5,0.1
0,3.7,2.5402,1.5058,0.601278,0.349287,-0.012546,-0.00277143,0.0771731,0.0218749,0.00483543,0.0163987,0.182009,5,0.1,1,3.7,-0.386514,1.39744,0.5,-0.0730562,0.198702,-1.39698e-06,0.233425,-0.228114,3.72529e-06,0.0110333,0.133467,5,0.1,2,3.7,-1.99976,-2.48541,0.599914,0.00347234,-0.160398,0.000199117,0.0400841,0.263035,-0.000335276,0.0120638,0.30097,5,0.1,3,3.7,-3.18367,2.25676,0.614708,-0.211788,0.000849739,-0.00263695,0.245661,-0.000908971,0.00293553,0.00721296,0.00468921,5,0.1,4,3.7,-0.0211128,-2.21742,0.601825,-0.267763,0.147175,-0.00194656,0.428501,-0.0582933,-1.11759e-05,0.00774504,0.139513,5,0.1,5,3.7,-2.35419,-3.5923,0.511103,0.0814557,0.0792935,-0.0175547,0.313371,0.38594,-0.0519678,0.00612815,0.390476,5,0.1,6,3.7,-1.98154,-2.20304,0.5,0.0523094,-0.241877,-1.49012e-06,0.052765,0.142857,0,0.0119313,0.711461,5,0.1,7,3.7,1.20386,4.40509,1.30766,-0.00217296,-0.0387751,0.0396296,-0.00487268,-0.122219,-0.036642,0.0235754,1.08586,5,0.1,8,3.7,1.64971,4.14762,1.33231,0.000270642,-0.567079,0.0175415,-0.000439584,-0.637084,-0.0285432,0.0287568,0.291044,5,0.1,9,3.7,-2.43159,-3.79349,0.796892,0.473189,-0.0207465,0.126514,-0.349551,0.127807,-0.370577,0.0232749,0.106608,5,0.1,10,3.7,-0.004458,-3.05369,1.31413,-0.0639575,-0.0761699,0.0365159,-0.434961,0.00660121,-0.0443831,0.00846143,0.28924,5,0.1,11,3.7,-4.70852,-3.51573,0.609576,0.00473857,0.00628345,-0.000339653,0.00828505,0.0111014,-0.000614673,0.0083922,5.67319e-05,5,0.1,12,3.7,1.14766,4.6108,0.550036,-0.0192571,-0.0253953,-0.000180118,0.0829101,0.109464,0.000745058,0.00821108,0.000518806,5,0.1,13,3.7,-0.539174,3.81037,0.60446,0.25011,-0.0424981,-0.00453861,-0.395436,0.105709,0.00250712,0.0177997,0.258949,5,0.1,14,3.7,-3.40028,-2.50573,1.09802,0.0446763,0.866026,0.107686,-0.00341237,0,-0.00456721,0.0168821,2.26314,5,0.1,15,3.7,-0.256734,3.80727,0.602457,0.105921,-0.0464011,-0.00230027,-0.0147969,-0.321195,0.00297651,0.0162478,3.53187,5,0.1,16,3.7,0.280358,1.12383,0.600826,0.0514696,0.26011,9.0152e-05,-0.0132658,-0.276007,0.0012666,0.00930256,0.195366,5,0.1,17,3.7,0.180073,1.38018,0.595827,-0.312848,-0.323114,0.000200514,0.00676788,0.526123,-0.0153147,0.00682441,0.840285,5,0.1,18,3.7,-1.80904,-3.2263,0.576126,-0.0199243,0.592606,-0.0130938,0.0194758,-0.438631,0.0128001,0.00870797,0.162644,5,0.1,19,3.7,0.89993,-2.37526,0.748694,-0.000714697,-0.0659861,0.00343053,0.00147521,0.100106,-0.00591949,0.0096657,0.270314,5,0.1
0,3.8,2.57553,1.50465,0.601024,0.356966,-0.0104636,-0.00231117,0.0526905,0.019908,0.00441074,0.0119817,0.111199,5,0.1,1,3.8,-0.392661,1.41617,0.5,-0.0501089,0.17578,-1.49012e-06,0.22006,-0.232816,0,0.00978617,0.0149462,5,0.1,2,3.8,-1.99925,-2.50014,0.599933,0.0061512,-0.134361,0.000165403,0.00995398,0.257015,-0.000327826,0.0131796,0.964663,5,0.1,3,3.8,-3.2036,2.25684,0.61446,-0.186425,0.000756979,-0.00233203,0.262737,-0.00107288,0.00318885,0.00768556,0.00140088,5,0.1,4,3.8,-0.0456217,-2.203,0.60163,-0.221393,0.141048,-0.00194013,0.490021,-0.0700951,0.000208616,0.00795841,0.253355,5,0.1,5,3.8,-2.34462,-3.58247,0.509138,0.10826,0.116408,-0.0212669,0.216603,0.339746,-0.022471,0.00789361,0.395673,5,0.1,6,3.8,-1.97605,-2.22646,0.5,0.0573158,-0.22586,0,0.0429153,0.181317,-2.98023e-05,0.0103,1.62869,5,0.1,7,3.8,1.20362,4.4,1.31145,-0.00254512,-0.0686288,0.0360399,-0.0026226,-0.457287,-0.03618,0.021173,1.23082,5,0.1,8,3.8,1.64974,4.08849,1.33393,0.000232458,-0.607812,0.0149727,-0.000417233,-0.17643,-0.023365,0.0249479,0.105678,5,0.1,9,3.8,-2.38607,-3.79495,0.807737,0.436544,-0.00884533,0.0909537,-0.392675,0.108361,-0.336885,0.0210746,0.157923,5,0.1,10,3.8,-0.013115,-3.06124,1.31757,-0.109376,-0.0745773,0.0323087,-0.447421,0.0270605,-0.04071,0.00857021,0.233811,5,0.1,11,3.8,-4.70802,-3.51506,0.60954,0.00520945,0.00692606,-0.000376999,0.00166893,0.00214577,-8.9407e-05,0.00872657,1.77084e-05,5,0.1,12,3.8,1.14612,4.60877,0.550022,-0.0118345,-0.0155926,-0.000111759,0.0655055,0.0863075,0.000566244,0.007163,0.000307185,5,0.1,13,3.8,-0.516035,3.80664,0.604018,0.21355,-0.0321865,-0.00429004,-0.342339,0.0994205,0.00265241,0.0199084,0.213329,5,0.1,14,3.8,-3.39583,-2.41913,1.10875,0.0440538,0.866026,0.106636,-0.0109673,0,-0.0209808,0.0164934,2.26385,5,0.1,15,3.8,-0.24614,3.8,0.602243,0.106444,-0.108755,-0.0019908,0.0146627,-0.894785,0.00315905,0.0141977,3.10192,5,0.1,16,3.8,0.285376,1.14878,0.600839,0.048285,0.24142,0.000149012,-0.0495762,-0.12362,5.96046e-05,0.00865121,0.14179,5,0.1,17,3.8,0.149295,1.35152,0.59577,-0.298389,-0.241777,-0.00133514,0.265837,1.02592,-0.0147521,0.00582812,0.382203,5,0.1,18,3.8,-1.81094,-3.16927,0.574879,-0.0180155,0.547016,-0.0118375,0.0192523,-0.485659,0.0126064,0.00816182,0.108157,5,0.1,19,3.8,0.899877,-2.38138,0.749008,-0.000269711,-0.0566006,0.00285804,0.00616908,0.0891685,-0.00557303,0.0107899,0.267931,5,0.1
0,3.9,2.61157,1.5037,0.600814,0.364035,-0.00861567,-0.00190176,0.067696,0.0171736,0.0037998,0.0119817,0.111199,5,0.1,1,3.9,-0.396643,1.43237,0.5,-0.0302649,0.146568,-1.02445e-06,0.17643,-0.336848,1.11759e-05,0.00978617,0.0149462,5,0.1,2,3.9,-1.99845,-2.51234,0.599948,0.0101555,-0.109902,0.000134762,0.0340044,0.232324,-0.000286847,0.0131796,0.964663,5,0.1,3,3.9,-3.22093,2.25691,0.614242,-0.160318,0.000650063,-0.0020138,0.259444,-0.00105798,0.00317022,0.00768556,0.00140088,5,0.1,4,3.9,-0.0652453,-2.18926,0.601438,-0.170716,0.133463,-0.00190502,0.512058,-0.0840873,0.000540167,0.00795841,0.253355,5,0.1,5,3.9,-2.33298,-3.56908,0.506959,0.121964,0.151325,-0.021753,0.063628,0.340477,0.0105835,0.00789361,0.395673,5,0.1,6,3.9,-1.97004,-2.24817,0.5,0.0633309,-0.20852,-1.39698e-06,0.0697449,0.170961,-3.72529e-06,0.0103,1.62869,5,0.1,7,3.9,1.20335,4.38998,1.31488,-0.00274945,-0.138644,0.032798,-0.00139326,-0.87139,-0.0298545,0.021173,1.23082,5,0.1,8,3.9,1.64976,4.0272,1.33533,0.000201538,-0.614157,0.0132171,-0.000223517,0.0559092,-0.0129268,0.0249479,0.105678,5,0.1,9,3.9,-2.34412,-3.79531,0.815199,0.404384,0.001375,0.0588926,-0.272125,0.0943094,-0.30094,0.0210746,0.157923,5,0.1,10,3.9,-0.0264153,-3.06854,1.32061,-0.157221,-0.0712022,0.0286896,-0.483547,0.0412166,-0.0327229,0.00857021,0.233811,5,0.1,11,3.9,-4.7075,-3.51437,0.609502,0.00512898,0.00681803,-0.000369176,-0.00303984,-0.00396371,0.000230968,0.00872657,1.77084e-05,5,0.1,12,3.9,1.14523,4.60761,0.550013,-0.00601429,-0.0079222,-6.1281e-05,0.0508651,0.0670254,0.000447035,0.007163,0.000307185,5,0.1,13,3.9,-0.495878,3.8039,0.603601,0.193932,-0.0227246,-0.00406541,-0.0807419,0.0887066,0.00202656,0.0199084,0.213329,5,0.1,14,3.9,-3.39147,-2.33252,1.11934,0.0432786,0.866026,0.105386,-0.00678003,0,-0.00973046,0.0164934,2.26385,5,0.1,15,3.9,-0.235314,3.78339,0.602059,0.110863,-0.233115,-0.00168961,0.0621984,-1.48149,0.00287592,0.0141977,3.10192,5,0.1,16,3.9,0.289891,1.1726,0.600852,0.0414763,0.237369,0.000101514,-0.0827815,0.0177249,-0.00090152,0.00865121,0.14179,5,0.1,17,3.9,0.120616,1.33288,0.595558,-0.276525,-0.128167,-0.00294056,0.18611,1.19858,-0.0165254,0.00582812,0.382203,5,0.1,18,3.9,-1.81265,-3.11687,0.573754,-0.016278,0.502085,-0.0106991,0.0160486,-0.428513,0.0105239,0.00816182,0.108157,5,0.1,19,3.9,0.8998,-2.38659,0.749267,-0.00182753,-0.0476718,0.00233008,-0.0280477,0.0889003,-0.00498816,0.0107899,0.267931,5,0.1
0,4,2.6482,1.50292,0.600642,0.366956,-0.00700951,-0.00154674,-0.0239611,0.01508,0.00333786,0.0132664,0.0618083,5,0.1,1,4,-0.398862,1.44527,0.5,-0.0148527,0.110963,0,0.13189,-0.364363,0,0.00772278,0.253992,5,0.1,2,4,-1.99745,-2.52221,0.59996,0.00776052,-0.0878692,0.000107288,-0.0976324,0.208259,-0.000268221,0.0144153,2.7868,5,0.1,3,4,-3.23567,2.25697,0.614057,-0.134563,0.000542402,-0.00169724,0.255227,-0.000953674,0.00312924,0.00909427,0.000744228,5,0.1,4,4,-0.0797981,-2.17638,0.601251,-0.120972,0.123847,-0.00182539,0.474364,-0.109673,0.00107288,0.00969541,0.250918,5,0.1,5,4,-2.32068,-3.55237,0.504876,0.122172,0.181413,-0.0195548,-0.0537634,0.248432,0.0315309,0.00648853,0.387739,5,0.1,6,4,-1.96337,-2.26815,0.5,0.0699431,-0.190765,-1.49012e-06,0.0569224,0.187993,1.49012e-05,0.0131227,2.02675,5,0.1,7,4,1.20307,4.37156,1.31801,-0.00281632,-0.230312,0.0298649,0.000178814,-0.90766,-0.0295639,0.0324986,0.997687,5,0.1,8,4,1.64978,3.96649,1.3366,0.000184774,-0.595802,0.0121772,-0.000119209,0.312924,-0.00864267,0.0393047,0.16097,5,0.1,9,4,-2.30499,-3.79474,0.819666,0.378394,0.00972152,0.0313357,-0.263453,0.0715256,-0.247896,0.0351028,0.807439,5,0.1,10,4,-0.0444396,-3.07543,1.32332,-0.201623,-0.0662148,0.0255793,-0.385821,0.058651,-0.0302196,0.0107387,0.434396,5,0.1,11,4,-4.70701,-3.51371,0.609467,0.00466108,0.00620484,-0.000333786,-0.00596046,-0.00810623,0.000417233,0.0099214,1.02393e-05,5,0.1,12,4,1.14486,4.60712,0.550009,-0.00165701,-0.00219345,-2.23517e-05,0.0363588,0.0481606,0.000327826,0.00725995,0.000137972,5,0.1,13,4,-0.476665,3.80205,0.603205,0.191967,-0.014627,-0.00385195,0.0178069,0.0728369,0.00235438,0.0183196,0.333735,5,0.1,14,4,-3.38718,-2.24592,1.12981,0.0423253,0.866026,0.103718,-0.0139475,0,-0.0277162,0.0148516,2.26436,5,0.1,15,4,-0.223916,3.75246,0.601904,0.116884,-0.385576,-0.00141263,0.0497624,-1.48404,0.00268221,0.013607,2.65013,5,0.1,16,4,0.293596,1.1965,0.600857,0.0324138,0.240624,-1.19209e-05,-0.0954121,0.0289083,-0.0012517,0.0119124,0.194067,5,0.1,17,4,0.0938604,1.32602,0.595184,-0.25864,-0.0104129,-0.00449717,0.1822,1.12069,-0.0140071,0.00653281,0.255303,5,0.1,18,4,-1.8142,-3.06881,0.572736,-0.0147104,0.458694,-0.00966936,0.0157356,-0.450134,0.0103414,0.00991139,0.124292,5,0.1,19,4,0.899481,-2.39092,0.749476,-0.00437349,-0.0389218,0.00185817,-0.0170469,0.0857115,-0.00447035,0.0124051,0.253046,5,0.1
0,4.1,2.68476,1.50229,0.600503,0.363779,-0.00562761,-0.00124089,-0.0527054,0.0126436,0.00279397,0.0132664,0.0618083,5,0.1,1,4.1,-0.399794,1.45473,0.5,-0.00480264,0.0799019,0,0.0714958,-0.261784,0,0.00772278,0.253992,5,0.1,2,4.1,-1.99714,-2.53,0.599969,-0.0050962,-0.0685759,8.27014e-05,-0.288725,0.178009,-0.000223517,0.0144153,2.7868,5,0.1,3,4.1,-3.24788,2.25702,0.613902,-0.109793,0.000448897,-0.00139233,0.239328,-0.000908971,0.00295788,0.00909427,0.000744228,5,0.1,4,4.1,-0.0896425,-2.16454,0.601074,-0.077249,0.112755,-0.00171028,0.394744,-0.113606,0.00125915,0.00969541,0.250918,5,0.1,5,4.1,-2.30895,-3.53296,0.503103,0.110395,0.206691,-0.0157061,-0.170916,0.240326,0.0434332,0.00648853,0.387739,5,0.1,6,4.1,-1.95592,-2.28649,0.5,0.0803623,-0.177845,9.31323e-08,0.136167,0.0854731,1.11759e-05,0.0131227,2.02675,5,0.1,7,4.1,1.20279,4.34372,1.32086,-0.00277292,-0.327931,0.0272127,0.000752509,-0.99054,-0.0244752,0.0324986,0.997687,5,0.1,8,4.1,1.6498,3.90842,1.33777,0.000173785,-0.565469,0.0113744,-9.68575e-05,0.310957,-0.00779331,0.0393047,0.16097,5,0.1,9,4.1,-2.26783,-3.79343,0.822248,0.369804,0.0162479,0.0262426,0.0447035,0.0576824,0.108927,0.0351028,0.807439,5,0.1,10,4.1,-0.0662853,-3.0817,1.32574,-0.232721,-0.0587244,0.0229018,-0.231809,0.0884682,-0.0242069,0.0107387,0.434396,5,0.1,11,4.1,-4.70657,-3.51314,0.609436,0.00395998,0.00526309,-0.000284705,-0.00783801,-0.0104308,0.000547618,0.0099214,1.02393e-05,5,0.1,12,4.1,1.14486,4.60711,0.550008,0.00140741,0.00186488,5.58794e-06,0.0250787,0.03317,0.000230968,0.00725995,0.000137972,5,0.1,13,4.1,-0.457146,3.80092,0.602831,0.200144,-0.00830851,-0.00363179,0.122638,0.0534505,0.00217557,0.0183196,0.333735,5,0.1,14,4.1,-3.38301,-2.15932,1.14008,0.0413276,0.866026,0.101923,-0.00822544,0,-0.0138357,0.0148516,2.26436,5,0.1,15,4.1,-0.211919,3.70606,0.601775,0.123387,-0.544389,-0.001169,0.0703558,-1.60497,0.00221282,0.013607,2.65013,5,0.1,16,4.1,0.296361,1.2208,0.600849,0.0229321,0.24603,-0.000135135,-0.0920165,0.0625402,-0.00117347,0.0119124,0.194067,5,0.1,17,4.1,0.0684682,1.33022,0.594662,-0.252757,0.090399,-0.00595506,-0.0318024,0.884742,-0.0143722,0.00653281,0.255303,5,0.1,18,4.1,-1.8156,-3.02484,0.571812,-0.013506,0.423609,-0.00887709,0.00929832,-0.278696,0.0061281,0.00991139,0.124292,5,0.1,19,4.1,0.898882,-2.39439,0.749641,-0.00770595,-0.0306774,0.00144234,-0.0244975,0.0787824,-0.00384822,0.0124051,0.253046,5,0.1
0,4.2,2.72074,1.50179,0.600392,0.354242,-0.00446439,-0.000983477,-0.146747,0.0107288,0.00238419,0.0118678,0.0430012,5,0.1,1,4.2,-0.399999,1.46155,0.5,-3.20375e-05,0.0577033,0,0.0267625,-0.186324,0,0.00797653,0.251575,5,0.1,2,4.2,-2,-2.53602,0.599976,-0.0610709,-0.0521839,6.25849e-05,-0.812411,0.150084,-0.000178814,0.0121759,3.20671,5,0.1,3,4.2,-3.25769,2.25706,0.613778,-0.086844,0.000357628,-0.00110716,0.218749,-0.000834465,0.00271201,0.00787933,0.000666646,5,0.1,4,4.2,-0.095559,-2.15385,0.60091,-0.0427995,0.100905,-0.00157058,0.291843,-0.124335,0.00157952,0.00695825,0.248224,5,0.1,5,4.2,-2.29889,-3.51121,0.501756,0.0899613,0.226635,-0.0112191,-0.229001,0.146866,0.0448525,0.00887177,0.161015,5,0.1,6,4.2,-1.94717,-2.30392,0.5,0.0945032,-0.171036,1.49012e-06,0.135183,0.0618696,-2.98023e-05,0.013051,1.94721,5,0.1,7,4.2,1.20252,4.3062,1.32347,-0.00265837,-0.41908,0.0248015,0.00160933,-0.793219,-0.0243783,0.0239455,0.155504,5,0.1,8,4.2,1.64982,3.85354,1.33887,0.000163913,-0.530744,0.010559,-0.000178814,0.394702,-0.00888109,0.0235332,0.209779,5,0.1,9,4.2,-2.23044,-3.79155,0.825754,0.379097,0.0210464,0.0464827,0.105858,0.0371933,0.266671,0.0211618,0.637748,5,0.1,10,4.2,-0.0904344,-3.0871,1.32791,-0.247394,-0.0490189,0.0205874,-0.060063,0.103354,-0.0227094,0.00886057,0.318127,5,0.1,11,4.2,-4.70622,-3.51267,0.60941,0.00314713,0.00417829,-0.000226498,-0.00858307,-0.0110865,0.000566244,0.00879144,9.63656e-06,5,0.1,12,4.2,1.14511,4.60744,0.55001,0.0033915,0.00448227,2.38419e-05,0.0148416,0.0197887,0.000149012,0.00752874,4.69896e-05,5,0.1,13,4.2,-0.436501,3.80032,0.602479,0.212485,-0.00392199,-0.00339746,0.107184,0.0345707,0.0026226,0.0165428,0.30066,5,0.1,14,4.2,-3.37892,-2.07272,1.15019,0.0402987,0.866026,0.0999838,-0.0139475,0,-0.0289679,0.0152299,2.26489,5,0.1,15,4.2,-0.199262,3.64398,0.601669,0.129253,-0.691569,-0.000964105,0.0398755,-1.27566,0.00190735,0.012277,2.37095,5,0.1,16,4.2,0.298214,1.24566,0.60083,0.0143759,0.25028,-0.000241399,-0.07765,0.0106096,-0.00089407,0.0103508,0.311552,5,0.1,17,4.2,0.0429014,1.34322,0.593999,-0.259265,0.164858,-0.00723898,-0.0737244,0.598669,-0.0107884,0.00912322,0.222405,5,0.1,18,4.2,-1.81691,-2.98377,0.570952,-0.0126868,0.398231,-0.0083372,0.0077486,-0.24879,0.005126,0.00751591,0.0721219,5,0.1,19,4.2,0.898127,-2.39708,0.749767,-0.00572205,-0.0232399,0.00108778,0.0745654,0.0697374,-0.00324845,0.0104428,0.21495,5,0.1
0,4.3,2.75549,1.50139,0.600305,0.34091,-0.00350345,-0.000770204,-0.133857,0.00857562,0.0018999,0.0118678,0.0430012,5,0.1,1,4.3,-0.39991,1.4665,0.5,0.00144448,0.0423187,0,0.00476465,-0.125028,0,0.00797653,0.251575,5,0.1,2,4.3,-2.01153,-2.54096,0.600029,-0.180164,-0.0507146,0.00139307,-1.45657,-0.0932515,0.0237897,0.0121759,3.20671,5,0.1,3,4.3,-3.26532,2.2571,0.61368,-0.0661418,0.000276789,-0.000849459,0.19446,-0.000759959,0.00242516,0.00787933,0.000666646,5,0.1,4,4.3,-0.0985669,-2.14437,0.60076,-0.0191785,0.0887442,-0.00141244,0.182799,-0.119731,0.00160187,0.00695825,0.248224,5,0.1,5,4.3,-2.29125,-3.48872,0.500881,0.0611249,0.215367,-0.00612158,-0.32936,-0.325695,0.0545233,0.00887177,0.161015,5,0.1,6,4.3,-1.9371,-2.32138,0.5,0.106139,-0.183971,-2.79397e-07,0.089936,-0.279695,-1.11759e-05,0.013051,1.94721,5,0.1,7,4.3,1.20226,4.26094,1.32583,-0.00249296,-0.479911,0.0226114,0.00174344,-0.421196,-0.0202358,0.0239455,0.155504,5,0.1,8,4.3,1.64983,3.8022,1.33988,0.000148267,-0.497872,0.00973921,-0.000149012,0.287101,-0.00783056,0.0235332,0.209779,5,0.1,9,4.3,-2.19172,-3.78927,0.83202,0.397269,0.0242971,0.0809697,0.221312,0.0267923,0.395134,0.0211618,0.637748,5,0.1,10,4.3,-0.115037,-3.09148,1.33003,-0.240682,-0.0384495,0.0230223,0.178423,0.106126,0.0608116,0.00886057,0.318127,5,0.1,11,4.3,-4.70595,-3.5123,0.60939,0.00228435,0.0030607,-0.000168569,-0.00852346,-0.0110269,0.000581145,0.00879144,9.63656e-06,5,0.1,12,4.3,1.14551,4.60797,0.550013,0.00448804,0.00594407,3.52971e-05,0.00732392,0.00977516,8.56817e-05,0.00752874,4.69896e-05,5,0.1,13,4.3,-0.414668,3.80007,0.602152,0.224287,-0.00133887,-0.00314303,0.113891,0.0180006,0.00254065,0.0165428,0.30066,5,0.1,14,4.3,-3.37494,-1.98611,1.16008,0.0393245,0.866026,0.0981051,-0.0077039,0,-0.0141561,0.0152299,2.26489,5,0.1,15,4.3,-0.186094,3.56919,0.601581,0.134293,-0.79647,-0.000797957,0.0518505,-0.804439,0.00145286,0.012277,2.37095,5,0.1,16,4.3,0.299296,1.27101,0.600801,0.0076124,0.258838,-0.000340585,-0.056928,0.132762,-0.00103191,0.0103508,0.311552,5,0.1,17,4.3,0.0164584,1.36223,0.593232,-0.270505,0.210865,-0.00797706,-0.128864,0.325985,-0.00406429,0.00912322,0.222405,5,0.1,18,4.3,-1.81815,-2.94504,0.57014,-0.0120608,0.377377,-0.00792276,0.00538677,-0.186175,0.00357628,0.00751591,0.0721219,5,0.1,19,4.3,0.898044,-2.39907,0.74986,0.00621816,-0.0167396,0.000791438,0.198748,0.0600368,-0.00268221,0.0104428,0.21495,5,0.1
0,4.4,2.78884,1.50108,0.600237,0.325131,-0.00272989,-0.000599027,-0.190973,0.00691414,0.00154972,0.0108981,0.0802682,5,0.1,1,4.4,-0.399764,1.47018,0.5,0.00127628,0.0320256,0,-0.00655651,-0.0837445,0,0.0068113,0.250772,5,0.1,2,4.4,-2.03712,-2.54671,0.600307,-0.332522,-0.0659406,0.00428855,-1.50514,-0.1899,0.0318289,0.0116271,2.71881,5,0.1,3,4.4,-3.27101,2.25712,0.613607,-0.048095,0.000202656,-0.000621378,0.166059,-0.000596046,0.00205636,0.00886148,0.000528715,5,0.1,4,4.4,-0.0997319,-2.1361,0.600627,-0.00564307,0.0768185,-0.00124723,0.0916533,-0.119209,0.00166893,0.00861141,0.245774,5,0.1,5,4.4,-2.28683,-3.46928,0.50054,0.027281,0.169772,-0.000758469,-0.334024,-0.549793,0.0508726,0.00786708,0.110464,5,0.1,6,4.4,-1.92616,-2.34146,0.5,0.111359,-0.219476,-1.49012e-06,0.0107288,-0.396252,2.98023e-05,0.0102248,2.93406,5,0.1,7,4.4,1.20202,4.21147,1.32799,-0.00229776,-0.503314,0.0206143,0.00208616,-0.048399,-0.020206,0.0249149,0.411193,5,0.1,8,4.4,1.64985,3.75384,1.34082,0.000137091,-0.469142,0.0089407,-0.000178814,0.304818,-0.00828505,0.0350369,0.273479,5,0.1,9,4.4,-2.15094,-3.78673,0.842116,0.417101,0.026232,0.120625,0.149131,0.0113249,0.376999,0.0307799,0.490091,5,0.1,10,4.4,-0.137929,-3.0948,1.3327,-0.214656,-0.0281215,0.0308692,0.328504,0.0990629,0.0879765,0.0136471,0.22306,5,0.1,11,4.4,-4.70576,-3.51205,0.609376,0.0014782,0.00200272,-0.000113249,-0.00739098,-0.00977516,0.000536442,0.0135677,7.60635e-06,5,0.1,12,4.4,1.14598,4.6086,0.550017,0.00490248,0.00649691,4.02331e-05,0.00119209,0.00166893,2.98023e-05,0.0201625,1.44347e-05,5,0.1,13,4.4,-0.391759,3.80001,0.601851,0.232721,-0.000143051,-0.00287592,0.0443459,0.00679493,0.00286102,0.0271597,0.276558,5,0.1,14,4.4,-3.37105,-1.89951,1.16981,0.0383854,0.866026,0.0962049,-0.0127554,-5.96046e-05,-0.0277758,0.0191474,2.26539,5,0.1,15,4.4,-0.172447,3.48638,0.601508,0.138075,-0.85122,-0.000667572,0.0173748,-0.296116,0.00116229,0.0173337,2.26826,5,0.1,16,4.4,0.299811,1.29758,0.600762,0.0030525,0.272006,-0.000436604,-0.034377,0.110269,-0.000834465,0.00946607,0.327425,5,0.1,17,4.4,-0.0111781,1.38453,0.592425,-0.281227,0.23106,-0.00807494,-0.0696856,0.0835657,0.00196695,0.00823913,0.227845,5,0.1,18,4.4,-1.81933,-2.90825,0.569366,-0.0115037,0.357938,-0.0075534,0.00625849,-0.215292,0.00411272,0.0136138,0.0579432,5,0.1,19,4.4,0.9,-2.40046,0.749927,0.0360742,-0.0112653,0.000549853,0.38439,0.0492334,-0.00211596,0.0114183,0.153406,5,0.1
0,4.5,2.82061,1.50084,0.600184,0.311908,-0.00210889,-0.000460166,-0.0943244,0.00555813,0.00124052,0.0108981,0.0802682,5,0.1,1,4.5,-0.399672,1.47303,0.5,0.000553252,0.0254415,0,-0.00749342,-0.0505894,0,0.0068113,0.250772,5,0.1,2,4.5,-2.07836,-2.55446,0.600913,-0.494402,-0.0905372,0.00796085,-1.64466,-0.280678,0.0393279,0.0116271,2.71881,5,0.1,3,4.5,-3.27503,2.25714,0.613554,-0.0328049,0.000145286,-0.00043083,0.139266,-0.000536442,0.00174344,0.00886148,0.000528715,5,0.1,4,4.5,-0.0999435,-2.12899,0.600511,0.000464823,0.0654198,-0.00108462,0.034865,-0.109315,0.00158697,0.00861141,0.245774,5,0.1,5,4.5,-2.28578,-3.45535,0.500716,-0.0062827,0.10655,0.00419877,-0.325993,-0.682905,0.0467673,0.00786708,0.110464,5,0.1,6,4.5,-1.9162,-2.36554,0.5,0.0775576,-0.26296,5.58794e-07,-0.614315,-0.442818,7.45058e-06,0.0102248,2.93406,5,0.1,7,4.5,1.2018,4.16072,1.32996,-0.00209566,-0.512575,0.0187973,0.00198931,-0.104219,-0.016816,0.0249149,0.411193,5,0.1,8,4.5,1.64986,3.70813,1.34167,0.000121631,-0.447456,0.00817925,-0.000141561,0.158414,-0.00719726,0.0350369,0.273479,5,0.1,9,4.5,-2.10837,-3.78406,0.856141,0.434688,0.0270858,0.160117,0.174254,0.00491738,0.391617,0.0307799,0.490091,5,0.1,10,4.5,-0.157593,-3.09714,1.33629,-0.177334,-0.0188969,0.0414141,0.406099,0.0845194,0.114903,0.0136471,0.22306,5,0.1,11,4.5,-4.70565,-3.5119,0.609368,0.000777841,0.00107661,-6.24917e-05,-0.00655651,-0.00861287,0.000473112,0.0135677,7.60635e-06,5,0.1,12,4.5,1.14647,4.60925,0.550021,0.00480283,0.00637174,4.10713e-05,-0.00292808,-0.0038743,-1.11759e-05,0.0201625,1.44347e-05,5,0.1,13,4.5,-0.368287,3.80003,0.601577,0.236253,0.000581145,-0.0025983,0.0169482,0.00697374,0.00273809,0.0271597,0.276558,5,0.1,14,4.5,-3.36726,-1.81291,1.17932,0.0375263,0.866025,0.0944348,-0.00655651,1.49012e-05,-0.0130311,0.0191474,2.26539,5,0.1,15,4.5,-0.15851,3.40035,0.601446,0.140866,-0.8651,-0.000571087,0.0297111,-0.0370145,0.000797212,0.0173337,2.26826,5,0.1,16,4.5,0.299963,1.32537,0.600715,0.000188593,0.283908,-0.000505801,-0.0227094,0.110783,-0.000540167,0.00946607,0.327425,5,0.1,17,4.5,-0.0394942,1.40781,0.591657,-0.283442,0.232247,-0.00701463,0.0292739,-0.0563636,0.0176094,0.00823913,0.227845,5,0.1,18,4.5,-1.82043,-2.87349,0.568635,-0.0103517,0.337448,-0.00704322,0.0159517,-0.205934,0.00608712,0.0136138,0.0579432,5,0.1,19,4.5,0.905879,-2.40136,0.749972,0.0840496,-0.00681654,0.000361167,0.538528,0.0396669,-0.00166893,0.0114183,0.153406,5,0.1
0,4.6,2.85135,1.50065,0.600144,0.302678,-0.00160933,-0.000350177,-0.1055,0.00447035,0.00101328,0.0119393,0.0671826,5,0.1,1,4.6,-0.399653,1.47535,0.5,-0.000153482,0.0214338,0,-0.0063777,-0.0317097,0,0.00820303,0.250453,5,0.1,2,4.6,-2.13566,-2.56492,0.601903,-0.646329,-0.118351,0.011754,-1.33038,-0.259638,0.0348687,0.0121594,2.393,5,0.1,3,4.6,-3.27766,2.25715,0.613519,-0.0203133,9.53674e-05,-0.000272691,0.110388,-0.000357628,0.00140071,0.0237565,0.000318553,5,0.1,4,4.6,-0.0997869,-2.12298,0.60041,0.00211541,0.0548601,-0.000928342,0.0016503,-0.102282,0.00154972,0.00958267,0.245154,5,0.1,5,4.6,-2.28795,-3.44812,0.501353,-0.036025,0.0386775,0.00834465,-0.261188,-0.65124,0.0351369,0.00795244,0.0729467,5,0.1,6,4.6,-1.91205,-2.39392,0.5,0.00143051,-0.30278,1.49012e-06,-0.851393,-0.331759,0,0.0111854,3.27655,5,0.1,7,4.6,1.20161,4.10907,1.33176,-0.00188947,-0.518584,0.0171363,0.00214577,0.00715256,-0.0168085,0.0226681,0.666896,5,0.1,8,4.6,1.64987,3.66413,1.34246,0.000110269,-0.432348,0.00745654,-0.000119209,0.165343,-0.00745058,0.0231758,1.30421,5,0.1,9,4.6,-2.06418,-3.78134,0.873992,0.44713,0.0270784,0.195312,0.0547171,-0.00572205,0.297159,0.0222495,0.359698,5,0.1,10,4.6,-0.173248,-3.09863,1.341,-0.135553,-0.0113606,0.0524551,0.420175,0.0656843,0.100136,0.00891963,0.429232,5,0.1,11,4.6,-4.7056,-3.51183,0.609364,0.000202656,0.000303984,-1.93715e-05,-0.00548363,-0.00679493,0.00038743,0.00921687,4.61885e-06,5,0.1,12,4.6,1.14693,4.60986,0.550025,0.00436008,0.00578165,3.8743e-05,-0.00560284,-0.00739098,-5.96046e-05,0.00895022,8.43505e-06,5,0.1,13,4.6,-0.344685,3.80012,0.601331,0.234564,0.00113845,-0.00232011,-0.0568777,0.00393391,0.00286102,0.0180199,0.25885,5,0.1,14,4.6,-3.36355,-1.7263,1.18869,0.0367105,0.866026,0.0926733,-0.0113249,-5.96046e-05,-0.0260472,0.0145147,2.26585,5,0.1,15,4.6,-0.144313,3.31377,0.601393,0.14253,-0.866026,-0.000500679,-0.0025481,0,0.000596046,0.0121148,2.25848,5,0.1,16,4.6,0.299889,1.3542,0.600662,-0.00147447,0.291288,-0.000542402,-0.0105798,0.0251532,-0.000208616,0.00789461,1.9297,5,0.1,17,4.6,-0.067504,1.43055,0.591059,-0.274829,0.220528,-0.00484586,0.144526,-0.174105,0.0244379,0.0103324,0.273181,5,0.1,18,4.6,-1.82137,-2.84083,0.567964,-0.00846982,0.31485,-0.00634193,0.0210404,-0.25332,0.00792742,0.00726605,0.029361,5,0.1,19,4.6,0.916983,-2.40186,0.75,0.137423,-0.00333786,0.000216067,0.501931,0.0299215,-0.0012517,0.010977,0.0931104,5,0.1
0,4.7,2.88127,1.50051,0.600114,0.297031,-0.00121836,-0.000261981,-0.0286996,0.00340492,0.000756234,0.0119393,0.0671826,5,0.1,1,4.7,-0.399694,1.47737,0.5,-0.000608154,0.01914,0,-0.002902,-0.0160113,0,0.00820303,0.250453,5,0.1,2,4.7,-2.20648,-2.57814,0.603258,-0.764515,-0.146233,0.0153583,-0.994191,-0.280365,0.0353307,0.0121594,2.393,5,0.1,3,4.7,-3.27918,2.25716,0.613499,-0.0104841,6.14673e-05,-0.000147056,0.0861138,-0.000312924,0.00110641,0.0237565,0.000318553,5,0.1,4,4.7,-0.0995723,-2.11796,0.600325,0.00212045,0.0461604,-0.000781007,-0.00171317,-0.0741631,0.00140816,0.00958267,0.245154,5,0.1,5,4.7,-2.29279,-3.44748,0.50235,-0.0598442,-0.0252314,0.0114523,-0.209436,-0.607967,0.0263005,0.00795244,0.0729467,5,0.1,6,4.7,-1.91574,-2.42552,0.5,-0.0711452,-0.325627,1.11759e-06,-0.602663,-0.125214,-7.45058e-06,0.0111854,3.27655,5,0.1,7,4.7,1.20143,4.05685,1.33339,-0.00168756,-0.528684,0.0156235,0.00193715,-0.163436,-0.0140071,0.0226681,0.666896,5,0.1,8,4.7,1.64988,3.62076,1.34317,0.000100024,-0.442759,0.00677612,-8.19564e-05,-0.300735,-0.00638515,0.0231758,1.30421,5,0.1,9,4.7,-2.01914,-3.77867,0.895002,0.453446,0.0263982,0.224392,0.0490919,-0.00861287,0.268023,0.0222495,0.359698,5,0.1,10,4.7,-0.184743,-3.09947,1.34686,-0.0949094,-0.00580698,0.065667,0.385824,0.0453591,0.151448,0.00891963,0.429232,5,0.1,11,4.7,-4.7056,-3.51183,0.609363,-0.000283122,-0.000305101,1.52737e-05,-0.00417233,-0.00531971,0.000305474,0.00921687,4.61885e-06,5,0.1,12,4.7,1.14734,4.6104,0.550028,0.00370853,0.00491813,3.23169e-05,-0.00722706,-0.00956655,-7.07805e-05,0.00895022,8.43505e-06,5,0.1,13,4.7,-0.321613,3.8003,0.601113,0.225824,0.00290647,-0.0020355,-0.11922,0.0240803,0.00283867,0.0180199,0.25885,5,0.1,14,4.7,-3.35992,-1.6397,1.19787,0.0359744,0.866025,0.091039,-0.00545382,1.49012e-05,-0.0118762,0.0145147,2.26585,5,0.1,15,4.7,-0.130026,3.22716,0.601345,0.14346,-0.866026,-0.000455044,0.0125756,0,0.000350177,0.0121148,2.25848,5,0.1,16,4.7,0.299569,1.38413,0.600676,-0.00566947,0.31266,0.00138413,-0.0569578,0.347279,0.034444,0.00789461,1.9297,5,0.1,17,4.7,-0.0941215,1.45172,0.590728,-0.256145,0.202809,-0.00150837,0.227081,-0.183284,0.0397563,0.0103324,0.273181,5,0.1,18,4.7,-1.82207,-2.81056,0.567369,-0.00519324,0.291013,-0.00555459,0.0416264,-0.232533,0.00786781,0.00726605,0.029361,5,0.1,19,4.7,0.933226,-2.40206,0.750016,0.186779,-0.000740588,0.000108127,0.463996,0.0220835,-0.000912696,0.010977,0.0931104,5,0.1
0,4.8,2.91081,1.50041,0.600091,0.293303,-0.000917912,-0.000195205,-0.0611544,0.002563,0.000536442,0.0113254,0.106276,5,0.1,1,4.8,-0.399765,1.47922,0.5,-0.000768155,0.0179052,0,-0.000476837,-0.0100136,0,0.00712795,0.250278,5,0.1,2,4.8,-2.28711,-2.59408,0.604958,-0.839639,-0.171399,0.0184998,-0.491977,-0.210524,0.0261366,0.0100837,2.26812,5,0.1,3,4.8,-3.27984,2.25716,0.613489,-0.00309348,2.98023e-05,-5.06639e-05,0.0619888,-0.000238419,0.00077486,0.00851868,0.000144857,5,0.1,4,4.8,-0.0993753,-2.11368,0.600254,0.00175443,0.0395954,-0.00064671,-0.00562519,-0.0590086,0.0013113,0.00875356,0.241633,5,0.1,5,4.8,-2.2997,-3.45285,0.503607,-0.0769973,-0.0797629,0.013496,-0.130415,-0.469923,0.0141561,0.0073931,0.0389381,5,0.1,6,4.8,-1.92548,-2.45837,0.5,-0.119689,-0.328022,0,-0.371456,0.0752211,0,0.0106034,3.32127,5,0.1,7,4.8,1.20127,4.00319,1.33489,-0.00149906,-0.543386,0.0142395,0.00196695,-0.0970364,-0.0140667,0.0230038,0.961855,5,0.1,8,4.8,1.64989,3.57471,1.34381,9.23872e-05,-0.47971,0.00614226,-0.000119209,-0.383139,-0.0063777,0.0248652,2.67977,5,0.1,9,4.8,-1.97371,-3.77608,0.918623,0.453156,0.0252426,0.246152,-0.0703335,-0.0150204,0.155985,0.0203847,0.253265,5,0.1,10,4.8,-0.192407,-3.09986,1.35418,-0.0595111,-0.00225902,0.0805438,0.317782,0.026226,0.136733,0.00884976,0.419359,5,0.1,11,4.8,-4.70565,-3.51189,0.609366,-0.000631809,-0.000745058,4.02331e-05,-0.00286102,-0.00369549,0.000208616,0.00797612,2.06747e-06,5,0.1,12,4.8,1.14767,4.61084,0.550031,0.00295639,0.00392199,2.5332e-05,-0.0077486,-0.010252,-5.96046e-05,0.00759771,8.01047e-06,5,0.1,13,4.8,-0.299737,3.8007,0.600924,0.210582,0.00476837,-0.00175089,-0.185683,0.00882149,0.00286102,0.0220088,2.83526,5,0.1,14,4.8,-3.35635,-1.5531,1.2069,0.0352621,0.866026,0.089404,-0.0101328,-5.96046e-05,-0.0244975,0.0148289,2.26627,5,0.1,15,4.8,-0.115649,3.14056,0.601301,0.143585,-0.866026,-0.000424683,-0.0161153,0,0.000268221,0.0198678,2.25865,5,0.1,16,4.8,0.298747,1.4173,0.601014,-0.0102378,0.351098,0.00558197,-0.0244379,0.380039,0.046134,0.0122782,1.73252,5,0.1,17,4.8,-0.11848,1.47105,0.590784,-0.229881,0.183395,0.00265539,0.29559,-0.206769,0.0415444,0.0169515,3.8172,5,0.1,18,4.8,-1.82237,-2.78264,0.566853,-0.000649691,0.266826,-0.00476241,0.0469089,-0.257254,0.00798702,0.0105621,0.582634,5,0.1,19,4.8,0.954019,-2.40203,0.750023,0.226659,0.00109076,3.12924e-05,0.319183,0.0146627,-0.000596046,0.0171467,0.123794,5,0.1
0,4.9,2.94006,1.50033,0.600074,0.29323,-0.000693463,-0.000148173,0.0356734,0.0019595,0.000406057,0.0113254,0.106276,5,0.1,1,4.9,-0.399841,1.48097,0.5,-0.000725733,0.0172626,0,0.00115298,-0.00408292,0,0.00712795,0.250278,5,0.1,2,4.9,-2.37263,-2.61231,0.606941,-0.863929,-0.193219,0.0211388,-0.0749081,-0.210151,0.0249669,0.0100837,2.26812,5,0.1,3,4.9,-3.27987,2.25716,0.613487,0.00214688,7.82311e-06,1.57394e-05,0.0430197,-0.000193715,0.000555068,0.00851868,0.000144857,5,0.1,4,4.9,-0.0991538,-2.11002,0.600195,0.00316857,0.033693,-0.000524428,0.0243355,-0.0588,0.00113621,0.00875356,0.241633,5,0.1,5,4.9,-2.30796,-3.46302,0.505014,-0.0873256,-0.121845,0.0145025,-0.0741333,-0.362515,0.00578538,0.0073931,0.0389381,5,0.1,6,4.9,-1.93874,-2.4903,0.5,-0.140641,-0.306549,-3.72529e-07,-0.0758916,0.322446,-7.45058e-06,0.0106034,3.32127,5,0.1,7,4.9,1.20113,3.94787,1.33625,-0.00131801,-0.566358,0.0129728,0.00168383,-0.306875,-0.0117198,0.0230038,0.961855,5,0.1,8,4.9,1.6499,3.52372,1.34454,8.15839e-05,-0.548381,0.00952929,-8.9407e-05,-0.890225,0.0651181,0.0248652,2.67977,5,0.1,9,4.9,-1.92871,-3.77363,0.943992,0.446713,0.0237547,0.260646,-0.0767112,-0.0153482,0.120923,0.0203847,0.253265,5,0.1,10,4.9,-0.196915,-3.09998,1.36293,-0.0321216,-0.000205263,0.0943461,0.229489,0.0151545,0.131138,0.00884976,0.419359,5,0.1,11,4.9,-4.70573,-3.51198,0.609371,-0.000861287,-0.00104755,5.71832e-05,-0.00172853,-0.00232458,0.00013411,0.00797612,2.06747e-06,5,0.1,12,4.9,1.14793,4.61118,0.550033,0.00217576,0.0028871,1.93715e-05,-0.00771135,-0.0102222,-5.96046e-05,0.00759771,8.01047e-06,5,0.1,13,4.9,-0.279469,3.80155,0.600763,0.195867,0.0137687,-0.00147857,-0.120103,0.101388,0.00260025,0.0220088,2.83526,5,0.1,14,4.9,-3.35286,-1.4665,1.21575,0.0346195,0.866025,0.0878736,-0.00469387,1.49012e-05,-0.0111312,0.0148289,2.26627,5,0.1,15,4.9,-0.101321,3.05396,0.60126,0.14328,-0.866026,-0.000407733,0.00156932,0,0.000104308,0.0198678,2.25865,5,0.1,16,4.9,0.297546,1.45457,0.601828,-0.0134617,0.395909,0.0108751,-0.00763871,0.473976,0.0564978,0.0122782,1.73252,5,0.1,17,4.9,-0.139432,1.48624,0.591267,-0.184473,0.102401,0.00705672,0.577529,-1.28014,0.0444837,0.0169515,3.8172,5,0.1,18,4.9,-1.82196,-2.75841,0.566598,0.0108128,0.208027,0.00118501,0.165679,-0.847727,0.0993758,0.0105621,0.582634,5,0.1,19,4.9,0.978338,-2.40186,0.750024,0.259714,0.00226349,-1.73226e-05,0.319324,0.00891089,-0.00037998,0.0171467,0.123794,5,0.1
