id,t,px,py,pz,vx,vy,vz,ax,ay,az,planning_time,qp_cost,planning_report,size,id,t,px,py,pz,vx,vy,vz,ax,ay,az,planning_time,qp_cost,planning_report,size,id,t,px,py,pz,vx,vy,vz,ax,ay,az,planning_time,qp_cost,planning_report,size,id,t,px,py,pz,vx,vy,vz,ax,ay,az,planning_time,qp_cost,planning_report,size,id,t,px,py,pz,vx,vy,vz,ax,ay,az,planning_time,qp_cost,planning_report,size,id,t,px,py,pz,vx,vy,vz,ax,ay,az,planning_time,qp_cost,planning_report,size,id,t,px,py,pz,vx,vy,vz,ax,ay,az,planning_time,qp_cost,planning_report,size,id,t,px,py,pz,vx,vy,vz,ax,ay,az,planning_time,qp_cost,planning_report,size,id,t,px,py,pz,vx,vy,vz,ax,ay,az,planning_time,qp_cost,planning_report,size,id,t,px,py,pz,vx,vy,vz,ax,ay,az,planning_time,qp_cost,planning_report,size,id,t,px,py,pz,vx,vy,vz,ax,ay,az,planning_time,qp_cost,planning_report,size,id,t,px,py,pz,vx,vy,vz,ax,ay,az,planning_time,qp_cost,planning_report,size,id,t,px,py,pz,vx,vy,vz,ax,ay,az,planning_time,qp_cost,planning_report,size,id,t,px,py,pz,vx,vy,vz,ax,ay,az,planning_time,qp_cost,planning_report,size,id,t,px,py,pz,vx,vy,vz,ax,ay,az,planning_time,qp_cost,planning_report,size,id,t,px,py,pz,vx,vy,vz,ax,ay,az,planning_time,qp_cost,planning_report,size,id,t,px,py,pz,vx,vy,vz,ax,ay,az,planning_time,qp_cost,planning_report,size,id,t,px,py,pz,vx,vy,vz,ax,ay,az,planning_time,qp_cost,planning_report,size,id,t,px,py,pz,vx,vy,vz,ax,ay,az,planning_time,qp_cost,planning_report,size,id,t,px,py,pz,vx,vy,vz,ax,ay,az,planning_time,qp_cost,planning_report,size
0,0,-0.805051,-0.801675,0.541834,0,0,0,0,0,0,0.0135517,3.5122,5,0.1,1,0,-4.49917,-3.05221,0.595504,0,0,0,0,0,0,0.0268271,1.86963,5,0.1,2,0,-0.187688,2.37679,0.617994,0,0,0,0,0,0,0.0177589,3.5122,5,0.1,3,0,-1.8205,-5.61198,0.560931,0,0,0,0,0,0,0.0222038,3.51219,5,0.1,4,0,-0.469307,4.44931,0.556138,0,0,0,0,0,0,0.014182,3.5122,5,0.1,5,0,-5.13186,-2.4177,0.612113,0,0,0,0,0,0,0.0210032,1.86886,5,0.1,6,0,5.61947,0.996832,0.508844,0,0,0,0,0,0,0.00976636,1.99451,5,0.1,7,0,2.31406,-2.26904,0.636821,0,0,0,0,0,0,0.0160134,0.403451,5,0.1,8,0,5.05734,1.31178,0.673055,0,0,0,0,0,0,0.0126021,0.926781,5,0.1,9,0,-5.12585,-5.82594,0.537744,0,0,0,0,0,0,0.0312188,1.45813,5,0.1,10,0,0.968942,2.54661,0.621007,0,0,0,0,0,0,0.013628,2.55595,5,0.1,11,0,-3.95516,-2.64706,0.591078,0,0,0,0,0,0,0.0223361,3.5122,5,0.1,12,0,-1.57344,-1.34799,0.579494,0,0,0,0,0,0,0.0141707,3.51219,5,0.1,13,0,1.28671,4.83194,0.573058,0,0,0,0,0,0,0.0968515,0.73748,5,0.1,14,0,3.30935,-0.127573,0.578406,0,0,0,0,0,0,0.0115725,1.82475,5,0.1,15,0,0.482568,-2.30387,0.679261,0,0,0,0,0,0,0.0223913,3.5122,5,0.1,16,0,4.32505,-3.81506,0.528347,0,0,0,0,0,0,0.0405428,3.5122,5,0.1,17,0,-0.275672,-1.13995,0.67753,0,0,0,0,0,0,0.0123077,2.61235,5,0.1,18,0,0.450371,-0.727816,0.672335,0,0,0,0,0,0,0.0123146,3.51219,5,0.1,19,0,-1.20737,5.73087,0.625568,0,0,0,0,0,0,0.0482173,3.51219,5,0.1
0,0.1,-0.806195,-0.803421,0.541892,-0.032458,-0.049563,0.00164909,-0.577029,-0.881124,0.0293143,0.0135517,3.5122,5,0.1,1,0.1,-4.49839,-3.0509,0.595508,0.0222027,0.0371084,0.000133272,0.394702,0.659704,0.00236556,0.0268271,1.86963,5,0.1,2,0.1,-0.187242,2.37475,0.617977,0.0126794,-0.0578947,-0.000467896,0.225412,-1.02925,-0.0083223,0.0177589,3.5122,5,0.1,3,0.1,-1.82055,-5.60991,0.561214,-0.00131931,0.0587061,0.00803946,-0.0234619,1.04368,0.142928,0.0222038,3.51219,5,0.1,4,0.1,-0.468916,4.44726,0.556166,0.0110956,-0.0582159,0.00078585,0.197256,-1.03498,0.0139698,0.014182,3.5122,5,0.1,5,0.1,-5.13042,-2.41721,0.612101,0.0409506,0.0138599,-0.000358839,0.728041,0.246391,-0.00638142,0.0210032,1.86886,5,0.1,6,0.1,5.61798,0.997358,0.508783,-0.0420637,0.014911,-0.00174381,-0.74783,0.265084,-0.0310019,0.00976636,1.99451,5,0.1,7,0.1,2.31337,-2.26918,0.636783,-0.0196788,-0.00388101,-0.00109114,-0.349864,-0.0689924,-0.0193939,0.0160134,0.403451,5,0.1,8,0.1,5.05629,1.31198,0.672979,-0.0298508,0.00557732,-0.00216505,-0.53069,0.0991598,-0.038486,0.0126021,0.926781,5,0.1,9,0.1,-5.12598,-5.82471,0.538279,-0.00367984,0.0348471,0.0151805,-0.0654161,0.619501,0.269871,0.0312188,1.45813,5,0.1,10,0.1,0.968087,2.54505,0.620985,-0.0242685,-0.0443507,-0.000622496,-0.431444,-0.788465,-0.0110641,0.013628,2.55595,5,0.1,11,0.1,-3.95308,-2.64686,0.591085,0.0590026,0.00559576,0.000202004,1.04895,0.0994653,0.00358745,0.0223361,3.5122,5,0.1,12,0.1,-1.57146,-1.34731,0.579509,0.0560731,0.0191934,0.00043828,0.996843,0.341207,0.00779331,0.0141707,3.51219,5,0.1,13,0.1,1.28677,4.83143,0.573869,0.0018755,-0.0142828,0.0230241,0.0333413,-0.253916,0.409316,0.0968515,0.73748,5,0.1,14,0.1,3.30981,-0.129006,0.578429,0.0130586,-0.0406707,0.000639912,0.23216,-0.723034,0.0113808,0.0115725,1.82475,5,0.1,15,0.1,0.482386,-2.30179,0.6793,-0.00516116,0.0590332,0.00109784,-0.0917558,1.04946,0.0195205,0.0223913,3.5122,5,0.1,16,0.1,4.32296,-3.81501,0.528403,-0.0592299,0.0014402,0.00158632,-1.05301,0.0256002,0.0282042,0.0405428,3.5122,5,0.1,17,0.1,-0.274445,-1.14127,0.677606,0.03484,-0.0373406,0.00214754,0.619378,-0.663839,0.0381805,0.0123077,2.61235,5,0.1,18,0.1,0.448673,-0.72903,0.672287,-0.0482113,-0.0344461,-0.00136737,-0.857089,-0.612371,-0.0243112,0.0123146,3.51219,5,0.1,19,0.1,-1.20736,5.72891,0.626285,0.000206754,-0.0556618,0.0203565,0.00368059,-0.989556,0.36189,0.0482173,3.51219,5,0.1
0,0.2,-0.812788,-0.813488,0.542227,-0.102583,-0.156644,0.00521094,-0.769407,-1.17481,0.0391006,0.0159564,2.9396,5,0.1,1,0.2,-4.49388,-3.04336,0.595535,0.0701547,0.117278,0.000420213,0.526667,0.879645,0.00318885,0.0240132,1.53392,5,0.1,2,0.2,-0.184666,2.36299,0.617882,0.0400733,-0.182974,-0.0014782,0.300542,-1.37222,-0.0110865,0.0234852,2.9258,5,0.1,3,0.2,-1.82082,-5.59799,0.562847,-0.00416934,0.185537,0.025408,-0.0312924,1.39165,0.190586,0.0299278,2.92578,5,0.1,4,0.2,-0.466662,4.43544,0.556325,0.0350669,-0.183988,0.00248402,0.26302,-1.37997,0.0186265,0.0178603,2.92624,5,0.1,5,0.2,-5.1221,-2.41439,0.612028,0.129414,0.0438035,-0.00113547,0.971079,0.328541,-0.00849366,0.0348901,1.53328,5,0.1,6,0.2,5.60944,1.00039,0.508428,-0.132942,0.0471264,-0.00551194,-0.997066,0.353396,-0.041306,0.0133641,1.63654,5,0.1,7,0.2,2.30937,-2.26997,0.636561,-0.0621915,-0.0122666,-0.00344962,-0.466585,-0.0919104,-0.0258386,0.0281009,0.331009,5,0.1,8,0.2,5.05023,1.31311,0.672539,-0.0943422,0.0176281,-0.00684261,-0.707626,0.132263,-0.0513196,0.0203896,0.760378,5,0.1,9,0.2,-5.12672,-5.81763,0.541362,-0.0116229,0.110137,0.0479773,-0.0874996,0.82612,0.359803,0.0448295,1.19631,5,0.1,10,0.2,0.963158,2.53604,0.620858,-0.0767007,-0.140166,-0.00196844,-0.575274,-1.05143,-0.0147223,0.0223358,2.09702,5,0.1,11,0.2,-3.9411,-2.64572,0.591126,0.186479,0.0176847,0.00063926,1.39868,0.132561,0.00476837,0.0411266,2.92578,5,0.1,12,0.2,-1.56007,-1.34341,0.579598,0.177217,0.0606626,0.00138432,1.32918,0.454903,0.0104308,0.018509,2.94767,5,0.1,13,0.2,1.28715,4.82853,0.578546,0.00592768,-0.0451326,0.0727668,0.0444651,-0.338793,0.54577,0.124176,0.605059,5,0.1,14,0.2,3.31246,-0.137267,0.578559,0.0412703,-0.128539,0.00202209,0.309467,-0.964053,0.0151694,0.0105809,1.49712,5,0.1,15,0.2,0.481338,-2.2898,0.679523,-0.0163123,0.186574,0.00346899,-0.122324,1.39928,0.0260472,0.0213916,2.92579,5,0.1,16,0.2,4.31093,-3.81472,0.528726,-0.187194,0.00455379,0.00501424,-1.40381,0.0340939,0.0376105,0.0498387,2.92581,5,0.1,17,0.2,-0.267368,-1.14885,0.678042,0.110111,-0.118014,0.00678748,0.825852,-0.885069,0.0509024,0.0143563,2.1433,5,0.1,18,0.2,0.43888,-0.736026,0.672009,-0.152372,-0.108866,-0.00432134,-1.14278,-0.816494,-0.0324249,0.0218639,2.92636,5,0.1,19,0.2,-1.20732,5.7176,0.63042,0.000655651,-0.175917,0.0643373,0.00488758,-1.31941,0.4825,0.0901572,2.9258,5,0.1
0,0.3,-0.827031,-0.835494,0.542959,-0.182719,-0.286315,0.00953842,-0.7971,-1.34706,0.0450388,0.0159564,2.9396,5,0.1,1,0.3,-4.48394,-3.02675,0.595595,0.130554,0.218182,0.000785012,0.644177,1.07637,0.00388548,0.0240132,1.53392,5,0.1,2,0.3,-0.178987,2.33706,0.617673,0.0746385,-0.340795,-0.00275346,0.369363,-1.6865,-0.0136308,0.0234852,2.9258,5,0.1,3,0.3,-1.82141,-5.5717,0.566448,-0.0077676,0.345585,0.0473262,-0.038445,1.71024,0.234213,0.0299278,2.92578,5,0.1,4,0.3,-0.461763,4.40935,0.556694,0.0633297,-0.34303,0.00509657,0.28792,-1.70186,0.0312552,0.0178603,2.92624,5,0.1,5,0.3,-5.10377,-2.40819,0.611867,0.240792,0.08149,-0.00211038,1.18804,0.402004,-0.010401,0.0348901,1.53328,5,0.1,6,0.3,5.59061,1.00706,0.507683,-0.247317,0.0876667,-0.00924552,-1.22014,0.432469,-0.032682,0.0133641,1.63654,5,0.1,7,0.3,2.30056,-2.2717,0.636073,-0.11571,-0.0228122,-0.00641448,-0.570893,-0.112504,-0.0316389,0.0281009,0.331009,5,0.1,8,0.3,5.03686,1.31561,0.67157,-0.175515,0.0327984,-0.0127295,-0.865877,0.161819,-0.0628009,0.0203896,0.760378,5,0.1,9,0.3,-5.12837,-5.80203,0.548157,-0.0216506,0.2049,0.0892517,-0.106901,1.01084,0.440296,0.0448295,1.19631,5,0.1,10,0.3,0.952294,2.51619,0.62058,-0.14269,-0.260771,-0.00365833,-0.703942,-1.28652,-0.0180341,0.0223358,2.09702,5,0.1,11,0.3,-3.91467,-2.64322,0.591216,0.347337,0.0329327,0.00118855,1.71891,0.162974,0.00587106,0.0411266,2.92578,5,0.1,12,0.3,-1.53533,-1.33506,0.579802,0.319568,0.106128,0.00279518,1.44657,0.437252,0.0165738,0.018509,2.94767,5,0.1,13,0.3,1.28799,4.82214,0.588852,0.011028,-0.0839859,0.135372,0.0544041,-0.414431,0.667837,0.124176,0.605059,5,0.1,14,0.3,3.31831,-0.155472,0.578845,0.0767719,-0.239127,0.00376217,0.378713,-1.17969,0.0185594,0.0105809,1.49712,5,0.1,15,0.3,0.479027,-2.26336,0.680014,-0.0303812,0.347504,0.00646375,-0.150342,1.7197,0.0319928,0.0213916,2.92579,5,0.1,16,0.3,4.2844,-3.81408,0.529436,-0.348649,0.00847615,0.00933958,-1.72535,0.0419468,0.0462197,0.0498387,2.92581,5,0.1,17,0.3,-0.251773,-1.16557,0.679003,0.204845,-0.219543,0.0126267,1.01057,-1.08306,0.0622943,0.0143563,2.1433,5,0.1,18,0.3,0.417335,-0.751401,0.671396,-0.282445,-0.201273,-0.0080673,-1.38033,-0.976827,-0.0401512,0.0218639,2.92636,5,0.1,19,0.3,-1.20723,5.69267,0.639537,0.00121854,-0.327662,0.11983,0.00602007,-1.62154,0.592995,0.0901572,2.9258,5,0.1
0,0.4,-0.849089,-0.870661,0.544132,-0.25578,-0.413665,0.0138029,-0.638098,-1.14757,0.0384748,0.0242362,2.86662,5,0.1,1,0.4,-4.46772,-2.99965,0.595693,0.192547,0.32177,0.00115782,0.56839,0.949621,0.00342727,0.037185,1.21364,5,0.1,2,0.4,-0.169708,2.2947,0.61733,0.110226,-0.503284,-0.00406504,0.326574,-1.49119,-0.0120997,0.0203417,2.51172,5,0.1,3,0.4,-1.82237,-5.52873,0.572332,-0.0114709,0.510371,0.0698909,-0.0340343,1.51181,0.207096,0.0295144,2.51374,5,0.1,4,0.4,-0.454046,4.36668,0.557365,0.0901803,-0.507152,0.00831932,0.238702,-1.50728,0.0313818,0.0154183,2.55442,5,0.1,5,0.4,-5.07386,-2.39806,0.611605,0.355124,0.120181,-0.00311136,1.04785,0.354648,-0.00917912,0.0242874,1.21313,5,0.1,6,0.4,5.55989,1.01795,0.506614,-0.364733,0.129288,-0.0119388,-1.0767,0.381529,-0.0207722,0.0100493,1.29534,5,0.1,7,0.4,2.28619,-2.27454,0.635276,-0.170648,-0.0336468,-0.00945926,-0.503659,-0.0991821,-0.027895,0.0185517,0.261895,5,0.1,8,0.4,5.01506,1.31968,0.669989,-0.258839,0.0483692,-0.0187725,-0.764132,0.142813,-0.0554025,0.0150415,0.601616,5,0.1,9,0.4,-5.13106,-5.77658,0.559245,-0.0319362,0.302172,0.131626,-0.0941753,0.891924,0.388443,0.02847,0.94653,5,0.1,10,0.4,0.934568,2.48379,0.620125,-0.210436,-0.384581,-0.00539571,-0.621051,-1.13499,-0.0158846,0.0128304,1.65918,5,0.1,11,0.4,-3.87149,-2.63912,0.591364,0.512946,0.0486314,0.00175536,1.5198,0.144243,0.0051856,0.0229108,2.51471,5,0.1,12,0.4,-1.49643,-1.3224,0.580166,0.454232,0.145188,0.00448674,1.19501,0.331938,0.0163317,0.0154403,3.0074,5,0.1,13,0.4,1.28936,4.81171,0.605669,0.0162661,-0.12387,0.199644,0.0479221,-0.365496,0.589162,0.0707472,0.478724,5,0.1,14,0.4,3.32785,-0.185179,0.579312,0.113225,-0.352658,0.00554919,0.334024,-1.04076,0.0163615,0.0109607,1.18454,5,0.1,15,0.4,0.475249,-2.22016,0.680818,-0.0448667,0.513196,0.00954717,-0.132933,1.52051,0.0282526,0.0166957,2.51482,5,0.1,16,0.4,4.24106,-3.81302,0.530597,-0.514889,0.012517,0.0137925,-1.5254,0.0370741,0.0408888,0.0730996,2.51554,5,0.1,17,0.4,-0.226325,-1.19284,0.680572,0.302101,-0.323778,0.0186205,0.891551,-0.955462,0.0549853,0.022351,1.69581,5,0.1,18,0.4,0.382328,-0.776306,0.670392,-0.414829,-0.294717,-0.0119433,-1.20963,-0.85175,-0.0356138,0.0175073,2.53612,5,0.1,19,0.4,-1.20708,5.65194,0.654434,0.00179708,-0.483894,0.176965,0.00536442,-1.43361,0.524312,0.0652047,2.51008,5,0.1
0,0.5,-0.876647,-0.917384,0.545652,-0.284453,-0.516276,0.0161216,0.0179186,-0.877194,0.00947714,0.0242362,2.86662,5,0.1,1,0.5,-4.44557,-2.96264,0.595826,0.250207,0.418117,0.00150483,0.556529,0.930056,0.00334531,0.037185,1.21364,5,0.1,2,0.5,-0.157006,2.23683,0.616862,0.143832,-0.653024,-0.005309,0.328258,-1.43161,-0.0121407,0.0203417,2.51172,5,0.1,3,0.5,-1.82369,-5.47012,0.580386,-0.0149721,0.660373,0.0912011,-0.0341907,1.41859,0.208147,0.0295144,2.51374,5,0.1,4,0.5,-0.443824,4.30904,0.558363,0.114075,-0.638784,0.011691,0.227628,-1.09866,0.0341646,0.0154183,2.55442,5,0.1,5,0.5,-5.03301,-2.38424,0.611247,0.461438,0.156164,-0.00404296,1.02624,0.347361,-0.00899658,0.0242874,1.21313,5,0.1,6,0.5,5.51793,1.03282,0.50535,-0.473967,0.167999,-0.0130231,-1.05447,0.373699,-0.00194833,0.0100493,1.29534,5,0.1,7,0.5,2.26656,-2.27841,0.634188,-0.221747,-0.0437126,-0.0122901,-0.493258,-0.0971854,-0.0273362,0.0185517,0.261895,5,0.1,8,0.5,4.98529,1.32525,0.667829,-0.336362,0.062857,-0.0243937,-0.748277,0.13984,-0.0542589,0.0150415,0.601616,5,0.1,9,0.5,-5.13474,-5.74182,0.574385,-0.04149,0.392663,0.171038,-0.0921786,0.873536,0.38046,0.02847,0.94653,5,0.1,10,0.5,0.910363,2.43955,0.619505,-0.273447,-0.499735,-0.00700857,-0.608262,-1.1116,-0.0155792,0.0128304,1.65918,5,0.1,11,0.5,-3.8126,-2.63352,0.591566,0.663072,0.0634719,0.00228938,1.414,0.144944,0.00522286,0.0229108,2.51471,5,0.1,12,0.5,-1.44639,-1.30681,0.580767,0.533839,0.161351,0.00809692,0.428088,0.0123456,0.0507683,0.0154403,3.0074,5,0.1,13,0.5,1.29124,4.79746,0.628633,0.02113,-0.16095,0.259421,0.0469759,-0.357926,0.577047,0.0707472,0.478724,5,0.1,14,0.5,3.34087,-0.225743,0.579951,0.147118,-0.458253,0.00720946,0.3272,-1.01935,0.0160299,0.0109607,1.18454,5,0.1,15,0.5,0.470079,-2.16124,0.681918,-0.058546,0.663331,0.012455,-0.133619,1.41355,0.0284053,0.0166957,2.51482,5,0.1,16,0.5,4.18196,-3.81158,0.532187,-0.665084,0.0163328,0.0179996,-1.41042,0.0372678,0.0410862,0.0730996,2.51554,5,0.1,17,0.5,-0.191576,-1.23008,0.682714,0.392558,-0.420721,0.0241987,0.873205,-0.935845,0.0538453,0.022351,1.69581,5,0.1,18,0.5,0.334685,-0.809824,0.669008,-0.537582,-0.372879,-0.0157849,-1.18496,-0.687204,-0.0389479,0.0175073,2.53612,5,0.1,19,0.5,-1.20687,5.59617,0.674827,0.00234861,-0.63142,0.230919,0.00538677,-1.44103,0.527013,0.0652047,2.51008,5,0.1
0,0.6,-0.904239,-0.972769,0.547275,-0.260758,-0.584662,0.0159934,0.417113,-0.473559,-0.010699,0.0161416,2.38247,5,0.1,1,0.6,-4.41798,-2.91653,0.595992,0.299048,0.499737,0.00179857,0.400066,0.669003,0.00241399,0.033343,0.903505,5,0.1,2,0.6,-0.141095,2.16495,0.616274,0.172926,-0.777543,-0.00638515,0.241406,-1.00994,-0.00891089,0.0224655,2.31271,5,0.1,3,0.6,-1.82535,-5.3976,0.590474,-0.0180006,0.782537,0.10965,-0.0251532,0.979185,0.153065,0.0256759,2.32565,5,0.1,4,0.6,-0.431374,4.24052,0.559695,0.133745,-0.722671,0.0148296,0.157759,-0.56386,0.0272691,0.0190487,1.88421,5,0.1,5,0.6,-4.98212,-2.36702,0.610801,0.551498,0.186646,-0.00483245,0.738382,0.249863,-0.0064671,0.0301114,0.903142,5,0.1,6,0.6,5.46566,1.05135,0.504062,-0.566494,0.200796,-0.0125214,-0.758648,0.268757,0.0110567,0.00967751,0.966286,5,0.1,7,0.6,2.24211,-2.28323,0.632833,-0.265032,-0.0522435,-0.0146896,-0.354886,-0.0699759,-0.0196695,0.0209593,0.194971,5,0.1,8,0.6,4.94819,1.33218,0.665139,-0.402033,0.0751257,-0.0291556,-0.538111,0.100613,-0.039041,0.018279,0.447876,5,0.1,9,0.6,-5.13931,-5.69851,0.593248,-0.0495791,0.469303,0.204426,-0.0662804,0.62871,0.273675,0.0357041,0.758983,5,0.1,10,0.6,0.880206,2.38444,0.618732,-0.326826,-0.59728,-0.00837594,-0.437528,-0.799656,-0.0112057,0.0156961,1.23521,5,0.1,11,0.6,-3.73985,-2.62649,0.59182,0.784391,0.0763178,0.00275224,0.967503,0.106573,0.0038445,0.0223222,2.33054,5,0.1,12,0.6,-1.39191,-1.291,0.581852,0.545824,0.15153,0.0137374,-0.159621,-0.190914,0.0580847,0.0155227,3.13362,5,0.1,13,0.6,1.29357,4.77971,0.657243,0.0252515,-0.192356,0.31006,0.0337958,-0.257492,0.415087,0.0848199,0.356396,5,0.1,14,0.6,3.35709,-0.276281,0.580746,0.175834,-0.547706,0.00861585,0.235438,-0.733286,0.0115335,0.0106765,0.999208,5,0.1,15,0.6,0.463603,-2.08847,0.683296,-0.0703894,0.784564,0.0149727,-0.0982732,0.96643,0.0208914,0.0187567,2.3311,5,0.1,16,0.6,4.10904,-3.80977,0.534178,-0.785756,0.0196397,0.021641,-0.959158,0.0274181,0.0302196,0.0435259,2.33439,5,0.1,17,0.6,-0.148283,-1.27648,0.685383,0.469185,-0.502846,0.0289232,0.628163,-0.673234,0.038743,0.011975,1.33159,5,0.1,18,0.6,0.27545,-0.850113,0.667245,-0.641524,-0.428155,-0.0193417,-0.851362,-0.402659,-0.0305474,0.0133512,2.26864,5,0.1,19,0.6,-1.20661,5.52633,0.700371,0.00282526,-0.759149,0.277629,0.00393391,-1.05953,0.387579,0.0545541,1.98846,5,0.1
0,0.7,-0.927984,-1.03406,0.548803,-0.212284,-0.644085,0.0144304,0.528555,-0.648141,-0.0195093,0.0161416,2.38247,5,0.1,1,0.7,-4.38611,-2.86326,0.596184,0.337455,0.563964,0.00203,0.346154,0.578821,0.00208244,0.033343,0.903505,5,0.1,2,0.7,-0.12258,2.08319,0.615591,0.197154,-0.847606,-0.00727922,0.227871,-0.411138,-0.00841171,0.0224655,2.31271,5,0.1,3,0.7,-1.82728,-5.31551,0.602215,-0.0205245,0.849345,0.125013,-0.0237375,0.38138,0.144504,0.0256759,2.32565,5,0.1,4,0.7,-0.417229,4.16698,0.561314,0.148746,-0.734444,0.0175305,0.133246,0.264883,0.0253022,0.0190487,1.88421,5,0.1,5,0.7,-4.92334,-2.34713,0.610286,0.622383,0.210634,-0.00545345,0.638783,0.216186,-0.00559539,0.0301114,0.903142,5,0.1,6,0.7,5.40538,1.0727,0.502882,-0.636529,0.225214,-0.0109485,-0.606626,0.207938,0.0195242,0.00967751,0.966286,5,0.1,7,0.7,2.21386,-2.2888,0.631267,-0.2991,-0.0589617,-0.0165781,-0.307024,-0.0605583,-0.0170246,0.0209593,0.194971,5,0.1,8,0.7,4.90534,1.34019,0.662032,-0.453695,0.0847831,-0.0329036,-0.465602,0.0870228,-0.0337735,0.018279,0.447876,5,0.1,9,0.7,-5.14459,-5.64919,0.615035,-0.0559419,0.509875,0.2307,-0.0573397,0.192195,0.236794,0.0357041,0.758983,5,0.1,10,0.7,0.845373,2.32078,0.617839,-0.36883,-0.674049,-0.00945237,-0.378549,-0.691831,-0.00970811,0.0156961,1.23521,5,0.1,11,0.7,-3.65763,-2.61832,0.592114,0.849985,0.0870112,0.00313818,0.370383,0.100568,0.00363588,0.0223222,2.33054,5,0.1,12,0.7,-1.33887,-1.2761,0.583562,0.508375,0.152181,0.0207811,-0.559494,0.159815,0.0775941,0.0155227,3.13362,5,0.1,13,0.7,1.29626,4.75921,0.690288,0.028497,-0.217076,0.349911,0.029251,-0.222743,0.359137,0.0848199,0.356396,5,0.1,14,0.7,3.37584,-0.333631,0.581664,0.198438,-0.589034,0.00972338,0.203729,-0.117647,0.00998378,0.0106765,0.999208,5,0.1,15,0.7,0.456087,-2.00624,0.684899,-0.079663,0.850042,0.017065,-0.0822917,0.369348,0.0196397,0.0187567,2.3311,5,0.1,16,0.7,4.02673,-3.80767,0.536495,-0.850461,0.0223916,0.0246728,-0.362232,0.0258833,0.0285134,0.0435259,2.33439,5,0.1,17,0.7,-0.09902,-1.32982,0.688471,0.508431,-0.560127,0.032803,0.169081,-0.451796,0.0363737,0.011975,1.33159,5,0.1,18,0.7,0.206908,-0.895233,0.66516,-0.729099,-0.475926,-0.0222766,-0.840205,-0.505023,-0.0266097,0.0133512,2.26864,5,0.1,19,0.7,-1.20631,5.44602,0.730059,0.00320915,-0.837921,0.31543,0.00352412,-0.515968,0.346351,0.0545541,1.98846,5,0.1
0,0.8,-0.946544,-1.10155,0.550141,-0.159109,-0.702786,0.0122741,0.518143,-0.477552,-0.0228882,0.0130115,1.91706,5,0.1,1,0.8,-4.35087,-2.80437,0.596396,0.36459,0.609344,0.00219196,0.181675,0.303984,0.00110269,0.0270949,0.637924,5,0.1,2,0.8,-0.10185,1.99716,0.614825,0.215916,-0.866026,-0.00797063,0.136789,0,-0.00503659,0.0214906,1.94151,5,0.1,3,0.8,-1.82944,-5.22942,0.615359,-0.0224769,0.866032,0.136912,-0.0142455,-0.000238419,0.0867844,0.0236821,2.25712,5,0.1,4,0.8,-0.401789,4.0958,0.563181,0.158887,-0.681043,0.0196457,0.0635237,0.753641,0.015974,0.0150022,1.66421,5,0.1,5,0.8,-4.85835,-2.32513,0.609717,0.67246,0.227588,-0.00589192,0.335455,0.113368,-0.00295043,0.0259291,0.637658,5,0.1,6,0.8,5.33918,1.09608,0.501893,-0.681961,0.240457,-0.00877678,-0.277996,0.0892878,0.0231862,0.0104495,0.692803,5,0.1,7,0.8,2.18262,-2.29495,0.629536,-0.323164,-0.0637114,-0.0179127,-0.16129,-0.0318289,-0.0089705,0.0176199,0.137656,5,0.1,8,0.8,4.85796,1.34904,0.658596,-0.490201,0.0916064,-0.0355512,-0.244379,0.0456572,-0.0177324,0.0138291,0.316224,5,0.1,9,0.8,-5.15043,-5.5979,0.639128,-0.0604391,0.509787,0.249265,-0.0300407,-0.183582,0.124365,0.0279383,0.679559,5,0.1,10,0.8,0.806856,2.25039,0.616852,-0.398511,-0.728291,-0.0102133,-0.198752,-0.363231,-0.005126,0.0107679,1.10418,5,0.1,11,0.8,-3.57152,-2.60917,0.592444,0.866026,0.0952899,0.0034377,0,0.0603199,0.00217557,0.0200727,2.40548,5,0.1,12,0.8,-1.29129,-1.25981,0.586025,0.439435,0.175679,0.0283509,-0.793993,0.27591,0.0699759,0.00680242,0.761086,5,0.1,13,0.8,1.29923,4.73654,0.72683,0.0307918,-0.234544,0.378068,0.0153184,-0.116825,0.188619,0.0703655,0.251633,5,0.1,14,0.8,3.39656,-0.392276,0.582679,0.21441,-0.575972,0.0105053,0.106931,0.355885,0.00527501,0.00805728,0.905004,5,0.1,15,0.8,0.447768,-1.92013,0.686693,-0.0860281,0.866026,0.0186786,-0.0417233,0,0.0117719,0.0204879,2.26591,5,0.1,16,0.8,3.9406,-3.80532,0.539089,-0.866026,0.0245273,0.0270203,0,0.015378,0.0170767,0.0418737,2.2755,5,0.1,17,0.8,-0.0480023,-1.38759,0.691913,0.505542,-0.589913,0.0357777,-0.213808,-0.131607,0.0213981,0.0131721,0.960903,5,0.1,18,0.8,0.130219,-0.945198,0.662816,-0.799384,-0.520955,-0.0244081,-0.523597,-0.361234,-0.014931,0.0141651,2.10402,5,0.1,19,0.8,-1.20597,5.3605,0.763118,0.00349283,-0.864363,0.343183,0.00190735,-0.0331402,0.193655,0.0502469,1.4768,5,0.1
0,0.9,-0.961055,-1.17435,0.551305,-0.141343,-0.753121,0.0114287,-0.0971369,-0.478342,0.00299141,0.0130115,1.91706,5,0.1,1,0.9,-4.31354,-2.74198,0.59662,0.381053,0.63689,0.00229152,0.130087,0.217736,0.000786036,0.0270949,0.637924,5,0.1,2,0.9,-0.0795724,1.91056,0.614003,0.229322,-0.866026,-0.00846433,0.118408,0,-0.00435486,0.0214906,1.94151,5,0.1,3,0.9,-1.83176,-5.14282,0.629502,-0.023949,0.866023,0.145882,-0.0136867,2.98023e-05,0.0834055,0.0236821,2.25712,5,0.1,4,0.9,-0.3856,4.03224,0.565223,0.164534,-0.584561,0.02115,0.0422262,1.08655,0.0129789,0.0150022,1.66421,5,0.1,5,0.9,-4.7895,-2.30183,0.609113,0.702855,0.237863,-0.00615921,0.240266,0.0812411,-0.00211596,0.0259291,0.637658,5,0.1,6,0.9,5.26979,1.1205,0.501132,-0.703265,0.246768,-0.00644336,-0.124812,0.0297204,0.0229739,0.0104495,0.692803,5,0.1,7,0.9,2.14954,-2.30148,0.627702,-0.337778,-0.0665963,-0.0187255,-0.115514,-0.0227988,-0.00642613,0.0176199,0.137656,5,0.1,8,0.9,4.80778,1.35842,0.654956,-0.512345,0.0957431,-0.0371578,-0.175059,0.0327006,-0.0126995,0.0138291,0.316224,5,0.1,9,0.9,-5.15662,-5.54856,0.664647,-0.0631608,0.470509,0.260535,-0.0214875,-0.571042,0.0890866,0.0279383,0.679559,5,0.1,10,0.9,0.766057,2.17567,0.615806,-0.416521,-0.765651,-0.0106777,-0.142366,-0.33918,-0.00367686,0.0107679,1.10418,5,0.1,11,0.9,-3.48537,-2.59933,0.592799,0.852323,0.101503,0.00366205,-0.27886,0.0575632,0.00208244,0.0200727,2.40548,5,0.1,12,0.9,-1.25234,-1.24179,0.589189,0.330937,0.176381,0.0346612,-1.30377,-0.218138,0.0542775,0.00680242,0.761086,5,0.1,13,0.9,1.30238,4.71253,0.765536,0.0321811,-0.245131,0.39516,0.0109896,-0.0836551,0.135105,0.0703655,0.251633,5,0.1,14,0.9,3.41851,-0.447306,0.583755,0.2241,-0.517753,0.0109831,0.0766218,0.769654,0.00377744,0.00805728,0.905004,5,0.1,15,0.9,0.438933,-1.83353,0.688622,-0.090761,0.866026,0.0198962,-0.0467114,0,0.0113174,0.0204879,2.26591,5,0.1,16,0.9,3.854,-3.80278,0.54188,-0.865769,0.026115,0.0287793,0.0102669,0.0147521,0.0162981,0.0418737,2.2755,5,0.1,17,0.9,0.00168945,-1.44738,0.695592,0.489706,-0.606566,0.0377103,-0.128287,-0.164151,0.0154935,0.0131721,0.960903,5,0.1,18,0.9,0.0478709,-0.999289,0.6603,-0.844632,-0.561625,-0.0258901,-0.348862,-0.408437,-0.0132211,0.0141651,2.10402,5,0.1,19,0.9,-1.20561,5.27397,0.798371,0.00366978,-0.865673,0.361088,0.00146031,0.00563264,0.146974,0.0502469,1.4768,5,0.1
0,1,-0.976244,-1.25171,0.552485,-0.166814,-0.789845,0.0123411,-0.360787,-0.220835,0.012964,0.0123525,1.69884,5,0.1,1,1,-4.27499,-2.67754,0.596852,0.387716,0.648046,0.00233203,-0.00858307,-0.0140667,-5.96046e-05,0.0275342,0.43381,5,0.1,2,1,-0.0561651,1.82396,0.613139,0.237428,-0.866026,-0.00876188,0.0349265,5.96046e-05,-0.0013113,0.0181019,1.54036,5,0.1,3,1,-1.83421,-5.05621,0.64444,-0.0249565,0.866032,0.152032,-0.00542402,-0.000238419,0.0331998,0.0235493,2.25556,5,0.1,4,1,-0.369018,3.9792,0.567391,0.16614,-0.477767,0.0220507,-0.0148714,0.998259,0.00429153,0.0151591,1.23857,5,0.1,5,1,-4.71839,-2.27776,0.60849,0.71516,0.242019,-0.00626892,-0.0154972,-0.005126,0.000149012,0.0249177,0.433627,5,0.1,6,1,5.19925,1.14518,0.500598,-0.703132,0.245243,-0.00426769,0.141859,-0.0644326,0.0201464,0.0142909,0.491206,5,0.1,7,1,2.11536,-2.30822,0.625807,-0.343692,-0.0677645,-0.0190556,0.00751019,0.0013113,0.000417233,0.0201076,0.16178,5,0.1,8,1,4.75594,1.36811,0.651196,-0.521314,0.0974149,-0.0378087,0.0114441,-0.00208616,0.000834465,0.0170629,0.215047,5,0.1,9,1,-5.16301,-5.50479,0.691008,-0.0642538,0.401247,0.265098,0.00143051,-0.78845,-0.00569224,0.0384336,3.59295,5,0.1,10,1,0.723913,2.09775,0.614726,-0.423813,-0.788581,-0.0108674,0.00914931,-0.0884533,0.000208616,0.0106794,0.776513,5,0.1,11,1,-3.40202,-2.58894,0.593174,0.809747,0.105727,0.0038147,-0.572801,0.0225306,0.000834465,0.0178508,2.80988,5,0.1,12,1,-1.22612,-1.22576,0.592888,0.191522,0.139952,0.0388891,-1.42825,-0.475109,0.0290871,0.0074018,0.410971,5,0.1,13,1,1.30564,4.68772,0.805519,0.0327408,-0.249422,0.40208,-0.000655651,0.00572205,-0.00864267,0.0661987,0.17112,5,0.1,14,1,3.44118,-0.494816,0.584866,0.228029,-0.429087,0.0111774,-0.00500679,0.972047,-0.000238419,0.00872734,0.614601,5,0.1,15,1,0.429657,-1.74693,0.690659,-0.0943117,0.866026,0.0207305,-0.0199378,-5.96046e-05,0.00447035,0.0148094,2.26534,5,0.1,16,1,3.76756,-3.80011,0.544826,-0.861925,0.0271976,0.0299752,0.0821352,0.00572205,0.0063777,0.0450409,2.33792,5,0.1,17,1,0.0499888,-1.50866,0.699419,0.475505,-0.616413,0.038588,-0.174139,-0.00679493,0.000834465,0.0108923,0.708473,5,0.1,18,1,-0.0378472,-1.05728,0.657658,-0.864421,-0.595176,-0.0268027,-0.032078,-0.231743,-0.00402331,0.013365,2.03746,5,0.1,19,1,-1.20524,5.18752,0.83502,0.00375509,-0.862098,0.369664,0.000119209,0.0789165,0.0129044,0.0506636,1.09445,5,0.1
0,1.1,-0.995394,-1.33183,0.553806,-0.221306,-0.811842,0.0142389,-0.669468,-0.178836,0.0227205,0.0123525,1.69884,5,0.1,1,1.1,-4.23628,-2.61284,0.597085,0.386,0.645198,0.00232095,-0.0399351,-0.0665933,-0.000249594,0.0275342,0.43381,5,0.1,2,1.1,-0.0322508,1.73776,0.612257,0.240559,-0.854176,-0.00887895,0.0173557,0.225969,-0.000651926,0.0181019,1.54036,5,0.1,3,1.1,-1.83674,-4.96961,0.659842,-0.0256199,0.866023,0.156087,-0.00634789,2.98023e-05,0.038784,0.0235493,2.25556,5,0.1,4,1.1,-0.352484,3.93603,0.569615,0.164349,-0.389124,0.02241,-0.0268091,0.786453,0.00198185,0.0151591,1.23857,5,0.1,5,1.1,-4.64698,-2.2536,0.607864,0.712019,0.240967,-0.00624033,-0.0734925,-0.0247657,0.000651926,0.0249177,0.433627,5,0.1,6,1.1,5.1297,1.16936,0.500265,-0.686841,0.23817,-0.00247182,0.204414,-0.0839233,0.0156052,0.0142909,0.491206,5,0.1,7,1.1,2.08096,-2.31503,0.623891,-0.344427,-0.0688292,-0.0193509,-0.00436604,-0.0170767,-0.0047721,0.0201076,0.16178,5,0.1,8,1.1,4.70389,1.37783,0.647421,-0.519014,0.0969885,-0.0376415,0.0536144,-0.0100061,0.00389665,0.0170629,0.215047,5,0.1,9,1.1,-5.16937,-5.46879,0.717256,-0.0624388,0.317498,0.257626,0.0338554,-0.865638,-0.139415,0.0384336,3.59295,5,0.1,10,1.1,0.681596,2.01843,0.613641,-0.421955,-0.797257,-0.0108221,0.0435039,-0.0492856,0.00109151,0.0106794,0.776513,5,0.1,11,1.1,-3.32485,-2.57824,0.593561,0.725786,0.108404,0.00391304,-1.04682,0.0248849,0.000916421,0.0178508,2.80988,5,0.1,12,1.1,-1.21424,-1.21393,0.596973,0.0457851,0.0986325,0.0431952,-1.44168,-0.355653,0.051301,0.0074018,0.410971,5,0.1,13,1.1,1.30891,4.66282,0.845666,0.0326023,-0.248303,0.40032,-0.00332296,0.0258088,-0.0412539,0.0661987,0.17112,5,0.1,14,1.1,3.46395,-0.532685,0.585983,0.227025,-0.327322,0.0111285,-0.0234395,1.0317,-0.00115111,0.00872734,0.614601,5,0.1,15,1.1,0.4201,-1.66032,0.692758,-0.0969244,0.866025,0.0212728,-0.0263155,1.49012e-05,0.00514463,0.0148094,2.26534,5,0.1,16,1.1,3.68246,-3.79736,0.547861,-0.836817,0.0278842,0.0307359,0.295281,0.0064224,0.00709295,0.0450409,2.33792,5,0.1,17,1.1,0.0969829,-1.57036,0.703277,0.46666,-0.616968,0.0385002,-0.0362797,0.0216737,-0.00387058,0.0108923,0.708473,5,0.1,18,1.1,-0.124383,-1.11813,0.654952,-0.865692,-0.622635,-0.0273131,0.00531286,-0.275314,-0.00467896,0.013365,2.03746,5,0.1,19,1.1,-1.20487,5.10142,0.872035,0.00375938,-0.861589,0.37011,-0.000186265,-0.0184476,-0.0181198,0.0506636,1.09445,5,0.1
0,1.2,-1.02098,-1.41357,0.555344,-0.290266,-0.818852,0.0164881,-0.665009,0.0659227,0.0205636,0.0102723,1.27499,5,0.1,1,1.2,-4.19802,-2.54889,0.597315,0.377381,0.630802,0.00226796,-0.142097,-0.236988,-0.000864267,0.0240948,0.288466,5,0.1,2,1.2,-0.0082061,1.65379,0.611369,0.239173,-0.822267,-0.00882894,-0.0520039,0.408828,0.00193715,0.0146273,1.2463,5,0.1,3,1.2,-1.83932,-4.88301,0.675592,-0.0259727,0.866032,0.15824,0.000417233,-0.000238419,-0.00199676,0.0249407,2.25518,5,0.1,4,1.2,-0.336242,3.90078,0.571856,0.159808,-0.318331,0.0222936,-0.0679046,0.638723,-0.00485778,0.0211693,1.54919,5,0.1,5,1.2,-4.57641,-2.22972,0.607246,0.696123,0.235599,-0.00610054,-0.261307,-0.0884533,0.00229478,0.0253919,0.291603,5,0.1,6,1.2,5.06228,1.19268,0.500088,-0.658906,0.227332,-0.00116527,0.36788,-0.13721,0.0104904,0.0109477,0.351382,5,0.1,7,1.2,2.0466,-2.32199,0.621934,-0.341552,-0.0702262,-0.0197425,0.0742674,-0.00703335,-0.00193715,0.0199888,0.142902,5,0.1,8,1.2,4.65245,1.38744,0.643691,-0.507426,0.094825,-0.0367999,0.190735,-0.0356436,0.0137985,0.0142225,0.143002,5,0.1,9,1.2,-5.1754,-5.44135,0.742132,-0.0577092,0.231814,0.238101,0.0598431,-0.832558,-0.246584,0.0234182,3.83527,5,0.1,10,1.2,0.639778,1.93876,0.612568,-0.412542,-0.79245,-0.0105828,0.154972,0.169456,0.00399351,0.0101256,0.808984,5,0.1,11,1.2,-3.25789,-2.56731,0.593955,0.610715,0.109661,0.00395924,-1.21069,-0.0038147,-8.9407e-05,0.0169375,2.86026,5,0.1,12,1.2,-1.21659,-1.20568,0.601547,-0.089094,0.0680029,0.0481546,-1.22344,-0.26089,0.0436902,0.0141472,4.08208,5,0.1,13,1.2,1.31214,4.63821,0.88534,0.0318795,-0.242734,0.391391,-0.0119805,0.0910759,-0.147015,0.065063,0.11379,5,0.1,14,1.2,3.48645,-0.560371,0.587085,0.221956,-0.228077,0.0108808,-0.0833273,0.931472,-0.00411272,0.00638798,0.589359,5,0.1,15,1.2,0.410306,-1.57372,0.694904,-0.0985548,0.866026,0.0215515,-0.00207126,-5.96046e-05,-0.000447035,0.00655158,0.716371,5,0.1,16,1.2,3.6,-3.79454,0.55096,-0.81504,0.0282109,0.0310972,0.14317,-0.000953674,-0.00101328,0.0448702,2.19045,5,0.1,17,1.2,0.14347,-1.63173,0.707092,0.462465,-0.607738,0.0376061,-0.0719351,0.180364,-0.0148714,0.00924768,0.504699,5,0.1,18,1.2,-0.210839,-1.18156,0.652207,-0.862297,-0.643069,-0.0274852,0.0745809,-0.103772,0.00229478,0.0110789,2.01814,5,0.1,19,1.2,-1.20449,5.01534,0.90881,0.00369251,-0.85721,0.36369,-0.00113249,0.141144,-0.119567,0.0478001,0.78152,5,0.1
0,1.3,-1.05354,-1.49515,0.557103,-0.362036,-0.812291,0.0187205,-0.725016,0.0978038,0.0223294,0.0102723,1.27499,5,0.1,1,1.3,-4.16098,-2.48697,0.597537,0.36334,0.607375,0.00218246,-0.150472,-0.251144,-0.000916421,0.0240948,0.288466,5,0.1,2,1.3,0.0154587,1.57414,0.610496,0.233981,-0.76797,-0.0086355,-0.0602621,0.575736,0.0022389,0.0146273,1.2463,5,0.1,3,1.3,-1.84193,-4.79641,0.691452,-0.0261191,0.866023,0.159177,-0.00184774,2.98023e-05,0.0116043,0.0249407,2.25518,5,0.1,4,1.3,-0.320592,3.87218,0.574062,0.153152,-0.253751,0.0217916,-0.0700727,0.633821,-0.00593066,0.0211693,1.54919,5,0.1,5,1.3,-4.50822,-2.2065,0.606648,0.666182,0.229442,-0.00584684,-0.349998,-0.0477433,0.00291318,0.0253919,0.291603,5,0.1,6,1.3,4.99813,1.21477,0.500015,-0.624287,0.214692,-0.000364333,0.34529,-0.123173,0.00572205,0.0109477,0.351382,5,0.1,7,1.3,2.01324,-2.32906,0.619948,-0.321838,-0.0710718,-0.0199774,0.304982,-0.00631809,-0.00175834,0.0199888,0.142902,5,0.1,8,1.3,4.60264,1.39675,0.640078,-0.488575,0.0913015,-0.0354353,0.20206,-0.0377819,0.0146329,0.0142225,0.143002,5,0.1,9,1.3,-5.18087,-5.42217,0.76467,-0.0514507,0.153843,0.212303,0.0652075,-0.716716,-0.268959,0.0234182,3.83527,5,0.1,10,1.3,0.599281,1.86119,0.611529,-0.397222,-0.75145,-0.0101884,0.164237,0.617743,0.00422075,0.0101256,0.808984,5,0.1,11,1.3,-3.20318,-2.55635,0.594351,0.482541,0.109391,0.00396185,-1.26852,-0.00633299,-4.47035e-05,0.0169375,2.86026,5,0.1,12,1.3,-1.22861,-1.19943,0.606477,-0.125132,0.0633489,0.0494854,0.354089,0.125721,-0.0137649,0.0141472,4.08208,5,0.1,13,1.3,1.31527,4.61439,0.923761,0.0306955,-0.23373,0.376857,-0.0126883,0.0965893,-0.155814,0.065063,0.11379,5,0.1,14,1.3,3.50824,-0.578738,0.588153,0.213718,-0.142144,0.0104748,-0.0883043,0.75984,-0.00435114,0.00638798,0.589359,5,0.1,15,1.3,0.401532,-1.48854,0.696976,-0.0676676,0.824716,0.019176,0.554495,-0.770643,-0.0427552,0.00655158,0.716371,5,0.1,16,1.3,3.51834,-3.79172,0.55407,-0.824769,0.0282478,0.0311392,-0.254288,0.00025332,0.000257045,0.0448702,2.19045,5,0.1,17,1.3,0.189518,-1.69164,0.710778,0.459434,-0.590319,0.0360996,-0.0151498,0.189222,-0.0163205,0.00924768,0.504699,5,0.1,18,1.3,-0.296996,-1.24659,0.649462,-0.862737,-0.658443,-0.0274541,-0.0402704,-0.16211,-0.000149012,0.0110789,2.01814,5,0.1,19,1.3,-1.20413,4.93016,0.944594,0.00357889,-0.84692,0.351802,-0.0012666,0.104815,-0.129845,0.0478001,0.78152,5,0.1
0,1.4,-1.09317,-1.57562,0.559078,-0.427476,-0.793859,0.020656,-0.551224,0.292718,0.0151098,0.0105397,0.923968,5,0.1,1,1.4,-4.12549,-2.42764,0.59775,0.345337,0.577313,0.00207275,-0.217199,-0.362992,-0.0012815,0.0250871,0.189881,5,0.1,2,1.4,0.0384858,1.5,0.609646,0.225714,-0.717434,-0.00832975,-0.11071,0.433266,0.00411272,0.0136786,0.984305,5,0.1,3,1.4,-1.84454,-4.7098,0.707389,-0.026089,0.866032,0.159004,0.00363588,-0.000238419,-0.0214875,0.0216005,2.42212,5,0.1,4,1.4,-0.305663,3.84985,0.576204,0.144985,-0.194639,0.0209838,-0.0964552,0.537038,-0.0107586,0.0133753,2.29664,5,0.1,5,1.4,-4.44358,-2.18381,0.60608,0.624144,0.223809,-0.00549853,-0.497818,-0.0742674,0.00417233,0.0204022,0.257976,5,0.1,6,1.4,4.93753,1.2356,0.500001,-0.586367,0.201422,2.23517e-05,0.427246,-0.147402,0.00229478,0.00844138,0.253096,5,0.1,7,1.4,1.98286,-2.33617,0.617948,-0.283363,-0.0708997,-0.0199273,0.451386,0.0123978,0.00345707,0.0189641,0.196814,5,0.1,8,1.4,4.55492,1.40567,0.636617,-0.464392,0.0867784,-0.0336826,0.292063,-0.0545382,0.0211596,0.0157703,0.162847,5,0.1,9,1.4,-5.18568,-5.41011,0.784523,-0.0446916,0.0900149,0.184438,0.0698566,-0.554323,-0.287563,0.0269709,3.95802,5,0.1,10,1.4,0.560481,1.78965,0.610534,-0.377563,-0.674823,-0.00968426,0.237405,0.888467,0.00610948,0.0126894,0.687033,5,0.1,11,1.4,-3.16085,-2.54548,0.594746,0.369656,0.107598,0.00391752,-0.947118,-0.0329018,-0.000983477,0.0222521,2.64582,5,0.1,12,1.4,-1.23776,-1.19212,0.611285,-0.0450075,0.085634,0.0460207,1.12975,0.286937,-0.0526011,0.0149792,3.26196,5,0.1,13,1.4,1.31827,4.59155,0.960572,0.0291765,-0.22217,0.358206,-0.0182986,0.139713,-0.225216,0.0617108,0.127556,5,0.1,14,1.4,3.52912,-0.5896,0.589176,0.203145,-0.0798911,0.00995547,-0.127554,0.474781,-0.00628829,0.00868203,0.76934,5,0.1,15,1.4,0.398012,-1.41081,0.698639,0.000698864,0.722137,0.0137761,0.761703,-1.23388,-0.0617802,0.0130301,2.72956,5,0.1,16,1.4,3.43449,-3.7889,0.557177,-0.851488,0.0280142,0.0308782,-0.219464,-0.00596046,-0.00658631,0.0431147,1.71246,5,0.1,17,1.4,0.235302,-1.74957,0.714297,0.454922,-0.566348,0.0341654,-0.0937957,0.304341,-0.023067,0.0101249,0.351285,5,0.1,18,1.4,-0.383385,-1.31306,0.646722,-0.86349,-0.668406,-0.0272542,0.0507081,-0.00786781,0.0051856,0.0103322,2.00595,5,0.1,19,1.4,-1.20378,4.8462,0.979031,0.00342131,-0.829458,0.335784,-0.00202656,0.272036,-0.198215,0.0485115,0.543257,5,0.1
0,1.5,-1.13869,-1.65349,0.561221,-0.482297,-0.762505,0.0221708,-0.510059,0.353716,0.0138171,0.0105397,0.923968,5,0.1,1,1.5,-4.092,-2.37166,0.597951,0.324621,0.542688,0.00195,-0.206977,-0.345916,-0.00122935,0.0250871,0.189881,5,0.1,2,1.5,0.060525,1.42975,0.608833,0.215105,-0.692697,-0.00793589,-0.108456,0.119112,0.00401959,0.0136786,0.984305,5,0.1,3,1.5,-1.84714,-4.62394,0.723237,-0.0259614,0.844533,0.158276,0.000424683,-0.407606,-0.00224635,0.0216005,2.42212,5,0.1,4,1.5,-0.291627,3.83312,0.578251,0.135815,-0.14079,0.0199457,-0.091007,0.486359,-0.0106283,0.0133753,2.29664,5,0.1,5,1.5,-4.38375,-2.16155,0.605551,0.571558,0.223463,-0.0050704,-0.558019,0.0445694,0.00446662,0.0204022,0.257976,5,0.1,6,1.5,4.88088,1.25507,0.500011,-0.547843,0.188417,0.000158232,0.363529,-0.120297,0.000555068,0.00844138,0.253096,5,0.1,7,1.5,1.95693,-2.34322,0.615968,-0.233787,-0.0700735,-0.0196977,0.528157,0.00783801,0.00217557,0.0189641,0.196814,5,0.1,8,1.5,4.50978,1.41413,0.633333,-0.439407,0.082867,-0.0321653,0.227451,-0.0290796,0.0112802,0.0157703,0.162847,5,0.1,9,1.5,-5.18981,-5.40357,0.801582,-0.0380844,0.0436917,0.157224,0.0627637,-0.372827,-0.258658,0.0269709,3.95802,5,0.1,10,1.5,0.523866,1.72711,0.609595,-0.354917,-0.572555,-0.00910209,0.226224,1.09699,0.00580773,0.0126894,0.687033,5,0.1,11,1.5,-3.12808,-2.53502,0.595133,0.293615,0.100566,0.00382811,-0.483707,-0.102937,-0.000953674,0.0222521,2.64582,5,0.1,12,1.5,-1.23539,-1.18181,0.615585,0.102015,0.122789,0.0396415,1.70054,0.424489,-0.0727512,0.0149792,3.26196,5,0.1,13,1.5,1.32111,4.56989,0.995498,0.027865,-0.212152,0.342054,-0.00973791,0.0744164,-0.120036,0.0617108,0.127556,5,0.1,14,1.5,3.54882,-0.595612,0.590142,0.190975,-0.0455484,0.00935607,-0.121593,0.168502,-0.00598282,0.00868203,0.76934,5,0.1,15,1.5,0.401157,-1.34285,0.699769,0.0554549,0.653365,0.00937637,0.356434,-0.253655,-0.0287592,0.0130301,2.72956,5,0.1,16,1.5,3.34857,-3.78613,0.560236,-0.864226,0.027499,0.030308,-0.0541657,-0.00549853,-0.00610948,0.0431147,1.71246,5,0.1,17,1.5,0.280418,-1.80475,0.717602,0.447775,-0.537474,0.031949,-0.0702823,0.290722,-0.022158,0.0101249,0.351285,5,0.1,18,1.5,-0.469695,-1.38016,0.644013,-0.863926,-0.674826,-0.0269762,-0.0234677,-0.0795349,0.00189617,0.0103322,2.00595,5,0.1,19,1.5,-1.20345,4.7645,1.01166,0.00322759,-0.805066,0.316834,-0.00193715,0.248283,-0.190508,0.0485115,0.543257,5,0.1
0,1.6,-1.18917,-1.72775,0.563496,-0.523552,-0.719962,0.0231892,-0.290871,0.509262,0.00560284,0.00974579,0.705608,5,0.1,1,1.6,-4.06062,-2.3192,0.59814,0.302315,0.505388,0.00181645,-0.24581,-0.410914,-0.00146031,0.0223672,0.124803,5,0.1,2,1.6,0.0814506,1.36095,0.608061,0.202856,-0.683585,-0.00748336,-0.141211,0.105619,0.00524521,0.0124993,0.741575,5,0.1,3,1.6,-1.84973,-4.54205,0.739024,-0.0257432,0.788474,0.15699,0.00488758,-0.695467,-0.0300109,0.0212492,2.71118,5,0.1,4,1.6,-0.278519,3.82107,0.580188,0.126103,-0.104988,0.0187546,-0.105992,0.207186,-0.0136197,0.0121287,3.48931,5,0.1,5,1.6,-4.32951,-2.13894,0.605067,0.511992,0.228745,-0.00459403,-0.634909,0.0444651,0.0050962,0.00730378,0.662813,5,0.1,6,1.6,4.82794,1.2733,0.500028,-0.510204,0.176066,0.000157952,0.403166,-0.132084,-0.000476837,0.0102884,0.310837,5,0.1,7,1.6,1.93624,-2.35017,0.614014,-0.179911,-0.0687122,-0.0193164,0.53966,0.0220537,0.00613928,0.0143139,0.193909,5,0.1,8,1.6,4.467,1.42228,0.63017,-0.415516,0.0800312,-0.0310659,0.264168,-0.0314116,0.0121891,0.0122163,0.142074,5,0.1,9,1.6,-5.19331,-5.40078,0.816046,-0.0320554,0.0149369,0.132377,0.0581741,-0.206709,-0.23964,0.0233406,3.99207,5,0.1,10,1.6,0.489558,1.6753,0.608715,-0.330525,-0.46491,-0.00847578,0.268802,1.02097,0.00691414,0.00903268,0.615733,5,0.1,11,1.6,-3.1,-2.52556,0.59551,0.278872,0.0879169,0.00370145,0.158429,-0.145912,-0.00172853,0.0160407,2.25906,5,0.1,12,1.6,-1.21649,-1.1674,0.619167,0.275746,0.165004,0.0318781,1.69075,0.396192,-0.0806749,0.0128291,2.73352,5,0.1,13,1.6,1.32385,4.54903,1.02913,0.0269175,-0.204909,0.330365,-0.0106096,0.0808239,-0.129938,0.0644811,0.0739124,5,0.1,14,1.6,3.56728,-0.6,0.591046,0.17786,-0.0486523,0.00871122,-0.144482,-0.211626,-0.00709295,0.00884171,1.55062,5,0.1,15,1.6,0.407973,-1.27793,0.700601,0.0762463,0.651523,0.00756532,0.0789911,0.130057,-0.00950694,0.0119518,2.51427,5,0.1,16,1.6,3.26201,-3.78341,0.563228,-0.866026,0.0267148,0.0294402,0,-0.0109673,-0.0121295,0.041614,1.31712,5,0.1,17,1.6,0.324741,-1.85695,0.720682,0.437286,-0.505266,0.0295833,-0.154108,0.365317,-0.0257492,0.00904622,0.357245,5,0.1,18,1.6,-0.556104,-1.44789,0.641329,-0.862737,-0.677323,-0.0266165,0.0657737,0.0584126,0.00634789,0.00930147,1.7573,5,0.1,19,1.6,-1.20313,4.68541,1.04233,0.003016,-0.774324,0.296056,-0.00238419,0.388861,-0.231445,0.0458173,0.370456,5,0.1
0,1.7,-1.24294,-1.79654,0.565842,-0.55097,-0.650283,0.0237183,-0.229701,0.850745,0.00388548,0.00974579,0.705608,5,0.1,1,1.7,-4.03156,-2.27062,0.598315,0.279272,0.466865,0.00167899,-0.223309,-0.373349,-0.00133365,0.0223672,0.124803,5,0.1,2,1.7,0.101063,1.29278,0.607337,0.189557,-0.681907,-0.00698995,-0.130603,-0.0268668,0.00483543,0.0124993,0.741575,5,0.1,3,1.7,-1.85229,-4.46748,0.754633,-0.025513,0.697068,0.155563,0.0012219,-1.04114,-0.00769272,0.0212492,2.71118,5,0.1,4,1.7,-0.266445,3.81134,0.581994,0.115282,-0.095639,0.0173293,-0.111833,-0.138178,-0.0150949,0.0121287,3.48931,5,0.1,5,1.7,-4.28271,-2.1159,0.604658,0.41372,0.231144,-0.00339122,-1.25384,-0.00315905,0.0174381,0.00730378,0.662813,5,0.1,6,1.7,4.77871,1.29028,0.500041,-0.476053,0.163595,9.86271e-05,0.302076,-0.122152,-0.000674278,0.0102884,0.310837,5,0.1,7,1.7,1.92091,-2.35692,0.612114,-0.127335,-0.0663038,-0.0186442,0.502571,0.0279695,0.00781938,0.0143139,0.193909,5,0.1,8,1.7,4.42715,1.43014,0.627117,-0.378166,0.0773827,-0.0300384,0.467837,-0.0250414,0.00971928,0.0122163,0.142074,5,0.1,9,1.7,-5.19625,-5.40011,0.828167,-0.0268131,0.000336021,0.110775,0.0474453,-0.0927746,-0.195522,0.0233406,3.99207,5,0.1,10,1.7,0.457786,1.63359,0.607901,-0.305326,-0.372842,-0.00782814,0.244204,0.81218,0.00627339,0.00903268,0.615733,5,0.1,11,1.7,-3.07002,-2.51754,0.595872,0.331233,0.0719693,0.00354033,0.790775,-0.169024,-0.00161678,0.0160407,2.25906,5,0.1,12,1.7,-1.18011,-1.14882,0.621947,0.453218,0.206937,0.0236998,1.77392,0.41759,-0.0813864,0.0128291,2.73352,5,0.1,13,1.7,1.3265,4.5289,1.06159,0.0260238,-0.198099,0.319414,-0.00844896,0.0643134,-0.103511,0.0644811,0.0739124,5,0.1,14,1.7,3.58438,-0.606466,0.591883,0.164313,-0.085112,0.00804653,-0.131294,-0.479277,-0.00643358,0.00884171,1.55062,5,0.1,15,1.7,0.41563,-1.2111,0.701342,0.0737053,0.692846,0.00754418,-0.112373,0.601768,0.00700727,0.0119518,2.51427,5,0.1,16,1.7,3.17542,-3.78079,0.566116,-0.865772,0.0257004,0.028317,0.0101626,-0.0102967,-0.0113882,0.041614,1.31712,5,0.1,17,1.7,0.367925,-1.90574,0.723517,0.427953,-0.471036,0.0271632,-0.0595599,0.333957,-0.0234134,0.00904622,0.357245,5,0.1,18,1.7,-0.642209,-1.5154,0.638697,-0.859844,-0.672987,-0.0260209,0.0345856,0.0583678,0.00656769,0.00930147,1.7573,5,0.1,19,1.7,-1.20284,4.6098,1.07084,0.00279248,-0.738352,0.274322,-0.00216067,0.35724,-0.211418,0.0458173,0.370456,5,0.1
0,1.8,-1.2989,-1.85698,0.568223,-0.564855,-0.555804,0.0237837,-0.0293255,1.01238,-0.00330806,0.0100336,0.545573,5,0.1,1,1.8,-4.00477,-2.22583,0.598476,0.256264,0.428402,0.00154078,-0.242472,-0.40555,-0.00146031,0.0187159,0.166754,5,0.1,2,1.8,0.119344,1.22454,0.606663,0.175755,-0.681201,-0.00647902,-0.149392,0.0733137,0.00551343,0.0140908,0.541982,5,0.1,3,1.8,-1.85483,-4.40298,0.770126,-0.0252396,0.594413,0.153886,0.00524521,-0.961542,-0.0323355,0.021256,2.88072,5,0.1,4,1.8,-0.255494,3.8,0.583647,0.103516,-0.141507,0.0157028,-0.124261,-0.750303,-0.0175238,0.0140185,3.08147,5,0.1,5,1.8,-4.2481,-2.09293,0.604416,0.27492,0.227034,-0.00137687,-1.46198,-0.0829697,0.0216663,0.0166246,0.296547,5,0.1,6,1.8,4.7326,1.30601,0.500047,-0.445962,0.150827,2.83122e-05,0.315428,-0.136435,-0.000685453,0.00872923,0.249023,5,0.1,7,1.8,1.91057,-2.36339,0.610295,-0.0809282,-0.0628173,-0.0176653,0.419557,0.0430346,0.0120103,0.0177708,0.324598,5,0.1,8,1.8,4.3919,1.43774,0.624167,-0.32475,0.0744283,-0.0288919,0.587463,-0.0364184,0.0141263,0.00585112,0.329642,5,0.1,9,1.8,-5.1987,-5.40041,0.838319,-0.0224352,-0.00498295,0.0927255,0.0407696,-0.0197887,-0.167906,0.0230096,3.99354,5,0.1,10,1.8,0.428493,1.6,0.60715,-0.280166,-0.302467,-0.00718236,0.265151,0.603497,0.00679493,0.00881574,0.818331,5,0.1,11,1.8,-3.03256,-2.5112,0.596218,0.419754,0.0548303,0.00335574,0.905037,-0.170708,-0.00214577,0.0155946,0.167474,5,0.1,12,1.8,-1.12635,-1.12617,0.623919,0.615951,0.244263,0.0158623,1.4199,0.311077,-0.0742078,0.0137234,2.37719,5,0.1,13,1.8,1.32905,4.50944,1.09297,0.025031,-0.190532,0.307217,-0.0123382,0.0934601,-0.150502,0.0653094,0.115532,5,0.1,14,1.8,3.60014,-0.617552,0.592655,0.150782,-0.13763,0.00738353,-0.142694,-0.540555,-0.00700355,0.00696371,3.37243,5,0.1,15,1.8,0.422242,-1.13867,0.702145,0.0569224,0.755373,0.00859648,-0.209212,0.578344,0.012517,0.0125971,2.3399,5,0.1,16,1.8,3.08897,-3.77828,0.568885,-0.861961,0.0244975,0.026986,0.0811815,-0.0144243,-0.015974,0.0415121,0.985837,5,0.1,17,1.8,0.410397,-1.95112,0.726115,0.420735,-0.436008,0.0247732,-0.104234,0.376523,-0.0249445,0.00728656,0.254159,5,0.1,18,1.8,-0.727787,-1.58221,0.636135,-0.848633,-0.660589,-0.0251338,0.218958,0.209928,0.0118315,0.00929817,1.31657,5,0.1,19,1.8,-1.20257,4.53788,1.09719,0.00256598,-0.698411,0.252399,-0.00232458,0.460148,-0.232577,0.0481182,0.249714,5,0.1
0,1.9,-1.35552,-1.90728,0.570586,-0.566713,-0.448895,0.0234473,0.0145808,1.08305,-0.00430271,0.0100336,0.545573,5,0.1,1,1.9,-3.98029,-2.18475,0.598623,0.2338,0.395276,0.00140527,-0.213757,-0.278518,-0.00129268,0.0187159,0.166754,5,0.1,2,1.9,0.136211,1.15662,0.606041,0.161852,-0.67812,-0.00596624,-0.133588,0.0241473,0.00492483,0.0140908,0.541982,5,0.1,3,1.9,-1.85734,-4.34821,0.785414,-0.0249755,0.505904,0.152244,0.00151992,-0.683039,-0.00949949,0.021256,2.88072,5,0.1,4,1.9,-0.245476,3.78079,0.585125,0.0992544,-0.252801,0.0137948,0.020518,-1.36483,-0.0203885,0.0140185,3.08147,5,0.1,5,1.9,-4.22678,-2.07092,0.604368,0.161809,0.210633,0.000259094,-0.83825,-0.233963,0.0115857,0.0166246,0.296547,5,0.1,6,1.9,4.6896,1.32036,0.500047,-0.413586,0.135787,-2.91504e-05,0.338852,-0.163227,-0.000465661,0.00872923,0.249023,5,0.1,7,1.9,1.9044,-2.36944,0.608593,-0.0443118,-0.0580445,-0.0163302,0.310011,0.0526607,0.0147596,0.0177708,0.324598,5,0.1,8,1.9,4.36249,1.44521,0.62169,-0.262547,0.0765989,-0.0177712,0.643432,0.0648275,0.187334,0.00585112,0.329642,5,0.1,9,1.9,-5.20076,-5.40095,0.84683,-0.0189066,-0.00534207,0.0781804,0.0306964,0.00983477,-0.126489,0.0230096,3.99354,5,0.1,10,1.9,0.401731,1.57272,0.606463,-0.2556,-0.244026,-0.00655307,0.233775,0.555873,0.00598654,0.00881574,0.818331,5,0.1,11,1.9,-2.98667,-2.50661,0.596545,0.491831,0.0367291,0.00320887,0.530407,-0.185788,-0.001017,0.0155946,0.167474,5,0.1,12,1.9,-1.05808,-1.10015,0.625143,0.744041,0.275817,0.00873348,1.09937,0.298686,-0.0672974,0.0137234,2.37719,5,0.1,13,1.9,1.3315,4.49078,1.12296,0.0238329,-0.183155,0.292581,-0.012368,0.0637174,-0.151344,0.0653094,0.115532,5,0.1,14,1.9,3.61454,-0.633424,0.59336,0.137374,-0.175506,0.00672583,-0.129148,-0.279997,-0.00633299,0.00696371,3.37243,5,0.1,15,1.9,0.426742,-1.06019,0.703083,0.031974,0.813298,0.0102806,-0.276471,0.529725,0.0194348,0.0125971,2.3399,5,0.1,16,1.9,3.00289,-3.7759,0.571508,-0.861322,0.0231545,0.0254982,-0.0180006,-0.0132471,-0.0146516,0.0415121,0.985837,5,0.1,17,1.9,0.452074,-1.99294,0.728475,0.413489,-0.401072,0.0224613,-0.0621546,0.334486,-0.021942,0.00728656,0.254159,5,0.1,18,1.9,-0.811541,-1.64728,0.633681,-0.825617,-0.640835,-0.0239383,0.267662,0.209041,0.0127256,0.00929817,1.31657,5,0.1,19,1.9,-1.20233,4.47021,1.12133,0.00234973,-0.65572,0.23082,-0.00206381,0.415742,-0.205912,0.0481182,0.249714,5,0.1
0,2,-1.41189,-1.94691,0.572902,-0.558212,-0.34593,0.0227749,0.170231,0.951648,-0.00971556,0.00930613,0.432397,5,0.1,1,2,-3.95797,-2.14655,0.598757,0.212324,0.368971,0.00127554,-0.220299,-0.263214,-0.0013411,0.0202016,0.133506,5,0.1,2,2,0.151722,1.08909,0.60547,0.14821,-0.670284,-0.00546277,-0.142604,0.157595,0.00524521,0.0120368,0.384004,5,0.1,3,2,-1.85983,-4.3,0.800568,-0.0246882,0.468469,0.15045,0.00542402,-0.0846386,-0.0327826,0.020713,2.76258,5,0.1,4,2,-0.235334,3.74843,0.586399,0.104348,-0.395012,0.0116721,0.0671223,-1.39582,-0.0218451,0.0134028,2.64614,5,0.1,5,2,-4.21402,-2.0512,0.604439,0.100303,0.182301,0.00104159,-0.423193,-0.323415,0.00452995,0.0182816,0.222801,5,0.1,6,2,4.65002,1.33309,0.500042,-0.377095,0.11842,-6.55651e-05,0.394821,-0.182867,-0.000298023,0.00788181,0.209107,5,0.1,7,2,1.90132,-2.37497,0.607039,-0.019145,-0.0522673,-0.0147089,0.193894,0.0630617,0.0177026,0.0161553,0.321627,5,0.1,8,2,4.33946,1.45326,0.620993,-0.198424,0.0847548,0.00484288,0.628948,0.0869632,0.248611,0.00578482,0.386954,5,0.1,9,2,-5.20251,-5.4014,0.85406,-0.0161529,-0.00350475,0.0668094,0.025034,0.0245571,-0.103593,0.0228267,3.99052,5,0.1,10,2,0.377339,1.55095,0.605838,-0.232121,-0.192758,-0.00595152,0.241041,0.464201,0.00616908,0.00943379,1.05652,5,0.1,11,2,-2.93549,-2.50385,0.596861,0.525141,0.0186384,0.00311285,0.134945,-0.171781,-0.00104308,0.0200125,2.8993,5,0.1,12,2,-0.978978,-1.07124,0.625699,0.829557,0.300384,0.00258535,0.590801,0.17792,-0.0549555,0.0129444,2.23479,5,0.1,13,2,1.33381,4.4728,1.1514,0.0224322,-0.176144,0.275424,-0.0160933,0.0829697,-0.197709,0.0661974,0.262002,5,0.1,14,2,3.62763,-0.652326,0.594001,0.124335,-0.202884,0.00608712,-0.13423,-0.29704,-0.00655651,0.0079336,3.18359,5,0.1,15,2,0.428537,-0.976612,0.704208,0.00396967,0.853579,0.0121832,-0.273496,0.248939,0.0173151,0.0124314,2.28236,5,0.1,16,2,2.91684,-3.77365,0.573981,-0.856966,0.0217199,0.0239104,0.140667,-0.0160933,-0.0177026,0.0351471,0.709405,5,0.1,17,2,0.493038,-2.03137,0.730612,0.404652,-0.367028,0.020276,-0.129655,0.354767,-0.0222623,0.0100627,0.177453,5,0.1,18,2,-0.89251,-1.71016,0.631356,-0.790755,-0.614783,-0.0224814,0.446677,0.328064,0.0168681,0.00778279,1.00514,5,0.1,19,2,-1.2021,4.40679,1.14338,0.00213981,-0.611556,0.210053,-0.00214577,0.482559,-0.214159,0.0429107,0.167429,5,0.1
0,2.1,-1.46689,-1.97703,0.575132,-0.541334,-0.26047,0.0218401,0.185736,0.722393,-0.00971556,0.00930613,0.432397,5,0.1,1,2.1,-3.93778,-2.11121,0.598878,0.192096,0.335676,0.00115251,-0.190124,-0.391364,-0.00115857,0.0202016,0.133506,5,0.1,2,2.1,0.165871,1.02274,0.604948,0.135059,-0.657037,-0.00497922,-0.124536,0.136144,0.00458211,0.0120368,0.384004,5,0.1,3,2.1,-1.86228,-4.25213,0.815507,-0.0243967,0.500574,0.148695,0.00182539,0.61956,-0.0110008,0.020713,2.76258,5,0.1,4,2.1,-0.22442,3.70149,0.58746,0.114984,-0.54616,0.00957455,0.130313,-1.53977,-0.0200868,0.0134028,2.64614,5,0.1,5,2.1,-4.20546,-2.03467,0.604557,0.0765249,0.147569,0.00122124,-0.0841618,-0.362873,-0.000517815,0.0182816,0.222801,5,0.1,6,2.1,4.61423,1.34396,0.500035,-0.339131,0.0986742,-8.40053e-05,0.371039,-0.207908,-8.9407e-05,0.00788181,0.209107,5,0.1,7,2.1,1.90021,-2.37991,0.605657,-0.00457354,-0.0468563,-0.0129261,0.102431,0.047341,0.017982,0.0161553,0.321627,5,0.1,8,2.1,4.32266,1.46226,0.62283,-0.138564,0.0957662,0.0326325,0.56079,0.121631,0.292335,0.00578482,0.386954,5,0.1,9,2.1,-5.20402,-5.40163,0.860286,-0.0140816,-0.00114813,0.0582303,0.0172257,0.0221431,-0.0714324,0.0228267,3.99052,5,0.1,10,2.1,0.35526,1.53401,0.605272,-0.209991,-0.146784,-0.00538537,0.207994,0.419959,0.00532344,0.00943379,1.05652,5,0.1,11,2.1,-2.88163,-2.50399,0.597832,0.557,-0.0308421,0.0218821,0.43492,-0.741318,0.334393,0.0200125,2.8993,5,0.1,12,2.1,-0.894014,-1.04028,0.625693,0.862014,0.318845,-0.0025589,0.125814,0.171408,-0.047043,0.0129444,2.23479,5,0.1,13,2.1,1.33598,4.45577,1.17796,0.0208359,-0.162791,0.255813,-0.016287,0.177979,-0.20019,0.0661974,0.262002,5,0.1,14,2.1,3.63939,-0.673999,0.594577,0.11106,-0.23269,0.00543855,-0.132516,-0.410695,-0.00647455,0.0079336,3.18359,5,0.1,15,2.1,0.427527,-0.890492,0.705521,-0.0243009,0.865248,0.0141103,-0.281224,0.0311136,0.0197142,0.0124314,2.28236,5,0.1,16,2.1,2.83168,-3.77156,0.576288,-0.846769,0.0202268,0.0222675,0.103533,-0.0144243,-0.0158809,0.0351471,0.709405,5,0.1,17,2.1,0.532935,-2.0664,0.732535,0.393649,-0.334376,0.0182342,-0.10767,0.308618,-0.0191256,0.0100627,0.177453,5,0.1,18,2.1,-0.969537,-1.76974,0.629186,-0.750866,-0.574133,-0.0209679,0.380721,0.482455,0.0141971,0.00778279,1.00514,5,0.1,19,2.1,-1.2019,4.34791,1.16338,0.00194181,-0.566939,0.190364,-0.0018701,0.42811,-0.185423,0.0429107,0.167429,5,0.1
0,2.2,-1.51994,-2,0.577263,-0.518003,-0.204164,0.0207096,0.293076,0.411987,-0.0133514,0.0102185,0.328304,5,0.1,1,2.2,-3.91951,-2.07973,0.598988,0.173295,0.29273,0.00103861,-0.189781,-0.458717,-0.00116229,0.0175294,0.223309,5,0.1,2,2.2,0.178756,0.957871,0.604473,0.122603,-0.638197,-0.00451952,-0.127465,0.260442,0.00464916,0.0130884,0.265407,5,0.1,3,2.2,-1.8647,-4.19854,0.830299,-0.0240803,0.573504,0.146766,0.00554323,0.757456,-0.0337362,0.0213544,2.4907,5,0.1,4,2.2,-0.212269,3.63952,0.58832,0.127754,-0.687927,0.0076592,0.1138,-1.23239,-0.0182688,0.0129841,2.36661,5,0.1,5,2.2,-4.19789,-2.02174,0.604671,0.0777721,0.11121,0.00101328,0.0836849,-0.357985,-0.00330806,0.0187835,0.275816,5,0.1,6,2.2,4.58217,1.35278,0.500026,-0.301802,0.0775844,-8.49366e-05,0.379801,-0.210524,5.96046e-05,0.00968341,0.177842,5,0.1,7,2.2,1.90015,-2.38437,0.604455,0.00225008,-0.0424147,-0.0111118,0.0383854,0.0430346,0.0182986,0.0175329,0.315434,5,0.1,8,2.2,4.31145,1.47242,0.627527,-0.0874639,0.107074,0.0607312,0.456572,0.0960827,0.258684,0.00534886,0.402545,5,0.1,9,2.2,-5.20534,-5.40164,0.865782,-0.0125647,0.000858307,0.0519186,0.0140667,0.0174046,-0.0573993,0.0226113,3.99019,5,0.1,10,2.2,0.335289,1.52115,0.60476,-0.189431,-0.113779,-0.00485927,0.207707,0.225365,0.00533462,0.0111264,1.62197,5,0.1,11,2.2,-2.82372,-2.5112,0.60196,0.600415,-0.116044,0.0625178,0.383615,-0.903606,0.445664,0.0180519,0.170878,5,0.1,12,2.2,-0.807509,-1.00768,0.625221,0.866026,0.331298,-0.0066787,0,0.0639558,-0.0347793,0.0115306,2.0354,5,0.1,13,2.2,1.33798,4.4405,1.2025,0.0190973,-0.141704,0.234455,-0.0187755,0.238657,-0.230551,0.0697476,0.252707,5,0.1,14,2.2,3.64983,-0.7,0.595089,0.0976324,-0.293881,0.00478178,-0.136733,-0.79006,-0.00667572,0.00790558,2.87986,5,0.1,15,2.2,0.42375,-0.803905,0.707024,-0.050433,0.866026,0.0158682,-0.23371,0,0.0143647,0.013153,2.26836,5,0.1,16,2.2,2.74773,-3.76961,0.578434,-0.829452,0.0187218,0.0206143,0.270605,-0.015974,-0.0177324,0.0381019,0.946684,5,0.1,17,2.2,0.571683,-2.0983,0.734264,0.3802,-0.303555,0.0163585,-0.173301,0.31507,-0.0188053,0.00830188,0.12196,5,0.1,18,2.2,-1.04263,-1.8245,0.627161,-0.709602,-0.518921,-0.0195086,0.465214,0.617921,0.0155568,0.00923033,0.815026,5,0.1,19,2.2,-1.20172,4.29339,1.1815,0.00175834,-0.522816,0.17198,-0.00196695,0.466347,-0.186205,0.0468751,0.112159,5,0.1
0,2.3,-1.57033,-2.01893,0.57927,-0.489998,-0.179367,0.0194483,0.28234,0.115752,-0.0124797,0.0102185,0.328304,5,0.1,1,2.3,-3.90299,-2.05297,0.599087,0.158289,0.241287,0.000946689,-0.120446,-0.534207,-0.000741333,0.0175294,0.223309,5,0.1,2,2.3,0.190418,0.89526,0.604043,0.110936,-0.614359,-0.00409344,-0.109333,0.239771,0.00400469,0.0130884,0.265407,5,0.1,3,2.3,-1.86709,-4.13673,0.844864,-0.0237681,0.66727,0.144865,0.00207126,1.02919,-0.0126772,0.0213544,2.4907,5,0.1,4,2.3,-0.198851,3.56519,0.589,0.141013,-0.791848,0.00599939,0.138144,-0.821143,-0.0150353,0.0129841,2.36661,5,0.1,5,2.3,-4.18936,-2.01235,0.604749,0.0954494,0.0771623,0.000496022,0.242829,-0.318542,-0.00655651,0.0187835,0.275816,5,0.1,6,2.3,4.5537,1.3595,0.500018,-0.269109,0.056945,-7.46921e-05,0.286341,-0.199683,0.000141561,0.00968341,0.177842,5,0.1,7,2.3,1.90058,-2.38838,0.603433,0.00645742,-0.0376415,-0.00934154,0.0378042,0.0517815,0.017114,0.0175329,0.315434,5,0.1,8,2.3,4.30483,1.48368,0.634941,-0.0466615,0.11842,0.087695,0.353217,0.119254,0.267141,0.00534886,0.402545,5,0.1,9,2.3,-5.20654,-5.40148,0.870732,-0.0114717,0.002186,0.0474602,0.00855327,0.00947714,-0.0349581,0.0226113,3.99019,5,0.1,10,2.3,0.317319,1.51072,0.604299,-0.1705,-0.0990391,-0.00437321,0.176314,-0.0125021,0.00452623,0.0111264,1.62197,5,0.1,11,2.3,-2.7624,-2.52646,0.609966,0.619633,-0.181083,0.0931983,0.00548363,-0.419512,0.181865,0.0180519,0.170878,5,0.1,12,2.3,-0.720907,-0.974181,0.624388,0.866026,0.338661,-0.00987146,-3.72529e-06,0.0651143,-0.0283048,0.0115306,2.0354,5,0.1,13,2.3,1.33979,4.4276,1.22481,0.0172572,-0.115706,0.211852,-0.0183061,0.274718,-0.225015,0.0697476,0.252707,5,0.1,14,2.3,3.65873,-0.734413,0.595578,0.0787489,-0.402462,0.00538239,-0.22909,-1.27798,0.0158809,0.00790558,2.87986,5,0.1,15,2.3,0.417536,-0.717302,0.708688,-0.0736188,0.866026,0.0174145,-0.220761,-3.72529e-06,0.015188,0.013153,2.26836,5,0.1,16,2.3,2.6657,-3.76781,0.580411,-0.814108,0.0172466,0.018978,0.0886321,-0.0140667,-0.0155903,0.0381019,0.946684,5,0.1,17,2.3,0.608902,-2.12718,0.735812,0.364486,-0.274755,0.0146476,-0.155043,0.269592,-0.0158735,0.00830188,0.12196,5,0.1,18,2.3,-1.11151,-1.87293,0.62528,-0.669645,-0.446488,-0.0181639,0.363477,0.803426,0.0121258,0.00923033,0.815026,5,0.1,19,2.3,-1.20155,4.2433,1.19782,0.00157934,-0.479911,0.154987,-0.00166148,0.4071,-0.158533,0.0468751,0.112159,5,0.1
0,2.4,-1.61784,-2.03656,0.58115,-0.458974,-0.175369,0.0181109,0.348389,-0.0107288,-0.0146925,0.0103266,0.243163,5,0.1,1,2.4,-3.88771,-2.03141,0.599178,0.147444,0.191396,0.000880659,-0.103951,-0.444293,-0.000625849,0.0175564,0.359351,5,0.1,2,2.4,0.200972,0.835145,0.603653,0.100145,-0.5863,-0.00369847,-0.10892,0.337452,0.00402331,0.0123334,0.21541,5,0.1,3,2.4,-1.86946,-4.065,0.859265,-0.0234276,0.764012,0.142799,0.00560284,0.840425,-0.0346005,0.0233381,2.3148,5,0.1,4,2.4,-0.184108,3.48271,0.58953,0.153111,-0.849503,0.00463277,0.0943542,-0.330448,-0.012368,0.0122989,2.26454,5,0.1,5,2.4,-4.17852,-2.00613,0.604764,0.121605,0.0482082,-0.000211596,0.259399,-0.257969,-0.00724196,0.0173168,0.294817,5,0.1,6,2.4,4.52815,1.36423,0.500011,-0.2424,0.0380963,-5.96046e-05,0.256538,-0.175357,0.000208616,0.00936575,0.278878,5,0.1,7,2.4,1.90137,-2.39188,0.602583,0.00858605,-0.0321805,-0.00768751,0.000476837,0.0567436,0.015974,0.0201486,0.297396,5,0.1,8,2.4,4.30172,1.49608,0.64497,-0.0176787,0.128937,0.111854,0.224352,0.0827312,0.206441,0.00534957,0.360233,5,0.1,9,2.4,-5.20765,-5.40123,0.875319,-0.0107288,0.00281334,0.0443697,0.00739098,0.00357628,-0.0292361,0.0217092,3.98987,5,0.1,10,2.4,0.301135,1.5,0.603884,-0.153248,-0.122547,-0.00393093,0.172541,-0.438452,0.00441074,0.00902699,3.25926,5,0.1,11,2.4,-2.701,-2.54602,0.619855,0.60271,-0.204164,0.101489,-0.336647,-0.062108,-0.00396371,0.0162157,1.1034,5,0.1,12,2.4,-0.634304,-0.940109,0.623276,0.866026,0.341247,-0.0122145,0,-0.0259578,-0.0180304,0.0123715,1.57693,5,0.1,13,2.4,1.34143,4.41742,1.24486,0.015384,-0.0879407,0.188881,-0.0191927,0.275373,-0.23663,0.0678988,0.253202,5,0.1,14,2.4,3.66539,-0.781152,0.596214,0.0539362,-0.531366,0.00745952,-0.25773,-1.22258,0.023514,0.00721454,2.51832,5,0.1,15,2.4,0.409154,-0.6307,0.710497,-0.0930145,0.866026,0.0186697,-0.160724,0,0.0090003,0.0162912,2.26324,5,0.1,16,2.4,2.58479,-3.76616,0.582231,-0.802732,0.0158131,0.0173941,0.176549,-0.0149012,-0.0165403,0.0401152,2.53312,5,0.1,17,2.4,0.644512,-2.15332,0.737199,0.346825,-0.248158,0.0131041,-0.207871,0.268579,-0.0152886,0.00811165,0.14284,5,0.1,18,2.4,-1.17663,-1.91344,0.623524,-0.631863,-0.36301,-0.0169471,0.41306,0.84573,0.0127554,0.00922515,0.671058,5,0.1,19,2.4,-1.2014,4.19735,1.21254,0.00141859,-0.438797,0.139442,-0.00160933,0.425577,-0.155807,0.0459352,0.293083,5,0.1
0,2.5,-1.66207,-2.05442,0.582891,-0.426251,-0.183918,0.0167403,0.318922,-0.135899,-0.0132322,0.0103266,0.243163,5,0.1,1,2.5,-3.87349,-2.01433,0.599263,0.137049,0.153122,0.00081826,-0.106826,-0.283241,-0.00064075,0.0175564,0.359351,5,0.1,2,2.5,0.210634,0.778104,0.603302,0.0946837,-0.554999,-0.00333237,-0.0131009,0.307869,0.00340119,0.0123334,0.21541,5,0.1,3,2.5,-1.87178,-3.98494,0.873429,-0.0231089,0.831332,0.140821,0.00210851,0.488922,-0.0131801,0.0233381,2.3148,5,0.1,4,2.5,-0.168275,3.39675,0.589937,0.163741,-0.864993,0.00355775,0.106079,-0.041306,-0.0092946,0.0122989,2.26454,5,0.1,5,2.5,-4.16504,-2.00249,0.604705,0.147885,0.0259042,-0.000966899,0.251591,-0.18701,-0.00754744,0.0173168,0.294817,5,0.1,6,2.5,4.50477,1.36719,0.500006,-0.228751,0.0214813,-4.04194e-05,0.0454187,-0.155084,0.000178814,0.00936575,0.278878,5,0.1,7,2.5,1.90226,-2.39481,0.601891,0.00916291,-0.0265162,-0.00618249,-0.0107065,0.0561029,0.0141412,0.0201486,0.297396,5,0.1,8,2.5,4.30095,1.50949,0.657263,0.000619888,0.139894,0.134374,0.126064,0.122212,0.228275,0.00534957,0.360233,5,0.1,9,2.5,-5.20869,-5.401,0.879641,-0.0102118,0.00120476,0.0423289,0.00369549,-0.0294149,-0.0144728,0.0217092,3.98987,5,0.1,10,2.5,0.286622,1.48516,0.603511,-0.137391,-0.177895,-0.00352561,0.148611,-0.652328,0.0037998,0.00902699,3.25926,5,0.1,11,2.5,-2.64164,-2.56641,0.62966,0.590503,-0.200417,0.0917986,0.0302047,0.125512,-0.173345,0.0162157,1.1034,5,0.1,12,2.5,-0.547705,-0.906086,0.621971,0.865876,0.339121,-0.0137973,-0.00597149,-0.0311732,-0.0130199,0.0123715,1.57693,5,0.1,13,2.5,1.34287,4.40996,1.26257,0.013472,-0.0615783,0.165327,-0.0190958,0.248343,-0.235043,0.0678988,0.253202,5,0.1,14,2.5,3.66945,-0.840737,0.597097,0.026992,-0.661602,0.0103298,-0.272512,-1.30183,0.0316687,0.00721454,2.51832,5,0.1,15,2.5,0.399051,-0.544097,0.712413,-0.108809,0.866026,0.0196678,-0.146667,-3.57628e-06,0.00966713,0.0162912,2.26324,5,0.1,16,2.5,2.50467,-3.76358,0.583886,-0.80511,0.0448018,0.0156793,-0.151396,0.526756,-0.0178181,0.0401152,2.53312,5,0.1,17,2.5,0.678424,-2.177,0.738444,0.333465,-0.227122,0.0118967,-0.0839792,0.167012,-0.00964105,0.00811165,0.14284,5,0.1,18,2.5,-1.23795,-1.94548,0.621887,-0.596102,-0.278335,-0.0158457,0.327855,0.817791,0.00996143,0.00922515,0.671058,5,0.1,19,2.5,-1.20126,4.15515,1.22576,0.00127256,-0.408735,0.12531,-0.0013411,0.208288,-0.130929,0.0459352,0.293083,5,0.1
0,2.6,-1.70307,-2.07354,0.584498,-0.393033,-0.198293,0.0153795,0.35429,-0.133634,-0.0143647,0.00797411,0.179703,5,0.1,1,2.6,-3.86034,-2,0.599341,0.125605,0.137588,0.000749528,-0.12362,-0.0369549,-0.000745058,0.0161586,0.503758,5,0.1,2,2.6,0.220108,0.724223,0.602986,0.0952728,-0.521478,-0.0029996,0.0151247,0.375718,0.00336766,0.0138556,0.149191,5,0.1,3,2.6,-1.87408,-3.90002,0.887425,-0.0227779,0.860739,0.13876,0.00560284,0.105739,-0.0338256,0.0207868,2.26116,5,0.1,4,2.6,-0.151433,3.31017,0.59025,0.172255,-0.866026,0.00274628,0.0556186,0,-0.00709295,0.0116218,2.25016,5,0.1,5,2.6,-4.1491,-2.00071,0.604572,0.169444,0.0108421,-0.00166744,0.169992,-0.115156,-0.00622869,0.0162603,0.249983,5,0.1,6,2.6,4.48197,1.36861,0.500003,-0.228226,0.007388,-2.5332e-05,-0.0126362,-0.125408,0.000149012,0.0109652,0.202588,5,0.1,7,2.6,1.90298,-2.39719,0.60134,0.00344813,-0.0210404,-0.00485629,-0.111938,0.0530481,0.012368,0.0172882,0.258484,5,0.1,8,2.6,4.30139,1.52406,0.671772,0.00559092,0.150934,0.154819,-0.030756,0.0882745,0.169426,0.00529517,0.282878,5,0.1,9,2.6,-5.2097,-5.40104,0.883807,-0.00987053,-0.00197887,0.0409737,0.00333786,-0.0302792,-0.0147521,0.0223673,3.95782,5,0.1,10,2.6,0.273614,1.46389,0.603177,-0.122841,-0.24907,-0.00315309,0.145212,-0.747979,0.00369549,0.00718368,3.00823,5,0.1,11,2.6,-2.58226,-2.58559,0.637806,0.59787,-0.181204,0.0697955,0.0708103,0.248551,-0.253379,0.0194918,2.59367,5,0.1,12,2.6,-0.461195,-0.872436,0.620538,0.863639,0.33256,-0.0147194,-0.0477433,-0.109971,-0.00503659,0.0112677,1.18723,5,0.1,13,2.6,1.34412,4.40498,1.27792,0.0115603,-0.0388503,0.141799,-0.0191927,0.204086,-0.235736,0.0687403,0.421695,5,0.1,14,2.6,3.67082,-0.912998,0.598286,0.000935793,-0.778063,0.0134051,-0.242352,-0.970989,0.0282228,0.0091637,2.3372,5,0.1,15,2.6,0.387517,-0.457494,0.714421,-0.120915,0.866025,0.0203818,-0.0896752,1.43051e-05,0.00375509,0.0134681,2.19356,5,0.1,16,2.6,2.42335,-3.75603,0.585362,-0.820404,0.109094,0.0138208,-0.100851,0.706315,-0.0193119,0.0379318,2.51287,5,0.1,17,2.6,0.711389,-2.19895,0.73959,0.325757,-0.212163,0.0110388,-0.0882447,0.14329,-0.00807643,0.00875181,0.0846508,5,0.1,18,2.6,-1.29589,-1.96946,0.620352,-0.561914,-0.203997,-0.0148356,0.37396,0.653505,0.010699,0.00847207,0.553636,5,0.1,19,2.6,-1.20114,4.11518,1.23765,0.00114143,-0.391459,0.112557,-0.0013113,0.161648,-0.127017,0.0429628,0.403572,5,0.1
0,2.7,-1.74069,-2.09414,0.585968,-0.360145,-0.214416,0.0140524,0.314295,-0.170022,-0.0126101,0.00797411,0.179703,5,0.1,1,2.7,-3.84838,-1.98624,0.599413,0.113789,0.139074,0.000678468,-0.115246,0.0505298,-0.000689179,0.0161586,0.503758,5,0.1,2,2.7,0.2298,0.673849,0.602702,0.0991939,-0.486661,-0.00269515,0.0534346,0.336651,0.00281259,0.0138556,0.149191,5,0.1,3,2.7,-1.87634,-3.81362,0.901189,-0.0224665,0.865695,0.136886,0.00196695,0.0132173,-0.0117607,0.0207868,2.26116,5,0.1,4,2.7,-0.13388,3.22357,0.590494,0.178988,-0.866026,0.00216197,0.067384,0,-0.00476092,0.0116218,2.25016,5,0.1,5,2.7,-4.1314,-2.00009,0.604375,0.183632,0.00256114,-0.00225538,0.10708,-0.054583,-0.00533089,0.0162603,0.249983,5,0.1,6,2.7,4.45874,1.369,0.500001,-0.23901,0.00283699,-1.31316e-05,-0.171542,0.0202432,9.31323e-05,0.0109652,0.202588,5,0.1,7,2.7,1.90265,-2.39903,0.600913,-0.0119882,-0.0159822,-0.0037157,-0.228278,0.0478327,0.0104643,0.0172882,0.258484,5,0.1,8,2.7,4.30158,1.53973,0.688197,-0.00427961,0.163466,0.174172,-0.178158,0.144765,0.200149,0.00529517,0.282878,5,0.1,9,2.7,-5.21067,-5.40159,0.887853,-0.00968352,-0.010132,0.0401111,0.00104308,-0.103801,-0.0051111,0.0223673,3.95782,5,0.1,10,2.7,0.262064,1.43557,0.602881,-0.108073,-0.316859,-0.00277646,0.150109,-0.705406,0.00383705,0.00718368,3.00823,5,0.1,11,2.7,-2.52176,-2.60376,0.644344,0.614349,-0.192878,0.0680142,0.210375,-0.401199,0.170622,0.0194918,2.59367,5,0.1,12,2.7,-0.374862,-0.839698,0.619045,0.864037,0.322203,-0.0150933,0.0157729,-0.109084,-0.00194833,0.0112677,1.18723,5,0.1,13,2.7,1.34519,4.40209,1.29096,0.00973232,-0.0194363,0.119351,-0.0174344,0.176102,-0.214107,0.0687403,0.421695,5,0.1,14,2.7,3.66971,-0.99471,0.599776,-0.0228561,-0.846908,0.01641,-0.226706,-0.416975,0.0299923,0.0091637,2.3372,5,0.1,15,2.7,0.374973,-0.370898,0.716482,-0.129819,0.8657,0.0208585,-0.0805445,-0.0130346,0.00457466,0.0134681,2.19356,5,0.1,16,2.7,2.34159,-3.74113,0.586651,-0.807413,0.191964,0.011996,0.345975,0.896499,-0.0173822,0.0379318,2.51287,5,0.1,17,2.7,0.743559,-2.21954,0.740658,0.317673,-0.200278,0.0103702,-0.0861511,0.104278,-0.00581518,0.00875181,0.0846508,5,0.1,18,2.7,-1.35037,-1.98689,0.618917,-0.528693,-0.148334,-0.0138974,0.311397,0.435717,0.00863522,0.00847207,0.553636,5,0.1,19,2.7,-1.20119,4.07683,1.24831,-0.00342149,-0.375403,0.101092,-0.0801012,0.171006,-0.105679,0.0429628,0.403572,5,0.1
0,2.8,-1.77513,-2.11637,0.58731,-0.328344,-0.229073,0.0127852,0.329196,-0.109553,-0.0130534,0.00799016,0.129584,5,0.1,1,2.8,-3.83758,-1.97204,0.599477,0.102139,0.144881,0.000609457,-0.119567,0.0535846,-0.000745058,0.0180351,0.494308,5,0.1,2,2.8,0.239983,0.626908,0.602446,0.104252,-0.451446,-0.00242144,0.0405088,0.378639,0.00271201,0.0116743,0.104396,5,0.1,3,2.8,-1.87857,-3.72702,0.914801,-0.022155,0.866026,0.135018,0.005126,0,-0.0314116,0.0196229,2.27866,5,0.1,4,2.8,-0.115703,3.13696,0.590689,0.183746,-0.866026,0.0017643,0.0195837,0,-0.00327826,0.0129831,2.24879,5,0.1,5,2.8,-4.11265,-2.00003,0.604126,0.189781,-0.000816584,-0.00270158,0.0123978,-0.0166893,-0.00345707,0.0164179,0.214899,5,0.1,6,2.8,4.43393,1.36953,0.5,-0.257051,0.00890195,-4.47035e-06,-0.166178,0.0897646,2.98023e-05,0.00924198,0.168257,5,0.1,7,2.8,1.9,-2.4004,0.600591,-0.0440061,-0.0115216,-0.0027582,-0.398517,0.0413656,0.00867248,0.0162758,0.19778,5,0.1,8,2.8,4.3,1.55677,0.706548,-0.0297189,0.17685,0.191846,-0.316143,0.11009,0.140816,0.00755315,0.241146,5,0.1,9,2.8,-5.21164,-5.40305,0.891837,-0.00954866,-0.0181198,0.0395,0.00190735,-0.038147,-0.0089705,0.0233265,3.828,5,0.1,10,2.8,0.252014,1.4,0.602623,-0.0928491,-0.397778,-0.00238866,0.154115,-0.891685,0.00399351,0.00841148,2.71935,5,0.1,11,2.8,-2.45937,-2.62557,0.652378,0.631613,-0.247103,0.0955164,0.100255,-0.620723,0.342518,0.0169506,2.04785,5,0.1,12,2.8,-0.288532,-0.808101,0.617534,0.860399,0.308746,-0.0150278,-0.112511,-0.168055,0.00354648,0.0139536,0.86529,5,0.1,13,2.8,1.34607,4.40093,1.30186,0.00805855,-0.00487566,0.0988275,-0.015974,0.111103,-0.196874,0.0672151,0.873337,5,0.1,14,2.8,3.66636,-1.08071,0.601557,-0.0432551,-0.866026,0.0190809,-0.17643,0,0.0221133,0.00849304,2.26924,5,0.1,15,2.8,0.361656,-0.284498,0.718584,-0.135702,0.860812,0.0210911,-0.0317395,-0.104271,-0.000745058,0.0102897,2.05434,5,0.1,16,2.8,2.26321,-3.71751,0.587766,-0.754172,0.278902,0.0103116,0.703931,0.801921,-0.0164509,0.0360375,2.70977,5,0.1,17,2.8,0.774814,-2.23904,0.741667,0.306395,-0.189626,0.00978708,-0.148028,0.11611,-0.00622869,0.0100373,0.200487,5,0.1,18,2.8,-1.40165,-2,0.617571,-0.496075,-0.118232,-0.0130102,0.355601,0.17643,0.00953674,0.00896494,0.444304,5,0.1,19,2.8,-1.202,4.04023,1.25791,-0.0131309,-0.355339,0.0908375,-0.106394,0.237942,-0.101924,0.0401875,0.386707,5,0.1
0,2.9,-1.80642,-2.13986,0.588528,-0.298061,-0.240718,0.0115888,0.285588,-0.108615,-0.0112355,0.00799016,0.129584,5,0.1,1,2.9,-3.82793,-1.95752,0.599535,0.0909708,0.143591,0.00054026,-0.106007,-0.0716373,-0.000651926,0.0180351,0.494308,5,0.1,2,2.9,0.250525,0.583547,0.602216,0.105711,-0.416514,-0.00217725,-0.0112727,0.333369,0.00225008,0.0116743,0.104396,5,0.1,3,2.9,-1.8808,-3.64042,0.927955,-0.0228412,0.866026,0.126348,-0.0154078,0,-0.134394,0.0196229,2.27866,5,0.1,4,2.9,-0.0971743,3.05036,0.590852,0.187094,-0.866026,0.0015202,0.0358997,0,-0.00176206,0.0129831,2.24879,5,0.1,5,2.9,-4.09367,-2.00017,0.60384,0.189115,-0.0015799,-0.00300342,-0.03016,-0.000163913,-0.00244752,0.0164179,0.214899,5,0.1,6,2.9,4.40781,1.37102,0.5,-0.2615,0.0221742,-1.58325e-06,0.0666082,0.162773,2.6077e-05,0.00924198,0.168257,5,0.1,7,2.9,1.89326,-2.40136,0.600355,-0.0932464,-0.00770502,-0.00197524,-0.550441,0.034824,0.00701472,0.0162758,0.19778,5,0.1,8,2.9,4.29535,1.57515,0.726075,-0.0637531,0.191658,0.19545,-0.347555,0.166453,-0.054352,0.00755315,0.241146,5,0.1,9,2.9,-5.21259,-5.40516,0.895759,-0.00946224,-0.0233717,0.0390547,0.000357628,-0.00753999,-0.00231341,0.0233265,3.828,5,0.1,10,2.9,0.243621,1.35491,0.602403,-0.0740128,-0.509974,-0.00200924,0.213955,-1.25554,0.00361353,0.00841148,2.71935,5,0.1,11,2.9,-2.39555,-2.6539,0.663981,0.645317,-0.323035,0.138998,0.135779,-0.836685,0.491537,0.0169506,2.04785,5,0.1,12,2.9,-0.202842,-0.778025,0.616051,0.85439,0.292941,-0.0146256,-0.0520208,-0.157889,0.00491366,0.0139536,0.86529,5,0.1,13,2.9,1.3468,4.40104,1.3108,0.00657532,0.00662431,0.0805618,-0.0137612,0.087887,-0.169419,0.0672151,0.873337,5,0.1,14,2.9,3.66117,-1.16731,0.60358,-0.0601813,-0.866026,0.0213763,-0.156194,0,0.0220835,0.00849304,2.26924,5,0.1,15,2.9,0.347929,-0.200024,0.720692,-0.138656,0.818808,0.0210606,-0.0210851,-0.6968,-0.000827014,0.0102897,2.05434,5,0.1,16,2.9,2.19214,-3.68544,0.58872,-0.660254,0.362935,0.00882791,1.11721,0.832573,-0.0134893,0.0360375,2.70977,5,0.1,17,2.9,0.804393,-2.25746,0.742616,0.282299,-0.178934,0.0092186,-0.321709,0.104114,-0.00548363,0.0100373,0.200487,5,0.1,18,2.9,-1.44958,-2.01138,0.616314,-0.463161,-0.113085,-0.0121497,0.318035,-0.0463873,0.00812113,0.00896494,0.444304,5,0.1,19,2.9,-1.2039,4.00624,1.26652,-0.0253096,-0.321484,0.0816731,-0.129774,0.423327,-0.084199,0.0401875,0.386707,5,0.1
0,3,-1.83481,-2.16437,0.589631,-0.269678,-0.248301,0.010477,0.288367,-0.0329018,-0.0112951,0.00874419,0.156149,5,0.1,1,3,-3.81936,-1.94367,0.599585,0.0805676,0.131986,0.000476837,-0.103831,-0.153899,-0.000625849,0.0153061,0.714873,5,0.1,2,3,0.260955,0.543577,0.602009,0.102063,-0.38251,-0.0019595,-0.0611097,0.355929,0.00217557,0.0112736,0.140045,5,0.1,3,3,-1.88318,-3.55382,0.9398,-0.0246346,0.866026,0.109544,-0.0178814,0,-0.195265,0.0240624,2.14493,5,0.1,4,3,-0.0783355,2.96376,0.590996,0.188971,-0.866026,0.00138432,-0.00641108,0,-0.00107288,0.012423,2.2484,5,0.1,5,3,-4.07501,-2.00031,0.60353,0.183046,-0.00113249,-0.00317097,-0.0934601,0.00786781,-0.000804663,0.0157332,0.192402,5,0.1,6,3,4.3823,1.37409,0.5,-0.245762,0.0391871,1.49012e-06,0.238419,0.167668,-2.98023e-05,0.00817831,0.151351,5,0.1,7,3,1.88118,-2.40197,0.60019,-0.147834,-0.00457764,-0.00135005,-0.514567,0.0277758,0.00548363,0.0167036,0.134074,5,0.1,8,3,4.2873,1.59511,0.745122,-0.0962973,0.206757,0.183535,-0.291348,0.121295,-0.172764,0.00850217,0.247318,5,0.1,9,3,-5.21353,-5.40713,0.899648,-0.00936985,-0.0113845,0.0386298,0.00166893,0.270367,-0.00792742,0.0241807,3.64225,5,0.1,10,3,0.237329,1.29769,0.60222,-0.0516042,-0.632071,-0.00166446,0.227414,-1.11496,0.00333786,0.00876007,0.666649,5,0.1,11,3,-2.33054,-2.69033,0.680343,0.652301,-0.403804,0.187616,-0.022769,-0.733495,0.454396,0.0192859,1.75191,5,0.1,12,3,-0.11786,-0.749569,0.614618,0.842467,0.275517,-0.0139773,-0.217352,-0.197172,0.00831485,0.0178883,0.610706,5,0.1,13,3,1.3474,4.40191,1.31805,0.00528991,0.00835657,0.0647694,-0.0119209,-0.0660419,-0.147343,0.0688581,2.18757,5,0.1,14,3,3.65445,-1.25391,0.605816,-0.0734985,-0.866026,0.0232086,-0.106096,0,0.0133812,0.00758718,2.26703,5,0.1,15,3,0.334017,-0.122336,0.722787,-0.138872,0.728699,0.0207618,0.020951,-1.07192,-0.00575185,0.0110396,1.96286,5,0.1,16,3,2.132,-3.64525,0.589539,-0.540644,0.43751,0.00756681,1.23322,0.626326,-0.0118911,0.0353514,3.40724,5,0.1,17,3,0.830813,-2.27481,0.74351,0.244327,-0.167733,0.00863522,-0.427186,0.124335,-0.0064671,0.00787222,0.190024,5,0.1,18,3,-1.49427,-2.02311,0.615141,-0.429878,-0.122714,-0.01131,0.358164,-0.125289,0.0090003,0.00868799,0.355189,5,0.1,19,3,-1.20707,3.9764,1.27427,-0.0378013,-0.273567,0.0735104,-0.114501,0.521779,-0.0810623,0.0431457,0.958191,5,0.1
0,3.1,-1.86055,-2.18959,0.590631,-0.246935,-0.257691,0.00958983,0.182271,-0.129566,-0.0070706,0.00874419,0.156149,5,0.1,1,3.1,-3.81179,-1.93145,0.59963,0.0710193,0.110721,0.000419561,-0.0890344,-0.25136,-0.000532717,0.0153061,0.714873,5,0.1,2,3.1,0.270743,0.506924,0.60181,0.092697,-0.351938,-0.00215918,-0.121448,0.271564,-0.00523031,0.0112736,0.140045,5,0.1,3,3.1,-1.88511,-3.46744,0.949903,-0.00876449,0.858901,0.0936035,0.297651,-0.163227,-0.129849,0.0240624,2.14493,5,0.1,4,3.1,-0.0594059,2.87715,0.591131,0.189971,-0.866026,0.00132918,0.0149895,0,-0.000171363,0.012423,2.2484,5,0.1,5,3.1,-4.05721,-2.00038,0.60321,0.172492,-0.000347197,-0.00321772,-0.119895,0.00756979,-4.47035e-05,0.0157332,0.192402,5,0.1,6,3.1,4.35918,1.37887,0.5,-0.214499,0.0565521,0,0.373006,0.17117,-7.45058e-06,0.00817831,0.151351,5,0.1,7,3.1,1.8638,-2.40229,0.600081,-0.199359,-0.00209659,-0.000866503,-0.492722,0.0218153,0.00420958,0.0167036,0.134074,5,0.1,8,3.1,4.27637,1.61651,0.76236,-0.120706,0.221809,0.159508,-0.193805,0.160433,-0.276964,0.00850217,0.247318,5,0.1,9,3.1,-5.21446,-5.4063,0.903486,-0.0092864,0.0327758,0.0382058,0.000536442,0.566512,-0.00274181,0.0241807,3.64225,5,0.1,10,3.1,0.233282,1.22945,0.602068,-0.0296785,-0.726577,-0.00139698,0.207763,-0.750296,0.00212342,0.00876007,0.666649,5,0.1,11,3.1,-2.26606,-2.73347,0.701261,0.631279,-0.450357,0.229223,-0.382826,-0.216439,0.363696,0.0192859,1.75191,5,0.1,12,3.1,-0.034563,-0.722952,0.613261,0.823935,0.257113,-0.0131591,-0.188977,-0.179093,0.00840053,0.0178883,0.610706,5,0.1,13,3.1,1.34787,4.40238,1.32384,0.00420455,-0.00259131,0.0513719,-0.00987202,-0.261247,-0.121556,0.0688581,2.18757,5,0.1,14,3.1,3.64663,-1.34051,0.608208,-0.0821855,-0.866026,0.0246356,-0.0654012,0,0.0135563,0.00758718,2.26703,5,0.1,15,3.1,0.320232,-0.0554597,0.724837,-0.136734,0.603962,0.0202277,0.0269059,-1.3655,-0.00571087,0.0110396,1.96286,5,0.1,16,3.1,2.08436,-3.59943,0.590893,-0.412009,0.469077,0.0250433,1.25431,0.0354052,0.320002,0.0353514,3.40724,5,0.1,17,3.1,0.852991,-2.29098,0.744342,0.198352,-0.155712,0.00801375,-0.481304,0.120118,-0.00618026,0.00787222,0.190024,5,0.1,18,3.1,-1.53555,-2.03617,0.614052,-0.396416,-0.139675,-0.0104911,0.322923,-0.194862,0.00774488,0.00868799,0.355189,5,0.1,19,3.1,-1.21175,3.95185,1.28125,-0.0583002,-0.216125,0.0662412,-0.270091,0.601575,-0.0666827,0.0431457,0.958191,5,0.1
0,3.2,-1.8844,-2.216,0.591557,-0.230479,-0.269836,0.0089556,0.158429,-0.0948906,-0.00610948,0.00824362,0.0955231,5,0.1,1,3.2,-3.80512,-1.92167,0.599669,0.0624299,0.0850677,0.000369549,-0.0840425,-0.248253,-0.000536442,0.0158146,0.9585,5,0.1,2,3.2,0.279339,0.473056,0.601562,0.0786535,-0.325441,-0.00284016,-0.155345,0.26992,-0.00759959,0.0145093,0.280551,5,0.1,3,3.2,-1.88423,-3.38277,0.95868,0.028193,0.830084,0.0824586,0.412107,-0.425577,-0.0978708,0.0198533,2.49663,5,0.1,4,3.2,-0.0403751,2.79055,0.591264,0.190022,-0.866026,0.0013262,-0.0220323,0,-2.98023e-05,0.0122269,2.24858,5,0.1,5,3.2,-4.04061,-2.00038,0.602889,0.158727,0.000333786,-0.00316501,-0.156641,0.00584126,0.00110269,0.015863,0.176344,5,0.1,6,3.2,4.33972,1.38533,0.5,-0.173664,0.0719726,0,0.432491,0.131249,0,0.00796372,0.211995,5,0.1,7,3.2,1.84159,-2.40241,0.600013,-0.242442,-0.000220537,-0.000502169,-0.352681,0.0157356,0.00306964,0.0190885,0.111742,5,0.1,8,3.2,4.26351,1.63943,0.776947,-0.134635,0.235534,0.132893,-0.0834465,0.100315,-0.238627,0.00679767,0.249208,5,0.1,9,3.2,-5.21539,-5.40002,0.907286,-0.00917912,0.0937462,0.0377059,0.00214577,0.617504,-0.00879169,0.024261,3.63137,5,0.1,10,3.2,0.231298,1.15381,0.601937,-0.0106171,-0.77824,-0.00121891,0.171147,-0.268936,0.00146031,0.00783208,2.43807,5,0.1,11,3.2,-2.20533,-2.77887,0.725758,0.57866,-0.45079,0.258042,-0.655055,0.189662,0.203609,0.0172242,1.56423,5,0.1,12,3.2,0.0466941,-0.698161,0.611989,0.798654,0.238319,-0.0122383,-0.341141,-0.202417,0.0102222,0.0110878,2.35692,5,0.1,13,3.2,1.34824,4.4,1.3284,0.00330508,-0.0528932,0.0402838,-0.00828505,-0.7267,-0.10103,0.0661335,3.25525,5,0.1,14,3.2,3.63816,-1.42712,0.610729,-0.086236,-0.866026,0.0256464,-0.0144243,0,0.00554323,0.00799069,0.246528,5,0.1,15,3.2,0.306737,-0.00199268,0.726826,-0.132643,0.465426,0.0194877,0.0583082,-1.36428,-0.00962615,0.012127,1.89668,5,0.1,16,3.2,2.04894,-3.55311,0.595264,-0.302494,0.450325,0.0642061,0.89395,-0.383496,0.431061,0.0282157,3.04092,5,0.1,17,3.2,0.870406,-2.30593,0.745111,0.150029,-0.143039,0.00736415,-0.476569,0.136018,-0.00697374,0.00961142,0.277686,5,0.1,18,3.2,-1.57356,-2.05109,0.613042,-0.363302,-0.158381,-0.00969917,0.347495,-0.165105,0.00837445,0.00756747,0.281532,5,0.1,19,3.2,-1.21901,3.93321,1.28755,-0.0873446,-0.157529,0.0597715,-0.291586,0.553131,-0.064373,0.0409662,0.905859,5,0.1
0,3.3,-1.90666,-2.24349,0.592426,-0.214585,-0.280094,0.0084471,0.164084,-0.093922,-0.0044778,0.00824362,0.0955231,5,0.1,1,3.3,-3.79927,-1.91448,0.599704,0.0547905,0.0587916,0.000321306,-0.0703782,-0.240542,-0.000439584,0.0158146,0.9585,5,0.1,2,3.3,0.286395,0.441875,0.600937,0.0622394,-0.297961,-0.0121799,-0.169018,0.283815,-0.15964,0.0145093,0.280551,5,0.1,3,3.3,-1.87884,-3.30124,0.966654,0.0836402,0.805374,0.0788469,0.650734,-0.12961,0.0115857,0.0198533,2.49663,5,0.1,4,3.3,-0.0214121,2.70395,0.591397,0.189656,-0.866026,0.00135517,0.0033199,0,0.000488013,0.0122269,2.24858,5,0.1,5,3.3,-4.02551,-2.00033,0.602579,0.143492,0.000733137,-0.00303891,-0.150859,0.00235438,0.00148267,0.015863,0.176344,5,0.1,6,3.3,4.32454,1.39321,0.5,-0.130034,0.0855152,0,0.431329,0.130981,0,0.00796372,0.211995,5,0.1,7,3.3,1.81555,-2.40236,0.599977,-0.278152,0.00115074,-0.000240281,-0.337742,0.0116378,0.00219047,0.0190885,0.111742,5,0.1,8,3.3,4.24976,1.66358,0.789115,-0.138976,0.24792,0.112254,-0.0039041,0.128835,-0.135992,0.00679767,0.249208,5,0.1,9,3.3,-5.2163,-5.38803,0.911026,-0.00904351,0.14155,0.0371624,0.00101328,0.345737,-0.00413507,0.024261,3.63137,5,0.1,10,3.3,0.230958,1.07493,0.601745,0.00259029,-0.796114,-0.00326354,0.0966173,-0.0670664,-0.0374839,0.00783208,2.43807,5,0.1,11,3.3,-2.15151,-2.82291,0.752461,0.491241,-0.429002,0.274584,-1.04794,0.252724,0.118256,0.0172242,1.56423,5,0.1,12,3.3,0.126,-0.675294,0.610815,0.796507,0.21933,-0.0112551,0.204436,-0.183683,0.00971928,0.0110878,2.35692,5,0.1,13,3.3,1.34789,4.3897,1.33196,-0.0158215,-0.164056,0.0311546,-0.333466,-1.38533,-0.082165,0.0661335,3.25525,5,0.1,14,3.3,3.62972,-1.5133,0.613269,-0.0803623,-0.853331,0.0246657,0.119731,0.262253,-0.0230074,0.00799069,0.246528,5,0.1,15,3.3,0.293692,0.0378565,0.728772,-0.128761,0.334111,0.019809,0.0273697,-1.21372,0.0126846,0.012127,1.89668,5,0.1,16,3.3,2.02252,-3.50922,0.603435,-0.234284,0.433603,0.095415,0.39947,-0.00564754,0.20295,0.0282157,3.04092,5,0.1,17,3.3,0.883093,-2.31959,0.745815,0.104531,-0.130541,0.0067262,-0.42719,0.1183,-0.00602007,0.00961142,0.277686,5,0.1,18,3.3,-1.60833,-2.06786,0.612109,-0.333607,-0.177434,-0.00898037,0.261784,-0.198275,0.00640005,0.00756747,0.281532,5,0.1,19,3.3,-1.22931,3.92017,1.29323,-0.119275,-0.1048,0.0540076,-0.327781,0.469729,-0.052847,0.0409662,0.905859,5,0.1
0,3.4,-1.92726,-2.27186,0.593248,-0.196913,-0.285864,0.00799,0.192225,-0.010252,-0.00497699,0.0103055,0.0882027,5,0.1,1,3.4,-3.79413,-1.90957,0.599734,0.0480771,0.0422329,0.000280142,-0.0652075,-0.0745058,-0.00038743,0.0156809,3.53924,5,0.1,2,3.4,0.291778,0.413547,0.598803,0.0455402,-0.268031,-0.0312984,-0.161991,0.317112,-0.207573,0.00703031,0.56942,5,0.1,3,3.4,-1.86714,-3.22127,0.974682,0.150245,0.793588,0.0822917,0.646591,-0.150681,0.0465512,0.0229538,2.40555,5,0.1,4,3.4,-0.0024645,2.61735,0.591535,0.188739,-0.866026,0.00140071,-0.0297228,0,0.00038743,0.0122086,2.2517,5,0.1,5,3.4,-4.01192,-2.00025,0.602284,0.12809,0.000846386,-0.00285953,-0.159264,-0.000119209,0.00220537,0.0155615,0.241508,5,0.1,6,3.4,4.31363,1.40235,0.5,-0.0889063,0.0967115,0,0.384808,0.0869632,0,0.0066276,0.205054,5,0.1,7,3.4,1.78623,-2.40219,0.599962,-0.305983,0.00210404,-5.96046e-05,-0.202596,0.00727177,0.00143051,0.020516,0.0554224,5,0.1,8,3.4,4.23597,1.68893,0.8,-0.135577,0.258127,0.108761,0.0705719,0.0622272,0.0586212,0.0148221,3.28001,5,0.1,9,3.4,-5.21719,-5.37254,0.914715,-0.00888109,0.16433,0.0365287,0.00238419,0.11754,-0.00998378,0.0238805,3.72219,5,0.1,10,3.4,0.231602,0.995453,0.6012,0.00938252,-0.78824,-0.00784993,0.0423715,0.237226,-0.0504255,0.00922283,2.60771,5,0.1,11,3.4,-2.10797,-2.8644,0.78031,0.377244,-0.39922,0.280258,-1.19543,0.346541,-0.0101328,0.0171154,1.47544,5,0.1,12,3.4,0.20694,-0.65429,0.609739,0.823151,0.200519,-0.0102505,0.258297,-0.196844,0.0106096,0.012834,0.271468,5,0.1,13,3.4,1.34438,4.36603,1.33469,-0.0561357,-0.310385,0.0237346,-0.441134,-1.45626,-0.066638,0.0715324,2.75932,5,0.1,14,3.4,3.62242,-1.59684,0.615588,-0.0644863,-0.812471,0.0214398,0.187755,0.557423,-0.0397265,0.00801767,2.01468,5,0.1,15,3.4,0.280956,0.0657431,0.73083,-0.125782,0.229671,0.0214338,0.037998,-0.85349,0.0172257,0.0109669,1.82631,5,0.1,16,3.4,2,-3.46564,0.613683,-0.226387,0.439578,0.10667,-0.208735,0.0838041,0.031054,0.0289163,2.8052,5,0.1,17,3.4,0.891533,-2.33206,0.746458,0.0655949,-0.118649,0.0061214,-0.347704,0.122428,-0.00619888,0.00962943,0.274477,5,0.1,18,3.4,-1.64042,-2.08653,0.611243,-0.308296,-0.195009,-0.00835061,0.255525,-0.140429,0.00655651,0.00790321,0.218701,5,0.1,19,3.4,-1.24281,3.91171,1.29837,-0.149584,-0.0680566,0.0488698,-0.264466,0.252247,-0.0513792,0.0394119,1.08947,5,0.1
0,3.5,-1.94586,-2.30057,0.594026,-0.173972,-0.288548,0.00759559,0.261173,-0.0264794,-0.00334159,0.0103055,0.0882027,5,0.1,1,3.5,-3.7887,-1.90568,0.59976,0.0687033,0.0395913,0.000244565,0.417471,0.151247,-0.000335276,0.0156809,3.53924,5,0.1,2,3.5,0.295555,0.389193,0.594524,0.0303683,-0.211805,-0.0550088,-0.139542,0.753514,-0.251941,0.00703031,0.56942,5,0.1,3,3.5,-1.84962,-3.14166,0.983221,0.193216,0.806502,0.08901,0.233844,0.31811,0.0782534,0.0229538,2.40555,5,0.1,4,3.5,0.0162893,2.53074,0.591678,0.186405,-0.866026,0.00146199,-0.0253967,0,0.000715256,0.0122086,2.2517,5,0.1,5,3.5,-3.99976,-2.00016,0.602008,0.116256,0.00076741,-0.00265865,-0.0882447,-0.0013411,0.00191852,0.0155615,0.241508,5,0.1,6,3.5,4.30655,1.41242,0.5,-0.0540264,0.104173,0,0.308722,0.0578389,0,0.0066276,0.205054,5,0.1,7,3.5,1.75473,-2.40195,0.599963,-0.322509,0.00267774,5.47618e-05,-0.115976,0.00420213,0.000879169,0.020516,0.0554224,5,0.1,8,3.5,4.22085,1.71489,0.810918,-0.183043,0.25915,0.107331,-0.895321,-0.0431165,-0.0774972,0.0148221,3.28001,5,0.1,9,3.5,-5.21807,-5.35592,0.918331,-0.0087209,0.164532,0.0358597,0.0012815,-0.0985563,-0.00534579,0.0238805,3.72219,5,0.1,10,3.5,0.232642,0.918134,0.600162,0.0104598,-0.75483,-0.0128852,-0.0155661,0.43508,-0.0483394,0.00922283,2.60771,5,0.1,11,3.5,-2.07568,-2.90319,0.808366,0.273923,-0.38177,0.281321,-0.86686,0.0430346,0.0178963,0.0171154,1.47544,5,0.1,12,3.5,0.290026,-0.635161,0.608764,0.833174,0.182529,-0.00926703,-0.065795,-0.168845,0.00932068,0.012834,0.271468,5,0.1,13,3.5,1.33618,4.3273,1.33676,-0.110717,-0.466352,0.0178127,-0.61065,-1.58003,-0.0523105,0.0715324,2.75932,5,0.1,14,3.5,3.617,-1.67644,0.617514,-0.0432003,-0.788825,0.01694,0.229076,0.0031516,-0.0487193,0.00801767,2.01468,5,0.1,15,3.5,0.268404,0.0851342,0.733243,-0.12653,0.164989,0.0283279,-0.0387635,-0.445134,0.107702,0.0109669,1.82631,5,0.1,16,3.5,1.97504,-3.42085,0.624314,-0.283114,0.459115,0.104223,-0.829853,0.26086,-0.0731573,0.0289163,2.8052,5,0.1,17,3.5,0.896509,-2.34333,0.74704,0.0355146,-0.106844,0.00552386,-0.252437,0.115827,-0.00587106,0.00962943,0.274477,5,0.1,18,3.5,-1.6701,-2.10675,0.610437,-0.286192,-0.209212,-0.00778176,0.199012,-0.130534,0.0051558,0.00790321,0.218701,5,0.1,19,3.5,-1.2591,3.90589,1.30302,-0.176014,-0.0525992,0.044273,-0.249341,0.00195205,-0.0421777,0.0394119,1.08947,5,0.1
0,3.6,-1.96187,-2.32947,0.594769,-0.14571,-0.288302,0.00724941,0.299275,0.0431538,-0.0039041,0.00935107,0.145618,5,0.1,1,3.6,-3.77935,-1.9,0.599783,0.120872,0.0835508,0.000213087,0.57888,0.709116,-0.000298023,0.0157053,3.09182,5,0.1,2,3.6,0.297943,0.372133,0.58779,0.0179254,-0.126944,-0.0791371,-0.108287,0.901431,-0.219822,0.00696879,0.416701,5,0.1,3,3.6,-1.82967,-3.05926,0.992501,0.200963,0.841385,0.0962913,-0.0605583,0.31209,0.0603497,0.00729811,0.974863,5,0.1,4,3.6,0.0347537,2.44414,0.591828,0.182239,-0.866026,0.00152439,-0.0637043,0,0.00038743,0.0126535,2.25306,5,0.1,5,3.6,-3.98853,-2.00009,0.601752,0.108582,0.000602007,-0.00246018,-0.0731945,-0.00214577,0.00214577,0.0164014,0.303276,5,0.1,6,3.6,4.30254,1.42305,0.5,-0.0277042,0.107566,0,0.216246,0.00721216,0,0.00730832,0.199533,5,0.1,7,3.6,1.72212,-2.40166,0.599972,-0.327262,0.00295043,0.000119209,0.0281334,0.00119209,0.000447035,0.018994,0.0829972,5,0.1,8,3.6,4.19732,1.7404,0.821105,-0.292528,0.249392,0.0950515,-1.19805,-0.151753,-0.159919,0.0135051,2.79664,5,0.1,9,3.6,-5.21894,-5.34022,0.921885,-0.00854731,0.147378,0.035128,0.00286102,-0.23222,-0.0107288,0.0268686,3.84139,5,0.1,10,3.6,0.233551,0.845177,0.598648,0.0072185,-0.70079,-0.017187,-0.0450462,0.645906,-0.0363588,0.00884465,3.0394,5,0.1,11,3.6,-2.05207,-2.94138,0.836541,0.203758,-0.383359,0.28145,-0.541568,-0.0426769,-0.0256896,0.0145074,1.22229,5,0.1,12,3.6,0.37243,-0.617745,0.607884,0.809001,0.16575,-0.00834167,-0.419588,-0.170946,0.00938773,0.0123365,0.137872,5,0.1,13,3.6,1.32204,4.27312,1.3383,-0.171304,-0.612104,0.0131816,-0.571311,-1.27506,-0.0408292,0.0676316,0.314607,5,0.1,14,3.6,3.61384,-1.75563,0.61896,-0.0202477,-0.796491,0.0119716,0.223398,-0.0906587,-0.0494719,0.00791532,2.08537,5,0.1,15,3.6,0.255526,0.1,0.736676,-0.131059,0.137686,0.0406846,-0.0412539,-0.125505,0.129491,0.00936909,1.66855,5,0.1,16,3.6,1.94221,-3.37365,0.634246,-0.375447,0.483781,0.0933081,-0.943542,0.198841,-0.139326,0.0249199,2.50148,5,0.1,17,3.6,0.898962,-2.35343,0.747563,0.0151619,-0.0951231,0.0049293,-0.155538,0.119925,-0.00613928,0.00814191,0.271622,5,0.1,18,3.6,-1.69773,-2.12822,0.609685,-0.266361,-0.218898,-0.00726283,0.20653,-0.0543594,0.00545382,0.0111251,0.168904,5,0.1,19,3.6,-1.27782,3.9,1.30724,-0.196949,-0.0712931,0.0401586,-0.158966,-0.357032,-0.0412464,0.0419224,1.20874,5,0.1
0,3.7,-1.9749,-2.35799,0.595474,-0.114624,-0.280998,0.00683321,0.31592,0.107139,-0.00454858,0.00935107,0.145618,5,0.1,1,3.7,-3.764,-1.88689,0.599803,0.188769,0.188104,0.000186078,0.733048,1.28081,-0.00025332,0.0157053,3.09182,5,0.1,2,3.7,0.299253,0.363669,0.578732,0.00885692,-0.0452512,-0.102137,-0.0732634,0.727085,-0.227325,0.00696879,0.416701,5,0.1,3,3.7,-1.8095,-2.97575,1.00269,0.205219,0.80927,0.109575,0.115991,-0.858739,0.183038,0.00729811,0.974863,5,0.1,4,3.7,0.0527167,2.35754,0.591983,0.177368,-0.866026,0.00158018,-0.0426812,0,0.000614673,0.0126535,2.25306,5,0.1,5,3.7,-3.97774,-2.00005,0.601516,0.109655,0.000385568,-0.00225464,0.0736117,-0.00210106,0.00202283,0.0164014,0.303276,5,0.1,6,3.7,4.30069,1.4338,0.5,-0.0108041,0.10687,0,0.123709,-0.0229031,0,0.00730832,0.199533,5,0.1,7,3.7,1.68944,-2.40137,0.599985,-0.326985,0.00297017,0.000148453,-0.0038594,-0.000730157,0.000156462,0.018994,0.0829972,5,0.1,8,3.7,4.1613,1.76453,0.829717,-0.433027,0.232687,0.0764249,-1.515,-0.184588,-0.205621,0.0135051,2.79664,5,0.1,9,3.7,-5.21978,-5.32677,0.925356,-0.00834465,0.120411,0.0343825,0.00160933,-0.296861,-0.00604615,0.0268686,3.84139,5,0.1,10,3.7,0.233575,0.778723,0.596936,-0.0106798,-0.624767,-0.0154283,-0.28201,0.857927,0.0614449,0.00884465,3.0394,5,0.1,11,3.7,-2.03342,-2.98033,0.864698,0.177754,-0.398704,0.282598,-0.0322163,-0.222042,0.0293292,0.0145074,1.22229,5,0.1,12,3.7,0.451055,-0.601969,0.607094,0.761491,0.1502,-0.00748094,-0.538921,-0.144981,0.00805408,0.0123365,0.137872,5,0.1,13,3.7,1.30275,4.20666,1.33943,-0.208006,-0.705974,0.00975765,-0.182487,-0.610113,-0.0283569,0.0676316,0.314607,5,0.1,14,3.7,3.61263,-1.83635,0.619973,-0.00665262,-0.822027,0.00883862,0.0615716,-0.346437,-0.0161305,0.00791532,2.08537,5,0.1,15,3.7,0.242144,0.113791,0.741434,-0.137009,0.143555,0.0546743,-0.0668168,0.20017,0.142101,0.00936909,1.66855,5,0.1,16,3.7,1.8994,-3.32405,0.642815,-0.484088,0.509498,0.0775428,-1.15129,0.275716,-0.171356,0.0249199,2.50148,5,0.1,17,3.7,0.899849,-2.36235,0.748025,0.00397786,-0.0834566,0.00433223,-0.0720322,0.114337,-0.00585243,0.00814191,0.271622,5,0.1,18,3.7,-1.72341,-2.15034,0.608984,-0.247697,-0.222928,-0.00677658,0.175767,-0.0183582,0.00453368,0.0111251,0.168904,5,0.1,19,3.7,-1.2983,3.8902,1.31107,-0.212029,-0.13184,0.0364672,-0.131011,-0.784174,-0.033915,0.0419224,1.20874,5,0.1
0,3.8,-1.9848,-2.38542,0.596132,-0.08367,-0.266242,0.00631958,0.298262,0.189781,-0.00575185,0.00781552,0.199095,5,0.1,1,3.8,-3.74151,-1.86142,0.59982,0.259483,0.321928,0.000163913,0.647545,1.31899,-0.000268221,0.0153081,2.64273,5,0.1,2,3.8,0.299828,0.362455,0.567456,0.00317246,0.0176802,-0.122407,-0.0412315,0.528932,-0.168979,0.00880905,0.379222,5,0.1,3,3.8,-1.78831,-2.90039,1.01462,0.218967,0.687081,0.128996,0.136614,-1.50645,0.188589,0.00686809,0.191589,5,0.1,4,3.8,0.0702148,2.27094,0.592144,0.172174,-0.866026,0.00162721,-0.0675207,0,0.000268221,0.010302,2.25462,5,0.1,5,3.8,-3.96631,-2.00002,0.601301,0.119603,0.000196695,-0.00204742,0.109315,-0.00154972,0.00217557,0.0140002,0.283383,5,0.1,6,3.8,4.30009,1.44431,0.5,-0.0023365,0.102723,0,0.0495911,-0.0609756,0,0.00649145,0.19615,5,0.1,7,3.8,1.65679,-2.40108,0.600001,-0.324848,0.00280738,0.000153482,0.0596642,-0.00214577,-5.96046e-05,0.0193598,0.543085,5,0.1,8,3.8,4.11056,1.78681,0.836304,-0.57869,0.212151,0.0551775,-1.3268,-0.227034,-0.213802,0.0133413,2.44838,5,0.1,9,3.8,-5.22061,-5.31625,0.92876,-0.00814199,0.0898361,0.0336021,0.00286102,-0.306606,-0.0109375,0.0215679,0.453178,5,0.1,10,3.8,0.230916,0.72077,0.595793,-0.0436954,-0.532331,-0.0067085,-0.354312,0.976264,0.104964,0.00868504,3.3337,5,0.1,11,3.8,-2.01533,-3.02133,0.893066,0.187737,-0.420451,0.284001,0.189722,-0.181794,-0.0151098,0.0133024,0.950575,5,0.1,12,3.8,0.52426,-0.587664,0.606385,0.700009,0.135913,-0.0066936,-0.694573,-0.144184,0.00786781,0.0108583,0.27635,5,0.1,13,3.8,1.28154,4.13405,1.34028,-0.211516,-0.736082,0.00738204,0.0948906,-0.00357628,-0.0197291,0.0662638,0.283436,5,0.1,14,3.8,3.61209,-1.92021,0.620811,-0.00556111,-0.853261,0.0082165,-0.0292063,-0.226855,0.0013411,0.00737257,1.6261,5,0.1,15,3.8,0.22814,0.129396,0.747577,-0.142549,0.170163,0.067693,-0.0361875,0.299104,0.112385,0.00999569,1.49663,5,0.1,16,3.8,1.84542,-3.27187,0.649691,-0.592214,0.532109,0.0598699,-0.95427,0.147939,-0.178427,0.027749,2.26415,5,0.1,17,3.8,0.899992,-2.37013,0.748429,-0.000211596,-0.0721037,0.00374913,-0.017494,0.113368,-0.00578165,0.00867307,0.270297,5,0.1,18,3.8,-1.74729,-2.17261,0.608329,-0.229678,-0.221276,-0.00631064,0.190854,0.0561476,0.00494719,0.0103231,0.256992,5,0.1,19,3.8,-1.32003,3.87286,1.31455,-0.221205,-0.215846,0.0331491,-0.0448227,-0.84269,-0.0334382,0.0381744,0.973038,5,0.1
0,3.9,-1.99174,-2.41109,0.596736,-0.0557978,-0.24702,0.00576666,0.255793,0.199571,-0.0054501,0.00781552,0.199095,5,0.1,1,3.9,-3.71222,-1.82221,0.599835,0.326476,0.464356,0.000140443,0.655532,1.45008,-0.000208616,0.0153081,2.64273,5,0.1,2,3.9,0.299983,0.366481,0.554654,0.000321073,0.0591343,-0.130981,-0.0175256,0.307428,-0.0101477,0.00880905,0.379222,5,0.1,3,3.9,-1.76551,-2.83891,1.02847,0.238599,0.545573,0.147723,0.228897,-1.32447,0.174597,0.00686809,0.191589,5,0.1,4,3.9,0.0871651,2.18433,0.592308,0.167299,-0.866026,0.00166893,-0.0392483,0,0.000454485,0.010302,2.25462,5,0.1,5,3.9,-3.95371,-2.00001,0.601107,0.132901,-0.00022091,-0.00183806,0.142694,-0.00576675,0.00204146,0.0140002,0.283383,5,0.1,6,3.9,4.30004,1.45425,0.5,0.000556558,0.0956789,0,0.0121891,-0.0802577,0,0.00649145,0.19615,5,0.1,7,3.9,1.62409,-2.40096,0.599859,-0.333126,-0.00189431,-0.0043028,-0.181757,-0.0819713,-0.079181,0.0193598,0.543085,5,0.1,8,3.9,4.04611,1.80691,0.840893,-0.708014,0.19003,0.0378956,-1.1977,-0.218309,-0.136387,0.0133413,2.44838,5,0.1,9,3.9,-5.22158,-5.30876,0.931994,-0.0128858,0.0604808,0.0304521,-0.0862777,-0.275135,-0.0485592,0.0215679,0.453178,5,0.1,10,3.9,0.224329,0.672049,0.595756,-0.091391,-0.445455,0.00679735,-0.55709,0.7734,0.15495,0.00868504,3.3337,5,0.1,11,3.9,-1.99517,-3.06445,0.92146,0.218759,-0.442765,0.284195,0.389911,-0.231668,0.00369921,0.0133024,0.950575,5,0.1,12,3.9,0.591126,-0.574745,0.605753,0.639962,0.122851,-0.00597825,-0.53446,-0.12118,0.00662729,0.0108583,0.27635,5,0.1,13,3.9,1.26118,4.06064,1.34094,-0.192979,-0.729563,0.00580475,0.261612,0.149876,-0.0123829,0.0662638,0.283436,5,0.1,14,3.9,3.61125,-2.00628,0.621669,-0.0123806,-0.864873,0.00917986,-0.0973642,-0.0390187,0.0156909,0.00737257,1.6261,5,0.1,15,3.9,0.213716,0.14821,0.754922,-0.145672,0.208264,0.079156,-0.020179,0.427903,0.1099,0.00999569,1.49663,5,0.1,16,3.9,1.78119,-3.21775,0.654783,-0.692891,0.55095,0.0420221,-0.991851,0.192657,-0.175301,0.027749,2.26415,5,0.1,17,3.9,0.899921,-2.37681,0.748776,-0.000896584,-0.0618443,0.0031909,0.00134483,0.0936389,-0.00540167,0.00867307,0.270297,5,0.1,18,3.9,-1.76939,-2.1944,0.607718,-0.212924,-0.213683,-0.00593513,0.153184,0.0991523,0.00293553,0.0103231,0.256992,5,0.1,19,3.9,-1.34236,3.84677,1.31771,-0.225032,-0.307538,0.030154,-0.0223815,-0.938386,-0.0275522,0.0381744,0.973038,5,0.1
0,4,-1.99613,-2.43475,0.597285,-0.0330269,-0.225538,0.00520647,0.197828,0.233054,-0.00584126,0.00922722,0.323699,5,0.1,1,4,-3.67653,-1.76885,0.599849,0.384313,0.598249,0.00012219,0.47493,1.17028,-0.000178814,0.0160845,2.31749,5,0.1,2,4,0.299955,0.373616,0.541714,-0.000645965,0.0805929,-0.125892,-0.00321865,0.128761,0.104964,0.00646565,0.494485,5,0.1,3,4,-1.74054,-2.79068,1.04401,0.260049,0.422013,0.162002,0.180423,-1.14739,0.103116,0.0187224,3.21504,5,0.1,4,4,0.103683,2.09773,0.592477,0.162739,-0.866026,0.00169873,-0.0585467,0,5.96046e-05,0.0109709,2.25592,5,0.1,5,4,-3.93975,-2.00007,0.600933,0.145739,-0.000792742,-0.00163317,0.10407,-0.00476837,0.00208616,0.0159875,0.265428,5,0.1,6,4,4.30012,1.46338,0.5,0.000762939,0.0866443,0,-0.00476837,-0.100315,0,0.00729849,0.325192,5,0.1,7,4,1.58977,-2.40163,0.598969,-0.353611,-0.0118196,-0.0139251,-0.195384,-0.108957,-0.10559,0.016417,0.273923,5,0.1,8,4,3.96994,1.82482,0.844098,-0.808197,0.168011,0.0270694,-0.767827,-0.223935,-0.0839233,0.0130177,1.96918,5,0.1,9,4,-5.22337,-5.304,0.934758,-0.0233769,0.0356674,0.0245258,-0.114441,-0.218153,-0.0671148,0.0214365,0.664978,5,0.1,10,4,0.212357,0.631119,0.597224,-0.147716,-0.375423,0.0225008,-0.537932,0.637352,0.151515,0.00908369,3.55707,5,0.1,11,4,-1.97129,-3.10974,0.949827,0.258586,-0.461179,0.282145,0.376165,-0.113487,-0.0553429,0.015332,0.71977,5,0.1,12,4,0.652526,-0.563055,0.605187,0.58828,0.110978,-0.0053376,-0.519425,-0.119239,0.0063777,0.00968013,1.1227,5,0.1,13,4,1.24337,3.98879,1.34146,-0.161797,-0.703609,0.00480711,0.350296,0.378489,-0.00798702,0.0646345,2.5249,5,0.1,14,4,3.60948,-2.09285,0.622674,-0.0232875,-0.866026,0.0109628,-0.113249,0,0.0182092,0.00831694,1.24068,5,0.1,15,4,0.199114,0.171152,0.763336,-0.145575,0.249659,0.0884861,0.0261217,0.374161,0.0718832,0.0119987,1.42682,5,0.1,16,4,1.70734,-3.16186,0.658136,-0.779077,0.564468,0.0253722,-0.684023,0.0523329,-0.1553,0.0260995,2.11315,5,0.1,17,4,0.899853,-2.38255,0.749069,-0.000359118,-0.0530541,0.00266582,0.007689,0.0834465,-0.0050962,0.00929624,0.267916,5,0.1,18,4,-1.78992,-2.21518,0.607139,-0.197509,-0.200933,-0.00565797,0.161409,0.157356,0.00289083,0.00832013,0.208009,5,0.1,19,4,-1.36488,3.81152,1.32059,-0.224134,-0.394428,0.0274509,0.0466108,-0.761151,-0.0272989,0.0369441,0.138947,5,0.1
0,4.1,-1.99856,-2.45611,0.597777,-0.0166245,-0.201528,0.00461964,0.132114,0.247613,-0.00591949,0.00922722,0.323699,5,0.1,1,4.1,-3.63569,-1.70311,0.59986,0.432036,0.71557,0.000107102,0.447482,1.1123,-0.00013411,0.0160845,2.31749,5,0.1,2,4.1,0.299884,0.381541,0.529813,-0.000671344,0.0711952,-0.110713,0.00210293,-0.274299,0.190031,0.00646565,0.494485,5,0.1,3,4.1,-1.71431,-2.75204,1.06065,0.258245,0.369426,0.169955,-0.189193,-0.0233054,0.0510067,0.0187224,3.21504,5,0.1,4,4.1,0.119738,2.01113,0.592648,0.15885,-0.866026,0.00172015,-0.0285823,0,0.00026077,0.0109709,2.25592,5,0.1,5,4.1,-3.92466,-2.00024,0.60078,0.155821,-0.00318736,-0.00143396,0.0886917,-0.0333786,0.00191852,0.0159875,0.265428,5,0.1,6,4.1,4.30018,1.47154,0.5,0.000667572,0.0766365,0,0.00172853,-0.100337,0,0.00729849,0.325192,5,0.1,7,4.1,1.55337,-2.40341,0.596991,-0.374254,-0.0242669,-0.0260354,-0.193797,-0.132546,-0.129174,0.016417,0.273923,5,0.1,8,4.1,3.88625,1.84055,0.846465,-0.856846,0.146941,0.0209765,-0.241756,-0.200279,-0.0414886,0.0130177,1.96918,5,0.1,9,4.1,-5.22635,-5.30141,0.936852,-0.0365973,0.0173353,0.0171752,-0.141323,-0.148267,-0.0773482,0.0214365,0.664978,5,0.1,10,4.1,0.195332,0.596582,0.599662,-0.188512,-0.316969,0.0213407,-0.281971,0.537802,-0.144519,0.00908369,3.55707,5,0.1,11,4.1,-1.9434,-3.15649,0.977807,0.299911,-0.473763,0.277577,0.419058,-0.112325,-0.0482947,0.015332,0.71977,5,0.1,12,4.1,0.708502,-0.552512,0.604683,0.528913,0.100212,-0.00476185,-0.65951,-0.0994839,0.00528991,0.00968013,1.1227,5,0.1,13,4.1,1.22817,3.91914,1.34191,-0.148853,-0.698993,0.00420548,-0.0468045,-0.194818,-0.00442564,0.0646345,2.5249,5,0.1,14,4.1,3.60654,-2.17945,0.623873,-0.0358704,-0.865706,0.0130778,-0.130996,0.0128001,0.022389,0.00831694,1.24068,5,0.1,15,4.1,0.185188,0.197591,0.772647,-0.128622,0.275219,0.0984612,0.286376,0.140803,0.115376,0.0119987,1.42682,5,0.1,16,4.1,1.62636,-3.10498,0.659916,-0.836165,0.573815,0.0104802,-0.431433,0.0999272,-0.140026,0.0260995,2.11315,5,0.1,17,4.1,0.899773,-2.38743,0.749311,-0.00180677,-0.044696,0.00218144,-0.0273138,0.0832379,-0.00460073,0.00929624,0.267916,5,0.1,18,4.1,-1.80897,-2.23446,0.606585,-0.18417,-0.18445,-0.00543678,0.114948,0.174344,0.00183657,0.00832013,0.208009,5,0.1,19,4.1,-1.3869,3.76888,1.3232,-0.214882,-0.452472,0.0250034,0.136204,-0.398725,-0.0225604,0.0369441,0.138947,5,0.1
0,4.2,-1.99966,-2.475,0.598209,-0.00621378,-0.175983,0.00401884,0.0780821,0.263214,-0.00610948,0.0108918,0.301121,5,0.1,1,4.2,-3.59051,-1.62651,0.59987,0.468391,0.809982,9.53674e-05,0.257373,0.732362,-8.9407e-05,0.0130146,2.12294,5,0.1,2,4.2,0.299832,0.386912,0.519774,-0.000332296,0.0333264,-0.0894412,0.00423193,-0.449583,0.228375,0.00671437,0.40802,5,0.1,3,4.2,-1.68986,-2.71417,1.07778,0.227222,0.396132,0.171426,-0.40853,0.46432,-0.0244975,0.0241754,2.81809,5,0.1,4,4.2,0.135467,1.92453,0.592821,0.155419,-0.866026,0.00173151,-0.0467226,0,-5.96046e-05,0.0115215,2.37518,5,0.1,5,4.2,-3.90872,-2.00071,0.600646,0.161994,-0.0058949,-0.00124574,0.0286102,-0.0149012,0.00187755,0.014356,0.248566,5,0.1,6,4.2,4.30026,1.4787,0.5,0.000905991,0.0665069,0,0.00214577,-0.10258,0,0.00794696,0.320981,5,0.1,7,4.2,1.51514,-2.40649,0.593753,-0.388363,-0.0370324,-0.0384688,-0.0719428,-0.117064,-0.113994,0.0161604,0.198587,5,0.1,8,4.2,3.7999,1.85426,0.848401,-0.866026,0.127479,0.0181347,0,-0.190973,-0.0181496,0.0150618,1.51218,5,0.1,9,4.2,-5.2307,-5.30031,0.938183,-0.0501513,0.00587702,0.00950396,-0.123262,-0.0824928,-0.0741184,0.0210384,1.97909,5,0.1,10,4.2,0.175465,0.56745,0.600791,-0.205045,-0.266775,-0.000981987,-0.0540689,0.470817,-0.277966,0.00718279,0.555077,5,0.1,11,4.2,-1.91145,-3.20426,1.00525,0.337034,-0.479275,0.270417,0.301063,0.019908,-0.103354,0.0122073,0.522961,5,0.1,12,4.2,0.757924,-0.542979,0.604233,0.458016,0.0904962,-0.0042513,-0.750393,-0.0973046,0.00500679,0.0100442,0.822692,5,0.1,13,4.2,1.21269,3.84794,1.34231,-0.163218,-0.726551,0.00385344,-0.205696,-0.28789,-0.00292063,0.0663325,0.19196,5,0.1,14,4.2,3.60232,-2.26585,0.625288,-0.0481963,-0.860906,0.015147,-0.110269,0.102401,0.0177622,0.00892428,0.92186,5,0.1,15,4.2,0.174006,0.225459,0.783059,-0.0930816,0.27868,0.109439,0.403181,-0.06675,0.0952184,0.00983505,1.30894,5,0.1,16,4.2,1.54116,-3.04726,0.660306,-0.86205,0.578552,-0.00220835,-0.0795126,-0.0293255,-0.112057,0.0259804,1.93602,5,0.1,17,4.2,0.899458,-2.39149,0.749507,-0.00430644,-0.0364959,0.00174642,-0.0168383,0.0803471,-0.00414252,0.0078242,0.253025,5,0.1,18,4.2,-1.82682,-2.25199,0.60605,-0.172874,-0.165772,-0.00523776,0.117898,0.200152,0.00229478,0.00820454,0.172815,5,0.1,19,4.2,-1.40758,3.72224,1.32559,-0.197381,-0.474328,0.0227839,0.21112,-0.0412464,-0.022471,0.037467,0.40425,5,0.1
0,4.3,-1.9999,-2.4913,0.598581,0.0011608,-0.15,0.0034201,0.0637472,0.256151,-0.00585988,0.0108918,0.301121,5,0.1,1,4.3,-3.54233,-1.54276,0.599879,0.494937,0.856815,8.81031e-05,0.243694,0.237234,-5.96046e-05,0.0130146,2.12294,5,0.1,2,4.3,0.299818,0.387574,0.511987,3.58094e-05,-0.0232909,-0.0662665,0.0031013,-0.643466,0.229735,0.00671437,0.40802,5,0.1,3,4.3,-1.6695,-2.67109,1.09476,0.177452,0.474128,0.167445,-0.563495,0.993773,-0.0581667,0.0241754,2.81809,5,0.1,4,4.3,0.150847,1.83845,0.592994,0.152661,-0.850428,0.00174111,-0.0177417,0.304408,0.000145286,0.0115215,2.37518,5,0.1,5,4.3,-3.89247,-2.00137,0.600531,0.162008,-0.00700392,-0.00106404,-0.0297725,0.00567734,0.00176206,0.014356,0.248566,5,0.1,6,4.3,4.30045,1.48484,0.5,0.00339001,0.0561627,0,0.0362992,-0.103615,0,0.00794696,0.320981,5,0.1,7,4.3,1.47593,-2.41079,0.589325,-0.395614,-0.0488922,-0.0500336,-0.0542253,-0.114471,-0.111639,0.0161604,0.198587,5,0.1,8,4.3,3.7133,1.86611,0.850164,-0.865899,0.109861,0.0174619,0.00506639,-0.163905,0.0019744,0.0150618,1.51218,5,0.1,9,4.3,-5.23635,-5.30005,0.938763,-0.0627004,6.25849e-05,0.00214502,-0.121146,-0.0368357,-0.0711903,0.0210384,1.97909,5,0.1,10,4.3,0.15512,0.544071,0.599089,-0.197988,-0.192992,-0.034627,0.177815,0.941169,-0.372764,0.00718279,0.555077,5,0.1,11,4.3,-1.87622,-3.25212,1.03182,0.367329,-0.477808,0.260938,0.280492,0.0302047,-0.0962168,0.0122073,0.522961,5,0.1,12,4.3,0.79978,-0.534381,0.603831,0.377613,0.0817354,-0.00380147,-0.839707,-0.0807531,0.00412017,0.0100442,0.822692,5,0.1,13,4.3,1.19572,3.77439,1.34269,-0.172759,-0.738733,0.00368673,0.0038892,0.0472814,-0.000752509,0.0663325,0.19196,5,0.1,14,4.3,3.59694,-2.35169,0.626894,-0.059266,-0.857297,0.0169705,-0.105456,0.0175685,0.0173859,0.00892428,0.92186,5,0.1,15,4.3,0.166988,0.253084,0.794747,-0.0452112,0.27436,0.126388,0.528377,-0.034486,0.219569,0.00983505,1.30894,5,0.1,16,4.3,1.45472,-2.9898,0.659521,-0.86532,0.567994,-0.0134366,0.00835955,-0.18838,-0.108756,0.0259804,1.93602,5,0.1,17,4.3,0.898867,-2.39475,0.749662,-0.00763293,-0.0287671,0.0013602,-0.0245571,0.0738651,-0.00358745,0.0078242,0.253025,5,0.1,18,4.3,-1.84361,-2.26758,0.605537,-0.163694,-0.146053,-0.0050432,0.0751913,0.195682,0.00182912,0.00820454,0.172815,5,0.1,19,4.3,-1.42638,3.67442,1.32777,-0.179534,-0.483106,0.0207666,0.1546,-0.102609,-0.0186116,0.037467,0.40425,5,0.1
0,4.4,-1.99952,-2.50503,0.598894,0.00567734,-0.124824,0.00284612,0.0236034,0.246763,-0.00563264,0.0101594,0.965152,5,0.1,1,4.4,-3.49184,-1.45642,0.599888,0.512081,0.866026,8.19564e-05,0.0786781,0,-5.96046e-05,0.0128275,1.5869,5,0.1,2,4.4,0.299836,0.381975,0.506475,0.000284612,-0.0884749,-0.0444084,0.00189245,-0.630543,0.203609,0.0132924,0.463725,5,0.1,3,4.4,-1.65466,-2.61853,1.11113,0.118691,0.577062,0.15932,-0.593364,0.988364,-0.105917,0.0218203,2.49547,5,0.1,4,4.4,0.16601,1.75538,0.593168,0.150274,-0.806579,0.00174344,-0.0366643,0.565708,-0.000208616,0.0123553,2.65241,5,0.1,5,4.4,-3.87652,-2.00194,0.600433,0.155866,-0.003016,-0.00089258,-0.0935793,0.0785589,0.00166893,0.0146208,2.58505,5,0.1,6,4.4,4.30095,1.48994,0.5,0.00636578,0.0459135,0,0.0162125,-0.100791,0,0.00915962,0.303741,5,0.1,7,4.4,1.43625,-2.41621,0.583806,-0.396046,-0.0589609,-0.0598326,0.0582933,-0.0828505,-0.0803173,0.0187662,0.834663,5,0.1,8,4.4,3.62678,1.8763,0.851935,-0.863999,0.0942647,0.0180513,0.0404119,-0.149846,0.007689,0.012165,1.14842,5,0.1,9,4.4,-5.24317,-5.30017,0.938639,-0.0732541,-0.00203848,-0.00441521,-0.0855923,-0.00762939,-0.058651,0.0218151,3.99578,5,0.1,10,4.4,0.136474,0.529821,0.593756,-0.172674,-0.0898674,-0.0716582,0.313938,1.07175,-0.35134,0.00630994,0.33637,5,0.1,11,4.4,-1.83828,-3.29959,1.05737,0.389022,-0.469756,0.249499,0.136495,0.144958,-0.139534,0.0127401,0.366155,5,0.1,12,4.4,0.833318,-0.526603,0.603471,0.293271,0.0738606,-0.00340492,-0.833064,-0.0788271,0.00393391,0.00976453,0.816106,5,0.1,13,4.4,1.17873,3.70133,1.34305,-0.164515,-0.716937,0.00364184,0.151396,0.387192,-0.000417233,0.063627,0.908862,5,0.1,14,4.4,3.59053,-2.43716,0.628669,-0.0683188,-0.849259,0.0184014,-0.071764,0.176787,0.0103116,0.00755832,0.659594,5,0.1,15,4.4,0.165139,0.280301,0.808526,0.008047,0.269253,0.149119,0.517167,-0.0781268,0.216991,0.0101721,1.12884,5,0.1,16,4.4,1.3684,-2.93424,0.657664,-0.858706,0.539964,-0.0233173,0.146329,-0.374794,-0.0861883,0.0217594,1.50715,5,0.1,17,4.4,0.898118,-2.39727,0.749781,-0.00566244,-0.0217915,0.00102818,0.0744164,0.0653267,-0.00301003,0.00924432,0.214932,5,0.1,18,4.4,-1.85961,-2.2812,0.605042,-0.156206,-0.126415,-0.00483394,0.0814199,0.198007,0.0025034,0.00900013,0.146736,5,0.1,19,4.4,-1.44359,3.6257,1.32975,-0.164941,-0.489438,0.0189334,0.143766,-0.00143051,-0.0186563,0.0343165,0.45349,5,0.1
0,4.5,-1.99872,-2.51632,0.599151,0.0106573,-0.101434,0.00231462,0.0404418,0.221223,-0.00501052,0.0101594,0.965152,5,0.1,1,4.5,-3.44022,-1.36982,0.599896,0.519799,0.865764,7.71135e-05,0.0518709,-0.010483,-4.47035e-05,0.0128275,1.5869,5,0.1,2,4.5,0.299857,0.37021,0.50298,1.25263e-05,-0.144246,-0.0262506,-0.00588037,-0.4769,0.158228,0.0132924,0.463725,5,0.1,3,4.5,-1.64582,-2.55543,1.12655,0.0581004,0.687361,0.14896,-0.601545,1.13559,-0.105113,0.0218203,2.49547,5,0.1,4,4.5,0.180862,1.67841,0.593343,0.146707,-0.726509,0.00174288,-0.0400692,0.946991,8.9407e-05,0.0123553,2.65241,5,0.1,5,4.5,-3.86081,-2.00196,0.600352,0.163374,0.00427738,-0.000736117,0.2027,0.174463,0.00146776,0.0146208,2.58505,5,0.1,6,4.5,4.30172,1.49404,0.5,0.00875145,0.0362294,0,0.00834465,-0.0924543,0,0.00915962,0.303741,5,0.1,7,4.5,1.39669,-2.42256,0.57737,-0.396904,-0.0684429,-0.0691841,-0.045754,-0.0989884,-0.0986718,0.0187662,0.834663,5,0.1,8,4.5,3.5404,1.88503,0.853797,-0.864406,0.0806451,0.0193063,-0.0117868,-0.124723,0.0153258,0.012165,1.14842,5,0.1,9,4.5,-5.25084,-5.30039,0.937933,-0.07919,-0.00215545,-0.00941129,-0.0331104,0.00414252,-0.0411235,0.0218151,3.99578,5,0.1,10,4.5,0.120769,0.52621,0.584874,-0.141539,0.0170548,-0.105292,0.306501,1.03623,-0.310082,0.00630994,0.33637,5,0.1,11,4.5,-1.7987,-3.34588,1.08167,0.401998,-0.456051,0.23653,0.10372,0.146061,-0.128068,0.0127401,0.366155,5,0.1,12,4.5,0.858501,-0.519582,0.603148,0.211131,0.0667779,-0.00305297,-0.789572,-0.0651851,0.00321493,0.00976453,0.816106,5,0.1,13,4.5,1.16288,3.63098,1.34342,-0.153842,-0.694397,0.00365917,0.0740662,0.117362,0.000484288,0.063627,0.908862,5,0.1,14,4.5,3.58335,-2.52135,0.63056,-0.0751544,-0.835231,0.0194003,-0.0604838,0.142053,0.00862405,0.00755832,0.659594,5,0.1,15,4.5,0.168511,0.307362,0.824296,0.0588468,0.276166,0.164067,0.484526,0.174845,0.0832044,0.0101721,1.12884,5,0.1,16,4.5,1.28296,-2.88234,0.654891,-0.851994,0.495918,-0.0321587,0.0370666,-0.502244,-0.0863783,0.0217594,1.50715,5,0.1,17,4.5,0.898041,-2.39914,0.749869,0.00626044,-0.015701,0.000752788,0.198569,0.0562817,-0.00250712,0.00924432,0.214932,5,0.1,18,4.5,-1.87491,-2.29289,0.604571,-0.150201,-0.107693,-0.00460502,0.047572,0.178024,0.00225008,0.00900013,0.146736,5,0.1,19,4.5,-1.45944,3.57651,1.33156,-0.152705,-0.496027,0.0172576,0.108041,-0.0952929,-0.0154749,0.0343165,0.45349,5,0.1
0,4.6,-1.99764,-2.5254,0.599359,0.0086695,-0.0805497,0.00184476,-0.0956059,0.196576,-0.00447035,0.00947479,3.57737,5,0.1,1,4.6,-3.38819,-1.28338,0.599903,0.518465,0.861832,7.30157e-05,-0.0946522,-0.0838637,-2.98023e-05,0.0169125,1.17196,5,0.1,2,4.6,0.299825,0.353708,0.501064,-0.00064522,-0.182617,-0.0129133,-0.00627339,-0.286147,0.108361,0.0127999,0.431479,5,0.1,3,4.6,-1.64291,-2.48132,1.14089,0.00130534,0.790113,0.137666,-0.521958,0.860929,-0.123322,0.0173304,2.32662,5,0.1,4,4.6,0.19529,1.61057,0.593517,0.141362,-0.630966,0.00174195,-0.0704303,0.914752,-0.000208616,0.0110981,2.82249,5,0.1,5,4.6,-3.84324,-2,0.600285,0.189149,0.0416607,-0.000597537,0.281572,0.56392,0.0012815,0.0163742,2.42045,5,0.1,6,4.6,4.30248,1.49722,0.5,0.00481606,0.0274986,0,-0.0963211,-0.0818372,0,0.00736866,0.265367,5,0.1,7,4.6,1.3568,-2.42988,0.569982,-0.400078,-0.0774086,-0.0781789,0.00375509,-0.074625,-0.0754595,0.0166053,0.502459,5,0.1,8,4.6,3.45405,1.89249,0.855802,-0.860614,0.0689387,0.0207558,0.108242,-0.111043,0.0120699,0.0120953,0.844203,5,0.1,9,4.6,-5.25884,-5.30057,0.936816,-0.0799298,-0.00139475,-0.0126287,0.0181198,0.00977516,-0.0233054,0.0220743,3.99785,5,0.1,10,4.6,0.10812,0.532832,0.572938,-0.111783,0.11217,-0.131789,0.286788,0.844419,-0.212282,0.00651122,0.308494,5,0.1,11,4.6,-1.75817,-3.39064,1.10464,0.406533,-0.437713,0.222504,-0.0261068,0.231981,-0.158131,0.0121895,0.249552,5,0.1,12,4.6,0.875871,-0.513223,0.602858,0.138634,0.0604197,-0.0027433,-0.647753,-0.063628,0.00306964,0.00853978,0.794295,5,0.1,13,4.6,1.14782,3.56205,1.34379,-0.147611,-0.684142,0.00369251,0.059545,0.127077,0,0.0641396,2.51691,5,0.1,14,4.6,3.57558,-2.60397,0.632534,-0.0796795,-0.814378,0.0199527,-0.0269413,0.301123,0.00172853,0.00900253,0.459124,5,0.1,15,4.6,0.176668,0.33599,0.840908,0.102499,0.296938,0.166112,0.378311,0.209317,-0.0399053,0.0106422,1.1942,5,0.1,16,4.6,1.19809,-2.83544,0.651271,-0.842908,0.440359,-0.0398666,0.17941,-0.604391,-0.0647604,0.0187988,1.135,5,0.1,17,4.6,0.9,-2.40044,0.749933,0.036101,-0.0105739,0.000527501,0.384212,0.0463724,-0.00202656,0.0104243,0.160399,5,0.1,18,4.6,-1.88969,-2.3028,0.604122,-0.145167,-0.0905454,-0.00435412,0.0593662,0.165939,0.00286102,0.00859707,0.239661,5,0.1,19,4.6,-1.47419,3.52651,1.33321,-0.142115,-0.502491,0.0157326,0.108898,-0.00882149,-0.0154972,0.0341533,0.505848,5,0.1
0,4.7,-1.99722,-2.53338,0.599596,-0.00384729,-0.0866745,0.0035339,-0.290193,-0.264719,0.0335686,0.00947479,3.57737,5,0.1,1,4.7,-3.33693,-1.19733,0.59991,0.505233,0.860822,7.0408e-05,-0.180453,0.0135824,-2.23517e-05,0.0169125,1.17196,5,0.1,2,4.7,0.299635,0.334206,0.50023,-0.00377311,-0.205398,-0.00456013,-0.0436585,-0.165412,0.0607446,0.0127999,0.431479,5,0.1,3,4.7,-1.64544,-2.39889,1.15408,-0.0517303,0.850166,0.126217,-0.520132,0.354111,-0.109456,0.0173304,2.32662,5,0.1,4,4.7,0.209113,1.55196,0.593691,0.135318,-0.54515,0.00173999,-0.0563581,0.689052,5.58794e-05,0.0110981,2.82249,5,0.1,5,4.7,-3.82268,-1.99315,0.600231,0.223706,0.0938661,-0.000479817,0.378296,0.470892,0.00108033,0.0163742,2.42045,5,0.1,6,4.7,4.30236,1.49957,0.5,-0.00938848,0.0198819,0,-0.219315,-0.0702739,0,0.00736866,0.265367,5,0.1,7,4.7,1.31693,-2.43811,0.561705,-0.395658,-0.0879951,-0.0879189,0.0924245,-0.124484,-0.108734,0.0166053,0.502459,5,0.1,8,4.7,3.3683,1.89887,0.857945,-0.85539,0.0589706,0.0221249,0.0415146,-0.0901669,0.0136793,0.0120953,0.844203,5,0.1,9,4.7,-5.26671,-5.30072,0.935456,-0.077121,-0.00214279,-0.0143822,0.038743,-0.0188947,-0.0117645,0.0220743,3.99785,5,0.1,10,4.7,0.0981692,0.547929,0.55904,-0.0890598,0.186108,-0.14301,0.176447,0.625595,-0.0216402,0.00651122,0.308494,5,0.1,11,4.7,-1.71764,-3.43331,1.12615,0.403617,-0.415847,0.20783,-0.0478625,0.219285,-0.142187,0.0121895,0.249552,5,0.1,12,4.7,0.886686,-0.507476,0.602598,0.0802503,0.0547097,-0.00246949,-0.493895,-0.0525303,0.00249594,0.00853978,0.794295,5,0.1,13,4.7,1.13256,3.49333,1.34416,-0.164035,-0.697414,0.00370517,-0.333987,-0.309974,7.45058e-05,0.0641396,2.51691,5,0.1,14,4.7,3.56748,-2.68402,0.634537,-0.0820655,-0.787136,0.0200964,-0.0172108,0.274792,0.00031665,0.00900253,0.459124,5,0.1,15,4.7,0.188576,0.367455,0.857204,0.133304,0.337981,0.158704,0.236878,0.547582,-0.106402,0.0106422,1.1942,5,0.1,16,4.7,1.1144,-2.79387,0.647013,-0.832677,0.395836,-0.0447645,0.072144,-0.320569,-0.0329353,0.0187988,1.135,5,0.1,17,4.7,0.90566,-2.40127,0.750033,0.0777967,-0.00606477,0.00197552,0.426896,0.0430346,0.0273958,0.0104243,0.160399,5,0.1,18,4.7,-1.90418,-2.311,0.603701,-0.146903,-0.073475,-0.00407957,-0.0725538,0.173107,0.00274926,0.00859707,0.239661,5,0.1,19,4.7,-1.48791,3.47606,1.33471,-0.132689,-0.507247,0.0143394,0.0853762,-0.0561923,-0.0128746,0.0341533,0.505848,5,0.1
0,4.8,-2,-2.54376,0.600148,-0.061065,-0.123817,0.00772774,-0.835538,-0.435948,0.0466108,0.0117325,3.11578,5,0.1,1,4.8,-3.28752,-1.11135,0.599917,0.480723,0.856009,6.70552e-05,-0.315785,-0.145078,-2.98023e-05,0.0144112,0.880035,5,0.1,2,4.8,0.299059,0.313065,0.500014,-0.00734702,-0.215128,-0.000345707,-0.0201315,-0.0275373,0.0256896,0.0118667,0.394043,5,0.1,3,4.8,-1.65308,-2.31278,1.16615,-0.0995219,0.866026,0.115132,-0.422478,0,-0.114858,0.0160492,2.25404,5,0.1,4,4.8,0.222347,1.5,0.593865,0.129085,-0.502998,0.0017345,-0.0724494,0.168085,-0.000238419,0.0114371,2.79342,5,0.1,5,4.8,-3.79847,-1.98162,0.600189,0.259387,0.134295,-0.00037998,0.312686,0.331461,0.000923872,0.013231,2.30007,5,0.1,6,4.8,4.3,1.50123,0.5,-0.0408292,0.0134766,0,-0.396013,-0.0577569,0,0.00746694,0.204498,5,0.1,7,4.8,1.27803,-2.44753,0.552386,-0.380388,-0.100118,-0.0980914,0.217319,-0.1086,-0.0869632,0.0169302,1.22387,5,0.1,8,4.8,3.28316,1.90434,0.860218,-0.844616,0.0505805,0.023216,0.205636,-0.0790358,0.00697374,0.0138245,0.599383,5,0.1,9,4.8,-5.27419,-5.30104,0.933978,-0.0720978,-0.00420809,-0.0149921,0.0617504,-0.0185966,-0.000566244,0.0217271,3.96133,5,0.1,10,4.8,0.0900226,0.569248,0.544879,-0.0749215,0.235975,-0.137918,0.113264,0.367373,0.114918,0.00662011,0.346539,5,0.1,11,4.8,-1.67766,-3.47373,1.1462,0.394356,-0.391513,0.192916,-0.14782,0.276804,-0.160694,0.011631,0.167309,5,0.1,12,4.8,0.892648,-0.502262,0.602364,0.0433296,0.0495806,-0.00222921,-0.235766,-0.0514537,0.00241399,0.00874821,0.737716,5,0.1,13,4.8,1.11421,3.42188,1.34452,-0.204849,-0.731742,0.00367463,-0.440896,-0.315189,-0.00077486,0.0628652,2.37458,5,0.1,14,4.8,3.55923,-2.7612,0.636541,-0.0825405,-0.754195,0.0198767,0.010252,0.405192,-0.00527501,0.00840922,0.313376,5,0.1,15,4.8,0.202852,0.404116,0.872446,0.149844,0.395259,0.14523,0.0945181,0.550017,-0.160992,0.0114549,0.945812,5,0.1,16,4.8,1.03163,-2.75565,0.642426,-0.82047,0.370175,-0.0464395,0.205219,-0.218749,-0.000685453,0.00743313,1.168,5,0.1,17,4.8,0.915491,-2.40167,0.750392,0.117578,-0.00209808,0.00536889,0.352472,0.0357628,0.0376105,0.0094165,0.128789,5,0.1,18,4.8,-1.91931,-2.31749,0.603307,-0.155905,-0.0563502,-0.00378639,-0.0914335,0.167489,0.00327826,0.00820769,0.20652,5,0.1,19,4.8,-1.50075,3.42518,1.33608,-0.124058,-0.508595,0.0130713,0.0913739,0.0500679,-0.0129342,0.0317099,0.459801,5,0.1
0,4.9,-2.01148,-2.55869,0.601183,-0.177899,-0.177455,0.013167,-1.39767,-0.595197,0.0586137,0.0117325,3.11578,5,0.1,1,4.9,-3.24151,-1.02631,0.599924,0.435238,0.845344,6.4075e-05,-0.573128,-0.108249,-2.98023e-05,0.0144112,0.880035,5,0.1,2,4.9,0.298174,0.291536,0.500073,-0.0101628,-0.214179,0.00121612,-0.0102408,0.0482984,0.0070259,0.0118667,0.394043,5,0.1,3,4.9,-1.66513,-2.22618,1.17714,-0.140928,0.866026,0.10503,-0.389703,0,-0.0914261,0.0160492,2.25404,5,0.1,4,4.9,0.234873,1.45033,0.594038,0.121194,-0.494316,0.00173105,-0.0870368,-0.0583008,6.33299e-05,0.0114371,2.79342,5,0.1,5,4.9,-3.7709,-1.96709,0.600155,0.292053,0.151577,-0.000296813,0.316516,0.0453219,0.000741333,0.013231,2.30007,5,0.1,6,4.9,4.29359,1.50231,0.5,-0.0900492,0.00825375,0,-0.552237,-0.0466406,0,0.00746694,0.204498,5,0.1,7,4.9,1.24098,-2.45844,0.542325,-0.361255,-0.120921,-0.10144,0.180162,-0.277638,0.0150576,0.0169302,1.22387,5,0.1,8,4.9,3.19959,1.90903,0.862577,-0.827365,0.0435615,0.0239485,0.175759,-0.0629053,0.00638887,0.0138245,0.599383,5,0.1,9,4.9,-5.28103,-5.30176,0.932483,-0.0642993,-0.0112757,-0.0148228,0.0917614,-0.0938773,0.00410154,0.0217271,3.96133,5,0.1,10,4.9,0.0828742,0.594348,0.531846,-0.0699231,0.262695,-0.121163,0.000380911,0.167429,0.210579,0.00662011,0.346539,5,0.1,11,4.9,-1.63893,-3.51157,1.16473,0.380018,-0.365644,0.178076,-0.15182,0.252202,-0.141799,0.011631,0.167309,5,0.1,12,4.9,0.896154,-0.497542,0.602152,0.0313204,0.0449659,-0.00201408,0.0303164,-0.042459,0.0019595,0.00874821,0.737716,5,0.1,13,4.9,1.09095,3.34672,1.34489,-0.264615,-0.77377,0.00355616,-0.696726,-0.460953,-0.00163913,0.0628652,2.37458,5,0.1,14,4.9,3.55103,-2.83471,0.638503,-0.0813991,-0.716698,0.0193551,0.0154674,0.370264,-0.00584126,0.00840922,0.313376,5,0.1,15,4.9,0.218121,0.44671,0.886097,0.153729,0.458448,0.127185,-0.0138097,0.661176,-0.196517,0.0114549,0.945812,5,0.1,16,4.9,0.952263,-2.7211,0.637608,-0.752423,0.309324,-0.0513081,1.0777,-0.9197,-0.083942,0.00743313,1.168,5,0.1,17,4.9,0.928783,-2.40173,0.751258,0.145904,0.000796467,0.0131129,0.211682,0.0225604,0.107121,0.0094165,0.128789,5,0.1,18,4.9,-1.93511,-2.32275,0.602943,-0.157997,-0.0527047,-0.00350429,0.0437126,-0.0682771,0.00252202,0.00820769,0.20652,5,0.1,19,4.9,-1.51274,3.37524,1.33733,-0.115993,-0.484088,0.0119083,0.0745878,0.415698,-0.0107437,0.0317099,0.459801,5,0.1
0,5,-2.03649,-2.57939,0.602788,-0.322419,-0.235623,0.0188321,-1.41442,-0.537038,0.0520945,0.0098695,2.65556,5,0.1,1,5,-3.20113,-0.942526,0.59993,0.369936,0.827597,6.25849e-05,-0.715375,-0.27436,-8.9407e-05,0.0119014,0.562248,5,0.1,2,5,0.297277,0.270496,0.500209,-0.0057824,-0.205253,0.0013262,0.108019,0.130594,-0.00363588,0.011758,0.50565,5,0.1,3,5,-1.68101,-2.13957,1.18719,-0.174767,0.866026,0.0961185,-0.276029,0,-0.0897646,0.0177731,2.23958,5,0.1,4,5,0.246522,1.4,0.594211,0.111419,-0.517818,0.00172853,-0.109345,-0.379503,-0.000238419,0.0111413,2.70568,5,0.1,5,5,-3.74027,-1.95197,0.600129,0.318581,0.148657,-0.000227988,0.197172,-0.0819564,0.000566244,0.0127627,2.14548,5,0.1,6,5,4.28181,1.50292,0.5,-0.144958,0.00415444,0,-0.519276,-0.0353456,0,0.00692398,0.140497,5,0.1,7,5,1.20579,-2.47199,0.53239,-0.341836,-0.150406,-0.0960216,0.218451,-0.289798,0.0888407,0.00606313,0.618321,5,0.1,8,5,3.11792,1.91309,0.864994,-0.803322,0.0377297,0.0242785,0.33021,-0.0549555,-0.000655651,0.01082,0.414903,5,0.1,9,5,-5.28697,-5.30329,0.93103,-0.0541925,-0.0183821,-0.0141531,0.108004,-0.0305176,0.00935793,0.0243947,3.82904,5,0.1,10,5,0.0757901,0.62113,0.520874,-0.0724247,0.26972,-0.097543,-0.039883,-0.0247359,0.254035,0.00868042,4.0283,5,0.1,11,5,-1.60178,-3.54683,1.18182,0.361845,-0.339115,0.163594,-0.22018,0.286341,-0.151873,0.0107585,0.194646,5,0.1,12,5,0.9,-0.493254,0.60196,0.0508487,0.0408128,-0.00182539,0.340074,-0.0417531,0.00193715,0.00854327,0.879138,5,0.1,13,5,1.06097,3.26723,1.34523,-0.334129,-0.812882,0.00334382,-0.650585,-0.275016,-0.00274181,0.0589864,2.20591,5,0.1,14,5,3.54299,-2.90442,0.640404,-0.0789642,-0.675857,0.0185952,0.0351667,0.463963,-0.00983477,0.00991666,0.211377,5,0.1,15,5,0.233267,0.49569,0.897798,0.147702,0.518439,0.106554,-0.103518,0.500695,-0.213116,0.0108093,0.725208,5,0.1,16,5,0.883315,-2.69538,0.632006,-0.619112,0.200301,-0.0609845,1.52478,-1.19865,-0.0998974,0.0178093,1.0074,5,0.1,17,5,0.944185,-2.40155,0.753151,0.159664,0.0025034,0.0249967,0.0634491,0.0120401,0.122726,0.0112277,2.07185,5,0.1,18,5,-1.95051,-2.32857,0.602605,-0.148302,-0.0653267,-0.00325441,0.14466,-0.163794,0.002563,0.00711369,0.178784,5,0.1,19,5,-1.52396,3.32935,1.33847,-0.10834,-0.429988,0.010848,0.0816584,0.645638,-0.0107288,0.0321432,0.644183,5,0.1
