id,t,px,py,pz,vx,vy,vz,ax,ay,az,planning_time,qp_cost,planning_report,size,id,t,px,py,pz,vx,vy,vz,ax,ay,az,planning_time,qp_cost,planning_report,size,id,t,px,py,pz,vx,vy,vz,ax,ay,az,planning_time,qp_cost,planning_report,size,id,t,px,py,pz,vx,vy,vz,ax,ay,az,planning_time,qp_cost,planning_report,size,id,t,px,py,pz,vx,vy,vz,ax,ay,az,planning_time,qp_cost,planning_report,size,id,t,px,py,pz,vx,vy,vz,ax,ay,az,planning_time,qp_cost,planning_report,size,id,t,px,py,pz,vx,vy,vz,ax,ay,az,planning_time,qp_cost,planning_report,size,id,t,px,py,pz,vx,vy,vz,ax,ay,az,planning_time,qp_cost,planning_report,size,id,t,px,py,pz,vx,vy,vz,ax,ay,az,planning_time,qp_cost,planning_report,size,id,t,px,py,pz,vx,vy,vz,ax,ay,az,planning_time,qp_cost,planning_report,size,id,t,px,py,pz,vx,vy,vz,ax,ay,az,planning_time,qp_cost,planning_report,size,id,t,px,py,pz,vx,vy,vz,ax,ay,az,planning_time,qp_cost,planning_report,size,id,t,px,py,pz,vx,vy,vz,ax,ay,az,planning_time,qp_cost,planning_report,size,id,t,px,py,pz,vx,vy,vz,ax,ay,az,planning_time,qp_cost,planning_report,size,id,t,px,py,pz,vx,vy,vz,ax,ay,az,planning_time,qp_cost,planning_report,size,id,t,px,py,pz,vx,vy,vz,ax,ay,az,planning_time,qp_cost,planning_report,size,id,t,px,py,pz,vx,vy,vz,ax,ay,az,planning_time,qp_cost,planning_report,size,id,t,px,py,pz,vx,vy,vz,ax,ay,az,planning_time,qp_cost,planning_report,size,id,t,px,py,pz,vx,vy,vz,ax,ay,az,planning_time,qp_cost,planning_report,size,id,t,px,py,pz,vx,vy,vz,ax,ay,az,planning_time,qp_cost,planning_report,size
0,0,3.91363,-2.90422,0.604847,0,0,0,0,0,0,0.0346218,3.5122,5,0.1,1,0,0.37832,-0.860969,0.512168,0,0,0,0,0,0,0.0114841,3.51219,5,0.1,2,0,-0.337649,-1.33912,0.679713,0,0,0,0,0,0,0.00860445,2.98383,5,0.1,3,0,4.09063,-4.29129,0.594385,0,0,0,0,0,0,0.0312959,3.5122,5,0.1,4,0,-2.53348,-2.99839,0.696822,0,0,0,0,0,0,0.023454,0.615826,5,0.1,5,0,4.18144,-1.11702,0.65299,0,0,0,0,0,0,0.00938182,1.32725,5,0.1,6,0,-3.85805,1.85109,0.524185,0,0,0,0,0,0,0.0142618,3.5122,5,0.1,7,0,3.2427,-3.75266,0.56363,0,0,0,0,0,0,0.00996069,3.5122,5,0.1,8,0,-3.94851,-3.87584,0.587564,0,0,0,0,0,0,0.0214979,3.5122,5,0.1,9,0,-2.84143,-0.109665,0.623454,0,0,0,0,0,0,0.0115361,3.5122,5,0.1,10,0,-1.69625,-0.479614,0.691381,0,0,0,0,0,0,0.00901749,0.872085,5,0.1,11,0,-3.54645,4.82586,0.554336,0,0,0,0,0,0,0.0215913,3.51219,5,0.1,12,0,-0.16695,1.23487,0.655107,0,0,0,0,0,0,0.00892446,3.5122,5,0.1,13,0,-1.64434,-5.25632,0.544597,0,0,0,0,0,0,0.0212099,3.5122,5,0.1,14,0,1.5505,2.78878,0.659475,0,0,0,0,0,0,0.00823022,3.5122,5,0.1,15,0,4.65146,-3.92737,0.560486,0,0,0,0,0,0,0.0252037,0.304503,5,0.1,16,0,-3.36442,2.25581,0.532183,0,0,0,0,0,0,0.0451989,2.65457,5,0.1,17,0,-3.60883,-2.53675,0.526292,0,0,0,0,0,0,0.00763667,0.787551,5,0.1,18,0,4.66983,0.725067,0.630947,0,0,0,0,0,0,0.0069388,0.485037,5,0.1,19,0,2.4757,-2.87943,0.632745,0,0,0,0,0,0,0.0103322,3.51219,5,0.1
0,0.1,3.91337,-2.90215,0.604843,-0.00751242,0.0587899,-0.000116043,-0.133574,1.04515,-0.00206381,0.0346218,3.5122,5,0.1,1,0.1,0.378119,-0.858892,0.512114,-0.00570305,0.0589729,-0.00155289,-0.101388,1.0484,-0.0276044,0.0114841,3.51219,5,0.1,2,0.1,-0.337297,-1.34101,0.679786,0.0100059,-0.0536639,0.0020829,0.177884,-0.954032,0.0370331,0.00860445,2.98383,5,0.1,3,0.1,4.09062,-4.28922,0.594708,-0.000409037,0.0585549,0.00915676,-0.00730157,1.04097,0.16278,0.0312959,3.5122,5,0.1,4,0.1,-2.53288,-2.99777,0.696878,0.0172913,0.0177328,0.0015757,0.307381,0.315234,0.0280179,0.023454,0.615826,5,0.1,5,0.1,4.18036,-1.11633,0.652935,-0.0305653,0.0197666,-0.0015703,-0.543416,0.351407,-0.0279211,0.00938182,1.32725,5,0.1,6,0.1,-3.85597,1.85091,0.524147,0.0590321,-0.0051707,-0.00109272,1.04947,-0.0919253,-0.0194199,0.0142618,3.5122,5,0.1,7,0.1,3.24076,-3.7519,0.563712,-0.0550881,0.0217412,0.00231629,-0.979334,0.386521,0.0411831,0.00996069,3.5122,5,0.1,8,0.1,-3.94833,-3.87376,0.587576,0.00526495,0.0590332,0.000329688,0.0935942,1.04946,0.00586361,0.0214979,3.5122,5,0.1,9,0.1,-2.83937,-0.109382,0.623438,0.058718,0.00804125,-0.000460446,1.04389,0.142955,-0.00818819,0.0115361,3.5122,5,0.1,10,0.1,-1.69667,-0.478957,0.692069,-0.0119649,0.0186581,0.0195175,-0.212714,0.3317,0.346981,0.00901749,0.872085,5,0.1,11,0.1,-3.54446,4.82523,0.554363,0.0564959,-0.017897,0.000759494,1.00438,-0.31814,0.0134967,0.0215913,3.51219,5,0.1,12,0.1,-0.167484,1.23285,0.655074,-0.0151691,-0.0572864,-0.000946783,-0.269672,-1.01842,-0.0168309,0.00892446,3.5122,5,0.1,13,0.1,-1.64446,-5.25426,0.544904,-0.00330899,0.0585288,0.00871951,-0.0588223,1.04052,0.155013,0.0212099,3.5122,5,0.1,14,0.1,1.54882,2.79002,0.659416,-0.0475854,0.035293,-0.00166409,-0.845954,0.627443,-0.0295863,0.00823022,3.5122,5,0.1,15,0.1,4.65146,-3.92702,0.560997,-4.32134e-05,0.00970215,0.0145063,-0.00077486,0.172466,0.257894,0.0252037,0.304503,5,0.1,16,0.1,-3.36279,2.25502,0.532253,0.0463601,-0.0223976,0.0020097,0.824168,-0.398174,0.0357293,0.0451989,2.65457,5,0.1,17,0.1,-3.60981,-2.53693,0.526325,-0.0275921,-0.00504963,0.000914279,-0.490531,-0.0897795,0.0162534,0.00763667,0.787551,5,0.1,18,0.1,4.66934,0.724467,0.630915,-0.0139222,-0.0170416,-0.000917073,-0.247538,-0.302959,-0.0162981,0.0069388,0.485037,5,0.1,19,0.1,2.47703,-2.88104,0.632719,0.0379246,-0.0455406,-0.000720099,0.674203,-0.809625,-0.0128001,0.0103322,3.51219,5,0.1
0,0.2,3.91184,-2.89021,0.604819,-0.0237465,0.185806,-0.000368059,-0.177979,1.39356,-0.00271201,0.0334599,2.92579,5,0.1,1,0.2,0.376961,-0.846913,0.511798,-0.0180244,0.186384,-0.00490695,-0.135183,1.39788,-0.0368357,0.0111106,2.92579,5,0.1,2,0.2,-0.335264,-1.35191,0.680209,0.031624,-0.169605,0.00658333,0.237167,-1.27202,0.0493824,0.0124529,2.44808,5,0.1,3,0.2,4.09053,-4.27733,0.596567,-0.00129938,0.185061,0.0289395,-0.00977516,1.38807,0.21705,0.0361505,2.92579,5,0.1,4,0.2,-2.52936,-2.99417,0.697198,0.0546515,0.0560462,0.00497997,0.409722,0.420332,0.0373721,0.0245943,0.505258,5,0.1,5,0.2,4.17415,-1.11231,0.652616,-0.0965953,0.0624716,-0.00496209,-0.724792,0.468552,-0.0372529,0.01074,1.08893,5,0.1,6,0.2,-3.84398,1.84986,0.523925,0.186574,-0.0163436,-0.00345409,1.39916,-0.122547,-0.0258684,0.0132249,2.9258,5,0.1,7,0.2,3.22957,-3.74748,0.564182,-0.174105,0.0687122,0.00732243,-1.3057,0.515461,0.0548661,0.00976555,2.9258,5,0.1,8,0.2,-3.94726,-3.86177,0.587643,0.0166416,0.186574,0.00104159,0.124812,1.39928,0.00783801,0.0232484,2.92579,5,0.1,9,0.2,-2.82744,-0.107748,0.623344,0.185579,0.0254145,-0.00145435,1.39177,0.190604,-0.0109375,0.0117595,2.9258,5,0.1,10,0.2,-1.6991,-0.475167,0.696033,-0.0378162,0.0589691,0.0616863,-0.283539,0.442252,0.462592,0.0127239,0.715505,5,0.1,11,0.2,-3.53298,4.8216,0.554517,0.178558,-0.0565529,0.00240207,1.3392,-0.424385,0.0179708,0.0261564,2.92579,5,0.1,12,0.2,-0.170565,1.22121,0.654882,-0.0479419,-0.181052,-0.00299066,-0.359558,-1.35791,-0.022471,0.0098541,2.92579,5,0.1,13,0.2,-1.64513,-5.24237,0.546675,-0.0104606,0.184989,0.0275582,-0.0783801,1.38712,0.206679,0.0229962,2.92582,5,0.1,14,0.2,1.53916,2.79719,0.659078,-0.150391,0.111544,-0.00526011,-1.12802,0.836611,-0.0394583,0.00932927,2.92578,5,0.1,15,0.2,4.65145,-3.92505,0.563944,-0.00013113,0.0306606,0.0458464,-0.00119209,0.229955,0.343859,0.0221828,0.670533,5,0.1,16,0.2,-3.35337,2.25047,0.532662,0.14652,-0.0707865,0.00635087,1.09887,-0.530958,0.0476539,0.056177,2.17794,5,0.1,17,0.2,-3.61541,-2.53795,0.52651,-0.0872076,-0.0159562,0.00288934,-0.653982,-0.119805,0.0216663,0.0137447,0.646147,5,0.1,18,0.2,4.66651,0.721005,0.630729,-0.0440001,-0.0538602,-0.00289977,-0.33021,-0.403941,-0.0216961,0.0156563,0.397945,5,0.1,19,0.2,2.48474,-2.89029,0.632573,0.119865,-0.143933,-0.00227541,0.898838,-1.07932,-0.0171065,0.0143974,2.92581,5,0.1
0,0.3,3.90848,-2.86388,0.604767,-0.0442192,0.346077,-0.000681356,-0.218809,1.71264,-0.00336021,0.0334599,2.92579,5,0.1,1,0.3,0.374407,-0.8205,0.511103,-0.0335718,0.347152,-0.00914261,-0.166139,1.71796,-0.0452548,0.0111106,2.92579,5,0.1,2,0.3,-0.330786,-1.37593,0.681142,0.05883,-0.315521,0.0122477,0.290224,-1.55656,0.0604205,0.0124529,2.44808,5,0.1,3,0.3,4.09035,-4.2511,0.600661,-0.00241175,0.344732,0.0536757,-0.0117719,1.70648,0.262722,0.0361505,2.92579,5,0.1,4,0.3,-2.52162,-2.98623,0.697903,0.101656,0.104263,0.00926619,0.501469,0.514358,0.0457205,0.0245943,0.505258,5,0.1,5,0.3,4.16047,-1.10346,0.651913,-0.179726,0.11622,-0.00923444,-0.886738,0.573352,-0.0455678,0.01074,1.08893,5,0.1,6,0.3,-3.81754,1.84754,0.523436,0.347495,-0.0304384,-0.00643041,1.71959,-0.150613,-0.031814,0.0132249,2.9258,5,0.1,7,0.3,3.2049,-3.73774,0.56522,-0.324275,0.127991,0.0136338,-1.60474,0.633433,0.0674576,0.00976555,2.9258,5,0.1,8,0.3,-3.9449,-3.83533,0.587791,0.0309952,0.347505,0.00194237,0.153393,1.71971,0.0096187,0.0232484,2.92579,5,0.1,9,0.3,-2.80114,-0.104147,0.623138,0.345648,0.0473358,-0.00271127,1.71049,0.23425,-0.0134259,0.0117595,2.9258,5,0.1,10,0.3,-1.70446,-0.466815,0.70477,-0.0703437,0.109701,0.114752,-0.346996,0.541182,0.566095,0.0127239,0.715505,5,0.1,11,0.3,-3.50768,4.81358,0.554857,0.332576,-0.105354,0.00447007,1.64583,-0.521421,0.0221096,0.0261564,2.92579,5,0.1,12,0.3,-0.177359,1.19556,0.654458,-0.0892945,-0.337224,-0.00557406,-0.44189,-1.66883,-0.0275932,0.0098541,2.92579,5,0.1,13,0.3,-1.64661,-5.21616,0.55058,-0.0194771,0.344528,0.0513283,-0.0963584,1.7049,0.254009,0.0229962,2.92582,5,0.1,14,0.3,1.51784,2.813,0.658333,-0.280121,0.20776,-0.00979807,-1.38626,1.02815,-0.0484884,0.00932927,2.92578,5,0.1,15,0.3,4.65096,-3.92024,0.569967,-0.0135973,0.0703745,0.0719553,-0.238419,0.518471,0.183694,0.0221828,0.670533,5,0.1,16,0.3,-3.33262,2.24045,0.533561,0.272574,-0.131692,0.0118168,1.34468,-0.649691,0.0583008,0.056177,2.17794,5,0.1,17,0.3,-3.62776,-2.54021,0.52692,-0.162229,-0.029695,0.00537494,-0.800312,-0.146538,0.0265129,0.0137447,0.646147,5,0.1,18,0.3,4.66028,0.713377,0.630318,-0.0818714,-0.100197,-0.00538994,-0.403941,-0.494301,-0.0265688,0.0156563,0.397945,5,0.1,19,0.3,2.50172,-2.91069,0.63225,0.223244,-0.26807,-0.00424143,1.10473,-1.32653,-0.0210032,0.0143974,2.92581,5,0.1
0,0.4,3.90298,-2.82085,0.604682,-0.0653028,0.511086,-0.00100583,-0.193477,1.5142,-0.00295043,0.0369319,2.51402,5,0.1,1,0.4,0.370233,-0.777341,0.509966,-0.0495784,0.512673,-0.0135019,-0.146896,1.51896,-0.0399947,0.0114446,2.51484,5,0.1,2,0.4,-0.323477,-1.41512,0.682663,0.0867613,-0.465319,0.0180632,0.256032,-1.37335,0.0532866,0.00983204,1.93695,5,0.1,3,0.4,4.09005,-4.20824,0.607316,-0.00354052,0.509155,0.0788867,-0.0104904,1.50943,0.230461,0.0339327,2.53167,5,0.1,4,0.4,-2.509,-2.97328,0.699054,0.149918,0.153762,0.0136673,0.442386,0.45383,0.0402927,0.0254149,0.399769,5,0.1,5,0.4,4.13814,-1.08903,0.650766,-0.265074,0.171396,-0.0136182,-0.782013,0.505865,-0.0402331,0.0183417,0.861562,5,0.1,6,0.4,-3.77434,1.84376,0.522636,0.513178,-0.0449508,-0.00949502,1.52051,-0.133216,-0.0281632,0.0331375,2.51696,5,0.1,7,0.4,3.16458,-3.72183,0.566915,-0.478888,0.189018,0.0201344,-1.41895,0.560045,0.0596344,0.0164561,2.47851,5,0.1,8,0.4,-3.94105,-3.79212,0.588032,0.0457704,0.51319,0.00286996,0.13566,1.52063,0.00846386,0.0421027,2.51482,5,0.1,9,0.4,-2.75817,-0.0982619,0.622801,0.510448,0.0699054,-0.00400394,1.51253,0.207115,-0.0118911,0.0141212,2.51381,5,0.1,10,0.4,-1.71319,-0.453187,0.719025,-0.103739,0.161784,0.169232,-0.306189,0.477433,0.499457,0.0133159,0.566118,5,0.1,11,0.4,-3.46633,4.80048,0.555413,0.491154,-0.155592,0.00660121,1.45507,-0.461102,0.0195205,0.0272581,2.5101,5,0.1,12,0.4,-0.188461,1.15363,0.653765,-0.13187,-0.498012,-0.00823289,-0.390708,-1.47557,-0.0243783,0.014302,2.51071,5,0.1,13,0.4,-1.64903,-5.17332,0.556962,-0.0287622,0.508797,0.0758022,-0.0852346,1.50752,0.22456,0.0292153,2.51327,5,0.1,14,0.4,1.48302,2.83883,0.657115,-0.413683,0.306821,-0.014469,-1.22565,0.90909,-0.0428855,0.0129503,2.51007,5,0.1,15,0.4,4.64822,-3.91045,0.577854,-0.0425339,0.126266,0.0836387,-0.317335,0.564337,0.0551045,0.0297076,0.543248,5,0.1,16,0.4,-3.29876,2.22409,0.535029,0.401992,-0.194216,0.0174269,1.18613,-0.573158,0.0514388,0.0582125,1.72322,5,0.1,17,0.4,-3.64792,-2.5439,0.527587,-0.239247,-0.0437975,0.00792593,-0.706196,-0.129223,0.0234246,0.00854352,0.511238,5,0.1,18,0.4,4.65011,0.70093,0.629649,-0.120747,-0.147767,-0.00794828,-0.356436,-0.436097,-0.0234544,0.00831247,0.314855,5,0.1,19,0.4,2.52948,-2.94401,0.631723,0.329685,-0.395888,-0.00626445,0.976682,-1.17278,-0.018537,0.00980807,2.6024,5,0.1
0,0.5,3.89545,-2.76216,0.604567,-0.0852138,0.661132,-0.00131046,-0.19449,1.41735,-0.00298396,0.0369319,2.51402,5,0.1,1,0.5,0.36452,-0.718479,0.508455,-0.0646944,0.662787,-0.0163348,-0.14765,1.41449,-0.0173971,0.0114446,2.51484,5,0.1,2,0.5,-0.313497,-1.46865,0.684741,0.112739,-0.604657,0.0234699,0.25077,-1.34505,0.0521988,0.00983204,1.93695,5,0.1,3,0.5,4.08964,-4.15002,0.616387,-0.00461414,0.651616,0.102535,-0.010401,1.28901,0.23042,0.0339327,2.53167,5,0.1,4,0.5,-2.49175,-2.95559,0.700626,0.194805,0.199806,0.0177561,0.433341,0.444487,0.0394769,0.0254149,0.399769,5,0.1,5,0.5,4.10765,-1.06931,0.649199,-0.344419,0.222721,-0.017699,-0.765949,0.495449,-0.0393838,0.0183417,0.861562,5,0.1,6,0.5,-3.71543,1.83846,0.521539,0.663197,-0.0619812,-0.0124862,1.41312,-0.192963,-0.0299588,0.0331375,2.51696,5,0.1,7,0.5,3.10946,-3.7003,0.569226,-0.623144,0.239377,0.0260327,-1.395,0.433624,0.055708,0.0164561,2.47851,5,0.1,8,0.5,-3.93577,-3.73321,0.588363,0.0597287,0.663333,0.0037415,0.136331,1.41357,0.00851601,0.0421027,2.51482,5,0.1,9,0.5,-2.69954,-0.0902063,0.62234,0.660482,0.0912184,-0.00522658,1.41859,0.208182,-0.0119358,0.0141212,2.51381,5,0.1,10,0.5,-1.72513,-0.434578,0.738491,-0.134805,0.210225,0.219907,-0.299893,0.467617,0.489183,0.0133159,0.566118,5,0.1,11,0.5,-3.40975,4.78255,0.556174,0.640398,-0.203037,0.00861119,1.45371,-0.463396,0.0196397,0.0272581,2.5101,5,0.1,12,0.5,-0.203657,1.09632,0.652816,-0.172075,-0.647541,-0.0107416,-0.39272,-1.44124,-0.0245012,0.014302,2.51071,5,0.1,13,0.5,-1.65235,-5.11487,0.565697,-0.0375336,0.658758,0.0989109,-0.0856742,1.42157,0.225723,0.0292153,2.51327,5,0.1,14,0.5,1.43535,2.87418,0.655447,-0.539806,0.400369,-0.0188816,-1.23195,0.913739,-0.0431016,0.0129503,2.51007,5,0.1,15,0.5,4.64221,-3.8948,0.586354,-0.0789143,0.187713,0.085041,-0.387937,0.629932,-0.0232346,0.0297076,0.543248,5,0.1,16,0.5,-3.25252,2.20175,0.537034,0.522341,-0.252368,0.0226454,1.1618,-0.561371,0.0503771,0.0582125,1.72322,5,0.1,17,0.5,-3.67544,-2.54894,0.528499,-0.310895,-0.0569072,0.0103018,-0.691637,-0.126556,0.0229292,0.00854352,0.511238,5,0.1,18,0.5,4.63622,0.683933,0.628735,-0.156906,-0.192014,-0.0103286,-0.349045,-0.427123,-0.0229813,0.00831247,0.314855,5,0.1,19,0.5,2.5673,-2.98874,0.631029,0.425294,-0.491278,-0.00737915,0.894681,-0.729159,-0.00454113,0.00980807,2.6024,5,0.1
0,0.6,3.88603,-2.68958,0.604422,-0.102454,0.783068,-0.00157505,-0.143051,0.975609,-0.00223517,0.0370085,2.327,5,0.1,1,0.6,0.357363,-0.645757,0.506767,-0.0777811,0.784194,-0.0171274,-0.108585,0.968665,0.000864267,0.0102037,2.33065,5,0.1,2,0.6,-0.301064,-1.53533,0.687329,0.134746,-0.722691,0.0280499,0.180379,-0.967562,0.0375509,0.00955864,1.54351,5,0.1,3,0.6,4.08913,-4.07912,0.627711,-0.00553131,0.758457,0.122905,-0.00762939,0.814199,0.168473,0.0305947,2.61817,5,0.1,4,0.6,-2.47027,-2.93355,0.702584,0.232834,0.238812,0.0212193,0.311732,0.3196,0.0284314,0.0233179,0.29762,5,0.1,5,0.6,4.06967,-1.04475,0.647247,-0.41163,0.266197,-0.0211537,-0.551224,0.356376,-0.028342,0.0104887,0.641413,5,0.1,6,0.6,-3.64267,1.8313,0.520149,0.784582,-0.0810236,-0.0151977,0.969291,-0.177264,-0.0230074,0.014273,2.3314,5,0.1,7,0.6,3.04069,-3.6745,0.572084,-0.745755,0.273561,0.030832,-1.0072,0.241518,0.0383854,0.00966542,1.89272,5,0.1,8,0.6,-3.92916,-3.66044,0.588777,0.0718117,0.78457,0.00449717,0.100255,0.96643,0.00625849,0.0242801,2.36124,5,0.1,9,0.6,-2.62702,-0.0801157,0.621761,0.782621,0.10967,-0.00628531,0.978589,0.153102,-0.00873208,0.0134901,2.32585,5,0.1,10,0.6,-1.73999,-0.411393,0.762744,-0.161123,0.251261,0.262836,-0.215709,0.336394,0.351906,0.0102575,0.421462,5,0.1,11,0.6,-3.33896,4.76009,0.557126,0.76893,-0.244105,0.0103518,1.06347,-0.340939,0.0144541,0.022896,2.29226,5,0.1,12,0.6,-0.222692,1.02491,0.651628,-0.206883,-0.773801,-0.0129133,-0.288807,-1.03322,-0.0180006,0.0105667,2.30354,5,0.1,13,0.6,-1.6565,-5.0425,0.576638,-0.0451267,0.781441,0.118919,-0.0630617,0.986099,0.165969,0.0267105,2.32281,5,0.1,14,0.6,1.37563,2.91847,0.653359,-0.648999,0.481355,-0.0227019,-0.905931,0.671864,-0.0316799,0.00996242,2.06812,5,0.1,15,0.6,4.63241,-3.87301,0.594639,-0.116241,0.246274,0.0797212,-0.342131,0.516176,-0.0796914,0.0239182,0.453023,5,0.1,16,0.6,-3.19491,2.17391,0.539531,0.624299,-0.301629,0.0270665,0.835776,-0.403881,0.0362396,0.0614243,1.28291,5,0.1,17,0.6,-3.70972,-2.55522,0.529635,-0.371587,-0.0680089,0.0123143,-0.49758,-0.0910759,0.0165105,0.0083006,0.3806,5,0.1,18,0.6,4.61892,0.662757,0.627596,-0.18754,-0.229496,-0.0123441,-0.250816,-0.307262,-0.0165701,0.00763121,0.234396,5,0.1,19,0.6,2.61389,-3.04075,0.630286,0.501728,-0.541115,-0.00731796,0.605941,-0.267386,0.00506639,0.0128374,2.33034,5,0.1
0,0.7,3.87506,-2.60745,0.604253,-0.11681,0.849523,-0.00179904,-0.135005,0.378281,-0.00210479,0.0370085,2.327,5,0.1,1,0.7,0.349035,-0.563552,0.505089,-0.088677,0.849915,-0.0161581,-0.102468,0.371566,0.0172555,0.0102037,2.33065,5,0.1,2,0.7,-0.286703,-1.61138,0.690232,0.152064,-0.787814,0.0292089,0.156073,-0.344507,-0.0109896,0.00955864,1.54351,5,0.1,3,0.7,4.08854,-4.00089,0.640855,-0.00629351,0.79076,0.139794,-0.00712276,-0.102639,0.158589,0.0305947,2.61817,5,0.1,4,0.7,-2.44545,-2.9081,0.704846,0.262763,0.269496,0.0239486,0.269726,0.276566,0.0246018,0.0233179,0.29762,5,0.1,5,0.7,4.0258,-1.01638,0.644993,-0.464546,0.300411,-0.0238738,-0.476897,0.308339,-0.0245087,0.0104887,0.641413,5,0.1,6,0.7,-3.56043,1.82232,0.518512,0.850091,-0.0981577,-0.017517,0.368506,-0.15761,-0.0219531,0.014273,2.3314,5,0.1,7,0.7,2.96177,-3.6458,0.575361,-0.825465,0.301004,0.0346737,-0.574112,0.280678,0.0359043,0.00966542,1.89272,5,0.1,8,0.7,-3.92119,-3.57821,0.58963,0.0899158,0.850016,0.0156975,0.237614,0.36931,0.193853,0.0242801,2.36124,5,0.1,9,0.7,-2.54492,-0.068373,0.621089,0.849373,0.125035,-0.00716187,0.380889,0.144509,-0.00824779,0.0134901,2.32585,5,0.1,10,0.7,-1.75717,-0.384614,0.790756,-0.181833,0.283556,0.29662,-0.18663,0.291049,0.304468,0.0102575,0.421462,5,0.1,11,0.7,-3.25778,4.73395,0.558235,0.84462,-0.278323,0.0118032,0.462353,-0.321835,0.0136569,0.022896,2.29226,5,0.1,12,0.7,-0.244843,0.943406,0.650245,-0.235871,-0.846309,-0.0147205,-0.272685,-0.433382,-0.0170022,0.0105667,2.30354,5,0.1,13,0.7,-1.66133,-4.96048,0.589371,-0.0514548,0.848968,0.135578,-0.0595152,0.387877,0.156708,0.0267105,2.32281,5,0.1,14,0.7,1.30623,2.96896,0.650931,-0.737565,0.518894,-0.025799,-0.813298,0.103846,-0.0284426,0.00996242,2.06812,5,0.1,15,0.7,4.61905,-3.84631,0.602159,-0.150946,0.282854,0.0702085,-0.334918,0.221804,-0.107929,0.0239182,0.453023,5,0.1,16,0.7,-3.12838,2.14177,0.542416,0.704539,-0.340402,0.0305453,0.723168,-0.349417,0.031352,0.0614243,1.28291,5,0.1,17,0.7,-3.74933,-2.56247,0.530948,-0.419354,-0.076751,0.0138989,-0.43048,-0.0787526,0.0142753,0.0083006,0.3806,5,0.1,18,0.7,4.59893,0.638297,0.62628,-0.211621,-0.258994,-0.0139346,-0.21705,-0.26584,-0.0143349,0.00763121,0.234396,5,0.1,19,0.7,2.66733,-3.09674,0.629566,0.567995,-0.582523,-0.00720415,0.666082,-0.4967,-0.00177324,0.0128374,2.33034,5,0.1
0,0.8,3.86278,-2.52135,0.604064,-0.127923,0.866026,-0.0019744,-0.0810623,0,-0.0012219,0.0354774,2.25936,5,0.1,1,0.8,0.339711,-0.477443,0.503578,-0.0971131,0.866025,-0.0139087,-0.0614822,1.43051e-05,0.0266433,0.0117073,2.2293,5,0.1,2,0.8,-0.270823,-1.69092,0.693041,0.1643,-0.793812,0.0264734,0.0819564,0.211895,-0.0408888,0.0130079,1.05247,5,0.1,3,0.8,4.08788,-3.9234,0.655539,-0.00687838,0.749648,0.152811,-0.00429153,-0.66793,0.0943542,0.0310108,2.81331,5,0.1,4,0.8,-2.41801,-2.87996,0.707347,0.283915,0.291175,0.0258759,0.141621,0.145316,0.0129342,0.0222101,0.210143,5,0.1,5,0.8,3.97728,-0.985006,0.6425,-0.501937,0.324586,-0.0257939,-0.25022,0.161886,-0.0128746,0.016424,0.618937,5,0.1,6,0.8,-3.47432,1.8118,0.516662,0.866026,-0.111231,-0.0193462,0,-0.0984669,-0.0136793,0.0135146,2.29123,5,0.1,7,0.8,2.87712,-3.61441,0.578987,-0.85994,0.325137,0.0375822,-0.121713,0.182986,0.020504,0.0107536,1.40469,5,0.1,8,0.8,-3.91095,-3.4921,0.592317,0.115091,0.866026,0.0390261,0.247359,0,0.254095,0.0285526,2.26409,5,0.1,9,0.8,-2.45883,-0.0552262,0.620336,0.866026,0.136933,-0.00784248,-0.000119209,0.0867453,-0.00491738,0.0141077,2.25759,5,0.1,10,0.8,-1.77616,-0.355002,0.821733,-0.196466,0.306376,0.320491,-0.0980496,0.152826,0.159889,0.0121003,0.297577,5,0.1,11,0.8,-3.17186,4.70469,0.559476,0.866026,-0.30483,0.0129282,-0.000119209,-0.193119,0.00819564,0.0229619,2.20204,5,0.1,12,0.8,-0.269644,0.857426,0.648698,-0.258326,-0.866026,-0.0161201,-0.163749,2.98023e-05,-0.0102222,0.0120505,2.24654,5,0.1,13,0.8,-1.66674,-4.8744,0.603626,-0.0563562,0.866032,0.148483,-0.0357628,-0.000238419,0.0940859,0.0275483,2.25256,5,0.1,14,0.8,1.22891,3.0206,0.648226,-0.802886,0.506896,-0.0280827,-0.457585,-0.321031,-0.0160038,0.00907816,1.62898,5,0.1,15,0.8,4.6024,-3.81735,0.608611,-0.180328,0.292003,0.0586197,-0.240803,-0.0319481,-0.121593,0.024551,0.403729,5,0.1,16,0.8,-3.0548,2.10622,0.545606,0.761235,-0.367796,0.0330031,0.37992,-0.183582,0.0164807,0.0579143,0.905818,5,0.1,17,0.8,-3.79312,-2.57048,0.532399,-0.453103,-0.0829279,0.0150174,-0.226021,-0.0413656,0.00751019,0.0105842,0.268719,5,0.1,18,0.8,4.57683,0.61125,0.624824,-0.228631,-0.279836,-0.0150576,-0.114202,-0.139594,-0.00753999,0.00742457,0.165498,5,0.1,19,0.8,2.7272,-3.15742,0.628832,0.625819,-0.629371,-0.00749379,0.452757,-0.393391,-0.00321865,0.0130786,2.16689,5,0.1
0,0.9,3.84956,-2.43475,0.60386,-0.136271,0.866026,-0.00210106,-0.077337,0,-0.00118464,0.0354774,2.25936,5,0.1,1,0.9,0.329682,-0.39084,0.502329,-0.103405,0.866025,-0.0110173,-0.0579581,-1.78814e-06,0.030335,0.0117073,2.2293,5,0.1,2,0.9,-0.254002,-1.76804,0.695454,0.171727,-0.737925,0.021547,0.0587096,0.844263,-0.0553541,0.0130079,1.05247,5,0.1,3,0.9,4.08717,-3.85278,0.671311,-0.00731945,0.655606,0.162557,-0.00411272,-1.10319,0.0903755,0.0310108,2.81331,5,0.1,4,0.9,-2.38894,-2.85015,0.709996,0.296748,0.304342,0.0270476,0.101477,0.10407,0.00925735,0.0222101,0.210143,5,0.1,5,0.9,3.92574,-0.951775,0.639859,-0.529056,0.339256,-0.0269601,-0.258252,0.115961,-0.00920892,0.016424,0.618937,5,0.1,6,0.9,-3.38773,1.79999,0.514639,0.865562,-0.12647,-0.0212387,-0.0185519,-0.186466,-0.021752,0.0135146,2.29123,5,0.1,7,0.9,2.79076,-3.58095,0.582846,-0.865351,0.343995,0.039526,-0.00344217,0.173301,0.0163577,0.0107536,1.40469,5,0.1,8,0.9,-3.89806,-3.40549,0.59766,0.143684,0.866026,0.0690345,0.303119,0,0.326015,0.0285526,2.26409,5,0.1,9,0.9,-2.37223,-0.0410564,0.619515,0.866024,0.146613,-0.00864984,2.98023e-05,0.0960423,-0.0100397,0.0141077,2.25759,5,0.1,10,0.9,-1.79627,-0.323635,0.854545,-0.20535,0.320225,0.334979,-0.0702366,0.109473,0.11453,0.0121003,0.297577,5,0.1,11,0.9,-3.08526,4.6732,0.560811,0.866024,-0.324797,0.0137762,2.98023e-05,-0.185698,0.00788644,0.0229619,2.20204,5,0.1,12,0.9,-0.295839,0.770824,0.647032,-0.26133,-0.866025,-0.0171869,0.0901297,-3.72529e-06,-0.0100099,0.0120505,2.24654,5,0.1,13,0.9,-1.67256,-4.7878,0.618964,-0.0600513,0.866023,0.158209,-0.0343472,2.98023e-05,0.0904351,0.0275483,2.25256,5,0.1,14,0.9,1.14642,3.06893,0.645341,-0.844888,0.453293,-0.0295664,-0.34225,-0.704899,-0.0122227,0.00907816,1.62898,5,0.1,15,0.9,4.58319,-3.78879,0.613859,-0.203443,0.274925,0.0463058,-0.208259,-0.290081,-0.122894,0.024551,0.403729,5,0.1,16,0.9,-2.97686,2.06856,0.548985,0.795661,-0.38443,0.034496,0.27217,-0.131473,0.0118017,0.0579143,0.905818,5,0.1,17,0.9,-3.83951,-2.57897,0.533937,-0.473582,-0.086676,0.0156975,-0.161871,-0.0296086,0.00537559,0.0105842,0.268719,5,0.1,18,0.9,4.55342,0.582601,0.623283,-0.238978,-0.292486,-0.0157407,-0.0818074,-0.0999942,-0.00540167,0.00742457,0.165498,5,0.1,19,0.9,2.7922,-3.22265,0.628059,0.674678,-0.676956,-0.00802707,0.475436,-0.500739,-0.00655651,0.0130786,2.16689,5,0.1
0,1,3.83561,-2.34815,0.603645,-0.141948,0.866026,-0.00218749,-0.0302792,0,-0.000476837,0.0409864,2.0651,5,0.1,1,1,0.319101,-0.304238,0.501379,-0.107624,0.866025,-0.00799298,-0.0219941,1.43051e-05,0.0295639,0.0115744,1.9163,5,0.1,2,1,-0.236627,-1.83698,0.697324,0.174735,-0.635868,0.0158057,-0.00376999,1.14942,-0.0577271,0.0142902,0.682705,5,0.1,3,1,4.08642,-3.79276,0.687943,-0.00760555,0.546181,0.169164,-0.00190735,-1.02329,0.0347793,0.0377335,2.96912,5,0.1,4,1,-2.35892,-2.81936,0.712733,0.301945,0.309676,0.0275224,-0.0064373,-0.00667572,-0.000566244,0.0227875,0.142907,5,0.1,5,1,3.87176,-0.917449,0.637131,-0.547832,0.345194,-0.0274315,-0.0938177,-0.00745058,0.000596046,0.0136858,0.696973,5,0.1,6,1,-3.30141,1.7864,0.51241,0.858605,-0.145066,-0.0232771,-0.148296,-0.170708,-0.0172257,0.0144129,2.35311,5,0.1,7,1,2.70434,-3.54584,0.58686,-0.861317,0.356269,0.0405177,0.0940561,0.0579357,0.00214577,0.00912918,1.03331,5,0.1,8,1,-3.88222,-3.31889,0.606177,0.172019,0.866026,0.100738,0.247836,0,0.293165,0.0275177,2.2327,5,0.1,9,1,-2.28562,-0.0259722,0.6186,0.866026,0.1543,-0.00964254,0,0.0500846,-0.0089705,0.0128918,2.25572,5,0.1,10,1,-1.81705,-0.291235,0.888438,-0.20895,0.325833,0.340848,0.00452995,-0.00703335,-0.00739098,0.011996,0.202364,5,0.1,11,1,-2.99865,4.63994,0.562222,0.866026,-0.338495,0.0143588,0,-0.0739098,0.00315905,0.0260931,2.19462,5,0.1,12,1,-0.321195,0.684221,0.645271,-0.242856,-0.866026,-0.0179335,0.267327,0,-0.00417233,0.0114803,2.26228,5,0.1,13,1,-1.67871,-4.7012,0.635164,-0.0625849,0.866032,0.164877,-0.0136495,-0.000238419,0.036031,0.026498,2.25053,5,0.1,14,1,1.06068,3.11041,0.642339,-0.864673,0.373983,-0.0302881,-0.0270903,-0.846744,-0.0012219,0.00995363,1.30304,5,0.1,15,1,4.56194,-3.76304,0.617885,-0.219762,0.237584,0.0343561,-0.108957,-0.440121,-0.114679,0.0294668,0.55665,5,0.1,16,1,-2.89636,2.02967,0.552475,0.809604,-0.391161,0.0351012,-0.0172853,0.00834465,-0.00077486,0.0499576,0.615985,5,0.1,17,1,-3.88743,-2.58774,0.535525,-0.481874,-0.088191,0.0159726,0.0103712,0.00190735,-0.000357628,0.00879922,0.182736,5,0.1,18,1,4.52924,0.553007,0.62169,-0.243163,-0.297607,-0.0160187,0.00500679,0.0064373,0.000357628,0.00901568,0.112541,5,0.1,19,1,2.86176,-3.29264,0.627224,0.712579,-0.719655,-0.00865012,0.248194,-0.311971,-0.00530481,0.00968034,2.05178,5,0.1
0,1.1,3.82125,-2.26172,0.603423,-0.145231,0.860194,-0.00223927,-0.0278503,-0.133917,-0.000447035,0.0409864,2.0651,5,0.1,1,1.1,0.308226,-0.218425,0.500722,-0.109754,0.842969,-0.0052237,-0.0155121,-0.436472,0.0254102,0.0115744,1.9163,5,0.1,2,1.1,-0.21918,-1.89446,0.698624,0.173969,-0.511941,0.0103179,-0.0179317,1.26723,-0.0509694,0.0142902,0.682705,5,0.1,3,1.1,4.08565,-3.74304,0.705067,-0.00782236,0.453973,0.173398,-0.00199676,-0.694528,0.0399575,0.0377335,2.96912,5,0.1,4,1.1,-2.32877,-2.78843,0.715481,0.30063,0.30832,0.027404,-0.0309199,-0.0317991,-0.00280887,0.0227875,0.142907,5,0.1,5,1.1,3.81717,-0.882982,0.634392,-0.537668,0.343681,-0.0273104,0.279814,-0.0354387,0.0028275,0.0136858,0.696973,5,0.1,6,1.1,-3.21618,1.77088,0.510035,0.84615,-0.166303,-0.0238591,-0.137538,-0.233151,0.00458583,0.0144129,2.35311,5,0.1,7,1.1,2.61843,-3.50991,0.590922,-0.858121,0.361941,0.0406608,0.0169873,0.0388473,-0.000908971,0.00912918,1.03331,5,0.1,8,1.1,-3.86373,-3.23229,0.617763,0.197882,0.866026,0.131053,0.25177,0,0.297222,0.0275177,2.2327,5,0.1,9,1.1,-2.19902,-0.0102785,0.617596,0.866026,0.159488,-0.0103828,0,0.0451543,-0.00548735,0.0128918,2.25572,5,0.1,10,1.1,-1.83791,-0.258701,0.922471,-0.208033,0.324405,0.339351,0.0214651,-0.0334474,-0.0350103,0.011996,0.202364,5,0.1,11,1.1,-2.91205,4.60565,0.563677,0.866026,-0.347479,0.0147422,0,-0.0855327,0.00364706,0.0260931,2.19462,5,0.1,12,1.1,-0.343905,0.597618,0.643453,-0.209298,-0.866026,-0.0184459,0.390155,3.72529e-06,-0.00496581,0.0114803,2.26228,5,0.1,13,1.1,-1.68505,-4.61459,0.651867,-0.0642514,0.866023,0.169274,-0.0159219,2.98023e-05,0.0420175,0.026498,2.25053,5,0.1,14,1.1,0.974177,3.14342,0.639305,-0.863998,0.286056,-0.0303419,0.0573322,-0.864103,0.0013113,0.00995363,1.30304,5,0.1,15,1.1,4.53945,-3.74162,0.620762,-0.229636,0.189846,0.0233494,-0.0779629,-0.50126,-0.104241,0.0294668,0.55665,5,0.1,16,1.1,-2.81552,1.99061,0.55598,0.806071,-0.389454,0.0349456,-0.0829995,0.0401139,-0.00361353,0.0499576,0.615985,5,0.1,17,1.1,-3.93554,-2.59655,0.53712,-0.479763,-0.0878036,0.0159011,0.0494719,0.00905991,-0.0016503,0.00879922,0.182736,5,0.1,18,1.1,4.50496,0.523291,0.62009,-0.242115,-0.296302,-0.0159475,0.0248253,0.0305586,0.00165775,0.00901568,0.112541,5,0.1,19,1.1,2.93443,-3.36642,0.626328,0.741534,-0.757094,-0.00930512,0.283614,-0.382528,-0.00697747,0.00968034,2.05178,5,0.1
0,1.2,3.80664,-2.17671,0.603198,-0.14624,0.83636,-0.00225604,0.012517,-0.354171,0.000178814,0.0396443,1.80557,5,0.1,1,1.2,0.297218,-0.136865,0.500317,-0.109872,0.783193,-0.00297278,0.016585,-0.739086,0.0194013,0.0103029,1.72016,5,0.1,2,1.2,-0.201938,-1.93952,0.699419,0.170089,-0.392106,0.00577569,-0.0638887,1.09446,-0.0392497,0.00778112,0.624175,5,0.1,3,1.2,4.08486,-3.7,0.722549,-0.00792742,0.417846,0.17547,0.000238419,-0.0486374,-0.00539422,0.0302041,2.82251,5,0.1,4,1.2,-2.29897,-2.75788,0.718197,0.293928,0.301445,0.0267938,-0.110388,-0.113249,-0.0100434,0.0232715,0.161258,5,0.1,5,1.2,3.7653,-0.848921,0.631685,-0.495201,0.336015,-0.0267014,0.55325,-0.126243,0.0100732,0.012099,0.438059,5,0.1,6,1.2,-3.13248,1.75312,0.507701,0.82491,-0.188085,-0.0225514,-0.312448,-0.187278,0.0206828,0.0136013,2.44174,5,0.1,7,1.2,2.5329,-3.47366,0.594967,-0.849903,0.361252,0.0400677,0.180483,-0.0636578,-0.0120699,0.0102796,0.733689,5,0.1,8,1.2,-3.8428,-3.14569,0.632254,0.219369,0.866026,0.157462,0.165582,0,0.219673,0.0237938,1.11997,5,0.1,9,1.2,-2.11242,0.0058308,0.616538,0.866026,0.161894,-0.0106841,0,-0.00286996,-0.000327826,0.00932668,2.2555,5,0.1,10,1.2,-1.85853,-0.22655,0.956103,-0.203389,0.317167,0.331779,0.0763535,-0.119135,-0.124633,0.0102882,0.134563,5,0.1,11,1.2,-2.82545,4.57059,0.565164,0.866026,-0.352168,0.0149444,0,0.00548363,-0.000238419,0.018361,2.19307,5,0.1,12,1.2,-0.362775,0.511016,0.641589,-0.167304,-0.866026,-0.0187397,0.438631,0,-0.000149012,0.00756258,0.94486,5,0.1,13,1.2,-1.69153,-4.52799,0.668948,-0.065133,0.866032,0.171605,0.00089407,-0.000238419,-0.00229478,0.0225561,2.25004,5,0.1,14,1.2,0.888363,3.16798,0.63629,-0.848554,0.208384,-0.0298321,0.281394,-0.664592,0.00965595,0.00699443,1.05152,5,0.1,15,1.2,4.51622,-3.72515,0.622601,-0.233603,0.139689,0.013715,0.00524521,-0.491619,-0.087589,0.0256501,0.336625,5,0.1,16,1.2,-2.73563,1.95201,0.559443,0.788099,-0.380769,0.0341639,-0.295997,0.143051,-0.012815,0.0383033,0.409586,5,0.1,17,1.2,-3.98309,-2.60525,0.538696,-0.469065,-0.0858426,0.0155449,0.17643,0.0323057,-0.00584126,0.00814866,0.121507,5,0.1,18,1.2,4.48097,0.493926,0.61851,-0.236726,-0.28969,-0.0155911,0.0889301,0.108823,0.00584126,0.00741542,0.126981,5,0.1,19,1.2,3.00975,-3.44379,0.625365,0.761271,-0.786895,-0.00990629,0.0780821,-0.174999,-0.00447035,0.0101464,1.98389,5,0.1
0,1.3,3.79207,-2.09574,0.602973,-0.145119,0.776077,-0.00224002,0.015974,-0.778511,0.000230968,0.0396443,1.80557,5,0.1,1,1.3,0.28631,-0.0629779,0.500105,-0.108228,0.689256,-0.00137687,0.0204369,-1.06011,0.0126138,0.0103029,1.72016,5,0.1,2,1.3,-0.185242,-1.97368,0.699824,0.163773,-0.296175,0.00255108,-0.0677099,0.788644,-0.0253543,0.00778112,0.624175,5,0.1,3,1.3,4.08407,-3.65697,0.740107,-0.00794083,0.45482,0.175829,-5.96046e-05,0.679046,0.00333786,0.0302041,2.82251,5,0.1,4,1.3,-2.26995,-2.72811,0.720843,0.28793,0.295289,0.026248,-0.0298172,-0.0305921,-0.00271201,0.0232715,0.161258,5,0.1,5,1.3,3.719,-0.815937,0.629065,-0.427051,0.323536,-0.0257061,0.783384,-0.133786,0.0106655,0.012099,0.438059,5,0.1,6,1.3,-3.05137,1.73329,0.505573,0.79823,-0.208973,-0.0197894,-0.256076,-0.211701,0.0333004,0.0136013,2.44174,5,0.1,7,1.3,2.44866,-3.43784,0.598915,-0.835328,0.355023,0.0388733,0.148788,-0.0744313,-0.0131465,0.0102796,0.733689,5,0.1,8,1.3,-3.82038,-3.05909,0.648673,0.225729,0.865603,0.167015,-0.030309,-0.0168979,-0.0147521,0.0237938,1.11997,5,0.1,9,1.3,-2.02582,0.0220388,0.615469,0.866026,0.162379,-0.0106821,0,0.00410393,0.000752509,0.00932668,2.2555,5,0.1,10,1.3,-1.87849,-0.195416,0.988671,-0.19584,0.30539,0.319458,0.0809431,-0.126264,-0.132088,0.0102882,0.134563,5,0.1,11,1.3,-2.73885,4.53531,0.566662,0.866026,-0.354037,0.0150235,0,-0.022769,0.000968575,0.018361,2.19307,5,0.1,12,1.3,-0.37732,0.424424,0.639699,-0.123834,-0.86548,-0.0191813,0.424568,0.0218114,-0.00694394,0.00756258,0.94486,5,0.1,13,1.3,-1.69806,-4.44139,0.686146,-0.06551,0.866023,0.172603,-0.00466406,2.98023e-05,0.0123605,0.0225561,2.25004,5,0.1,14,1.3,0.804875,3.18586,0.633354,-0.820895,0.154004,-0.0288718,0.299625,-0.379965,0.010509,0.00699443,1.05152,5,0.1,15,1.3,4.49329,-3.71355,0.624372,-0.221405,0.0933111,0.0287689,0.222355,-0.429153,0.337638,0.0256501,0.336625,5,0.1,16,1.3,-2.65827,1.91463,0.562797,0.758837,-0.366627,0.0328966,-0.313729,0.151619,-0.0135936,0.0383033,0.409586,5,0.1,17,1.3,-4.02913,-2.61367,0.540222,-0.451628,-0.0826504,0.0149674,0.18689,0.034228,-0.00618771,0.00814866,0.121507,5,0.1,18,1.3,4.45759,0.465318,0.61697,-0.231889,-0.283776,-0.015274,0.0240803,0.0294074,0.0015758,0.00741542,0.126981,5,0.1,19,1.3,3.08649,-3.52362,0.624348,0.774649,-0.810819,-0.0104492,0.14247,-0.25034,-0.00561401,0.0101464,1.98389,5,0.1
0,1.4,3.77769,-2.02226,0.602751,-0.142032,0.692165,-0.00219494,0.0498295,-0.85777,0.000804663,0.0266866,1.56581,5,0.1,1,1.4,0.275623,0.000619217,0.50002,-0.105096,0.583616,-0.000420213,0.0450164,-1.00779,0.00673532,0.00913536,1.53748,5,0.1,2,1.4,-0.169244,-2,0.699974,0.155668,-0.236613,0.000651181,-0.0978783,0.415921,-0.0130236,0.0072109,0.576442,5,0.1,3,1.4,4.08327,-3.60763,0.757659,-0.00787973,0.534445,0.174572,0.00166893,0.830531,-0.0348389,0.0283138,2.52544,5,0.1,4,1.4,-2.24131,-2.69874,0.723454,0.284481,0.291747,0.025934,-0.0537634,-0.0551939,-0.00491738,0.0198038,0.094402,5,0.1,5,1.4,3.68041,-0.784334,0.626554,-0.343287,0.307524,-0.0244305,0.870705,-0.193417,0.015378,0.00852262,0.409485,5,0.1,6,1.4,-2.97297,1.71142,0.503773,0.767791,-0.227213,-0.0161231,-0.377059,-0.139654,0.0390708,0.0144741,2.54162,5,0.1,7,1.4,2.36607,-3.40282,0.602726,-0.813758,0.34411,0.0372171,0.308394,-0.152826,-0.0208616,0.00939221,0.507608,5,0.1,8,1.4,-3.79822,-2.97275,0.665009,0.214875,0.859261,0.157094,-0.179172,-0.135064,-0.171661,0.0207965,0.813053,5,0.1,9,1.4,-1.93921,0.0382521,0.614409,0.866026,0.161282,-0.0104696,-5.96046e-05,-0.0318903,0.00372529,0.0121184,2.25628,5,0.1,10,1.4,-1.89762,-0.165586,1.01988,-0.186148,0.290277,0.30365,0.116944,-0.182532,-0.190973,0.00951408,0.150843,5,0.1,11,1.4,-2.65224,4.49988,0.568165,0.866026,-0.353312,0.0149935,0,0.05126,-0.00217557,0.0173736,2.19481,5,0.1,12,1.4,-0.387647,0.33816,0.637747,-0.0834689,-0.857302,-0.019826,0.378162,0.174448,-0.00467896,0.00979853,2.4161,5,0.1,13,1.4,-1.70462,-4.35479,0.703426,-0.065428,0.866032,0.172392,0.0089407,-0.000238419,-0.023514,0.0223423,2.25038,5,0.1,14,1.4,0.724499,3.2,0.630527,-0.783996,0.135076,-0.0275701,0.45681,-0.0146627,0.0161231,0.00829372,1.4674,5,0.1,15,1.4,4.4725,-3.70622,0.629292,-0.19213,0.0549138,0.0721648,0.349283,-0.334978,0.490546,0.0261379,0.223586,5,0.1,16,1.4,-2.58415,1.87882,0.56601,0.721282,-0.348479,0.0312701,-0.453472,0.219166,-0.0196993,0.0387471,0.59164,5,0.1,17,1.4,-4.07325,-2.62175,0.541684,-0.429261,-0.078553,0.0142246,0.26989,0.0493526,-0.00891089,0.00737288,0.136212,5,0.1,18,1.4,4.43453,0.437091,0.615451,-0.229096,-0.280373,-0.0150919,0.0433922,0.053063,0.00289083,0.0074281,0.0744135,5,0.1,19,1.4,3.16446,-3.60572,0.623278,0.781757,-0.827903,-0.0108972,-0.0333786,-0.0540018,-0.00277162,0.0103894,1.97582,5,0.1
0,1.5,3.76372,-1.95745,0.602535,-0.137303,0.605965,-0.00211941,0.0496954,-0.761248,0.000786036,0.0266866,1.56581,5,0.1,1,1.5,0.265486,0.0540992,0.500005,-0.0963382,0.490008,4.69387e-05,0.123661,-0.776502,0.00286102,0.00913536,1.53748,5,0.1,2,1.5,-0.154148,-2.02176,0.699988,0.146332,-0.200187,-0.000231061,-0.0932701,0.319988,-0.00515953,0.0072109,0.576442,5,0.1,3,1.5,4.08249,-3.54936,0.774987,-0.00776276,0.635529,0.172208,0.00104308,1.10175,-0.0211783,0.0283138,2.52544,5,0.1,4,1.5,-2.21308,-2.66979,0.726027,0.280298,0.287453,0.0255508,-0.04296,-0.0440925,-0.00393391,0.0198038,0.094402,5,0.1,5,1.5,3.65048,-0.754511,0.624185,-0.255368,0.289076,-0.0229636,0.865877,-0.184294,0.0146478,0.00852262,0.409485,5,0.1,6,1.5,-2.89781,1.68792,0.502358,0.737222,-0.243196,-0.0121704,-0.270456,-0.161432,0.0391938,0.0144741,2.54162,5,0.1,7,1.5,2.28612,-3.36914,0.606348,-0.785742,0.329513,0.0352248,0.282601,-0.150219,-0.0200979,0.00939221,0.507608,5,0.1,8,1.5,-3.77777,-2.88729,0.679686,0.193033,0.851061,0.13496,-0.252247,-0.0726581,-0.261072,0.0207965,0.813053,5,0.1,9,1.5,-1.85261,0.0542663,0.613379,0.866025,0.15924,-0.0101343,1.49012e-05,-0.0172861,0.00338256,0.0121184,2.25628,5,0.1,10,1.5,-1.91577,-0.137283,1.04948,-0.177762,0.277187,0.289954,0.0623241,-0.0972771,-0.101767,0.00951408,0.150843,5,0.1,11,1.5,-2.56564,4.46469,0.569658,0.866026,-0.351172,0.0149027,0,0.0114143,-0.000480562,0.0173736,2.19481,5,0.1,12,1.5,-0.394183,0.25269,0.635745,-0.0482816,-0.856498,-0.0201548,0.317045,-0.0922307,-0.00121444,0.00979853,2.4161,5,0.1,13,1.5,-1.71114,-4.26818,0.720607,-0.0651155,0.866023,0.171572,0.00108778,2.98023e-05,-0.00280142,0.0223423,2.25038,5,0.1,14,1.5,0.648135,3.21445,0.627847,-0.744915,0.16222,-0.0260281,0.357874,0.488743,0.0155158,0.00829372,1.4674,5,0.1,15,1.5,4.45517,-3.70232,0.639217,-0.153498,0.0239518,0.128027,0.411868,-0.281379,0.592418,0.0261379,0.223586,5,0.1,16,1.5,-2.51389,1.84503,0.569042,0.686914,-0.327573,0.0293916,-0.274107,0.208855,-0.0187606,0.0387471,0.59164,5,0.1,17,1.5,-4.1151,-2.62941,0.543071,-0.409906,-0.0750128,0.0135856,0.143826,0.0263005,-0.00475347,0.00737288,0.136212,5,0.1,18,1.5,4.41182,0.409268,0.613954,-0.224996,-0.276244,-0.0148669,0.0475049,0.0423808,0.00230223,0.0074281,0.0744135,5,0.1,19,1.5,3.24274,-3.6886,0.622171,0.785394,-0.827523,-0.011271,0.0586659,0.0854582,-0.00393763,0.0103894,1.97582,5,0.1
0,1.6,3.75027,-1.9,0.602328,-0.131261,0.549641,-0.00202507,0.0743866,-0.372887,0.00116229,0.0254861,1.30319,5,0.1,1,1.6,0.256556,0.1,0.500019,-0.0815503,0.435748,0.000201166,0.166699,-0.322226,0.000417233,0.0106415,1.39105,5,0.1,2,1.6,-0.140003,-2.04029,0.699949,0.136276,-0.171298,-0.000479817,-0.11082,0.263453,-0.000298023,0.00724229,0.560431,5,0.1,3,1.6,4.08172,-3.48045,0.792066,-0.00760555,0.73933,0.168853,0.0026226,0.908732,-0.0520051,0.0272968,2.32422,5,0.1,4,1.6,-2.18533,-2.64133,0.728557,0.273687,0.280666,0.024946,-0.0982285,-0.100732,-0.0089705,0.0206423,0.183375,5,0.1,5,1.6,3.62912,-0.726568,0.621965,-0.173748,0.269206,-0.0213832,0.751853,-0.218958,0.0173748,0.00949701,0.584772,5,0.1,6,1.6,-2.8255,1.66288,0.501332,0.707537,-0.256327,-0.00842065,-0.348806,-0.0880957,0.0352263,0.0119421,2.60952,5,0.1,7,1.6,2.20912,-3.33701,0.609764,-0.752068,0.312197,0.033012,0.41163,-0.203252,-0.0248551,0.0112078,0.345008,5,0.1,8,1.6,-3.75981,-2.80273,0.691798,0.165445,0.837314,0.106677,-0.294685,-0.232935,-0.296503,0.0202559,1.0422,5,0.1,9,1.6,-1.76601,0.0700722,0.612384,0.866026,0.156409,-0.0097245,-5.96046e-05,-0.0451726,0.0050962,0.011379,2.06428,5,0.1,10,1.6,-1.93325,-0.110031,1.07799,-0.171691,0.267713,0.280041,0.0675321,-0.105273,-0.11009,0.00969955,0.152101,5,0.1,11,1.6,-2.47904,4.42969,0.571144,0.866026,-0.347626,0.0147536,0,0.0731945,-0.00312924,0.0154492,2.19812,5,0.1,12,1.6,-0.397581,0.166575,0.633733,-0.0213541,-0.864681,-0.0199586,0.21708,-0.0268888,0.00557303,0.010785,2.4152,5,0.1,13,1.6,-1.71764,-4.18158,0.737718,-0.0645697,0.866032,0.170137,0.0124574,-0.000238419,-0.0328422,0.0204886,2.25108,5,0.1,14,1.6,0.57549,3.23348,0.625326,-0.706793,0.220644,-0.0243336,0.427783,0.626922,0.0189543,0.00793791,1.48705,5,0.1,15,1.6,4.4419,-3.70122,0.654918,-0.111794,-0.000905991,0.184706,0.413179,-0.213861,0.515968,0.0246089,0.171667,5,0.1,16,1.6,-2.44654,1.81336,0.571883,0.659531,-0.305054,0.027369,-0.302911,0.248075,-0.0222623,0.0355642,0.427557,5,0.1,17,1.6,-4.1554,-2.63678,0.544407,-0.395894,-0.0724494,0.013122,0.155687,0.028491,-0.0051558,0.0101033,0.0789271,5,0.1,18,1.6,4.38962,0.381924,0.612482,-0.218105,-0.269724,-0.0145152,0.0963211,0.0969023,0.00524521,0.00669259,0.157761,5,0.1,19,1.6,3.32141,-3.77054,0.621027,0.785398,-0.806952,-0.0115544,-0.0920296,0.3407,-0.00119209,0.00905587,2.22621,5,0.1
0,1.7,3.7375,-1.84592,0.602131,-0.124253,0.539794,-0.00191592,0.0699013,0.103757,0.00108033,0.0254861,1.30319,5,0.1,1,1.7,0.249278,0.141967,0.50004,-0.0636802,0.4036,0.000191852,0.186109,-0.321393,-0.00051409,0.0106415,1.39105,5,0.1,2,1.7,-0.126903,-2.05602,0.699903,0.125887,-0.142764,-0.0004136,-0.10068,0.294909,0.00143424,0.00724229,0.560431,5,0.1,3,1.7,4.08097,-3.40243,0.80875,-0.00741705,0.815921,0.1652,0.00157952,0.597268,-0.0299364,0.0272968,2.32422,5,0.1,4,1.7,-2.15854,-2.61389,0.730999,0.261228,0.26693,0.0238092,-0.153482,-0.174463,-0.0140034,0.0206423,0.183375,5,0.1,5,1.7,3.61533,-0.70069,0.619909,-0.104419,0.24868,-0.0197542,0.60825,-0.198908,0.0157915,0.00949701,0.584772,5,0.1,6,1.7,-2.75614,1.63687,0.500656,0.682293,-0.262938,-0.00521857,-0.196114,-0.035353,0.0284836,0.0119421,2.60952,5,0.1,7,1.7,2.13585,-3.30676,0.612947,-0.713935,0.293056,0.0306774,0.376254,-0.188813,-0.0227615,0.0112078,0.345008,5,0.1,8,1.7,-3.74476,-2.71971,0.701103,0.13551,0.826221,0.0805499,-0.300452,-0.043869,-0.228822,0.0202559,1.0422,5,0.1,9,1.7,-1.67941,0.0855299,0.611435,0.866025,0.152978,-0.00927495,1.49012e-05,-0.0310042,0.00427291,0.011379,2.06428,5,0.1,10,1.7,-1.95021,-0.0836755,1.1054,-0.168423,0.260134,0.267466,0.0106543,-0.0607687,-0.146218,0.00969955,0.152101,5,0.1,11,1.7,-2.39244,4.39517,0.572609,0.866026,-0.343598,0.0145811,0,0.0270307,-0.00115857,0.0154492,2.19812,5,0.1,12,1.7,-0.398711,0.0800246,0.631764,-0.00255955,-0.865941,-0.0194361,0.139553,-0.00336125,0.00561401,0.010785,2.4152,5,0.1,13,1.7,-1.72405,-4.09498,0.754633,-0.0639703,0.866023,0.168557,0.00329316,2.98023e-05,-0.0086762,0.0204886,2.25108,5,0.1,14,1.7,0.506765,3.25826,0.622983,-0.668881,0.271042,-0.0225537,0.357337,0.385657,0.0173151,0.00793791,1.48705,5,0.1,15,1.7,4.43278,-3.70208,0.675947,-0.071004,-0.0133708,0.235073,0.395179,-0.0484288,0.469469,0.0246089,0.171667,5,0.1,16,1.7,-2.38186,1.78404,0.574514,0.635555,-0.281797,0.0252819,-0.20875,0.225395,-0.0202209,0.0355642,0.427557,5,0.1,17,1.7,-4.19431,-2.6439,0.545696,-0.382774,-0.0700474,0.0126871,0.124007,0.0227094,-0.00411645,0.0101033,0.0789271,5,0.1,18,1.7,4.36841,0.355433,0.611057,-0.204731,-0.259906,-0.0139845,0.173777,0.107544,0.00580028,0.00669259,0.157761,5,0.1,19,1.7,3.39978,-3.84857,0.619862,0.783915,-0.745049,-0.0117764,0.0149906,0.856966,-0.00249594,0.00905587,2.22621,5,0.1
0,1.8,3.72544,-1.79113,0.601945,-0.116599,0.557727,-0.00179857,0.0860691,0.200272,0.0013411,0.0244554,1.01781,5,0.1,1,1.8,0.243841,0.180714,0.500055,-0.0451446,0.371242,0.000114739,0.181027,-0.327386,-0.000923872,0.00848882,1.29876,5,0.1,2,1.8,-0.114826,-2.06885,0.69987,0.115514,-0.114334,-0.000226498,-0.109315,0.265837,0.00220537,0.00841459,1.05549,5,0.1,3,1.8,4.08024,-3.3185,0.825097,-0.00722408,0.85597,0.161348,0.00238419,0.201106,-0.0534058,0.0292717,2.26143,5,0.1,4,1.8,-2.13329,-2.58819,0.7333,0.242639,0.245798,0.0221133,-0.219226,-0.247478,-0.0199974,0.0169049,0.142072,5,0.1,5,1.8,3.60753,-0.676832,0.618014,-0.0557423,0.228187,-0.0181258,0.354886,-0.215977,0.0171363,0.0108197,0.765942,5,0.1,6,1.8,-2.6889,1.61055,0.500263,0.661427,-0.261971,-0.00276715,-0.249863,0.0602007,0.0204146,0.0116726,2.69364,5,0.1,7,1.8,2.06644,-3.27843,0.615898,-0.672573,0.272882,0.0283033,0.468016,-0.221133,-0.0253618,0.00780289,0.232114,5,0.1,8,1.8,-3.73269,-2.63737,0.708107,0.105989,0.819081,0.0604004,-0.287056,-0.138164,-0.176519,0.0197699,1.31361,5,0.1,9,1.8,-1.5928,0.100645,0.61053,0.866026,0.148923,-0.0088051,0,-0.0553876,0.00539422,0.0113962,1.62334,5,0.1,10,1.8,-1.96701,-0.0579894,1.13132,-0.167343,0.253084,0.250047,0.020206,-0.0905335,-0.204921,0.00856483,0.190959,5,0.1,11,1.8,-2.30583,4.361,0.574059,0.866026,-0.338864,0.0143811,0,0.0813007,-0.00348687,0.0144583,2.20201,5,0.1,12,1.8,-0.398509,-0.00657628,0.629853,0.00400394,-0.866025,-0.0187099,-0.0145286,1.19209e-06,0.00935793,0.0107882,2.39577,5,0.1,13,1.8,-1.73043,-4.00838,0.771419,-0.0632674,0.866032,0.166708,0.0133514,-0.000119209,-0.0353158,0.0196974,2.25187,5,0.1,14,1.8,0.441726,3.28692,0.620816,-0.630768,0.298625,-0.0207573,0.423641,0.169873,0.0190735,0.00852137,1.28959,5,0.1,15,1.8,4.42757,-3.70347,0.701577,-0.0340462,-0.0129521,0.274906,0.338316,0.0463724,0.312179,0.0252229,0.107973,5,0.1,16,1.8,-2.31941,1.757,0.57694,0.612301,-0.258577,0.0231981,-0.279188,0.244796,-0.0219643,0.0371604,0.302614,5,0.1,17,1.8,-4.2319,-2.65078,0.546942,-0.368166,-0.0673771,0.0122011,0.180483,0.0331402,-0.00596046,0.00790814,0.0598757,5,0.1,18,1.8,4.34895,0.330052,0.609691,-0.183105,-0.246882,-0.0132829,0.258923,0.158206,0.00852346,0.00816313,0.144129,5,0.1,19,1.8,3.47811,-3.91822,0.618675,0.780308,-0.642979,-0.0119239,-0.120521,1.15073,5.96046e-05,0.00848624,2.56079,5,0.1
0,1.9,3.71419,-1.73392,0.601771,-0.108564,0.589317,-0.00167396,0.0780374,0.375837,0.00120699,0.0244554,1.01781,5,0.1,1,1.9,0.240225,0.2159,0.500062,-0.0273313,0.330682,2.81259e-05,0.171957,-0.438442,-0.000797212,0.00848882,1.29876,5,0.1,2,1.9,-0.103792,-2.07884,0.699858,0.105386,-0.0855595,-2.71015e-05,-0.0963812,0.270545,0.00176951,0.00841459,1.05549,5,0.1,3,1.9,4.07947,-3.23229,0.841032,-0.00873655,0.865397,0.157772,-0.0285506,0.0251383,-0.0271276,0.0292717,2.26143,5,0.1,4,1.9,-2.11006,-2.56504,0.735417,0.222346,0.215644,0.0202624,-0.193492,-0.346184,-0.0176504,0.0169049,0.142072,5,0.1,5,1.9,3.6034,-0.655035,0.616283,-0.0317175,0.208178,-0.0165377,0.0810176,-0.190411,0.0151172,0.0108197,0.765942,5,0.1,6,1.9,-2.62386,1.585,0.500074,0.640268,-0.246013,-0.0011446,-0.201702,0.245996,0.0122935,0.0116726,2.69364,5,0.1,7,1.9,2.00139,-3.25219,0.618608,-0.629188,0.252284,0.0259489,0.420593,-0.198573,-0.0225082,0.00780289,0.232114,5,0.1,8,1.9,-3.72349,-2.5556,0.713347,0.0783961,0.8202,0.0451936,-0.262514,0.097245,-0.129912,0.0197699,1.31361,5,0.1,9,1.9,-1.5062,0.11529,0.609675,0.865961,0.144105,-0.00831662,-0.0025779,-0.0470839,0.00469014,0.0113962,1.62334,5,0.1,10,1.9,-1.9837,-0.0329823,1.15531,-0.166977,0.248139,0.229729,-0.00280887,-0.0252561,-0.205792,0.00856483,0.190959,5,0.1,11,1.9,-2.21923,4.32739,0.575485,0.866026,-0.334131,0.0141775,0,0.0325739,-0.00140071,0.0144583,2.20201,5,0.1,12,1.9,-0.398356,-0.0931788,0.628024,-0.00368948,-0.866025,-0.0178998,-0.174629,-7.45058e-07,0.00760704,0.0107882,2.39577,5,0.1,13,1.9,-1.73671,-3.92177,0.787981,-0.0626054,0.866026,0.164954,0.00362098,-1.49012e-05,-0.00962242,0.0196974,2.25187,5,0.1,14,1.9,0.380613,3.31703,0.618831,-0.592472,0.298643,-0.0189877,0.364303,-0.118107,0.0168867,0.00852137,1.28959,5,0.1,15,1.9,4.42579,-3.7045,0.730513,-0.00244901,-0.00726096,0.302306,0.289053,0.0640601,0.2225,0.0252229,0.107973,5,0.1,16,1.9,-2.25942,1.7323,0.579156,0.588441,-0.235897,0.0211634,-0.22386,0.215821,-0.0193641,0.0371604,0.302614,5,0.1,17,1.9,-4.26794,-2.65738,0.548137,-0.353455,-0.0646751,0.0117147,0.131756,0.0241846,-0.00436604,0.00790814,0.0598757,5,0.1,18,1.9,4.33207,0.306157,0.608405,-0.153286,-0.230868,-0.0124207,0.334591,0.167035,0.00899285,0.00816313,0.144129,5,0.1,19,1.9,3.55589,-3.97632,0.617447,0.777443,-0.515944,-0.0129228,0.0137091,1.34006,-0.0173077,0.00848624,2.56079,5,0.1
0,2,3.70373,-1.67319,0.60161,-0.100416,0.623286,-0.00154823,0.0872612,0.263095,0.0013411,0.0233069,0.767694,5,0.1,1,2,0.238314,0.246872,0.500061,-0.0113174,0.290309,-4.32134e-05,0.145987,-0.346877,-0.000596046,0.00920282,1.17773,5,0.1,2,2,-0.0937345,-2.08628,0.699863,0.0957061,-0.065881,0.00012517,-0.099387,0.105858,0.0012815,0.00935219,1.63146,5,0.1,3,2,4.07843,-3.1457,0.856656,-0.0121951,0.866026,0.154381,-0.0376701,0,-0.0471175,0.02744,2.25713,5,0.1,4,2,-2.0888,-2.5453,0.737354,0.202781,0.178283,0.0184789,-0.202656,-0.393033,-0.0185072,0.0188776,0.329052,5,0.1,5,2,3.6,-0.635169,0.614704,-0.0421822,0.189056,-0.0150189,-0.272155,-0.196338,0.0155866,0.0105955,3.45937,5,0.1,6,2,-2.56095,1.56184,0.50001,0.616282,-0.215179,-0.00025034,-0.297785,0.359595,0.00593066,0.0142761,0.0864578,5,0.1,7,2,1.94064,-3.22797,0.62109,-0.58493,0.231856,0.023669,0.478804,-0.215292,-0.0236332,0.0109344,0.155505,5,0.1,8,2,-3.71691,-2.47313,0.717279,0.0538766,0.827605,0.033997,-0.22614,0.00488758,-0.0959337,0.018478,2.37238,5,0.1,9,2,-1.41964,0.129438,0.608867,0.864995,0.138475,-0.00781566,-0.0206232,-0.0697225,0.00557303,0.011848,1.24114,5,0.1,10,2,-2.00038,-0.0083005,1.17722,-0.166178,0.245121,0.208184,0.0258684,-0.0473377,-0.227809,0.00976865,0.165316,5,0.1,11,2,-2.13263,4.29419,0.576894,0.866026,-0.329053,0.0139624,0,0.0824928,-0.00354648,0.012894,2.20601,5,0.1,12,2,-0.4,-0.179781,0.626274,-0.0329576,-0.866025,-0.0170574,-0.39579,0,0.00977516,0.0119294,2.33602,5,0.1,13,2,-1.74294,-3.83517,0.804404,-0.0619024,0.866026,0.163098,0.0130534,0,-0.0345111,0.0193591,2.25264,5,0.1,14,2,0.323236,3.34615,0.617017,-0.55418,0.282955,-0.0172824,0.416845,-0.167251,0.0175536,0.00764968,1.10505,5,0.1,15,2,4.42688,-3.7049,0.761619,0.0230193,-0.000739098,0.317229,0.217438,0.0638962,0.0675321,0.0241824,0.0916069,5,0.1,16,2,-2.20178,1.70979,0.581175,0.563139,-0.214225,0.019218,-0.300407,0.222564,-0.0199378,0.00653097,0.218562,5,0.1,17,2,-4.30259,-2.66372,0.549285,-0.338757,-0.0619829,0.011228,0.174761,0.0320673,-0.00581145,0.0083641,0.0266946,5,0.1,18,2,4.31851,0.283952,0.607211,-0.11704,-0.21267,-0.0114411,0.385046,0.200018,0.0107288,0.00990186,0.201348,5,0.1,19,2,3.63359,-4.02123,0.616058,0.77458,-0.383449,-0.0149041,-0.106335,1.27459,-0.0202358,0.0073245,1.70798,5,0.1
0,2.1,3.6941,-1.60938,0.601462,-0.0923377,0.653508,-0.00142436,0.0771731,0.297852,0.00118464,0.0233069,0.767694,5,0.1,1,2.1,0.237887,0.274269,0.500055,0.00245951,0.260558,-8.801e-05,0.127153,-0.179873,-0.000309199,0.00920282,1.17773,5,0.1,2,2.1,-0.0846314,-2.09249,0.699881,0.086581,-0.062171,0.000217557,-0.0857599,-0.114337,0.000603497,0.00935219,1.63146,5,0.1,3,2.1,4.07699,-3.0591,0.871927,-0.01669,0.866026,0.151489,-0.048846,0,-0.019744,0.02744,2.25713,5,0.1,4,2.1,-2.0695,-2.52947,0.739113,0.183574,0.138245,0.0167254,-0.185922,-0.400364,-0.016965,0.0188776,0.329052,5,0.1,5,2.1,3.59401,-0.616875,0.613282,-0.0810683,0.179877,-0.0134202,-0.478745,-0.0121221,0.016436,0.0105955,3.45937,5,0.1,6,2.1,-2.50087,1.54224,0.500007,0.584359,-0.175987,0.00012219,-0.352502,0.414349,0.00186265,0.0142761,0.0864578,5,0.1,7,2.1,1.8844,-3.2058,0.623345,-0.540723,0.211979,0.0214946,0.422783,-0.188768,-0.0205077,0.0109344,0.155505,5,0.1,8,2.1,-3.71203,-2.3899,0.720692,0.0490293,0.840007,0.0384389,0.0947416,0.183687,0.155244,0.018478,2.37238,5,0.1,9,2.1,-1.33315,0.142911,0.608112,0.865149,0.130684,-0.00730613,0.00102818,-0.0878815,0.00487641,0.011848,1.24114,5,0.1,10,2.1,-2.01691,0.0156841,1.19694,-0.164429,0.231916,0.1865,0.017181,-0.206749,-0.209764,0.00976865,0.165316,5,0.1,11,2.1,-2.04603,4.26157,0.578278,0.866026,-0.324173,0.0137522,0,0.0338554,-0.00145659,0.012894,2.20601,5,0.1,12,2.1,-0.405809,-0.266384,0.624611,-0.0873456,-0.866025,-0.0162429,-0.644915,-8.9407e-07,0.00728294,0.0119294,2.33602,5,0.1,13,2.1,-1.74909,-3.74857,0.820609,-0.0612736,0.866026,0.161433,0.00321865,0,-0.00853837,0.0193591,2.25264,5,0.1,14,2.1,0.269764,3.37352,0.615371,-0.516186,0.265737,-0.0156682,0.361208,-0.105366,0.0152066,0.00764968,1.10505,5,0.1,15,2.1,4.43022,-3.70467,0.79366,0.0431702,0.00486746,0.323013,0.18084,0.0473261,0.0339113,0.0241824,0.0916069,5,0.1,16,2.1,-2.14694,1.69005,0.583167,0.533449,-0.175742,0.0220352,-0.308424,0.512674,0.0653379,0.00653097,0.218562,5,0.1,17,2.1,-4.3356,-2.66976,0.550379,-0.321309,-0.058784,0.0106477,0.183463,0.0336319,-0.0060983,0.0083641,0.0266946,5,0.1,18,2.1,4.30877,0.263642,0.606118,-0.0777192,-0.193837,-0.0104307,0.393063,0.182087,0.00977144,0.00990186,0.201348,5,0.1,19,2.1,3.71051,-4.05339,0.614486,0.763184,-0.26281,-0.016331,-0.149146,1.09315,-0.00834838,0.0073245,1.70798,5,0.1
0,2.2,3.68526,-1.54278,0.601325,-0.0845015,0.675464,-0.00130534,0.0817776,0.110686,0.0012815,0.0226029,0.555102,5,0.1,1,2.2,0.238722,0.3,0.500045,0.0137139,0.259637,-0.000107288,0.0963435,0.14621,-8.9407e-05,0.00878344,1.00129,5,0.1,2,2.2,-0.0763972,-2.1,0.699905,0.0781041,-0.0951171,0.00025183,-0.085637,-0.525355,8.9407e-05,0.0079251,3.21466,5,0.1,3,2.2,4.07508,-2.97249,0.886962,-0.0213861,0.866026,0.14888,-0.0426769,0,-0.0388622,0.029038,2.25746,5,0.1,4,2.2,-2.05207,-2.51761,0.740701,0.16486,0.099498,0.0150174,-0.191569,-0.369072,-0.0174344,0.0194548,0.325404,5,0.1,5,2.2,3.58336,-0.598812,0.612023,-0.132948,0.182244,-0.0117287,-0.535846,0.0405908,0.0174046,0.0092835,3.31118,5,0.1,6,2.2,-2.44437,1.52673,0.500024,0.543898,-0.134075,0.000180304,-0.463843,0.415981,-0.000357628,0.0114219,0.130831,5,0.1,7,2.2,1.83247,-3.18555,0.625393,-0.497431,0.192994,0.019455,0.455201,-0.195265,-0.0207424,0.00996135,0.10418,5,0.1,8,2.2,-3.70636,-2.30508,0.725526,0.0666678,0.854069,0.0597879,0.231028,0.0542402,0.24873,0.0192991,2.59114,5,0.1,9,2.2,-1.24675,0.155499,0.607406,0.861281,0.120629,-0.00679791,-0.0948906,-0.11415,0.00548363,0.0132116,0.205815,5,0.1,10,2.2,-2.03323,0.0376481,1.21455,-0.161386,0.205647,0.165585,0.0493526,-0.309877,-0.211179,0.00950512,0.277579,5,0.1,11,2.2,-1.95942,4.22937,0.579644,0.866026,-0.319088,0.0135362,0,0.0813007,-0.00348687,0.0140536,1.87018,5,0.1,12,2.2,-0.41786,-0.352986,0.623025,-0.153678,-0.866026,-0.0154704,-0.646174,0,0.00873208,0.0126595,2.25858,5,0.1,13,2.2,-1.7552,-3.66197,0.836687,-0.0606269,0.866026,0.159724,0.0123978,0,-0.0325739,0.0220867,2.25335,5,0.1,14,2.2,0.21998,3.4,0.61388,-0.478862,0.268108,-0.0141591,0.397847,0.14317,0.0152588,0.0080215,2.76448,5,0.1,15,2.2,4.43535,-3.70398,0.825981,0.0584245,0.00858903,0.321662,0.121117,0.0268221,-0.0701845,0.0279922,0.214099,5,0.1,16,2.2,-2.09525,1.67529,0.585764,0.498968,-0.117847,0.0303492,-0.391006,0.618041,0.092417,0.00731616,0.182455,5,0.1,17,2.2,-4.36674,-2.67545,0.551411,-0.300527,-0.0549793,0.00995696,0.237703,0.0436306,-0.00789762,0.0079319,0.0100713,5,0.1,18,2.2,4.3029,0.245175,0.605124,-0.0403881,-0.175346,-0.0094384,0.342846,0.191338,0.0103116,0.0111268,0.327966,5,0.1,19,2.2,3.78583,-4.07478,0.61283,0.740165,-0.17122,-0.0165924,-0.329494,0.720263,0.00298023,0.00864685,1.47709,5,0.1
0,2.3,3.67719,-1.47461,0.601201,-0.0769876,0.687618,-0.00118818,0.0708997,0.0978932,0.00110269,0.0226029,0.555102,5,0.1,1,2.3,0.240548,0.327459,0.500034,0.0225086,0.295563,-0.000107568,0.0777319,0.509292,7.82311e-05,0.00878344,1.00129,5,0.1,2,2.3,-0.0689967,-2.1137,0.69993,0.0700455,-0.191521,0.00024233,-0.0771955,-1.28429,-0.000245869,0.0079251,3.21466,5,0.1,3,2.3,4.07272,-2.88589,0.901723,-0.0259139,0.866026,0.146774,-0.0449717,0,-0.0122525,0.029038,2.25746,5,0.1,4,2.3,-2.03651,-2.50941,0.742118,0.146622,0.0654448,0.0133574,-0.176042,-0.308916,-0.0160262,0.0194548,0.325404,5,0.1,5,2.3,3.56787,-0.580238,0.610935,-0.173379,0.190258,-0.0100627,-0.325993,0.101894,0.016015,0.0092835,3.31118,5,0.1,6,2.3,-2.39203,1.51534,0.500039,0.504924,-0.0943998,0.000112411,-0.340343,0.373162,-0.000905246,0.0114219,0.130831,5,0.1,7,2.3,1.78486,-3.16717,0.627241,-0.455617,0.175096,0.0175606,0.395641,-0.16816,-0.0176989,0.00996135,0.10418,5,0.1,8,2.3,-3.69824,-2.22048,0.732975,0.0978742,0.827966,0.0908343,0.364855,-0.542283,0.347935,0.0192991,2.59114,5,0.1,9,2.3,-1.16146,0.166891,0.606752,0.840563,0.106336,-0.00629583,-0.327833,-0.166714,0.0047721,0.0132116,0.205815,5,0.1,10,2.3,-2.04914,0.0565353,1.2301,-0.157024,0.171057,0.145925,0.0443906,-0.372437,-0.185452,0.00950512,0.277579,5,0.1,11,2.3,-1.87282,4.19777,0.580984,0.866026,-0.313247,0.0132861,0,0.0514686,-0.00219792,0.0140536,1.87018,5,0.1,12,2.3,-0.436682,-0.439589,0.621515,-0.223979,-0.866026,-0.0147677,-0.719899,3.57628e-06,0.0060685,0.0126595,2.25858,5,0.1,13,2.3,-1.76122,-3.57536,0.852564,-0.0600554,0.866026,0.158226,0.00268221,0,-0.00698119,0.0220867,2.25335,5,0.1,14,2.3,0.173323,3.4286,0.612564,-0.460482,0.312382,-0.0119629,0.0247099,0.659958,0.0272803,0.0080215,2.76448,5,0.1,15,2.3,4.44173,-3.70303,0.857721,0.0685081,0.010037,0.312228,0.0785589,0.00329316,-0.12495,0.0279922,0.214099,5,0.1,16,2.3,-2.0471,1.66668,0.589335,0.465609,-0.054023,0.0415965,-0.297606,0.638843,0.123743,0.00731616,0.182455,5,0.1,17,2.3,-4.39559,-2.68073,0.552366,-0.276168,-0.0505127,0.00914782,0.253499,0.0464618,-0.00841916,0.0079319,0.0100713,5,0.1,18,2.3,4.3004,0.228596,0.604222,-0.0116929,-0.156195,-0.00868496,0.217199,0.192913,0.00544637,0.0111268,0.327966,5,0.1,19,2.3,3.85825,-4.08888,0.611195,0.708206,-0.117761,-0.0160282,-0.332519,0.302196,0.00831485,0.00864685,1.47709,5,0.1
0,2.4,3.66985,-1.40561,0.601087,-0.0699162,0.689238,-0.00107884,0.07236,-0.0892282,0.00113249,0.0299188,0.417952,5,0.1,1,2.4,0.243145,0.359734,0.500024,0.0289649,0.35044,-9.53674e-05,0.0502467,0.540733,0.000178814,0.0141517,0.796485,5,0.1,2,2.4,-0.0623751,-2.13972,0.699952,0.0623856,-0.33108,0.000207126,-0.0771414,-1.41633,-0.000447035,0.0145948,2.73374,5,0.1,3,2.4,4.06992,-2.79929,0.916322,-0.0298977,0.866026,0.144888,-0.0326633,0,-0.0318587,0.0329975,2.2577,5,0.1,4,2.4,-2.02272,-2.50429,0.743375,0.129175,0.0381649,0.0117674,-0.174999,-0.235319,-0.0158846,0.0162903,0.302876,5,0.1,5,2.4,3.54893,-0.560721,0.610007,-0.205809,0.19955,-0.00850856,-0.345588,0.0710189,0.0151396,0.0112366,3.11759,5,0.1,6,2.4,-2.3432,1.50767,0.500046,0.47158,-0.060156,1.49012e-05,-0.344276,0.308931,-0.000953674,0.011081,0.0746576,5,0.1,7,2.4,1.74128,-3.15049,0.62891,-0.415835,0.158429,0.0158221,0.410259,-0.169039,-0.017494,0.00880554,0.120816,5,0.1,8,2.4,-3.6866,-2.14115,0.743797,0.134689,0.75202,0.125146,0.350475,-0.946999,0.320226,0.0170758,2.94309,5,0.1,9,2.4,-1.07948,0.176638,0.606147,0.79459,0.0881989,-0.00580698,-0.594437,-0.191875,0.0051558,0.00974332,0.105928,5,0.1,10,2.4,-2.06459,0.0717407,1.24379,-0.151414,0.132863,0.127915,0.0722408,-0.383888,-0.177205,0.00743065,0.269148,5,0.1,11,2.4,-1.78622,4.16676,0.582299,0.866026,-0.306082,0.0129819,-5.96046e-05,0.102758,-0.00435114,0.0118498,1.44067,5,0.1,12,2.4,-0.462531,-0.526192,0.620069,-0.290769,-0.866026,-0.0141278,-0.586987,0,0.00727177,0.0121643,2.02908,5,0.1,13,2.4,-1.76721,-3.48876,0.868329,-0.0594676,0.866026,0.156684,0.0116825,0,-0.0307262,0.0203454,2.254,5,0.1,14,2.4,0.127154,3.46343,0.611514,-0.464273,0.385606,-0.00895113,-0.0589979,0.741959,0.0318289,0.00804766,2.48039,5,0.1,15,2.4,4.44889,-3.70204,0.888187,0.0738263,0.00947714,0.295672,0.0267029,-0.0134706,-0.209838,0.0250243,0.309119,5,0.1,16,2.4,-2.00201,1.66437,0.594106,0.435778,0.00652671,0.0535712,-0.314236,0.55784,0.109226,0.0069241,0.172935,5,0.1,17,2.4,-4.42188,-2.68554,0.553237,-0.249195,-0.0455737,0.00825375,0.28801,0.0526905,-0.00959635,0.00835058,0.00508653,5,0.1,18,2.4,4.3,0.213951,0.603377,0,-0.136583,-0.00822693,0,0.199914,0.00423193,0.00764499,0.485464,5,0.1,19,2.4,3.92725,-4.1,0.609643,0.669861,-0.112832,-0.0149339,-0.449657,-0.177145,0.0135601,0.00732119,1.22913,5,0.1
0,2.5,3.66304,-1.33709,0.600985,-0.0677556,0.681039,-0.000976026,-0.0172257,-0.102594,0.000953674,0.0299188,0.417952,5,0.1,1,2.5,0.246273,0.397762,0.500015,0.0333554,0.41169,-7.54371e-05,0.0361307,0.636099,0.000216067,0.0141517,0.796485,5,0.1,2,2.5,-0.0563326,-2.18047,0.699938,0.0600538,-0.487044,-0.000752974,0.0183973,-1.61147,-0.0167154,0.0145948,2.73374,5,0.1,3,2.5,4.06676,-2.71269,0.930716,-0.0332862,0.866026,0.143408,-0.0325441,0,-0.00663474,0.0329975,2.2577,5,0.1,4,2.5,-2.01066,-2.50157,0.744473,0.112056,0.0173025,0.0102125,-0.16804,-0.177532,-0.0152737,0.0162903,0.302876,5,0.1,5,2.5,3.52675,-0.540329,0.609228,-0.239464,0.208714,-0.00712629,-0.43565,0.0969619,0.0126734,0.0112366,3.11759,5,0.1,6,2.5,-2.29764,1.50307,0.500043,0.440359,-0.033183,-5.83939e-05,-0.29625,0.231177,-0.000532717,0.011081,0.0746576,5,0.1,7,2.5,1.70141,-3.13536,0.630418,-0.384135,0.145174,0.0144477,0.249006,-0.10547,-0.0109412,0.00880554,0.120816,5,0.1,8,2.5,-3.67129,-2.07145,0.757981,0.172051,0.635831,0.158715,0.37466,-1.31376,0.332117,0.0170758,2.94309,5,0.1,9,2.5,-1.00307,0.184481,0.60559,0.73254,0.068565,-0.00533555,-0.655152,-0.197352,0.004448,0.00974332,0.105928,5,0.1,10,2.5,-2.07939,0.0831428,1.25574,-0.144752,0.0956686,0.111669,0.0662953,-0.354685,-0.150673,0.00743065,0.269148,5,0.1,11,2.5,-1.69962,4.13661,0.583578,0.865806,-0.297257,0.0126089,-0.00873953,0.0866055,-0.00365451,0.0118498,1.44067,5,0.1,12,2.5,-0.494614,-0.612792,0.618687,-0.350714,-0.865934,-0.0135464,-0.577966,0.00368059,0.00504032,0.0121643,2.02908,5,0.1,13,2.5,-1.77312,-3.40216,0.883909,-0.0589516,0.866026,0.155331,0.00222027,0,-0.00579283,0.0203454,2.254,5,0.1,14,2.5,0.0800604,3.50485,0.610785,-0.480184,0.435013,-0.00560004,-0.215483,0.271261,0.0341684,0.00804766,2.48039,5,0.1,15,2.5,4.45633,-3.7012,0.916592,0.0742778,0.00724606,0.271329,-0.0167489,-0.0285357,-0.275284,0.0250243,0.309119,5,0.1,16,2.5,-1.95975,1.66773,0.600048,0.411305,0.0596048,0.0654448,-0.199176,0.491358,0.120282,0.0069241,0.172935,5,0.1,17,2.5,-4.44538,-2.68984,0.554015,-0.220891,-0.0403967,0.00731172,0.281125,0.0513941,-0.00934675,0.00835058,0.00508653,5,0.1,18,2.5,4.3,0.201281,0.602581,0,-0.116931,-0.00764513,0,0.193211,0.00726804,0.00764499,0.485464,5,0.1,19,2.5,3.99163,-4.11307,0.608219,0.614269,-0.155992,-0.0135153,-0.649095,-0.619024,0.0148676,0.00732119,1.22913,5,0.1
0,2.6,3.65611,-1.2697,0.600892,-0.0712633,0.664058,-0.000880659,-0.043869,-0.255823,0.000923872,0.0214793,0.288228,5,0.1,1,2.6,0.249756,0.441944,0.500009,0.0359602,0.469372,-5.36442e-05,0.0151098,0.482827,0.000238419,0.0109618,0.605037,5,0.1,2,2.6,-0.0501596,-2.23693,0.699767,0.0639228,-0.637579,-0.00277311,0.0496711,-1.33276,-0.0221133,0.00813184,2.41118,5,0.1,3,2.6,4.06329,-2.62608,0.945006,-0.0359654,0.866026,0.142039,-0.0190735,0,-0.0270307,0.0267668,2.25792,5,0.1,4,2.6,-2.00029,-2.5006,0.745419,0.0954688,0.00326633,0.00870377,-0.164032,-0.101328,-0.014931,0.0157411,0.967751,5,0.1,5,2.6,3.5,-0.519033,0.608575,-0.301534,0.216328,-0.00594556,-0.783682,0.0444651,0.0110865,0.00914379,2.8137,5,0.1,6,2.6,-2.25511,1.50078,0.500035,0.409609,-0.0137269,-9.53674e-05,-0.329971,0.159085,-0.000178814,0.011331,0.137399,5,0.1,7,2.6,1.66415,-3.12133,0.631813,-0.361636,0.13569,0.0134692,0.219524,-0.0911951,-0.00932813,0.00851526,0.0704091,5,0.1,8,2.6,-3.65232,-2.01462,0.775404,0.205827,0.500086,0.18831,0.285029,-1.35601,0.246286,0.016982,3.21015,5,0.1,9,2.6,-0.93325,0.190366,0.605079,0.662251,0.0493385,-0.00488758,-0.755161,-0.184521,0.00464916,0.00929255,0.0942617,5,0.1,10,2.6,-2.09351,0.0910201,1.26618,-0.137258,0.0628099,0.0972718,0.087142,-0.298962,-0.139534,0.00740008,0.263088,5,0.1,11,2.6,-1.61315,4.10738,0.584818,0.862524,-0.286591,0.0121593,-0.0700355,0.135183,-0.00575185,0.0103391,1.09564,5,0.1,12,2.6,-0.532331,-0.699338,0.617359,-0.400585,-0.864555,-0.0130028,-0.395596,0.0294447,0.00631809,0.00971868,1.53631,5,0.1,13,2.6,-1.779,-3.31556,0.899391,-0.0584096,0.866026,0.15391,0.0110865,0,-0.0293553,0.0187904,2.26841,5,0.1,14,2.6,0.0310011,3.5491,0.610392,-0.499811,0.444347,-0.00229478,-0.145206,-0.0649691,0.0311434,0.0075054,2.16666,5,0.1,15,2.6,4.46361,-3.70062,0.942253,0.0706911,0.00422597,0.24101,-0.0538826,-0.0300407,-0.328898,0.0250949,0.718914,5,0.1,16,2.6,-1.91959,1.67596,0.607158,0.39182,0.102729,0.0762612,-0.207901,0.362813,0.0903308,0.00642917,0.166517,5,0.1,17,2.6,-4.46606,-2.69362,0.5547,-0.192511,-0.0352085,0.00636876,0.288248,0.0526905,-0.00953674,0.0106743,0.00157287,5,0.1,18,2.6,4.3,0.190543,0.601857,0,-0.0979435,-0.00680238,0,0.186436,0.00947714,0.00752597,1.26533,5,0.1,19,2.6,4.04957,-4.13204,0.606944,0.542474,-0.224817,-0.0119552,-0.775814,-0.705957,0.0163615,0.00645791,0.908604,5,0.1
0,2.7,3.64872,-1.20451,0.600808,-0.0769094,0.639827,-0.000796746,-0.0618398,-0.251614,0.000778586,0.0214793,0.288228,5,0.1,1,2.7,0.253416,0.491357,0.500004,0.037096,0.518547,-3.25963e-05,0.00643544,0.463298,0.000178814,0.0109618,0.605037,5,0.1,2,2.7,-0.043425,-2.30694,0.699366,0.0714514,-0.757376,-0.0053335,0.090908,-1.02128,-0.0274852,0.00813184,2.41118,5,0.1,3,2.7,4.05959,-2.53948,0.959137,-0.0380211,0.866026,0.140966,-0.0195801,0,-0.0031814,0.0267668,2.25792,5,0.1,4,2.7,-1.99153,-2.50085,0.746217,0.0799898,-0.00789389,0.00729421,-0.146344,-0.0880063,-0.0133328,0.0157411,0.967751,5,0.1,5,2.7,3.4649,-0.49712,0.608032,-0.408285,0.222164,-0.00496916,-1.25031,0.0586137,0.00862777,0.00914379,2.8137,5,0.1,6,2.7,-2.21546,1.5001,0.500025,0.386102,-0.000827946,-9.9279e-05,-0.168145,0.101037,8.19564e-05,0.011331,0.137399,5,0.1,7,2.7,1.62894,-3.10816,0.633119,-0.343432,0.1281,0.0126954,0.161238,-0.0668615,-0.00677258,0.00851526,0.0704091,5,0.1,8,2.7,-3.63024,-1.97145,0.795524,0.235971,0.364698,0.214188,0.296339,-1.27526,0.252597,0.016982,3.21015,5,0.1,9,2.7,-0.870544,0.194356,0.604609,0.593947,0.0303936,-0.00453386,-0.630759,-0.189379,0.00272691,0.00929255,0.0942617,5,0.1,10,2.7,-2.10682,0.0959308,1.27526,-0.129175,0.036652,0.084633,0.0789165,-0.224199,-0.115782,0.00740008,0.263088,5,0.1,11,2.7,-1.52696,4.07934,0.585851,0.862904,-0.274295,0.00719195,0.0280365,0.121176,-0.0841655,0.0103391,1.09564,5,0.1,12,2.7,-0.574343,-0.785781,0.616086,-0.43873,-0.864882,-0.0124642,-0.340797,-0.00575185,0.00500306,0.00971868,1.53631,5,0.1,13,2.7,-1.78464,-3.22896,0.914753,-0.0532698,0.865741,0.154189,0.0848621,-0.0113845,0.0222512,0.0187904,2.26841,5,0.1,14,2.7,-0.0197286,3.59245,0.610317,-0.514343,0.417015,0.00075046,-0.119642,-0.409782,0.0290126,0.0075054,2.16666,5,0.1,15,2.7,4.47038,-3.70044,0.964707,0.0645116,-0.00114068,0.208055,-0.069201,-0.0641346,-0.329636,0.0250949,0.718914,5,0.1,16,2.7,-1.88122,1.68798,0.615274,0.377127,0.136711,0.0862292,-0.109561,0.305787,0.100743,0.00642917,0.166517,5,0.1,17,2.7,-4.48389,-2.69688,0.55529,-0.164279,-0.0300478,0.00543492,0.276804,0.0505894,-0.00916049,0.0106743,0.00157287,5,0.1,18,2.7,4.3,0.181647,0.601225,0,-0.0803104,-0.00582198,0,0.1666,0.0100397,0.00752597,1.26533,5,0.1,19,2.7,4.0997,-4.15822,0.605809,0.458346,-0.299208,-0.0109244,-0.878483,-0.741184,0.00560284,0.00645791,0.908604,5,0.1
0,2.8,3.64073,-1.14193,0.600732,-0.0823855,0.609922,-0.000719726,-0.0425577,-0.3618,0.000745058,0.0221559,0.177591,5,0.1,1,2.8,0.257136,0.545245,0.500002,0.0370584,0.555706,-1.78814e-05,-0.00791252,0.254035,0.000119209,0.0100702,0.450479,5,0.1,2,2.8,-0.0358248,-2.38702,0.698697,0.0803677,-0.835812,-0.00799149,0.0800388,-0.529051,-0.0244975,0.00795762,2.29154,5,0.1,3,2.8,4.0557,-2.45288,0.973198,-0.0394702,0.866026,0.139906,-0.00739098,0,-0.0242889,0.0272936,2.44636,5,0.1,4,2.8,-1.98424,-2.50185,0.746882,0.0660628,-0.00953078,0.00602603,-0.13274,0.0691414,-0.0121295,0.0152621,1.91058,5,0.1,5,2.8,3.41773,-0.474679,0.607575,-0.533938,0.225728,-0.00418574,-1.18721,0.00311434,0.00715256,0.00884259,2.47705,5,0.1,6,2.8,-2.17761,1.50045,0.500016,0.371116,0.00689328,-8.49366e-05,-0.152111,0.0553131,0.000238419,0.0101527,0.0831507,5,0.1,7,2.8,1.59542,-3.09569,0.634355,-0.326538,0.121248,0.0120059,0.18847,-0.074625,-0.00742078,0.0103418,0.055078,5,0.1,8,2.8,-3.60528,-1.94076,0.818091,0.261426,0.256246,0.235651,0.19753,-0.858009,0.163555,0.0167149,3.24629,5,0.1,9,2.8,-0.81423,0.196475,0.604168,0.532703,0.0123315,-0.00428855,-0.608236,-0.168167,0.00241399,0.00819471,0.155693,5,0.1,10,2.8,-2.11933,0.0985975,1.28316,-0.120741,0.017887,0.0736803,0.0929832,-0.151936,-0.105202,0.00740667,0.427446,5,0.1,11,2.8,-1.4407,4.05257,0.586084,0.859731,-0.260592,-0.00299215,-0.125825,0.160217,-0.112176,0.0180624,0.870534,5,0.1,12,2.8,-0.619652,-0.872164,0.614866,-0.464295,-0.86097,-0.011909,-0.152558,0.101089,0.00655651,0.0085051,1.12336,5,0.1,13,2.8,-1.78947,-3.14253,0.930283,-0.0426799,0.861478,0.156166,0.121415,-0.0910759,0.00795722,0.0203947,2.35182,5,0.1,14,2.8,-0.0715464,3.63199,0.610528,-0.519405,0.373566,0.00337958,0.0359344,-0.419378,0.0230372,0.00648574,1.95155,5,0.1,15,2.8,4.47647,-3.70084,0.983868,0.0569582,-0.00648499,0.175218,-0.0810623,-0.0349283,-0.326335,0.0256444,1.63106,5,0.1,16,2.8,-1.84406,1.70301,0.624362,0.365844,0.162053,0.0949934,-0.133097,0.193775,0.0686646,0.034765,0.301609,5,0.1,17,2.8,-4.49895,-2.69963,0.555788,-0.137091,-0.0250816,0.00453591,0.266552,0.0488758,-0.00882149,0.00758713,0.000810702,5,0.1,18,2.8,4.3,0.174418,0.600694,0,-0.0645593,-0.00481158,0,0.148691,0.010103,0.00867912,1.84635,5,0.1,19,2.8,4.14115,-4.19163,0.604736,0.371373,-0.36608,-0.0106007,-0.843287,-0.566959,0.00196695,0.00708217,0.836425,5,0.1
0,2.9,3.63242,-1.08266,0.600664,-0.0825528,0.5759,-0.000652019,0.034973,-0.337534,0.000629574,0.0221559,0.177591,5,0.1,1,2.9,0.260641,0.60208,0.500001,0.0316755,0.580155,-7.82311e-06,-0.0908542,0.20542,8.19564e-05,0.0100702,0.450479,5,0.1,2,2.9,-0.0273388,-2.47233,0.697771,0.0896156,-0.863197,-0.0105432,0.096182,-0.0943393,-0.0251792,0.00795762,2.29154,5,0.1,3,2.9,4.05171,-2.3669,0.987127,-0.0404395,0.847381,0.139045,-0.00962615,-0.366569,-0.00153482,0.0272936,2.44636,5,0.1,4,2.9,-1.97826,-2.50237,0.747427,0.0538247,0.00270829,0.00490798,-0.112839,0.270069,-0.0103079,0.0152621,1.91058,5,0.1,5,2.9,3.35803,-0.452033,0.607188,-0.661733,0.227436,-0.00357982,-1.28745,0.0183135,0.0051558,0.00884259,2.47705,5,0.1,6,2.9,-2.14114,1.50135,0.500009,0.359249,0.0107374,-5.96978e-05,-0.103623,0.0232458,0.000257045,0.0101527,0.0831507,5,0.1,7,2.9,1.56357,-3.08388,0.635524,-0.311614,0.11533,0.0114204,0.127256,-0.0501722,-0.00493228,0.0103418,0.055078,5,0.1,8,2.9,-3.57815,-1.91878,0.842474,0.28081,0.192156,0.251644,0.173569,-0.332728,0.141896,0.0167149,3.24629,5,0.1,9,2.9,-0.76356,0.196891,0.60375,0.48431,-0.00367744,-0.00409083,-0.390396,-0.148877,0.00173971,0.00819471,0.155693,5,0.1,10,2.9,-2.13097,0.0996708,1.29004,-0.112141,0.00418037,0.0642445,0.0826567,-0.116214,-0.085637,0.00740667,0.427446,5,0.1,11,2.9,-1.35518,4.02726,0.585637,0.851288,-0.245818,-0.00237059,-0.0844821,0.143886,0.102036,0.0180624,0.870534,5,0.1,12,2.9,-0.666812,-0.958,0.613706,-0.478039,-0.856998,-0.0113249,-0.10116,0.0250824,0.00558048,0.0085051,1.12336,5,0.1,13,2.9,-1.79278,-3.05679,0.946147,-0.0207128,0.853052,0.162687,0.293978,-0.112399,0.102893,0.0203947,2.35182,5,0.1,14,2.9,-0.122588,3.66726,0.610977,-0.494917,0.334558,0.00554128,0.427271,-0.272229,0.0196286,0.00648574,1.95155,5,0.1,15,2.9,4.48176,-3.70182,0.999807,0.048852,-0.0132371,0.144048,-0.0808835,-0.0541955,-0.2972,0.0256444,1.63106,5,0.1,16,2.9,-1.80791,1.71959,0.63399,0.358814,0.164316,0.0955964,-0.0326261,-0.123575,-0.0489131,0.034765,0.301609,5,0.1,17,2.9,-4.51136,-2.7019,0.556198,-0.111426,-0.0203796,0.00368664,0.246167,0.0450909,-0.00814721,0.00758713,0.000810702,5,0.1,18,2.9,4.29849,0.168667,0.600262,-0.0429705,-0.0508419,-0.00383276,-0.763893,0.12615,0.00942498,0.00867912,1.84635,5,0.1,19,2.9,4.17419,-4.23016,0.603693,0.291372,-0.396275,-0.0101912,-0.72971,-0.0631511,0.00615045,0.00708217,0.836425,5,0.1
0,3,3.62444,-1.02684,0.600602,-0.0761867,0.539246,-0.000590086,0.0884533,-0.408262,0.000625849,0.0209149,0.117876,5,0.1,1,3,0.263278,0.660845,0.5,0.0204839,0.591844,-1.49012e-06,-0.125915,0.00843406,2.98023e-05,0.0088474,0.315172,5,0.1,2,3,-0.0179286,-2.55886,0.696598,0.0981044,-0.866026,-0.0127971,0.0673342,0,-0.0189245,0.00918058,2.26374,5,0.1,3,3,4.04763,-2.28455,1.001,-0.0409722,0.79419,0.138125,0.000238419,-0.688791,-0.0230074,0.0234368,2.86495,5,0.1,4,3,-1.97342,-2.5,0.747869,0.0433505,0.052017,0.00395179,-0.0972152,0.696778,-0.00891089,0.014949,1.6625,5,0.1,5,3,3.2858,-0.429258,0.606854,-0.777519,0.227228,-0.0031203,-0.970602,-0.0313818,0.00414252,0.00905992,2.30371,5,0.1,6,3,-2.10577,1.5025,0.500004,0.347263,0.0118583,-3.57628e-05,-0.149131,0.000596046,0.000208616,0.0135468,0.152797,5,0.1,7,3,1.53306,-3.0726,0.636641,-0.298145,0.110114,0.0109106,0.154257,-0.0588894,-0.00578165,0.00967152,0.0251519,5,0.1,8,3,-3.54935,-1.9,0.868216,0.29335,0.195318,0.261609,0.0660419,0.360966,0.0475645,0.0147126,2.95287,5,0.1,9,3,-0.716928,0.195832,0.60335,0.449264,-0.0169192,-0.00390559,-0.333458,-0.113845,0.00211596,0.0106322,0.406416,5,0.1,10,3,-2.14176,0.099604,1.29606,-0.103593,-0.0044765,0.0561833,0.0908375,-0.0541136,-0.077188,0.00821329,0.621828,5,0.1,11,3,-1.27069,4.00343,0.586111,0.835821,-0.230372,0.0133768,-0.253618,0.171185,0.195086,0.0157735,0.696496,5,0.1,12,3,-0.714896,-1.04339,0.612602,-0.481005,-0.848007,-0.0107169,0.0558794,0.187576,0.00688434,0.0091695,0.792787,5,0.1,13,3,-1.79326,-2.97231,0.962955,0.0118673,0.833142,0.173336,0.339031,-0.309229,0.095576,0.0188206,2.43214,5,0.1,14,3,-0.16948,3.7,0.61162,-0.438873,0.326592,0.00721067,0.670955,0.0991821,0.013411,0.00730003,1.69158,5,0.1,15,3,4.48624,-3.70317,1.01277,0.0408292,-0.0107467,0.115761,-0.0793934,0.12362,-0.268638,0.0244103,2.77116,5,0.1,16,3,-1.77219,1.73505,0.643163,0.354987,0.141889,0.0866368,-0.0620484,-0.304461,-0.123709,0.0350091,0.518122,5,0.1,17,3,-4.52131,-2.70372,0.556527,-0.0879645,-0.0160813,0.0029102,0.22316,0.0406504,-0.00739098,0.00863158,0.000681483,5,0.1,18,3,4.28976,0.16418,0.599924,-0.135803,-0.039237,-0.00293702,-1.01852,0.106379,0.00849366,0.00858392,1.51478,5,0.1,19,3,4.2,-4.26946,0.602711,0.228047,-0.383651,-0.00938922,-0.537395,0.292778,0.00980496,0.0066649,0.769141,5,0.1
0,3.1,3.61734,-0.974855,0.600546,-0.0653364,0.501191,-0.000533462,0.124454,-0.368621,0.000528991,0.0209149,0.117876,5,0.1,1,3.1,0.264641,0.72007,0.5,0.00636177,0.592033,9.31323e-07,-0.149932,-0.0284612,1.49012e-05,0.0088474,0.315172,5,0.1,2,3.1,-0.00774877,-2.64546,0.695222,0.105612,-0.866026,-0.0147217,0.0747906,0,-0.0183471,0.00918058,2.26374,5,0.1,3,3.1,4.04352,-2.20947,1.01476,-0.0412501,0.700207,0.137336,-0.00342727,-1.13001,-0.0012219,0.0234368,2.86495,5,0.1,4,3.1,-1.96954,-2.49039,0.748223,0.0345541,0.147478,0.00314582,-0.0794753,1.13051,-0.00727177,0.014949,1.6625,5,0.1,5,3.1,3.20413,-0.406624,0.60656,-0.846615,0.2258,-0.00278875,-0.421152,-0.00955164,0.00267476,0.00905992,2.30371,5,0.1,6,3.1,-2.07148,1.50366,0.500001,0.341031,0.0111302,-1.73226e-05,-0.00490248,-0.0139251,0.000156462,0.0135468,0.152797,5,0.1,7,3.1,1.50399,-3.06187,0.637704,-0.283159,0.104444,0.0103555,0.154585,-0.0579357,-0.00566617,0.00967152,0.0251519,5,0.1,8,3.1,-3.51967,-1.87723,0.894629,0.300022,0.27155,0.266461,0.0527203,1.05458,0.0366792,0.0147126,2.95287,5,0.1,9,3.1,-0.673182,0.193631,0.602971,0.429532,-0.0264932,-0.00367137,-0.0996627,-0.0772756,0.00261143,0.0106322,0.406416,5,0.1,10,3.1,-2.15169,0.0988641,1.30132,-0.0952318,-0.0099065,0.0493145,0.079453,-0.0306703,-0.0619516,0.00821329,0.621828,5,0.1,11,3.1,-1.18825,3.98135,0.588746,0.813327,-0.21013,0.0418711,-0.229746,0.230923,0.347983,0.0157735,0.696496,5,0.1,12,3.1,-0.762713,-1.1274,0.611563,-0.474842,-0.832724,-0.0100911,0.0846051,0.155561,0.00600517,0.0091695,0.792787,5,0.1,13,3.1,-1.79026,-2.89017,0.980898,0.0488715,0.81238,0.186386,0.382729,-0.153795,0.147253,0.0188206,2.43214,5,0.1,14,3.1,-0.209654,3.73404,0.612404,-0.361841,0.361283,0.00842027,0.837439,0.522599,0.010334,0.00730003,1.69158,5,0.1,15,3.1,4.48994,-3.70351,1.02307,0.0332527,0.00813492,0.0908112,-0.0720918,0.363603,-0.230841,0.0244103,2.77116,5,0.1,16,3.1,-1.73657,1.74748,0.651126,0.360762,0.104938,0.0719332,0.137925,-0.416271,-0.164848,0.0350091,0.518122,5,0.1,17,3.1,-4.52903,-2.70514,0.556783,-0.0669532,-0.0122517,0.00221441,0.196427,0.0358224,-0.00650063,0.00863158,0.000681483,5,0.1,18,3.1,4.27052,0.160753,0.599671,-0.25264,-0.0296232,-0.00214195,-1.24636,0.0864016,0.0073798,0.00858392,1.51478,5,0.1,19,3.1,4.22049,-4.30576,0.601825,0.184971,-0.337558,-0.00829762,-0.340164,0.589401,0.011865,0.0066649,0.769141,5,0.1
0,3.2,3.61145,-0.926618,0.600495,-0.0520408,0.462867,-0.000482798,0.138044,-0.40862,0.000536442,0.0225554,0.179659,5,0.1,1,3.2,0.264532,0.778911,0.5,-0.00834912,0.582184,2.98023e-06,-0.139371,-0.184357,-2.98023e-05,0.00907012,0.209041,5,0.1,2,3.2,0.00314472,-2.73207,0.693667,0.111693,-0.866026,-0.0162587,0.0411622,0,-0.0115633,0.00823875,2.26243,5,0.1,3,3.2,4.03939,-2.14542,1.02847,-0.0412464,0.578701,0.136435,0.00524521,-1.25599,-0.0228286,0.0250246,3.20325,5,0.1,4,3.2,-1.96645,-2.46982,0.748503,0.0273198,0.263721,0.00248402,-0.0658035,1.13261,-0.00602007,0.0136776,1.34651,5,0.1,5,3.2,3.11815,-0.384139,0.606293,-0.866026,0.22321,-0.00255555,0,-0.050962,0.00217557,0.00849254,2.24156,5,0.1,6,3.2,-2.03736,1.50469,0.5,0.341183,0.00929832,-5.96046e-06,-0.0135899,-0.0216365,8.9407e-05,0.00999552,0.0946022,5,0.1,7,3.2,1.47651,-3.05174,0.638709,-0.26572,0.0979543,0.00972003,0.200152,-0.0741482,-0.00724196,0.00832923,0.0153075,5,0.1,8,3.2,-3.48953,-1.8444,0.921355,0.301427,0.387013,0.266798,-0.0343323,1.17153,-0.0386238,0.0151971,2.58569,5,0.1,9,3.2,-0.630601,0.190658,0.602618,0.422618,-0.0323437,-0.00337511,-0.0673234,-0.0397637,0.00330806,0.0104069,0.377234,5,0.1,10,3.2,-2.16082,0.0978998,1.30596,-0.0871837,-0.00731722,0.0434816,0.0834465,0.0915751,-0.0559092,0.00654255,1.09643,5,0.1,11,3.2,-1.10825,3.96157,0.594744,0.784233,-0.184739,0.0782549,-0.375032,0.274181,0.359327,0.0151016,0.499185,5,0.1,12,3.2,-0.809612,-1.20969,0.610585,-0.461222,-0.810567,-0.0094533,0.199199,0.313401,0.00700355,0.00968989,0.545748,5,0.1,13,3.2,-1.78351,-2.80976,1.00024,0.0852376,0.794184,0.199661,0.331163,-0.244141,0.104964,0.0179352,2.43929,5,0.1,14,3.2,-0.241593,3.77299,0.61329,-0.276946,0.418472,0.00920445,0.837125,0.566959,0.0050962,0.00748248,1.41074,5,0.1,15,3.2,4.49292,-3.7,1.03106,0.0264168,0.0705361,0.069499,-0.0646114,0.860691,-0.195861,0.0239018,3.18419,5,0.1,16,3.2,-1.69974,1.75584,0.657465,0.375676,0.0618786,0.0546575,0.130951,-0.430763,-0.176251,0.0335192,0.405376,5,0.1,17,3.2,-4.53479,-2.70619,0.556974,-0.0487685,-0.00893474,0.0016138,0.166416,0.0303984,-0.00554323,0.00856084,0.000518938,5,0.1,18,3.2,4.23914,0.158193,0.599492,-0.372589,-0.0218607,-0.00146627,-1.09959,0.0693053,0.00613928,0.00772995,1.19847,5,0.1,19,3.2,4.2375,-4.33635,0.601057,0.157154,-0.272644,-0.00704825,-0.228643,0.679731,0.012964,0.00637477,0.727733,5,0.1
0,3.3,3.60694,-0.882031,0.600449,-0.0382699,0.43158,-0.000441447,0.134647,-0.245027,0.000320375,0.0225554,0.179659,5,0.1,1,3.3,0.263151,0.836238,0.5,-0.0178854,0.564148,5.58794e-07,-0.056291,-0.195894,-1.49012e-05,0.00907012,0.209041,5,0.1,2,3.3,0.0145498,-2.81867,0.691981,0.116512,-0.866026,-0.0174564,0.0476177,0,-0.0112392,0.00823875,2.26243,5,0.1,3,3.3,4.03528,-2.09408,1.04205,-0.0410713,0.447754,0.135576,0.000625849,-1.27725,-0.00254065,0.0250246,3.20325,5,0.1,4,3.3,-1.96403,-2.43752,0.748724,0.0214702,0.383449,0.00194935,-0.0518486,1.19993,-0.00473484,0.0136776,1.34651,5,0.1,5,3.3,3.03155,-0.361995,0.606046,-0.866026,0.220148,-0.00239909,0,-0.0225846,0.00113249,0.00849254,2.24156,5,0.1,6,3.3,-2.00322,1.5055,0.5,0.34207,0.00688899,-1.86265e-07,0.0121742,-0.0256971,3.72529e-05,0.00999552,0.0946022,5,0.1,7,3.3,1.45091,-3.0423,0.639646,-0.246227,0.0907626,0.00901734,0.196852,-0.0723749,-0.00708178,0.00832923,0.0153075,5,0.1,8,3.3,-3.45952,-1.79927,0.947876,0.298772,0.519158,0.263678,-0.032112,1.38396,-0.0354461,0.0151971,2.58569,5,0.1,9,3.3,-0.588434,0.187528,0.602296,0.422368,-0.0276538,-0.00304841,0.0322498,0.116951,0.0032708,0.0104069,0.377234,5,0.1,10,3.3,-2.16914,0.0976917,1.31005,-0.0795405,0.00573759,0.0385342,0.0719577,0.238218,-0.0445023,0.00654255,1.09643,5,0.1,11,3.3,-1.03158,3.94454,0.604464,0.7496,-0.155426,0.116614,-0.345036,0.30683,0.387568,0.0151016,0.499185,5,0.1,12,3.3,-0.854769,-1.28931,0.609672,-0.441845,-0.782077,-0.00881227,0.202607,0.28684,0.00612065,0.00968989,0.545748,5,0.1,13,3.3,-1.77353,-2.73103,1.02073,0.112351,0.784449,0.209852,0.210181,-0.00414252,0.087738,0.0179352,2.43929,5,0.1,14,3.3,-0.265166,3.81801,0.614233,-0.195954,0.483801,0.00962615,0.752912,0.6845,0.00298023,0.00748248,1.41074,5,0.1,15,3.3,4.49525,-3.68729,1.03709,0.0204153,0.194372,0.0516899,-0.0554621,1.50138,-0.160888,0.0239018,3.18419,5,0.1,16,3.3,-1.66133,1.75983,0.662038,0.393574,0.0178197,0.0367734,0.196248,-0.436969,-0.177484,0.0335192,0.405376,5,0.1,17,3.3,-4.53888,-2.70694,0.557109,-0.0334881,-0.00614226,0.00110548,0.138849,0.0253916,-0.00461191,0.00856084,0.000518938,5,0.1,18,3.3,4.19628,0.156327,0.599374,-0.484154,-0.015725,-0.00090627,-1.07694,0.0538668,0.00504032,0.00772995,1.19847,5,0.1,19,3.3,4.2521,-4.36012,0.600416,0.134955,-0.202975,-0.00575976,-0.216067,0.671893,0.012707,0.00637477,0.727733,5,0.1
0,3.4,3.60376,-0.840016,0.600406,-0.0255704,0.409025,-0.000414252,0.117302,-0.226527,0.000298023,0.0216602,0.437078,5,0.1,1,3.4,0.261185,0.891524,0.5,-0.0205196,0.539751,0,-0.000581145,-0.305057,-2.98023e-05,0.00789362,0.139946,5,0.1,2,3.4,0.0263987,-2.90527,0.690188,0.119923,-0.866026,-0.018312,0.0152802,0,-0.00506639,0.00855425,2.26185,5,0.1,3,3.4,4.03118,-2.0552,1.05557,-0.0407219,0.336015,0.134525,0.00786781,-0.915647,-0.0241995,0.0246656,3.27851,5,0.1,4,3.4,-1.96212,-2.39348,0.748897,0.0168294,0.493056,0.00152588,-0.0414252,0.947714,-0.00378489,0.0140338,1.03114,5,0.1,5,3.4,2.94494,-0.340128,0.605812,-0.866026,0.216594,-0.00229925,0,-0.0571758,0.000983477,0.00813156,2.24332,5,0.1,6,3.4,-1.96904,1.50606,0.5,0.340369,0.00430942,1.49012e-06,-0.059545,-0.0251532,0,0.0105533,0.164078,5,0.1,7,3.4,1.42731,-3.0336,0.640511,-0.225201,0.0830472,0.0082612,0.227869,-0.0836849,-0.00825524,0.00903517,0.0048991,5,0.1,8,3.4,-3.42989,-1.74067,0.973994,0.292754,0.648698,0.257744,-0.0972748,1.14322,-0.0911951,0.0147039,2.32103,5,0.1,9,3.4,-0.546074,0.185492,0.602008,0.423893,-0.0119299,-0.0027135,-0.0234544,0.184372,0.00345707,0.0095025,0.388598,5,0.1,10,3.4,-2.17674,0.1,1.31369,-0.0723541,0.0456991,0.0343293,0.0734329,0.546042,-0.04071,0.00861422,1.57453,5,0.1,11,3.4,-0.958478,3.93055,0.617973,0.710618,-0.124329,0.152279,-0.453234,0.310898,0.311136,0.015687,0.373585,5,0.1,12,3.4,-0.89784,-1.36592,0.608822,-0.418325,-0.748074,-0.00817776,0.277251,0.414014,0.00682473,0.00789577,0.36957,5,0.1,13,3.4,-1.76145,-2.65257,1.04205,0.127217,0.783926,0.21534,0.0876188,-0.0469685,0.0144839,0.018763,2.46855,5,0.1,14,3.4,-0.281319,3.86964,0.615205,-0.130726,0.545883,0.00974238,0.537828,0.517368,-0.00089407,0.00656906,1.15433,5,0.1,15,3.4,4.49703,-3.66006,1.04151,0.0153184,0.350654,0.0372052,-0.0469685,1.53744,-0.129342,0.02379,1.91156,5,0.1,16,3.4,-1.62109,1.75951,0.664852,0.409654,-0.0231922,0.0198469,0.103474,-0.373423,-0.158131,0.0361362,0.303878,5,0.1,17,3.4,-4.54159,-2.70744,0.557198,-0.0210404,-0.00386834,0.000692904,0.109673,0.0200272,-0.00366569,0.00735623,0.000306938,5,0.1,18,3.4,4.14289,0.155001,0.599307,-0.578666,-0.0110008,-0.000458956,-0.774622,0.0410303,0.0038743,0.00857867,0.327972,5,0.1,19,3.4,4.26453,-4.37733,0.599903,0.113833,-0.144494,-0.00452697,-0.206947,0.477791,0.0119209,0.00708897,0.642821,5,0.1
0,3.5,3.60175,-0.799963,0.600366,-0.0151481,0.394171,-0.000385288,0.0908524,-0.0978634,0.000294298,0.0216602,0.437078,5,0.1,1,3.5,0.259201,0.944037,0.5,-0.0185364,0.510716,-1.39698e-06,0.0365954,-0.291873,-3.72529e-06,0.00789362,0.139946,5,0.1,2,3.5,0.0385001,-2.99187,0.688328,0.122243,-0.866026,-0.0188968,0.0238029,0,-0.00552461,0.00855425,2.26185,5,0.1,3,3.5,4.02714,-2.02561,1.06895,-0.040289,0.264385,0.133397,0.00301003,-0.415474,-0.00612438,0.0246656,3.27851,5,0.1,4,3.5,-1.96063,-2.33945,0.749032,0.0132151,0.586182,0.001196,-0.0314116,0.867113,-0.00286102,0.0140338,1.03114,5,0.1,5,3.5,2.85834,-0.318671,0.605585,-0.866026,0.213067,-0.00224505,0,-0.0255313,0.000268221,0.00813156,2.24332,5,0.1,6,3.5,-1.93501,1.50637,0.5,0.342079,0.00182819,1.39698e-06,0.0639856,-0.0239089,-3.72529e-06,0.0105533,0.164078,5,0.1,7,3.5,1.40594,-3.02572,0.641296,-0.202233,0.0746239,0.00742991,0.233881,-0.0857264,-0.00846386,0.00903517,0.0048991,5,0.1,8,3.5,-3.40103,-1.67027,0.99937,0.284604,0.756258,0.250063,-0.0784695,0.957385,-0.0735633,0.0147039,2.32103,5,0.1,9,3.5,-0.503682,0.185153,0.601753,0.424529,0.00443687,-0.0023854,0.0124052,0.142524,0.00314787,0.0095025,0.388598,5,0.1,10,3.5,-2.18363,0.108296,1.31693,-0.0656601,0.128111,0.0307385,0.06257,1.02088,-0.0323057,0.00861422,1.57453,5,0.1,11,3.5,-0.889554,3.91965,0.634757,0.668558,-0.0940032,0.182996,-0.410628,0.292242,0.287618,0.015687,0.373585,5,0.1,12,3.5,-0.938344,-1.43878,0.608036,-0.39204,-0.70973,-0.00755303,0.260375,0.377908,0.00592321,0.00789577,0.36957,5,0.1,13,3.5,-1.74876,-2.57513,1.06355,0.122358,0.761527,0.213527,-0.162721,-0.265211,-0.0530556,0.018763,2.46855,5,0.1,14,3.5,-0.292058,3.92631,0.616174,-0.0883731,0.582898,0.00961395,0.282764,0.22994,-0.00197068,0.00656906,1.15433,5,0.1,15,3.5,4.49834,-3.61716,1.04463,0.0110611,0.507053,0.0257066,-0.0382662,1.52029,-0.101216,0.02379,1.91156,5,0.1,16,3.5,-1.57954,1.75535,0.666065,0.421608,-0.0592146,0.00465699,0.111423,-0.336945,-0.14279,0.0361362,0.303878,5,0.1,17,3.5,-4.54318,-2.70773,0.55725,-0.0112876,-0.00208691,0.000367593,0.0854135,0.0156164,-0.00283495,0.00735623,0.000306938,5,0.1,18,3.5,4.08168,0.154087,0.599279,-0.639699,-0.00745587,-0.000114646,-0.433177,0.0302503,0.00300631,0.00857867,0.327972,5,0.1,19,3.5,4.27486,-4.38972,0.599508,0.0928625,-0.107738,-0.0033943,-0.209987,0.216693,0.0106767,0.00708897,0.642821,5,0.1
0,3.6,3.60064,-0.761006,0.600329,-0.00742078,0.38473,-0.000354648,0.0636578,-0.110835,0.000357628,0.0200393,1.2819,5,0.1,1,3.6,0.257567,0.993564,0.5,-0.0138588,0.478663,-1.49012e-06,0.0540167,-0.360042,0,0.0095776,0.161374,5,0.1,2,3.6,0.0508085,-3.07848,0.686417,0.12344,-0.866026,-0.0192285,-0.00498995,0,-0.000298023,0.0101718,2.26183,5,0.1,3,3.6,4.02313,-2,1.08224,-0.0397205,0.259724,0.131974,0.00953674,0.288844,-0.027895,0.0219755,2.99618,5,0.1,4,3.6,-1.95945,-2.27695,0.749139,0.0104457,0.658429,0.000943244,-0.0243187,0.545025,-0.00217557,0.0136566,1.27292,5,0.1,5,3.6,2.77174,-0.297522,0.605362,-0.866026,0.209407,-0.00221729,0,-0.0562668,0.00038743,0.00772463,2.24503,5,0.1,6,3.6,-1.90048,1.50644,0.5,0.348026,-0.000378489,0,0.0332594,-0.0197887,2.98023e-05,0.0124075,0.101243,5,0.1,7,3.6,1.38691,-3.01869,0.641995,-0.178075,0.0657737,0.00655502,0.250459,-0.0919104,-0.00911951,0.00995483,0.00146105,5,0.1,8,3.6,-3.37302,-1.59048,1.02396,0.274903,0.832316,0.241145,-0.124216,0.535786,-0.112534,0.0124742,2.10128,5,0.1,9,3.6,-0.461267,0.186237,0.60153,0.422332,0.0165224,-0.00207573,-0.0729859,0.0991076,0.00301003,0.0103145,0.876497,5,0.1,10,3.6,-2.18989,0.126444,1.31985,-0.0594795,0.23556,0.0276595,0.0627041,1.06627,-0.03016,0.00778834,1.27952,5,0.1,11,3.6,-0.824832,3.91165,0.654351,0.624681,-0.0664592,0.207171,-0.48238,0.256062,0.185162,0.0129273,0.331857,5,0.1,12,3.6,-0.976195,-1.50776,0.607311,-0.364253,-0.668281,-0.00695139,0.303358,0.468135,0.00634789,0.01015,0.24804,5,0.1,13,3.6,-1.7376,-2.5,1.08451,0.0986725,0.744385,0.20442,-0.293076,-0.0782013,-0.129998,0.0199667,2.42453,5,0.1,14,3.6,-0.3,3.98532,0.617121,-0.0753827,0.592875,0.00929832,-0.00858307,-0.0271797,-0.00447035,0.00740719,0.930039,5,0.1,15,3.6,4.49927,-3.55936,1.04674,0.00764132,0.642717,0.0168443,-0.0302792,1.14346,-0.0766516,0.0238682,1.43954,5,0.1,16,3.6,-1.53697,1.74788,0.665861,0.427839,-0.0888824,-0.00822693,-0.00357628,-0.249505,-0.112921,0.0331647,0.348843,5,0.1,17,3.6,-4.54392,-2.70787,0.557274,-0.00395775,-0.000739098,0.00012368,0.0617504,0.0110865,-0.00202656,0.00819758,0.000139216,5,0.1,18,3.6,4.0162,0.153478,0.599281,-0.663435,-0.00487827,0.000140071,-0.035882,0.0216365,0.00211596,0.0102809,0.662801,5,0.1,19,3.6,4.28311,-4.4,0.599219,0.0722885,-0.103545,-0.00240207,-0.199795,-0.11611,0.00911951,0.00791122,0.579526,5,0.1
0,3.7,3.60029,-0.722622,0.600295,0.000589341,0.38655,-0.000320934,0.0837147,0.105884,0.000320375,0.0200393,1.2819,5,0.1,1,3.7,0.256513,1.03996,0.5,-0.00673188,0.451814,-4.65661e-07,0.0834949,-0.206131,1.11759e-05,0.0095776,0.161374,5,0.1,2,3.7,0.063164,-3.16508,0.684488,0.123853,-0.866026,-0.0193746,0.00617165,0,-0.001546,0.0101718,2.26183,5,0.1,3,3.7,4.01919,-1.9711,1.09534,-0.0391066,0.330198,0.130363,0.00488758,1.00794,-0.0116155,0.0219755,2.99618,5,0.1,4,3.7,-1.95851,-2.20816,0.749223,0.00836849,0.718288,0.000757631,-0.0176728,0.594884,-0.0015758,0.0136566,1.27292,5,0.1,5,3.7,2.68513,-0.276778,0.605141,-0.866026,0.205994,-0.00221143,0,-0.0239275,-0.000115484,0.00772463,2.24503,5,0.1,6,3.7,-1.86545,1.50631,0.500001,0.352825,-0.00221413,1.39698e-06,0.0434965,-0.0165924,3.72529e-06,0.0124075,0.101243,5,0.1,7,3.7,1.37035,-3.01257,0.642606,-0.153183,0.0566408,0.00564875,0.247419,-0.0907779,-0.00901148,0.00995483,0.00146105,5,0.1,8,3.7,-3.34608,-1.50541,1.04758,0.264432,0.862189,0.231645,-0.0971556,0.118874,-0.0879243,0.0124742,2.10128,5,0.1,9,3.7,-0.419329,0.188183,0.601337,0.416631,0.0208029,-0.00179568,-0.0600498,0.00231527,0.00262633,0.0103145,0.876497,5,0.1,10,3.7,-2.19554,0.155627,1.32248,-0.0537898,0.349528,0.0249999,0.0528544,1.15281,-0.0240132,0.00778834,1.27952,5,0.1,11,3.7,-0.764639,3.90621,0.675967,0.58005,-0.0431858,0.224566,-0.429079,0.20811,0.150517,0.0129273,0.331857,5,0.1,12,3.7,-1.01118,-1.57238,0.606645,-0.335911,-0.624901,-0.00637192,0.273503,0.420243,0.00545382,0.01015,0.24804,5,0.1,13,3.7,-1.72918,-2.42512,1.10439,0.0701694,0.759528,0.193833,-0.273488,0.301138,-0.0915527,0.0199667,2.42453,5,0.1,14,3.7,-0.308116,4.04387,0.618029,-0.0913281,0.574332,0.0088512,-0.273338,-0.263453,-0.00471994,0.00740719,0.930039,5,0.1,15,3.7,4.49989,-3.48952,1.04807,0.00495836,0.751045,0.0102004,-0.023514,0.972301,-0.0567362,0.0238682,1.43954,5,0.1,16,3.7,-1.49401,1.73779,0.6645,0.432561,-0.112016,-0.0186942,0.0687689,-0.205413,-0.0942685,0.0331647,0.348843,5,0.1,17,3.7,-4.54404,-2.70789,0.557277,0.00126362,0.000201166,-4.72181e-05,0.0429749,0.0077486,-0.00140443,0.00819758,0.000139216,5,0.1,18,3.7,3.94946,0.153086,0.599305,-0.672406,-0.00307336,0.000321493,-0.102401,0.0147689,0.00150502,0.0102809,0.662801,5,0.1,19,3.7,4.28937,-4.41109,0.599023,0.0532761,-0.119419,-0.00155997,-0.178993,-0.183791,0.00768155,0.00791122,0.579526,5,0.1
0,3.8,3.60072,-0.683359,0.600265,0.00728369,0.398704,-0.000289083,0.0424385,0.106454,0.000327826,0.0199918,3.58163,5,0.1,1,3.8,0.256272,1.08417,0.5,0.00195354,0.432384,1.49012e-06,0.0863671,-0.203788,-2.98023e-05,0.0108447,0.0961383,5,0.1,2,3.8,0.0755512,-3.25168,0.682548,0.12347,-0.866026,-0.0193536,-0.0188015,0,0.00271201,0.00757814,2.18046,5,0.1,3,3.8,4.01531,-1.93262,1.1083,-0.0383973,0.441459,0.128406,0.0114441,1.1313,-0.0326037,0.0219517,2.61524,5,0.1,4,3.8,-1.95776,-2.13366,0.749292,0.00683069,0.767642,0.000619888,-0.0133514,0.351667,-0.00119209,0.018173,0.345992,5,0.1,5,3.8,2.59853,-0.256325,0.604919,-0.866026,0.202578,-0.00221431,0,-0.052914,0.000178814,0.0127577,2.24662,5,0.1,6,3.8,-1.83006,1.50601,0.500001,0.35347,-0.00363886,0,-0.0437498,-0.0117421,0,0.0108866,0.0820819,5,0.1,7,3.8,1.35626,-3.00736,0.643126,-0.128618,0.0476241,0.00475347,0.243664,-0.0895262,-0.00891089,0.00956507,0.000770555,5,0.1,8,3.8,-3.32015,-1.4189,1.07028,0.253445,0.866026,0.221786,-0.130892,-5.96046e-05,-0.116646,0.0192661,1.62372,5,0.1,9,3.8,-0.378072,0.190218,0.60117,0.407109,0.0196051,-0.00154525,-0.143468,-0.015907,0.00247359,0.0102126,1.84266,5,0.1,10,3.8,-2.20066,0.19608,1.32486,-0.0486016,0.455733,0.0226885,0.0522137,0.927672,-0.023067,0.00988867,0.165492,5,0.1,11,3.8,-0.708817,3.90285,0.699037,0.535685,-0.0250101,0.235234,-0.471205,0.154972,0.0546873,0.0132503,0.212198,5,0.1,12,3.8,-1.04339,-1.63271,0.606035,-0.307861,-0.580734,-0.00582486,0.294387,0.477254,0.00566244,0.00826082,0.165943,5,0.1,13,3.8,-1.72347,-2.34757,1.12331,0.0445724,0.790709,0.184429,-0.235915,0.263691,-0.103474,0.0256277,2.32685,5,0.1,14,3.8,-0.318801,4.1,0.618889,-0.123511,0.548768,0.00831336,-0.341892,-0.241995,-0.00622869,0.00860352,0.72933,5,0.1,15,3.8,4.50028,-3.41018,1.04884,0.00292063,0.828773,0.00539422,-0.0174046,0.54872,-0.0397563,0.0248166,0.79358,5,0.1,16,3.8,-1.45048,1.72569,0.662204,0.436586,-0.128683,-0.0267282,-0.00917912,-0.122726,-0.0649691,0.0357697,0.400826,5,0.1,17,3.8,-4.54373,-2.70784,0.557267,0.00469685,0.000822544,-0.000159442,0.0257492,0.00476837,-0.000804663,0.00825562,4.70713e-05,5,0.1,18,3.8,3.88187,0.152843,0.599343,-0.676906,-0.00186786,0.000441074,0.0412464,0.0096187,0.000864267,0.0102538,1.52844,5,0.1,19,3.8,4.29385,-4.42395,0.598902,0.0367284,-0.137246,-0.000870228,-0.151396,-0.15974,0.00607967,0.00639964,0.375284,5,0.1
0,3.9,3.60192,-0.642801,0.600237,0.017653,0.413277,-0.000258349,0.0957996,0.156004,0.000290573,0.0199918,3.58163,5,0.1,1,3.9,0.256908,1.12651,0.5,0.0107727,0.415249,0,0.0867154,-0.157997,-7.45058e-06,0.0108447,0.0961383,5,0.1,2,3.9,0.0878405,-3.33828,0.680621,0.122507,-0.866026,-0.0192123,-0.00709947,0,0.00113249,0.00757814,2.18046,5,0.1,3,3.9,4.01152,-1.88221,1.12102,-0.0376061,0.570341,0.126294,0.0064373,1.35626,-0.0165552,0.0219517,2.61524,5,0.1,4,3.9,-1.95713,-2.05555,0.749348,0.00572,0.790059,0.000520609,-0.00923127,0.0812337,-0.000819564,0.018173,0.345992,5,0.1,5,3.9,2.51193,-0.23625,0.604698,-0.866026,0.199451,-0.00222297,0,-0.0212751,-0.000204891,0.0127577,2.24662,5,0.1,6,3.9,-1.79483,1.50559,0.500001,0.35155,-0.00472423,-4.65661e-07,-0.0146329,-0.0096038,-1.11759e-05,0.0108866,0.0820819,5,0.1,7,3.9,1.34459,-3.00304,0.643557,-0.104968,0.0389326,0.00388818,0.228539,-0.0840276,-0.00836328,0.00956507,0.000770555,5,0.1,8,3.9,-3.29541,-1.3323,1.09192,0.241802,0.865926,0.211419,-0.111684,-0.00394881,-0.0991896,0.0192661,1.62372,5,0.1,9,3.9,-0.337865,0.191881,0.601027,0.398506,0.0127722,-0.0013195,-0.0539348,-0.0714986,0.00207126,0.0102126,1.84266,5,0.1,10,3.9,-2.20528,0.245523,1.32703,-0.0438824,0.525485,0.0206506,0.0436604,0.469386,-0.0185147,0.00988867,0.165492,5,0.1,11,3.9,-0.657466,3.90103,0.722501,0.492305,-0.0122298,0.230967,-0.412147,0.10182,-0.130095,0.0132503,0.212198,5,0.1,12,3.9,-1.07278,-1.68853,0.605479,-0.280647,-0.536683,-0.00530956,0.258341,0.421077,0.0048168,0.00826082,0.165943,5,0.1,13,3.9,-1.72014,-2.26684,1.14134,0.0228031,0.825946,0.176758,-0.197791,0.380039,-0.0603423,0.0256277,2.32685,5,0.1,14,3.9,-0.333063,4.15406,0.61969,-0.163013,0.535299,0.00771806,-0.420116,-0.0665784,-0.00589341,0.00860352,0.72933,5,0.1,15,3.9,4.50049,-3.32535,1.0492,0.00142008,0.860839,0.00207573,-0.0126958,0.126034,-0.0270158,0.0248166,0.79358,5,0.1,16,3.9,-1.40662,1.71225,0.659228,0.442375,-0.1395,-0.0325291,0.0919253,-0.0874475,-0.0493713,0.0357697,0.400826,5,0.1,17,3.9,-4.54315,-2.70774,0.557247,0.00663251,0.00118278,-0.00021942,0.0133514,0.0025183,-0.000409782,0.00825562,4.70713e-05,5,0.1,18,3.9,3.81365,0.152697,0.599391,-0.693043,-0.00111677,0.000509433,-0.29169,0.00563916,0.000499189,0.0102538,1.52844,5,0.1,19,3.9,4.29672,-4.43819,0.598844,0.0204854,-0.144913,-0.000322983,-0.167698,-0.00116229,0.00484288,0.00639964,0.375284,5,0.1
0,4,3.60383,-0.600806,0.600213,0.0164509,0.424953,-0.000229478,-0.150442,0.0569522,0.000298023,0.0223165,3.49096,5,0.1,1,4,0.258397,1.1672,0.5,0.0187308,0.397548,0,0.0700802,-0.20951,0,0.00671039,0.103626,5,0.1,2,4,0.10003,-3.42489,0.678709,0.120919,-0.866026,-0.0189543,-0.0293218,0,0.00476837,0.00753666,1.72645,5,0.1,3,4,4.00779,-1.81864,1.13355,-0.0367641,0.697142,0.123915,0.0116825,1.11407,-0.0359416,0.0248902,2.3608,5,0.1,4,4,-1.9566,-1.97668,0.749397,0.00492334,0.781575,0.000448525,-0.00703335,-0.258803,-0.000596046,0.0141184,2.43229,5,0.1,5,4,2.42533,-0.216437,0.604475,-0.866026,0.196328,-0.00222921,0,-0.0494719,0.000149012,0.0089276,2.24809,5,0.1,6,4,-1.75984,1.50507,0.500001,0.347173,-0.00550151,-1.49012e-06,-0.0867844,-0.00572205,0,0.00988574,0.111006,5,0.1,7,4,1.33521,-2.99955,0.643905,-0.0830561,0.0308692,0.00308603,0.208974,-0.0770092,-0.0076592,0.0116431,0.000689246,5,0.1,8,4,-3.27182,-1.24576,1.11254,0.229472,0.86444,0.200513,-0.141621,-0.0316501,-0.124812,0.0138205,1.23201,5,0.1,9,4,-0.298307,0.193008,0.600905,0.391968,0.0124581,-0.00112355,-0.0950098,0.0874847,0.00181794,0.00828074,1.66844,5,0.1,10,4,-2.20945,0.299679,1.329,-0.0396192,0.550376,0.01885,0.0427961,0.0340939,-0.0181794,0.00765016,0.0881025,5,0.1,11,4,-0.610304,3.90024,0.744711,0.450589,-0.00437498,0.2111,-0.433058,0.0571012,-0.258327,0.00933444,0.170056,5,0.1,12,4,-1.09956,-1.74007,0.604972,-0.254759,-0.493595,-0.00483096,0.265241,0.452697,0.00488758,0.00851116,0.111101,5,0.1,13,4,-1.71877,-2.18255,1.15871,0.00527799,0.856507,0.170571,-0.151813,0.190377,-0.0709295,0.0177052,2.28984,5,0.1,14,4,-0.351404,4.20728,0.620431,-0.20268,0.528669,0.00709891,-0.352725,-0.0946522,-0.00658631,0.00890988,0.559126,5,0.1,15,4,4.50058,-3.23912,1.04929,0.000357628,0.859553,-8.9407e-05,-0.00858307,-0.12958,-0.0166297,0.0232054,1.27823,5,0.1,16,4,-1.36198,1.69796,0.655765,0.449288,-0.145164,-0.036332,0.0225306,-0.0218749,-0.02563,0.0300418,0.29494,5,0.1,17,4,-4.54244,-2.70761,0.557224,0.00743866,0.0013411,-0.000242889,0.00309944,0.000596046,-8.9407e-05,0.00857382,1.42061e-05,5,0.1,18,4,3.74283,0.152609,0.599444,-0.722694,-0.000696257,0.000540912,-0.247836,0.00296533,8.9407e-05,0.00859646,0.200948,5,0.1,19,4,4.29795,-4.45247,0.598833,0.00420809,-0.138903,9.38773e-05,-0.15378,0.114679,0.00351667,0.00632332,0.420062,5,0.1
0,4.1,3.60438,-0.558249,0.600192,-0.0112053,0.42382,-0.000199769,-0.481442,-0.0842102,0.000294298,0.0223165,3.49096,5,0.1,1,4.1,0.260789,1.20594,0.5,0.0304403,0.377488,0,0.150455,-0.203826,0,0.00671039,0.103626,5,0.1,2,4.1,0.111998,-3.51149,0.676835,0.118514,-0.866026,-0.0185546,-0.0241129,0,0.00404194,0.00753666,1.72645,5,0.1,3,4.1,4.00416,-1.74383,1.14581,-0.0359595,0.793488,0.12152,0.0063777,0.781409,-0.0186861,0.0248902,2.3608,5,0.1,4,4.1,-1.95628,-1.89876,0.74997,0.000557117,0.784988,0.0154725,-0.0721291,0.237316,0.267562,0.0141184,2.43229,5,0.1,5,4.1,2.33872,-0.196973,0.604252,-0.866026,0.193461,-0.00223713,0,-0.0191974,-0.000167638,0.0089276,2.24809,5,0.1,6,4.1,-1.72537,1.5045,0.5,0.343307,-0.0059098,-1.49012e-06,-0.0132993,-0.00238419,0,0.00988574,0.111006,5,0.1,7,4.1,1.32791,-2.99684,0.644177,-0.0632783,0.023577,0.00236053,0.18578,-0.0685304,-0.00682473,0.0116431,0.000689246,5,0.1,8,4.1,-3.24953,-1.15933,1.13201,0.21658,0.864813,0.189163,-0.124171,0.00695884,-0.109151,0.0138205,1.23201,5,0.1,9,4.1,-0.259468,0.194901,0.600802,0.385455,0.0292637,-0.000959449,-0.0553923,0.31078,0.00149012,0.00828074,1.66844,5,0.1,10,4.1,-2.21324,0.354666,1.33081,-0.0363283,0.546907,0.0175413,0.0255108,-0.112672,-0.00934303,0.00765016,0.0881025,5,0.1,11,4.1,-0.567277,3.90003,0.764412,0.410928,-0.000308827,0.181932,-0.373326,0.0262111,-0.318214,0.00933444,0.170056,5,0.1,12,4.1,-1.12379,-1.7873,0.604512,-0.230443,-0.452022,-0.00438755,0.228196,0.393234,0.0041239,0.00851116,0.111101,5,0.1,13,4.1,-1.71922,-2.09632,1.17541,-0.0159986,0.865431,0.163262,-0.25551,0.0237972,-0.0796914,0.0177052,2.28984,5,0.1,14,4.1,-0.373479,4.25949,0.62111,-0.238678,0.51384,0.00648173,-0.345685,-0.200003,-0.00593439,0.00890988,0.559126,5,0.1,15,4.1,4.50058,-3.15332,1.04921,-0.000349432,0.859665,-0.00137053,-0.00563264,0.0706613,-0.00931323,0.0232054,1.27823,5,0.1,16,4.1,-1.31682,1.68336,0.652018,0.4544,-0.146533,-0.0384416,0.053674,-0.000484288,-0.0152141,0.0300418,0.29494,5,0.1,17,4.1,-4.54169,-2.70747,0.5572,0.00738576,0.00133552,-0.000240281,-0.00372529,-0.00064075,0.00012666,0.00857382,1.42061e-05,5,0.1,18,4.1,3.66979,0.15255,0.599498,-0.733227,-0.0005109,0.000541192,0.044018,0.000922941,-8.56817e-05,0.00859646,0.200948,5,0.1,19,4.1,4.29753,-4.46563,0.59886,-0.01297,-0.122761,0.000419654,-0.18096,0.200003,0.00294298,0.00632332,0.420062,5,0.1
0,4.2,3.6,-0.51655,0.600173,-0.0844419,0.407493,-0.000169873,-0.950336,-0.243887,0.000298023,0.0214739,3.18092,5,0.1,1,4.2,0.264625,1.2426,0.5,0.0464216,0.354755,0,0.158831,-0.258923,0,0.00747897,0.210934,5,0.1,2,4.2,0.123702,-3.59809,0.675004,0.115196,-0.866026,-0.0180081,-0.0459179,0,0.00745058,0.00669998,1.33008,5,0.1,3,4.2,4.0006,-1.6613,1.15785,-0.0351429,0.849488,0.119025,0.0112057,0.330746,-0.035882,0.0236531,2.27428,5,0.1,4,4.2,-1.95663,-1.81887,0.75307,-0.00805259,0.813368,0.0480011,-0.0936389,0.263453,0.356972,0.014088,0.478796,5,0.1,5,4.2,2.25212,-0.177749,0.604027,-0.866026,0.190553,-0.00223815,0,-0.0469908,0.000208616,0.00880289,2.24947,5,0.1,6,4.2,-1.69114,1.5039,0.5,0.340608,-0.00597239,0,-0.056982,0.00107288,-2.98023e-05,0.00973372,0.18592,5,0.1,7,4.2,1.32247,-2.99481,0.644381,-0.0460297,0.0172079,0.00172555,0.158608,-0.0585318,-0.00581145,0.00847974,0.000546709,5,0.1,8,4.2,-3.22852,-1.07295,1.15036,0.2033,0.860891,0.177509,-0.147104,-0.102758,-0.128746,0.0119685,1.17717,5,0.1,9,4.2,-0.221269,0.2,0.600713,0.377465,0.0785396,-0.000821054,-0.118532,0.651836,0.0013411,0.00885708,1.41705,5,0.1,10,4.2,-2.21675,0.408491,1.33253,-0.03407,0.526462,0.0167459,0.0212193,-0.300825,-0.00762939,0.0116709,0.12161,5,0.1,11,4.2,-0.52804,3.90009,0.780963,0.373687,0.00123382,0.148706,-0.38071,0.00619888,-0.340641,0.00888828,0.258043,5,0.1,12,4.2,-1.1457,-1.83054,0.604094,-0.20791,-0.412491,-0.00398159,0.227451,0.407279,0.00414252,0.00868769,0.128832,5,0.1,13,4.2,-1.72214,-2.00973,1.1913,-0.0426173,0.866026,0.153905,-0.262976,-5.96046e-05,-0.110328,0.0180417,2.2907,5,0.1,14,4.2,-0.398918,4.30971,0.621728,-0.268158,0.48883,0.00588,-0.228852,-0.300884,-0.00616908,0.00851504,0.432355,5,0.1,15,4.2,4.50052,-3.06708,1.04904,-0.000786781,0.863171,-0.0020057,-0.00309944,-0.0448227,-0.0038147,0.0236794,2.27512,5,0.1,16,4.2,-1.27123,1.66877,0.648124,0.455597,-0.14444,-0.0391558,-0.0479817,0.0455976,0.00175834,0.0334766,0.209697,5,0.1,17,4.2,-4.54098,-2.70735,0.557177,0.00677109,0.00122786,-0.000219047,-0.00858307,-0.00143051,0.000298023,0.00820662,7.73973e-06,5,0.1,18,4.2,3.59721,0.152502,0.599551,-0.71305,-0.000479072,0.000523031,0.360966,-0.000149012,-0.000327826,0.00798478,1.56702,5,0.1,19,4.2,4.29534,-4.47682,0.598915,-0.0304341,-0.100386,0.000673532,-0.161886,0.240803,0.00202656,0.00819765,0.41496,5,0.1
0,4.3,3.58699,-0.477046,0.600157,-0.174195,0.382136,-0.000142213,-0.856623,-0.270452,0.000257045,0.0214739,3.18092,5,0.1,1,4.3,0.269916,1.2768,0.5,0.0580095,0.329251,0,0.0750776,-0.258736,0,0.00747897,0.210934,5,0.1,2,4.3,0.13501,-3.68469,0.673237,0.111031,-0.865775,-0.0173286,-0.0417121,0.0100285,0.00680983,0.00669998,1.33008,5,0.1,3,4.3,3.99713,-1.57534,1.16962,-0.0344008,0.864992,0.116698,0.00560284,0.0413433,-0.0173077,0.0236531,2.27428,5,0.1,4,4.3,-1.95782,-1.73649,0.759321,-0.0148648,0.830906,0.0738881,-0.0449196,0.0640377,0.169035,0.014088,0.478796,5,0.1,5,4.3,2.16552,-0.158853,0.603804,-0.866026,0.187835,-0.00223806,0,-0.0183163,-7.07805e-05,0.00880289,2.24947,5,0.1,6,4.3,-1.65705,1.50332,0.5,0.343665,-0.00577252,-1.30385e-06,0.0858456,0.00294298,0,0.00973372,0.18592,5,0.1,7,4.3,1.31862,-2.99337,0.644525,-0.031423,0.0118122,0.0011893,0.133045,-0.0492036,-0.00489503,0.00847974,0.000546709,5,0.1,8,4.3,-3.20888,-0.98698,1.16751,0.189814,0.861092,0.165714,-0.129163,0.0504591,-0.112891,0.0119685,1.17717,5,0.1,9,4.3,-0.18404,0.21188,0.600637,0.367442,0.16489,-0.000701658,-0.0981129,1.00382,0.00107288,0.00885708,1.41705,5,0.1,10,4.3,-2.22007,0.459799,1.33417,-0.0323489,0.50078,0.0161747,0.0148714,-0.235351,-0.00468642,0.0116709,0.12161,5,0.1,11,4.3,-0.492453,3.90023,0.794127,0.338992,0.00140369,0.114671,-0.324197,-0.00205636,-0.335436,0.00888828,0.258043,5,0.1,12,4.3,-1.16553,-1.87008,0.603713,-0.189974,-0.381023,-0.00366401,0.143498,0.247158,0.00245869,0.00868769,0.128832,5,0.1,13,4.3,-1.72757,-1.92313,1.2063,-0.0644837,0.865847,0.147416,-0.173926,-0.00709295,-0.0324994,0.0180417,2.2907,5,0.1,14,4.3,-0.426865,4.35679,0.622287,-0.290215,0.451124,0.00530919,-0.195445,-0.400126,-0.00539795,0.00851504,0.432355,5,0.1,15,4.3,4.50034,-2.98078,1.04882,-0.00353083,0.864066,-0.00220295,-0.0462234,0.0326186,-0.000335276,0.0236794,2.27512,5,0.1,16,4.3,-1.22585,1.65456,0.644223,0.452213,-0.139676,-0.0387672,-0.0405312,0.0538602,0.00713766,0.0334766,0.209697,5,0.1,17,4.3,-4.54035,-2.70723,0.557156,0.00576749,0.00105649,-0.000185054,-0.0111759,-0.00193715,0.000376254,0.00820662,7.73973e-06,5,0.1,18,4.3,3.52677,0.152451,0.599602,-0.702986,-0.000544428,0.000488199,-0.083372,-0.00102166,-0.000372529,0.00798478,1.56702,5,0.1,19,4.3,4.2915,-4.48563,0.598992,-0.0462212,-0.0757217,0.000849739,-0.148147,0.246763,0.00146031,0.00819765,0.41496,5,0.1
0,4.4,3.56539,-0.440276,0.600145,-0.256675,0.35225,-0.000117719,-0.79,-0.331581,0.000238419,0.0201288,2.94454,5,0.1,1,4.4,0.27597,1.30838,0.5,0.0618838,0.301763,0,0.00472367,-0.295937,0,0.00823386,0.196432,5,0.1,2,4.4,0.145882,-3.77114,0.671542,0.106124,-0.86202,-0.0165358,-0.0593811,0.0802279,0.00953674,0.00911582,0.995414,5,0.1,3,4.4,3.99372,-1.48876,1.18119,-0.0336885,0.866026,0.114423,0.0100136,-5.96046e-05,-0.0330806,0.0206782,2.26315,5,0.1,4,4.4,-1.95946,-1.65356,0.767301,-0.0174701,0.822464,0.0833794,-0.00929832,-0.246823,0.0282526,0.0135511,0.179711,5,0.1,5,4.4,2.07892,-0.140187,0.60358,-0.866026,0.185021,-0.0022307,0,-0.0457093,0.000357628,0.0104539,2.11428,5,0.1,6,4.4,-1.62223,1.50276,0.5,0.352186,-0.00538528,-1.49012e-06,0.0609159,0.00482798,2.98023e-05,0.0120128,0.115729,5,0.1,7,4.4,1.3161,-2.99241,0.644622,-0.0194818,0.00739098,0.000749528,0.105441,-0.0391006,-0.00393391,0.00831612,0.000329882,5,0.1,8,4.4,-3.19055,-0.900744,1.18351,0.176358,0.861329,0.153956,-0.144482,-0.0858903,-0.126123,0.0123215,0.858303,5,0.1,9,4.4,-0.147861,0.233485,0.600572,0.355107,0.266797,-0.000602007,-0.159781,0.980616,0.00089407,0.0101283,1.12901,5,0.1,10,4.4,-2.22323,0.508658,1.33576,-0.0308156,0.475559,0.0156552,0.0170469,-0.284851,-0.0063777,0.00811599,0.544909,5,0.1,11,4.4,-0.460155,3.90035,0.803958,0.306971,0.000959635,0.0824347,-0.323966,-0.00619888,-0.305831,0.0082066,0.398989,5,0.1,12,4.4,-1.18386,-1.90705,0.603358,-0.177076,-0.358698,-0.00344515,0.123441,0.217855,0.00205636,0.00828718,0.226258,5,0.1,13,4.4,-1.73474,-1.83664,1.22092,-0.0774026,0.863186,0.145134,-0.0849366,-0.0568628,-0.0229478,0.0192291,2.28913,5,0.1,14,4.4,-0.456696,4.4,0.622791,-0.30442,0.414348,0.00477433,-0.0772327,-0.332594,-0.00539422,0.00876185,0.32618,5,0.1,15,4.4,4.49972,-2.89425,1.04861,-0.00904799,0.866026,-0.00211,-0.0598431,0,0.00196695,0.0225959,2.27209,5,0.1,16,4.4,-1.18096,1.6409,0.640398,0.44398,-0.132981,-0.037545,-0.138462,0.0827312,0.0179708,0.030995,0.145028,5,0.1,17,4.4,-4.53984,-2.70713,0.55714,0.00460148,0.000852346,-0.000146031,-0.0121593,-0.00214577,0.00038743,0.00822948,7.30821e-06,5,0.1,18,4.4,3.45584,0.152391,0.599649,-0.716388,-0.000659004,0.000447035,-0.127792,-0.00116974,-0.000447035,0.00764039,1.20834,5,0.1,19,4.4,4.2862,-4.492,0.599083,-0.0591159,-0.0519991,0.000959635,-0.105619,0.22316,0.000745058,0.0081823,0.364646,5,0.1
0,4.5,3.53624,-0.40663,0.600134,-0.324947,0.321222,-9.6485e-05,-0.6845,-0.297898,0.000186265,0.0201288,2.94454,5,0.1,1,4.5,0.282047,1.33711,0.5,0.0584669,0.272827,0,-0.0667907,-0.28751,0,0.00823386,0.196432,5,0.1,2,4.5,0.156216,-3.85723,0.669933,0.100633,-0.861524,-0.0156528,-0.053999,-0.019744,0.00866875,0.00911582,0.995414,5,0.1,3,4.5,3.99039,-1.40215,1.19251,-0.0330679,0.866025,0.112395,0.00435114,1.49012e-05,-0.014089,0.0206782,2.26315,5,0.1,4,4.5,-1.96122,-1.57279,0.775619,-0.0171717,0.790196,0.0815153,0.013575,-0.408448,-0.059545,0.0135511,0.179711,5,0.1,5,4.5,1.99231,-0.12185,0.603358,-0.866026,0.182108,-0.0022131,0,-0.0225594,0.000115484,0.0104539,2.11428,5,0.1,6,4.5,-1.58663,1.50224,0.5,0.360026,-0.00486877,5.58794e-07,0.0749603,0.00549108,7.45058e-06,0.0120128,0.115729,5,0.1,7,4.5,1.31464,-2.99186,0.644678,-0.0100907,0.00390373,0.000398699,0.0822991,-0.0306219,-0.00308082,0.00831612,0.000329882,5,0.1,8,4.5,-3.1736,-0.814836,1.19831,0.163107,0.857733,0.142394,-0.126004,-0.0307299,-0.109896,0.0123215,0.858303,5,0.1,9,4.5,-0.113088,0.265282,0.600516,0.340627,0.369914,-0.000522938,-0.142999,1.02763,0.00071153,0.0101283,1.12901,5,0.1,10,4.5,-2.22622,0.555332,1.33729,-0.0289511,0.462205,0.014906,0.0206381,-0.026755,-0.00880659,0.00811599,0.544909,5,0.1,11,4.5,-0.430969,3.90042,0.810717,0.277577,0.000353903,0.053289,-0.273101,-0.00578165,-0.273898,0.0082066,0.398989,5,0.1,12,4.5,-1.20096,-1.9419,0.603023,-0.164724,-0.338726,-0.00323579,0.127085,0.193745,0.00220537,0.00828718,0.226258,5,0.1,13,4.5,-1.74287,-1.75037,1.23543,-0.0846708,0.86367,0.146097,-0.0571534,0.0352561,0.0295788,0.0192291,2.28913,5,0.1,14,4.5,-0.487508,4.44011,0.623243,-0.311306,0.390629,0.00428017,-0.0470113,-0.169724,-0.00461191,0.00876185,0.32618,5,0.1,15,4.5,4.49848,-2.80765,1.04841,-0.0160106,0.866026,-0.00184067,-0.0749528,0,0.00329316,0.0225959,2.27209,5,0.1,16,4.5,-1.1372,1.62801,0.636734,0.431313,-0.124966,-0.0357232,-0.131786,0.0810921,0.0194125,0.030995,0.145028,5,0.1,17,4.5,-4.53944,-2.70706,0.557127,0.0033766,0.000634417,-0.000106823,-0.0120997,-0.00216067,0.000383705,0.00822948,7.30821e-06,5,0.1,18,4.5,3.38314,0.152319,0.599691,-0.740375,-0.00079351,0.000403356,-0.292659,-0.00141654,-0.000435859,0.00764039,1.20834,5,0.1,19,4.5,4.27983,-4.49615,0.599181,-0.0674337,-0.0317819,0.00100425,-0.0597835,0.179142,0.000145286,0.0081823,0.364646,5,0.1
0,4.6,3.5,-0.376001,0.600125,-0.402838,0.291167,-7.89762e-05,-0.856876,-0.309333,0.000149012,0.020066,2.67172,5,0.1,1,4.6,0.287484,1.36293,0.5,0.0496589,0.243491,0,-0.104323,-0.302196,0,0.00861749,0.281857,5,0.1,2,4.6,0.165994,-3.94331,0.668413,0.0947248,-0.857353,-0.0147104,-0.0665784,0.138879,0.0105798,0.00949458,0.716278,5,0.1,3,4.6,3.98711,-1.31555,1.20367,-0.0324845,0.866026,0.110474,0.00870228,-5.96046e-05,-0.0290275,0.0191234,2.26364,5,0.1,4,4.6,-1.96284,-1.49614,0.783369,-0.0150651,0.739321,0.0725791,0.0271201,-0.61363,-0.114113,0.0150525,1.84517,5,0.1,5,4.6,1.90571,-0.10378,0.603138,-0.866026,0.178798,-0.002186,0,-0.0507122,0.000476837,0.00827049,1.72916,5,0.1,6,4.6,-1.55037,1.50178,0.5,0.363633,-0.00428557,1.49012e-06,-0.017345,0.00607967,-2.98023e-05,0.0105985,0.0666252,5,0.1,7,4.6,1.314,-2.9916,0.644704,-0.00302196,0.00126958,0.00013262,0.059247,-0.0220537,-0.00220537,0.0103844,0.000150179,5,0.1,8,4.6,-3.15792,-0.729425,1.21199,0.150239,0.8476,0.131169,-0.135064,-0.203043,-0.117898,0.0112499,0.609071,5,0.1,9,4.6,-0.0798006,0.307124,0.600467,0.324287,0.463042,-0.000457466,-0.192801,0.796213,0.000625849,0.0103555,0.853242,5,0.1,10,4.6,-2.229,0.601544,1.33873,-0.0266254,0.462441,0.0138611,0.0261068,-0.00169873,-0.012219,0.00876522,0.416792,5,0.1,11,4.6,-0.404554,3.90042,0.814751,0.25078,-0.000172853,0.028187,-0.269353,-0.00476837,-0.225931,0.00806282,0.589562,5,0.1,12,4.6,-1.21677,-1.97476,0.602712,-0.151092,-0.317898,-0.00299364,0.14782,0.231147,0.00271201,0.007464,0.372188,5,0.1,13,4.6,-1.75155,-1.66386,1.25019,-0.0883013,0.865921,0.148863,-0.013411,-0.00214577,0.0165701,0.0197949,2.27214,5,0.1,14,4.6,-0.518733,4.47841,0.623649,-0.311577,0.375533,0.0038296,0.0505447,-0.152826,-0.00450015,0.00885488,0.23699,5,0.1,15,4.6,4.49651,-2.72104,1.04824,-0.0232577,0.866026,-0.0014782,-0.0665188,0,0.00393391,0.0229315,2.27128,5,0.1,16,4.6,-1.09483,1.61594,0.633267,0.414783,-0.116175,-0.0335068,-0.210226,0.0969768,0.0255704,0.0309344,0.168754,5,0.1,17,4.6,-4.53916,-2.70701,0.557118,0.00222921,0.000423193,-7.00355e-05,-0.0109673,-0.00190735,0.000327826,0.007989,5.89072e-06,5,0.1,18,4.6,3.30777,0.152233,0.59973,-0.764734,-0.000924245,0.000357628,-0.151753,-0.00111759,-0.000417233,0.00755118,0.898884,5,0.1,19,4.6,4.27287,-4.49852,0.599281,-0.0709653,-0.016439,0.000990927,-0.0107288,0.126839,-0.000447035,0.00696932,0.362404,5,0.1
0,4.7,3.45459,-0.34831,0.600118,-0.511432,0.263602,-6.61239e-05,-1.21948,-0.251787,0.000111759,0.020066,2.67172,5,0.1,1,4.7,0.291837,1.38584,0.5,0.0367823,0.215251,0,-0.141658,-0.267819,0,0.00861749,0.281857,5,0.1,2,4.7,0.175153,-4.02851,0.666992,0.0885607,-0.847348,-0.0137311,-0.0596549,0.101566,0.00945851,0.00949458,0.716278,5,0.1,3,4.7,3.98389,-1.22895,1.21462,-0.0319842,0.866025,0.108819,0.00320375,1.49012e-05,-0.0105798,0.0191234,2.26364,5,0.1,4,4.7,-1.96435,-1.4242,0.790625,-0.0163551,0.708259,0.0773017,-0.0442564,-0.0863895,0.173327,0.0150525,1.84517,5,0.1,5,4.7,1.81911,-0.0859589,0.602921,-0.86598,0.179126,-0.00214791,0.00183284,0.0393517,0.000383705,0.00827049,1.72916,5,0.1,6,4.7,-1.51411,1.50139,0.5,0.361068,-0.00368133,-2.79397e-07,-0.0470504,0.00600517,-1.11759e-05,0.0105985,0.0666252,5,0.1,7,4.7,1.31396,-2.99158,0.644708,0.00199005,-0.000600889,-5.46686e-05,0.0411868,-0.0154227,-0.001546,0.0103844,0.000150179,5,0.1,8,4.7,-3.14368,-0.645548,1.22456,0.133642,0.830315,0.120384,-0.191867,-0.178624,-0.101775,0.0112499,0.609071,5,0.1,9,4.7,-0.0482762,0.357393,0.600424,0.306517,0.541092,-0.000402424,-0.173447,0.723086,0.000488013,0.0103555,0.853242,5,0.1,10,4.7,-2.23154,0.648039,1.34006,-0.0240576,0.469132,0.0126418,0.0256151,0.100806,-0.0123531,0.00876522,0.416792,5,0.1,11,4.7,-0.38073,3.90039,0.816496,0.226433,-0.000540167,0.00731898,-0.225242,-0.00265241,-0.189174,0.00806282,0.589562,5,0.1,12,4.7,-1.23116,-2.00512,0.602425,-0.136962,-0.286763,-0.00273297,0.137828,0.379704,0.00256673,0.007464,0.372188,5,0.1,13,4.7,-1.76079,-1.57727,1.26503,-0.0991616,0.865966,0.146511,-0.178471,0.00131875,-0.0615194,0.0197949,2.27214,5,0.1,14,4.7,-0.54964,4.51538,0.624011,-0.306284,0.365271,0.00342093,0.0663139,-0.0745058,-0.00378489,0.00885488,0.23699,5,0.1,15,4.7,4.49384,-2.63444,1.04811,-0.030221,0.866026,-0.00107326,-0.0689626,0,0.00406802,0.0229315,2.27128,5,0.1,16,4.7,-1.05409,1.60473,0.630025,0.402269,-0.108556,-0.0314843,-0.0699535,0.0618547,0.0166744,0.0309344,0.168754,5,0.1,17,4.7,-4.53899,-2.70697,0.557113,0.00119433,0.000241771,-3.84636e-05,-0.00962615,-0.00171363,0.000294298,0.007989,5.89072e-06,5,0.1,18,4.7,3.23035,0.152135,0.599763,-0.784143,-0.00103861,0.000317488,-0.189856,-0.00108965,-0.000391155,0.00755118,0.898884,5,0.1,19,4.7,4.26576,-4.49962,0.599378,-0.0709288,-0.00643879,0.000934582,0.012368,0.0749826,-0.000681728,0.00696932,0.362404,5,0.1
0,4.8,3.39739,-0.32318,0.600112,-0.630116,0.239126,-5.66244e-05,-1.08385,-0.244737,8.9407e-05,0.0217623,2.39092,5,0.1,1,4.8,0.294821,1.40605,0.5,0.0232279,0.189051,0,-0.121951,-0.259876,0,0.00750776,0.26364,5,0.1,2,4.8,0.183702,-4.11253,0.665668,0.0822965,-0.830221,-0.0127405,-0.0676587,0.269175,0.0106096,0.00840121,0.500772,5,0.1,3,4.8,3.98071,-1.14235,1.22543,-0.031513,0.866026,0.107247,0.00762939,0,-0.0255704,0.0194144,2.26405,5,0.1,4,4.8,-1.96627,-1.35347,0.799457,-0.0223786,0.708231,0.100987,-0.0695586,0.0264049,0.272989,0.0132125,0.223101,5,0.1,5,4.8,1.73254,-0.0678217,0.602709,-0.865296,0.183553,-0.00209361,0.0146627,0.0359285,0.000804663,0.00768893,1.32577,5,0.1,6,4.8,-1.47838,1.50105,0.5,0.352058,-0.00308752,-1.49012e-06,-0.141799,0.00584126,2.98023e-05,0.0128073,0.126205,5,0.1,7,4.8,1.31434,-2.9917,0.644695,0.00526607,-0.00183582,-0.000178814,0.0246167,-0.00929832,-0.000923872,0.00964654,5.13181e-05,5,0.1,8,4.8,-3.13133,-0.56361,1.23609,0.11279,0.805816,0.11014,-0.220656,-0.336021,-0.105917,0.0107421,0.423151,5,0.1,9,4.8,-0.0185319,0.414717,0.600386,0.287773,0.600626,-0.000356138,-0.208836,0.438944,0.000417233,0.00991989,0.611276,5,0.1,10,4.8,-2.23381,0.695392,1.34126,-0.0214398,0.476635,0.0113547,0.0270605,0.0243187,-0.013411,0.00823401,0.308329,5,0.1,11,4.8,-0.359191,3.90032,0.816358,0.204422,-0.000715256,-0.00928491,-0.220463,-0.00107288,-0.141531,0.0103071,1.12036,5,0.1,12,4.8,-1.24416,-2.03173,0.602165,-0.123012,-0.244159,-0.00246912,0.143111,0.462532,0.00271201,0.00719755,0.367217,5,0.1,13,4.8,-1.7717,-1.49067,1.27926,-0.11954,0.866026,0.137001,-0.209808,0,-0.126362,0.0182276,2.26928,5,0.1,14,4.8,-0.579838,4.55152,0.624334,-0.296487,0.356841,0.00305325,0.136942,-0.110149,-0.00357628,0.0087557,0.168432,5,0.1,15,4.8,4.49049,-2.54784,1.04803,-0.0363827,0.866026,-0.000676513,-0.0519753,0,0.00369549,0.0204924,2.47653,5,0.1,16,4.8,-1.01418,1.59417,0.626957,0.395617,-0.102684,-0.0298619,-0.0848472,0.0601411,0.0170469,0.0287027,0.258516,5,0.1,17,4.8,-4.53891,-2.70696,0.55711,0.000345707,8.9407e-05,-1.19209e-05,-0.00786781,-0.00143051,0.000208616,0.00937076,3.60578e-06,5,0.1,18,4.8,3.15124,0.152026,0.599793,-0.794798,-0.00112802,0.000278652,0.00941753,-0.000655651,-0.000357628,0.00689867,1.1463,5,0.1,19,4.8,4.25877,-4.49996,0.599468,-0.0683784,-0.00106096,0.000855327,0.0391006,0.0348091,-0.000923872,0.00802333,0.575991,5,0.1
0,4.9,3.32894,-0.300376,0.600107,-0.737541,0.217865,-4.88013e-05,-1.00423,-0.18983,7.45058e-05,0.0217623,2.39092,5,0.1,1,4.9,0.296486,1.4237,0.5,0.0102712,0.164338,0,-0.111477,-0.236966,0,0.00750776,0.26364,5,0.1,2,4.9,0.191613,-4.19433,0.664443,0.0760549,-0.80613,-0.011762,-0.0596335,0.245273,0.0093393,0.00840121,0.500772,5,0.1,3,4.9,3.97758,-1.05574,1.23608,-0.0311051,0.866026,0.105887,0.00239909,-3.72529e-06,-0.00798702,0.0194144,2.26405,5,0.1,4,4.9,-1.96875,-1.28279,0.810521,-0.0264006,0.702309,0.116635,-0.0142232,-0.156574,0.052806,0.0132125,0.223101,5,0.1,5,4.9,1.64601,-0.0491992,0.602503,-0.865331,0.189415,-0.00202097,0.00219047,0.0673678,0.000722706,0.00768893,1.32577,5,0.1,6,4.9,-1.44363,1.50077,0.5,0.344686,-0.00252593,3.72529e-07,-0.031285,0.00538677,1.49012e-05,0.0128073,0.126205,5,0.1,7,4.9,1.31497,-2.99193,0.644674,0.00710431,-0.00253655,-0.00024857,0.0124946,-0.00484288,-0.000488013,0.00964654,5.13181e-05,5,0.1,8,4.9,-3.1212,-0.484591,1.24661,0.0897385,0.774963,0.100483,-0.234634,-0.310346,-0.0905618,0.0107421,0.423151,5,0.1,9,4.9,0.0092623,0.476903,0.600352,0.268491,0.64154,-0.00031963,-0.185787,0.34647,0.000327826,0.00991989,0.611276,5,0.1,10,4.9,-2.23583,0.743297,1.34233,-0.018876,0.48198,0.0100745,0.0245571,0.0552125,-0.0123754,0.00823401,0.308329,5,0.1,11,4.9,-0.339773,3.90028,0.814769,0.184555,0.000143424,-0.0219683,-0.18324,0.0150055,-0.110451,0.0103071,1.12036,5,0.1,12,4.9,-1.25578,-2.05376,0.601931,-0.109643,-0.195866,-0.00221459,0.12695,0.493929,0.00243261,0.00719755,0.367217,5,0.1,13,4.9,-1.78461,-1.40406,1.2925,-0.137688,0.866026,0.129399,-0.147648,0,-0.0385866,0.0182276,2.26928,5,0.1,14,4.9,-0.608825,4.58676,0.624623,-0.283245,0.348563,0.00273008,0.13702,-0.0730157,-0.00298023,0.0087557,0.168432,5,0.1,15,4.9,4.48659,-2.46191,1.04798,-0.0416808,0.846034,-0.000318326,-0.0505745,-0.39047,0.00340492,0.0204924,2.47653,5,0.1,16,4.9,-0.97482,1.58421,0.62406,0.393179,-0.0963546,-0.0280436,0.00867993,0.0681281,0.0197813,0.0287027,0.258516,5,0.1,17,4.9,-4.53892,-2.70696,0.55711,-0.000350922,-3.98606e-05,7.17118e-06,-0.00604987,-0.00111759,0.000175089,0.00937076,3.60578e-06,5,0.1,18,4.9,3.0714,0.15191,0.599819,-0.804515,-0.00119125,0.000244845,-0.146821,-0.000545755,-0.0003241,0.00689867,1.1463,5,0.1,19,4.9,4.2523,-4.49993,0.599549,-0.0596769,0.00120103,0.000761915,0.125915,0.0120997,-0.000949949,0.00802333,0.575991,5,0.1
