id,t,px,py,pz,vx,vy,vz,ax,ay,az,planning_time,qp_cost,planning_report,size,id,t,px,py,pz,vx,vy,vz,ax,ay,az,planning_time,qp_cost,planning_report,size,id,t,px,py,pz,vx,vy,vz,ax,ay,az,planning_time,qp_cost,planning_report,size,id,t,px,py,pz,vx,vy,vz,ax,ay,az,planning_time,qp_cost,planning_report,size,id,t,px,py,pz,vx,vy,vz,ax,ay,az,planning_time,qp_cost,planning_report,size,id,t,px,py,pz,vx,vy,vz,ax,ay,az,planning_time,qp_cost,planning_report,size,id,t,px,py,pz,vx,vy,vz,ax,ay,az,planning_time,qp_cost,planning_report,size,id,t,px,py,pz,vx,vy,vz,ax,ay,az,planning_time,qp_cost,planning_report,size,id,t,px,py,pz,vx,vy,vz,ax,ay,az,planning_time,qp_cost,planning_report,size,id,t,px,py,pz,vx,vy,vz,ax,ay,az,planning_time,qp_cost,planning_report,size,id,t,px,py,pz,vx,vy,vz,ax,ay,az,planning_time,qp_cost,planning_report,size,id,t,px,py,pz,vx,vy,vz,ax,ay,az,planning_time,qp_cost,planning_report,size,id,t,px,py,pz,vx,vy,vz,ax,ay,az,planning_time,qp_cost,planning_report,size,id,t,px,py,pz,vx,vy,vz,ax,ay,az,planning_time,qp_cost,planning_report,size,id,t,px,py,pz,vx,vy,vz,ax,ay,az,planning_time,qp_cost,planning_report,size,id,t,px,py,pz,vx,vy,vz,ax,ay,az,planning_time,qp_cost,planning_report,size,id,t,px,py,pz,vx,vy,vz,ax,ay,az,planning_time,qp_cost,planning_report,size,id,t,px,py,pz,vx,vy,vz,ax,ay,az,planning_time,qp_cost,planning_report,size,id,t,px,py,pz,vx,vy,vz,ax,ay,az,planning_time,qp_cost,planning_report,size,id,t,px,py,pz,vx,vy,vz,ax,ay,az,planning_time,qp_cost,planning_report,size
0,0,-1.67538,-1.88259,0.548506,0,0,0,0,0,0,0.0104344,0.571725,5,0.1,1,0,0.196947,-0.757386,0.696585,0,0,0,0,0,0,0.0200836,3.51219,5,0.1,2,0,4.67592,1.31005,0.523293,0,0,0,0,0,0,0.0136294,0.380402,5,0.1,3,0,-1.53154,-3.94077,0.653054,0,0,0,0,0,0,0.0109337,3.5122,5,0.1,4,0,2.29576,-2.9529,0.521914,0,0,0,0,0,0,0.0154083,3.02853,5,0.1,5,0,-0.933268,-0.0612526,0.645695,0,0,0,0,0,0,0.018646,0.537208,5,0.1,6,0,3.87348,-0.983346,0.668736,0,0,0,0,0,0,0.0232711,3.03835,5,0.1,7,0,4.03741,-4.48265,0.530968,0,0,0,0,0,0,0.0182914,0.911076,5,0.1,8,0,1.2683,-3.43452,0.571975,0,0,0,0,0,0,0.0252784,3.51219,5,0.1,9,0,3.48106,-3.7931,0.66161,0,0,0,0,0,0,0.00809745,2.94886,5,0.1,10,0,-3.55679,4.98241,0.557266,0,0,0,0,0,0,0.0216407,1.58216,5,0.1,11,0,-3.82945,4.08166,0.596311,0,0,0,0,0,0,0.0392698,3.5122,5,0.1,12,0,0.295113,-0.0751314,0.508003,0,0,0,0,0,0,0.00912856,3.5122,5,0.1,13,0,1.18436,1.70362,0.666917,0,0,0,0,0,0,0.0138177,0.412439,5,0.1,14,0,3.06454,-2.69414,0.678153,0,0,0,0,0,0,0.0180441,1.52341,5,0.1,15,0,0.603435,-3.60683,0.587306,0,0,0,0,0,0,0.0107553,0.83053,5,0.1,16,0,-5.46718,-1.354,0.602474,0,0,0,0,0,0,0.0128502,3.5122,5,0.1,17,0,-3.4221,2.31181,0.657694,0,0,0,0,0,0,0.0140485,0.471338,5,0.1,18,0,-2.84816,-0.271424,0.654767,0,0,0,0,0,0,0.00929854,2.04209,5,0.1,19,0,-0.797441,-0.892695,0.56415,0,0,0,0,0,0,0.0081044,1.66296,5,0.1
0,0.1,-1.67457,-1.88282,0.54856,0.0229776,-0.00644233,0.00152607,0.408486,-0.114538,0.0271276,0.0104344,0.571725,5,0.1,1,0.1,0.196927,-0.755317,0.696866,-0.000573485,0.0587254,0.00798209,-0.0101952,1.04401,0.1419,0.0200836,3.51219,5,0.1,2,0.1,4.67527,1.31024,0.523216,-0.018549,0.00562947,-0.00217212,-0.329733,0.100069,-0.0386126,0.0136294,0.380402,5,0.1,3,0.1,-1.53119,-3.93872,0.653024,0.0101283,0.0583898,-0.000850949,0.180066,1.03803,-0.0151284,0.0109337,3.5122,5,0.1,4,0.1,2.29728,-2.9517,0.521839,0.0430956,0.0341654,-0.00213105,0.766128,0.607371,-0.0378862,0.0154083,3.02853,5,0.1,5,0.1,-0.933546,-0.0610321,0.64643,-0.00790441,0.0062603,0.0208713,-0.140522,0.111294,0.371046,0.018646,0.537208,5,0.1,6,0.1,3.87194,-0.982163,0.668664,-0.0436645,0.0335858,-0.0020368,-0.776276,0.597078,-0.0362098,0.0232711,3.03835,5,0.1,7,0.1,4.03695,-4.48361,0.53104,-0.0129625,-0.0271842,0.00204584,-0.230432,-0.483274,0.03637,0.0182914,0.911076,5,0.1,8,0.1,1.26767,-3.43253,0.571986,-0.0179518,0.0564829,0.000320654,-0.319138,1.00416,0.00570342,0.0252784,3.51219,5,0.1,9,0.1,3.47915,-3.79306,0.661546,-0.0542618,0.0012774,-0.00182576,-0.964642,0.0227243,-0.0324622,0.00809745,2.94886,5,0.1,10,0.1,-3.55684,4.98128,0.558093,-0.00128038,-0.0320777,0.0234921,-0.0227541,-0.570238,0.417642,0.0216407,1.58216,5,0.1,11,0.1,-3.82736,4.08156,0.596313,0.0591964,-0.00292286,5.92321e-05,1.05238,-0.0519454,0.00105053,0.0392698,3.5122,5,0.1,12,0.1,0.294991,-0.0772146,0.508071,-0.00344585,-0.0591371,0.00191256,-0.0612568,-1.05133,0.0340044,0.00912856,3.5122,5,0.1,13,0.1,1.18438,1.70357,0.66763,0.00046324,-0.00158902,0.0202425,0.00823289,-0.0282452,0.359863,0.0138177,0.412439,5,0.1,14,0.1,3.06353,-2.69321,0.678228,-0.028583,0.0264972,0.002129,-0.508144,0.471056,0.0378489,0.0180441,1.52341,5,0.1,15,0.1,0.602805,-3.60682,0.588103,-0.0178823,0.000202283,0.0226019,-0.317909,0.00359118,0.40181,0.0107553,0.83053,5,0.1,16,0.1,-5.46685,-1.35195,0.602335,0.00950769,0.0583671,-0.00394844,0.169069,1.03764,-0.0701919,0.0128502,3.5122,5,0.1,17,0.1,-3.42213,2.31206,0.658416,-0.000826642,0.00705905,0.020516,-0.0147074,0.125483,0.364725,0.0140485,0.471338,5,0.1,18,0.1,-2.8491,-0.272706,0.654709,-0.0267249,-0.0364079,-0.00162292,-0.475124,-0.647249,-0.0288561,0.00929854,2.04209,5,0.1,19,0.1,-0.798801,-0.892233,0.564187,-0.0386002,0.013119,0.00106236,-0.686228,0.233226,0.0188835,0.0081044,1.66296,5,0.1
0,0.2,-1.6699,-1.88413,0.54887,0.0726223,-0.0203609,0.00482351,0.544608,-0.152767,0.0361502,0.0114312,0.469073,5,0.1,1,0.2,0.19681,-0.743388,0.698488,-0.00181273,0.185603,0.0252262,-0.0135899,1.39198,0.189215,0.0218376,3.10156,5,0.1,2,0.2,4.6715,1.31139,0.522775,-0.0586271,0.017792,-0.00686347,-0.439405,0.133395,-0.0514984,0.0109749,0.31211,5,0.1,3,0.2,-1.52913,-3.92686,0.652851,0.0320107,0.184542,-0.00268817,0.240088,1.38414,-0.020206,0.0128174,2.9258,5,0.1,4,0.2,2.30604,-2.94476,0.521406,0.136203,0.10798,-0.00673532,1.0215,0.809789,-0.0505149,0.0151812,2.4855,5,0.1,5,0.2,-0.935152,-0.0597604,0.65067,-0.0249818,0.0197856,0.0659645,-0.187367,0.148393,0.494719,0.0159791,0.440752,5,0.1,6,0.2,3.86307,-0.975341,0.66825,-0.138009,0.106147,-0.00643879,-1.03486,0.796109,-0.04825,0.0257898,2.51471,5,0.1,7,0.2,4.03432,-4.48913,0.531456,-0.0409722,-0.0859141,0.00646412,-0.307083,-0.644445,0.0485182,0.0200412,0.747493,5,0.1,8,0.2,1.26402,-3.42106,0.572051,-0.0567347,0.178516,0.00101328,-0.425577,1.33884,0.00762939,0.0223028,2.92579,5,0.1,9,0.2,3.46813,-3.7928,0.661175,-0.171494,0.00403523,-0.00576973,-1.28627,0.0303984,-0.0433028,0.00915152,2.41939,5,0.1,10,0.2,-3.5571,4.97477,0.562865,-0.00404716,-0.101376,0.074245,-0.0303984,-0.760317,0.556886,0.0201064,1.29809,5,0.1,11,0.2,-3.81534,4.08096,0.596325,0.187087,-0.00923872,0.000187755,1.40321,-0.0691414,0.00140071,0.0376669,2.92579,5,0.1,12,0.2,0.294291,-0.089227,0.508459,-0.0108913,-0.186903,0.00604391,-0.0816584,-1.40176,0.0453591,0.00887121,3.14042,5,0.1,13,0.2,1.18448,1.70324,0.671742,0.00146627,-0.00502169,0.0639766,0.0109076,-0.0376701,0.479817,0.0122703,0.338386,5,0.1,14,0.2,3.05773,-2.68783,0.67866,-0.0903368,0.0837445,0.00672936,-0.677466,0.628114,0.0504553,0.0169908,1.24988,5,0.1,15,0.2,0.599172,-3.60678,0.592694,-0.0565156,0.00064373,0.0714317,-0.423908,0.00464916,0.535786,0.0103153,0.681406,5,0.1,16,0.2,-5.46492,-1.34009,0.601533,0.0300527,0.184467,-0.0124782,0.225306,1.3836,-0.0936091,0.0119529,2.92579,5,0.1,17,0.2,-3.4223,2.31349,0.662584,-0.00261068,0.0223041,0.0648409,-0.0196695,0.167489,0.486284,0.0136278,0.386708,5,0.1,18,0.2,-2.85453,-0.280102,0.65438,-0.0844657,-0.115067,-0.00512898,-0.633478,-0.863001,-0.0384748,0.0113648,1.69027,5,0.1,19,0.2,-0.806642,-0.889568,0.564403,-0.121996,0.0414625,0.00335872,-0.914961,0.310957,0.0251532,0.00795582,1.36437,5,0.1
0,0.3,-1.65962,-1.88701,0.549553,0.135096,-0.0378832,0.00897106,0.666462,-0.186905,0.044249,0.0114312,0.469073,5,0.1,1,0.3,0.196066,-0.718201,0.702364,-0.0172245,0.314062,0.05555,-0.262903,1.14838,0.384763,0.0218376,3.10156,5,0.1,2,0.3,4.6632,1.31391,0.521803,-0.109041,0.0330953,-0.0127704,-0.537843,0.16325,-0.0630058,0.0109749,0.31211,5,0.1,3,0.3,-1.52461,-3.9007,0.652471,0.0592317,0.343795,-0.00497764,0.288099,1.70222,-0.0242256,0.0128174,2.9258,5,0.1,4,0.3,2.32525,-2.9295,0.520445,0.251311,0.199881,-0.0127197,1.21319,0.973329,-0.0651889,0.0151812,2.4855,5,0.1,5,0.3,-0.93869,-0.0569582,0.660012,-0.0464747,0.0368079,0.122715,-0.229277,0.181585,0.605386,0.0159791,0.440752,5,0.1,6,0.3,3.84397,-0.960307,0.667338,-0.244171,0.197469,-0.0119748,-1.04327,0.974178,-0.0590682,0.0257898,2.51471,5,0.1,7,0.3,4.02852,-4.5013,0.532371,-0.076203,-0.159837,0.0120289,-0.375867,-0.78854,0.0593551,0.0200412,0.747493,5,0.1,8,0.3,1.25598,-3.39576,0.572195,-0.105678,0.332495,0.00188984,-0.522986,1.6454,0.00935793,0.0223028,2.92579,5,0.1,9,0.3,3.44384,-3.79223,0.660357,-0.319042,0.00751801,-0.0107361,-1.57394,0.0371188,-0.0529736,0.00915152,2.41939,5,0.1,10,0.3,-3.55767,4.96041,0.573381,-0.00753216,-0.188593,0.138125,-0.0371784,-0.930399,0.68143,0.0201064,1.29809,5,0.1,11,0.3,-3.78883,4.07965,0.596351,0.348467,-0.0171952,0.00034906,1.72448,-0.085026,0.00172853,0.0376669,2.92579,5,0.1,12,0.3,0.293298,-0.114456,0.509125,-0.00466709,-0.312449,0.00584042,0.177255,-1.08861,-0.0406168,0.00887121,3.14042,5,0.1,13,0.3,1.18468,1.70253,0.680803,0.00272021,-0.00934247,0.119017,0.0133961,-0.0460967,0.587143,0.0122703,0.338386,5,0.1,14,0.3,3.04493,-2.67597,0.679613,-0.168052,0.155795,0.0125177,-0.829026,0.768602,0.0617504,0.0169908,1.24988,5,0.1,15,0.3,0.591168,-3.60669,0.602811,-0.105141,0.00118166,0.132891,-0.518706,0.00578165,0.655606,0.0103153,0.681406,5,0.1,16,0.3,-5.46066,-1.31395,0.599765,0.0559673,0.343591,-0.0232434,0.276923,1.70036,-0.11503,0.0119529,2.92579,5,0.1,17,0.3,-3.42267,2.31665,0.671767,-0.00486523,0.0415109,0.120624,-0.0240207,0.204831,0.59507,0.0136278,0.386708,5,0.1,18,0.3,-2.86649,-0.296035,0.653653,-0.157133,-0.203727,-0.00954233,-0.775173,-0.872288,-0.0470728,0.0113648,1.69027,5,0.1,19,0.3,-0.82392,-0.883696,0.564878,-0.226952,0.077133,0.00624508,-1.11962,0.38052,0.0307932,0.00795582,1.36437,5,0.1
0,0.4,-1.64284,-1.89172,0.550668,0.199234,-0.0558704,0.0132293,0.588,-0.164866,0.039041,0.0100737,0.371137,5,0.1,1,0.4,0.192833,-0.681649,0.709945,-0.048754,0.410546,0.0964552,-0.343032,0.76282,0.40856,0.0220014,2.73722,5,0.1,2,0.4,4.64966,1.31802,0.520216,-0.160813,0.0488073,-0.0188351,-0.474453,0.144005,-0.0555515,0.011096,0.246955,5,0.1,3,0.4,-1.51727,-3.85796,0.651855,0.0868142,0.507826,-0.0072971,0.251651,1.50573,-0.0211298,0.00959168,2.513,5,0.1,4,0.4,2.35631,-2.90475,0.51885,0.367135,0.293106,-0.0190794,1.05381,0.850677,-0.0590086,0.0144221,2.11351,5,0.1,5,0.4,-0.944463,-0.0523856,0.675257,-0.0685394,0.0542833,0.180976,-0.202268,0.160202,0.534087,0.0157516,0.348728,5,0.1,6,0.4,3.81463,-0.935776,0.665851,-0.33893,0.291224,-0.0176594,-0.819683,0.859439,-0.0520945,0.025571,2.25268,5,0.1,7,0.4,4.01905,-4.52116,0.533866,-0.112379,-0.235724,0.0177413,-0.331879,-0.695705,0.0523329,0.0190454,0.591424,5,0.1,8,0.4,1.24284,-3.35442,0.57243,-0.156066,0.491029,0.00279099,-0.462413,1.45483,0.00828505,0.0214917,2.5101,5,0.1,9,0.4,3.4042,-3.79129,0.659024,-0.470513,0.0110924,-0.015834,-1.38855,0.0326633,-0.04673,0.00875864,1.91424,5,0.1,10,0.4,-3.55861,4.93698,0.59054,-0.0111103,-0.278139,0.203703,-0.0326633,-0.820637,0.601172,0.0202635,1.26532,5,0.1,11,0.4,-3.7455,4.07752,0.596395,0.514621,-0.0253916,0.00051558,1.52469,-0.0753403,0.00151992,0.0428659,2.51539,5,0.1,12,0.4,0.293949,-0.15049,0.509424,0.0194013,-0.401366,-0.000499189,0.281423,-0.677705,-0.0791848,0.0125467,2.81506,5,0.1,13,0.4,1.18502,1.70137,0.695589,0.00400841,-0.0137776,0.175524,0.0118613,-0.04071,0.517994,0.0135881,0.267734,5,0.1,14,0.4,3.02406,-2.65661,0.681168,-0.247836,0.229764,0.018461,-0.731468,0.677943,0.0544488,0.024007,0.988926,5,0.1,15,0.4,0.578106,-3.60654,0.61932,-0.15506,0.00174046,0.195985,-0.457644,0.005126,0.578403,0.0115035,0.539134,5,0.1,16,0.4,-5.4537,-1.27123,0.596875,0.0826597,0.507414,-0.0343263,0.244617,1.50347,-0.101686,0.0160704,2.51279,5,0.1,17,0.4,-3.42327,2.32181,0.686752,-0.00717044,0.0612199,0.177892,-0.0213385,0.180721,0.525028,0.0159828,0.305966,5,0.1,18,0.4,-2.88601,-0.320528,0.652468,-0.231737,-0.283028,-0.0140741,-0.683904,-0.686675,-0.0414848,0.00870058,1.51975,5,0.1,19,0.4,-0.852114,-0.874114,0.565654,-0.334702,0.113754,0.00921041,-0.987798,0.335693,0.0271499,0.013508,1.07951,5,0.1
0,0.5,-1.61992,-1.89815,0.552189,0.258893,-0.0725973,0.0171907,0.575915,-0.161469,0.0382438,0.0100737,0.371137,5,0.1,1,0.5,0.186093,-0.636071,0.721641,-0.0869597,0.50593,0.137107,-0.398831,1.0607,0.387508,0.0220014,2.73722,5,0.1,2,0.5,4.63116,1.32363,0.518056,-0.208957,0.0634193,-0.0243065,-0.464797,0.141054,-0.0514798,0.011096,0.246955,5,0.1,3,0.5,-1.5073,-3.7996,0.651017,0.112591,0.657812,-0.00946149,0.250757,1.42358,-0.0210553,0.00959168,2.513,5,0.1,4,0.5,2.39759,-2.8718,0.516666,0.451471,0.359822,-0.0243925,0.630215,0.48463,-0.0458471,0.0144221,2.11351,5,0.1,5,0.5,-0.952347,-0.0461416,0.696074,-0.0890615,0.0705373,0.235165,-0.198107,0.156905,0.523098,0.0157516,0.348728,5,0.1,6,0.5,3.77768,-0.902278,0.66382,-0.39021,0.378423,-0.0229456,-0.233367,0.841763,-0.0510365,0.025571,2.25268,5,0.1,7,0.5,4.00612,-4.54827,0.535906,-0.146047,-0.306311,0.0230513,-0.324994,-0.68137,0.0512563,0.0190454,0.591424,5,0.1,8,0.5,1.22486,-3.29785,0.572752,-0.203649,0.640276,0.00364296,-0.464767,1.45395,0.0083223,0.0214917,2.5101,5,0.1,9,0.5,3.35008,-3.79002,0.657202,-0.611395,0.0144068,-0.0205748,-1.35998,0.0319928,-0.0457615,0.00875864,1.91424,5,0.1,10,0.5,-3.55988,4.90483,0.613971,-0.0144266,-0.365851,0.264698,-0.0320375,-0.882834,0.588797,0.0202635,1.26532,5,0.1,11,0.5,-3.68644,4.07459,0.596454,0.66481,-0.0331439,0.000672136,1.41092,-0.0757277,0.00153109,0.0428659,2.51539,5,0.1,12,0.5,0.297639,-0.194704,0.508999,0.057017,-0.487743,-0.00776527,0.439227,-0.970021,-0.0647418,0.0125467,2.81506,5,0.1,13,0.5,1.18548,1.69979,0.715778,0.00521205,-0.0179073,0.22808,0.0116229,-0.0398532,0.507336,0.0135881,0.267734,5,0.1,14,0.5,2.99555,-2.63019,0.683292,-0.32205,0.29855,0.0239862,-0.716403,0.66404,0.0533462,0.024007,0.988926,5,0.1,15,0.5,0.56027,-3.60634,0.641863,-0.201491,0.00226274,0.254668,-0.448208,0.00506639,0.566486,0.0115035,0.539134,5,0.1,16,0.5,-5.44418,-1.21293,0.592919,0.107838,0.657322,-0.0447903,0.245988,1.4241,-0.102207,0.0160704,2.51279,5,0.1,17,0.5,-3.4241,2.32885,0.707214,-0.00933148,0.0795525,0.23116,-0.0208169,0.176951,0.514213,0.0159828,0.305966,5,0.1,18,0.5,-2.91267,-0.35139,0.650849,-0.301126,-0.326043,-0.0182842,-0.669822,-0.196544,-0.0406466,0.00870058,1.51975,5,0.1,19,0.5,-0.890613,-0.861029,0.566713,-0.434924,0.147814,0.0119659,-0.967462,0.32879,0.0266097,0.013508,1.07951,5,0.1
0,0.6,-1.59137,-1.90615,0.554085,0.309432,-0.0867665,0.0205472,0.414312,-0.116169,0.0275075,0.00890508,0.276303,5,0.1,1,0.6,0.175461,-0.580252,0.737141,-0.124674,0.608073,0.171082,-0.339247,0.920117,0.280142,0.0239456,2.44991,5,0.1,2,0.6,4.60811,1.33063,0.515391,-0.249743,0.0757992,-0.028725,-0.334501,0.101507,-0.0352263,0.0122331,0.184377,5,0.1,3,0.6,-1.49488,-3.72731,0.649973,0.134724,0.780821,-0.0113204,0.182629,0.989676,-0.0153184,0.0113999,2.32144,5,0.1,4,0.6,2.44518,-2.83399,0.514028,0.493097,0.39053,-0.0280231,0.204206,0.133514,-0.0258386,0.0143765,1.76761,5,0.1,5,0.6,-0.962169,-0.0383625,0.722008,-0.106446,0.0843064,0.28107,-0.142515,0.112875,0.376314,0.0158444,0.25962,5,0.1,6,0.6,3.73827,-0.860544,0.661289,-0.390828,0.452292,-0.0274241,0.196457,0.605524,-0.0367463,0.0241715,2.00835,5,0.1,7,0.6,3.99002,-4.58205,0.538449,-0.174564,-0.366092,0.0275493,-0.233889,-0.490427,0.0368655,0.0168787,0.440297,5,0.1,8,0.6,1.20233,-3.22707,0.573155,-0.244844,0.768846,0.00437945,-0.341713,1.06394,0.00610948,0.0229748,2.29208,5,0.1,9,0.6,3.28265,-3.78843,0.654933,-0.730735,0.0172079,-0.0245914,-0.97847,0.0231266,-0.0329018,0.00740014,1.43547,5,0.1,10,0.6,-3.56147,4.86407,0.643163,-0.0172377,-0.445986,0.316367,-0.0230074,-0.684023,0.423551,0.0203714,0.957491,5,0.1,11,0.6,-3.61354,4.07092,0.596529,0.785571,-0.0398517,0.000807643,0.960112,-0.0557899,0.00113249,0.038152,2.33379,5,0.1,12,0.6,0.305582,-0.248271,0.507932,0.101707,-0.581502,-0.0132248,0.430852,-0.846326,-0.0436604,0.0090442,2.53245,5,0.1,13,0.6,1.18606,1.69781,0.740932,0.00623465,-0.021404,0.272602,0.00828505,-0.0286698,0.364959,0.0122,0.199322,5,0.1,14,0.6,2.96003,-2.59726,0.685937,-0.384921,0.356823,0.0286669,-0.515342,0.477791,0.0384152,0.0159775,0.736236,5,0.1,15,0.6,0.538049,-3.60609,0.669949,-0.240824,0.00270605,0.30438,-0.322431,0.00369549,0.407517,0.0094041,0.401369,5,0.1,16,0.6,-5.43225,-1.14068,0.587965,0.12964,0.780469,-0.0538498,0.18096,0.991821,-0.0751615,0.0135321,2.35145,5,0.1,17,0.6,-3.42513,2.33762,0.732707,-0.011158,0.0950813,0.276284,-0.0149012,0.127196,0.369936,0.0133199,0.227782,5,0.1,18,0.6,-2.94588,-0.384326,0.648833,-0.359905,-0.326692,-0.0218526,-0.481844,0.162944,-0.0292361,0.00981602,1.36131,5,0.1,19,0.6,-0.938578,-0.844728,0.568033,-0.519823,0.176667,0.0143006,-0.696003,0.236541,0.0191629,0.00895447,0.803666,5,0.1
0,0.7,-1.55839,-1.9154,0.556275,0.349207,-0.0979189,0.0231882,0.358462,-0.100508,0.0238009,0.00890508,0.276303,5,0.1,1,0.7,0.161717,-0.514441,0.755468,-0.1463,0.710168,0.193533,-0.104411,1.04304,0.164997,0.0239456,2.44991,5,0.1,2,0.7,4.5815,1.33871,0.512408,-0.281857,0.0855446,-0.0303105,-0.28944,0.0878274,0.00155717,0.0122331,0.184377,5,0.1,3,0.7,-1.48048,-3.64533,0.648763,0.153019,0.848746,-0.0128555,0.171624,0.391617,-0.0143982,0.0113999,2.32144,5,0.1,4,0.7,2.49565,-2.79494,0.511158,0.516922,0.384333,-0.0288123,0.237331,-0.234798,0.00808388,0.0143765,1.76761,5,0.1,5,0.7,-0.973514,-0.0293772,0.751965,-0.120128,0.0951427,0.317198,-0.123307,0.0976575,0.325583,0.0158444,0.25962,5,0.1,6,0.7,3.70081,-0.81234,0.658366,-0.352794,0.510425,-0.0309519,0.531867,0.523906,-0.0317916,0.0241715,2.00835,5,0.1,7,0.7,3.97141,-4.62107,0.541385,-0.197015,-0.413171,0.0310889,-0.202313,-0.424236,0.0319034,0.0168787,0.440297,5,0.1,8,0.7,1.17611,-3.1459,0.573624,-0.279147,0.844589,0.00499245,-0.322692,0.46286,0.0057593,0.0229748,2.29208,5,0.1,9,0.7,3.20519,-3.7866,0.652313,-0.812924,0.0194266,-0.0277503,-0.640497,0.0199676,-0.0284649,0.00740014,1.43547,5,0.1,10,0.7,-3.56331,4.81604,0.676881,-0.0194475,-0.51362,0.357029,-0.0199378,-0.629514,0.366446,0.0203714,0.957491,5,0.1,11,0.7,-3.53124,4.06666,0.596615,0.850393,-0.0454463,0.000921264,0.36338,-0.0526011,0.00106543,0.038152,2.33379,5,0.1,12,0.7,0.317376,-0.311241,0.506489,0.129213,-0.681589,-0.0147414,0.133999,-1.06974,0.00957772,0.0090442,2.53245,5,0.1,13,0.7,1.18672,1.69553,0.769985,0.0070313,-0.0241555,0.30764,0.00718981,-0.0247955,0.315767,0.0122,0.199322,5,0.1,14,0.7,2.91901,-2.55923,0.688992,-0.434396,0.402692,0.0323546,-0.445873,0.413373,0.0332333,0.0159775,0.736236,5,0.1,15,0.7,0.512382,-3.6058,0.702389,-0.271778,0.0030607,0.343502,-0.278953,0.00318885,0.352573,0.0094041,0.401369,5,0.1,16,0.7,-5.41837,-1.05874,0.582199,0.147803,0.848305,-0.0613927,0.170827,0.389729,-0.0709407,0.0135321,2.35145,5,0.1,17,0.7,-3.42632,2.34776,0.762154,-0.0125881,0.107293,0.311798,-0.0128895,0.11003,0.320055,0.0133199,0.227782,5,0.1,18,0.7,-2.98424,-0.415644,0.646504,-0.406163,-0.295003,-0.0246599,-0.41689,0.443788,-0.0253022,0.00981602,1.36131,5,0.1,19,0.7,-0.993981,-0.825899,0.569557,-0.586641,0.199375,0.0161407,-0.602175,0.204653,0.0165813,0.00895447,0.803666,5,0.1
0,0.8,-1.52192,-1.92563,0.558697,0.377312,-0.105798,0.0250548,0.188172,-0.0527501,0.012517,0.00820546,0.195084,5,0.1,1,0.8,0.146876,-0.438533,0.775431,-0.147667,0.803291,0.203528,0.0671148,0.764265,0.0332594,0.00650087,0.865479,5,0.1,2,0.8,4.55206,1.34764,0.509432,-0.304556,0.0924319,-0.0287816,-0.151873,0.0460744,0.0272989,0.0139978,0.130796,5,0.1,3,0.8,-1.46442,-3.55926,0.647414,0.167078,0.866026,-0.0140354,0.101566,0,-0.00852346,0.0114178,1.02435,5,0.1,4,0.8,2.54835,-2.75813,0.50836,0.534612,0.347799,-0.0267759,0.0919104,-0.476122,0.0309646,0.0146079,1.39687,5,0.1,5,0.8,-0.986059,-0.0194413,0.78509,-0.129795,0.102799,0.342724,-0.0647604,0.0512815,0.171006,0.013996,0.183306,5,0.1,6,0.8,3.66852,-0.759035,0.655134,-0.290293,0.551501,-0.0334442,0.69201,0.275075,-0.0167191,0.021335,2.62932,5,0.1,7,0.8,3.95084,-4.66422,0.544631,-0.212878,-0.446427,0.0335887,-0.106096,-0.222683,0.0167787,0.0190073,0.310857,5,0.1,8,0.8,1.14676,-3.05998,0.574148,-0.305721,0.866026,0.00546724,-0.193834,0,0.00345707,0.0277433,2.20169,5,0.1,9,0.8,3.1214,-3.78457,0.649415,-0.85566,0.0209928,-0.0299826,-0.207305,0.0104904,-0.014931,0.00852523,1.04607,5,0.1,10,0.8,-3.56534,4.76189,0.714166,-0.0210106,-0.565279,0.38576,-0.0104904,-0.376701,0.192404,0.0229948,0.686025,5,0.1,11,0.8,-3.44512,4.06188,0.596712,0.866026,-0.0497818,0.00100881,-0.000119209,-0.0314713,0.000655651,0.0427042,2.27001,5,0.1,12,0.8,0.33058,-0.384539,0.505124,0.131339,-0.780647,-0.0120193,-0.0779331,-0.849068,0.0415444,0.0107862,2.35081,5,0.1,13,0.8,1.18745,1.69301,0.802112,0.00759661,-0.0261009,0.332396,0.00375509,-0.0129342,0.16585,0.01153,0.140733,5,0.1,14,0.8,2.87364,-2.51718,0.692371,-0.469351,0.435102,0.0349611,-0.234246,0.21708,0.0174344,0.0161571,0.519825,5,0.1,15,0.8,0.484,-3.60548,0.738262,-0.293647,0.00331402,0.371146,-0.146493,0.00166893,0.185102,0.0105697,0.283386,5,0.1,16,0.8,-5.40283,-0.972747,0.575744,0.161874,0.86443,-0.067234,0.10252,-0.0319481,-0.0425577,0.0134377,2.39939,5,0.1,17,0.8,-3.42763,2.35896,0.794715,-0.0135899,0.115919,0.336891,-0.00691414,0.0578165,0.168055,0.0173775,0.160825,5,0.1,18,0.8,-3.02665,-0.442647,0.643929,-0.438851,-0.242818,-0.0266433,-0.218868,0.57815,-0.0133216,0.00796394,1.92884,5,0.1,19,0.8,-1.05524,-0.805077,0.571243,-0.633851,0.21542,0.0174418,-0.316203,0.107497,0.00867248,0.00962195,0.56743,5,0.1
0,0.9,-1.48329,-1.93646,0.561262,0.394364,-0.110578,0.026189,0.134781,-0.0377819,0.00896305,0.00820546,0.195084,5,0.1,1,0.9,0.132153,-0.356645,0.7963,-0.14913,0.814097,0.216547,-0.0739731,-0.460416,0.195671,0.00650087,0.865479,5,0.1,2,0.9,4.52088,1.3571,0.506724,-0.318322,0.0966076,-0.0250852,-0.108838,0.0330061,0.0447854,0.0139978,0.130796,5,0.1,3,0.9,-1.4474,-3.47267,0.645945,0.171291,0.86555,-0.0155088,-0.0144243,-0.0190139,-0.0186972,0.0114178,1.02435,5,0.1,4,0.9,2.60267,-2.7249,0.505865,0.55455,0.323911,-0.0228901,0.257418,-0.0536889,0.0450946,0.0146079,1.39687,5,0.1,5,0.9,-0.999348,-0.00891678,0.820178,-0.135663,0.107446,0.358219,-0.0463948,0.0367321,0.122491,0.013996,0.183306,5,0.1,6,0.9,3.64319,-0.702573,0.651709,-0.214899,0.576427,-0.0349588,0.778109,0.197042,-0.0119768,0.021335,2.62932,5,0.1,7,0.9,3.92904,-4.70993,0.54807,-0.222491,-0.466603,0.0351091,-0.0759959,-0.159442,0.0120141,0.0190073,0.310857,5,0.1,8,0.9,1.11518,-2.97337,0.574713,-0.325777,0.866026,0.00582477,-0.186622,0,0.00332668,0.0277433,2.20169,5,0.1,9,0.9,3.0352,-3.78242,0.646345,-0.864983,0.0219423,-0.0313357,-0.0101328,0.00749528,-0.0106953,0.00852523,1.04607,5,0.1,10,0.9,-3.56749,4.70353,0.75366,-0.0219621,-0.600645,0.403195,-0.00753999,-0.299752,0.137817,0.0229948,0.686025,5,0.1,11,0.9,-3.35851,4.05674,0.596816,0.866024,-0.0530295,0.00107624,2.98023e-05,-0.0301301,0.000625849,0.0427042,2.27001,5,0.1,12,0.9,0.343017,-0.466146,0.504197,0.114768,-0.844242,-0.00599902,-0.237012,-0.416694,0.0738874,0.0107862,2.35081,5,0.1,13,0.9,1.18823,1.69034,0.836143,0.00793785,-0.0272732,0.347424,0.00271201,-0.00926852,0.118796,0.01153,0.140733,5,0.1,14,0.9,2.82559,-2.47263,0.695951,-0.490576,0.454773,0.0365411,-0.167772,0.155494,0.0124909,0.0161571,0.519825,5,0.1,15,0.9,0.453937,-3.60514,0.776259,-0.306922,0.00346601,0.387919,-0.104925,0.0012219,0.132587,0.0105697,0.283386,5,0.1,16,0.9,-5.38612,-0.887783,0.568806,0.171968,0.822968,-0.0714236,0.0895858,-0.745632,-0.0371672,0.0134377,2.39939,5,0.1,17,0.9,-3.42902,2.37083,0.829206,-0.0142138,0.121158,0.35212,-0.00493228,0.0413954,0.120375,0.0173775,0.160825,5,0.1,18,0.9,-3.07158,-0.463831,0.641201,-0.458685,-0.179639,-0.0278505,-0.15679,0.653071,-0.00954792,0.00796394,1.92884,5,0.1,19,0.9,-1.12014,-0.783023,0.573028,-0.662503,0.225161,0.018228,-0.226483,0.076998,0.00622123,0.00962195,0.56743,5,0.1
0,1,-1.44339,-1.94764,0.563912,0.40127,-0.112513,0.0266492,-0.00876188,0.00244379,-0.000596046,0.00930999,0.138199,5,0.1,1,1,0.116789,-0.278957,0.818988,-0.158531,0.727321,0.237173,-0.0971705,-1.20173,0.193447,0.0184963,2.65849,5,0.1,2,1,4.48867,1.36688,0.504456,-0.323892,0.0983,-0.0201568,0.00667572,-0.00214577,0.0522733,0.0159944,0.162121,5,0.1,3,1,-1.43052,-3.38636,0.644299,0.164801,0.85842,-0.0173837,-0.112116,-0.152111,-0.0171363,0.0165431,2.2691,5,0.1,4,1,2.65935,-2.69243,0.503813,0.577563,0.327849,-0.0180542,0.167251,0.0925064,0.0502467,0.0205709,1.28309,5,0.1,5,1,-1.01307,0.00195461,0.856423,-0.138038,0.109328,0.364494,0.00292063,-0.00236198,-0.00789762,0.0148844,0.124654,5,0.1,6,1,3.62549,-0.64425,0.648172,-0.140929,0.58652,-0.0355735,0.676394,-0.012666,0.00077486,0.0197834,3.62907,5,0.1,7,1,3.90653,-4.75714,0.551623,-0.226378,-0.474775,0.0357255,0.00488758,0.0104904,-0.00077486,0.0182932,0.211388,5,0.1,8,1,1.08182,-2.88677,0.57531,-0.339556,0.866026,0.00607073,-0.074625,0,0.0013113,0.0207602,2.30514,5,0.1,9,1,2.94886,-3.7802,0.643175,-0.859708,0.0223279,-0.031884,0.126123,-0.000596046,0.000715256,0.00880051,0.756679,5,0.1,10,1,-3.56971,4.6423,0.794455,-0.0223517,-0.620067,0.410253,0.000596046,-0.0679493,-0.00885129,0.022047,0.47172,5,0.1,11,1,-3.27191,4.05131,0.596926,0.866026,-0.0552416,0.00112206,0,-0.0121593,0.000238419,0.039456,2.26982,5,0.1,12,1,0.353159,-0.551947,0.503986,0.0869058,-0.865115,0.00187606,-0.307024,-0.0182092,0.0798106,0.0100308,2.28699,5,0.1,13,1,1.18904,1.68758,0.871296,0.00807643,-0.0277489,0.353509,-0.000178814,0.000715256,-0.00759959,0.0121077,0.221179,5,0.1,14,1,2.77595,-2.42662,0.699648,-0.499171,0.462735,0.0371814,0.0106096,-0.00989437,-0.000804663,0.0067412,0.469555,5,0.1,15,1,0.422882,-3.60479,0.815509,-0.312296,0.00352859,0.394709,0.00676513,-0.000119209,-0.00855327,0.0100986,0.192712,5,0.1,16,1,-5.36856,-0.810038,0.561514,0.178146,0.724812,-0.0739858,0.0271797,-1.17406,-0.0112951,0.0134621,2.28471,5,0.1,17,1,-3.43046,2.38309,0.864834,-0.014466,0.123274,0.358285,0.000357628,-0.0026226,-0.0077486,0.0142283,0.185199,5,0.1,18,1,-3.11799,-0.478619,0.638383,-0.466716,-0.117565,-0.028339,0.0101328,0.567183,0.000566244,0.0102072,2.77413,5,0.1,19,1,-1.18717,-0.760241,0.574873,-0.674105,0.229105,0.0185475,0.0146031,-0.00494719,-0.000417233,0.00828532,0.385871,5,0.1
0,1.1,-1.40364,-1.95888,0.566572,0.390661,-0.112019,0.0265309,-0.190757,0.0115559,-0.00274554,0.00930999,0.138199,5,0.1,1,1.1,0.10077,-0.210478,0.843437,-0.158923,0.657205,0.249425,0.0784383,-0.302949,0.0511184,0.0184963,2.65849,5,0.1,2,1.1,4.45638,1.37676,0.502704,-0.32115,0.0998249,-0.0148921,0.0572801,0.0246242,0.0518747,0.0159944,0.162121,5,0.1,3,1.1,-1.4145,-3.30073,0.642484,0.156192,0.858101,-0.0188292,-0.0691935,0.0837743,-0.0110827,0.0165431,2.2691,5,0.1,4,1.1,2.71811,-2.65864,0.502258,0.598289,0.351967,-0.0130844,0.208601,0.34,0.048209,0.0205709,1.28309,5,0.1,5,1.1,-1.02686,0.0128709,0.892817,-0.137438,0.108848,0.362894,0.0141412,-0.0112249,-0.0374392,0.0148844,0.124654,5,0.1,6,1.1,3.61477,-0.586009,0.64464,-0.0752933,0.574792,-0.0348616,0.569254,-0.223007,0.0135303,0.0197834,3.62907,5,0.1,7,1.1,3.88393,-4.80454,0.55519,-0.225385,-0.472674,0.0355685,0.0232458,0.0489354,-0.00367314,0.0182932,0.211388,5,0.1,8,1.1,1.04742,-2.80053,0.575925,-0.348684,0.854841,0.00623204,-0.0874922,-0.235409,0.00154972,0.0207602,2.30514,5,0.1,9,1.1,2.86334,-3.77797,0.639991,-0.851483,0.0222202,-0.031742,0.0803322,-0.00239909,0.00328943,0.00880051,0.756679,5,0.1,10,1.1,-3.57195,4.57998,0.835418,-0.0222459,-0.625295,0.408455,0.00235438,-0.0117719,-0.0421181,0.022047,0.47172,5,0.1,11,1.1,-3.18531,4.04571,0.59704,0.866026,-0.0567004,0.00115102,0,-0.0137687,0.000279397,0.039456,2.26982,5,0.1,12,1.1,0.360205,-0.638515,0.504598,0.0532411,-0.865969,0.0105124,-0.353463,-0.00227243,0.0888109,0.0100308,2.28699,5,0.1,13,1.1,1.18984,1.68465,0.90675,0.00804123,-0.0320634,0.356407,-0.000812113,-0.0761077,0.0427552,0.0121077,0.221179,5,0.1,14,1.1,2.72732,-2.38055,0.703812,-0.462558,0.456913,0.049836,0.663012,-0.115156,0.22383,0.0067412,0.469555,5,0.1,15,1.1,0.3917,-3.60444,0.85492,-0.310924,0.00350997,0.392977,0.0320803,-0.00038743,-0.0405461,0.0100986,0.192712,5,0.1,16,1.1,-5.35062,-0.744056,0.55406,0.180611,0.590123,-0.0750095,0.0143051,-1.45834,-0.00593066,0.0134621,2.28471,5,0.1,17,1.1,-3.43192,2.39548,0.90086,-0.014684,0.12519,0.363845,-0.00356138,0.0308752,0.0897348,0.0142283,0.185199,5,0.1,18,1.1,-3.16475,-0.487555,0.635553,-0.469111,-0.0627828,-0.0282186,-0.0310838,0.473088,0.00287965,0.0102072,2.77413,5,0.1,19,1.1,-1.25448,-0.737365,0.576725,-0.671146,0.228101,0.0184653,0.0692457,-0.0235215,-0.00190735,0.00828532,0.385871,5,0.1
0,1.2,-1.36575,-1.96998,0.569202,0.365222,-0.109518,0.025937,-0.309706,0.0411272,-0.00971556,0.0123971,0.209239,5,0.1,1,1.2,0.0854847,-0.145482,0.868398,-0.144873,0.648564,0.247456,0.19316,0.0508142,-0.0893176,0.0177327,2.62877,5,0.1,2,1.2,4.42469,1.38686,0.501466,-0.310969,0.101843,-0.00997633,0.152111,0.00995398,0.045687,0.0164836,0.147069,5,0.1,3,1.2,-1.39922,-3.21451,0.64056,0.149387,0.865126,-0.0194907,-0.0734925,0.0180006,-0.00166893,0.0148591,2.25857,5,0.1,4,1.2,2.77879,-2.62167,0.501181,0.6127,0.387156,-0.00856817,0.0525713,0.326395,0.041455,0.0134579,0.967088,5,0.1,5,1.2,-1.04048,0.0236584,0.928782,-0.134376,0.10642,0.354797,0.0504851,-0.0399771,-0.133306,0.015737,0.140661,5,0.1,6,1.2,3.60951,-0.529996,0.641243,-0.0365555,0.541981,-0.032872,0.177741,-0.431538,0.0261962,0.0211876,3.48558,5,0.1,7,1.2,3.86159,-4.85139,0.558715,-0.220352,-0.462115,0.0347748,0.0827312,0.173807,-0.0130534,0.0161953,0.140565,5,0.1,8,1.2,1.01223,-2.71669,0.576553,-0.353587,0.817245,0.00631809,0.00360608,-0.52166,-5.96046e-05,0.0216714,2.75248,5,0.1,9,1.2,2.77879,-3.77577,0.636845,-0.836527,0.0217199,-0.0310332,0.247836,-0.00834465,0.0116825,0.00796984,0.995982,5,0.1,10,1.2,-3.57415,4.51765,0.875898,-0.0217438,-0.618279,0.399342,0.00810623,0.168562,-0.149995,0.0234927,0.315972,5,0.1,11,1.2,-3.09871,4.03999,0.597156,0.866026,-0.057435,0.00116527,0,0.000953674,0,0.0399967,2.26979,5,0.1,12,1.2,0.363772,-0.725116,0.50608,0.0184603,-0.866026,0.0189275,-0.332505,0,0.076443,0.00889986,2.13587,5,0.1,13,1.2,1.19064,1.68101,0.942534,0.00786185,-0.0410467,0.35816,-0.00286102,-0.0951886,-0.0239015,0.0139678,0.162932,5,0.1,14,1.2,2.68506,-2.33566,0.710082,-0.377196,0.43838,0.0766262,0.99659,-0.260115,0.288755,0.00732924,0.170022,5,0.1,15,1.2,0.360886,-3.60409,0.893866,-0.303985,0.00343323,0.384207,0.114188,-0.00143051,-0.144333,0.00847706,0.205431,5,0.1,16,1.2,-5.33256,-0.692395,0.54656,0.179696,0.44363,-0.074628,-0.0376701,-1.42798,0.0157356,0.0128955,2.20659,5,0.1,17,1.2,-3.4334,2.40814,0.937657,-0.0149727,0.127721,0.371203,-0.00143051,0.012517,0.0362992,0.0145172,0.110321,5,0.1,18,1.2,-3.2117,-0.491956,0.632756,-0.468343,-0.0307493,-0.027591,0.0652075,0.144899,0.0103414,0.00932078,2.52328,5,0.1,19,1.2,-1.32099,-0.714759,0.578555,-0.65617,0.223012,0.0180528,0.246525,-0.0838041,-0.00676513,0.00928493,0.256585,5,0.1
0,1.3,-1.33104,-1.98073,0.571748,0.327885,-0.105452,0.0249761,-0.382222,0.0435933,-0.0103079,0.0123971,0.209239,5,0.1,1,1.3,0.0720676,-0.0808715,0.892636,-0.122596,0.639715,0.236605,0.245698,-0.187607,-0.131011,0.0177327,2.62877,5,0.1,2,1.3,4.3947,1.3971,0.50068,-0.285775,0.103052,-0.00589974,0.338048,0.00905991,0.0355095,0.0164836,0.147069,5,0.1,3,1.3,-1.38457,-3.12794,0.638603,0.14427,0.865969,-0.0196061,-0.0377446,0.00225008,0.000122935,0.0148591,2.25857,5,0.1,4,1.3,2.8404,-2.58112,0.500516,0.619375,0.425006,-0.00489224,0.0502318,0.392184,0.0317171,0.0134579,0.967088,5,0.1,5,1.3,-1.05375,0.0341675,0.963819,-0.131631,0.104247,0.347551,0.0136569,-0.0108047,-0.0360347,0.015737,0.140661,5,0.1,6,1.3,3.60621,-0.478037,0.638091,-0.0372574,0.496316,-0.0301007,-0.278622,-0.485156,0.0294372,0.0211876,3.48558,5,0.1,7,1.3,3.83996,-4.89675,0.562128,-0.212172,-0.444936,0.0334844,0.0877082,0.184089,-0.0138357,0.0161953,0.140565,5,0.1,8,1.3,0.976786,-2.63847,0.577187,-0.355775,0.739181,0.00635749,-0.0268929,-0.997648,0.000480562,0.0216714,2.75248,5,0.1,9,1.3,2.69594,-3.77364,0.633799,-0.823588,0.0208985,-0.0298789,0.0645965,-0.00877678,0.012368,0.00796984,0.995982,5,0.1,10,1.3,-3.57629,4.45665,0.915099,-0.0209417,-0.601316,0.384514,0.00859797,0.191122,-0.15898,0.0234927,0.315972,5,0.1,11,1.3,-3.0121,4.03424,0.597273,0.866026,-0.05771,0.00117235,0,-0.00324845,8.19564e-05,0.0399967,2.26979,5,0.1,12,1.3,0.363942,-0.811719,0.508361,-0.0149403,-0.866026,0.0266547,-0.325238,3.72529e-06,0.0746511,0.00889986,2.13587,5,0.1,13,1.3,1.19141,1.67637,0.978303,0.00757799,-0.0521287,0.357468,-0.00305474,-0.118181,-0.0080727,0.0139678,0.162932,5,0.1,14,1.3,2.652,-2.29301,0.719344,-0.2871,0.415259,0.109632,0.8104,-0.219047,0.349458,0.00732924,0.170022,5,0.1,15,1.3,0.330889,-3.60376,0.931581,-0.297142,0.00329502,0.369939,0.0420026,-0.00144541,-0.152964,0.00847706,0.205431,5,0.1,16,1.3,-5.31477,-0.655053,0.539173,0.175935,0.306041,-0.0730583,-0.0439286,-1.26139,0.0183061,0.0128955,2.20659,5,0.1,17,1.3,-3.43491,2.42099,0.975001,-0.0151459,0.129237,0.375605,-0.0012964,0.0113696,0.0329837,0.0145172,0.110321,5,0.1,18,1.3,-3.25829,-0.494758,0.630048,-0.463567,-0.0317995,-0.0265682,0.0518709,-0.234799,0.0109747,0.00932078,2.52328,5,0.1,19,1.3,-1.3854,-0.692867,0.580327,-0.6318,0.214728,0.0173842,0.261262,-0.0888035,-0.00717118,0.00928493,0.256585,5,0.1
0,1.4,-1.3,-1.99103,0.574188,0.294665,-0.100231,0.023742,-0.278175,0.0629425,-0.014931,0.00806558,0.167361,5,0.1,1,1.4,0.0610771,-0.0179912,0.915551,-0.096944,0.616864,0.220756,0.261923,-0.251381,-0.187606,0.0163125,2.67892,5,0.1,2,1.4,4.36803,1.40742,0.500249,-0.245905,0.102788,-0.00291467,0.447989,-0.0177622,0.0241995,0.0133393,0.205468,5,0.1,3,1.4,-1.37033,-3.04134,0.636651,0.140303,0.866026,-0.0193387,-0.0479221,0,0.00569224,0.0107802,2.26157,5,0.1,4,1.4,2.90238,-2.53681,0.500167,0.617564,0.458997,-0.002262,-0.107288,0.260234,0.0209212,0.013085,0.701333,5,0.1,5,1.4,-1.06684,0.0445371,0.99839,-0.130051,0.102996,0.343381,0.0246763,-0.0195,-0.0649989,0.0143488,0.0827125,5,0.1,6,1.4,3.6,-0.43094,0.635235,-0.09709,0.44449,-0.0269562,-0.879407,-0.55255,0.0335276,0.019261,3.07631,5,0.1,7,1.4,3.81923,-4.94021,0.565399,-0.201678,-0.422907,0.0318274,0.126958,0.266075,-0.0200272,0.0170679,0.157585,5,0.1,8,1.4,0.941161,-2.57004,0.577823,-0.355481,0.625378,0.00635237,0.0471175,-1.24383,-0.000834465,0.0181628,3.18632,5,0.1,9,1.4,2.61396,-3.7716,0.630881,-0.814384,0.0198543,-0.0284001,0.158072,-0.012517,0.0179112,0.00730079,1.96287,5,0.1,10,1.4,-3.57833,4.39765,0.952658,-0.019908,-0.576663,0.365485,0.0123978,0.315666,-0.229836,0.0194485,0.208822,5,0.1,11,1.4,-2.9255,4.02846,0.59739,0.866026,-0.0575423,0.00116974,0,0.00882149,-0.000178814,0.0360975,2.26985,5,0.1,12,1.4,0.360903,-0.898321,0.511373,-0.0448279,-0.866026,0.0332713,-0.265166,0,0.0552237,0.00865841,1.68568,5,0.1,13,1.4,1.19215,1.67058,1.01391,0.00720918,-0.0632495,0.353479,-0.00447035,-0.0982285,-0.0843406,0.0143747,0.200395,5,0.1,14,1.4,2.62707,-2.25263,0.732007,-0.214159,0.391746,0.142726,0.652909,-0.262737,0.296414,0.0125301,0.389928,5,0.1,15,1.4,0.301395,-3.60344,0.967717,-0.292259,0.00312328,0.35163,0.0695884,-0.00190735,-0.221103,0.00893587,0.144841,5,0.1,16,1.4,-5.29745,-0.6301,0.531981,0.169849,0.200345,-0.0705242,-0.0822544,-0.825047,0.0341535,0.0140309,2.0496,5,0.1,17,1.4,-3.43642,2.43393,1.0126,-0.0151038,0.128901,0.374648,0.00274181,-0.0222921,-0.0650287,0.0124232,0.059994,5,0.1,18,1.4,-3.30426,-0.5,0.627452,-0.45433,-0.0813618,-0.0252545,0.1477,-0.724077,0.0158846,0.00844732,2.14699,5,0.1,19,1.4,-1.44712,-0.671893,0.582025,-0.600532,0.2041,0.0165254,0.377715,-0.128359,-0.010401,0.00925129,0.289823,5,0.1
0,1.5,-1.27158,-2.00075,0.57649,0.276501,-0.094226,0.0223178,-0.110015,0.0600219,-0.0142232,0.00806558,0.167361,5,0.1,1,1.5,0.0526896,0.0421126,0.936723,-0.0709362,0.585458,0.202864,0.254295,-0.250409,-0.175446,0.0163125,2.67892,5,0.1,2,1.5,4.34578,1.41763,0.50006,-0.198349,0.101609,-0.00104802,0.493139,-0.0111833,0.0133701,0.0133393,0.205468,5,0.1,3,1.5,-1.35661,-2.95474,0.634743,0.133507,0.866026,-0.0188508,-0.0879392,0,0.00488386,0.0107802,2.26157,5,0.1,4,1.5,2.96365,-2.48955,0.500028,0.607815,0.486061,-0.000687782,-0.112474,0.25095,0.0110976,0.013085,0.701333,5,0.1,5,1.5,-1.07975,0.0547035,1.03246,-0.128131,0.0999393,0.338324,0.0196993,-0.0429557,-0.0519194,0.0143488,0.0827125,5,0.1,6,1.5,3.58462,-0.389159,0.632701,-0.220435,0.391908,-0.0237659,-1.47641,-0.506008,0.0306964,0.019261,3.07631,5,0.1,7,1.5,3.79957,-4.98144,0.568502,-0.192571,-0.403825,0.0303911,0.067696,0.141829,-0.0106767,0.0170679,0.157585,5,0.1,8,1.5,0.905729,-2.51411,0.578457,-0.353847,0.490634,0.00632377,0.00587851,-1.39739,-0.000100583,0.0181628,3.18632,5,0.1,9,1.5,2.53245,-3.76967,0.628127,-0.822338,0.0186604,-0.0266927,-0.235051,-0.011906,0.0170507,0.00730079,1.96287,5,0.1,10,1.5,-3.58026,4.3415,0.988102,-0.0187237,-0.546375,0.343562,0.0118464,0.307143,-0.219006,0.0194485,0.208822,5,0.1,11,1.5,-2.8389,4.02274,0.597507,0.866026,-0.0571251,0.00116117,0,0.00268221,-5.21541e-05,0.0360975,2.26985,5,0.1,12,1.5,0.355128,-0.984923,0.514971,-0.0701454,-0.865989,0.0385611,-0.233412,0.00147521,0.0479035,0.00865841,1.68568,5,0.1,13,1.5,1.19286,1.66365,1.04915,0.00688974,-0.0763405,0.353476,-0.00236183,-0.150383,0.053063,0.0143747,0.200395,5,0.1,14,1.5,2.60821,-2.21452,0.747354,-0.169336,0.372197,0.160426,0.277042,-0.151247,0.0685416,0.0125301,0.389928,5,0.1,15,1.5,0.272426,-3.60313,1.00182,-0.287658,0.00294149,0.33054,0.0377819,-0.00181794,-0.210684,0.00893587,0.144841,5,0.1,16,1.5,-5.28086,-0.613509,0.525148,0.161969,0.140119,-0.0656774,-0.0806153,-0.315838,0.0614822,0.0140309,2.0496,5,0.1,17,1.5,-3.43792,2.44663,1.04971,-0.0147905,0.124379,0.367147,0.00397861,-0.0678152,-0.0966191,0.0124232,0.059994,5,0.1,18,1.5,-3.34902,-0.512779,0.625003,-0.440932,-0.182155,-0.0237392,0.137717,-1.20194,0.0151321,0.00844732,2.14699,5,0.1,19,1.5,-1.50551,-0.6521,0.583628,-0.568949,0.191856,0.0155335,0.280872,-0.122309,-0.00990182,0.00925129,0.289823,5,0.1
0,1.6,-1.24437,-2.00986,0.578647,0.268298,-0.0877559,0.0207841,-0.0727773,0.0714064,-0.0168979,0.00742376,0.225148,5,0.1,1,1.6,0.0468278,0.1,0.956117,-0.0467696,0.578287,0.184798,0.226127,0.0956988,-0.189394,0.0165793,2.58008,5,0.1,2,1.6,4.32841,1.42771,0.500007,-0.149071,0.099647,-0.000165403,0.484467,-0.0317693,0.00479817,0.0130496,0.201703,5,0.1,3,1.6,-1.34376,-2.86814,0.632886,0.12278,0.866026,-0.0182241,-0.125945,0,0.00816584,0.0104828,2.29392,5,0.1,4,1.6,3.0237,-2.4399,0.500002,0.590909,0.504106,5.96046e-05,-0.242472,0.0890493,0.00438094,0.0127968,0.491442,5,0.1,5,1.6,-1.09243,0.0644356,1.06595,-0.125104,0.0942145,0.330338,0.0450015,-0.0721328,-0.118613,0.0146503,0.180549,5,0.1,6,1.6,3.55496,-0.352466,0.630476,-0.372851,0.342137,-0.0207469,-1.48797,-0.494033,0.0299811,0.0185876,2.64165,5,0.1,7,1.6,3.78064,-5.02114,0.57149,-0.185978,-0.390029,0.0293523,0.0731945,0.15378,-0.0115633,0.0148363,0.17182,5,0.1,8,1.6,0.870442,-2.47193,0.579087,-0.350839,0.354916,0.00627041,0.0686646,-1.28019,-0.0012517,0.0196788,3.45237,5,0.1,9,1.6,2.44895,-3.76787,0.625547,-0.847125,0.0173807,-0.0248566,-0.200272,-0.0143051,0.0202358,0.00761622,1.65338,5,0.1,10,1.6,-3.58207,4.2885,1.02131,-0.0174463,-0.512397,0.319949,0.0141859,0.383615,-0.260234,0.0182291,0.137468,5,0.1,11,1.6,-2.7523,4.01705,0.597622,0.866026,-0.0564575,0.00114739,0,0.0126362,-0.000268221,0.0325143,2.26996,5,0.1,12,1.6,0.347051,-1.0715,0.519037,-0.0902079,-0.865436,0.0424057,-0.162572,0.0117421,0.0271499,0.00774704,1.29237,5,0.1,13,1.6,1.19353,1.65526,1.08478,0.00665486,-0.0910312,0.358686,-0.0025034,-0.133693,0.0284314,0.012482,0.127469,5,0.1,14,1.6,2.59226,-2.17803,0.763439,-0.152749,0.357521,0.158511,0.0814199,-0.159025,-0.0969768,0.0131405,0.299429,5,0.1,15,1.6,0.243899,-3.60285,1.03377,-0.282091,0.00274777,0.307822,0.0843334,-0.00226498,-0.25034,0.00827511,0.173061,5,0.1,16,1.6,-5.2651,-0.6,0.518924,0.152838,0.140251,-0.0584841,-0.105619,0.285625,0.0811517,0.0107607,1.75872,5,0.1,17,1.6,-3.43937,2.45866,1.08581,-0.0142336,0.115448,0.353411,0.00762939,-0.11003,-0.185668,0.014025,0.106669,5,0.1,18,1.6,-3.39232,-0.537184,0.622709,-0.423849,-0.305974,-0.0221074,0.216007,-1.20655,0.0180006,0.00720166,1.71799,5,0.1,19,1.6,-1.56098,-0.633554,0.585129,-0.53975,0.178669,0.014466,0.322163,-0.145316,-0.0117421,0.00777646,0.204457,5,0.1
0,1.7,-1.21743,-2.01834,0.580656,0.274231,-0.0822768,0.0194877,0.152767,0.0433028,-0.0102445,0.00742376,0.225148,5,0.1,1,1.7,0.0432398,0.159463,0.973723,-0.0254693,0.619998,0.167891,0.197484,0.639589,-0.154953,0.0165793,2.58008,5,0.1,2,1.7,4.31587,1.43751,0.500006,-0.102549,0.0961717,9.52743e-05,0.438064,-0.0404269,0.000853091,0.0130496,0.201703,5,0.1,3,1.7,-1.33241,-2.78154,0.631104,0.101751,0.865677,-0.0174094,-0.277013,-0.0139326,0.00864267,0.0104828,2.29392,5,0.1,4,1.7,3.08164,-2.38903,0.500024,0.568089,0.512923,0.00031637,-0.234216,0.063315,0.00100955,0.0127968,0.491442,5,0.1,5,1.7,-1.105,0.0734113,1.0984,-0.128447,0.0845417,0.318318,-0.0904202,-0.117689,-0.131674,0.0146503,0.180549,5,0.1,6,1.7,3.5098,-0.320562,0.628542,-0.532369,0.297343,-0.018029,-1.61488,-0.410615,0.024911,0.0185876,2.64165,5,0.1,7,1.7,3.76208,-5.05947,0.574375,-0.187712,-0.377074,0.0283779,-0.0820607,0.122368,-0.00920519,0.0148363,0.17182,5,0.1,8,1.7,0.835577,-2.44269,0.57971,-0.347177,0.233219,0.00620307,0.0242889,-1.08685,-0.00045076,0.0196788,3.45237,5,0.1,9,1.7,2.36406,-3.7662,0.623157,-0.842603,0.0160426,-0.0229603,0.277147,-0.0129342,0.0183731,0.00761622,1.65338,5,0.1,10,1.7,-3.58375,4.23909,1.05207,-0.0161164,-0.476289,0.295553,0.0129044,0.3528,-0.236407,0.0182291,0.137468,5,0.1,11,1.7,-2.66569,4.01145,0.597736,0.866026,-0.0557125,0.00113146,0,0.00542402,-0.000115484,0.0325143,2.26996,5,0.1,12,1.7,0.337257,-1.15804,0.523406,-0.105115,-0.865417,0.0448728,-0.129526,0.00372529,0.0200719,0.00774704,1.29237,5,0.1,13,1.7,1.19419,1.64567,1.12087,0.00644326,-0.0990679,0.363314,-0.00202656,-0.0306442,0.0439063,0.012482,0.127469,5,0.1,14,1.7,2.57705,-2.1432,0.778629,-0.154402,0.337671,0.14371,-0.0889003,-0.239164,-0.191268,0.0131405,0.299429,5,0.1,15,1.7,0.215841,-3.60258,1.06351,-0.281098,0.00257567,0.288617,-0.0385243,-0.0013411,-0.151806,0.00827511,0.173061,5,0.1,16,1.7,-5.25032,-0.583395,0.513515,0.142893,0.201127,-0.0494013,-0.097692,0.84497,0.0981987,0.0107607,1.75872,5,0.1,17,1.7,-3.44076,2.46956,1.1202,-0.0134379,0.101689,0.333954,0.00858307,-0.160545,-0.210509,0.014025,0.106669,5,0.1,18,1.7,-3.43369,-0.574116,0.620584,-0.403782,-0.433937,-0.0204203,0.199676,-1.28466,0.0163503,0.00720166,1.71799,5,0.1,19,1.7,-1.61351,-0.616379,0.58652,-0.511758,0.165047,0.0133652,0.259466,-0.132017,-0.0106692,0.00777646,0.204457,5,0.1
0,1.8,-1.18913,-2.02636,0.582556,0.292093,-0.0782013,0.0185236,0.175476,0.0418425,-0.00989437,0.00894608,0.18059,5,0.1,1,1.8,0.0416167,0.224889,0.989753,-0.00766916,0.688897,0.152741,0.15695,0.664219,-0.152498,0.0148093,2.3729,5,0.1,2,1.8,4.30768,1.44689,0.500017,-0.0627279,0.0911266,8.19564e-05,0.353575,-0.0622272,-0.000834465,0.0116116,0.199166,5,0.1,3,1.8,-1.32375,-2.69516,0.62941,0.0705361,0.860447,-0.0164106,-0.333309,-0.111341,0.0116229,0.0105771,0.202449,5,0.1,4,1.8,3.13716,-2.33762,0.500057,0.540662,0.512761,0.000308454,-0.327945,-0.0829697,-0.000923872,0.0136897,0.335994,5,0.1,5,1.8,-1.11837,0.081227,1.12948,-0.13943,0.0713531,0.302371,-0.11301,-0.142951,-0.193775,0.0142272,0.139557,5,0.1,6,1.8,3.44887,-0.292801,0.626858,-0.680763,0.258498,-0.0156716,-1.28996,-0.372708,0.0225604,0.0171855,2.36529,5,0.1,7,1.8,3.74282,-5.09651,0.577162,-0.197864,-0.36267,0.027293,-0.101924,0.17786,-0.0133514,0.0122226,0.102418,5,0.1,8,1.8,0.80104,-2.42408,0.580327,-0.342615,0.146997,0.00611991,0.0808537,-0.610232,-0.00143051,0.0186805,3.39896,5,0.1,9,1.8,2.28188,-3.76466,0.620955,-0.7945,0.0147164,-0.0210673,0.670433,-0.0140667,0.019908,0.0120617,1.54367,5,0.1,10,1.8,-3.5853,4.19327,1.08042,-0.0147939,-0.439441,0.271195,0.0141859,0.393867,-0.256658,0.0189067,0.15552,5,0.1,11,1.8,-2.57909,4.00591,0.597849,0.866026,-0.0548363,0.00111312,0,0.0140667,-0.000298023,0.0330999,2.27008,5,0.1,12,1.8,0.326193,-1.24446,0.527968,-0.115114,-0.861594,0.0460699,-0.0665039,0.0886321,0.00247359,0.0092123,0.96154,5,0.1,13,1.8,1.19482,1.63576,1.15731,0.00620186,-0.0978708,0.364044,-0.00298023,0.0510812,-0.0434518,0.0119548,0.183653,5,0.1,14,1.8,2.56106,-2.11077,0.791941,-0.166029,0.309598,0.121689,-0.124216,-0.321984,-0.24268,0.0136252,0.259999,5,0.1,15,1.8,0.187511,-3.60233,1.09165,-0.285295,0.00244975,0.274342,-0.0263679,-0.0013113,-0.146985,0.00990426,0.103796,5,0.1,16,1.8,-5.23653,-0.558725,0.509078,0.132549,0.293916,-0.0392616,-0.111818,0.944436,0.102729,0.00985945,1.42343,5,0.1,17,1.8,-3.44205,2.47887,1.15246,-0.0124753,0.0841916,0.310171,0.0109673,-0.18537,-0.269353,0.0166234,0.136219,5,0.1,18,1.8,-3.473,-0.623602,0.618625,-0.381505,-0.551218,-0.0187367,0.255585,-1.01203,0.0177622,0.00782264,1.30556,5,0.1,19,1.8,-1.66334,-0.600545,0.587802,-0.484151,0.151446,0.0122651,0.307977,-0.143349,-0.0115931,0.00736177,0.142024,5,0.1
0,1.9,-1.15899,-2.03397,0.584357,0.310825,-0.0737492,0.0174703,0.178553,0.0485629,-0.0114888,0.00894608,0.18059,5,0.1,1,1.9,0.0415904,0.297439,1.00435,0.00665587,0.763688,0.139781,0.127861,0.761688,-0.113335,0.0148093,2.3729,5,0.1,2,1.9,4.303,1.45568,0.500021,-0.0325218,0.0845255,3.91155e-06,0.249147,-0.0708923,-0.000692904,0.0116116,0.199166,5,0.1,3,1.9,-1.3184,-2.61008,0.627812,0.0361176,0.836943,-0.0156667,-0.34488,-0.364006,0.0045076,0.0105771,0.202449,5,0.1,4,1.9,3.18967,-2.28674,0.500082,0.50992,0.504668,0.000192411,-0.30373,-0.0983179,-0.0013262,0.0136897,0.335994,5,0.1,5,1.9,-1.13296,0.0876217,1.15875,-0.152745,0.0563666,0.282757,-0.139162,-0.15342,-0.204578,0.0142272,0.139557,5,0.1,6,1.9,3.37502,-0.268646,0.625394,-0.789035,0.226045,-0.0137072,-0.852033,-0.285955,0.0173077,0.0171855,2.36529,5,0.1,7,1.9,3.72247,-5.13191,0.579826,-0.209324,-0.34538,0.0259945,-0.112653,0.178725,-0.0134334,0.0122226,0.102418,5,0.1,8,1.9,0.767064,-2.41175,0.580934,-0.337607,0.108845,0.0060318,0.0380054,-0.069201,-0.000670552,0.0186805,3.39896,5,0.1,9,1.9,2.20668,-3.76325,0.618942,-0.702039,0.0134159,-0.0192229,1.1213,-0.0123531,0.0175536,0.0120617,1.54367,5,0.1,10,1.9,-3.58672,4.15098,1.10646,-0.0136789,-0.408796,0.251032,0.0089556,0.244528,-0.162154,0.0189067,0.15552,5,0.1,11,1.9,-2.49249,4.00048,0.597959,0.866026,-0.0539657,0.0010944,0,0.0064224,-0.000137836,0.0330999,2.27008,5,0.1,12,1.9,0.314377,-1.33045,0.532584,-0.120793,-0.859696,0.0461774,-0.0422206,-0.00167638,-0.00204146,0.0092123,0.96154,5,0.1,13,1.9,1.19543,1.62637,1.19348,0.00591036,-0.0885772,0.359051,-0.00303239,0.127636,-0.0690967,0.0119548,0.183653,5,0.1,14,1.9,2.54368,-2.08165,0.802851,-0.182338,0.270669,0.0961779,-0.182301,-0.444323,-0.262097,0.0136252,0.259999,5,0.1,15,1.9,0.158778,-3.60209,1.11843,-0.289646,0.00233948,0.261826,-0.0437786,-0.00101328,-0.115156,0.00990426,0.103796,5,0.1,16,1.9,-5.22381,-0.524209,0.50566,0.122139,0.398727,-0.0291877,-0.100136,1.0859,0.0973158,0.00985945,1.42343,5,0.1,17,1.9,-3.44325,2.48635,1.18218,-0.0114344,0.0653163,0.284545,0.0101626,-0.188917,-0.250928,0.0166234,0.136219,5,0.1,18,1.9,-3.50995,-0.683777,0.616835,-0.357753,-0.650843,-0.0170915,0.231341,-0.928104,0.0156499,0.00782264,1.30556,5,0.1,19,1.9,-1.71034,-0.586079,0.588974,-0.456621,0.138166,0.011191,0.260405,-0.126377,-0.0102222,0.00736177,0.142024,5,0.1
0,2,-1.12715,-2.04108,0.586042,0.324306,-0.0682712,0.0161737,0.0767112,0.0616312,-0.0146031,0.015147,0.129804,5,0.1,1,2,0.0428359,0.377316,1.01778,0.0176343,0.829611,0.128931,0.0907071,0.51044,-0.10848,0.0144823,2.28473,5,0.1,2,2,4.30082,1.46376,0.500018,-0.0128865,0.0767827,-5.06639e-05,0.145197,-0.0844598,-0.000357628,0.0129086,0.326202,5,0.1,3,2,-1.31647,-2.52865,0.626265,0.00332594,0.787073,-0.0152931,-0.303388,-0.633836,0.0039041,0.0107705,0.0842358,5,0.1,4,2,3.23907,-2.23692,0.500095,0.477093,0.489849,5.51343e-05,-0.364065,-0.211,-0.00137091,0.0112108,0.36357,5,0.1,5,2,-1.14888,0.0924969,1.18595,-0.16484,0.04126,0.260466,-0.0926256,-0.146151,-0.244915,0.0134995,0.166537,5,0.1,6,2,3.2927,-0.247392,0.624105,-0.848836,0.19963,-0.0121072,-0.3438,-0.249505,0.0151098,0.017439,2.26715,5,0.1,7,2,3.70105,-5.16548,0.582353,-0.217915,-0.325131,0.0244722,-0.048995,0.233412,-0.0175834,0.013281,0.105497,5,0.1,8,2,0.733548,-2.4,0.581533,-0.331824,0.137579,0.00592917,0.0908375,0.604749,-0.00163913,0.019976,3.03637,5,0.1,9,2,2.14244,-3.76197,0.617108,-0.580269,0.0121772,-0.0174597,1.27113,-0.0126362,0.0181198,0.00747448,1.45921,5,0.1,10,2,-3.58804,4.11125,1.1308,-0.0128567,-0.386107,0.236067,0.00810623,0.22769,-0.148475,0.0159207,0.0898049,5,0.1,11,2,-2.40589,3.99512,0.598068,0.866026,-0.0530362,0.00107437,0,0.0144243,-0.000268221,0.0306532,2.2702,5,0.1,12,2,0.302159,-1.41625,0.537173,-0.122764,-0.85358,0.0453785,0.00591576,0.158489,-0.0150502,0.00817763,0.688655,5,0.1,13,2,1.196,1.61823,1.22892,0.00556409,-0.0736415,0.34813,-0.00399351,0.165284,-0.157595,0.0131824,0.152531,5,0.1,14,2,2.52458,-2.05693,0.811163,-0.199097,0.222975,0.0702366,-0.13864,-0.499129,-0.252455,0.0120885,0.259359,5,0.1,15,2,0.129679,-3.60186,1.14402,-0.291189,0.00222921,0.249302,0.024665,-0.0013113,-0.143528,0.00922615,0.0740845,5,0.1,16,2,-5.2121,-0.479118,0.50321,0.111902,0.499724,-0.0200391,-0.10705,0.886202,0.0846088,0.0111266,1.13282,5,0.1,17,2,-3.44434,2.49195,1.20936,-0.0103891,0.0469744,0.258693,0.010848,-0.175476,-0.271201,0.0142076,0.249979,5,0.1,18,2,-3.54453,-0.753011,0.615204,-0.333238,-0.727996,-0.0155196,0.267148,-0.57891,0.0160933,0.00838986,0.939485,5,0.1,19,2,-1.75466,-0.572893,0.590042,-0.429052,0.125474,0.0101641,0.303209,-0.130296,-0.0105202,0.00736558,0.340368,5,0.1
0,2.1,-1.09432,-2.0476,0.587588,0.332066,-0.0622544,0.0147482,0.0621304,0.0599176,-0.0142008,0.015147,0.129804,5,0.1,1,2.1,0.0450215,0.462153,1.03021,0.0257242,0.861026,0.120229,0.0696019,0.145497,-0.0722706,0.0144823,2.28473,5,0.1,2,2.1,4.30013,1.47105,0.500012,-0.00207499,0.0691799,-6.43544e-05,0.074774,-0.070028,4.09782e-05,0.0129086,0.326202,5,0.1,3,2.1,-1.31747,-2.4532,0.624747,-0.0216354,0.720745,-0.0151101,-0.198156,-0.699013,0.000737607,0.0107705,0.0842358,5,0.1,4,2.1,3.28506,-2.18924,0.500094,0.443216,0.46137,-5.94184e-05,-0.327498,-0.356078,-0.000923872,0.0112108,0.36357,5,0.1,5,2.1,-1.16589,0.0959213,1.21082,-0.175812,0.0275641,0.237404,-0.11237,-0.126014,-0.222981,0.0134995,0.166537,5,0.1,6,2.1,3.20676,-0.228527,0.622961,-0.864951,0.178924,-0.0108531,-0.0429749,-0.174441,0.0105649,0.017439,2.26715,5,0.1,7,2.1,3.67933,-5.19691,0.584718,-0.213656,-0.303904,0.0228728,0.125736,0.202686,-0.01527,0.013281,0.105497,5,0.1,8,2.1,0.700707,-2.38184,0.58212,-0.325665,0.23647,0.00581788,0.0499189,1.26238,-0.000905246,0.019976,3.03637,5,0.1,9,2.1,2.09096,-3.76081,0.615447,-0.449203,0.0110183,-0.0157962,1.28345,-0.0108927,0.0156388,0.00747448,1.45921,5,0.1,10,2.1,-3.58929,4.07367,1.15375,-0.0121683,-0.366031,0.223447,0.00619888,0.188977,-0.114165,0.0159207,0.0898049,5,0.1,11,2.1,-2.31928,3.98987,0.598174,0.866026,-0.0521291,0.00105808,0,0.00666082,-0.000122935,0.0306532,2.2702,5,0.1,12,2.1,0.289924,-1.50097,0.541637,-0.121715,-0.841448,0.0438666,0.0190325,0.123337,-0.0166073,0.00817763,0.688655,5,0.1,13,2.1,1.19654,1.61177,1.26292,0.00516698,-0.0551406,0.331475,-0.00405312,0.193968,-0.183225,0.0131824,0.152531,5,0.1,14,2.1,2.50367,-2.03715,0.81688,-0.221309,0.1726,0.043856,-0.273928,-0.500023,-0.267401,0.0120885,0.259359,5,0.1,15,2.1,0.101058,-3.60165,1.16826,-0.277812,0.00210591,0.235648,0.230285,-0.0012368,-0.137091,0.00922615,0.0740845,5,0.1,16,2.1,-5.20142,-0.42522,0.5016,0.102025,0.572805,-0.0124429,-0.0935793,0.56088,0.0669099,0.0111266,1.13282,5,0.1,17,2.1,-3.44532,2.49581,1.23386,-0.00929274,0.0306584,0.2313,0.011161,-0.149012,-0.278264,0.0142076,0.249979,5,0.1,18,2.1,-3.57659,-0.828618,0.613728,-0.308524,-0.782205,-0.0140417,0.237018,-0.464048,0.0138879,0.00838986,0.939485,5,0.1,19,2.1,-1.79632,-0.560959,0.591009,-0.406106,0.113511,0.00919783,0.180453,-0.112429,-0.00908598,0.00736558,0.340368,5,0.1
0,2.2,-1.06093,-2.05352,0.58899,0.333983,-0.056082,0.0132859,-0.0348687,0.0641346,-0.0151992,0.0100463,0.153853,5,0.1,1,2.2,0.0478971,0.548628,1.04188,0.0313182,0.866026,0.113311,0.0414029,0,-0.0708699,0.0175408,2.26387,5,0.1,2,2.2,4.30021,1.47762,0.500006,0.00276566,0.0623584,-5.06639e-05,0.025034,-0.0681281,0.000238419,0.0119984,0.320503,5,0.1,3,2.2,-1.32047,-2.38477,0.623241,-0.036782,0.646377,-0.0149772,-0.107229,-0.79143,0.0026226,0.00951172,2.06396,5,0.1,4,2.2,3.32771,-2.1451,0.500084,0.409228,0.419253,-0.00013262,-0.361919,-0.482678,-0.000536442,0.0106617,0.496877,5,0.1,5,2.2,-1.18397,0.0980922,1.23344,-0.184861,0.0163268,0.214759,-0.0585318,-0.0977851,-0.234306,0.0124361,0.261406,5,0.1,6,2.2,3.12018,-0.211449,0.621925,-0.866026,0.163029,-0.00989139,0,-0.150755,0.00917912,0.0177045,2.25792,5,0.1,7,2.2,3.65882,-5.22626,0.586927,-0.194412,-0.282669,0.0212729,0.251174,0.230074,-0.0173151,0.0129483,0.0824095,5,0.1,8,2.2,0.668441,-2.35155,0.582696,-0.318842,0.370586,0.00569522,0.0989735,1.3355,-0.00175834,0.0175173,2.66258,5,0.1,9,2.2,2.05206,-3.75977,0.613944,-0.333655,0.00994205,-0.0142515,0.993371,-0.010848,0.0156462,0.00821957,1.35315,5,0.1,10,2.2,-3.59048,4.03805,1.17551,-0.0115216,-0.345755,0.211492,0.00727177,0.226974,-0.132203,0.0178234,0.219634,5,0.1,11,2.2,-2.23268,3.9847,0.598279,0.866026,-0.0511944,0.0010401,0,0.0141859,-0.000268221,0.0302034,2.27032,5,0.1,12,2.2,0.277896,-1.5843,0.545928,-0.118304,-0.822291,0.0418231,0.0517517,0.286937,-0.025183,0.00762267,0.479721,5,0.1,13,2.2,1.19703,1.6072,1.29506,0.00473559,-0.03663,0.31023,-0.00470877,0.169337,-0.246346,0.0149106,0.194648,5,0.1,14,2.2,2.48016,-2.02233,0.819957,-0.248373,0.124419,0.0181094,-0.243902,-0.457168,-0.241816,0.0127812,0.197027,5,0.1,15,2.2,0.0746801,-3.60144,1.1911,-0.247497,0.00197291,0.220627,0.364937,-0.00143051,-0.168383,0.00724956,0.212867,5,0.1,16,2.2,-5.19168,-0.365768,0.500659,0.0926495,0.609719,-0.00670403,-0.0958443,0.17014,0.0478327,0.0100147,1.0096,5,0.1,17,2.2,-3.4462,2.49819,1.25558,-0.00815392,0.0174582,0.202811,0.0118017,-0.113964,-0.292242,0.0168293,0.244332,5,0.1,18,2.2,-3.60624,-0.908693,0.612392,-0.284159,-0.813933,-0.012669,0.257134,-0.142962,0.0138879,0.00749923,0.648091,5,0.1,19,2.2,-1.83606,-0.550164,0.591884,-0.388691,0.102398,0.00829846,0.185907,-0.112265,-0.00905991,0.00809653,1.01583,5,0.1
0,2.3,-1.02745,-2.05884,0.59025,0.337503,-0.050576,0.011981,0.076469,0.0483096,-0.0114553,0.0100463,0.153853,5,0.1,1,2.3,0.0512203,0.635231,1.05293,0.0349496,0.866026,0.108088,0.0296989,-3.72529e-06,-0.0402555,0.0175408,2.26387,5,0.1,2,2.3,4.30064,1.4835,0.500002,0.00612363,0.0549372,-2.76603e-05,0.0334084,-0.0793785,0.000212342,0.0119984,0.320503,5,0.1,3,2.3,-1.32458,-2.3226,0.621753,-0.0445027,0.60944,-0.0148186,-0.0488609,-0.0428855,0.0013262,0.00951172,2.06396,5,0.1,4,2.3,3.36692,-2.10588,0.500069,0.375798,0.362511,-0.000166055,-0.318438,-0.63546,-0.000152737,0.0106617,0.496877,5,0.1,5,2.3,-1.20267,0.0992891,1.25374,-0.188083,0.0081241,0.191305,-0.00201911,-0.0669356,-0.236265,0.0124361,0.261406,5,0.1,6,2.3,3.03358,-0.195778,0.620974,-0.866026,0.151369,-0.00918144,0,-0.0920584,0.00560656,0.0177045,2.25792,5,0.1,7,2.3,3.64081,-5.25339,0.588969,-0.164331,-0.260033,0.0195689,0.339702,0.228375,-0.0171885,0.0129483,0.0824095,5,0.1,8,2.3,0.637467,-2.30753,0.583269,-0.296892,0.510714,0.0058502,0.323512,1.39377,0.00393391,0.0175173,2.66258,5,0.1,9,2.3,2.02315,-3.75882,0.612593,-0.251487,0.00895374,-0.0128258,0.586256,-0.00919402,0.0132769,0.00821957,1.35315,5,0.1,10,2.3,-3.59159,4.00493,1.19596,-0.0107396,-0.313823,0.197225,0.00847876,0.398442,-0.155479,0.0178234,0.219634,5,0.1,11,2.3,-2.14608,3.97963,0.598382,0.866026,-0.0502966,0.00102324,0,0.00664592,-0.000122935,0.0302034,2.27032,5,0.1,12,2.3,0.266321,-1.66521,0.549989,-0.113128,-0.796432,0.0394083,0.0550952,0.262007,-0.0243001,0.00762267,0.479721,5,0.1,13,2.3,1.19748,1.6044,1.3249,0.00429582,-0.0196962,0.286861,-0.00420958,0.147723,-0.2295,0.0149106,0.194648,5,0.1,14,2.3,2.45405,-2.01206,0.820587,-0.273647,0.0821978,-0.00509601,-0.241071,-0.383317,-0.217386,0.0127812,0.197027,5,0.1,15,2.3,0.0519248,-3.60125,1.21228,-0.206223,0.00181869,0.202666,0.44836,-0.00166893,-0.192225,0.00724956,0.212867,5,0.1,16,2.3,-5.18286,-0.30504,0.500196,0.0838727,0.595143,-0.00287108,-0.082314,-0.412716,0.0293404,0.0100147,1.0096,5,0.1,17,2.3,-3.44695,2.49936,1.27443,-0.00700802,0.00611059,0.174396,0.0111461,-0.104919,-0.277013,0.0168293,0.244332,5,0.1,18,2.3,-3.63345,-0.990743,0.61119,-0.260505,-0.825613,-0.0114031,0.224233,-0.057485,0.0117868,0.00749923,0.648091,5,0.1,19,2.3,-1.87362,-0.540449,0.592671,-0.359125,0.0921654,0.00747228,0.391446,-0.0953004,-0.00770018,0.00809653,1.01583,5,0.1
0,2.4,-0.993329,-2.06367,0.591394,0.344305,-0.0460148,0.0109002,0.0386238,0.0447035,-0.0105798,0.00583946,0.239561,5,0.1,1,2.4,0.0548343,0.721833,1.06354,0.03701,0.866026,0.104114,0.01055,0,-0.0439882,0.0139276,2.26441,5,0.1,2,2.4,4.30138,1.48858,0.500001,0.00810623,0.0466585,-1.04308e-05,0.000953674,-0.0854135,0.000149012,0.0127734,0.30259,5,0.1,3,2.4,-1.32919,-2.26128,0.620281,-0.046888,0.620919,-0.0145793,-0.000536442,0.199199,0.00399351,0.0117269,2.63419,5,0.1,4,2.4,3.4029,-2.07295,0.500052,0.343555,0.295204,-0.000166893,-0.33462,-0.696898,0.000119209,0.0111346,0.473609,5,0.1,5,2.4,-1.22137,0.099813,1.27168,-0.184667,0.00279732,0.167286,0.0724196,-0.0403635,-0.244856,0.0120119,0.253227,5,0.1,6,2.4,2.94698,-0.181069,0.620082,-0.866026,0.142947,-0.0086695,0,-0.0834838,0.0050962,0.0155556,2.25964,5,0.1,7,2.4,3.62615,-5.27822,0.590838,-0.128424,-0.23607,0.0177667,0.369787,0.254631,-0.0191927,0.0105893,0.185656,5,0.1,8,2.4,0.609652,-2.24989,0.583877,-0.257194,0.636768,0.00632107,0.456393,1.07491,0.00479817,0.0198273,2.38528,5,0.1,9,2.4,2,-3.75797,0.611375,-0.220469,0.00805259,-0.0115275,0.0572801,-0.0089407,0.0129938,0.00867594,1.15473,5,0.1,10,2.4,-3.59262,3.97573,1.21486,-0.009799,-0.268525,0.180048,0.010252,0.496149,-0.189364,0.0153922,0.211731,5,0.1,11,2.4,-2.05947,3.97464,0.598484,0.866026,-0.0493765,0.00100583,-5.96046e-05,0.0137091,-0.000268221,0.0278141,2.02592,5,0.1,12,2.4,0.255312,-1.74337,0.553802,-0.106735,-0.76454,0.0367656,0.0749379,0.397444,-0.0293255,0.00922824,0.340773,5,0.1,13,2.4,1.19789,1.60301,1.35241,0.00387132,-0.0101328,0.262925,-0.00429153,0.0346303,-0.25475,0.0131689,0.273134,5,0.1,14,2.4,2.42563,-2.00561,0.819064,-0.293112,0.0483215,-0.0245422,-0.133991,-0.292063,-0.168175,0.0100021,0.312887,5,0.1,15,2.4,0.0335983,-3.60108,1.23154,-0.160014,0.00163913,0.181994,0.466116,-0.00190735,-0.22167,0.00760458,0.413044,5,0.1,16,2.4,-5.17488,-0.248221,0.500029,0.0757337,0.535879,-0.000715256,-0.0817776,-0.734493,0.0145137,0.0101061,0.905267,5,0.1,17,2.4,-3.4476,2.49951,1.2905,-0.00591874,-0.0022769,0.147262,0.010848,-0.0584126,-0.266135,0.0127431,0.618144,5,0.1,18,2.4,-3.65837,-1.07323,0.610108,-0.237906,-0.819927,-0.010249,0.233531,0.193059,0.0115037,0.00716163,0.434956,5,0.1,19,2.4,-1.90734,-0.531701,0.59338,-0.313017,0.08284,0.00671744,0.51856,-0.0932515,-0.00751019,0.00817809,0.730547,5,0.1
0,2.5,-0.958583,-2.06753,0.59235,0.351259,-0.0267763,0.00755191,0.0775866,0.307515,-0.0513792,0.00583946,0.239561,5,0.1,1,2.5,0.0585854,0.808436,1.07379,0.0379416,0.866026,0.101282,0.00645407,-3.72529e-06,-0.0191107,0.0139276,2.26441,5,0.1,2,2.5,4.30224,1.49282,0.5,0.00885725,0.038185,-4.65661e-07,-0.00810623,-0.0834167,6.33299e-05,0.0127734,0.30259,5,0.1,3,2.5,-1.33337,-2.1973,0.618846,-0.0323549,0.665386,-0.0140558,0.261098,0.602946,0.0066869,0.0117269,2.63419,5,0.1,4,2.5,3.43569,-2.04692,0.500036,0.312853,0.225621,-0.000146963,-0.289276,-0.684038,0.000268221,0.0111346,0.473609,5,0.1,5,2.5,-1.23939,0.0998694,1.2872,-0.174885,-0.00171774,0.143216,0.123039,-0.0436255,-0.236645,0.0120119,0.253227,5,0.1,6,2.5,2.86037,-0.167096,0.619235,-0.866026,0.137237,-0.00832062,0,-0.0399249,0.00244379,0.0155556,2.25964,5,0.1,7,2.5,3.61515,-5.30054,0.592517,-0.0918001,-0.210179,0.0158156,0.354975,0.264049,-0.0198893,0.0105893,0.185656,5,0.1,8,2.5,0.585769,-2.18084,0.584529,-0.224313,0.742601,0.00667488,0.225738,0.982806,0.00213459,0.0198273,2.38528,5,0.1,9,2.5,1.97722,-3.75721,0.610283,-0.243573,0.00724234,-0.0103505,-0.447832,-0.00749528,0.0108853,0.00867594,1.15473,5,0.1,10,2.5,-3.59355,3.95146,1.23193,-0.00879355,-0.216359,0.161473,0.00999868,0.536576,-0.184432,0.0153922,0.211731,5,0.1,11,2.5,-1.97287,3.96975,0.598583,0.866025,-0.0483971,0.000986736,1.49012e-05,0.00838935,-0.000167638,0.0278141,2.02592,5,0.1,12,2.5,0.245,-1.81747,0.557339,-0.0995641,-0.714117,0.0340088,0.0712872,0.594862,-0.0268109,0.00922824,0.340773,5,0.1,13,2.5,1.19826,1.60205,1.37741,0.00344366,-0.0114139,0.23693,-0.00429153,-0.101492,-0.266917,0.0131689,0.273134,5,0.1,14,2.5,2.3957,-2.00207,0.81582,-0.304664,0.0241071,-0.0397449,-0.0843406,-0.19455,-0.132978,0.0100021,0.312887,5,0.1,15,2.5,0.0198854,-3.60093,1.24869,-0.114837,0.00146106,0.161383,0.430879,-0.00169873,-0.194579,0.00760458,0.413044,5,0.1,16,2.5,-5.16769,-0.198804,0.500011,0.0682876,0.449188,0.000194833,-0.0693202,-0.933952,0.0045523,0.0101061,0.905267,5,0.1,17,2.5,-3.44814,2.49895,1.30394,-0.00488497,-0.00856519,0.12182,0.00984967,-0.0421703,-0.242949,0.0127431,0.618144,5,0.1,18,2.5,-3.68107,-1.15426,0.609137,-0.216541,-0.800087,-0.00920631,0.200719,0.230961,0.00965595,0.00716163,0.434956,5,0.1,19,2.5,-1.93587,-0.523852,0.594017,-0.256354,0.0743913,0.00603618,0.599422,-0.078164,-0.00631437,0.00817809,0.730547,5,0.1
0,2.6,-0.923158,-2.06845,0.592815,0.355925,0.00969768,0.00151545,-0.000417233,0.396609,-0.0654459,0.00815237,0.085717,5,0.1,1,2.6,0.0623942,0.895039,1.08382,0.0380301,0.866026,0.0991791,-0.00576116,0,-0.0275373,0.0135717,2.2648,5,0.1,2,2.6,4.30294,1.49623,0.5,0.00343323,0.0300884,1.49012e-06,-0.108957,-0.0780225,2.98023e-05,0.013294,0.263782,5,0.1,3,2.6,-1.33507,-2.12767,0.61748,-5.06639e-05,0.72633,-0.0132114,0.361204,0.551224,0.0103712,0.0114406,2.50786,5,0.1,4,2.6,3.46553,-2.02768,0.500023,0.284028,0.160253,-0.000116229,-0.294209,-0.615478,0.000327826,0.0106667,0.45801,5,0.1,5,2.6,-1.25618,0.0995144,1.30035,-0.160158,-0.00493862,0.11996,0.170767,-0.0172071,-0.228405,0.0123949,0.873036,5,0.1,6,2.6,2.77377,-0.153561,0.618414,-0.866026,0.13337,-0.00808537,0,-0.0441372,0.00271201,0.0181527,2.26047,5,0.1,7,2.6,3.60767,-5.32022,0.593998,-0.0587046,-0.183165,0.0137821,0.3016,0.276327,-0.0208318,0.0160508,0.273638,5,0.1,8,2.6,0.564251,-2.10221,0.585202,-0.207704,0.823838,0.00672638,0.125378,0.60606,-0.00113249,0.00751498,1.4233,5,0.1,9,2.6,1.95027,-3.75652,0.609301,-0.297403,0.00650883,-0.00929236,-0.573993,-0.00727177,0.0105202,0.00947467,0.928947,5,0.1,10,2.6,-3.59438,3.9325,1.24715,-0.00777841,-0.163096,0.142786,0.010252,0.520349,-0.190616,0.0180917,0.413642,5,0.1,11,2.6,-1.88627,3.96496,0.598681,0.866026,-0.0472724,0.000964105,-5.96046e-05,0.0158548,-0.000327826,0.0269225,1.59329,5,0.1,12,2.6,0.235412,-1.88569,0.560603,-0.0920087,-0.648183,0.0312358,0.0816956,0.713825,-0.0293255,0.00730187,0.259728,5,0.1,13,2.6,1.19858,1.6,1.39974,0.00301003,-0.0333548,0.20929,-0.00447035,-0.325441,-0.286698,0.012089,0.212899,5,0.1,14,2.6,2.36497,-2.00049,0.811259,-0.307876,0.00889301,-0.0506714,0.0282526,-0.112414,-0.0837445,0.0103902,0.271774,5,0.1,15,2.6,0.0104539,-3.60079,1.26387,-0.0749294,0.00129342,0.142393,0.362907,-0.00154972,-0.188053,0.00817966,0.36244,5,0.1,16,2.6,-5.1612,-0.158471,0.500042,0.0614882,0.359303,0.000348687,-0.0679493,-0.826955,-0.000834465,0.00847731,0.826819,5,0.1,17,2.6,-3.44858,2.49806,1.31494,-0.00394583,-0.00718832,0.0986338,0.00882149,0.0796318,-0.220835,0.0153657,1.96112,5,0.1,18,2.6,-3.70173,-1.23287,0.608263,-0.196582,-0.769219,-0.00826716,0.203252,0.404298,0.00932813,0.00810845,0.287719,5,0.1,19,2.6,-1.95848,-0.516795,0.59459,-0.195846,0.0667885,0.00542104,0.598788,-0.0756085,-0.00610948,0.00679697,0.725228,5,0.1
0,2.7,-0.887528,-2.06593,0.592709,0.356635,0.0368029,-0.00301087,-0.00299886,0.160575,-0.0275858,0.00815237,0.085717,5,0.1,1,2.7,0.0661743,0.981641,1.09365,0.0375886,0.866025,0.0977509,-0.0047877,-7.45058e-06,-0.00727177,0.0135717,2.2648,5,0.1,2,2.7,4.30262,1.49886,0.5,-0.0117555,0.0226755,2.79397e-06,-0.226319,-0.0698566,0,0.013294,0.263782,5,0.1,3,2.7,-1.33347,-2.05199,0.616148,0.0302864,0.788586,-0.0139399,0.252761,0.629187,-0.0207946,0.0114406,2.50786,5,0.1,4,2.7,3.49256,-2.01461,0.500013,0.257192,0.102672,-8.29808e-05,-0.250757,-0.52622,0.0003241,0.0106667,0.45801,5,0.1,5,2.7,-1.27133,0.0988063,1.31125,-0.14267,-0.00958574,0.0983585,0.179328,-0.0408967,-0.204086,0.0123949,0.873036,5,0.1,6,2.7,2.68717,-0.140369,0.617615,-0.866026,0.131005,-0.00793943,0,-0.0119256,0.000733882,0.0181527,2.26047,5,0.1,7,2.7,3.60319,-5.33719,0.595275,-0.0322226,-0.156575,0.0117782,0.22544,0.256717,-0.019338,0.0160508,0.273638,5,0.1,8,2.7,0.54517,-2.01932,0.585915,-0.164891,0.811239,0.00791773,0.667904,-0.749044,0.0217855,0.00751498,1.4233,5,0.1,9,2.7,1.91727,-3.7559,0.608421,-0.365315,0.0058528,-0.00834391,-0.729814,-0.00603497,0.00873208,0.00947467,0.928947,5,0.1,10,2.7,-3.59511,3.9187,1.26055,-0.00686795,-0.113796,0.125858,0.00822544,0.460118,-0.152625,0.0180917,0.413642,5,0.1,11,2.7,-1.79967,3.96031,0.598776,0.865951,-0.045928,0.000936072,-0.00294298,0.0130385,-0.000271946,0.0269225,1.59329,5,0.1,12,2.7,0.226601,-1.94667,0.563588,-0.0843481,-0.57045,0.0285141,0.0738995,0.781283,-0.0259504,0.00730187,0.259728,5,0.1,13,2.7,1.19886,1.59479,1.41926,0.0025792,-0.0727251,0.181257,-0.00416487,-0.434577,-0.275001,0.012089,0.212899,5,0.1,14,2.7,2.33448,-2.00011,0.805844,-0.300327,-0.000642613,-0.0568935,0.12432,-0.0749975,-0.0406466,0.0103902,0.271774,5,0.1,15,2.7,0.00467293,-3.60067,1.27719,-0.0418797,0.00113994,0.12408,0.291836,-0.00151992,-0.179231,0.00817966,0.36244,5,0.1,16,2.7,-5.15537,-0.126418,0.500069,0.055334,0.286069,0.000147149,-0.056982,-0.575637,-0.00271946,0.00847731,0.826819,5,0.1,17,2.7,-3.44846,2.49774,1.32375,0.0102095,0.00353009,0.0781072,0.244677,0.23666,-0.190206,0.0153657,1.96112,5,0.1,18,2.7,-3.72044,-1.30784,0.60748,-0.178079,-0.73023,-0.00742562,0.172585,0.398122,0.00775605,0.00810845,0.287719,5,0.1,19,2.7,-1.97508,-0.510467,0.595104,-0.136593,0.0599707,0.00486951,0.568971,-0.0627823,-0.0050813,0.00679697,0.725228,5,0.1
0,2.8,-0.852001,-2.06174,0.592315,0.352377,0.0445724,-0.00445843,-0.0940263,0.00739098,-0.00342727,0.00706907,0.144175,5,0.1,1,2.8,0.0698994,1.06824,1.10338,0.0367826,0.866026,0.0966519,-0.012517,0,-0.0191927,0.0147794,2.2651,5,0.1,2,2.8,4.3,1.5008,0.500001,-0.0436306,0.0161827,1.49012e-06,-0.397682,-0.0597239,-2.98023e-05,0.0118681,0.203049,5,0.1,3,2.8,-1.32931,-1.97029,0.614627,0.0516832,0.841284,-0.0166357,0.179827,0.380695,-0.0299513,0.0101277,2.43083,5,0.1,4,2.8,3.51704,-2.00676,0.500006,0.23247,0.056541,-5.21541e-05,-0.249624,-0.391126,0.000298023,0.0129004,0.648252,5,0.1,5,2.8,-1.28468,0.0978147,1.3201,-0.124264,-0.00810027,0.0790626,0.188768,0.0859499,-0.182092,0.0106707,2.63386,5,0.1,6,2.8,2.60057,-0.127334,0.616825,-0.866026,0.129477,-0.00784546,0,-0.0249594,0.00151992,0.0170081,2.26087,5,0.1,7,2.8,3.60095,-5.35159,0.596358,-0.01387,-0.131631,0.00989884,0.141501,0.243187,-0.0182986,0.0114454,0.271584,5,0.1,8,2.8,0.532487,-1.94344,0.586832,-0.0853717,0.693887,0.0105232,0.87294,-1.50841,0.027895,0.0164805,2.87113,5,0.1,9,2.8,1.8772,-3.75535,0.607629,-0.433955,0.00526309,-0.00749677,-0.603199,-0.00584126,0.00837445,0.00830848,0.717925,5,0.1,10,2.8,-3.59576,3.90949,1.2724,-0.00609159,-0.0719607,0.111452,0.00751019,0.373363,-0.138819,0.0183902,0.538978,5,0.1,11,2.8,-1.71311,3.95579,0.598868,0.864843,-0.044322,0.00090301,-0.0236034,0.020504,-0.000417233,0.0236624,1.21761,5,0.1,12,2.8,0.218538,-2,0.56631,-0.0768278,-0.498372,0.0259027,0.0781342,0.655413,-0.0268519,0.00799048,0.200139,5,0.1,13,2.8,1.1991,1.58535,1.43602,0.00217259,-0.115499,0.154141,-0.00393391,-0.400543,-0.267982,0.0105388,0.195517,5,0.1,14,2.8,2.30524,-2.00047,0.800023,-0.282866,-0.00566244,-0.0588313,0.225067,-0.0240803,0.00149012,0.00979431,0.417262,5,0.1,15,2.8,0.00178753,-3.60056,1.28871,-0.0174746,0.000983477,0.106379,0.193393,-0.00143051,-0.175416,0.00761753,0.547131,5,0.1,16,2.8,-5.15012,-0.1,0.50007,0.0497699,0.249049,-0.000117719,-0.0550747,-0.178132,-0.00226498,0.010278,0.714038,5,0.1,17,2.8,-3.44603,2.5,1.33066,0.0397205,0.0488281,0.0604987,0.3227,0.654101,-0.162482,0.010492,3.22904,5,0.1,18,2.8,-3.73739,-1.37873,0.606775,-0.16107,-0.685817,-0.00667274,0.171542,0.505209,0.00748038,0.00812256,0.191385,5,0.1,19,2.8,-1.98606,-0.504777,0.595566,-0.0848472,0.0538826,0.00437647,0.455379,-0.0604093,-0.00491738,0.00909868,0.97483,5,0.1
0,2.9,-0.817107,-2.05735,0.59187,0.346263,0.0421107,-0.00430904,-0.0474006,-0.0516474,0.00562519,0.00706907,0.144175,5,0.1,1,2.9,0.0735259,1.15485,1.11299,0.0358109,0.866026,0.0958901,-0.00868971,0,-0.00208616,0.0147794,2.2651,5,0.1,2,2.9,4.2933,1.50213,0.500001,-0.0928268,0.0106856,-9.31323e-07,-0.55033,-0.0500381,-1.49012e-05,0.0118681,0.203049,5,0.1,3,2.9,-1.32351,-1.88483,0.612784,0.062413,0.863053,-0.0204285,0.0673011,0.0903904,-0.0424646,0.0101277,2.43083,5,0.1,4,2.9,3.53912,-2.00293,0.500003,0.209817,0.0219133,-2.69152e-05,-0.210345,-0.279084,0.000204891,0.0129004,0.648252,5,0.1,5,2.9,-1.29619,0.0974141,1.32714,-0.106055,0.00341941,0.0622638,0.17605,0.271317,-0.15448,0.0106707,2.63386,5,0.1,6,2.9,2.51396,-0.114449,0.616044,-0.866026,0.128638,-0.00779433,0,-0.000167228,3.72529e-06,0.0170081,2.26087,5,0.1,7,2.9,3.60014,-5.3636,0.597259,-0.00364371,-0.10912,0.00816053,0.0659078,0.208825,-0.0165068,0.0114454,0.271584,5,0.1,8,2.9,0.527314,-1.87948,0.587995,-0.0270915,0.603329,0.0124836,0.33262,-0.417411,0.0118092,0.0164805,2.87113,5,0.1,9,2.9,1.83069,-3.75485,0.606918,-0.496147,0.0047382,-0.00674417,-0.598721,-0.00484288,0.00691041,0.00830848,0.717925,5,0.1,10,2.9,-3.59586,3.90403,1.28287,0.0079684,-0.0385743,0.0980776,0.244111,0.289336,-0.130028,0.0183902,0.538978,5,0.1,11,2.9,-1.62664,3.95145,0.598956,0.865058,-0.0424676,0.000865012,0.00264496,0.018239,-0.000372529,0.0236624,1.21761,5,0.1,12,2.9,0.211225,-2.04699,0.568773,-0.0695968,-0.445127,0.0234343,0.0685062,0.436738,-0.0232235,0.00799048,0.200139,5,0.1,13,2.9,1.1993,1.5722,1.45014,0.00180099,-0.143588,0.128618,-0.00350922,-0.169724,-0.243187,0.0105388,0.195517,5,0.1,14,2.9,2.27812,-2.00118,0.794181,-0.259161,-0.00842139,-0.0576778,0.25104,-0.0115633,0.0217818,0.00979431,0.417262,5,0.1,15,2.9,0.000953813,-3.60047,1.2985,-0.000295509,0.000845268,0.0898656,0.129019,-0.00135601,-0.155985,0.00761753,0.547131,5,0.1,16,2.9,-5.1454,-0.0756331,0.500049,0.0447981,0.241408,-0.000269618,-0.0458658,0.00891715,-0.000659376,0.010278,0.714038,5,0.1,17,2.9,-3.43989,2.50934,1.33595,0.0875931,0.147386,0.0456717,0.587985,1.22146,-0.134543,0.010492,3.22904,5,0.1,18,2.9,-3.75257,-1.4449,0.606143,-0.141782,-0.638152,-0.00600023,0.210732,0.467114,0.00618026,0.00812256,0.191385,5,0.1,19,2.9,-1.99236,-0.499669,0.59598,-0.0430549,0.0484548,0.00393437,0.349455,-0.0498388,-0.00406429,0.00909868,0.97483,5,0.1
0,3,-0.782769,-2.05346,0.591476,0.339626,0.0351548,-0.00347793,-0.0988841,-0.0834465,0.0103414,0.00708395,0.180215,5,0.1,1,3,0.077058,1.24145,1.12256,0.0347434,0.866026,0.0952005,-0.0139065,0,-0.015974,0.0134606,2.26535,5,0.1,2,3,4.28126,1.50297,0.500001,-0.147438,0.00620186,-1.49012e-06,-0.514746,-0.0394583,0,0.0145304,0.139293,5,0.1,3,3,-1.31692,-1.7983,0.610532,0.069958,0.866026,-0.0245318,0.0991225,-5.96046e-05,-0.0370443,0.00981078,2.39108,5,0.1,4,3,3.55907,-2.00182,0.500001,0.189221,0.00370741,-1.04308e-05,-0.206351,-0.0778437,0.000119209,0.0103594,1.44808,5,0.1,5,3,-1.30593,0.1,1.33264,-0.088948,0.057094,0.0480503,0.166357,0.784609,-0.130236,0.0103627,3.31994,5,0.1,6,3,2.42736,-0.101601,0.615265,-0.866026,0.128012,-0.00775754,0,-0.0183213,0.00110269,0.0174656,2.26115,5,0.1,7,3,3.60001,-5.37351,0.597996,0.000137091,-0.0895619,0.00659376,0.015378,0.184059,-0.0149012,0.0124084,0.268016,5,0.1,8,3,0.525648,-1.82021,0.58928,-0.0115901,0.589994,0.0129849,0.0100732,0.0613332,-0.0012815,0.0163208,2.61047,5,0.1,9,3,1.77837,-3.7544,0.606277,-0.546575,0.00426769,-0.00607371,-0.380516,-0.00464916,0.00664592,0.00853457,0.52607,5,0.1,10,3,-3.59365,3.90145,1.29203,0.0374794,-0.0147879,0.0852227,0.323057,0.184298,-0.127912,0.0163625,0.816276,5,0.1,11,3,-1.54024,3.9473,0.599041,0.861174,-0.0403941,0.000822544,-0.0970364,0.0241995,-0.000476837,0.025147,0.929932,5,0.1,12,3,0.204605,-2.0895,0.571002,-0.0627842,-0.406259,0.0211373,0.0691414,0.361204,-0.0231862,0.00679016,0.147577,5,0.1,13,3,1.19946,1.55731,1.46182,0.00146925,-0.151101,0.105384,-0.00321865,0.0113845,-0.221908,0.0108174,0.185171,5,0.1,14,3,2.25351,-2.00195,0.788556,-0.232369,-0.00525713,-0.0544637,0.285506,0.0822544,0.0424087,0.0109528,0.820777,5,0.1,15,3,0.0013388,-3.60039,1.30673,0.00546961,0.000721216,0.0749886,-0.0211427,-0.00143051,-0.142217,0.00757759,1.00356,5,0.1,16,3,-5.14114,-0.0512597,0.500022,0.0403404,0.247523,-0.000248849,-0.0445843,0.0966936,0.00101328,0.00851171,0.618015,5,0.1,17,3,-3.42807,2.53047,1.33988,0.149101,0.276262,0.0334978,0.606656,1.28281,-0.109434,0.0152973,3.04601,5,0.1,18,3,-3.76565,-1.50632,0.605573,-0.119573,-0.589204,-0.00540316,0.230551,0.5247,0.00599027,0.00746277,0.122078,5,0.1,19,3,-1.99528,-0.495066,0.596354,-0.0192076,0.0436246,0.00354052,0.115991,-0.0479668,-0.0039041,0.007041,1.20307,5,0.1
0,3.1,-0.748962,-2.05045,0.591194,0.339083,0.0244021,-0.00204779,0.0558309,-0.125021,0.0171885,0.00708395,0.180215,5,0.1,1,3.1,0.0804758,1.32805,1.13204,0.0336974,0.866026,0.0946522,-0.00879727,0,-0.000834465,0.0134606,2.26535,5,0.1,2,3.1,4.26392,1.5034,0.5,-0.199001,0.00268463,-1.49012e-06,-0.493258,-0.0308231,0,0.0145304,0.139293,5,0.1,3,3.1,-1.30943,-1.7117,0.607879,0.0814017,0.865985,-0.0285779,0.183433,-0.00158697,-0.0408925,0.00981078,2.39108,5,0.1,4,3.1,3.57703,-2.00169,0.5,0.170572,0.00275411,-1.86265e-06,-0.172377,0.139728,5.96046e-05,0.0103594,1.44808,5,0.1,5,3.1,-1.31424,0.110029,1.33683,-0.0794332,0.146165,0.0361366,0.0381619,0.946598,-0.108339,0.0103627,3.31994,5,0.1,6,3.1,2.34076,-0.0888373,0.614492,-0.866026,0.1276,-0.00773361,0,0.00211693,-0.000137836,0.0174656,2.26115,5,0.1,7,3.1,3.60014,-5.38157,0.598584,0.00293031,-0.0719808,0.00520134,0.0326633,0.167221,-0.0129603,0.0124084,0.268016,5,0.1,8,3.1,0.524045,-1.75979,0.59056,-0.0246055,0.627064,0.0125138,-0.239059,0.584453,-0.00788271,0.0163208,2.61047,5,0.1,9,3.1,1.72181,-3.75399,0.605701,-0.583529,0.00385083,-0.00547767,-0.325665,-0.0038296,0.00546873,0.00853457,0.52607,5,0.1,10,3.1,-3.58796,3.90084,1.29994,0.0788368,0.00139326,0.0732467,0.471979,0.118703,-0.112891,0.0163625,0.816276,5,0.1,11,3.1,-1.45436,3.94322,0.599121,0.857879,-0.042611,0.000778306,-0.0163391,-0.057295,-0.000435859,0.025147,0.929932,5,0.1,12,3.1,0.198652,-2.12858,0.573007,-0.0564478,-0.37741,0.0190222,0.0592927,0.23745,-0.019718,0.00679016,0.147577,5,0.1,13,3.1,1.19959,1.54256,1.47133,0.0011716,-0.141402,0.0855796,-0.00275671,0.169121,-0.176817,0.0108174,0.185171,5,0.1,14,3.1,2.23168,-2.00203,0.783331,-0.204547,0.00566356,-0.049944,0.273153,0.198469,0.0483021,0.0109528,0.820777,5,0.1,15,3.1,0.00166988,-3.60032,1.31356,-0.00175841,0.000588968,0.0618918,-0.187802,-0.00120699,-0.120796,0.00757759,1.00356,5,0.1,16,3.1,-5.13731,-0.0261438,0.500004,0.0363328,0.25484,-0.000103656,-0.0368655,0.0940312,0.00161305,0.00851171,0.618015,5,0.1,17,3.1,-3.41063,2.56364,1.34273,0.194785,0.378386,0.0237478,0.314474,0.764817,-0.0861064,0.0152973,3.04601,5,0.1,18,3.1,-3.77643,-1.56275,0.60506,-0.0958841,-0.540364,-0.00486644,0.239417,0.468135,0.00491366,0.00746277,0.122078,5,0.1,19,3.1,-1.99689,-0.490926,0.59669,-0.0175208,0.0393254,0.00319015,-0.139803,-0.0394173,-0.0032112,0.007041,1.20307,5,0.1
0,3.2,-0.714736,-2.04866,0.591079,0.345205,0.0113249,-0.000230968,0.0429153,-0.131488,0.0183284,0.00922921,0.111328,5,0.1,1,3.2,0.0837981,1.41465,1.14149,0.032679,0.866026,0.0940353,-0.0128374,0,-0.0156164,0.0142026,2.26671,5,0.1,2,3.2,4.24175,1.50353,0.5,-0.242162,3.8743e-05,0,-0.353098,-0.0219941,-2.98023e-05,0.0120484,0.11948,5,0.1,3,3.2,-1.3,-1.62512,0.604831,0.110823,0.865385,-0.0321984,0.393093,-0.012815,-0.0293553,0.0114476,2.32203,5,0.1,4,3.2,3.59325,-2,0.5,0.153762,0.037989,1.49012e-06,-0.167966,0.547349,2.98023e-05,0.0119084,3.45326,5,0.1,5,3.2,-1.32211,0.129305,1.33994,-0.0787914,0.237659,0.0263244,-0.0143051,0.845954,-0.0882745,0.0106059,3.26638,5,0.1,6,3.2,2.25416,-0.0760865,0.613719,-0.866026,0.127071,-0.0077039,0,-0.0183693,0.00113249,0.0152224,2.26146,5,0.1,7,3.2,3.60058,-5.38797,0.599042,0.00542998,-0.0561714,0.00399798,0.0127554,0.148773,-0.0111163,0.0119558,0.252802,5,0.1,8,3.2,0.520191,-1.69395,0.591763,-0.0538349,0.690156,0.0114605,-0.321209,0.605822,-0.0129938,0.0158557,2.3898,5,0.1,9,3.2,1.66214,-3.75363,0.60518,-0.606185,0.00347495,-0.00494719,-0.105262,-0.00369549,0.00530481,0.0106423,0.368602,5,0.1,10,3.2,-3.57769,3.90134,1.30672,0.126261,0.00617504,0.062421,0.452161,-0.0300407,-0.104427,0.0170158,1.03307,5,0.1,11,3.2,-1.36884,3.93861,0.599196,0.849831,-0.0498712,0.000730157,-0.178099,-0.0792742,-0.000506639,0.0250195,0.666786,5,0.1,12,3.2,0.193299,-2.16519,0.574812,-0.0506349,-0.355017,0.0170916,0.0581741,0.226378,-0.0193119,0.00761048,0.189417,5,0.1,13,3.2,1.19969,1.52943,1.47906,0.000917912,-0.119725,0.0695497,-0.00232458,0.25332,-0.145853,0.0139797,0.269685,5,0.1,14,3.2,2.21258,-2,0.77859,-0.177383,0.0394732,-0.0447631,0.271559,0.465691,0.0554323,0.0130002,2.05663,5,0.1,15,3.2,0,-3.60027,1.31917,-0.037008,0.000476837,0.0506341,-0.501975,-0.000953674,-0.105023,0.00722238,1.83264,5,0.1,16,3.2,-5.13386,0,0.5,0.0327468,0.269833,0,-0.0355244,0.196469,0,0.00916487,0.511756,5,0.1,17,3.2,-3.39001,2.60448,1.34471,0.213516,0.430542,0.0161707,0.0681877,0.28646,-0.0659227,0.0144322,2.82764,5,0.1,18,3.2,-3.78484,-1.61443,0.604597,-0.07236,-0.492874,-0.00438988,0.228047,0.492811,0.00473857,0.0072657,0.156029,5,0.1,19,3.2,-2,-0.487185,0.596993,-0.050813,0.0354998,0.0028789,-0.504851,-0.0380725,-0.00309944,0.00709076,1.34794,5,0.1
0,3.3,-0.679912,-2.0482,0.59115,0.351648,-0.00207424,0.00165645,0.0650026,-0.132143,0.0187159,0.00922921,0.111328,5,0.1,1,3.3,0.0871332,1.50126,1.15085,0.0351027,0.866026,0.0934418,0.052107,0,-0.00186265,0.0142026,2.26671,5,0.1,2,3.3,4.21573,1.50344,0.5,-0.277932,-0.00187345,-1.39698e-06,-0.338435,-0.0161678,-3.72529e-06,0.0120484,0.11948,5,0.1,3,3.3,-1.28637,-1.53859,0.601456,0.166332,0.865602,-0.035317,0.663757,0.00546128,-0.0303052,0.0114476,2.32203,5,0.1,4,3.3,3.60825,-1.99346,0.5,0.150082,0.0926407,2.8871e-06,0.0641197,0.537716,3.72529e-06,0.0119084,3.45326,5,0.1,5,3.3,-1.33018,0.156374,1.34216,-0.083633,0.295398,0.0184827,-0.0711456,0.345738,-0.0690222,0.0106059,3.26638,5,0.1,6,3.3,2.16755,-0.0634219,0.612951,-0.866026,0.126519,-0.00766907,0,-0.000293851,2.23517e-05,0.0152224,2.26146,5,0.1,7,3.3,3.60126,-5.39287,0.599389,0.0081595,-0.0423037,0.00297828,0.0174195,0.128359,-0.0092946,0.0119558,0.252802,5,0.1,8,3.3,0.512995,-1.62148,0.592842,-0.0914961,0.761512,0.0100972,-0.407077,0.748202,-0.0141934,0.0158557,2.3898,5,0.1,9,3.3,1.60102,-3.7533,0.60471,-0.615527,0.00314377,-0.00447249,-0.0552163,-0.00305474,0.00435486,0.0106423,0.368602,5,0.1,10,3.3,-3.56334,3.9017,1.31247,0.155701,-0.0018049,0.05283,0.151813,-0.193939,-0.0885502,0.0170158,1.03307,5,0.1,11,3.3,-1.28459,3.93316,0.599267,0.835577,-0.059551,0.000683032,-0.14504,-0.105768,-0.000461936,0.0250195,0.666786,5,0.1,12,3.3,0.188484,-2.2,0.57644,-0.046004,-0.344508,0.0155701,0.0373665,0.0187308,-0.0121407,0.00761048,0.189417,5,0.1,13,3.3,1.19978,1.51885,1.48531,0.000707246,-0.0911025,0.0557026,-0.0018999,0.30347,-0.130959,0.0139797,0.269685,5,0.1,14,3.3,2.19615,-1.99355,0.774386,-0.151799,0.0907898,-0.0393405,0.242382,0.540897,0.0533871,0.0130002,2.05663,5,0.1,15,3.3,-0.00735628,-3.60023,1.32375,-0.119295,0.000390038,0.0411324,-1.05472,-0.000789762,-0.0859946,0.00722238,1.83264,5,0.1,16,3.3,-5.13075,0.0283648,0.5,0.0295579,0.300379,0,-0.0293255,0.372509,0,0.00916487,0.511756,5,0.1,17,3.3,-3.36875,2.648,1.34602,0.207609,0.431089,0.0104584,-0.169247,-0.24049,-0.048846,0.0144322,2.82764,5,0.1,18,3.3,-3.79098,-1.66163,0.604178,-0.0510219,-0.453977,-0.00403095,0.197187,0.313349,0.00272691,0.0072657,0.156029,5,0.1,19,3.3,-2.00852,-0.483812,0.597267,-0.126808,0.0320918,0.00260146,-0.939935,-0.031244,-0.00254437,0.00709076,1.34794,5,0.1
0,3.4,-0.644526,-2.04904,0.591406,0.354651,-0.0143528,0.00339001,-0.0195503,-0.110269,0.0154674,0.00786096,0.20907,5,0.1,1,3.4,0.0909488,1.58786,1.16017,0.0414755,0.866026,0.0927001,0.0683069,0,-0.0169277,0.0134377,2.26485,5,0.1,2,3.4,4.18643,1.50318,0.5,-0.305843,-0.00318587,0,-0.203371,-0.0100732,-2.98023e-05,0.0131313,0.139085,5,0.1,3,3.4,-1.26633,-1.45203,0.597789,0.234225,0.865009,-0.0377983,0.654042,-0.0203848,-0.0174046,0.0104034,2.22972,5,0.1,4,3.4,3.62375,-1.98158,0.500001,0.161242,0.143909,2.98023e-06,0.136018,0.47946,-2.98023e-05,0.0128385,3.31476,5,0.1,5,3.4,-1.33892,0.187061,1.34369,-0.0910401,0.313217,0.0124335,-0.0685453,0.0378269,-0.0525117,0.0106032,3.26386,5,0.1,6,3.4,2.08095,-0.0507928,0.612186,-0.866026,0.125708,-0.00762045,0,-0.0213385,0.0013113,0.0144196,2.09975,5,0.1,7,3.4,3.60202,-5.3965,0.599644,0.00547171,-0.0305295,0.00213683,-0.0811815,0.107288,-0.00756979,0.0135193,0.214385,5,0.1,8,3.4,0.501838,-1.54184,0.593779,-0.130913,0.827453,0.0086382,-0.362813,0.520229,-0.0149012,0.0170009,2.27451,5,0.1,9,3.4,1.53945,-3.753,0.604284,-0.612837,0.00284314,-0.00404716,0.1266,-0.00286102,0.00420213,0.00820166,0.250318,5,0.1,10,3.4,-3.5474,3.9,1.31733,0.159478,-0.037533,0.0445098,-0.0630617,-0.505447,-0.0787973,0.0172674,1.84765,5,0.1,11,3.4,-1.20196,3.92669,0.599333,0.814399,-0.0695407,0.000633299,-0.304699,-0.0878572,-0.000476837,0.0217025,0.465389,5,0.1,12,3.4,0.184056,-2.23446,0.577941,-0.0426516,-0.345176,0.0144869,0.0318438,-0.00607967,-0.0103116,0.00819556,0.117574,5,0.1,13,3.4,1.19984,1.51124,1.49025,0.000533462,-0.0616491,0.0433773,-0.00149012,0.275016,-0.115454,0.012767,0.256485,5,0.1,14,3.4,2.18214,-1.98178,0.770718,-0.128537,0.144035,-0.0340268,0.22459,0.507414,0.0531077,0.0100568,3.36098,5,0.1,15,3.4,-0.0248672,-3.60019,1.32745,-0.232249,0.000315905,0.0332624,-1.13638,-0.000715256,-0.0722408,0.00844457,1.49477,5,0.1,16,3.4,-5.12794,0.0602724,0.5,0.0267029,0.337042,0,-0.0281334,0.329751,0,0.00883562,0.397947,5,0.1,17,3.4,-3.34911,2.68928,1.34685,0.182813,0.388926,0.00630319,-0.312448,-0.57292,-0.0346899,0.0114867,2.80076,5,0.1,18,3.4,-3.79516,-1.70556,0.603787,-0.0331581,-0.425294,-0.00379384,0.159264,0.281036,0.00226498,0.00793291,0.203612,5,0.1,19,3.4,-2.02611,-0.480755,0.597515,-0.225586,0.029052,0.00235438,-0.978589,-0.0303835,-0.0025034,0.00851944,1.09455,5,0.1
0,3.5,-0.608993,-2.05098,0.591815,0.35703,-0.0239085,0.00471408,0.0431612,-0.0799447,0.0108667,0.00786096,0.20907,5,0.1,1,3.5,0.0955032,1.67446,1.16939,0.0500633,0.866026,0.0919417,0.0955923,0,-0.00369549,0.0134377,2.26485,5,0.1,2,3.5,4.15475,1.50282,0.5,-0.327861,-0.00395309,-3.72529e-07,-0.213563,-0.00534207,7.45058e-06,0.0131313,0.139085,5,0.1,3,3.5,-1.23938,-1.36554,0.593914,0.306096,0.865364,-0.0397176,0.738025,0.00912696,-0.018429,0.0104034,2.22972,5,0.1,4,3.5,3.64077,-1.96535,0.500001,0.180484,0.176709,5.58794e-07,0.225067,0.237308,-1.49012e-05,0.0128385,3.31476,5,0.1,5,3.5,-1.34842,0.217852,1.3447,-0.0994015,0.297634,0.0079168,-0.0892878,-0.265167,-0.0382885,0.0106032,3.26386,5,0.1,6,3.5,1.99435,-0.0382886,0.611428,-0.866026,0.1246,-0.00755228,0,-0.00771878,0.000469387,0.0144196,2.09975,5,0.1,7,3.5,3.60205,-5.39905,0.599822,-0.00700429,-0.0207834,0.00145808,-0.202775,0.0876486,-0.00602752,0.0135193,0.214385,5,0.1,8,3.5,0.486857,-1.45715,0.594571,-0.168907,0.860309,0.00721551,-0.376038,0.159241,-0.0135899,0.0170009,2.27451,5,0.1,9,3.5,1.47878,-3.75273,0.603898,-0.60005,0.00258572,-0.0036709,0.150651,-0.00236928,0.00345707,0.00820166,0.250318,5,0.1,10,3.5,-3.53201,3.89258,1.32141,0.146139,-0.120069,0.0373844,-0.192791,-1.05633,-0.0647306,0.0172674,1.84765,5,0.1,11,3.5,-1.12192,3.91928,0.599394,0.786774,-0.0786986,0.000588503,-0.278682,-0.0887066,-0.000435859,0.0217025,0.465389,5,0.1,12,3.5,0.179931,-2.26915,0.579344,-0.0399849,-0.349374,0.0136317,0.023433,-0.0549108,-0.00746921,0.00819556,0.117574,5,0.1,13,3.5,1.19988,1.50645,1.49404,0.00039991,-0.0346065,0.0326585,-0.00119954,0.238985,-0.0988543,0.012767,0.256485,5,0.1,14,3.5,2.17004,-1.96546,0.767571,-0.116618,0.177897,-0.0290075,0.0354052,0.235409,0.0476465,0.0100568,3.36098,5,0.1,15,3.5,-0.0539924,-3.60016,1.33045,-0.351049,0.000251457,0.0268333,-1.1854,-0.000581145,-0.0571907,0.00844457,1.49477,5,0.1,16,3.5,-5.1254,0.0957655,0.5,0.0241786,0.373391,0,-0.0231862,0.364875,0,0.00883562,0.397947,5,0.1,17,3.5,-3.33253,2.72496,1.34748,0.147732,0.321813,0.00784751,-0.377446,-0.744283,0.0552908,0.0114867,2.80076,5,0.1,18,3.5,-3.79774,-1.74685,0.603417,-0.0192929,-0.401494,-0.00361409,0.117943,0.213601,0.00151992,0.00793291,0.203612,5,0.1,19,3.5,-2.05385,-0.47799,0.597739,-0.330527,0.0263335,0.00213087,-1.06342,-0.0249464,-0.00204891,0.00851944,1.09455,5,0.1
0,3.6,-0.573132,-2.05371,0.592332,0.359175,-0.0302136,0.00554323,-0.0174046,-0.0458956,0.00563264,0.00709179,0.15278,5,0.1,1,3.6,0.100979,1.76106,1.17855,0.0592308,0.866026,0.0910312,0.0819787,0,-0.0183582,0.0123033,2.2632,5,0.1,2,3.6,4.12104,1.5024,0.5,-0.344574,-0.00427067,0,-0.104666,-0.00113249,0,0.011346,0.0820685,5,0.1,3,3.6,-1.20525,-1.27901,0.589866,0.374025,0.864592,-0.0410497,0.587642,-0.028789,-0.00649691,0.0114407,2.15219,5,0.1,4,3.6,3.65993,-1.94653,0.500001,0.202143,0.200287,-1.49012e-06,0.190616,0.262558,0,0.0108586,3.1291,5,0.1,5,3.6,-1.35878,0.246312,1.34532,-0.107282,0.272956,0.00468791,-0.061512,-0.184983,-0.0267625,0.0101388,0.259709,5,0.1,6,3.6,1.90775,-0.0258909,0.610676,-0.866026,0.122989,-0.00745505,5.96046e-05,-0.0293656,0.00175834,0.0143047,1.65544,5,0.1,7,3.6,3.6,-5.40072,0.59994,-0.0371337,-0.0129938,0.000926852,-0.385761,0.0681877,-0.00458956,0.0120611,0.152859,5,0.1,8,3.6,0.468206,-1.3707,0.595226,-0.202522,0.866026,0.00591427,-0.281304,0,-0.0124276,0.0172783,2.23389,5,0.1,9,3.6,1.41971,-3.75248,0.603548,-0.579125,0.00235438,-0.00333339,0.282168,-0.0025034,0.00339746,0.00885989,0.166901,5,0.1,10,3.6,-3.5185,3.87498,1.32484,0.122917,-0.233114,0.0313848,-0.262499,-1.13654,-0.0560284,0.0145776,0.873664,5,0.1,11,3.6,-1.0448,3.91101,0.599451,0.753468,-0.0861585,0.000543892,-0.408679,-0.0559092,-0.000506639,0.0223957,0.318379,5,0.1,12,3.6,0.176049,-2.30429,0.58067,-0.0376321,-0.35224,0.0128761,0.0250265,0.0139475,-0.00810623,0.00660196,0.067393,5,0.1,13,3.6,1.19992,1.50397,1.49684,0.000289083,-0.0176519,0.0236094,-0.00089407,0.0890493,-0.0820756,0.0129932,0.219855,5,0.1,14,3.6,2.15839,-1.94654,0.764902,-0.117624,0.200808,-0.0244349,-0.0386238,0.254154,0.0441074,0.0106206,3.10203,5,0.1,15,3.6,-0.0947356,-3.60014,1.33286,-0.459888,0.000202656,0.0216722,-0.9512,-0.000596046,-0.0466108,0.00667559,0.682667,5,0.1,16,3.6,-5.12309,0.134769,0.5,0.0219107,0.404488,0,-0.0228882,0.234127,0,0.00717576,0.295228,5,0.1,17,3.6,-3.31967,2.75331,1.34862,0.109392,0.244546,0.015527,-0.380278,-0.781536,0.0902414,0.014151,3.48303,5,0.1,18,3.6,-3.79915,-1.78591,0.603064,-0.00953078,-0.37939,-0.00345707,0.0777245,0.241637,0.00178814,0.0078503,0.362312,5,0.1,19,3.6,-2.09197,-0.475479,0.597942,-0.428492,0.0238992,0.00193119,-0.85485,-0.0244528,-0.00199676,0.00673598,0.144215,5,0.1
0,3.7,-0.537219,-2.05693,0.59291,0.359413,-0.0338957,0.00597565,0.00317767,-0.0270009,0.0028871,0.00709179,0.15278,5,0.1,1,3.7,0.107346,1.84767,1.1876,0.0682523,0.866026,0.0901021,0.0914773,0,-0.00548363,0.0123033,2.2632,5,0.1,2,3.7,4.08609,1.50197,0.5,-0.353484,-0.00425279,0,-0.0588894,0.00141561,0,0.011346,0.0820685,5,0.1,3,3.7,-1.16478,-1.19256,0.585718,0.435494,0.865059,-0.0419391,0.600994,0.0137463,-0.00882149,0.0114407,2.15219,5,0.1,4,3.7,3.68118,-1.92527,0.500001,0.223238,0.227023,-1.49012e-06,0.212073,0.380166,0,0.0108586,3.1291,5,0.1,5,3.7,-1.3696,0.273098,1.34567,-0.107259,0.266113,0.00252463,0.0547692,0.0166688,-0.0169873,0.0101388,0.259709,5,0.1,6,3.7,1.82114,-0.0137149,0.609938,-0.865982,0.120629,-0.00731414,0.00169873,-0.0233576,0.00139698,0.0143047,1.65544,5,0.1,7,3.7,3.59401,-5.4017,0.600012,-0.0851467,-0.00698864,0.000527035,-0.538051,0.0520349,-0.00342354,0.0120611,0.152859,5,0.1,8,3.7,0.446511,-1.2841,0.595759,-0.231263,0.866026,0.0047802,-0.274539,0,-0.0103451,0.0172783,2.23389,5,0.1,9,3.7,1.36316,-3.75226,0.603231,-0.552016,0.00213087,-0.00302885,0.27784,-0.00205636,0.00280142,0.00885989,0.166901,5,0.1,10,3.7,-3.50697,3.84609,1.32772,0.112405,-0.342759,0.0263866,0.0205785,-1.01882,-0.0448078,0.0145776,0.873664,5,0.1,11,3.7,-0.971373,3.90212,0.599503,0.71563,-0.0916313,0.00049714,-0.373468,-0.0483841,-0.000439584,0.0223957,0.318379,5,0.1,12,3.7,0.172403,-2.33945,0.58192,-0.0353382,-0.350842,0.0121333,0.0221105,0.0285655,-0.00718236,0.00660196,0.067393,5,0.1,13,3.7,1.19994,1.50244,1.49882,0.000209361,-0.0159021,0.0161719,-0.000700355,-0.0870079,-0.0667274,0.0129932,0.219855,5,0.1,14,3.7,2.14627,-1.92527,0.762667,-0.126242,0.226998,-0.0203665,-0.116944,0.377715,0.0376329,0.0106206,3.10203,5,0.1,15,3.7,-0.14465,-3.60012,1.33482,-0.531474,0.000151619,0.0175919,-0.530484,-0.000432134,-0.0356883,0.00667559,0.682667,5,0.1,16,3.7,-5.12101,0.176421,0.5,0.019861,0.428232,0,-0.0188649,0.215395,0,0.00717576,0.295228,5,0.1,17,3.7,-3.31058,2.77393,1.3507,0.0732552,0.168961,0.0264352,-0.336453,-0.716195,0.12017,0.014151,3.48303,5,0.1,18,3.7,-3.79977,-1.82271,0.602726,-0.00327639,-0.356864,-0.00329409,0.0482053,0.220872,0.00159442,0.0078503,0.362312,5,0.1,19,3.7,-2.13846,-0.473189,0.598127,-0.494957,0.0220724,0.0017819,-0.470921,-0.0136942,-0.00112131,0.00673598,0.144215,5,0.1
0,3.8,-0.501355,-2.06042,0.593517,0.356588,-0.0355124,0.00610203,-0.0729263,-0.00476837,-0.00038743,0.00705647,0.186217,5,0.1,1,3.8,0.114597,1.93427,1.19657,0.0763314,0.866026,0.0890344,0.0651255,-5.96046e-05,-0.0196695,0.0119668,2.26198,5,0.1,2,3.8,4.05062,1.50156,0.5,-0.353932,-0.00400245,0,0.0593662,0.00345707,0,0.0110337,1.12208,5,0.1,3,3.8,-1.11848,-1.10605,0.581493,0.48728,0.864345,-0.0423923,0.405967,-0.033617,0.00146031,0.00981442,2.09546,5,0.1,4,3.8,3.70447,-1.9,0.500001,0.241286,0.284863,-1.49012e-06,0.135064,0.754178,0,0.0105168,2.82523,5,0.1,5,3.8,-1.37991,0.299912,1.34585,-0.0976741,0.270776,0.00120401,0.130832,0.0528991,-0.00989437,0.00996937,1.63972,5,0.1,6,3.8,1.73457,-0.00179579,0.609215,-0.865343,0.117383,-0.00711828,0.0137091,-0.0453904,0.00271201,0.0137412,1.26892,5,0.1,7,3.8,3.5828,-5.40217,0.600049,-0.138408,-0.00255108,0.000236928,-0.500441,0.0371933,-0.00241399,0.0113989,0.0926726,5,0.1,8,3.8,0.42215,-1.19749,0.596189,-0.25421,0.866026,0.0038296,-0.17117,0,-0.00876188,0.0225212,2.22186,5,0.1,9,3.8,1.30946,-3.75205,0.602941,-0.520584,0.00193119,-0.00275522,0.362694,-0.00202656,0.00280142,0.0091753,0.110396,5,0.1,10,3.8,-3.49538,3.80717,1.33015,0.121391,-0.43056,0.0222743,0.134349,-0.711441,-0.038147,0.0169485,0.650427,5,0.1,11,3.8,-0.901789,3.89276,0.59955,0.674509,-0.0949621,0.000452995,-0.466287,-0.014782,-0.000476837,0.0220642,0.215071,5,0.1,12,3.8,0.168983,-2.37427,0.583096,-0.0329975,-0.344086,0.0113636,0.0255704,0.115991,-0.00843406,0.00779102,0.0488261,5,0.1,13,3.8,1.19996,1.5,1.50012,0.000149012,-0.036791,0.010246,-0.000596046,-0.31513,-0.051856,0.0161313,0.157019,5,0.1,14,3.8,2.13304,-1.9,0.76081,-0.138092,0.284868,-0.0168428,-0.107527,0.75686,0.0330806,0.00925985,2.64135,5,0.1,15,3.8,-0.2,-3.60011,1.33641,-0.571191,0.000113249,0.0144035,-0.265963,-0.000357628,-0.028491,0.0084215,0.924762,5,0.1,16,3.8,-5.11912,0.220121,0.5,0.0180125,0.443291,0,-0.0183582,0.0683665,0,0.00864098,0.209851,5,0.1,17,3.8,-3.30482,2.78744,1.35394,0.0430405,0.103563,0.0382096,-0.264168,-0.583053,0.109553,0.0118881,3.46512,5,0.1,18,3.8,-3.7999,-1.85725,0.602405,0.000286102,-0.333199,-0.00311732,0.0239611,0.260592,0.00205636,0.00693389,0.313821,5,0.1,19,3.8,-2.18966,-0.471044,0.5983,-0.522429,0.0208803,0.00168532,-0.0798702,-0.0113547,-0.000953674,0.0100343,0.459198,5,0.1
0,3.9,-0.46574,-2.064,0.594126,0.358095,-0.0360392,0.0060834,0.0705346,-0.00399351,-0.000275671,0.00705647,0.186217,5,0.1,1,3.9,0.122578,2.02087,1.2054,0.0833379,0.866025,0.0879481,0.0685859,1.49012e-05,-0.00713766,0.0119668,2.26198,5,0.1,2,3.9,4.01475,1.50165,0.5,-0.369695,0.00972915,0,-0.313386,0.241496,0,0.0110337,1.12208,5,0.1,3,3.9,-1.06762,-1.01963,0.577249,0.530052,0.864811,-0.04256,0.410974,0.016544,-0.00237301,0.00981442,2.09546,5,0.1,4,3.9,3.72931,-1.86668,0.5,0.255483,0.389484,-1.49012e-06,0.132799,1.23703,0,0.0105168,2.82523,5,0.1,5,3.9,-1.38895,0.328383,1.34593,-0.0823315,0.30779,0.000498258,0.170916,0.60375,-0.00458211,0.00996937,1.63972,5,0.1,6,3.9,1.64804,0.00973426,0.608516,-0.86536,0.11329,-0.00687372,0.00270456,-0.0409396,0.00245124,0.0137412,1.26892,5,0.1,7,3.9,3.56647,-5.40226,0.600062,-0.187575,0.000566989,3.63216e-05,-0.461802,0.0254214,-0.00161678,0.0113989,0.0926726,5,0.1,8,3.9,0.395833,-1.11089,0.596531,-0.272095,0.866026,0.00305856,-0.168569,0,-0.00676885,0.0225212,2.22186,5,0.1,9,3.9,1.25913,-3.75187,0.602679,-0.48639,0.00174977,-0.00250451,0.336088,-0.00165403,0.00230968,0.0091753,0.110396,5,0.1,10,3.9,-3.48232,3.76071,1.3322,0.141424,-0.49636,0.0189133,0.242189,-0.575319,-0.0298023,0.0169485,0.650427,5,0.1,11,3.9,-0.836537,3.88319,0.599593,0.631289,-0.0962872,0.000409409,-0.419136,-0.00758469,-0.000402331,0.0220642,0.215071,5,0.1,12,3.9,0.1658,-2.40817,0.584194,-0.0307502,-0.334174,0.0106229,0.0206986,0.0975877,-0.00683963,0.00779102,0.0488261,5,0.1,13,3.9,1.19997,1.49434,1.50091,9.74163e-05,-0.079494,0.00568666,-0.000439584,-0.500843,-0.0394732,0.0161313,0.157019,5,0.1,14,3.9,2.11863,-1.86672,0.759281,-0.150492,0.388413,-0.0138441,-0.127509,1.2157,0.0272244,0.00925985,2.64135,5,0.1,15,3.9,-0.258771,-3.6001,1.33772,-0.606145,8.3819e-05,0.011952,-0.381854,-0.00025332,-0.0211224,0.0084215,0.924762,5,0.1,16,3.9,-5.1174,0.264799,0.5,0.0163652,0.449827,0,-0.0151694,0.0421051,0,0.00864098,0.209851,5,0.1,17,3.9,-3.3017,2.79516,1.35816,0.0208847,0.0537131,0.0450598,-0.178874,-0.412568,0.031434,0.0118881,3.46512,5,0.1,18,3.9,-3.79971,-1.88922,0.602104,0.00349954,-0.305662,-0.00289371,0.0332296,0.29254,0.00244007,0.00693389,0.313821,5,0.1,19,3.9,-2.24248,-0.469013,0.598463,-0.534791,0.0197182,0.00158856,-0.133023,-0.0123437,-0.001017,0.0100343,0.459198,5,0.1
0,4,-0.42956,-2.06761,0.594731,0.36506,-0.0360131,0.00599623,0.0449121,0.00584126,-0.00163913,0.00787191,0.113401,5,0.1,1,4,0.131217,2.10747,1.21415,0.0889558,0.866026,0.0867367,0.0392571,0,-0.0205636,0.0116369,2.13511,5,0.1,2,4,3.97601,1.50402,0.5,-0.40586,0.0390172,0,-0.363827,0.32115,0,0.0166427,1.44057,5,0.1,3,4,-1.01281,-0.933133,0.572991,0.562941,0.864239,-0.0424519,0.219941,-0.0357628,0.00625849,0.0151609,1.90578,5,0.1,4,4,3.75541,-1.82144,0.5,0.265127,0.514567,0,0.0488758,1.18881,-2.98023e-05,0.0101389,2.4861,5,0.1,5,4,-1.3963,0.362523,1.34596,-0.0644147,0.376789,0.000220537,0.183284,0.712499,-0.00119209,0.0104325,0.378853,5,0.1,6,4,1.56163,0.020836,0.607842,-0.861526,0.108439,-0.00658184,0.090003,-0.0591548,0.00357628,0.0130261,0.985021,5,0.1,7,4,3.54561,-5.40209,0.600059,-0.227225,0.00258684,-9.08971e-05,-0.316739,0.0150204,-0.000953674,0.0129166,0.123354,5,0.1,8,4,0.367905,-1.02429,0.596806,-0.284883,0.866024,0.00245422,-0.0747293,2.98023e-05,-0.00539422,0.0167334,2.2159,5,0.1,9,4,1.21223,-3.7517,0.60244,-0.45087,0.00158548,-0.00227839,0.38451,-0.00154972,0.00226498,0.00837385,0.160216,5,0.1,10,4,-3.46696,3.70862,1.33395,0.165629,-0.540781,0.0161886,0.223875,-0.293732,-0.0252128,0.016493,0.463791,5,0.1,11,4,-0.775566,3.87356,0.599632,0.58714,-0.0957847,0.000369549,-0.478297,0.0203848,-0.000417233,0.0204456,0.144371,5,0.1,12,4,0.162829,-2.44103,0.585222,-0.0286337,-0.32199,0.00991672,0.0225678,0.156403,-0.00753999,0.00924746,0.0210742,5,0.1,13,4,1.19998,1.48384,1.5013,5.96046e-05,-0.130323,0.00231862,-0.000298023,-0.487387,-0.0280738,0.0126534,0.0960426,5,0.1,14,4,2.103,-1.82171,0.758025,-0.161386,0.510824,-0.0113398,-0.0808239,1.15901,0.0231862,0.0099924,2.09849,5,0.1,15,4,-0.321141,-3.60009,1.33882,-0.638763,6.55651e-05,0.0100791,-0.233741,-0.000238419,-0.0167489,0.00909874,0.688667,5,0.1,16,4,-5.11584,0.309814,0.5,0.0148892,0.448323,0,-0.0152588,-0.085786,0,0.00738319,0.144665,5,0.1,17,4,-3.30037,2.79876,1.36273,0.00706911,0.0209153,0.0452459,-0.0993013,-0.245929,-0.0241995,0.0117476,3.45689,5,0.1,18,4,-3.79923,-1.91825,0.601828,0.00581741,-0.274357,-0.00262558,0.00905991,0.334561,0.00295043,0.00789191,0.478451,5,0.1,19,4,-2.29648,-0.467107,0.598617,-0.543171,0.0183366,0.00147671,-0.0106096,-0.0155568,-0.0012815,0.00763838,0.717778,5,0.1
0,4.1,-0.392751,-2.07118,0.595322,0.371362,-0.035321,0.00582347,0.0600312,0.00908971,-0.00200048,0.00787191,0.113401,5,0.1,1,4.1,0.140326,2.19408,1.22275,0.0932316,0.866026,0.0854338,0.0404604,0,-0.01017,0.0116369,2.13511,5,0.1,2,4.1,3.93298,1.5097,0.5,-0.459312,0.0757828,0,-0.638425,0.391826,0,0.0166427,1.44057,5,0.1,3,4.1,-0.955316,-0.846728,0.568764,0.586993,0.864684,-0.0421378,0.225682,0.0148825,0.00230595,0.0151609,1.90578,5,0.1,4,4.1,3.7822,-1.76362,0.5,0.270648,0.643692,-1.30385e-06,0.0473559,1.31088,0,0.0101389,2.4861,5,0.1,5,4.1,-1.40181,0.403565,1.34599,-0.0458913,0.441427,0.000237115,0.18356,0.556082,0.00124425,0.0104325,0.378853,5,0.1,6,4.1,1.47565,0.0315591,0.607201,-0.859402,0.107423,-0.0062515,0.00122935,0.0252796,0.00325218,0.0130261,0.985021,5,0.1,7,4.1,3.52124,-5.40177,0.600046,-0.260042,0.00362024,-0.000162143,-0.317067,0.00610948,-0.000495464,0.0129166,0.123354,5,0.1,8,4.1,0.338983,-0.937687,0.597027,-0.293713,0.866026,0.00199825,-0.0844318,0,-0.0038445,0.0167334,2.2159,5,0.1,9,4.1,1.16874,-3.75183,0.602221,-0.421323,-0.00642985,-0.00210991,0.233106,-0.141174,0.00125542,0.00837385,0.160216,5,0.1,10,4.1,-3.44919,3.65318,1.33546,0.189957,-0.566137,0.0139907,0.244156,-0.190035,-0.0193268,0.016493,0.463791,5,0.1,11,4.1,-0.719106,3.86408,0.599667,0.542978,-0.0937447,0.000331923,-0.422481,0.0238121,-0.000342727,0.0204456,0.144371,5,0.1,12,4.1,0.160075,-2.47243,0.586177,-0.026449,-0.305683,0.00918312,0.0218078,0.177309,-0.00737235,0.00924746,0.0210742,5,0.1,13,4.1,1.19999,1.46835,1.50141,3.50177e-05,-0.179079,-3.63216e-05,-0.000193715,-0.465393,-0.0192299,0.0126534,0.0960426,5,0.1,14,4.1,2.08643,-1.76452,0.756998,-0.169801,0.633954,-0.00927113,-0.0773221,1.22861,0.01847,0.0099924,2.09849,5,0.1,15,4.1,-0.386306,-3.60009,1.33975,-0.664703,4.65661e-05,0.00866354,-0.24486,-0.000163913,-0.0120252,0.00909874,0.688667,5,0.1,16,4.1,-5.11442,0.354236,0.5,0.0135228,0.43988,0,-0.0125766,-0.0995416,0,0.00738319,0.144665,5,0.1,17,4.1,-3.30006,2.79985,1.36707,6.92904e-05,0.00314973,0.0410309,-0.0443161,-0.117496,-0.0572428,0.0117476,3.45689,5,0.1,18,4.1,-3.79854,-1.94404,0.60158,0.00794828,-0.241723,-0.00233566,0.0107884,0.320762,0.00287965,0.00789191,0.478451,5,0.1,19,4.1,-2.35125,-0.465349,0.598758,-0.554931,0.0168368,0.00135396,-0.177532,-0.0148397,-0.00120699,0.00763838,0.717778,5,0.1
0,4.2,-0.355431,-2.07465,0.595893,0.373494,-0.0340104,0.00556558,-0.0320077,0.0177622,-0.00324845,0.00737046,0.108596,5,0.1,1,4.2,0.149814,2.28068,1.23123,0.0960652,0.866026,0.0839055,0.0121817,0,-0.023663,0.0114206,1.68587,5,0.1,2,4.2,3.88386,1.5192,0.5,-0.521934,0.113502,0,-0.564575,0.346065,0,0.0123845,1.123,5,0.1,3,4.2,-0.895717,-0.760278,0.564571,0.602077,0.863044,-0.0416011,0.051409,-0.0596941,0.00998378,0.0101204,1.41008,5,0.1,4,4.2,3.8094,-1.69306,0.5,0.272208,0.762516,-1.49012e-06,-0.0258684,1.00619,2.98023e-05,0.010154,1.98716,5,0.1,5,4.2,-1.40551,0.450069,1.34602,-0.0283331,0.484034,0.000423193,0.164866,0.280499,0.00220537,0.0102912,2.6954,5,0.1,6,4.2,1.3899,0.0424755,0.606593,-0.852975,0.111119,-0.00589341,0.161588,0.0384431,0.00405312,0.0121389,0.708913,5,0.1,7,4.2,3.49381,-5.40139,0.600028,-0.2868,0.00389814,-0.000192225,-0.202537,-0.000476837,-0.000149012,0.0109731,0.196111,5,0.1,8,4.2,0.30929,-0.851085,0.59721,-0.29881,0.866026,0.00166446,-0.00533462,0,-0.00289083,0.017461,2.21434,5,0.1,9,4.2,1.1277,-3.75329,0.602016,-0.399628,-0.0235319,-0.00199974,0.22018,-0.187159,0.00104308,0.00926628,0.0973526,5,0.1,10,4.2,-3.42907,3.59594,1.33677,0.211287,-0.574934,0.012219,0.169516,0.0290871,-0.0165105,0.013479,1.057,5,0.1,11,4.2,-0.666945,3.85486,0.599699,0.499682,-0.090462,0.000298023,-0.455499,0.0442266,-0.000327826,0.02265,0.134518,5,0.1,12,4.2,0.157543,-2.50203,0.587057,-0.02416,-0.285304,0.00840425,0.0244305,0.234842,-0.00834465,0.00756099,0.0118555,5,0.1,13,4.2,1.19999,1.4483,1.50132,1.78814e-05,-0.219628,-0.00156462,-0.000119209,-0.330091,-0.0116229,0.0124401,0.127759,5,0.1,14,4.2,2.06914,-1.69537,0.756158,-0.175136,0.743705,-0.00759512,-0.0224113,0.912786,0.0153184,0.0148555,1.59502,5,0.1,15,4.2,-0.45375,-3.60009,1.34056,-0.680923,3.57628e-05,0.00759363,-0.0516319,0,-0.00977516,0.007435,0.201536,5,0.1,16,4.2,-5.11313,0.397594,0.5,0.0122905,0.425667,0,-0.0121593,-0.195697,0,0.00970072,0.167936,5,0.1,17,4.2,-3.3002,2.79974,1.37085,-0.00245571,-0.00407696,0.0343204,-0.00905991,-0.0337362,-0.0745654,0.0128459,3.45374,5,0.1,18,4.2,-3.79783,-1.96662,0.601361,0.00475645,-0.209785,-0.00204593,-0.0840425,0.319541,0.00292063,0.00694809,1.49271,5,0.1,19,4.2,-2.40759,-0.463741,0.598888,-0.57056,0.0153035,0.00122935,-0.100851,-0.0160933,-0.0013113,0.00706911,0.755649,5,0.1
0,4.3,-0.318256,-2.07803,0.596433,0.369537,-0.0341486,0.00523133,-0.0603348,-0.0152439,-0.00354275,0.00737046,0.108596,5,0.1,1,4.3,0.159488,2.36728,1.23952,0.0973592,0.866,0.0819743,0.00908226,-0.00104308,-0.0187159,0.0114206,1.68587,5,0.1,2,4.3,3.82863,1.53232,0.5,-0.58345,0.148585,0,-0.6143,0.338592,0,0.0123845,1.123,5,0.1,3,4.3,-0.83521,-0.67402,0.560453,0.607749,0.863422,-0.0407812,0.0337735,0.0209212,0.00824407,0.0101204,1.41008,5,0.1,4,4.3,3.83652,-1.61261,0.5,0.270097,0.837907,9.31323e-07,-0.0280887,0.499181,1.49012e-05,0.010154,1.98716,5,0.1,5,4.3,-1.40782,0.501033,1.34607,-0.0205753,0.544258,0.000682473,0.00556558,0.82301,0.00280142,0.0102912,2.6954,5,0.1,6,4.3,1.30525,0.0538569,0.606023,-0.840507,0.117012,-0.00551818,0.126787,0.0689279,0.00363216,0.0121389,0.708913,5,0.1,7,4.3,3.46389,-5.40101,0.600008,-0.312808,0.00362173,-0.00019474,-0.285923,-0.00467896,8.56817e-05,0.0109731,0.196111,5,0.1,8,4.3,0.279303,-0.764482,0.597364,-0.301303,0.866026,0.00143424,-0.0273827,-3.72529e-06,-0.00181794,0.017461,2.21434,5,0.1,9,4.3,1.08871,-3.7566,0.60182,-0.381002,-0.04283,-0.00191778,0.169821,-0.190392,0.000700355,0.00926628,0.0973526,5,0.1,10,4.3,-3.40755,3.53818,1.33791,0.214931,-0.583429,0.010791,-0.0814348,-0.150308,-0.012517,0.013479,1.057,5,0.1,11,4.3,-0.619119,3.84597,0.599727,0.457836,-0.0875812,0.000268407,-0.396073,0.0192076,-0.000275671,0.02265,0.134518,5,0.1,12,4.3,0.155245,-2.52939,0.587857,-0.0218114,-0.26192,0.00759913,0.0230763,0.238642,-0.00793859,0.00756099,0.0118555,5,0.1,13,4.3,1.19999,1.42462,1.50112,8.3819e-06,-0.254023,-0.00235811,-8.19564e-05,-0.334591,-0.00461936,0.0124401,0.127759,5,0.1,14,4.3,2.05151,-1.61693,0.755469,-0.177373,0.819679,-0.00624955,-0.0142008,0.583261,0.011839,0.0148555,1.59502,5,0.1,15,4.3,-0.521839,-3.60008,1.34128,-0.677937,3.61353e-05,0.0067804,0.123653,1.49012e-05,-0.00686944,0.007435,0.201536,5,0.1,16,4.3,-5.11195,0.439473,0.5,0.011383,0.414077,0,-0.00679493,-0.0657719,0,0.00970072,0.167936,5,0.1,17,4.3,-3.30047,2.79923,1.37389,-0.00258908,-0.00545271,0.0263771,0.00506639,0.00302494,-0.0822619,0.0128459,3.45374,5,0.1,18,4.3,-3.79775,-1.98634,0.601247,-0.0055261,-0.187477,0.000404101,-0.213325,0.146605,0.0412799,0.00694809,1.49271,5,0.1,19,4.3,-2.46548,-0.462288,0.599004,-0.589386,0.0137916,0.0011066,-0.228897,-0.0144858,-0.00116974,0.00706911,0.755649,5,0.1
0,4.4,-0.281738,-2.08154,0.596937,0.359242,-0.0361323,0.00483841,-0.154212,-0.0206232,-0.00438094,0.00782256,0.211524,5,0.1,1,4.4,0.169233,2.45387,1.24761,0.097106,0.865608,0.0795305,-0.0172779,-0.00822544,-0.0327826,0.0129923,1.29453,5,0.1,2,4.4,3.76748,1.54874,0.5,-0.635993,0.178328,0,-0.400305,0.2442,0,0.00940993,1.6951,5,0.1,3,4.4,-0.774484,-0.587747,0.556426,0.604087,0.859481,-0.039643,-0.126213,-0.130951,0.0157952,0.0101294,1.00748,5,0.1,4,4.4,3.86331,-1.52714,0.5,0.264627,0.863975,2.98023e-06,-0.089407,0.041008,-2.98023e-05,0.01232,1.50508,5,0.1,5,4.4,-1.41001,0.559786,1.34615,-0.0244796,0.630963,0.000953674,-0.0715256,0.835329,0.0025034,0.00995665,0.288907,5,0.1,6,4.4,1.22204,0.0658825,0.60549,-0.821027,0.123099,-0.00513494,0.289738,0.0452435,0.00417233,0.012458,0.496108,5,0.1,7,4.4,3.43126,-5.40068,0.59999,-0.338531,0.00302792,-0.000177324,-0.205517,-0.00691414,0.000208616,0.0116235,0.11995,5,0.1,8,4.4,0.249114,-0.67788,0.597499,-0.301373,0.866026,0.0012815,0.0379825,0,-0.0013113,0.0151343,2.21552,5,0.1,9,4.4,1.0515,-3.76179,0.601632,-0.362688,-0.0601649,-0.00184327,0.208735,-0.150323,0.00089407,0.00803854,0.163114,5,0.1,10,4.4,-3.38677,3.47911,1.33893,0.197834,-0.596589,0.00963211,-0.247478,-0.0776052,-0.0110865,0.0155369,0.264122,5,0.1,11,4.4,-0.575315,3.83731,0.599752,0.417984,-0.0856102,0.000242889,-0.411183,0.0241995,-0.000298023,0.0194185,0.113221,5,0.1,12,4.4,0.153181,-2.55435,0.588576,-0.0194587,-0.23666,0.00678748,0.0242963,0.26989,-0.00843406,0.00823762,0.00356654,5,0.1,13,4.4,1.19999,1.39769,1.50087,2.98023e-06,-0.282598,-0.00256002,0,-0.220597,0.000238419,0.0170962,0.201433,5,0.1,14,4.4,2.03377,-1.53272,0.754899,-0.17662,0.85755,-0.0051856,0.0346899,0.169516,0.00965595,0.00876169,1.18152,5,0.1,15,4.4,-0.588646,-3.60008,1.34193,-0.654319,3.57628e-05,0.00615716,0.355154,0.000119209,-0.00584126,0.00876589,0.359359,5,0.1,16,4.4,-5.11084,0.480567,0.5,0.0107884,0.407393,0,-0.00548363,-0.0894219,0,0.00868079,0.143589,5,0.1,17,4.4,-3.30069,2.79874,1.37612,-0.00168085,-0.00404119,0.0182271,0.0120401,0.0224113,-0.0790954,0.011168,3.45337,5,0.1,18,4.4,-3.8,-2.0045,0.601525,-0.0458002,-0.17693,0.00535399,-0.579238,0.0796318,0.0540614,0.0073607,1.34564,5,0.1,19,4.4,-2.52546,-0.460981,0.599109,-0.608301,0.0123478,0.000990927,-0.115871,-0.014618,-0.00119209,0.00765424,0.380948,5,0.1
0,4.5,-0.246612,-2.08521,0.597399,0.342806,-0.0367105,0.0044018,-0.182552,0.00822544,-0.00441819,0.00782256,0.211524,5,0.1,1,4.5,0.178864,2.54042,1.25541,0.0954665,0.865523,0.0765851,-0.0192514,-0.00558794,-0.029169,0.0129923,1.29453,5,0.1,2,4.5,3.70136,1.56777,0.5,-0.689612,0.201761,0,-0.602126,0.211254,0,0.00940993,1.6951,5,0.1,3,4.5,-0.714664,-0.502278,0.552534,0.592132,0.850596,-0.0382093,-0.135817,-0.0881794,0.0143684,0.0101294,1.00748,5,0.1,4,4.5,3.88935,-1.44061,0.5,0.256253,0.86575,5.58794e-07,-0.0876337,-0.000759959,-1.49012e-05,0.01232,1.50508,5,0.1,5,4.5,-1.41266,0.626347,1.34626,-0.0272704,0.692963,0.00122357,0.00936538,0.398967,0.00273436,0.00995665,0.288907,5,0.1,6,4.5,1.14126,0.0784488,0.604996,-0.794889,0.128319,-0.00475021,0.264652,0.0509569,0.00367686,0.012458,0.496108,5,0.1,7,4.5,3.39638,-5.40041,0.599973,-0.358671,0.00229552,-0.000151154,-0.1771,-0.00748038,0.000301749,0.0116235,0.11995,5,0.1,8,4.5,0.219072,-0.591277,0.597622,-0.299977,0.866026,0.00118958,0.00679038,-3.72529e-06,-0.000622123,0.0151343,2.21552,5,0.1,9,4.5,1.01595,-3.76837,0.601452,-0.350827,-0.069683,-0.00176085,0.0573508,-0.0447929,0.000815839,0.00803854,0.163114,5,0.1,10,4.5,-3.36818,3.41989,1.33985,0.174309,-0.580274,0.00867713,-0.22611,0.377506,-0.00841171,0.0155369,0.264122,5,0.1,11,4.5,-0.535239,3.82896,0.599775,0.386227,-0.0804551,0.000219978,-0.24936,0.0756979,-0.000178814,0.0194185,0.113221,5,0.1,12,4.5,0.151355,-2.57666,0.589213,-0.0170698,-0.20953,0.00595693,0.0236565,0.274226,-0.00824034,0.00823762,0.00356654,5,0.1,13,4.5,1.19999,1.36811,1.50062,3.1665e-06,-0.310423,-0.00236724,7.45058e-06,-0.303768,0.00334531,0.0170962,0.201433,5,0.1,14,4.5,2.01627,-1.44645,0.754424,-0.173262,0.865179,-0.00435039,0.0390708,0.00850111,0.00724941,0.00876169,1.18152,5,0.1,15,4.5,-0.652549,-3.60007,1.34252,-0.62542,4.58211e-05,0.00567418,0.253715,7.45058e-05,-0.00412017,0.00876589,0.359359,5,0.1,16,4.5,-5.10974,0.520761,0.5,0.0116214,0.395302,0,0.0187755,-0.159549,0,0.00868079,0.143589,5,0.1,17,4.5,-3.3008,2.79845,1.37755,-0.000530854,-0.00176877,0.0104614,0.0107735,0.0224113,-0.0747591,0.011168,3.45337,5,0.1,18,4.5,-3.80747,-2.02197,0.602358,-0.103076,-0.173747,0.0114985,-0.552952,-0.000417233,0.0652224,0.0073607,1.34564,5,0.1,19,4.5,-2.58685,-0.459815,0.599203,-0.618753,0.0109965,0.000881217,-0.0662655,-0.0127014,-0.00102073,0.00765424,0.380948,5,0.1
0,4.6,-0.213344,-2.0888,0.597817,0.32143,-0.0346601,0.00394434,-0.249945,0.0318289,-0.00479817,0.00742652,0.194109,5,0.1,1,4.6,0.188286,2.62685,1.26291,0.0926305,0.861716,0.0731856,-0.0399947,-0.0863075,-0.0409484,0.0102598,0.965321,5,0.1,2,4.6,3.62953,1.58886,0.5,-0.744355,0.218365,0,-0.442028,0.111878,0,0.0100921,1.27957,5,0.1,3,4.6,-0.656299,-0.417866,0.548793,0.57309,0.834834,-0.0365183,-0.260442,-0.255764,0.0204444,0.00986866,0.700059,5,0.1,4,4.6,3.91448,-1.35411,0.5,0.2455,0.863671,0,-0.133753,-0.0470281,-2.98023e-05,0.0102103,1.13538,5,0.1,5,4.6,-1.41525,0.696883,1.3464,-0.0237644,0.710207,0.00147223,0.0555515,-0.053823,0.00208616,0.00945058,1.03337,5,0.1,6,4.6,1.06327,0.0914899,0.604539,-0.762773,0.131897,-0.004372,0.399292,0.0148714,0.00393391,0.0106137,0.339972,5,0.1,7,4.6,3.35981,-5.40022,0.59996,-0.370562,0.00156164,-0.000117719,-0.0468493,-0.00691414,0.000298023,0.0106899,0.0655433,5,0.1,8,4.6,0.18917,-0.504674,0.597738,-0.297147,0.866026,0.00113845,0.0616235,0,-0.000447035,0.0132319,2.21815,5,0.1,9,4.6,0.981095,-3.77542,0.60128,-0.346209,-0.0700295,-0.00166744,0.0562668,0.0332594,0.00104308,0.00787635,0.190948,5,0.1,10,4.6,-3.35187,3.36432,1.34067,0.152093,-0.526041,0.00788271,-0.220299,0.683784,-0.0077486,0.0126715,0.282211,5,0.1,11,4.6,-0.497766,3.82136,0.599797,0.363693,-0.0710666,0.000205636,-0.22009,0.109076,-0.000178814,0.0202021,0.14298,5,0.1,12,4.6,0.149766,-2.59623,0.589768,-0.0147007,-0.181609,0.00513047,0.0237897,0.284672,-0.00828505,0.00723363,0.00119351,5,0.1,13,4.6,1.19999,1.33563,1.5004,2.98023e-06,-0.337821,-0.00194311,5.96046e-05,-0.221014,0.00488758,0.013728,0.123477,5,0.1,14,4.6,1.99919,-1.36006,0.754022,-0.167707,0.86095,-0.00370294,0.0764728,-0.101566,0.00593066,0.00944324,0.866574,5,0.1,15,4.6,-0.713783,-3.60007,1.34306,-0.598297,5.36442e-05,0.00528097,0.31063,0,-0.0038743,0.00666908,0.255568,5,0.1,16,4.6,-5.10847,0.559331,0.5,0.0139356,0.374368,0,0.025034,-0.263155,0,0.00723275,0.241318,5,0.1,17,4.6,-3.3008,2.79838,1.37824,0.000441074,0.000333786,0.00352561,0.00834465,0.0191927,-0.0629425,0.0161657,3.45319,5,0.1,18,4.6,-3.8204,-2.03938,0.603828,-0.153995,-0.17432,0.0177711,-0.454545,0.000476837,0.0575483,0.00704949,1.23137,5,0.1,19,4.6,-2.6488,-0.458778,0.599286,-0.617069,0.00975654,0.000780821,0.117779,-0.0122935,-0.000953674,0.00758132,0.259249,5,0.1
0,4.7,-0.182457,-2.09205,0.598188,0.296099,-0.0299845,0.00347774,-0.261508,0.0584573,-0.00457466,0.00742652,0.194109,5,0.1,1,4.7,0.197359,2.71287,1.27003,0.0888341,0.860216,0.0694171,-0.0390057,0.00683963,-0.0369102,0.0102598,0.965321,5,0.1,2,4.7,3.5527,1.61123,0.5,-0.792523,0.228503,0,-0.466838,0.0803918,0,0.0100921,1.27957,5,0.1,3,4.7,-0.60023,-0.335536,0.545237,0.548418,0.812168,-0.034627,-0.251845,-0.231028,0.0186078,0.00986866,0.700059,5,0.1,4,4.7,3.93839,-1.26777,0.5,0.232945,0.864069,-1.39698e-06,-0.125214,0.0148937,-3.72529e-06,0.0102103,1.13538,5,0.1,5,4.7,-1.41729,0.768093,1.34656,-0.0164505,0.717152,0.00167955,0.0860393,0.137065,0.0019297,0.00945058,1.03337,5,0.1,6,4.7,0.988864,0.104767,0.604121,-0.72582,0.133597,-0.00401037,0.365715,0.0125975,0.00342354,0.0106137,0.339972,5,0.1,7,4.7,3.32258,-5.4001,0.599949,-0.37304,0.000929087,-8.64267e-05,0.00970066,-0.00569224,0.000320375,0.0106899,0.0655433,5,0.1,8,4.7,0.159661,-0.418072,0.597851,-0.293635,0.866026,0.00111964,0.0250712,-3.57628e-06,-2.23517e-05,0.0132319,2.21815,5,0.1,9,4.7,0.94667,-3.78214,0.601119,-0.342705,-0.0634555,-0.00155224,0.0313297,0.0928491,0.00127777,0.00787635,0.190948,5,0.1,10,4.7,-3.33782,3.31556,1.34143,0.128353,-0.445608,0.00735316,-0.249654,0.898108,-0.00347942,0.0126715,0.282211,5,0.1,11,4.7,-0.462358,3.81484,0.599816,0.345443,-0.0589862,0.000191387,-0.161689,0.129402,-0.000115484,0.0202021,0.14298,5,0.1,12,4.7,0.148413,-2.61298,0.59024,-0.0123817,-0.153543,0.00432171,0.0225967,0.276208,-0.00789016,0.00723363,0.00119351,5,0.1,13,4.7,1.19999,1.30074,1.50023,8.00937e-06,-0.359419,-0.00143163,3.72529e-05,-0.190474,0.0051856,0.013728,0.123477,5,0.1,14,4.7,1.98278,-1.27424,0.753679,-0.160423,0.856415,-0.00319788,0.074625,-0.0347123,0.00433251,0.00944324,0.866574,5,0.1,15,4.7,-0.772226,-3.60006,1.34358,-0.571584,5.36442e-05,0.0049565,0.248533,0,-0.00286102,0.00666908,0.255568,5,0.1,16,4.7,-5.10697,0.59505,0.5,0.0157788,0.336623,0,0.0118613,-0.467613,0,0.00723275,0.241318,5,0.1,17,4.7,-3.30072,2.7985,1.37829,0.00107624,0.00184365,-0.00240542,0.00451505,0.0112802,-0.0545979,0.0161657,3.45319,5,0.1,18,4.7,-3.83756,-2.05689,0.605897,-0.184976,-0.17643,0.0235893,-0.205934,-0.0305474,0.0560731,0.00704949,1.23137,5,0.1,19,4.7,-2.70993,-0.45786,0.599359,-0.605141,0.0086335,0.000693556,0.142694,-0.0104178,-0.000815839,0.00758132,0.259249,5,0.1
0,4.8,-0.154205,-2.09474,0.598513,0.268358,-0.0235438,0.00302345,-0.296183,0.0677109,-0.00455976,0.00803608,0.406156,5,0.1,1,4.8,0.206028,2.79875,1.27678,0.0843149,0.854659,0.0653803,-0.0534505,-0.152707,-0.0454187,0.0115805,0.692709,5,0.1,2,4.8,3.47144,1.63436,0.5,-0.828469,0.2327,0,-0.213981,-0.00339746,0,0.00907349,0.92416,5,0.1,3,4.8,-0.546759,-0.255657,0.541873,0.519565,0.782992,-0.0325918,-0.337899,-0.375413,0.0229478,0.00812868,0.48356,5,0.1,4,4.8,3.96102,-1.18144,0.5,0.219136,0.86022,-1.49012e-06,-0.156283,-0.116169,0,0.00969023,0.829024,5,0.1,5,4.8,-1.41849,0.840434,1.34673,-0.00739396,0.728032,0.0018388,0.0916123,0.0402927,0.00113249,0.0108988,2.41793,5,0.1,6,4.8,0.918228,0.118142,0.603737,-0.685266,0.13332,-0.00366569,0.463009,-0.0225979,0.00360608,0.0107681,0.229871,5,0.1,7,4.8,3.2855,-5.40003,0.599942,-0.366604,0.000441074,-5.51343e-05,0.127077,-0.00429153,0.000327826,0.0106759,0.0438573,5,0.1,8,4.8,0.130472,-0.331469,0.597963,-0.289327,0.866025,0.00111908,0.072695,1.43051e-05,-8.9407e-05,0.0126599,1.97884,5,0.1,9,4.8,0.912632,-3.78796,0.600971,-0.336969,-0.0524461,-0.00141114,0.0956059,0.123143,0.00157952,0.00729285,0.544989,5,0.1,10,4.8,-3.32625,3.27566,1.34215,0.103033,-0.351244,0.00707805,-0.252724,0.967383,-0.002563,0.0121366,0.274118,5,0.1,11,4.8,-0.428638,3.8096,0.599835,0.328491,-0.0457525,0.000181794,-0.189245,0.133038,-0.000149012,0.0225355,0.279436,5,0.1,12,4.8,0.147286,-2.62697,0.590634,-0.0101827,-0.126469,0.00355393,0.0213683,0.264645,-0.00745058,0.00854202,0.00082666,5,0.1,13,4.8,1.19999,1.26403,1.50012,8.9407e-06,-0.372478,-0.000932813,5.96046e-05,-0.0568628,0.00470877,0.0126247,0.0675613,5,0.1,14,4.8,1.96715,-1.18897,0.753379,-0.151876,0.846267,-0.00280887,0.099957,-0.200093,0.00357628,0.0092058,0.616226,5,0.1,15,4.8,-0.828077,-3.60006,1.34406,-0.544356,4.76837e-05,0.00466704,0.313461,0.000119209,-0.00303984,0.00863167,0.178272,5,0.1,16,4.8,-5.10536,0.626199,0.5,0.0163198,0.285055,0,-0.000953674,-0.54583,0,0.00752545,0.216612,5,0.1,17,4.8,-3.3006,2.79872,1.3778,0.00137091,0.00264645,-0.00721514,0.00166893,0.00488758,-0.0409484,0.0113997,3.45299,5,0.1,18,4.8,-3.85692,-2.07465,0.608516,-0.20135,-0.178355,0.0285193,-0.142217,0.000953674,0.0405312,0.00770361,1.08945,5,0.1,19,4.8,-2.76954,-0.457047,0.599425,-0.584877,0.00762939,0.000615418,0.277042,-0.00983477,-0.00077486,0.00853434,0.468696,5,0.1
0,4.9,-0.128831,-2.09665,0.598793,0.239241,-0.0141419,0.00258861,-0.2891,0.106305,-0.0041686,0.00803608,0.406156,5,0.1,1,4.9,0.214205,2.88361,1.28311,0.079292,0.843153,0.0611838,-0.0495585,-0.116929,-0.0405759,0.0115805,0.692709,5,0.1,2,4.9,3.38747,1.6576,0.5,-0.850442,0.231823,0,-0.182346,-0.0226572,0,0.00907349,0.92416,5,0.1,3,4.9,-0.496409,-0.179394,0.538722,0.487856,0.740443,-0.0304669,-0.31195,-0.483393,0.0205636,0.00812868,0.48356,5,0.1,4,4.9,3.9822,-1.0958,0.5,0.204562,0.853722,-4.65661e-07,-0.141755,-0.0577569,1.11759e-05,0.00969023,0.829024,5,0.1,5,4.9,-1.41906,0.914412,1.34692,-0.00666622,0.758903,0.0019446,-0.0609532,0.485439,0.000879169,0.0108988,2.41793,5,0.1,6,4.9,0.851886,0.131371,0.603387,-0.64233,0.131226,-0.00333628,0.417195,-0.0245473,0.00308827,0.0107681,0.229871,5,0.1,7,4.9,3.24944,-5.4,0.599938,-0.35443,9.16421e-05,-2.30037e-05,0.129715,-0.00277162,0.000309199,0.0106759,0.0438573,5,0.1,8,4.9,0.101827,-0.245274,0.598075,-0.283987,0.853765,0.00112457,0.0482704,-0.247067,0.000122935,0.0126599,1.97884,5,0.1,9,4.9,0.879072,-3.79257,0.600891,-0.336824,-0.0395723,0.000257231,-0.060644,0.130773,0.0284389,0.00729285,0.544989,5,0.1,10,4.9,-3.31726,3.24534,1.34285,0.0766158,-0.255987,0.00691134,-0.264406,0.921547,-0.00118464,0.0121366,0.274118,5,0.1,11,4.9,-0.396682,3.80568,0.599852,0.310871,-0.0328261,0.000169035,-0.173939,0.123575,-0.000108033,0.0225355,0.279436,5,0.1,12,4.9,0.146371,-2.63833,0.590953,-0.00813862,-0.101005,0.00284053,0.0194618,0.243634,-0.00679493,0.00854202,0.00082666,5,0.1,13,4.9,1.19999,1.22657,1.50005,1.37836e-05,-0.375843,-0.000512227,2.98023e-05,0.00210851,0.00366569,0.0126247,0.0675613,5,0.1,14,4.9,1.95254,-1.1052,0.753114,-0.139415,0.829552,-0.00250768,0.14697,-0.170797,0.00257045,0.0092058,0.616226,5,0.1,15,4.9,-0.881074,-3.60005,1.34451,-0.516344,5.73695e-05,0.00440478,0.267074,5.96046e-05,-0.00239909,0.00863167,0.178272,5,0.1,16,4.9,-5.10375,0.651838,0.5,0.0156447,0.227233,0,-0.0119209,-0.576925,0,0.00752545,0.216612,5,0.1,17,4.9,-3.30045,2.799,1.37688,0.00141189,0.0028573,-0.0109456,-0.000685453,-0.000327826,-0.0328571,0.0113997,3.45299,5,0.1,18,4.9,-3.87761,-2.09252,0.611566,-0.212701,-0.179211,0.0324021,-0.155628,-0.00846386,0.0349917,0.00770361,1.08945,5,0.1,19,4.9,-2.82701,-0.45633,0.599483,-0.567133,0.00673919,0.000545289,0.115737,-0.0081826,-0.000644475,0.00853434,0.468696,5,0.1
0,5,-0.10636,-2.09756,0.599032,0.21007,-0.00455976,0.002186,-0.296064,0.07689,-0.00393391,0.00741764,0.78239,5,0.1,1,5,0.221876,2.96714,1.28902,0.0739742,0.824583,0.0569195,-0.0585094,-0.281572,-0.0461936,0.00987783,0.491798,5,0.1,2,5,3.30186,1.68058,0.5,-0.857675,0.226757,0,0.0668764,-0.0843406,0,0.0113129,0.643853,5,0.1,3,5,-0.449244,-0.107996,0.53578,0.454544,0.685123,-0.0283077,-0.364915,-0.627069,0.0233054,0.0090054,0.385539,5,0.1,4,5,4.00192,-1.01091,0.5,0.189686,0.841211,1.49012e-06,-0.160456,-0.223041,0,0.00921169,0.685335,5,0.1,5,5,-1.42018,0.992845,1.34712,-0.0167042,0.809151,0.00200272,-0.127196,0.451624,5.96046e-05,0.00941465,0.721634,5,0.1,6,5,0.789806,0.144333,0.603069,-0.598207,0.127528,-0.00302941,0.479937,-0.0529811,0.00312924,0.0105044,0.156314,5,0.1,7,5,3.21474,-5.40001,0.599938,-0.338447,-0.000119209,5.96046e-06,0.198722,-0.00166893,0.000238419,0.0103331,0.0792029,5,0.1,8,5,0.0737238,-0.161553,0.598188,-0.277268,0.816437,0.001131,0.096001,-0.499399,-8.9407e-05,0.0111673,1.73791,5,0.1,9,5,0.845045,-3.79588,0.60108,-0.343524,-0.0269115,0.00368208,-0.0496805,0.119805,0.0374317,0.00766871,0.471461,5,0.1,10,5,-3.31086,3.22416,1.34354,0.0519753,-0.169671,0.00676811,-0.221252,0.793934,-0.00196695,0.0153414,2.08423,5,0.1,11,5,-0.366511,3.80299,0.599869,0.291893,-0.0213623,0.000157952,-0.212938,0.104547,-0.000119209,0.0196422,0.259776,5,0.1,12,5,0.145651,-2.64725,0.591204,-0.00629947,-0.0779092,0.00219643,0.0172928,0.217438,-0.00602007,0.00758693,0.00074062,5,0.1,13,5,1.19999,1.18918,1.50001,1.49012e-05,-0.370005,-0.000202656,0,0.122488,0.002563,0.0146349,0.0451954,5,0.1,14,5,1.9394,-1.0233,0.752875,-0.122932,0.805934,-0.00227243,0.180423,-0.326812,0.00226498,0.00932172,0.422126,5,0.1,15,5,-0.931314,-3.60005,1.34494,-0.487506,5.96046e-05,0.00415444,0.323743,0,-0.00274181,0.0085006,0.122521,5,0.1,16,5,-5.10226,0.671835,0.5,0.0140548,0.174768,0,-0.0190735,-0.455022,0,0.00865417,0.18755,5,0.1,17,5,-3.30032,2.79928,1.37564,0.00126362,0.00264645,-0.0136495,-0.00214577,-0.00369549,-0.0208616,0.0125671,3.45283,5,0.1,18,5,-3.9,-2.11044,0.614958,-0.238544,-0.178415,0.0351608,-0.350952,0.0309944,0.0187457,0.00843338,0.915076,5,0.1,19,5,-2.88316,-0.455696,0.599534,-0.555187,0.00595674,0.000484288,0.150561,-0.00762939,-0.000625849,0.0086745,0.761284,5,0.1
