id,t,px,py,pz,vx,vy,vz,ax,ay,az,planning_time,qp_cost,planning_report,size,id,t,px,py,pz,vx,vy,vz,ax,ay,az,planning_time,qp_cost,planning_report,size,id,t,px,py,pz,vx,vy,vz,ax,ay,az,planning_time,qp_cost,planning_report,size,id,t,px,py,pz,vx,vy,vz,ax,ay,az,planning_time,qp_cost,planning_report,size,id,t,px,py,pz,vx,vy,vz,ax,ay,az,planning_time,qp_cost,planning_report,size,id,t,px,py,pz,vx,vy,vz,ax,ay,az,planning_time,qp_cost,planning_report,size,id,t,px,py,pz,vx,vy,vz,ax,ay,az,planning_time,qp_cost,planning_report,size,id,t,px,py,pz,vx,vy,vz,ax,ay,az,planning_time,qp_cost,planning_report,size,id,t,px,py,pz,vx,vy,vz,ax,ay,az,planning_time,qp_cost,planning_report,size,id,t,px,py,pz,vx,vy,vz,ax,ay,az,planning_time,qp_cost,planning_report,size,id,t,px,py,pz,vx,vy,vz,ax,ay,az,planning_time,qp_cost,planning_report,size,id,t,px,py,pz,vx,vy,vz,ax,ay,az,planning_time,qp_cost,planning_report,size,id,t,px,py,pz,vx,vy,vz,ax,ay,az,planning_time,qp_cost,planning_report,size,id,t,px,py,pz,vx,vy,vz,ax,ay,az,planning_time,qp_cost,planning_report,size,id,t,px,py,pz,vx,vy,vz,ax,ay,az,planning_time,qp_cost,planning_report,size,id,t,px,py,pz,vx,vy,vz,ax,ay,az,planning_time,qp_cost,planning_report,size,id,t,px,py,pz,vx,vy,vz,ax,ay,az,planning_time,qp_cost,planning_report,size,id,t,px,py,pz,vx,vy,vz,ax,ay,az,planning_time,qp_cost,planning_report,size,id,t,px,py,pz,vx,vy,vz,ax,ay,az,planning_time,qp_cost,planning_report,size,id,t,px,py,pz,vx,vy,vz,ax,ay,az,planning_time,qp_cost,planning_report,size
0,0,0.468867,-4.97467,0.635228,0,0,0,0,0,0,0.0160983,3.5122,5,0.1,1,0,-1.26546,-0.939713,0.554512,0,0,0,0,0,0,0.0173318,2.9154,5,0.1,2,0,0.294369,3.47202,0.583273,0,0,0,0,0,0,0.0372692,3.51219,5,0.1,3,0,1.82852,4.4219,0.611063,0,0,0,0,0,0,0.0555565,0.484693,5,0.1,4,0,-1.70632,-5.17971,0.66224,0,0,0,0,0,0,0.043243,3.51219,5,0.1,5,0,-1.80662,-4.44968,0.53586,0,0,0,0,0,0,0.0107913,0.451517,5,0.1,6,0,3.29487,-0.214684,0.542316,0,0,0,0,0,0,0.0613331,3.51219,5,0.1,7,0,-3.43027,-4.89424,0.621294,0,0,0,0,0,0,0.0201871,3.5122,5,0.1,8,0,-2.22657,-3.53292,0.621694,0,0,0,0,0,0,0.0333844,1.87612,5,0.1,9,0,0.477659,-3.2301,0.651651,0,0,0,0,0,0,0.00961954,1.20088,5,0.1,10,0,-3.18627,1.72317,0.649687,0,0,0,0,0,0,0.0228849,0.475514,5,0.1,11,0,1.84654,-0.0417686,0.503798,0,0,0,0,0,0,0.0123884,3.5122,5,0.1,12,0,-1.9925,4.25678,0.583504,0,0,0,0,0,0,0.0526839,3.20656,5,0.1,13,0,-5.52692,-1.45238,0.559836,0,0,0,0,0,0,0.00855217,0.661919,5,0.1,14,0,-0.727913,-0.539713,0.669897,0,0,0,0,0,0,0.0110934,1.62558,5,0.1,15,0,3.71834,-2.78515,0.619111,0,0,0,0,0,0,0.0233352,3.5122,5,0.1,16,0,-3.94135,5.09851,0.668538,0,0,0,0,0,0,0.0152773,2.00598,5,0.1,17,0,-4.89379,-2.57034,0.646403,0,0,0,0,0,0,0.0148741,3.51219,5,0.1,18,0,0.729218,2.13786,0.528226,0,0,0,0,0,0,0.0232924,1.64454,5,0.1,19,0,-1.78327,-2.323,0.566071,0,0,0,0,0,0,0.0126662,3.5122,5,0.1
0,0.1,0.468765,-4.97259,0.635217,-0.00291532,0.0591964,-0.000322144,-0.05183,1.05238,-0.00572577,0.0160983,3.5122,5,0.1,1,0.1,-1.26414,-0.941081,0.55456,0.037501,-0.0388293,0.0013479,0.666678,-0.690296,0.0239573,0.0173318,2.9154,5,0.1,2,0.1,0.294286,3.46993,0.583283,-0.00236058,-0.0592202,0.000273623,-0.0419635,-1.05283,0.00486523,0.0372692,3.51219,5,0.1,3,0.1,1.82849,4.42183,0.611834,-0.000845268,-0.00213012,0.0218978,-0.0150353,-0.0378788,0.389293,0.0555565,0.484693,5,0.1,4,0.1,-1.70641,-5.17764,0.662507,-0.00268463,0.0587195,0.00757743,-0.0477359,1.04392,0.134714,0.043243,3.51219,5,0.1,5,0.1,-1.80677,-4.44895,0.535927,-0.00424888,0.0207342,0.00190064,-0.0755414,0.368565,0.0337884,0.0107913,0.451517,5,0.1,6,0.1,3.2928,-0.214444,0.542354,-0.0588641,0.00682597,0.00107978,-1.04648,0.12135,0.0192001,0.0613331,3.51219,5,0.1,7,0.1,-3.43009,-4.89216,0.621281,0.00510104,0.0590481,-0.000387616,0.0907034,1.04973,-0.00689179,0.0201871,3.5122,5,0.1,8,0.1,-2.22754,-3.53174,0.621671,-0.0273649,0.0335731,-0.000642799,-0.486478,0.596851,-0.0114292,0.0333844,1.87612,5,0.1,9,0.1,0.478862,-3.23028,0.651544,0.0341677,-0.0049334,-0.00304813,0.607425,-0.0877231,-0.0541843,0.00961954,1.20088,5,0.1,10,0.1,-3.18624,1.72293,0.650418,0.00107512,-0.00661332,0.0207531,0.0191331,-0.117578,0.368942,0.0228849,0.475514,5,0.1,11,0.1,1.84447,-0.0419756,0.503771,-0.058971,-0.00587663,-0.000774395,-1.04837,-0.104473,-0.0137649,0.0123884,3.5122,5,0.1,12,0.1,-1.99058,4.25625,0.583521,0.054601,-0.0150174,0.000488851,0.970684,-0.266969,0.0086911,0.0526839,3.20656,5,0.1,13,0.1,-5.52631,-1.45306,0.559878,0.0170954,-0.0191914,0.00119014,0.303954,-0.341184,0.0211634,0.00855217,0.661919,5,0.1,14,0.1,-0.727466,-0.538367,0.669824,0.0126809,0.0382195,-0.00207135,0.22544,0.679459,-0.0368245,0.0110934,1.62558,5,0.1,15,0.1,3.71629,-2.78518,0.619498,-0.05823,-0.000976026,0.011002,-1.03518,-0.017345,0.195589,0.0233352,3.5122,5,0.1,16,0.1,-3.94131,5.09711,0.669249,0.00122488,-0.0399627,0.0201944,0.0217855,-0.710458,0.359014,0.0152773,2.00598,5,0.1,17,0.1,-4.89171,-2.57032,0.646356,0.0592515,0.000589341,-0.00134511,1.05333,0.0104904,-0.0239126,0.0148741,3.51219,5,0.1,18,0.1,0.728613,2.13657,0.528301,-0.0171646,-0.0366826,0.00212695,-0.305146,-0.652149,0.0378117,0.0232924,1.64454,5,0.1,19,0.1,-1.78229,-2.32116,0.566093,0.0279531,0.0522587,0.000639446,0.496939,0.929043,0.0113696,0.0126662,3.5122,5,0.1
0,0.2,0.468172,-4.96056,0.635151,-0.00921413,0.187087,-0.00101775,-0.0690818,1.40309,-0.00762939,0.0226851,2.9258,5,0.1,1,0.2,-1.25652,-0.948969,0.554834,0.118521,-0.122719,0.00426173,0.888884,-0.920415,0.0319183,0.01013,2.39194,5,0.1,2,0.2,0.293806,3.4579,0.583339,-0.00745952,-0.187165,0.000864267,-0.0559688,-1.40381,0.0064671,0.0382806,2.92579,5,0.1,3,0.2,1.82832,4.4214,0.616282,-0.00267029,-0.00673532,0.0692084,-0.0200272,-0.0505447,0.519037,0.0388625,0.397667,5,0.1,4,0.2,-1.70696,-5.16571,0.664046,-0.00848472,0.185585,0.0239477,-0.0636578,1.39213,0.179648,0.0311257,2.92576,5,0.1,5,0.2,-1.80764,-4.44474,0.536313,-0.0134289,0.0655413,0.00600666,-0.100732,0.491142,0.0450611,0.00981811,0.370457,5,0.1,6,0.2,3.28084,-0.213057,0.542574,-0.186038,0.0215732,0.00341237,-1.39534,0.161804,0.0255704,0.044276,2.92579,5,0.1,7,0.2,-3.42905,-4.88017,0.621202,0.0161171,0.18661,-0.00122488,0.121117,1.39976,-0.00917912,0.0123337,2.93493,5,0.1,8,0.2,-2.2331,-3.52492,0.621541,-0.0864863,0.106108,-0.00203103,-0.648618,0.795841,-0.0152588,0.0232696,1.53927,5,0.1,9,0.2,0.485803,-3.23128,0.650925,0.107987,-0.0155926,-0.0096336,0.809893,-0.116944,-0.0722408,0.00872228,0.985265,5,0.1,10,0.2,-3.18602,1.72159,0.654633,0.00339746,-0.0209004,0.0655904,0.0253916,-0.15682,0.491917,0.0127285,0.390136,5,0.1,11,0.2,1.83249,-0.0431693,0.503613,-0.186378,-0.0185731,-0.00244677,-1.39785,-0.139298,-0.018388,0.0135281,2.92582,5,0.1,12,0.2,-1.97949,4.2532,0.58362,0.172567,-0.0474691,0.00154525,1.2942,-0.355721,0.0115633,0.0569649,2.63083,5,0.1,13,0.2,-5.52284,-1.45696,0.56012,0.0540376,-0.0606537,0.00376105,0.405073,-0.454962,0.0282228,0.0116309,0.543075,5,0.1,14,0.2,-0.72489,-0.530604,0.669403,0.0400767,0.120792,-0.00654608,0.300616,0.905961,-0.0491142,0.0208411,1.33371,5,0.1,15,0.2,3.70446,-2.78538,0.621733,-0.184035,-0.00308752,0.0347719,-1.38032,-0.0230074,0.2608,0.0273782,2.92579,5,0.1,16,0.2,-3.94106,5.08899,0.673351,0.0038743,-0.12629,0.0638247,0.0289679,-0.947475,0.478685,0.0187079,1.6458,5,0.1,17,0.2,-4.87967,-2.5702,0.646083,0.187254,0.00186563,-0.00425279,1.40476,0.0139475,-0.0318587,0.0187508,2.92576,5,0.1,18,0.2,0.725127,2.12912,0.528733,-0.0542492,-0.115937,0.00672191,-0.406832,-0.869513,0.0504255,0.0217697,1.34927,5,0.1,19,0.2,-1.77661,-2.31055,0.566223,0.088346,0.165164,0.0020206,0.662565,1.2387,0.0151694,0.0111424,2.92579,5,0.1
0,0.3,0.466867,-4.93405,0.635007,-0.0171599,0.348458,-0.00189524,-0.0849105,1.72442,-0.00938028,0.0226851,2.9258,5,0.1,1,0.3,-1.23974,-0.966349,0.555437,0.220487,-0.2283,0.00792425,1.08773,-1.12628,0.0390783,0.01013,2.39194,5,0.1,2,0.3,0.292749,3.43138,0.583461,-0.0138958,-0.348613,0.00160877,-0.0687726,-1.7252,0.00795722,0.0382806,2.92579,5,0.1,3,0.3,1.82794,4.42044,0.626084,-0.00496786,-0.0125319,0.128748,-0.024505,-0.06181,0.635147,0.0388625,0.397667,5,0.1,4,0.3,-1.70816,-5.13941,0.66744,-0.0158053,0.345685,0.0446075,-0.0782162,1.71071,0.220764,0.0311257,2.92576,5,0.1,5,0.3,-1.80954,-4.43546,0.537164,-0.0249831,0.121891,0.0111753,-0.12324,0.601232,0.0551343,0.00981811,0.370457,5,0.1,6,0.3,3.25448,-0.21,0.543057,-0.346514,0.040182,0.00635395,-1.71483,0.198852,0.0314377,0.044276,2.92579,5,0.1,7,0.3,-3.42644,-4.85377,0.621024,0.039231,0.346061,-0.0024165,0.31215,1.69298,-0.0136979,0.0123337,2.93493,5,0.1,8,0.3,-2.24534,-3.50989,0.621253,-0.160891,0.197399,-0.00378052,-0.79371,0.97385,-0.01866,0.0232696,1.53927,5,0.1,9,0.3,0.501097,-3.23349,0.64956,0.200891,-0.0290077,-0.017921,0.991054,-0.143096,-0.0884049,0.00872228,0.985265,5,0.1,10,0.3,-3.18554,1.71863,0.663923,0.00631362,-0.038887,0.122019,0.0311136,-0.19186,0.601955,0.0127285,0.390136,5,0.1,11,0.3,1.80608,-0.0458012,0.503283,-0.347142,-0.0345936,-0.00407612,-1.71792,-0.171194,-0.0139661,0.0135281,2.92582,5,0.1,12,0.3,-1.95505,4.24648,0.583839,0.321028,-0.0882842,0.00287257,1.5837,-0.435442,0.014171,0.0569649,2.63083,5,0.1,13,0.3,-5.51519,-1.46555,0.560652,0.100509,-0.112841,0.00699814,0.495762,-0.556692,0.0345334,0.0116309,0.543075,5,0.1,14,0.3,-0.719214,-0.513496,0.668476,0.0745595,0.224715,-0.0121796,0.367835,1.10859,-0.0600927,0.0208411,1.33371,5,0.1,15,0.3,3.67838,-2.78582,0.62666,-0.342783,-0.00573881,0.0647657,-1.69635,-0.0283569,0.320509,0.0273782,2.92579,5,0.1,16,0.3,-3.94051,5.0711,0.682391,0.00719987,-0.234968,0.118735,0.0355095,-1.15928,0.585761,0.0187079,1.6458,5,0.1,17,0.3,-4.85313,-2.56993,0.64548,0.348803,0.00347048,-0.00791792,1.72624,0.0171661,-0.0391677,0.0187508,2.92576,5,0.1,18,0.3,0.717444,2.1127,0.529685,-0.100918,-0.21568,0.0125059,-0.497855,-1.064,0.061702,0.0217697,1.34927,5,0.1,19,0.3,-1.76409,-2.28714,0.566509,0.164548,0.307627,0.00376487,0.814296,1.52233,0.0186376,0.0111424,2.92579,5,0.1
0,0.4,0.464733,-4.89073,0.634771,-0.0253417,0.514603,-0.00279844,-0.0750721,1.52469,-0.00831485,0.0176994,2.51541,5,0.1,1,0.4,-1.21235,-0.994711,0.556421,0.325167,-0.33669,0.0116855,0.959635,-0.993639,0.0344813,0.00958073,1.89253,5,0.1,2,0.4,0.291021,3.38804,0.583661,-0.0205219,-0.514829,0.00237525,-0.0607967,-1.5254,0.00706315,0.0459229,2.51549,5,0.1,3,0.4,1.82732,4.41889,0.642078,-0.00732541,-0.0184774,0.189874,-0.0216365,-0.0545979,0.560373,0.0603678,0.314639,5,0.1,4,0.4,-1.71012,-5.09643,0.672986,-0.0233412,0.510514,0.0658765,-0.0691414,1.51229,0.195205,0.0345369,2.55977,5,0.1,5,0.4,-1.81264,-4.42032,0.538552,-0.0368446,0.179756,0.0164822,-0.108778,0.530481,0.0486076,0.0107653,0.293118,5,0.1,6,0.4,3.2114,-0.205004,0.543847,-0.51173,0.0593405,0.00938326,-1.51622,0.175826,0.0278354,0.0679793,2.51425,5,0.1,7,0.4,-3.42084,-4.81087,0.620712,0.073415,0.508487,-0.00379682,0.349402,1.48463,-0.0132322,0.0140428,2.53041,5,0.1,8,0.4,-2.26533,-3.48537,0.620783,-0.23728,0.291115,-0.00557601,-0.700235,0.859261,-0.0164807,0.0214087,1.21788,5,0.1,9,0.4,0.526053,-3.23709,0.647334,0.296269,-0.0427842,-0.0264287,0.874341,-0.126123,-0.0780225,0.00924182,0.779553,5,0.1,10,0.4,-3.18475,1.7138,0.679081,0.00931025,-0.0573516,0.179951,0.0275373,-0.169218,0.531048,0.0151745,0.30868,5,0.1,11,0.4,1.76292,-0.050102,0.502815,-0.51266,-0.0510877,-0.00520498,-1.51896,-0.151366,-0.00846386,0.0118274,2.51474,5,0.1,12,0.4,-1.91517,4.23551,0.584196,0.473443,-0.1302,0.00423491,1.39719,-0.384092,0.0125468,0.0496142,2.08155,5,0.1,13,0.4,-5.5027,-1.47957,0.561522,0.148237,-0.166416,0.010322,0.437021,-0.491083,0.0304282,0.0105774,0.429691,5,0.1,14,0.4,-0.709952,-0.48558,0.666963,0.109959,0.331404,-0.0179619,0.324517,0.978053,-0.0530183,0.0125629,1.05524,5,0.1,15,0.4,3.63577,-2.78653,0.634712,-0.506222,-0.00847578,0.0956461,-1.49977,-0.025034,0.28339,0.0221395,2.51245,5,0.1,16,0.4,-3.93962,5.04191,0.697141,0.0106215,-0.346529,0.175107,0.0312328,-1.02282,0.516802,0.0129598,1.30216,5,0.1,17,0.4,-4.80977,-2.5695,0.644496,0.515115,0.005126,-0.0116929,1.52612,0.0151396,-0.0346303,0.017282,2.40284,5,0.1,18,0.4,0.704907,2.08591,0.531238,-0.148831,-0.31808,0.0184432,-0.439227,-0.938654,0.0544488,0.0220046,1.06756,5,0.1,19,0.4,-1.74364,-2.2489,0.566978,0.243002,0.454301,0.00555962,0.720024,1.34599,0.0164807,0.0117971,2.51008,5,0.1
0,0.5,0.461813,-4.83166,0.634449,-0.0330674,0.664794,-0.00365367,-0.0754688,1.41102,-0.00834838,0.0176994,2.51541,5,0.1,1,0.5,-1.17495,-1.03344,0.557765,0.422532,-0.437504,0.0151843,0.939906,-0.973199,0.0337809,0.00958073,1.89253,5,0.1,2,0.5,0.288657,3.32895,0.583935,-0.026778,-0.665033,0.00310168,-0.0611078,-1.41059,0.00709295,0.0459229,2.51549,5,0.1,3,0.5,1.82648,4.41676,0.663919,-0.00952072,-0.0240147,0.246729,-0.0211895,-0.0534058,0.548843,0.0603678,0.314639,5,0.1,4,0.5,-1.71265,-5.03825,0.680638,-0.0258662,0.647861,0.0876951,0.0120997,1.19525,0.226986,0.0345369,2.55977,5,0.1,5,0.5,-1.81688,-4.39964,0.540448,-0.0478799,0.233582,0.0214144,-0.106521,0.519663,0.0476204,0.0107653,0.293118,5,0.1,6,0.5,3.15264,-0.198166,0.544928,-0.661809,0.0774334,0.0122472,-1.41624,0.176727,0.0279658,0.0679793,2.51425,5,0.1,7,0.5,-3.4116,-4.75277,0.620263,0.11222,0.650308,-0.00519976,0.403747,1.29759,-0.0140667,0.0140428,2.53041,5,0.1,8,0.5,-2.29262,-3.45188,0.620142,-0.308327,0.378292,-0.00724746,-0.685856,0.841513,-0.0161268,0.0214087,1.21788,5,0.1,9,0.5,0.560132,-3.24201,0.644294,0.38498,-0.0555839,-0.0343444,0.856347,-0.123605,-0.0764132,0.00924182,0.779553,5,0.1,10,0.5,-3.18368,1.7072,0.69978,0.0121042,-0.0745209,0.233831,0.0269711,-0.165738,0.520125,0.0151745,0.30868,5,0.1,11,0.5,1.70406,-0.0559892,0.502267,-0.662775,-0.0666637,-0.005625,-1.41452,-0.152144,-0.000394881,0.0118274,2.51474,5,0.1,12,0.5,-1.86071,4.22053,0.584683,0.615203,-0.169177,0.00550719,1.36846,-0.376284,0.0122748,0.0496142,2.08155,5,0.1,13,0.5,-5.48565,-1.49871,0.562709,0.192588,-0.216242,0.0134097,0.42823,-0.48098,0.0298098,0.0105774,0.429691,5,0.1,14,0.5,-0.697303,-0.44746,0.664897,0.142884,0.430637,-0.0233406,0.317831,0.957921,-0.0519231,0.0125629,1.05524,5,0.1,15,0.5,3.57759,-2.78751,0.645734,-0.656073,-0.0110552,0.124808,-1.42622,-0.0252426,0.284843,0.0221395,2.51245,5,0.1,16,0.5,-3.9384,5.00205,0.717283,0.0137936,-0.450299,0.227541,0.0306517,-1.00169,0.506155,0.0129598,1.30216,5,0.1,17,0.5,-4.75065,-2.56891,0.643149,0.665293,0.00667274,-0.0152305,1.40992,0.0150204,-0.0343397,0.017282,2.40284,5,0.1,18,0.5,0.687787,2.04932,0.53336,-0.193396,-0.413318,0.0239673,-0.430197,-0.919357,0.0533201,0.0220046,1.06756,5,0.1,19,0.5,-1.71563,-2.19655,0.567618,0.317094,0.592808,0.0072551,0.72372,1.35294,0.0165589,0.0117971,2.51008,5,0.1
0,0.6,0.458155,-4.75877,0.634045,-0.0397563,0.785553,-0.00439286,-0.0555068,0.96035,-0.00616908,0.017763,2.37148,5,0.1,1,0.6,-1.12835,-1.08169,0.55944,0.505012,-0.522906,0.0181481,0.676155,-0.700116,0.0243485,0.0122339,1.40894,5,0.1,2,0.6,0.285694,3.25603,0.584278,-0.032194,-0.78572,0.00372976,-0.0449419,-0.959396,0.00521541,0.0300281,2.33423,5,0.1,3,0.6,1.82543,4.41411,0.691129,-0.0113815,-0.0287056,0.294892,-0.0151992,-0.0383854,0.394791,0.0584204,0.234241,5,0.1,4,0.6,-1.71509,-4.96827,0.690499,-0.0221103,0.743103,0.108826,0.0577569,0.684977,0.185341,0.0410629,2.42778,5,0.1,5,0.6,-1.82216,-4.37388,0.54281,-0.0572264,0.279176,0.0255942,-0.0766516,0.374079,0.0342429,0.0159141,0.218229,5,0.1,6,0.6,3.08,-0.1896,0.546283,-0.783527,0.0930969,0.0147268,-0.972867,0.129968,0.0205636,0.0502831,2.32823,5,0.1,7,0.6,-3.39843,-4.68193,0.619677,0.150192,0.758922,-0.00647753,0.339031,0.83828,-0.0109971,0.0186666,2.58099,5,0.1,8,0.6,-2.32663,-3.41016,0.619343,-0.368512,0.452143,-0.00866205,-0.493407,0.605226,-0.0116229,0.025282,0.906676,5,0.1,9,0.6,0.602589,-3.24814,0.640506,0.46013,-0.0664294,-0.0410497,0.616014,-0.0889301,-0.0549555,0.00877926,0.580359,5,0.1,10,0.6,-3.18235,1.69898,0.725567,0.014466,-0.0890642,0.279476,0.0195503,-0.119209,0.374168,0.0136768,0.229805,5,0.1,11,0.6,1.63134,-0.0633635,0.501712,-0.784186,-0.0801487,-0.0053674,-0.968754,-0.111885,0.0050962,0.0124274,2.33023,5,0.1,12,0.6,-1.79286,4.20188,0.585291,0.735292,-0.202191,0.00658482,0.98449,-0.271082,0.00882149,0.0504308,1.56269,5,0.1,13,0.6,-5.46441,-1.52256,0.564188,0.230169,-0.258449,0.0160262,0.308275,-0.346065,0.0214577,0.00805991,0.31991,5,0.1,14,0.6,-0.681546,-0.399968,0.662323,0.170775,0.514698,-0.0278965,0.228614,0.689104,-0.0373423,0.014926,0.785599,5,0.1,15,0.6,3.50545,-2.78873,0.65954,-0.779617,-0.0132918,0.150055,-0.997066,-0.0184774,0.209451,0.0248167,2.31795,5,0.1,16,0.6,-3.93688,4.95239,0.742377,0.0164866,-0.538194,0.271958,0.0220537,-0.720501,0.364125,0.0147271,0.96941,5,0.1,17,0.6,-4.67771,-2.56817,0.641467,0.785935,0.00799894,-0.0182599,0.958443,0.0109673,-0.0249445,0.0192159,1.87516,5,0.1,18,0.6,0.666459,2.00374,0.536003,-0.231148,-0.493997,0.028646,-0.309467,-0.661373,0.0383556,0.0205768,1.02575,5,0.1,19,0.6,-1.68056,-2.13097,0.568421,0.38124,0.712723,0.00872314,0.53215,0.99504,0.0121593,0.0129711,2.23227,5,0.1
0,0.7,0.453898,-4.67649,0.633574,-0.0453276,0.84985,-0.00501107,-0.0524055,0.347704,-0.00581145,0.017763,2.37148,5,0.1,1,0.7,-1.07452,-1.13742,0.561375,0.569926,-0.590119,0.0204852,0.584997,-0.605725,0.0210553,0.0122339,1.40894,5,0.1,2,0.7,0.282247,3.17372,0.584677,-0.036704,-0.850448,0.00425288,-0.042418,-0.362441,0.00491366,0.0300281,2.33423,5,0.1,3,0.7,1.82421,4.41105,0.722558,-0.0128414,-0.0323914,0.332794,-0.0131577,-0.0332296,0.341579,0.0584204,0.234241,5,0.1,4,0.7,-1.71676,-4.89104,0.702409,-0.00926536,0.796099,0.129944,0.182517,0.355959,0.220709,0.0410629,2.42778,5,0.1,5,0.7,-1.82826,-4.34413,0.545537,-0.0645842,0.315086,0.0288824,-0.0662953,0.323623,0.0296384,0.0159141,0.218229,5,0.1,6,0.7,2.99784,-0.179632,0.54786,-0.849684,0.10614,0.0167903,-0.375494,0.12267,0.019405,0.0502831,2.32823,5,0.1,7,0.7,-3.38153,-4.60353,0.618973,0.188837,0.793834,-0.00758376,0.406042,-0.0765324,-0.010483,0.0186666,2.58099,5,0.1,8,0.7,-2.3659,-3.36197,0.618419,-0.415881,0.510248,-0.00977712,-0.426888,0.523657,-0.0100397,0.025282,0.906676,5,0.1,9,0.7,0.651629,-3.25522,0.636131,0.51927,-0.0749674,-0.0463257,0.532981,-0.0769645,-0.0475422,0.00877926,0.580359,5,0.1,10,0.7,-3.1808,1.68949,0.755354,0.0163406,-0.100509,0.315398,0.0168681,-0.103138,0.323735,0.0136768,0.229805,5,0.1,11,0.7,1.54913,-0.0719453,0.501208,-0.849913,-0.0913778,-0.0046635,-0.371613,-0.105616,0.00859797,0.0124274,2.33023,5,0.1,12,0.7,-1.71496,4.18033,0.585993,0.816646,-0.228214,0.00743167,0.620946,-0.234514,0.00762567,0.0504308,1.56269,5,0.1,13,0.7,-5.43988,-1.5501,0.565896,0.259767,-0.291672,0.0180865,0.266731,-0.299394,0.0185668,0.00805991,0.31991,5,0.1,14,0.7,-0.663345,-0.345112,0.65935,0.192723,0.580854,-0.0314814,0.197798,0.596205,-0.0323094,0.014926,0.785599,5,0.1,15,0.7,3.42355,-2.79015,0.675607,-0.848326,-0.01515,0.171077,-0.3988,-0.0175238,0.197738,0.0248167,2.31795,5,0.1,16,0.7,-3.93512,4.89503,0.771362,0.018606,-0.607364,0.306915,0.0191182,-0.623345,0.315029,0.0147271,0.96941,5,0.1,17,0.7,-4.59539,-2.56732,0.639518,0.850464,0.00905618,-0.0206657,0.361085,0.00956655,-0.0217929,0.0192159,1.87516,5,0.1,18,0.7,0.641823,1.95096,0.539056,-0.260859,-0.561234,0.032328,-0.267755,-0.638776,0.0331812,0.0205768,1.02575,5,0.1,19,0.7,-1.63974,-2.0551,0.569355,0.43466,0.800036,0.00994392,0.502549,0.717096,0.0114888,0.0129711,2.23227,5,0.1
0,0.8,0.449132,-4.59061,0.633047,-0.0496432,0.859725,-0.00548959,-0.0314564,-0.126123,-0.00348687,0.0160315,2.52669,5,0.1,1,0.8,-1.015,-1.19905,0.563514,0.615792,-0.637609,0.0221372,0.307202,-0.31805,0.0110269,0.0117367,0.994791,5,0.1,2,0.8,0.278388,3.0876,0.585125,-0.0401966,-0.866026,0.0046581,-0.0254661,0,0.00295043,0.0334737,2.27321,5,0.1,3,0.8,1.82287,4.40767,0.757312,-0.013873,-0.0349998,0.359574,-0.00691414,-0.0171661,0.17941,0.0447582,0.165388,5,0.1,4,0.8,-1.71668,-4.81032,0.716455,0.0114352,0.811398,0.150158,0.21863,-0.0600815,0.171781,0.0277136,2.43564,5,0.1,5,0.8,-1.835,-4.31122,0.548554,-0.0697821,0.340474,0.031206,-0.0348091,0.169754,0.0155568,0.00967772,0.19417,5,0.1,6,0.8,2.91174,-0.168472,0.549626,-0.866026,0.116239,0.018388,0,0.0736341,0.0116527,0.0385839,2.26127,5,0.1,7,0.8,-3.3607,-4.52561,0.618168,0.226605,0.755,-0.00846535,0.329018,-0.649452,-0.00667572,0.0123126,2.76517,5,0.1,8,0.8,-2.40933,-3.30869,0.617398,-0.449353,0.551301,-0.0105634,-0.224113,0.275016,-0.00530481,0.023803,0.640164,5,0.1,9,0.8,0.705857,-3.26305,0.631293,0.561057,-0.0810087,-0.050053,0.279874,-0.0402927,-0.0249743,0.0113607,0.409767,5,0.1,10,0.8,-3.1791,1.67899,0.788291,0.0176668,-0.108597,0.340779,0.00882149,-0.054121,0.169992,0.014349,0.162256,5,0.1,11,0.8,1.46302,-0.0815532,0.500788,-0.866026,-0.100074,-0.00371486,5.96046e-05,-0.0634044,0.0100732,0.0157354,2.26438,5,0.1,12,0.8,-1.63091,4.15649,0.586769,0.856951,-0.246596,0.00803024,0.181496,-0.123262,0.00399351,0.0527076,1.13792,5,0.1,13,0.8,-5.41275,-1.58056,0.567785,0.28069,-0.315145,0.0195414,0.139952,-0.157237,0.00977516,0.00783102,0.225878,5,0.1,14,0.8,-0.643219,-0.284452,0.656062,0.20823,0.627597,-0.0340149,0.103861,0.313088,-0.0169575,0.0214453,0.777907,5,0.1,15,0.8,3.3375,-2.79175,0.693595,-0.866026,-0.016588,0.18736,0,-0.0106096,0.118703,0.0305057,2.24487,5,0.1,16,0.8,-3.93318,4.8316,0.803414,0.0201046,-0.656235,0.331613,0.0100136,-0.32711,0.165433,0.0155645,0.684448,5,0.1,17,0.8,-4.50926,-2.56637,0.637357,0.866032,0.00981688,-0.022389,-0.000238419,0.00500679,-0.0116825,0.0227551,1.41827,5,0.1,18,0.8,0.614581,1.89198,0.542432,-0.281851,-0.61419,0.0349298,-0.140637,-0.389397,0.0174046,0.0359253,0.845244,5,0.1,19,0.8,-1.59403,-1.97218,0.5704,0.476044,0.851312,0.0108898,0.301838,0.294268,0.00688434,0.0147811,2.12742,5,0.1
0,0.9,0.444004,-4.50653,0.63248,-0.0528953,0.811777,-0.00584954,-0.0302382,-0.733972,-0.00334159,0.0160315,2.52669,5,0.1,1,0.9,-0.95196,-1.26432,0.56578,0.643629,-0.666429,0.0231363,0.220049,-0.227824,0.00789762,0.0117367,0.994791,5,0.1,2,0.9,0.274332,3.00099,0.585605,-0.0400973,-0.866026,0.00495063,0.0240896,0,0.00261143,0.0334737,2.27321,5,0.1,3,0.9,1.82145,4.40409,0.794125,-0.0145001,-0.036557,0.375831,-0.00495464,-0.0123382,0.128511,0.0447582,0.165388,5,0.1,4,0.9,-1.71421,-4.72946,0.732415,0.0397548,0.805096,0.169457,0.325888,-0.0976026,0.197615,0.0277136,2.43564,5,0.1,5,0.9,-1.8423,-4.27636,0.551748,-0.0773806,0.355858,0.032616,-0.103951,0.121623,0.0111535,0.00967772,0.19417,5,0.1,6,0.9,2.82514,-0.156466,0.551525,-0.866026,0.123833,0.0195898,0,0.0704518,0.0111461,0.0385839,2.26127,5,0.1,7,0.9,-3.33665,-4.45438,0.617286,0.251765,0.662161,-0.0091549,0.171214,-1.09804,-0.00648946,0.0123126,2.76517,5,0.1,8,0.9,-2.45534,-3.25225,0.616317,-0.469662,0.576221,-0.0110433,-0.16053,0.196964,-0.00378489,0.023803,0.640164,5,0.1,9,0.9,0.763298,-3.27134,0.626169,0.586418,-0.0846621,-0.0523157,0.200476,-0.0288934,-0.0178888,0.0113607,0.409767,5,0.1,10,0.9,-3.17729,1.66788,0.82318,0.0184648,-0.113502,0.356183,0.00628829,-0.0387728,0.121772,0.014349,0.162256,5,0.1,11,0.9,1.37642,-0.0918903,0.500467,-0.866025,-0.10662,-0.00270754,-1.49012e-05,-0.0607953,0.00986457,0.0157354,2.26438,5,0.1,12,0.9,-1.54467,4.13124,0.587591,0.86507,-0.257765,0.00839205,0.00713766,-0.0882745,0.0028573,0.0527076,1.13792,5,0.1,13,0.9,-5.38402,-1.61283,0.569785,0.293376,-0.329392,0.0204269,0.100344,-0.112623,0.00700355,0.00783102,0.225878,5,0.1,14,0.9,-0.6219,-0.220484,0.65258,0.217642,0.647878,-0.0355516,0.0743903,0.0808945,-0.0121444,0.0214453,0.777907,5,0.1,15,0.9,3.25089,-2.79346,0.712948,-0.866026,-0.0176832,0.199621,0,-0.0101924,0.113916,0.0305057,2.24487,5,0.1,16,0.9,-3.93112,4.76442,0.837364,0.0210136,-0.685879,0.346604,0.00721216,-0.234336,0.11849,0.0155645,0.684448,5,0.1,17,0.9,-4.42266,-2.56537,0.635062,0.865838,0.0102744,-0.0234547,-0.00739098,0.00366569,-0.00854209,0.0227551,1.41827,5,0.1,18,0.9,0.585725,1.8297,0.546008,-0.294595,-0.621462,0.036507,-0.100743,0.204258,0.0124685,0.0359253,0.845244,5,0.1,19,0.9,-1.54524,-1.88614,0.571525,0.496568,0.865106,0.011603,0.109613,0.0367835,0.00663847,0.0147811,2.12742,5,0.1
0,1,0.438588,-4.4294,0.631881,-0.0551246,0.728631,-0.00609607,-0.012055,-0.870466,-0.0013113,0.0190144,2.68492,5,0.1,1,1,-0.886838,-1.33175,0.568121,0.654902,-0.678095,0.0235409,-0.0141561,0.0146031,-0.000506639,0.0175975,0.676495,5,0.1,2,1,0.270501,2.91439,0.586111,-0.0359997,-0.866026,0.00513196,0.0550151,0,0.000864267,0.0399085,2.27259,5,0.1,3,1,1.81999,4.40039,0.832152,-0.0147551,-0.0371814,0.382414,0.000357628,0.000715256,-0.00825524,0.0419212,0.140618,5,0.1,4,1,-1.70858,-4.64971,0.750279,0.0727773,0.786579,0.186837,0.31811,-0.293493,0.138104,0.0288357,2.619,5,0.1,5,1,-1.85059,-4.24036,0.555049,-0.0882596,0.362086,0.0331879,-0.103772,-0.00786781,-0.000745058,0.008944,0.13701,5,0.1,6,1,2.73853,-0.143788,0.553531,-0.866026,0.129013,0.0204086,0,0.027746,0.00438094,0.0406917,2.26024,5,0.1,7,1,-3.31089,-4.39371,0.616343,0.26049,0.552547,-0.00965893,0.00286102,-1.03259,-0.00315905,0.0114887,2.63079,5,0.1,8,1,-2.50286,-3.19394,0.615199,-0.477886,0.586313,-0.0112385,0.0103712,-0.0127554,0.000268221,0.0197228,0.435336,5,0.1,9,1,0.822631,-3.27991,0.620876,0.596686,-0.0861406,-0.0532329,-0.0128746,0.00178814,0.00119209,0.00988182,0.278659,5,0.1,10,1,-3.17542,1.65639,0.859219,0.0187933,-0.115484,0.36242,-0.000596046,0.00244379,-0.00780821,0.0131734,0.186852,5,0.1,11,1,1.28982,-0.102807,0.500244,-0.866026,-0.111096,-0.00177622,5.96046e-05,-0.0240691,0.00855327,0.0138324,2.26365,5,0.1,12,1,-1.45832,4.10516,0.58844,0.859809,-0.262284,0.00853837,-0.124395,0.00524521,-0.000178814,0.0419511,0.822482,5,0.1,13,1,-5.35433,-1.64615,0.571852,0.298512,-0.33516,0.0207856,-0.00619888,0.00721216,-0.000417233,0.00887172,0.256475,5,0.1,14,1,-0.599879,-0.155751,0.648983,0.221452,0.642047,-0.0361741,-0.00476837,-0.203182,0.000804663,0.0101999,0.677959,5,0.1,15,1,3.16429,-2.79527,0.733388,-0.866026,-0.0184357,0.20801,0,-0.00405312,0.0452399,0.0178526,2.2421,5,0.1,16,1,-3.92899,4.69502,0.872433,0.0213861,-0.697863,0.352673,-0.000596046,0.014782,-0.00762939,0.0107709,0.465458,5,0.1,17,1,-4.33618,-2.56433,0.632686,0.863063,0.0104725,-0.0239149,-0.0593662,-0.000119209,5.96046e-05,0.0133248,1.71316,5,0.1,18,1,0.555918,1.76928,0.549702,-0.299756,-0.580519,0.0371441,0.0064671,0.582576,-0.00077486,0.0188679,0.701655,5,0.1,19,1,-1.49535,-1.79956,0.572713,0.498024,0.866026,0.0120938,-0.0809431,0,0.00265241,0.00928018,2.13306,5,0.1
0,1.1,0.433004,-4.36108,0.631264,-0.0565921,0.640027,-0.00625644,-0.0139978,-0.758469,-0.00152737,0.0190144,2.68492,5,0.1,1,1.1,-0.821446,-1.39946,0.570472,0.65203,-0.675126,0.0234377,-0.0672415,0.0695884,-0.00241399,0.0175975,0.676495,5,0.1,2,1.1,0.267209,2.82779,0.586629,-0.029594,-0.866026,0.00523636,0.0708364,0,0.000935048,0.0399085,2.27259,5,0.1,3,1.1,1.81851,4.39652,0.870336,-0.0146877,-0.0414722,0.380738,0.00153482,-0.0752509,-0.0392608,0.0419212,0.140618,5,0.1,4,1.1,-1.70015,-4.57306,0.769536,0.091688,0.741565,0.197022,0.0754446,-0.583798,0.0613108,0.0288357,2.619,5,0.1,5,1.1,-1.85999,-4.2042,0.558362,-0.100021,0.360498,0.0330405,-0.121303,-0.0371933,-0.00341237,0.008944,0.13701,5,0.1,6,1.1,2.65193,-0.130722,0.555597,-0.866026,0.13235,0.0209359,0,0.0314154,0.00496209,0.0406917,2.26024,5,0.1,7,1.1,-3.28525,-4.34339,0.615361,0.248668,0.459317,-0.00997782,-0.223488,-0.717074,-0.00270456,0.0114887,2.63079,5,0.1,8,1.1,-2.55058,-3.1354,0.614077,-0.475788,0.583735,-0.0111866,0.0490993,-0.0602603,0.00118092,0.0197228,0.435336,5,0.1,9,1.1,0.88221,-3.28851,0.615561,0.594071,-0.0857696,-0.0529962,-0.0612475,0.00879169,0.00549108,0.00988182,0.278659,5,0.1,10,1.1,-3.17353,1.64478,0.895661,0.0190694,-0.117281,0.368047,0.00457466,-0.0289679,0.090804,0.0131734,0.186852,5,0.1,11,1.1,1.20322,-0.114059,0.500106,-0.866025,-0.114014,-0.00101347,-1.49012e-05,-0.0276919,0.00661612,0.0138324,2.26365,5,0.1,12,1.1,-1.37277,4.07897,0.589292,0.851996,-0.261167,0.0085013,-0.0744238,0.0266731,-0.000879169,0.0419511,0.822482,5,0.1,13,1.1,-5.32474,-1.67962,0.573928,0.291011,-0.333692,0.020697,-0.140935,0.0344068,-0.00211596,0.00887172,0.256475,5,0.1,14,1.1,-0.577767,-0.0934068,0.645371,0.220482,0.597448,-0.0360135,-0.022728,-0.647197,0.00372529,0.0101999,0.677959,5,0.1,15,1.1,3.07769,-2.79714,0.754457,-0.866026,-0.0189271,0.213495,0,-0.00466406,0.0520945,0.0178526,2.2421,5,0.1,16,1.1,-3.92686,4.62534,0.907648,0.0212833,-0.694828,0.351126,-0.00226498,0.071466,-0.036221,0.0107709,0.465458,5,0.1,17,1.1,-4.24992,-2.56328,0.630296,0.863566,0.010439,-0.0238548,0.0370741,-0.000923872,0.00203028,0.0133248,1.71316,5,0.1,18,1.1,0.525988,1.71478,0.553411,-0.298443,-0.504868,0.0369834,0.030769,0.86686,-0.0037998,0.0188679,0.701655,5,0.1,19,1.1,-1.44645,-1.71296,0.573939,0.477123,0.865995,0.012419,-0.264987,-0.00122935,0.00312179,0.00928018,2.13306,5,0.1
0,1.2,0.427293,-4.3,0.630632,-0.057365,0.590301,-0.00634044,0.000819564,-0.245333,0.000119209,0.014914,2.63799,5,0.1,1,1.2,-0.756827,-1.46637,0.572795,0.637482,-0.660065,0.022915,-0.239491,0.247955,-0.00861287,0.0100026,0.449833,5,0.1,2,1.2,0.264614,2.74119,0.587156,-0.0222385,-0.866026,0.00527054,0.074476,0,-0.000417233,0.0215016,2.2723,5,0.1,3,1.2,1.81706,4.39195,0.908069,-0.0143588,-0.0502586,0.372244,0.00536442,-0.0915527,-0.139862,0.0331226,0.167215,5,0.1,4,1.2,-1.6909,-4.50215,0.78939,0.0906974,0.673819,0.198452,-0.082314,-0.75388,-0.0349283,0.0247261,2.88906,5,0.1,5,1.2,-1.87056,-4.16848,0.561637,-0.110778,0.352454,0.0323027,-0.0866652,-0.132561,-0.0121593,0.0119913,0.160821,5,0.1,6,1.2,2.56533,-0.117375,0.557709,-0.866026,0.13401,0.0211969,0,-0.00350952,-0.000536442,0.0335907,2.26014,5,0.1,7,1.2,-3.26176,-4.3,0.614354,0.218719,0.418663,-0.0101119,-0.362039,-0.115633,0.000327826,0.0100449,2.16998,5,0.1,8,1.2,-2.59773,-3.07755,0.612969,-0.465173,0.570703,-0.0109345,0.17488,-0.214338,0.00414252,0.0173615,0.28948,5,0.1,9,1.2,0.941086,-3.29701,0.610308,0.580819,-0.0838637,-0.0518113,-0.218213,0.0314713,0.0194609,0.00892087,0.185294,5,0.1,10,1.2,-3.1716,1.63292,0.932883,0.019443,-0.119653,0.375491,0.00190735,-0.0118017,0.0367761,0.0106986,0.111306,5,0.1,11,1.2,1.11661,-0.125561,0.500034,-0.866026,-0.115515,-0.000463426,0,0.00225008,0.00435114,0.0119684,2.26354,5,0.1,12,1.2,-1.28815,4.05309,0.590135,0.837708,-0.255358,0.00831187,-0.240922,0.0958443,-0.00312924,0.0356605,0.577138,5,0.1,13,1.2,-5.29655,-1.71269,0.575979,0.270975,-0.326249,0.0202358,-0.256538,0.122607,-0.00756979,0.00884823,0.222358,5,0.1,14,1.2,-0.555916,-0.0373501,0.641802,0.215563,0.519994,-0.0352085,-0.0809431,-0.869644,0.0132024,0.00761061,0.602944,5,0.1,15,1.2,2.99109,-2.79905,0.775996,-0.866026,-0.0191808,0.216331,0,0.000238419,-0.00399351,0.0177428,2.24158,5,0.1,16,1.2,-3.92475,4.55648,0.942446,0.020802,-0.679338,0.343291,-0.0077486,0.255108,-0.128984,0.0100924,0.309492,5,0.1,17,1.2,-4.16341,-2.56225,0.62793,0.866032,0.0102222,-0.023362,-0.000238419,-0.0038147,0.00840425,0.0147664,1.31944,5,0.1,18,1.2,0.49641,1.66869,0.557076,-0.291785,-0.417283,0.0361592,0.109613,0.847161,-0.0135899,0.0170372,0.620758,5,0.1,19,1.2,-1.4,-1.62637,0.575192,0.45273,0.865531,0.012596,-0.218034,-0.00977516,-0.000149012,0.00930828,2.14496,5,0.1
0,1.3,0.42155,-4.2408,0.629998,-0.0575358,0.604966,-0.00635674,-0.00127964,0.434488,-0.000122935,0.014914,2.63799,5,0.1,1,1.3,-0.69425,-1.53116,0.575044,0.613808,-0.635553,0.0220636,-0.253808,0.262789,-0.00912696,0.0100026,0.449833,5,0.1,2,1.3,0.262765,2.65458,0.587682,-0.0147481,-0.866026,0.00526253,0.0737756,0,-2.98023e-05,0.0215016,2.2723,5,0.1,3,1.3,1.81564,4.38627,0.944829,-0.0140684,-0.0646673,0.364642,0.00143796,-0.179738,-0.037808,0.0331226,0.167215,5,0.1,4,1.3,-1.68243,-4.43913,0.809044,0.0770774,0.582962,0.194292,-0.179291,-0.979424,-0.0540465,0.0247261,2.88906,5,0.1,5,1.3,-1.88222,-4.13367,0.564827,-0.123509,0.345246,0.031642,-0.151321,-0.0358224,-0.00328198,0.0119913,0.160821,5,0.1,6,1.3,2.47873,-0.103957,0.559831,-0.866026,0.134516,0.0212785,0,0.00619151,0.000990927,0.0335907,2.26014,5,0.1,7,1.3,-3.24184,-4.25742,0.613344,0.178588,0.443515,-0.0100788,-0.428915,0.517786,0.000752509,0.0100449,2.16998,5,0.1,8,1.3,-2.64339,-3.02153,0.611895,-0.447888,0.549513,-0.0105254,0.185266,-0.227168,0.00438094,0.0173615,0.28948,5,0.1,9,1.3,0.998101,-3.30524,0.605222,0.559248,-0.0807524,-0.0498876,-0.231255,0.0333786,0.0206232,0.00892087,0.185294,5,0.1,10,1.3,-3.16965,1.62088,0.970659,0.0196736,-0.121081,0.379949,0.00174344,-0.010699,0.0334084,0.0106986,0.111306,5,0.1,11,1.3,1.03001,-0.137133,0.500005,-0.866026,-0.116077,-0.00013588,3.72529e-06,-0.00693556,0.00230595,0.0119684,2.26354,5,0.1,12,1.3,-1.20545,4.02802,0.590951,0.816648,-0.24588,0.00800248,-0.214614,0.101656,-0.00331551,0.0356605,0.577138,5,0.1,13,1.3,-5.27098,-1.74472,0.577966,0.238343,-0.314129,0.0194868,-0.383794,0.129923,-0.00803918,0.00884823,0.222358,5,0.1,14,1.3,-0.534756,0.00997297,0.638345,0.207561,0.424576,-0.033903,-0.0858046,-0.985442,0.0140034,0.00761061,0.602944,5,0.1,15,1.3,2.90448,-2.80097,0.797669,-0.866026,-0.0192866,0.217407,0,-0.0012517,0.0132434,0.0177428,2.24158,5,0.1,16,1.3,-3.92271,4.48979,0.976144,0.0200361,-0.654116,0.330541,-0.00822544,0.270426,-0.136692,0.0100924,0.309492,5,0.1,17,1.3,-4.07681,-2.56124,0.625635,0.865772,0.0098478,-0.0225293,-0.0100285,-0.00400841,0.00898167,0.0147664,1.31944,5,0.1,18,1.3,0.467768,1.63096,0.560626,-0.280949,-0.340176,0.0348157,0.116169,0.679158,-0.0143982,0.0170372,0.620758,5,0.1,19,1.3,-1.35535,-1.53982,0.576454,0.443967,0.865729,0.0126706,0.00171363,0.00534952,0.000916421,0.00930828,2.14496,5,0.1
0,1.4,0.415806,-4.17771,0.629363,-0.0571206,0.658894,-0.00631064,0.0116378,0.565529,0.0013411,0.0137079,2.42178,5,0.1,1,1.4,-0.634293,-1.59324,0.577199,0.583428,-0.604096,0.0209719,-0.366837,0.379801,-0.0132024,0.00679914,0.296088,5,0.1,2,1.4,0.261648,2.56798,0.588207,-0.00775382,-0.866026,0.00521541,0.0649989,0,-0.00104308,0.0236431,2.27207,5,0.1,3,1.4,1.81424,4.37888,0.981101,-0.0139028,-0.0832558,0.360267,0.0026226,-0.179052,-0.0681877,0.0326378,0.101553,5,0.1,4,1.4,-1.67571,-4.38558,0.828133,0.0567824,0.490689,0.186698,-0.217974,-0.822306,-0.101507,0.0260457,3.00358,5,0.1,5,1.4,-1.89532,-4.09933,0.567974,-0.138155,0.341105,0.0312626,-0.129402,-0.0646114,-0.00590086,0.00920273,0.0965528,5,0.1,6,1.4,2.39212,-0.090508,0.561959,-0.866026,0.133982,0.0211954,0,-0.0220835,-0.00351667,0.0345078,2.26056,5,0.1,7,1.4,-3.22616,-4.21007,0.612343,0.13501,0.505531,-0.00989139,-0.433445,0.649691,0.00324845,0.0108297,0.41887,5,0.1,8,1.4,-2.68714,-2.96785,0.610867,-0.425714,0.522321,-0.0100017,0.267744,-0.328541,0.00628829,0.0158965,0.190547,5,0.1,9,1.4,1.05273,-3.31313,0.600349,0.531572,-0.0767648,-0.04742,-0.334322,0.048399,0.0298321,0.00743281,0.121966,5,0.1,10,1.4,-3.16768,1.60876,1.00869,0.0196218,-0.120777,0.378984,-0.00333786,0.0209808,-0.0657439,0.0118496,0.119616,5,0.1,11,1.4,0.943407,-0.148747,0.500001,-0.866026,-0.115788,1.93715e-05,0,0.0173151,0.000864267,0.0121282,2.26434,5,0.1,12,1.4,-1.12504,4.004,0.591732,0.788996,-0.233716,0.00760704,-0.361919,0.147104,-0.00482798,0.0367885,0.396071,5,0.1,13,1.4,-5.24919,-1.7754,0.579869,0.196469,-0.298581,0.0185236,-0.443459,0.187814,-0.0116229,0.00934695,0.200804,5,0.1,14,1.4,-0.514481,0.0476491,0.635034,0.19729,0.331207,-0.0322253,-0.124052,-0.8522,0.0202358,0.00927416,0.546849,5,0.1,15,1.4,2.81788,-2.8029,0.819422,-0.866026,-0.0192463,0.216891,0,0.00286102,-0.0322163,0.0157759,2.24231,5,0.1,16,1.4,-3.92075,4.4259,1.00843,0.0190556,-0.621748,0.314179,-0.0120401,0.391006,-0.19753,0.0113083,0.203707,5,0.1,17,1.4,-3.99037,-2.56028,0.623433,0.86199,0.00936985,-0.0214443,-0.0804663,-0.00584126,0.0132024,0.0146187,2.27609,5,0.1,18,1.4,0.440325,1.6,0.564027,-0.267044,-0.282311,0.0330925,0.167921,0.485241,-0.0208318,0.0151553,0.819882,5,0.1,19,1.4,-1.31086,-1.45324,0.577723,0.445923,0.865704,0.0126556,0.00697374,-0.0063777,-0.00172853,0.0112834,2.13503,5,0.1
0,1.5,0.410135,-4.10833,0.628737,-0.0563938,0.733307,-0.00622589,0.00590645,0.83673,0.000685453,0.0137079,2.42178,5,0.1,1,1.5,-0.577714,-1.65183,0.579233,0.548436,-0.567867,0.0197128,-0.34957,0.361942,-0.0125729,0.00679914,0.296088,5,0.1,2,1.5,0.261189,2.48138,0.588725,-0.0015249,-0.866026,0.00515385,0.0584144,0,-0.000473112,0.0236431,2.27207,5,0.1,3,1.5,1.81286,4.36966,1.01685,-0.0136986,-0.10095,0.354962,0.00208616,-0.16591,-0.0544526,0.0326378,0.101553,5,0.1,4,1.5,-1.67117,-4.34039,0.846332,0.0336789,0.418596,0.177495,-0.236571,-0.502646,-0.0892654,0.0260457,3.00358,5,0.1,5,1.5,-1.90978,-4.06548,0.571077,-0.150896,0.336081,0.0308042,-0.115752,-0.051558,-0.00470132,0.00920273,0.0965528,5,0.1,6,1.5,2.30552,-0.0771787,0.564067,-0.866026,0.132832,0.0210113,0,-0.00822358,-0.00131503,0.0345078,2.26056,5,0.1,7,1.5,-3.21478,-4.15654,0.61137,0.0930022,0.561874,-0.00957856,-0.401422,0.454098,0.00334904,0.0108297,0.41887,5,0.1,8,1.5,-2.72843,-2.9172,0.609897,-0.400177,0.490984,-0.0094017,0.255108,-0.313029,0.00599772,0.0158965,0.190547,5,0.1,9,1.5,1.10428,-3.32058,0.595751,0.499683,-0.0721503,-0.0445747,-0.318557,0.0460893,0.0284202,0.00743281,0.121966,5,0.1,10,1.5,-3.16573,1.59652,1.04623,0.0192344,-0.126258,0.3714,-0.00500679,-0.109158,-0.0977144,0.0118496,0.119616,5,0.1,11,1.5,0.856805,-0.160261,0.500006,-0.866026,-0.114562,6.89179e-05,3.72529e-06,0.0126567,0.000178814,0.0121282,2.26434,5,0.1,12,1.5,-1.04783,3.98134,0.59247,0.755686,-0.219684,0.00714716,-0.332322,0.14016,-0.00458956,0.0367885,0.396071,5,0.1,13,1.5,-5.23179,-1.80435,0.581666,0.151511,-0.280666,0.0174141,-0.447661,0.178948,-0.0110902,0.00934695,0.200804,5,0.1,14,1.5,-0.495349,0.0768124,0.631909,0.185457,0.256267,-0.0302944,-0.118215,-0.605022,0.019297,0.00927416,0.546849,5,0.1,15,1.5,2.73128,-2.80482,0.841021,-0.866026,-0.0191227,0.215503,0,0.000685453,-0.00772998,0.0157759,2.24231,5,0.1,16,1.5,-3.9189,4.3656,1.0389,0.0179093,-0.584451,0.295337,-0.0114292,0.372618,-0.188239,0.0113083,0.203707,5,0.1,17,1.5,-3.90425,-2.55937,0.621358,0.862586,0.00874065,-0.0200151,0.050351,-0.00683963,0.0156164,0.0146187,2.27609,5,0.1,18,1.5,0.414428,1.57418,0.567236,-0.251027,-0.234395,0.0311059,0.160014,0.463791,-0.0198446,0.0151553,0.819882,5,0.1,19,1.5,-1.26591,-1.36667,0.578984,0.455177,0.865821,0.0125905,0.140041,0.00302494,-0.000294298,0.0112834,2.13503,5,0.1
0,1.6,0.404536,-4.03095,0.628119,-0.0554271,0.811404,-0.00611693,0.015527,0.663161,0.00172853,0.0123502,2.30319,5,0.1,1,1.6,-0.524699,-1.70672,0.581138,0.510745,-0.528842,0.0183582,-0.41534,0.430107,-0.0149608,0.00735342,0.194606,5,0.1,2,1.6,0.26131,2.39478,0.589237,0.00373274,-0.866026,0.00507385,0.0459552,0,-0.0013411,0.0267643,2.28143,5,0.1,3,1.6,1.8115,4.35881,1.05199,-0.0133753,-0.11493,0.346583,0.00476837,-0.107527,-0.124514,0.0314367,0.0906451,5,0.1,4,1.6,-1.66896,-4.3,0.863611,0.0107855,0.399518,0.167711,-0.215709,0.0975132,-0.111043,0.0245476,2.82704,5,0.1,5,1.6,-1.92536,-4.03221,0.574126,-0.159681,0.328147,0.0300795,-0.0532866,-0.117779,-0.0107884,0.00811711,0.0863686,5,0.1,6,1.6,2.21892,-0.0639626,0.566158,-0.866026,0.131095,0.0207365,0,-0.0316352,-0.00503659,0.0300125,2.26124,5,0.1,7,1.6,-3.2074,-4.09856,0.610431,0.055635,0.592601,-0.00916421,-0.34225,0.146389,0.005126,0.0105537,1.41385,5,0.1,8,1.6,-2.76711,-2.86974,0.608989,-0.372672,0.457233,-0.00875443,0.30303,-0.371814,0.00712276,0.0149488,0.125243,5,0.1,9,1.6,1.15258,-3.32755,0.591442,0.465336,-0.0671923,-0.0415102,-0.37843,0.0548363,0.033766,0.00741467,0.137057,5,0.1,10,1.6,-3.16384,1.58328,1.08276,0.0185192,-0.138855,0.357503,-0.00965595,-0.126541,-0.187695,0.0125166,0.0768844,5,0.1,11,1.6,0.770202,-0.171625,0.500013,-0.866026,-0.112335,6.4075e-05,0,0.0356585,-0.000178814,0.0111862,2.26491,5,0.1,12,1.6,-0.974064,3.9601,0.593161,0.717813,-0.204575,0.00665486,-0.444293,0.166535,-0.00545382,0.0312188,0.267951,5,0.1,13,1.6,-5.21882,-1.83148,0.583349,0.108337,-0.261372,0.0162184,-0.409603,0.21261,-0.0132024,0.00662639,0.328962,5,0.1,14,1.6,-0.477422,0.1,0.62898,0.17271,0.213183,-0.0282139,-0.140473,-0.268418,0.0229478,0.00800423,0.504279,5,0.1,15,1.6,2.64468,-2.80672,0.862492,-0.866026,-0.0189304,0.213267,0,0.00417233,-0.0456572,0.0164484,2.24361,5,0.1,16,1.6,-3.91717,4.30911,1.06745,0.0166774,-0.544274,0.27504,-0.0135899,0.442505,-0.223637,0.00903582,0.133883,5,0.1,17,1.6,-3.81777,-2.55854,0.61944,0.866026,0.00798702,-0.0182852,0,-0.00846386,0.0190735,0.0137417,2.27354,5,0.1,18,1.6,0.390162,1.55297,0.570242,-0.233775,-0.191012,0.0289664,0.190124,0.398636,-0.0235736,0.0155019,0.776074,5,0.1,19,1.6,-1.21973,-1.28009,0.580239,0.467363,0.865629,0.0124753,0.0760555,-0.00780821,-0.0025034,0.0109872,2.01385,5,0.1
0,1.7,0.39905,-3.94723,0.627514,-0.0544192,0.855885,-0.00600489,0.00767969,0.243872,0.000845641,0.0123502,2.30319,5,0.1,1,1.7,-0.475603,-1.75756,0.582903,0.471808,-0.488522,0.0169561,-0.37734,0.390753,-0.0135787,0.00735342,0.194606,5,0.1,2,1.7,0.261878,2.30818,0.589742,0.00727973,-0.865787,0.00504395,0.0256766,0.00956655,0.000339001,0.0267643,2.28143,5,0.1,3,1.7,1.81019,4.34701,1.08612,-0.0129981,-0.119095,0.33673,0.00343472,0.0186563,-0.0898167,0.0314367,0.0906451,5,0.1,4,1.7,-1.66895,-4.25815,0.879887,-0.0103295,0.448871,0.158237,-0.201106,0.781536,-0.0855587,0.0245476,2.82704,5,0.1,5,1.7,-1.94135,-3.99989,0.577089,-0.157709,0.318829,0.0292264,0.0857115,-0.0849217,-0.00777096,0.00811711,0.0863686,5,0.1,6,1.7,2.13232,-0.0509665,0.568213,-0.866026,0.129094,0.0204172,0,-0.0154903,-0.00246614,0.0300125,2.26124,5,0.1,7,1.7,-3.20348,-4.03793,0.609539,0.0236321,0.624614,-0.00867834,-0.294074,0.425532,0.00487641,0.0105537,1.41385,5,0.1,8,1.7,-2.80293,-2.82579,0.608147,-0.344265,0.422378,-0.00808667,0.275299,-0.337794,0.0064671,0.0149488,0.125243,5,0.1,9,1.7,1.19754,-3.33404,0.587432,0.436306,-0.0629868,-0.0389202,-0.229448,0.0332147,0.0204667,0.00741467,0.137057,5,0.1,10,1.7,-3.16204,1.56894,1.11754,0.0175055,-0.146162,0.33783,-0.0109822,-0.0213906,-0.212885,0.0125166,0.0768844,5,0.1,11,1.7,0.6836,-0.182715,0.500018,-0.866026,-0.109676,4.05125e-05,3.72529e-06,0.0231285,-0.000279397,0.0111862,2.26491,5,0.1,12,1.7,-0.904377,3.94044,0.5938,0.676608,-0.188964,0.00614421,-0.402961,0.151277,-0.00493601,0.0312188,0.267951,5,0.1,13,1.7,-5.20998,-1.85661,0.584908,0.0693992,-0.241442,0.0149805,-0.36025,0.193134,-0.0119954,0.00662639,0.328962,5,0.1,14,1.7,-0.46082,0.120081,0.626268,0.159542,0.189306,-0.0260625,-0.127617,-0.216068,0.0208467,0.00800423,0.504279,5,0.1,15,1.7,2.55807,-2.8086,0.883668,-0.866026,-0.0186957,0.210734,0,0.00157952,-0.0170544,0.0164484,2.24361,5,0.1,16,1.7,-3.91557,4.25679,1.09389,0.0154048,-0.502787,0.254074,-0.0123084,0.402063,-0.203185,0.00903582,0.133883,5,0.1,17,1.7,-3.73117,-2.55773,0.617704,0.866026,0.00867918,-0.0164518,0,0.0188351,0.0179186,0.0137417,2.27354,5,0.1,18,1.7,0.36769,1.53589,0.573027,-0.215951,-0.151153,0.0267566,0.172725,0.368871,-0.0214092,0.0155019,0.776074,5,0.1,19,1.7,-1.1724,-1.19353,0.581478,0.48058,0.865729,0.0123302,0.153631,0.0018999,-0.00108033,0.0109872,2.01385,5,0.1
0,1.8,0.393654,-3.86093,0.626918,-0.05337,0.866026,-0.00588894,0.0154823,0,0.00169873,0.0139188,2.27071,5,0.1,1,1.8,-0.430339,-1.80442,0.58453,0.43293,-0.448263,0.0155568,-0.409722,0.424206,-0.0146925,0.00867924,0.57706,5,0.1,2,1.8,0.262705,2.22172,0.590248,0.00900254,-0.862205,0.00507087,0.00944734,0.0766516,-2.98023e-05,0.0268969,2.41868,5,0.1,3,1.8,1.80891,4.33536,1.11929,-0.0125736,-0.112283,0.325704,0.00548363,0.112057,-0.142694,0.0334958,0.144813,5,0.1,4,1.8,-1.67093,-4.20896,0.895278,-0.0285059,0.536823,0.149381,-0.158548,0.8955,-0.0966191,0.0256958,2.52114,5,0.1,5,1.8,-1.95651,-3.96849,0.579967,-0.143889,0.3084,0.028272,0.184178,-0.134945,-0.012368,0.00685178,0.143503,5,0.1,6,1.8,2.04571,-0.0381555,0.570239,-0.866026,0.126786,0.020051,5.96046e-05,-0.0356668,-0.00566244,0.0302486,2.00315,5,0.1,7,1.8,-3.20248,-3.97334,0.608697,-0.002563,0.665849,-0.00814348,-0.227571,0.349045,0.00604987,0.0115139,1.50247,5,0.1,8,1.8,-2.83596,-2.78526,0.607371,-0.315905,0.387573,-0.00741929,0.299096,-0.366807,0.00700355,0.0150735,0.145224,5,0.1,9,1.8,1.24008,-3.34018,0.583636,0.414723,-0.0598669,-0.0369951,-0.222027,0.0321865,0.0198185,0.00715119,0.0790502,5,0.1,10,1.8,-3.16035,1.55438,1.15017,0.0162601,-0.143543,0.313777,-0.0140667,0.0714064,-0.272453,0.0132813,0.0865761,5,0.1,11,1.8,0.596997,-0.19355,0.500021,-0.866026,-0.106754,1.19209e-05,0,0.0392571,-0.000298023,0.011748,2.26555,5,0.1,12,1.8,-0.838817,3.92231,0.59439,0.633325,-0.173384,0.00563562,-0.478536,0.16427,-0.00533462,0.0321877,0.17993,5,0.1,13,1.8,-5.2047,-1.87977,0.586345,0.0376821,-0.221542,0.0137448,-0.268698,0.20963,-0.0130236,0.00776225,0.312353,5,0.1,14,1.8,-0.445514,0.137971,0.623768,0.146393,0.168771,-0.0239149,-0.138566,-0.199676,0.0226498,0.0107617,0.729697,5,0.1,15,1.8,2.47147,-2.81046,0.904623,-0.866026,-0.0184357,0.207798,0,0.00464916,-0.0501871,0.015302,2.2451,5,0.1,16,1.8,-3.91409,4.20855,1.11826,0.0141323,-0.461364,0.233138,-0.0132322,0.436783,-0.220597,0.0108612,0.151573,5,0.1,17,1.8,-3.64457,-2.55674,0.616149,0.866026,0.0111341,-0.0146478,0,0.0276566,0.0183582,0.0139469,2.45836,5,0.1,18,1.8,0.346972,1.52239,0.575594,-0.198156,-0.121453,0.0245512,0.187561,0.21255,-0.0232458,0.0142161,1.27557,5,0.1,19,1.8,-1.12368,-1.10698,0.582704,0.492153,0.864816,0.012143,0.0531673,-0.0242591,-0.00312924,0.0107552,1.52502,5,0.1
0,1.9,0.388372,-3.77433,0.626391,-0.052417,0.866026,-0.00421619,0.00665523,0,0.0286065,0.0139188,2.27071,5,0.1,1,1.9,-0.388745,-1.84764,0.586043,0.401738,-0.420334,0.0149568,-0.240922,0.171833,0.00057742,0.00867924,0.57706,5,0.1,2,1.9,0.263645,2.1362,0.590761,0.00969982,-0.844767,0.0052399,0.00436231,0.284314,0.00282004,0.0268969,2.41868,5,0.1,3,1.9,1.80768,4.32483,1.15108,-0.0119416,-0.0971615,0.309279,0.00733882,0.182688,-0.190236,0.0334958,0.144813,5,0.1,4,1.9,-1.67455,-4.15017,0.909799,-0.0435024,0.642993,0.141535,-0.136971,1.1394,-0.0675432,0.0256958,2.52114,5,0.1,5,1.9,-1.96984,-3.93839,0.582727,-0.121573,0.292863,0.0268481,0.253439,-0.179991,-0.0164993,0.00685178,0.143503,5,0.1,6,1.9,1.95911,-0.0256194,0.572222,-0.866025,0.124133,0.0196297,-1.49012e-05,-0.0236404,-0.00374764,0.0302486,2.00315,5,0.1,7,1.9,-3.20354,-3.90476,0.607911,-0.0156086,0.70693,-0.00757761,-0.0469536,0.419483,0.00550598,0.0115139,1.50247,5,0.1,8,1.9,-2.86613,-2.74811,0.606658,-0.287929,0.357345,-0.00689393,0.268593,-0.256851,0.00398234,0.0150735,0.145224,5,0.1,9,1.9,1.28057,-3.34603,0.580025,0.395815,-0.0571296,-0.0353075,-0.173971,0.0251532,0.0155233,0.00715119,0.0790502,5,0.1,10,1.9,-3.15879,1.54055,1.18024,0.0149205,-0.131539,0.287855,-0.013113,0.162534,-0.253856,0.0132813,0.0865761,5,0.1,11,1.9,0.510395,-0.20407,0.500021,-0.866026,-0.103913,-1.29454e-05,3.57628e-06,0.0232067,-0.00019744,0.011748,2.26555,5,0.1,12,1.9,-0.777741,3.90575,0.594928,0.58904,-0.158167,0.00514146,-0.426404,0.144795,-0.00470132,0.0321877,0.17993,5,0.1,13,1.9,-5.20217,-1.90094,0.587658,0.0143483,-0.20212,0.0125381,-0.18388,0.184834,-0.0114851,0.00776225,0.312353,5,0.1,14,1.9,-0.43153,0.153745,0.621483,0.133556,0.145838,-0.0218166,-0.122165,-0.252102,0.0199676,0.0107617,0.729697,5,0.1,15,1.9,2.38487,-2.81229,0.925232,-0.866026,-0.0181627,0.204886,0,0.00186265,-0.0198968,0.015302,2.2451,5,0.1,16,1.9,-3.91273,4.16426,1.14064,0.0130951,-0.427046,0.215806,-0.00834465,0.275999,-0.139378,0.0108612,0.151573,5,0.1,17,1.9,-3.55847,-2.55511,0.614776,0.850916,0.0247587,-0.0127878,-0.305191,0.21933,0.0188127,0.0139469,2.45836,5,0.1,18,1.9,0.328044,1.51118,0.577939,-0.18078,-0.10611,0.0223978,0.165362,0.0181645,-0.0204928,0.0142161,1.27557,5,0.1,19,1.9,-1.0741,-1.02051,0.583905,0.499664,0.865033,0.0118899,0.0696927,0.00267476,-0.00247732,0.0107552,1.52502,5,0.1
0,2,0.38317,-3.68772,0.626135,-0.0515126,0.866026,-0.000728667,0.0136346,0,0.0386834,0.0136662,2.27038,5,0.1,1,2,-0.349678,-1.88898,0.587552,0.38008,-0.407341,0.0153005,-0.212088,0.11611,0.00464916,0.0076757,0.456603,5,0.1,2,2,0.264627,2.05357,0.5913,0.00985712,-0.80353,0.00552982,-0.0012368,0.546038,0.0025928,0.0236402,2.63315,5,0.1,3,2,1.80653,4.31609,1.18095,-0.0110835,-0.0771284,0.286984,0.0100136,0.211716,-0.257969,0.0335103,0.198116,5,0.1,4,2,-1.67952,-4.08037,0.923615,-0.0551671,0.749409,0.134632,-0.0933409,0.925064,-0.0756383,0.0238074,2.32509,5,0.1,5,2,-1.98068,-3.9101,0.58532,-0.0947654,0.271761,0.0249133,0.275671,-0.244141,-0.0223517,0.00691603,0.197656,5,0.1,6,2,1.87251,-0.0133463,0.574162,-0.866026,0.120999,0.0191331,5.96046e-05,-0.0434028,-0.00685453,0.029402,1.57104,5,0.1,7,2,-3.20513,-3.83221,0.607182,-0.0144362,0.740677,-0.00700206,0.0591278,0.218153,0.00613928,0.0108316,2.58703,5,0.1,8,2,-2.89357,-2.7136,0.605987,-0.260818,0.33291,-0.00653863,0.279427,-0.24581,0.00345707,0.0158349,0.134677,5,0.1,9,2,1.31924,-3.35161,0.576575,0.376892,-0.0543952,-0.03362,-0.216901,0.0312328,0.0193715,0.0079297,0.0604224,5,0.1,10,2,-3.15736,1.52831,1.20773,0.013566,-0.1122,0.261703,-0.0143051,0.21863,-0.27442,0.0121058,0.185821,5,0.1,11,2,0.423792,-0.214334,0.500018,-0.866025,-0.101146,-2.98023e-05,-1.43051e-05,0.0361428,-8.9407e-05,0.0121478,2.26614,5,0.1,12,2,-0.721011,3.89066,0.595419,0.544797,-0.143629,0.00467002,-0.471711,0.149369,-0.00482798,0.0299028,0.161716,5,0.1,13,2,-5.20143,-1.92022,0.588855,0.00271797,-0.183558,0.0113845,-0.0441074,0.190675,-0.0118017,0.00682713,0.458099,5,0.1,14,2,-0.418784,0.167029,0.619401,0.121287,0.11958,-0.0198111,-0.125974,-0.26764,0.0205636,0.00832248,0.995253,5,0.1,15,2,2.29827,-2.81409,0.945592,-0.866026,-0.0178814,0.201796,0,0.00452995,-0.0503361,0.0166576,2.2466,5,0.1,16,2,-3.91146,4.12285,1.16157,0.0123262,-0.40158,0.202945,-0.00762939,0.252724,-0.127673,0.00954613,0.0873754,5,0.1,17,2,-3.47542,-2.55139,0.613592,0.804842,0.0504851,-0.0108913,-0.614762,0.275373,0.0190437,0.0135019,2.92878,5,0.1,18,2,0.310792,1.5,0.580076,-0.164173,-0.123861,0.0203401,0.170499,-0.357389,-0.0211298,0.0129513,2.1757,5,0.1,19,2,-1.02394,-0.934121,0.585079,0.501457,0.861041,0.0115559,-0.0528395,-0.0997186,-0.00461936,0.00917295,1.11899,5,0.1
0,2.1,0.378064,-3.60112,0.626218,-0.0507522,0.866026,0.00205841,0.00465102,0,0.0182465,0.0136662,2.27038,5,0.1,1,2.1,-0.312532,-1.92897,0.589119,0.364281,-0.390667,0.0161408,-0.125127,0.219576,0.0105239,0.0076757,0.456603,5,0.1,2,2.1,0.265699,1.97606,0.59187,0.0123437,-0.745389,0.00589387,0.044791,0.62526,0.0041388,0.0236402,2.63315,5,0.1,3,2.1,1.80547,4.30944,1.20838,-0.0101006,-0.0559092,0.261644,0.00984222,0.207961,-0.25399,0.0335103,0.198116,5,0.1,4,2.1,-1.68549,-4.00137,0.936766,-0.063898,0.824167,0.128859,-0.0772774,0.55255,-0.047043,0.0238074,2.32509,5,0.1,5,2.1,-1.98879,-3.88413,0.587701,-0.0676312,0.247777,0.022717,0.261709,-0.240445,-0.0220165,0.00691603,0.197656,5,0.1,6,2.1,1.78591,-0.00143937,0.576045,-0.865931,0.11725,0.0185413,0.00374019,-0.0365945,-0.0057742,0.029402,1.57104,5,0.1,7,2.1,-3.20637,-3.7568,0.606511,-0.0108339,0.768537,-0.00643311,0.0265837,0.287339,0.00544265,0.0108316,2.58703,5,0.1,8,2.1,-2.91798,-2.68153,0.605348,-0.22483,0.30858,-0.00626361,0.42446,-0.247493,0.00236556,0.0158349,0.134677,5,0.1,9,2.1,1.35599,-3.35691,0.573297,0.35913,-0.0518408,-0.032034,-0.156909,0.0225455,0.0140071,0.0079297,0.0604224,5,0.1,10,2.1,-3.15608,1.51825,1.23253,0.0121228,-0.0884401,0.233986,-0.0146627,0.249334,-0.28155,0.0121058,0.185821,5,0.1,11,2.1,0.33719,-0.22431,0.500015,-0.866025,-0.0986582,-3.52971e-05,1.78814e-06,0.0192188,-2.6077e-05,0.0121478,2.26614,5,0.1,12,2.1,-0.668752,3.87684,0.595863,0.501348,-0.134363,0.00422681,-0.413343,0.0498146,-0.0041686,0.0299028,0.161716,5,0.1,13,2.1,-5.20124,-1.93768,0.589937,0.00356138,-0.166053,0.0103004,0.0988841,0.164509,-0.0101924,0.00682713,0.458099,5,0.1,14,2.1,-0.407248,0.177537,0.617517,0.109721,0.0899399,-0.017923,-0.1087,-0.306551,0.017751,0.00832248,0.995253,5,0.1,15,2.1,2.21166,-2.81587,0.965599,-0.866026,-0.0176173,0.198861,0,0.00180304,-0.0199303,0.0166576,2.2466,5,0.1,16,2.1,-3.91026,4.08381,1.1813,0.0116773,-0.380098,0.192092,-0.00587106,0.194281,-0.0981688,0.00954613,0.0873754,5,0.1,17,2.1,-3.3988,-2.54516,0.612607,0.720645,0.0721548,-0.00873571,-1.03284,0.160053,0.0233538,0.0135019,2.92878,5,0.1,18,2.1,0.295177,1.48519,0.582011,-0.148519,-0.177666,0.0184002,0.147119,-0.677355,-0.0182353,0.0129513,2.1757,5,0.1,19,2.1,-0.974001,-0.848265,0.586213,0.49729,0.85736,0.0111405,-0.0524558,-0.0210218,-0.00412762,0.00917295,1.11899,5,0.1
0,2.2,0.373018,-3.51452,0.62649,-0.050056,0.866026,0.00313967,0.0114739,0,0.00438094,0.014195,2.27038,5,0.1,1,2.2,-0.276728,-1.96675,0.590785,0.351401,-0.363189,0.0171244,-0.14776,0.33015,0.00792742,0.00710965,0.406485,5,0.1,2,2.2,0.267191,1.90483,0.592479,0.017722,-0.67721,0.00626296,0.0579804,0.742614,0.00283122,0.0233971,2.78782,5,0.1,3,2.2,1.80451,4.30485,1.23324,-0.00908375,-0.036335,0.235349,0.0106692,0.180244,-0.275075,0.0351349,0.191646,5,0.1,4,2.2,-1.69221,-3.91689,0.949415,-0.069958,0.85876,0.123982,-0.041306,0.145316,-0.0557303,0.0226496,2.26202,5,0.1,5,2.2,-1.9943,-3.86058,0.58986,-0.0433058,0.222886,0.0204355,0.221372,-0.260472,-0.0238419,0.00826747,0.320465,5,0.1,6,2.2,1.69936,0.0100803,0.577867,-0.864524,0.11283,0.0178427,0.0299811,-0.0552638,-0.00870228,0.0291313,1.19713,5,0.1,7,2.2,-3.20728,-3.67875,0.605895,-0.0069797,0.78932,-0.00588149,0.0580549,0.0919104,0.00578165,0.00940465,2.24892,5,0.1,8,2.2,-2.93821,-2.65195,0.604734,-0.178802,0.282317,-0.00600964,0.483274,-0.282049,0.00292063,0.0144136,0.432543,5,0.1,9,2.2,1.3911,-3.36198,0.570166,0.342357,-0.0494301,-0.0305384,-0.19145,0.0275373,0.0171065,0.00886835,0.0270548,5,0.1,10,2.2,-3.15494,1.51066,1.25449,0.0106275,-0.0636041,0.205162,-0.0154972,0.241995,-0.295699,0.0103316,0.40431,5,0.1,11,2.2,0.250587,-0.23407,0.500012,-0.866025,-0.096342,-3.57628e-05,0,0.0311136,5.96046e-05,0.0134106,2.26663,5,0.1,12,2.2,-0.620695,3.86358,0.596265,0.459409,-0.131232,0.0038147,-0.436604,0.0231266,-0.00417233,0.0285285,0.118165,5,0.1,13,2.2,-5.2,-1.95347,0.590917,0.0250816,-0.149792,0.00929385,0.319958,0.16427,-0.0102222,0.00889275,0.844715,5,0.1,14,2.2,-0.396813,0.185055,0.615812,0.0989772,0.0613052,-0.0161693,-0.108555,-0.254378,0.0177622,0.00760891,1.63008,5,0.1,15,2.2,2.12506,-2.81762,0.985358,-0.866026,-0.0173509,0.195834,0,0.00429153,-0.0488162,0.017811,2.24806,5,0.1,16,2.2,-3.90912,4.0468,1.20001,0.0110567,-0.35975,0.181812,-0.00679493,0.225067,-0.113726,0.0099672,0.217971,5,0.1,17,2.2,-3.33234,-2.53732,0.611853,0.604945,0.0829399,-0.0063464,-1.25062,0.0581741,0.0238419,0.0115142,3.35696,5,0.1,18,2.2,0.281052,1.4638,0.583761,-0.133977,-0.251457,0.0165984,0.146896,-0.761032,-0.0181794,0.0138264,2.29295,5,0.1,19,2.2,-0.924681,-0.76282,0.587305,0.487274,0.848819,0.0106543,-0.16281,-0.182807,-0.00587106,0.0098614,0.793081,5,0.1
0,2.3,0.368048,-3.42792,0.626808,-0.0494966,0.866026,0.00305418,0.00276603,0,-0.00520051,0.014195,2.27038,5,0.1,1,2.3,-0.242209,-2.00111,0.592542,0.33972,-0.321214,0.0180483,-0.102813,0.494123,0.00927597,0.00710965,0.406485,5,0.1,2,2.3,0.269366,1.84039,0.593119,0.0266471,-0.615087,0.00654049,0.110958,0.531487,0.00237674,0.0233971,2.78782,5,0.1,3,2.3,1.80365,4.30205,1.25542,-0.00803322,-0.0203215,0.208227,0.0104308,0.138015,-0.26948,0.0351349,0.191646,5,0.1,4,2.3,-1.69941,-3.83057,0.961597,-0.0739379,0.865572,0.120095,-0.0343397,0.0181645,-0.0291951,0.0226496,2.26202,5,0.1,5,2.3,-1.99754,-3.8396,0.591784,-0.022055,0.19667,0.0180349,0.194274,-0.264481,-0.0242293,0.00826747,0.320465,5,0.1,6,2.3,1.61292,0.0211073,0.579611,-0.864864,0.107806,0.0170512,-0.00606477,-0.0493256,-0.00777841,0.0291313,1.19713,5,0.1,7,2.3,-3.2078,-3.59925,0.605334,-0.00348464,0.800637,-0.00535017,0.0490248,0.0934154,0.00501052,0.00940465,2.24892,5,0.1,8,2.3,-2.95361,-2.62493,0.604458,-0.128949,0.259808,0.00311015,0.501916,-0.183508,0.16002,0.0144136,0.432543,5,0.1,9,2.3,1.4244,-3.36679,0.567195,0.323582,-0.04673,-0.0288618,-0.193737,0.0278652,0.0172891,0.00886835,0.0270548,5,0.1,10,2.3,-3.15396,1.50554,1.27356,0.00912398,-0.0386972,0.176412,-0.0146329,0.242412,-0.280276,0.0103316,0.40431,5,0.1,11,2.3,0.163984,-0.24359,0.500008,-0.866025,-0.094329,-2.97092e-05,-1.19209e-06,0.0146525,6.33299e-05,0.0134106,2.26663,5,0.1,12,2.3,-0.576804,3.85069,0.596627,0.4194,-0.125659,0.00343435,-0.377014,0.0858903,-0.00354648,0.0285285,0.118165,5,0.1,13,2.3,-5.19557,-1.96769,0.591799,0.0658512,-0.134821,0.00836216,0.465035,0.13943,-0.00867248,0.00889275,0.844715,5,0.1,14,2.3,-0.387424,0.189843,0.614279,0.0890834,0.0349379,-0.0145508,-0.0921395,-0.228096,0.0150725,0.00760891,1.63008,5,0.1,15,2.3,2.03846,-2.81934,1.00478,-0.866026,-0.0171036,0.192994,0,0.00163913,-0.0192076,0.017811,2.24806,5,0.1,16,2.3,-3.90805,4.01227,1.21759,0.0103194,-0.327966,0.169541,-0.00806153,0.39795,-0.133708,0.0099672,0.217971,5,0.1,17,2.3,-3.27823,-2.52892,0.611342,0.47635,0.0833742,-0.00385093,-1.29727,-0.0431836,0.0253059,0.0115142,3.35696,5,0.1,18,2.3,0.268499,1.43526,0.585335,-0.116143,-0.317706,0.0149414,0.203717,-0.654027,-0.0154376,0.0138264,2.29295,5,0.1,19,2.3,-0.876714,-0.678703,0.588342,0.472137,0.83406,0.0101132,-0.157807,-0.150148,-0.00531226,0.0098614,0.793081,5,0.1
0,2.4,0.363118,-3.34131,0.627077,-0.0489801,0.866026,0.00225902,0.00971556,0,-0.00995398,0.01446,2.27034,5,0.1,1,2.4,-0.208791,-2.0306,0.594387,0.327948,-0.267154,0.018765,-0.144585,0.57435,0.00411272,0.00891637,0.370346,5,0.1,2,2.4,0.272608,1.7814,0.593782,0.0382334,-0.565425,0.00668019,0.113547,0.485063,0.000208616,0.0233703,2.96949,5,0.1,3,2.4,1.8029,4.30063,1.27489,-0.00698566,-0.00897646,0.18113,0.0106096,0.0889301,-0.273585,0.0348625,0.301287,5,0.1,4,2.4,-1.70694,-3.74397,0.973456,-0.0761628,0.866026,0.116909,-0.00751019,0,-0.0396967,0.0225243,2.25972,5,0.1,5,2.4,-1.99888,-3.82126,0.593466,-0.00590086,0.169909,0.0155836,0.123739,-0.270724,-0.0248253,0.00958412,0.29342,5,0.1,6,2.4,1.52654,0.0316238,0.581274,-0.86095,0.102274,0.0161782,0.101566,-0.0641085,-0.0101328,0.0285029,0.923147,5,0.1,7,2.4,-3.2077,-3.51899,0.604824,0.00801682,0.80108,-0.00485182,0.195861,-0.112772,0.0050962,0.0116749,1.91079,5,0.1,8,2.4,-2.96404,-2.59981,0.605696,-0.0804842,0.242937,0.022535,0.458479,-0.165224,0.213295,0.00589479,0.477572,5,0.1,9,2.4,1.45572,-3.37131,0.564402,0.302017,-0.0436246,-0.0269383,-0.243843,0.0351667,0.0217557,0.00856618,0.0103113,5,0.1,10,2.4,-3.15311,1.5028,1.28982,0.00769496,-0.0173211,0.148961,-0.0139475,0.176847,-0.269234,0.0111489,0.545457,5,0.1,11,2.4,0.0773819,-0.25294,0.500006,-0.866026,-0.0924684,-2.38419e-05,5.96046e-06,0.0264794,8.9407e-05,0.012529,2.42419,5,0.1,12,2.4,-0.53674,3.83864,0.596953,0.381723,-0.114542,0.00308752,-0.38588,0.13411,-0.00345707,0.0302068,0.169738,5,0.1,13,2.4,-5.18663,-1.98048,0.592592,0.112748,-0.121179,0.00751466,0.450373,0.136435,-0.00849366,0.00801484,1.41523,5,0.1,14,2.4,-0.378968,0.19251,0.612898,0.0800684,0.0220563,-0.0130773,-0.0901669,-0.0107065,0.0147521,0.00834991,1.51568,5,0.1,15,2.4,1.95186,-2.82104,1.02395,-0.866026,-0.0168502,0.19007,0,0.00405312,-0.0472069,0.0165708,2.24946,5,0.1,16,2.4,-3.90707,3.98166,1.23383,0.00942945,-0.282526,0.154769,-0.0100136,0.499845,-0.16284,0.010763,0.368345,5,0.1,17,2.4,-3.237,-2.52093,0.61108,0.349724,0.0754833,-0.00141859,-1.21725,-0.109196,0.022769,0.0139553,3.33349,5,0.1,18,2.4,0.257955,1.4,0.586754,-0.0943385,-0.389704,0.0134304,0.227377,-0.770271,-0.01508,0.0110652,1.90608,5,0.1,19,2.4,-0.8304,-0.596246,0.589326,0.452717,0.812411,0.00953078,-0.24271,-0.308871,-0.00658631,0.0105996,0.548245,5,0.1
0,2.5,0.358242,-3.25471,0.627246,-0.0487264,0.866026,0.00104941,-0.00129268,0,-0.0135377,0.01446,2.27034,5,0.1,1,2.5,-0.17664,-2.05439,0.596286,0.315507,-0.208547,0.0192123,-0.117901,0.58724,0.00382215,0.00891637,0.370346,5,0.1,2,2.5,0.276887,1.72778,0.594447,0.0462932,-0.504003,0.00658762,0.0496954,0.672095,-0.00209361,0.0233703,2.96949,5,0.1,3,2.5,1.80225,4.30017,1.29165,-0.00593942,-0.000563264,0.154115,0.0103042,0.0734925,-0.266306,0.0348625,0.301287,5,0.1,4,2.5,-1.7146,-3.65737,0.985006,-0.0771664,0.866026,0.114479,-0.00855327,0,-0.0159703,0.0225243,2.25972,5,0.1,5,2.5,-1.99894,-3.8056,0.594902,0.00371989,0.143485,0.0131605,0.0571385,-0.257656,-0.0236258,0.00958412,0.29342,5,0.1,6,2.5,1.44071,0.041707,0.582845,-0.856904,0.100814,0.0152446,0.0260323,0.0216458,-0.00906736,0.0285029,0.923147,5,0.1,7,2.5,-3.20577,-3.43938,0.604362,0.0336409,0.791085,-0.00438681,0.375301,-0.120193,0.00434741,0.0116749,1.91079,5,0.1,8,2.5,-2.96912,-2.57692,0.608787,-0.0156786,0.209804,0.0371692,0.783727,-0.465244,0.0864752,0.00589479,0.477572,5,0.1,9,2.5,1.48469,-3.3755,0.561818,0.277224,-0.0400487,-0.0247268,-0.256315,0.0369698,0.0228584,0.00856618,0.0103113,5,0.1,10,2.5,-3.15241,1.5019,1.30341,0.00636242,-0.00180565,0.123223,-0.0127107,0.113115,-0.245765,0.0111489,0.545457,5,0.1,11,2.5,-0.00875904,-0.262245,0.500004,-0.85203,-0.0951369,-1.61119e-05,0.28538,-0.064984,7.07805e-05,0.012529,2.42419,5,0.1,12,2.5,-0.500187,3.82793,0.597247,0.351838,-0.0987623,0.00281595,-0.23503,0.176862,-0.00216067,0.0302068,0.169738,5,0.1,13,2.5,-5.17359,-1.99196,0.593304,0.143781,-0.108818,0.00674538,0.191629,0.114344,-0.00710785,0.00801484,1.41523,5,0.1,14,2.5,-0.371382,0.194948,0.611659,0.0718995,0.0312371,-0.0117413,-0.0755731,0.252932,0.0123568,0.00834991,1.51568,5,0.1,15,2.5,1.86525,-2.82271,1.0428,-0.866026,-0.016617,0.187309,0,0.00157952,-0.0188723,0.0165708,2.24946,5,0.1,16,2.5,-3.90617,3.95601,1.24851,0.00844859,-0.229499,0.138797,-0.00973046,0.54951,-0.158578,0.010763,0.368345,5,0.1,17,2.5,-3.20781,-2.51399,0.610967,0.237327,0.0626072,-0.00157971,-1.02201,-0.143796,-0.0211373,0.0139553,3.33349,5,0.1,18,2.5,0.249675,1.35654,0.588027,-0.0711972,-0.483886,0.0120637,0.231209,-1.03398,-0.0126474,0.0110652,1.90608,5,0.1,19,2.5,-0.786278,-0.516428,0.590248,0.42999,0.784375,0.00892179,-0.226542,-0.282537,-0.00589713,0.0105996,0.548245,5,0.1
0,2.6,0.353367,-3.16811,0.627282,-0.048662,0.866026,-0.000324845,0.00496209,0,-0.013411,0.0122628,2.27032,5,0.1,1,2.6,-0.145726,-2.07236,0.598219,0.302051,-0.151557,0.0193611,-0.160724,0.544548,-0.00151992,0.00757416,0.344751,5,0.1,2,2.6,0.281674,1.68061,0.595092,0.04858,-0.441661,0.006257,-0.00198185,0.539243,-0.00450015,0.0227497,2.97579,5,0.1,3,2.6,1.80171,4.30042,1.30574,-0.0049293,0.0048399,0.127962,0.00989437,0.0317097,-0.2563,0.0343176,0.965585,5,0.1,4,2.6,-1.72234,-3.57077,0.996366,-0.077194,0.866026,0.112499,0.0107884,0,-0.0287592,0.0251331,2.26021,5,0.1,5,2.6,-1.99845,-3.79252,0.596102,0.00409186,0.118417,0.0108615,-0.0525117,-0.243425,-0.0223219,0.00683411,1.20661,5,0.1,6,2.6,1.35534,0.0519486,0.584322,-0.847811,0.104279,0.0142738,0.188529,0.0376515,-0.010699,0.0288633,0.660992,5,0.1,7,2.6,-3.2,-3.3611,0.603945,0.0868022,0.771505,-0.00395924,0.666738,-0.29397,0.00429153,0.0105035,1.55255,5,0.1,8,2.6,-2.9666,-2.55854,0.612776,0.0667512,0.155675,0.0411466,0.823855,-0.591755,-0.00089407,0.00674801,0.308358,5,0.1,9,2.6,1.51108,-3.37931,0.559463,0.250074,-0.0361323,-0.0223055,-0.289023,0.041604,0.0257492,0.00981566,0.00528925,5,0.1,10,2.6,-3.15184,1.50206,1.31454,0.00514984,0.00257492,0.0997692,-0.0115633,-0.0323653,-0.223458,0.00970674,1.6622,5,0.1,11,2.6,-0.0920316,-0.272134,0.500002,-0.808363,-0.102858,-1.19209e-05,0.588347,-0.0782311,8.9407e-05,0.0136841,2.54485,5,0.1,12,2.6,-0.466085,3.81898,0.597519,0.330678,-0.0800133,0.0026226,-0.205353,0.194192,-0.00184774,0.0272745,0.132459,5,0.1,13,2.6,-5.15854,-2.00229,0.593944,0.154746,-0.097698,0.00605434,0.0424385,0.110745,-0.00688434,0.00892097,3.4786,5,0.1,14,2.6,-0.364561,0.2,0.610545,0.0645503,0.0760432,-0.0105396,-0.0730902,0.618584,0.0119507,0.00786975,1.30959,5,0.1,15,2.6,1.77865,-2.82436,1.06141,-0.866026,-0.0163734,0.184438,5.96046e-05,0.00405312,-0.0461936,0.0176805,2.11339,5,0.1,16,2.6,-3.90538,3.93582,1.26159,0.0074625,-0.17463,0.122735,-0.00989437,0.539184,-0.163972,0.0112247,0.366517,5,0.1,17,2.6,-3.18881,-2.50848,0.610664,0.146586,0.0475407,-0.00478178,-0.788689,-0.153899,-0.0391901,0.0113986,3.15874,5,0.1,18,2.6,0.243689,1.30308,0.589171,-0.0488423,-0.582728,0.0108317,0.212692,-0.884533,-0.012219,0.01369,1.86624,5,0.1,19,2.6,-0.744483,-0.439564,0.59111,0.404938,0.750741,0.00830144,-0.284493,-0.411079,-0.00670552,0.0103097,0.536815,5,0.1
0,2.7,0.348503,-3.08151,0.62718,-0.0487682,0.866026,-0.00171019,-0.00385381,0,-0.01375,0.0122628,2.27032,5,0.1,1,2.7,-0.116261,-2.08488,0.600149,0.287583,-0.100001,0.0192269,-0.139779,0.477061,-0.00197068,0.00757416,0.344751,5,0.1,2,2.7,0.286427,1.63887,0.595694,0.0456327,-0.397324,0.00578128,-0.0528265,0.29479,-0.0050813,0.0227497,2.97579,5,0.1,3,2.7,1.80127,4.30117,1.3173,-0.00399221,0.0105001,0.103667,0.00885874,0.045985,-0.229701,0.0343176,0.965585,5,0.1,4,2.7,-1.73002,-3.48416,1.00752,-0.0766452,0.866026,0.111021,0.00427663,0,-0.00772998,0.0251331,2.26021,5,0.1,5,2.7,-1.99827,-3.78185,0.597081,-0.00266004,0.0954904,0.00875881,-0.171132,-0.215411,-0.0197552,0.00683411,1.20661,5,0.1,6,2.7,1.27135,0.0626427,0.585699,-0.832424,0.110121,0.0132873,0.156634,0.0689691,-0.00948086,0.0288633,0.660992,5,0.1,7,2.7,-3.18729,-3.28534,0.603569,0.172487,0.743866,-0.00356948,0.979573,-0.285789,0.00361726,0.0105035,1.55255,5,0.1,8,2.7,-2.95568,-2.54596,0.616818,0.151992,0.0960875,0.0390942,0.844926,-0.586465,-0.0374876,0.00674801,0.308358,5,0.1,9,2.7,1.53467,-3.38272,0.55736,0.221761,-0.0320543,-0.0197831,-0.280507,0.0404269,0.024993,0.00981566,0.00528925,5,0.1,10,2.7,-3.15138,1.50213,1.32345,0.00407584,-0.00412334,0.0789998,-0.00996888,-0.199266,-0.192456,0.00970674,1.6622,5,0.1,11,2.7,-0.170476,-0.283521,0.500001,-0.764764,-0.130681,-5.21541e-06,0.332664,-0.426924,4.47035e-05,0.0136841,2.54485,5,0.1,12,2.7,-0.433913,3.81196,0.597773,0.313677,-0.0604924,0.00246968,-0.150014,0.192657,-0.00133365,0.0272745,0.132459,5,0.1,13,2.7,-5.14339,-2.01219,0.594528,0.144879,-0.106246,0.00574654,-0.162512,-0.237539,-0.000152737,0.00892097,3.4786,5,0.1,14,2.7,-0.358446,0.211492,0.609547,0.05796,0.159889,-0.00946224,-0.0606868,0.986334,0.00991672,0.00786975,1.30959,5,0.1,15,2.7,1.69205,-2.82598,1.07968,-0.866025,-0.0161145,0.181466,-1.49012e-05,0.00201166,-0.023216,0.0176805,2.11339,5,0.1,16,2.7,-3.90468,3.92097,1.27307,0.00652485,-0.123378,0.107223,-0.0089556,0.480354,-0.148132,0.0112247,0.366517,5,0.1,17,2.7,-3.17714,-2.50449,0.609989,0.0951536,0.0322301,-0.00866521,-0.281721,-0.147834,-0.037089,0.0113986,3.15874,5,0.1,18,2.7,0.24,1.24006,0.590197,-0.0239343,-0.679191,0.00972906,0.272589,-0.973821,-0.0101589,0.01369,1.86624,5,0.1,19,2.7,-0.705336,-0.366265,0.591908,0.37843,0.71712,0.00768267,-0.257909,-0.296414,-0.00591576,0.0103097,0.536815,5,0.1
0,2.8,0.343614,-2.9949,0.626944,-0.0488788,0.866026,-0.00298172,0.00396371,0,-0.0112653,0.0121077,2.2703,5,0.1,1,2.8,-0.0882417,-2.09267,0.602056,0.272213,-0.0576317,0.0188306,-0.17529,0.365019,-0.0064671,0.00900589,0.319391,5,0.1,2,2.8,0.290671,1.6,0.596245,0.0387713,-0.385734,0.0052318,-0.0809878,-0.0406504,-0.00593066,0.0233718,2.79664,5,0.1,3,2.8,1.80091,4.30226,1.32656,-0.00315607,0.00895262,0.0820011,0.00780821,-0.092268,-0.203729,0.0351607,3.64298,5,0.1,4,2.8,-1.73765,-3.39756,1.01858,-0.0756413,0.866026,0.109765,0.0185966,0,-0.0223517,0.0226342,2.26069,5,0.1,5,2.8,-2,-3.77333,0.597862,-0.0378847,0.0752807,0.0069052,-0.522375,-0.189066,-0.0173151,0.00859055,3.30963,5,0.1,6,2.8,1.18909,0.0739824,0.586979,-0.810164,0.116308,0.0123039,0.314236,0.0473559,-0.0105202,0.0292485,0.460893,5,0.1,7,2.8,-3.16509,-3.21255,0.60323,0.270921,0.70982,-0.00321567,0.938654,-0.413299,0.00354648,0.0102541,1.09383,5,0.1,8,2.8,-2.93647,-2.53918,0.620498,0.229549,0.0407219,0.0341401,0.680566,-0.51105,-0.0593066,0.00649708,0.222781,5,0.1,9,2.8,1.55544,-3.38572,0.555507,0.193468,-0.0279784,-0.0172615,-0.287175,0.0414848,0.0256002,0.00780407,0.00162671,5,0.1,10,2.8,-3.15102,1.5,1.33044,0.00315905,-0.045535,0.0611842,-0.00858307,-0.613987,-0.16433,0.0114798,3.27608,5,0.1,11,2.8,-0.245382,-0.298951,0.500001,-0.733342,-0.179183,-1.49012e-06,0.331619,-0.503883,0,0.0131791,2.4811,5,0.1,12,2.8,-0.403307,3.80684,0.598013,0.298053,-0.0421047,0.00233501,-0.17333,0.172734,-0.00146031,0.0278901,0.273858,5,0.1,13,2.8,-5.12958,-2.02428,0.595107,0.133777,-0.137377,0.00586957,-0.0214577,-0.350952,0.00187755,0.00767055,3.28217,5,0.1,14,2.8,-0.352946,0.232531,0.608649,0.0520758,0.260681,-0.00850111,-0.0583977,0.975199,0.00953674,0.00895253,1.0566,5,0.1,15,2.8,1.60545,-2.82758,1.09769,-0.866026,-0.0158131,0.178096,5.96046e-05,0.00441074,-0.0512004,0.017564,1.66422,5,0.1,16,2.8,-3.90407,3.9109,1.28307,0.00565052,-0.079453,0.0927955,-0.00858307,0.394583,-0.14174,0.00834766,0.563941,5,0.1,17,2.8,-3.16848,-2.50197,0.60895,0.0827134,0.018698,-0.0119641,-0.000596046,-0.120163,-0.0279248,0.0151311,1.99606,5,0.1,18,2.8,0.238981,1.1676,0.591121,0.00341199,-0.765342,0.008744,0.264578,-0.698626,-0.00980496,0.0128178,1.40922,5,0.1,19,2.8,-0.66882,-0.296081,0.592647,0.351296,0.685461,0.00707656,-0.293136,-0.361621,-0.0064075,0.00893968,0.551743,5,0.1
0,2.9,0.338725,-2.9083,0.626589,-0.0490251,0.866026,-0.00409354,-0.0037495,0,-0.0105202,0.0121077,2.2703,5,0.1,1,2.9,-0.0618392,-2.09676,0.603908,0.256175,-0.0259273,0.018217,-0.154628,0.255942,-0.0064671,0.00900589,0.319391,5,0.1,2,2.9,0.294123,1.56151,0.596739,0.0301507,-0.381612,0.00465326,-0.0891294,0.110559,-0.00570714,0.0233718,2.79664,5,0.1,3,2.9,1.80063,4.30277,1.3338,-0.00243392,-0.00249669,0.0631677,0.00663847,-0.292808,-0.173248,0.0351607,3.64298,5,0.1,4,2.9,-1.74515,-3.31096,1.02949,-0.0744684,0.866026,0.108813,0.00899285,0,-0.00344962,0.0226342,2.26069,5,0.1,5,2.9,-2.00805,-3.7667,0.59847,-0.136549,0.0578851,0.0053118,-1.32932,-0.159293,-0.0145994,0.00859055,3.30963,5,0.1,6,2.9,1.10952,0.0858802,0.58816,-0.781591,0.121745,0.0113368,0.287645,0.0533839,-0.00919402,0.0292485,0.460893,5,0.1,7,2.9,-3.1332,-3.14385,0.602922,0.366721,0.66184,-0.00298573,0.931352,-0.548199,0.00135228,0.0102541,1.09383,5,0.1,8,2.9,-2.91016,-2.53748,0.623644,0.29527,-0.00483096,0.0290372,0.607163,-0.397533,-0.0441335,0.00649708,0.222781,5,0.1,9,2.9,1.57337,-3.38832,0.553907,0.165363,-0.0239179,-0.014756,-0.2755,0.0398159,0.0245608,0.00780407,0.00162671,5,0.1,10,2.9,-3.15074,1.4908,1.33578,0.00237636,-0.151068,0.046175,-0.00710785,-1.37689,-0.136316,0.0114798,3.27608,5,0.1,11,2.9,-0.318213,-0.318967,0.500001,-0.732533,-0.216953,-2.98023e-06,-0.225476,-0.253318,-2.23517e-05,0.0131791,2.4811,5,0.1,12,2.9,-0.374318,3.80344,0.59824,0.281967,-0.0265028,0.00220118,-0.158265,0.138476,-0.00129268,0.0278901,0.273858,5,0.1,13,2.9,-5.11612,-2.04006,0.59571,0.140157,-0.180254,0.00623642,0.247777,-0.472203,0.00474975,0.00767055,3.28217,5,0.1,14,2.9,-0.348009,0.263704,0.607843,0.0468291,0.363662,-0.00764448,-0.0481699,1.02987,0.00786036,0.00895253,1.0566,5,0.1,15,2.9,1.51884,-2.82914,1.11528,-0.865979,-0.015454,0.173927,0.00183284,0.00348687,-0.0401661,0.017564,1.66422,5,0.1,16,2.9,-3.90354,3.90482,1.29167,0.0048548,-0.0433888,0.0796748,-0.00742078,0.318751,-0.122361,0.00834766,0.563941,5,0.1,17,2.9,-3.15957,-2.50064,0.607625,0.100689,0.00864081,-0.0144119,0.316575,-0.0807792,-0.020396,0.0151311,1.99606,5,0.1,18,2.9,0.240668,1.08783,0.59195,0.0302967,-0.826638,0.00786278,0.263497,-0.493601,-0.00809878,0.0128178,1.40922,5,0.1,19,2.9,-0.635075,-0.228997,0.593324,0.324165,0.658713,0.00648843,-0.259738,-0.211548,-0.00556931,0.00893968,0.551743,5,0.1
0,3,0.333812,-2.8217,0.626132,-0.0490911,0.866026,-0.00500828,0.00467896,0,-0.00742078,0.0122854,2.29237,5,0.1,1,3,-0.0370217,-2.09833,0.605693,0.239741,-0.00810623,0.0174269,-0.18035,0.0969172,-0.00977516,0.00706187,0.287006,5,0.1,2,3,0.296695,1.52407,0.597176,0.0213481,-0.365666,0.00408143,-0.0851899,0.20057,-0.00575185,0.0197909,2.19859,5,0.1,3,3,1.80042,4.3,1.33929,-0.0018239,-0.0633478,0.0472844,0.00554323,-0.905514,-0.14472,0.0338794,3.20444,5,0.1,4,3,-1.75254,-3.22436,1.04034,-0.0731409,0.866026,0.107917,0.0204444,0,-0.0193715,0.0207405,2.26114,5,0.1,5,3,-2.02886,-3.76166,0.598933,-0.282264,0.0433326,0.00397861,-1.49167,-0.132203,-0.0121593,0.0080175,2.79227,5,0.1,6,3,1.03296,0.0982779,0.589248,-0.747517,0.125626,0.010404,0.414521,0.0186414,-0.00977516,0.025513,0.315142,5,0.1,7,3,-3.09219,-3.08064,0.602628,0.449347,0.600076,-0.00289232,0.688672,-0.686407,0.000715256,0.0121543,0.839032,5,0.1,8,3,-2.8779,-2.53975,0.626343,0.346494,-0.038451,0.0250697,0.399113,-0.273705,-0.0362396,0.00592396,0.176478,5,0.1,9,3,1.58854,-3.39051,0.552553,0.138298,-0.0200093,-0.0123426,-0.265777,0.0385046,0.0237226,0.00894166,0.000802296,5,0.1,10,3,-3.15054,1.46837,1.33976,0.00174046,-0.299776,0.0338346,-0.00584126,-1.50561,-0.111043,0.0109005,2.7674,5,0.1,11,3,-0.392903,-0.341531,0.500001,-0.762603,-0.230463,-4.47035e-06,-0.307546,-0.0212342,0,0.0125263,2.33673,5,0.1,12,3,-0.346954,3.80142,0.598453,0.264742,-0.0145078,0.00206381,-0.192955,0.101089,-0.00157952,0.0258428,0.257865,5,0.1,13,3,-5.1,-2.06042,0.596358,0.190425,-0.225836,0.00669658,0.729799,-0.414133,0.00396371,0.00841465,2.92502,5,0.1,14,3,-0.343561,0.304941,0.607117,0.0421606,0.457285,-0.00688285,-0.0463426,0.8035,0.00756979,0.00919469,0.806064,5,0.1,15,3,1.43227,-2.83067,1.13244,-0.86529,-0.0149965,0.168711,0.014782,0.00619888,-0.0696778,0.013872,1.27419,5,0.1,16,3,-3.90309,3.9019,1.29905,0.00414848,-0.0168741,0.0680298,-0.00679493,0.207782,-0.111639,0.00920995,0.786349,5,0.1,17,3,-3.14769,-2.50011,0.606099,0.138319,0.00247359,-0.0159413,0.402451,-0.043273,-0.00977516,0.0150113,1.41993,5,0.1,18,3,0.244948,1.00325,0.592696,0.0544623,-0.859074,0.00707805,0.212923,-0.138998,-0.00777841,0.0127631,1.03545,5,0.1,19,3,-0.60397,-0.164192,0.593945,0.297619,0.636582,0.00592768,-0.278175,-0.258528,-0.00578165,0.00811985,0.655824,5,0.1
0,3.1,0.329244,-2.7351,0.625597,-0.0395679,0.865788,-0.00563487,0.167584,-0.00952184,-0.00491738,0.0122854,2.29237,5,0.1,1,3.1,-0.0138938,-2.09886,0.607389,0.223178,-0.00522695,0.0165057,-0.15849,-0.0588149,-0.00919774,0.00706187,0.287006,5,0.1,2,3.1,0.298281,1.48893,0.597557,0.00939681,-0.334398,0.00353856,-0.144364,0.365786,-0.00515953,0.0197909,2.19859,5,0.1,3,3.1,1.79962,4.28791,1.34334,-0.0196503,-0.188106,0.0340404,-0.321321,-1.48177,-0.12023,0.0338794,3.20444,5,0.1,4,3.1,-1.75978,-3.13775,1.05108,-0.0718514,0.866026,0.107182,0.00943989,0,-0.0019297,0.0207405,2.26114,5,0.1,5,3.1,-2.06513,-3.75799,0.599329,-0.446558,0.030046,0.00443663,-1.7006,-0.130951,0.0178218,0.0080175,2.79227,5,0.1,6,3.1,0.960159,0.110946,0.590242,-0.709124,0.127689,0.00950946,0.378344,0.0162688,-0.00842288,0.025513,0.315142,5,0.1,7,3.1,-3.04399,-3.02431,0.602332,0.51236,0.524432,-0.00312757,0.543445,-0.814125,-0.00464171,0.0121543,0.839032,5,0.1,8,3.1,-2.8413,-2.54481,0.628719,0.384316,-0.0611722,0.0228835,0.334248,-0.180572,-0.0105873,0.00592396,0.176478,5,0.1,9,3.1,1.60108,-3.39232,0.551434,0.112704,-0.0163026,-0.0100586,-0.245608,0.0355542,0.0219233,0.00894166,0.000802296,5,0.1,10,3.1,-3.15039,1.43031,1.34263,0.00122227,-0.464444,0.0239391,-0.00457466,-1.69523,-0.0874102,0.0109005,2.7674,5,0.1,11,3.1,-0.471173,-0.364434,0.5,-0.80568,-0.225238,-2.8871e-06,-0.483563,0.119811,2.6077e-05,0.0125263,2.33673,5,0.1,12,3.1,-0.321488,3.80047,0.598651,0.24409,-0.00479855,0.0018972,-0.222027,0.0872761,-0.00176951,0.0258428,0.257865,5,0.1,13,3.1,-5.07616,-2.08517,0.59705,0.295132,-0.269346,0.00716848,1.26231,-0.428528,0.00489131,0.00841465,2.92502,5,0.1,14,3.1,-0.33956,0.354676,0.606463,0.0380069,0.536219,-0.00620447,-0.0380855,0.733132,0.00622123,0.00919469,0.806064,5,0.1,15,3.1,1.34575,-2.83214,1.14899,-0.865327,-0.0144403,0.162463,0.00213087,0.00549853,-0.0617579,0.013872,1.27419,5,0.1,16,3.1,-3.90271,3.90119,1.30533,0.00352934,0.00154711,0.0578597,-0.00569224,0.135437,-0.0932515,0.00920995,0.786349,5,0.1,17,3.1,-3.13154,-2.50003,0.604464,0.186801,-0.000498071,-0.0166605,0.530079,-0.0178963,-0.0041984,0.0150113,1.41993,5,0.1,18,3.1,0.251357,0.916922,0.593368,0.0726329,-0.865149,0.00638077,0.148268,0.000283122,-0.00639632,0.0127631,1.03545,5,0.1,19,3.1,-0.575517,-0.102424,0.594511,0.272039,0.593469,0.00539944,-0.242013,-0.577075,-0.00496209,0.00811985,0.655824,5,0.1
0,3.2,0.32627,-2.64865,0.625015,-0.0188299,0.862217,-0.00596195,0.232771,-0.0762939,-0.00146031,0.0133374,2.30979,5,0.1,1,3.2,0.00761724,-2.1,0.608991,0.206762,-0.0205815,0.0154972,-0.175076,-0.236154,-0.0113845,0.00724499,0.243226,5,0.1,2,3.2,0.298466,1.45723,0.597885,-0.0058502,-0.30129,0.00303835,-0.153318,0.267625,-0.00485778,0.0191787,1.99766,5,0.1,3,3.2,1.79578,4.26147,1.34618,-0.0588417,-0.34076,0.023216,-0.430942,-1.4894,-0.0963807,0.0312548,2.71233,5,0.1,4,3.2,-1.76691,-3.05115,1.06177,-0.0705481,0.866026,0.106403,0.0194907,0,-0.0184774,0.021627,2.26764,5,0.1,5,3.2,-2.118,-3.75562,0.599887,-0.606203,0.0175893,0.0069201,-1.42407,-0.116229,0.0291467,0.00855565,2.43959,5,0.1,6,3.2,0.891245,0.12375,0.591151,-0.667644,0.127811,0.00866652,0.468343,-0.0181496,-0.00864267,0.0248562,0.212858,5,0.1,7,3.2,-2.99046,-2.97606,0.601992,0.553381,0.43956,-0.00368357,0.258565,-0.872731,-0.00584126,0.0112143,0.644563,5,0.1,8,3.2,-2.80146,-2.55167,0.630976,0.409484,-0.0746191,0.0224009,0.15378,-0.0890493,-0.00137091,0.00737257,0.15462,5,0.1,9,3.2,1.61116,-3.39378,0.550535,0.0892639,-0.0129104,-0.00796765,-0.222743,0.0321865,0.019908,0.00869221,0.000660566,5,0.1,10,3.2,-3.15029,1.3757,1.34462,0.000822544,-0.622842,0.0162482,-0.00345707,-1.40548,-0.066936,0.0103491,2.42728,5,0.1,11,3.2,-0.553985,-0.386167,0.5,-0.847597,-0.20766,0,-0.307977,0.22611,2.98023e-05,0.0128493,2.27463,5,0.1,12,3.2,-0.298249,3.80037,0.598832,0.220066,0.00206232,0.00170767,-0.25925,0.0466108,-0.00202656,0.0262012,1.51554,5,0.1,13,3.2,-5.04015,-2.11408,0.597789,0.424993,-0.306833,0.00757575,1.25766,-0.301957,0.00289083,0.00817934,2.54321,5,0.1,14,3.2,-0.335945,0.411565,0.605873,0.0343114,0.596818,-0.00560135,-0.0368059,0.449926,0.00599027,0.00760459,0.580782,5,0.1,15,3.2,1.25933,-2.83355,1.16489,-0.86149,-0.0138044,0.155264,0.0907779,0.00786781,-0.0865459,0.0134143,0.947141,5,0.1,16,3.2,-3.90239,3.90176,1.31067,0.00299811,0.00680685,0.0491232,-0.005126,-0.0391006,-0.0826716,0.00973023,1.30762,5,0.1,17,3.2,-3.11025,-2.50014,0.602789,0.237882,-0.00141263,-0.0167161,0.464439,-0.00214577,0.00330806,0.0120771,0.676693,5,0.1,18,3.2,0.25924,0.830602,0.593975,0.0837915,-0.85896,0.0057593,0.0739098,0.141352,-0.00616908,0.0138008,0.376525,5,0.1,19,3.2,-0.54952,-0.0463086,0.595026,0.247763,0.525924,0.00490546,-0.249445,-0.752934,-0.00500679,0.00871179,0.585681,5,0.1
0,3.3,0.325815,-2.5625,0.624412,0.0117864,0.862717,-0.00607809,0.356542,0.047639,-0.000629574,0.0133374,2.30979,5,0.1,1,3.3,0.0274475,-2.10358,0.610487,0.190016,-0.05375,0.0144297,-0.164625,-0.397503,-0.0104085,0.00724499,0.243226,5,0.1,2,3.3,0.29708,1.42834,0.598166,-0.0220395,-0.279956,0.00258945,-0.163376,0.0717863,-0.00417233,0.0191787,1.99766,5,0.1,3,3.3,1.78749,4.21955,1.34806,-0.108602,-0.499461,0.0147058,-0.533082,-1.60053,-0.0742152,0.0312548,2.71233,5,0.1,4,3.3,-1.77398,-2.96455,1.07236,-0.0718376,0.865839,0.105451,-0.0357404,-0.00748038,-0.0064671,0.021627,2.26764,5,0.1,5,3.3,-2.18537,-3.75443,0.600751,-0.736231,0.0064604,0.010533,-1.13018,-0.104427,0.0403263,0.00855565,2.43959,5,0.1,6,3.3,0.82669,0.136449,0.591978,-0.624244,0.12613,0.00787899,0.420377,-0.0205897,-0.00736862,0.0248562,0.212858,5,0.1,7,3.3,-2.93395,-2.93649,0.601584,0.574948,0.351835,-0.00456329,0.150621,-0.871226,-0.0107512,0.0112143,0.644563,5,0.1,8,3.3,-2.75972,-2.55952,0.633252,0.424973,-0.0817236,0.0234445,0.133276,-0.0510067,0.0186898,0.00737257,0.15462,5,0.1,9,3.3,1.61901,-3.39492,0.549834,0.0682684,-0.00987686,-0.00609187,-0.196554,0.0284165,0.0175573,0.00869221,0.000660566,5,0.1,10,3.3,-3.15022,1.30683,1.34594,0.000523776,-0.749073,0.0104457,-0.002563,-1.0772,-0.0496209,0.0103491,2.42728,5,0.1,11,3.3,-0.639775,-0.405728,0.5,-0.864116,-0.182903,1.86265e-06,-0.061214,0.265732,1.49012e-05,0.0128493,2.27463,5,0.1,12,3.3,-0.277519,3.80099,0.598993,0.194677,0.0109587,0.00151014,-0.250647,0.0834316,-0.00194088,0.0262012,1.51554,5,0.1,13,3.3,-4.99094,-2.1463,0.598563,0.561371,-0.337352,0.0079033,1.38789,-0.285015,0.00316277,0.00817934,2.54321,5,0.1,14,3.3,-0.332684,0.473426,0.605341,0.0310171,0.638852,-0.005065,-0.0302009,0.357628,0.00492111,0.00760459,0.580782,5,0.1,15,3.3,1.17337,-2.8349,1.18002,-0.859239,-0.0130832,0.147305,0.00285357,0.00703335,-0.0779554,0.0134143,0.947141,5,0.1,16,3.3,-3.90211,3.90211,1.3152,0.00253767,-0.0032071,0.0416931,-0.00417233,-0.232086,-0.0671893,0.00973023,1.30762,5,0.1,17,3.3,-3.08403,-2.50028,0.601145,0.286929,-0.00129677,-0.0160564,0.485718,0.0038594,0.00975281,0.0120771,0.676693,5,0.1,18,3.3,0.267697,0.745551,0.594522,0.0827707,-0.84014,0.00520675,-0.0815522,0.256341,-0.00507012,0.0138008,0.376525,5,0.1,19,3.3,-0.525914,0.00217131,0.595493,0.22496,0.441482,0.00444967,-0.213802,-0.886662,-0.00425428,0.00871179,0.585681,5,0.1
0,3.4,0.328824,-2.47602,0.623804,0.0484303,0.866026,-0.00604987,0.35885,0,0.0013411,0.011747,2.2919,5,0.1,1,3.4,0.0456117,-2.11101,0.611876,0.17304,-0.0948608,0.013341,-0.178082,-0.402331,-0.0117123,0.0087586,0.1956,5,0.1,2,3.4,0.29409,1.4,0.598405,-0.0373013,-0.293651,0.00219345,-0.136703,-0.325739,-0.00375509,0.0195438,1.35886,5,0.1,3,3.4,1.77401,4.16198,1.34919,-0.160035,-0.646412,0.00829399,-0.472486,-1.27745,-0.0543594,0.0337261,2.37689,5,0.1,4,3.4,-1.78137,-2.87807,1.08285,-0.0760257,0.863039,0.104105,-0.0408292,-0.0598431,-0.0244975,0.0202242,2.54522,5,0.1,5,3.4,-2.26387,-3.75427,0.602005,-0.825369,-0.00297427,0.0145003,-0.630021,-0.0830889,0.0369549,0.00720947,0.317762,5,0.1,6,3.4,0.766426,0.148921,0.592729,-0.580074,0.122838,0.00714958,0.477195,-0.048697,-0.00742078,0.0245977,0.148017,5,0.1,7,3.4,-2.87603,-2.90559,0.601072,0.579864,0.267196,-0.00565946,-0.0662804,-0.813246,-0.0104308,0.00960797,0.501241,5,0.1,8,3.4,-2.71674,-2.56787,0.635699,0.432324,-0.0845015,0.0255182,-0.00178814,-0.00369549,0.0200868,0.0069803,0.148754,5,0.1,9,3.4,1.6249,-3.39577,0.549308,0.050053,-0.00724196,-0.00446588,-0.167489,0.0241995,0.0149608,0.00920055,0.000510354,5,0.1,10,3.4,-3.15018,1.22734,1.34677,0.000309944,-0.832278,0.00622571,-0.00178814,-0.568748,-0.0352859,0.00874411,0.344221,5,0.1,11,3.4,-0.726331,-0.422648,0.5,-0.866026,-0.15514,1.49012e-06,0,0.286564,0,0.0122474,1.80626,5,0.1,12,3.4,-0.259304,3.80227,0.599134,0.169598,0.0118077,0.00131577,-0.25221,-0.0878572,-0.00193715,0.0254812,3.59403,5,0.1,13,3.4,-4.9282,-2.18128,0.599366,0.688446,-0.359881,0.00812411,1.09434,-0.14925,0.000864267,0.00924189,2.28383,5,0.1,14,3.4,-0.32973,0.538726,0.604858,0.028079,0.662822,-0.00458658,-0.0293553,0.0996292,0.00476837,0.00845735,0.400592,5,0.1,15,3.4,1.08764,-2.83617,1.19434,-0.852638,-0.0123203,0.13878,0.163376,0.00870228,-0.0962019,0.0115936,0.678078,5,0.1,16,3.4,-3.90188,3.9,1.31905,0.00215769,-0.0449002,0.0354588,-0.00369549,-0.583887,-0.0583529,0.0100992,1.81009,5,0.1,17,3.4,-3.05308,-2.50039,0.599598,0.329757,-0.000751019,-0.0147954,0.348926,0.00655651,0.0152886,0.0133189,0.188726,5,0.1,18,3.4,0.275397,0.663149,0.595018,0.0698052,-0.804254,0.00471324,-0.167266,0.474393,-0.00494719,0.0112416,0.238201,5,0.1,19,3.4,-0.504475,0.0419766,0.595917,0.203782,0.356271,0.00402927,-0.214845,-0.790011,-0.00423193,0.0103539,0.529599,5,0.1
0,3.5,0.335035,-2.38942,0.623201,0.0718744,0.866026,-0.00603991,0.124071,0,-0.000651926,0.011747,2.2919,5,0.1,1,3.5,0.0620911,-2.12262,0.613155,0.157062,-0.137886,0.0122595,-0.147105,-0.434995,-0.0103079,0.0087586,0.1956,5,0.1,2,3.5,0.289681,1.36821,0.598607,-0.0507095,-0.348146,0.00185193,-0.126062,-0.692554,-0.00311807,0.0195438,1.35886,5,0.1,3,3.5,1.75557,4.09133,1.34978,-0.208862,-0.761656,0.00368133,-0.478551,-0.985056,-0.0383258,0.0337261,2.37689,5,0.1,4,3.5,-1.78924,-2.79313,1.09318,-0.0818687,0.82624,0.102664,-0.0675991,-0.628531,-0.0101775,0.0202242,2.54522,5,0.1,5,3.5,-2.34858,-3.75492,0.60359,-0.860193,-0.00924505,0.0167222,-0.107318,-0.0440627,0.00895187,0.00720947,0.317762,5,0.1,6,3.5,0.710818,0.160822,0.593409,-0.531755,0.113928,0.00647036,0.496969,-0.124149,-0.00636652,0.0245977,0.148017,5,0.1,7,3.5,-2.81838,-2.88277,0.600448,0.572566,0.191032,-0.00687195,-0.100538,-0.706583,-0.0128709,0.00960797,0.501241,5,0.1,8,3.5,-2.67342,-2.57636,0.638384,0.434456,-0.0853617,0.0284327,0.0208765,-0.00868738,0.0344366,0.0069803,0.148754,5,0.1,9,3.5,1.62912,-3.39638,0.548932,0.0346566,-0.00501722,-0.00309115,-0.140078,0.0202358,0.0125058,0.00920055,0.000510354,5,0.1,10,3.5,-3.15016,1.14224,1.34723,0.00016205,-0.86158,0.00328384,-0.00120699,-0.0705943,-0.023976,0.00874411,0.344221,5,0.1,11,3.5,-0.812934,-0.436738,0.5,-0.866026,-0.126804,1.49012e-06,3.72529e-06,0.278188,0,0.0122474,1.80626,5,0.1,12,3.5,-0.2433,3.80296,0.599256,0.15306,-0.00251718,0.00111414,-0.096879,-0.335708,-0.00206754,0.0254812,3.59403,5,0.1,13,3.5,-4.85424,-2.21805,0.600185,0.786198,-0.375475,0.00825096,0.821441,-0.141144,0.00121444,0.00924189,2.28383,5,0.1,14,3.5,-0.327058,0.605461,0.604422,0.0254524,0.670752,-0.00415975,-0.0241008,0.0322983,0.00392273,0.00845735,0.400592,5,0.1,15,3.5,1.00304,-2.83736,1.20776,-0.839978,-0.0115193,0.129897,0.128753,0.007689,-0.0858754,0.0115936,0.678078,5,0.1,16,3.5,-3.90168,3.89152,1.32233,0.00183135,-0.133282,0.0302752,-0.00292063,-1.0964,-0.0463799,0.0100992,1.81009,5,0.1,17,3.5,-3.01832,-2.50053,0.598211,0.365112,-0.00280961,-0.0128024,0.331715,-0.0418425,0.0236668,0.0133189,0.188726,5,0.1,18,3.5,0.28143,0.585084,0.595467,0.0499648,-0.756661,0.00427058,-0.22018,0.495803,-0.00406429,0.0112416,0.238201,5,0.1,19,3.5,-0.485101,0.0739167,0.5963,0.184244,0.285928,0.00364529,-0.181919,-0.589945,-0.0035651,0.0103539,0.529599,5,0.1
0,3.6,0.342551,-2.30282,0.622594,0.0758417,0.866026,-0.00609756,-0.0327975,0,-8.9407e-05,0.00583199,1.09285,5,0.1,1,3.6,0.0770753,-2.13848,0.614329,0.142654,-0.177872,0.0112161,-0.14507,-0.348091,-0.0108778,0.00746976,0.257391,5,0.1,2,3.6,0.284033,1.32982,0.598777,-0.0616021,-0.419635,0.00156015,-0.0880361,-0.683486,-0.00271201,0.0198217,0.413715,5,0.1,3,3.6,1.73245,4.01099,1.34998,-0.251392,-0.837171,0.000545382,-0.353932,-0.505328,-0.0248551,0.0314871,0.649698,5,0.1,4,3.6,-1.79775,-2.71427,1.10338,-0.0880897,0.745749,0.101072,-0.0506043,-0.944614,-0.0258088,0.0196868,2.85805,5,0.1,5,3.6,-2.43444,-3.75601,0.60527,-0.849986,-0.0121117,0.0165671,0.320673,-0.0149012,-0.0107586,0.00881894,2.07998,5,0.1,6,3.6,0.66021,0.171507,0.594025,-0.479449,0.0990056,0.00584126,0.553697,-0.169694,-0.00634789,0.0245627,0.251721,5,0.1,7,3.6,-2.76182,-2.867,0.599699,0.55629,0.126433,-0.00806898,-0.238776,-0.58341,-0.0103712,0.0111992,0.395742,5,0.1,8,3.6,-2.62999,-2.58492,0.641398,0.432509,-0.0854194,0.0317514,-0.0761747,0.010848,0.0291765,0.00592164,0.404657,5,0.1,9,3.6,1.63193,-3.39679,0.548681,0.0220835,-0.00319481,-0.00196844,-0.111341,0.015974,0.00992417,0.00804031,0.000306746,5,0.1,10,3.6,-3.15015,1.05634,1.34746,6.55651e-05,-0.849897,0.00134706,-0.000715256,0.32267,-0.01508,0.0101448,1.79935,5,0.1,11,3.6,-0.899536,-0.448055,0.500001,-0.866026,-0.0998579,0,0,0.259131,2.98023e-05,0.0113483,1.4022,5,0.1,12,3.6,-0.228346,3.8,0.599357,0.146983,-0.0667095,0.000907481,-0.0387356,-0.924826,-0.00208616,0.0273885,3.1496,5,0.1,13,3.6,-4.77221,-2.25615,0.601013,0.847077,-0.384486,0.00828803,0.379086,-0.0240803,-0.00077486,0.00804608,2.18518,5,0.1,14,3.6,-0.32463,0.672409,0.604025,0.0230998,0.664856,-0.00377595,-0.0236034,-0.167817,0.0038147,0.00697189,0.268625,5,0.1,15,3.6,0.919888,-2.83847,1.22031,-0.820313,-0.010711,0.120866,0.291318,0.00870228,-0.0978708,0.0133148,0.472303,5,0.1,16,3.6,-3.90151,3.87245,1.32513,0.00156164,-0.248796,0.0259966,-0.00238419,-1.14739,-0.0400543,0.0102677,1.82155,5,0.1,17,3.6,-2.98036,-2.50106,0.597057,0.391626,-0.00806451,-0.0102267,0.180364,-0.0588894,0.0271499,0.011451,0.149719,5,0.1,18,3.6,0.285302,0.512053,0.595874,0.0274278,-0.702088,0.0038743,-0.223354,0.607417,-0.00396371,0.0124403,0.524301,5,0.1,19,3.6,-0.467572,0.1,0.596647,0.166373,0.239984,0.00329614,-0.179738,-0.338815,-0.00354648,0.00814382,0.499766,5,0.1
0,3.7,0.350644,-2.21832,0.62202,0.0916054,0.805274,-0.00507757,0.303281,-1.11599,0.0184551,0.00583199,1.09285,5,0.1,1,3.7,0.0907445,-2.15832,0.615405,0.131777,-0.221018,0.0103735,-0.0819661,-0.477239,-0.00664964,0.00746976,0.257391,5,0.1,2,3.7,0.277448,1.28463,0.598921,-0.06985,-0.481414,0.00131652,-0.0727195,-0.526965,-0.00219792,0.0198217,0.413715,5,0.1,3,3.7,1.70624,3.92564,1.34993,-0.266421,-0.862615,-0.00142939,0.0301227,-0.0616759,-0.0149906,0.0314871,0.649698,5,0.1,4,3.7,-1.80686,-2.6451,1.11339,-0.0941856,0.633236,0.099526,-0.0636652,-1.20984,-0.0108331,0.0196868,2.85805,5,0.1,5,3.7,-2.51878,-3.75726,0.606851,-0.844192,-0.0125855,0.0148566,-0.120729,0.00417233,-0.0223964,0.00881894,2.07998,5,0.1,6,3.7,0.615258,0.180513,0.594579,-0.417642,0.0807674,0.00524614,0.670549,-0.190919,-0.00568479,0.0245627,0.251721,5,0.1,7,3.7,-2.70732,-2.85705,0.598835,0.533825,0.0745799,-0.0092187,-0.229463,-0.45462,-0.0116937,0.0111992,0.395742,5,0.1,8,3.7,-2.58748,-2.59242,0.64476,0.414301,-0.0563145,0.0357647,-0.280261,0.511825,0.0463389,0.00592164,0.404657,5,0.1,9,3.7,1.63362,-3.39703,0.54853,0.0121661,-0.00176951,-0.00108471,-0.086993,0.012517,0.00774488,0.00804031,0.000306746,5,0.1,10,3.7,-3.15014,0.972095,1.34753,1.11759e-05,-0.841696,0.000180304,-0.00038743,-0.0796951,-0.00858307,0.0101448,1.79935,5,0.1,11,3.7,-0.986135,-0.456789,0.500001,-0.865827,-0.0752902,1.67638e-06,0.00793487,0.23108,7.45058e-06,0.0113483,1.4022,5,0.1,12,3.7,-0.213702,3.78742,0.599437,0.14695,-0.195014,0.000710133,0.0245832,-1.52904,-0.00185892,0.0273885,3.1496,5,0.1,13,3.7,-4.68634,-2.29479,0.60184,0.864842,-0.388604,0.00826474,0.0473559,-0.0374764,-0.000141561,0.00804608,2.18518,5,0.1,14,3.7,-0.32243,0.738063,0.603665,0.0209871,0.647734,-0.00343397,-0.0194162,-0.196517,0.0031516,0.00697189,0.268625,5,0.1,15,3.7,0.839191,-2.8395,1.23194,-0.794018,-0.00991039,0.111849,0.266142,0.0076443,-0.0861362,0.0133148,0.472303,5,0.1,16,3.7,-3.90136,3.84135,1.32755,0.00135303,-0.376328,0.0224747,-0.00184774,-1.32737,-0.0312626,0.0102677,1.82155,5,0.1,17,3.7,-2.9404,-2.50215,0.596168,0.406221,-0.0137947,-0.00756942,0.0968128,-0.053823,0.0256822,0.011451,0.149719,5,0.1,18,3.7,0.286906,0.444571,0.596244,0.00462565,-0.649931,0.00353763,-0.225617,0.464883,-0.00293925,0.0124403,0.524301,5,0.1,19,3.7,-0.451773,0.122358,0.59696,0.1501,0.207659,0.00297567,-0.150727,-0.309658,-0.00296161,0.00814382,0.499766,5,0.1
0,3.8,0.361572,-2.14454,0.621621,0.128569,0.660795,-0.00277162,0.401512,-1.69277,0.0260174,0.00556045,0.319362,5,0.1,1,3.8,0.103553,-2.18277,0.616412,0.124607,-0.266802,0.0097692,-0.0685006,-0.411034,-0.00596046,0.00808742,0.165529,5,0.1,2,3.8,0.270153,1.23428,0.599042,-0.0754453,-0.520894,0.00111312,-0.0364035,-0.246525,-0.00187755,0.0189086,0.854942,5,0.1,3,3.8,1.68023,3.83954,1.34972,-0.24969,-0.854671,-0.00252128,0.284553,0.227332,-0.00721216,0.0294984,2.26607,5,0.1,4,3.8,-1.81656,-2.58766,1.12328,-0.0995129,0.518531,0.0979245,-0.0374317,-1.03283,-0.0252724,0.0204639,3.01923,5,0.1,5,3.8,-2.60397,-3.75847,0.608213,-0.859547,-0.0115097,0.0122815,-0.124454,0.0160933,-0.0282228,0.00763524,1.28531,5,0.1,6,3.8,0.576957,0.187628,0.595075,-0.347546,0.0615641,0.00468194,0.721216,-0.189863,-0.00566244,0.00456414,0.58492,5,0.1,7,3.8,-2.6552,-2.85166,0.597859,0.50723,0.0352681,-0.010249,-0.315309,-0.33319,-0.00825524,0.00840915,0.406668,5,0.1,8,3.8,-2.54774,-2.59507,0.648564,0.378001,0.00635982,0.0401944,-0.437737,0.695109,0.0388026,0.00625812,0.302675,5,0.1,9,3.8,1.63444,-3.39715,0.548457,0.004673,-0.000691414,-0.000417233,-0.0630617,0.00905991,0.00563264,0.00915034,0.000140119,5,0.1,10,3.8,-3.15015,0.887395,1.34751,-1.78814e-05,-0.852104,-0.000429153,-0.000119209,-0.0700653,-0.00399351,0.00969185,1.37419,5,0.1,11,3.8,-1.07261,-0.463217,0.500001,-0.862855,-0.0538319,1.49012e-06,0.0634193,0.197306,0,0.0104732,1.05701,5,0.1,12,3.8,-0.19887,3.76003,0.599499,0.149557,-0.352806,0.000536442,0.0176504,-1.54173,-0.00160933,0.0249019,2.67797,5,0.1,13,3.8,-4.59976,-2.33372,0.602664,0.866032,-0.388455,0.00818521,-0.000238419,0.0547171,-0.00175834,0.00887343,1.69048,5,0.1,14,3.8,-0.320426,0.801661,0.603337,0.0190854,0.621916,-0.00312477,-0.0191629,-0.334322,0.00312924,0.00904319,0.177487,5,0.1,15,3.8,0.761289,-2.84045,1.24268,-0.761776,-0.00913143,0.103021,0.400275,0.00834465,-0.0930429,0.0113581,0.322567,5,0.1,16,3.8,-3.90124,3.79729,1.32965,0.00118017,-0.501138,0.019592,-0.00166893,-1.11341,-0.0271201,0.0103533,0.186048,5,0.1,17,3.8,-2.89953,-2.50378,0.595535,0.40859,-0.0185132,-0.00514537,-0.058651,-0.0391006,0.0225902,0.0127258,0.174563,5,0.1,18,3.8,0.286285,0.381862,0.596583,-0.016474,-0.604107,0.00325739,-0.191271,0.472486,-0.00280142,0.0102281,0.888231,5,0.1,19,3.8,-0.437502,0.141611,0.597243,0.13537,0.177714,0.00268668,-0.147417,-0.290625,-0.00289083,0.0110483,1.45635,5,0.1
0,3.9,0.376795,-2.08668,0.621477,0.178438,0.499088,-0.000101048,0.555564,-1.53144,0.0265129,0.00556045,0.319362,5,0.1,1,3.9,0.115724,-2.21151,0.617363,0.119183,-0.307625,0.00927215,-0.0462588,-0.381276,-0.00442937,0.00808742,0.165529,5,0.1,2,3.9,0.262438,1.18062,0.599144,-0.0786344,-0.554527,0.00094641,-0.0240244,-0.376254,-0.00149012,0.0189086,0.854942,5,0.1,3,3.9,1.65616,3.75447,1.34944,-0.23611,-0.852057,-0.00297539,0.0214577,-0.102565,-0.00213087,0.0294984,2.26607,5,0.1,4,3.9,-1.82673,-2.54066,1.13298,-0.103964,0.428044,0.0963645,-0.0445992,-0.658244,-0.0114068,0.0204639,3.01923,5,0.1,5,3.9,-2.6903,-3.75953,0.609294,-0.865321,-0.00950284,0.0092959,-0.00803173,0.0231415,-0.0307336,0.00763524,1.28531,5,0.1,6,3.9,0.546658,0.192355,0.595507,-0.251534,0.0290418,0.00388073,1.13691,-0.426741,-0.00985339,0.00456414,0.58492,5,0.1,7,3.9,-2.60583,-2.84914,0.596816,0.481648,0.0209775,-0.0103949,-0.220805,0.01432,0.0045225,0.00840915,0.406668,5,0.1,8,3.9,-2.51213,-2.59111,0.652838,0.33398,0.0710804,0.0457153,-0.44401,0.586912,0.0649691,0.00625812,0.302675,5,0.1,9,3.9,1.63463,-3.39718,0.548441,-0.000680238,7.97212e-05,6.06291e-05,-0.0442415,0.0063777,0.00394508,0.00915034,0.000140119,5,0.1,10,3.9,-3.15015,0.801738,1.34745,-2.16067e-05,-0.861263,-0.000650622,2.98023e-05,-0.0849478,-0.000692904,0.00969185,1.37419,5,0.1,11,3.9,-1.15885,-0.467665,0.500001,-0.86324,-0.0356407,1.02445e-06,-0.0243858,0.165852,-1.11759e-05,0.0104732,1.05701,5,0.1,12,3.9,-0.183738,3.71662,0.599546,0.153655,-0.517335,0.000391062,0.052236,-1.66129,-0.00130013,0.0249019,2.67797,5,0.1,13,3.9,-4.51316,-2.37234,0.603475,0.86593,-0.383917,0.00803992,-0.00372529,0.0527501,-0.00150502,0.00887343,1.69048,5,0.1,14,3.9,-0.318606,0.862239,0.603039,0.0173687,0.589728,-0.00284417,-0.0158027,-0.327699,0.00258163,0.00904319,0.177487,5,0.1,15,3.9,0.686991,-2.84133,1.25255,-0.72473,-0.00836737,0.094483,0.366531,0.00719726,-0.0807643,0.0113581,0.322567,5,0.1,16,3.9,-3.90113,3.74251,1.3315,0.00105388,-0.585561,0.0175236,-0.000968575,-0.577688,-0.0156388,0.0103533,0.186048,5,0.1,17,3.9,-2.85905,-2.50584,0.595115,0.399824,-0.0227477,-0.00342047,-0.12587,-0.0427812,0.0125729,0.0127258,0.174563,5,0.1,18,3.9,0.283962,0.323409,0.596897,-0.0273434,-0.568077,0.00302419,-0.032749,0.283916,-0.00202656,0.0102281,0.888231,5,0.1,19,3.9,-0.424332,0.157768,0.597559,0.131116,0.144372,0.00414029,0.0380762,-0.354982,0.0280663,0.0110483,1.45635,5,0.1
0,4,0.397398,-2.04409,0.621594,0.232673,0.356185,0.00237823,0.499338,-1.31977,0.022471,0.0108602,3.39716,5,0.1,1,4,0.127405,-2.24397,0.618267,0.11428,-0.338989,0.00880808,-0.0562668,-0.229359,-0.0051558,0.00731423,0.0950684,5,0.1,2,4,0.254498,1.12341,0.599232,-0.0796944,-0.587559,0.000809133,0.00499189,-0.248492,-0.0012815,0.0176466,0.873239,5,0.1,3,4,1.63245,3.66869,1.34914,-0.239325,-0.862873,-0.00299513,-0.0594258,-0.0630617,0.00154972,0.0294209,2.2278,5,0.1,4,4,-1.83732,-2.5,1.14255,-0.107247,0.396341,0.0947088,-0.0160933,0.000119209,-0.0255704,0.0188061,2.8516,5,0.1,5,4,-2.77675,-3.76036,0.610071,-0.862247,-0.00704527,0.00626743,0.0754595,0.0252724,-0.0292361,0.00928659,0.345968,5,0.1,6,4,0.527452,0.192965,0.595842,-0.131185,-0.0177883,0.00280291,1.22195,-0.483751,-0.0112951,0.00608306,0.378899,5,0.1,7,4,-2.55878,-2.84662,0.595815,0.458872,0.0322044,-0.00949502,-0.252128,0.18394,0.0127852,0.00799227,0.30827,5,0.1,8,4,-2.48097,-2.58133,0.657733,0.289029,0.121701,0.0520334,-0.45526,0.41759,0.0565052,0.00556863,0.331066,5,0.1,9,4,1.63437,-3.39715,0.548464,-0.00423193,0.000590086,0.000376999,-0.0271201,0.00405312,0.00244379,0.00963094,4.85345e-05,5,0.1,10,4,-3.15015,0.715327,1.34739,-1.78814e-05,-0.865245,-0.000610948,0.000119209,0.0155866,0.0012517,0.0108365,0.561295,5,0.1,11,4,-1.24513,-0.470456,0.500001,-0.859928,-0.0207596,0,0.121891,0.131473,0,0.00959781,0.767826,5,0.1,12,4,-0.168136,3.65698,0.599579,0.15793,-0.669992,0.000275671,0.0245795,-1.32859,-0.00104308,0.026132,2.37783,5,0.1,13,4,-4.42662,-2.41036,0.60427,0.864518,-0.375092,0.0078246,-0.0302792,0.135183,-0.00303984,0.00865666,1.2792,5,0.1,14,4,-0.316947,0.919463,0.602767,0.0158168,0.553335,-0.00258982,-0.0156909,-0.412375,0.002563,0.00891807,0.11672,5,0.1,15,4,0.616468,-2.84213,1.26159,-0.684117,-0.00764728,0.0863492,0.463396,0.00751019,-0.0839829,0.0128763,0.54064,5,0.1,16,4,-3.90102,3.68193,1.33318,0.000977516,-0.617623,0.0162184,-0.000715256,-0.0702143,-0.0115037,0.00976707,0.0927207,5,0.1,17,4,-2.81987,-2.50832,0.594824,0.381958,-0.0265956,-0.00250787,-0.236988,-0.0320673,0.00619888,0.0118317,0.117189,5,0.1,18,4,0.281277,0.26795,0.597189,-0.0244014,-0.541143,0.00282675,0.0844151,0.280797,-0.00208616,0.0122098,2.78157,5,0.1,19,4,-0.410888,0.170463,0.598138,0.138696,0.110205,0.00760853,0.0949502,-0.31475,0.038296,0.00867015,1.38517,5,0.1
0,4.1,0.422311,-2.01255,0.621912,0.257797,0.296416,0.00368087,0.0323579,-0.00858307,0.00485405,0.0108602,3.39716,5,0.1,1,4.1,0.13857,-2.27892,0.619124,0.109096,-0.358752,0.00832686,-0.0514351,-0.151053,-0.00474975,0.00731423,0.0950684,5,0.1,2,4.1,0.246558,1.06312,0.599307,-0.0789867,-0.619652,0.000696536,0.0119014,-0.344455,-0.000994653,0.0176466,0.873239,5,0.1,3,4.1,1.60792,3.58221,1.34886,-0.253374,-0.865829,-0.0027312,-0.191532,-0.00788271,0.00356883,0.0294209,2.2278,5,0.1,4,4.1,-1.84815,-2.45888,1.15192,-0.10944,0.438229,0.0930058,-0.0214279,0.727847,-0.0135675,0.0188061,2.8516,5,0.1,5,4.1,-2.8624,-3.76093,0.610553,-0.848244,-0.00445209,0.00340464,0.224233,0.0259429,-0.027474,0.00928659,0.345968,5,0.1,6,4.1,0.520606,0.188915,0.596065,-0.0052019,-0.0615878,0.00164723,1.25508,-0.385988,-0.0115149,0.00608306,0.378899,5,0.1,7,4.1,-2.51401,-2.8422,0.594938,0.437466,0.0585057,-0.00796029,-0.195727,0.317246,0.0173263,0.00799227,0.30827,5,0.1,8,4.1,-2.45427,-2.56756,0.663279,0.245706,0.149003,0.0593037,-0.413641,0.141591,0.0812151,0.00556863,0.331066,5,0.1,9,4.1,1.63383,-3.39707,0.548512,-0.00629406,0.000900403,0.000562519,-0.0145063,0.00219047,0.00130385,0.00963094,4.85345e-05,5,0.1,10,4.1,-3.15015,0.628926,1.34734,-4.09782e-06,-0.861507,-0.000409037,0.000163913,0.0903606,0.0025928,0.0108365,0.561295,5,0.1,11,4.1,-1.3307,-0.471918,0.500001,-0.852205,-0.00893986,-9.31323e-08,0.0748783,0.104513,-3.72529e-06,0.00959781,0.767826,5,0.1,12,4.1,-0.152153,3.58398,0.599601,0.162092,-0.782704,0.000185613,0.047422,-0.899285,-0.000771135,0.026132,2.37783,5,0.1,13,4.1,-4.34018,-2.44724,0.605038,0.864857,-0.362536,0.00754688,0.00619888,0.129551,-0.00280887,0.00865666,1.2792,5,0.1,14,4.1,-0.315438,0.972826,0.60252,0.0144096,0.514463,-0.00235969,-0.012977,-0.380401,0.00212714,0.00891807,0.11672,5,0.1,15,4.1,0.549929,-2.84286,1.26984,-0.650038,-0.00696294,0.0786768,0.259383,0.0063926,-0.0720248,0.0128763,0.54064,5,0.1,16,4.1,-3.90093,3.62022,1.33475,0.000910088,-0.612456,0.0151193,-0.000670552,0.174835,-0.0109151,0.00976707,0.0927207,5,0.1,17,4.1,-2.78286,-2.51116,0.594593,0.358036,-0.0303853,-0.00220891,-0.249714,-0.040248,0.00038743,0.0118317,0.117189,5,0.1,18,4.1,0.279645,0.215006,0.597462,-0.00437312,-0.519351,0.00263732,0.315584,0.182821,-0.00179559,0.0122098,2.78157,5,0.1,19,4.1,-0.396382,0.179875,0.599114,0.152545,0.078691,0.0120594,0.163432,-0.277512,0.0477843,0.00867015,1.38517,5,0.1
0,4.2,0.447682,-1.9817,0.622284,0.244553,0.330693,0.00358224,-0.272349,0.589311,-0.00578165,0.0122385,2.8932,5,0.1,1,4.2,0.149204,-2.31533,0.619932,0.103313,-0.366765,0.0078097,-0.0669584,0,-0.00578165,0.00752682,0.0660239,5,0.1,2,4.2,0.238748,0.999608,0.599372,-0.0768613,-0.648071,0.000604987,0.0324026,-0.189036,-0.000864267,0.0159183,1.20204,5,0.1,3,4.2,1.58161,3.49561,1.3486,-0.272411,-0.866026,-0.00231266,-0.166953,0,0.00470877,0.031039,1.55568,5,0.1,4,4.2,-1.85916,-2.41096,1.16114,-0.110453,0.522572,0.0911325,0.00554323,0.875235,-0.0275373,0.0181797,2.54102,5,0.1,5,4.2,-2.94573,-3.76125,0.610763,-0.814277,-0.00197887,0.000864267,0.466704,0.0232458,-0.022918,0.00658067,1.06549,5,0.1,6,4.2,0.526127,0.181029,0.596174,0.112477,-0.0939917,0.000552833,1.06755,-0.258394,-0.010103,0.00608059,0.284785,5,0.1,7,4.2,-2.47128,-2.83471,0.594233,0.416374,0.0912845,-0.00613481,-0.239968,0.3196,0.0187457,0.00925724,0.232512,5,0.1,8,4.2,-2.43172,-2.55232,0.669604,0.205892,0.15251,0.0669494,-0.384331,-0.0598431,0.0660419,0.0077508,0.38348,5,0.1,9,4.2,1.63315,-3.39697,0.548573,-0.00720918,0.00104308,0.00064373,-0.00411272,0.000596046,0.00038743,0.00769002,1.46723e-05,5,0.1,10,4.2,-3.15015,0.543558,1.34731,1.78814e-05,-0.842009,-0.00012517,0,0.320017,0.00298023,0.00972092,1.3196,5,0.1,11,4.2,-1.41534,-0.472337,0.500001,-0.837788,8.9407e-05,-1.49012e-06,0.242829,0.075981,2.98023e-05,0.0117909,1.63236,5,0.1,12,4.2,-0.135745,3.50207,0.599617,0.16549,-0.846922,0.000120699,0.0125432,-0.382066,-0.000566244,0.0246308,2.26814,5,0.1,13,4.2,-4.25379,-2.48276,0.605777,0.860941,-0.346893,0.00721365,-0.101566,0.192404,-0.00402331,0.00942489,0.939641,5,0.1,14,4.2,-0.314061,1.02232,0.602295,0.0131324,0.474682,-0.00215024,-0.0129342,-0.425577,0.00211596,0.00717777,0.131792,5,0.1,15,4.2,0.486162,-2.84352,1.27735,-0.625118,-0.00633001,0.0715107,0.269055,0.00655651,-0.0730753,0.0119833,0.817263,5,0.1,16,4.2,-3.90084,3.56026,1.3362,0.000840425,-0.582731,0.0139654,-0.000834465,0.417948,-0.0124574,0.0115365,0.199331,5,0.1,17,4.2,-2.74838,-2.51439,0.594368,0.330675,-0.0340462,-0.00232011,-0.302553,-0.0305176,-0.00214577,0.00982101,0.417448,5,0.1,18,4.2,0.281138,0.164009,0.597717,0.0374824,-0.49982,0.00245124,0.509784,0.22763,-0.00196695,0.0122093,2.50569,5,0.1,19,4.2,-0.380323,0.186645,0.600554,0.16816,0.0600621,0.016655,0.135243,-0.0794679,0.0419617,0.00917246,1.26753,5,0.1
0,4.3,0.470436,-1.94452,0.622599,0.207646,0.421864,0.00259681,-0.445858,1.12952,-0.0129826,0.0122385,2.8932,5,0.1,1,4.3,0.159232,-2.35201,0.620686,0.0974416,-0.366502,0.00729561,-0.0547301,0.0210404,-0.00479817,0.00752682,0.0660239,5,0.1,2,4.3,0.231534,0.933434,0.599429,-0.0647655,-0.678125,0.000529829,0.192037,-0.353817,-0.000659376,0.0159183,1.20204,5,0.1,3,4.3,1.55413,3.40901,1.3484,-0.271831,-0.865893,-0.00180248,0.157043,0.00531971,0.00535697,0.031039,1.55568,5,0.1,4,4.3,-1.87021,-2.35366,1.17015,-0.110521,0.627823,0.0891712,-0.00103563,1.14015,-0.0164211,0.0181797,2.54102,5,0.1,5,4.3,-3.02547,-3.76139,0.610804,-0.785594,-0.00132062,0.000547804,0.166252,-0.00704825,0.0129044,0.00658067,1.06549,5,0.1,6,4.3,0.54258,0.170783,0.59618,0.214507,-0.106888,-0.000417139,0.944111,-0.0160849,-0.00908598,0.00608059,0.284785,5,0.1,7,4.3,-2.43074,-2.82389,0.593714,0.395149,0.125357,-0.00422904,-0.200555,0.342995,0.0189506,0.00925724,0.232512,5,0.1,8,4.3,-2.413,-2.53764,0.676689,0.16881,0.138706,0.0751179,-0.356629,-0.203356,0.0888184,0.0077508,0.38348,5,0.1,9,4.3,1.63242,-3.39687,0.548638,-0.00724792,0.00104941,0.000648573,0.00295043,-0.000402331,-0.00025332,0.00769002,1.46723e-05,5,0.1,10,4.3,-3.15015,0.4603,1.34731,2.23517e-05,-0.82805,0.000194274,5.96046e-05,0.0245105,0.0032708,0.00972092,1.3196,5,0.1,11,4.3,-1.49866,-0.47198,0.500001,-0.834252,0.00671428,2.79397e-07,-0.0984594,0.0562295,1.11759e-05,0.0117909,1.63236,5,0.1,12,4.3,-0.119072,3.41621,0.599626,0.168311,-0.864832,7.44127e-05,0.0330061,-0.0477582,-0.000368804,0.0246308,2.26814,5,0.1,13,4.3,-4.16796,-2.51654,0.60648,0.856883,-0.328906,0.00683982,-0.0261962,0.17859,-0.00368804,0.00942489,0.939641,5,0.1,14,4.3,-0.3128,1.068,0.602089,0.0121702,0.441511,-0.00199247,-0.00718981,-0.265285,0.00118464,0.00717777,0.131792,5,0.1,15,4.3,0.424429,-2.84413,1.28416,-0.613856,-0.00573546,0.0648631,0.00867635,0.00551343,-0.0620112,0.0119833,0.817263,5,0.1,16,4.3,-3.90076,3.50389,1.33754,0.000763312,-0.546006,0.0127979,-0.000730157,0.338942,-0.0112504,0.0115365,0.199331,5,0.1,17,4.3,-2.71678,-2.51798,0.594079,0.301524,-0.037903,-0.00384869,-0.287145,-0.0424236,-0.0253357,0.00982101,0.417448,5,0.1,18,4.3,0.28755,0.115094,0.597952,0.0924032,-0.478739,0.00225957,0.604818,0.211498,-0.00192225,0.0122093,2.50569,5,0.1,19,4.3,-0.362775,0.192507,0.602434,0.183006,0.0612096,0.0209347,0.147274,0.155246,0.0413917,0.00917246,1.26753,5,0.1
0,4.4,0.488821,-1.8965,0.622788,0.158975,0.538281,0.00115335,-0.511542,1.12015,-0.0151992,0.0100265,2.53589,5,0.1,1,4.4,0.168694,-2.38841,0.621391,0.0916488,-0.359941,0.0067994,-0.0640526,0.12064,-0.00536442,0.0079401,0.0278763,5,0.1,2,4.4,0.226162,0.863973,0.599478,-0.0415884,-0.708812,0.000467896,0.257649,-0.217915,-0.000566244,0.01899,0.904197,5,0.1,3,4.4,1.52812,3.32249,1.34824,-0.244984,-0.863904,-0.0012666,0.361502,0.0425577,0.00524521,0.0287915,2.25392,5,0.1,4,4.4,-1.88124,-2.28534,1.17897,-0.109664,0.735086,0.0870436,0.0222921,0.939608,-0.0293851,0.0161345,2.33286,5,0.1,5,4.4,-3.1033,-3.76159,0.610957,-0.77073,-0.00283718,0.00278503,0.174284,-0.0211,0.0288785,0.00908263,0.798001,5,0.1,6,4.4,0.568353,0.160301,0.596096,0.296447,-0.100249,-0.00122786,0.675142,0.135034,-0.00697374,0.00564549,0.232786,5,0.1,7,4.4,-2.39227,-2.80973,0.593384,0.373554,0.156641,-0.00241548,-0.242591,0.269294,0.0169873,0.00798299,0.169739,5,0.1,8,4.4,-2.39785,-2.52493,0.684625,0.134701,0.114185,0.0832468,-0.325203,-0.276327,0.0676513,0.00871889,0.433271,5,0.1,9,4.4,1.63172,-3.39676,0.548701,-0.00669658,0.000971556,0.000599027,0.0077486,-0.00107288,-0.000685453,0.00947916,7.79745e-06,5,0.1,10,4.4,-3.15015,0.37757,1.34735,2.98023e-05,-0.825796,0.000503659,0,0.0683522,0.00280142,0.00993899,0.989432,5,0.1,11,4.4,-1.58264,-0.471062,0.500001,-0.844702,0.0113003,0,-0.0565052,0.0354499,0,0.0089716,1.40227,5,0.1,12,4.4,-0.102115,3.32963,0.599632,0.170234,-0.866026,4.47035e-05,-0.00222802,0,-0.000208616,0.0246008,2.25243,5,0.1,13,4.4,-4.0826,-2.54849,0.607144,0.847769,-0.309289,0.00643581,-0.188589,0.221252,-0.00455976,0.00925542,0.667085,5,0.1,14,4.4,-0.311616,1.1109,0.601895,0.0115409,0.416875,-0.00188947,-0.00604987,-0.247598,0.00101328,0.0084333,0.108611,5,0.1,15,4.4,0.363011,-2.84467,1.29034,-0.61427,-0.00519156,0.0587463,0.0216818,0.00536442,-0.06181,0.0113599,0.626427,5,0.1,16,4.4,-3.90069,3.451,1.33876,0.000697374,-0.511128,0.0116557,-0.000834465,0.374556,-0.0119209,0.00998752,0.257565,5,0.1,17,4.4,-2.68808,-2.52197,0.59355,0.272143,-0.0418067,-0.00683963,-0.304818,-0.0324249,-0.0320971,0.0119723,0.220793,5,0.1,18,4.4,0.3,0.0683679,0.598168,0.158051,-0.45458,0.00205934,0.688016,0.283588,-0.00211596,0.0108151,2.26418,5,0.1,19,4.4,-0.343815,0.2,0.604719,0.195161,0.0942536,0.0245512,0.0856668,0.484228,0.0293851,0.00897526,1.0823,5,0.1
0,4.5,0.502093,-1.83662,0.622823,0.106114,0.66158,-0.000485405,-0.532122,1.26174,-0.0168681,0.0100265,2.53589,5,0.1,1,4.5,0.177544,-2.42374,0.622045,0.085343,-0.34583,0.00627665,-0.064224,0.168845,-0.00524893,0.0079401,0.0278763,5,0.1,2,4.5,0.223399,0.791832,0.599523,-0.0129412,-0.734515,0.000418723,0.302345,-0.250485,-0.000432134,0.01899,0.904197,5,0.1,3,4.5,1.50483,3.23613,1.34814,-0.226017,-0.864444,-0.000767782,0.0547022,-0.0265539,0.00466406,0.0287915,2.25392,5,0.1,4,4.5,-1.89212,-2.20761,1.18756,-0.108203,0.814113,0.0849076,0.0125244,0.615641,-0.0178516,0.0161345,2.33286,5,0.1,5,4.5,-3.17984,-3.762,0.611408,-0.762206,-0.00561476,0.00644829,0.0429153,-0.0321567,0.0416115,0.00908263,0.798001,5,0.1,6,4.5,0.60116,0.151332,0.595939,0.357071,-0.0759322,-0.00188863,0.518162,0.32698,-0.00604615,0.00564549,0.232786,5,0.1,7,4.5,-2.35603,-2.79272,0.593225,0.351615,0.183224,-0.000781938,-0.209287,0.247851,0.0153854,0.00798299,0.169739,5,0.1,8,4.5,-2.38602,-2.51495,0.693362,0.101981,0.0851668,0.0919594,-0.323907,-0.295103,0.0964887,0.00871889,0.433271,5,0.1,9,4.5,1.63109,-3.39667,0.548757,-0.00576153,0.000840798,0.00051558,0.0106096,-0.00150502,-0.000953674,0.00947916,7.79745e-06,5,0.1,10,4.5,-3.15014,0.295007,1.34741,3.20375e-05,-0.827374,0.000780635,5.96046e-05,-0.0485669,0.00263005,0.00993899,0.989432,5,0.1,11,4.5,-1.66649,-0.469775,0.500001,-0.82373,0.0142244,-9.31323e-08,0.45298,0.0227932,-3.72529e-06,0.0089716,1.40227,5,0.1,12,4.5,-0.0850392,3.24303,0.599636,0.171629,-0.866026,2.97092e-05,0.0194041,0,-0.000100583,0.0246008,2.25243,5,0.1,13,4.5,-3.99861,-2.57837,0.607766,0.832368,-0.288697,0.0060129,-0.156835,0.199899,-0.00409409,0.00925542,0.667085,5,0.1,14,4.5,-0.310766,1.15149,0.60171,0.00316324,0.395813,-0.00180909,-0.144403,-0.191651,0.000689179,0.0084333,0.108611,5,0.1,15,4.5,0.301706,-2.84517,1.29592,-0.611093,-0.00470579,0.0531452,0.0645539,0.00452995,-0.0519827,0.0113599,0.626427,5,0.1,16,4.5,-3.90062,3.40146,1.33987,0.000622123,-0.482084,0.0105536,-0.000685453,0.234529,-0.0104383,0.00998752,0.257565,5,0.1,17,4.5,-2.66234,-2.52633,0.592687,0.243118,-0.0454701,-0.0105512,-0.280574,-0.0371039,-0.039693,0.0119723,0.220793,5,0.1,18,4.5,0.318764,0.0242492,0.598364,0.213377,-0.428207,0.00185911,0.455143,0.258334,-0.0019297,0.0108151,2.26418,5,0.1,19,4.5,-0.323856,0.212563,0.607319,0.203876,0.162551,0.0273816,0.0772886,0.817968,0.025481,0.00897526,1.0823,5,0.1
0,4.6,0.510102,-1.76449,0.622692,0.0549182,0.77619,-0.00209808,-0.481635,0.970304,-0.0148416,0.0121832,2.3458,5,0.1,1,4.6,0.185742,-2.45735,0.622646,0.0784509,-0.325024,0.00572354,-0.0749901,0.251651,-0.00587106,0.00747001,0.00967111,5,0.1,2,4.6,0.223602,0.717381,0.599563,0.0166167,-0.75116,0.000378489,0.279129,-0.0505447,-0.000417233,0.0167198,0.72513,5,0.1,3,4.6,1.48224,3.14958,1.34809,-0.227517,-0.866026,-0.000342727,-0.0561476,0,0.0038147,0.0284028,2.2329,5,0.1,4,4.6,-1.90286,-2.12379,1.19595,-0.106204,0.855505,0.0827044,0.0314116,0.210404,-0.0294447,0.0160534,2.26643,5,0.1,5,4.6,-3.25574,-3.76273,0.612263,-0.754148,-0.00886917,0.0106215,0.151634,-0.0312328,0.0398457,0.00759001,0.57997,5,0.1,6,4.6,0.639071,0.145525,0.595723,0.396955,-0.039186,-0.00240207,0.267476,0.388935,-0.00417233,0.00602085,0.197922,5,0.1,7,4.6,-2.32195,-2.77329,0.593219,0.329477,0.203758,0.000610948,-0.24271,0.152826,0.0122488,0.00943077,0.119647,5,0.1,8,4.6,-2.3774,-2.50788,0.703019,0.0708461,0.0566959,0.100803,-0.294924,-0.268102,0.0729859,0.00813957,0.374503,5,0.1,9,4.6,1.63057,-3.3966,0.548803,-0.00463426,0.000679493,0.000415742,0.0116229,-0.00166893,-0.00107288,0.00831723,7.25588e-06,5,0.1,10,4.6,-3.15014,0.212179,1.3475,3.57628e-05,-0.82673,0.00101328,0.000238419,0.0978863,0.00190735,0.0112068,1.24803,5,0.1,11,4.6,-1.74592,-0.468262,0.500001,-0.758547,0.0158295,-1.49012e-06,0.829279,0.00925362,2.98023e-05,0.00953438,1.31399,5,0.1,12,4.6,-0.0678155,3.15642,0.599638,0.172286,-0.866026,2.38419e-05,-0.0138247,0,-5.96046e-05,0.0264641,2.25237,5,0.1,13,4.6,-3.91636,-2.60621,0.608346,0.810087,-0.267732,0.00558347,-0.314355,0.225663,-0.00464916,0.00747393,0.46197,5,0.1,14,4.6,-0.311284,1.19009,0.601533,-0.0142992,0.375476,-0.00173748,-0.191525,-0.22769,0.00089407,0.00673539,0.15464,5,0.1,15,4.6,0.241142,-2.84562,1.30098,-0.597585,-0.00426769,0.0480443,0.220671,0.00464916,-0.05126,0.0120877,1.07871,5,0.1,16,4.6,-3.90056,3.35438,1.34087,0.000560284,-0.459355,0.00951588,-0.000715256,0.240684,-0.0104308,0.0109822,0.188084,5,0.1,17,4.6,-2.63942,-2.53104,0.591437,0.215209,-0.0485897,-0.0143558,-0.280976,-0.0226498,-0.0345707,0.0100165,0.560786,5,0.1,18,4.6,0.34221,-0.0172253,0.598541,0.254311,-0.400479,0.00166595,0.37919,0.306076,-0.00196695,0.012382,1.99085,5,0.1,19,4.6,-0.303171,0.233027,0.610166,0.208711,0.246664,0.0293553,0.0116825,0.816196,0.0127852,0.00841821,0.865676,5,0.1
0,4.7,0.513227,-1.68293,0.622407,0.00824546,0.845952,-0.00358317,-0.441935,0.431195,-0.0142902,0.0121832,2.3458,5,0.1,1,4.7,0.193213,-2.48855,0.623189,0.0709341,-0.298321,0.00514062,-0.0762763,0.284895,-0.00585243,0.00747001,0.00967111,5,0.1,2,4.7,0.226824,0.641936,0.599598,0.0489795,-0.757561,0.000342447,0.348545,-0.0411421,-0.00031665,0.0167198,0.72513,5,0.1,3,4.7,1.45887,3.06298,1.34807,-0.24237,-0.866026,8.75443e-06,-0.208981,0,0.0031814,0.0284028,2.2329,5,0.1,4,4.7,-1.91336,-2.03759,1.2041,-0.103985,0.865368,0.080598,0.0184849,0.0263005,-0.0170842,0.0160534,2.26643,5,0.1,5,4.7,-3.33059,-3.76378,0.613532,-0.743595,-0.0121497,0.0147718,0.0966191,-0.0326633,0.0410564,0.00759001,0.57997,5,0.1,6,4.7,0.679962,0.143702,0.595462,0.41906,0.0037153,-0.0028112,0.159379,0.449107,-0.00378862,0.00602085,0.197922,5,0.1,7,4.7,-2.29014,-2.75217,0.593339,0.307332,0.218098,0.00174744,-0.211,0.122532,0.0102632,0.00943077,0.119647,5,0.1,8,4.7,-2.37122,-2.50346,0.713666,0.0578385,0.0326779,0.11366,0.00421703,-0.209317,0.165075,0.00813957,0.374503,5,0.1,9,4.7,1.63017,-3.39654,0.548839,-0.00345018,0.000508875,0.000306778,0.0118092,-0.00169873,-0.00108033,0.00831723,7.25588e-06,5,0.1,10,4.7,-3.15013,0.12951,1.34761,5.73695e-05,-0.829938,0.00119358,0.000178814,-0.101424,0.00160933,0.0112068,1.24803,5,0.1,11,4.7,-1.81687,-0.466643,0.500001,-0.654262,0.0164196,2.79397e-07,1.20202,0.00232644,1.11759e-05,0.00953438,1.31399,5,0.1,12,4.7,-0.05059,3.06982,0.59964,0.17261,-0.866026,2.15136e-05,0.00967767,0,3.72529e-06,0.0264641,2.25237,5,0.1,13,4.7,-3.8368,-2.63192,0.608883,0.781497,-0.246863,0.00515422,-0.287831,0.199527,-0.00410154,0.00747393,0.46197,5,0.1,14,4.7,-0.314028,1.22655,0.601363,-0.0434164,0.354012,-0.00165561,-0.361677,-0.213139,0.000800937,0.00673539,0.15464,5,0.1,15,4.7,0.183221,-2.84602,1.30555,-0.55448,-0.00384934,0.0434142,0.603061,0.0038594,-0.042811,0.0120877,1.07871,5,0.1,16,4.7,-3.90051,3.30946,1.34178,0.000496954,-0.440178,0.00855997,-0.000566244,0.165358,-0.0089556,0.0109822,0.188084,5,0.1,17,4.7,-2.61922,-2.53614,0.589735,0.189617,-0.0542089,-0.0204266,-0.236452,-0.0794828,-0.0793226,0.0100165,0.560786,5,0.1,18,4.7,0.36925,-0.0558282,0.598698,0.2862,-0.372121,0.00148341,0.351259,0.273144,-0.00172108,0.012382,1.99085,5,0.1,19,4.7,-0.282236,0.26199,0.613163,0.209831,0.333526,0.030515,0.00162795,0.872684,0.00902265,0.00841821,0.865676,5,0.1
0,4.8,0.511974,-1.59697,0.621982,-0.0317931,0.866026,-0.00485927,-0.351965,0,-0.010848,0.0109142,2.27089,5,0.1,1,4.8,0.199917,-2.51689,0.623673,0.0630505,-0.267702,0.00454187,-0.0818968,0.328422,-0.00616908,0.00985678,0.00444578,5,0.1,2,4.8,0.233447,0.566233,0.599631,0.082913,-0.753275,0.000312924,0.315592,0.151753,-0.000327826,0.018466,0.52594,5,0.1,3,4.8,1.43356,2.97638,1.34809,-0.263748,-0.866026,0.000286102,-0.194788,0,0.00232458,0.0269993,2.21247,5,0.1,4,4.8,-1.92365,-1.951,1.21207,-0.101563,0.866026,0.0785321,0.0337362,0,-0.0272393,0.0159508,2.26216,5,0.1,5,4.8,-3.4043,-3.76515,0.615202,-0.728512,-0.0151038,0.018473,0.231028,-0.0251532,0.0314713,0.0080423,0.409331,5,0.1,6,4.8,0.722385,0.146283,0.595164,0.426361,0.0471573,-0.00312328,-0.0228286,0.404924,-0.00226498,0.0254951,0.805337,5,0.1,7,4.8,-2.26048,-2.72988,0.59356,0.285447,0.226355,0.00262558,-0.234127,0.0350475,0.00718236,0.00922198,0.140173,5,0.1,8,4.8,-2.36513,-2.50113,0.725881,0.0662446,0.0151992,0.130492,0.139713,-0.139832,0.157386,0.00761087,0.311739,5,0.1,9,4.8,1.62988,-3.39649,0.548865,-0.00231564,0.000345707,0.000202656,0.0107288,-0.00166893,-0.000953674,0.00894253,5.92767e-06,5,0.1,10,4.8,-3.15013,0.0460881,1.34774,7.15256e-05,-0.836581,0.00132322,0.000119209,0.0122809,0.000953674,0.0109746,1.52474,5,0.1,11,4.8,-1.87603,-0.465003,0.500001,-0.527585,0.0162646,0,1.29133,-0.00549853,0,0.00837004,1.2529,5,0.1,12,4.8,-0.0333131,2.98322,0.599643,0.172408,-0.866026,2.38419e-05,-0.0212571,0,2.98023e-05,0.024402,2.25256,5,0.1,13,4.8,-3.76025,-2.6556,0.609378,0.747406,-0.22651,0.00473559,-0.414848,0.212908,-0.00438094,0.00733188,0.314446,5,0.1,14,4.8,-0.320261,1.26083,0.601202,-0.0815079,0.330916,-0.00156462,-0.378057,-0.256538,0.000983477,0.00721384,0.111539,5,0.1,15,4.8,0.131162,-2.84639,1.30968,-0.483711,-0.00348091,0.0392258,0.783302,0.00393391,-0.0419021,0.0119031,1.00324,5,0.1,16,4.8,-3.90047,3.2663,1.34259,0.000441074,-0.42243,0.00768304,-0.000476837,0.205636,-0.00882149,0.0106159,1.78874,5,0.1,17,4.8,-2.6014,-2.54198,0.587273,0.166959,-0.0626981,-0.0288948,-0.220895,-0.0824928,-0.0843406,0.0108118,1.32838,5,0.1,18,4.8,0.4,-0.0916488,0.598838,0.332475,-0.34382,0.00131577,0.560671,0.301145,-0.00169873,0.0118482,1.66255,5,0.1,19,4.8,-0.261322,0.299473,0.616244,0.207518,0.412893,0.0309303,-0.0539944,0.67997,-0.00169873,0.00859239,0.656913,5,0.1
0,4.9,0.507096,-1.51037,0.621442,-0.064952,0.866026,-0.00592107,-0.303056,0,-0.0098832,0.0109142,2.27089,5,0.1,1,4.9,0.205821,-2.54202,0.624097,0.0550963,-0.235048,0.00394629,-0.0778902,0.32638,-0.00579283,0.00985678,0.00444578,5,0.1,2,4.9,0.243027,0.491601,0.599661,0.105929,-0.73922,0.000284892,0.150374,0.158753,-0.000249594,0.018466,0.52594,5,0.1,3,4.9,1.40602,2.88978,1.34813,-0.288195,-0.866026,0.000496395,-0.265718,0,0.00184029,0.0269993,2.21247,5,0.1,4,4.9,-1.93367,-1.8644,1.21982,-0.099186,0.866026,0.0766441,0.0192299,0,-0.0148118,0.0159508,2.26216,5,0.1,5,4.9,-3.47613,-3.76678,0.617206,-0.70842,-0.0175685,0.0215422,0.200838,-0.0228286,0.0282973,0.0080423,0.409331,5,0.1,6,4.9,0.763542,0.152688,0.594851,0.384905,0.0777597,-0.0030241,-0.736501,0.214063,0.00372902,0.0254951,0.805337,5,0.1,7,4.9,-2.23288,-2.70691,0.59386,0.268393,0.23416,0.00337316,-0.125721,0.100657,0.00735745,0.00922198,0.140173,5,0.1,8,4.9,-2.35757,-2.50019,0.73991,0.0867911,0.00463016,0.151462,0.248969,-0.0744611,0.239678,0.00761087,0.311739,5,0.1,9,4.9,1.6297,-3.39647,0.54888,-0.00129491,0.0001885,0.000111852,0.00953674,-0.00146031,-0.000845641,0.00894253,5.92767e-06,5,0.1,10,4.9,-3.15012,-0.0378244,1.34788,8.15839e-05,-0.843465,0.00140835,7.45058e-05,-0.097017,0.000692904,0.0109746,1.52474,5,0.1,11,4.9,-1.92226,-0.463408,0.500001,-0.397676,0.015581,0,1.24779,-0.00838749,0,0.00837004,1.2529,5,0.1,12,4.9,-0.0161101,2.89662,0.599645,0.172064,-0.866026,2.84053e-05,0.00383891,0,5.58794e-05,0.024402,2.25256,5,0.1,13,4.9,-3.68746,-2.67725,0.609831,0.708982,-0.206944,0.00433326,-0.378624,0.184953,-0.00380725,0.00733188,0.314446,5,0.1,14,4.9,-0.330053,1.29267,0.60105,-0.111856,0.305926,-0.00146786,-0.229642,-0.250518,0.000994653,0.00721384,0.111539,5,0.1,15,4.9,0.0870309,-2.84672,1.31341,-0.39717,-0.00312962,0.0354506,0.890238,0.00320375,-0.034824,0.0119031,1.00324,5,0.1,16,4.9,-3.90042,3.22387,1.34332,0.000398234,-0.436092,0.00688098,-0.000402331,-0.391617,-0.00743568,0.0106159,1.78874,5,0.1,17,4.9,-2.5854,-2.5488,0.58387,0.156439,-0.0747129,-0.0398362,-0.0151247,-0.144124,-0.124983,0.0108118,1.32838,5,0.1,18,4.9,0.436771,-0.124612,0.598961,0.408202,-0.316068,0.00116033,0.878077,0.26394,-0.00144169,0.0118482,1.66255,5,0.1,19,4.9,-0.240828,0.344164,0.619328,0.202291,0.479971,0.0307051,-0.0579525,0.624286,-0.00393391,0.00859239,0.656913,5,0.1
