id,t,px,py,pz,vx,vy,vz,ax,ay,az,planning_time,qp_cost,planning_report,size,id,t,px,py,pz,vx,vy,vz,ax,ay,az,planning_time,qp_cost,planning_report,size,id,t,px,py,pz,vx,vy,vz,ax,ay,az,planning_time,qp_cost,planning_report,size,id,t,px,py,pz,vx,vy,vz,ax,ay,az,planning_time,qp_cost,planning_report,size,id,t,px,py,pz,vx,vy,vz,ax,ay,az,planning_time,qp_cost,planning_report,size,id,t,px,py,pz,vx,vy,vz,ax,ay,az,planning_time,qp_cost,planning_report,size,id,t,px,py,pz,vx,vy,vz,ax,ay,az,planning_time,qp_cost,planning_report,size,id,t,px,py,pz,vx,vy,vz,ax,ay,az,planning_time,qp_cost,planning_report,size,id,t,px,py,pz,vx,vy,vz,ax,ay,az,planning_time,qp_cost,planning_report,size,id,t,px,py,pz,vx,vy,vz,ax,ay,az,planning_time,qp_cost,planning_report,size,id,t,px,py,pz,vx,vy,vz,ax,ay,az,planning_time,qp_cost,planning_report,size,id,t,px,py,pz,vx,vy,vz,ax,ay,az,planning_time,qp_cost,planning_report,size,id,t,px,py,pz,vx,vy,vz,ax,ay,az,planning_time,qp_cost,planning_report,size,id,t,px,py,pz,vx,vy,vz,ax,ay,az,planning_time,qp_cost,planning_report,size,id,t,px,py,pz,vx,vy,vz,ax,ay,az,planning_time,qp_cost,planning_report,size,id,t,px,py,pz,vx,vy,vz,ax,ay,az,planning_time,qp_cost,planning_report,size,id,t,px,py,pz,vx,vy,vz,ax,ay,az,planning_time,qp_cost,planning_report,size,id,t,px,py,pz,vx,vy,vz,ax,ay,az,planning_time,qp_cost,planning_report,size,id,t,px,py,pz,vx,vy,vz,ax,ay,az,planning_time,qp_cost,planning_report,size,id,t,px,py,pz,vx,vy,vz,ax,ay,az,planning_time,qp_cost,planning_report,size
0,0,1.4457,1.70696,0.576876,0,0,0,0,0,0,0.0446713,3.5122,5,0.1,1,0,-1.36373,-0.261318,0.658345,0,0,0,0,0,0,0.0109196,2.83588,5,0.1,2,0,3.93212,-5.01888,0.567479,0,0,0,0,0,0,0.0317582,3.5122,5,0.1,3,0,0.239586,3.28219,0.635776,0,0,0,0,0,0,0.0308239,3.51219,5,0.1,4,0,-4.46619,2.5814,0.627984,0,0,0,0,0,0,0.0106229,0.398352,5,0.1,5,0,1.31152,-3.24884,0.623387,0,0,0,0,0,0,0.0143184,2.4474,5,0.1,6,0,-1.32808,5.19185,0.68052,0,0,0,0,0,0,0.0111334,3.5122,5,0.1,7,0,2.1273,-0.585585,0.571902,0,0,0,0,0,0,0.00760773,3.64953,5,0.1,8,0,-1.65962,-4.34156,0.650137,0,0,0,0,0,0,0.0127941,3.51219,5,0.1,9,0,5.79501,1.79137,0.61637,0,0,0,0,0,0,0.0123583,3.5122,5,0.1,10,0,2.0446,1.82906,0.56344,0,0,0,0,0,0,0.0141371,3.51219,5,0.1,11,0,3.75562,-5.69121,0.51942,0,0,0,0,0,0,0.0225207,3.51219,5,0.1,12,0,-2.38516,-0.223546,0.523746,0,0,0,0,0,0,0.0112554,0.563445,5,0.1,13,0,2.20734,-2.1296,0.676095,0,0,0,0,0,0,0.00938017,0.387445,5,0.1,14,0,-3.31318,2.25192,0.613038,0,0,0,0,0,0,0.00904838,3.5122,5,0.1,15,0,0.104937,0.272003,0.683345,0,0,0,0,0,0,0.00970276,3.5122,5,0.1,16,0,4.0054,-4.30796,0.629435,0,0,0,0,0,0,0.0137278,0.330044,5,0.1,17,0,0.814535,-2.69091,0.640747,0,0,0,0,0,0,0.00959347,3.51219,5,0.1,18,0,2.75177,-2.47483,0.692438,0,0,0,0,0,0,0.0155759,1.07369,5,0.1,19,0,4.63365,0.845347,0.627784,0,0,0,0,0,0,0.00809577,0.447628,5,0.1
0,0.1,1.4444,1.70859,0.576894,-0.0369107,0.0463691,0.000488851,-0.65618,0.824332,0.0086911,0.0446713,3.5122,5,0.1,1,0.1,-1.3656,-0.261515,0.658284,-0.0529345,-0.00559147,-0.001729,-0.941053,-0.0994019,-0.0307374,0.0109196,2.83588,5,0.1,2,0.1,3.93198,-5.01679,0.567493,-0.00391267,0.0591375,0.000383332,-0.0695735,1.05134,0.00680983,0.0317582,3.5122,5,0.1,3,0.1,0.2391,3.28016,0.635762,-0.0138097,-0.0576358,-0.000383053,-0.245506,-1.02462,-0.00680611,0.0308239,3.51219,5,0.1,4,0.1,-4.46625,2.5819,0.628767,-0.00177994,0.0141472,0.0222284,-0.0316203,0.251293,0.394821,0.0106229,0.398352,5,0.1,5,0.1,1.30999,-3.24921,0.624145,-0.043311,-0.010407,0.0215326,-0.769973,-0.185013,0.382803,0.0143184,2.4474,5,0.1,6,0.1,-1.32669,5.1903,0.680461,0.0395497,-0.0441104,-0.00166353,0.703119,-0.784218,-0.0295714,0.0111334,3.5122,5,0.1,7,0.1,2.12728,-0.586565,0.571852,-0.000385568,-0.0278029,-0.00141999,-0.00686944,-0.494268,-0.0252463,0.00760773,3.64953,5,0.1,8,0.1,-1.6592,-4.33952,0.650114,0.0117632,0.0580847,-0.00064848,0.209115,1.03265,-0.0115298,0.0127941,3.51219,5,0.1,9,0.1,5.79292,1.79149,0.616357,-0.0591621,0.00354834,-0.000366196,-1.05172,0.0630766,-0.00651181,0.0123583,3.5122,5,0.1,10,0.1,2.043,1.83039,0.563464,-0.0455994,0.0378551,0.000668224,-0.810638,0.672989,0.01188,0.0141371,3.51219,5,0.1,11,0.1,3.75354,-5.69137,0.519352,-0.0590686,-0.00445619,-0.00194749,-1.05013,-0.0791848,-0.0346191,0.0225207,3.51219,5,0.1,12,0.1,-2.38596,-0.223782,0.523669,-0.0226654,-0.00671076,-0.00218535,-0.402927,-0.119303,-0.0388511,0.0112554,0.563445,5,0.1,13,0.1,2.20658,-2.1301,0.676232,-0.0214554,-0.0142433,0.00389256,-0.381082,-0.252962,0.0691414,0.00938017,0.387445,5,0.1,14,0.1,-3.31115,2.25145,0.613056,0.0577547,-0.0133,0.000525452,1.02675,-0.236422,0.00934303,0.00904838,3.5122,5,0.1,15,0.1,0.104949,0.269916,0.683283,0.0003458,-0.0592417,-0.00174176,0.00614766,-1.05318,-0.0309646,0.00970276,3.5122,5,0.1,16,0.1,4.00482,-4.3077,0.629404,-0.0164591,0.00764579,-0.000872277,-0.292629,0.135899,-0.0155047,0.0137278,0.330044,5,0.1,17,0.1,0.816588,-2.69128,0.640785,0.058283,-0.010708,0.0010781,1.03614,-0.190347,0.0191703,0.00959347,3.51219,5,0.1,18,0.1,2.75062,-2.47475,0.692498,-0.0326499,0.00221729,0.00170562,-0.58046,0.0394285,0.0303239,0.0155759,1.07369,5,0.1,19,0.1,4.63335,0.846031,0.627755,-0.008405,0.0193999,-0.000823382,-0.149459,0.344891,-0.0146367,0.00809577,0.447628,5,0.1
0,0.2,1.4369,1.71801,0.576993,-0.116655,0.14655,0.00154525,-0.874937,1.09911,0.0115931,0.0178836,2.9264,5,0.1,1,0.2,-1.37635,-0.262651,0.657933,-0.167298,-0.017672,-0.00546426,-1.2548,-0.132531,-0.041008,0.0184092,2.32669,5,0.1,2,0.2,3.93119,-5.00478,0.567571,-0.012368,0.186908,0.00121146,-0.092864,1.40166,0.00908971,0.0374531,2.94437,5,0.1,3,0.2,0.236295,3.26845,0.635685,-0.0436451,-0.182158,-0.00121146,-0.327349,-1.36614,-0.00905991,0.0310117,2.9258,5,0.1,4,0.2,-4.46661,2.58477,0.633278,-0.00562668,0.0446379,0.0701278,-0.0417233,0.333786,0.52458,0.0126525,0.279341,5,0.1,5,0.2,1.3012,-3.25132,0.628519,-0.136885,-0.0328839,0.0680536,-1.02657,-0.246763,0.510395,0.0123373,2.00797,5,0.1,6,0.2,-1.31865,5.18134,0.680123,0.124997,-0.139415,-0.00525713,0.937462,-1.04547,-0.0394583,0.0111923,2.9258,5,0.1,7,0.2,2.12721,-0.592212,0.571563,-0.0012219,-0.0878707,-0.00448823,-0.00917912,-0.659019,-0.0336468,0.00967509,3.59366,5,0.1,8,0.2,-1.65682,-4.32772,0.649983,0.0371784,0.183582,-0.00204891,0.278831,1.37663,-0.015378,0.0117016,2.92582,5,0.1,9,0.2,5.7809,1.79221,0.616283,-0.18698,0.0112146,-0.00115782,-1.40238,0.0841022,-0.00867248,0.0130335,2.92578,5,0.1,10,0.2,2.03373,1.83808,0.5636,-0.144112,0.119638,0.00211298,-1.08099,0.897348,0.015825,0.0164141,2.92578,5,0.1,11,0.2,3.74154,-5.69227,0.518956,-0.186682,-0.0140786,-0.00615418,-1.40023,-0.105381,-0.0461638,0.0223292,2.92579,5,0.1,12,0.2,-2.39056,-0.225145,0.523225,-0.0716329,-0.0212096,-0.00690669,-0.537276,-0.15907,-0.0518262,0.0092059,0.462277,5,0.1,13,0.2,2.20223,-2.13299,0.677022,-0.067687,-0.0449359,0.0122815,-0.506401,-0.336051,0.0918508,0.011828,0.27169,5,0.1,14,0.2,-3.29941,2.24875,0.613163,0.182533,-0.0420332,0.00166148,1.36888,-0.315309,0.0124276,0.00968392,2.9258,5,0.1,15,0.2,0.105019,0.257882,0.682929,0.001093,-0.187233,-0.00550449,0.00819564,-1.40424,-0.0412762,0.00791601,2.92579,5,0.1,16,0.2,4.00148,-4.30614,0.629227,-0.0520229,0.0241637,-0.00275671,-0.389934,0.181198,-0.0206828,0.0131337,0.27079,5,0.1,17,0.2,0.828427,-2.69346,0.641004,0.184202,-0.0338435,0.0034079,1.38155,-0.253797,0.0255406,0.011213,2.92579,5,0.1,18,0.2,2.74399,-2.4743,0.692844,-0.103194,0.00700951,0.00539124,-0.773787,0.0524521,0.0404418,0.0141476,0.880914,5,0.1,19,0.2,4.63165,0.849971,0.627588,-0.0265598,0.0613138,-0.00260174,-0.199318,0.45985,-0.0195205,0.0105092,0.367257,5,0.1
0,0.3,1.4203,1.73873,0.577211,-0.219136,0.271418,0.00286223,-1.10826,1.32342,0.0139587,0.0178836,2.9264,5,0.1,1,0.3,-1.40005,-0.265154,0.657159,-0.311236,-0.032875,-0.0101672,-1.53543,-0.162181,-0.0501648,0.0184092,2.32669,5,0.1,2,0.3,3.92942,-4.9787,0.567731,-0.023545,0.336567,0.00192802,-0.122979,1.51739,0.00532717,0.0374531,2.94437,5,0.1,3,0.3,0.23011,3.24264,0.635513,-0.0812929,-0.339278,-0.00225427,-0.402299,-1.67897,-0.0111498,0.0310117,2.9258,5,0.1,4,0.3,-4.4674,2.59105,0.643139,-0.0102788,0.0817824,0.1285,-0.0486374,0.387922,0.609565,0.0126525,0.279341,5,0.1,5,0.3,1.28181,-3.25598,0.638158,-0.254646,-0.0611875,0.126602,-1.25623,-0.301912,0.62456,0.0123373,2.00797,5,0.1,6,0.3,-1.30094,5.16158,0.679378,0.232814,-0.259657,-0.00979407,1.15212,-1.28496,-0.0484772,0.0111923,2.9258,5,0.1,7,0.3,2.12703,-0.603832,0.570927,-0.00227541,-0.140107,-0.00835368,-0.0112355,-0.393134,-0.0412725,0.00967509,3.59366,5,0.1,8,0.3,-1.65155,-4.3017,0.649692,0.0692464,0.341914,-0.00381712,0.342682,1.69197,-0.0188947,0.0117016,2.92582,5,0.1,9,0.3,5.75441,1.7938,0.616119,-0.348263,0.0208871,-0.00215536,-1.72344,0.103362,-0.0106581,0.0130335,2.92578,5,0.1,10,0.3,2.01331,1.85503,0.563899,-0.268431,0.22284,0.00393353,-1.32845,1.1028,0.0194609,0.0164141,2.92578,5,0.1,11,0.3,3.71509,-5.69427,0.518084,-0.347717,-0.0262059,-0.0114636,-1.7208,-0.12961,-0.0567324,0.0223292,2.92579,5,0.1,12,0.3,-2.40071,-0.228149,0.522246,-0.133264,-0.0394566,-0.0128509,-0.657424,-0.194651,-0.0634044,0.0092059,0.462277,5,0.1,13,0.3,2.19271,-2.13931,0.678749,-0.124034,-0.0823315,0.0225027,-0.588387,-0.390515,0.106741,0.011828,0.27169,5,0.1,14,0.3,-3.27355,2.2428,0.613398,0.33997,-0.0782955,0.00309171,1.68239,-0.387475,0.0152923,0.00968392,2.9258,5,0.1,15,0.3,0.105174,0.23135,0.682149,0.0020356,-0.348734,-0.010252,0.0100727,-1.72578,-0.0507385,0.00791601,2.92579,5,0.1,16,0.3,3.99411,-4.30272,0.628836,-0.0967592,0.0449479,-0.00512917,-0.477284,0.221729,-0.0253022,0.0131337,0.27079,5,0.1,17,0.3,0.85453,-2.69825,0.641487,0.343092,-0.0630334,0.00634575,1.69787,-0.311911,0.0314005,0.011213,2.92579,5,0.1,18,0.3,2.72937,-2.4733,0.693608,-0.19196,0.0130303,0.0100301,-0.946969,0.0642538,0.049483,0.0141476,0.880914,5,0.1,19,0.3,4.62788,0.858655,0.627219,-0.0494227,0.114064,-0.00484074,-0.243843,0.562713,-0.0238828,0.0105092,0.367257,5,0.1
0,0.4,1.39291,1.77235,0.577566,-0.326744,0.398237,0.00419915,-0.994742,1.15782,0.012219,0.0181594,2.51048,5,0.1,1,0.4,-1.43871,-0.269238,0.655896,-0.459,-0.0484824,-0.014995,-1.35469,-0.143096,-0.0442564,0.010807,1.8409,5,0.1,2,0.4,3.92645,-4.93777,0.567944,-0.0356138,0.477588,0.00229478,-0.112772,1.24955,0.00205636,0.035387,2.7402,5,0.1,3,0.4,0.220003,3.20046,0.635233,-0.120053,-0.501043,-0.00332743,-0.355706,-1.48451,-0.00989437,0.0307674,2.51123,5,0.1,4,0.4,-4.46867,2.60111,0.658952,-0.0149012,0.118548,0.186276,-0.0414848,0.332117,0.52166,0.0123395,0.18396,5,0.1,5,0.4,1.25018,-3.26358,0.653885,-0.375545,-0.0902355,0.18671,-1.10829,-0.266433,0.550985,0.0116038,1.58873,5,0.1,6,0.4,-1.27199,5.1293,0.67816,0.34382,-0.383461,-0.0144646,1.01864,-1.13606,-0.0428557,0.0131777,2.51009,5,0.1,7,0.4,2.12675,-0.619421,0.569889,-0.0033617,-0.167954,-0.0123292,-0.00989437,-0.170887,-0.0364482,0.00609037,3.6296,5,0.1,8,0.4,-1.64294,-4.2592,0.649218,0.102264,0.504935,-0.00563711,0.30297,1.49608,-0.0167191,0.0117707,2.51214,5,0.1,9,0.4,5.71111,1.7964,0.615851,-0.514317,0.0308454,-0.00318289,-1.52373,0.0913739,-0.00944734,0.0175389,2.51526,5,0.1,10,0.4,1.97994,1.88274,0.564388,-0.396422,0.329089,0.00580847,-1.17451,0.975132,0.0171959,0.0121666,2.51006,5,0.1,11,0.4,3.67186,-5.69753,0.516659,-0.513512,-0.0387073,-0.0169292,-1.52147,-0.114441,-0.0501573,0.0224769,2.51499,5,0.1,12,0.4,-2.41726,-0.233051,0.52065,-0.196534,-0.0581898,-0.0189513,-0.580072,-0.171721,-0.0559688,0.0102184,0.365758,5,0.1,13,0.4,2.17744,-2.14944,0.681518,-0.179803,-0.119346,0.0326201,-0.50354,-0.334382,0.0913441,0.0191476,0.17892,5,0.1,14,0.4,-3.23128,2.23306,0.613783,0.502068,-0.115621,0.00456572,1.48761,-0.342727,0.0135005,0.0102803,2.51144,5,0.1,15,0.4,0.105427,0.187994,0.680875,0.00300631,-0.515009,-0.0151396,0.00890344,-1.5259,-0.0448823,0.0121143,2.51557,5,0.1,16,0.4,3.98209,-4.29714,0.628199,-0.142699,0.0662923,-0.00756383,-0.421047,0.195503,-0.0223517,0.018687,0.728432,5,0.1,17,0.4,0.897185,-2.70609,0.642276,0.506677,-0.0930846,0.00937134,1.50123,-0.27585,0.027746,0.0120714,2.51258,5,0.1,18,0.4,2.70553,-2.47169,0.694854,-0.283098,0.0192165,0.0147924,-0.835419,0.0566244,0.0436306,0.0172699,0.696994,5,0.1,19,0.4,4.62174,0.872825,0.626618,-0.0728965,0.168218,-0.00714064,-0.214815,0.496477,-0.0210404,0.00887657,0.290578,5,0.1
0,0.5,1.3551,1.81811,0.578048,-0.429674,0.516907,0.00545112,-1.01034,1.15506,0.0121854,0.0181594,2.51048,5,0.1,1,0.5,-1.49151,-0.274815,0.654171,-0.596445,-0.0630006,-0.019485,-1.32677,-0.140147,-0.0433363,0.010807,1.8409,5,0.1,2,0.5,3.92238,-4.88452,0.568149,-0.0452999,0.579507,0.00149347,-0.0793487,0.779599,-0.0160113,0.035387,2.7402,5,0.1,3,0.5,0.206169,3.14283,0.634849,-0.156656,-0.650691,-0.00434499,-0.357531,-1.43571,-0.00993162,0.0307674,2.51123,5,0.1,4,0.5,-4.47036,2.6146,0.680151,-0.0189245,0.150701,0.236783,-0.0373125,0.297442,0.467259,0.0123395,0.18396,5,0.1,5,0.5,1.20698,-3.27396,0.675361,-0.487993,-0.117264,0.242613,-1.0855,-0.260904,0.53966,0.0116038,1.58873,5,0.1,6,0.5,-1.23237,5.08511,0.676494,0.448643,-0.50037,-0.0188743,1.0239,-1.14194,-0.0430755,0.0131777,2.51009,5,0.1,7,0.5,2.12636,-0.636449,0.56847,-0.00437237,-0.167514,-0.0160521,-0.00979006,0.136636,-0.0361353,0.00609037,3.6296,5,0.1,8,0.5,-1.63115,-4.20115,0.648568,0.133441,0.654739,-0.00735717,0.304535,1.4286,-0.0167973,0.0117707,2.51214,5,0.1,9,0.5,5.65207,1.79995,0.615484,-0.66449,0.0402486,-0.00415454,-1.4115,0.0918433,-0.00948831,0.0175389,2.51526,5,0.1,10,0.5,1.93426,1.92066,0.565057,-0.517282,0.429432,0.00757845,-1.18054,0.980102,0.0172965,0.0121666,2.51006,5,0.1,11,0.5,3.61291,-5.70198,0.514729,-0.663661,-0.0504918,-0.0214936,-1.41297,-0.115126,-0.039801,0.0224769,2.51499,5,0.1,12,0.5,-2.43987,-0.239744,0.518473,-0.255387,-0.0756127,-0.0245361,-0.568122,-0.16819,-0.053145,0.0102184,0.365758,5,0.1,13,0.5,2.15698,-2.16302,0.68523,-0.228554,-0.151719,0.0414641,-0.451013,-0.299469,0.081826,0.0191476,0.17892,5,0.1,14,0.5,-3.17354,2.21974,0.614309,0.651761,-0.150885,0.00595581,1.43385,-0.34444,0.0135899,0.0102803,2.51144,5,0.1,15,0.5,0.105773,0.128884,0.67913,0.00392258,-0.665217,-0.0197576,0.00895048,-1.41024,-0.0451058,0.0121143,2.51557,5,0.1,16,0.5,3.96521,-4.28951,0.627329,-0.198758,0.0861317,-0.00983085,-0.649542,0.19151,-0.0218749,0.018687,0.728432,5,0.1,17,0.5,0.955411,-2.71682,0.643356,0.656552,-0.121469,0.012227,1.42543,-0.277236,0.027895,0.0120714,2.51258,5,0.1,18,0.5,2.67296,-2.46948,0.696555,-0.367862,0.0249647,0.0192197,-0.818282,0.0554919,0.042744,0.0172699,0.696994,5,0.1,19,0.5,4.61336,0.892175,0.625797,-0.0946984,0.21859,-0.00927588,-0.210524,0.486247,-0.0206195,0.00887657,0.290578,5,0.1
0,0.6,1.30742,1.87516,0.57865,-0.51966,0.618917,0.00652671,-0.751376,0.842512,0.00891089,0.0173457,2.21943,5,0.1,1,0.6,-1.55729,-0.281763,0.652022,-0.712875,-0.0752993,-0.0232875,-0.954449,-0.100821,-0.0311732,0.0106186,1.39525,5,0.1,2,0.6,3.91752,-4.82351,0.568202,-0.0512421,0.632358,-0.000536442,-0.0385046,0.275135,-0.0229776,0.0423419,2.73867,5,0.1,3,0.6,0.188839,3.07115,0.634368,-0.188345,-0.775951,-0.00522584,-0.262938,-1.01984,-0.00730157,0.0313284,2.30876,5,0.1,4,0.6,-4.47242,2.63101,0.705934,-0.0220656,0.175774,0.276163,-0.0247955,0.194669,0.305921,0.0107338,0.106479,5,0.1,5,0.6,1.15316,-3.28689,0.702118,-0.583249,-0.14016,0.289972,-0.78094,-0.187635,0.388205,0.0125816,1.18278,5,0.1,6,0.6,-1.18275,5.02976,0.674406,0.539398,-0.60159,-0.0226915,0.752926,-0.83971,-0.0316501,0.0115863,2.21917,5,0.1,7,0.6,2.12588,-0.652293,0.566697,-0.00523925,-0.147881,-0.0192389,-0.00715256,0.226587,-0.0262558,0.0078239,3.6161,5,0.1,8,0.6,-1.61639,-4.12912,0.647754,0.160432,0.778711,-0.00884533,0.223994,1.00279,-0.012368,0.011857,2.3157,5,0.1,9,0.6,5.57921,1.80441,0.615024,-0.785351,0.04839,-0.00499487,-0.961542,0.0675321,-0.00700355,0.0151402,2.3332,5,0.1,10,0.6,1.87703,1.96816,0.565896,-0.621915,0.516298,0.00911057,-0.868201,0.720799,0.0127256,0.0129909,2.21989,5,0.1,11,0.6,3.54011,-5.70757,0.512407,-0.784791,-0.0607014,-0.0246704,-0.964999,-0.084877,-0.0229478,0.0227357,2.04885,5,0.1,12,0.6,-2.46803,-0.248083,0.515776,-0.305241,-0.0903722,-0.0291452,-0.408649,-0.12099,-0.0371933,0.00955218,0.331185,5,0.1,13,0.6,2.1321,-2.17954,0.689745,-0.266564,-0.17696,0.0483617,-0.295281,-0.19598,0.053525,0.010592,0.136534,5,0.1,14,0.6,-3.10177,2.20305,0.614968,0.776678,-0.181413,0.00716001,1.01542,-0.253201,0.0100136,0.0111936,2.31057,5,0.1,15,0.6,0.106207,0.0559522,0.676944,0.00471584,-0.785851,-0.0237554,0.00658631,-0.958421,-0.03317,0.0115028,2.33457,5,0.1,16,0.6,3.94205,-4.28001,0.626245,-0.263762,0.102937,-0.0117511,-0.612855,0.137806,-0.0157356,0.0150393,0.577335,5,0.1,17,0.6,1.0276,-2.73026,0.644708,0.779945,-0.146043,0.0147,0.9951,-0.203848,0.0205338,0.00823106,2.3188,5,0.1,18,0.6,2.63239,-2.46672,0.698675,-0.439674,0.0298381,0.0229701,-0.588655,0.0400543,0.030756,0.0147149,0.518902,5,0.1,19,0.6,4.60292,0.916282,0.624774,-0.113177,0.261259,-0.0110865,-0.151396,0.34982,-0.0148118,0.0101069,0.21633,5,0.1
0,0.7,1.25164,1.94132,0.579348,-0.595263,0.703338,0.00741892,-0.713497,0.792257,0.008367,0.0173457,2.21943,5,0.1,1,0.7,-1.63271,-0.289788,0.64954,-0.78898,-0.0849783,-0.0262802,-0.55372,-0.0872277,-0.0269674,0.0106186,1.39525,5,0.1,2,0.7,3.91271,-4.75933,0.568006,-0.0405721,0.646812,-0.00361316,0.223041,0.00742078,-0.0360608,0.0423419,2.73867,5,0.1,3,0.7,0.168673,2.9895,0.633809,-0.214737,-0.847054,-0.00595842,-0.24826,-0.4206,-0.00689179,0.0313284,2.30876,5,0.1,4,0.7,-4.47474,2.64949,0.734958,-0.0242241,0.192716,0.302787,-0.0173748,0.135973,0.213701,0.0107338,0.106479,5,0.1,5,0.7,1.091,-3.30183,0.733023,-0.658222,-0.158173,0.327242,-0.675656,-0.162333,0.335887,0.0125816,1.18278,5,0.1,6,0.7,-1.12499,4.96535,0.671976,0.61498,-0.685884,-0.0258688,0.711046,-0.79304,-0.0298917,0.0115863,2.21917,5,0.1,7,0.7,2.12532,-0.66566,0.564643,-0.005937,-0.11848,-0.0218008,-0.0063926,0.289213,-0.0234619,0.0078239,3.6161,5,0.1,8,0.7,-1.59921,-4.04729,0.646807,0.182914,0.848014,-0.0100861,0.211462,0.404164,-0.0116713,0.011857,2.3157,5,0.1,9,0.7,5.49692,1.80959,0.614489,-0.850316,0.0551669,-0.00569699,-0.364691,0.0637397,-0.00659749,0.0151402,2.3332,5,0.1,10,0.7,1.81053,2.02345,0.566871,-0.706729,0.588825,0.0103752,-0.778295,0.683703,0.0117905,0.0129909,2.21989,5,0.1,11,0.7,3.45786,-5.71406,0.509879,-0.85008,-0.0689887,-0.0253909,-0.368014,-0.0760257,0.00681356,0.0227357,2.04885,5,0.1,12,0.7,-2.50057,-0.257871,0.512743,-0.344472,-0.106433,-0.0308811,-0.35356,-0.183708,0.000502914,0.00955218,0.331185,5,0.1,13,0.7,2.10407,-2.19804,0.694802,-0.292626,-0.191307,0.0522799,-0.212878,-0.0888407,0.0242628,0.010592,0.136534,5,0.1,14,0.7,-3.02007,2.18362,0.615734,0.847308,-0.206825,0.00816518,0.416249,-0.239044,0.00945851,0.0111936,2.31057,5,0.1,15,0.7,0.106712,-0.0263641,0.674401,0.00537684,-0.85049,-0.027084,0.00621704,-0.361704,-0.0313073,0.0115028,2.33457,5,0.1,16,0.7,3.91246,-4.26904,0.624992,-0.328514,0.116167,-0.0132613,-0.643596,0.119239,-0.0136122,0.0150393,0.577335,5,0.1,17,0.7,1.10952,-2.74589,0.646282,0.848442,-0.166502,0.0167606,0.396833,-0.192404,0.019379,0.00823106,2.3188,5,0.1,18,0.7,2.58553,-2.46354,0.701123,-0.496188,0.0336837,0.0259228,-0.509307,0.0346452,0.026606,0.0147149,0.518902,5,0.1,19,0.7,4.59086,0.944127,0.623592,-0.127717,0.294842,-0.0125092,-0.131041,0.302654,-0.0128299,0.0101069,0.21633,5,0.1
0,0.8,1.18892,2.01517,0.580127,-0.65437,0.768292,0.00810474,-0.435889,0.469804,0.00494719,0.013032,2.04208,5,0.1,1,0.8,-1.71363,-0.298662,0.646796,-0.821549,-0.0918172,-0.0283942,-0.0907779,-0.0457913,-0.0141561,0.0110048,1.1286,5,0.1,2,0.8,3.91,-4.69509,0.56746,-0.0117958,0.633025,-0.00731051,0.329733,-0.285149,-0.0360012,0.0391948,2.68529,5,0.1,3,0.8,0.146094,2.90349,0.633182,-0.23518,-0.866026,-0.00652671,-0.149079,0,-0.00411272,0.029028,2.22982,5,0.1,4,0.8,-4.47723,2.66929,0.766068,-0.0253677,0.201643,0.316814,-0.00476837,0.0373125,0.0587404,0.00948472,0.130414,5,0.1,5,0.8,1.02226,-3.31835,0.767197,-0.711197,-0.170898,0.353575,-0.354797,-0.0852346,0.1764,0.0122475,0.835103,5,0.1,6,0.8,-1.06033,4.89323,0.669256,0.673535,-0.751197,-0.0283316,0.427127,-0.476122,-0.0179112,0.0116627,2.04194,5,0.1,7,0.8,2.1247,-0.676396,0.56236,-0.00644326,-0.100508,-0.0236779,-0.00369549,0.0377297,-0.0129938,0.00689892,3.43552,5,0.1,8,0.8,-1.57998,-3.96125,0.645746,0.200328,0.866026,-0.0110462,0.126958,0,-0.00700355,0.012451,2.24594,5,0.1,9,0.8,5.4108,1.81539,0.61389,-0.866032,0.0604153,-0.00623912,0.000238419,0.0382662,-0.00399351,0.0180897,2.26908,5,0.1,10,0.8,1.73644,2.08538,0.56796,-0.769195,0.645244,0.0113368,-0.437021,0.41306,0.00694394,0.0124793,2.0565,5,0.1,11,0.8,3.37175,-5.72129,0.507411,-0.866026,-0.0750899,-0.0236273,0,-0.0424385,0.0269115,0.0223467,1.56829,5,0.1,12,0.8,-2.53654,-0.269425,0.509706,-0.372189,-0.124244,-0.0294194,-0.185728,-0.160351,0.0270307,0.00952277,0.24026,5,0.1,13,0.8,2.07396,-2.21743,0.700099,-0.307,-0.194472,0.053145,-0.0663996,0.0258684,-0.00712276,0.0114271,0.159624,5,0.1,14,0.8,-2.93406,2.16188,0.616593,0.866026,-0.226504,0.00894368,0,-0.143647,0.00569224,0.010447,2.23284,5,0.1,15,0.8,0.107278,-0.112493,0.671553,0.00588875,-0.866026,-0.0296623,0.00373274,4.76837e-06,-0.0187755,0.0101875,2.27122,5,0.1,16,0.8,3.8766,-4.25691,0.623608,-0.385869,0.125515,-0.0143275,-0.476241,0.0627041,-0.00715256,0.0185504,0.144077,5,0.1,17,0.8,1.19557,-2.7634,0.648045,0.866026,-0.182343,0.0183567,-5.96046e-05,-0.115514,0.0116229,0.0101142,2.24627,5,0.1,18,0.8,2.53372,-2.46002,0.70383,-0.53612,0.0364006,0.0280097,-0.267506,0.018239,0.0139773,0.0168594,0.368108,5,0.1,19,0.8,4.57752,0.974918,0.622286,-0.137997,0.31857,-0.0135139,-0.0686646,0.158906,-0.00676513,0.00857582,0.152742,5,0.1
0,0.9,1.12122,2.09445,0.580963,-0.69947,0.817013,0.00861762,-0.421099,0.453159,0.0047721,0.013032,2.04208,5,0.1,1,0.9,-1.795,-0.308062,0.643889,-0.795468,-0.0959666,-0.0296769,0.536546,-0.0328012,-0.010144,0.0110048,1.1286,5,0.1,2,0.9,3.91076,-4.63244,0.566567,0.0291284,0.626103,-0.0103627,0.460967,0.0812113,-0.0247918,0.0391948,2.68529,5,0.1,3,0.9,0.1218,2.81689,0.632508,-0.250597,-0.866026,-0.0069527,-0.143399,0,-0.00396371,0.029028,2.22982,5,0.1,4,0.9,-4.47979,2.68966,0.79793,-0.02556,0.205719,0.319118,0.00154972,0.0334978,-0.0201054,0.00948472,0.130414,5,0.1,5,0.9,0.949447,-3.33584,0.803396,-0.743346,-0.178622,0.369559,-0.254139,-0.0610352,0.126358,0.0122475,0.835103,5,0.1,6,0.9,-0.990747,4.81563,0.66633,0.717789,-0.800533,-0.0301884,0.412323,-0.459701,-0.0173077,0.0116627,2.04194,5,0.1,7,0.9,2.12404,-0.68658,0.559929,-0.00679046,-0.10914,-0.0249059,-0.00289083,-0.307716,-0.0103079,0.00689892,3.43552,5,0.1,8,0.9,-1.55936,-3.87464,0.644605,0.211392,0.866026,-0.0117737,0.0853911,0,-0.00679865,0.012451,2.24594,5,0.1,9,0.9,5.3242,1.82163,0.613246,-0.866023,0.0643564,-0.00664918,-2.98023e-05,0.0365153,-0.00378862,0.0180897,2.26908,5,0.1,10,0.9,1.65745,2.15206,0.569129,-0.808705,0.688073,0.0120252,-0.315949,0.399575,0.00613183,0.0124793,2.0565,5,0.1,11,0.9,3.28515,-5.72901,0.505207,-0.865931,-0.0790216,-0.0202316,0.0037998,-0.0323355,0.0395365,0.0223467,1.56829,5,0.1,12,0.9,-2.57465,-0.282696,0.506934,-0.389018,-0.141313,-0.0257114,-0.133023,-0.16832,0.0452399,0.00952277,0.24026,5,0.1,13,0.9,2.04313,-2.23674,0.705377,-0.307649,-0.191575,0.0523497,0.0554919,0.0388175,-0.0106357,0.0114271,0.159624,5,0.1,14,0.9,-2.84745,2.13848,0.617517,0.866026,-0.241331,0.00953097,0,-0.137702,0.00545382,0.010447,2.23284,5,0.1,15,0.9,0.107886,-0.199096,0.668489,0.00627424,-0.866025,-0.0316016,0.0035814,-2.98023e-07,-0.0180155,0.0101875,2.27122,5,0.1,16,0.9,3.83594,-4.24395,0.622128,-0.423958,0.134423,-0.0153435,-0.274912,0.102162,-0.0116527,0.0185504,0.144077,5,0.1,17,0.9,1.28218,-2.78223,0.649941,0.866025,-0.194246,0.0195545,1.49012e-05,-0.110358,0.0111051,0.0101142,2.24627,5,0.1,18,0.9,2.47894,-2.45635,0.706697,-0.557109,0.0366826,0.0292645,-0.133812,-0.01131,0.00980124,0.0168594,0.368108,5,0.1,19,0.9,4.56339,1.00753,0.620902,-0.144221,0.33297,-0.014127,-0.0492334,0.113819,-0.00485033,0.00857582,0.152742,5,0.1
0,1,1.04949,2.17805,0.581845,-0.730971,0.850224,0.00896752,-0.177741,0.175595,0.00184774,0.0137701,1.95852,5,0.1,1,1,-1.87131,-0.317772,0.640886,-0.726613,-0.0976466,-0.0301957,0.792682,0.00211596,0.000655651,0.0104949,0.916853,5,0.1,2,1,3.91601,-4.56926,0.565426,0.075525,0.637829,-0.0122353,0.445962,0.104666,-0.0125766,0.0399098,2.55106,5,0.1,3,1,0.0961388,2.73029,0.631796,-0.261177,-0.866026,-0.00724345,-0.0572354,0,-0.00160933,0.0307072,2.22532,5,0.1,4,1,-4.48232,2.71032,0.829563,-0.0249624,0.206548,0.311628,0.0104904,-0.0243187,-0.133961,0.0103105,0.267783,5,0.1,5,1,0.874235,-3.35392,0.840788,-0.756364,-0.181746,0.376032,0.0163019,0.00405312,-0.00810623,0.0132162,0.5679,5,0.1,6,1,-0.917237,4.73364,0.663238,0.748283,-0.834537,-0.0314683,0.165999,-0.185013,-0.00697374,0.0104994,1.95411,5,0.1,7,1,2.12335,-0.7,0.557399,-0.00696182,-0.168428,-0.0255287,-0.000476837,-0.844419,-0.0012815,0.00754807,3.03869,5,0.1,8,1,-1.53792,-3.78804,0.643399,0.215936,0.866026,-0.0122786,-0.000178814,0,-0.00274181,0.0163615,2.24458,5,0.1,9,1,5.23759,1.82822,0.612565,-0.866032,0.0670344,-0.00692755,0.000238419,0.0143647,-0.00146031,0.0133336,2.26917,5,0.1,10,1,1.57545,2.22255,0.570356,-0.826204,0.717729,0.0124484,-0.00935793,0.163198,0.00181794,0.0138808,2.00332,5,0.1,11,1,3.19861,-5.73703,0.503393,-0.864506,-0.0809193,-0.0159845,0.0302792,-0.00309944,0.0442564,0.0215464,1.19567,5,0.1,12,1,-2.61401,-0.297597,0.504606,-0.395828,-0.155739,-0.0207141,0.00846386,-0.111222,0.0531971,0.0109062,0.167904,5,0.1,13,1,2.01286,-2.25564,0.710541,-0.295693,-0.185585,0.0507101,0.183463,0.0854731,-0.0233054,0.0109225,0.14207,5,0.1,14,1,-2.76085,2.11377,0.618493,0.866026,-0.251466,0.00993311,0,-0.0545979,0.00217557,0.00947135,2.2289,5,0.1,15,1,0.108528,-0.285698,0.665254,0.00653788,-0.866026,-0.0329286,0.00142306,1.43051e-05,-0.00715256,0.012025,2.27114,5,0.1,16,1,3.79257,-4.23002,0.620538,-0.43925,0.143671,-0.0163957,-0.0253916,0.0724792,-0.00831485,0.0141961,0.0970266,5,0.1,17,1,1.36878,-2.80212,0.651943,0.866026,-0.202346,0.0203714,-5.96046e-05,-0.0433922,0.00432134,0.00953308,1.92334,5,0.1,18,1,2.42291,-2.45277,0.709657,-0.559896,0.0343919,0.0297517,0.0892878,-0.0332594,-0.000923872,0.0160999,0.266227,5,0.1,19,1,4.5488,1.04122,0.619473,-0.146747,0.338799,-0.0143766,0.00309944,-0.00733137,0.000327826,0.00820555,0.156737,5,0.1
0,1.1,0.975342,2.2638,0.582753,-0.752551,0.862912,0.00919988,-0.208832,0.0640601,0.00226125,0.0137701,1.95852,5,0.1,1,1.1,-1.93968,-0.327522,0.637871,-0.640339,-0.0972179,-0.0300631,0.83147,0.0100303,0.00310689,0.0104949,0.916853,5,0.1,2,1.1,3.92521,-4.50389,0.564182,0.103354,0.677872,-0.0122659,0.130296,0.600189,0.0101626,0.0399098,2.55106,5,0.1,3,1.1,0.0696791,2.64369,0.631063,-0.268172,-0.866026,-0.0074394,-0.0669669,0,-0.0018701,0.0307072,2.22532,5,0.1,4,1.1,-4.48476,2.73059,0.859988,-0.0237368,0.196313,0.296094,0.0143349,-0.171319,-0.180874,0.0103105,0.267783,5,0.1,5,1.1,0.798712,-3.37206,0.878335,-0.75305,-0.18094,0.374385,0.0776313,0.0187457,-0.038594,0.0132162,0.5679,5,0.1,6,1.1,-0.841408,4.64915,0.660049,0.768829,-0.855293,-0.0323321,0.199217,-0.187725,-0.00837818,0.0104994,1.95411,5,0.1,7,1.1,2.12265,-0.722289,0.55484,-0.00700057,-0.286786,-0.0256358,-2.98023e-05,-1.41306,0.000216067,0.00754807,3.03869,5,0.1,8,1.1,-1.51631,-3.70144,0.642155,0.216153,0.866026,-0.012613,-0.0051111,0,-0.00320002,0.0163615,2.24458,5,0.1,9,1.1,5.15099,1.83499,0.611865,-0.866023,0.0683116,-0.0070571,-2.98023e-05,0.00823289,-0.00083074,0.0133336,2.26917,5,0.1,10,1.1,1.49274,2.29528,0.571613,-0.827485,0.737314,0.0126778,0.0196993,0.185654,0.00207499,0.0138808,2.00332,5,0.1,11,1.1,3.11217,-5.74513,0.502015,-0.864854,-0.0810452,-0.0116047,-0.00624359,0.00372529,0.0425205,0.0215464,1.19567,5,0.1,12,1.1,-2.65353,-0.313732,0.502803,-0.394099,-0.166766,-0.0153538,0.0406057,-0.0993777,0.0528693,0.0109062,0.167904,5,0.1,13,1.1,1.98453,-2.27376,0.715492,-0.267991,-0.176587,0.0482557,0.356615,0.0986159,-0.0269115,0.0109225,0.14207,5,0.1,14,1.1,-2.67425,2.0883,0.619499,0.866026,-0.258054,0.0101951,0,-0.0623018,0.00247732,0.00947135,2.2289,5,0.1,15,1.1,0.109191,-0.372301,0.661918,0.0067107,-0.866025,-0.0337978,0.00164425,0,-0.00827387,0.012025,2.27114,5,0.1,16,1.1,3.7492,-4.21528,0.618856,-0.422062,0.150931,-0.0172271,0.344828,0.0641942,-0.00734255,0.0141961,0.0970266,5,0.1,17,1.1,1.45538,-2.82259,0.654003,0.866025,-0.206891,0.0208251,1.49012e-05,-0.0371039,0.00371039,0.00953308,1.92334,5,0.1,18,1.1,2.36763,-2.44959,0.712624,-0.542996,0.028469,0.0295348,0.251785,-0.0797957,-0.00436604,0.0160999,0.266227,5,0.1,19,1.1,4.53399,1.07505,0.618038,-0.150557,0.337312,-0.0143123,-0.064075,-0.0347868,0.00147894,0.00820555,0.156737,5,0.1
0,1.2,0.899293,2.35016,0.583681,-0.765093,0.861812,0.00932515,-0.0105798,-0.0844002,-5.96046e-05,0.0137781,1.94386,5,0.1,1,1.2,-2,-0.337157,0.634892,-0.570691,-0.0950485,-0.0293925,0.559211,0.0357032,0.0110567,0.0136279,0.747699,5,0.1,2,1.2,3.93581,-4.43293,0.563032,0.10522,0.7411,-0.0105321,-0.0761747,0.592709,0.0230372,0.0470687,2.35708,5,0.1,3,1.2,0.0426162,2.55708,0.630312,-0.271909,-0.866026,-0.00754297,0.00315666,0,2.98023e-05,0.0323393,2.22416,5,0.1,4,1.2,-4.48705,2.74918,0.888589,-0.0220537,0.17398,0.274825,0.0197887,-0.267148,-0.246674,0.0101474,0.429861,5,0.1,5,1.2,0.724081,-3.39,0.915438,-0.73625,-0.176895,0.366034,0.276536,0.0665188,-0.137508,0.0114273,0.377623,5,0.1,6,1.2,-0.76378,4.56296,0.656785,0.780369,-0.865149,-0.0328183,-0.000298023,0.0174046,2.98023e-05,0.00959287,1.9369,5,0.1,7,1.2,2.12195,-0.758228,0.552287,-0.00691414,-0.431803,-0.0253066,0.00190735,-1.40452,0.00706315,0.011031,2.61384,5,0.1,8,1.2,-1.4948,-3.61484,0.640882,0.213298,0.866026,-0.0127941,-0.058651,0,8.9407e-05,0.0115613,2.24595,5,0.1,9,1.2,5.06439,1.84183,0.611159,-0.866032,0.0681907,-0.00704229,0.000238419,-0.012517,0.0013113,0.0136742,2.26927,5,0.1,10,1.2,1.41037,2.36969,0.572887,-0.816244,0.747603,0.0127479,0.229418,-0.00941753,-0.00116229,0.0116058,2.01694,5,0.1,11,1.2,3.02579,-5.75319,0.501059,-0.860935,-0.0796676,-0.00761896,0.101805,0.0257492,0.0365973,0.0208293,0.88378,5,0.1,12,1.2,-2.69259,-0.330819,0.501524,-0.385314,-0.17394,-0.010334,0.144839,-0.0372976,0.0467002,0.0104689,0.114422,5,0.1,13,1.2,1.9597,-2.29088,0.72017,-0.226951,-0.165188,0.0451446,0.452399,0.131845,-0.0359714,0.010437,0.197276,5,0.1,14,1.2,-2.58765,2.06227,0.620527,0.866026,-0.261402,0.010328,0,0.00560284,-0.000178814,0.0108379,2.2283,5,0.1,15,1.2,0.109868,-0.458903,0.658508,0.00680052,-0.866025,-0.0342503,-0.000115484,-1.43051e-05,0.000625849,0.0114005,2.27113,5,0.1,16,1.2,3.70916,-4.19994,0.617105,-0.374818,0.155079,-0.0177011,0.579357,0.013113,-0.00149012,0.0142501,0.221139,5,0.1,17,1.2,1.54198,-2.84338,0.656096,0.866026,-0.208014,0.0209376,0,0.0215769,-0.00220537,0.00947134,1.49485,5,0.1,18,1.2,2.31487,-2.44718,0.715544,-0.509232,0.0193954,0.0287235,0.42367,-0.0972748,-0.0124574,0.0140381,0.217505,5,0.1,19,1.2,4.51861,1.10848,0.616619,-0.156903,0.329787,-0.0139922,-0.0519753,-0.123918,0.00524521,0.0103858,0.191343,5,0.1
0,1.3,0.822494,2.43626,0.584616,-0.77208,0.862205,0.00939183,-0.0833496,0.0403672,0.000841916,0.0137781,1.94386,5,0.1,1,1.3,-2.05504,-0.346487,0.632007,-0.53642,-0.0915191,-0.0282997,0.180393,0.0378396,0.0117123,0.0136279,0.747699,5,0.1,2,1.3,3.9457,-4.35571,0.562109,0.0904012,0.803272,-0.00779536,-0.206187,0.5925,0.0304431,0.0470687,2.35708,5,0.1,3,1.3,0.0153622,2.47048,0.629555,-0.273556,-0.866026,-0.00759326,-0.0203576,0,-0.000596046,0.0323393,2.22416,5,0.1,4,1.3,-4.48915,2.76511,0.914782,-0.0199378,0.14341,0.24847,0.022471,-0.333607,-0.280339,0.0101474,0.429861,5,0.1,5,1.3,0.651808,-3.40736,0.951369,-0.708912,-0.17032,0.35244,0.293098,0.0704527,-0.145726,0.0114273,0.377623,5,0.1,6,1.3,-0.685774,4.47646,0.653493,0.778717,-0.865117,-0.0330742,-0.0618063,0.00572205,-0.00318512,0.00959287,1.9369,5,0.1,7,1.3,2.12127,-0.808859,0.549789,-0.00673644,-0.582872,-0.0246551,0.00192225,-1.52978,0.00692904,0.011031,2.61384,5,0.1,8,1.3,-1.47371,-3.52823,0.639599,0.208808,0.866026,-0.0128752,-0.0413209,0,-0.000968575,0.0115613,2.24595,5,0.1,9,1.3,4.97779,1.8486,0.61046,-0.866023,0.0671795,-0.00693593,-2.98023e-05,-0.0107065,0.00112504,0.0136742,2.26927,5,0.1,10,1.3,1.32964,2.44462,0.57416,-0.800007,0.751973,0.0127363,0.137284,0.0537336,0.00019744,0.0116058,2.01694,5,0.1,11,1.3,2.93996,-5.76103,0.500466,-0.856848,-0.0771023,-0.00437563,0.0265539,0.0281036,0.0280105,0.0208293,0.88378,5,0.1,12,1.3,-2.73041,-0.348398,0.500708,-0.370997,-0.177398,-0.00615697,0.153482,-0.0239275,0.0365302,0.0104689,0.114422,5,0.1,13,1.3,1.93934,-2.30676,0.724512,-0.179663,-0.152694,0.0417352,0.48364,0.122562,-0.0334531,0.010437,0.197276,5,0.1,14,1.3,-2.50104,2.03609,0.621562,0.866026,-0.262557,0.0103772,0,-0.0140518,0.000581145,0.0108379,2.2283,5,0.1,15,1.3,0.110549,-0.545506,0.655077,0.00683618,-0.866026,-0.0344266,0.000440981,1.93715e-06,-0.0021942,0.0114005,2.27113,5,0.1,16,1.3,3.67483,-4.18445,0.615336,-0.309614,0.153913,-0.017567,0.705197,-0.0379086,0.00433624,0.0142501,0.221139,5,0.1,17,1.3,1.62858,-2.86409,0.65818,0.865867,-0.205992,0.0207317,-0.00633299,0.0272691,-0.00275299,0.00947134,1.49485,5,0.1,18,1.3,2.26628,-2.44583,0.718352,-0.460676,0.00684895,0.0273887,0.541568,-0.145063,-0.014849,0.0140381,0.217505,5,0.1,19,1.3,4.5024,1.14105,0.615237,-0.169174,0.32305,-0.0137079,-0.169188,-0.0335053,0.00141189,0.0103858,0.191343,5,0.1
0,1.4,0.745057,2.52254,0.585558,-0.773959,0.86109,0.00939816,0.0779927,-0.0988245,-0.00107288,0.011313,1.52781,5,0.1,1,1.4,-2.10804,-0.355427,0.629242,-0.525105,-0.08699,-0.0268981,0.0866652,0.0547022,0.0169277,0.00910178,0.57473,5,0.1,2,1.4,3.95359,-4.27279,0.561486,0.0665069,0.85032,-0.00466853,-0.260592,0.314236,0.0311732,0.047556,2.2915,5,0.1,3,1.4,-0.0120285,2.38388,0.628795,-0.273302,-0.866026,-0.00758916,0.0364739,0,0.00101328,0.0280021,2.23025,5,0.1,4,1.4,-4.49103,2.77774,0.938173,-0.0175595,0.109148,0.218841,0.025034,-0.343204,-0.311464,0.00951127,0.640084,5,0.1,5,1.4,0.582562,-3.424,0.985795,-0.673829,-0.161886,0.334997,0.4237,0.101805,-0.210643,0.0108724,0.248558,5,0.1,6,1.4,-0.608506,4.39013,0.650177,0.763184,-0.859356,-0.0331223,-0.268042,0.133276,0.00363588,0.0104614,2.13906,5,0.1,7,1.4,2.12061,-0.874414,0.547364,-0.00649095,-0.722781,-0.0237584,0.00321865,-1.20571,0.0116229,0.00731532,2.36781,5,0.1,8,1.4,-1.45307,-3.44163,0.63831,0.203305,0.866026,-0.0128627,-0.0757575,0,0.00172853,0.0128623,2.24807,5,0.1,9,1.4,4.89118,1.85524,0.609774,-0.866032,0.0655383,-0.00676662,0.000238419,-0.0240803,0.0025332,0.0138987,2.26953,5,0.1,10,1.4,1.25045,2.5199,0.575432,-0.781637,0.751024,0.0126615,0.259697,-0.102878,-0.00217557,0.0108146,2.05231,5,0.1,11,1.4,2.8546,-5.76858,0.500153,-0.847697,-0.0736237,-0.00204593,0.189066,0.0431538,0.0186265,0.0206047,0.630374,5,0.1,12,1.4,-2.76665,-0.366182,0.500256,-0.352633,-0.177399,-0.00306517,0.221968,0.029251,0.0252724,0.0100657,0.131838,5,0.1,13,1.4,1.92378,-2.3214,0.728514,-0.131953,-0.139928,0.0382483,0.462949,0.135899,-0.0370741,0.0100889,0.1935,5,0.1,14,1.4,-2.41444,2.00983,0.6226,0.866026,-0.261718,0.0103459,0,0.0410676,-0.00160933,0.00918165,2.22963,5,0.1,15,1.4,0.111233,-0.632109,0.651632,0.00682268,-0.866026,-0.0343561,-0.000987202,0,0.00497699,0.00906101,2.27115,5,0.1,16,1.4,3.64747,-4.16934,0.613612,-0.237268,0.147307,-0.0168115,0.726223,-0.0946522,0.0107884,0.0130577,0.420106,5,0.1,17,1.4,1.71509,-2.88448,0.660233,0.863495,-0.20116,0.0202432,-0.0506639,0.0751019,-0.00753999,0.0124257,1.12858,5,0.1,18,1.4,2.22307,-2.44589,0.721008,-0.402105,-0.00810623,0.0256538,0.624061,-0.147462,-0.020206,0.012485,0.199405,5,0.1,19,1.4,4.48461,1.17318,0.613874,-0.186527,0.319174,-0.0135452,-0.159979,-0.0604391,0.002563,0.0098704,0.117264,5,0.1
0,1.5,0.667886,2.6084,0.586494,-0.77011,0.857279,0.00933949,0.0379309,-0.0240505,-0.000566244,0.011313,1.52781,5,0.1,1,1.5,-2.1605,-0.363863,0.626634,-0.526693,-0.0817721,-0.0252837,-0.0762492,0.0521261,0.0161231,0.00910178,0.57473,5,0.1,2,1.5,3.95887,-4.1868,0.561177,0.0384711,0.865044,-0.00150595,-0.290126,0.0392497,0.0311658,0.047556,2.2915,5,0.1,3,1.5,-0.0392062,2.29728,0.628038,-0.270249,-0.866026,-0.00755815,0.0362682,0,5.58794e-05,0.0280021,2.23025,5,0.1,4,1.5,-4.49266,2.7869,0.958522,-0.0151083,0.0740666,0.188326,0.0240207,-0.343248,-0.299454,0.00951127,0.640084,5,0.1,5,1.5,0.517216,-3.4397,1.01828,-0.633413,-0.152175,0.314905,0.403758,0.0970066,-0.200722,0.0108724,0.248558,5,0.1,6,1.5,-0.534437,4.3049,0.646871,0.710249,-0.844135,-0.0330794,-0.746354,0.198454,-0.000786036,0.0104614,2.13906,5,0.1,7,1.5,2.11997,-0.951837,0.545041,-0.0062041,-0.816674,-0.0227265,0.00277162,-0.667088,0.00993907,0.00731532,2.36781,5,0.1,8,1.5,-1.43305,-3.35503,0.637028,0.197671,0.866026,-0.012801,-0.0473782,0,0.000238419,0.0128623,2.24807,5,0.1,9,1.5,4.80458,1.8617,0.609108,-0.866023,0.0635894,-0.00656135,-2.98023e-05,-0.0179037,0.00187755,0.0138987,2.26953,5,0.1,10,1.5,1.17323,2.59474,0.576692,-0.765057,0.747202,0.0125764,0.117421,-0.0163615,-0.000290573,0.0108146,2.05231,5,0.1,11,1.5,2.77062,-5.77573,0.500026,-0.832251,-0.0694953,-0.000632741,0.157252,0.0415146,0.0100434,0.0206047,0.630374,5,0.1,12,1.5,-2.80103,-0.383901,0.500057,-0.336712,-0.177866,-0.00109673,0.118315,-0.0243839,0.014402,0.0100657,0.131838,5,0.1,13,1.5,1.91282,-2.33473,0.732156,-0.088164,-0.126537,0.034594,0.40596,0.134021,-0.0365898,0.0100889,0.1935,5,0.1,14,1.5,-2.32784,1.98378,0.62363,0.866026,-0.259727,0.0102683,0,0.0131801,-0.000517815,0.00918165,2.22963,5,0.1,15,1.5,0.111913,-0.718711,0.648209,0.00678297,-0.866026,-0.0341561,-0.000194181,3.72529e-06,0.000976026,0.00906101,2.27115,5,0.1,16,1.5,3.62731,-4.15506,0.611982,-0.167052,0.138358,-0.0157909,0.666827,-0.0886619,0.0101179,0.0130577,0.420106,5,0.1,17,1.5,1.8014,-2.90424,0.662221,0.86389,-0.194009,0.0195256,0.0173599,0.074774,-0.00750646,0.0124257,1.12858,5,0.1,18,1.5,2.186,-2.4475,0.723473,-0.339069,-0.0242762,0.0236184,0.632122,-0.167668,-0.0209026,0.012485,0.199405,5,0.1,19,1.5,4.4651,1.20485,0.61253,-0.203682,0.314472,-0.0133461,-0.167429,-0.0482723,0.00204518,0.0098704,0.117264,5,0.1
0,1.6,0.591259,2.69381,0.587423,-0.759776,0.848347,0.00920445,0.195742,-0.187397,-0.00247359,0.0145345,1.08359,5,0.1,1,1.6,-2.21353,-0.371767,0.62419,-0.53308,-0.0761524,-0.0235453,-0.0206232,0.0619441,0.0191629,0.0134384,0.429777,5,0.1,2,1.6,3.96128,-4.10022,0.561176,0.0102282,0.866032,0.00140816,-0.267386,-0.000238419,0.0264645,0.0469724,2.27452,5,0.1,3,1.6,-0.0659721,2.21067,0.627284,-0.264084,-0.866026,-0.00750273,0.0949872,0,0.0013411,0.0275547,2.2332,5,0.1,4,1.6,-4.49405,2.79269,0.975874,-0.0127316,0.0429571,0.15887,0.0228882,-0.269651,-0.289828,0.00945713,1.17392,5,0.1,5,1.6,0.455987,-3.45441,1.04872,-0.58988,-0.141716,0.293261,0.479729,0.115156,-0.238419,0.0122711,0.163366,5,0.1,6,1.6,-0.467635,4.22176,0.643565,0.621765,-0.815141,-0.032939,-0.989065,0.399351,0.00503659,0.0104131,2.30366,5,0.1,7,1.6,2.11937,-1.03597,0.542822,-0.0058949,-0.857559,-0.0216171,0.00345707,-0.169337,0.0129342,0.00731192,1.84213,5,0.1,8,1.6,-1.41354,-3.26843,0.635752,0.19204,0.866026,-0.0126883,-0.0725389,0,0.00247359,0.0110968,2.25612,5,0.1,9,1.6,4.71798,1.86796,0.608462,-0.866032,0.0614434,-0.00633746,0.000238419,-0.0270605,0.00280142,0.0149119,2.41208,5,0.1,10,1.6,1.09739,2.66924,0.577946,-0.750354,0.740463,0.0124753,0.209093,-0.148535,-0.00229478,0.0103085,2.0288,5,0.1,11,1.6,2.68838,-5.78246,0.500002,-0.809932,-0.0649571,4.61936e-05,0.314713,0.0505447,0.00396371,0.0171023,0.438227,5,0.1,12,1.6,-2.83413,-0.401802,0.500004,-0.325191,-0.179825,-0.000107288,0.127912,-0.00448525,0.00584126,0.00874787,0.0812593,5,0.1,13,1.6,1.9059,-2.3467,0.735429,-0.0518322,-0.112784,0.030838,0.316918,0.142336,-0.0389218,0.010358,0.191247,5,0.1,14,1.6,-2.24124,1.95792,0.624652,0.866026,-0.256625,0.0101462,0,0.0590086,-0.00235438,0.00944261,2.2319,5,0.1,15,1.6,0.112589,-0.805314,0.644805,0.00671782,-0.866026,-0.0338286,-0.00138208,0,0.00697374,0.0094868,2.27118,5,0.1,16,1.6,3.61376,-4.14169,0.610456,-0.105762,0.128841,-0.0147045,0.551939,-0.104427,0.0119209,0.0134572,0.415023,5,0.1,17,1.6,1.88772,-2.92322,0.664132,0.860313,-0.185055,0.018625,-0.114262,0.108957,-0.0109076,0.0100557,0.823709,5,0.1,18,1.6,2.15524,-2.45074,0.725726,-0.276524,-0.0402093,0.02141,0.614762,-0.145078,-0.0235438,0.00842403,0.523261,5,0.1,19,1.6,4.44399,1.23598,0.611209,-0.217319,0.307047,-0.0130311,-0.0946522,-0.110328,0.00464916,0.00813575,0.0654645,5,0.1
0,1.7,0.516149,2.77786,0.588332,-0.74273,0.833051,0.00898885,0.176571,-0.15597,-0.002224,0.0145345,1.08359,5,0.1,1,1.7,-2.26712,-0.379088,0.621927,-0.539626,-0.0703456,-0.0217492,-0.0771731,0.0562724,0.0174046,0.0134384,0.429777,5,0.1,2,1.7,3.96097,-4.01361,0.561447,-0.016227,0.866025,0.00396576,-0.254169,1.49012e-05,0.0239685,0.0469724,2.27452,5,0.1,3,1.7,-0.0919827,2.12407,0.626538,-0.256576,-0.866026,-0.00744453,0.0676951,0,0.000264496,0.0275547,2.2332,5,0.1,4,1.7,-4.49522,2.79563,0.990366,-0.0105657,0.0166081,0.131504,0.0204742,-0.220358,-0.258449,0.00945713,1.17392,5,0.1,5,1.7,0.399284,-3.46803,1.07691,-0.544907,-0.130919,0.270909,0.435837,0.104636,-0.216626,0.0122711,0.163366,5,0.1,6,1.7,-0.410829,4.14315,0.640286,0.511879,-0.749429,-0.032708,-1.14072,0.868678,0.00141561,0.0104131,2.30366,5,0.1,7,1.7,2.11879,-1.12224,0.54072,-0.00557862,-0.865497,-0.0204392,0.00308454,-0.0211671,0.011377,0.00731192,1.84213,5,0.1,8,1.7,-1.39471,-3.18182,0.634491,0.184388,0.866026,-0.0125672,-0.0853837,0,0.000689179,0.0110968,2.25612,5,0.1,9,1.7,4.632,1.87397,0.607841,-0.847745,0.0589292,-0.00607735,0.351191,-0.0253767,0.00262633,0.0149119,2.41208,5,0.1,10,1.7,1.02307,2.7428,0.579187,-0.73811,0.73226,0.0123768,0.0799932,-0.0567585,-0.000413507,0.0103085,2.0288,5,0.1,11,1.7,2.60884,-5.78872,0.500021,-0.781311,-0.0602089,0.000279583,0.288114,0.0462234,0.000938773,0.0171023,0.438227,5,0.1,12,1.7,-2.86609,-0.419705,0.500014,-0.314412,-0.177171,0.000236183,0.101864,0.0585094,0.00141561,0.00874787,0.0812593,5,0.1,13,1.7,1.90213,-2.35723,0.738322,-0.0252644,-0.0975866,0.0270563,0.213735,0.159755,-0.0370257,0.010358,0.191247,5,0.1,14,1.7,-2.15463,1.93246,0.625658,0.866026,-0.25305,0.0100029,0,0.0265837,-0.00106916,0.00944261,2.2319,5,0.1,15,1.7,0.113256,-0.891916,0.641444,0.00664523,-0.866026,-0.0334624,-0.000454951,3.72529e-06,0.00228733,0.0094868,2.27118,5,0.1,16,1.7,3.6057,-4.12931,0.609044,-0.0579394,0.118687,-0.0135451,0.403196,-0.101417,0.0115819,0.0134572,0.415023,5,0.1,17,1.7,1.97339,-2.94121,0.665942,0.853987,-0.174787,0.0175966,-0.0562295,0.102088,-0.0102371,0.0100557,0.823709,5,0.1,18,1.7,2.13155,-2.45565,0.727695,-0.190127,-0.0592906,0.0175002,1.04921,-0.219867,-0.0513159,0.00842403,0.523261,5,0.1,19,1.7,4.42181,1.26614,0.609929,-0.225659,0.295869,-0.0125594,-0.0623167,-0.122443,0.00517443,0.00813575,0.0654645,5,0.1
0,1.8,0.442937,2.86019,0.589218,-0.719175,0.810838,0.00869781,0.316008,-0.314116,-0.0039041,0.0115294,0.767273,5,0.1,1,1.8,-2.32134,-0.385836,0.61984,-0.542867,-0.0645481,-0.0199556,0.035882,0.0610948,0.0188649,0.00811384,0.310157,5,0.1,2,1.8,3.95815,-3.92701,0.561954,-0.0393152,0.866026,0.00608116,-0.202417,0,0.0178814,0.0482678,2.32163,5,0.1,3,1.8,-0.117263,2.03747,0.625796,-0.248417,-0.866026,-0.00737458,0.104245,5.96046e-05,0.00149012,0.0276574,2.25397,5,0.1,4,1.8,-4.49618,2.79649,1.00227,-0.00860691,0.00408292,0.107014,0.0181198,-0.0151396,-0.232041,0.0100695,2.81164,5,0.1,5,1.8,0.347007,-3.48059,1.1029,-0.500003,-0.120133,0.248587,0.473216,0.113606,-0.2352,0.0104372,0.107792,5,0.1,6,1.8,-0.365167,4.07301,0.637028,0.404149,-0.649571,-0.032343,-0.976548,1.09267,0.00718236,0.00961367,2.11378,5,0.1,7,1.8,2.11825,-1.20883,0.538736,-0.00524521,-0.866026,-0.019215,0.00369549,5.96046e-05,0.0136197,0.0103977,1.4307,5,0.1,8,1.8,-1.37675,-3.09522,0.633239,0.174165,0.866026,-0.0124261,-0.122249,0,0.00268221,0.0107377,2.26039,5,0.1,9,1.8,4.54946,1.87973,0.607248,-0.798392,0.0560045,-0.00577569,0.62418,-0.0344515,0.00357628,0.0121461,2.69424,5,0.1,10,1.8,0.949742,2.81562,0.580421,-0.726785,0.722069,0.0122651,0.178039,-0.176072,-0.00235438,0.0127937,1.56989,5,0.1,11,1.8,2.53231,-5.7945,0.50005,-0.747192,-0.0554085,0.000275671,0.414729,0.0510216,-0.000804663,0.0177905,0.664615,5,0.1,12,1.8,-2.89697,-0.43702,0.50004,-0.302404,-0.168039,0.000244379,0.147939,0.124082,-0.000953674,0.0110586,0.159922,5,0.1,13,1.8,1.9005,-2.36618,0.740844,-0.00892878,-0.0811815,0.0233844,0.115156,0.166416,-0.0366271,0.0106147,0.321061,5,0.1,14,1.8,-2.06803,1.90733,0.626652,0.866026,-0.2489,0.00983775,-5.96046e-05,0.0662804,-0.00265241,0.00888814,2.08052,5,0.1,15,1.8,0.113917,-0.978519,0.638115,0.00656117,-0.866027,-0.0330389,-0.00149757,2.98023e-05,0.00753999,0.0101172,2.27121,5,0.1,16,1.8,3.60167,-4.11796,0.607749,-0.0250876,0.108111,-0.0123367,0.255704,-0.112057,0.0127852,0.0122523,0.360333,5,0.1,17,1.8,2.05831,-2.95815,0.667648,0.841606,-0.16368,0.0164822,-0.222087,0.123858,-0.0124574,0.0100091,0.581845,5,0.1,18,1.8,2.11806,-2.46269,0.729165,-0.0780284,-0.0812709,0.0117436,1.1431,-0.207424,-0.061214,0.00897142,0.336459,5,0.1,19,1.8,4.39905,1.29503,0.608702,-0.228155,0.281045,-0.0119314,0.0188351,-0.180185,0.00762939,0.00710753,0.147366,5,0.1
0,1.9,0.372495,2.93982,0.589913,-0.690028,0.782266,0.00389321,0.292582,-0.287741,-0.0826232,0.0115294,0.767273,5,0.1,1,1.9,-2.37554,-0.392002,0.617934,-0.541361,-0.0588879,-0.0182075,0.0206232,0.0538621,0.0166371,0.00811384,0.310157,5,0.1,2,1.9,3.95323,-3.84079,0.562649,-0.0587139,0.854974,0.00777598,-0.179246,-0.20431,0.0153854,0.0482678,2.32163,5,0.1,3,1.9,-0.141682,1.95087,0.625063,-0.240611,-0.865551,-0.00730501,0.0648243,0.0189394,0.000346452,0.0276574,2.25397,5,0.1,4,1.9,-4.49648,2.79694,1.01187,0.00640675,0.00947304,0.0856243,0.252575,0.236943,-0.196829,0.0100695,2.81164,5,0.1,5,1.9,0.299245,-3.49206,1.12665,-0.456161,-0.109607,0.226795,0.417225,0.10021,-0.207387,0.0104372,0.107792,5,0.1,6,1.9,-0.329296,4.01389,0.633824,0.318514,-0.530814,-0.0317752,-0.669999,1.21641,0.00564009,0.00961367,2.11378,5,0.1,7,1.9,2.11774,-1.29543,0.536878,-0.00490509,-0.865848,-0.0179651,0.00326335,0.00706315,0.0119992,0.0103977,1.4307,5,0.1,8,1.9,-1.36003,-3.00862,0.632005,0.15935,0.866026,-0.0122875,-0.171699,0,0.000819564,0.0107377,2.26039,5,0.1,9,1.9,4.47358,1.88517,0.606687,-0.713234,0.0529831,-0.00546239,0.988752,-0.0281855,0.00292063,0.0121461,2.69424,5,0.1,10,1.9,0.877687,2.8871,0.581482,-0.715949,0.708404,0.00766413,0.079114,-0.130787,-0.0804029,0.0127937,1.56989,5,0.1,11,1.9,2.45923,-5.7998,0.500073,-0.717667,-0.0506736,0.000173505,0.220492,0.0452101,-0.00117347,0.0177905,0.664615,5,0.1,12,1.9,-2.92649,-0.453039,0.500059,-0.288014,-0.150876,0.000124145,0.148848,0.211937,-0.00135228,0.0110586,0.159922,5,0.1,13,1.9,1.90006,-2.37351,0.743001,-0.000970066,-0.0658076,0.0197921,0.0488907,0.141934,-0.0351816,0.0106147,0.321061,5,0.1,14,1.9,-1.98143,1.8827,0.627625,0.866025,-0.244331,0.00965437,1.49012e-05,0.0380501,-0.00152364,0.00888814,2.08052,5,0.1,15,1.9,0.114569,-1.06512,0.634836,0.00647968,-0.866026,-0.032629,-0.000512227,3.72529e-06,0.00257418,0.0101172,2.27121,5,0.1,16,1.9,3.60028,-4.10772,0.60658,-0.0045944,0.0966966,-0.0110339,0.153914,-0.116765,0.0133216,0.0122523,0.360333,5,0.1,17,1.9,2.14149,-2.97393,0.669237,0.822558,-0.152122,0.0153196,-0.194281,0.112057,-0.011269,0.0100091,0.581845,5,0.1,18,1.9,2.11606,-2.47191,0.730015,0.0378825,-0.10344,0.00512367,1.1377,-0.222564,-0.0685789,0.00897142,0.336459,5,0.1,19,1.9,4.37664,1.32223,0.607547,-0.217209,0.262808,-0.0111585,0.189275,-0.190191,0.00806153,0.00710753,0.147366,5,0.1
0,2,0.305087,3.01645,0.589824,-0.656351,0.748175,-0.00612289,0.398369,-0.414968,-0.110209,0.012729,1.28839,5,0.1,1,2,-2.42942,-0.397622,0.616196,-0.53429,-0.053478,-0.0165358,0.139236,0.0555217,0.0171363,0.00942764,0.216993,5,0.1,2,2,3.94654,-3.75656,0.563495,-0.0741065,0.827307,0.00905395,-0.124335,-0.344515,0.00977516,0.0429556,2.42662,5,0.1,3,2,-0.165397,1.86457,0.624335,-0.233237,-0.858447,-0.00723153,0.0918359,0.151634,0.00149012,0.0251706,2.564,5,0.1,4,2,-4.49439,2.8,1.0195,0.0366569,0.0606775,0.0674516,0.329494,0.765324,-0.167429,0.00953923,2.88246,5,0.1,5,2,0.255713,-3.50253,1.14829,-0.414259,-0.0995457,0.205967,0.430234,0.103474,-0.213921,0.0125554,0.123254,5,0.1,6,2,-0.3,3.96668,0.630682,0.275145,-0.416517,-0.0309661,-0.213549,1.03354,0.0115335,0.00943516,1.86875,5,0.1,7,2,2.11727,-1.38192,0.535143,-0.00455976,-0.863197,-0.0167102,0.00369549,0.0566244,0.0135303,0.00921242,1.08043,5,0.1,8,2,-1.34502,-2.92202,0.630782,0.140291,0.866026,-0.0121385,-0.207186,0,0.00268221,0.0111894,0.34919,5,0.1,9,2,4.40724,1.89032,0.606155,-0.614619,0.0499964,-0.00515282,0.933409,-0.0330806,0.00339746,0.0126046,2.42005,5,0.1,10,2,0.806596,2.95714,0.581781,-0.704056,0.690228,-0.00216514,0.187337,-0.256181,-0.108927,0.0113458,2.25299,5,0.1,11,2,2.38854,-5.80464,0.500084,-0.695378,-0.0461102,5.06639e-05,0.257611,0.04673,-0.00119209,0.0175916,2.56482,5,0.1,12,2,-2.95449,-0.466972,0.500065,-0.271136,-0.126992,-1.04308e-05,0.19455,0.259563,-0.0012517,0.00903057,0.144687,5,0.1,13,2,1.90013,-2.37941,0.744807,0.00172853,-0.0526309,0.016357,0.0089407,0.12207,-0.033468,0.0125881,0.320219,5,0.1,14,2,-1.89482,1.85849,0.628582,0.866026,-0.239083,0.00944585,-5.96046e-05,0.0759363,-0.00303984,0.0117054,1.63076,5,0.1,15,2,0.115213,-1.15172,0.63159,0.00639353,-0.866026,-0.0321954,-0.00147894,5.96046e-05,0.00742078,0.0091734,2.27124,5,0.1,16,2,3.60042,-4.09864,0.605544,0.00583529,0.0846982,-0.00966489,0.0561476,-0.123024,0.0140965,0.0158469,0.780787,5,0.1,17,2,2.22259,-2.98857,0.670712,0.796783,-0.14047,0.0141457,-0.345588,0.124335,-0.0124872,0.00958217,0.401305,5,0.1,18,2,2.12527,-2.48331,0.73019,0.143081,-0.123483,-0.00151843,0.939369,-0.168681,-0.0622869,0.00831025,0.236233,5,0.1,19,2,4.35608,1.34751,0.606474,-0.192332,0.242087,-0.0102803,0.2985,-0.22763,0.00968575,0.00800309,0.199943,5,0.1
0,2.1,0.241035,3.08959,0.589073,-0.627759,0.717436,-0.00534868,0.213326,-0.241935,0.103291,0.012729,1.28839,5,0.1,1,2.1,-2.48222,-0.402709,0.614623,-0.521833,-0.0483803,-0.0149623,0.131249,0.0479128,0.0147969,0.00942764,0.216993,5,0.1,2,2.1,3.93852,-3.67611,0.564449,-0.0859339,0.779996,0.00998545,-0.106439,-0.467494,0.00826269,0.0429556,2.42662,5,0.1,3,2.1,-0.188366,1.78056,0.623616,-0.226837,-0.8123,-0.00716262,0.0492474,0.719674,0.000327826,0.0251706,2.564,5,0.1,4,2.1,-4.48891,2.81118,1.02546,0.0741318,0.173003,0.0523187,0.397742,1.37445,-0.136256,0.00953923,2.88246,5,0.1,5,2.1,0.216118,-3.51204,1.16798,-0.380211,-0.091356,0.189037,0.274492,0.0660121,-0.136495,0.0125554,0.123254,5,0.1,6,2.1,-0.27264,3.92983,0.627638,0.279607,-0.325919,-0.0299275,0.240676,0.714049,0.0104308,0.00943516,1.86875,5,0.1,7,2.1,2.11683,-1.4682,0.533535,-0.00421889,-0.863587,-0.015468,0.00326335,-0.0206381,0.0118241,0.00921242,1.08043,5,0.1,8,2.1,-1.33209,-2.83567,0.629566,0.117669,0.85775,-0.0123203,-0.240281,-0.183702,-0.00489503,0.0111894,0.34919,5,0.1,9,2.1,4.35032,1.89517,0.605656,-0.528144,0.047026,-0.00484763,0.683635,-0.0281259,0.0028871,0.0126046,2.42005,5,0.1,10,2.1,0.736913,3.02466,0.581395,-0.690808,0.658132,-0.00232663,0.113502,-0.381455,0.0854582,0.0113458,2.25299,5,0.1,11,2.1,2.3194,-5.80902,0.500747,-0.694485,-0.0414707,0.0187689,-0.163421,0.046581,0.33373,0.0175916,2.56482,5,0.1,12,2.1,-2.98064,-0.47833,0.500059,-0.251837,-0.0998829,-0.000102352,0.197038,0.27661,-0.000614673,0.00903057,0.144687,5,0.1,13,2.1,1.90034,-2.38414,0.746281,0.0022931,-0.042472,0.0131788,0.00230223,0.0839829,-0.0300854,0.0125881,0.320219,5,0.1,14,2.1,-1.80822,1.83491,0.629513,0.865946,-0.232729,0.00919178,-0.00313669,0.0615492,-0.00245124,0.0117054,1.63076,5,0.1,15,2.1,0.115848,-1.23833,0.628395,0.00631403,-0.866025,-0.0317975,-0.000484753,-1.49012e-05,0.00241771,0.0091734,2.27124,5,0.1,16,2.1,3.60131,-4.09077,0.604646,0.0114962,0.0728518,-0.00830842,0.0303686,-0.114501,0.0131018,0.0158469,0.780787,5,0.1,17,2.1,2.30066,-3.00203,0.672067,0.765088,-0.128967,0.0129901,-0.317186,0.109702,-0.0110269,0.00958217,0.401305,5,0.1,18,2.1,2.14411,-2.49652,0.729724,0.231227,-0.140745,-0.00776155,0.799835,-0.164926,-0.0604577,0.00831025,0.236233,5,0.1,19,2.1,4.33845,1.37063,0.605492,-0.15916,0.220653,-0.00936836,0.356525,-0.20723,0.00881404,0.00800309,0.199943,5,0.1
0,2.2,0.179288,3.16012,0.589255,-0.606801,0.692534,0.0105262,0.234805,-0.286341,0.196517,0.0121307,0.428377,5,0.1,1,2.2,-2.53362,-0.40731,0.6132,-0.504458,-0.043644,-0.013499,0.230789,0.0478327,0.0148118,0.00895625,0.148427,5,0.1,2,2.2,3.92947,-3.6,0.565482,-0.0944257,0.746858,0.0106066,-0.0593662,-0.19896,0.00375509,0.0524492,2.41245,5,0.1,3,2.2,-0.210786,1.70352,0.622903,-0.221147,-0.723597,-0.00709295,0.0738874,1.01495,0.00140071,0.0251601,2.89848,5,0.1,4,2.2,-4.47954,2.83563,1.03006,0.112355,0.316781,0.0400126,0.350237,1.42002,-0.110865,0.00872524,2.33807,5,0.1,5,2.2,0.179372,-3.52087,1.18625,-0.355228,-0.0853479,0.176615,0.242732,0.0584126,-0.120699,0.00986198,0.223231,5,0.1,6,2.2,-0.243147,3.9,0.624703,0.312315,-0.278503,-0.0286803,0.365913,0.250578,0.0153482,0.00894447,1.56875,5,0.1,7,2.2,2.11643,-1.5545,0.532048,-0.00388622,-0.860134,-0.0142574,0.00345707,0.117838,0.0127554,0.0113392,0.787337,5,0.1,8,2.2,-1.32155,-2.75124,0.628306,0.0931382,0.826442,-0.0128686,-0.246346,-0.452757,-0.00497699,0.00977287,0.20817,5,0.1,9,2.2,4.3,1.89973,0.605186,-0.487363,0.0440687,-0.00454485,0.149727,-0.0322461,0.00333786,0.0148791,2.04703,5,0.1,10,2.2,0.668518,3.08838,0.581772,-0.675248,0.614488,0.011301,0.222892,-0.490069,0.171095,0.0111459,0.878523,5,0.1,11,2.2,2.24895,-5.81293,0.504561,-0.714749,-0.0367165,0.0593618,-0.184894,0.0488758,0.445545,0.0159858,2.75438,5,0.1,12,2.2,-3.0048,-0.486948,0.500046,-0.230813,-0.0727259,-0.000140071,0.226974,0.261962,-0.000178814,0.0102793,0.204593,5,0.1,13,2.2,1.90057,-2.38801,0.747455,0.00219047,-0.0353217,0.0103429,-0.00429153,0.0613928,-0.0266433,0.0128141,0.315608,5,0.1,14,2.2,-1.72167,1.81199,0.630418,0.864765,-0.225013,0.00888407,-0.0252128,0.099957,-0.00393391,0.00913636,1.24245,5,0.1,15,2.2,0.116476,-1.32493,0.625231,0.00623241,-0.866026,-0.0313878,-0.00140816,0,0.00706315,0.011617,2.27128,5,0.1,16,2.2,3.60241,-4.08405,0.60388,0.00822544,0.0616908,-0.00703186,-0.106215,-0.108957,0.0124574,0.0132882,3.03736,5,0.1,17,2.2,2.37544,-3.01438,0.673311,0.728488,-0.11785,0.0118718,-0.434399,0.115275,-0.0115931,0.0127834,0.272395,5,0.1,18,2.2,2.17084,-2.51133,0.728663,0.299108,-0.154495,-0.0132471,0.542402,-0.101924,-0.0477433,0.00850426,0.179542,5,0.1,19,2.2,4.32436,1.39165,0.6046,-0.122559,0.19961,-0.00847429,0.368357,-0.217795,0.00926852,0.00768982,0.193446,5,0.1
0,2.3,0.11999,3.22771,0.591613,-0.576982,0.656725,0.0391793,0.365548,-0.433892,0.349768,0.0121307,0.428377,5,0.1,1,2.3,-2.58298,-0.41145,0.611919,-0.483,-0.0392841,-0.0121488,0.215814,0.0406075,0.0125729,0.00895625,0.148427,5,0.1,2,2.3,3.91965,-3.52519,0.566562,-0.102561,0.758043,0.0109884,-0.0925511,0.328481,0.00329688,0.0524492,2.41245,5,0.1,3,2.3,-0.232552,1.63685,0.622198,-0.214195,-0.605968,-0.00703251,0.0730855,1.2425,0.000234693,0.0251601,2.89848,5,0.1,4,2.3,-4.46653,2.8748,1.03355,0.147778,0.4685,0.030184,0.341296,1.53361,-0.0866279,0.00872524,2.33807,5,0.1,5,2.3,0.145057,-3.52911,1.20331,-0.330963,-0.0794515,0.164426,0.249763,0.0610948,-0.126377,0.00986198,0.223231,5,0.1,6,2.3,-0.210088,3.87282,0.621906,0.348256,-0.270002,-0.0272921,0.329805,-0.0400543,0.0134595,0.00894447,1.56875,5,0.1,7,2.3,2.11605,-1.64012,0.530682,-0.0035692,-0.853155,-0.0130896,0.00302494,0.0649467,0.0110343,0.0113392,0.787337,5,0.1,8,2.3,-1.31345,-2.67091,0.626988,0.0689616,0.779245,-0.0135472,-0.234194,-0.507221,-0.00748783,0.00977287,0.20817,5,0.1,9,2.3,4.25079,1.90399,0.604747,-0.506597,0.0411393,-0.0042418,-0.442654,-0.0278279,0.00287592,0.0148791,2.04703,5,0.1,10,2.3,0.601928,3.14707,0.584105,-0.657533,0.557731,0.0381288,0.162896,-0.590742,0.33788,0.0111459,0.878523,5,0.1,11,2.3,2.17757,-5.81637,0.513006,-0.703578,-0.0321694,0.111507,0.376701,0.0427663,0.563622,0.0159858,2.75438,5,0.1,12,2.3,-3.0268,-0.492965,0.500032,-0.209613,-0.0482525,-0.000140257,0.203103,0.224413,0.000149012,0.0102793,0.204593,5,0.1,13,2.3,1.90085,-2.39124,0.748362,0.00394136,-0.0295013,0.00787424,0.0284761,0.0552833,-0.0227429,0.0128141,0.315608,5,0.1,14,2.3,-1.6352,1.78995,0.631289,0.86501,-0.215997,0.00852933,0.00348687,0.0888184,-0.0034906,0.00913636,1.24245,5,0.1,15,2.3,0.117095,-1.41153,0.622115,0.00615864,-0.866026,-0.0310185,-0.000434462,0,0.00216439,0.011617,2.27128,5,0.1,16,2.3,3.60277,-4.07809,0.603236,-0.00422783,0.0603914,-0.00586761,-0.282213,0.0625849,0.0109039,0.0132882,3.03736,5,0.1,17,2.3,2.44624,-3.02562,0.674443,0.688213,-0.107262,0.0108064,-0.394881,0.0998229,-0.0100471,0.0127834,0.272395,5,0.1,18,2.3,2.20331,-2.52731,0.727104,0.348409,-0.164856,-0.017853,0.424281,-0.0949949,-0.0426285,0.00850426,0.179542,5,0.1,19,2.3,4.31393,1.41055,0.603797,-0.0864394,0.178436,-0.00757379,0.34681,-0.208646,0.00886992,0.00768982,0.193446,5,0.1
0,2.4,0.0643593,3.29094,0.597351,-0.533204,0.605273,0.0757664,0.510931,-0.595808,0.361621,0.0116292,0.296499,5,0.1,1,2.4,-2.63011,-0.415179,0.610766,-0.45836,-0.0353098,-0.0109196,0.288844,0.0397265,0.0123382,0.00919621,0.125512,5,0.1,2,2.4,3.90894,-3.44751,0.567673,-0.111073,0.796092,0.0111684,-0.0699759,0.362158,-8.9407e-05,0.0449792,2.29349,5,0.1,3,2.4,-0.253555,1.58225,0.621496,-0.205203,-0.489682,-0.00697076,0.112116,1.03259,0.0012815,0.022756,3.05535,5,0.1,4,2.4,-4.45017,2.92896,1.03617,0.177741,0.609612,0.0225186,0.24581,1.23036,-0.0674129,0.0104564,1.79715,5,0.1,5,2.4,0.113268,-3.53674,1.21909,-0.3041,-0.0728607,0.150806,0.292048,0.0714064,-0.148118,0.0110498,0.371483,5,0.1,6,2.4,-0.173828,3.84541,0.619248,0.374375,-0.279391,-0.0258133,0.176698,-0.116825,0.0168681,0.00856017,1.41521,5,0.1,7,2.4,2.11571,-1.72491,0.529429,-0.00326633,-0.839821,-0.0119776,0.00321865,0.231743,0.0115037,0.00782401,0.555535,5,0.1,8,2.4,-1.30769,-2.59572,0.625599,0.0468135,0.722414,-0.014177,-0.20647,-0.6392,-0.00432134,0.0121425,0.0856728,5,0.1,9,2.4,4.19756,1.90796,0.604337,-0.559759,0.0382543,-0.00394434,-0.551224,-0.0308752,0.00318885,0.0126681,2.54723,5,0.1,10,2.4,0.537101,3.2,0.589696,-0.63732,0.50211,0.0740141,0.263333,-0.518322,0.35885,0.0126335,0.656597,5,0.1,11,2.4,2.1098,-5.81938,0.526942,-0.645345,-0.028038,0.166215,0.760078,0.0405312,0.505567,0.0166182,3.05144,5,0.1,12,2.4,-3.04675,-0.49675,0.500019,-0.189167,-0.028313,-0.000114739,0.209808,0.172764,0.000327826,0.00962256,0.324689,5,0.1,13,2.4,1.90137,-2.39392,0.749042,0.00614822,-0.0242174,0.00579059,0.00911951,0.0504255,-0.0189543,0.0143709,0.298118,5,0.1,14,2.4,-1.54881,1.76883,0.632123,0.86112,-0.205824,0.00812858,-0.0981688,0.120461,-0.00473857,0.00867814,0.918446,5,0.1,15,2.4,0.117707,-1.49813,0.619028,0.00608265,-0.866026,-0.0306383,-0.00133738,0,0.00673532,0.00899704,2.34655,5,0.1,16,2.4,3.6,-4.07159,0.602702,-0.060457,0.0705719,-0.00483692,-0.825405,0.125408,0.00974536,0.0142717,2.6433,5,0.1,17,2.4,2.51299,-3.03585,0.675474,0.6455,-0.0973165,0.00980645,-0.475287,0.101447,-0.010252,0.0105397,0.183254,5,0.1,18,2.4,2.23995,-2.54419,0.725125,0.380778,-0.171757,-0.0214815,0.210762,-0.0361204,-0.0286996,0.0166301,4.37482,5,0.1,19,2.4,4.30693,1.42734,0.603085,-0.0543833,0.157407,-0.00668019,0.28944,-0.213921,0.00908971,0.00961533,0.190782,5,0.1
0,2.5,0.0135781,3.34847,0.606838,-0.4824,0.545216,0.114472,0.511833,-0.600278,0.391979,0.0116292,0.296499,5,0.1,1,2.5,-2.67453,-0.418671,0.609736,-0.430169,-0.0358485,-0.00968846,0.286534,-0.0402648,0.0123568,0.00919621,0.125512,5,0.1,2,2.5,3.89744,-3.36599,0.568792,-0.119312,0.834155,0.0112114,-0.0851154,0.352189,0.000368804,0.0449792,2.29349,5,0.1,3,2.5,-0.273573,1.53808,0.620803,-0.195531,-0.400659,-0.0069147,0.0897963,0.63204,0.00025332,0.022756,3.05535,5,0.1,4,2.5,-4.43119,2.99598,1.03811,0.201292,0.728274,0.0166707,0.212073,1.08688,-0.0503212,0.0104564,1.79715,5,0.1,5,2.5,0.0845437,-3.54367,1.23345,-0.268419,-0.066008,0.136597,0.410604,0.0670403,-0.138998,0.0110498,0.371483,5,0.1,6,2.5,-0.136232,3.81694,0.6167,0.3712,-0.289286,-0.0255657,-0.204424,-0.0695139,-0.00816584,0.00856017,1.41521,5,0.1,7,2.5,2.11542,-1.80785,0.52828,-0.00249892,-0.819036,-0.0110488,0.0111759,0.217251,0.00769645,0.00782401,0.555535,5,0.1,8,2.5,-1.30404,-2.52659,0.624142,0.0262197,0.660399,-0.0150887,-0.200808,-0.615403,-0.0120997,0.0121425,0.0856728,5,0.1,9,2.5,4.13797,1.91164,0.603958,-0.638336,0.0353795,-0.00364752,-0.926793,-0.0277162,0.0028573,0.0126681,2.54723,5,0.1,10,2.5,0.474634,3.2479,0.599005,-0.612009,0.458162,0.112763,0.26357,-0.382662,0.395082,0.0126335,0.656597,5,0.1,11,2.5,2.04981,-5.822,0.546192,-0.548621,-0.0244103,0.219082,1.11464,0.032872,0.523329,0.0166182,3.05144,5,0.1,12,2.5,-3.06462,-0.498736,0.500009,-0.168277,-0.0117975,-7.7486e-05,0.209436,0.148918,0.000394881,0.00962256,0.324689,5,0.1,13,2.5,1.90208,-2.3961,0.749533,0.0079317,-0.0193596,0.00407416,0.00347942,0.0465214,-0.0154004,0.0143709,0.298118,5,0.1,14,2.5,-1.46294,1.74882,0.632913,0.857639,-0.19474,0.00769254,-0.0187308,0.10816,-0.00425428,0.00867814,0.918446,5,0.1,15,2.5,0.118311,-1.58457,0.615986,0.0060139,-0.860368,-0.0302921,-0.000395812,0.136137,0.00199303,0.00899704,2.34655,5,0.1,16,2.5,3.58864,-4.06377,0.602264,-0.176029,0.0869289,-0.00394452,-1.3835,0.186205,0.00817329,0.0142717,2.6433,5,0.1,17,2.5,2.5753,-3.04511,0.676407,0.601491,-0.0880577,0.00887094,-0.424653,0.0865459,-0.00874326,0.0105397,0.183254,5,0.1,18,2.5,2.27668,-2.56115,0.722903,0.333041,-0.164062,-0.0223507,-1.03545,0.173286,0.00869855,0.0166301,4.37482,5,0.1,19,2.5,4.30282,1.44204,0.602461,-0.029216,0.136623,-0.00579748,0.211805,-0.202961,0.00861287,0.00961533,0.190782,5,0.1
0,2.6,-0.0320581,3.4,0.620157,-0.429771,0.485373,0.150633,0.544727,-0.600219,0.316381,0.00633365,0.884465,5,0.1,1,2.6,-2.71605,-0.422519,0.608829,-0.399125,-0.0415504,-0.00843704,0.341773,-0.0658631,0.0126362,0.00883287,0.171954,5,0.1,2,2.6,3.88512,-3.28112,0.569911,-0.126433,0.859481,0.0111431,-0.0504255,0.130892,-0.00214577,0.0436895,2.26194,5,0.1,3,2.6,-0.292658,1.5,0.620114,-0.185804,-0.372294,-0.00684857,0.110671,-0.039041,0.0013411,0.023279,2.8826,5,0.1,4,2.6,-4.41015,3.07363,1.03955,0.217962,0.817716,0.0123143,0.112057,0.665426,-0.0374317,0.0104815,0.407083,5,0.1,5,2.6,0.0598746,-3.54994,1.24641,-0.223998,-0.0592113,0.122517,0.468589,0.0697374,-0.144482,0.00842729,0.367293,5,0.1,6,2.6,-0.100525,3.78782,0.614087,0.339721,-0.291389,-0.0267893,-0.398647,0.0349283,-0.0134408,0.00929086,1.29894,5,0.1,7,2.6,2.11523,-1.88846,0.527212,-0.00120401,-0.790772,-0.0103295,0.0140667,0.370681,0.00715256,0.00994864,0.384172,5,0.1,8,2.6,-1.30238,-2.46369,0.622572,0.00744462,0.596976,-0.016281,-0.171363,-0.662327,-0.010401,0.010003,0.170494,5,0.1,9,2.6,4.06952,1.91504,0.603608,-0.728858,0.0325263,-0.00335425,-0.814915,-0.0300407,0.00312924,0.0120942,2.2593,5,0.1,10,2.6,0.414889,3.29188,0.612174,-0.581151,0.421774,0.149401,0.367463,-0.361204,0.322372,0.0118272,0.672592,5,0.1,11,2.6,2.00071,-5.82428,0.570555,-0.432655,-0.0213146,0.266011,1.16217,0.0293255,0.39497,0.0145405,3.27943,5,0.1,12,2.6,-3.08039,-0.499265,0.500003,-0.147057,0.000147521,-4.17233e-05,0.21565,0.0853986,0.000357628,0.00837244,0.330656,5,0.1,13,2.6,1.90274,-2.39781,0.749869,0.00362396,-0.0149488,0.00270307,-0.0986457,0.0417233,-0.0120997,0.0123028,0.259639,5,0.1,14,2.6,-1.37746,1.72991,0.63366,0.849333,-0.183022,0.00723004,-0.180602,0.130951,-0.005126,0.00856996,0.654893,5,0.1,15,2.6,0.11891,-1.66955,0.612971,0.0059424,-0.835073,-0.0299305,-0.0012964,0.384033,0.00649691,0.0116426,2.72114,5,0.1,16,2.6,3.56389,-4.05415,0.601908,-0.319129,0.105119,-0.00318885,-1.40107,0.166178,0.00697374,0.0113643,2.14156,5,0.1,17,2.6,2.63328,-3.05349,0.677251,0.557238,-0.0795305,0.00800937,-0.474095,0.0859499,-0.00867248,0.00991654,0.122868,5,0.1,18,2.6,2.30363,-2.57646,0.720755,0.197023,-0.140148,-0.0202224,-1.58155,0.29099,0.0316799,0.016005,3.53622,5,0.1,19,2.6,4.30082,1.45469,0.601924,-0.0121832,0.116625,-0.00494719,0.128746,-0.197589,0.00834465,0.00893402,0.321095,5,0.1
0,2.7,-0.0717785,3.44419,0.636283,-0.360157,0.387139,0.167139,0.814281,-1.2801,0.0308938,0.00633365,0.884465,5,0.1,1,2.7,-2.75422,-0.427126,0.608075,-0.363966,-0.0515028,-0.00644131,0.365332,-0.12169,0.0256114,0.00883287,0.171954,5,0.1,2,2.7,3.87219,-3.19477,0.571018,-0.132436,0.865617,0.0110131,-0.0605136,0.0163615,-0.00104308,0.0436895,2.26194,5,0.1,3,2.7,-0.31067,1.46107,0.619433,-0.174199,-0.418471,-0.00677994,0.124516,-0.773601,0.000420958,0.023279,2.8826,5,0.1,4,2.7,-4.38814,3.15786,1.04062,0.218951,0.858457,0.00915695,-0.0824034,0.16439,-0.0263229,0.0104815,0.407083,5,0.1,5,2.7,0.0398653,-3.55553,1.25797,-0.175947,-0.0526831,0.108995,0.483367,0.0620782,-0.128537,0.00842729,0.367293,5,0.1,6,2.7,-0.0686902,3.75898,0.611268,0.295924,-0.283925,-0.0301495,-0.462322,0.116706,-0.047721,0.00929086,1.29894,5,0.1,7,2.7,2.11519,-1.96581,0.52621,0.000439584,-0.756566,-0.00976054,0.0178516,0.341229,0.0047572,0.00994864,0.384172,5,0.1,8,2.7,-1.30243,-2.407,0.6209,-0.00774246,0.53907,-0.0170695,-0.131495,-0.518173,-0.00490993,0.010003,0.170494,5,0.1,9,2.7,3.99273,1.91815,0.603287,-0.803967,0.0298107,-0.00307197,-0.644669,-0.0253245,0.00262633,0.0120942,2.2593,5,0.1,10,2.7,0.358698,3.332,0.628797,-0.541619,0.378237,0.183236,0.429684,-0.499234,0.334088,0.0118272,0.672592,5,0.1,11,2.7,1.96335,-5.82628,0.599163,-0.31564,-0.0187658,0.305831,1.10238,0.0224411,0.376761,0.0145405,3.27943,5,0.1,12,2.7,-3.09479,-0.498981,0.500001,-0.147295,0.00407239,-1.42492e-05,-0.172362,-0.00172108,0.00019744,0.00837244,0.330656,5,0.1,13,2.7,1.90249,-2.39911,0.750083,-0.0107178,-0.0110555,0.00163615,-0.219814,0.0360459,-0.00928342,0.0123028,0.259639,5,0.1,14,2.7,-1.29327,1.71222,0.634359,0.834805,-0.170938,0.00675628,-0.147849,0.116497,-0.00457093,0.00856996,0.654893,5,0.1,15,2.7,0.1195,-1.75011,0.609998,0.0058755,-0.76743,-0.0295962,-0.000389293,0.911288,0.00194088,0.0116426,2.72114,5,0.1,16,2.7,3.52462,-4.04276,0.601622,-0.467763,0.122681,-0.00256104,-1.49405,0.173181,0.00564381,0.0113643,2.14156,5,0.1,17,2.7,2.68677,-3.06104,0.678011,0.513536,-0.0717279,0.00722203,-0.416413,0.0724643,-0.00730902,0.00991654,0.122868,5,0.1,18,2.7,2.31477,-2.58906,0.71891,0.0213362,-0.112226,-0.0165107,-1.85058,0.266626,0.0411794,0.016005,3.53622,5,0.1,19,2.7,4.30013,1.46542,0.60147,-0.00246093,0.0983745,-0.00414075,0.0686347,-0.169381,0.00778958,0.00893402,0.321095,5,0.1
0,2.8,-0.103506,3.47596,0.652798,-0.272893,0.244415,0.159995,0.904474,-1.50824,-0.159085,0.00578184,0.431824,5,0.1,1,2.8,-2.78873,-0.432899,0.607569,-0.325471,-0.063882,-0.00361353,0.406504,-0.117317,0.0296533,0.0121422,0.116811,5,0.1,2,2.8,3.85868,-3.10818,0.572112,-0.136989,0.866026,0.0108346,-0.0241995,0,-0.00298023,0.0444158,2.25867,5,0.1,3,2.8,-0.327424,1.4149,0.618758,-0.160411,-0.507468,-0.00669658,0.153065,-0.921845,0.00149012,0.0221342,2.55865,5,0.1,4,2.8,-4.36691,3.2438,1.04142,0.203359,0.853401,0.00693798,-0.220299,-0.252604,-0.0186563,0.00891227,0.712814,5,0.1,5,2.8,0.0246499,-3.56049,1.26824,-0.128912,-0.046587,0.0963748,0.450531,0.0606775,-0.125647,0.00814312,0.364049,5,0.1,6,2.8,-0.0414188,3.73132,0.607999,0.24965,-0.26775,-0.035274,-0.454179,0.207424,-0.0501871,0.0114131,1.26407,5,0.1,7,2.8,2.11532,-2.03962,0.525257,0.00221133,-0.717854,-0.0092864,0.0166893,0.452042,0.00506639,0.00789202,0.27408,5,0.1,8,2.8,-1.30379,-2.3556,0.61918,-0.0187337,0.489485,-0.01719,-0.0880361,-0.489712,0.00280142,0.0103882,2.84576,5,0.1,9,2.8,3.90965,1.921,0.602993,-0.851595,0.027284,-0.00280887,-0.288606,-0.025928,0.00265241,0.0122612,1.77676,5,0.1,10,2.8,0.306829,3.36717,0.648674,-0.494235,0.323868,0.212757,0.521317,-0.579,0.241965,0.0107144,0.583572,5,0.1,11,2.8,1.93673,-5.82805,0.631434,-0.223255,-0.0166774,0.337182,0.710368,0.0197887,0.233144,0.0146447,3.26786,5,0.1,12,2.8,-3.11069,-0.498689,0.5,-0.173014,0.000842661,-1.49012e-06,-0.304699,-0.0576526,8.9407e-05,0.00847673,0.274844,5,0.1,13,2.8,1.9,-2.40004,0.750205,-0.0421375,-0.00775456,0.000835955,-0.395,0.0299215,-0.00670552,0.0111909,0.198856,5,0.1,14,2.8,-1.21073,1.69573,0.635011,0.813365,-0.158754,0.00627786,-0.307024,0.13119,-0.0051856,0.00880466,0.454842,5,0.1,15,2.8,0.120085,-1.82181,0.607053,0.00580475,-0.662854,-0.029242,-0.00127032,1.13732,0.0064075,0.00822899,3.05786,5,0.1,16,2.8,3.47075,-4.0297,0.601392,-0.6046,0.137722,-0.00204891,-1.18697,0.119448,0.00467896,0.0146695,1.64176,5,0.1,17,2.8,2.73603,-3.06786,0.678698,0.471169,-0.0646412,0.00650734,-0.442624,0.0710487,-0.00715256,0.0111696,0.142126,5,0.1,18,2.8,2.30777,-2.599,0.717471,-0.158852,-0.0869751,-0.0122339,-1.6923,0.237823,0.0433028,0.0158686,3.09713,5,0.1,19,2.8,4.30015,1.47444,0.601094,0.00211,0.0824153,-0.0033915,0.0255108,-0.151336,0.00727177,0.00854466,0.315701,5,0.1
0,2.9,-0.126696,3.49271,0.667985,-0.194904,0.0903182,0.14356,0.665419,-1.52776,-0.170089,0.00578184,0.431824,5,0.1,1,2.9,-2.8196,-0.439959,0.607327,-0.29494,-0.0778604,-0.0014781,0.227451,-0.150671,0.0141002,0.0121422,0.116811,5,0.1,2,2.9,3.84482,-3.02157,0.573185,-0.1404,0.866026,0.0106402,-0.0352561,0,-0.00150502,0.0444158,2.25867,5,0.1,3,2.9,-0.342689,1.35888,0.618094,-0.144767,-0.617222,-0.00660829,0.160906,-1.18306,0.000648201,0.0221342,2.55865,5,0.1,4,2.9,-4.34787,3.32811,1.04203,0.175757,0.834251,0.00542998,-0.320762,-0.17187,-0.0119805,0.00891227,0.712814,5,0.1,5,2.9,0.0139604,-3.56486,1.27728,-0.0856575,-0.0409983,0.0848042,0.404191,0.0521541,-0.107996,0.00814312,0.364049,5,0.1,6,2.9,-0.0187178,3.70584,0.604035,0.205231,-0.239744,-0.045481,-0.405376,0.341192,-0.139322,0.0114131,1.26407,5,0.1,7,2.9,2.11563,-2.10897,0.524302,0.00397153,-0.667297,-0.0102301,0.0176877,0.562951,-0.0204928,0.00789202,0.27408,5,0.1,8,2.9,-1.30593,-2.30738,0.617483,-0.0223922,0.489285,-0.0166873,0.0070557,0.372455,0.0073947,0.0103882,2.84576,5,0.1,9,2.9,3.82361,1.92361,0.602724,-0.865124,0.0249388,-0.00256915,-0.0360757,-0.0218377,0.00223517,0.0122612,1.77676,5,0.1,10,2.9,0.260011,3.39652,0.67104,-0.442018,0.262171,0.233156,0.526898,-0.64148,0.157904,0.0107144,0.583572,5,0.1,11,2.9,1.91737,-5.82963,0.666331,-0.172537,-0.0149988,0.36035,0.213496,0.0145137,0.208788,0.0146447,3.26786,5,0.1,12,2.9,-3.12981,-0.498927,0.5,-0.21153,-0.00604359,3.63216e-06,-0.430301,-0.0836384,1.86265e-05,0.00847673,0.274844,5,0.1,13,2.9,1.89346,-2.40068,0.750258,-0.0912091,-0.00503771,0.000265986,-0.550367,0.0243634,-0.00473857,0.0111909,0.198856,5,0.1,14,2.9,-1.13081,1.68047,0.635615,0.785509,-0.146677,0.00580037,-0.280879,0.115134,-0.00454858,0.00880466,0.454842,5,0.1,15,2.9,0.120661,-1.88195,0.604149,0.00573604,-0.537757,-0.028895,-0.000437722,1.27269,0.00221282,0.00822899,3.05786,5,0.1,16,2.9,3.40436,-4.01533,0.601209,-0.721436,0.149494,-0.00163512,-1.09012,0.106737,0.00365451,0.0146695,1.64176,5,0.1,17,2.9,2.7813,-3.07402,0.679318,0.437216,-0.059117,0.00595134,-0.265211,0.0434071,-0.00436604,0.0111696,0.142126,5,0.1,18,2.9,2.28368,-2.60686,0.716331,-0.319051,-0.0734013,-0.0117146,-1.47052,0.0523478,-0.0253282,0.0158686,3.09713,5,0.1,19,2.9,4.30053,1.48194,0.60079,0.00565052,0.0676958,-0.00270791,0.0362992,-0.142567,0.0064075,0.00854466,0.315701,5,0.1
0,3,-0.143186,3.49438,0.68147,-0.137934,-0.0532031,0.12593,0.482634,-1.30939,-0.182569,0.0066123,0.511997,5,0.1,1,3,-2.84809,-0.448475,0.607231,-0.275892,-0.0920154,-0.000602007,0.171065,-0.123993,0.00429153,0.00985258,0.115146,5,0.1,2,3,3.83065,-2.93497,0.57424,-0.14255,0.866026,0.0104338,-0.00154972,0,-0.00306964,0.0454148,2.25835,5,0.1,3,3,-0.356342,1.29142,0.617437,-0.128073,-0.728482,-0.00650436,0.17345,-0.976324,0.00169873,0.0225516,2.35688,5,0.1,4,3,-4.33199,3.41054,1.04252,0.141191,0.81197,0.00445545,-0.361681,-0.302434,-0.00804663,0.00976738,0.0798947,5,0.1,5,3,0.00727192,-3.56871,1.28524,-0.0497103,-0.0359654,0.0743926,0.308749,0.0491142,-0.101745,0.0121024,0.549847,5,0.1,6,3,0,3.68371,0.598743,0.171399,-0.201637,-0.0605628,-0.271848,0.411272,-0.151217,0.00848005,1.18421,5,0.1,7,3,2.11611,-2.17268,0.523158,0.00560284,-0.604802,-0.0127733,0.0143051,0.687838,-0.027746,0.00980464,0.197421,5,0.1,8,3,-1.30803,-2.25593,0.615859,-0.0187367,0.543946,-0.0156939,0.0596642,0.633836,0.0125468,0.013421,2.67708,5,0.1,9,3,3.73703,1.926,0.602478,-0.866026,0.022769,-0.00234544,0,-0.0222325,0.00223517,0.0107375,1.36949,5,0.1,10,3,0.218478,3.41952,0.694952,-0.388272,0.197983,0.243038,0.550002,-0.631928,0.0348389,0.00800025,0.622826,5,0.1,11,3,1.9,-5.83106,0.703226,-0.186113,-0.0136495,0.375333,-0.450134,0.013113,0.0762045,0.0167011,2.96063,5,0.1,12,3,-3.15309,-0.5,0.500001,-0.25295,-0.0158519,2.98023e-06,-0.372291,-0.1086,0,0.00605945,0.236898,5,0.1,13,3,1.88158,-2.40107,0.750264,-0.145912,-0.0028789,-0.000120699,-0.516772,0.0188351,-0.00303984,0.00836947,0.332584,5,0.1,14,3,-1.05383,1.66638,0.636172,0.752011,-0.134912,0.00533462,-0.41002,0.123322,-0.00485778,0.00825121,0.310099,5,0.1,15,3,0.121232,-1.92971,0.601275,0.00566021,-0.422239,-0.0285119,-0.00131503,0.990272,0.00661612,0.00981911,3.17971,5,0.1,16,3,3.32733,-3.99993,0.601062,-0.81256,0.157499,-0.00130683,-0.691056,0.0472069,0.00289083,0.0113921,1.5205,5,0.1,17,3,2.82379,-3.07973,0.679893,0.41312,-0.0552654,0.00556409,-0.237703,0.0365973,-0.00369549,0.0116259,0.0828415,5,0.1,18,3,2.24507,-2.61412,0.714971,-0.446081,-0.0731707,-0.0159457,-1.04249,-0.0329018,-0.0533462,0.01599,2.82018,5,0.1,19,3,4.30124,1.48802,0.60055,0.00796318,0.0539899,-0.00210851,0.00452995,-0.131249,0.00554323,0.00981234,0.297933,5,0.1
0,3.1,-0.1556,3.48384,0.693025,-0.119234,-0.145378,0.104153,-0.0522779,-0.576019,-0.244532,0.0066123,0.511997,5,0.1,1,3.1,-2.87513,-0.458107,0.607172,-0.267188,-0.0988353,-0.000751577,0.0289232,-0.0161733,-0.00607222,0.00985258,0.115146,5,0.1,2,3.1,3.81634,-2.84837,0.575272,-0.143826,0.866026,0.0102373,-0.0154078,0,-0.00145286,0.0454148,2.25835,5,0.1,3,3.1,-0.368166,1.21417,0.616787,-0.107445,-0.810796,-0.00656378,0.231631,-0.644259,-0.00216067,0.0225516,2.35688,5,0.1,4,3.1,-4.31969,3.48985,1.04294,0.104866,0.770597,0.0039909,-0.358731,-0.524923,-0.00192225,0.00976738,0.0798947,5,0.1,5,3.1,0.00377173,-3.57207,1.2922,-0.0216254,-0.0314962,0.0651361,0.230274,0.0411719,-0.0852868,0.0121024,0.549847,5,0.1,6,3.1,0.0164248,3.66561,0.591797,0.162545,-0.160345,-0.0792653,0.0558867,0.407577,-0.206802,0.00848005,1.18421,5,0.1,7,3.1,2.11678,-2.22996,0.521757,0.00795014,-0.54276,-0.0150902,0.0299066,0.571355,-0.0181794,0.00980464,0.197421,5,0.1,8,3.1,-1.30953,-2.19767,0.614355,-0.0106815,0.62597,-0.0143622,0.096336,0.921831,0.0141747,0.013421,2.67708,5,0.1,9,3.1,3.65043,1.92817,0.602254,-0.865808,0.0207594,-0.00214279,0.00871718,-0.0186786,0.00189245,0.0107375,1.36949,5,0.1,10,3.1,0.18326,3.4356,0.719082,-0.308919,0.119272,0.236388,0.981219,-0.895455,-0.15581,0.00800025,0.622826,5,0.1,11,3.1,1.87775,-5.83237,0.741161,-0.270013,-0.0125572,0.383079,-1.11908,0.00935793,0.0601299,0.0167011,2.96063,5,0.1,12,3.1,-3.18034,-0.502158,0.500001,-0.292333,-0.0274649,1.86265e-06,-0.387624,-0.117764,-1.49012e-05,0.00605945,0.236898,5,0.1,13,3.1,1.86454,-2.4018,0.750769,-0.193135,-0.0163753,0.0146645,-0.414617,-0.254825,0.26508,0.00836947,0.332584,5,0.1,14,3.1,-0.980551,1.65347,0.636682,0.714043,-0.123604,0.00488888,-0.374615,0.106834,-0.00420958,0.00825121,0.310099,5,0.1,15,3.1,0.121793,-1.96745,0.598447,0.00557912,-0.340274,-0.0281039,-0.000615139,0.538968,0.00309572,0.00981911,3.17971,5,0.1,16,3.1,3.24346,-3.98395,0.600945,-0.857032,0.161869,-0.00105528,-0.228211,0.0328124,0.00218675,0.0113921,1.5205,5,0.1,17,3.1,2.86407,-3.0851,0.680434,0.393397,-0.0522643,0.00526141,-0.175685,0.0260472,-0.00263005,0.0116259,0.0828415,5,0.1,18,3.1,2.19544,-2.62184,0.713042,-0.543594,-0.0831299,-0.0231377,-0.871748,-0.147313,-0.0839718,0.01599,2.82018,5,0.1,19,3.1,4.3021,1.49279,0.600365,0.00904351,0.041635,-0.00159815,-0.0051856,-0.115603,0.00467151,0.00981234,0.297933,5,0.1
0,3.2,-0.168285,3.46735,0.702173,-0.138335,-0.176162,0.0785381,-0.285544,-0.0754595,-0.261039,0.0104795,0.51421,5,0.1,1,3.2,-2.90176,-0.46792,0.607058,-0.265622,-0.0960112,-0.00160038,0.0213385,0.0688136,-0.00998378,0.00751914,0.156251,5,0.1,2,3.2,3.80192,-2.76177,0.576287,-0.144178,0.866026,0.0100434,0.0145435,0,-0.00283122,0.0330892,2.2585,5,0.1,3,3.2,-0.377708,1.13056,0.616119,-0.0830933,-0.854567,-0.00680983,0.249386,-0.22918,-0.00217557,0.0209202,0.535166,5,0.1,4,3.2,-4.31095,3.56392,1.04333,0.0705123,0.707293,0.00394881,-0.323772,-0.737906,0.000476837,0.00916772,0.237429,5,0.1,5,3.2,0.00249698,-3.57502,1.2983,-0.00674782,-0.0275671,0.0570089,0.0590273,0.0380278,-0.0786781,0.00897227,0.738612,5,0.1,6,3.2,0.0332359,3.65156,0.582853,0.175672,-0.121319,-0.0991508,0.176489,0.368357,-0.179261,0.0103659,1.03969,5,0.1,7,3.2,2.11773,-2.28145,0.520175,0.0111043,-0.487387,-0.0163466,0.0311136,0.549316,-0.00673532,0.0100525,0.14554,5,0.1,8,3.2,-1.31009,-2.13056,0.612993,-0.00039041,0.713617,-0.0128478,0.105381,0.7689,0.0161529,0.0103871,2.49222,5,0.1,9,3.2,3.56396,1.93015,0.602049,-0.862545,0.0189126,-0.00195652,0.0697374,-0.0188947,0.00196695,0.0124202,1.02937,5,0.1,10,3.2,0.157605,3.44294,0.74171,-0.201993,0.0271559,0.2141,1.11349,-0.910878,-0.279695,0.00789158,0.355992,5,0.1,11,3.2,1.84479,-5.83358,0.779619,-0.390777,-0.0116587,0.384238,-1.21337,0.00882149,-0.0495017,0.0133017,2.58722,5,0.1,12,3.2,-3.21135,-0.505469,0.500001,-0.325751,-0.0383899,1.49012e-06,-0.261068,-0.0964701,-5.96046e-05,0.00742356,0.210701,5,0.1,13,3.2,1.84341,-2.40494,0.753774,-0.226694,-0.0478148,0.0469133,-0.248313,-0.347733,0.353813,0.00975724,0.233115,5,0.1,14,3.2,-0.91113,1.64164,0.63715,0.672837,-0.112864,0.00446439,-0.466734,0.110626,-0.00435114,0.00828134,0.209094,5,0.1,15,3.2,0.122347,-2,0.595657,0.00548456,-0.322503,-0.0276268,-0.00149757,-0.153899,0.00751019,0.008581,2.94616,5,0.1,16,3.2,3.15712,-3.96767,0.600849,-0.866026,0.162822,-0.000862777,0,-0.0184774,0.00175834,0.014462,1.12538,5,0.1,17,3.2,2.90251,-3.0902,0.680947,0.374746,-0.049603,0.00499338,-0.210643,0.0290871,-0.00295043,0.0125936,0.0645541,5,0.1,18,3.2,2.13725,-2.63095,0.710302,-0.614417,-0.0992954,-0.0316009,-0.520468,-0.161886,-0.0803769,0.0116937,0.651002,5,0.1,19,3.2,4.30283,1.4964,0.600227,0.00386238,0.030905,-0.00117272,-0.10705,-0.0988245,0.0038445,0.0072321,0.259145,5,0.1
0,3.3,-0.183568,3.45055,0.708871,-0.167152,-0.14962,0.0567907,-0.275016,0.539988,-0.178516,0.0104795,0.51421,5,0.1,1,3.3,-2.9282,-0.477042,0.606845,-0.262678,-0.0852322,-0.00265101,0.0463724,0.139929,-0.0105165,0.00751914,0.156251,5,0.1,2,3.3,3.78752,-2.67516,0.577281,-0.143973,0.866026,0.00987025,-0.00204146,0,-0.00121072,0.0330892,2.2585,5,0.1,3,3.3,-0.384748,1.04442,0.615421,-0.0576484,-0.864428,-0.00716662,0.253862,0.00662729,-0.00429526,0.0209202,0.535166,5,0.1,4,3.3,-4.30542,3.63128,1.04373,0.0409089,0.642355,0.00401493,-0.266999,-0.586629,0.000633299,0.00916772,0.237429,5,0.1,5,3.3,0.00192863,-3.5776,1.30364,-0.00784412,-0.0241406,0.0499213,-0.128172,0.0312626,-0.0646785,0.00897227,0.738612,5,0.1,6,3.3,0.0520024,3.64076,0.57219,0.201999,-0.0992112,-0.112613,0.317725,0.0997782,-0.0899471,0.0103659,1.03969,5,0.1,7,3.3,2.11895,-2.32775,0.518533,0.0129141,-0.440941,-0.016268,0.00649691,0.401333,0.00753999,0.0100525,0.14554,5,0.1,8,3.3,-1.30972,-2.05533,0.611786,0.00673346,0.789908,-0.0113068,0.0470728,0.702307,0.014849,0.0103871,2.49222,5,0.1,9,3.3,3.47777,1.93196,0.601863,-0.862923,0.0172073,-0.0017792,-0.0278354,-0.0158176,0.00164658,0.0124202,1.02937,5,0.1,10,3.3,0.142864,3.4411,0.761464,-0.0943991,-0.0630826,0.179211,1.0192,-0.867337,-0.387795,0.00789158,0.355992,5,0.1,11,3.3,1.79909,-5.8347,0.817839,-0.526315,-0.0109345,0.380192,-1.41023,0.00619888,-0.0480525,0.0133017,2.58722,5,0.1,12,3.3,-3.24528,-0.509747,0.500001,-0.352857,-0.0467065,-2.32831e-06,-0.256419,-0.0680648,-1.86265e-05,0.00742356,0.210701,5,0.1,13,3.3,1.81945,-2.41139,0.760435,-0.252425,-0.0804245,0.0876521,-0.24654,-0.295967,0.43546,0.00975724,0.233115,5,0.1,14,3.3,-0.846048,1.63087,0.637576,0.629577,-0.102765,0.00406671,-0.419423,0.0947192,-0.00373274,0.00828134,0.209094,5,0.1,15,3.3,0.12289,-2.03452,0.592924,0.0053772,-0.380035,-0.0270884,-0.000926666,-0.884533,0.00464916,0.008581,2.94616,5,0.1,16,3.3,3.07052,-3.95148,0.600771,-0.86562,0.16085,-0.000712834,0.0162423,-0.0269711,0.00127405,0.014462,1.12538,5,0.1,17,3.3,2.93909,-3.09504,0.681434,0.358025,-0.0473425,0.00476446,-0.143424,0.0188351,-0.00190735,0.0125936,0.0645541,5,0.1,18,3.3,2.07481,-2.64219,0.707306,-0.61976,-0.129437,-0.0234823,0.352204,-0.400215,0.21055,0.0116937,0.651002,5,0.1,19,3.3,4.30256,1.49902,0.600128,-0.011193,0.0218444,-0.000826549,-0.225574,-0.0823289,0.00309572,0.0072321,0.259145,5,0.1
0,3.4,-0.201535,3.43885,0.713763,-0.19066,-0.0800371,0.0419915,-0.184156,0.79906,-0.121236,0.00867083,0.218721,5,0.1,1,3.4,-2.95414,-0.484795,0.60653,-0.254893,-0.0692688,-0.00361651,0.114918,0.173777,-0.00840425,0.0117109,0.208555,5,0.1,2,3.4,3.77314,-2.58856,0.578261,-0.143158,0.866026,0.00970215,0.0243187,0,-0.0025332,0.0214443,2.25894,5,0.1,3,3.4,-0.389275,0.958377,0.614684,-0.0333071,-0.851917,-0.00755489,0.228733,0.282198,-0.00292063,0.0229027,0.214162,5,0.1,4,3.4,-4.30257,3.69266,1.04413,0.0173092,0.585544,0.00403523,-0.204802,-0.568271,-0.000417233,0.00941805,0.828357,5,0.1,5,3.4,0,-3.57987,1.30832,-0.0355247,-0.0211775,0.0437945,-0.409646,0.0286102,-0.0590086,0.00839218,1.16673,5,0.1,6,3.4,0.0738055,3.63107,0.560626,0.233585,-0.0967085,-0.117216,0.289999,-0.0295639,-0.00292063,0.0100827,0.919385,5,0.1,7,3.4,2.12024,-2.36993,0.516962,0.012666,-0.403351,-0.0149831,-0.0101328,0.366449,0.017494,0.0114596,0.184295,5,0.1,8,3.4,-1.30885,-1.97329,0.610729,0.0106424,0.845301,-0.00984669,0.0373125,0.37241,0.0144541,0.0116628,2.42186,5,0.1,9,3.4,3.3915,1.9336,0.601693,-0.859743,0.0156462,-0.00161678,0.125647,-0.0157356,0.00163913,0.0126237,0.744276,5,0.1,10,3.4,0.138234,3.43071,0.77746,-0.00140257,-0.141782,0.141318,0.827409,-0.688076,-0.352502,0.00710452,0.303146,5,0.1,11,3.4,1.73968,-5.83577,0.85551,-0.657773,-0.0103235,0.371829,-1.1555,0.0064373,-0.130534,0.0155311,0.373888,5,0.1,12,3.4,-3.28168,-0.5147,0.500001,-0.372863,-0.0517234,-2.98023e-06,-0.126719,-0.0312328,0,0.00608603,0.194032,5,0.1,13,3.4,1.79311,-2.42077,0.77134,-0.27265,-0.105596,0.129578,-0.144184,-0.201702,0.384241,0.0162761,0.207208,5,0.1,14,3.4,-0.785249,1.62107,0.637964,0.585422,-0.0933528,0.003694,-0.47797,0.0958443,-0.00375509,0.00965984,0.140286,5,0.1,15,3.4,0.123422,-2.07739,0.590243,0.00525191,-0.479633,-0.0264585,-0.00177324,-1.02198,0.0089407,0.00758731,2.59128,5,0.1,16,3.4,2.98417,-3.93558,0.600706,-0.859529,0.156426,-0.000600517,0.129819,-0.0653267,0.000983477,0.0120494,0.824484,5,0.1,17,3.4,2.97415,-3.09968,0.681901,0.342721,-0.0453711,0.00456572,-0.176311,0.0226498,-0.00229478,0.0101991,0.0293892,5,0.1,18,3.4,2.01562,-2.65725,0.706272,-0.555268,-0.172186,0.00475943,0.886142,-0.424027,0.328988,0.00900046,0.248696,5,0.1,19,3.4,4.3,1.50082,0.60006,-0.0430465,0.0144392,-0.000552833,-0.397444,-0.0657439,0.00241399,0.00846513,0.198358,5,0.1
0,3.5,-0.221118,3.43486,0.71742,-0.197271,-0.000194088,0.0317466,0.0396911,0.775591,-0.085704,0.00867083,0.218721,5,0.1,1,3.5,-2.97909,-0.490836,0.606125,-0.244237,-0.0514873,-0.00448795,0.107646,0.177566,-0.00850484,0.0117109,0.208555,5,0.1,2,3.5,3.7589,-2.50196,0.579223,-0.142064,0.866026,0.00955518,0.00578165,0,-0.000976026,0.0214443,2.25894,5,0.1,3,3.5,-0.391487,0.8748,0.613912,-0.0112729,-0.817235,-0.00789603,0.207854,0.42396,-0.00337884,0.0229027,0.214162,5,0.1,4,3.5,-4.30166,3.74908,1.04453,0.00271052,0.548661,0.00400357,-0.0940561,-0.220105,-0.000402331,0.00941805,0.828357,5,0.1,5,3.5,-0.0065026,-3.58185,1.31242,-0.101734,-0.0186205,0.0385206,-0.843747,0.0231862,-0.0478029,0.00839218,1.16673,5,0.1,6,3.5,0.0981446,3.62079,0.549025,0.248916,-0.112794,-0.113563,0.0327579,-0.257909,0.0722371,0.0100827,0.919385,5,0.1,7,3.5,2.12143,-2.40891,0.515565,0.0107884,-0.379965,-0.0128254,-0.0256896,0.136226,0.0248179,0.0114596,0.184295,5,0.1,8,3.5,-1.30771,-1.88756,0.609812,0.0117319,0.864204,-0.00853231,0.00972301,0.0623316,0.0120737,0.0116628,2.42186,5,0.1,9,3.5,3.30598,1.93509,0.601539,-0.851337,0.0142263,-0.00146907,0.0839829,-0.0131503,0.00137091,0.0126237,0.744276,5,0.1,10,3.5,0.141775,3.41329,0.789887,0.0677258,-0.204321,0.109151,0.558772,-0.548318,-0.242233,0.00710452,0.303146,5,0.1,11,3.5,1.66905,-5.83677,0.891634,-0.745234,-0.009799,0.346976,-0.591144,0.00458956,-0.351805,0.0155311,0.373888,5,0.1,12,3.5,-3.31968,-0.519987,0.5,-0.387339,-0.0535954,-2.51457e-06,-0.138715,-0.0057891,1.11759e-05,0.00608603,0.194032,5,0.1,13,3.5,1.76493,-2.43194,0.785631,-0.29228,-0.114249,0.150897,-0.220433,0.0139475,0.0624023,0.0162761,0.207208,5,0.1,14,3.5,-0.728959,1.61218,0.638316,0.541292,-0.084639,0.00335192,-0.422094,0.0812262,-0.00319257,0.00965984,0.140286,5,0.1,15,3.5,0.12394,-2.1311,0.587634,0.00511394,-0.59861,-0.0257626,-0.00123866,-1.26711,0.00625104,0.00758731,2.59128,5,0.1,16,3.5,2.89865,-3.92025,0.60065,-0.852069,0.150099,-0.000518467,0.0637472,-0.066191,0.000689179,0.0120494,0.824484,5,0.1,17,3.5,3.00757,-3.1041,0.682346,0.325516,-0.0431899,0.00434536,-0.178114,0.0224262,-0.00225753,0.0101991,0.0293892,5,0.1,18,3.5,1.96459,-2.67667,0.708611,-0.464922,-0.216413,0.0435884,0.911772,-0.435278,0.423413,0.00900046,0.248696,5,0.1,19,3.5,4.29336,1.50196,0.600015,-0.0922561,0.00857338,-0.000340957,-0.550807,-0.0516474,0.00183657,0.00846513,0.198358,5,0.1
0,3.6,-0.240362,3.43853,0.720211,-0.185025,0.0712693,0.0244811,0.194438,0.63777,-0.0613332,0.00940263,0.292805,5,0.1,1,3.6,-3.00292,-0.495119,0.605637,-0.231797,-0.034491,-0.00522882,0.1477,0.159293,-0.00602007,0.00978049,0.196455,5,0.1,2,3.6,3.74474,-2.41536,0.580172,-0.140589,0.866026,0.00941157,0.0293255,0,-0.00232458,0.0223802,2.40798,5,0.1,3,3.6,-0.391637,0.795511,0.613108,0.00757053,-0.765215,-0.00814199,0.166193,0.622958,-0.00116229,0.0214885,0.12176,5,0.1,4,3.6,-4.30172,3.80308,1.04493,-0.00276566,0.532639,0.00392497,-0.0212193,-0.13864,-0.0012517,0.0092361,2.96912,5,0.1,5,3.6,-0.0211307,-3.5836,1.31605,-0.191794,-0.016427,0.0339985,-0.903455,0.0209808,-0.0435114,0.00981964,1.05067,5,0.1,6,3.6,0.122883,3.60807,0.538128,0.24302,-0.142264,-0.103481,-0.137977,-0.305176,0.125974,0.00792023,0.799647,5,0.1,7,3.6,2.12236,-2.44637,0.514413,0.00783801,-0.369996,-0.0101715,-0.0319481,0.0892878,0.0275373,0.0101578,0.113169,5,0.1,8,3.6,-1.30638,-1.801,0.609017,0.0161976,0.866026,-0.00738949,0.0904799,0,0.0109375,0.0130194,2.38627,5,0.1,9,3.6,3.22148,1.93645,0.601399,-0.835931,0.0129312,-0.00133514,0.253081,-0.013113,0.00137091,0.01171,0.522114,5,0.1,10,3.6,0.150923,3.39044,0.8,0.111179,-0.249106,0.0971869,0.314929,-0.338316,-0.00244379,0.00655212,0.257706,5,0.1,11,3.6,1.59252,-5.83773,0.924309,-0.776088,-0.00932217,0.304224,-0.0295043,0.00500679,-0.490427,0.0134713,1.06585,5,0.1,12,3.6,-3.35897,-0.525331,0.5,-0.396532,-0.052835,-1.49012e-06,-0.0283718,0.0210106,0,0.00662551,0.184073,5,0.1,13,3.6,1.73466,-2.44304,0.800641,-0.31192,-0.105512,0.145799,-0.152171,0.148416,-0.147194,0.0129834,0.154093,5,0.1,14,3.6,-0.676964,1.60412,0.638636,0.498052,-0.0766337,0.00303537,-0.454724,0.0808239,-0.00315905,0.0101471,0.0940602,5,0.1,15,3.6,0.124444,-2.19709,0.585093,0.00496134,-0.717407,-0.0249937,-0.00198931,-1.04296,0.0100732,0.00877251,2.35732,5,0.1,16,3.6,2.81395,-3.90561,0.600601,-0.839239,0.14236,-0.000457466,0.223756,-0.0917912,0.000536442,0.0104383,0.583771,5,0.1,17,3.6,3.03916,-3.1083,0.682768,0.30539,-0.0406444,0.00408888,-0.231147,0.0294447,-0.00298023,0.0128547,0.0113956,5,0.1,18,3.6,1.92263,-2.70034,0.715079,-0.374565,-0.254935,0.0852242,0.88793,-0.317335,0.391304,0.00785073,0.185334,5,0.1,19,3.6,4.28137,1.50258,0.599989,-0.146937,0.00409484,-0.000183284,-0.515699,-0.038147,0.0013113,0.0103693,0.134534,5,0.1
0,3.7,-0.257696,3.44906,0.722411,-0.159974,0.140614,0.0200221,0.295625,0.712872,-0.0306442,0.00940263,0.292805,5,0.1,1,3.7,-3.02535,-0.497821,0.605086,-0.216653,-0.0200942,-0.00575706,0.159696,0.12652,-0.00427663,0.00978049,0.196455,5,0.1,2,3.7,3.73078,-2.32941,0.581106,-0.139032,0.846747,0.00928128,0.00986457,-0.368908,-0.00083074,0.0223802,2.40798,5,0.1,3,3.7,-0.390085,0.722103,0.612288,0.0230131,-0.702659,-0.00827312,0.1396,0.63983,-0.00104308,0.0214885,0.12176,5,0.1,4,3.7,-4.30217,3.85671,1.04499,-0.00652596,0.548485,-0.0054013,-0.0410378,0.371516,-0.164956,0.0092361,2.96912,5,0.1,5,3.7,-0.0441382,-3.58515,1.31925,-0.261694,-0.014561,0.030132,-0.503787,0.0168532,-0.0349283,0.00981964,1.05067,5,0.1,6,3.7,0.14615,3.59207,0.528469,0.219764,-0.179553,-0.0891773,-0.292268,-0.409693,0.156619,0.00792023,0.799647,5,0.1,7,3.7,2.12298,-2.48309,0.513536,0.00443794,-0.365641,-0.00737002,-0.0348836,0.0209361,0.0279285,0.0101578,0.113169,5,0.1,8,3.7,-1.30423,-1.7144,0.608328,0.0286648,0.866026,-0.00643097,0.201173,0,0.00849366,0.0130194,2.38627,5,0.1,9,3.7,3.13903,1.93768,0.601272,-0.813498,0.0117496,-0.00121165,0.22909,-0.0109375,0.00113994,0.01171,0.522114,5,0.1,10,3.7,0.163234,3.36398,0.810238,0.131465,-0.278331,0.111923,0.100899,-0.234857,0.259575,0.00655212,0.257706,5,0.1,11,3.7,1.51442,-5.83864,0.952164,-0.787923,-0.00889301,0.251964,-0.153743,0.00393391,-0.54466,0.0134713,1.06585,5,0.1,12,3.7,-3.39888,-0.530502,0.5,-0.402401,-0.0504985,-4.65661e-07,-0.0643879,0.0267625,1.11759e-05,0.00662551,0.184073,5,0.1,13,3.7,1.70272,-2.45276,0.814324,-0.326359,-0.088064,0.126496,-0.120267,0.194445,-0.230085,0.0129834,0.154093,5,0.1,14,3.7,-0.629297,1.59683,0.638924,0.45628,-0.0693129,0.00274824,-0.39532,0.067912,-0.00267103,0.0101471,0.0940602,5,0.1,15,3.7,0.124932,-2.27353,0.582636,0.00480388,-0.805471,-0.0241961,-0.00139792,-0.692502,0.0070706,0.00877251,2.35732,5,0.1,16,3.7,2.731,-3.89181,0.600558,-0.820227,0.133666,-0.000413414,0.19221,-0.0861883,0.000361353,0.0104383,0.583771,5,0.1,17,3.7,3.06853,-3.11222,0.683162,0.28177,-0.0376347,0.00378508,-0.245914,0.0314265,-0.0031665,0.0128547,0.0113956,5,0.1,18,3.7,1.88912,-2.72731,0.725578,-0.300035,-0.283046,0.124505,0.621684,-0.231788,0.377614,0.00785073,0.185334,5,0.1,19,3.7,4.26408,1.50282,0.599977,-0.198609,0.0008123,-7.20844e-05,-0.494421,-0.0276342,0.000916421,0.0103693,0.134534,5,0.1
0,3.8,-0.272123,3.46656,0.724291,-0.127886,0.207585,0.0178531,0.337213,0.6001,-0.014931,0.0104815,0.162209,5,0.1,1,3.8,-3.04617,-0.499265,0.604494,-0.199133,-0.00946596,-0.00604093,0.193119,0.0853837,-0.0012219,0.00856472,0.318639,5,0.1,2,3.8,3.71695,-2.24708,0.582028,-0.13724,0.795275,0.0091508,0.0315905,-0.64683,-0.00217557,0.0235068,2.73232,5,0.1,3,3.8,-0.387151,0.65514,0.611458,0.0349872,-0.63538,-0.00828058,0.0978857,0.712812,0.00113249,0.019651,0.281315,5,0.1,4,3.8,-4.30298,3.91369,1.0435,-0.00895262,0.592202,-0.0254512,0,0.439763,-0.220239,0.011949,2.80871,5,0.1,5,3.8,-0.0722312,-3.58653,1.32209,-0.294454,-0.012964,0.0268191,-0.161197,0.0154972,-0.0320673,0.00846844,0.49102,5,0.1,6,3.8,0.16663,3.5721,0.520361,0.190012,-0.218844,-0.0727937,-0.283189,-0.353456,0.168145,0.0115474,0.679639,5,0.1,7,3.8,2.12325,-2.51951,0.512935,0.00106096,-0.361854,-0.00468642,-0.0315905,0.0715256,0.025332,0.0117925,0.0648086,5,0.1,8,3.8,-1.3,-1.6278,0.607725,0.059396,0.866026,-0.00564456,0.400782,-5.96046e-05,0.00739098,0.0115254,2.32668,5,0.1,9,3.8,3.05901,1.9388,0.601156,-0.784463,0.0106752,-0.0011012,0.374436,-0.0109076,0.00116229,0.0110032,0.358221,5,0.1,10,3.8,0.176601,3.33522,0.822906,0.133272,-0.294262,0.142469,-0.0557452,-0.0765324,0.322551,0.00802991,0.20815,5,0.1,11,3.8,1.43501,-5.83951,0.974617,-0.797683,-0.00846386,0.197114,-0.00333786,0.00500679,-0.54422,0.0128863,0.261535,5,0.1,12,3.8,-3.43934,-0.535402,0.5,-0.405216,-0.0473157,1.49012e-06,0.0253916,0.0374913,-2.98023e-05,0.00898421,3.31672,5,0.1,13,3.8,1.66964,-2.46056,0.825747,-0.333238,-0.0677288,0.101373,-0.0063777,0.207424,-0.265211,0.0131407,0.173897,5,0.1,14,3.8,-0.585644,1.59023,0.639186,0.416513,-0.0626564,0.002487,-0.410169,0.0669956,-0.00268221,0.00839208,0.109113,5,0.1,15,3.8,0.125405,-2.35682,0.580255,0.00464171,-0.853115,-0.023374,-0.00202656,-0.258207,0.0101626,0.0104728,2.27907,5,0.1,16,3.8,2.65012,-3.87889,0.600518,-0.794774,0.124431,-0.00037998,0.341296,-0.101447,0.000327826,0.0119131,0.403423,5,0.1,17,3.8,3.09542,-3.11582,0.683524,0.255466,-0.0342548,0.00344366,-0.282645,0.0365973,-0.00366569,0.0115884,0.00589937,5,0.1,18,3.8,1.86192,-2.75654,0.739781,-0.246817,-0.299156,0.157906,0.457704,-0.082016,0.278741,0.0170601,3.47949,5,0.1,19,3.8,4.24194,1.50278,0.599974,-0.241864,-0.00146031,2.98023e-06,-0.354767,-0.0180006,0.000566244,0.0102712,0.112221,5,0.1
0,3.9,-0.283226,3.49026,0.726028,-0.0943284,0.265184,0.0170958,0.328034,0.528902,-0.00214204,0.0104815,0.162209,5,0.1,1,3.9,-3.06509,-0.499764,0.603888,-0.179013,-0.000545103,-0.00604438,0.209704,0.0838861,0.00118837,0.00856472,0.318639,5,0.1,2,3.9,3.70333,-2.1713,0.582936,-0.135443,0.716065,0.00902982,0.0121593,-0.903443,-0.000778586,0.0235068,2.73232,5,0.1,3,3.9,-0.383194,0.594742,0.610635,0.0437587,-0.576057,-0.00817655,0.0751764,0.504076,0.00127777,0.019651,0.281315,5,0.1,4,3.9,-4.30394,3.97563,1.03972,-0.0101238,0.650014,-0.0510465,0.00923872,0.646546,-0.275552,0.011949,2.80871,5,0.1,5,3.9,-0.10179,-3.58775,1.32463,-0.29065,-0.0115909,0.0239795,0.20343,0.0123978,-0.0256374,0.00846844,0.49102,5,0.1,6,3.9,0.184256,3.54827,0.513958,0.164027,-0.258594,-0.0550182,-0.196543,-0.411108,0.182886,0.0115474,0.679639,5,0.1,7,3.9,2.1232,-2.55537,0.51259,-0.00199117,-0.355449,-0.00227317,-0.0287145,0.0713468,0.0225827,0.0117925,0.0648086,5,0.1,8,3.9,-1.29153,-1.54119,0.607193,0.114029,0.866025,-0.00502104,0.64411,1.49012e-05,0.00533834,0.0115254,2.32668,5,0.1,9,3.9,2.98231,1.93982,0.601051,-0.749889,0.00969358,-0.000996981,0.344455,-0.00907481,0.0009574,0.0110032,0.358221,5,0.1,10,3.9,0.189468,3.30545,0.838973,0.122464,-0.300426,0.180213,-0.152563,-0.0350326,0.403482,0.00802991,0.20815,5,0.1,11,3.9,1.35553,-5.84033,0.991636,-0.788536,-0.00801906,0.143725,0.198998,0.00420213,-0.516642,0.0128863,0.261535,5,0.1,12,3.9,-3.47969,-0.54192,0.500088,-0.40103,-0.0995875,0.00251019,0.0709593,-0.957649,0.0446253,0.00898421,3.31672,5,0.1,13,3.9,1.63604,-2.46622,0.834717,-0.340419,-0.0449684,0.0794609,-0.108182,0.239417,-0.179041,0.0131407,0.173897,5,0.1,14,3.9,-0.545711,1.58425,0.639423,0.384829,-0.057498,0.00227969,-0.248823,0.0401288,-0.00162423,0.00839208,0.109113,5,0.1,15,3.9,0.12586,-2.44292,0.577959,0.00448385,-0.865219,-0.0225826,-0.00135973,-0.0322759,0.00682101,0.0104728,2.27907,5,0.1,16,3.9,2.57223,-3.86693,0.600482,-0.76358,0.114955,-0.000353437,0.311658,-0.0915378,0.000227243,0.0119131,0.403423,5,0.1,17,3.9,3.11957,-3.11906,0.68385,0.227696,-0.0306565,0.00308324,-0.276268,0.0358671,-0.00359118,0.0115884,0.00589937,5,0.1,18,3.9,1.83769,-2.78598,0.756399,-0.25313,-0.281792,0.169312,-0.472553,0.387743,-0.0296682,0.0170601,3.47949,5,0.1,19,3.9,4.21594,1.50256,0.599977,-0.277791,-0.00292473,4.74043e-05,-0.339955,-0.0113845,0.000331551,0.0102712,0.112221,5,0.1
0,4,-0.291074,3.51915,0.727735,-0.063286,0.309515,0.0170887,0.288665,0.342011,0.000536442,0.00919198,0.138916,5,0.1,1,4,-3.08192,-0.499459,0.603293,-0.157171,0.00588521,-0.00579953,0.227213,0.0395924,0.00363588,0.00991648,2.9787,5,0.1,2,4,3.68987,-2.10441,0.583834,-0.133473,0.62024,0.00890493,0.0326633,-0.990152,-0.00211596,0.0185072,3.13998,5,0.1,3,4,-0.378496,0.539516,0.609826,0.049638,-0.529277,-0.00796765,0.0409335,0.453935,0.00306964,0.0232945,0.526668,5,0.1,4,4,-4.3047,4.04373,1.03325,-0.002563,0.70945,-0.0777572,0.154972,0.491142,-0.246823,0.00972231,2.6305,5,0.1,5,4,-0.129463,-3.58885,1.3269,-0.259729,-0.010407,0.0215322,0.389225,0.0115633,-0.0239015,0.00922361,0.275861,5,0.1,6,4,0.2,3.52047,0.509365,0.154054,-0.295842,-0.0370085,-0.00936538,-0.311732,0.173897,0.00992451,0.548694,5,0.1,7,4,2.12287,-2.59046,0.512468,-0.00455379,-0.345105,-0.000230968,-0.0221729,0.145674,0.0180304,0.0102196,0.0474821,5,0.1,8,4,-1.27683,-1.45459,0.606716,0.179842,0.866026,-0.00453293,0.63616,-5.96046e-05,0.00464916,0.0137346,2.2483,5,0.1,9,4,2.90918,1.94074,0.600956,-0.710952,0.00880063,-0.0009045,0.452757,-0.0089407,0.000953674,0.0107412,0.242312,5,0.1,10,4,0.200846,3.27538,0.85895,0.104198,-0.29934,0.218177,-0.206202,0.0644922,0.33474,0.0103431,0.807233,5,0.1,11,4,1.27809,-5.84111,1.00352,-0.755978,-0.00756979,0.094983,0.458539,0.00500679,-0.453174,0.0140237,1.17911,5,0.1,12,4,-3.51928,-0.557458,0.500598,-0.388956,-0.216585,0.00793487,0.178695,-1.28502,0.0594854,0.0110429,2.81358,5,0.1,13,4,1.60149,-2.46953,0.841869,-0.349861,-0.0213206,0.0644818,-0.0596046,0.227332,-0.125319,0.0125528,1.84402,5,0.1,14,4,-0.508376,1.57868,0.639644,0.362347,-0.0539452,0.00213683,-0.219554,0.0338554,-0.00140071,0.00853342,0.0636165,5,0.1,15,4,0.126302,-2.52951,0.575738,0.00433028,-0.866026,-0.0218123,-0.0018701,0,0.00944734,0.00910615,2.02205,5,0.1,16,4,2.49758,-3.8559,0.600447,-0.727546,0.105542,-0.000332296,0.428796,-0.0990629,0.000238419,0.0107526,0.274221,5,0.1,17,4,3.14095,-3.12194,0.684141,0.199658,-0.0269949,0.00271797,-0.286222,0.0374317,-0.00378489,0.0116225,0.00178395,5,0.1,18,4,1.80924,-2.81173,0.772816,-0.321528,-0.229138,0.155829,-0.808895,0.631332,-0.222415,0.0146692,2.80819,5,0.1,19,4,4.18665,1.50222,0.599983,-0.305831,-0.00376105,7.15256e-05,-0.204563,-0.00542402,0.000119209,0.00929404,0.0557019,5,0.1
0,4.1,-0.296043,3.55167,0.729456,-0.0370351,0.339036,0.0173772,0.232123,0.234574,0.00396371,0.00919198,0.138916,5,0.1,1,4.1,-3.09729,-0.498439,0.602734,-0.156842,0.0152524,-0.00536321,-0.171557,0.0872537,0.00505522,0.00991648,2.9787,5,0.1,2,4.1,3.67663,-2.04762,0.584717,-0.131463,0.51371,0.00878004,0.0149012,-1.10252,-0.000882894,0.0185072,3.13998,5,0.1,3,4.1,-0.373348,0.488273,0.609044,0.0530533,-0.500291,-0.00767661,0.0254624,0.169974,0.00302121,0.0232945,0.526668,5,0.1,4,4.1,-4.30404,4.1174,1.0242,0.0187941,0.765089,-0.103382,0.328451,0.561327,-0.252329,0.00972231,2.6305,5,0.1,5,4.1,-0.153257,-3.58984,1.32894,-0.21473,-0.00938363,0.0194177,0.476782,0.00925362,-0.019148,0.00922361,0.275861,5,0.1,6,4.1,0.21578,3.48924,0.506546,0.164918,-0.328924,-0.0193657,0.194221,-0.323147,0.174358,0.00992451,0.548694,5,0.1,7,4.1,2.12231,-2.62433,0.512532,-0.00668652,-0.332725,0.0014686,-0.0197142,0.117451,0.0156052,0.0102196,0.0474821,5,0.1,8,4.1,-1.25544,-1.36799,0.606283,0.249147,0.866014,-0.00415985,0.709206,-0.000432134,0.00306219,0.0137346,2.2483,5,0.1,9,4.1,2.84022,1.94158,0.60087,-0.668935,0.00799578,-0.000819191,0.410244,-0.00744313,0.000782311,0.0107412,0.242312,5,0.1,10,4.1,0.209709,3.24681,0.88192,0.0687015,-0.262949,0.236339,-0.46843,0.607342,0.0425316,0.0103431,0.807233,5,0.1,11,4.1,1.20407,-5.84184,1.0113,-0.72992,-0.00711605,0.0655958,0.123747,0.00432134,-0.159375,0.0140237,1.17911,5,0.1,12,4.1,-3.55733,-0.586314,0.501723,-0.372197,-0.365778,0.0147978,0.169635,-1.6023,0.0734925,0.0110429,2.81358,5,0.1,13,4.1,1.56509,-2.47043,0.847591,-0.387021,0.00394993,0.0491571,-0.597559,0.26603,-0.173651,0.0125528,1.84402,5,0.1,14,4.1,-0.4731,1.57343,0.639852,0.344141,-0.0511909,0.00202246,-0.161275,0.0238493,-0.000983477,0.00853342,0.0636165,5,0.1,15,4.1,0.126727,-2.61611,0.573597,0.00417968,-0.866026,-0.0210513,-0.00134483,0,0.0067912,0.00910615,2.02205,5,0.1,16,4.1,2.42684,-3.84582,0.600415,-0.687838,0.0963815,-0.000312645,0.389323,-0.0870824,0.000175089,0.0107526,0.274221,5,0.1,17,4.1,3.1595,-3.12446,0.684394,0.17154,-0.0233058,0.00234544,-0.276789,0.0364333,-0.00367314,0.0116225,0.00178395,5,0.1,18,4.1,1.7721,-2.83165,0.787809,-0.428127,-0.170859,0.148436,-1.22631,0.534371,0.0421479,0.0146692,2.80819,5,0.1,19,4.1,4.15515,1.50182,0.59999,-0.322543,-0.00406783,7.73929e-05,-0.117719,-0.00090152,3.72529e-06,0.00929404,0.0557019,5,0.1
0,4.2,-0.298704,3.58648,0.73121,-0.0174299,0.354183,0.0176623,0.158519,0.0598431,0.000834465,0.0103878,0.0918613,5,0.1,1,4.2,-3.11415,-0.496766,0.602225,-0.182778,0.0145838,-0.00479668,-0.30911,-0.127628,0.00625849,0.00830859,2.71038,5,0.1,2,4.2,3.66358,-2.0017,0.58559,-0.129235,0.406054,0.00864267,0.0349283,-1.02538,-0.00220537,0.0270641,3.39114,5,0.1,3,4.2,-0.367954,0.438923,0.608293,0.0544235,-0.487562,-0.00731796,0.000745058,0.1176,0.00438094,0.0185806,2.7738,5,0.1,4,4.2,-4.3,4.19643,1.01268,0.0668049,0.811434,-0.125945,0.61202,0.322819,-0.189424,0.00849379,2.63534,5,0.1,5,4.2,-0.172416,-3.59073,1.33079,-0.169639,-0.0084877,0.0175774,0.406347,0.00870228,-0.0182986,0.00838823,0.876711,5,0.1,6,4.2,0.233359,3.45489,0.50545,0.1872,-0.355911,-0.00293404,0.22687,-0.197649,0.150949,0.00884985,0.418608,5,0.1,7,4.2,2.12155,-2.65696,0.512751,-0.00836849,-0.318992,0.00282973,-0.0135899,0.167727,0.0113547,0.0114056,0.020632,5,0.1,8,4.2,-1.22713,-1.28139,0.605881,0.314665,0.865847,-0.00387877,0.571609,-0.00351667,0.00277162,0.0102012,2.0847,5,0.1,9,4.2,2.77546,1.94235,0.600792,-0.625086,0.00726581,-0.000742078,0.482202,-0.00739098,0.000745058,0.0146924,0.18369,5,0.1,10,4.2,0.214044,3.22407,0.905381,0.0167891,-0.187939,0.229348,-0.542358,0.848174,-0.169724,0.00937424,0.666505,5,0.1,11,4.2,1.13156,-5.84253,1.01738,-0.72059,-0.0066638,0.058639,0.107944,0.00500679,0.000298023,0.0126414,0.894486,5,0.1,12,4.2,-3.59363,-0.630774,0.503565,-0.35283,-0.520267,0.0218883,0.226617,-1.41624,0.0651479,0.0102001,2.46022,5,0.1,13,4.2,1.5231,-2.46872,0.85161,-0.45425,0.0297785,0.0310898,-0.681758,0.241637,-0.181884,0.0117641,1.4716,5,0.1,14,4.2,-0.439508,1.56843,0.640049,0.327237,-0.0487268,0.00192076,-0.188649,0.0272393,-0.00110269,0.00859127,0.0497486,5,0.1,15,4.2,0.127137,-2.70272,0.571528,0.00402667,-0.866026,-0.0202775,-0.00186265,0,0.00935793,0.0107598,1.59024,5,0.1,16,4.2,2.3601,-3.83661,0.600385,-0.645655,0.0876367,-0.000296533,0.470757,-0.090003,0.000208616,0.0130792,0.48957,5,0.1,17,4.2,3.17528,-3.12661,0.68461,0.144219,-0.0196934,0.00198185,-0.269771,0.0357628,-0.00360608,0.00972698,0.000830889,5,0.1,18,4.2,1.72312,-2.84622,0.803081,-0.549909,-0.122201,0.158516,-1.13726,0.439048,0.134468,0.0162127,2.34032,5,0.1,19,4.2,4.12253,1.50142,0.599998,-0.327456,-0.00397563,7.30157e-05,0.0269413,0.0025034,-5.96046e-05,0.00873697,0.0832011,5,0.1
0,4.3,-0.299782,3.62207,0.732982,-0.00533625,0.356107,0.0177595,0.0855196,-0.0293404,0.000301749,0.0103878,0.0918613,5,0.1,1,4.3,-3.1343,-0.496235,0.601777,-0.222515,-0.00898298,-0.00416562,-0.448316,-0.418276,0.00634789,0.00830859,2.71038,5,0.1,2,4.3,3.65092,-1.96626,0.586446,-0.123243,0.304136,0.0084945,0.08367,-0.943631,-0.00121072,0.0270641,3.39114,5,0.1,3,4.3,-0.362778,0.389308,0.607584,0.0467574,-0.516473,-0.00685332,-0.139188,-0.588641,0.00502542,0.0185806,2.7738,5,0.1,4,4.3,-4.28953,4.27796,0.999126,0.148218,0.807946,-0.144994,0.948757,-0.356287,-0.179905,0.00849379,2.63534,5,0.1,5,4.3,-0.187388,-3.59154,1.33247,-0.132491,-0.00771619,0.0159569,0.254549,0.00704825,-0.0147372,0.00838823,0.876711,5,0.1,6,4.3,0.253379,3.4183,0.505895,0.214208,-0.37552,0.0115638,0.288472,-0.173464,0.135589,0.00884985,0.418608,5,0.1,7,4.3,2.12065,-2.68802,0.513086,-0.0095237,-0.301869,0.00381554,-0.00913441,0.182509,0.00819936,0.0114056,0.020632,5,0.1,8,4.3,-1.19272,-1.19481,0.605505,0.373556,0.865848,-0.00366932,0.570662,-0.000886619,0.00164285,0.0102012,2.0847,5,0.1,9,4.3,2.71522,1.94319,0.600721,-0.580471,0.0110464,-0.000675395,0.428975,0.072889,0.000618398,0.0146924,0.18369,5,0.1,10,4.3,0.212845,3.20988,0.927247,-0.0417546,-0.0932544,0.20604,-0.602176,1.00422,-0.286575,0.00937424,0.666505,5,0.1,11,4.3,1.05969,-5.84318,1.02351,-0.719238,-0.00620782,0.0660084,-0.0329688,0.00435114,0.128299,0.0126414,0.894486,5,0.1,12,4.3,-3.62782,-0.689991,0.506063,-0.331231,-0.663318,0.0278649,0.215292,-1.37258,0.0525601,0.0102001,2.46022,5,0.1,13,4.3,1.47384,-2.46452,0.853791,-0.533475,0.0539608,0.0124642,-0.837028,0.232935,-0.185113,0.0117641,1.4716,5,0.1,14,4.3,-0.407582,1.56367,0.640236,0.312299,-0.0466272,0.00183554,-0.127403,0.0174344,-0.00070408,0.00859127,0.0497486,5,0.1,15,4.3,0.127532,-2.78932,0.569542,0.00386485,-0.865951,-0.0194645,-0.00153668,0.00299513,0.00772998,0.0107598,1.59024,5,0.1,16,4.3,2.29754,-3.82827,0.600356,-0.608034,0.0793826,-0.000278838,0.314742,-0.0775307,0.000156462,0.0130792,0.48957,5,0.1,17,4.3,3.18839,-3.1284,0.684791,0.118158,-0.0162266,0.0016327,-0.25098,0.0335276,-0.00337139,0.00972698,0.000830889,5,0.1,18,4.3,1.66213,-2.85639,0.819844,-0.671182,-0.0826027,0.178496,-1.21156,0.3535,0.239585,0.0162127,2.34032,5,0.1,19,4.3,4.08982,1.50104,0.600005,-0.327282,-0.00357255,6.45407e-05,-0.00467896,0.00530481,-0.000108033,0.00873697,0.0832011,5,0.1
0,4.4,-0.299988,3.65733,0.734753,0.000297278,0.347066,0.0175864,0.031203,-0.155687,-0.00432134,0.0117621,0.20001,5,0.1,1,4.4,-3.15877,-0.5,0.601392,-0.265968,-0.0736013,-0.00352859,-0.393033,-0.844806,0.00634789,0.00735597,2.31136,5,0.1,2,4.4,3.63908,-1.94001,0.587288,-0.11276,0.227284,0.0083223,0.124335,-0.563264,-0.002563,0.0226148,3.37125,5,0.1,3,4.4,-0.358928,0.334278,0.606926,0.0292554,-0.586427,-0.00629723,-0.19902,-0.72901,0.00616908,0.021464,2.59055,5,0.1,4,4.4,-4.26986,4.35611,0.983821,0.244737,0.747025,-0.159951,0.930548,-0.830173,-0.111133,0.0110576,2.34227,5,0.1,5,4.4,-0.2,-3.59228,1.33399,-0.126114,-0.00702739,0.0145257,-0.118785,0.00679493,-0.0143051,0.00797885,1.02295,5,0.1,6,4.4,0.276176,3.38006,0.507681,0.240617,-0.387061,0.0236109,0.221714,-0.043273,0.102997,0.00827614,0.306308,5,0.1,7,4.4,2.11966,-2.71721,0.513502,-0.0101388,-0.281227,0.00444353,-0.00298023,0.2352,0.00429153,0.0112591,0.0117746,5,0.1,8,4.4,-1.15275,-1.10826,0.605146,0.42274,0.86478,-0.0035122,0.388205,-0.0247955,0.00169873,0.0118826,1.57956,5,0.1,9,4.4,2.65936,1.94473,0.600657,-0.536108,0.020045,-0.000615418,0.471234,0.0993609,0.000625849,0.0114578,0.126164,5,0.1,10,4.4,0.205739,3.20555,0.946294,-0.0990767,0.00566244,0.173852,-0.524901,0.942945,-0.348866,0.00990058,0.54475,5,0.1,11,4.4,0.987686,-5.84377,1.03083,-0.718959,-0.00574589,0.0809819,0.0728369,0.00452995,0.156879,0.014319,0.661286,5,0.1,12,4.4,-3.65982,-0.762632,0.509079,-0.308102,-0.782682,0.0321001,0.253916,-0.965953,0.0309348,0.00928525,2.30767,5,0.1,13,4.4,1.41649,-2.45804,0.854144,-0.610331,0.0748158,-0.00497699,-0.652552,0.177741,-0.159711,0.0146716,1.12468,5,0.1,14,4.4,-0.377003,1.5591,0.640416,0.298811,-0.044778,0.00176132,-0.154525,0.0214577,-0.000864267,0.00780903,0.0227137,5,0.1,15,4.4,0.12791,-2.87587,0.567637,0.00369139,-0.864828,-0.0185922,-0.00204891,0.0239611,0.0103414,0.00915984,1.21525,5,0.1,16,4.4,2.23828,-3.82072,0.600329,-0.576997,0.0717103,-0.00026226,0.329733,-0.077486,0.000178814,0.0126628,3.07437,5,0.1,17,4.4,3.19898,-3.12986,0.684937,0.0941217,-0.0130057,0.00130832,-0.229359,0.0308752,-0.00309944,0.0108592,0.000681858,5,0.1,18,4.4,1.58935,-2.86302,0.838893,-0.779095,-0.0513494,0.201993,-0.891984,0.272274,0.211507,0.0139673,1.80084,5,0.1,19,4.4,4.05714,1.50071,0.600011,-0.325215,-0.00296235,5.36442e-05,0.0593662,0.00679493,-0.000149012,0.0100668,0.153703,5,0.1
0,4.5,-0.299838,3.69118,0.736489,0.00236109,0.329119,0.017106,0.0110902,-0.207707,-0.0057891,0.0117621,0.20001,5,0.1,1,4.5,-3.18743,-0.512531,0.60107,-0.30741,-0.184207,-0.00292016,-0.407174,-1.27893,0.00582263,0.00735597,2.31136,5,0.1,2,4.5,3.62852,-1.91958,0.588109,-0.0978466,0.189314,0.00812514,0.169173,-0.100717,-0.00178441,0.0226148,3.37125,5,0.1,3,4.5,-0.357244,0.271435,0.606326,0.0024809,-0.673906,-0.00569131,-0.316432,-0.939921,0.00603497,0.021464,2.59055,5,0.1,4,4.5,-4.24052,4.42584,0.967277,0.34299,0.640982,-0.17063,0.982672,-1.23155,-0.0930876,0.0110576,2.34227,5,0.1,5,4.5,-0.214134,-3.59295,1.33538,-0.164121,-0.00642128,0.0132551,-0.574152,0.00555813,-0.0116155,0.00797885,1.02295,5,0.1,6,4.5,0.301392,3.34114,0.510533,0.263664,-0.390994,0.0331404,0.219977,-0.018537,0.0849888,0.00827614,0.306308,5,0.1,7,4.5,2.11864,-2.74418,0.513964,-0.0102956,-0.257976,0.00476604,0.00013411,0.235811,0.00204518,0.0112591,0.0117746,5,0.1,8,4.5,-1.10855,-1.02179,0.604802,0.460396,0.865017,-0.00338098,0.337139,0.00317395,0.00110641,0.0118826,1.57956,5,0.1,9,4.5,2.60797,1.94729,0.600598,-0.492723,0.0315912,-0.000559539,0.412226,0.123933,0.00051409,0.0114578,0.126164,5,0.1,10,4.5,0.193207,3.21086,0.961885,-0.151042,0.100049,0.13764,-0.494482,0.913978,-0.368539,0.00990058,0.54475,5,0.1,11,4.5,0.915972,-5.84433,1.03982,-0.716169,-0.00532866,0.0992922,0.0209473,0.00399351,0.195034,0.014319,0.661286,5,0.1,12,4.5,-3.6893,-0.844708,0.512331,-0.28068,-0.849087,0.0319326,0.294864,-0.383589,-0.0293851,0.00928525,2.30767,5,0.1,13,4.5,1.35209,-2.4498,0.852862,-0.67742,0.0885323,-0.0203922,-0.638358,0.0967085,-0.144474,0.0146716,1.12468,5,0.1,14,4.5,-0.347872,1.55473,0.640588,0.283796,-0.0427008,0.00167815,-0.154907,0.0215173,-0.000853091,0.00780903,0.0227137,5,0.1,15,4.5,0.12827,-2.96235,0.565826,0.00350645,-0.865048,-0.0176589,-0.00178535,-0.00281632,0.00900403,0.00915984,1.21525,5,0.1,16,4.5,2.18278,-3.81276,0.600304,-0.527842,0.097201,-0.000243727,0.629455,0.512928,0.00019744,0.0126628,3.07437,5,0.1,17,4.5,3.20729,-3.13101,0.685053,0.0724416,-0.0100788,0.00101468,-0.203565,0.027582,-0.00276789,0.0108592,0.000681858,5,0.1,18,4.5,1.50774,-2.8669,0.860232,-0.845348,-0.0273824,0.2251,-0.428982,0.207692,0.230942,0.0139673,1.80084,5,0.1,19,4.5,4.02463,1.50045,0.600015,-0.327132,-0.00226796,3.88362e-05,-0.0682175,0.00694394,-0.000145286,0.0100668,0.153703,5,0.1
0,4.6,-0.299573,3.72294,0.738165,0.00271201,0.304866,0.0163451,-0.00314415,-0.279665,-0.00968575,0.00700269,0.185239,5,0.1,1,4.6,-3.22004,-0.537463,0.600806,-0.342512,-0.313896,-0.00236332,-0.274777,-1.24824,0.00530481,0.00948939,1.84427,5,0.1,2,4.6,3.61962,-1.9,0.588912,-0.0797868,0.21314,0.00789911,0.187874,0.541747,-0.00306964,0.0275574,3.03792,5,0.1,3,4.6,-0.358635,0.199541,0.605788,-0.0304893,-0.760496,-0.00507385,-0.327617,-0.733405,0.00631809,0.0216015,2.42313,5,0.1,4,4.6,-4.20157,4.48352,0.949841,0.43236,0.510991,-0.176997,0.767708,-1.32465,-0.0279248,0.00903335,2.04363,5,0.1,5,4.6,-0.233712,-3.59356,1.33665,-0.229077,-0.00587106,0.0121146,-0.67351,0.00548363,-0.0115633,0.00901079,0.258724,5,0.1,6,4.6,0.328726,3.3021,0.514225,0.281346,-0.387955,0.0401795,0.120282,0.0907183,0.0540614,0.00937961,0.215499,5,0.1,7,4.6,2.11762,-2.76875,0.514446,-0.0100791,-0.233114,0.00483394,0.00452995,0.265002,-0.000685453,0.0136672,0.0035774,5,0.1,8,4.6,-1.0611,-0.935401,0.604469,0.485507,0.86108,-0.00326037,0.14621,-0.0989139,0.00146031,0.0118154,1.15622,5,0.1,9,4.6,2.56076,1.95106,0.600545,-0.450999,0.0435084,-0.00050962,0.433326,0.108719,0.000536442,0.012321,0.150104,5,0.1,10,4.6,0.175815,3.22518,0.97382,-0.194591,0.183183,0.101362,-0.362575,0.727057,-0.351697,0.00941808,0.415643,5,0.1,11,4.6,0.844629,-5.84484,1.05069,-0.708319,-0.00492334,0.117517,0.162631,0.00452995,0.159025,0.0151574,0.473307,5,0.1,12,4.6,-3.71582,-0.930785,0.515311,-0.249153,-0.866026,0.0271127,0.335097,0,-0.0629425,0.00759356,2.25953,5,0.1,13,4.6,1.28152,-2.4406,0.850154,-0.729373,0.0942528,-0.0331774,-0.365376,0.0185966,-0.108361,0.0108695,0.798699,5,0.1,14,4.6,-0.320328,1.55057,0.640752,0.266319,-0.0402361,0.00157952,-0.200585,0.0287294,-0.00110269,0.0110628,0.0138129,5,0.1,15,4.6,0.128611,-3.04874,0.564107,0.00331216,-0.861162,-0.0166789,-0.00220537,0.0971556,0.0111163,0.00814267,0.900678,5,0.1,16,4.6,2.13348,-3.80001,0.60028,-0.455499,0.161076,-0.000222027,0.797391,0.70703,0.000238419,0.0106607,3.15528,5,0.1,17,4.6,3.21356,-3.13189,0.685142,0.053519,-0.00750422,0.000756979,-0.174642,0.0237226,-0.00238419,0.0126979,0.0005404,5,0.1,18,4.6,1.42181,-2.86871,0.883796,-0.866026,-0.00965595,0.244819,0,0.147581,0.149459,0.0117959,1.34285,5,0.1,19,4.6,3.99157,1.50025,0.600018,-0.333738,-0.00159442,2.38419e-05,-0.0425577,0.00631809,-8.9407e-05,0.00871007,0.0935321,5,0.1
0,4.7,-0.299264,3.75201,0.73975,0.00380878,0.276242,0.0153408,0.0174474,-0.295237,-0.0107028,0.00700269,0.185239,5,0.1,1,4.7,-3.25567,-0.575353,0.600595,-0.369575,-0.444785,-0.00186944,-0.244081,-1.30259,0.00458583,0.00948939,1.84427,5,0.1,2,4.7,3.61269,-1.8746,0.589688,-0.0578545,0.305706,0.00763983,0.241101,1.19779,-0.00245869,0.0275574,3.03792,5,0.1,3,4.7,-0.363061,0.120122,0.60531,-0.0556823,-0.824078,-0.00449028,-0.186658,-0.507482,0.00546873,0.0216015,2.42313,5,0.1,4,4.7,-4.15451,4.52794,0.932008,0.50777,0.378528,-0.179406,0.700504,-1.26487,-0.0127144,0.00903335,2.04363,5,0.1,5,4.7,-0.259855,-3.59412,1.3378,-0.291904,-0.00537932,0.0110835,-0.561721,0.00455976,-0.00947714,0.00901079,0.258724,5,0.1,6,4.7,0.357467,3.26374,0.518494,0.293126,-0.379017,0.0449627,0.100121,0.101805,0.039544,0.00937961,0.215499,5,0.1,7,4.7,2.11663,-2.79074,0.514924,-0.00950694,-0.20654,0.00467906,0.00694394,0.268176,-0.00241771,0.0136672,0.0035774,5,0.1,8,4.7,-1.01184,-0.849536,0.60415,0.498755,0.857499,-0.00313865,0.0966005,-0.019908,0.00112131,0.0118154,1.15622,5,0.1,9,4.7,2.51747,1.956,0.600496,-0.417624,0.0555974,-0.000469759,0.261605,0.124916,0.000298023,0.012321,0.150104,5,0.1,10,4.7,0.154597,3.24704,0.982228,-0.228832,0.252434,0.0672154,-0.306841,0.634462,-0.326455,0.00941808,0.415643,5,0.1,11,4.7,0.774496,-5.84531,1.06326,-0.694694,-0.00451058,0.133843,0.140391,0.0038743,0.156477,0.0151574,0.473307,5,0.1,12,4.7,-3.73893,-1.01739,0.517663,-0.212003,-0.866026,0.0195703,0.39953,0,-0.0842512,0.00759356,2.25953,5,0.1,13,4.7,1.20676,-2.43125,0.846317,-0.764814,0.0911579,-0.0432345,-0.303298,-0.0740588,-0.0896193,0.0108695,0.798699,5,0.1,14,4.7,-0.294676,1.54669,0.640904,0.246781,-0.0374358,0.00147168,-0.197312,0.0284016,-0.00109524,0.0110628,0.0138129,5,0.1,15,4.7,0.128932,-3.13462,0.562491,0.00311038,-0.857838,-0.0156621,-0.00194088,0.0167489,0.00977516,0.00814267,0.900678,5,0.1,16,4.7,2.09227,-3.77987,0.600259,-0.366291,0.245095,-0.000199676,0.945449,0.914201,0.000216067,0.0106607,3.15528,5,0.1,17,4.7,3.21809,-3.13253,0.685206,0.0374205,-0.00530928,0.000536535,-0.146896,0.0201166,-0.00202283,0.0126979,0.0005404,5,0.1,18,4.7,1.33521,-2.86901,0.909042,-0.865713,0.00290088,0.259889,0.0124872,0.104114,0.136517,0.0117959,1.34285,5,0.1,19,4.7,3.95791,1.50012,0.60002,-0.339555,-0.00101365,1.49012e-05,-0.0546426,0.00524521,-8.9407e-05,0.00871007,0.0935321,5,0.1
0,4.8,-0.298811,3.77812,0.741227,0.00498518,0.245452,0.0141561,0.00154972,-0.321507,-0.0131726,0.0104465,0.543584,5,0.1,1,4.8,-3.29365,-0.625982,0.60043,-0.387567,-0.562929,-0.00144541,-0.100255,-1.01238,0.00393391,0.00694242,1.39228,5,0.1,2,4.8,3.60813,-1.83772,0.590438,-0.0332832,0.433046,0.00734925,0.242949,1.26415,-0.00357628,0.0232219,0.25806,5,0.1,3,4.8,-0.369398,0.0357291,0.604888,-0.0695907,-0.857974,-0.00395924,-0.0988096,-0.161018,0.00521541,0.0195313,2.37549,5,0.1,4,4.8,-4.10061,4.55994,0.914079,0.565708,0.266945,-0.178289,0.431299,-0.937462,0.0400245,0.00990191,1.74205,5,0.1,5,4.8,-0.291526,-3.59464,1.33886,-0.337881,-0.0049293,0.0101507,-0.34377,0.00452995,-0.00959635,0.0110132,0.92969,5,0.1,6,4.8,0.387145,3.22646,0.523151,0.29882,-0.365305,0.0477538,0.00339746,0.181556,0.0149608,0.00869639,0.147225,5,0.1,7,4.8,2.11572,-2.81004,0.515377,-0.0086844,-0.179249,0.00435263,0.00953674,0.278354,-0.00408292,0.0108775,0.00117239,5,0.1,8,4.8,-0.961714,-0.764072,0.603842,0.501135,0.84907,-0.00301152,-0.0637472,-0.181764,0.00151992,0.012433,0.82067,5,0.1,9,4.8,2.47692,1.96216,0.600451,-0.393909,0.067085,-0.000442564,0.232935,0.0990629,0.000208616,0.0114736,0.0954432,5,0.1,10,4.8,0.130375,3.27515,0.987392,-0.253384,0.306141,0.0368878,-0.173882,0.424027,-0.276715,0.0105025,0.294876,5,0.1,11,4.8,0.705895,-5.84574,1.07735,-0.675093,-0.00412464,0.14694,0.272632,0.00429153,0.097692,0.013215,0.329378,5,0.1,12,4.8,-3.75809,-1.10399,0.519189,-0.170767,-0.866026,0.0109121,0.418186,0,-0.0861287,0.00845182,1.29192,5,0.1,13,4.8,1.12913,-2.42262,0.841598,-0.783306,0.0806272,-0.050579,-0.0392795,-0.131011,-0.0551641,0.0119831,0.858508,5,0.1,14,4.8,-0.271025,1.54309,0.641046,0.225709,-0.034374,0.00135303,-0.228509,0.0334382,-0.0013113,0.00820911,0.00441748,5,0.1,15,4.8,0.129233,-3.22014,0.560975,0.00290535,-0.849742,-0.01463,-0.00223517,0.178456,0.0112653,0.00769364,0.643316,5,0.1,16,4.8,2.06033,-3.75085,0.60024,-0.273359,0.333619,-0.000178814,0.884891,0.81265,0.000208616,0.0112537,3.16964,5,0.1,17,4.8,3.22114,-3.13296,0.68525,0.0241935,-0.00349283,0.000354648,-0.11754,0.0162125,-0.00163913,0.0105242,0.000333392,5,0.1,18,4.8,1.24881,-2.86827,0.935589,-0.861028,0.0112891,0.26952,0.0998378,0.0644922,0.0455678,0.0130967,0.993908,5,0.1,19,4.8,3.92379,1.50005,0.600021,-0.341427,-0.000551343,5.96046e-06,0.0302792,0.00405312,-8.9407e-05,0.00896309,0.0729661,5,0.1
0,4.9,-0.298218,3.80106,0.742574,0.00703717,0.213306,0.0127755,0.0137687,-0.321433,-0.0144765,0.0104465,0.543584,5,0.1,1,4.9,-3.33289,-0.68731,0.600304,-0.396815,-0.66201,-0.00108732,-0.0668466,-0.917643,0.00323728,0.00694242,1.39228,5,0.1,2,4.9,3.60604,-1.78899,0.591157,-0.00857487,0.532677,0.00703726,0.243872,0.728972,-0.00296533,0.0232219,0.25806,5,0.1,3,4.9,-0.376599,-0.0505614,0.604516,-0.0727121,-0.865522,-0.00349656,0.00569783,-0.0201273,0.00417233,0.0195313,2.37549,5,0.1,4,4.9,-4.04195,4.58251,0.896446,0.605996,0.191594,-0.174246,0.34298,-0.515074,0.0469834,0.00990191,1.74205,5,0.1,5,4.9,-0.327547,-3.59511,1.33984,-0.386222,-0.00452176,0.00929218,-0.566686,0.00378489,-0.00791997,0.0110132,0.92969,5,0.1,6,4.9,0.417047,3.1908,0.52799,0.298942,-0.347963,0.0488776,-0.0131987,0.176683,0.00584498,0.00869639,0.147225,5,0.1,7,4.9,2.1149,-2.82658,0.51579,-0.00767224,-0.151817,0.00389796,0.0106543,0.269964,-0.00496209,0.0108775,0.00117239,5,0.1,8,4.9,-0.91211,-0.679936,0.603548,0.488894,0.834063,-0.00288067,-0.187144,-0.155415,0.00121817,0.012433,0.82067,5,0.1,9,4.9,2.43855,1.9692,0.600407,-0.374574,0.0723649,-0.000426266,0.17187,0.0106841,0.000137836,0.0114736,0.0954432,5,0.1,10,4.9,0.104217,3.30777,0.98991,-0.268944,0.344849,0.015433,-0.125073,0.331759,-0.158835,0.0105025,0.294876,5,0.1,11,4.9,0.639651,-5.84614,1.09253,-0.650141,-0.00373721,0.1564,0.251256,0.00357628,0.0828505,0.013215,0.329378,5,0.1,12,4.9,-3.7731,-1.19059,0.519824,-0.129839,-0.865749,0.00163084,0.396043,0.0110865,-0.095699,0.00845182,1.29192,5,0.1,13,4.9,1.05045,-2.41527,0.836283,-0.790758,0.0657834,-0.0554599,-0.0675879,-0.160784,-0.03995,0.0119831,0.858508,5,0.1,14,4.9,-0.249601,1.53983,0.641174,0.202678,-0.0309885,0.00122003,-0.234501,0.0346452,-0.00136346,0.00820911,0.00441748,5,0.1,15,4.9,0.129513,-3.30437,0.559565,0.00270028,-0.835443,-0.0135965,-0.0019595,0.145525,0.00986829,0.00769364,0.643316,5,0.1,16,4.9,2.03738,-3.71326,0.600223,-0.187542,0.418618,-0.000160001,0.775039,0.838771,0.000171363,0.0112537,3.16964,5,0.1,17,4.9,3.22302,-3.13324,0.685278,0.0136901,-0.00203699,0.000207499,-0.0924915,0.0128746,-0.0012964,0.0105242,0.000333392,5,0.1,18,4.9,1.16294,-2.86686,0.962772,-0.857773,0.0164114,0.273839,0.013344,0.0383258,0.0284947,0.0130967,0.993908,5,0.1,19,4.9,3.8897,1.50001,0.600021,-0.340829,-0.000213273,-2.79397e-06,0.00153482,0.00274926,-8.19564e-05,0.00896309,0.0729661,5,0.1
