id,t,px,py,pz,vx,vy,vz,ax,ay,az,planning_time,qp_cost,planning_report,size,id,t,px,py,pz,vx,vy,vz,ax,ay,az,planning_time,qp_cost,planning_report,size,id,t,px,py,pz,vx,vy,vz,ax,ay,az,planning_time,qp_cost,planning_report,size,id,t,px,py,pz,vx,vy,vz,ax,ay,az,planning_time,qp_cost,planning_report,size,id,t,px,py,pz,vx,vy,vz,ax,ay,az,planning_time,qp_cost,planning_report,size,id,t,px,py,pz,vx,vy,vz,ax,ay,az,planning_time,qp_cost,planning_report,size,id,t,px,py,pz,vx,vy,vz,ax,ay,az,planning_time,qp_cost,planning_report,size,id,t,px,py,pz,vx,vy,vz,ax,ay,az,planning_time,qp_cost,planning_report,size,id,t,px,py,pz,vx,vy,vz,ax,ay,az,planning_time,qp_cost,planning_report,size,id,t,px,py,pz,vx,vy,vz,ax,ay,az,planning_time,qp_cost,planning_report,size,id,t,px,py,pz,vx,vy,vz,ax,ay,az,planning_time,qp_cost,planning_report,size,id,t,px,py,pz,vx,vy,vz,ax,ay,az,planning_time,qp_cost,planning_report,size,id,t,px,py,pz,vx,vy,vz,ax,ay,az,planning_time,qp_cost,planning_report,size,id,t,px,py,pz,vx,vy,vz,ax,ay,az,planning_time,qp_cost,planning_report,size,id,t,px,py,pz,vx,vy,vz,ax,ay,az,planning_time,qp_cost,planning_report,size,id,t,px,py,pz,vx,vy,vz,ax,ay,az,planning_time,qp_cost,planning_report,size,id,t,px,py,pz,vx,vy,vz,ax,ay,az,planning_time,qp_cost,planning_report,size,id,t,px,py,pz,vx,vy,vz,ax,ay,az,planning_time,qp_cost,planning_report,size,id,t,px,py,pz,vx,vy,vz,ax,ay,az,planning_time,qp_cost,planning_report,size,id,t,px,py,pz,vx,vy,vz,ax,ay,az,planning_time,qp_cost,planning_report,size
0,0,0.326762,-3.25748,0.582619,0,0,0,0,0,0,0.0142103,3.5122,5,0.1,1,0,-1.04933,5.76163,0.662845,0,0,0,0,0,0,0.0152439,3.51219,5,0.1,2,0,-3.44886,-1.97983,0.572815,0,0,0,0,0,0,0.0150229,0.463006,5,0.1,3,0,0.378026,-4.02114,0.657634,0,0,0,0,0,0,0.0101161,0.306696,5,0.1,4,0,5.15695,1.4496,0.54693,0,0,0,0,0,0,0.0118397,3.51219,5,0.1,5,0,-5.24969,-5.63986,0.506077,0,0,0,0,0,0,0.0279718,0.546774,5,0.1,6,0,-4.11951,-5.81675,0.605886,0,0,0,0,0,0,0.0232554,1.15007,5,0.1,7,0,-3.71206,-3.10811,0.551826,0,0,0,0,0,0,0.0120721,3.00175,5,0.1,8,0,0.330954,2.37401,0.627861,0,0,0,0,0,0,0.0186794,1.32685,5,0.1,9,0,-3.43776,-0.818969,0.683723,0,0,0,0,0,0,0.0517956,2.16412,5,0.1,10,0,2.29932,-0.279573,0.596739,0,0,0,0,0,0,0.0159684,3.51219,5,0.1,11,0,-1.51906,2.14176,0.596717,0,0,0,0,0,0,0.0323434,0.860187,5,0.1,12,0,1.18109,5.34272,0.514097,0,0,0,0,0,0,0.0215094,1.47915,5,0.1,13,0,-1.51086,-4.00751,0.591135,0,0,0,0,0,0,0.0142126,0.363055,5,0.1,14,0,4.54934,1.1344,0.500822,0,0,0,0,0,0,0.0198923,0.888271,5,0.1,15,0,0.236022,-0.653228,0.516358,0,0,0,0,0,0,0.0134391,2.30144,5,0.1,16,0,-2.55398,4.31937,0.57527,0,0,0,0,0,0,0.0791949,3.5122,5,0.1,17,0,1.13265,-0.290705,0.647232,0,0,0,0,0,0,0.0296309,1.33154,5,0.1,18,0,-1.61018,4.9009,0.555937,0,0,0,0,0,0,0.0263056,3.5122,5,0.1,19,0,0.300687,-1.83455,0.642311,0,0,0,0,0,0,0.014131,2.00016,5,0.1
0,0.1,0.326505,-3.25541,0.582688,-0.00728536,0.0587877,0.00194572,-0.129517,1.04509,0.0345856,0.0142103,3.5122,5,0.1,1,0.1,-1.04832,5.7598,0.662792,0.0287455,-0.0518091,-0.00150632,0.51102,-0.921041,-0.0267774,0.0152439,3.51219,5,0.1,2,0.1,-3.4484,-1.98042,0.572843,0.0133019,-0.0168962,0.000805687,0.236467,-0.300385,0.0143237,0.0150229,0.463006,5,0.1,3,0.1,0.378571,-4.02085,0.657574,0.0154682,0.00803471,-0.00170777,0.274992,0.142813,-0.0303648,0.0101161,0.306696,5,0.1,4,0.1,5.15694,1.44751,0.5469,-0.000493228,-0.0592604,-0.000838563,-0.00876188,-1.05351,-0.0149086,0.0118397,3.51219,5,0.1,5,0.1,-5.24891,-5.63961,0.506025,0.0222161,0.00710934,-0.00147671,0.39494,0.126362,-0.0262484,0.0279718,0.546774,5,0.1,6,0.1,-4.11944,-5.81585,0.606663,0.00206083,0.0256836,0.0220513,0.0366569,0.456631,0.39202,0.0232554,1.15007,5,0.1,7,0.1,-3.71022,-3.10753,0.551876,0.0522166,0.0165395,0.00142772,0.928313,0.29403,0.0253767,0.0120721,3.00175,5,0.1,8,0.1,0.332143,2.37448,0.627783,0.0337747,0.0134666,-0.00223117,0.600439,0.239387,-0.0396706,0.0186794,1.32685,5,0.1,9,0.1,-3.43636,-0.818114,0.683792,0.0396434,0.0242695,0.00196397,0.70478,0.431456,0.0349134,0.0517956,2.16412,5,0.1,10,0.1,2.2973,-0.279029,0.596742,-0.0572246,0.0154308,8.67993e-05,-1.01732,0.274325,0.00154227,0.0159684,3.51219,5,0.1,11,0.1,-1.51904,2.14109,0.597503,0.000564568,-0.0190184,0.0223229,0.0100359,-0.338107,0.396848,0.0323434,0.860187,5,0.1,12,0.1,1.18111,5.34168,0.514969,0.000560284,-0.0294186,0.0247712,0.00995398,-0.523001,0.440378,0.0215094,1.47915,5,0.1,13,0.1,-1.51147,-4.00724,0.591144,-0.0174588,0.00763014,0.000262633,-0.310369,0.13563,0.00467151,0.0142126,0.363055,5,0.1,14,0.1,4.54914,1.13338,0.500815,-0.00590831,-0.029172,-0.000199676,-0.105023,-0.51862,-0.00355393,0.0198923,0.888271,5,0.1,15,0.1,0.237568,-0.652568,0.516526,0.0439116,0.018728,0.00477768,0.78065,0.332944,0.0849366,0.0134391,2.30144,5,0.1,16,0.1,-2.55195,4.31889,0.575291,0.0576694,-0.0136584,0.000593252,1.02524,-0.242829,0.0105426,0.0791949,3.5122,5,0.1,17,0.1,1.13162,-0.289932,0.647182,-0.02912,0.0219502,-0.0013995,-0.517689,0.390224,-0.0248812,0.0296309,1.33154,5,0.1,18,0.1,-1.61214,4.90018,0.555968,-0.0556631,-0.0203341,0.000895094,-0.989579,-0.361502,0.0159182,0.0263056,3.5122,5,0.1,19,0.1,0.301312,-1.83311,0.642267,0.0177601,0.04103,-0.00125403,0.315737,0.729427,-0.0222884,0.014131,2.00016,5,0.1
0,0.2,0.325025,-3.24347,0.583083,-0.0230245,0.185794,0.00614971,-0.172704,1.39344,0.0461042,0.0109446,2.9258,5,0.1,1,0.2,-1.04248,5.74928,0.662486,0.0908494,-0.163746,-0.00476092,0.681341,-1.22809,-0.0357032,0.0148372,2.92579,5,0.1,2,0.2,-3.44569,-1.98386,0.573007,0.0420392,-0.0533998,0.00254512,0.315309,-0.400543,0.0191331,0.0153539,0.379873,5,0.1,3,0.2,0.381713,-4.01922,0.657227,0.0488877,0.0254035,-0.0053972,0.366643,0.190258,-0.0405014,0.0115051,0.251631,5,0.1,4,0.2,5.15684,1.43547,0.54673,-0.00156164,-0.187293,-0.00265092,-0.0116825,-1.4047,-0.0198781,0.0119145,2.92579,5,0.1,5,0.2,-5.24439,-5.63816,0.505725,0.0702143,0.022471,-0.00466704,0.526667,0.168324,-0.0349879,0.0228523,0.448903,5,0.1,6,0.2,-4.11902,-5.81063,0.611142,0.00650883,0.0811815,0.0696927,0.0488758,0.608683,0.522673,0.0206682,0.943579,5,0.1,7,0.2,-3.69961,-3.10417,0.552166,0.165033,0.0522733,0.00451207,1.23763,0.39196,0.0338256,0.0110388,2.4628,5,0.1,8,0.2,0.339004,2.37722,0.62733,0.106744,0.0425577,-0.00705123,0.80058,0.319362,-0.0528991,0.0153469,1.08861,5,0.1,9,0.2,-3.42831,-0.813184,0.684191,0.125289,0.0767037,0.00620782,0.939727,0.575274,0.0465512,0.0576873,1.77556,5,0.1,10,0.2,2.28568,-0.275895,0.59676,-0.180852,0.0487685,0.000274181,-1.3566,0.365779,0.00205636,0.0177747,2.92708,5,0.1,11,0.2,-1.51893,2.13723,0.602038,0.00178516,-0.0601053,0.0705525,0.013411,-0.45085,0.52911,0.0328151,0.705739,5,0.1,12,0.2,1.18122,5.33571,0.520001,0.00177324,-0.0929832,0.0782892,0.0132322,-0.697136,0.587195,0.0254428,1.21357,5,0.1,13,0.2,-1.51502,-4.00569,0.591197,-0.055179,0.024128,0.000829995,-0.413835,0.180721,0.00622869,0.0131063,0.455366,5,0.1,14,0.2,4.54794,1.12745,0.500775,-0.0186682,-0.0921994,-0.000631809,-0.14019,-0.691414,-0.00473857,0.0140845,0.729229,5,0.1,15,0.2,0.246488,-0.648764,0.517497,0.138782,0.0591889,0.0151008,1.04087,0.443935,0.113219,0.0152129,1.88822,5,0.1,16,0.2,-2.54023,4.31611,0.575411,0.182265,-0.0431657,0.00187606,1.36697,-0.323772,0.0140369,0.0977374,2.9258,5,0.1,17,0.2,1.12571,-0.285473,0.646898,-0.0920326,0.0693731,-0.00442415,-0.690281,0.520304,-0.03317,0.0328746,1.09246,5,0.1,18,0.2,-1.62345,4.89605,0.55615,-0.175923,-0.0642657,0.00282973,-1.31947,-0.482082,0.0211895,0.0290748,2.92579,5,0.1,19,0.2,0.30492,-1.82477,0.642013,0.0561304,0.129676,-0.00396222,0.420988,0.972509,-0.0297427,0.0178839,1.64103,5,0.1
0,0.3,0.321762,-3.21714,0.583954,-0.0428866,0.346053,0.0114526,-0.212241,1.71252,0.0566728,0.0109446,2.9258,5,0.1,1,0.3,-1.02961,5.72607,0.661812,0.16921,-0.304987,-0.00886722,0.837363,-1.50925,-0.0438802,0.0148372,2.92579,5,0.1,2,0.3,-3.43974,-1.99142,0.573367,0.078208,-0.0993455,0.00473876,0.385821,-0.490122,0.0233874,0.0153539,0.379873,5,0.1,3,0.3,0.388637,-4.01562,0.656462,0.0909461,0.0472352,-0.0100425,0.448657,0.232935,-0.0495538,0.0115051,0.251631,5,0.1,4,0.3,5.15661,1.40893,0.546354,-0.00290498,-0.348846,-0.00493713,-0.0143349,-1.72634,-0.0244305,0.0119145,2.92579,5,0.1,5,0.3,-5.23445,-5.63498,0.505106,0.130627,0.0417858,-0.00748597,0.644386,0.206053,-0.0215769,0.0228523,0.448903,5,0.1,6,0.3,-4.1181,-5.79913,0.621012,0.0121139,0.15101,0.12965,0.0597537,0.744939,0.639599,0.0206682,0.943579,5,0.1,7,0.3,-3.67624,-3.09677,0.552805,0.307007,0.0972386,0.00839271,1.51454,0.479683,0.0413954,0.0110388,2.4628,5,0.1,8,0.3,0.354122,2.38325,0.626331,0.19858,0.0791863,-0.013119,0.979653,0.390708,-0.0647232,0.0153469,1.08861,5,0.1,9,0.3,-3.41056,-0.802321,0.68507,0.233085,0.142694,0.0115477,1.14991,0.703949,0.0569634,0.0576873,1.77556,5,0.1,10,0.3,2.26016,-0.268984,0.596799,-0.333712,0.0908359,0.000510737,-1.61114,0.449525,0.00252575,0.0177747,2.92708,5,0.1,11,0.3,-1.51867,2.12872,0.61203,0.00332259,-0.111822,0.131248,0.0164062,-0.551656,0.647478,0.0328151,0.705739,5,0.1,12,0.3,1.18147,5.32254,0.531089,0.00329278,-0.17296,0.145646,0.0162274,-0.853211,0.718519,0.0254428,1.21357,5,0.1,13,0.3,-1.52299,-4.00227,0.591315,-0.107096,0.044864,0.00154451,-0.585429,0.221238,0.00762194,0.0131063,0.455366,5,0.1,14,0.3,4.54529,1.11439,0.500691,-0.0347435,-0.171515,-0.00101365,-0.171423,-0.84611,-0.00292063,0.0140845,0.729229,5,0.1,15,0.3,0.266144,-0.640381,0.519635,0.258181,0.110113,0.0280894,1.27369,0.543229,0.138558,0.0152129,1.88822,5,0.1,16,0.3,-2.51441,4.31,0.575677,0.33948,-0.0804022,0.00349134,1.67999,-0.397921,0.0172704,0.0977374,2.9258,5,0.1,17,0.3,1.11267,-0.275648,0.646271,-0.171215,0.129058,-0.00822945,-0.844665,0.636684,-0.0405945,0.0328746,1.09246,5,0.1,18,0.3,-1.64838,4.88694,0.556551,-0.327673,-0.119708,0.00526784,-1.62157,-0.59244,0.0260584,0.0290748,2.92579,5,0.1,19,0.3,0.31287,-1.80641,0.641451,0.104422,0.241235,-0.00737319,0.515148,1.19007,-0.0363849,0.0178839,1.64103,5,0.1
0,0.4,0.316431,-3.17412,0.585378,-0.0633352,0.51105,0.0169128,-0.18765,1.51408,0.0500977,0.0133547,2.51401,5,0.1,1,0.4,-1.00857,5.68816,0.660709,0.249891,-0.450408,-0.0130937,0.740349,-1.33419,-0.0388324,0.0194498,2.51008,5,0.1,2,0.4,-3.43002,-2.00376,0.573956,0.115341,-0.146514,0.00698864,0.340343,-0.432372,0.020653,0.0104889,0.300559,5,0.1,3,0.4,0.399935,-4.00976,0.655215,0.134125,0.069654,-0.0148103,0.395805,0.205517,-0.04372,0.00738803,0.199095,5,0.1,4,0.4,5.15625,1.36556,0.545741,-0.00429153,-0.515172,-0.00728965,-0.0123978,-1.52642,-0.0216365,0.0122716,2.51564,5,0.1,5,0.4,-5.21822,-5.62979,0.50427,0.192654,0.0616193,-0.00902563,0.56839,0.181913,-0.00944734,0.0162947,0.355671,5,0.1,6,0.4,-4.11659,-5.78037,0.637119,0.0178695,0.222695,0.191204,0.0526905,0.657558,0.564277,0.0166818,0.746573,5,0.1,7,0.4,-3.6381,-3.08469,0.553848,0.452769,0.143403,0.0123784,1.3361,0.423193,0.0365078,0.0119795,1.9486,5,0.1,8,0.4,0.378792,2.39309,0.624701,0.292861,0.116783,-0.0193492,0.864282,0.344634,-0.0570714,0.00810389,0.861317,5,0.1,9,0.4,-3.38161,-0.784594,0.686505,0.343752,0.210442,0.0170305,1.01447,0.621051,0.0502467,0.049642,1.48656,5,0.1,10,0.4,2.21892,-0.257691,0.596862,-0.487548,0.134146,0.000755489,-1.40011,0.397466,0.00220537,0.0169037,2.78767,5,0.1,11,0.4,-1.51826,2.11482,0.628335,0.0048995,-0.164914,0.19356,0.0144839,-0.486612,0.571251,0.0289436,0.558388,5,0.1,12,0.4,1.18188,5.30105,0.549183,0.0048548,-0.25506,0.214796,0.0143051,-0.753164,0.633895,0.0199927,0.960194,5,0.1,13,0.4,-1.53665,-3.9967,0.591507,-0.165436,0.0661612,0.0022769,-0.552118,0.195146,0.00676513,0.0112778,1.00419,5,0.1,14,0.4,4.54098,1.09309,0.500578,-0.0512481,-0.252944,-0.0012219,-0.151157,-0.746489,-0.0012815,0.00773477,0.577496,5,0.1,15,0.4,0.298217,-0.626702,0.523125,0.38076,0.162393,0.0414252,1.12368,0.479221,0.122249,0.0102767,0.346678,5,0.1,16,0.4,-2.4722,4.3,0.576111,0.501341,-0.118732,0.0051558,1.48547,-0.351906,0.0152588,0.0733331,2.51129,5,0.1,17,0.4,1.0914,-0.259615,0.645249,-0.252503,0.190331,-0.0121355,-0.745177,0.561692,-0.0358522,0.0220299,0.864365,5,0.1,18,0.4,-1.68912,4.87206,0.557206,-0.483906,-0.176775,0.0077799,-1.43373,-0.524044,0.0230372,0.022423,2.51007,5,0.1,19,0.4,0.325842,-1.77644,0.640535,0.153999,0.355768,-0.0108734,0.454485,1.04994,-0.0321269,0.0125354,1.2984,5,0.1
0,0.5,0.309132,-3.11543,0.587327,-0.0826449,0.661094,0.0220684,-0.188613,1.41743,0.0503585,0.0133547,2.51401,5,0.1,1,0.5,-0.979775,5.63626,0.6592,0.326077,-0.587707,-0.0170889,0.744171,-1.34113,-0.039015,0.0194498,2.51008,5,0.1,2,0.5,-3.41676,-2.02061,0.57476,0.149873,-0.190382,0.009083,0.333369,-0.423476,0.0202134,0.0104889,0.300559,5,0.1,3,0.5,0.415363,-4.00175,0.653511,0.174284,0.0905078,-0.0192456,0.387672,0.201359,-0.042811,0.00738803,0.199095,5,0.1,4,0.5,5.15576,1.30644,0.5449,-0.00557378,-0.665389,-0.00951551,-0.0126064,-1.40993,-0.0217333,0.0122716,2.51564,5,0.1,5,0.5,-5.19606,-5.6227,0.503344,0.250326,0.0800766,-0.0092878,0.556707,0.178188,0.00337139,0.0162947,0.355671,5,0.1,6,0.5,-4.11454,-5.75476,0.659112,0.023216,0.289405,0.248456,0.0516176,0.643939,0.552669,0.0166818,0.746573,5,0.1,7,0.5,-3.58602,-3.06819,0.555272,0.588333,0.186341,0.0160832,1.30866,0.414521,0.0357628,0.0119795,1.9486,5,0.1,8,0.5,0.412478,2.40652,0.622476,0.380551,0.151749,-0.02514,0.846501,0.337526,-0.0559054,0.00810389,0.861317,5,0.1,9,0.5,-3.34292,-0.760388,0.688464,0.422421,0.273453,0.0221288,0.56231,0.608273,0.0492185,0.049642,1.48656,5,0.1,10,0.5,2.16468,-0.242233,0.596949,-0.583274,0.175041,0.000983104,-0.559911,0.39941,0.00222772,0.0169037,2.78767,5,0.1,11,0.5,-1.5177,2.09586,0.650599,0.00636838,-0.214287,0.251519,0.014171,-0.476599,0.55949,0.0289436,0.558388,5,0.1,12,0.5,1.18244,5.27171,0.57389,0.0063071,-0.33147,0.279111,0.0140294,-0.737578,0.620853,0.0199927,0.960194,5,0.1,13,0.5,-1.55652,-3.98909,0.591769,-0.236185,0.0859644,0.00296244,-0.803567,0.191197,0.00661239,0.0112778,1.00419,5,0.1,14,0.5,4.53508,1.06399,0.500453,-0.0665829,-0.328683,-0.00125747,-0.148058,-0.731133,0.000454485,0.00773477,0.577496,5,0.1,15,0.5,0.341317,-0.60847,0.527652,0.474978,0.198309,0.0470848,0.748741,0.243492,-0.000152737,0.0102767,0.346678,5,0.1,16,0.5,-2.41454,4.28632,0.576705,0.651005,-0.154943,0.00672648,1.43519,-0.353664,0.0153445,0.0733331,2.51129,5,0.1,17,0.5,1.06236,-0.237722,0.643853,-0.328109,0.24732,-0.0157723,-0.729837,0.550137,-0.0350997,0.0220299,0.864365,5,0.1,18,0.5,-1.74488,4.85169,0.558102,-0.631442,-0.230694,0.010151,-1.4411,-0.526607,0.0231639,0.022423,2.51007,5,0.1,19,0.5,0.343556,-1.73552,0.639284,0.200111,0.462295,-0.014132,0.445129,1.02834,-0.0314526,0.0125354,1.2984,5,0.1
0,0.6,0.29999,-3.04285,0.589768,-0.0993617,0.783038,0.0265315,-0.138715,0.975966,0.0370741,0.01051,2.32697,5,0.1,1,0.6,-0.943705,5.57124,0.65731,0.392036,-0.706577,-0.0205472,0.54726,-0.986338,-0.0286698,0.0126874,2.22895,5,0.1,2,0.6,-3.40023,-2.04161,0.575762,0.179124,-0.227547,0.0108555,0.239849,-0.30458,0.0145435,0.0123631,0.223759,5,0.1,3,0.6,0.434584,-3.99176,0.651389,0.208304,0.108182,-0.0230029,0.27889,0.14472,-0.0307858,0.011383,0.820483,5,0.1,4,0.6,5.15514,1.23349,0.543848,-0.00668764,-0.785971,-0.0114411,-0.00953674,-0.957608,-0.015974,0.00790884,2.38125,5,0.1,5,0.6,-5.16846,-5.61387,0.502447,0.29918,0.0957131,-0.00850558,0.400543,0.128269,0.0115931,0.0145459,0.265415,5,0.1,6,0.6,-4.11198,-5.72284,0.686513,0.02774,0.34591,0.296956,0.0374317,0.463247,0.397563,0.014849,0.555798,5,0.1,7,0.6,-3.52114,-3.04764,0.557045,0.703174,0.222719,0.0192225,0.941515,0.298262,0.0257194,0.00969228,1.45171,5,0.1,8,0.6,0.454446,2.42325,0.619703,0.454836,0.181365,-0.0300467,0.608951,0.242829,-0.0402033,0.00892232,0.641228,5,0.1,9,0.6,-3.29859,-0.73023,0.690904,0.457197,0.326833,0.0264481,0.139832,0.437528,0.0354052,0.0456942,1.05501,5,0.1,10,0.6,2.10463,-0.22287,0.597058,-0.607759,0.210439,0.00118017,0.0334978,0.293665,0.00166893,0.0137504,2.81825,5,0.1,11,0.6,-1.517,2.07222,0.678338,0.00761151,-0.256115,0.300618,0.0101924,-0.342846,0.40248,0.0290127,0.415706,5,0.1,12,0.6,1.18314,5.23516,0.604671,0.00753701,-0.396192,0.333592,0.0101328,-0.530481,0.446647,0.0204641,0.714827,5,0.1,13,0.6,-1.58417,-3.97961,0.592096,-0.315803,0.102746,0.00354201,-0.744641,0.137448,0.00473857,0.00964599,0.265104,5,0.1,14,0.6,4.52774,1.02774,0.500331,-0.0795722,-0.392845,-0.00115186,-0.106573,-0.525981,0.00157952,0.0115601,0.430572,5,0.1,15,0.6,0.391862,-0.58778,0.532219,0.528801,0.212049,0.0430226,0.32264,0.036478,-0.0737309,0.0101322,0.185933,5,0.1,16,0.6,-2.34283,4.26918,0.577449,0.77616,-0.186288,0.00808835,1.01864,-0.260115,0.0112653,0.0644788,2.30929,5,0.1,17,0.6,1.02617,-0.210447,0.642114,-0.392157,0.295598,-0.0188515,-0.524998,0.395761,-0.0252724,0.0364006,0.643498,5,0.1,18,0.6,-1.81473,4.82617,0.559225,-0.759172,-0.277376,0.0122041,-1.05971,-0.386953,0.0170767,0.0313808,2.27858,5,0.1,19,0.6,0.365625,-1.68453,0.637726,0.239173,0.552538,-0.0168905,0.320211,0.739753,-0.0226498,0.0166475,0.966632,5,0.1
0,0.7,0.289351,-2.96072,0.592609,-0.113284,0.849516,0.030252,-0.130951,0.378415,0.0349879,0.01051,2.32697,5,0.1,1,0.7,-0.901728,5.49596,0.65511,0.446972,-0.795075,-0.023425,0.51681,-0.744551,-0.0270754,0.0126874,2.22895,5,0.1,2,0.7,-3.38114,-2.06586,0.576919,0.202151,-0.256789,0.0122511,0.207514,-0.263542,0.0125729,0.0123631,0.223759,5,0.1,3,0.7,0.457411,-3.98023,0.648937,0.252859,0.122079,-0.0259585,0.557393,0.125259,-0.0266321,0.011383,0.820483,5,0.1,4,0.7,5.15443,1.15118,0.542623,-0.00764281,-0.850171,-0.013044,-0.0089407,-0.349708,-0.0150762,0.00790884,2.38125,5,0.1,5,0.7,-5.13657,-5.60367,0.501663,0.337633,0.108027,-0.00709891,0.346571,0.110954,0.0159442,0.0145459,0.265415,5,0.1,6,0.7,-4.10902,-5.68597,0.718162,0.0313289,0.390379,0.335124,0.0322759,0.400722,0.343978,0.014849,0.555798,5,0.1,7,0.7,-3.4463,-3.02391,0.559094,0.790398,0.251352,0.0216923,0.757948,0.258058,0.0222586,0.00969228,1.45171,5,0.1,8,0.7,0.502922,2.44258,0.616501,0.513297,0.204676,-0.0339068,0.52686,0.210077,-0.0347942,0.00892232,0.641228,5,0.1,9,0.7,-3.25305,-0.695397,0.693723,0.445598,0.368838,0.0298473,-0.338778,0.37856,0.0306331,0.0456942,1.05501,5,0.1,10,0.7,2.04519,-0.200342,0.597184,-0.572029,0.239806,0.00134706,0.577725,0.27533,0.00156462,0.0137504,2.81825,5,0.1,11,0.7,-1.51618,2.04493,0.710377,0.00858977,-0.28903,0.339257,0.00882149,-0.296652,0.348225,0.0290127,0.415706,5,0.1,12,0.7,1.18394,5.19293,0.640225,0.00850949,-0.447118,0.376471,0.00876933,-0.458956,0.386428,0.0204641,0.714827,5,0.1,13,0.7,-1.61916,-3.96866,0.592473,-0.38049,0.115946,0.00399658,-0.533491,0.118986,0.00409409,0.00964599,0.265104,5,0.1,14,0.7,4.51926,0.985873,0.500225,-0.0898018,-0.443341,-0.000960566,-0.0922084,-0.455081,0.00216067,0.0115601,0.430572,5,0.1,15,0.7,0.446029,-0.566587,0.536213,0.551,0.209918,0.0373991,0.11098,-0.076402,-0.042066,0.0101322,0.185933,5,0.1,16,0.7,-2.26117,4.24923,0.578315,0.847128,-0.212393,0.00921991,0.419334,-0.245541,0.0106469,0.0644788,2.30929,5,0.1,17,0.7,0.984379,-0.178943,0.640104,-0.442559,0.333592,-0.0212769,-0.454228,0.34241,-0.0218563,0.0364006,0.643498,5,0.1,18,0.7,-1.89503,4.79646,0.560436,-0.837717,-0.316602,0.0111773,-0.512518,-0.372231,-0.0326,0.0313808,2.27858,5,0.1,19,0.7,0.391116,-1.62565,0.635926,0.269915,0.623558,-0.019064,0.277046,0.64005,-0.0195801,0.0166475,0.966632,5,0.1
0,0.8,0.27744,-2.87463,0.59579,-0.124066,0.866026,0.0331342,-0.0786334,0,0.0209808,0.0115294,2.25923,5,0.1,1,0.8,-0.85473,5.41337,0.652647,0.489533,-0.849652,-0.0256538,0.310421,-0.327349,-0.0162721,0.0219863,2.1126,5,0.1,2,0.8,-3.36003,-2.09268,0.578198,0.218421,-0.277448,0.0132367,0.108957,-0.138521,0.00658631,0.0154441,0.157988,5,0.1,3,0.8,0.485572,-3.96749,0.646226,0.310192,0.131905,-0.028047,0.548169,0.0658035,-0.0139773,0.0102072,0.64829,5,0.1,4,0.8,5.15362,1.06522,0.541251,-0.00838041,-0.861511,-0.0142843,-0.00548363,0.0903606,-0.00908971,0.0105399,2.76258,5,0.1,5,0.8,-5.10131,-5.59239,0.501036,0.364804,0.116718,-0.00542253,0.181913,0.0584126,0.0171363,0.0167547,0.314243,5,0.1,6,0.8,-4.10575,-5.6452,0.753159,0.0338674,0.42181,0.362094,0.0166893,0.210047,0.180602,0.0151677,0.765621,5,0.1,7,0.8,-3.36408,-2.99766,0.561359,0.847447,0.271589,0.0234365,0.354767,0.135422,0.0117123,0.00996633,1.04433,5,0.1,8,0.8,0.556527,2.46396,0.61296,0.554605,0.221145,-0.0366345,0.276655,0.110388,-0.0182688,0.00917389,0.452741,5,0.1,9,0.8,-3.21075,-0.656879,0.69684,0.395548,0.398518,0.0322491,-0.634074,0.198781,0.0160933,0.0836474,0.938558,5,0.1,10,0.8,1.99113,-0.175138,0.597326,-0.508478,0.262402,0.00147372,0.633955,0.163897,0.000983477,0.0184969,2.56511,5,0.1,11,0.8,-1.51529,2.01474,0.745806,0.00928044,-0.312287,0.36656,0.00458956,-0.155807,0.182837,0.0277254,0.293513,5,0.1,12,0.8,1.18483,5.14624,0.67954,0.009197,-0.483096,0.406769,0.00464916,-0.241041,0.202894,0.0193959,0.507674,5,0.1,13,0.8,-1.65942,-3.95655,0.592891,-0.420034,0.125277,0.00431687,-0.248313,0.0624657,0.00217557,0.0112924,0.169761,5,0.1,14,0.8,4.50988,0.939574,0.50014,-0.0970244,-0.47902,-0.000733137,-0.048399,-0.239015,0.00232458,0.00823095,0.304742,5,0.1,15,0.8,0.501267,-0.546144,0.539773,0.549462,0.197355,0.0340194,-0.146717,-0.171751,-0.0280738,0.0117782,1.01216,5,0.1,16,0.8,-2.17516,4.2269,0.579285,0.866026,-0.232613,0.010097,0,-0.147343,0.0063777,0.0661684,2.23077,5,0.1,17,0.8,0.938162,-0.144105,0.637882,-0.478172,0.360438,-0.0229895,-0.238508,0.179808,-0.0115037,0.0250686,0.454345,5,0.1,18,0.8,-1.98052,4.76313,0.561343,-0.864106,-0.347519,0.00658333,-0.0383854,-0.228405,-0.0552535,0.0274394,2.18221,5,0.1,19,0.8,0.419303,-1.56053,0.633935,0.291635,0.673738,-0.0205994,0.145495,0.336111,-0.010252,0.0156936,0.682498,5,0.1
0,0.9,0.264624,-2.78803,0.599213,-0.132191,0.866026,0.0353025,-0.0755154,0,0.0201538,0.0115294,2.25923,5,0.1,1,0.9,-0.80416,5.32741,0.649997,0.521665,-0.865,-0.0273378,0.299126,-0.0409782,-0.0156723,0.0219863,2.1126,5,0.1,2,0.9,-3.33766,-2.12108,0.579553,0.228295,-0.289999,0.0138331,0.0780374,-0.099197,0.00470877,0.0154441,0.157988,5,0.1,3,0.9,0.519535,-3.95398,0.643355,0.370021,0.13787,-0.0293136,0.606501,0.0471622,-0.0100061,0.0102072,0.64829,5,0.1,4,0.9,5.15276,0.980821,0.539775,-0.00894368,-0.814927,-0.0152228,-0.00524521,0.789072,-0.00871718,0.0105399,2.76258,5,0.1,5,0.9,-5.06381,-5.58044,0.500579,0.385734,0.122009,-0.00375547,0.209361,0.0418425,0.0158772,0.0167547,0.314243,5,0.1,6,0.9,-4.10228,-5.60236,0.79023,0.0353806,0.431094,0.37846,0.0119507,-0.0228882,0.129376,0.0151677,0.765621,5,0.1,7,0.9,-3.27823,-2.96985,0.563759,0.864232,0.283861,0.0244978,0.0337511,0.0970066,0.00839308,0.00996633,1.04433,5,0.1,8,0.9,0.613307,2.4866,0.609209,0.579674,0.231146,-0.0382903,0.198171,0.0790507,-0.0130869,0.00917389,0.452741,5,0.1,9,0.9,-3.17466,-0.616079,0.700141,0.32372,0.416531,0.0337073,-0.778824,0.142392,0.0115298,0.0836474,0.938558,5,0.1,10,0.9,1.94345,-0.148088,0.597478,-0.448399,0.278118,0.00156704,0.448905,0.13556,0.000797212,0.0184969,2.56511,5,0.1,11,0.9,-1.51434,1.98277,0.783334,0.00969656,-0.326405,0.383128,0.00329316,-0.111602,0.13097,0.0277254,0.293513,5,0.1,12,0.9,1.18577,5.09678,0.720994,0.00961814,-0.504936,0.419773,0.00333041,-0.172615,0.051029,0.0193959,0.507674,5,0.1,13,0.9,-1.70249,-3.94373,0.593333,-0.439051,0.130939,0.00451356,-0.119217,0.0447631,0.00154972,0.0112924,0.169761,5,0.1,14,0.9,4.49995,0.890532,0.500078,-0.10141,-0.500678,-0.000507571,-0.0346303,-0.171207,0.00214577,0.00823095,0.304742,5,0.1,15,0.9,0.556048,-0.526885,0.543149,0.550466,0.190972,0.034442,0.113472,0.0173114,0.0288188,0.0117782,1.01216,5,0.1,16,0.9,-2.08855,4.20287,0.580327,0.866026,-0.247809,0.0107557,0,-0.140965,0.00611693,0.0661684,2.23077,5,0.1,17,0.9,0.889207,-0.107204,0.635528,-0.499785,0.376731,-0.0240311,-0.170846,0.128796,-0.00822544,0.0250686,0.454345,5,0.1,18,0.9,-2.06705,4.72719,0.561686,-0.865906,-0.371271,-1.88127e-05,-0.00479817,-0.222564,-0.072889,0.0274394,2.18221,5,0.1,19,0.9,0.449161,-1.49155,0.631826,0.304819,0.704195,-0.0215282,0.104217,0.240758,-0.0073351,0.0156936,0.682498,5,0.1
0,1,0.251088,-2.70143,0.602827,-0.137757,0.866026,0.036788,-0.0300184,0,0.00801682,0.0103349,2.25596,5,0.1,1,1,-0.750738,5.24082,0.647197,0.543761,-0.866032,-0.028497,0.119954,0.000238419,-0.00625849,0.0126573,1.75866,5,0.1,2,1,-3.31457,-2.15043,0.580953,0.232291,-0.295079,0.0140741,-0.00500679,0.00619888,-0.000327826,0.00995234,0.181928,5,0.1,3,1,0.559384,-3.94003,0.640389,0.424303,0.140285,-0.0298262,0.449151,-0.00286102,0.000655651,0.0124012,0.131282,5,0.1,4,1,5.15184,0.904068,0.538217,-0.00932217,-0.713286,-0.0158653,-0.00214577,1.20005,-0.00348687,0.012914,3.2117,5,0.1,5,1,-5.02432,-5.56809,0.500278,0.402021,0.124145,-0.00230223,0.0967979,-0.00238419,0.0129938,0.0182916,0.228721,5,0.1,6,1,-4.0987,-5.55974,0.828523,0.0359893,0.417721,0.385086,-0.000953674,-0.240803,-0.00831485,0.0192996,3.39241,5,0.1,7,1,-3.19192,-2.94113,0.566237,0.859267,0.288832,0.0249296,-0.135303,-0.00631809,-0.000566244,0.0142705,0.734858,5,0.1,8,1,0.671958,2.50999,0.605335,0.589824,0.235194,-0.0389621,-0.0127256,-0.00500679,0.000864267,0.0120915,0.307878,5,0.1,9,1,-3.14626,-0.573934,0.703552,0.243998,0.423825,0.0342995,-0.797272,-0.00914931,-0.00077486,0.0695572,1.14531,5,0.1,10,1,1.9,-0.119745,0.597638,-0.428993,0.287024,0.00162125,-0.0449419,0.0325441,0.000178814,0.0160461,2.16137,5,0.1,11,1,-1.51336,1.94975,0.822099,0.00986457,-0.332123,0.389835,-0.000238419,0.00721216,-0.00840425,0.0361,0.1996,5,0.1,12,1,1.18674,5.04569,0.762936,0.00978708,-0.51378,0.416064,-0.000119209,0.0112057,-0.12818,0.0259193,0.368141,5,0.1,13,1,-1.74669,-3.93048,0.593789,-0.441837,0.133234,0.00459254,0.0709295,-0.00286102,-8.9407e-05,0.0121966,0.106381,5,0.1,14,1,4.48969,0.839873,0.500038,-0.103188,-0.509448,-0.000311434,0.00238419,0.0109673,0.00175834,0.0135165,0.208034,5,0.1,15,1,0.611732,-0.50757,0.546779,0.562893,0.196104,0.0384212,0.0957251,0.0650436,0.0448525,0.0180066,0.851793,5,0.1,16,1,-2.00195,4.1775,0.581429,0.866026,-0.258172,0.0112057,-5.96046e-05,-0.0555515,0.00241399,0.079786,1.95942,5,0.1,17,1,0.838639,-0.0690858,0.633097,-0.508535,0.383328,-0.0244528,0.0109673,-0.00827551,0.000536442,0.0349099,0.323479,5,0.1,18,1,-2.15365,4.68912,0.561317,-0.866026,-0.387967,-0.007312,0,-0.0944138,-0.0700355,0.0275559,2.17046,5,0.1,19,1,0.480002,-1.4203,0.629648,0.310157,0.716528,-0.0219032,-0.00669062,-0.0154376,0.000506639,0.0164105,0.464124,5,0.1
0,1.1,0.237066,-2.61482,0.606554,-0.143332,0.866026,0.0377558,-0.068984,0,0.00916421,0.0103349,2.25596,5,0.1,1,1.1,-0.69571,5.15423,0.644313,0.556592,-0.865812,-0.029167,0.107974,0.00843406,-0.00564009,0.0126573,1.75866,5,0.1,2,1.1,-3.29121,-2.1801,0.582368,0.235898,-0.299672,0.01429,0.0582039,-0.0739992,0.00350177,0.00995234,0.181928,5,0.1,3,1.1,0.603292,-3.92602,0.637411,0.446626,0.139685,-0.0296944,0.0151172,-0.0142604,0.00306591,0.0124012,0.131282,5,0.1,4,1.1,5.15089,0.839368,0.536609,-0.00957921,-0.576114,-0.0162889,-0.00241399,1.47854,-0.00404194,0.012914,3.2117,5,0.1,5,1.1,-4.9836,-5.5557,0.500107,0.412393,0.123625,-0.00119135,0.0890195,-0.0125766,0.00919402,0.0182916,0.228721,5,0.1,6,1.1,-4.09514,-5.51966,0.866614,0.0348635,0.379461,0.373198,-0.0207722,-0.502765,-0.220858,0.0192996,3.39241,5,0.1,7,1.1,-3.10654,-2.91229,0.568726,0.848653,0.28756,0.0248183,-0.11535,-0.0297129,-0.00257418,0.0142705,0.734858,5,0.1,8,1.1,0.730852,2.53347,0.601445,0.587239,0.234167,-0.0387897,-0.0605434,-0.0241399,0.00401214,0.0120915,0.307878,5,0.1,9,1.1,-3.12583,-0.531615,0.706977,0.165462,0.421967,0.0341464,-0.751466,-0.0435021,-0.00353903,0.0695572,1.14531,5,0.1,10,1.1,1.85571,-0.0908878,0.597801,-0.466013,0.289729,0.00163596,-0.603631,0.00960879,4.47035e-05,0.0160461,2.16137,5,0.1,11,1.1,-1.51237,1.91658,0.861024,0.00981893,-0.330664,0.388128,-0.00103563,0.0341237,-0.0400133,0.0361,0.1996,5,0.1,12,1.1,1.18772,4.99439,0.803407,0.00975113,-0.511518,0.389234,-0.000946224,0.0528097,-0.376496,0.0259193,0.368141,5,0.1,13,1.1,-1.79044,-3.91718,0.594248,-0.432264,0.132653,0.00457279,0.131398,-0.0136346,-0.000469387,0.0121966,0.106381,5,0.1,14,1.1,4.47938,0.789005,0.500015,-0.102722,-0.507218,-0.000161212,0.010699,0.0522807,0.00124052,0.0135165,0.208034,5,0.1,15,1.1,0.667907,-0.487463,0.550892,0.555016,0.207227,0.0441747,-0.240453,0.136772,0.0643358,0.0180066,0.851793,5,0.1,16,1.1,-1.91535,4.15138,0.582562,0.866025,-0.26415,0.0114659,1.49012e-05,-0.0503659,0.00219792,0.079786,1.95942,5,0.1,17,1.1,0.787862,-0.0312319,0.630655,-0.506307,0.369765,-0.0243444,0.052195,-0.247599,0.00252575,0.0349099,0.323479,5,0.1,18,1.1,-2.24025,4.64976,0.560223,-0.866026,-0.399306,-0.0145978,0,-0.108778,-0.0724904,0.0275559,2.17046,5,0.1,19,1.1,0.510971,-1.34875,0.627461,0.308798,0.71339,-0.0218041,-0.0318363,-0.0735372,0.00227243,0.0164105,0.464124,5,0.1
0,1.2,0.222408,-2.52822,0.610362,-0.149399,0.866026,0.0382513,-0.0433028,0,-0.00077486,0.0132647,2.25385,5,0.1,1,1.2,-0.639723,5.06775,0.64138,0.560527,-0.862622,-0.0293717,-0.0489354,0.0677109,0.002563,0.0207036,1.75598,5,0.1,2,1.2,-3.26735,-2.2104,0.583813,0.240666,-0.305736,0.0145763,0.0237226,-0.0300407,0.00143051,0.0136245,0.108369,5,0.1,3,1.2,0.647437,-3.91218,0.634468,0.430782,0.136578,-0.0290319,-0.315249,-0.0511408,0.0109375,0.0116399,0.3325,5,0.1,4,1.2,5.14993,0.789177,0.534966,-0.00971556,-0.428601,-0.016512,0.000238419,1.42643,0.000238419,0.0147921,3.5303,5,0.1,5,1.2,-4.94207,-5.54344,0.500027,0.416172,0.120866,-0.000461936,-0.027895,-0.0450611,0.00548363,0.0198511,0.160749,5,0.1,6,1.2,-4.09179,-5.48451,0.902539,0.0319958,0.321138,0.342607,-0.0357628,-0.645161,-0.382543,0.0198135,3.65866,5,0.1,7,1.2,-3.02247,-2.88379,0.571186,0.829715,0.281143,0.0242636,-0.289679,-0.105739,-0.00911951,0.0177361,0.507753,5,0.1,8,1.2,0.789051,2.55668,0.597601,0.574137,0.228941,-0.0379235,-0.21565,-0.0859499,0.0142157,0.0116053,0.20472,5,0.1,9,1.2,-3.11282,-0.489796,0.710361,0.0972629,0.412554,0.0333831,-0.599027,-0.154957,-0.0125468,0.0502429,3.72561,5,0.1,10,1.2,1.80579,-0.0619844,0.597964,-0.533593,0.286957,0.00161976,-0.67848,-0.072999,-0.000417233,0.014177,1.70682,5,0.1,11,1.2,-1.5114,1.88381,0.89949,0.00959933,-0.323287,0.379469,-0.00363588,0.121474,-0.142515,0.0328641,0.21367,5,0.1,12,1.2,1.18869,4.94369,0.840243,0.00953674,-0.500095,0.345995,-0.00351667,0.187874,-0.467926,0.0260559,0.268214,5,0.1,13,1.2,-1.83284,-3.90403,0.594701,-0.413808,0.1297,0.00447184,0.244319,-0.0487566,-0.00169873,0.00920014,0.325009,5,0.1,14,1.2,4.4692,0.738737,0.500004,-0.100422,-0.495903,-6.25849e-05,0.0376701,0.186294,0.000715256,0.0117738,0.177925,5,0.1,15,1.2,0.721742,-0.466077,0.555624,0.517328,0.219891,0.0502691,-0.500888,0.101492,0.0531971,0.0104707,0.772254,5,0.1,16,1.2,-1.82875,4.12481,0.583716,0.866026,-0.265944,0.0115439,-5.96046e-05,0.0236034,-0.000983477,0.0673563,1.52055,5,0.1,17,1.2,0.737684,0.00421625,0.628243,-0.495012,0.336621,-0.0238001,0.185966,-0.402543,0.0089705,0.0203433,0.350961,5,0.1,18,1.2,-2.32685,4.60942,0.558418,-0.866026,-0.405693,-0.021261,0,-0.00309944,-0.0584722,0.0158402,2.16686,5,0.1,19,1.2,0.541575,-1.27805,0.6253,0.301908,0.697476,-0.0213146,-0.113398,-0.262022,0.00801682,0.0103935,0.308618,5,0.1
0,1.3,0.207183,-2.44162,0.614194,-0.155497,0.866026,0.0384411,-0.067018,0,0.00238419,0.0132647,2.25385,5,0.1,1,1.3,-0.583872,4.98155,0.638453,0.556307,-0.863071,-0.0291391,-0.059031,-0.0356436,0.00329688,0.0207036,1.75598,5,0.1,2,1.3,-3.24314,-2.24116,0.585279,0.243535,-0.309372,0.0147493,0.0215173,-0.0272244,0.00129268,0.0136245,0.108369,5,0.1,3,1.3,0.688417,-3.89877,0.631618,0.384227,0.131521,-0.0279514,-0.590421,-0.0542551,0.0115782,0.0116399,0.3325,5,0.1,4,1.3,5.14895,0.753357,0.533311,-0.00975952,-0.290709,-0.0165996,-0.000566244,1.25595,-0.00105426,0.0147921,3.5303,5,0.1,5,1.3,-4.90057,-5.53158,0.500003,0.413706,0.116403,-6.64033e-05,-0.0387728,-0.0479519,0.00261143,0.0198511,0.160749,5,0.1,6,1.3,-4.08877,-5.45574,0.934823,0.0282444,0.25361,0.302468,-0.0390708,-0.69049,-0.418201,0.0198135,3.65866,5,0.1,7,1.3,-2.94084,-2.8562,0.573568,0.803221,0.270694,0.0233622,-0.271395,-0.111997,-0.00965595,0.0177361,0.507753,5,0.1,8,1.3,0.84541,2.57915,0.593878,0.552819,0.220443,-0.0365177,-0.228565,-0.0911355,0.0150725,0.0116053,0.20472,5,0.1,9,1.3,-3.10612,-0.449347,0.713625,0.038188,0.395864,0.0317827,-0.511974,-0.188602,-0.0196993,0.0502429,3.72561,5,0.1,10,1.3,1.74859,-0.033645,0.598124,-0.613095,0.279665,0.00157803,-0.84129,-0.082626,-0.000476837,0.014177,1.70682,5,0.1,11,1.3,-1.51046,1.85192,0.93674,0.00924058,-0.315724,0.36538,-0.0038296,0.0497028,-0.151057,0.0328641,0.21367,5,0.1,12,1.3,1.18962,4.8946,0.8724,0.00918787,-0.481521,0.297226,-0.00376254,0.199109,-0.466239,0.0260559,0.268214,5,0.1,13,1.3,-1.8726,-3.8913,0.59514,-0.377721,0.124881,0.00430411,0.461131,-0.0516325,-0.00179932,0.00920014,0.325009,5,0.1,14,1.3,4.45919,0.690057,0.5,-0.101141,-0.477487,-1.00583e-05,-0.0390708,0.19744,0.000350177,0.0117738,0.177925,5,0.1,15,1.3,0.770415,-0.443513,0.560931,0.451543,0.231628,0.0559085,-0.777066,0.117164,0.0550412,0.0104707,0.772254,5,0.1,16,1.3,-1.74215,4.09832,0.584866,0.865868,-0.26381,0.011455,-0.00627339,0.0300407,-0.00127032,0.0673563,1.52055,5,0.1,17,1.3,0.689093,0.0355516,0.625907,-0.476629,0.287867,-0.0229136,0.197086,-0.537146,0.00950322,0.0203433,0.350961,5,0.1,18,1.3,-2.41346,4.56873,0.555997,-0.866026,-0.408825,-0.0271185,0,-0.036031,-0.0558682,0.0158402,2.16686,5,0.1,19,1.3,0.571211,-1.20959,0.623208,0.290697,0.671574,-0.0205221,-0.120193,-0.277691,0.00849366,0.0103935,0.308618,5,0.1
0,1.4,0.191337,-2.35501,0.618041,-0.160811,0.866026,0.0383571,-0.0309795,0,-0.00560284,0.00929918,2.2523,5,0.1,1,1.4,-0.52871,4.89516,0.635565,0.544766,-0.863326,-0.0285089,-0.187814,0.0545979,0.010103,0.0127545,1.87262,5,0.1,2,1.4,-3.21876,-2.27213,0.586756,0.242925,-0.308585,0.0147104,-0.0422001,0.053525,-0.0025332,0.00986325,0.0623181,5,0.1,3,1.4,0.723608,-3.88592,0.628888,0.31734,0.125015,-0.0265658,-0.726312,-0.0783205,0.0166893,0.00989064,0.319188,5,0.1,4,1.4,5.14798,0.729827,0.53165,-0.00972748,-0.188228,-0.0165641,0.00119209,0.760883,0.00241399,0.00894835,3.50003,5,0.1,5,1.4,-4.85952,-5.52021,0.500006,0.405502,0.110662,9.38773e-05,-0.137091,-0.0696182,0.000715256,0.0139189,0.213913,5,0.1,6,1.4,-4.08615,-5.4338,0.962935,0.0242233,0.185668,0.259398,-0.0412464,-0.65732,-0.440866,0.0141575,3.85928,5,0.1,7,1.4,-2.86205,-2.82976,0.57585,0.770199,0.257295,0.0222057,-0.410438,-0.161886,-0.0139475,0.00944044,0.344472,5,0.1,8,1.4,0.899409,2.60068,0.590311,0.525461,0.209528,-0.0347123,-0.330418,-0.131607,0.0218153,0.00957774,0.134747,5,0.1,9,1.4,-3.1043,-0.410823,0.716691,0.00489354,0.373245,0.0294134,-0.124335,-0.26992,-0.0277162,0.038255,3.53863,5,0.1,10,1.4,1.68328,-0.00617256,0.598279,-0.689742,0.268804,0.00151694,-0.64075,-0.141079,-0.000834465,0.010809,1.29219,5,0.1,11,1.4,-1.50955,1.82061,0.97243,0.00877976,-0.30992,0.347298,-0.00548363,0.0806451,-0.218391,0.0232376,0.150671,5,0.1,12,1.4,1.19052,4.84757,0.9,0.00873506,-0.457692,0.257006,-0.00548363,0.28801,-0.336826,0.0164248,0.20446,5,0.1,13,1.4,-1.90782,-3.8791,0.59556,-0.32461,0.118703,0.00409037,0.587106,-0.0745058,-0.0026226,0.0156959,0.315353,5,0.1,14,1.4,4.44884,0.643417,0.500001,-0.105965,-0.453855,1.19209e-05,-0.0474453,0.285387,8.9407e-05,0.0113121,0.123292,5,0.1,15,1.4,0.811481,-0.419847,0.56677,0.368479,0.240585,0.0605032,-0.856251,0.0506788,0.0336766,0.014605,0.709101,5,0.1,16,1.4,-1.65564,4.07217,0.586001,0.863507,-0.2581,0.0112101,-0.0502467,0.0915527,-0.00396371,0.0562885,1.14641,5,0.1,17,1.4,0.642536,0.0616555,0.623668,-0.453039,0.234791,-0.0217766,0.284851,-0.503777,0.0136793,0.0297019,0.284307,5,0.1,18,1.4,-2.50006,4.52777,0.553029,-0.866026,-0.4089,-0.03196,0,0.0507832,-0.0389516,0.0205834,2.16788,5,0.1,19,1.4,0.599607,-1.14399,0.621203,0.276312,0.638336,-0.0195056,-0.173777,-0.401437,0.0122488,0.0105649,0.203139,5,0.1
0,1.5,0.175042,-2.26841,0.621862,-0.165395,0.866026,0.038134,-0.0496106,0,-0.00104681,0.00929918,2.2523,5,0.1,1,1.5,-0.475822,4.80887,0.632762,0.507177,-0.863742,-0.0275488,-0.538079,-0.0251234,0.0100844,0.0127545,1.87262,5,0.1,2,1.5,-3.19487,-2.3027,0.588213,0.232999,-0.302408,0.0144171,-0.152633,0.0795871,-0.00378489,0.00986325,0.0623181,5,0.1,3,1.5,0.75163,-3.8738,0.626312,0.242733,0.11754,-0.0249738,-0.749376,-0.0747293,0.015907,0.00989064,0.319188,5,0.1,4,1.5,5.14701,0.714073,0.530001,-0.00968128,-0.136748,-0.0164547,0.000238419,0.180159,0.000689179,0.00894835,3.50003,5,0.1,5,1.5,-4.81947,-5.50947,0.500018,0.396919,0.104019,0.000121724,-0.0586808,-0.0663996,-8.56817e-05,0.0139189,0.213913,5,0.1,6,1.5,-4.08393,-5.41839,0.98675,0.0203185,0.124164,0.217661,-0.0369847,-0.56535,-0.395827,0.0141575,3.85928,5,0.1,7,1.5,-2.78697,-2.8048,0.578003,0.732017,0.241856,0.0208753,-0.378862,-0.154197,-0.0132881,0.00944044,0.344472,5,0.1,8,1.5,0.950367,2.621,0.586944,0.493943,0.19697,-0.0326314,-0.314865,-0.125483,0.0207908,0.00957774,0.134747,5,0.1,9,1.5,-3.10389,-0.374792,0.719495,0.0111938,0.347689,0.0266678,0.335962,-0.251457,-0.0276081,0.038255,3.53863,5,0.1,10,1.5,1.61099,0.0200292,0.598427,-0.755966,0.255289,0.0014375,-0.629172,-0.137347,-0.000800937,0.010809,1.29219,5,0.1,11,1.5,-1.5087,1.78993,1.00611,0.00825655,-0.304263,0.326467,-0.00523776,0.0483245,-0.208102,0.0232376,0.150671,5,0.1,12,1.5,1.19137,4.80355,0.924353,0.00821128,-0.420147,0.232886,-0.00523031,0.44477,-0.166822,0.0164248,0.20446,5,0.1,13,1.5,-1.93722,-3.86759,0.595957,-0.262467,0.111595,0.00384077,0.64256,-0.0710189,-0.00248104,0.0156959,0.315353,5,0.1,14,1.5,4.43794,0.599403,0.500002,-0.112528,-0.426633,1.53668e-05,-0.0737607,0.271954,-1.11759e-05,0.0113121,0.123292,5,0.1,15,1.5,0.843959,-0.39551,0.572991,0.281306,0.246076,0.063841,-0.844743,0.0464041,0.0295117,0.014605,0.709101,5,0.1,16,1.5,-1.56933,4.0468,0.587103,0.863907,-0.249406,0.0108337,0.0171885,0.0912845,-0.00395626,0.0562885,1.14641,5,0.1,17,1.5,0.598601,0.0827231,0.621557,-0.425867,0.188586,-0.0204712,0.271447,-0.386265,0.013046,0.0297019,0.284307,5,0.1,18,1.5,-2.58666,4.48699,0.549636,-0.866026,-0.407309,-0.0358609,0,0.00438094,-0.0364482,0.0205834,2.16788,5,0.1,19,1.5,0.626402,-1.08208,0.619312,0.259736,0.600045,-0.0183368,-0.165589,-0.38252,0.0116825,0.0105649,0.203139,5,0.1
0,1.6,0.158298,-2.18181,0.625663,-0.16884,0.866026,0.0377759,-0.0114515,0,-0.0077188,0.0165144,2.25146,5,0.1,1,1.6,-0.428194,4.72248,0.630065,0.441925,-0.862503,-0.0263244,-0.745073,0.0705719,0.0149906,0.0121019,1.76299,5,0.1,2,1.6,-3.17249,-2.33244,0.589631,0.213152,-0.291091,0.0138789,-0.240564,0.152946,-0.00733137,0.0128511,0.145538,5,0.1,3,1.6,0.77223,-3.86244,0.623898,0.170311,0.109476,-0.0232592,-0.687003,-0.0889301,0.0189245,0.0135478,0.336947,5,0.1,4,1.6,5.14604,0.7,0.528362,-0.00958443,-0.156997,-0.0162706,0.00214577,-0.544637,0.00363588,0.00848929,3.11533,5,0.1,5,1.6,-4.7801,-5.49942,0.500028,0.389636,0.0968695,8.9407e-05,-0.104427,-0.079155,-0.000506639,0.0153937,0.155934,5,0.1,6,1.6,-4.08207,-5.4086,1.0066,0.0167847,0.0737429,0.179899,-0.033617,-0.439405,-0.360787,0.0167835,3.96083,5,0.1,7,1.6,-2.71578,-2.78143,0.580021,0.69012,0.225234,0.0194415,-0.476599,-0.183344,-0.0157952,0.0106534,0.231314,5,0.1,8,1.6,0.998113,2.64004,0.58379,0.459996,0.183439,-0.0303894,-0.374138,-0.14925,0.0247061,0.0110283,0.151411,5,0.1,9,1.6,-3.1,-0.341318,0.722022,0.0767052,0.321237,0.023827,0.93472,-0.284508,-0.0294447,0.046587,3.10398,5,0.1,10,1.6,1.53263,0.0448236,0.598566,-0.806329,0.239979,0.00134856,-0.340164,-0.17428,-0.000983477,0.0131389,0.932655,5,0.1,11,1.6,-1.5079,1.7598,1.03767,0.007689,-0.297558,0.304028,-0.00613928,0.0968575,-0.24724,0.0255303,0.180009,5,0.1,12,1.6,1.19216,4.7639,0.946945,0.00764728,-0.371742,0.219904,-0.00625849,0.511646,-0.108957,0.0176567,0.156348,5,0.1,13,1.6,-1.96025,-3.8568,0.596328,-0.198448,0.103939,0.0035733,0.627577,-0.0845194,-0.00292063,0.00718387,0.312861,5,0.1,14,1.6,4.42634,0.558163,0.500004,-0.118995,-0.397311,1.19209e-05,-0.0481606,0.323117,-8.9407e-05,0.0107215,0.146849,5,0.1,15,1.6,0.868149,-0.370763,0.579491,0.20591,0.247721,0.0658035,-0.641912,-0.0222176,0.00733137,0.0173093,0.640057,5,0.1,16,1.6,-1.483,4.02237,0.588165,0.860322,-0.238335,0.0103533,-0.114024,0.135899,-0.00587106,0.058111,0.835921,5,0.1,17,1.6,0.557435,0.1,0.619578,-0.3966,0.160413,-0.0190645,0.322551,-0.182495,0.0154972,0.0248874,0.367229,5,0.1,18,1.6,-2.67327,4.44637,0.545889,-0.866026,-0.404036,-0.0388071,0,0.0777245,-0.0206828,0.0186814,2.17126,5,0.1,19,1.6,0.65151,-1.02408,0.617539,0.241883,0.558802,-0.0170782,-0.196725,-0.454456,0.0139177,0.0160554,0.133518,5,0.1
0,1.7,0.141298,-2.09521,0.629416,-0.171456,0.866026,0.0373809,-0.0301082,0,-0.00236183,0.0165144,2.25146,5,0.1,1,1.7,-0.38806,4.63631,0.627504,0.358333,-0.862184,-0.024911,-0.891954,-0.01508,0.0140965,0.0121019,1.76299,5,0.1,2,1.7,-3.15254,-2.36076,0.590981,0.184434,-0.275062,0.0131115,-0.32486,0.173435,-0.0082925,0.0128511,0.145538,5,0.1,3,1.7,0.786013,-3.85186,0.621651,0.107394,0.102652,-0.0218077,-0.564393,-0.0539571,0.0114664,0.0135478,0.336947,5,0.1,4,1.7,5.14509,0.680117,0.526747,-0.0094533,-0.252307,-0.0160496,0.00101328,-1.24662,0.0016652,0.00848929,3.11533,5,0.1,5,1.7,-4.74155,-5.49011,0.500035,0.381941,0.0894524,3.83705e-05,-0.0686347,-0.0718534,-0.000499189,0.0153937,0.155934,5,0.1,6,1.7,-4.08055,-5.40318,1.02291,0.013759,0.0369415,0.147422,-0.0272691,-0.298023,-0.292726,0.0167835,3.96083,5,0.1,7,1.7,-2.64902,-2.75978,0.58189,0.645838,0.20805,0.0179608,-0.43036,-0.166491,-0.0143535,0.0106534,0.231314,5,0.1,8,1.7,1.04256,2.65777,0.580854,0.431293,0.171986,-0.0284942,-0.226863,-0.0905693,0.0149757,0.0110283,0.151411,5,0.1,9,1.7,-3.08639,-0.310521,0.724264,0.205198,0.295383,0.0210777,1.52397,-0.242738,-0.0260323,0.046587,3.10398,5,0.1,10,1.7,1.45029,0.0679903,0.598696,-0.83949,0.22358,0.00125598,-0.279963,-0.160514,-0.00090152,0.0131389,0.932655,5,0.1,11,1.7,-1.50716,1.73025,1.06704,0.0072185,-0.295605,0.285061,-0.00372529,-0.0309423,-0.149921,0.0255303,0.180009,5,0.1,12,1.7,1.1929,4.72938,0.968567,0.00706073,-0.31838,0.213876,-0.00568479,0.521839,-0.028193,0.0176567,0.156348,5,0.1,13,1.7,-1.97706,-3.84681,0.596671,-0.138859,0.0960149,0.00329977,0.557326,-0.0767708,-0.00264868,0.00718387,0.312861,5,0.1,14,1.7,4.41404,0.519777,0.500004,-0.128166,-0.372523,3.07336e-06,-0.118881,0.195934,-8.56817e-05,0.0107215,0.146849,5,0.1,15,1.7,0.885881,-0.346085,0.586109,0.153411,0.245727,0.0664685,-0.367612,-0.0279117,0.00310689,0.0173093,0.640057,5,0.1,16,1.7,-1.39733,3.99919,0.589172,0.854033,-0.225531,0.00979975,-0.0557527,0.127643,-0.00552833,0.058111,0.835921,5,0.1,17,1.7,0.519311,0.11541,0.617745,-0.366363,0.150126,-0.0176112,0.293031,-0.0415365,0.0140853,0.0248874,0.367229,5,0.1,18,1.7,-2.75987,4.4062,0.5419,-0.866026,-0.400137,-0.0409794,0,0.0234544,-0.0202246,0.0186814,2.17126,5,0.1,19,1.7,0.674761,-0.970364,0.615897,0.223441,0.5162,-0.0157739,-0.178721,-0.412859,0.0126399,0.0160554,0.133518,5,0.1
0,1.8,0.124044,-2.0086,0.633137,-0.173025,0.866026,0.0369295,0.00632942,0,-0.00819564,0.0123783,2.25126,5,0.1,1,1.8,-0.356697,4.55021,0.625087,0.26947,-0.857162,-0.023368,-0.860795,0.150442,0.0173151,0.0148602,1.46868,5,0.1,2,1.8,-3.1358,-2.38733,0.592247,0.14981,-0.255471,0.0121757,-0.36025,0.221968,-0.0106096,0.0144569,0.200292,5,0.1,3,1.8,0.794176,-3.84185,0.619524,0.058417,0.0975728,-0.0207275,-0.412285,-0.0522137,0.0110567,0.00782206,0.329494,5,0.1,4,1.8,5.14415,0.648275,0.525153,-0.0092864,-0.386076,-0.0157848,0.00214577,-1.34128,0.00423193,0.00735204,2.69396,5,0.1,5,1.8,-4.70377,-5.48153,0.500036,0.372648,0.0820637,-8.9407e-06,-0.130653,-0.0782013,-0.000417233,0.0155206,0.192404,5,0.1,6,1.8,-4.0793,-5.40076,1.03627,0.0112534,0.0136256,0.120646,-0.0226498,-0.171185,-0.24581,0.0143235,3.99114,5,0.1,7,1.8,-2.58665,-2.73982,0.583613,0.600463,0.190902,0.0164822,-0.4915,-0.180721,-0.0155866,0.0141674,0.203284,5,0.1,8,1.8,1.08461,2.67454,0.578075,0.409958,0.163466,-0.0270858,-0.219584,-0.0874996,0.0145137,0.0110499,0.0873269,5,0.1,9,1.8,-3.05804,-0.282195,0.726244,0.361973,0.27096,0.0185385,1.52755,-0.252798,-0.0251532,0.036152,2.65367,5,0.1,10,1.8,1.36533,0.0895233,0.598817,-0.855091,0.206735,0.00116229,-0.00292063,-0.18099,-0.00104308,0.00910309,0.64768,5,0.1,11,1.8,-1.50646,1.7005,1.09484,0.00686646,-0.299087,0.27096,-0.00363588,-0.0190735,-0.145078,0.0237893,0.107937,5,0.1,12,1.8,1.19358,4.7,0.989835,0.00647604,-0.271034,0.211389,-0.00619888,0.422478,-0.0337362,0.0169943,0.211468,5,0.1,13,1.8,-1.98832,-3.8376,0.596988,-0.0880927,0.0881076,0.00302792,0.45383,-0.0834465,-0.00289083,0.00871165,0.309679,5,0.1,14,1.8,4.40062,0.48345,0.500004,-0.139928,-0.354096,-4.47035e-06,-0.103951,0.189632,-5.96046e-05,0.00755005,0.0895208,5,0.1,15,1.8,0.9,-0.32173,0.592745,0.134861,0.240421,0.0659481,-0.0190735,-0.0851005,-0.0154972,0.00776621,0.536872,5,0.1,16,1.8,-1.31241,3.97731,0.590123,0.841701,-0.211561,0.00919551,-0.22155,0.156641,-0.00682473,0.0552645,0.590101,5,0.1,17,1.8,0.484163,0.130324,0.616056,-0.336172,0.148879,-0.0161603,0.31817,0.00261515,0.0153184,0.0211901,0.514347,5,0.1,18,1.8,-2.84647,4.36637,0.537718,-0.866026,-0.395405,-0.0424236,0,0.0879765,-0.00691414,0.0164561,2.1756,5,0.1,19,1.8,0.696197,-0.920841,0.614384,0.205028,0.473663,-0.014472,-0.194073,-0.448287,0.0137091,0.0102165,0.151169,5,0.1
0,1.9,0.106712,-1.922,0.636804,-0.173949,0.866026,0.0365022,-0.0142446,0,-0.00251457,0.0123783,2.25126,5,0.1,1,1.9,-0.333973,4.46509,0.622832,0.186767,-0.845696,-0.0217511,-0.75661,0.118196,0.0157021,0.0148602,1.46868,5,0.1,2,1.9,-3.12263,-2.41181,0.593414,0.113719,-0.234353,0.011167,-0.355676,0.206783,-0.00986829,0.0144569,0.200292,5,0.1,3,1.9,0.798236,-3.83232,0.6175,0.0254281,0.0931248,-0.0197857,-0.25329,-0.0409484,0.00866875,0.00782206,0.329494,5,0.1,4,1.9,5.14323,0.602844,0.52359,-0.00915453,-0.522079,-0.0155129,0.00104308,-1.31553,0.00206754,0.00735204,2.69396,5,0.1,5,1.9,-4.66682,-5.47365,0.500033,0.368987,0.0759199,-4.46104e-05,0.0247359,-0.0494123,-0.000286847,0.0155206,0.192404,5,0.1,6,1.9,-4.07828,-5.40009,1.04722,0.00929683,0.00137389,0.0994332,-0.0169277,-0.0796914,-0.183091,0.0143235,3.99114,5,0.1,7,1.9,-2.52892,-2.72142,0.585188,0.555022,0.178606,0.0150381,-0.435084,-0.0802577,-0.0137463,0.0141674,0.203284,5,0.1,8,1.9,1.12463,2.6905,0.575431,0.391258,0.156012,-0.0258501,-0.172041,-0.06859,0.0113733,0.0110499,0.0873269,5,0.1,9,1.9,-3.01378,-0.256255,0.727981,0.524985,0.248682,0.0162737,1.64539,-0.202743,-0.0206679,0.036152,2.65367,5,0.1,10,1.9,1.27979,0.109339,0.598929,-0.854723,0.189908,0.00106571,0.0450164,-0.161286,-0.000920147,0.00910309,0.64768,5,0.1,11,1.9,-1.50579,1.67042,1.12129,0.00655595,-0.302816,0.258605,-0.00286847,-0.0380352,-0.113688,0.0237893,0.107937,5,0.1,12,1.9,1.1942,4.67453,1.01111,0.00598859,-0.242403,0.216327,-0.00391155,0.178456,0.105966,0.0169943,0.211468,5,0.1,13,1.9,-1.99506,-3.82918,0.597277,-0.0488263,0.0803784,0.00276063,0.331178,-0.0735521,-0.00254065,0.00871165,0.309679,5,0.1,14,1.9,4.38612,0.448882,0.500004,-0.149871,-0.337946,-8.3819e-06,-0.0865757,0.148594,-2.23517e-05,0.00755005,0.0895208,5,0.1,15,1.9,0.91406,-0.298092,0.599265,0.151824,0.232348,0.0644217,0.311319,-0.0847336,-0.017371,0.00776621,0.536872,5,0.1,16,1.9,-1.22921,3.9569,0.59101,0.822711,-0.196937,0.00855858,-0.1937,0.142023,-0.00618026,0.0552645,0.590101,5,0.1,17,1.9,0.452051,0.145024,0.614512,-0.306695,0.143442,-0.0147412,0.280516,-0.0994708,0.0135079,0.0211901,0.514347,5,0.1,18,1.9,-2.93307,4.32712,0.533432,-0.866026,-0.390635,-0.043333,0,0.0302196,-0.00877306,0.0164561,2.1756,5,0.1,19,1.9,0.715879,-0.875373,0.612995,0.189781,0.438445,-0.0133949,-0.122614,-0.283219,0.0086613,0.0102165,0.151169,5,0.1
0,2,0.0892828,-1.8354,0.640436,-0.174072,0.866026,0.0360548,0.0192448,-5.96046e-05,-0.00795722,0.0117986,2.25151,5,0.1,1,2,-0.318685,4.38132,0.620737,0.123411,-0.826895,-0.0201106,-0.49454,0.285387,0.017494,0.0115892,1.207,5,0.1,2,2,-3.11299,-2.43419,0.59448,0.0796974,-0.213057,0.0101507,-0.320315,0.223637,-0.0106692,0.0107132,0.324938,5,0.1,3,2,0.799733,-3.82322,0.615567,0.00657588,0.0886679,-0.0188425,-0.129759,-0.0511408,0.010848,0.0101756,0.301933,5,0.1,4,2,5.14232,0.544528,0.522052,-0.0090003,-0.638397,-0.0152215,0.0026226,-0.966207,0.00432134,0.00773227,2.73691,5,0.1,5,2,-4.62976,-5.46629,0.500028,0.371921,0.0713706,-6.70552e-05,0.0100136,-0.0452995,-0.000149012,0.0147192,0.118847,5,0.1,6,2,-4.07743,-5.40024,1.05633,0.00779629,-0.00339746,0.0831962,-0.0135899,-0.020504,-0.145257,0.0150955,3.99349,5,0.1,7,2,-2.47562,-2.7039,0.586623,0.510448,0.172216,0.0136584,-0.468731,-0.0590086,-0.0142157,0.00885686,0.141519,5,0.1,8,2,1.16286,2.70574,0.572905,0.372547,0.148553,-0.0246137,-0.214458,-0.0857115,0.0141859,0.0100928,0.0667494,5,0.1,9,2,-2.95345,-0.232384,0.729509,0.676036,0.228705,0.0143126,1.31261,-0.203893,-0.0188947,0.0352745,2.36799,5,0.1,10,2,1.19486,0.127518,0.599031,-0.840294,0.173512,0.000971556,0.266731,-0.170551,-0.000953674,0.0110296,0.439396,5,0.1,11,2,-1.50514,1.64004,1.14656,0.00624359,-0.303733,0.246239,-0.00363588,0.0318289,-0.14174,0.0207832,0.0735926,5,0.1,12,2,1.19478,4.65097,1.03332,0.00562668,-0.230348,0.227958,-0.00357628,0.0846386,0.10699,0.0174842,0.150128,5,0.1,13,2,-1.99849,-3.82151,0.59754,-0.0217229,0.0729918,0.00250489,0.212431,-0.0758171,-0.0025928,0.00735638,0.303315,5,0.1,14,2,4.37078,0.415865,0.500003,-0.155842,-0.321786,-8.9407e-06,-0.0271797,0.185251,0,0.00772954,0.0855593,5,0.1,15,2,0.931025,-0.275336,0.605602,0.188823,0.222071,0.0620842,0.392616,-0.126421,-0.0309348,0.00907252,0.427253,5,0.1,16,2,-1.1481,3.93793,0.591834,0.796989,-0.182116,0.00791401,-0.345051,0.158787,-0.00691414,0.0420105,0.406853,5,0.1,17,2,0.422782,0.158781,0.613105,-0.278523,0.130992,-0.0133857,0.289261,-0.141323,0.0139177,0.0179914,0.478636,5,0.1,18,2,-3.01968,4.28826,0.529068,-0.866026,-0.385463,-0.0437543,0,0.0896454,0.00208616,0.0125347,2.18023,5,0.1,19,2,0.734283,-0.832854,0.611696,0.178468,0.412312,-0.012596,-0.112295,-0.259399,0.00792742,0.0095747,0.163855,5,0.1
0,2.1,0.0719079,-1.7488,0.644017,-0.1738,0.866025,0.0356525,-0.00341076,1.49012e-05,-0.00223517,0.0117986,2.25151,5,0.1,1,2.1,-0.30841,4.29994,0.618809,0.0872269,-0.801123,-0.0184903,-0.190984,0.261933,0.0154823,0.0115892,1.207,5,0.1,2,2.1,-3.10653,-2.45437,0.595442,0.0503756,-0.190474,0.00907378,-0.263155,0.229329,-0.0109337,0.0107132,0.324938,5,0.1,3,2.1,0.799831,-3.81463,0.613741,-0.00369037,0.0830255,-0.0176452,-0.073608,-0.0626445,0.0132993,0.0101756,0.301933,5,0.1,4,2.1,5.14143,0.477417,0.520545,-0.00883043,-0.689677,-0.0149487,0.0012517,-0.116376,0.00198931,0.00773227,2.73691,5,0.1,5,2.1,-4.59242,-5.45936,0.500021,0.375186,0.0675254,-7.22706e-05,0.0339746,-0.0347197,2.98023e-05,0.0147192,0.118847,5,0.1,6,2.1,-4.07671,-5.40063,1.06401,0.0066787,-0.00407696,0.0712762,-0.00917912,0.00464916,-0.0977591,0.0150955,3.99349,5,0.1,7,2.1,-2.42678,-2.68687,0.587922,0.467359,0.169213,0.0123534,-0.407904,-0.0128299,-0.0122562,0.00885686,0.141519,5,0.1,8,2.1,1.19919,2.72022,0.570505,0.354985,0.141532,-0.0234521,-0.155121,-0.0620037,0.0102557,0.0100928,0.0667494,5,0.1,9,2.1,-2.87996,-0.210423,0.730854,0.786509,0.211354,0.012669,0.872731,-0.152961,-0.0145212,0.0352745,2.36799,5,0.1,10,2.1,1.11211,0.143961,0.599123,-0.814332,0.154824,0.000883918,0.280976,-0.201412,-0.00083074,0.0110296,0.439396,5,0.1,11,2.1,-1.50454,1.61016,1.1705,0.00589769,-0.290563,0.232754,-0.00347942,0.221349,-0.135392,0.0207832,0.0735926,5,0.1,12,2.1,1.19532,4.62817,1.05657,0.00525936,-0.227203,0.235984,-0.0038594,-0.00289083,0.0464022,0.0174842,0.150128,5,0.1,13,2.1,-1.99973,-3.81457,0.597779,-0.00437293,0.0660315,0.00226703,0.133224,-0.0654161,-0.00223517,0.00735638,0.303315,5,0.1,14,2.1,4.35529,0.384487,0.500002,-0.151919,-0.306616,-8.10251e-06,0.0990629,0.134004,1.86265e-05,0.00772954,0.0855593,5,0.1,15,2.1,0.952128,-0.25373,0.611662,0.234886,0.210164,0.0591298,0.492908,-0.118654,-0.0300892,0.00907252,0.427253,5,0.1,16,2.1,-1.07,3.92047,0.592593,0.765345,-0.167418,0.00727419,-0.31672,0.140384,-0.00610948,0.0420105,0.406853,5,0.1,17,2.1,0.396291,0.171022,0.611832,-0.251965,0.11304,-0.0121079,0.249594,-0.19001,0.0120103,0.0179914,0.478636,5,0.1,18,2.1,-3.10628,4.25001,0.524691,-0.866026,-0.380523,-0.0438543,0,0.0315011,-0.00161678,0.0125347,2.18023,5,0.1,19,2.1,0.751909,-0.792775,0.610472,0.176824,0.390264,-0.0119221,0.0540055,-0.199433,0.00609085,0.0095747,0.163855,5,0.1
0,2.2,0.0545432,-1.66219,0.647566,-0.172977,0.866026,0.0352427,0.0272226,-5.96046e-05,-0.00751019,0.0109142,2.25203,5,0.1,1,2.2,-0.3,4.22131,0.617038,0.0870623,-0.76915,-0.0169173,0.168055,0.399351,0.0163913,0.00871955,1.22643,5,0.1,2,2.2,-3.1027,-2.47226,0.596294,0.0274897,-0.166994,0.00795424,-0.193477,0.240684,-0.0114441,0.0131394,0.30237,5,0.1,3,2.2,0.799197,-3.80667,0.612048,-0.00794828,0.0760019,-0.0161543,-0.0115335,-0.0780821,0.0165999,0.0096389,0.695685,5,0.1,4,2.2,5.14056,0.408887,0.519062,-0.00865459,-0.671862,-0.0146762,0.00238419,0.427783,0.00405312,0.00896242,2.88694,5,0.1,5,2.2,-4.55484,-5.45278,0.500014,0.375128,0.0638962,-6.4075e-05,-0.0505447,-0.0400543,0.000119209,0.0155368,0.357113,5,0.1,6,2.2,-4.07608,-5.40099,1.0707,0.00588894,-0.00287294,0.0628263,-0.00715256,0.0178814,-0.0748038,0.0142966,3.99121,5,0.1,7,2.2,-2.38208,-2.67001,0.589097,0.426346,0.167614,0.0111431,-0.422597,-0.027895,-0.0122488,0.00848776,0.170111,5,0.1,8,2.2,1.23389,2.73406,0.568213,0.338405,0.134909,-0.0223577,-0.189304,-0.0756979,0.0125468,0.00978195,0.0298885,5,0.1,9,2.2,-2.7978,-0.190035,0.732052,0.848103,0.19642,0.0113145,0.358462,-0.152811,-0.012964,0.031762,2.26578,5,0.1,10,2.2,1.0323,0.158398,0.599208,-0.779352,0.133589,0.000801682,0.437528,-0.221506,-0.000864267,0.00760505,0.730905,5,0.1,11,2.2,-1.50397,1.58246,1.19306,0.00551939,-0.261417,0.217918,-0.00429153,0.352323,-0.166357,0.0208105,0.213023,5,0.1,12,2.2,1.19583,4.60541,1.08025,0.00483692,-0.227666,0.236097,-0.00464916,0.00715256,-0.0485182,0.0164981,0.231375,5,0.1,13,2.2,-1.99964,-3.80829,0.597994,0.00484288,0.0595689,0.00204593,0.0517368,-0.0653267,-0.00223517,0.00869229,0.697526,5,0.1,14,2.2,4.34076,0.354516,0.500001,-0.137293,-0.292293,-5.96046e-06,0.187635,0.163525,2.98023e-05,0.0081941,0.145707,5,0.1,15,2.2,0.978005,-0.23334,0.617413,0.281224,0.197178,0.0557438,0.407696,-0.145771,-0.0389218,0.00828767,0.327621,5,0.1,16,2.2,-0.995198,3.90443,0.593289,0.728786,-0.15316,0.00665486,-0.43413,0.148177,-0.0064671,0.0372737,0.276114,5,0.1,17,2.2,0.372328,0.181465,0.610681,-0.227294,0.0970878,-0.0109226,0.249222,-0.115782,0.0120103,0.0186599,0.89038,5,0.1,18,2.2,-3.19288,4.21217,0.520308,-0.866026,-0.375354,-0.0436589,0,0.0879765,0.00724196,0.0131767,2.18526,5,0.1,19,2.2,0.769964,-0.754766,0.609311,0.184809,0.369379,-0.0112846,0.0865161,-0.230879,0.00706315,0.0135826,0.0985087,5,0.1
0,2.3,0.0373154,-1.57559,0.651067,-0.171976,0.866025,0.0348785,0.00304889,1.49012e-05,-0.00188127,0.0109142,2.25203,5,0.1,1,2.3,-0.289608,4.1469,0.615423,0.127648,-0.714546,-0.0154105,0.581719,0.675261,0.0142194,0.00871955,1.22643,5,0.1,2,2.3,-3.10084,-2.48776,0.597032,0.0104476,-0.143248,0.00682492,-0.143096,0.234276,-0.0111461,0.0131394,0.30237,5,0.1,3,2.3,0.798278,-3.79945,0.610515,-0.010373,0.0682957,-0.0145161,-0.00986084,-0.0769794,0.0163577,0.0096389,0.695685,5,0.1,4,2.3,5.1397,0.344864,0.517608,-0.00851154,-0.601156,-0.0144342,0.000953674,0.880012,0.00163913,0.00896242,2.88694,5,0.1,5,2.3,-4.51725,-5.4466,0.500008,0.378947,0.0595786,-4.90807e-05,0.0929832,-0.0469983,0.000167638,0.0155368,0.357113,5,0.1,6,2.3,-4.07552,-5.40119,1.07667,0.00534505,-0.00111535,0.0571622,-0.00411272,0.0168383,-0.0427589,0.0142966,3.99121,5,0.1,7,2.3,-2.34122,-2.65318,0.590159,0.393618,0.170622,0.010175,-0.25773,0.0688434,-0.00776723,0.00848776,0.170111,5,0.1,8,2.3,1.2668,2.74718,0.566039,0.319842,0.12749,-0.0211284,-0.191525,-0.0764877,0.0126697,0.00978195,0.0298885,5,0.1,9,2.3,-2.71189,-0.171053,0.733126,0.864905,0.184004,0.0102337,0.0448078,-0.105243,-0.00918657,0.031762,2.26578,5,0.1,10,2.3,0.957789,0.170611,0.59924,-0.699994,0.110385,-0.00051884,1.08897,-0.238899,-0.0227951,0.00760505,0.730905,5,0.1,11,2.3,-1.50344,1.55826,1.21399,0.00506379,-0.220844,0.200174,-0.00485778,0.446834,-0.1899,0.0208105,0.213023,5,0.1,12,2.3,1.19629,4.58295,1.10371,0.00443831,-0.219094,0.233801,-0.00353158,0.156492,-0.0116155,0.0164981,0.231375,5,0.1,13,2.3,-1.99886,-3.80264,0.598188,0.0104036,0.0536148,0.00184234,0.0333339,-0.0554472,-0.0018999,0.00869229,0.697526,5,0.1,14,2.3,4.32809,0.326142,0.5,-0.115062,-0.274701,-3.44589e-06,0.24882,0.1927,1.86265e-05,0.0081941,0.145707,5,0.1,15,2.3,1.00823,-0.214314,0.622802,0.323123,0.183573,0.0520837,0.402756,-0.13212,-0.0358969,0.00828767,0.327621,5,0.1,16,2.3,-0.924364,3.88981,0.593925,0.688536,-0.139542,0.00606105,-0.394687,0.128552,-0.00560284,0.0372737,0.276114,5,0.1,17,2.3,0.350766,0.19062,0.609645,-0.204579,0.0881968,-0.00982834,0.21155,0.00783056,0.0101887,0.0186599,0.89038,5,0.1,18,2.3,-3.27948,4.17492,0.516023,-0.866026,-0.370478,-0.0416269,0,0.0313222,0.0321083,0.0131767,2.18526,5,0.1,19,2.3,0.788912,-0.718925,0.608216,0.194179,0.347729,-0.0106225,0.0885352,-0.213593,0.00653416,0.0135826,0.0985087,5,0.1
0,2.4,0.0201619,-1.48899,0.654541,-0.170616,0.866026,0.0345066,0.0314236,-5.96046e-05,-0.00706315,0.0148903,2.2527,5,0.1,1,2.4,-0.273672,4.07915,0.613953,0.192472,-0.637317,-0.0139907,0.667349,0.854731,0.0144839,0.0105732,1.02436,5,0.1,2,2.4,-3.1004,-2.50093,0.59766,-0.000536442,-0.120157,0.00572652,-0.0747442,0.227213,-0.0108182,0.0137589,0.96682,5,0.1,3,2.4,0.797356,-3.79301,0.609146,-0.00610799,0.060463,-0.0128508,0.106156,-0.0803471,0.0170469,0.00961227,1.19274,5,0.1,4,2.4,5.13886,0.289225,0.516175,-0.00836849,-0.51247,-0.0142023,0.00214577,0.833936,0.00360608,0.00737939,3.01543,5,0.1,5,2.4,-4.47888,-5.4409,0.500004,0.387847,0.0543833,-3.27826e-05,0.0603199,-0.056982,0.000178814,0.0146691,0.270497,5,0.1,6,2.4,-4.07501,-5.40122,1.08219,0.00499487,0.000429153,0.053525,-0.00309944,0.0140667,-0.0331998,0.0152351,3.99075,5,0.1,7,2.4,-2.30305,-2.63575,0.591141,0.370318,0.178033,0.00947714,-0.227451,0.0652075,-0.00670552,0.0100745,0.101752,5,0.1,8,2.4,1.29776,2.75952,0.563994,0.298524,0.118983,-0.0197187,-0.241041,-0.0962019,0.0159144,0.0122849,0.0113925,5,0.1,9,2.4,-2.62531,-0.153166,0.734106,0.866026,0.173693,0.00938326,0,-0.107996,-0.00822544,0.0323126,2.25513,5,0.1,10,2.4,0.893894,0.180452,0.599057,-0.572585,0.0864774,-0.00326782,1.40965,-0.23625,-0.0300109,0.014381,0.183932,5,0.1,11,2.4,-1.50296,1.53848,1.23301,0.00454187,-0.174272,0.179753,-0.00554323,0.474691,-0.218987,0.0226552,0.413015,5,0.1,12,2.4,1.19672,4.56202,1.127,0.00409484,-0.197852,0.231344,-0.00339746,0.261545,-0.0476241,0.0159276,0.221323,5,0.1,13,2.4,-1.99784,-3.79755,0.598363,0.00786483,0.0481963,0.00165701,-0.0942945,-0.0543594,-0.00187755,0.00803901,0.900633,5,0.1,14,2.4,4.31787,0.299712,0.5,-0.0889897,-0.253069,-1.49012e-06,0.265837,0.242382,0,0.00962815,0.204014,5,0.1,15,2.4,1.04236,-0.196633,0.627825,0.3571,0.169781,0.0482932,0.257492,-0.147685,-0.041008,0.00735849,0.238919,5,0.1,16,2.4,-0.857577,3.8765,0.594503,0.645843,-0.126714,0.005503,-0.475377,0.13113,-0.00572205,0.0382297,0.185752,5,0.1,17,2.4,0.331346,0.2,0.608712,-0.18388,0.10456,-0.00883192,0.207037,0.308625,0.00995398,0.022777,1.41142,5,0.1,18,2.4,-3.36609,4.13809,0.512053,-0.866026,-0.365388,-0.0374869,0,0.0863075,0.0495315,0.00959685,1.71658,5,0.1,19,2.4,0.808693,-0.685267,0.607188,0.200425,0.324737,-0.0099197,0.0278652,-0.254005,0.0077486,0.00982047,0.104047,5,0.1
0,2.5,0.00319032,-1.40239,0.657971,-0.169227,0.866025,0.0341767,0.00644945,1.49012e-05,-0.00159815,0.0148903,2.2527,5,0.1,1,2.5,-0.251228,4.02008,0.612622,0.254599,-0.541442,-0.0126677,0.558939,1.01767,0.0123754,0.0105732,1.02436,5,0.1,2,2.5,-3.10091,-2.51185,0.59818,-0.00946708,-0.0986237,0.00470122,-0.0697225,0.203863,-0.00970438,0.0137589,0.96682,5,0.1,3,2.5,0.797336,-3.78735,0.607943,0.00831755,0.0528395,-0.0112328,0.254322,-0.0730157,0.0155009,0.00961227,1.19274,5,0.1,4,2.5,5.13803,0.241873,0.514767,-0.0082463,-0.439276,-0.0140004,0.00077486,0.560378,0.0012666,0.00737939,3.01543,5,0.1,5,2.5,-4.43965,-5.43574,0.500002,0.397578,0.0487916,-1.72295e-05,0.107765,-0.0555217,0.000130385,0.0146691,0.270497,5,0.1,6,2.5,-4.07452,-5.40112,1.08742,0.00479668,0.00151619,0.0514068,-0.00119209,0.00789762,-0.0130236,0.0152351,3.99075,5,0.1,7,2.5,-2.26701,-2.61756,0.592059,0.351423,0.18581,0.00891648,-0.167474,0.077799,-0.00493973,0.0100745,0.101752,5,0.1,8,2.5,1.3264,2.77093,0.562102,0.274018,0.109206,-0.0181009,-0.253357,-0.10106,0.0167228,0.0122849,0.0113925,5,0.1,9,2.5,-2.53871,-0.136243,0.73501,0.866026,0.165437,0.0087372,0,-0.0666273,-0.00521913,0.0323126,2.25513,5,0.1,10,2.5,0.842879,0.187932,0.598607,-0.454967,0.0633194,-0.00545671,0.973336,-0.223985,-0.0144728,0.014381,0.183932,5,0.1,11,2.5,-1.50253,1.52341,1.24994,0.00402667,-0.127711,0.159392,-0.00485778,0.44927,-0.192218,0.0226552,0.413015,5,0.1,12,2.5,1.19712,4.54371,1.14983,0.00411272,-0.166967,0.224307,0.00287592,0.344902,-0.0962839,0.0159276,0.221323,5,0.1,13,2.5,-1.99764,-3.79298,0.59852,-0.00646487,0.0432726,0.00148714,-0.246897,-0.045523,-0.00156462,0.00803901,0.900633,5,0.1,14,2.5,4.31029,0.275586,0.5,-0.0629745,-0.229644,-1.11759e-06,0.249535,0.231111,7.45058e-06,0.00962815,0.204014,5,0.1,15,2.5,1.07935,-0.180353,0.63246,0.382048,0.156111,0.0444796,0.219859,-0.130569,-0.0366196,0.00735849,0.238919,5,0.1,16,2.5,-0.795236,3.86444,0.595026,0.601827,-0.114739,0.00498099,-0.424728,0.112012,-0.00487641,0.0382297,0.185752,5,0.1,17,2.5,0.313924,0.211988,0.607875,-0.165122,0.134932,-0.00793021,0.173539,0.29262,0.0083372,0.022777,1.41142,5,0.1,18,2.5,-3.45269,4.10189,0.508578,-0.865948,-0.35891,-0.0317936,0.00309944,0.0606477,0.0626706,0.00959685,1.71658,5,0.1,19,2.5,0.828599,-0.653964,0.606231,0.195125,0.302031,-0.00922708,-0.126392,-0.212245,0.00647828,0.00982047,0.104047,5,0.1
0,2.6,-0.0136736,-1.31578,0.661375,-0.167602,0.866026,0.0338331,0.0332057,-5.96046e-05,-0.00673532,0.0105204,2.25342,5,0.1,1,2.6,-0.223263,3.97101,0.611416,0.301507,-0.440991,-0.0114471,0.367954,0.964284,0.0123382,0.010417,0.898874,5,0.1,2,2.6,-3.10199,-2.52073,0.598603,-0.00963211,-0.0793159,0.00378042,0.0807047,0.18239,-0.00864267,0.0100429,2.79121,5,0.1,3,2.6,0.8,-3.78243,0.606896,0.0504076,0.0457108,-0.00972003,0.571966,-0.0699759,0.0148714,0.0100039,1.68235,5,0.1,4,2.6,5.13721,0.2,0.513375,-0.00813007,-0.40538,-0.0138044,0.00214577,0.137217,0.00318885,0.00716151,3.13668,5,0.1,5,2.6,-4.39945,-5.43114,0.5,0.404859,0.0431538,-5.96046e-06,0.0193119,-0.0572205,5.96046e-05,0.0133046,0.197561,5,0.1,6,2.6,-4.07404,-5.40094,1.09251,0.00469685,0.0020504,0.0502497,-0.00143051,0.00333786,-0.0129342,0.0137172,3.99217,5,0.1,7,2.6,-2.23272,-2.59866,0.592926,0.333917,0.191462,0.00841469,-0.194788,0.0263453,-0.00539422,0.0104126,0.087804,5,0.1,8,2.6,1.35249,2.78133,0.560379,0.247186,0.0985086,-0.0163302,-0.285804,-0.113964,0.0188947,0.012035,0.00584547,5,0.1,9,2.6,-2.4521,-0.120028,0.735859,0.866026,0.15873,0.00824928,0,-0.0743604,-0.00494719,0.0282197,2.25702,5,0.1,10,2.6,0.801736,0.193184,0.59801,-0.372413,0.0421856,-0.00629276,0.702202,-0.196546,-0.00292063,0.0134292,0.231806,5,0.1,11,2.6,-1.50215,1.51279,1.26494,0.00355244,-0.0856459,0.140634,-0.00470877,0.387132,-0.185847,0.0226135,0.36274,5,0.1,12,2.6,1.19755,4.5288,1.17167,0.00451505,-0.130868,0.211611,0.00464916,0.368118,-0.159144,0.016267,0.41724,5,0.1,13,2.6,-2,-3.78888,0.598661,-0.0453949,0.0388503,0.00133365,-0.515819,-0.0441074,-0.00149012,0.00782621,1.35197,5,0.1,14,2.6,4.30518,0.253791,0.5,-0.0399113,-0.206028,0,0.208616,0.244401,0,0.00743744,0.325005,5,0.1,15,2.6,1.11845,-0.165398,0.636723,0.39745,0.142848,0.0407398,0.0735521,-0.138044,-0.0390708,0.00863756,0.166976,5,0.1,16,2.6,-0.737224,3.85352,0.5955,0.557564,-0.103688,0.00450015,-0.474095,0.11158,-0.00485778,0.0352056,0.162154,5,0.1,17,2.6,0.29826,0.226872,0.607123,-0.148245,0.16188,-0.00711977,0.167847,0.240482,0.00807643,0.0278206,3.43127,5,0.1,18,2.6,-3.53924,4.06638,0.505722,-0.864792,-0.350296,-0.025256,0.0247955,0.123739,0.066787,0.00865644,1.30424,5,0.1,19,2.6,0.847278,-0.624833,0.605341,0.176609,0.280239,-0.00856072,-0.236839,-0.232011,0.00706315,0.0104563,0.191388,5,0.1
0,2.7,-0.0303347,-1.22918,0.664739,-0.166034,0.866025,0.0335243,0.00804767,1.49012e-05,-0.00146031,0.0105204,2.25342,5,0.1,1,2.7,-0.19193,3.93157,0.610329,0.319635,-0.350659,-0.0103263,0.0347412,0.797391,0.0104159,0.010417,0.898874,5,0.1,2,2.7,-3.10255,-2.52779,0.59894,0.0021562,-0.0624638,0.00298135,0.282943,0.155225,-0.00736117,0.0100429,2.79121,5,0.1,3,2.7,0.808923,-3.77819,0.605994,0.136135,0.0392191,-0.00834037,1.05863,-0.0606477,0.0128895,0.0100039,1.68235,5,0.1,4,2.7,5.1364,0.160303,0.511899,-0.00800788,-0.387256,-0.0165664,0.00077486,0.2157,-0.0486374,0.00716151,3.13668,5,0.1,5,2.7,-4.3588,-5.4271,0.5,0.408285,0.0377357,-5.58794e-07,0.0282228,-0.0517964,4.47035e-05,0.0133046,0.197561,5,0.1,6,2.7,-4.07358,-5.40072,1.0975,0.00463203,0.00217259,0.0497563,-0.000149012,-0.000655651,-0.000409782,0.0137172,3.99217,5,0.1,7,2.7,-2.20016,-2.57955,0.593744,0.318465,0.188958,0.00798525,-0.131875,-0.0746995,-0.00364706,0.0104126,0.087804,5,0.1,8,2.7,1.3758,2.79062,0.558838,0.219192,0.087348,-0.01448,-0.277326,-0.110522,0.018321,0.012035,0.00584547,5,0.1,9,2.7,-2.3655,-0.104447,0.736664,0.866026,0.153473,0.00789398,0,-0.0399356,-0.00265613,0.0282197,2.25702,5,0.1,10,2.7,0.767213,0.196417,0.597384,-0.324837,0.0225576,-0.00607111,0.293046,-0.191481,0.00656396,0.0134292,0.231806,5,0.1,11,2.7,-1.50182,1.50607,1.27809,0.00309423,-0.0500115,0.122539,-0.00447035,0.31855,-0.1771,0.0226135,0.36274,5,0.1,12,2.7,1.19802,4.51762,1.1921,0.00480786,-0.0925101,0.197344,0.0012368,0.381917,-0.133745,0.016267,0.41724,5,0.1,13,2.7,-2.00803,-3.7852,0.598788,-0.122484,0.0348751,0.00119926,-0.950724,-0.0365824,-0.00123307,0.00782621,1.35197,5,0.1,14,2.7,4.30221,0.234409,0.5,-0.0198379,-0.181601,0,0.183523,0.245018,0,0.00743744,0.325005,5,0.1,15,2.7,1.15855,-0.151763,0.640613,0.40397,0.130162,0.0371381,0.0395626,-0.119735,-0.0340976,0.00863756,0.166976,5,0.1,16,2.7,-0.683701,3.84364,0.595928,0.513862,-0.0944141,0.00405954,-0.416454,0.0788718,-0.00409409,0.0352056,0.162154,5,0.1,17,2.7,0.28412,0.243684,0.606704,-0.135845,0.170502,0.000862498,0.0907443,0.00540726,0.135664,0.0278206,3.43127,5,0.1,18,2.7,-3.62571,4.03191,0.503528,-0.865024,-0.339401,-0.0186862,-0.00321865,0.108287,0.0635982,0.00865644,1.30424,5,0.1,19,2.7,0.863594,-0.597985,0.604521,0.148371,0.256485,-0.00783689,-0.31735,-0.246245,0.00751019,0.0104563,0.191388,5,0.1
0,2.8,-0.046873,-1.14258,0.668079,-0.164299,0.866026,0.0331953,0.0336879,-5.96046e-05,-0.00658631,0.0117895,2.25417,5,0.1,1,2.8,-0.16009,3.9,0.609348,0.314821,-0.285542,-0.00930727,-0.107497,0.509739,0.010252,0.00943769,1.00211,5,0.1,2,2.8,-3.1,-2.5333,0.599204,0.0578523,-0.0481725,0.00230223,0.811815,0.13113,-0.00625849,0.0117233,2.43303,5,0.1,3,2.8,0.828063,-3.77456,0.605222,0.247358,0.0334442,-0.00711232,1.10197,-0.0555515,0.0118017,0.0103305,1.70432,5,0.1,4,2.8,5.13561,0.122727,0.509979,-0.00789165,-0.363706,-0.021866,0.00190735,0.250186,-0.0505149,0.00731285,3.23251,5,0.1,5,2.8,-4.31796,-5.42358,0.5,0.406945,0.0326753,1.49012e-06,-0.0696182,-0.0493526,2.98023e-05,0.0145706,0.139705,5,0.1,6,2.8,-4.07312,-5.40051,1.10247,0.00460148,0.00197887,0.0495702,-0.000476837,-0.00286102,-0.00596046,0.0143021,3.99423,5,0.1,7,2.8,-2.16898,-2.56118,0.594525,0.304544,0.176936,0.00761002,-0.159025,-0.163317,-0.00420213,0.00856157,0.144467,5,0.1,8,2.8,1.39632,2.7988,0.557483,0.191224,0.0762045,-0.0126332,-0.283837,-0.113249,0.0187755,0.0132298,0.00179797,5,0.1,9,2.8,-2.2789,-0.0893035,0.737441,0.866026,0.149171,0.00763237,0,-0.0526756,-0.00298023,0.0297145,2.23962,5,0.1,10,2.8,0.735815,0.197754,0.59682,-0.306046,0.00466928,-0.00512302,0.116616,-0.163019,0.0117719,0.0245313,0.181602,5,0.1,11,2.8,-1.50153,1.5025,1.28946,0.00265241,-0.0229836,0.105053,-0.00441074,0.21863,-0.173271,0.0292601,0.547774,5,0.1,12,2.8,1.1985,4.51019,1.21116,0.00477135,-0.0572801,0.183585,-0.00190735,0.311852,-0.146806,0.0210535,0.354777,5,0.1,13,2.8,-2.02524,-3.78189,0.598902,-0.222301,0.0313282,0.00107884,-0.988603,-0.0351667,-0.0012219,0.00739876,1.09823,5,0.1,14,2.8,4.30104,0.21748,0.5,-0.00464916,-0.156908,0,0.115395,0.249147,0,0.00827652,0.476733,5,0.1,15,2.8,1.19897,-0.139342,0.644157,0.402477,0.11821,0.0337258,-0.0808835,-0.122145,-0.0349283,0.00850099,0.113281,5,0.1,16,2.8,-0.634411,3.83457,0.596313,0.471482,-0.0870466,0.00365973,-0.442564,0.0718832,-0.00405312,0.03875,0.14524,5,0.1,17,2.8,0.270933,0.260822,0.607571,-0.128242,0.173864,0.017184,0.0692904,0.0974089,0.178427,0.0240346,3.25809,5,0.1,18,2.8,-3.7121,3.99857,0.501965,-0.861138,-0.32627,-0.0127062,0.0978708,0.164032,0.0552833,0.00940933,0.962217,5,0.1,19,2.8,0.876784,-0.573612,0.603776,0.115034,0.2305,-0.00704527,-0.340998,-0.275165,0.00843406,0.00812739,0.276565,5,0.1
0,2.9,-0.0632004,-1.05598,0.671379,-0.16266,0.866025,0.032891,0.00878591,1.11759e-05,-0.00147521,0.0117895,2.25417,5,0.1,1,2.9,-0.129298,3.87342,0.608465,0.300248,-0.251067,-0.00838069,-0.156302,0.212058,0.00856444,0.00943769,1.00211,5,0.1,2,2.9,-3.08901,-2.53751,0.599405,0.170988,-0.0363063,0.00173571,1.35127,0.106767,-0.00509992,0.0117233,2.43303,5,0.1,3,2.9,0.858783,-3.77148,0.604567,0.369888,0.028377,-0.00603581,1.27527,-0.0464916,0.0098832,0.0103305,1.70432,5,0.1,4,2.9,5.13482,0.0880323,0.50758,-0.00778586,-0.327751,-0.0255904,0.000715256,0.399688,-0.0200607,0.00731285,3.23251,5,0.1,5,2.9,-4.27757,-5.42055,0.5,0.400884,0.0280991,2.8871e-06,-0.0685453,-0.0427961,3.72529e-06,0.0145706,0.139705,5,0.1,6,2.9,-4.07266,-5.40033,1.10741,0.00460073,0.00161752,0.0494849,0.000208616,-0.00420213,0.0012219,0.0143021,3.99423,5,0.1,7,2.9,-2.13936,-2.54448,0.595264,0.287395,0.155539,0.0071642,-0.188991,-0.255749,-0.0048466,0.00856157,0.144467,5,0.1,8,2.9,1.41405,2.80586,0.556312,0.163447,0.0651263,-0.0107965,-0.272267,-0.10857,0.0179932,0.0132298,0.00179797,5,0.1,9,2.9,-2.1923,-0.0745812,0.738193,0.866026,0.145739,0.00744369,0,-0.0246472,-0.00125915,0.0297145,2.23962,5,0.1,10,2.9,0.705548,0.197468,0.596369,-0.301144,-0.00974773,-0.00388492,0.00561029,-0.124454,0.0126958,0.0245313,0.181602,5,0.1,11,2.9,-1.50129,1.50123,1.29914,0.00223778,-0.00350699,0.088742,-0.00391901,0.149563,-0.154063,0.0292601,0.547774,5,0.1,12,2.9,1.19897,4.5059,1.22876,0.00446197,-0.0300832,0.168311,-0.00416487,0.217348,-0.160389,0.0210535,0.354777,5,0.1,13,2.9,-2.0527,-3.77892,0.599004,-0.328195,0.0281703,0.000969227,-1.07239,-0.0289828,-0.0010021,0.00739876,1.09823,5,0.1,14,2.9,4.30112,0.203014,0.5,0.00522733,-0.132623,0,0.0637174,0.236535,0,0.00827652,0.476733,5,0.1,15,2.9,1.23882,-0.128094,0.647365,0.394268,0.107056,0.0305295,-0.0974163,-0.104348,-0.0299588,0.00850099,0.113281,5,0.1,16,2.9,-0.589108,3.82629,0.596662,0.437535,-0.0781152,0.00334494,-0.265162,0.104293,-0.00246614,0.03875,0.14524,5,0.1,17,2.9,0.258356,0.278769,0.610277,-0.12407,0.188803,0.0375663,0.0234479,0.30834,0.217099,0.0240346,3.25809,5,0.1,18,2.9,-3.79798,3.96671,0.500952,-0.857709,-0.31123,-0.00774544,0.0180304,0.148311,0.0435784,0.00940933,0.962217,5,0.1,19,2.9,0.886599,-0.551895,0.603113,0.0816197,0.204157,-0.00623818,-0.320915,-0.255398,0.00782311,0.00812739,0.276565,5,0.1
0,3,-0.0793985,-0.969374,0.674656,-0.160884,0.866026,0.032562,0.0336319,0,-0.00652671,0.0131889,2.25493,5,0.1,1,3,-0.1,3.8491,0.607668,0.286327,-0.237399,-0.00754595,-0.122126,0.0861883,0.00828505,0.00954711,0.88754,5,0.1,2,3,-3.06494,-2.54064,0.599555,0.310606,-0.0267088,0.00127703,1.36566,0.0857115,-0.00408292,0.0133632,1.99161,5,0.1,3,3,0.901938,-3.76886,0.60401,0.489727,0.0240207,-0.00510961,1.06794,-0.041008,0.00873208,0.00941738,0.287917,5,0.1,4,3,5.13405,0.0570798,0.504994,-0.007689,-0.293968,-0.0253871,0.00214577,0.243206,0.0250638,0.00976128,3.17604,5,0.1,5,3,-4.23793,-5.41794,0.500001,0.390387,0.0240326,2.98023e-06,-0.152588,-0.0393391,-2.98023e-05,0.0166111,0.166284,5,0.1,6,3,-4.0722,-5.40019,1.11236,0.00458956,0.00116825,0.049296,-0.000715256,-0.00429153,-0.00721216,0.0150191,3.99574,5,0.1,7,3,-2.11165,-2.5303,0.595954,0.265956,0.127417,0.00662059,-0.24271,-0.299215,-0.00610948,0.00814546,0.1987,5,0.1,8,3,1.42905,2.81184,0.555321,0.1367,0.0544667,-0.0090301,-0.262797,-0.104785,0.0173748,0.0117539,0.000886471,5,0.1,9,3,-2.10569,-0.0601425,0.738931,0.866026,0.142753,0.00730008,0,-0.0412744,-0.00199676,0.0289048,1.7774,5,0.1,10,3,0.675441,0.195941,0.596043,-0.300735,-0.0201017,-0.00263751,0.0202656,-0.0822917,0.0120103,0.0172722,0.148162,5,0.1,11,3,-1.50108,1.50139,1.30727,0.00186563,0.00404716,0.0740498,-0.00357628,-0.00596046,-0.140488,0.0200599,1.00463,5,0.1,12,3,1.19939,4.50373,1.24476,0.00396073,-0.0156999,0.151253,-0.00566244,0.0655651,-0.181556,0.0176542,0.739338,5,0.1,13,3,-2.09063,-3.77624,0.599096,-0.42699,0.0253618,0.000871718,-0.86236,-0.027895,-0.000953674,0.00774151,0.145638,5,0.1,14,3,4.30176,0.190913,0.5,0.00562668,-0.109615,0,-0.0619888,0.22348,0,0.00736957,1.20439,5,0.1,15,3,1.27764,-0.117903,0.65027,0.380644,0.0967592,0.0275716,-0.184417,-0.103984,-0.0298917,0.00883684,0.12874,5,0.1,16,3,-0.546581,3.81904,0.596986,0.413446,-0.0666499,0.00312626,-0.237823,0.122786,-0.00205636,0.0359844,0.161748,5,0.1,17,3,0.246053,0.3,0.615101,-0.121938,0.243592,0.0584975,0.0260174,0.761047,0.192523,0.0260469,2.92097,5,0.1,18,3,-3.88347,3.93638,0.500374,-0.849479,-0.294673,-0.00403225,0.179887,0.190735,0.0305772,0.00867793,0.688899,5,0.1,19,3,0.893232,-0.532748,0.602528,0.0519037,0.178809,-0.00546277,-0.269204,-0.253886,0.00777841,0.0094817,0.360644,5,0.1
0,3.1,-0.0953833,-0.882772,0.677893,-0.159212,0.866026,0.032253,0.00926245,-3.72529e-06,-0.00157952,0.0131889,2.25493,5,0.1,1,3.1,-0.0722091,3.8255,0.606952,0.267928,-0.236738,-0.00679959,-0.21747,-0.0480264,0.00687689,0.00954711,0.88754,5,0.1,2,3.1,-3.02671,-2.54276,0.599663,0.455374,-0.0146657,0.000915024,1.45435,0.145793,-0.00318512,0.0133632,1.99161,5,0.1,3,3.1,0.955532,-3.76665,0.60354,0.574792,0.0203308,-0.00432394,0.626564,-0.0333935,0.00710785,0.00941738,0.287917,5,0.1,4,3.1,5.13329,0.0287428,0.502655,-0.00756308,-0.277384,-0.0206709,0.000864267,-0.020074,0.0672936,0.00976128,3.17604,5,0.1,5,3.1,-4.19936,-5.41572,0.500001,0.38325,0.0206605,4.65661e-07,-0.020057,-0.0290871,-1.86265e-05,0.0166111,0.166284,5,0.1,6,3.1,-4.07174,-5.40009,1.11727,0.00456125,0.000753999,0.0490246,-0.000119209,-0.0038743,-0.00106543,0.0150191,3.99574,5,0.1,7,3.1,-2.08623,-2.51907,0.596587,0.24255,0.0970125,0.00603441,-0.231102,-0.303,-0.0057593,0.00814546,0.1987,5,0.1,8,3.1,1.44144,2.81677,0.554503,0.111397,0.0443812,-0.00735773,-0.242807,-0.0967532,0.0160448,0.0117539,0.000886471,5,0.1,9,3.1,-2.01909,-0.0460342,0.739653,0.866026,0.139627,0.0071588,0,-0.0281718,-0.00120327,0.0289048,1.7774,5,0.1,10,3.1,0.645348,0.193717,0.595839,-0.301838,-0.0226196,-0.00146404,-0.023324,0.0227401,0.0112429,0.0172722,0.148162,5,0.1,11,3.1,-1.50091,1.50165,1.31401,0.00153668,-0.00194386,0.0611128,-0.00302494,-0.178009,-0.119321,0.0200599,1.00463,5,0.1,12,3.1,1.19976,4.50238,1.259,0.00336468,-0.0141479,0.133637,-0.00616908,-0.0912845,-0.172481,0.0176542,0.739338,5,0.1,13,3.1,-2.13701,-3.77382,0.599179,-0.494181,0.0232313,0.000799075,-0.477821,-0.0163466,-0.000558794,0.00774151,0.145638,5,0.1,14,3.1,4.30199,0.181024,0.5,-0.00371858,-0.0885842,0,-0.204414,0.197493,0,0.00736957,1.20439,5,0.1,15,3.1,1.31503,-0.108666,0.652901,0.369078,0.0886381,0.0252255,-0.0725389,-0.0642817,-0.0186749,0.00883684,0.12874,5,0.1,16,3.1,-0.506274,3.813,0.597289,0.393714,-0.053836,0.00295816,-0.1758,0.131175,-0.00145659,0.0359844,0.161748,5,0.1,17,3.1,0.233923,0.329312,0.621935,-0.121109,0.35142,0.0781781,-0.00118557,1.29021,0.191461,0.0260469,2.92097,5,0.1,18,3.1,-3.96767,3.90798,0.500102,-0.835031,-0.272174,-0.00162227,0.147,0.257954,0.0180863,0.00867793,0.688899,5,0.1,19,3.1,0.897144,-0.516128,0.60202,0.0271839,0.153668,-0.00469303,-0.218701,-0.248868,0.00761822,0.0094817,0.360644,5,0.1
0,3.2,-0.111235,-0.796169,0.681105,-0.157412,0.866026,0.0319153,0.0334758,0,-0.00652671,0.0121776,2.25569,5,0.1,1,3.2,-0.0464884,3.80154,0.606306,0.247012,-0.242662,-0.00613034,-0.187424,-0.051856,0.00667572,0.00842169,0.772632,5,0.1,2,3.2,-2.97426,-2.54346,0.59974,0.588524,0.000792742,0.00063628,1.1543,0.156283,-0.00247359,0.0119632,1.51436,5,0.1,3,3.2,1.01537,-3.76477,0.603141,0.614282,0.0172377,-0.00366569,0.162601,-0.0290871,0.00619888,0.00921408,0.144938,5,0.1,4,3.2,5.13254,0,0.500973,-0.00743866,-0.306188,-0.0126138,0.00190735,-0.529491,0.0889003,0.00993499,2.89619,5,0.1,5,3.2,-4.16112,-5.41379,0.500001,0.381219,0.0180364,0,-0.0426769,-0.0240803,-2.98023e-05,0.0187979,0.14654,5,0.1,6,3.2,-4.07128,-5.40004,1.12216,0.00452995,0.000405312,0.0485957,-0.00119209,-0.00309944,-0.00947714,0.021747,3.99659,5,0.1,7,3.2,-2.06315,-2.51085,0.597161,0.218803,0.067842,0.00544488,-0.247478,-0.276089,-0.00616908,0.011053,0.324116,5,0.1,8,3.2,1.4514,2.82074,0.553845,0.0882268,0.0351429,-0.00582784,-0.22018,-0.0874996,0.0145435,0.0162529,0.000728475,5,0.1,9,3.2,-1.93249,-0.0322371,0.740362,0.866026,0.135943,0.0069961,-5.96046e-05,-0.0503603,-0.00232458,0.0363528,1.37342,5,0.1,10,3.2,0.615103,0.19168,0.595746,-0.302151,-0.0172146,-0.000424683,0.0305176,0.0779331,0.00935793,0.0143807,0.161298,5,0.1,11,3.2,-1.50077,1.5,1.31955,0.00125468,-0.0364304,0.0499994,-0.0026226,-0.496328,-0.103891,0.0189662,2.23345,5,0.1,12,3.2,1.20006,4.5,1.2715,0.00273883,-0.0383377,0.116473,-0.00619888,-0.380039,-0.17184,0.0212561,0.897174,5,0.1,13,3.2,-2.18816,-3.77157,0.599257,-0.522292,0.0218034,0.000751019,-0.0853539,-0.0134706,-0.000476837,0.0089666,0.460911,5,0.1,14,3.2,4.3,0.173113,0.5,-0.0418305,-0.0700526,0,-0.544071,0.173427,0,0.011839,1.69887,5,0.1,15,3.2,1.35159,-0.100098,0.655338,0.361717,0.0828849,0.0235513,-0.0934005,-0.0551119,-0.0160635,0.0273645,0.0753322,5,0.1,16,3.2,-0.467806,3.80827,0.597578,0.375049,-0.0408351,0.00280887,-0.210896,0.127077,-0.00163913,0.0545501,0.289606,5,0.1,17,3.2,0.221817,0.371065,0.630644,-0.120757,0.48319,0.0951469,0.0141487,1.26608,0.141144,0.0572271,2.54465,5,0.1,18,3.2,-4.05024,3.88216,0.500013,-0.813663,-0.243407,-0.000317395,0.306129,0.315547,0.00852346,0.00958807,0.491048,5,0.1,19,3.2,0.898894,-0.501996,0.601588,0.00913143,0.129075,-0.00393987,-0.139236,-0.242725,0.00739098,0.0198505,0.785052,5,0.1
0,3.3,-0.126871,-0.709567,0.684277,-0.155709,0.866026,0.0315953,0.00980262,-3.72529e-06,-0.00175089,0.0121776,2.25569,5,0.1,1,3.3,-0.0227378,3.77688,0.605724,0.229356,-0.251208,-0.00553066,-0.112285,-0.099659,0.00551715,0.00842169,0.772632,5,0.1,2,3.3,-2.90965,-2.54272,0.599793,0.702107,0.0128377,0.000422448,1.0594,0.0875145,-0.00182539,0.0119632,1.51436,5,0.1,3,3.3,1.07725,-3.76318,0.602803,0.619557,0.0146527,-0.00311499,-0.0638738,-0.0231117,0.00492111,0.00921408,0.144938,5,0.1,4,3.3,5.1318,-0.0345174,0.500148,-0.00732765,-0.393923,-0.00415714,0.000745058,-1.11793,0.0723787,0.00993499,2.89619,5,0.1,5,3.3,-4.12313,-5.41204,0.500001,0.37896,0.0173688,-1.86265e-06,-0.0219047,0.00673532,-1.49012e-05,0.0187979,0.14654,5,0.1,6,3.3,-4.07084,-5.40001,1.12699,0.00445843,0.000161678,0.0480775,-0.000476837,-0.00181794,-0.00359118,0.021747,3.99659,5,0.1,7,3.3,-2.04251,-2.50537,0.597674,0.193941,0.0425562,0.00482649,-0.250801,-0.226915,-0.00622869,0.011053,0.324116,5,0.1,8,3.3,1.45916,2.82383,0.553332,0.0674747,0.0268936,-0.00445759,-0.194252,-0.0772476,0.0128262,0.0162529,0.000728475,5,0.1,9,3.3,-1.84589,-0.0188678,0.741051,0.865801,0.131567,0.00679977,-0.0089556,-0.0427263,-0.00190735,0.0363528,1.37342,5,0.1,10,3.3,0.584978,0.190403,0.595749,-0.3006,-0.00788467,0.000454299,0.015609,0.103466,0.00806898,0.0143807,0.161298,5,0.1,11,3.3,-1.50066,1.49257,1.32406,0.00101756,-0.122743,0.0406023,-0.00213832,-1.13089,-0.085026,0.0189662,2.23345,5,0.1,12,3.3,1.2003,4.49388,1.28233,0.00213329,-0.0871047,0.100318,-0.00586361,-0.560224,-0.152931,0.0212561,0.897174,5,0.1,13,3.3,-2.24099,-3.76946,0.599329,-0.535135,0.0204511,0.000703521,-0.13712,-0.0140369,-0.000491738,0.0089666,0.460911,5,0.1,14,3.3,4.29204,0.166927,0.5,-0.125734,-0.0541187,0,-1.04919,0.145749,0,0.011839,1.69887,5,0.1,15,3.3,1.38737,-0.0920498,0.657622,0.354259,0.0783242,0.0222162,-0.0723675,-0.0399733,-0.0117309,0.0273645,0.0753322,5,0.1,16,3.3,-0.4313,3.80481,0.597851,0.355311,-0.0287004,0.00265865,-0.196036,0.114053,-0.00146404,0.0545501,0.289606,5,0.1,17,3.3,0.209762,0.426142,0.640866,-0.120643,0.620462,0.109113,-0.00433065,1.39446,0.129942,0.0572271,2.54465,5,0.1,18,3.3,-4.1302,3.85954,0.500014,-0.785893,-0.207633,0.000244752,0.280082,0.390366,0.00310689,0.00958807,0.491048,5,0.1,19,3.3,0.899094,-0.490261,0.60123,-0.00451747,0.106028,-0.00323793,-0.104986,-0.218568,0.00665709,0.0198505,0.785052,5,0.1
0,3.4,-0.142371,-0.622964,0.687423,-0.153875,0.866026,0.0312448,0.0334382,0,-0.00661612,0.0216282,2.25646,5,0.1,1,3.4,0,3.75131,0.605198,0.228959,-0.259268,-0.00499338,0.0949642,-0.0475645,0.00533462,0.0157896,0.65072,5,0.1,2,3.4,-2.83469,-2.5411,0.599827,0.790626,0.018847,0.000268221,0.671148,0.0351667,-0.0013113,0.0166959,0.322237,5,0.1,3,3.4,1.13847,-3.76183,0.602515,0.600612,0.0125289,-0.00266135,-0.317156,-0.019908,0.00420213,0.0170085,0.156452,5,0.1,4,3.4,5.13107,-0.0797436,0.5,-0.00721216,-0.510953,0,0.00166893,-1.14175,0,0.00989446,2.55205,5,0.1,5,3.4,-4.08544,-5.41025,0.5,0.373566,0.0186682,-1.49012e-06,-0.099659,0.0164509,-2.98023e-05,0.0139372,0.237479,5,0.1,6,3.4,-4.07039,-5.4,1.13177,0.00437498,2.38419e-05,0.0474155,-0.000953674,-0.000715256,-0.0114441,0.0196852,3.99719,5,0.1,7,3.4,-2.02438,-2.50216,0.598126,0.168502,0.0228465,0.00419617,-0.258327,-0.166297,-0.0064075,0.0121851,1.32052,5,0.1,8,3.4,1.46498,2.82616,0.552947,0.0494719,0.0197351,-0.00326782,-0.165462,-0.0659227,0.0108778,0.0213729,0.00056246,5,0.1,9,3.4,-1.75943,-0.00594939,0.74172,0.862437,0.126453,0.00656396,-0.071764,-0.0634073,-0.00301003,0.0491801,1.03073,5,0.1,10,3.4,0.555072,0.190139,0.595831,-0.296471,0.00256412,0.00116229,0.0774562,0.101551,0.00599027,0.0205501,0.229356,5,0.1,11,3.4,-1.50057,1.47426,1.32772,0.000822544,-0.245127,0.0328243,-0.00178814,-1.24109,-0.0713468,0.0387498,2.63792,5,0.1,12,3.4,1.20049,4.48231,1.29161,0.00157356,-0.14416,0.0856012,-0.0051856,-0.553608,-0.142455,0.0292923,1.41387,5,0.1,13,3.4,-2.29505,-3.76749,0.599397,-0.543857,0.0189126,0.000649691,-0.0132322,-0.0168085,-0.000566244,0.0164501,0.506837,5,0.1,14,3.4,4.27396,0.162202,0.5,-0.236726,-0.0408061,0,-1.10579,0.12096,0,0.0140873,1.38264,5,0.1,15,3.4,1.42236,-0.0844181,0.659785,0.344437,0.0742273,0.0210196,-0.13566,-0.0447184,-0.0129938,0.0167933,0.0573347,5,0.1,16,3.4,-0.396806,3.80248,0.598109,0.333801,-0.0182807,0.00250041,-0.242382,0.0933409,-0.00178814,0.0527181,0.267327,5,0.1,17,3.4,0.197696,0.494799,0.652354,-0.120335,0.747485,0.119744,0.0158474,1.08498,0.077039,0.0310612,2.33413,5,0.1,18,3.4,-4.20723,3.84079,0.500047,-0.752461,-0.167072,0.000372529,0.409603,0.41306,-0.000208616,0.0105162,0.34847,5,0.1,19,3.4,0.898346,-0.480714,0.600938,-0.00785142,0.0853017,-0.00260472,0.0496805,-0.196174,0.00593066,0.0156494,2.48671,5,0.1
0,3.5,-0.157652,-0.536362,0.690527,-0.152123,0.866026,0.0309054,0.0105547,-3.57628e-06,-0.00199676,0.0216282,2.25646,5,0.1,1,3.5,0.0234304,3.72509,0.604723,0.240127,-0.265277,-0.00451459,0.123411,-0.0573397,0.00439957,0.0157896,0.65072,5,0.1,2,3.5,-2.753,-2.5391,0.599848,0.835696,0.0205375,0.00015907,0.224248,0.00077486,-0.00089407,0.0166959,0.322237,5,0.1,3,3.5,1.19699,-3.76067,0.602268,0.569593,0.0107795,-0.0022918,-0.31992,-0.0154972,0.00327826,0.0170085,0.156452,5,0.1,4,3.5,5.13035,-0.136705,0.5,-0.00711828,-0.628224,0,0.000655651,-1.1409,0,0.00989446,2.55205,5,0.1,5,3.5,-4.04858,-5.40832,0.5,0.363366,0.0195913,-2.42144e-06,-0.116527,0.00199676,7.45058e-06,0.0139372,0.237479,5,0.1,6,3.5,-4.06996,-5.4,1.13647,0.00431016,-2.16067e-05,0.0465881,-0.000566244,-0.000268221,-0.00743568,0.0196852,3.99719,5,0.1,7,3.5,-2.00831,-2.50072,0.598437,0.157254,0.00615083,0.00140471,0.00215322,-0.154451,-0.0446178,0.0121851,1.32052,5,0.1,8,3.5,1.46915,2.82782,0.552672,0.0342615,0.0136752,-0.00226749,-0.138402,-0.0551492,0.00910833,0.0213729,0.00056246,5,0.1,9,3.5,-1.67325,0.00640177,0.742363,0.862816,0.120681,0.00629192,0.0289902,-0.0565986,-0.00267848,0.0491801,1.03073,5,0.1,10,3.5,0.52577,0.190837,0.595976,-0.289698,0.0107463,0.00170637,0.0701789,0.0630952,0.00477582,0.0205501,0.229356,5,0.1,11,3.5,-1.50049,1.4428,1.33068,0.000663474,-0.389118,0.026476,-0.00141561,-1.54422,-0.0564605,0.0387498,2.63792,5,0.1,12,3.5,1.20062,4.46566,1.2995,0.0010848,-0.184423,0.0724794,-0.00455976,-0.293076,-0.121512,0.0292923,1.41387,5,0.1,13,3.5,-2.34974,-3.76568,0.599459,-0.551391,0.0173014,0.000595208,-0.10024,-0.0158399,-0.000540167,0.0164501,0.506837,5,0.1,14,3.5,4.24443,0.158685,0.5,-0.355625,-0.0299214,0,-1.20807,0.0972515,0,0.0140873,1.38264,5,0.1,15,3.5,1.45623,-0.0771838,0.661832,0.333695,0.0707077,0.0199919,-0.0965074,-0.0296738,-0.0086911,0.0167933,0.0573347,5,0.1,16,3.5,-0.364612,3.80107,0.598351,0.310142,-0.0101835,0.00232765,-0.238447,0.0687242,-0.00173226,0.0527181,0.267327,5,0.1,17,3.5,0.185606,0.574104,0.664631,-0.122487,0.829806,0.124921,-0.0460222,0.559602,0.0245757,0.0310612,2.33413,5,0.1,18,3.5,-4.28055,3.82615,0.500081,-0.714532,-0.125854,0.000292808,0.374258,0.403017,-0.0012666,0.0105162,0.34847,5,0.1,19,3.5,0.897817,-0.473115,0.600706,0.000777002,0.0671539,-0.00205534,0.244964,-0.167327,0.00507012,0.0156494,2.48671,5,0.1
0,3.6,-0.172789,-0.449759,0.693603,-0.150232,0.866025,0.030534,0.033617,1.43051e-05,-0.00670552,0.0157687,2.26457,5,0.1,1,3.6,0.0480637,3.69837,0.604293,0.252391,-0.268149,-0.0040859,0.114357,0.0104904,0.00429153,0.0136444,0.769668,5,0.1,2,3.6,-2.66908,-2.53708,0.59986,0.834906,0.0194013,8.64267e-05,-0.239849,-0.0219345,-0.000596046,0.0143214,0.0881727,5,0.1,3,3.6,1.25223,-3.75966,0.602054,0.533861,0.00935197,-0.0019908,-0.405848,-0.0132322,0.00283122,0.0211868,0.204403,5,0.1,4,3.6,5.12965,-0.204806,0.5,-0.00702143,-0.72838,0,0.00190735,-0.817425,0,0.0100151,2.54927,5,0.1,5,3.6,-4.01293,-5.40638,0.5,0.34824,0.0190973,-1.49012e-06,-0.193834,-0.0116825,2.98023e-05,0.015116,0.210774,5,0.1,6,3.6,-4.06953,-5.4,1.14108,0.00422001,-3.57628e-05,0.045532,-0.00143051,0.000238419,-0.015378,0.0167386,3.99723,5,0.1,7,3.6,-1.99236,-2.50077,0.598324,0.163403,-0.00599623,-0.00387132,0.0967979,-0.0811815,-0.0571609,0.0149475,1.24361,5,0.1,8,3.6,1.47193,2.82893,0.552487,0.0218391,0.00872016,-0.00144988,-0.109971,-0.0437498,0.00727177,0.0213511,0.000337917,5,0.1,9,3.6,-1.58699,0.0181677,0.742978,0.859678,0.114365,0.00598729,-0.126839,-0.0728416,-0.00354648,0.0366573,0.743885,5,0.1,10,3.6,0.49722,0.19217,0.596167,-0.280383,0.0153854,0.00209659,0.124469,0.0306964,0.00301003,0.02022,0.207399,5,0.1,11,3.6,-1.50043,1.39631,1.33306,0.000536442,-0.53755,0.0213832,-0.00113249,-1.35475,-0.0460148,0.0353869,0.475526,5,0.1,12,3.6,1.20071,4.44593,1.30617,0.000664592,-0.208974,0.0610352,-0.00369549,-0.21863,-0.108421,0.0275985,1.60306,5,0.1,13,3.6,-2.40527,-3.76403,0.599516,-0.557542,0.015676,0.000539422,0.0038147,-0.0168085,-0.000536442,0.00783459,0.370586,5,0.1,14,3.6,4.20309,0.156143,0.5,-0.4673,-0.0212554,0,-0.978947,0.0765622,0,0.0102454,1.69363,5,0.1,15,3.6,1.48907,-0.0702633,0.663788,0.322208,0.0676105,0.0190899,-0.145257,-0.0350922,-0.0101328,0.0123833,0.0256838,5,0.1,16,3.6,-0.334834,3.80036,0.598574,0.284848,-0.00448823,0.00214279,-0.272453,0.0454187,-0.00196695,0.0464785,0.426199,5,0.1,17,3.6,0.173112,0.659053,0.677147,-0.1273,0.861369,0.124387,-0.0407249,0.0931025,-0.036031,0.0292014,2.26026,5,0.1,18,3.6,-4.35002,3.81551,0.500103,-0.673354,-0.0878632,0.000141561,0.466585,0.351548,-0.00166893,0.0110245,0.248539,5,0.1,19,3.6,0.9,-0.467192,0.600525,0.0515819,0.0517331,-0.00158697,0.753433,-0.141561,0.00432134,0.0152664,3.2358,5,0.1
0,3.7,-0.187702,-0.363161,0.696634,-0.148405,0.865809,0.0301744,0.0115866,-0.00864819,-0.0022538,0.0157687,2.26457,5,0.1,1,3.7,0.0737259,3.67157,0.603905,0.259936,-0.267649,-0.00370126,0.0569282,0.0117272,0.00353158,0.0136444,0.769668,5,0.1,2,3.7,-2.58725,-2.53528,0.599866,0.797187,0.016465,4.00469e-05,-0.511527,-0.0352561,-0.000350177,0.0143214,0.0881727,5,0.1,3,3.7,1.30383,-3.75879,0.601868,0.499809,0.00819825,-0.00174409,-0.299178,-0.0101775,0.00217929,0.0211868,0.204403,5,0.1,4,3.7,5.12895,-0.280476,0.5,-0.00691041,-0.773395,0,0.000745058,-0.119361,0,0.0100151,2.54927,5,0.1,5,3.7,-3.97908,-5.40457,0.5,0.328372,0.01681,5.58794e-07,-0.211,-0.0316501,7.45058e-06,0.015116,0.210774,5,0.1,6,3.7,-4.06912,-5.40001,1.14557,0.00412464,-1.56462e-05,0.0444902,-0.000715256,0.000149012,-0.00799447,0.0167386,3.99723,5,0.1,7,3.7,-1.9753,-2.50177,0.597624,0.179312,-0.0133038,-0.0103092,0.197515,-0.0356138,-0.0679865,0.0149475,1.24361,5,0.1,8,3.7,1.4736,2.8296,0.552376,0.0120429,0.00482127,-0.000801962,-0.0859275,-0.0342131,0.00568107,0.0213511,0.000337917,5,0.1,9,3.7,-1.50149,0.0292624,0.74356,0.851047,0.107655,0.00566039,-0.086993,-0.0651221,-0.00318885,0.0366573,0.743885,5,0.1,10,3.7,0.469764,0.193795,0.596391,-0.268893,0.0165079,0.00235662,0.11529,-0.0050962,0.00210106,0.02022,0.207399,5,0.1,11,3.7,-1.50038,1.33657,1.33499,0.000437535,-0.648966,0.0173561,-0.000871718,-0.860691,-0.0352263,0.0353869,0.475526,5,0.1,12,3.7,1.20076,4.42418,1.31176,0.000324659,-0.226322,0.0512064,-0.00307709,-0.222027,-0.0894815,0.0275985,1.60306,5,0.1,13,3.7,-2.46112,-3.76254,0.599567,-0.559885,0.0140999,0.000488479,-0.0211895,-0.0150651,-0.000495464,0.00783459,0.370586,5,0.1,14,3.7,4.15114,0.15437,0.5,-0.573157,-0.0145149,0,-1.06925,0.0587124,0,0.0102454,1.69363,5,0.1,15,3.7,1.52056,-0.0636717,0.665648,0.307406,0.0642279,0.018115,-0.159636,-0.0346864,-0.00996143,0.0123833,0.0256838,5,0.1,16,3.7,-0.307739,3.80018,0.598779,0.256733,0.00113063,0.00193864,-0.291159,0.0579208,-0.00212342,0.0464785,0.426199,5,0.1,17,3.7,0.160094,0.745475,0.689295,-0.133607,0.865734,0.11755,-0.0737552,0.0116453,-0.0976212,0.0292014,2.26026,5,0.1,18,3.7,-4.41515,3.80838,0.50011,-0.630106,-0.0558536,-6.23986e-06,0.419319,0.281915,-0.00127777,0.0110245,0.248539,5,0.1,19,3.7,0.910388,-0.462687,0.600386,0.167808,0.0387587,-0.00119042,1.45378,-0.118176,0.00361353,0.0152664,3.2358,5,0.1
0,3.8,-0.202463,-0.276692,0.699636,-0.146433,0.862567,0.0297815,0.0340194,-0.0691712,-0.00685453,0.0147808,2.54825,5,0.1,1,3.8,0.1,3.64495,0.603552,0.26548,-0.263757,-0.00335574,0.0505787,0.074625,0.00345707,0.0161195,0.681505,5,0.1,2,3.8,-2.51051,-2.53382,0.599868,0.733447,0.0126302,1.49012e-05,-0.757694,-0.0402927,-0.000149012,0.0135736,0.681032,5,0.1,3,3.8,1.35233,-3.75801,0.601704,0.469911,0.00725389,-0.00154376,-0.316024,-0.0089407,0.00193715,0.00976395,0.267839,5,0.1,4,3.8,5.12827,-0.357505,0.5,-0.00680685,-0.758878,0,0.00190735,0.379934,0,0.00810471,2.73453,5,0.1,5,3.8,-3.94738,-5.40306,0.5,0.304824,0.0131845,1.49012e-06,-0.264645,-0.0388622,-2.98023e-05,0.0147995,0.416678,5,0.1,6,3.8,-4.06871,-5.40001,1.14998,0.00404119,0,0.0434995,-0.00119209,0.000238419,-0.0135303,0.0187817,3.99744,5,0.1,7,3.8,-1.95638,-2.50304,0.59626,0.198758,-0.00911355,-0.0168413,0.173807,0.129938,-0.0599921,0.00947691,1.12809,5,0.1,8,3.8,1.47442,2.82992,0.552322,0.00464022,0.00187159,-0.000311434,-0.0622869,-0.0247955,0.00411272,0.0106375,0.000154343,5,0.1,9,3.8,-1.41703,0.03969,0.744109,0.835305,0.100708,0.00531524,-0.25636,-0.0764,-0.0038445,0.0293613,0.521176,5,0.1,10,3.8,0.443502,0.195382,0.596635,-0.255653,0.0149284,0.00250041,0.156283,-0.0240132,0.000745058,0.0094691,0.331903,5,0.1,11,3.8,-1.50034,1.26827,1.33656,0.000360608,-0.707936,0.0142127,-0.000715256,-0.314116,-0.0281334,0.0207841,0.163739,5,0.1,12,3.8,1.20078,4.4,1.31646,5.36442e-05,-0.261641,0.0429034,-0.00232458,-0.473499,-0.0776052,0.0186287,1.36021,5,0.1,13,3.8,-2.51706,-3.7612,0.599614,-0.556785,0.0126064,0.000438094,0.103474,-0.0151396,-0.000476837,0.0100099,0.261982,5,0.1,14,3.8,4.0888,0.153185,0.5,-0.669301,-0.00942238,0,-0.804663,0.043571,0,0.00791849,1.28212,5,0.1,15,3.8,1.55042,-0.0574357,0.667406,0.288838,0.060321,0.0169978,-0.217497,-0.0448469,-0.0127852,0.010434,0.0150886,5,0.1,16,3.8,-0.28356,3.80055,0.598962,0.226448,0.0056684,0.00171661,-0.314921,0.0274181,-0.00229478,0.0323778,3.85216,5,0.1,17,3.8,0.146388,0.832072,0.700482,-0.140045,0.866026,0.10546,-0.0466108,0,-0.141233,0.0184651,2.25648,5,0.1,18,3.8,-4.47601,3.80405,0.500104,-0.585961,-0.0323832,-0.000113249,0.478268,0.185251,-0.00089407,0.00716617,0.254225,5,0.1,19,3.8,0.934798,-0.459365,0.600284,0.321674,0.0280447,-0.000862777,1.53422,-0.0963509,0.00295043,0.0102327,2.73735,5,0.1
0,3.9,-0.216993,-0.191851,0.702591,-0.144504,0.824803,0.0293949,0.01291,-0.638008,-0.00257418,0.0147808,2.54825,5,0.1,1,3.9,0.126483,3.61892,0.603232,0.261739,-0.256826,-0.0030457,-0.0973572,0.0738949,0.00284985,0.0161195,0.681505,5,0.1,2,3.9,-2.44064,-2.53282,0.599873,0.666661,0.00669286,0.000109989,-0.60454,-0.0734329,0.00180677,0.0135736,0.681032,5,0.1,3,3.9,1.39806,-3.75733,0.601559,0.44713,0.00647902,-0.00137612,-0.16886,-0.00685453,0.00148267,0.00976395,0.267839,5,0.1,4,3.9,5.12759,-0.430407,0.5,-0.00669733,-0.691001,0,0.000685453,0.874575,0,0.00810471,2.73453,5,0.1,5,3.9,-3.91821,-5.40204,0.5,0.278424,0.006596,-2.79397e-07,-0.267893,-0.0792444,-1.11759e-05,0.0147995,0.416678,5,0.1,6,3.9,-4.06831,-5.40001,1.15428,0.00396371,1.49012e-05,0.0425998,-0.000596046,0.000119209,-0.00686944,0.0187817,3.99744,5,0.1,7,3.9,-1.93555,-2.50311,0.594272,0.218134,0.0106871,-0.022885,0.195287,0.312597,-0.0581369,0.00947691,1.12809,5,0.1,8,3.9,1.4746,2.83,0.552309,-0.000648014,-0.000234693,3.79048e-05,-0.0437126,-0.0174344,0.0028871,0.0106375,0.000154343,5,0.1,9,3.9,-1.33465,0.0494014,0.744623,0.81251,0.0936648,0.00496022,-0.232868,-0.0675733,-0.00341982,0.0293613,0.521176,5,0.1,10,3.9,0.418674,0.196675,0.596888,-0.241131,0.0103722,0.00255154,0.142368,-0.0574999,0.000204891,0.0094691,0.331903,5,0.1,11,3.9,-1.50031,1.19648,1.33786,0.000299141,-0.722096,0.0117932,-0.000536442,0.0326037,-0.0208169,0.0207841,0.163739,5,0.1,12,3.9,1.20077,4.37074,1.32039,-0.000154041,-0.329108,0.035966,-0.00181049,-0.804871,-0.0622794,0.0186287,1.36021,5,0.1,13,3.9,-2.5723,-3.76002,0.599655,-0.54802,0.0112094,0.000393484,0.0955015,-0.013113,-0.000428408,0.0100099,0.261982,5,0.1,14,3.9,4.01781,0.15244,0.5,-0.749435,-0.00569164,0,-0.744537,0.0314284,0,0.00791849,1.28212,5,0.1,15,3.9,1.57823,-0.0516221,0.669043,0.267288,0.0559649,0.0157578,-0.220381,-0.0439412,-0.0124797,0.010434,0.0150886,5,0.1,16,3.9,-0.262454,3.80161,0.599122,0.19597,0.0171546,0.00149366,-0.296319,0.121936,-0.00218302,0.0323778,3.85216,5,0.1,17,3.9,0.13209,0.918675,0.710303,-0.146242,0.866026,0.0908001,-0.0664959,0,-0.150677,0.0184651,2.25648,5,0.1,18,3.9,-4.53235,3.80163,0.500089,-0.541806,-0.0177961,-0.000175927,0.422359,0.0836402,-0.000383705,0.00716617,0.254225,5,0.1,19,3.9,0.975133,-0.457007,0.600212,0.487652,0.0194474,-0.000599399,1.69442,-0.075981,0.00233203,0.0102327,2.73735,5,0.1
0,4,-0.231357,-0.113177,0.705514,-0.142422,0.743461,0.0289753,0.0346676,-0.95197,-0.00703335,0.0104227,2.62484,5,0.1,1,4,0.152098,3.59367,0.602942,0.250218,-0.247312,-0.00276715,-0.119016,0.123024,0.00283122,0.00789626,0.593055,5,0.1,2,4,-2.37692,-2.53254,0.599895,0.607985,-0.00118017,0.000333786,-0.588179,-0.0798702,0.0025034,0.00844803,0.106647,5,0.1,3,4,1.44197,-3.75671,0.601428,0.431076,0.00583529,-0.00123829,-0.173569,-0.00619888,0.0013411,0.00811076,0.197886,5,0.1,4,4,5.12693,-0.494969,0.5,-0.00660419,-0.600138,0,0.00166893,0.883937,0,0.00995807,2.87755,5,0.1,5,4,-3.89175,-5.40175,0.5,0.250518,-0.000452995,-1.49012e-06,-0.293136,-0.0536442,2.98023e-05,0.0129296,3.65694,5,0.1,6,4,-4.06791,-5.4,1.1585,0.00388622,2.38419e-05,0.0417143,-0.00119209,-0.000238419,-0.0125766,0.0147054,3.99766,5,0.1,7,4,-1.91285,-2.5,0.591715,0.234666,0.0560939,-0.0280008,0.122368,0.576019,-0.0423193,0.00720243,0.958204,5,0.1,8,4,1.47435,2.8299,0.552325,-0.00415742,-0.00163913,0.000269711,-0.0268221,-0.0106096,0.00178814,0.00869857,5.33594e-05,5,0.1,9,4,-1.25475,0.0584238,0.745101,0.783122,0.0866666,0.00460297,-0.377595,-0.0745395,-0.0038147,0.0264812,0.357305,5,0.1,10,4,0.395305,0.197432,0.597143,-0.225797,0.0049945,0.00252724,0.169918,-0.0440106,-0.000715256,0.00860654,0.717996,5,0.1,11,4,-1.50028,1.12501,1.33894,0.00025332,-0.701502,0.00994503,-0.000417233,0.376701,-0.0165105,0.0204497,0.410526,5,0.1,12,4,1.20075,4.33374,1.32369,-0.000306964,-0.410223,0.0302464,-0.00119209,-0.763893,-0.0529885,0.0173521,0.595194,5,0.1,13,4,-2.62648,-3.75896,0.599693,-0.533694,0.00993609,0.000351667,0.207067,-0.0126362,-0.000447035,0.00839027,0.180461,5,0.1,14,4,3.9396,0.15201,0.5,-0.809193,-0.00306256,0,-0.413537,0.0215098,0,0.00897255,0.235982,5,0.1,15,4,1.60381,-0.0462546,0.670554,0.24367,0.0512647,0.0144243,-0.255883,-0.0510812,-0.0144243,0.00839623,0.00468509,5,0.1,16,4,-0.244319,3.8036,0.599261,0.166919,0.0183165,0.00128001,-0.285685,-0.135899,-0.00214577,0.0331197,3.55602,5,0.1,17,4,0.117174,1.00528,0.718623,-0.151492,0.866026,0.0755683,-0.0308117,0,-0.152737,0.0166897,2.25529,5,0.1,18,4,-4.58439,3.8,0.50007,-0.498545,-0.0173688,-0.000193715,0.455379,-0.0696182,-2.98023e-05,0.00869447,0.193891,5,0.1,19,4,1.03202,-0.455411,0.600163,0.644881,0.012771,-0.000393391,1.3842,-0.0579357,0.00175834,0.00834905,2.41284,5,0.1
0,4.1,-0.24547,-0.0442504,0.708385,-0.14008,0.630886,0.0285008,0.019554,-1.20707,-0.00396743,0.0104227,2.62484,5,0.1,1,4.1,0.176435,3.56953,0.602678,0.237127,-0.235764,-0.00251355,-0.0889394,0.11608,0.00233576,0.00789626,0.593055,5,0.1,2,4.1,-2.31892,-2.53302,0.599938,0.552859,-0.00791885,0.000519305,-0.529259,-0.0550598,0.0012517,0.00844803,0.106647,5,0.1,3,4.1,1.48439,-3.75616,0.60131,0.418488,0.00529774,-0.00112215,-0.101388,-0.00478327,0.00102445,0.00811076,0.197886,5,0.1,4,4.1,5.12627,-0.550603,0.5,-0.00651479,-0.516658,0,0.000536442,0.652887,0,0.00995807,2.87755,5,0.1,5,4.1,-3.86743,-5.40235,0.5,0.241847,-0.0125259,9.31323e-07,0.0727177,-0.11754,1.49012e-05,0.0129296,3.65694,5,0.1,6,4.1,-4.06753,-5.4,1.16262,0.00380799,7.45058e-06,0.0408795,-0.000625849,-5.96046e-05,-0.0064224,0.0147054,3.99766,5,0.1,7,4.1,-1.88875,-2.49091,0.588707,0.247176,0.130229,-0.0320439,0.113361,0.849038,-0.0364222,0.00720243,0.958204,5,0.1,8,4.1,1.47382,2.82969,0.55236,-0.00619832,-0.00244714,0.000406057,-0.0143722,-0.00570714,0.000961125,0.00869857,5.33594e-05,5,0.1,9,4.1,-1.17821,0.0667214,0.745543,0.748231,0.0792846,0.00425149,-0.347495,-0.0745158,-0.00335276,0.0264812,0.357305,5,0.1,10,4.1,0.373527,0.197609,0.597392,-0.210055,-0.0016486,0.0024477,0.151765,-0.0580801,-0.000946224,0.00860654,0.717996,5,0.1,11,4.1,-1.50026,1.05649,1.33986,0.000218116,-0.670776,0.0085501,-0.000305474,0.270709,-0.011839,0.0204497,0.410526,5,0.1,12,4.1,1.20071,4.28898,1.32647,-0.000409409,-0.483281,0.02557,-0.000834465,-0.662774,-0.0414997,0.0173521,0.595194,5,0.1,13,4.1,-2.67888,-3.75802,0.599726,-0.51454,0.00878386,0.000310689,0.19531,-0.0106841,-0.00037998,0.00839027,0.180461,5,0.1,14,4.1,3.85728,0.151798,0.5,-0.83042,-0.00130183,0,-0.00825524,0.014008,0,0.00897255,0.235982,5,0.1,15,4.1,1.62689,-0.0413845,0.671924,0.217805,0.0461136,0.0129706,-0.263467,-0.0525094,-0.014808,0.00839623,0.00468509,5,0.1,16,4.1,-0.228731,3.80438,0.599378,0.147608,-0.00905879,0.0010632,-0.118957,-0.502661,-0.00216812,0.0331197,3.55602,5,0.1,17,4.1,0.101818,1.09188,0.725439,-0.155879,0.866026,0.0609739,-0.0466346,0,-0.138924,0.0166897,2.25529,5,0.1,18,4.1,-4.63211,3.79763,0.500051,-0.456716,-0.0324644,-0.000183564,0.395775,-0.211239,0.000212342,0.00869447,0.193891,5,0.1,19,4.1,1.10289,-0.454396,0.600131,0.766278,0.00779945,-0.00024233,1.00745,-0.0419952,0.0012815,0.00834905,2.41284,5,0.1
0,4.2,-0.259356,0.0129614,0.71121,-0.137251,0.51629,0.0279263,0.042215,-1.0349,-0.00858307,0.00886557,2.39148,5,0.1,1,4.2,0.2,3.54657,0.602438,0.237124,-0.222725,-0.00228435,0.0819489,0.150084,0.00229478,0.0108184,0.505024,5,0.1,2,4.2,-2.26629,-2.53405,0.599995,0.499618,-0.0122368,0.000594556,-0.545621,-0.0315905,0.000298023,0.00821777,0.472211,5,0.1,3,4.2,1.5257,-3.75565,0.601203,0.406826,0.0048399,-0.00102371,-0.148416,-0.00464916,0.000983477,0.00816348,2.88782,5,0.1,4,4.2,5.12562,-0.6,0.5,-0.0064373,-0.481188,0,0.00143051,0.0729561,0,0.00853177,2.76067,5,0.1,5,4.2,-3.8426,-5.40387,0.5,0.256753,-0.0137687,2.98023e-06,0.189185,0.124931,-2.98023e-05,0.0163962,3.40068,5,0.1,6,4.2,-4.06715,-5.4,1.16667,0.00373125,0,0.0400394,-0.00119209,0,-0.0119805,0.0151982,3.99786,5,0.1,7,4.2,-1.86358,-2.47358,0.585345,0.254899,0.215799,-0.0349283,0.0312328,0.819087,-0.0198185,0.0073836,0.762252,5,0.1,8,4.2,1.47315,2.82943,0.552404,-0.00710487,-0.00280738,0.000467896,-0.00417233,-0.00166893,0.000238419,0.00979875,1.62374e-05,5,0.1,9,4.2,-1.10525,0.0742681,0.745952,0.709039,0.0715332,0.00390857,-0.454903,-0.0813939,-0.00357628,0.0259776,0.422012,5,0.1,10,4.2,0.353296,0.197316,0.597631,-0.194292,-0.00220165,0.00232756,0.168175,0.060454,-0.00149012,0.0101681,1.21075,5,0.1,11,4.2,-1.50024,0.990806,1.34066,0.000193715,-0.641735,0.00749528,-0.000298023,0.333428,-0.00953674,0.0198841,2.26964,5,0.1,12,4.2,1.20067,4.23773,1.32883,-0.000473857,-0.53699,0.0217795,-0.000476837,-0.387669,-0.0349879,0.018303,0.27395,5,0.1,13,4.2,-2.72925,-3.7572,0.599755,-0.491393,0.00775456,0.000272691,0.280857,-0.00989437,-0.000327826,0.00916215,0.140869,5,0.1,14,4.2,3.77488,0.151728,0.5,-0.810796,-0.000203773,0,0.398159,0.00823289,0,0.00949137,1.2156,5,0.1,15,4.2,1.64733,-0.0370416,0.673146,0.190687,0.0406788,0.0114396,-0.279725,-0.0564586,-0.0159144,0.00930043,0.0014433,5,0.1,16,4.2,-0.214414,3.8,0.599473,0.139865,-0.0876784,0.000849366,-0.0501126,-1.03354,-0.00205636,0.0313571,3.09802,5,0.1,17,4.2,0.08604,1.17848,0.730866,-0.159064,0.866026,0.0478208,-0.00980139,0,-0.123918,0.0209471,2.25474,5,0.1,18,4.2,-4.6758,3.79323,0.500034,-0.416911,-0.0558972,-0.000154972,0.410795,-0.24128,0.000357628,0.00844,0.24276,5,0.1,19,4.2,1.18372,-0.453803,0.600113,0.841486,0.00427589,-0.00013411,0.484109,-0.0289381,0.000864267,0.0109745,0.470801,5,0.1
0,4.3,-0.272897,0.0597542,0.713966,-0.133709,0.425784,0.0272061,0.0345744,-0.674232,-0.00702962,0.00886557,2.39148,5,0.1,1,4.3,0.22412,3.52501,0.60222,0.245228,-0.208709,-0.00207843,0.079303,0.137001,0.00189617,0.0108184,0.505024,5,0.1,2,4.3,-2.21843,-2.53525,0.600055,0.462531,-0.0102211,0.000592694,-0.238448,0.0619441,-0.000298023,0.00821777,0.472211,5,0.1,3,4.3,1.56723,-3.75508,0.601025,0.436885,0.00751764,-0.00320654,0.637442,0.0511408,-0.0395551,0.00816348,2.88782,5,0.1,4,4.3,5.12498,-0.649187,0.5,-0.00636578,-0.51412,0,0.000357628,-0.624228,0,0.00853177,2.76067,5,0.1,5,4.3,-3.81564,-5.40429,0.5,0.284816,0.0110842,5.58794e-07,0.334829,0.458211,-1.49012e-05,0.0163962,3.40068,5,0.1,6,4.3,-4.06678,-5.4,1.17063,0.00365153,0,0.0392405,-0.000566244,0,-0.00619143,0.0151982,3.99786,5,0.1,7,4.3,-1.83793,-2.44775,0.581758,0.257925,0.301402,-0.0367193,0.0177324,0.849262,-0.0143051,0.0073836,0.762252,5,0.1,8,4.3,1.47243,2.82914,0.552451,-0.00715237,-0.00282861,0.000468269,0.00282377,0.00108778,-0.000201166,0.00979875,1.62374e-05,5,0.1,9,4.3,-1.0365,0.0809709,0.746796,0.666819,0.0621472,0.0169156,-0.412036,-0.103954,0.233971,0.0259776,0.422012,5,0.1,10,4.3,0.334659,0.197479,0.597856,-0.178791,0.00828393,0.00218125,0.147561,0.221681,-0.00149384,0.0101681,1.21075,5,0.1,11,4.3,-1.50022,0.927028,1.34137,0.000169128,-0.644106,0.00670236,-0.000193715,-0.28513,-0.00669807,0.0198841,2.26964,5,0.1,12,4.3,1.20062,4.18235,1.33085,-0.00051111,-0.567785,0.0187263,-0.00025332,-0.210762,-0.0268519,0.018303,0.27395,5,0.1,13,4.3,-2.77706,-3.75663,0.599781,-0.46521,0.00241324,0.00024261,0.258714,-0.0872612,-0.000286847,0.00916215,0.140869,5,0.1,14,4.3,3.6951,0.151741,0.5,-0.790001,0.000400259,0,0.0814199,0.00407826,0,0.00949137,1.2156,5,0.1,15,4.3,1.66501,-0.033255,0.67421,0.162933,0.0350615,0.00985721,-0.275105,-0.0559091,-0.0157468,0.00930043,0.0014433,5,0.1,16,4.3,-0.200495,3.78489,0.599548,0.139957,-0.223505,0.000656117,0.0363085,-1.57383,-0.00179932,0.0313571,3.09802,5,0.1,17,4.3,0.0700327,1.26508,0.735063,-0.161347,0.866026,0.0364545,-0.0259242,0,-0.103708,0.0209471,2.25474,5,0.1,18,4.3,-4.71557,3.78618,0.50002,-0.37937,-0.0870679,-0.000116602,0.352204,-0.356361,0.000394881,0.00844,0.24276,5,0.1,19,4.3,1.26934,-0.453501,0.600103,0.863515,0.00193296,-6.37025e-05,0.027284,-0.0183955,0.000558794,0.0109745,0.470801,5,0.1
0,4.4,-0.286068,0.1,0.716645,-0.129331,0.389256,0.0263155,0.0571012,-0.0791663,-0.0116229,0.0096631,2.0332,5,0.1,1,4.4,0.249019,3.50485,0.602022,0.25247,-0.194186,-0.00189245,0.061236,0.158072,0.00187755,0.00859125,0.430197,5,0.1,2,4.4,-2.17315,-2.53587,0.600112,0.444502,-0.00163317,0.000540912,-0.154257,0.101924,-0.000685453,0.00913318,0.693976,5,0.1,3,4.4,1.61464,-3.75403,0.600474,0.514519,0.0138223,-0.00803322,0.829458,0.0693798,-0.0530183,0.00966979,2.57053,5,0.1,4,4.4,5.12435,-0.704143,0.5,-0.00629425,-0.587147,0,0.00143051,-0.754714,0,0.010207,2.5066,5,0.1,5,4.4,-3.7855,-5.4,0.5,0.317258,0.0831604,-1.49012e-06,0.286341,0.950336,2.98023e-05,0.0123611,2.99925,5,0.1,6,4.4,-4.06642,-5.4,1.17452,0.00356436,1.19209e-05,0.0384271,-0.000715256,-0.000238419,-0.0116229,0.0146815,3.99575,5,0.1,7,4.4,-1.81214,-2.41361,0.578035,0.256512,0.378162,-0.0375107,-0.0537634,0.654459,-0.00038743,0.0077959,0.574223,5,0.1,8,4.4,1.47174,2.82887,0.552497,-0.00661314,-0.00261664,0.000430644,0.00756979,0.00298023,-0.000476837,0.0112657,8.59564e-06,5,0.1,9,4.4,-0.971954,0.086645,0.749847,0.622836,0.0511779,0.0454158,-0.482976,-0.113446,0.312835,0.0274279,0.310839,5,0.1,10,4.4,0.317521,0.2,0.598067,-0.163813,0.0478096,0.00201911,0.155911,0.553168,-0.00178814,0.0104666,2.20427,5,0.1,11,4.4,-1.50021,0.860818,1.34201,0.000149012,-0.681956,0.00609457,-0.000119209,-0.39953,-0.00578165,0.0199697,0.194366,5,0.1,12,4.4,1.20056,4.12492,1.3326,-0.000521541,-0.576365,0.0162721,0,0.0493526,-0.0228286,0.0190013,0.455735,5,0.1,13,4.4,-2.82222,-3.75688,0.599803,-0.43698,-0.0079751,0.000216067,0.316978,-0.11313,-0.000298023,0.00947507,0.168127,5,0.1,14,4.4,3.61642,0.151796,0.5,-0.783467,0.000654534,0,0.0960827,0.00120699,0,0.00727829,0.476728,5,0.1,15,4.4,1.67993,-0.0300274,0.675117,0.135744,0.0295011,0.0082925,-0.268221,-0.0552339,-0.0155568,0.010867,0.000866065,5,0.1,16,4.4,-0.186281,3.75452,0.599606,0.1444,-0.383306,0.000488758,0.0408962,-1.53983,-0.00154972,0.0301766,2.64307,5,0.1,17,4.4,0.0538084,1.35169,0.738221,-0.162557,0.866026,0.0270173,0.00870585,0,-0.085324,0.0169754,2.25472,5,0.1,18,4.4,-4.75176,3.77568,0.50001,-0.344384,-0.122666,-7.89762e-05,0.356197,-0.33617,0.00038743,0.00645562,0.308502,5,0.1,19,4.4,1.35536,-0.453386,0.600099,0.851735,0.00050962,-2.08616e-05,-0.285923,-0.0105202,0.000327826,0.011692,0.16418,5,0.1
0,4.5,-0.298738,0.139789,0.719223,-0.124167,0.416751,0.0252643,0.0510104,0.536477,-0.0103824,0.0096631,2.0332,5,0.1,1,4.5,0.274392,3.48618,0.601841,0.254289,-0.179529,-0.00172406,0.0146506,0.140741,0.00155717,0.00859125,0.430197,5,0.1,2,4.5,-2.129,-2.53534,0.600162,0.442194,0.0138439,0.000460725,0.0651479,0.192851,-0.000897795,0.00913318,0.693976,5,0.1,3,4.5,1.67097,-3.75237,0.599456,0.616895,0.0187907,-0.0118659,1.12642,0.0315458,-0.0248514,0.00966979,2.57053,5,0.1,4,4.5,5.12372,-0.766898,0.5,-0.00621974,-0.669003,0,0.000417233,-0.819523,0,0.010207,2.5066,5,0.1,5,4.5,-3.75226,-5.3858,0.5,0.347681,0.209441,3.72529e-07,0.29552,1.47173,1.49012e-05,0.0123611,2.99925,5,0.1,6,4.5,-4.06607,-5.40006,1.17835,0.00352114,-0.00170544,0.0383599,-0.000357628,-0.0281036,0.00657886,0.0146815,3.99575,5,0.1,7,4.5,-1.78675,-2.37254,0.574284,0.25127,0.442107,-0.0374483,-0.0604764,0.590727,0.00300258,0.0077959,0.574223,5,0.1,8,4.5,1.47112,2.82862,0.552537,-0.00569597,-0.00225604,0.00037225,0.0104308,0.00408292,-0.000666827,0.0112657,8.59564e-06,5,0.1,9,4.5,-0.911949,0.0911928,0.756128,0.578152,0.0397923,0.0813782,-0.429463,-0.112581,0.384018,0.0274279,0.310839,5,0.1,10,4.5,0.301872,0.207515,0.59826,-0.14952,0.101946,0.00184933,0.134734,0.521122,-0.0016503,0.0104666,2.20427,5,0.1,11,4.5,-1.50019,0.791178,1.34259,0.000139326,-0.705197,0.00561625,-8.9407e-05,-0.0607483,-0.00406802,0.0199697,0.194366,5,0.1,12,4.5,1.20051,4.06733,1.33412,-0.000515953,-0.576702,0.0142982,0.000119209,-0.0216067,-0.0172779,0.0190013,0.455735,5,0.1,13,4.5,-2.86465,-3.75841,0.599824,-0.414181,-0.0237551,0.000192039,0.167266,-0.188455,-0.000193715,0.00947507,0.168127,5,0.1,14,4.5,3.53852,0.151864,0.5,-0.773979,0.000668061,0,0.123948,-0.000764616,0,0.00727829,0.476728,5,0.1,15,4.5,1.6922,-0.0273484,0.67587,0.109786,0.024134,0.00678161,-0.249937,-0.0519305,-0.0146143,0.010867,0.000866065,5,0.1,16,4.5,-0.171572,3.70811,0.599647,0.150135,-0.546442,0.000349712,0.0627367,-1.63677,-0.00123307,0.0301766,2.64307,5,0.1,17,4.5,0.037542,1.43829,0.740528,-0.163064,0.866026,0.0194313,-0.00919573,0,-0.0668913,0.0169754,2.25472,5,0.1,18,4.5,-4.78453,3.76159,0.500004,-0.311986,-0.159956,-4.4331e-05,0.302017,-0.38752,0.000305474,0.00645562,0.308502,5,0.1,19,4.5,1.43883,-0.453377,0.600098,0.81488,-0.000237999,2.70084e-06,-0.459574,-0.00479259,0.000160187,0.011692,0.16418,5,0.1
0,4.6,-0.310878,0.184536,0.721693,-0.118314,0.480249,0.0240743,0.0693649,0.663042,-0.0141561,0.0106178,1.62123,5,0.1,1,4.6,0.3,3.46894,0.601676,0.258922,-0.165087,-0.00157058,0.0737309,0.152111,0.00154972,0.00823716,0.370241,5,0.1,2,4.6,-2.08438,-2.53294,0.600203,0.450063,0.0343323,0.000366569,0.0604391,0.205517,-0.000983477,0.00859517,0.560366,5,0.1,3,4.6,1.73816,-3.75038,0.598183,0.723928,0.0204265,-0.0132367,0.947118,0.00274181,-0.00360608,0.00926877,2.35077,5,0.1,4,4.6,5.12311,-0.83758,0.5,-0.00613928,-0.740291,0,0.00119209,-0.561506,0,0.00989334,2.65118,5,0.1,5,4.6,-3.71617,-5.35734,0.5,0.371838,0.359344,0,0.169039,1.44792,2.98023e-05,0.0130733,2.58165,5,0.1,6,4.6,-4.06572,-5.40038,1.18222,0.00346899,-0.0046134,0.0390977,-0.000953674,-0.0255108,0.00548363,0.0131944,3.96112,5,0.1,7,4.6,-1.762,-2.32571,0.570569,0.242847,0.49063,-0.0366837,-0.114202,0.356436,0.0132322,0.00783914,0.41008,5,0.1,8,4.6,1.4706,2.82842,0.552571,-0.00458658,-0.00181794,0.000301003,0.0115037,0.00452995,-0.000745058,0.00886683,7.97468e-06,5,0.1,9,4.6,-0.856317,0.0946221,0.766151,0.533777,0.0289563,0.118329,-0.470966,-0.102881,0.338405,0.0244403,0.381933,5,0.1,10,4.6,0.287591,0.2202,0.598436,-0.136055,0.150408,0.00168085,0.13788,0.440292,-0.00175834,0.0121214,3.40122,5,0.1,11,4.6,-1.50018,0.72094,1.34313,0.00013411,-0.693692,0.00522733,-0.000178814,0.290424,-0.0038147,0.0199804,0.465115,5,0.1,12,4.6,1.20046,4.00966,1.33547,-0.000494719,-0.574815,0.0127017,0.000298023,0.0839233,-0.0150204,0.0188278,0.964387,5,0.1,13,4.6,-2.90529,-3.76175,0.599842,-0.398636,-0.0432014,0.000174344,0.16427,-0.190139,-0.000178814,0.00843157,0.105216,5,0.1,14,4.6,3.46199,0.151925,0.5,-0.753623,0.000532717,0,0.303149,-0.00181049,0,0.0105835,1.22932,5,0.1,15,4.6,1.70196,-0.0251879,0.676477,0.085929,0.0191479,0.00537932,-0.226378,-0.0476409,-0.013411,0.00901668,0.000788349,5,0.1,16,4.6,-0.156283,3.6457,0.599676,0.155052,-0.695854,0.000241399,0.0277236,-1.28973,-0.000983477,0.0339169,2.36629,5,0.1,17,4.6,0.0212248,1.52489,0.742164,-0.162752,0.866026,0.0135452,0.0222254,0,-0.0513196,0.0167972,2.25514,5,0.1,18,4.6,-4.81424,3.74372,0.500001,-0.28224,-0.196284,-1.93715e-05,0.299931,-0.322461,0.000208616,0.0083123,0.252171,5,0.1,19,4.6,1.51768,-0.453418,0.600099,0.758645,-0.00051409,1.19209e-05,-0.668526,-0.00105798,5.96046e-05,0.00748719,2.49364,5,0.1
0,4.7,-0.322384,0.236372,0.724035,-0.111924,0.559628,0.0227707,0.0624154,0.853841,-0.0127256,0.0106178,1.62123,5,0.1,1,4.7,0.326028,3.45315,0.601527,0.259708,-0.151079,-0.00143116,-0.0426192,0.132799,0.00128523,0.00823716,0.370241,5,0.1,2,4.7,-2.03886,-2.52865,0.600235,0.461746,0.0499442,0.000267569,0.139751,0.112623,-0.000979751,0.00859517,0.560366,5,0.1,3,4.7,1.8149,-3.74824,0.596778,0.806108,0.0231758,-0.015388,0.664741,0.0458062,-0.0347607,0.00926877,2.35077,5,0.1,4,4.7,5.12249,-0.913019,0.5,-0.00608414,-0.755938,0,0.000298023,0.193723,0,0.00989334,2.65118,5,0.1,5,4.7,-3.6781,-5.31379,0.500001,0.389628,0.513283,1.76951e-06,0.163645,1.54874,1.11759e-05,0.0130733,2.58165,5,0.1,6,4.7,-4.06537,-5.40116,1.18616,0.00340566,-0.0122309,0.0395533,-0.000506639,-0.0981092,0.00199676,0.0131944,3.96112,5,0.1,7,4.7,-1.73826,-2.27492,0.566965,0.231958,0.52375,-0.035366,-0.111334,0.279397,0.0142604,0.00783914,0.41008,5,0.1,8,4.7,1.4702,2.82826,0.552597,-0.0034146,-0.00135638,0.000225101,0.0116825,0.00460446,-0.000763685,0.00886683,7.97468e-06,5,0.1,9,4.7,-0.804843,0.0969369,0.779395,0.499314,0.0168331,0.143804,-0.253744,-0.133412,0.173785,0.0244403,0.381933,5,0.1,10,4.7,0.274665,0.236807,0.598596,-0.122498,0.177242,0.00150586,0.135068,0.166717,-0.00175461,0.0121214,3.40122,5,0.1,11,4.7,-1.50017,0.652767,1.34364,0.000119582,-0.671438,0.00490751,-0.000119209,0.189677,-0.00280887,0.0199804,0.465115,5,0.1,12,4.7,1.20041,3.95202,1.33667,-0.000463799,-0.582423,0.0114087,0.000327826,-0.178948,-0.0113547,0.0188278,0.964387,5,0.1,13,4.7,-2.94445,-3.76687,0.599859,-0.385246,-0.057682,0.000159629,0.122011,-0.101492,-0.00012666,0.00843157,0.105216,5,0.1,14,4.7,3.38745,0.151968,0.5,-0.742356,0.000310736,0,-0.013411,-0.0025034,0,0.0105835,1.22932,5,0.1,15,4.7,1.70947,-0.0235031,0.676951,0.0645807,0.0146342,0.00410946,-0.199713,-0.0424483,-0.0119321,0.00901668,0.000788349,5,0.1,16,4.7,-0.140586,3.57047,0.599646,0.159166,-0.800296,-0.00126231,0.0441368,-0.78547,-0.0259504,0.0339169,2.36629,5,0.1,17,4.7,0.00500432,1.6115,0.743286,-0.161982,0.866026,0.00912892,0.00256643,0,-0.0375174,0.0167972,2.25514,5,0.1,18,4.7,-4.84107,3.72273,0.5,-0.255069,-0.221106,-4.56348e-06,0.252008,-0.173464,9.31323e-05,0.0083123,0.252171,5,0.1,19,4.7,1.59166,-0.45347,0.6001,0.73293,-0.000490155,1.35973e-05,0.0523329,0.00130385,-2.23517e-05,0.00748719,2.49364,5,0.1
0,4.8,-0.333249,0.296442,0.726245,-0.105162,0.63881,0.0213936,0.0755489,0.67842,-0.0154078,0.00810947,1.24101,5,0.1,1,4.8,0.351686,3.4387,0.60139,0.252668,-0.137728,-0.00130534,-0.0908822,0.137687,0.0013113,0.00961522,0.317183,5,0.1,2,4.8,-1.99208,-2.52321,0.600257,0.472274,0.0578761,0.000174344,0.0469089,0.0504255,-0.00089407,0.00807567,0.444081,5,0.1,3,4.8,1.89819,-3.74566,0.595045,0.852886,0.0284433,-0.0193685,0.262797,0.0548363,-0.041306,0.00861061,2.27846,5,0.1,4,4.8,5.12189,-0.986766,0.5,-0.00602007,-0.711316,0,0.00143051,0.655949,0,0.00825748,2.87483,5,0.1,5,4.8,-3.63848,-5.25511,0.500001,0.400662,0.654972,1.49012e-06,0.0411272,1.22571,-2.98023e-05,0.016069,2.29739,5,0.1,6,4.8,-4.06504,-5.40281,1.1901,0.00332594,-0.0196338,0.0392318,-0.000715256,-0.0326633,-0.00965595,0.013348,3.82934,5,0.1,7,4.8,-1.71567,-2.22145,0.563509,0.219285,0.542074,-0.0336438,-0.147402,0.069499,0.0209212,0.009779,0.281334,5,0.1,8,4.8,1.46992,2.82815,0.552616,-0.00228882,-0.000911951,0.000151992,0.01055,0.00417233,-0.000685453,0.0103182,6.49828e-06,5,0.1,9,4.8,-0.75606,0.0979447,0.794392,0.476862,0.00336077,0.153692,-0.22155,-0.131331,0.0273287,0.0227557,0.215019,5,0.1,10,4.8,0.263098,0.255343,0.598738,-0.108749,0.194185,0.00132769,0.141054,0.206172,-0.00184774,0.0115934,3.20623,5,0.1,11,4.8,-1.50015,0.58664,1.34412,0.000107288,-0.649776,0.00462234,-5.96046e-05,0.2684,-0.00298023,0.018857,2.56265,5,0.1,12,4.8,1.20037,3.89283,1.33776,-0.000426173,-0.60069,0.0103414,0.000357628,-0.144362,-0.0103712,0.0192216,1.27814,5,0.1,13,4.8,-2.98231,-3.77302,0.599874,-0.371104,-0.063926,0.000147521,0.173926,-0.0255108,-0.000119209,0.00724732,0.170713,5,0.1,14,4.8,3.31306,0.151986,0.5,-0.74513,5.43892e-05,0,0.00536442,-0.00252575,0,0.00708073,0.689596,5,0.1,15,4.8,1.71498,-0.0222421,0.677305,0.046131,0.0106886,0.0029996,-0.1688,-0.0363486,-0.0101924,0.00988443,0.000603867,5,0.1,16,4.8,-0.124491,3.4874,0.59937,0.162102,-0.852555,-0.00438988,0.00721991,-0.269413,-0.0341237,0.0328416,2.26216,5,0.1,17,4.8,-0.0111505,1.6981,0.744031,-0.160638,0.866026,0.00594556,0.0309253,0,-0.0265837,0.0218916,2.25585,5,0.1,18,4.8,-4.86534,3.7,0.5,-0.230384,-0.230896,0,0.247717,-0.0222921,0,0.00805606,0.233405,5,0.1,19,4.8,1.66572,-0.45351,0.600102,0.751182,-0.000295043,1.04308e-05,0.235319,0.00241399,-8.9407e-05,0.0104685,2.36049,5,0.1
0,4.9,-0.34341,0.36385,0.728312,-0.0981862,0.709291,0.0199716,0.0672601,0.676511,-0.0136979,0.00810947,1.24101,5,0.1,1,4.9,0.37635,3.42557,0.601265,0.240347,-0.12513,-0.00118772,-0.111654,0.118285,0.00108406,0.00961522,0.317183,5,0.1,2,4.9,-1.94452,-2.51733,0.60027,0.479209,0.0585847,8.90344e-05,0.0653416,-0.0191033,-0.000797212,0.00807567,0.444081,5,0.1,3,4.9,1.98428,-3.7425,0.592871,0.865204,0.0350598,-0.0243098,0.0328496,0.0720173,-0.0535734,0.00861061,2.27846,5,0.1,4,4.9,5.12129,-1.05372,0.5,-0.00594482,-0.621553,0,0.000447035,1.03612,0,0.00825748,2.87483,5,0.1,5,4.9,-3.59814,-5.18383,0.500001,0.406294,0.765958,-9.31323e-07,0.049904,0.951052,-1.49012e-05,0.016069,2.29739,5,0.1,6,4.9,-4.06471,-5.40504,1.19399,0.00327826,-0.0243604,0.0384122,-0.000357628,-0.002563,-0.00840425,0.013348,3.82934,5,0.1,7,4.9,-1.69444,-2.16694,0.560246,0.205425,0.54737,-0.0316432,-0.136279,0.0149757,0.0200421,0.009779,0.281334,5,0.1,8,4.9,1.46974,2.82808,0.552628,-0.00128355,-0.000514463,8.65199e-05,0.00939518,0.00374019,-0.000614673,0.0103182,6.49828e-06,5,0.1,9,4.9,-0.709352,0.0978089,0.809506,0.458077,-0.00443206,0.145127,-0.174854,-0.0325139,-0.180792,0.0227557,0.215019,5,0.1,10,4.9,0.252691,0.275765,0.598861,-0.101391,0.217045,0.0011446,0.021142,0.360128,-0.00181794,0.0115934,3.20623,5,0.1,11,4.9,-1.50014,0.521677,1.34456,0.000102259,-0.660145,0.00435766,-3.72529e-05,-0.374304,-0.00249594,0.018857,2.56265,5,0.1,12,4.9,1.20033,3.83147,1.33875,-0.00039041,-0.630546,0.00944715,0.000357628,-0.388473,-0.00793487,0.0192216,1.27814,5,0.1,13,4.9,-3.01858,-3.7794,0.599888,-0.354408,-0.0626221,0.000137091,0.171736,0.0467002,-9.68575e-05,0.00724732,0.170713,5,0.1,14,4.9,3.2384,0.151979,0.5,-0.748752,-0.000205147,0,-0.0372827,-0.00256952,0,0.00708073,0.689596,5,0.1,15,4.9,1.71879,-0.0213456,0.677556,0.030655,0.00733735,0.00205981,-0.14025,-0.0305659,-0.00857189,0.00988443,0.000603867,5,0.1,16,4.9,-0.10819,3.40132,0.598741,0.164222,-0.865184,-0.00833264,0.0249935,-0.0336766,-0.0422634,0.0328416,2.26216,5,0.1,17,4.9,-0.0271173,1.7847,0.744509,-0.15904,0.866026,0.00376282,0.010138,0,-0.0175275,0.0218916,2.25585,5,0.1,18,4.9,-4.88722,3.67718,0.5,-0.208021,-0.222033,0,0.20662,0.1854,0,0.00805606,0.233405,5,0.1,19,4.9,1.74267,-0.453726,0.600102,0.792214,-0.00567446,1.11759e-06,0.506617,-0.0975765,-9.68575e-05,0.0104685,2.36049,5,0.1
0,5,-0.352884,0.437791,0.730239,-0.0911541,0.764822,0.0185385,0.0756234,0.395923,-0.0153482,0.00703688,0.903393,5,0.1,1,5,0.4,3.41365,0.601152,0.234421,-0.113392,-0.00108182,-0.00989437,0.118971,0.00110269,0.00909471,0.260755,5,0.1,2,5,-1.89642,-2.51157,0.600275,0.480866,0.0566483,1.63913e-05,-0.0506639,-0.010848,-0.000625849,0.0100984,0.344648,5,0.1,3,5,2.07087,-3.73865,0.590179,0.866026,0.0418961,-0.029397,0,0.0606775,-0.0453293,0.0109191,2.26925,5,0.1,4,5,5.1207,-1.11072,0.5,-0.0058651,-0.520128,0,0.00119209,0.935197,0,0.00648164,3.0264,5,0.1,5,5,-3.55739,-5.1032,0.500001,0.406981,0.83878,-1.49012e-06,-0.0509024,0.48399,0,0.0113898,2.20759,5,0.1,6,5,-4.06438,-5.40709,1.19778,0.00321865,-0.011909,0.0372678,-0.000953674,0.274181,-0.0155568,0.0118145,3.64291,5,0.1,7,5,-1.6746,-2.11236,0.557186,0.190946,0.541514,-0.0294775,-0.157654,-0.146389,0.0239015,0.00767296,0.188156,5,0.1,8,5,1.46966,2.82804,0.552633,-0.000435114,-0.000184774,2.98023e-05,0.00756979,0.00309944,-0.000447035,0.0110026,4.01778e-06,5,0.1,9,5,-0.664479,0.097312,0.822894,0.438383,-0.00458434,0.120777,-0.233442,0.0230297,-0.291616,0.023376,0.321533,5,0.1,10,5,0.242561,0.3,0.598967,-0.101863,0.274687,0.000965595,-0.0190586,0.768393,-0.00181794,0.0101936,2.88377,5,0.1,11,5,-1.50013,0.453417,1.34499,9.83477e-05,-0.706826,0.00409484,-5.96046e-05,-0.482708,-0.00286102,0.0183106,1.85533,5,0.1,12,5,1.20029,3.76651,1.33965,-0.000354648,-0.667256,0.00868142,0.000417233,-0.298738,-0.007689,0.0196335,0.139398,5,0.1,13,5,-3.05309,-3.78535,0.599901,-0.334799,-0.05548,0.00012815,0.228167,0.0916719,-0.000119209,0.00902187,0.147391,5,0.1,14,5,3.16354,0.151946,0.5,-0.745708,-0.00044331,0,0.126243,-0.00213087,0,0.0075336,1.22223,5,0.1,15,5,1.72121,-0.0207544,0.677722,0.0181466,0.00459095,0.00129044,-0.109792,-0.0243178,-0.00682473,0.00934749,0.000349819,5,0.1,16,5,-0.0916815,3.31473,0.5977,0.165364,-0.866026,-0.0124142,-0.00933528,0,-0.0375509,0.0345809,2.2541,5,0.1,17,5,-0.0429439,1.8713,0.744809,-0.157056,0.866026,0.00235736,0.0359884,0,-0.0109673,0.0172621,2.25674,5,0.1,18,5,-4.90701,3.65615,0.5,-0.187838,-0.196445,0,0.201941,0.314236,0,0.00677747,0.221193,5,0.1,19,5,1.82434,-0.454862,0.600102,0.839117,-0.0176013,-8.9407e-06,0.376403,-0.131279,-5.96046e-05,0.00925674,2.4312,5,0.1
