id,t,px,py,pz,vx,vy,vz,ax,ay,az,planning_time,qp_cost,planning_report,size,id,t,px,py,pz,vx,vy,vz,ax,ay,az,planning_time,qp_cost,planning_report,size,id,t,px,py,pz,vx,vy,vz,ax,ay,az,planning_time,qp_cost,planning_report,size,id,t,px,py,pz,vx,vy,vz,ax,ay,az,planning_time,qp_cost,planning_report,size,id,t,px,py,pz,vx,vy,vz,ax,ay,az,planning_time,qp_cost,planning_report,size,id,t,px,py,pz,vx,vy,vz,ax,ay,az,planning_time,qp_cost,planning_report,size,id,t,px,py,pz,vx,vy,vz,ax,ay,az,planning_time,qp_cost,planning_report,size,id,t,px,py,pz,vx,vy,vz,ax,ay,az,planning_time,qp_cost,planning_report,size,id,t,px,py,pz,vx,vy,vz,ax,ay,az,planning_time,qp_cost,planning_report,size,id,t,px,py,pz,vx,vy,vz,ax,ay,az,planning_time,qp_cost,planning_report,size,id,t,px,py,pz,vx,vy,vz,ax,ay,az,planning_time,qp_cost,planning_report,size,id,t,px,py,pz,vx,vy,vz,ax,ay,az,planning_time,qp_cost,planning_report,size,id,t,px,py,pz,vx,vy,vz,ax,ay,az,planning_time,qp_cost,planning_report,size,id,t,px,py,pz,vx,vy,vz,ax,ay,az,planning_time,qp_cost,planning_report,size,id,t,px,py,pz,vx,vy,vz,ax,ay,az,planning_time,qp_cost,planning_report,size,id,t,px,py,pz,vx,vy,vz,ax,ay,az,planning_time,qp_cost,planning_report,size,id,t,px,py,pz,vx,vy,vz,ax,ay,az,planning_time,qp_cost,planning_report,size,id,t,px,py,pz,vx,vy,vz,ax,ay,az,planning_time,qp_cost,planning_report,size,id,t,px,py,pz,vx,vy,vz,ax,ay,az,planning_time,qp_cost,planning_report,size,id,t,px,py,pz,vx,vy,vz,ax,ay,az,planning_time,qp_cost,planning_report,size
0,0,0.0849771,3.29573,0.565448,0,0,0,0,0,0,0.0158325,3.5122,5,0.1,1,0,3.64946,-3.73136,0.689269,0,0,0,0,0,0,0.00924366,2.4569,5,0.1,2,0,1.24976,5.02218,0.526401,0,0,0,0,0,0,0.0495909,0.994489,5,0.1,3,0,-2.15164,-3.28481,0.591737,0,0,0,0,0,0,0.0101119,3.5122,5,0.1,4,0,-0.142063,-1.01221,0.646104,0,0,0,0,0,0,0.0106095,2.64641,5,0.1,5,0,-1.14918,-0.290451,0.599891,0,0,0,0,0,0,0.00953729,0.366611,5,0.1,6,0,-1.82489,-5.37784,0.552316,0,0,0,0,0,0,0.0188871,3.5122,5,0.1,7,0,0.847944,3.14368,0.5254,0,0,0,0,0,0,0.012282,1.79358,5,0.1,8,0,-0.411769,1.95184,0.559689,0,0,0,0,0,0,0.0155065,3.51219,5,0.1,9,0,-2.67308,-2.74102,0.66353,0,0,0,0,0,0,0.0109954,2.26968,5,0.1,10,0,4.08297,-5.63429,0.671875,0,0,0,0,0,0,0.030248,3.5122,5,0.1,11,0,-3.01719,4.23424,0.567081,0,0,0,0,0,0,0.0152823,0.790759,5,0.1,12,0,-3.52322,2.04374,0.668719,0,0,0,0,0,0,0.0101844,3.22131,5,0.1,13,0,0.558712,-4.30137,0.54271,0,0,0,0,0,0,0.0112478,3.5122,5,0.1,14,0,3.92013,-0.625414,0.543943,0,0,0,0,0,0,0.0148508,2.96194,5,0.1,15,0,0.572683,-5.6986,0.622785,0,0,0,0,0,0,0.0331289,3.5122,5,0.1,16,0,5.07512,1.17349,0.529696,0,0,0,0,0,0,0.0625752,1.59657,5,0.1,17,0,-1.5526,-1.14305,0.508948,0,0,0,0,0,0,0.00874802,3.20915,5,0.1,18,0,0.321177,-2.53745,0.618736,0,0,0,0,0,0,0.019935,0.363269,5,0.1,19,0,-1.64681,-2.66864,0.681546,0,0,0,0,0,0,0.00928407,3.5122,5,0.1
0,0.1,0.0851652,3.29365,0.565461,0.00533734,-0.0590265,0.000358,0.0948859,-1.04934,0.0063628,0.0158325,3.5122,5,0.1,1,0.1,3.64957,-3.73311,0.689333,0.00297949,-0.049448,0.00179978,0.0529885,-0.879079,0.0319965,0.00924366,2.4569,5,0.1,2,0.1,1.24971,5.02147,0.527261,-0.00147466,-0.0199191,0.0244066,-0.0262186,-0.354141,0.433892,0.0495909,0.994489,5,0.1,3,0.1,-2.15368,-3.28435,0.591711,-0.0577778,0.013189,-0.000738632,-1.02717,0.234485,-0.0131316,0.0101119,3.5122,5,0.1,4,0.1,-0.140975,-1.01366,0.646056,0.0308806,-0.0411259,-0.00136644,0.548989,-0.731118,-0.0242889,0.0106095,2.64641,5,0.1,5,0.1,-1.14851,-0.290386,0.599813,0.0189302,0.00185631,-0.00220705,0.336535,0.0329986,-0.0392348,0.00953729,0.366611,5,0.1,6,0.1,-1.82489,-5.37578,0.552651,0.000250153,0.058499,0.00951262,0.004448,1.03998,0.169117,0.0188871,3.5122,5,0.1,7,0.1,0.846589,3.14307,0.525478,-0.0384634,-0.0175934,0.00221077,-0.683792,-0.31279,0.0393018,0.012282,1.79358,5,0.1,8,0.1,-0.411076,1.94987,0.559713,0.0196704,-0.0559047,0.000682566,0.349699,-0.993863,0.0121333,0.0155065,3.51219,5,0.1,9,0.1,-2.67154,-2.74035,0.663464,0.0436541,0.0189956,-0.00188285,0.776067,0.337705,-0.0334717,0.0109954,2.26968,5,0.1,10,0.1,4.08228,-5.63232,0.671835,-0.0195198,0.0559509,-0.0011378,-0.346988,0.994682,-0.0202321,0.030248,3.5122,5,0.1,11,0.1,-3.01818,4.23424,0.567182,-0.0279758,-4.24683e-05,0.00286391,-0.497356,-0.000745058,0.0509135,0.0152823,0.790759,5,0.1,12,0.1,-3.52126,2.04333,0.668647,0.0555113,-0.011668,-0.00203643,0.986874,-0.207439,-0.0362024,0.0101844,3.22131,5,0.1,13,0.1,0.559853,-4.29963,0.542762,0.0323893,0.0496119,0.00149487,0.575807,0.88203,0.0265725,0.0112478,3.5122,5,0.1,14,0.1,3.91964,-0.627266,0.544002,-0.0139322,-0.0525882,0.00166139,-0.247672,-0.934906,0.0295304,0.0148508,2.96194,5,0.1,15,0.1,0.572561,-5.69651,0.622778,-0.00347411,0.0591666,-0.000187289,-0.0617616,1.05184,-0.00333413,0.0331289,3.5122,5,0.1,16,0.1,5.07421,1.17243,0.529769,-0.0259332,-0.03033,0.00208355,-0.461072,-0.539206,0.0370368,0.0625752,1.59657,5,0.1,17,0.1,-1.55129,-1.14154,0.508887,0.0371194,0.0427637,-0.00174707,0.659905,0.760242,-0.0310577,0.00874802,3.20915,5,0.1,18,0.1,0.320685,-2.537,0.618717,-0.0139629,0.0129633,-0.000555348,-0.248231,0.230461,-0.00986829,0.019935,0.363269,5,0.1,19,0.1,-1.64885,-2.6691,0.681457,-0.0577539,-0.0130698,-0.00252714,-1.02673,-0.232339,-0.0449233,0.00928407,3.5122,5,0.1
0,0.2,0.0862493,3.28166,0.565534,0.0168687,-0.186557,0.001131,0.126511,-1.39904,0.00852346,0.0125275,2.9258,5,0.1,1,0.2,3.65017,-3.74315,0.689698,0.00941157,-0.156283,0.00568777,0.0708103,-1.17207,0.0426471,0.00764722,2.01577,5,0.1,2,0.2,1.24941,5.01743,0.532218,-0.00466108,-0.0629544,0.0771374,-0.0349283,-0.472069,0.578523,0.0438967,0.815933,5,0.1,3,0.2,-2.16541,-3.28167,0.591561,-0.182605,0.0416875,-0.00233501,-1.36948,0.312686,-0.0175238,0.0104491,2.9258,5,0.1,4,0.2,-0.134703,-1.02202,0.645778,0.0975981,-0.12998,-0.00431687,0.73199,-0.974774,-0.0324249,0.0191937,2.17125,5,0.1,5,0.2,-1.14466,-0.290009,0.599365,0.0598282,0.00586733,-0.00697523,0.448704,0.0439882,-0.0523031,0.00761022,0.300787,5,0.1,6,0.2,-1.82484,-5.3639,0.554583,0.000789762,0.184882,0.0300646,0.00590086,1.38688,0.225514,0.025402,2.92577,5,0.1,7,0.2,0.838776,3.13949,0.525927,-0.121564,-0.0555992,0.00698715,-0.911713,-0.417113,0.0524223,0.0106412,1.47154,5,0.1,8,0.2,-0.407081,1.93851,0.559851,0.0621676,-0.176686,0.00215769,0.466272,-1.32519,0.0161529,0.0163846,2.92579,5,0.1,9,0.2,-2.66268,-2.73649,0.663082,0.137967,0.0600398,-0.00595003,1.03474,0.450134,-0.0446141,0.00917886,1.86216,5,0.1,10,0.2,4.07831,-5.62095,0.671604,-0.0616908,0.176823,-0.00359565,-0.462532,1.32656,-0.0270009,0.0288527,2.92577,5,0.1,11,0.2,-3.02386,4.23423,0.567763,-0.0884175,-0.00013113,0.00905097,-0.663161,-0.000953674,0.0679195,0.00808494,0.648778,5,0.1,12,0.2,-3.50999,2.04096,0.668234,0.175446,-0.0368774,-0.00643581,1.31571,-0.276566,-0.0482798,0.0156911,2.64293,5,0.1,13,0.2,0.566432,-4.28955,0.543066,0.102365,0.156796,0.00472516,0.767767,1.17612,0.0354052,0.0102871,2.92579,5,0.1,14,0.2,3.91681,-0.637949,0.544339,-0.04403,-0.166206,0.00524968,-0.330329,-1.24651,0.0393987,0.0109836,2.43012,5,0.1,15,0.2,0.571855,-5.6845,0.62274,-0.0109792,0.186992,-0.000591576,-0.0823736,1.40262,-0.00444055,0.0231267,2.92578,5,0.1,16,0.2,5.06894,1.16626,0.530192,-0.0819683,-0.0958592,0.00658482,-0.614643,-0.718951,0.0493824,0.0566808,1.30991,5,0.1,17,0.2,-1.54375,-1.13285,0.508532,0.117317,0.135154,-0.00552088,0.879884,1.01364,-0.0413954,0.00949362,2.63308,5,0.1,18,0.2,0.317848,-2.53436,0.618604,-0.0441298,0.0409722,-0.00175536,-0.33097,0.307202,-0.0131428,0.0170324,0.298046,5,0.1,19,0.2,-1.66058,-2.67175,0.680943,-0.18253,-0.041306,-0.00798702,-1.36906,-0.309706,-0.0599027,0.0116508,2.96094,5,0.1
0,0.3,0.0886397,3.25522,0.565694,0.0314187,-0.347463,0.00210991,0.155481,-1.71946,0.0104569,0.0125275,2.9258,5,0.1,1,0.3,3.65151,-3.76529,0.690504,0.0175271,-0.290733,0.0105804,0.086531,-1.43425,0.0521988,0.00764722,2.01577,5,0.1,2,0.3,1.24875,5.00851,0.543143,-0.00866838,-0.117109,0.1435,-0.0427514,-0.577718,0.707928,0.0438967,0.815933,5,0.1,3,0.3,-2.19129,-3.27576,0.59123,-0.340109,0.0776473,-0.00434993,-1.6831,0.384256,-0.0215285,0.0104491,2.9258,5,0.1,4,0.3,-0.12088,-1.04043,0.645167,0.181565,-0.241799,-0.00803508,0.895718,-1.19285,-0.039652,0.0191937,2.17125,5,0.1,5,0.3,-1.13619,-0.289178,0.598377,0.1113,0.0109137,-0.0129753,0.549078,0.053836,-0.0640117,0.00761022,0.300787,5,0.1,6,0.3,-1.82472,-5.3377,0.558844,0.00146907,0.344376,0.0559998,0.00726432,1.70428,0.277136,0.025402,2.92577,5,0.1,7,0.3,0.821559,3.13162,0.526916,-0.226148,-0.103444,0.0129997,-1.11565,-0.51035,0.0641309,0.0106412,1.47154,5,0.1,8,0.3,-0.398271,1.91347,0.560157,0.115793,-0.329093,0.00401624,0.573028,-1.62859,0.0198632,0.0163846,2.92579,5,0.1,9,0.3,-2.64314,-2.72799,0.662239,0.256664,0.111681,-0.0110683,1.26618,0.550911,-0.0546016,0.00917886,1.86216,5,0.1,10,0.3,4.06957,-5.59589,0.671094,-0.114891,0.329377,-0.00669984,-0.568509,1.63013,-0.0331663,0.0288527,2.92577,5,0.1,11,0.3,-3.03639,4.23421,0.569045,-0.164489,-0.000242144,0.0168409,-0.811473,-0.0012219,0.0830889,0.00808494,0.648778,5,0.1,12,0.3,-3.48514,2.03574,0.667322,0.326377,-0.0686031,-0.0119737,1.61006,-0.33842,-0.0590719,0.0156911,2.64293,5,0.1,13,0.3,0.580931,-4.26733,0.543735,0.19046,0.292057,0.00879802,0.939928,1.44535,0.0435337,0.0102871,2.92579,5,0.1,14,0.3,3.91057,-0.661488,0.545083,-0.0819191,-0.309195,0.00976836,-0.404149,-1.52535,0.0482015,0.0109836,2.43012,5,0.1,15,0.3,0.570299,-5.658,0.622656,-0.0204519,0.348299,-0.00110213,-0.10122,1.72368,-0.00545382,0.0231267,2.92578,5,0.1,16,0.3,5.05733,1.15269,0.531125,-0.152477,-0.17833,0.0122497,-0.752181,-0.87975,0.0604317,0.0566808,1.30991,5,0.1,17,0.3,-1.52714,-1.11371,0.507785,0.218249,0.251429,-0.00928352,1.07668,1.24038,-0.033129,0.00949362,2.63308,5,0.1,18,0.3,0.311598,-2.52856,0.618356,-0.0820958,0.0762146,-0.00326354,-0.405001,0.375971,-0.0160933,0.0170324,0.298046,5,0.1,19,0.3,-1.68587,-2.6776,0.679811,-0.323576,-0.0769272,-0.0148763,-1.39143,-0.380665,-0.0736229,0.0116508,2.96094,5,0.1
0,0.4,0.0925458,3.21203,0.565956,0.0463989,-0.51313,0.00311583,0.137478,-1.52028,0.00923872,0.017181,2.51481,5,0.1,1,0.4,3.65368,-3.8014,0.691818,0.0258505,-0.428766,0.015603,0.0764132,-1.26541,0.0460744,0.00933573,1.83679,5,0.1,2,0.4,1.24767,4.99396,0.56097,-0.0127822,-0.17271,0.211631,-0.0377893,-0.509739,0.624567,0.0461474,0.645577,5,0.1,3,0.4,-2.23357,-3.26611,0.590689,-0.50227,0.114667,-0.00642389,-1.48821,0.339866,-0.0190139,0.00916182,2.51148,5,0.1,4,0.4,-0.0983241,-1.07046,0.644169,0.267768,-0.3566,-0.0118509,0.790227,-1.05232,-0.0349581,0.0158187,1.71792,5,0.1,5,0.4,-1.12236,-0.287822,0.596765,0.164142,0.0160955,-0.0191346,0.484407,0.0474751,-0.0565052,0.0108901,0.237986,5,0.1,6,0.4,-1.82454,-5.29488,0.565806,0.00216961,0.508583,0.0827014,0.0064373,1.50681,0.245005,0.0212567,2.51313,5,0.1,7,0.4,0.793465,3.11877,0.528531,-0.333516,-0.152558,0.0191718,-0.984281,-0.450253,0.0565946,0.0115381,1.16731,5,0.1,8,0.4,-0.383875,1.87256,0.560656,0.171003,-0.486004,0.00593215,0.506639,-1.43999,0.0175238,0.0121541,2.74168,5,0.1,9,0.4,-2.61125,-2.71412,0.660864,0.378519,0.1647,-0.0163227,1.11711,0.486135,-0.0481904,0.0165486,1.47764,5,0.1,10,0.4,4.05529,-5.55494,0.670261,-0.169671,0.486434,-0.00989586,-0.502586,1.441,-0.0292957,0.0308324,2.51005,5,0.1,11,0.4,-3.05682,4.23418,0.571137,-0.242585,-0.000357628,0.0248373,-0.715971,-0.000953674,0.0733137,0.00981604,0.513318,5,0.1,12,0.4,-3.4446,2.02722,0.665835,0.481331,-0.101173,-0.0176594,1.4205,-0.298619,-0.0520945,0.0163935,2.09112,5,0.1,13,0.4,0.604594,-4.23102,0.544829,0.280927,0.431311,0.0129923,0.829458,1.27792,0.0385046,0.0157989,2.63247,5,0.1,14,0.4,3.9004,-0.699899,0.546296,-0.120813,-0.455993,0.0144064,-0.356555,-1.34572,0.0425279,0.00887638,1.92274,5,0.1,15,0.4,0.567757,-5.6147,0.622519,-0.0302047,0.514364,-0.00162721,-0.0894666,1.52421,-0.00485778,0.0262485,2.51527,5,0.1,16,0.4,5.03839,1.13053,0.532647,-0.224864,-0.263,0.0180647,-0.663757,-0.776052,0.0533462,0.0609667,1.03641,5,0.1,17,0.4,-1.50002,-1.08248,0.506709,0.321868,0.3708,-0.0120282,0.94986,1.09434,-0.0213385,0.0104877,2.08381,5,0.1,18,0.4,0.3014,-2.51909,0.61795,-0.121073,0.112402,-0.00481308,-0.357315,0.331521,-0.0141859,0.0131143,0.23582,5,0.1,19,0.4,-1.72481,-2.68717,0.677962,-0.450444,-0.113606,-0.0219688,-1.10263,-0.336647,-0.0650883,0.0113681,2.91152,5,0.1
0,0.5,0.0978926,3.15312,0.566315,0.0605458,-0.66326,0.00406606,0.138184,-1.41363,0.0092797,0.017181,2.51481,5,0.1,1,0.5,3.65666,-3.8492,0.693613,0.0335991,-0.514115,0.0202773,0.0747442,-0.475794,0.0451207,0.00933573,1.83679,5,0.1,2,0.5,1.2462,4.9741,0.585313,-0.016615,-0.224428,0.274999,-0.0369921,-0.499249,0.611715,0.0461474,0.645577,5,0.1,3,0.5,-2.29133,-3.2529,0.589949,-0.651971,0.149638,-0.00838079,-1.43349,0.34155,-0.0191182,0.00916182,2.51148,5,0.1,4,0.5,-0.0675239,-1.11148,0.642806,0.347944,-0.46337,-0.0153975,0.773968,-1.0307,-0.0342391,0.0158187,1.71792,5,0.1,5,0.5,-1.10348,-0.285971,0.594564,0.21329,0.020913,-0.0248672,0.474438,0.0465102,-0.0553317,0.0108901,0.237986,5,0.1,6,0.5,-1.82429,-5.23646,0.575336,0.00283178,0.658531,0.107914,0.00647455,1.42193,0.246271,0.0212567,2.51313,5,0.1,7,0.5,0.755256,3.10127,0.530734,-0.429003,-0.196654,0.0248474,-0.886202,-0.412762,0.054244,0.0115381,1.16731,5,0.1,8,0.5,-0.36417,1.81804,0.56134,0.223139,-0.592068,0.00773678,0.509251,-0.700213,0.0176392,0.0121541,2.74168,5,0.1,9,0.5,-2.56789,-2.69509,0.658985,0.486898,0.216495,-0.0212606,1.00589,0.52011,-0.0480562,0.0165486,1.47764,5,0.1,10,0.5,4.03574,-5.49889,0.669121,-0.221393,0.634719,-0.0129107,-0.505209,1.44842,-0.0294447,0.0308324,2.51005,5,0.1,11,0.5,-3.08472,4.23414,0.573994,-0.315225,-0.000457466,0.0322749,-0.701204,-0.000953674,0.0717901,0.00981604,0.513318,5,0.1,12,0.5,-3.38923,2.01558,0.663803,0.625457,-0.13147,-0.0229454,1.39128,-0.292465,-0.051029,0.0163935,2.09112,5,0.1,13,0.5,0.635913,-4.18132,0.546326,0.336802,0.56281,0.0169546,0.309601,1.28445,0.038702,0.0157989,2.63247,5,0.1,14,0.5,3.8865,-0.75235,0.547953,-0.156987,-0.59253,0.0187208,-0.349194,-1.31804,0.041645,0.00887638,1.92274,5,0.1,15,0.5,0.564276,-5.55565,0.622332,-0.0394113,0.66456,-0.0021264,-0.0899285,1.41144,-0.00487268,0.0262485,2.51527,5,0.1,16,0.5,5.01252,1.10028,0.534725,-0.292205,-0.34174,0.0234764,-0.650078,-0.760123,0.052236,0.0609667,1.03641,5,0.1,17,0.5,-1.463,-1.03983,0.505434,0.418241,0.481831,-0.0131565,0.930332,1.07181,-0.0022687,0.0104877,2.08381,5,0.1,18,0.5,0.287473,-2.50616,0.617397,-0.157326,0.146043,-0.00625299,-0.349959,0.324786,-0.0138991,0.0131143,0.23582,5,0.1,19,0.5,-1.77398,-2.70026,0.675431,-0.520194,-0.148235,-0.0286639,-0.341855,-0.338152,-0.0653788,0.0113681,2.91152,5,0.1
0,0.6,0.10459,3.08035,0.566765,0.0727933,-0.784516,0.00488758,0.101622,-0.966668,0.00682473,0.010194,2.33093,5,0.1,1,0.6,3.66036,-3.90193,0.69585,0.0401556,-0.53044,0.0242367,0.0537634,0.118256,0.0324547,0.00892375,1.68993,5,0.1,2,0.6,1.24437,4.94935,0.615641,-0.0198632,-0.268245,0.328679,-0.0265241,-0.359058,0.440091,0.0492113,0.480616,5,0.1,3,0.6,-2.36312,-3.23634,0.589022,-0.776821,0.179911,-0.0100762,-1.01447,0.251174,-0.0140369,0.00960736,2.31091,5,0.1,4,0.6,-0.0291516,-1.16258,0.641107,0.415864,-0.553823,-0.0184014,0.556775,-0.741422,-0.0246465,0.0108669,1.27896,5,0.1,5,0.6,-1.07996,-0.283664,0.591822,0.254926,0.0249945,-0.0297219,0.341296,0.033468,-0.0398159,0.00973557,0.177175,5,0.1,6,0.6,-1.82398,-5.1641,0.587273,0.00340641,0.781298,0.12974,0.00476837,0.986576,0.181139,0.0193341,2.32224,5,0.1,7,0.6,0.708351,3.07973,0.533468,-0.504144,-0.231922,0.0295684,-0.589699,-0.279665,0.038296,0.00885414,0.886551,5,0.1,8,0.6,-0.339486,1.75642,0.562195,0.268275,-0.629905,0.0093013,0.374511,-0.0762343,0.012964,0.0159533,2.88039,5,0.1,9,0.6,-2.51465,-2.67098,0.656635,0.572193,0.263619,-0.0255078,0.66936,0.401139,-0.0350773,0.00895096,1.12347,5,0.1,10,0.6,4.01125,-5.42868,0.667693,-0.266182,0.763094,-0.015521,-0.371337,1.06525,-0.0216365,0.0286511,2.39936,5,0.1,11,0.6,-3.11949,4.23409,0.577554,-0.376761,-0.000548363,0.0385746,-0.504375,-0.000715256,0.0516474,0.00911651,0.382149,5,0.1,12,0.6,-3.32025,2.00108,0.661273,0.74755,-0.157136,-0.0274226,1.00088,-0.210404,-0.0367463,0.0121278,1.57843,5,0.1,13,0.6,0.670433,-4.11906,0.548202,0.346991,0.676668,0.0203863,-0.0859201,0.944138,0.0284314,0.0131522,2.4014,5,0.1,14,0.6,3.86919,-0.817696,0.550018,-0.187629,-0.708194,0.0223756,-0.251293,-0.948191,0.0299513,0.00809115,1.43328,5,0.1,15,0.6,0.559916,-5.48278,0.622096,-0.0473812,0.78541,-0.00255704,-0.0661612,0.961065,-0.00360608,0.0266082,2.33326,5,0.1,16,0.6,4.9803,1.06259,0.537314,-0.349247,-0.408444,0.0280604,-0.467777,-0.546813,0.0375509,0.0503454,0.771584,5,0.1,17,0.6,-1.41687,-0.986689,0.504131,0.499883,0.575888,-0.0126779,0.669181,0.771046,0.0109971,0.0116403,1.58911,5,0.1,18,0.6,0.270123,-2.49006,0.616707,-0.188037,0.174552,-0.00747442,-0.251725,0.233531,-0.00998378,0.0113538,0.175566,5,0.1,19,0.6,-1.82678,-2.71666,0.67226,-0.527629,-0.178194,-0.0344574,0.154495,-0.248671,-0.0480413,0.0126012,2.96807,5,0.1
0,0.7,0.112384,2.99813,0.567289,0.0829928,-0.850027,0.0055722,0.0959369,-0.369653,0.00643358,0.010194,2.33093,5,0.1,1,0.7,3.66464,-3.95333,0.698433,0.0453141,-0.488679,0.0273523,0.0464767,0.655293,0.0280775,0.00892375,1.68993,5,0.1,2,0.7,1.24225,4.92076,0.650671,-0.0224104,-0.302718,0.370929,-0.0229552,-0.310689,0.380754,0.0492113,0.480616,5,0.1,3,0.7,-2.44483,-3.21708,0.587943,-0.847357,0.205119,-0.0114857,-0.415415,0.237077,-0.0132583,0.00960736,2.31091,5,0.1,4,0.7,0.0151708,-1.22161,0.639146,0.469316,-0.625004,-0.0207673,0.481718,-0.641517,-0.0213198,0.0108669,1.27896,5,0.1,5,0.7,-1.05279,-0.281,0.588654,0.287692,0.0282077,-0.0335437,0.295289,0.0289604,-0.0344403,0.00973557,0.177175,5,0.1,6,0.7,-1.82361,-5.08209,0.601165,0.00388492,0.848908,0.14792,0.0044927,0.388771,0.171009,0.0193341,2.32224,5,0.1,7,0.7,0.655135,3.05532,0.536612,-0.557952,-0.254315,0.0331932,-0.457648,-0.161782,0.0321679,0.00885414,0.886551,5,0.1,8,0.7,-0.310763,1.69436,0.563191,0.305812,-0.600088,0.0106016,0.352656,0.602022,0.0122264,0.0159533,2.88039,5,0.1,9,0.7,-2.45404,-2.64307,0.653913,0.639216,0.290126,-0.0288486,0.625208,0.135168,-0.0299029,0.00895096,1.12347,5,0.1,10,0.7,3.98275,-5.34846,0.666031,-0.303466,0.828144,-0.0176935,-0.350803,0.271976,-0.0204407,0.0286511,2.39936,5,0.1,11,0.7,-3.15964,4.23403,0.581665,-0.425183,-0.000618398,0.0435324,-0.436395,-0.000655651,0.0446811,0.00911651,0.382149,5,0.1,12,0.7,-3.24118,1.98433,0.65835,0.826669,-0.177335,-0.03095,0.568315,-0.182033,-0.0317805,0.0121278,1.57843,5,0.1,13,0.7,0.70408,-4.04671,0.550386,0.320478,0.768557,0.023281,-0.415165,0.83977,0.0275746,0.0131522,2.4014,5,0.1,14,0.7,3.84919,-0.893017,0.552403,-0.211752,-0.794723,0.0252509,-0.217378,-0.740215,0.0259094,0.00809115,1.43328,5,0.1,15,0.7,0.554843,-5.40049,0.621822,-0.0540215,0.850335,-0.00291793,-0.0624619,0.364333,-0.00338629,0.0266082,2.33326,5,0.1,16,0.7,4.94307,1.01906,0.540304,-0.394151,-0.460941,0.0316656,-0.404656,-0.473119,0.0324883,0.0503454,0.771584,5,0.1,17,0.7,-1.36386,-0.925825,0.502935,0.556751,0.63531,-0.0111022,0.447832,0.407521,0.0196211,0.0116403,1.58911,5,0.1,18,0.7,0.250082,-2.47146,0.615911,-0.212204,0.196977,-0.00843341,-0.217795,0.202134,-0.0086464,0.0113538,0.175566,5,0.1,19,0.7,-1.8778,-2.73573,0.668572,-0.485609,-0.203047,-0.0392597,0.58753,-0.23289,-0.0450015,0.0126012,2.96807,5,0.1
0,0.8,0.121111,2.91201,0.567874,0.0908922,-0.866026,0.00610203,0.0576079,0,0.0038743,0.0119581,2.26552,5,0.1,1,0.8,3.66937,-3.99845,0.701289,0.0489533,-0.410134,0.0295535,0.0244379,0.870109,0.0147521,0.00861757,1.59563,5,0.1,2,0.8,1.23991,4.88914,0.689408,-0.0242114,-0.327075,0.400782,-0.0120401,-0.163317,0.199914,0.051059,0.339344,5,0.1,3,0.8,-2.53085,-3.19551,0.586736,-0.866026,0.224644,-0.0125781,0,0.142217,-0.00795722,0.0103462,2.23341,5,0.1,4,0.8,0.0641822,-1.28688,0.636977,0.507084,-0.6753,-0.0224382,0.252959,-0.336826,-0.0112057,0.0140451,0.903021,5,0.1,5,0.8,-1.02275,-0.278055,0.585151,0.310844,0.0304788,-0.0362441,0.155061,0.0151992,-0.01809,0.00882571,0.212123,5,0.1,6,0.8,-1.8232,-4.99602,0.616718,0.00425577,0.866032,0.162002,0.00268221,-0.000238419,0.102669,0.023425,2.25176,5,0.1,7,0.8,0.597462,3.02932,0.540068,-0.590906,-0.263304,0.0356644,-0.182539,-0.0146627,0.0158846,0.00894764,0.648713,5,0.1,8,0.8,-0.278613,1.638,0.564306,0.334815,-0.521833,0.011608,0.211075,0.910163,0.00730157,0.0124666,3.0819,5,0.1,9,0.8,-2.38737,-2.61378,0.6509,0.689471,0.291955,-0.0311807,0.34821,-0.0915527,-0.015527,0.0101392,0.844859,5,0.1,10,0.8,3.95084,-5.26535,0.664171,-0.332355,0.824165,-0.0193775,-0.210762,-0.320196,-0.0122488,0.0288723,2.52919,5,0.1,11,0.8,-3.20404,4.23397,0.586211,-0.459397,-0.000667572,0.047034,-0.22912,-0.000476837,0.0234842,0.0119613,0.269818,5,0.1,12,0.8,-3.15644,1.96581,0.655118,0.860429,-0.191605,-0.0334427,0.111938,-0.0956059,-0.0166893,0.0115544,1.15442,5,0.1,13,0.8,0.733708,-3.96618,0.552838,0.269249,0.83577,0.0255793,-0.585645,0.469685,0.0171065,0.0180227,2.24205,5,0.1,14,0.8,3.82707,-0.975571,0.55504,-0.228792,-0.849508,0.027281,-0.114202,-0.330359,0.0136197,0.00963843,1.40405,5,0.1,15,0.8,0.549163,-5.31437,0.621516,-0.0591651,0.86602,-0.0031963,-0.0374615,0.000238419,-0.00205636,0.0324222,2.26921,5,0.1,16,0.8,4.90191,0.970926,0.543611,-0.425887,-0.498034,0.0342116,-0.212193,-0.248492,0.0170767,0.0678715,0.548709,5,0.1,17,0.8,-1.30644,-0.86092,0.501931,0.586209,0.656068,-0.00891387,0.129163,0.00417233,0.023365,0.0180881,1.24724,5,0.1,18,0.8,0.227921,-2.45089,0.61503,-0.22928,0.21283,-0.00911206,-0.114359,0.106096,-0.00452995,0.0120958,0.210564,5,0.1,19,0.8,-1.92332,-2.75707,0.664446,-0.425416,-0.222147,-0.0429511,0.561893,-0.138521,-0.0267625,0.0121762,2.99906,5,0.1
0,0.9,0.1305,2.82541,0.568505,0.096846,-0.866026,0.00650194,0.0553429,0,0.00371784,0.0119581,2.26552,5,0.1,1,0.9,3.67439,-4.03484,0.704315,0.0511657,-0.316779,0.0308903,0.0174493,0.92952,0.0105649,0.00861757,1.59563,5,0.1,2,0.9,1.23743,4.85566,0.73044,-0.0253029,-0.341873,0.418897,-0.00862777,-0.117004,0.143193,0.051059,0.339344,5,0.1,3,0.9,-2.61745,-3.17231,0.585437,-0.866026,0.239331,-0.0134002,0,0.13642,-0.00763685,0.0103462,2.23341,5,0.1,4,0.9,0.116097,-1.35602,0.63468,0.530006,-0.705823,-0.0234532,0.181194,-0.241287,-0.00802055,0.0140451,0.903021,5,0.1,5,0.9,-0.990641,-0.274907,0.581407,0.332888,0.0326402,-0.0388146,0.25288,0.0247993,-0.0294857,0.00882571,0.212123,5,0.1,6,0.9,-1.82276,-4.90941,0.633453,0.00453349,0.866023,0.172617,0.00258535,2.98023e-05,0.0987053,0.023425,2.25176,5,0.1,7,0.9,0.537368,3.00281,0.543712,-0.61098,-0.267385,0.0371609,-0.184076,-0.0495762,0.0122264,0.00894764,0.648713,5,0.1,8,0.9,-0.244043,1.59086,0.565504,0.356346,-0.418583,0.0123539,0.197659,1.06336,0.00685081,0.0124666,3.0819,5,0.1,9,0.9,-2.31672,-2.58547,0.647708,0.722482,0.270395,-0.0325733,0.275701,-0.321478,-0.0108667,0.0101392,0.844859,5,0.1,10,0.9,3.9165,-5.18576,0.662169,-0.354141,0.757898,-0.0206445,-0.202551,-0.899762,-0.0117831,0.0288723,2.52919,5,0.1,11,0.9,-3.25108,4.2339,0.591027,-0.480159,-0.00071004,0.0491614,-0.164136,-0.000327826,0.016816,0.0119613,0.269818,5,0.1,12,0.9,-3.07007,1.9462,0.651694,0.865303,-0.200268,-0.0349549,-0.000923872,-0.0684708,-0.011947,0.0115544,1.15442,5,0.1,13,0.9,0.757485,-3.88097,0.55548,0.204874,0.862347,0.0272253,-0.6717,0.105694,0.0143237,0.0180227,2.24205,5,0.1,14,0.9,3.80349,-1.06153,0.557833,-0.243584,-0.864785,0.0285148,-0.160784,-0.03298,0.00974908,0.00963843,1.40405,5,0.1,15,0.9,0.543051,-5.22777,0.621185,-0.0630394,0.866026,-0.00340762,-0.036031,0,-0.00195578,0.0324222,2.26921,5,0.1,16,0.9,4.85831,0.920157,0.547114,-0.445116,-0.514361,0.035759,-0.152022,-0.0695176,0.0122301,0.0678715,0.548709,5,0.1,17,0.9,-1.24753,-0.795882,0.501158,0.588475,0.639054,-0.00655772,-0.089094,-0.333548,0.0232346,0.0180881,1.24724,5,0.1,18,0.9,0.204291,-2.4291,0.614097,-0.244088,0.222448,-0.00952296,-0.160943,0.0760406,-0.0032559,0.0120958,0.210564,5,0.1,19,0.9,-1.96314,-2.78,0.660013,-0.375162,-0.236164,-0.0456599,0.321195,-0.127599,-0.0246651,0.0121762,2.99906,5,0.1
0,1,0.140416,2.73881,0.56917,0.100926,-0.866026,0.00677556,0.0220239,0,0.00146031,0.0114799,2.26485,5,0.1,1,1,3.67956,-4.06219,0.70744,0.0520587,-0.234401,0.031431,-0.00119209,0.683784,-0.000685453,0.00760743,1.48199,5,0.1,2,1,1.23487,4.82107,0.772824,-0.0257462,-0.347865,0.426231,0.000596046,0.00739098,-0.00923872,0.0507604,0.230764,5,0.1,3,1,-2.70405,-3.1478,0.584065,-0.866026,0.249374,-0.0139624,0,0.0540018,-0.00303984,0.0101421,2.22952,5,0.1,4,1,0.169723,-1.42743,0.632307,0.539287,-0.718185,-0.0238642,-0.0116527,0.0155568,0.000536442,0.0104087,0.614095,5,0.1,5,1,-0.956149,-0.271524,0.577385,0.355744,0.0348814,-0.0414789,0.180393,0.0177026,-0.0210404,0.00938462,0.129657,5,0.1,6,1,-1.8223,-4.82281,0.651128,0.00472367,0.866032,0.179897,0.00107288,-0.000238419,0.0393093,0.031151,2.2863,5,0.1,7,1,0.475581,2.97589,0.547472,-0.621824,-0.270241,0.0378087,-0.00868678,0.00464916,-0.000536442,0.00818986,0.462223,5,0.1,8,1,-0.207589,1.554,0.566768,0.370653,-0.323036,0.0128508,0.0734329,0.800431,0.002563,0.0200439,3.1385,5,0.1,9,1,-2.24345,-2.56029,0.644414,0.738537,0.230998,-0.0331119,0.0211,-0.450969,0.00110269,0.00905136,0.374861,5,0.1,10,1,3.88024,-5.11476,0.660055,-0.369078,0.660968,-0.0215128,-0.0807047,-0.976562,-0.00470877,0.0332683,2.68467,5,0.1,11,1,-3.29966,4.23383,0.596001,-0.488567,-0.000739098,0.0500217,0.0107288,0.000238419,-0.00104308,0.0154401,0.183487,5,0.1,12,1,-2.9837,1.92593,0.648157,0.860059,-0.203776,-0.0355676,-0.119209,0.00447035,0.000804663,0.011425,0.842463,5,0.1,13,1,0.774671,-3.79452,0.55826,0.139959,0.864512,0.0281945,-0.606239,-0.0303984,0.00405312,0.0186842,2.19175,5,0.1,14,1,3.77839,-1.14798,0.560718,-0.257373,-0.8627,0.0290141,-0.100136,0.0664592,-0.000625849,0.00814215,1.03377,5,0.1,15,1,0.536596,-5.14116,0.620836,-0.0656977,0.866032,-0.00355244,-0.0143647,-0.000238419,-0.000745058,0.0254486,2.26892,5,0.1,16,1,4.81327,0.868725,0.550732,-0.4529,-0.510651,0.0363842,0.0100136,0.148088,-0.000745058,0.0554216,0.406822,5,0.1,17,1,-1.18952,-0.734124,0.500614,0.567746,0.59159,-0.00435561,-0.326633,-0.604361,0.0204742,0.0129513,1.03206,5,0.1,18,1,0.179141,-2.40659,0.613133,-0.257888,0.226349,-0.00969023,-0.100098,-0.00500679,0.000238419,0.0130316,0.153166,5,0.1,19,1,-2,-2.80414,0.655346,-0.371355,-0.245273,-0.04742,-0.224829,-0.0447035,-0.00864267,0.00754407,0.612318,5,0.1
0,1.1,0.15064,2.6522,0.569857,0.103613,-0.866026,0.00695428,0.0256803,0,0.00170991,0.0114799,2.26485,5,0.1,1,1.1,3.68476,-4.08265,0.710579,0.0518236,-0.180887,0.0312928,-0.00540912,0.320524,-0.00323355,0.00760743,1.48199,5,0.1,2,1.1,1.2323,4.78633,0.815383,-0.0256302,-0.346348,0.42436,0.00265986,0.0356734,-0.0437759,0.0507604,0.230764,5,0.1,3,1.1,-2.79066,-3.12255,0.58265,-0.866026,0.255902,-0.0143294,0,0.0617951,-0.0034757,0.0101421,2.22952,5,0.1,4,1.1,0.223571,-1.49914,0.629924,0.536922,-0.715034,-0.0237579,-0.0553679,0.0737384,0.00246614,0.0104087,0.614095,5,0.1,5,1.1,-0.919654,-0.267946,0.57313,0.373791,0.0366523,-0.0435833,0.159483,0.0156518,-0.0185892,0.00938462,0.129657,5,0.1,6,1.1,-1.82182,-4.73624,0.669353,0.00485312,0.864552,0.184702,0.00122935,-0.0477433,0.0459775,0.031151,2.2863,5,0.1,7,1.1,0.41331,2.94883,0.551249,-0.62331,-0.270926,0.0377043,0.00687137,-0.00452995,-0.00301376,0.00818986,0.462223,5,0.1,8,1.1,-0.170102,1.52525,0.568068,0.379109,-0.259421,0.0131458,0.0751978,0.368729,0.0026226,0.0200439,3.1385,5,0.1,9,1.1,-2.16966,-2.53956,0.64111,0.735049,0.182916,-0.0329238,-0.110269,-0.49828,0.00384822,0.00905136,0.374861,5,0.1,10,1.1,3.84286,-5.05358,0.657876,-0.378774,0.565945,-0.0220786,-0.0914484,-0.790179,-0.00533089,0.0332683,2.68467,5,0.1,11,1.1,-3.34844,4.23375,0.600996,-0.486411,-0.000718236,0.0498052,0.0502765,0.000178814,-0.00512227,0.0154401,0.183487,5,0.1,12,1.1,-2.89808,1.90559,0.644606,0.853395,-0.202877,-0.0354087,-0.0582188,0.0209659,0.00367314,0.011425,0.842463,5,0.1,13,1.1,0.785699,-3.70808,0.561099,0.0823037,0.864631,0.0285425,-0.505995,-0.00269711,0.00171736,0.0186842,2.19175,5,0.1,14,1.1,3.75211,-1.23416,0.563615,-0.268329,-0.86209,0.0288866,-0.102803,-0.00656396,-0.00298768,0.00814215,1.03377,5,0.1,15,1.1,0.529941,-5.05456,0.620477,-0.0674572,0.866023,-0.00364436,-0.0168681,2.98023e-05,-0.000882894,0.0254486,2.26892,5,0.1,16,1.1,4.76805,0.819009,0.554365,-0.450895,-0.478576,0.0362279,0.0467002,0.454526,-0.00371039,0.0554216,0.406822,5,0.1,17,1.1,-1.13457,-0.678107,0.500274,0.529164,0.527621,-0.0025331,-0.445291,-0.672665,0.0158362,0.0129513,1.03206,5,0.1,18,1.1,0.152804,-2.38399,0.612166,-0.268905,0.22535,-0.00964571,-0.103902,-0.0232607,0.00100583,0.0130316,0.153166,5,0.1,19,1.1,-2.03673,-2.82905,0.650686,-0.349886,-0.254047,-0.0446796,0.579,-0.10924,0.0576898,0.00754407,0.612318,5,0.1
0,1.2,0.161096,2.5656,0.570558,0.105036,-0.866026,0.00704825,-0.00143051,0,-8.9407e-05,0.00948109,2.26469,5,0.1,1,1.2,3.6899,-4.1,0.71368,0.0506639,-0.174522,0.0305936,-0.0191927,-0.169516,-0.0114739,0.0100545,1.27169,5,0.1,2,1.2,1.22976,4.75201,0.857439,-0.0250578,-0.338638,0.41489,0.00941753,0.127554,-0.155866,0.0529185,0.153445,5,0.1,3,1.2,-2.87726,-3.09673,0.581205,-0.866026,0.259227,-0.0145167,0,-0.00548363,0.000298023,0.00977938,2.22892,5,0.1,4,1.2,0.276783,-1.57001,0.62757,0.524943,-0.699082,-0.0232249,-0.197202,0.262618,0.00870228,0.00953437,0.408348,5,0.1,5,1.2,-0.881653,-0.26422,0.568699,0.3841,0.0376642,-0.0447854,0.0323355,0.00318885,-0.00372529,0.00939007,0.0710342,5,0.1,6,1.2,-1.82133,-4.65028,0.687992,0.00492334,0.851345,0.187261,-0.000119209,-0.249624,-0.00232458,0.0228845,2.62389,5,0.1,7,1.2,0.351226,2.9218,0.554991,-0.615767,-0.268811,0.0369608,0.162914,0.0565052,-0.0127852,0.0104761,0.319376,5,0.1,8,1.2,-0.131949,1.5,0.569391,0.382231,-0.256667,0.0132561,-0.0268853,-0.284195,-0.00089407,0.0189733,2.89373,5,0.1,9,1.2,-2.09705,-2.52375,0.637849,0.71336,0.133514,-0.0321448,-0.335336,-0.480413,0.012517,0.00812809,0.48482,5,0.1,10,1.2,3.80465,-5,0.655649,-0.383675,0.515127,-0.0223652,0.00870228,-0.237703,0.000536442,0.0352836,2.65511,5,0.1,11,1.2,-3.39665,4.23368,0.605932,-0.475556,-0.000691414,0.0486955,0.178814,0.000238419,-0.0183284,0.00869736,0.122015,5,0.1,12,1.2,-2.81322,1.88548,0.641097,0.84092,-0.198346,-0.0346154,-0.221968,0.0745058,0.0129938,0.0131999,0.594919,5,0.1,13,1.2,0.791811,-3.62184,0.56395,0.0445187,0.857359,0.0283375,-0.232995,-0.173211,-0.00655651,0.0113841,1.84524,5,0.1,14,1.2,3.72487,-1.32021,0.566478,-0.275195,-0.855902,0.0282422,-0.0231266,0.163674,-0.0106096,0.00900438,0.757928,5,0.1,15,1.2,0.523133,-4.96796,0.620109,-0.0684008,0.866032,-0.00369251,0.000745058,-0.000238419,5.96046e-05,0.0267352,2.26916,5,0.1,16,1.2,4.72337,0.77368,0.557956,-0.440824,-0.426118,0.0354201,0.165462,0.569791,-0.013262,0.0515661,0.304804,5,0.1,17,1.2,-1.08408,-0.628802,0.500091,0.478813,0.457603,-0.0012055,-0.560105,-0.724614,0.0107288,0.00928165,1.14513,5,0.1,18,1.2,0.125498,-2.36165,0.61121,-0.275898,0.220317,-0.00942945,-0.0245905,-0.082612,0.00351667,0.0111161,0.216303,5,0.1,19,1.2,-2.06801,-2.85496,0.646576,-0.269127,-0.263411,-0.036931,0.97549,-0.0625849,0.0926554,0.00989059,0.249325,5,0.1
0,1.3,0.171622,2.479,0.571265,0.105644,-0.866026,0.00708941,0.00754371,0,0.000506639,0.00948109,2.26469,5,0.1,1,1.3,3.69487,-4.11928,0.716683,0.0487685,-0.218885,0.0294589,-0.0202954,-0.643998,-0.0121705,0.0100545,1.27169,5,0.1,2,1.3,1.2273,4.71877,0.898166,-0.0241274,-0.326034,0.399482,0.00996143,0.135005,-0.165183,0.0529185,0.153445,5,0.1,3,1.3,-2.96386,-3.07077,0.579751,-0.866026,0.260391,-0.0145829,0,0.0142008,-0.000808388,0.00977938,2.22892,5,0.1,4,1.3,0.328312,-1.63863,0.62529,0.505448,-0.673122,-0.0223642,-0.208996,0.278309,0.00923127,0.00953437,0.408348,5,0.1,5,1.3,-0.843136,-0.260443,0.564209,0.385336,0.0377869,-0.0449258,-0.0205785,-0.00200793,0.00243261,0.00939007,0.0710342,5,0.1,6,1.3,-1.82084,-4.56747,0.706761,0.00494793,0.795626,0.188379,0.000327826,-0.80952,0.0138506,0.0228845,2.62389,5,0.1,7,1.3,0.290415,2.89516,0.558625,-0.600352,-0.263881,0.0357081,0.168092,0.053212,-0.0134744,0.0104761,0.319376,5,0.1,8,1.3,-0.0937866,1.4715,0.570715,0.381274,-0.324611,0.0132265,-0.0113763,-0.966862,-0.000365078,0.0189733,2.89373,5,0.1,9,1.3,-2.02726,-2.51272,0.634696,0.683066,0.0880793,-0.0309072,-0.29707,-0.42057,0.0132211,0.00812809,0.48482,5,0.1,10,1.3,3.76657,-4.9484,0.653403,-0.375517,0.527325,-0.0226281,0.154167,0.387639,-0.00416115,0.0352836,2.65511,5,0.1,11,1.3,-3.44333,4.23361,0.610712,-0.457884,-0.000667572,0.0468838,0.189424,0.000238419,-0.0194199,0.00869736,0.122015,5,0.1,12,1.3,-2.7301,1.86601,0.637699,0.821955,-0.190981,-0.0333307,-0.192881,0.0789687,0.0137761,0.0131999,0.594919,5,0.1,13,1.3,0.795488,-3.53683,0.566752,0.0343294,0.843256,0.0276776,0.0774302,-0.146613,-0.00761449,0.0113841,1.84524,5,0.1,14,1.3,3.69764,-1.40512,0.56925,-0.265801,-0.842845,0.0271932,0.197336,0.135675,-0.0112467,0.00900438,0.757928,5,0.1,15,1.3,0.516277,-4.88135,0.619691,-0.0688259,0.866023,-0.00508549,-0.00526756,2.98023e-05,-0.0246577,0.0267352,2.26916,5,0.1,16,1.3,4.6801,0.73405,0.561433,-0.424467,-0.36654,0.034108,0.175416,0.571158,-0.0140816,0.0515661,0.304804,5,0.1,17,1.3,-1.03908,-0.586369,0.500016,0.420333,0.393647,-0.000381656,-0.606164,-0.569373,0.00591576,0.00928165,1.14513,5,0.1,18,1.3,0.098134,-2.3399,0.610279,-0.268257,0.215835,-0.00923984,0.162992,-0.0221878,0.000931323,0.0111161,0.216303,5,0.1,19,1.3,-2.09024,-2.882,0.643366,-0.177464,-0.280172,-0.0271364,0.850692,-0.235856,0.100616,0.00989059,0.249325,5,0.1
0,1.4,0.182199,2.3924,0.571975,0.105514,-0.866026,0.00708103,-0.0144094,0,-0.000983477,0.011311,2.26722,5,0.1,1,1.4,3.69963,-4.14467,0.719561,0.0463426,-0.290334,0.0280008,-0.0292063,-0.728607,-0.0175834,0.00879256,1.08125,5,0.1,2,1.4,1.22495,4.68692,0.937187,-0.0229329,-0.309873,0.379711,0.0143647,0.194788,-0.238776,0.0439268,0.101005,5,0.1,3,1.4,-3.05047,-3.04472,0.578292,-0.866026,0.25959,-0.0145391,0,-0.0404119,0.00226498,0.00771828,2.23019,5,0.1,4,1.4,0.377685,-1.70438,0.623106,0.480433,-0.639808,-0.021258,-0.302106,0.402212,0.0133514,0.00937503,0.268786,5,0.1,5,1.4,-0.804879,-0.256691,0.559748,0.377859,0.0370555,-0.0440508,-0.13724,-0.0134706,0.0160038,0.00885548,0.047862,5,0.1,6,1.4,-1.82034,-4.49251,0.725622,0.00493824,0.699115,0.18819,-0.000596046,-1.07908,-0.0253022,0.0258159,2.95257,5,0.1,7,1.4,0.23138,2.86911,0.562119,-0.578352,-0.256294,0.0340641,0.287189,0.105977,-0.0201762,0.00812881,0.216199,5,0.1,8,1.4,-0.0558184,1.43381,0.572032,0.376721,-0.431049,0.0130698,-0.0929242,-1.07974,-0.00315905,0.0162595,2.55358,5,0.1,9,1.4,-1.96056,-2.50587,0.631679,0.649476,0.0506222,-0.0293374,-0.392914,-0.324368,0.0188649,0.00732703,0.378722,5,0.1,10,1.4,3.73003,-4.89333,0.651123,-0.353056,0.576115,-0.0229165,0.293136,0.516891,-0.000476837,0.0332403,2.82575,5,0.1,11,1.4,-3.48805,4.23355,0.615291,-0.435215,-0.000631809,0.0445619,0.273705,0.000238419,-0.0280738,0.00861152,0.13679,5,0.1,12,1.4,-2.64906,1.84735,0.634443,0.796354,-0.181529,-0.0316814,-0.34368,0.114143,0.019908,0.0128627,0.410202,5,0.1,13,1.4,0.8,-3.45345,0.569473,0.0623986,0.821656,0.0266522,0.459641,-0.311017,-0.0135601,0.0119279,1.48446,5,0.1,14,1.4,3.67231,-1.48852,0.571906,-0.238276,-0.822315,0.0258461,0.341058,0.301242,-0.0162423,0.00893463,0.324436,5,0.1,15,1.4,0.509384,-4.79475,0.61904,-0.0687793,0.866032,-0.00804514,0.0090003,-0.000238419,-0.0320077,0.0212116,2.26895,5,0.1,16,1.4,4.63863,0.7,0.564764,-0.403464,-0.317135,0.0324205,0.253677,0.415057,-0.020355,0.0471932,0.231256,5,0.1,17,1.4,-1.00013,-0.549694,0.500001,0.35826,0.341126,2.08616e-05,-0.631928,-0.492156,0.00232458,0.0122819,1.02415,5,0.1,18,1.4,0.0723363,-2.31843,0.60936,-0.245852,0.213259,-0.00913143,0.273995,-0.0401735,0.00169873,0.0101069,0.172946,5,0.1,19,1.4,-2.10398,-2.91123,0.641151,-0.100148,-0.304186,-0.017269,0.691295,-0.216961,0.0947118,0.0106111,3.4892,5,0.1
0,1.5,0.192653,2.30579,0.572681,0.103277,-0.866026,0.00705775,-0.0325385,0,8.9407e-05,0.011311,2.26722,5,0.1,1,1.5,3.70445,-4.17707,0.722339,0.052844,-0.354553,0.0280932,0.137299,-0.539273,0.0147074,0.00879256,1.08125,5,0.1,2,1.5,1.22272,4.65687,0.97401,-0.021562,-0.291293,0.356936,0.0136942,0.185639,-0.227526,0.0439268,0.101005,5,0.1,3,1.5,-3.13707,-3.01888,0.576845,-0.866026,0.257662,-0.0144312,0,-0.012517,0.000700355,0.00771828,2.23019,5,0.1,4,1.5,0.424276,-1.76643,0.621044,0.451616,-0.601442,-0.0199841,-0.287881,0.383295,0.012733,0.00937503,0.268786,5,0.1,5,1.5,-0.767743,-0.253049,0.555419,0.364855,0.0357793,-0.0425342,-0.136752,-0.0134176,0.015948,0.00885548,0.047862,5,0.1,6,1.5,-1.81985,-4.42854,0.744379,0.00492074,0.577203,0.187319,-2.98023e-05,-1.2655,-0.00292808,0.0258159,2.95257,5,0.1,7,1.5,0.174911,2.84398,0.565429,-0.551227,-0.246455,0.0321438,0.274006,0.0999123,-0.0192337,0.00812881,0.216199,5,0.1,8,1.5,-0.0185172,1.38472,0.573326,0.369772,-0.554313,0.012834,-0.0641686,-1.29858,-0.00218302,0.0162595,2.55358,5,0.1,9,1.5,-1.89745,-2.50229,0.628836,0.61335,0.0225354,-0.0275386,-0.351407,-0.227854,0.0179335,0.00732703,0.378722,5,0.1,10,1.5,3.69652,-4.8338,0.648685,-0.314062,0.607801,-0.0270128,0.470683,0.120312,-0.071466,0.0332403,2.82575,5,0.1,11,1.5,-3.53049,4.23349,0.619636,-0.415589,-0.000616908,0.0425477,0.145838,0.000119209,-0.0149757,0.00861152,0.13679,5,0.1,12,1.5,-2.57102,1.82975,0.631371,0.764873,-0.170641,-0.0297824,-0.314906,0.108778,0.0189766,0.0128627,0.410202,5,0.1,13,1.5,0.809312,-3.37272,0.572073,0.129902,0.793269,0.0253509,0.825118,-0.287414,-0.0132807,0.0119279,1.48446,5,0.1,14,1.5,3.65036,-1.5692,0.574413,-0.199356,-0.79046,0.0242964,0.425562,0.357017,-0.015486,0.00893463,0.324436,5,0.1,15,1.5,0.502527,-4.70815,0.618104,-0.0685058,0.866023,-0.0103933,0.0004787,2.98023e-05,-0.0154786,0.0212116,2.26895,5,0.1,16,1.5,4.59951,0.669952,0.567909,-0.379266,-0.287261,0.030478,0.241756,0.208296,-0.0194125,0.0471932,0.231256,5,0.1,17,1.5,-0.96738,-0.517593,0.500011,0.297622,0.304705,0.000158604,-0.581268,-0.26325,0.000569969,0.0122819,1.02415,5,0.1,18,1.5,0.0493586,-2.29726,0.608453,-0.212109,0.210137,-0.00899965,0.370889,-0.0320673,0.00135228,0.0101069,0.172946,5,0.1,19,1.5,-2.11295,-2.9425,0.639777,-0.0998326,-0.318861,-0.0112712,-0.550121,-0.0722855,0.0306368,0.0106111,3.4892,5,0.1
0,1.6,0.202774,2.21919,0.573386,0.0986546,-0.866026,0.00702292,-0.061214,0,-0.00104308,0.0090404,2.2677,5,0.1,1,1.6,3.71055,-4.2148,0.725243,0.0699043,-0.395536,0.0301093,0.187278,-0.270367,0.0220537,0.00742928,0.958406,5,0.1,2,1.6,1.22064,4.62871,1.00851,-0.0200838,-0.271273,0.332403,0.0163317,0.220537,-0.270307,0.051588,0.118387,5,0.1,3,1.6,-3.22367,-2.99323,0.575408,-0.866026,0.254643,-0.0142619,0,-0.0579357,0.00321865,0.00787639,2.23237,5,0.1,4,1.6,0.467931,-1.82457,0.619112,0.420577,-0.560114,-0.0186101,-0.342041,0.455499,0.0151098,0.00847261,0.176664,5,0.1,5,1.6,-0.732033,-0.249548,0.551256,0.348198,0.0341453,-0.0405923,-0.205606,-0.0201613,0.0239909,0.00831228,0.0195554,5,0.1,6,1.6,-1.81936,-4.37687,0.76306,0.0048846,0.460303,0.185758,-0.000953674,-1.02329,-0.0359118,0.019437,3.09588,5,0.1,7,1.6,0.121261,2.81988,0.568542,-0.520417,-0.234789,0.0300497,0.354804,0.139713,-0.023365,0.00808516,0.144707,5,0.1,8,1.6,0.0180653,1.32303,0.574596,0.360812,-0.675735,0.0125259,-0.127653,-1.06657,-0.00441074,0.0119179,2.30909,5,0.1,9,1.6,-1.83795,-2.50096,0.626176,0.575525,0.00622869,-0.0256121,-0.420153,-0.0958443,0.0211596,0.00823528,0.296182,5,0.1,10,1.6,3.66765,-4.77305,0.645577,-0.261861,0.601161,-0.0354454,0.559807,-0.246763,-0.089556,0.0330337,3.11966,5,0.1,11,1.6,-3.57135,4.23342,0.623819,-0.401384,-0.000607967,0.04109,0.157714,0.000238419,-0.0161827,0.00861853,0.0792638,5,0.1,12,1.6,-2.49626,1.81326,0.628492,0.7285,-0.158915,-0.0277355,-0.432253,0.129282,0.0225306,0.0110702,0.479242,5,0.1,13,1.6,0.826588,-3.295,0.574537,0.21594,0.759006,0.0238612,0.846207,-0.418663,-0.0170171,0.0115791,1.14438,5,0.1,14,1.6,3.63261,-1.64623,0.576761,-0.155276,-0.747445,0.0226274,0.446439,0.516713,-0.0184178,0.00863913,0.214601,5,0.1,15,1.6,0.495692,-4.62155,0.617011,-0.0680007,0.866032,-0.0112444,0.0124574,-0.000238419,-0.00205636,0.0249375,2.34911,5,0.1,16,1.6,4.56284,0.642101,0.570855,-0.353193,-0.270927,0.0283837,0.287056,0.138044,-0.023067,0.047835,0.169255,5,0.1,17,1.6,-0.940442,-0.488243,0.500028,0.241946,0.283724,0.000159442,-0.532389,-0.176966,-0.000476837,0.00832999,0.896415,5,0.1,18,1.6,0.029974,-2.27646,0.607562,-0.176307,0.205189,-0.0087887,0.328797,-0.0735521,0.00309944,0.0101356,0.136677,5,0.1,19,1.6,-2.12682,-2.97449,0.638734,-0.186086,-0.318074,-0.0101686,-1.06895,0.0892878,-0.00426173,0.010621,2.92653,5,0.1
0,1.7,0.212348,2.13259,0.574086,0.0928969,-0.866026,0.00699274,-0.0569411,0,7.45058e-06,0.0090404,2.2677,5,0.1,1,1.7,3.71877,-4.25564,0.728451,0.0967227,-0.419962,0.0347213,0.322133,-0.198543,0.0628568,0.00742928,0.958406,5,0.1,2,1.7,1.2187,4.6027,1.04063,-0.018831,-0.248741,0.311667,0.00989437,0.233591,-0.163905,0.051588,0.118387,5,0.1,3,1.7,-3.31027,-2.96797,0.573993,-0.866026,0.251174,-0.0140698,0,-0.0255108,0.00141189,0.00787639,2.23237,5,0.1,4,1.7,0.508359,-1.87841,0.617323,0.388513,-0.517413,-0.0171931,-0.310743,0.41382,0.0137426,0.00847261,0.176664,5,0.1,5,1.7,-0.698266,-0.246236,0.54732,0.326727,0.0320399,-0.0380875,-0.230327,-0.0225836,0.0268631,0.00831228,0.0195554,5,0.1,6,1.7,-1.81887,-4.33554,0.781525,0.00483561,0.373522,0.183929,-0.000305474,-0.599653,-0.011269,0.019437,3.09588,5,0.1,7,1.7,0.0709047,2.79706,0.571436,-0.487201,-0.221761,0.0278604,0.325103,0.128329,-0.0212677,0.00808516,0.144707,5,0.1,8,1.7,0.0536216,1.25034,0.575831,0.350991,-0.774618,0.0121864,-0.0864388,-0.86388,-0.00299141,0.0119179,2.30909,5,0.1,9,1.7,-1.78237,-2.50064,0.623715,0.536793,0.00230707,-0.0236295,-0.372544,0.0313073,0.0191852,0.00823528,0.296182,5,0.1,10,1.7,3.64432,-4.71474,0.641239,-0.204465,0.559906,-0.0541232,0.577196,-0.558883,-0.25801,0.0330337,3.11966,5,0.1,11,1.7,-3.6108,4.23337,0.627857,-0.388095,-0.000587851,0.0397263,0.125617,0.000149012,-0.0128821,0.00861853,0.0792638,5,0.1,12,1.7,-2.42529,1.79782,0.625826,0.692886,-0.151241,-0.0256229,-0.313774,0.0384226,0.0204742,0.0110702,0.479242,5,0.1,13,1.7,0.852651,-3.22107,0.576842,0.306439,0.720152,0.0222578,0.914317,-0.383675,-0.0157319,0.0115791,1.14438,5,0.1,14,1.7,3.61928,-1.71846,0.578936,-0.111769,-0.697201,0.0209006,0.416905,0.506245,-0.0167303,0.00863913,0.214601,5,0.1,15,1.7,0.488927,-4.53551,0.615991,-0.067449,0.849858,-0.0081921,0.00258908,-0.290632,0.0564083,0.0249375,2.34911,5,0.1,16,1.7,4.52889,0.615483,0.573583,-0.32628,-0.263069,0.0262206,0.26089,0.0393242,-0.0209734,0.047835,0.169255,5,0.1,17,1.7,-0.918672,-0.460282,0.500041,0.195618,0.279295,9.97446e-05,-0.402585,0.0526197,-0.000681728,0.00832999,0.896415,5,0.1,18,1.7,0.0138948,-2.25631,0.606699,-0.147079,0.197734,-0.00847336,0.224544,-0.0816733,0.00346452,0.0101356,0.136677,5,0.1,19,1.7,-2.15178,-3.00578,0.637638,-0.320507,-0.307055,-0.0122256,-1.51601,0.136986,-0.0326894,0.010621,2.92653,5,0.1
0,1.8,0.22134,2.04599,0.574784,0.0867631,-0.866026,0.00695288,-0.0677705,0,-0.00116229,0.00825768,2.47954,5,0.1,1,1.8,3.73009,-4.29837,0.732255,0.12961,-0.432003,0.0413954,0.315189,-0.0288486,0.0651479,0.00868572,0.787661,5,0.1,2,1.8,1.21686,4.57904,1.07102,-0.0178993,-0.22403,0.29625,0.00959635,0.262737,-0.158608,0.046396,0.221565,5,0.1,3,1.8,-3.39688,-2.94302,0.572595,-0.866026,0.247151,-0.0138462,0,-0.0650883,0.00363588,0.00768242,2.23491,5,0.1,4,1.8,0.545632,-1.92805,0.615674,0.356497,-0.474778,-0.0157773,-0.337392,0.4493,0.014931,0.00846849,0.190123,5,0.1,5,1.8,-0.666828,-0.243153,0.543655,0.301097,0.029527,-0.0350982,-0.286072,-0.0280589,0.0333488,0.00887469,0.263211,5,0.1,6,1.8,-1.81839,-4.3,0.799831,0.00477731,0.348926,0.181694,-0.00113249,0.0803471,-0.0409186,0.0205607,2.89483,5,0.1,7,1.8,0.0238645,2.77556,0.574113,-0.452781,-0.207859,0.0256553,0.373874,0.154734,-0.0234246,0.00819229,0.0964456,5,0.1,8,1.8,0.0882383,1.16919,0.577033,0.340517,-0.841329,0.0118226,-0.135467,-0.445724,-0.00467896,0.00904947,2.2253,5,0.1,9,1.8,-1.7306,-2.5,0.621449,0.497967,0.0129104,-0.0216573,-0.416398,0.171065,0.0207424,0.00826103,0.227587,5,0.1,10,1.8,3.62671,-4.66192,0.634435,-0.148332,0.49305,-0.0824645,0.537276,-0.761271,-0.288904,0.00581686,0.712518,5,0.1,11,1.8,-3.64891,4.23331,0.631758,-0.373286,-0.000560284,0.0382081,0.182748,0,-0.0187159,0.0117174,0.0601291,5,0.1,12,1.8,-2.3576,1.78284,0.623367,0.659978,-0.148746,-0.0235125,-0.368595,0.0221133,0.0222325,0.0102766,0.343518,5,0.1,13,1.8,0.887645,-3.15108,0.578986,0.390297,0.678033,0.0206009,0.727236,-0.476122,-0.0178218,0.0117542,0.849591,5,0.1,14,1.8,3.6101,-1.78554,0.580941,-0.0730276,-0.6432,0.0191778,0.353217,0.585675,-0.0181794,0.00942337,1.87251,5,0.1,15,1.8,0.482206,-4.45226,0.615505,-0.0667967,0.812662,-0.00115782,0.0132918,-0.437975,0.0789464,0.0251602,2.46782,5,0.1,16,1.8,4.49759,0.589345,0.576099,-0.299406,-0.25956,0.0240609,0.28348,0.0456572,-0.0227988,0.0457584,0.122777,5,0.1,17,1.8,-0.900965,-0.431953,0.500048,0.159921,0.287978,2.98023e-05,-0.317991,0.094071,-0.000685453,0.0105288,0.758832,5,0.1,18,1.8,0,-2.237,0.605871,-0.133837,0.187832,-0.0080511,0.0471315,-0.120163,0.0050962,0.0119026,0.149061,5,0.1,19,1.8,-2.19144,-3.03569,0.636234,-0.471216,-0.289744,-0.0159651,-1.42074,0.21255,-0.0389516,0.00804994,2.53295,5,0.1
0,1.9,0.22971,1.96008,0.575476,0.0808763,-0.845542,0.00691144,-0.0534253,0.399165,-9.31323e-05,0.00825768,2.47954,5,0.1,1,1.9,3.74456,-4.342,0.736733,0.158785,-0.442433,0.0481754,0.254363,-0.145346,0.0652783,0.00868572,0.787661,5,0.1,2,1.9,1.21511,4.5581,1.09994,-0.0170819,-0.193559,0.282742,0.00751019,0.337929,-0.124291,0.046396,0.221565,5,0.1,3,1.9,-3.48348,-2.91853,0.571224,-0.866026,0.243032,-0.0136162,0,-0.0309199,0.00173226,0.00768242,2.23491,5,0.1,4,1.9,0.579843,-1.9734,0.614166,0.329684,-0.433151,-0.0143938,-0.218444,0.39614,0.0131726,0.00846849,0.190123,5,0.1,5,1.9,-0.63777,-0.239797,0.540484,0.283149,0.0421373,-0.026862,-0.100285,0.245412,0.120815,0.00887469,0.263211,5,0.1,6,1.9,-1.81792,-4.26321,0.817862,0.00471082,0.398929,0.179344,-0.000469387,0.809163,-0.0163056,0.0205607,2.89483,5,0.1,7,1.9,-0.0196448,2.75551,0.576568,-0.418076,-0.193492,0.0234845,0.333252,0.138849,-0.0207014,0.00819229,0.0964456,5,0.1,8,1.9,0.12174,1.08362,0.578196,0.330356,-0.863879,0.0114714,-0.0852821,-0.0737943,-0.0029467,0.00904947,2.2253,5,0.1,9,1.9,-1.68276,-2.49758,0.619382,0.459669,0.0376448,-0.0197367,-0.364594,0.300616,0.0182576,0.00826103,0.227587,5,0.1,10,1.9,3.61445,-4.6176,0.624895,-0.0984035,0.383461,-0.106748,0.455886,-1.35186,-0.194162,0.00581686,0.712518,5,0.1,11,1.9,-3.68546,4.23325,0.635499,-0.358392,-0.000559539,0.0366825,0.13341,2.98023e-05,-0.0136681,0.0117174,0.0601291,5,0.1,12,1.9,-2.29325,1.76798,0.621121,0.628188,-0.149023,-0.0214524,-0.294477,-0.0165403,0.0196137,0.0102766,0.343518,5,0.1,13,1.9,0.930315,-3.08552,0.580962,0.462178,0.633868,0.018942,0.67234,-0.428095,-0.0159293,0.0117542,0.849591,5,0.1,14,1.9,3.60451,-1.84784,0.582773,-0.0396486,-0.610101,0.0174937,0.302896,0.141181,-0.0160225,0.00942337,1.87251,5,0.1,15,1.9,0.475565,-4.37368,0.615722,-0.0661956,0.757778,0.00493731,0.00273995,-0.522822,0.0444576,0.0251602,2.46782,5,0.1,16,1.9,4.46899,0.563508,0.578397,-0.273144,-0.257881,0.0219486,0.249922,0.00383332,-0.0200979,0.0457584,0.122777,5,0.1,17,1.9,-0.88624,-0.402313,0.500048,0.137372,0.307557,-2.77534e-05,-0.150055,0.25972,-0.000469387,0.0105288,0.758832,5,0.1,18,1.9,-0.0134073,-2.21878,0.60509,-0.136345,0.176783,-0.00758143,-0.0755596,-0.107393,0.00457093,0.0119026,0.149061,5,0.1,19,1.9,-2.246,-3.06363,0.634418,-0.6212,-0.269335,-0.0205013,-1.49569,0.202924,-0.0484176,0.00804994,2.53295,5,0.1
0,2,0.237531,1.8781,0.576166,0.075487,-0.788406,0.00686198,-0.0568181,0.731945,-0.00116229,0.0104587,2.90639,5,0.1,1,2,3.76152,-4.38693,0.741843,0.178248,-0.455105,0.0535861,0.126481,-0.0827312,0.0394881,0.00970201,0.630107,5,0.1,2,2,1.21344,4.54049,1.12757,-0.0162661,-0.158036,0.269225,0.00935793,0.365734,-0.155032,0.0470334,0.215823,5,0.1,3,2,-3.57008,-2.89442,0.569873,-0.866026,0.238633,-0.0133708,0,-0.066638,0.00375509,0.00754479,1.79878,5,0.1,4,2,0.611784,-2.01474,0.612793,0.309412,-0.393367,-0.0130713,-0.201374,0.40853,0.0135899,0.00879231,0.134344,5,0.1,5,2,-0.609834,-0.234142,0.538475,0.276244,0.0724271,-0.012818,-0.0583529,0.333406,0.151783,0.00633658,0.21468,5,0.1,6,2,-1.81745,-4.21882,0.835687,0.00464022,0.491261,0.176688,-0.0012517,0.953436,-0.0440776,0.0160614,2.56342,5,0.1,7,2,-0.0597667,2.73687,0.578813,-0.383932,-0.179034,0.0213936,0.358588,0.154495,-0.0215471,0.00759021,0.110669,5,0.1,8,2,0.154315,0.99707,0.579327,0.320464,-0.866026,0.0111282,-0.124991,0,-0.00432134,0.00977689,2.22962,5,0.1,9,2,-1.63863,-2.49225,0.617499,0.422505,0.0689924,-0.0179067,-0.389099,0.308633,0.0187457,0.00809636,0.170857,5,0.1,10,2,3.60672,-4.58646,0.613423,-0.0579655,0.236678,-0.120936,0.350118,-1.52183,-0.0885725,0.0070862,0.433167,5,0.1,11,2,-3.72059,4.2332,0.639094,-0.343496,-0.000548363,0.0351578,0.176907,0.000238419,-0.0181198,0.0073366,0.0268057,5,0.1,12,2,-2.23196,1.75301,0.619074,0.596452,-0.150144,-0.0194833,-0.359297,0.00214577,0.0202358,0.0103076,0.241559,5,0.1,13,2,0.979549,-3.02434,0.582776,0.518338,0.588882,0.0173196,0.424594,-0.485897,-0.0168979,0.0190277,0.604268,5,0.1,14,2,3.6019,-1.90844,0.584443,-0.0142038,-0.603583,0.0158846,0.199914,0.0380278,-0.0165105,0.0076557,3.02366,5,0.1,15,2,0.468969,-4.3,0.616392,-0.0655621,0.721335,0.00801831,0.0127554,-0.210524,0.018537,0.0261267,2.45357,5,0.1,16,2,4.44292,0.537777,0.580491,-0.248039,-0.256072,0.0199303,0.257492,0.0436902,-0.0207126,0.0458605,0.151343,5,0.1,17,2,-0.873092,-0.370241,0.500043,0.126877,0.333352,-6.55651e-05,-0.0731051,0.228256,-0.000268221,0.0109684,0.615327,5,0.1,18,2,-0.027476,-2.20166,0.604356,-0.145182,0.16526,-0.00708848,-0.0852346,-0.127554,0.00542402,0.0103638,0.253028,5,0.1,19,2,-2.31516,-3.08952,0.632133,-0.756073,-0.247949,-0.0250682,-1.1425,0.229478,-0.0404716,0.00955136,2.33162,5,0.1
0,2.1,0.244833,1.80379,0.576849,0.0708394,-0.690658,0.00681849,-0.0397889,1.16149,-0.000115484,0.0104587,2.90639,5,0.1,1,2.1,3.77946,-4.43318,0.7473,0.175761,-0.472138,0.0546344,-0.154167,-0.216573,-0.0156164,0.00970201,0.630107,5,0.1,2,2.1,1.21187,4.52657,1.15366,-0.0152335,-0.120196,0.252115,0.0114739,0.378847,-0.189975,0.0470334,0.215823,5,0.1,3,2.1,-3.65668,-2.87083,0.568551,-0.866026,0.233395,-0.0130755,0,-0.0492185,0.00277534,0.00754479,1.79878,5,0.1,4,2.1,0.641867,-2.05215,0.61155,0.293336,-0.355859,-0.0118236,-0.135746,0.352517,0.0117235,0.00879231,0.134344,5,0.1,5,2.1,-0.582155,-0.22521,0.537975,0.280012,0.106062,0.00290014,0.10233,0.324689,0.156984,0.00633658,0.21468,5,0.1,6,2.1,-1.81699,-4.16428,0.853202,0.00456292,0.603777,0.17401,-0.000558794,1.20729,-0.0193566,0.0160614,2.56342,5,0.1,7,2.1,-0.0966576,2.7196,0.580861,-0.356204,-0.167338,0.0196991,0.218887,0.09045,-0.0135824,0.00759021,0.110669,5,0.1,8,2.1,0.185477,0.910467,0.580423,0.300363,-0.866026,0.0108184,-0.26964,3.72529e-06,-0.00248104,0.00977689,2.22962,5,0.1,9,2.1,-1.5982,-2.48373,0.615797,0.386857,0.1019,-0.0161865,-0.336416,0.332102,0.0161566,0.00809636,0.170857,5,0.1,10,2.1,3.60248,-4.57028,0.600762,-0.0287525,0.0886358,-0.133116,0.23517,-1.40885,-0.139546,0.0070862,0.433167,5,0.1,11,2.1,-3.75406,4.23314,0.64252,-0.325826,-0.000523776,0.0333483,0.185892,0.000268221,-0.0190325,0.0073366,0.0268057,5,0.1,12,2.1,-2.17397,1.73796,0.617221,0.564389,-0.151045,-0.0176253,-0.304177,-0.0113994,0.0174642,0.0103076,0.241559,5,0.1,13,2.1,1.03345,-2.96774,0.584428,0.558247,0.544012,0.0157615,0.343677,-0.42899,-0.0147447,0.0190277,0.604268,5,0.1,14,2.1,3.60152,-1.96928,0.585911,0.00590235,-0.618248,0.0131789,0.157773,-0.266023,-0.035394,0.0076557,3.02366,5,0.1,15,2.1,0.462449,-4.22774,0.617255,-0.0650077,0.733097,0.00896333,0.00229105,0.349164,0.00144914,0.0261267,2.45357,5,0.1,16,2.1,4.41922,0.512113,0.582396,-0.227661,-0.259281,0.0182908,0.16427,-0.0814069,-0.0132248,0.0458605,0.151343,5,0.1,17,2.1,-0.860341,-0.335568,0.500035,0.131659,0.361215,-8.25152e-05,0.138856,0.296392,-8.19564e-05,0.0109684,0.615327,5,0.1,18,2.1,-0.0421783,-2.18579,0.603675,-0.146608,0.151886,-0.00651823,0.0501736,-0.141427,0.00604615,0.0103638,0.253028,5,0.1,19,2.1,-2.39543,-3.11325,0.629414,-0.838856,-0.22732,-0.0293465,-0.522256,0.191331,-0.0422224,0.00955136,2.33162,5,0.1
0,2.2,0.251722,1.74083,0.577529,0.0668995,-0.566715,0.00676662,-0.041604,1.2728,-0.00119209,0.0142422,3.2459,5,0.1,1,2.2,3.79595,-4.48142,0.752614,0.151438,-0.491285,0.0510141,-0.314116,-0.136614,-0.0542104,0.00805846,0.476538,5,0.1,2,2.2,1.21041,4.51639,1.17785,-0.0139475,-0.0842929,0.230819,0.0143647,0.331402,-0.237346,0.0640574,0.394798,5,0.1,3,2.2,-3.74329,-2.84779,0.56726,-0.866026,0.226903,-0.0127107,0,-0.0882149,0.00494719,0.0121807,1.38647,5,0.1,4,2.2,0.670525,-2.08599,0.610425,0.279583,-0.321019,-0.0106633,-0.150561,0.352025,0.0116825,0.0103368,0.163964,5,0.1,5,2.2,-0.553589,-0.213093,0.53902,0.291248,0.13488,0.0176117,0.0991225,0.241444,0.133216,0.00672341,0.196642,5,0.1,6,2.2,-1.81654,-4.09805,0.87048,0.00448227,0.717211,0.171126,-0.00119209,0.996113,-0.0452697,0.0183772,2.33737,5,0.1,7,2.2,-0.13126,2.70329,0.582768,-0.336177,-0.159031,0.018461,0.198543,0.0836849,-0.0120997,0.0106031,0.219293,5,0.1,8,2.2,0.213978,0.823864,0.581491,0.267964,-0.866026,0.0105292,-0.371442,0,-0.00372529,0.00992197,2.26038,5,0.1,9,2.2,-1.5612,-2.47196,0.614258,0.353092,0.132424,-0.0145927,-0.347674,0.265718,0.0161231,0.00752541,0.215857,5,0.1,10,2.2,3.6006,-4.56807,0.586773,-0.0105381,-0.0399828,-0.14617,0.132084,-1.14226,-0.110298,0.0078378,0.424449,5,0.1,11,2.2,-3.78564,4.23309,0.645752,-0.30477,-0.000476837,0.0311926,0.24116,0,-0.0246763,0.008188,0.0101102,5,0.1,12,2.2,-2.1191,1.72283,0.615545,0.531858,-0.150937,-0.0158995,-0.3618,0.0197291,0.0174642,0.0110134,0.167078,5,0.1,13,2.2,1.09066,-2.91551,0.585931,0.582081,0.500131,0.0142902,0.11307,-0.460625,-0.0150502,0.0116545,0.415302,5,0.1,14,2.2,3.60257,-2.03249,0.587036,0.0111103,-0.645435,0.00919998,-0.0714064,-0.229716,-0.0424087,0.0102891,2.87902,5,0.1,15,2.2,0.455969,-4.15242,0.618138,-0.0644259,0.774264,0.00850856,0.0121593,0.401974,-0.00962615,0.023901,2.31666,5,0.1,16,2.2,4.39721,0.485749,0.584164,-0.212705,-0.267758,0.0170872,0.145197,-0.0686496,-0.0117123,0.0495562,0.095649,5,0.1,17,2.2,-0.846334,-0.298072,0.500027,0.149378,0.387029,-8.34465e-05,0.192702,0.196487,5.96046e-05,0.0102977,0.475328,5,0.1,18,2.2,-0.0564102,-2.17134,0.603055,-0.1364,0.136745,-0.00586957,0.147996,-0.162005,0.00694394,0.00991898,0.247894,5,0.1,19,2.2,-2.48102,-3.13503,0.626284,-0.864685,-0.208277,-0.033021,-0.0268221,0.195265,-0.0292361,0.0103237,2.25166,5,0.1
0,2.3,0.258239,1.69075,0.578202,0.0637088,-0.434924,0.00671651,-0.0258479,1.2778,-0.000208616,0.0142422,3.2459,5,0.1,1,2.3,3.80932,-4.53137,0.757406,0.114479,-0.5082,0.0444951,-0.409007,-0.169337,-0.074137,0.00805846,0.476538,5,0.1,2,2.3,1.20908,4.50965,1.19982,-0.012639,-0.0510067,0.209191,0.0122264,0.301421,-0.202067,0.0640574,0.394798,5,0.1,3,2.3,-3.82988,-2.8255,0.566011,-0.865795,0.21909,-0.0122726,0.00923872,-0.0770092,0.00432134,0.0121807,1.38647,5,0.1,4,2.3,0.698032,-2.1166,0.609409,0.272888,-0.293186,-0.00973921,-0.00907481,0.223354,0.00742078,0.0103368,0.163964,5,0.1,5,2.3,-0.523708,-0.198585,0.541426,0.308164,0.153371,0.0302133,0.207879,0.12741,0.115346,0.00672341,0.196642,5,0.1,6,2.3,-1.81609,-4.02177,0.887434,0.00441037,0.803268,0.16837,-0.000506639,0.694081,-0.019554,0.0183772,2.33737,5,0.1,7,2.3,-0.16384,2.68782,0.584553,-0.31486,-0.150192,0.0172311,0.232327,0.0960678,-0.0128448,0.0106031,0.219293,5,0.1,8,2.3,0.238754,0.737262,0.582532,0.226193,-0.866026,0.010318,-0.452998,3.72529e-06,-0.00118092,0.00992197,2.26038,5,0.1,9,2.3,-1.52741,-2.45715,0.612867,0.324329,0.165217,-0.0133173,-0.244267,0.361919,0.0102334,0.00752541,0.215857,5,0.1,10,2.3,3.60006,-4.5771,0.571768,-0.00134856,-0.13383,-0.152312,0.0571311,-0.741452,-0.013452,0.0078378,0.424449,5,0.1,11,2.3,-3.81489,4.23304,0.648746,-0.280058,-0.000466406,0.0286637,0.257164,0.000178814,-0.0263155,0.008188,0.0101102,5,0.1,12,2.3,-2.0676,1.70781,0.614037,0.49902,-0.149528,-0.0143078,-0.313178,0.0154376,0.0148229,0.0110134,0.167078,5,0.1,13,2.3,1.14939,-2.86766,0.587289,0.591504,0.45782,0.0129135,0.051342,-0.400186,-0.0128895,0.0116545,0.415302,5,0.1,14,2.3,3.60304,-2.09854,0.587732,-0.0062529,-0.677711,0.00464525,-0.341758,-0.360489,-0.0470132,0.0102891,2.87902,5,0.1,15,2.3,0.44956,-4.07276,0.618928,-0.063916,0.819607,0.00719847,0.00193715,0.447974,-0.0158586,0.023901,2.31666,5,0.1,16,2.3,4.37675,0.458563,0.585821,-0.195803,-0.276208,0.0160982,0.191927,-0.0831299,-0.00882521,0.0495562,0.095649,5,0.1,17,2.3,-0.830222,-0.258319,0.500019,0.174305,0.408056,-7.36676e-05,0.280753,0.19832,0.000130385,0.0102977,0.475328,5,0.1,18,2.3,-0.0691688,-2.15847,0.602502,-0.117562,0.120678,-0.00518011,0.22077,-0.160217,0.00688061,0.00991898,0.247894,5,0.1,19,2.3,-2.56757,-3.15499,0.622829,-0.865942,-0.191567,-0.0360847,-0.00335276,0.147685,-0.0293925,0.0103237,2.25166,5,0.1
0,2.4,0.264483,1.65313,0.578872,0.061103,-0.323811,0.00665635,-0.0288635,0.90313,-0.0012815,0.012699,3.31546,5,0.1,1,2.4,3.81868,-4.58287,0.761466,0.0724912,-0.519633,0.03656,-0.418425,-0.0369549,-0.0829399,0.00974549,0.351518,5,0.1,2,2.4,1.20787,4.50581,1.21974,-0.0114322,-0.0287414,0.189242,0.0121593,0.129461,-0.201762,0.0459793,0.511212,5,0.1,3,2.4,-3.91634,-2.80401,0.564808,-0.862336,0.209981,-0.011763,0.0739098,-0.111222,0.00625849,0.00800113,1.0383,5,0.1,4,2.4,0.725335,-2.14489,0.608469,0.273284,-0.273079,-0.00907183,-0.00199676,0.192642,0.0064373,0.0095631,0.0988636,5,0.1,5,2.4,-0.491884,-0.182805,0.544972,0.327413,0.160307,0.0401005,0.154302,0.0117272,0.0801086,0.00975502,0.187658,5,0.1,6,2.4,-1.81566,-3.93865,0.904151,0.00433624,0.852191,0.165556,-0.00107288,0.276566,-0.0436008,0.0177425,2.26334,5,0.1,7,2.4,-0.19408,2.67332,0.586208,-0.289008,-0.139344,0.015837,0.287205,0.122786,-0.0152886,0.00657425,0.369425,5,0.1,8,2.4,0.259049,0.650659,0.583557,0.179352,-0.866026,0.010176,-0.474915,0,-0.00214577,0.0100431,0.506419,5,0.1,9,2.4,-1.49614,-2.43886,0.611583,0.301343,0.19992,-0.0123963,-0.227809,0.311255,0.00879169,0.00836047,0.143947,5,0.1,10,2.4,3.60013,-4.59358,0.556623,0.00187159,-0.189745,-0.149117,0.0116825,-0.385046,0.0757575,0.00741825,0.468363,5,0.1,11,2.4,-3.84156,4.233,0.651476,-0.2527,-0.000441074,0.0258639,0.292301,0.000715256,-0.0298917,0.00694802,0.00510594,5,0.1,12,2.4,-2.01931,1.69298,0.612679,0.466138,-0.146672,-0.0128582,-0.357151,0.0466108,0.0144839,0.0100724,0.217172,5,0.1,13,2.4,1.20853,-2.82388,0.588517,0.588363,0.417614,0.0116423,-0.130117,-0.414133,-0.0127554,0.0118259,0.279091,5,0.1,14,2.4,3.6,-2.16796,0.587966,-0.0612199,-0.708038,9.08971e-05,-0.731349,-0.206113,-0.0428557,0.00825777,2.63451,5,0.1,15,2.4,0.443188,-3.98885,0.619564,-0.0633717,0.854844,0.00546873,0.0117123,0.223637,-0.0181794,0.0280294,2.29894,5,0.1,16,2.4,4.3582,0.430618,0.587386,-0.174534,-0.281464,0.0151917,0.231981,-0.00999868,-0.00977516,0.043475,0.0899197,5,0.1,17,2.4,-0.811412,-0.216691,0.500012,0.201179,0.422334,-5.96046e-05,0.23824,0.0693655,0.000178814,0.00950596,0.352309,5,0.1,18,2.4,-0.0797559,-2.14721,0.602019,-0.0936948,0.104576,-0.00448972,0.250071,-0.162363,0.00700355,0.0104732,0.246594,5,0.1,19,2.4,-2.65417,-3.17343,0.619091,-0.866026,-0.177228,-0.0384495,0,0.145316,-0.0160635,0.00764641,2.25496,5,0.1
0,2.5,0.270399,1.62468,0.579534,0.0567809,-0.253905,0.00660438,-0.056034,0.393957,-0.000171363,0.012699,3.31546,5,0.1,1,2.5,3.82381,-4.63508,0.764702,0.0300478,-0.5245,0.0281416,-0.418678,-0.0346303,-0.0840276,0.00974549,0.351518,5,0.1,2,2.5,1.20679,4.5033,1.23766,-0.0102213,-0.0248127,0.169155,0.0121668,-0.0778735,-0.201665,0.0459793,0.511212,5,0.1,3,2.5,-4.00251,-2.78353,0.563661,-0.862709,0.199789,-0.0111898,-0.03016,-0.0999868,0.00561029,0.00800113,1.0383,5,0.1,4,2.5,0.752727,-2.17135,0.60759,0.274896,-0.25696,-0.00853324,0.0185631,0.142172,0.00474975,0.0095631,0.0988636,5,0.1,5,2.5,-0.458192,-0.166928,0.549372,0.347451,0.155276,0.0477205,0.217155,-0.105679,0.0688471,0.00975502,0.187658,5,0.1,6,2.5,-1.81523,-3.85258,0.920557,0.00427607,0.86516,0.163017,-0.000394881,0.0346154,-0.0168122,0.0177425,2.26334,5,0.1,7,2.5,-0.221329,2.65998,0.587718,-0.254092,-0.127389,0.014367,0.400291,0.118941,-0.0144169,0.00657425,0.369425,5,0.1,8,2.5,0.274578,0.564183,0.584568,0.131146,-0.861562,0.010059,-0.479892,0.115914,-0.00076741,0.0100431,0.506419,5,0.1,9,2.5,-1.46733,-2.4173,0.610382,0.273388,0.230807,-0.0116611,-0.316262,0.288352,0.00648201,0.00836047,0.143947,5,0.1,10,2.5,3.60034,-4.61385,0.542275,0.00210404,-0.209934,-0.136173,-0.00521541,-0.0390708,0.17529,0.00741825,0.468363,5,0.1,11,2.5,-3.86539,4.23296,0.653915,-0.223978,-0.000373274,0.0229263,0.285208,0.000625849,-0.0291802,0.00694802,0.00510594,5,0.1,12,2.5,-1.97421,1.67852,0.61146,0.437966,-0.14245,-0.0115459,-0.231214,0.043489,0.0121407,0.0100724,0.217172,5,0.1,13,2.5,1.26672,-2.78405,0.589622,0.574926,0.379772,0.0104824,-0.158332,-0.354916,-0.010781,0.0118259,0.279091,5,0.1,14,2.5,3.58954,-2.24001,0.58776,-0.153296,-0.733816,-0.00417428,-1.04764,-0.261441,-0.041116,0.00825777,2.63451,5,0.1,15,2.5,0.437222,-3.90268,0.62001,-0.0532574,0.865327,0.00339355,0.172999,0.0279546,-0.0223964,0.0280294,2.29894,5,0.1,16,2.5,4.34199,0.402336,0.588863,-0.148891,-0.284577,0.0144023,0.27597,-0.034472,-0.00679865,0.043475,0.0899197,5,0.1,17,2.5,-0.790039,-0.174087,0.500007,0.226429,0.429455,-4.2282e-05,0.24743,0.0525797,0.000163913,0.00950596,0.352309,5,0.1,18,2.5,-0.0878678,-2.13754,0.601604,-0.0686094,0.0889521,-0.00381581,0.246186,-0.150666,0.00649691,0.0104732,0.246594,5,0.1,19,2.5,-2.74077,-3.19052,0.615158,-0.866026,-0.16542,-0.0402312,0,0.0997037,-0.0170432,0.00764641,2.25496,5,0.1
0,2.6,0.275763,1.6,0.580193,0.0501901,-0.251701,0.00655353,-0.0743717,-0.315726,-0.00116229,0.00896037,3.26292,5,0.1,1,2.6,3.8248,-4.68753,0.767104,-0.00921488,-0.522232,0.0200033,-0.358105,0.0977516,-0.0776947,0.0103091,0.250203,5,0.1,2,2.6,1.20583,4.5,1.25356,-0.00898242,-0.0453234,0.148648,0.0125766,-0.315189,-0.209451,0.0491276,0.663153,5,0.1,3,2.6,-4.08876,-2.76409,0.562572,-0.859618,0.18875,-0.0105694,0.128269,-0.125766,0.00703335,0.00836931,0.747679,5,0.1,4,2.6,0.780239,-2.19633,0.606761,0.274338,-0.242513,-0.0080511,-0.0406504,0.155449,0.0051856,0.0096369,0.105669,5,0.1,5,2.6,-0.422455,-0.152076,0.554447,0.36582,0.140429,0.053294,0.129342,-0.185356,0.0403523,0.0073641,0.18205,5,0.1,6,2.6,-1.8148,-3.766,0.936755,0.00421703,0.866026,0.160547,-0.00107288,0,-0.0394881,0.0183476,2.25571,5,0.1,7,2.6,-0.244625,2.64785,0.589082,-0.210937,-0.11512,0.0129029,0.453733,0.128269,-0.01508,0.0105617,0.366012,5,0.1,8,2.6,0.285349,0.478974,0.585568,0.0850044,-0.83849,0.00992417,-0.435948,0.362396,-0.00238419,0.0095418,2.07906,5,0.1,9,2.6,-1.44162,-2.39294,0.609248,0.240469,0.25453,-0.011003,-0.333488,0.173807,0.00703335,0.00836589,0.0911986,5,0.1,10,2.6,3.60051,-4.6346,0.529644,0.00115037,-0.201356,-0.115511,-0.0123978,0.193357,0.231355,0.0299292,0.425551,5,0.1,11,2.6,-3.88635,4.23292,0.656061,-0.195187,-0.000309944,0.019981,0.292301,0.000715256,-0.0299513,0.00964424,0.00157912,5,0.1,12,2.6,-1.93152,1.66453,0.610365,0.41559,-0.137022,-0.0103652,-0.234485,0.0689626,0.0117421,0.0127526,0.280819,5,0.1,13,2.6,1.32324,-2.74784,0.590617,0.553426,0.344545,0.00942945,-0.284672,-0.357985,-0.01055,0.0089126,0.185397,5,0.1,14,2.6,3.56888,-2.31447,0.587149,-0.259572,-0.752145,-0.00790507,-1.02878,-0.0716448,-0.0325441,0.00973548,2.25559,5,0.1,15,2.6,0.432908,-3.81609,0.620237,-0.031922,0.866026,0.00115335,0.239775,0,-0.0217557,0.0249985,2.27589,5,0.1,16,2.6,4.32852,0.373784,0.590269,-0.120258,-0.28535,0.0136986,0.292301,0.0313073,-0.00780821,0.0433767,0.146568,5,0.1,17,2.6,-0.766274,-0.131043,0.500004,0.24737,0.429412,-2.68221e-05,0.157714,-0.0673199,0.000119209,0.0114335,0.251132,5,0.1,18,2.6,-0.0935407,-2.12938,0.601254,-0.0453776,0.0743568,-0.00318736,0.2147,-0.14174,0.00610948,0.00805025,0.246282,5,0.1,19,2.6,-2.82738,-3.20658,0.611065,-0.866026,-0.155759,-0.0414282,0,0.0998974,-0.0051558,0.00985679,2.25727,5,0.1
0,2.7,0.280317,1.57328,0.580845,0.0401023,-0.28202,0.00651199,-0.121215,-0.274189,-7.45058e-05,0.00896037,3.26292,5,0.1,1,2.7,3.82212,-4.73931,0.768725,-0.0436045,-0.513309,0.0125385,-0.320911,0.101477,-0.0706203,0.0103091,0.250203,5,0.1,2,2.7,1.20499,4.49368,1.26741,-0.00778306,-0.082688,0.128693,0.011526,-0.407517,-0.191368,0.0491276,0.663153,5,0.1,3,2.7,-4.17425,-2.7458,0.561548,-0.850745,0.177142,-0.00992035,0.090152,-0.112489,0.00629202,0.00836931,0.747679,5,0.1,4,2.7,0.807144,-2.21992,0.605978,0.260747,-0.230118,-0.00763759,-0.221401,0.105277,0.00351667,0.0096369,0.105669,5,0.1,5,2.7,-0.385098,-0.139132,0.559991,0.381892,0.117025,0.0576134,0.165267,-0.271783,0.0418164,0.0073641,0.18205,5,0.1,6,2.7,-1.81438,-3.6794,0.952681,0.00415817,0.866026,0.15842,-0.000357628,0,-0.0126027,0.0183476,2.25571,5,0.1,7,2.7,-0.263412,2.63695,0.5903,-0.164649,-0.103018,0.0114897,0.463516,0.11611,-0.0134483,0.0105617,0.366012,5,0.1,8,2.7,0.291895,0.395998,0.586551,0.0481575,-0.828329,0.00973959,-0.3023,-0.0775026,-0.00176579,0.0095418,2.07906,5,0.1,9,2.7,-1.41927,-2.36669,0.608181,0.206888,0.269503,-0.010355,-0.313431,0.114545,0.00628829,0.00836589,0.0911986,5,0.1,10,2.7,3.60073,-4.65301,0.519325,0.00455678,-0.160226,-0.0903115,0.0705719,0.583053,0.265464,0.0299292,0.425551,5,0.1,11,2.7,-3.90443,4.2329,0.657911,-0.16656,-0.000242889,0.0170479,0.280723,0.000596046,-0.0287518,0.00964424,0.00157912,5,0.1,12,2.7,-1.89081,1.65115,0.609383,0.40106,-0.130615,-0.00930661,-0.0859275,0.0638291,0.00974908,0.0127526,0.280819,5,0.1,13,2.7,1.37721,-2.71505,0.591511,0.525948,0.311988,0.00847531,-0.281297,-0.303358,-0.00881776,0.0089126,0.185397,5,0.1,14,2.7,3.53839,-2.39017,0.586199,-0.346079,-0.762232,-0.0110187,-0.774086,-0.0895113,-0.0286549,0.00973548,2.25559,5,0.1,15,2.7,0.430682,-3.72949,0.62025,-0.0147075,0.866026,-0.000817701,0.113169,0,-0.0174716,0.0249985,2.27589,5,0.1,16,2.7,4.31796,0.345499,0.591599,-0.0908919,-0.279285,0.0128708,0.289649,0.0945739,-0.00897422,0.0433767,0.146568,5,0.1,17,2.7,-0.74074,-0.0884153,0.500002,0.262981,0.422958,-1.55531e-05,0.139341,-0.0783414,0.000100583,0.0114335,0.251132,5,0.1,18,2.7,-0.0970896,-2.1226,0.600965,-0.0264627,0.0619128,-0.00261236,0.163004,-0.109613,0.00540912,0.00805025,0.246282,5,0.1,19,2.7,-2.91398,-3.22174,0.606886,-0.866026,-0.148157,-0.0421884,0,0.0608116,-0.00758469,0.00985679,2.25727,5,0.1
0,2.8,0.283686,1.54389,0.581495,0.0270493,-0.30376,0.00647008,-0.135005,-0.149131,-0.00107288,0.0102936,3.37409,5,0.1,1,2.8,3.81628,-4.78999,0.769645,-0.0719249,-0.498438,0.00604689,-0.239372,0.209808,-0.0585914,0.00741268,0.172606,5,0.1,2,2.8,1.20427,4.48338,1.27934,-0.0066638,-0.122523,0.110084,0.0110269,-0.370741,-0.181913,0.0485549,0.88512,5,0.1,3,2.8,-4.25866,-2.72867,0.560588,-0.834656,0.165236,-0.00925511,0.259638,-0.129938,0.00730157,0.00754186,0.523063,5,0.1,4,2.8,0.831881,-2.2424,0.605231,0.231941,-0.219262,-0.00727624,-0.345707,0.120759,0.00399351,0.00962173,0.192965,5,0.1,5,2.8,-0.346204,-0.128856,0.565935,0.394299,0.0880349,0.0609398,0.0639856,-0.299323,0.0217557,0.00698298,0.177801,5,0.1,6,2.8,-1.81397,-3.59279,0.96844,0.00410378,0.866026,0.156389,-0.00089407,0,-0.0347793,0.0175593,2.25638,5,0.1,7,2.8,-0.277601,2.62723,0.591383,-0.119721,-0.0915051,0.0101671,0.428692,0.115752,-0.0132024,0.0100464,0.363107,5,0.1,8,2.8,0.295409,0.312602,0.587514,0.0241533,-0.839762,0.00949353,-0.180379,-0.0905478,-0.00354648,0.0116437,1.63141,5,0.1,9,2.8,-1.4,-2.33933,0.607178,0.180173,0.275612,-0.00968426,-0.22161,0.000476837,0.00739098,0.0072058,0.134045,5,0.1,10,2.8,3.6016,-4.66579,0.511628,0.0134885,-0.0929832,-0.063692,0.100255,0.725031,0.261396,0.0276579,0.748069,5,0.1,11,2.8,-3.9197,4.23287,0.659474,-0.138998,-0.000190735,0.0142246,0.270486,0.000715256,-0.0276864,0.00744665,0.000814857,5,0.1,12,2.8,-1.85109,1.63843,0.6085,0.393236,-0.123474,-0.00836104,-0.0923276,0.0820756,0.00938773,0.00957547,0.209127,5,0.1,13,2.8,1.4283,-2.68535,0.592315,0.494438,0.282127,0.00761747,-0.359833,-0.301123,-0.00852346,0.0116126,0.122759,5,0.1,14,2.8,3.5,-2.4666,0.584968,-0.420767,-0.76319,-0.0134572,-0.710607,0.0983477,-0.0194013,0.00837422,1.74383,5,0.1,15,2.8,0.429627,-3.64288,0.620089,-0.00771135,0.866026,-0.00230968,0.0338703,0,-0.0122488,0.025872,2.27355,5,0.1,16,2.8,4.31028,0.318178,0.592838,-0.0632524,-0.265741,0.0118688,0.259399,0.17868,-0.0112355,0.0445661,0.199734,5,0.1,17,2.8,-0.713878,-0.0466399,0.5,0.272685,0.410972,-7.45058e-06,0.0444353,-0.172505,8.9407e-05,0.00991638,0.17371,5,0.1,18,2.8,-0.0990091,-2.11692,0.600729,-0.0128061,0.0520051,-0.00210255,0.110436,-0.0904799,0.00476837,0.011271,0.242513,5,0.1,19,2.8,-3.00058,-3.23626,0.602642,-0.866026,-0.142109,-0.0425279,0,0.0665188,0.0025034,0.00764822,2.25875,5,0.1
0,2.9,0.285694,1.51344,0.582139,0.0130231,-0.29954,0.00642259,-0.141144,0.19291,-0.00025332,0.0102936,3.37409,5,0.1,1,2.9,3.80794,-4.83884,0.76997,-0.0940528,-0.478696,0.000604521,-0.196472,0.20203,-0.0495501,0.00741268,0.172606,5,0.1,2,2.9,1.20366,4.46972,1.28948,-0.00563934,-0.146881,0.0931783,0.00956655,-0.135154,-0.157841,0.0485549,0.88512,5,0.1,3,2.9,-4.34095,-2.71276,0.559697,-0.8115,0.153257,-0.00858251,0.236601,-0.114664,0.00642985,0.00754186,0.523063,5,0.1,4,2.9,0.853175,-2.2637,0.604524,0.192516,-0.206432,-0.00685155,-0.430349,0.139594,0.00462681,0.00962173,0.192965,5,0.1,5,2.9,-0.30635,-0.121675,0.572167,0.40317,0.0546579,0.0638481,0.0890046,-0.354529,0.0314638,0.00698298,0.177801,5,0.1,6,2.9,-1.81356,-3.50619,0.983972,0.00406057,0.866026,0.154688,-0.000208616,0,-0.00867248,0.0175593,2.25638,5,0.1,7,2.9,-0.287481,2.61863,0.592337,-0.0786433,-0.0807852,0.00895038,0.382835,0.100672,-0.0113696,0.0100464,0.363107,5,0.1,8,2.9,0.297035,0.227902,0.588447,0.0096967,-0.855614,0.00917856,-0.100838,-0.174341,-0.00312924,0.0116437,1.63141,5,0.1,9,2.9,-1.38288,-2.31177,0.606248,0.164074,0.275387,-0.00890186,-0.114307,-0.0160187,0.00832602,0.0072058,0.134045,5,0.1,10,2.9,3.60352,-4.6709,0.506451,0.0251815,-0.00492781,-0.0409664,0.126094,0.982106,0.194762,0.0276579,0.748069,5,0.1,11,2.9,-3.93228,4.23286,0.660761,-0.112961,-0.000128895,0.0115597,0.249729,0.000566244,-0.0255592,0.00744665,0.000814857,5,0.1,12,2.9,-1.81206,1.62647,0.607708,0.388443,-0.115844,-0.00751773,-0.0270382,0.0743717,0.00773743,0.00957547,0.209127,5,0.1,13,2.9,1.47602,-2.65854,0.593037,0.46047,0.254856,0.0068496,-0.333294,-0.252813,-0.00706688,0.0116126,0.122759,5,0.1,14,2.9,3.45403,-2.54251,0.58353,-0.500607,-0.754946,-0.0152364,-0.826016,0.0991374,-0.0153407,0.00837422,1.74383,5,0.1,15,2.9,0.428904,-3.55628,0.619802,-0.00776211,0.866026,-0.00339095,-0.0280142,0,-0.00920892,0.025872,2.27355,5,0.1,16,2.9,4.30518,0.2925,0.59397,-0.0396416,-0.247642,0.0107901,0.210464,0.188597,-0.0105873,0.0445661,0.199734,5,0.1,17,2.9,-0.686389,-0.00636601,0.5,0.276764,0.394546,-7.45058e-07,0.0250041,-0.169642,4.47035e-05,0.00991638,0.17371,5,0.1,18,2.9,-0.0997487,-2.11216,0.600542,-0.00228056,0.043143,-0.00166167,0.0930741,-0.0864416,0.00406802,0.011271,0.242513,5,0.1,19,2.9,-3.08718,-3.25021,0.598389,-0.866026,-0.13748,-0.0425857,0,0.0344217,-0.00126287,0.00764822,2.25875,5,0.1
0,3,0.286311,1.48474,0.582779,-0.000418723,-0.272086,0.00635684,-0.124499,0.327766,-0.0013411,0.00869502,3.43471,5,0.1,1,3,3.79767,-4.8856,0.769802,-0.110102,-0.455177,-0.00374615,-0.120282,0.280142,-0.0370741,0.0092209,0.116495,5,0.1,2,3,1.20314,4.45462,1.29804,-0.00473261,-0.152802,0.0782341,0.00858307,0.00333786,-0.142336,0.049838,1.45921,5,0.1,3,3,-4.42073,-2.69801,0.558871,-0.781763,0.141448,-0.00791997,0.380754,-0.125051,0.00700355,0.00922499,0.358219,5,0.1,4,3,0.87022,-2.28359,0.603864,0.148103,-0.190753,-0.00633299,-0.448078,0.176191,0.00587106,0.00932574,0.187153,5,0.1,5,3,-0.265711,-0.11798,0.578692,0.40795,0.0195328,0.0663862,-0.0104684,-0.337631,0.0157356,0.00857042,0.500134,5,0.1,6,3,-1.81316,-3.41959,0.999378,0.00402033,0.866026,0.153039,-0.000834465,0,-0.0310242,0.0168577,2.25694,5,0.1,7,3,-0.293572,2.61104,0.593177,-0.0447333,-0.0710249,0.00785291,0.289604,0.0960827,-0.010699,0.00901392,0.549058,5,0.1,8,3,0.297675,0.141673,0.589348,0.0048928,-0.866026,0.0088051,0.00593066,4.76837e-06,-0.00461936,0.0113712,1.25779,5,0.1,9,3,-1.36696,-2.28441,0.605401,0.154868,0.270563,-0.00800639,-0.0804663,-0.0878572,0.00956655,0.00728194,0.201439,5,0.1,10,3,3.60666,-4.66642,0.503229,0.0374019,0.0939608,-0.0244126,0.112772,0.954628,0.138015,0.0313588,0.423618,5,0.1,11,3,-3.94237,4.23285,0.661794,-0.0891566,-8.34465e-05,0.00912249,0.226021,0.000476837,-0.0230968,0.00788656,0.000682971,5,0.1,12,3,-1.7734,1.61527,0.606993,0.383806,-0.10795,-0.00676662,-0.0823736,0.0861287,0.00742078,0.00962927,0.151302,5,0.1,13,3,1.52035,-2.6343,0.593688,0.425473,0.230104,0.00616312,-0.375867,-0.248194,-0.00679493,0.0104854,0.138075,5,0.1,14,3,3.40005,-2.61729,0.581942,-0.57562,-0.737888,-0.0163883,-0.630736,0.264168,-0.00715256,0.00851558,1.28837,5,0.1,15,3,0.427933,-3.46968,0.619423,-0.0120878,0.866026,-0.00412464,-0.0531077,0,-0.00533462,0.0252459,2.27476,5,0.1,16,3,4.30217,0.26873,0.594995,-0.0214815,-0.227167,0.00970811,0.151873,0.224113,-0.0112057,0.0414771,0.324143,5,0.1,17,3,-0.6587,0.0321545,0.5,0.275661,0.374766,1.49012e-06,-0.0552237,-0.235118,2.98023e-05,0.00981842,0.223043,5,0.1,18,3,-0.0995842,-2.10827,0.600395,0.00474304,0.0347733,-0.00128597,0.0437424,-0.0808239,0.00342727,0.0110834,0.229271,5,0.1,19,3,-3.17379,-3.26379,0.594134,-0.866026,-0.133789,-0.0423715,0,0.0454187,0.00721216,0.00743052,2.25976,5,0.1
0,3.1,0.285637,1.45956,0.583412,-0.0130244,-0.229635,0.00633905,-0.123238,0.44474,0.000502914,0.00869502,3.43471,5,0.1,1,3.1,3.7861,-4.92978,0.769254,-0.120691,-0.428931,-0.00708411,-0.0861883,0.258863,-0.0291504,0.0092209,0.116495,5,0.1,2,3.1,1.20271,4.43976,1.3052,-0.00394937,-0.141703,0.0652464,0.00717491,0.163645,-0.118904,0.049838,1.45921,5,0.1,3,3.1,-4.49713,-2.68445,0.558112,-0.746558,0.129963,-0.00727708,0.350446,-0.108868,0.00609085,0.00922499,0.358219,5,0.1,4,3.1,0.882828,-2.30179,0.60326,0.104624,-0.173046,-0.00574347,-0.414249,0.180155,0.00599772,0.00932574,0.187153,5,0.1,5,3.1,-0.226448,-0.117749,0.58512,0.364545,-0.0149261,0.0596879,-0.777935,-0.339396,-0.134148,0.00857042,0.500134,5,0.1,6,3.1,-1.81276,-3.33299,1.01459,0.00398271,0.866026,0.151654,-0.000163913,0,-0.00594929,0.0168577,2.25694,5,0.1,7,3.1,-0.296664,2.60439,0.593912,-0.0183895,-0.062247,0.00687866,0.214662,0.0812262,-0.00898167,0.00901392,0.549058,5,0.1,8,3.1,0.29831,0.055079,0.590207,0.0094865,-0.865597,0.00838097,0.103408,0.0171332,-0.00417233,0.0113712,1.25779,5,0.1,9,3.1,-1.35199,-2.25761,0.604646,0.143333,0.266791,-0.00712387,-0.14668,-0.00751019,0.00828505,0.00728194,0.201439,5,0.1,10,3.1,3.61097,-4.65228,0.501394,0.0489041,0.187618,-0.0130843,0.11155,0.887781,0.0904649,0.0313588,0.423618,5,0.1,11,3.1,-3.95019,4.23284,0.662595,-0.0678733,-4.47035e-05,0.00694711,0.19902,0.000357628,-0.0203475,0.00788656,0.000682971,5,0.1,12,3.1,-1.73534,1.60488,0.606351,0.377896,-0.0999801,-0.00610147,-0.0545457,0.0764728,0.00610203,0.00962927,0.151302,5,0.1,13,3.1,1.56112,-2.61228,0.594273,0.39047,0.212148,0.00555264,-0.335783,-0.127867,-0.00560656,0.0104854,0.138075,5,0.1,14,3.1,3.33927,-2.68984,0.58027,-0.639595,-0.713239,-0.0169903,-0.602156,0.255376,-0.00421703,0.00851558,1.28837,5,0.1,15,3.1,0.426402,-3.38308,0.619108,-0.0189487,0.866026,-0.00112858,-0.0784453,0,0.0577569,0.0252459,2.27476,5,0.1,16,3.1,4.30068,0.247242,0.59591,-0.00928268,-0.201691,0.00858679,0.0927746,0.278895,-0.0112653,0.0414771,0.324143,5,0.1,17,3.1,-0.631401,0.0682508,0.5,0.270151,0.345241,2.8871e-06,-0.0648648,-0.350256,3.72529e-06,0.00981842,0.223043,5,0.1,18,3.1,-0.0988885,-2.10518,0.600282,0.00871122,0.0271298,-0.00097435,0.0172826,-0.0718832,0.00282377,0.0110834,0.229271,5,0.1,19,3.1,-3.26039,-3.277,0.58992,-0.866026,-0.130959,-0.0420011,0,0.019148,0.00252947,0.00743052,2.25976,5,0.1
0,3.2,0.28375,1.43855,0.584048,-0.0243165,-0.194415,0.00637323,-0.0994802,0.223458,-0.000149012,0.00894619,3.32963,5,0.1,1,3.2,3.7737,-4.97132,0.768416,-0.126463,-0.401032,-0.00949204,-0.0259876,0.30899,-0.0186861,0.00966114,0.132675,5,0.1,2,3.2,1.20235,4.42634,1.31115,-0.00328124,-0.128317,0.0541925,0.00625849,0.0762939,-0.103295,0.0483714,1.6973,5,0.1,3,3.2,-4.5699,-2.672,0.557415,-0.707114,0.118965,-0.00666082,0.457048,-0.114083,0.00634789,0.00756412,0.242072,5,0.1,4,3.2,0.891323,-2.31817,0.602717,0.0664473,-0.154376,-0.00512302,-0.344604,0.19455,0.0064671,0.00963902,0.274848,5,0.1,5,3.2,-0.194608,-0.120859,0.590277,0.266638,-0.0462692,0.0423431,-1.11718,-0.278838,-0.20054,0.00899029,0.338918,5,0.1,6,3.2,-1.81236,-3.24638,1.02971,0.00394583,0.866026,0.150263,-0.00077486,0,-0.0286102,0.0152079,2.25744,5,0.1,7,3.2,-0.297687,2.59856,0.594556,-0.00488535,-0.0544786,0.00602156,0.0471622,0.0753403,-0.00831485,0.00729581,1.0067,5,0.1,8,3.2,0.3,-0.0312579,0.591022,0.02639,-0.859172,0.00791997,0.225365,0.13706,-0.00530481,0.0128171,2.3768,5,0.1,9,3.2,-1.33848,-2.23097,0.603974,0.126219,0.265628,-0.00631809,-0.192285,-0.0300407,0.00801682,0.00948429,0.17,5,0.1,10,3.2,3.61638,-4.6294,0.500473,0.0587404,0.266314,-0.00595152,0.0811815,0.664711,0.0539124,0.0243853,0.478704,5,0.1,11,3.2,-3.95604,4.23284,0.663193,-0.049454,-2.38419e-05,0.00506341,0.16892,0.000238419,-0.0172555,0.00955003,0.000522113,5,0.1,12,3.2,-1.6979,1.59527,0.605771,0.369722,-0.09211,-0.00550896,-0.12207,0.0830293,0.00590086,0.00810853,0.183797,5,0.1,13,3.2,1.59847,-2.59162,0.594801,0.356364,0.201559,0.00500828,-0.354409,-0.0966787,-0.00545382,0.00877692,0.172493,5,0.1,14,3.2,3.27266,-2.75972,0.578559,-0.688154,-0.68236,-0.0171214,-0.336647,0.380278,0.00202656,0.0101187,0.914033,5,0.1,15,3.2,0.424111,-3.29647,0.619337,-0.0267863,0.866026,0.00609159,-0.0740886,0,0.0807941,0.0225615,2.27173,5,0.1,16,3.2,4.30013,0.228514,0.596712,-0.00264645,-0.172507,0.0074476,0.0419617,0.300109,-0.0115335,0.0454809,0.303548,5,0.1,17,3.2,-0.604792,0.10087,0.500001,0.261042,0.305738,2.98023e-06,-0.123948,-0.434693,-2.98023e-05,0.00874391,0.194518,5,0.1,18,3.2,-0.0980823,-2.10281,0.600198,0.00570491,0.0204206,-0.000719726,-0.084009,-0.062108,0.00226498,0.00913481,0.199678,5,0.1,19,3.2,-3.34699,-3.28999,0.58574,-0.866026,-0.128585,-0.0414684,0,0.0340939,0.00983477,0.00867315,2.20961,5,0.1
0,3.3,0.280818,1.41993,0.584689,-0.0342682,-0.18378,0.00646794,-0.0953171,-0.11339,0.00153854,0.00894619,3.32963,5,0.1,1,3.3,3.76086,-5.01017,0.767372,-0.130757,-0.378206,-0.0113808,-0.0498444,0.172615,-0.0180304,0.00966114,0.132675,5,0.1,2,3.3,1.20205,4.4138,1.31609,-0.00271872,-0.125749,0.0449117,0.00506639,-0.109106,-0.0836104,0.0483714,1.6973,5,0.1,3,3.3,-4.63845,-2.66064,0.556779,-0.664692,0.108533,-0.00608005,0.413805,-0.0980794,0.00546873,0.00756412,0.242072,5,0.1,4,3.3,0.89639,-2.33267,0.602236,0.0363852,-0.13589,-0.00450881,-0.254493,0.177711,0.00590459,0.00963902,0.274848,5,0.1,5,3.3,-0.173957,-0.126814,0.593423,0.143444,-0.0720021,0.0199939,-1.29439,-0.229275,-0.236262,0.00899029,0.338918,5,0.1,6,3.3,-1.81197,-3.15978,1.04465,0.00391267,0.866026,0.149063,-0.00013411,0,-0.00450015,0.0152079,2.25744,5,0.1,7,3.3,-0.298085,2.59346,0.59512,-0.00631646,-0.0476684,0.00527203,-0.139689,0.0623614,-0.00684708,0.00729581,1.0067,5,0.1,8,3.3,0.305285,-0.115762,0.59179,0.0918544,-0.824031,0.00743046,0.980154,0.549996,-0.00474602,0.0128171,2.3768,5,0.1,9,3.3,-1.32689,-2.20451,0.60338,0.104987,0.263741,-0.00557071,-0.227027,-0.0205636,0.00706688,0.00948429,0.17,5,0.1,10,3.3,3.62266,-4.59941,0.500101,0.0665598,0.333171,-0.00190167,0.0707805,0.638932,0.0285842,0.0243853,0.478704,5,0.1,11,3.3,-3.96018,4.23284,0.663617,-0.0339467,-4.47035e-06,0.00347868,0.140861,0.000119209,-0.014402,0.00955003,0.000522113,5,0.1,12,3.3,-1.66121,1.58641,0.605244,0.366569,-0.085775,-0.0050622,0.0269338,0.0493154,0.00339374,0.00810853,0.183797,5,0.1,13,3.3,1.63261,-2.57162,0.595279,0.328411,0.201227,0.00459282,-0.225089,0.0637025,-0.00318512,0.00877692,0.172493,5,0.1,14,3.3,3.20217,-2.82616,0.576859,-0.720439,-0.64675,-0.0168709,-0.272244,0.353828,0.00353158,0.0101187,0.914033,5,0.1,15,3.3,0.42104,-3.20987,0.6204,-0.0347316,0.866026,0.0155278,-0.0801086,0,0.102054,0.0225615,2.27173,5,0.1,16,3.3,4.30001,0.212781,0.5974,-0.000302494,-0.142215,0.00632051,0.00935793,0.29781,-0.011012,0.0454809,0.303548,5,0.1,17,3.3,-0.579132,0.129114,0.500001,0.253457,0.257852,4.65661e-07,-0.0456087,-0.512284,-1.86265e-05,0.00874391,0.194518,5,0.1,18,3.3,-0.098047,-2.10107,0.600137,-0.00691852,0.0147015,-0.000517443,-0.195212,-0.0522137,0.00178814,0.00913481,0.199678,5,0.1,19,3.3,-3.4336,-3.30273,0.581629,-0.866026,-0.126598,-0.04084,0,0.0131279,0.00496209,0.00867315,2.20961,5,0.1
0,3.4,0.27695,1.4,0.585343,-0.042659,-0.224262,0.00659376,-0.0695139,-0.665367,0.000566244,0.00922093,2.98716,5,0.1,1,3.4,3.74756,-5.04719,0.766152,-0.134712,-0.362146,-0.0129178,-0.0221729,0.167131,-0.0120103,0.0114457,0.150609,5,0.1,2,3.4,1.2018,4.4,1.32019,-0.00225306,-0.156724,0.037241,0.00429153,-0.491619,-0.0707507,0.0479423,2.21599,5,0.1,3,3.4,-4.70278,-2.65028,0.556198,-0.62058,0.098753,-0.00553578,0.483751,-0.100017,0.00563264,0.00739116,0.162498,5,0.1,4,3.4,0.898915,-2.34538,0.601814,0.0157207,-0.118411,-0.00392795,-0.159264,0.173569,0.00575185,0.00948187,0.271843,5,0.1,5,3.4,-0.166023,-0.135035,0.594251,0.0168685,-0.0910543,-0.00313818,-1.19836,-0.147626,-0.218838,0.00862656,0.168799,5,0.1,6,3.4,-1.81158,-3.07318,1.05952,0.00387728,0.866026,0.147802,-0.000655651,0,-0.0271797,0.0167109,2.2579,5,0.1,7,3.4,-0.3,2.58899,0.595614,-0.0376403,-0.0417531,0.00462383,-0.471041,0.056982,-0.00622869,0.00967297,1.15666,5,0.1,8,3.4,0.319912,-0.194845,0.592508,0.204033,-0.752329,0.00692904,1.18336,0.868253,-0.00548363,0.0100902,1.90593,5,0.1,9,3.4,-1.31754,-2.17831,0.602858,0.0817746,0.259346,-0.0048846,-0.232935,-0.0762939,0.00679493,0.00841986,0.223867,5,0.1,10,3.4,3.62962,-4.56316,0.500022,0.0721574,0.388408,4.02331e-05,0.0379086,0.442266,0.0115037,0.0243747,0.526457,5,0.1,11,3.4,-3.96292,4.23284,0.663898,-0.0213265,0,0.00218749,0.111461,0.000238419,-0.0113845,0.00835851,0.000309453,5,0.1,12,3.4,-1.62439,1.57806,0.604753,0.369549,-0.0812709,-0.00476539,0.00929832,0.0449419,0.00277162,0.0104227,0.111394,5,0.1,13,3.4,1.6644,-2.55109,0.595724,0.307795,0.209683,0.00431389,-0.202298,0.0857115,-0.0025928,0.00836684,0.105869,5,0.1,14,3.4,3.12912,-2.88896,0.575195,-0.736433,-0.607914,-0.0163242,-0.0228882,0.437975,0.00777841,0.00882239,0.628165,5,0.1,15,3.4,0.417188,-3.12327,0.622459,-0.0419997,0.866026,0.0254795,-0.0618398,0,0.092566,0.0222659,2.2694,5,0.1,16,3.4,4.3,0.2,0.597978,0,-0.113943,0.0052467,0,0.265583,-0.0104904,0.0407189,0.990267,5,0.1,17,3.4,-0.554005,0.152284,0.500001,0.248834,0.205233,0,-0.0598431,-0.531323,-2.98023e-05,0.00949201,0.169189,5,0.1,18,3.4,-0.1,-2.09984,0.600093,-0.0347819,0.00997782,-0.000359118,-0.349753,-0.0422001,0.00137091,0.0113756,0.333136,5,0.1,19,3.4,-3.5202,-3.31531,0.577576,-0.866026,-0.124675,-0.040099,0,0.0305176,0.0114739,0.00719147,1.75158,5,0.1
0,3.5,0.272342,1.37298,0.586007,-0.0493583,-0.3261,0.0067099,-0.0609905,-1.26202,0.00132993,0.00922093,2.98716,5,0.1,1,3.5,3.73369,-5.08268,0.764804,-0.14479,-0.348306,-0.0139898,-0.15533,0.126153,-0.00877678,0.0114457,0.150609,5,0.1,2,3.5,1.20159,4.38068,1.32359,-0.00187308,-0.239,0.0309734,0.00338256,-1.05786,-0.0556782,0.0479423,2.21599,5,0.1,3,3.5,-4.76255,-2.64087,0.555671,-0.575829,0.089648,-0.00502327,0.429899,-0.0850409,0.004787,0.00739116,0.162498,5,0.1,4,3.5,0.89984,-2.35638,0.601449,0.00418397,-0.101819,-0.00337809,-0.0749044,0.159457,0.00528246,0.00948187,0.271843,5,0.1,5,3.5,-0.170046,-0.144764,0.592895,-0.0940608,-0.102329,-0.0233724,-1.0019,-0.0769868,-0.182282,0.00862656,0.168799,5,0.1,6,3.5,-1.81119,-2.98658,1.07422,0.00385288,0.866026,0.146692,-6.70552e-05,0,-0.00395626,0.0167109,2.2579,5,0.1,7,3.5,-0.306973,2.58508,0.596048,-0.108581,-0.0366457,0.00406662,-0.87803,0.0464022,-0.00505522,0.00967297,1.15666,5,0.1,8,3.5,0.346771,-0.265529,0.593175,0.336533,-0.659493,0.00642361,1.38842,0.97889,-0.0048317,0.0100902,1.90593,5,0.1,9,3.5,-1.31051,-2.15269,0.602403,0.0591902,0.253461,-0.00422662,-0.215702,-0.0537783,0.00639632,0.00841986,0.223867,5,0.1,10,3.5,3.63702,-4.522,0.500068,0.0756118,0.435051,0.000727642,0.0276715,0.454545,0.002902,0.0243747,0.526457,5,0.1,11,3.5,-3.96454,4.23284,0.664064,-0.0114188,1.63913e-05,0.00117468,0.086695,5.96046e-05,-0.00886992,0.00835851,0.000309453,5,0.1,12,3.5,-1.5873,1.57013,0.604289,0.372604,-0.077536,-0.00454513,0.030987,0.033468,0.00187382,0.0104227,0.111394,5,0.1,13,3.5,1.69428,-2.52961,0.596144,0.290662,0.220402,0.00410695,-0.153854,0.112116,-0.00176579,0.00836684,0.105869,5,0.1,14,3.5,3.05537,-2.94768,0.573601,-0.737759,-0.567131,-0.0155564,0.0260472,0.395954,0.00803918,0.00882239,0.628165,5,0.1,15,3.5,0.41267,-3.03667,0.625485,-0.0483645,0.866026,0.0350927,-0.0612885,0,0.0948496,0.0222659,2.2694,5,0.1,16,3.5,4.3,0.189856,0.598452,0,-0.0896895,0.00425819,0,0.220859,-0.00929832,0.0407189,0.990267,5,0.1,17,3.5,-0.529368,0.170174,0.500001,0.244151,0.15298,-1.76951e-06,-0.0454001,-0.506085,-1.11759e-05,0.00949201,0.169189,5,0.1,18,3.5,-0.105812,-2.09904,0.600064,-0.08605,0.00619404,-0.000239536,-0.626283,-0.0335127,0.00102818,0.0113756,0.333136,5,0.1,19,3.5,-3.6068,-3.32766,0.573615,-0.866026,-0.122386,-0.0391585,0,0.0212193,0.00911579,0.00719147,1.75158,5,0.1
0,3.6,0.267138,1.33381,0.586683,-0.054273,-0.457472,0.00678748,-0.0349283,-1.28293,-0.000149012,0.00989928,2.59127,5,0.1,1,3.6,3.71838,-5.11683,0.763371,-0.161576,-0.334132,-0.0145659,-0.162125,0.169039,-0.00232458,0.00878003,0.0925071,5,0.1,2,3.6,1.20142,4.35121,1.32643,-0.00156462,-0.351393,0.0259131,0.00280142,-1.11723,-0.046432,0.0501858,1.44568,5,0.1,3,3.6,-4.81795,-2.63232,0.555192,-0.531447,0.0812471,-0.0045523,0.470877,-0.0851154,0.00479817,0.00733293,0.108895,5,0.1,4,3.6,0.899992,-2.36578,0.601137,-0.000190735,-0.0863254,-0.00286549,-0.0185072,0.151157,0.00503659,0.00968015,0.270412,5,0.1,5,3.6,-0.184015,-0.155259,0.589731,-0.180519,-0.106369,-0.0390127,-0.715651,-0.00386685,-0.128269,0.00872352,0.124361,5,0.1,6,3.6,-1.81081,-2.89997,1.08885,0.00382364,0.866026,0.14548,-0.000655651,0,-0.0266433,0.0162589,2.46223,5,0.1,7,3.6,-0.32242,2.58164,0.59643,-0.20097,-0.032258,0.00358969,-0.916719,0.0423193,-0.00464916,0.00962137,1.22356,5,0.1,8,3.6,0.387176,-0.326469,0.593793,0.468165,-0.558393,0.00592768,1.18691,1.03424,-0.00530481,0.0122494,1.49252,5,0.1,9,3.6,-1.30562,-2.12766,0.602012,0.0391483,0.246489,-0.00359863,-0.183105,-0.0941753,0.00616908,0.00812241,0.505111,5,0.1,10,3.6,3.64467,-4.47644,0.500145,0.0771046,0.473189,0.000739098,-0.000119209,0.283003,-0.00208616,0.025902,2.70281,5,0.1,11,3.6,-3.96529,4.23284,0.664142,-0.00397563,2.38419e-05,0.000412762,0.0624657,0,-0.0063777,0.00903766,0.000139384,5,0.1,12,3.6,-1.54999,1.56255,0.603844,0.372216,-0.0739485,-0.00434965,-0.0532866,0.0409484,0.00220537,0.00912305,0.177953,5,0.1,13,3.6,1.72257,-2.50707,0.596546,0.274724,0.229281,0.00392348,-0.174522,0.0537634,-0.00205636,0.0109791,0.111025,5,0.1,14,3.6,2.982,-3.00236,0.572089,-0.726277,-0.525653,-0.0146404,0.223517,0.446081,0.0105798,0.00818836,0.422815,5,0.1,15,3.6,0.407556,-2.95006,0.62944,-0.0535488,0.866026,0.0436187,-0.0394881,0,0.072211,0.022257,2.27175,5,0.1,16,3.6,4.3,0.181926,0.598834,0,-0.069518,0.00338405,0,0.183724,-0.00822544,0.041799,2.01151,5,0.1,17,3.6,-0.505233,0.183035,0.5,0.237794,0.105315,-2.98023e-06,-0.0897497,-0.441849,2.98023e-05,0.0120363,0.225347,5,0.1,18,3.6,-0.11767,-2.09857,0.600044,-0.151372,0.00326633,-0.000150502,-0.642825,-0.0251532,0.000745058,0.0119177,0.229957,5,0.1,19,3.6,-3.6934,-3.33977,0.569753,-0.866026,-0.119418,-0.0379741,0,0.0424385,0.015825,0.00758333,1.35146,5,0.1
0,3.7,0.261539,1.28117,0.587363,-0.057601,-0.597829,0.00681598,-0.0285786,-1.43676,0.000335276,0.00989928,2.59127,5,0.1,1,3.7,3.70146,-5.14944,0.761907,-0.17618,-0.317993,-0.0146598,-0.121325,0.164181,0.000834465,0.00878003,0.0925071,5,0.1,2,3.7,1.20128,4.31025,1.3288,-0.00131987,-0.468571,0.0218557,0.00214577,-1.16339,-0.0356063,0.0501858,1.44568,5,0.1,3,3.7,-4.86888,-2.6246,0.554759,-0.488111,0.0735298,-0.00411766,0.411451,-0.0716746,0.00403449,0.00733293,0.108895,5,0.1,4,3.7,0.89992,-2.37371,0.600875,-0.0009262,-0.0727136,-0.00238763,0.00124052,0.123248,0.00453368,0.00968015,0.270412,5,0.1,5,3.7,-0.205472,-0.165864,0.585219,-0.246395,-0.105185,-0.0508178,-0.582697,0.0288188,-0.1041,0.00872352,0.124361,5,0.1,6,3.7,-1.81043,-2.81425,1.10332,0.00379793,0.840598,0.144379,-7.45058e-05,-0.476658,-0.00414997,0.0162589,2.46223,5,0.1,7,3.7,-0.347523,2.57861,0.596767,-0.303698,-0.028491,0.00317656,-1.07523,0.0340343,-0.00373274,0.00962137,1.22356,5,0.1,8,3.7,0.440005,-0.377198,0.594361,0.587641,-0.456925,0.00544135,1.14285,0.989709,-0.00459701,0.0122494,1.49252,5,0.1,9,3.7,-1.30262,-2.10325,0.601759,0.0212288,0.243478,-0.000824034,-0.166871,0.0123531,0.04448,0.00812241,0.505111,5,0.1,10,3.7,3.65233,-4.42652,0.500207,0.0754029,0.534394,0.000466406,-0.0334084,0.838906,-0.00318885,0.025902,2.70281,5,0.1,11,3.7,-3.96541,4.23284,0.664154,0.00130571,2.08616e-05,-0.000127219,0.0434369,-5.96046e-05,-0.004448,0.00903766,0.000139384,5,0.1,12,3.7,-1.51276,1.55535,0.603419,0.374311,-0.070099,-0.00414765,0.0644177,0.0384077,0.00199303,0.00912305,0.177953,5,0.1,13,3.7,1.74929,-2.4842,0.59693,0.260568,0.225079,0.00376897,-0.122555,-0.129089,-0.00126287,0.0109791,0.111025,5,0.1,14,3.7,2.91046,-3.05282,0.570676,-0.704327,-0.484395,-0.0136328,0.239819,0.394359,0.0099577,0.00818836,0.422815,5,0.1,15,3.7,0.401994,-2.86346,0.634033,-0.0576703,0.866026,0.0470432,-0.0390224,0,0.000543892,0.022257,2.27175,5,0.1,16,3.7,4.3,0.175828,0.599133,0,-0.0530596,0.00262791,0,0.146711,-0.00692531,0.041799,2.01151,5,0.1,17,3.7,-0.481827,0.1915,0.5,0.230762,0.0654898,-9.31323e-07,-0.0629723,-0.351794,7.45058e-06,0.0120363,0.225347,5,0.1,18,3.7,-0.136123,-2.09836,0.600033,-0.217866,0.00108592,-8.76375e-05,-0.654736,-0.0185221,0.000525266,0.0119177,0.229957,5,0.1,19,3.7,-3.78,-3.35152,0.566028,-0.865788,-0.115693,-0.0365511,0.00950694,0.0368655,0.0140816,0.00758333,1.35146,5,0.1
0,3.8,0.255667,1.21454,0.588045,-0.0594787,-0.729764,0.00679046,-0.00691414,-1.13869,-0.00107288,0.0106365,1.51953,5,0.1,1,3.8,3.68336,-5.18035,0.760453,-0.184417,-0.299537,-0.0143364,-0.0379086,0.211477,0.00581145,0.00824382,0.0999667,5,0.1,2,3.8,1.20116,4.25793,1.33082,-0.00112653,-0.573277,0.0186324,0.00184774,-0.885963,-0.0296235,0.0569321,0.209618,5,0.1,3,3.8,-4.91563,-2.6176,0.554367,-0.44651,0.066489,-0.00372231,0.431061,-0.0708103,0.00399351,0.00765761,0.126091,5,0.1,4,3.8,0.899849,-2.3804,0.600658,-0.000378489,-0.0613034,-0.00195652,0.00792742,0.106812,0.00414252,0.00905425,0.267952,5,0.1,5,3.8,-0.232677,-0.176177,0.579681,-0.293923,-0.100433,-0.0592232,-0.355691,0.0666901,-0.0616312,0.00873966,0.0581789,5,0.1,6,3.8,-1.81005,-2.73314,1.11772,0.00376701,0.77638,0.143155,-0.000655651,-0.782847,-0.0266433,0.0151581,2.76117,5,0.1,7,3.8,-0.383107,2.57592,0.597067,-0.405183,-0.0252664,0.00282526,-0.908718,0.0311136,-0.00345707,0.00926409,0.351851,5,0.1,8,3.8,0.504008,-0.418054,0.594882,0.686586,-0.361429,0.00497699,0.794202,0.91581,-0.00479817,0.0130307,1.26516,5,0.1,9,3.8,-1.30125,-2.07881,0.601929,0.00709593,0.245208,0.00443757,-0.111043,0.00619888,0.0569522,0.00848488,0.460624,5,0.1,10,3.8,3.65965,-4.36866,0.500237,0.0705481,0.623059,0.00013262,-0.0629425,0.858068,-0.00333786,0.0254474,2.43645,5,0.1,11,3.8,-3.96509,4.23284,0.664122,0.00476837,1.19209e-05,-0.000482798,0.026226,0,-0.00268221,0.00790885,4.76303e-05,5,0.1,12,3.8,-1.47502,1.54854,0.603015,0.379792,-0.0658691,-0.00392497,0.0228882,0.0478029,0.002563,0.0084964,0.147893,5,0.1,13,3.8,1.77472,-2.46258,0.5973,0.247833,0.205165,0.0036329,-0.141978,-0.26083,-0.00157952,0.0110128,0.19426,5,0.1,14,3.8,2.84141,-3.09927,0.569364,-0.67426,-0.44421,-0.0125825,0.378013,0.420094,0.0112951,0.00793908,0.281528,5,0.1,15,3.8,0.396059,-2.77686,0.638651,-0.0606894,0.866026,0.0445232,-0.0186414,0,-0.0473261,0.0224366,2.27023,5,0.1,16,3.8,4.3,0.171203,0.599363,0,-0.0399403,0.00199378,0,0.116773,-0.00575185,0.0418275,1.84638,5,0.1,17,3.8,-0.459102,0.196456,0.5,0.223158,0.035312,0,-0.0974536,-0.251085,0,0.00958383,0.332018,5,0.1,18,3.8,-0.160985,-2.09833,0.600026,-0.276792,-0.000452995,-4.47035e-05,-0.50082,-0.012517,0.000357628,0.0125647,0.067596,5,0.1,19,3.8,-3.86646,-3.36288,0.56245,-0.862223,-0.111228,-0.0349134,0.0759363,0.0556707,0.0196695,0.00740569,1.01283,5,0.1
0,3.9,0.249667,1.13667,0.588722,-0.0606064,-0.81938,0.00676978,-0.0119349,-0.644274,0.000216067,0.0106365,1.51953,5,0.1,1,3.9,3.665,-5.20933,0.759048,-0.180184,-0.280502,-0.0137466,0.114843,0.180304,0.00641122,0.00824382,0.0999667,5,0.1,2,3.9,1.20105,4.19697,1.33255,-0.000967644,-0.637803,0.0160763,0.00137836,-0.405282,-0.0222251,0.0569321,0.209618,5,0.1,3,3.9,-4.95847,-2.61124,0.554012,-0.413283,0.0610296,-0.0034146,0.260621,-0.0425428,0.00239164,0.00765761,0.126091,5,0.1,4,3.9,0.899769,-2.386,0.600482,-0.00180798,-0.0508212,-0.00156881,-0.0271834,0.102401,0.00361726,0.00905425,0.267952,5,0.1,5,3.9,-0.26361,-0.185855,0.573495,-0.32215,-0.0928131,-0.0640334,-0.200591,0.0857459,-0.0329576,0.00873966,0.0581789,5,0.1,6,3.9,-1.80967,-2.66019,1.13196,0.00374019,0.677325,0.142001,-0.000104308,-1.10465,-0.00499934,0.0151581,2.76117,5,0.1,7,3.9,-0.427763,2.57354,0.597334,-0.483404,-0.0225097,0.00251988,-0.637432,0.0248849,-0.00275299,0.00926409,0.351851,5,0.1,8,3.9,0.57536,-0.449786,0.595357,0.728415,-0.274981,0.0045388,0.0713356,0.810301,-0.00411645,0.0130307,1.26516,5,0.1,9,3.9,-1.30106,-2.05414,0.602685,-0.00265129,0.248686,0.0108586,-0.067398,0.0464916,0.0678338,0.00848488,0.460624,5,0.1,10,3.9,3.66638,-4.30165,0.500235,0.064005,0.719418,-0.000147428,-0.0683069,0.99051,-0.0022836,0.0254474,2.43645,5,0.1,11,3.9,-3.9645,4.23285,0.664063,0.00673681,8.9407e-06,-0.000684895,0.0135601,-5.96046e-05,-0.00139326,0.00790885,4.76303e-05,5,0.1,12,3.9,-1.4369,1.5422,0.602636,0.382368,-0.0607334,-0.0036451,0.011228,0.0553578,0.00306591,0.0084964,0.147893,5,0.1,13,3.9,1.79877,-2.44356,0.597655,0.23276,0.173665,0.00345735,-0.163481,-0.35724,-0.00199303,0.0110128,0.19426,5,0.1,14,3.9,2.7758,-3.14172,0.568159,-0.638239,-0.405608,-0.0115261,0.362635,0.364736,0.0101663,0.00793908,0.281528,5,0.1,15,3.9,0.38988,-2.69026,0.642817,-0.0629589,0.866026,0.0383656,-0.0226852,0,-0.0730157,0.0224366,2.27023,5,0.1,16,3.9,4.29849,0.167744,0.599536,-0.0429705,-0.0296883,0.00147559,-0.763893,0.0893585,-0.00464171,0.0418275,1.84638,5,0.1,17,3.9,-0.437319,0.198828,0.5,0.211983,0.0132495,0,-0.129202,-0.184617,0,0.00958383,0.332018,5,0.1,18,3.9,-0.190875,-2.09844,0.600023,-0.317836,-0.00148714,-1.66707e-05,-0.31157,-0.00822544,0.000212342,0.0125647,0.067596,5,0.1,19,3.9,-3.9526,-3.37374,0.559051,-0.862319,-0.106131,-0.033103,-0.0268072,0.0502169,0.0177212,0.00740569,1.01283,5,0.1
0,4,0.243563,1.05236,0.589399,-0.0612352,-0.858584,0.00675619,0.0019595,-0.148833,-0.00077486,0.00961556,2.28532,5,0.1,1,4,3.64776,-5.23646,0.757709,-0.162941,-0.261593,-0.0129834,0.222802,0.20504,0.00905991,0.00973821,0.0803972,5,0.1,2,4,1.20096,4.13195,1.33406,-0.000840425,-0.654924,0.0140578,0.00107288,0.0581741,-0.0187159,0.0516517,0.428843,5,0.1,3,4,-4.9986,-2.60533,0.553681,-0.389671,0.0572622,-0.00320226,0.231743,-0.0361204,0.00199676,0.00756371,0.0734829,5,0.1,4,4,0.899455,-2.39058,0.600343,-0.00429749,-0.0408947,-0.00123084,-0.0168085,0.0957251,0.00312924,0.0101191,0.253053,5,0.1,5,4,-0.296519,-0.194676,0.566984,-0.332804,-0.0833075,-0.0655711,-0.00837445,0.104085,0.00298023,0.00779379,0.0213231,5,0.1,6,4,-1.8093,-2.59793,1.14611,0.00370741,0.569928,0.140697,-0.000715256,-0.992179,-0.0271797,0.0137058,2.93027,5,0.1,7,4,-0.478722,2.57141,0.597573,-0.529801,-0.0201464,0.00225902,-0.280142,0.0231266,-0.002563,0.0080917,0.526611,5,0.1,8,4,0.647567,-0.473427,0.595791,0.706482,-0.199831,0.00412911,-0.482619,0.690922,-0.00420213,0.0121779,0.695649,5,0.1,9,4,-1.3015,-2.02909,0.604103,-0.00416338,0.251609,0.0173718,0.0429749,-0.000238419,0.0597835,0.00860495,0.4068,5,0.1,10,4,3.67243,-4.22506,0.500211,0.056833,0.807846,-0.000327826,-0.0753403,0.723362,-0.0013411,0.0229565,2.57885,5,0.1,11,4,-3.96378,4.23285,0.663989,0.00755787,0,-0.00077039,0.00309944,0,-0.000327826,0.00977431,1.43906e-05,5,0.1,12,4,-1.39875,1.53642,0.602288,0.379112,-0.054732,-0.00330657,-0.0880361,0.064671,0.00366569,0.00757022,0.174038,5,0.1,13,4,1.82117,-2.42806,0.59799,0.214505,0.135875,0.00322312,-0.203907,-0.38898,-0.00271201,0.00896189,0.187045,5,0.1,14,4,2.7139,-3.18046,0.567058,-0.598347,-0.369096,-0.0104934,0.448823,0.374556,0.0106692,0.00979901,0.186848,5,0.1,15,4,0.383491,-2.60365,0.646265,-0.0645354,0.866026,0.0304297,-0.00597537,0,-0.0834465,0.0194024,2.26963,5,0.1,16,4,4.28976,0.165185,0.599662,-0.135803,-0.0218663,0.00106245,-1.01852,0.0680089,-0.00369549,0.0435458,1.51478,5,0.1,17,4,-0.416839,0.199373,0.5,0.196835,-0.000843033,0,-0.175387,-0.0950992,0,0.00908263,0.702206,5,0.1,18,4,-0.223849,-2.09862,0.600022,-0.337853,-0.00211596,-1.49012e-06,-0.084728,-0.00417233,8.9407e-05,0.0103634,0.0817562,5,0.1,19,4,-4.03879,-3.38409,0.555834,-0.858879,-0.100517,-0.0311673,0.131845,0.0647306,0.0217557,0.00870826,0.729583,5,0.1
0,4.1,0.237668,0.966047,0.590068,-0.0547617,-0.86556,0.00659591,0.116083,-0.0186004,-0.00250712,0.00961556,2.28532,5,0.1,1,4.1,3.63272,-5.26161,0.756457,-0.136504,-0.241435,-0.0120386,0.296459,0.203669,0.0100248,0.00973821,0.0803972,5,0.1,2,4.1,1.20088,4.06664,1.33538,-0.000748783,-0.651413,0.0124583,0.000789762,0.0429153,-0.0138655,0.0516517,0.428843,5,0.1,3,4.1,-5.03655,-2.59976,0.55337,-0.370434,0.0543173,-0.00303993,0.170946,-0.0255555,0.00140443,0.00756371,0.0734829,5,0.1,4,4.1,0.898864,-2.39421,0.600234,-0.0076226,-0.0317961,-0.000942312,-0.0245534,0.0859201,0.00264496,0.0101191,0.253053,5,0.1,5,4.1,-0.329651,-0.202477,0.560477,-0.32789,-0.072621,-0.0642132,0.10857,0.109208,0.024572,0.00779379,0.0213231,5,0.1,6,4.1,-1.80893,-2.54569,1.1601,0.00367239,0.480169,0.139374,-0.000193715,-0.679448,-0.00745058,0.0137058,2.93027,5,0.1,7,4.1,-0.533185,2.5695,0.597787,-0.559381,-0.0181019,0.0020328,-0.276582,0.0184476,-0.00203773,0.0080917,0.526611,5,0.1,8,4.1,0.71492,-0.49108,0.596184,0.632835,-0.162993,0.00374708,-0.948153,0.103692,-0.00356138,0.0121779,0.695649,5,0.1,9,4.1,-1.30157,-2.00388,0.606143,0.00473037,0.252835,0.023397,0.160635,0.0113696,0.0579543,0.00860495,0.4068,5,0.1,10,4.1,3.67657,-4.1415,0.500173,0.016243,0.855482,-0.000411365,-0.662953,0.255525,-0.000383705,0.0229565,2.57885,5,0.1,11,4.1,-3.96302,4.23285,0.663912,0.00749938,-7.45058e-07,-0.00076564,-0.0038594,-2.98023e-05,0.000376254,0.00977431,1.43906e-05,5,0.1,12,4.1,-1.36099,1.53126,0.601974,0.378104,-0.0487285,-0.00296682,0.0371113,0.0566617,0.0032112,0.00757022,0.174038,5,0.1,13,4.1,1.8416,-2.4164,0.598298,0.194042,0.0975478,0.00294652,-0.2077,-0.370309,-0.00285357,0.00896189,0.187045,5,0.1,14,4.1,2.6562,-3.21561,0.566059,-0.556238,-0.334881,-0.00950731,0.410333,0.320464,0.00933558,0.00979901,0.186848,5,0.1,15,4.1,0.376989,-2.51705,0.648883,-0.065608,0.866026,0.0219066,-0.0115037,0,-0.0852197,0.0194024,2.26963,5,0.1,16,4.1,4.27052,0.163305,0.599751,-0.25264,-0.0160393,0.000736956,-1.24636,0.049429,-0.0028424,0.0435458,1.51478,5,0.1,17,4.1,-0.398072,0.198827,0.5,0.178097,-0.0093244,0,-0.199378,-0.0508577,0,0.00908263,0.702206,5,0.1,18,4.1,-0.258056,-2.09885,0.600022,-0.345867,-0.00238866,4.19095e-06,-0.0594157,-0.00137091,3.35276e-05,0.0103634,0.0817562,5,0.1,19,4.1,-4.12419,-3.39383,0.55282,-0.849621,-0.0945389,-0.0291576,0.0940561,0.0581145,0.0194274,0.00870826,0.729583,5,0.1
0,4.2,0.232883,0.879454,0.590712,-0.040077,-0.866026,0.00624359,0.168458,0,-0.00455976,0.00990238,2.28326,5,0.1,1,4.2,3.62061,-5.2847,0.755307,-0.105375,-0.219953,-0.0109494,0.318646,0.229597,0.0118315,0.00886587,0.232308,5,0.1,2,4.2,1.20081,4.0019,1.33656,-0.000673532,-0.641114,0.0111818,0.000655651,0.184178,-0.0121593,0.0482865,1.19113,5,0.1,3,4.2,-5.07272,-2.59446,0.553073,-0.35243,0.0516832,-0.00289381,0.201702,-0.0293255,0.00160933,0.00737203,0.0573593,5,0.1,4,4.2,0.898117,-2.39698,0.600152,-0.00565201,-0.0237644,-0.000701845,0.0743866,0.074625,0.00223517,0.0114336,0.214949,5,0.1,5,4.2,-0.361693,-0.209188,0.554216,-0.310911,-0.0615582,-0.0606194,0.230864,0.111565,0.0473261,0.00878979,0.00870346,5,0.1,6,4.2,-1.80857,-2.5,1.17398,0.00362992,0.444323,0.137815,-0.000834465,-0.0581741,-0.0296235,0.0158483,2.79581,5,0.1,7,4.2,-0.590266,2.56778,0.59798,-0.579214,-0.0163317,0.0018388,-0.0959635,0.0174046,-0.00196695,0.00716498,0.777936,5,0.1,8,4.2,0.772984,-0.507437,0.596541,0.524554,-0.168744,0.00339448,-1.18262,-0.173062,-0.00351667,0.00942115,0.541408,5,0.1,9,4.2,-1.3,-1.97861,0.608751,0.0293642,0.251612,0.0284925,0.320256,-0.0450611,0.0420213,0.00822496,0.3393,5,0.1,10,4.2,3.67441,-4.05521,0.500131,-0.0626922,0.866032,-0.000415742,-0.858307,-0.000119209,0.000268221,0.0236781,2.405,5,0.1,11,4.2,-3.9623,4.23285,0.663838,0.00686646,0,-0.000701845,-0.00870228,-0.000238419,0.000864267,0.00845453,7.93648e-06,5,0.1,12,4.2,-1.32299,1.52666,0.601694,0.381222,-0.0431806,-0.00265092,0.00286102,0.0550747,0.00315905,0.0105404,0.104205,5,0.1,13,4.2,1.85994,-2.40842,0.598578,0.172594,0.06302,0.00264645,-0.222564,-0.315309,-0.00318885,0.00728659,0.405354,5,0.1,14,4.2,2.60268,-3.24752,0.565155,-0.513428,-0.303179,-0.0085786,0.457287,0.32115,0.00938773,0.00915147,0.12423,5,0.1,15,4.2,0.370388,-2.43045,0.650657,-0.0661604,0.866026,0.0137016,0.00326335,0,-0.0775158,0.019121,2.26932,5,0.1,16,4.2,4.23914,0.161923,0.599812,-0.372589,-0.0118159,0.000490248,-1.09959,0.0357777,-0.00214577,0.0418449,1.19848,5,0.1,17,4.2,-0.381298,0.197852,0.5,0.157009,-0.00779741,0,-0.221878,0.0898987,0,0.00818142,1.62705,5,0.1,18,4.2,-0.29279,-2.09909,0.600023,-0.347038,-0.00241399,4.47035e-06,0.0468194,0.000953674,2.98023e-05,0.0127494,0.0602134,5,0.1,19,4.2,-4.20847,-3.40299,0.550004,-0.833166,-0.088352,-0.0271171,0.262737,0.0680685,0.0220835,0.0073288,0.510467,5,0.1
0,4.3,0.229886,0.792851,0.591313,-0.0185384,-0.866026,0.00578482,0.248149,3.72529e-06,-0.00472367,0.00990238,2.28326,5,0.1,1,4.3,3.61166,-5.30581,0.754272,-0.0739586,-0.204415,-0.00972888,0.302687,0.0996888,0.0125729,0.00886587,0.232308,5,0.1,2,4.3,1.20075,3.938,1.33762,-0.000617467,-0.642225,0.0101466,0.000499189,-0.141874,-0.0090301,0.0482865,1.19113,5,0.1,3,4.3,-5.10711,-2.58942,0.55279,-0.336425,0.0494167,-0.00276966,0.136912,-0.0188649,0.00103191,0.00737203,0.0573593,5,0.1,4,4.3,0.89804,-2.399,0.600093,0.00626901,-0.0168703,-0.0005004,0.198554,0.0631213,0.00179932,0.0114336,0.214949,5,0.1,5,4.3,-0.391548,-0.214794,0.548406,-0.285348,-0.0506618,-0.0554459,0.281362,0.105965,0.0563487,0.00878979,0.00870346,5,0.1,6,4.3,-1.80821,-2.4544,1.18766,0.00358,0.479639,0.136098,-0.000357628,0.656217,-0.0123456,0.0158483,2.79581,5,0.1,7,4.3,-0.649007,2.56623,0.598155,-0.597799,-0.0147928,0.00166548,-0.228219,0.0139326,-0.00156835,0.00716498,0.777936,5,0.1,8,4.3,0.819425,-0.525682,0.596864,0.403829,-0.200078,0.00307551,-1.20958,-0.409741,-0.00296906,0.00942115,0.541408,5,0.1,9,4.3,-1.29511,-1.95364,0.611806,0.0711476,0.247822,0.0325089,0.482179,-0.0414997,0.0361577,0.00822496,0.3393,5,0.1,10,4.3,3.66422,-3.96862,0.500091,-0.137732,0.865812,-0.000367966,-0.656709,-0.00856817,0.000651926,0.0236781,2.405,5,0.1,11,4.3,-3.96166,4.23285,0.663773,0.00584573,-2.01166e-05,-0.000599865,-0.0113547,-0.000149012,0.00113621,0.00845453,7.93648e-06,5,0.1,12,4.3,-1.28479,1.52261,0.601444,0.383079,-0.0380242,-0.00235438,0.014402,0.0488982,0.00282377,0.0105404,0.104205,5,0.1,13,4.3,1.87611,-2.40364,0.598827,0.150928,0.0333909,0.00233371,-0.212207,-0.267223,-0.00309199,0.00728659,0.405354,5,0.1,14,4.3,2.5535,-3.27633,0.564341,-0.470994,-0.273993,-0.00771871,0.405654,0.271529,0.00805035,0.00915147,0.12423,5,0.1,15,4.3,0.363766,-2.34385,0.651649,-0.0663891,0.866026,0.0062651,-0.00391901,0,-0.0699945,0.019121,2.26932,5,0.1,16,4.3,4.19628,0.160899,0.599851,-0.484154,-0.00885362,0.000306498,-1.07694,0.0241809,-0.00155345,0.0418449,1.19848,5,0.1,17,4.3,-0.366334,0.197572,0.500026,0.145415,0.00508931,0.000722148,-0.0330228,0.253467,0.0128374,0.00818142,1.62705,5,0.1,18,4.3,-0.327318,-2.09932,0.600024,-0.343671,-0.00221729,4.84288e-06,0.0374857,0.00283122,-2.23517e-05,0.0127494,0.0602134,5,0.1,19,4.3,-4.29059,-3.4115,0.547396,-0.8097,-0.0820719,-0.0250821,0.239521,0.0602603,0.0194348,0.0073288,0.510467,5,0.1
0,4.4,0.229308,0.706249,0.591867,0.00705421,-0.866026,0.00528097,0.252895,0,-0.00542402,0.00930336,2.2787,5,0.1,1,4.4,3.6057,-5.32584,0.753363,-0.045985,-0.196767,-0.00843704,0.252128,0.067234,0.013262,0.00859842,0.296524,5,0.1,2,4.4,1.20069,3.87297,1.3386,-0.000569224,-0.658262,0.00929236,0.000476837,-0.131011,-0.00840425,0.0482979,0.11072,5,0.1,3,4.4,-5.14005,-2.58457,0.552518,-0.321889,0.0474274,-0.00266135,0.166655,-0.0231266,0.0013113,0.00751854,0.0261481,5,0.1,4,4.4,0.9,-2.40039,0.600051,0.0361085,-0.0111639,-0.000339746,0.384212,0.0510216,0.00140071,0.011804,0.153402,5,0.1,5,4.4,-0.418588,-0.219343,0.543159,-0.254587,-0.0404391,-0.0493348,0.333413,0.098139,0.0657439,0.0081429,0.00266548,5,0.1,6,4.4,-1.80785,-2.4027,1.20118,0.00352263,0.556493,0.134045,-0.00089407,0.798702,-0.0341535,0.0139922,2.50995,5,0.1,7,4.4,-0.709827,2.56482,0.598314,-0.616688,-0.0134408,0.00151396,-0.115395,0.0134706,-0.00151992,0.00849147,0.578383,5,0.1,8,4.4,0.853868,-0.547832,0.597157,0.286549,-0.243007,0.00278354,-1.1192,-0.415862,-0.00295043,0.0118479,0.110805,5,0.1,9,4.4,-1.28554,-1.92913,0.615214,0.119972,0.2415,0.0353664,0.469267,-0.0923276,0.0194907,0.00765312,0.267093,5,0.1,10,4.4,3.64742,-3.88215,0.500058,-0.195909,0.862598,-0.000292063,-0.511408,-0.0683069,0.000804663,0.0248143,2.33777,5,0.1,11,4.4,-3.96113,4.23284,0.663719,0.00465512,-2.38419e-05,-0.000479817,-0.0121593,-0.000238419,0.0012517,0.00744242,7.48423e-06,5,0.1,12,4.4,-1.24652,1.51904,0.601222,0.380743,-0.0332624,-0.00207722,-0.0748038,0.0469685,0.00277162,0.00877136,0.0567571,5,0.1,13,4.4,1.89015,-2.40149,0.599045,0.129923,0.0111163,0.00202507,-0.208735,-0.173211,-0.00312924,0.00872881,0.545412,5,0.1,14,4.4,2.50844,-3.3024,0.563609,-0.429887,-0.247341,-0.00692904,0.426292,0.267863,0.00789762,0.0109918,0.143055,5,0.1,15,4.4,0.357122,-2.25724,0.651946,-0.0662751,0.866026,-9.23872e-05,0.0089705,0,-0.0563264,0.0158126,2.26915,5,0.1,16,4.4,4.14289,0.160121,0.599875,-0.578666,-0.00685006,0.000175834,-0.774622,0.0164658,-0.00107288,0.0418843,0.327997,5,0.1,17,4.4,-0.351802,0.2,0.500172,0.146332,0.0498336,0.00228286,0.0336468,0.625171,0.0171065,0.00775717,1.40583,5,0.1,18,4.4,-0.361401,-2.09953,0.600024,-0.336697,-0.00187159,1.49012e-06,0.113472,0.0038147,-2.98023e-05,0.00957602,0.0939466,5,0.1,19,4.4,-4.37018,-3.4194,0.544986,-0.779712,-0.0758469,-0.0230923,0.382662,0.0661612,0.020951,0.00831099,0.349587,5,0.1
0,4.5,0.231413,0.619646,0.592369,0.0359705,-0.866026,0.00477508,0.308925,3.72529e-06,-0.00482798,0.00930336,2.2787,5,0.1,1,4.5,3.60224,-5.34533,0.752428,-0.0243619,-0.194149,-0.0115791,0.180304,0.00038743,-0.0662431,0.00859842,0.296524,5,0.1,2,4.5,1.20063,3.80695,1.33949,-0.000527874,-0.657345,0.00857227,0.000372529,0.150204,-0.0063777,0.0482979,0.11072,5,0.1,3,4.5,-5.17143,-2.57994,0.552258,-0.305666,0.0451941,-0.00253506,0.167549,-0.0230521,0.0012964,0.00751854,0.0261481,5,0.1,4,4.5,0.905881,-2.40127,0.600024,0.0840683,-0.00659265,-0.000216439,0.538394,0.040397,0.00107288,0.011804,0.153402,5,0.1,5,4.5,-0.442349,-0.222912,0.538559,-0.220345,-0.0311055,-0.0426105,0.349663,0.0881152,0.0684224,0.0081429,0.00266548,5,0.1,6,4.5,-1.8075,-2.34239,1.21446,0.00346377,0.654334,0.131798,-0.000461936,1.06893,-0.017941,0.0139922,2.50995,5,0.1,7,4.5,-0.772219,2.56353,0.598458,-0.631651,-0.0122469,0.00137985,-0.146512,0.0108927,-0.0012219,0.00849147,0.578383,5,0.1,8,4.5,0.877214,-0.574081,0.597423,0.183436,-0.280282,0.00255639,-0.935532,-0.315391,-0.00176951,0.0118479,0.110805,5,0.1,9,4.5,-1.2711,-1.90541,0.618843,0.16915,0.232965,0.0371276,0.489093,-0.087142,0.0140257,0.00765312,0.267093,5,0.1,10,4.5,3.62569,-3.79595,0.500033,-0.236579,0.863039,-0.000209454,-0.378549,0.035271,0.000823289,0.0248143,2.33777,5,0.1,11,4.5,-3.96073,4.23284,0.663677,0.0034254,-4.32134e-05,-0.000353437,-0.0122041,-0.000119209,0.00124797,0.00744242,7.48423e-06,5,0.1,12,4.5,-1.20883,1.51594,0.601028,0.372643,-0.0288632,-0.00181664,-0.0996292,0.0415742,0.00247359,0.00877136,0.0567571,5,0.1,13,4.5,1.90212,-2.40117,0.599232,0.109742,-0.0032872,0.0017209,-0.195183,-0.0965595,-0.00295788,0.00872881,0.545412,5,0.1,14,4.5,2.46725,-3.32601,0.562949,-0.396439,-0.226544,-0.00630161,0.26767,0.163317,0.00505522,0.0109918,0.143055,5,0.1,15,4.5,0.350516,-2.17064,0.651668,-0.065995,0.866026,-0.00532977,0.000515953,0,-0.0474826,0.0158126,2.26915,5,0.1,16,4.5,4.08168,0.159506,0.599888,-0.639699,-0.0055636,8.77306e-05,-0.433177,0.00982266,-0.000700355,0.0418843,0.327997,5,0.1,17,4.5,-0.336829,0.208928,0.500496,0.154388,0.135047,0.00424553,0.109777,1.00642,0.0209436,0.00775717,1.40583,5,0.1,18,4.5,-0.394684,-2.09969,0.600024,-0.330234,-0.00146888,-1.95578e-06,0.0374001,0.00412762,-4.09782e-05,0.00957602,0.0939466,5,0.1,19,4.5,-4.44636,-3.42668,0.542775,-0.744326,-0.0697661,-0.0211699,0.352055,0.0577122,0.0181794,0.00831099,0.349587,5,0.1
0,4.6,0.236535,0.533044,0.592823,0.0659641,-0.866026,0.00429451,0.278704,0,-0.00488758,0.00896379,2.27197,5,0.1,1,4.6,3.60059,-5.36475,0.750875,-0.00981092,-0.194049,-0.0199333,0.111699,0.0128746,-0.0932217,0.0065363,0.354652,5,0.1,2,4.6,1.20058,3.74243,1.34031,-0.000488758,-0.628388,0.00794828,0.000357628,0.426531,-0.0063777,0.0467298,0.211401,5,0.1,3,4.6,-5.2011,-2.57554,0.552012,-0.28677,0.0425637,-0.00238717,0.217199,-0.0305176,0.00172853,0.00686973,0.0158723,5,0.1,4,4.6,0.916987,-2.40174,0.600007,0.13743,-0.0030756,-0.00012368,0.501841,0.0299215,0.000745058,0.0120011,0.0931052,5,0.1,5,4.6,-0.462621,-0.225601,0.534642,-0.185017,-0.0228856,-0.0357166,0.355065,0.0760183,0.0690818,0.00815195,0.00186463,5,0.1,6,4.6,-1.80716,-2.27176,1.22753,0.00339448,0.754857,0.129238,-0.000953674,0.876307,-0.0383854,0.0161239,2.32321,5,0.1,7,4.6,-0.835917,2.56236,0.59859,-0.639647,-0.0111818,0.00126064,0.012666,0.0107288,-0.00119209,0.0104824,0.15289,5,0.1,8,4.6,0.891232,-0.603425,0.597671,0.100543,-0.303757,0.00239909,-0.718951,-0.145048,-0.00149012,0.00909344,0.0756277,5,0.1,9,4.6,-1.25188,-1.8826,0.622605,0.213468,0.222597,0.0378892,0.379384,-0.126064,8.9407e-05,0.00968083,0.200119,5,0.1,10,4.6,3.6,-3.70956,0.500016,-0.278747,0.863028,-0.00013113,-0.459313,-0.0599623,0.000685453,0.0228778,2.25423,5,0.1,11,4.6,-3.96045,4.23283,0.663648,0.00225902,-4.76837e-05,-0.000235438,-0.0109673,0,0.00116229,0.00941242,6.00849e-06,5,0.1,12,4.6,-1.17219,1.51326,0.600858,0.358763,-0.0248551,-0.00157505,-0.185966,0.039041,0.00232458,0.0107739,0.115491,5,0.1,13,4.6,1.91214,-2.40175,0.59939,0.0908434,-0.00581741,0.00143349,-0.182927,0.0517368,-0.00280142,0.00686527,2.98923,5,0.1,14,4.6,2.42885,-3.34791,0.562343,-0.372005,-0.212014,-0.00584722,0.239491,0.138402,0.00429153,0.00976042,0.0830337,5,0.1,15,4.6,0.343931,-2.08404,0.650918,-0.0655107,0.866026,-0.00943393,0.0119507,0,-0.0340044,0.0169318,2.2691,5,0.1,16,4.6,4.0162,0.158991,0.599893,-0.663435,-0.00478551,3.12924e-05,-0.035882,0.00617653,-0.000417233,0.0395998,0.66283,5,0.1,17,4.6,-0.320835,0.227601,0.501023,0.165216,0.238357,0.00626147,0.0937581,1.00484,0.0184774,0.00863411,1.13423,5,0.1,18,4.6,-0.427501,-2.09982,0.600023,-0.325505,-0.00106096,-7.45058e-06,0.0726879,0.00393391,0,0.0101718,0.169228,5,0.1,19,4.6,-4.5189,-3.43336,0.540749,-0.704765,-0.0639141,-0.0193402,0.457525,0.0605583,0.0188649,0.0091372,0.236216,5,0.1
0,4.7,0.244446,0.446441,0.59323,0.0913426,-0.866026,0.00385586,0.224057,3.57628e-06,-0.00402331,0.00896379,2.27197,5,0.1,1,4.7,3.60013,-5.3841,0.748395,6.44475e-05,-0.192812,-0.0297511,0.081107,0.0197887,-0.0981838,0.0065363,0.354652,5,0.1,2,4.7,1.20053,3.68157,1.34108,-0.000456907,-0.589988,0.00739414,0.000290573,0.363693,-0.00501424,0.0467298,0.211401,5,0.1,3,4.7,-5.22871,-2.57144,0.551782,-0.26561,0.0395909,-0.00221934,0.213623,-0.0301003,0.00169873,0.00686973,0.0158723,5,0.1,4,4.7,0.93323,-2.40191,0.599998,0.186779,-0.000503287,-6.01634e-05,0.463929,0.0216216,0.000528991,0.0120011,0.0931052,5,0.1,5,4.7,-0.479365,-0.227529,0.531412,-0.150106,-0.0158537,-0.0289373,0.340788,0.0643581,0.0660643,0.00815195,0.00186463,5,0.1,6,4.7,-1.80682,-2.19243,1.24031,0.00332911,0.826078,0.126594,-0.000528991,0.528932,-0.0213683,0.0161239,2.32321,5,0.1,7,4.7,-0.89958,2.56129,0.598711,-0.630944,-0.0102263,0.00115493,0.171464,0.00877678,-0.00096485,0.0104824,0.15289,5,0.1,8,4.7,0.898083,-0.634491,0.597905,0.0402333,-0.316808,0.00230223,-0.493079,-0.100821,-0.000625849,0.00909344,0.0756277,5,0.1,9,4.7,-1.22864,-1.86094,0.626393,0.250586,0.210843,0.0377996,0.343561,-0.116237,-0.00326335,0.00968083,0.200119,5,0.1,10,4.7,3.56928,-3.62331,0.500006,-0.339486,0.86345,-7.01286e-05,-0.695974,0.0276417,0.000525266,0.0228778,2.25423,5,0.1,11,4.7,-3.96027,4.23283,0.66363,0.00122115,-4.47035e-05,-0.000126101,-0.00965595,5.96046e-05,0.00100583,0.00941242,6.00849e-06,5,0.1,12,4.7,-1.13698,1.51096,0.600712,0.347316,-0.0212144,-0.00135656,-0.0682399,0.0341535,0.00206381,0.0107739,0.115491,5,0.1,13,4.7,1.92051,-2.40216,0.59952,0.0781555,0.000667199,0.00117011,-0.0812262,0.224784,-0.00247359,0.00686527,2.98923,5,0.1,14,4.7,2.39271,-3.36851,0.561777,-0.351823,-0.200658,-0.00548819,0.180677,0.0988245,0.00315532,0.00976042,0.0830337,5,0.1,15,4.7,0.337414,-1.99744,0.649814,-0.0649692,0.866026,-0.0125411,0.00271387,0,-0.0272952,0.0169318,2.2691,5,0.1,16,4.7,3.94946,0.158537,0.599895,-0.672406,-0.00436199,3.72529e-07,-0.102401,0.00272878,-0.000208616,0.0395998,0.66283,5,0.1,17,4.7,-0.303777,0.256696,0.501743,0.176266,0.344497,0.00813641,0.113523,1.06294,0.0181049,0.00863411,1.13423,5,0.1,18,4.7,-0.460014,-2.09991,0.600023,-0.327194,-0.000695512,-8.28877e-06,-0.0748914,0.00335276,-1.86265e-05,0.0101718,0.169228,5,0.1,19,4.7,-4.58722,-3.43947,0.538904,-0.662303,-0.0583701,-0.0176168,0.414073,0.0522137,0.0161715,0.0091372,0.236216,5,0.1
0,4.8,0.254578,0.359839,0.593596,0.109968,-0.866025,0.00346601,0.145182,-1.43051e-05,-0.0038147,0.0115796,2.27075,5,0.1,1,4.8,3.60046,-5.40322,0.744954,0.00572205,-0.188768,-0.0387192,0.03016,0.0660419,-0.0776947,0.00856773,0.332423,5,0.1,2,4.8,1.20049,3.62443,1.34179,-0.000426173,-0.551879,0.0068903,0.000298023,0.414014,-0.00530481,0.0435871,0.625271,5,0.1,3,4.8,-5.25416,-2.56764,0.551569,-0.242805,0.0363469,-0.00203699,0.246763,-0.0354052,0.00199676,0.00672064,0.00506858,5,0.1,4,4.8,0.954023,-2.40187,0.599994,0.226654,0.00126958,-1.63913e-05,0.319153,0.0140667,0.000327826,0.0102949,0.123792,5,0.1,5,4.8,-0.492712,-0.228813,0.528841,-0.117283,-0.0100516,-0.0225827,0.313848,0.0515506,0.0606477,0.0100905,0.00183807,5,0.1,6,4.8,-1.80649,-2.10784,1.25284,0.00325739,0.859165,0.12379,-0.00101328,0.13721,-0.0395775,0.0156256,2.26523,5,0.1,7,4.8,-0.96149,2.56031,0.598822,-0.603844,-0.00936389,0.00105798,0.375569,0.00870228,-0.000953674,0.00816584,0.305389,5,0.1,8,4.8,0.899972,-0.666502,0.598132,0.000704825,-0.321425,0.00224411,-0.303894,0.0183284,-0.000685453,0.0100789,0.0968886,5,0.1,9,4.8,-1.20206,-1.84046,0.630142,0.278905,0.198135,0.0370085,0.20963,-0.142932,-0.0135303,0.00895564,0.142615,5,0.1,10,4.8,3.53187,-3.53695,0.500002,-0.407594,0.862086,-2.68221e-05,-0.622392,-0.0786781,0.000298023,0.0225363,2.15433,5,0.1,11,4.8,-3.9602,4.23283,0.663622,0.000351667,-3.57628e-05,-3.57628e-05,-0.00762939,0,0.00077486,0.00971195,3.59313e-06,5,0.1,12,4.8,-1.10257,1.509,0.600586,0.340748,-0.0179589,-0.00115931,-0.0814795,0.0312328,0.00196695,0.0111487,0.0681716,5,0.1,13,4.8,1.92802,-2.4,0.599625,0.0727504,0.0522912,0.000937283,-0.0350475,0.792384,-0.00217557,0.00869565,2.60861,5,0.1,14,4.8,2.35844,-3.38808,0.561244,-0.333047,-0.190514,-0.0051707,0.206351,0.111103,0.00342727,0.0094226,0.0647979,5,0.1,15,4.8,0.330942,-1.91083,0.64844,-0.0643134,0.866026,-0.0147551,0.0131279,0,-0.0164509,0.0163165,2.26914,5,0.1,16,4.8,3.88187,0.158111,0.599894,-0.676906,-0.00416338,-1.3411e-05,0.0412464,0.00157207,-8.9407e-05,0.036992,1.52847,5,0.1,17,4.8,-0.285642,0.296185,0.502641,0.185576,0.441495,0.0097245,0.0629425,0.83755,0.0130236,0.00897548,0.865892,5,0.1,18,4.8,-0.493138,-2.09996,0.600022,-0.335005,-0.000393391,-1.04308e-05,-0.0581443,0.0025034,0,0.0119238,0.104048,5,0.1,19,4.8,-4.65131,-3.44505,0.537222,-0.618196,-0.0531554,-0.0160083,0.483513,0.053525,0.0163913,0.00733878,0.158548,5,0.1
0,4.9,0.266039,0.273236,0.593925,0.117088,-0.866025,0.0031394,0.014618,1.78814e-06,-0.0028573,0.0115796,2.27075,5,0.1,1,4.9,3.60118,-5.42178,0.740695,0.00814721,-0.182441,-0.0463376,0.00366569,0.0669956,-0.0708699,0.00856773,0.332423,5,0.1,2,4.9,1.20045,3.5707,1.34246,-0.000399165,-0.527577,0.00642166,0.00026077,0.119999,-0.00432134,0.0435871,0.625271,5,0.1,3,4.9,-5.2772,-2.56418,0.551375,-0.21794,0.0327632,-0.00183526,0.253141,-0.0366569,0.00205636,0.00672064,0.00506858,5,0.1,4,4.9,0.978341,-2.40168,0.599994,0.259707,0.00237823,9.87202e-06,0.319313,0.00825524,0.000201166,0.0102949,0.123792,5,0.1,5,4.9,-0.502921,-0.229578,0.526876,-0.0874506,-0.00543757,-0.0168242,0.280902,0.0406578,0.0541732,0.0100905,0.00183807,5,0.1,6,4.9,-1.80617,-2.0215,1.26507,0.00318792,0.865597,0.121082,-0.000543892,0.0171512,-0.0213087,0.0156256,2.26523,5,0.1,7,4.9,-1.02026,2.55942,0.598923,-0.573344,-0.0085853,0.000972487,0.263508,0.00718236,-0.000789762,0.00816584,0.305389,5,0.1,8,4.9,0.898763,-0.698678,0.598353,-0.0226314,-0.322815,0.0021684,-0.168759,-0.0257865,-0.000890344,0.0100789,0.0968886,5,0.1,9,4.9,-1.17315,-1.82133,0.633776,0.298414,0.184855,0.0356637,0.165254,-0.128679,-0.0145063,0.00895564,0.142615,5,0.1,10,4.9,3.48772,-3.45081,0.5,-0.47671,0.8625,-4.19095e-06,-0.707388,0.0386089,0.000152737,0.0225363,2.15433,5,0.1,11,4.9,-3.9602,4.23282,0.663622,-0.000331551,-3.27826e-05,3.33413e-05,-0.00596046,5.96046e-05,0.000596046,0.00971195,3.59313e-06,5,0.1,12,4.9,-1.06882,1.50735,0.60048,0.33462,-0.0150658,-0.000976678,-0.0574812,0.0268966,0.00170246,0.0111487,0.0681716,5,0.1,13,4.9,1.93521,-2.38958,0.599708,0.0719797,0.16562,0.000737328,0.0116229,1.37071,-0.00182912,0.00869565,2.60861,5,0.1,14,4.9,2.32602,-3.40667,0.560741,-0.316404,-0.181866,-0.00489755,0.143602,0.0723153,0.00230595,0.0094226,0.0647979,5,0.1,15,4.9,0.32455,-1.82423,0.646887,-0.0636682,0.866026,-0.0162557,0.00355393,0,-0.0127256,0.0163165,2.26914,5,0.1,16,4.9,3.81365,0.157699,0.599892,-0.693043,-0.00410206,-1.68569e-05,-0.29169,-7.45058e-06,1.11759e-05,0.036992,1.52847,5,0.1,17,4.9,-0.266747,0.344509,0.503677,0.192291,0.523767,0.0109749,0.0605648,0.765555,0.0112727,0.00897548,0.865892,5,0.1,18,4.9,-0.527012,-2.09999,0.600021,-0.342753,-0.000176951,-1.08965e-05,-0.0763014,0.00183284,-1.11759e-05,0.0119238,0.104048,5,0.1,19,4.9,-4.71084,-3.45011,0.535698,-0.573475,-0.0482786,-0.0145172,0.429481,0.0455827,0.0139065,0.00733878,0.158548,5,0.1
