id,t,px,py,pz,vx,vy,vz,ax,ay,az,planning_time,qp_cost,planning_report,size,id,t,px,py,pz,vx,vy,vz,ax,ay,az,planning_time,qp_cost,planning_report,size,id,t,px,py,pz,vx,vy,vz,ax,ay,az,planning_time,qp_cost,planning_report,size,id,t,px,py,pz,vx,vy,vz,ax,ay,az,planning_time,qp_cost,planning_report,size,id,t,px,py,pz,vx,vy,vz,ax,ay,az,planning_time,qp_cost,planning_report,size,id,t,px,py,pz,vx,vy,vz,ax,ay,az,planning_time,qp_cost,planning_report,size,id,t,px,py,pz,vx,vy,vz,ax,ay,az,planning_time,qp_cost,planning_report,size,id,t,px,py,pz,vx,vy,vz,ax,ay,az,planning_time,qp_cost,planning_report,size,id,t,px,py,pz,vx,vy,vz,ax,ay,az,planning_time,qp_cost,planning_report,size,id,t,px,py,pz,vx,vy,vz,ax,ay,az,planning_time,qp_cost,planning_report,size,id,t,px,py,pz,vx,vy,vz,ax,ay,az,planning_time,qp_cost,planning_report,size,id,t,px,py,pz,vx,vy,vz,ax,ay,az,planning_time,qp_cost,planning_report,size,id,t,px,py,pz,vx,vy,vz,ax,ay,az,planning_time,qp_cost,planning_report,size,id,t,px,py,pz,vx,vy,vz,ax,ay,az,planning_time,qp_cost,planning_report,size,id,t,px,py,pz,vx,vy,vz,ax,ay,az,planning_time,qp_cost,planning_report,size,id,t,px,py,pz,vx,vy,vz,ax,ay,az,planning_time,qp_cost,planning_report,size,id,t,px,py,pz,vx,vy,vz,ax,ay,az,planning_time,qp_cost,planning_report,size,id,t,px,py,pz,vx,vy,vz,ax,ay,az,planning_time,qp_cost,planning_report,size,id,t,px,py,pz,vx,vy,vz,ax,ay,az,planning_time,qp_cost,planning_report,size,id,t,px,py,pz,vx,vy,vz,ax,ay,az,planning_time,qp_cost,planning_report,size
0,0,2.4984,-2.73811,0.642346,0,0,0,0,0,0,0.0298968,3.5122,5,0.1,1,0,-0.0192471,1.84582,0.599357,0,0,0,0,0,0,0.0135213,3.5122,5,0.1,2,0,1.53233,2.45394,0.506569,0,0,0,0,0,0,0.0182899,3.5122,5,0.1,3,0,-2.99117,4.15299,0.673216,0,0,0,0,0,0,0.0220123,3.51219,5,0.1,4,0,2.32181,-3.44596,0.68263,0,0,0,0,0,0,0.0363069,3.5122,5,0.1,5,0,-2.30063,4.87395,0.500618,0,0,0,0,0,0,0.00989618,0.478959,5,0.1,6,0,0.334988,-5.68991,0.628421,0,0,0,0,0,0,0.00722862,3.5122,5,0.1,7,0,-0.77741,4.455,0.651812,0,0,0,0,0,0,0.0171386,1.23484,5,0.1,8,0,-0.185565,-1.72823,0.618542,0,0,0,0,0,0,0.0178651,3.5122,5,0.1,9,0,-5.33709,-3.97484,0.661252,0,0,0,0,0,0,0.0224708,3.51219,5,0.1,10,0,-3.54923,-5.77863,0.683179,0,0,0,0,0,0,0.0187556,3.5122,5,0.1,11,0,1.57348,4.35887,0.54268,0,0,0,0,0,0,0.0226767,0.577492,5,0.1,12,0,5.61473,1.58634,0.559148,0,0,0,0,0,0,0.0136704,3.5122,5,0.1,13,0,-3.59098,-0.0467277,0.564991,0,0,0,0,0,0,0.00692738,3.51219,5,0.1,14,0,0.136325,-4.15451,0.518184,0,0,0,0,0,0,0.0329934,3.5122,5,0.1,15,0,3.9442,-5.35311,0.545229,0,0,0,0,0,0,0.00894827,3.5122,5,0.1,16,0,-2.62538,-0.0537333,0.659791,0,0,0,0,0,0,0.015204,3.5122,5,0.1,17,0,1.28032,4.90841,0.515676,0,0,0,0,0,0,0.0110915,0.85967,5,0.1,18,0,-2.23944,-3.4849,0.6885,0,0,0,0,0,0,0.0266929,2.38199,5,0.1,19,0,0.792822,2.52185,0.648117,0,0,0,0,0,0,0.00878778,2.98458,5,0.1
0,0.1,2.49636,-2.73765,0.642316,-0.0577781,0.0131756,-0.000874326,-1.02718,0.234246,-0.0155419,0.0298968,3.5122,5,0.1,1,0.1,-0.0195298,1.84789,0.599358,-0.00802584,0.0587225,1.84402e-05,-0.142681,1.04396,0.000327826,0.0135213,3.5122,5,0.1,2,0.1,1.53417,2.45295,0.506512,0.0521371,-0.0281367,-0.00159638,0.926875,-0.500217,-0.0283755,0.0182899,3.5122,5,0.1,3,0.1,-2.98909,4.15281,0.673162,0.0590153,-0.00525638,-0.00152085,1.04916,-0.0934303,-0.0270382,0.0220123,3.51219,5,0.1,4,0.1,2.32149,-3.44389,0.682671,-0.00887178,0.0585891,0.00114553,-0.157729,1.04159,0.0203624,0.0363069,3.5122,5,0.1,5,0.1,-2.30069,4.87471,0.500689,-0.00166744,0.0217304,0.00199778,-0.0296533,0.386357,0.0355206,0.00989618,0.478959,5,0.1,6,0.1,0.335223,-5.68784,0.628473,0.00666874,0.0588737,0.00146497,0.118554,1.04663,0.0260472,0.00722862,3.5122,5,0.1,7,0.1,-0.776755,4.45395,0.651758,0.0185926,-0.0297815,-0.00153529,0.330541,-0.529468,-0.0272952,0.0171386,1.23484,5,0.1,8,0.1,-0.185639,-1.72614,0.61853,-0.00209964,0.0592297,-0.000340212,-0.0373265,1.05298,-0.00604615,0.0178651,3.5122,5,0.1,9,0.1,-5.33516,-3.97403,0.661217,0.0546239,0.0229783,-0.000987854,0.971109,0.4085,-0.0175573,0.0224708,3.51219,5,0.1,10,0.1,-3.54931,-5.77654,0.683204,-0.00211298,0.0592262,0.000702962,-0.0375509,1.05292,0.0125021,0.0187556,3.5122,5,0.1,11,0.1,1.57356,4.35886,0.543523,0.0022674,-0.000263005,0.0239241,0.0403151,-0.00467896,0.42532,0.0226767,0.577492,5,0.1,12,0.1,5.61334,1.58478,0.559188,-0.0394396,-0.0442252,0.00113891,-0.701159,-0.786215,0.020247,0.0136704,3.5122,5,0.1,13,0.1,-3.59104,-0.0488134,0.565063,-0.00164434,-0.0592102,0.00204472,-0.0292361,-1.05262,0.0363551,0.00692738,3.51219,5,0.1,14,0.1,0.136367,-4.15244,0.518398,0.00119773,0.0589423,0.00608703,0.0212938,1.04782,0.108216,0.0329934,3.5122,5,0.1,15,0.1,3.94374,-5.35107,0.545238,-0.0131443,0.0577912,0.000278465,-0.23368,1.02741,0.00494719,0.00894827,3.5122,5,0.1,16,0.1,-2.6233,-0.0535512,0.659737,0.0590224,0.00517116,-0.00151759,1.0493,0.0919313,-0.0269823,0.015204,3.5122,5,0.1,17,0.1,1.27977,4.90845,0.516547,-0.0157159,0.00123158,0.0247244,-0.279397,0.0219047,0.439547,0.0110915,0.85967,5,0.1,18,0.1,-2.23851,-3.48345,0.688564,0.0263587,0.0410404,0.00182269,0.468582,0.729606,0.0323988,0.0266929,2.38199,5,0.1,19,0.1,0.790898,2.52188,0.648067,-0.0546103,0.000834465,-0.00142604,-0.970855,0.0148416,-0.0253469,0.00878778,2.98458,5,0.1
0,0.2,2.48462,-2.73497,0.642138,-0.182611,0.0416398,-0.00276417,-1.36948,0.312209,-0.0207126,0.0243773,2.92581,5,0.1,1,0.2,-0.02116,1.85982,0.599362,-0.0253656,0.185591,5.81145e-05,-0.190242,1.39195,0.000447035,0.0139646,2.92579,5,0.1,2,0.2,1.54476,2.44723,0.506188,0.16478,-0.0889242,-0.00504404,1.23584,-0.666976,-0.0378489,0.0243727,2.91136,5,0.1,3,0.2,-2.9771,4.15174,0.672853,0.186521,-0.0166059,-0.00480562,1.3988,-0.124693,-0.0360608,0.0311038,2.9258,5,0.1,4,0.2,2.31969,-3.43199,0.682903,-0.028038,0.185174,0.00361949,-0.210285,1.38879,0.0271499,0.0337688,2.93686,5,0.1,5,0.2,-2.30103,4.87913,0.501095,-0.00526905,0.0686765,0.00631362,-0.0394583,0.515223,0.0473559,0.00874473,0.39296,5,0.1,6,0.2,0.336578,-5.67588,0.62877,0.0210762,0.186074,0.00463128,0.158072,1.39523,0.0347197,0.00930352,2.92583,5,0.1,7,0.2,-0.772978,4.4479,0.651446,0.0587627,-0.0941277,-0.00485182,0.440687,-0.705957,-0.0364184,0.0282678,1.01312,5,0.1,8,0.2,-0.186065,-1.71411,0.618461,-0.00663549,0.187197,-0.00107586,-0.0497773,1.40393,-0.00804663,0.0289798,2.9258,5,0.1,9,0.2,-5.32407,-3.96936,0.661017,0.172639,0.0726223,-0.00312179,1.29485,0.544667,-0.0234246,0.035728,2.92579,5,0.1,10,0.2,-3.54974,-5.76451,0.683347,-0.00667572,0.187182,0.00222176,-0.0500679,1.40405,0.0166595,0.0234069,2.92578,5,0.1,11,0.2,1.57402,4.3588,0.548382,0.00716746,-0.000834465,0.075613,0.0537038,-0.00619888,0.567079,0.0368406,0.475591,5,0.1,12,0.2,5.60533,1.5758,0.55942,-0.124657,-0.139773,0.00360012,-0.934839,-1.04833,0.0269711,0.0248697,2.92579,5,0.1,13,0.2,-3.59137,-0.0608406,0.565479,-0.00520349,-0.187133,0.00646263,-0.0388622,-1.4035,0.0484586,0.0138606,2.92579,5,0.1,14,0.2,0.13661,-4.14046,0.519635,0.00378564,0.186288,0.0192389,0.0283867,1.39713,0.144273,0.0547001,2.9258,5,0.1,15,0.2,3.94107,-5.33934,0.545295,-0.0415444,0.182652,0.000880659,-0.311494,1.36971,0.00658631,0.00863602,2.96134,5,0.1,16,0.2,-2.61131,-0.0525008,0.659429,0.186539,0.0163435,-0.00479668,1.39916,0.122573,-0.0359416,0.0140662,2.92578,5,0.1,17,0.2,1.27658,4.9087,0.521569,-0.0496686,0.00389814,0.0781417,-0.372529,0.0290871,0.586063,0.0107527,0.705316,5,0.1,18,0.2,-2.23315,-3.47512,0.688935,0.0832975,0.129706,0.0057593,0.624895,0.972867,0.0432134,0.0262877,1.9543,5,0.1,19,0.2,0.779805,2.52205,0.647777,-0.172596,0.00263453,-0.00450611,-1.29446,0.019908,-0.0338256,0.0166848,2.4487,5,0.1
0,0.3,2.45875,-2.72907,0.641746,-0.340116,0.0775501,-0.00514667,-1.68309,0.383735,-0.0254586,0.0243773,2.92581,5,0.1,1,0.3,-0.0247546,1.88612,0.59937,-0.0472452,0.345677,0.000108965,-0.233803,1.71065,0.000543892,0.0139646,2.92579,5,0.1,2,0.3,1.56811,2.43463,0.505519,0.306791,-0.165565,-0.0080931,1.51665,-0.818506,-0.0233389,0.0243727,2.91136,5,0.1,3,0.3,-2.95067,4.14939,0.672172,0.347398,-0.0309423,-0.00895252,1.71912,-0.153184,-0.0443123,0.0311038,2.9258,5,0.1,4,0.3,2.31573,-3.40607,0.683424,-0.0518013,0.335981,0.0069499,-0.25095,1.54826,0.0370666,0.0337688,2.93686,5,0.1,5,0.3,-2.30177,4.88885,0.501989,-0.00979751,0.127774,0.011746,-0.0483394,0.630409,0.0579506,0.00874473,0.39296,5,0.1,6,0.3,0.339564,-5.64951,0.629426,0.0392559,0.346549,0.00862461,0.194266,1.71489,0.0426769,0.00930352,2.92583,5,0.1,7,0.3,-0.764656,4.43457,0.650759,0.109315,-0.175109,-0.00902861,0.539277,-0.86382,-0.044547,0.0282678,1.01312,5,0.1,8,0.3,-0.187006,-1.68758,0.618308,-0.01236,0.348664,-0.00200206,-0.0611702,1.72542,-0.0098981,0.0289798,2.9258,5,0.1,9,0.3,-5.2996,-3.95907,0.660574,0.321556,0.135265,-0.00581546,1.5913,0.669375,-0.0287779,0.035728,2.92579,5,0.1,10,0.3,-3.55068,-5.73798,0.683662,-0.0124346,0.348656,0.00413805,-0.0615269,1.72544,0.0204742,0.0234069,2.92578,5,0.1,11,0.3,1.57504,4.35869,0.558961,0.0133293,-0.00154749,0.136965,0.0657514,-0.00759959,0.628311,0.0368406,0.475591,5,0.1,12,0.3,5.58767,1.55599,0.55993,-0.232174,-0.260339,0.00670291,-1.14897,-1.28835,0.0331625,0.0248697,2.92579,5,0.1,13,0.3,-3.59211,-0.0873591,0.566394,-0.00967756,-0.348548,0.012036,-0.0478327,-1.72486,0.0595599,0.0138606,2.92579,5,0.1,14,0.3,0.137147,-4.11406,0.522361,0.00705055,0.346974,0.0358323,0.0348901,1.71703,0.177316,0.0547001,2.9258,5,0.1,15,0.3,3.93518,-5.31403,0.54542,-0.0773728,0.323695,0.00163866,-0.38287,1.39081,0.00810251,0.00863602,2.96134,5,0.1,16,0.3,-2.58488,-0.0501848,0.658749,0.347452,0.0304406,-0.00893138,1.71946,0.150641,-0.0441894,0.0140662,2.92578,5,0.1,17,0.3,1.26954,4.90925,0.532637,-0.0924012,0.00723898,0.145369,-0.455849,0.0357032,0.717152,0.0107527,0.705316,5,0.1,18,0.3,-2.22135,-3.45675,0.68975,0.154975,0.241302,0.0107157,0.764593,1.19045,0.052873,0.0262877,1.9543,5,0.1,19,0.3,0.75536,2.52242,0.647139,-0.321085,0.00491291,-0.00838554,-1.58401,0.0242591,-0.0413768,0.0166848,2.4487,5,0.1
0,0.4,2.41646,-2.71943,0.641107,-0.502282,0.114524,-0.00759959,-1.48821,0.339389,-0.0225306,0.0261569,2.51986,5,0.1,1,0.4,-0.0306283,1.9291,0.599383,-0.0697715,0.510496,0.000160933,-0.206725,1.51253,0.000476837,0.0112247,2.48295,5,0.1,2,0.4,1.60624,2.41405,0.504616,0.452861,-0.244397,-0.00975728,1.34003,-0.723124,-0.0102222,0.0170495,2.30474,5,0.1,3,0.4,-2.90748,4.14554,0.671059,0.513035,-0.0456929,-0.0132218,1.52004,-0.13566,-0.0391901,0.0296086,2.51476,5,0.1,4,0.4,2.30933,-3.365,0.684304,-0.0757873,0.481164,0.0106141,-0.21863,1.29771,0.0344515,0.0419009,2.62971,5,0.1,5,0.4,-2.30299,4.90473,0.503448,-0.0144482,0.188446,0.0173226,-0.0426769,0.555992,0.051111,0.0120086,0.310913,5,0.1,6,0.4,0.344445,-5.60643,0.630499,0.057973,0.511777,0.012736,0.171766,1.51634,0.0377595,0.00850637,2.51432,5,0.1,7,0.4,-0.751076,4.41281,0.649637,0.161216,-0.258243,-0.0133157,0.475764,-0.762224,-0.0393093,0.0282124,0.801593,5,0.1,8,0.4,-0.188542,-1.64424,0.618059,-0.0182532,0.514904,-0.00295639,-0.0540912,1.52558,-0.00873208,0.0281945,2.51553,5,0.1,9,0.4,-5.25962,-3.94225,0.659851,0.47487,0.199759,-0.00858903,1.40715,0.591874,-0.0254214,0.0281046,2.51006,5,0.1,10,0.4,-3.55223,-5.69464,0.684176,-0.0183642,0.514901,0.00611097,-0.0543594,1.5254,0.0181198,0.0214183,2.51549,5,0.1,11,0.4,1.57669,4.35849,0.575686,0.0196576,-0.0022769,0.195804,0.0579953,-0.00667572,0.525415,0.0269459,0.427532,5,0.1,12,0.4,5.5588,1.52362,0.560763,-0.34287,-0.384468,0.00989884,-1.0159,-1.1391,0.0293255,0.0114537,2.51008,5,0.1,13,0.4,-3.59331,-0.130692,0.567891,-0.0142872,-0.514735,0.0177741,-0.0424385,-1.5251,0.0526905,0.00938262,2.51545,5,0.1,14,0.4,0.138023,-4.07093,0.526816,0.0104122,0.512409,0.052917,0.0308529,1.51825,0.15679,0.0351901,2.51451,5,0.1,15,0.4,3.92556,-5.27508,0.545623,-0.114262,0.450468,0.00241846,-0.338554,1.10149,0.00718236,0.00875519,2.91283,5,0.1,16,0.4,-2.54168,-0.0464003,0.657639,0.513113,0.0449545,-0.0131905,1.5204,0.133196,-0.0390708,0.0136151,2.51478,5,0.1,17,0.4,1.25806,4.91015,0.550696,-0.136274,0.0106812,0.214387,-0.402093,0.0312328,0.632674,0.0114647,0.558054,5,0.1,18,0.4,-2.2021,-3.42677,0.691082,0.22856,0.355864,0.0158042,0.674486,1.05035,0.0466406,0.0267246,1.54625,5,0.1,19,0.4,0.715472,2.52303,0.646097,-0.473528,0.00724792,-0.0123665,-1.39749,0.0214577,-0.0365078,0.00878216,1.9382,5,0.1
0,0.5,2.35889,-2.70623,0.640231,-0.646773,0.149448,-0.00991775,-1.34239,0.341117,-0.022646,0.0261569,2.51986,5,0.1,1,0.5,-0.0386669,1.98773,0.599402,-0.0910009,0.660516,0.000209827,-0.207018,1.41844,0.000473112,0.0112247,2.48295,5,0.1,2,0.5,1.65835,2.38593,0.503614,0.588897,-0.317807,-0.0100413,1.31388,-0.709027,0.00364333,0.0170495,2.30474,5,0.1,3,0.5,-2.84858,4.14027,0.669535,0.663164,-0.0596464,-0.0172541,1.41385,-0.136197,-0.0393838,0.0296086,2.51476,5,0.1,4,0.5,2.30096,-3.31072,0.685563,-0.0887528,0.600195,0.0147332,-0.0501871,1.04465,0.0448786,0.0419009,2.62971,5,0.1,5,0.5,-2.30465,4.9264,0.50544,-0.0187777,0.24486,0.0225087,-0.0418127,0.544578,0.0500642,0.0120086,0.310913,5,0.1,6,0.5,0.351125,-5.54766,0.631967,0.0756482,0.661857,0.0166213,0.172649,1.41612,0.0379458,0.00850637,2.51432,5,0.1,7,0.5,-0.732532,4.38311,0.648105,0.209487,-0.335576,-0.0173033,0.465985,-0.746489,-0.0384934,0.0282124,0.801593,5,0.1,8,0.5,-0.190646,-1.58514,0.617719,-0.023819,0.665108,-0.00385586,-0.0543641,1.41043,-0.00879169,0.0281945,2.51553,5,0.1,9,0.5,-5.2049,-3.91923,0.658862,0.619665,0.260665,-0.0112054,1.4143,0.594914,-0.0255592,0.0281046,2.51006,5,0.1,10,0.5,-3.55435,-5.63554,0.684881,-0.0240173,0.665095,0.00799485,-0.0557154,1.41039,0.0185594,0.0214183,2.51549,5,0.1,11,0.5,1.57895,4.35823,0.597291,0.0255432,-0.00295565,0.230756,0.0568181,-0.00652671,0.192802,0.0269459,0.427532,5,0.1,12,0.5,5.51929,1.47932,0.561904,-0.447409,-0.501686,0.0129168,-1.02109,-1.14497,0.0294782,0.0114537,2.51008,5,0.1,13,0.5,-3.59496,-0.189773,0.569939,-0.0186536,-0.664933,0.0231955,-0.0426322,-1.41074,0.0529513,0.00938262,2.51545,5,0.1,14,0.5,0.139223,-4.01209,0.532914,0.0135871,0.662517,0.0690513,0.0310112,1.41497,0.157598,0.0351901,2.51451,5,0.1,15,0.5,3.9124,-5.22592,0.545902,-0.149086,0.520105,0.003157,-0.34003,0.34079,0.00721216,0.00875519,2.91283,5,0.1,16,0.5,-2.48277,-0.0412199,0.656119,0.663251,0.0586607,-0.0172115,1.41373,0.13388,-0.0392832,0.0136151,2.51478,5,0.1,17,0.5,1.24239,4.91138,0.575356,-0.177072,0.0138558,0.278579,-0.393838,0.0307262,0.619661,0.0114647,0.558054,5,0.1,18,0.5,-2.17581,-3.38584,0.692899,0.296992,0.462428,0.0205362,0.660613,1.02869,0.0456795,0.0267246,1.54625,5,0.1,19,0.5,0.661078,2.5239,0.644676,-0.613233,0.0105105,-0.0160275,-1.3317,0.0403225,-0.0349954,0.00878216,1.9382,5,0.1
0,0.6,2.28814,-2.6897,0.639134,-0.760776,0.179684,-0.0119239,-0.89705,0.250816,-0.0166893,0.0209121,2.5732,5,0.1,1,0.6,-0.0487295,2.06025,0.599425,-0.109324,0.782651,0.00025183,-0.151783,0.978589,0.000327826,0.0102576,2.01816,5,0.1,2,0.6,1.72332,2.35087,0.502645,0.704259,-0.380057,-0.00919551,0.946283,-0.510812,0.0125468,0.0164433,1.78957,5,0.1,3,0.6,-2.77583,4.13367,0.667627,0.784451,-0.0717163,-0.0207454,0.967026,-0.100136,-0.0289381,0.0200548,2.33073,5,0.1,4,0.6,2.29205,-3.24615,0.687257,-0.0876009,0.68379,0.0190586,0.0648499,0.602603,0.0393689,0.0334067,2.39971,5,0.1,5,0.6,-2.30672,4.95341,0.507923,-0.0224471,0.292647,0.0269011,-0.0300407,0.39196,0.0360608,0.0104712,0.231471,5,0.1,6,0.6,0.359494,-5.47502,0.633805,0.0909507,0.783563,0.0199839,0.126958,0.972509,0.027895,0.00779777,2.32839,5,0.1,7,0.6,-0.709429,4.3461,0.646197,0.250381,-0.401092,-0.0206813,0.335187,-0.53668,-0.0276566,0.0149739,0.787954,5,0.1,8,0.6,-0.193281,-1.51222,0.617292,-0.0286374,0.785777,-0.00463575,-0.0399724,0.95886,-0.0064671,0.0159736,2.33437,5,0.1,9,0.6,-5.13635,-3.8904,0.657622,0.74501,0.313395,-0.0134706,1.04022,0.437498,-0.0188053,0.0217849,2.25998,5,0.1,10,0.6,-3.55701,-5.56262,0.685767,-0.0289917,0.785768,0.00965148,-0.0414848,0.95892,0.0138283,0.0228664,2.33426,5,0.1,11,0.6,1.58177,4.35791,0.62091,0.0305265,-0.00352859,0.237815,0.0409484,-0.00500679,-0.0362992,0.0310881,0.380072,5,0.1,12,0.6,5.4698,1.42382,0.563332,-0.537908,-0.603166,0.01553,-0.751257,-0.841975,0.0216961,0.0151377,1.98429,5,0.1,13,0.6,-3.59702,-0.26268,0.572505,-0.0224292,-0.785658,0.027889,-0.031352,-0.959605,0.0389218,0.00852763,2.43981,5,0.1,14,0.6,0.140726,-3.93939,0.540552,0.0163358,0.78401,0.0830203,0.0227988,0.969887,0.115871,0.0462496,2.32954,5,0.1,15,0.6,3.89591,-5.17313,0.546251,-0.179207,0.527453,0.00379533,-0.250101,-0.155449,0.00530481,0.0138387,2.97002,5,0.1,16,0.6,-2.41001,-0.0347309,0.654215,0.78451,0.070527,-0.0206932,0.966787,0.0984548,-0.0289083,0.0125093,2.33087,5,0.1,17,0.6,1.22286,4.91291,0.606078,-0.211635,0.0165582,0.332958,-0.283301,0.0221729,0.445783,0.0166772,0.41546,5,0.1,18,0.6,-2.14306,-3.33484,0.695164,0.354964,0.552696,0.0245437,0.475168,0.74017,0.032872,0.0332722,1.15114,5,0.1,19,0.6,0.593642,2.52516,0.642913,-0.728844,0.0147045,-0.019072,-0.935286,0.0407696,-0.0247061,0.00909318,1.59824,5,0.1
0,0.7,2.20929,-2.67046,0.637857,-0.80078,0.204853,-0.0135976,0.0334531,0.23669,-0.0157319,0.0209121,2.5732,5,0.1,1,0.7,-0.0604116,2.14216,0.599452,-0.124009,0.843607,0.000283774,-0.133503,0.267312,0.000286847,0.0102576,2.01816,5,0.1,2,0.7,1.79759,2.31036,0.501798,0.772293,-0.429114,-0.00767354,0.413269,-0.442311,0.0172481,0.0164433,1.78957,5,0.1,3,0.7,-2.6936,4.12599,0.665405,0.850002,-0.0817619,-0.0236496,0.370055,-0.0944436,-0.0273138,0.0200548,2.33073,5,0.1,4,0.7,2.28364,-3.17435,0.689354,-0.0802264,0.754313,0.0227913,0.0822842,0.736773,0.0336692,0.0334067,2.39971,5,0.1,5,0.7,-2.30911,4.9846,0.51079,-0.025332,0.330274,0.0303624,-0.0259876,0.339091,0.0311881,0.0104712,0.231471,5,0.1,6,0.7,0.369232,-5.39286,0.635945,0.103691,0.849693,0.022783,0.119822,0.37536,0.0263266,0.00779777,2.32839,5,0.1,7,0.7,-0.682744,4.3032,0.643993,0.282561,-0.457064,-0.0233368,0.29001,-0.543445,-0.023935,0.0149739,0.787954,5,0.1,8,0.7,-0.196347,-1.42991,0.616796,-0.0326488,0.850464,-0.00528507,-0.0377251,0.36215,-0.00610948,0.0159736,2.33437,5,0.1,9,0.7,-5.05741,-3.85684,0.65618,0.826107,0.357312,-0.0153585,0.573218,0.41315,-0.0177585,0.0217849,2.25998,5,0.1,10,0.7,-3.56012,-5.48031,0.686804,-0.0332437,0.850461,0.0110682,-0.0407696,0.362188,0.013575,0.0228664,2.33426,5,0.1,11,0.7,1.58502,4.35753,0.644075,0.0344569,-0.00400543,0.222146,0.0354275,-0.00429153,-0.238094,0.0310881,0.380072,5,0.1,12,0.7,5.41226,1.35931,0.564993,-0.611502,-0.685655,0.0176554,-0.677109,-0.759006,0.019554,0.0151377,1.98429,5,0.1,13,0.7,-3.59942,-0.344744,0.575491,-0.0255745,-0.843419,0.0317951,-0.0295788,-0.227356,0.0367351,0.00852763,2.43981,5,0.1,14,0.7,0.142475,-3.8572,0.549441,0.0186243,0.849853,0.0946511,0.0215266,0.372648,0.109408,0.0462496,2.32954,5,0.1,15,0.7,3.87672,-5.12213,0.546658,-0.204181,0.485363,0.00432488,-0.233829,-0.58797,0.00496209,0.0138387,2.97002,5,0.1,16,0.7,-2.32778,-0.0271794,0.651999,0.850026,0.0804064,-0.0235939,0.369668,0.0929079,-0.027284,0.0125093,2.33087,5,0.1,17,0.7,1.2003,4.91467,0.641565,-0.238835,0.0186913,0.375754,-0.245132,0.0192225,0.385687,0.0166772,0.41546,5,0.1,18,0.7,-2.10523,-3.27593,0.69778,0.400582,0.62375,0.0276992,0.411108,0.640333,0.0284389,0.0332722,1.15114,5,0.1,19,0.7,0.51726,2.527,0.640914,-0.787432,0.0232127,-0.0206004,-0.253206,0.117615,-0.00635162,0.00909318,1.59824,5,0.1
0,0.8,2.13048,-2.64892,0.636427,-0.765485,0.224334,-0.0148922,0.622153,0.142217,-0.00944734,0.0432255,2.75015,5,0.1,1,0.8,-0.0733934,2.22686,0.599482,-0.134612,0.841153,0.000306964,-0.0728369,-0.292897,0.000178814,0.0217794,1.71361,5,0.1,2,0.8,1.876,2.26553,0.50112,0.787237,-0.46382,-0.00586063,-0.11009,-0.233054,0.018537,0.0234715,1.57639,5,0.1,3,0.8,-2.60749,4.1174,0.662919,0.866026,-0.0895262,-0.0258982,0,-0.0567436,-0.0163913,0.0342323,2.26524,5,0.1,4,0.8,2.27606,-3.0955,0.691782,-0.0712335,0.818944,0.0255212,0.0970364,0.504851,0.0198483,0.0427794,2.2948,5,0.1,5,0.8,-2.31176,5.01909,0.513961,-0.0273705,0.356865,0.0328079,-0.0137091,0.17786,0.0163913,0.012603,0.163426,5,0.1,6,0.8,0.380134,-5.30676,0.63834,0.113557,0.866032,0.0249505,0.0718981,-0.000238419,0.0157952,0.0107057,2.26154,5,0.1,7,0.8,-0.653235,4.25503,0.641556,0.305299,-0.503075,-0.0252128,0.15232,-0.349283,-0.0125468,0.0152209,0.574916,5,0.1,8,0.8,-0.19978,-1.34378,0.61624,-0.0357546,0.866026,-0.0057891,-0.0226498,0,-0.00363588,0.0178298,2.27091,5,0.1,9,0.8,-4.97272,-3.81927,0.654565,0.860083,0.391334,-0.0168204,0.118732,0.248075,-0.010699,0.0246863,2.16103,5,0.1,10,0.8,-3.56363,-5.39418,0.687972,-0.0366688,0.86602,0.01221,-0.0258684,0.000238419,0.00858307,0.0249716,2.27094,5,0.1,11,0.8,1.58862,4.35711,0.665012,0.037235,-0.00433922,0.196329,0.018537,-0.00214577,-0.255883,0.0287973,0.339433,5,0.1,12,0.8,5.34814,1.28741,0.566845,-0.665998,-0.746745,0.0192299,-0.383139,-0.429392,0.0110567,0.015037,1.4189,5,0.1,13,0.8,-3.60211,-0.429228,0.578834,-0.0280082,-0.836996,0.0348181,-0.0178814,0.328883,0.0220835,0.0116815,2.61935,5,0.1,14,0.8,0.144434,-3.77109,0.559393,0.0203971,0.866026,0.103661,0.0129268,0,0.0656843,0.0472729,2.26331,5,0.1,15,0.8,3.85527,-5.07663,0.547112,-0.223345,0.42516,0.00473112,-0.13876,-0.561714,0.00292063,0.0110573,3.00144,5,0.1,16,0.8,-2.24167,-0.0187252,0.649519,0.866026,0.088055,-0.0258386,0,0.0557542,-0.0164211,0.0172944,2.12552,5,0.1,17,0.8,1.17536,4.91662,0.680805,-0.258052,0.020206,0.405993,-0.128746,0.0100136,0.202566,0.0157382,0.29334,5,0.1,18,0.8,-2.06339,-3.21079,0.700673,0.432819,0.67395,0.029929,0.215769,0.33617,0.0149012,0.0280391,0.812747,5,0.1,19,0.8,0.438257,2.52995,0.638849,-0.782993,0.0361502,-0.0204444,0.323653,0.131965,0.0089705,0.0114468,2.15367,5,0.1
0,0.9,2.0581,-2.62575,0.634889,-0.674541,0.238952,-0.0158628,1.08674,0.135228,-0.00897795,0.0432255,2.75015,5,0.1,1,0.9,-0.0872041,2.30833,0.599513,-0.141284,0.778704,0.000323355,-0.0539232,-0.862315,0.00013411,0.0217794,1.71361,5,0.1,2,0.9,1.95298,2.21804,0.500625,0.741589,-0.484948,-0.00405787,-0.755593,-0.16728,0.017155,0.0234715,1.57639,5,0.1,3,0.9,-2.52089,4.10815,0.660244,0.866026,-0.0953704,-0.0275875,0,-0.054121,-0.0156611,0.0342323,2.26524,5,0.1,4,0.9,2.26913,-3.01153,0.69442,-0.0695702,0.855688,0.0270886,-0.0460297,0.2269,0.0107139,0.0427794,2.2948,5,0.1,5,0.9,-2.31456,5.05562,0.51732,-0.0286113,0.372982,0.0342926,-0.00981987,0.127435,0.0117347,0.012603,0.163426,5,0.1,6,0.9,0.391863,-5.22015,0.640917,0.120964,0.866023,0.026578,0.0686664,2.98023e-05,0.0150837,0.0107057,2.26154,5,0.1,7,0.9,-0.621979,4.20304,0.638975,0.319102,-0.535356,-0.0263501,0.109114,-0.269741,-0.00899285,0.0152209,0.574916,5,0.1,8,0.9,-0.203473,-1.25717,0.615642,-0.0380898,0.866026,-0.00616498,-0.0216579,0,-0.00349432,0.0178298,2.27091,5,0.1,9,0.9,-4.88635,-3.77884,0.652827,0.865652,0.417003,-0.0179267,0.0149012,0.238866,-0.0102893,0.0246863,2.16103,5,0.1,10,0.9,-3.56748,-5.30758,0.689293,-0.0408158,0.866026,0.0146845,-0.0512302,0,0.0365227,0.0249716,2.27094,5,0.1,11,0.9,1.59244,4.35667,0.683374,0.0389151,-0.00453219,0.172202,0.0132918,-0.00151992,-0.182949,0.0287973,0.339433,5,0.1,12,0.9,5.27969,1.21066,0.568821,-0.701597,-0.786643,0.0202573,-0.294358,-0.329971,0.00849739,0.015037,1.4189,5,0.1,13,0.9,-3.60501,-0.510061,0.58243,-0.0298463,-0.770237,0.0370916,-0.0170171,0.899797,0.0210628,0.0116815,2.61935,5,0.1,14,0.9,0.146541,-3.68449,0.570101,0.0217343,0.866026,0.110456,0.0124397,0,0.0632182,0.0472729,2.26331,5,0.1,15,0.9,3.83222,-5.03684,0.5476,-0.237315,0.374942,0.00502532,-0.126526,-0.320524,0.00267103,0.0110573,3.00144,5,0.1,16,0.9,-2.15507,-0.00963504,0.646851,0.866026,0.0936632,-0.0274893,0,0.0508221,-0.0149533,0.0172944,2.12552,5,0.1,17,0.9,1.14894,4.91869,0.722371,-0.269719,0.0211164,0.424348,-0.0922233,0.00721216,0.145093,0.0157382,0.29334,5,0.1,18,0.9,-2.01908,-3.14179,0.703737,0.452372,0.70441,0.0312793,0.15457,0.240788,0.010673,0.0280391,0.812747,5,0.1,19,0.9,0.362325,2.53401,0.636881,-0.728811,0.0430252,-0.0186445,0.734127,0.0137836,0.0255927,0.0114468,2.15367,5,0.1
0,1,1.99615,-2.60129,0.633265,-0.565419,0.248855,-0.0165194,1.03301,0.0524521,-0.00348687,0.0225001,2.91038,5,0.1,1,1,-0.101526,2.38154,0.599546,-0.144287,0.683707,0.000330806,-0.00171721,-0.981212,0,0.0131174,1.48075,5,0.1,2,1,2.02262,2.16897,0.500301,0.644851,-0.493568,-0.002487,-1.13904,0.00941753,0.0140369,0.0185933,1.43137,5,0.1,3,1,-2.43429,4.09839,0.65742,0.866026,-0.0993371,-0.0287384,0,-0.0214577,-0.00610948,0.0284076,2.26461,5,0.1,4,1,2.26183,-2.92526,0.697162,-0.0772953,0.866026,0.0275388,-0.0946522,0,-0.00214577,0.0547253,2.2666,5,0.1,5,1,-2.31746,5.09336,0.52079,-0.0291169,0.379503,0.034894,0.000596046,-0.00834465,-0.000745058,0.0149635,0.188209,5,0.1,6,1,0.404247,-5.13355,0.643638,0.126005,0.866032,0.0276849,0.0269264,-0.000238419,0.00593066,0.0130052,2.26057,5,0.1,7,1,-0.589692,4.14846,0.636309,0.324692,-0.552583,-0.0268102,-0.00700355,-0.0574589,0.000596046,0.0242011,0.686352,5,0.1,8,1,-0.207373,-1.17057,0.615011,-0.0396814,0.866026,-0.0064224,-0.00851601,-5.96046e-05,-0.00137091,0.0181915,2.27081,5,0.1,9,1,-4.79975,-3.73614,0.650991,0.866032,0.434637,-0.0186875,-0.000238419,0.0956059,-0.00411272,0.0289006,2.14656,5,0.1,10,1,-3.57182,-5.22097,0.690961,-0.0458956,0.866032,0.0187442,-0.046134,-0.000238419,0.0412762,0.0271835,2.27242,5,0.1,11,1,1.59637,4.35621,0.7,0.0395954,-0.00460148,0.16351,-0.000834465,0,0.00312924,0.0374978,0.287743,5,0.1,12,1,5.20843,1.13077,0.570879,-0.71913,-0.806302,0.0207648,-0.0333786,-0.0374913,0.000923872,0.0127993,1.00013,5,0.1,13,1,-3.60806,-0.582318,0.586228,-0.0310957,-0.673896,0.0386372,-0.00655651,0.964999,0.00822544,0.0128098,2.78791,5,0.1,14,1,0.148766,-3.59789,0.581412,0.0226524,0.866026,0.11512,0.00496954,0,0.0252724,0.0397842,2.26239,5,0.1,15,1,3.80798,-5,0.548114,-0.246269,0.371242,0.00521392,-0.0430346,0.226021,0.000923872,0.00929802,2.80683,5,0.1,16,1,-2.06846,-6.02006e-05,0.644041,0.866026,0.0972777,-0.0285521,-5.96046e-05,0.0176376,-0.00521541,0.0144709,1.6785,5,0.1,17,1,1.12165,4.92083,0.765306,-0.274444,0.0214815,0.431781,0.00590086,-0.000238419,-0.00932813,0.013306,0.199483,5,0.1,18,1,-1.97331,-3.07052,0.706902,0.460288,0.71674,0.0318259,-0.0100136,-0.0156164,-0.000685453,0.0261596,0.552695,5,0.1,19,1,0.293613,2.53824,0.635162,-0.64104,0.0404239,-0.0155881,0.998466,-0.0588894,0.0343919,0.0109836,1.96545,5,0.1
0,1.1,1.94459,-2.5761,0.631593,-0.471185,0.25496,-0.0169247,0.724301,0.0555366,-0.00368804,0.0225001,2.91038,5,0.1,1,1.1,-0.115957,2.44494,0.599579,-0.144126,0.586385,0.000329968,0.010354,-0.858068,-2.6077e-05,0.0131174,1.48075,5,0.1,2,1.1,2.08105,2.11968,0.500115,0.520835,-0.491519,-0.00128709,-1.30765,0.0496507,0.00993162,0.0185933,1.43137,5,0.1,3,1.1,-2.34768,4.08833,0.65451,0.866026,-0.101896,-0.0294714,0,-0.0239015,-0.00686571,0.0284076,2.26461,5,0.1,4,1.1,2.25349,-2.83865,0.699903,-0.0906598,0.866026,0.0272485,-0.157639,0,-0.00458583,0.0547253,2.2666,5,0.1,5,1.1,-2.32039,5.13152,0.524298,-0.0295717,0.385384,0.0354361,-0.00731647,0.09498,0.00873953,0.0149635,0.188209,5,0.1,6,1.1,0.417006,-5.04695,0.646442,0.12922,0.866023,0.0283924,0.0300184,2.98023e-05,0.00660494,0.0130052,2.26057,5,0.1,7,1.1,-0.557272,4.09377,0.633632,0.323269,-0.533588,-0.0266915,-0.0333264,0.406444,0.00275671,0.0242011,0.686352,5,0.1,8,1.1,-0.211391,-1.08397,0.614361,-0.0407056,0.866025,-0.0065879,-0.00963453,1.11759e-05,-0.0015609,0.0181915,2.27081,5,0.1,9,1.1,-4.71315,-3.69211,0.649098,0.866023,0.446306,-0.0191895,2.98023e-05,0.111669,-0.00479817,0.0289006,2.14656,5,0.1,10,1.1,-3.57655,-5.13437,0.693012,-0.04794,0.866023,0.0219929,0.00298023,2.98023e-05,0.0235252,0.0271835,2.27242,5,0.1,11,1.1,1.60033,4.35575,0.716802,0.0394236,-0.00458807,0.176017,-0.00403821,0.000417233,0.212908,0.0374978,0.287743,5,0.1,12,1.1,5.13638,1.05048,0.572959,-0.720844,-0.794208,0.0208112,0.0269115,0.278912,-0.000793487,0.0127993,1.00013,5,0.1,13,1.1,-3.61121,-0.64485,0.590139,-0.0318702,-0.580242,0.0396063,-0.00713766,0.769433,0.00892952,0.0128098,2.78791,5,0.1,14,1.1,0.151061,-3.51129,0.593076,0.0232617,0.866026,0.118219,0.0058515,0,0.0297427,0.0397842,2.26239,5,0.1,15,1.1,3.7831,-4.96041,0.54864,-0.251122,0.431132,0.00531776,-0.0410378,0.865966,0.000882894,0.00929802,2.80683,5,0.1,16,1.1,-1.98186,0.00975636,0.641159,0.865998,0.0989445,-0.0290441,-0.00107288,0.0112391,-0.00331923,0.0144709,1.6785,5,0.1,17,1.1,1.09425,4.92297,0.808419,-0.273243,0.0214063,0.429887,0.0281483,-0.00205636,-0.0443347,0.013306,0.199483,5,0.1,18,1.1,-1.92735,-2.99895,0.710079,0.458265,0.713585,0.0316865,-0.0472814,-0.0737011,-0.00326708,0.0261596,0.552695,5,0.1,19,1.1,0.23431,2.54151,0.633775,-0.546738,0.0210278,-0.0121458,0.894689,-0.298768,0.033997,0.0109836,1.96545,5,0.1
0,1.2,1.9,-2.55042,0.629888,-0.431386,0.257576,-0.0170976,0.0907779,-0.0129938,0.000864267,0.0183674,2.78468,5,0.1,1,1.2,-0.130262,2.5,0.599612,-0.141319,0.522131,0.000323355,0.0493228,-0.433803,-0.000119209,0.00530079,0.440337,5,0.1,2,1.2,2.12654,2.07096,0.500029,0.389296,-0.480646,-0.000497699,-1.297,0.179648,0.00587106,0.0184164,1.36274,5,0.1,3,1.2,-2.26108,4.07805,0.651538,0.866026,-0.10314,-0.0298277,0,0.00309944,0.000923872,0.0209977,2.26458,5,0.1,4,1.2,2.24363,-2.75205,0.702595,-0.106221,0.866026,0.0264689,-0.142455,0,-0.0115931,0.0357441,2.26033,5,0.1,5,1.2,-2.32338,5.1705,0.527882,-0.0301659,0.393164,0.0361517,-0.00309944,0.0386238,0.00351667,0.0097508,0.112118,5,0.1,6,1.2,0.430033,-4.96035,0.649304,0.130764,0.866032,0.0287309,-0.00423193,-0.000238419,-0.00089407,0.00854802,2.06582,5,0.1,7,1.2,-0.525234,4.04299,0.630987,0.316058,-0.477004,-0.0260949,-0.118732,0.698566,0.00980496,0.0191637,0.618837,5,0.1,8,1.2,-0.215496,-0.997367,0.613697,-0.0412129,0.866026,-0.00667125,0.00111014,0,0.000178814,0.0153013,2.2708,5,0.1,9,1.2,-4.62655,-3.64707,0.647161,0.866032,0.452548,-0.0194579,-0.000238419,-0.00524521,0.000238419,0.0207407,2.14336,5,0.1,10,1.2,-3.58127,-5.04777,0.695299,-0.0457406,0.866032,0.023438,0.0389814,-0.000238419,0.00539422,0.0216271,2.27183,5,0.1,11,1.2,1.60423,4.35529,0.735584,0.0385433,-0.00449419,0.200103,-0.0144243,0.00190735,0.242978,0.0250647,0.229226,5,0.1,12,1.2,5.06472,0.972968,0.575028,-0.709116,-0.750956,0.0204712,0.225544,0.582188,-0.00652671,0.0127261,0.784395,5,0.1,13,1.2,-3.61442,-0.7,0.594131,-0.0322223,-0.532542,0.0400469,0.00143051,0.197828,-0.00163913,0.00916734,2.7106,5,0.1,14,1.2,0.153409,-3.42468,0.605007,0.0235908,0.866026,0.119892,-0.000216067,0,-0.00110269,0.0384594,2.26198,5,0.1,15,1.2,3.75788,-4.91263,0.549175,-0.252283,0.525832,0.00534207,0.0268221,0.948191,-0.000536442,0.00975276,2.50211,5,0.1,16,1.2,-1.89528,0.0196667,0.63825,0.865588,0.0987797,-0.0289977,-0.00864267,-0.0175332,0.0051558,0.0127865,1.28898,5,0.1,17,1.2,1.06717,4.9251,0.851024,-0.267148,0.0209451,0.420295,0.100315,-0.00762939,-0.157863,0.0156942,0.132645,5,0.1,18,1.2,-1.88194,-2.92823,0.71322,0.448036,0.69766,0.0309795,-0.168264,-0.26226,-0.0116229,0.0330797,0.367515,5,0.1,19,1.2,0.183985,2.54193,0.632727,-0.460897,-0.0139534,-0.00886917,0.827022,-0.377297,0.0311732,0.012282,1.70893,5,0.1
0,1.3,1.85584,-2.52477,0.628179,-0.463845,0.254831,-0.0170863,-0.632368,-0.049144,0.000219792,0.0183674,2.78468,5,0.1,1,1.3,-0.144837,2.54929,0.599547,-0.155849,0.457134,-0.00243932,-0.291931,-0.825912,-0.0489876,0.00530079,0.440337,5,0.1,2,1.3,2.15912,2.02377,0.500003,0.264327,-0.462878,-7.37607e-05,-1.17707,0.190638,0.00280142,0.0184164,1.36274,5,0.1,3,1.3,-2.17448,4.06773,0.648553,0.866026,-0.10346,-0.0299194,0,-0.0038743,-0.00112131,0.0209977,2.26458,5,0.1,4,1.3,2.23222,-2.66545,0.705189,-0.122291,0.866026,0.0254328,-0.16582,0,-0.010144,0.0357441,2.26033,5,0.1,5,1.3,-2.32641,5.21005,0.531519,-0.0305355,0.397842,0.0365785,-0.00277162,0.0351071,0.00319257,0.0097508,0.112118,5,0.1,6,1.3,0.443113,-4.87374,0.652178,0.130903,0.866023,0.0287643,0.000372529,2.98023e-05,0.000104308,0.00854802,2.06582,5,0.1,7,1.3,-0.494209,3.99922,0.628425,0.304321,-0.395121,-0.0251259,-0.125829,0.901625,0.0103824,0.0191637,0.618837,5,0.1,8,1.3,-0.219622,-0.910764,0.613029,-0.0413653,0.866026,-0.0066964,-0.0018701,-3.72529e-06,-0.000312924,0.0153013,2.2708,5,0.1,9,1.3,-4.53994,-3.60171,0.645211,0.866023,0.455235,-0.0195723,2.98023e-05,0.0328869,-0.00140071,0.0207407,2.14336,5,0.1,10,1.3,-3.58562,-4.96117,0.697659,-0.0409883,0.866023,0.0236397,0.0548214,2.98023e-05,-0.00177696,0.0216271,2.27183,5,0.1,11,1.3,1.60802,4.35485,0.756879,0.0371166,-0.00430867,0.225995,-0.0153184,0.00193715,0.255153,0.0250647,0.229226,5,0.1,12,1.3,4.99491,0.901555,0.577043,-0.686668,-0.6707,0.0198222,0.246346,0.979006,-0.00711903,0.0127261,0.784395,5,0.1,13,1.3,-3.61764,-0.753711,0.598136,-0.0322383,-0.553424,0.0400778,-7.45058e-05,-0.508994,0.000186265,0.00916734,2.7106,5,0.1,14,1.3,0.155775,-3.33808,0.617031,0.023768,0.866026,0.120792,0.00232831,0,0.0118315,0.0384594,2.26198,5,0.1,15,1.3,3.73274,-4.85472,0.549707,-0.25072,0.63595,0.00531152,0.0167042,1.16742,-0.000335276,0.00975276,2.50211,5,0.1,16,1.3,-1.80872,0.0294604,0.635375,0.86551,0.0970357,-0.0284846,-0.00536442,-0.0209736,0.00617281,0.0127865,1.28898,5,0.1,17,1.3,1.04095,4.92715,0.892281,-0.257231,0.0201866,0.404689,0.106327,-0.00816584,-0.167314,0.0156942,0.132645,5,0.1,18,1.3,-1.83796,-2.85975,0.716261,0.431402,0.671737,0.0298304,-0.178337,-0.277892,-0.012327,0.0330797,0.367515,5,0.1,19,1.3,0.141004,2.53854,0.631969,-0.407552,-0.0544772,-0.00653714,0.295679,-0.412643,0.0165105,0.012282,1.70893,5,0.1
0,1.4,1.80583,-2.49964,0.626476,-0.538903,0.246567,-0.0169069,-0.786781,-0.120521,0.0039041,0.0240847,2.03843,5,0.1,1,1.4,-0.16212,2.5905,0.599019,-0.191236,0.36422,-0.0083819,-0.379093,-0.99957,-0.0651181,0.00493871,0.278146,5,0.1,2,1.4,2.18003,1.97856,0.500006,0.157934,-0.440031,9.83477e-05,-0.935316,0.276089,0.000804663,0.0128301,1.29,5,0.1,3,1.4,-2.08788,4.05739,0.645563,0.866026,-0.102949,-0.029774,0,0.0181198,0.00521541,0.0212474,2.11182,5,0.1,4,1.4,2.21921,-2.57885,0.707677,-0.137126,0.866026,0.024268,-0.121593,0,-0.0138283,0.0255893,2.25524,5,0.1,5,1.4,-2.32947,5.24987,0.53518,-0.030458,0.396836,0.036484,0.005126,-0.0686646,-0.00634789,0.0125655,0.0603755,5,0.1,6,1.4,0.456169,-4.78714,0.655047,0.129716,0.866032,0.0285044,-0.0286698,-0.000238419,-0.00628829,0.0104582,1.62522,5,0.1,7,1.4,-0.464483,3.9643,0.625971,0.28926,-0.303143,-0.0238821,-0.181884,0.910878,0.0149906,0.0168206,0.581509,5,0.1,8,1.4,-0.223758,-0.824162,0.612359,-0.041198,0.866026,-0.00666976,0.00681728,0,0.00110269,0.016382,2.27084,5,0.1,9,1.4,-4.45334,-3.55613,0.643252,0.866032,0.454694,-0.0195488,-0.000238419,-0.0619888,0.00268221,0.0209127,2.14541,5,0.1,10,1.4,-3.58943,-4.87456,0.699999,-0.0349998,0.866032,0.0230208,0.063777,-0.000238419,-0.0107884,0.0255471,2.27188,5,0.1,11,1.4,1.61164,4.35443,0.780642,0.035283,-0.00408888,0.247768,-0.0221729,0.00286102,0.166386,0.0264886,0.202726,5,0.1,12,1.4,4.92766,0.839738,0.578984,-0.656033,-0.562927,0.0189379,0.381231,1.14268,-0.0109971,0.00847684,0.858522,5,0.1,13,1.4,-3.62086,-0.812044,0.602133,-0.03196,-0.615603,0.0397339,0.00703335,-0.653744,-0.00849366,0.00895062,2.46432,5,0.1,14,1.4,0.158158,-3.25148,0.629141,0.0238124,0.866026,0.121018,-0.00244379,0,-0.0124276,0.0311457,2.26202,5,0.1,15,1.4,3.70781,-4.78551,0.550235,-0.246871,0.744343,0.0052318,0.0690222,0.937223,-0.00146031,0.00976455,2.31852,5,0.1,16,1.4,-1.7223,0.0390293,0.632566,0.861701,0.0939802,-0.027588,-0.0864863,-0.0425538,0.0125468,0.0134035,0.961201,5,0.1,17,1.4,1.01582,4.92913,0.931811,-0.244501,0.0192046,0.38466,0.153661,-0.0121593,-0.241846,0.0137583,0.149448,5,0.1,18,1.4,-1.79582,-2.79414,0.719175,0.410053,0.638485,0.0283539,-0.25773,-0.401616,-0.017792,0.0321771,0.241909,5,0.1,19,1.4,0.101229,2.53111,0.631381,-0.391795,-0.0929713,-0.00537634,0.0633448,-0.342727,0.00753999,0.014569,2.24367,5,0.1
0,1.5,1.74749,-2.47586,0.6248,-0.63113,0.226595,-0.0166608,-0.97952,-0.267833,0.00192225,0.0240847,2.03843,5,0.1,1,1.5,-0.182817,2.62224,0.597812,-0.219509,0.273614,-0.0160551,-0.187137,-0.816509,-0.0832751,0.00493871,0.278146,5,0.1,2,1.5,2.19151,1.93588,0.500018,0.0759304,-0.41369,0.000130851,-0.676453,0.263222,-7.82311e-05,0.0128301,1.29,5,0.1,3,1.5,-2.00127,4.04716,0.642604,0.866026,-0.101782,-0.0294397,0,0.010401,0.00297278,0.0212474,2.11182,5,0.1,4,1.5,2.20485,-2.49224,0.710043,-0.150313,0.866026,0.0231028,-0.130132,0,-0.0105351,0.0255893,2.25524,5,0.1,5,1.5,-2.33249,5.28919,0.538795,-0.0298593,0.388908,0.0357523,0.00779331,-0.102222,-0.00942126,0.0125655,0.0603755,5,0.1,6,1.5,0.469013,-4.70054,0.65787,0.127206,0.865962,0.0279537,-0.026878,-0.00241399,-0.00590459,0.0104582,1.62522,5,0.1,7,1.5,-0.436431,3.93849,0.623655,0.271911,-0.214622,-0.022452,-0.173321,0.824213,0.0142939,0.0168206,0.581509,5,0.1,8,1.5,-0.227856,-0.737559,0.611696,-0.0408418,0.866026,-0.00661258,0.00254996,-3.72529e-06,0.000402331,0.016382,2.27084,5,0.1,9,1.5,-4.36674,-3.51082,0.641304,0.866023,0.452457,-0.0194512,2.98023e-05,-0.00873208,0.00038743,0.0209127,2.14541,5,0.1,10,1.5,-3.59273,-4.78796,0.702307,-0.0322577,0.866023,0.0236128,-0.00144541,2.98023e-05,0.0182912,0.0255471,2.27188,5,0.1,11,1.5,1.61506,4.35404,0.805804,0.0331676,-0.00382215,0.251433,-0.0211373,0.0026226,-0.0761002,0.0264886,0.202726,5,0.1,12,1.5,4.86389,0.789388,0.580825,-0.619567,-0.443244,0.0178863,0.367135,1.19528,-0.0105835,0.00847684,0.858522,5,0.1,13,1.5,-3.62403,-0.877577,0.606074,-0.0314493,-0.699809,0.0391187,0.00472367,-0.94147,-0.0057295,0.00895062,2.46432,5,0.1,14,1.5,0.160536,-3.16488,0.641226,0.0237951,0.866026,0.120929,0.000665896,0,0.00338256,0.0311457,2.26202,5,0.1,15,1.5,3.68374,-4.70695,0.550753,-0.231969,0.820937,0.00512162,0.219434,0.575095,-0.000994653,0.00976455,2.31852,5,0.1,16,1.5,-1.63628,0.0482231,0.629868,0.860162,0.089903,-0.0263864,0.00631064,-0.0419831,0.0123605,0.0134035,0.961201,5,0.1,17,1.5,0.992073,4.931,0.969316,-0.230871,0.0183322,0.367316,0.127584,-0.0064671,-0.128899,0.0137583,0.149448,5,0.1,18,1.5,-1.75605,-2.73222,0.721925,0.385468,0.600178,0.0266561,-0.245638,-0.382662,-0.016965,0.0321771,0.241909,5,0.1,19,1.5,0.0616298,2.51994,0.630879,-0.406022,-0.131497,-0.00466285,-0.287698,-0.403374,0.00680611,0.014569,2.24367,5,0.1
0,1.6,1.67968,-2.4547,0.623146,-0.721321,0.19505,-0.0163674,-0.767529,-0.353575,0.00458956,0.0267904,0.160904,5,0.1,1,1.6,-0.205393,2.6458,0.595795,-0.228976,0.200152,-0.0241533,-0.00455976,-0.656247,-0.0749528,0.0064196,0.306974,5,0.1,2,1.6,2.19631,1.89589,0.50003,0.0262439,-0.385299,9.83477e-05,-0.309587,0.313044,-0.000566244,0.0138447,1.17575,5,0.1,3,1.6,-1.91467,4.03706,0.639681,0.866026,-0.0999928,-0.0289232,-5.96046e-05,0.0293255,0.00837445,0.0201202,1.66703,5,0.1,4,1.6,2.18923,-2.40564,0.712299,-0.161111,0.866026,0.0219807,-0.0773668,0,-0.0127256,0.0423523,2.43177,5,0.1,5,1.6,-2.33542,5.32743,0.54231,-0.0287533,0.374365,0.0344127,0.0152588,-0.196457,-0.0180602,0.0171468,0.0406265,5,0.1,6,1.6,0.481567,-4.61398,0.660628,0.123441,0.86503,0.0271261,-0.0520498,-0.0195503,-0.0114441,0.0129868,1.29902,5,0.1,7,1.6,-0.410147,3.92078,0.621484,0.253224,-0.14348,-0.0209108,-0.205934,0.582218,0.0169873,0.0135972,0.532227,5,0.1,8,1.6,-0.23192,-0.650957,0.611038,-0.0403062,0.866026,-0.00652671,0.00974536,0,0.00157952,0.0150167,2.27091,5,0.1,9,1.6,-4.28014,-3.4657,0.639364,0.866032,0.448507,-0.0192806,-0.000238419,-0.0885725,0.0038147,0.0215857,2.14989,5,0.1,10,1.6,-3.59602,-4.70136,0.704778,-0.0339568,0.866032,0.0259161,-0.0267029,-0.000238419,0.0244379,0.0183889,2.27118,5,0.1,11,1.6,1.61827,4.35367,0.83028,0.0308901,-0.00354052,0.235592,-0.0251532,0.00286102,-0.227332,0.0253266,0.179914,5,0.1,12,1.6,4.80387,0.750776,0.582558,-0.579417,-0.332472,0.0167266,0.448942,0.989884,-0.0129044,0.0126404,0.743603,5,0.1,13,1.6,-3.62714,-0.95214,0.609949,-0.030756,-0.788511,0.0382602,0.0104904,-0.767559,-0.0127256,0.00681571,2.31461,5,0.1,14,1.6,0.162914,-3.07827,0.653313,0.0237014,0.866026,0.120452,-0.00356138,0,-0.01809,0.0318812,2.26218,5,0.1,15,1.6,3.66183,-4.62267,0.551259,-0.204778,0.857759,0.00498891,0.315905,0.165462,-0.00181794,0.00822907,2.26927,5,0.1,16,1.6,-1.55041,0.0569845,0.627296,0.854549,0.0850838,-0.0249699,-0.153482,-0.0564027,0.0165999,0.0113865,0.689748,5,0.1,17,1.6,1.01582,4.92913,0.931811,-0.244501,0.0192046,0.38466,0.153661,-0.0121593,-0.241846,0.017013,0.149448,5,0.1,18,1.6,-1.71879,-2.6742,0.724501,0.358984,0.558919,0.0248268,-0.291944,-0.454545,-0.020206,0.0302179,0.457942,5,0.1,19,1.6,0.0194168,2.50483,0.630446,-0.438793,-0.169426,-0.00400245,-0.322506,-0.337124,0.0064075,0.0114379,2.83166,5,0.1
0,1.7,1.60478,-2.43705,0.621516,-0.766375,0.157516,-0.0163484,-0.148743,-0.38892,-0.00267476,0.0267904,0.160904,5,0.1,1,1.7,-0.227929,2.66317,0.592989,-0.218265,0.152873,-0.0320023,0.204071,-0.317603,-0.0777617,0.0064196,0.306974,5,0.1,2,1.7,2.19789,1.85885,0.500037,0.0113886,-0.355951,4.19095e-05,0.0508577,0.284463,-0.000543892,0.0138447,1.17575,5,0.1,3,1.7,-1.82807,4.02719,0.636826,0.865992,-0.0974685,-0.0282031,-0.0012964,0.025332,0.00723824,0.0201202,1.66703,5,0.1,4,1.7,2.1727,-2.31983,0.714442,-0.169754,0.842906,0.020957,-0.0841916,-0.436306,-0.00882149,0.0423523,2.43177,5,0.1,5,1.7,-2.33823,5.36394,0.545666,-0.0273336,0.356072,0.0327311,0.0141412,-0.182629,-0.0167824,0.0171468,0.0406265,5,0.1,6,1.7,0.493667,-4.52823,0.663287,0.118611,0.844092,0.0260638,-0.0489242,-0.367731,-0.0107586,0.0129868,1.29902,5,0.1,7,1.7,-0.385805,3.90895,0.619474,0.233918,-0.0981309,-0.0193181,-0.187088,0.29248,0.0154376,0.0135972,0.532227,5,0.1,8,1.7,-0.235916,-0.564354,0.610391,-0.03969,0.866026,-0.00642715,0.00476185,-1.78814e-06,0.000763685,0.0150167,2.27091,5,0.1,9,1.7,-4.19353,-3.42113,0.637448,0.866023,0.444023,-0.0190872,2.98023e-05,-0.0269264,0.00115857,0.0215857,2.14989,5,0.1,10,1.7,-3.59962,-4.61476,0.707589,-0.038413,0.866023,0.0310569,-0.0561774,2.98023e-05,0.0705086,0.0183889,2.27118,5,0.1,11,1.7,1.62124,4.35333,0.852433,0.0285326,-0.00327453,0.205527,-0.0228509,0.0025928,-0.345036,0.0253266,0.179914,5,0.1,12,1.7,4.74807,0.722071,0.584169,-0.537247,-0.247042,0.015514,0.410467,0.671513,-0.0118092,0.0126404,0.743603,5,0.1,13,1.7,-3.63018,-1.03421,0.613722,-0.0299398,-0.846521,0.037269,0.00731647,-0.382859,-0.00892952,0.00681571,2.31461,5,0.1,14,1.7,0.165276,-2.99167,0.665315,0.0235904,0.866026,0.119889,-8.84756e-05,0,-0.000447035,0.0318812,2.26218,5,0.1,15,1.7,3.64305,-4.53638,0.551785,-0.169883,0.865509,0.00584517,0.373021,0.020653,0.0164807,0.00822907,2.26927,5,0.1,16,1.7,-1.46556,0.0652238,0.624879,0.842961,0.0797678,-0.0234061,-0.117756,-0.0524111,0.0154041,0.0113865,0.689748,5,0.1,17,1.7,0.992073,4.931,0.969316,-0.230871,0.0183322,0.367316,0.127584,-0.0064671,-0.128899,0.017013,0.149448,5,0.1,18,1.7,-1.68397,-2.62032,0.726888,0.340506,0.520753,0.0229327,-0.107192,-0.333905,-0.0183508,0.0302179,0.457942,5,0.1,19,1.7,-0.0261193,2.48622,0.63003,-0.471624,-0.202239,-0.00471398,-0.305041,-0.30309,-0.0176728,0.0114379,2.83166,5,0.1
0,1.8,1.52832,-2.42324,0.619866,-0.754264,0.118721,-0.0166371,0.374138,-0.380635,-0.00193715,0.0205869,0.0433686,5,0.1,1,1.8,-0.248492,2.67723,0.589424,-0.190886,0.131559,-0.0389785,0.33097,-0.131249,-0.0586808,0.00776262,0.316227,5,0.1,2,1.8,2.2,1.8247,0.500039,0.0375867,-0.326636,-8.9407e-06,0.44632,0.30899,-0.000476837,0.0193883,0.533958,5,0.1,3,1.8,-1.74149,4.01759,0.634048,0.865501,-0.094223,-0.0272706,-0.0104308,0.0424385,0.0122488,0.0204978,1.31884,5,0.1,4,1.8,2.15536,-2.23827,0.716493,-0.176024,0.783443,0.0200331,-0.0333786,-0.732303,-0.010401,0.0318787,2.74749,5,0.1,5,1.8,-2.34088,5.39857,0.548849,-0.0257492,0.335646,0.0308529,0.0180006,-0.234842,-0.0215769,0.0128747,0.0164946,5,0.1,6,1.8,0.50526,-4.44604,0.665835,0.112924,0.79639,0.0248134,-0.0677705,-0.568628,-0.0149012,0.00780868,1.05785,5,0.1,7,1.8,-0.363364,3.9,0.617621,0.214643,-0.0865221,-0.0177264,-0.203148,-0.0435114,0.0167489,0.0115629,1.64444,5,0.1,8,1.8,-0.239854,-0.477752,0.609753,-0.0389814,0.866025,-0.00631213,0.0109598,1.43051e-05,0.00172853,0.0140851,2.21109,5,0.1,9,1.8,-4.10693,-3.37693,0.635548,0.866032,0.43872,-0.0188589,-0.000238419,-0.0976324,0.00420213,0.0201201,2.15521,5,0.1,10,1.8,-3.60375,-4.52815,0.71107,-0.0440955,0.866032,0.0386342,-0.0529289,-0.000238419,0.0750422,0.0187487,2.26843,5,0.1,11,1.8,1.62398,4.35301,0.87125,0.0261813,-0.00300407,0.171134,-0.0248551,0.00286102,-0.326246,0.0259579,0.342115,5,0.1,12,1.8,4.69644,0.7,0.58566,-0.494623,-0.201389,0.0142857,0.452995,0.256509,-0.0130236,0.00940367,0.605829,5,0.1,13,1.8,-3.63313,-1.12013,0.617398,-0.0290394,-0.865498,0.0361636,0.0115633,-0.01055,-0.0144541,0.0103865,1.90716,5,0.1,14,1.8,0.16763,-2.90507,0.677282,0.0234388,0.866026,0.11912,-0.00394881,0,-0.0201166,0.0462068,2.2624,5,0.1,15,1.8,3.62796,-4.44979,0.552466,-0.131792,0.866032,0.00784993,0.381708,-0.000238419,0.0217259,0.0144347,0.396917,5,0.1,16,1.8,-1.38206,0.0729286,0.622618,0.82432,0.074183,-0.0217646,-0.282228,-0.0609718,0.0179112,0.0187341,0.481227,5,0.1,17,1.8,1.01582,4.92913,0.931811,-0.244501,0.0192046,0.38466,0.153661,-0.0121593,-0.241846,0.0241128,0.149448,5,0.1,18,1.8,-1.65035,-2.56988,0.729088,0.332388,0.48781,0.0210404,-0.0773072,-0.342965,-0.0198781,0.0425765,0.337903,5,0.1,19,1.8,-0.0745826,2.46465,0.629451,-0.494872,-0.22735,-0.00700951,-0.139699,-0.188112,-0.025928,0.0119391,3.00384,5,0.1
0,1.9,1.45525,-2.41321,0.618181,-0.702402,0.0827532,-0.0171545,0.650883,-0.33541,-0.00685826,0.0205869,0.0433686,5,0.1,1,1.9,-0.265793,2.6903,0.585219,-0.154103,0.134544,-0.0451648,0.393124,0.153556,-0.0607632,0.00776262,0.316227,5,0.1,2,1.9,2.20644,1.7935,0.500036,0.0947341,-0.298008,-4.61005e-05,0.65285,0.27246,-0.000271946,0.0193883,0.533958,5,0.1,3,1.9,-1.65494,4.00821,0.631378,0.865457,-0.0947852,-0.02615,-0.00442564,-0.0403672,0.0111461,0.0204978,1.31884,5,0.1,4,1.9,2.13755,-2.16413,0.718454,-0.180402,0.695162,0.0192347,-0.0433624,-0.986397,-0.00661239,0.0318787,2.74749,5,0.1,5,1.9,-2.34337,5.43096,0.551826,-0.0239234,0.311833,0.0286646,0.018999,-0.247687,-0.022769,0.0128747,0.0164946,5,0.1,6,1.9,0.516232,-4.3697,0.668245,0.106607,0.728521,0.0234246,-0.0621639,-0.68894,-0.0136718,0.00780868,1.05785,5,0.1,7,1.9,-0.342704,3.89078,0.615927,0.200267,-0.1008,-0.0161743,-0.100082,-0.215858,0.0147745,0.0115629,1.64444,5,0.1,8,1.9,-0.243711,-0.391149,0.609128,-0.0382341,0.866025,-0.00619516,0.00605546,-1.78814e-06,0.000946224,0.0140851,2.21109,5,0.1,9,1.9,-4.02033,-3.33338,0.633676,0.866024,0.433482,-0.0186334,4.47035e-05,-0.0325441,0.00140443,0.0201201,2.15521,5,0.1,10,1.9,-3.60845,-4.44155,0.715352,-0.0502221,0.866023,0.0472875,-0.0641942,2.98023e-05,0.0914186,0.0187487,2.26843,5,0.1,11,1.9,1.62649,4.35245,0.88671,0.0242287,-0.0106819,0.139741,-0.0156984,-0.138551,-0.232831,0.0259579,0.342115,5,0.1,12,1.9,4.64913,0.680366,0.587027,-0.452583,-0.197812,0.0130762,0.401348,-0.135664,-0.0115521,0.00940367,0.605829,5,0.1,13,1.9,-3.63598,-1.20671,0.620951,-0.0280574,-0.865993,0.0349335,0.00929832,-0.00131875,-0.0116825,0.0103865,1.90716,5,0.1,14,1.9,0.169964,-2.81847,0.689143,0.0232977,0.866026,0.118399,-0.000298955,0,-0.00154227,0.0462068,2.2624,5,0.1,15,1.9,3.61673,-4.36342,0.553382,-0.0925571,0.858561,0.0106284,0.393897,-0.169188,0.0314713,0.0144347,0.396917,5,0.1,16,1.9,-1.30092,0.0800577,0.620526,0.798928,0.0685025,-0.0200965,-0.257626,-0.054732,0.0160709,0.0187341,0.481227,5,0.1,17,1.9,0.992073,4.931,0.969316,-0.230871,0.0183322,0.367316,0.127584,-0.0064671,-0.128899,0.0241128,0.149448,5,0.1,18,1.9,-1.6173,-2.52264,0.731098,0.329876,0.45836,0.0191982,0.00392646,-0.266358,-0.0175424,0.0425765,0.337903,5,0.1,19,1.9,-0.123889,2.44098,0.6286,-0.483627,-0.245567,-0.0101645,0.319067,-0.161886,-0.0347905,0.0119391,3.00384,5,0.1
0,2,1.38864,-2.40651,0.616433,-0.626516,0.0521779,-0.0177413,0.85479,-0.274181,-0.00378489,0.0182804,0.111227,5,0.1,1,2,-0.279214,2.70474,0.580424,-0.114308,0.155652,-0.0504002,0.393882,0.239968,-0.0409484,0.0141445,0.40348,5,0.1,2,2,2.21923,1.76506,0.50003,0.160491,-0.270641,-6.55651e-05,0.629306,0.280976,-8.9407e-05,0.0200406,0.425763,5,0.1,3,2,-1.56852,3.99848,0.628823,0.861639,-0.0999749,-0.024873,-0.0876784,-0.0532866,0.0150204,0.0108137,0.984962,5,0.1,4,2,2.11935,-2.09966,0.720343,-0.182855,0.593746,0.0185311,0.00178814,-1.01316,-0.00822544,0.0298188,3.13113,5,0.1,5,2,-2.34566,5.46084,0.554573,-0.0218689,0.285089,0.0262067,0.0222921,-0.290871,-0.0267327,0.0170816,0.00892434,5,0.1,6,2,0.526567,-4.3,0.670516,0.0998855,0.6688,0.0219464,-0.074774,-0.50354,-0.0164509,0.0113594,0.845571,5,0.1,7,2,-0.323113,3.87951,0.614384,0.191883,-0.125057,-0.0146896,-0.079304,-0.249386,0.015229,0.0126802,3.40891,5,0.1,8,2,-0.247498,-0.304547,0.608514,-0.0374179,0.866025,-0.00606626,0.0117347,1.43051e-05,0.00187755,0.0146841,1.90182,5,0.1,9,2,-3.93373,-3.29025,0.631822,0.866026,0.42786,-0.018391,0,-0.0978708,0.00420213,0.0205594,2.16068,5,0.1,10,2,-3.61378,-4.35495,0.720521,-0.0559986,0.866032,0.055778,-0.0475645,-0.000238419,0.0736117,0.0180049,2.26616,5,0.1,11,2,1.62884,4.35057,0.9,0.0227809,-0.0275373,0.130928,-0.0143647,-0.185013,0.0513792,0.0271172,0.258699,5,0.1,12,2,4.60588,0.659593,0.588277,-0.412059,-0.219792,0.011909,0.417948,-0.265956,-0.0120699,0.00871101,0.67204,5,0.1,13,2,-3.63874,-1.29331,0.62438,-0.0269651,-0.866026,0.0335649,0.0133514,0,-0.0167489,0.00921045,1.48946,5,0.1,14,2,0.172289,-2.73186,0.700957,0.0231352,0.866026,0.11757,-0.00397861,0,-0.020206,0.0315306,2.26278,5,0.1,15,2,3.6094,-4.27882,0.554602,-0.0546038,0.829017,0.0137284,0.358343,-0.433207,0.0288188,0.0104818,2.38936,5,0.1,16,2,-1.22249,0.0866307,0.618598,0.76741,0.062884,-0.0184476,-0.394523,-0.0590757,0.017345,0.00977803,0.328982,5,0.1,17,2,1.01582,4.92913,0.931811,-0.244501,0.0192046,0.38466,0.153661,-0.0121593,-0.241846,0.0149912,0.149448,5,0.1,18,2,-1.58432,-2.47814,0.73293,0.32919,0.431067,0.0174373,-0.0343323,-0.293851,-0.0181198,0.0279049,0.375792,5,0.1,19,2,-0.170202,2.41575,0.627411,-0.438946,-0.257319,-0.0135541,0.54121,-0.0634193,-0.031203,0.0111695,3.16131,5,0.1
0,2.1,1.32985,-2.40255,0.614646,-0.552793,0.0283074,-0.0179365,0.64493,-0.203773,0.000350177,0.0182804,0.111227,5,0.1,1,2.1,-0.28866,2.72188,0.575303,-0.074653,0.189916,-0.0508777,0.390764,0.408217,0.0268035,0.0141445,0.40348,5,0.1,2,2.1,2.23854,1.73932,0.500023,0.226178,-0.244842,-6.85453e-05,0.651225,0.242472,2.23517e-05,0.0200406,0.425763,5,0.1,3,2.1,-1.48252,3.98814,0.626407,0.859897,-0.107242,-0.0234825,0.00368059,-0.0818223,0.013601,0.0108137,0.984962,5,0.1,4,2.1,2.10103,-2.04547,0.722163,-0.183797,0.489568,0.0179194,-0.0104755,-1.04181,-0.00499934,0.0298188,3.13113,5,0.1,5,2.1,-2.34774,5.48791,0.557062,-0.01968,0.256547,0.0235833,0.0218451,-0.284761,-0.0261739,0.0170816,0.00892434,5,0.1,6,2.1,0.536202,-4.23494,0.672633,0.0929461,0.637887,0.0204199,-0.0670217,-0.169963,-0.014741,0.0113594,0.845571,5,0.1,7,2.1,-0.304209,3.8662,0.612986,0.187014,-0.137506,-0.013291,-0.0304151,-0.0289679,0.0131465,0.0126802,3.40891,5,0.1,8,2.1,-0.25119,-0.218729,0.607916,-0.0364501,0.843091,-0.00591148,0.00927877,-0.434325,0.00149012,0.0146841,1.90182,5,0.1,9,2.1,-3.84712,-3.24779,0.629997,0.866026,0.422573,-0.0181642,0,-0.0327677,0.00140443,0.0205594,2.16068,5,0.1,10,2.1,-3.61964,-4.26835,0.726488,-0.0612117,0.866023,0.0636323,-0.0517964,2.98023e-05,0.0776537,0.0180049,2.26616,5,0.1,11,2.1,1.63105,4.34685,0.913899,0.0215603,-0.0470459,0.15148,-0.0110343,-0.195682,0.317905,0.0271172,0.258699,5,0.1,12,2.1,4.56664,0.6358,0.589411,-0.373621,-0.259703,0.0107985,0.362158,-0.484835,-0.0104681,0.00871101,0.67204,5,0.1,13,2.1,-3.64137,-1.37991,0.62766,-0.0257652,-0.865886,0.032059,0.0116378,0.00557303,-0.0146218,0.00921045,1.48946,5,0.1,14,2.1,0.174591,-2.64526,0.712658,0.0229678,0.866026,0.116721,-0.000729226,0,-0.00368804,0.0315306,2.26278,5,0.1,15,2.1,3.60547,-4.19694,0.556083,-0.0264823,0.817804,0.0155639,0.209898,0.116527,0.00870228,0.0104818,2.38936,5,0.1,16,2.1,-1.1476,0.0926404,0.616835,0.730907,0.0574302,-0.0168469,-0.361793,-0.051761,0.0151917,0.00977803,0.328982,5,0.1,17,2.1,0.992073,4.931,0.969316,-0.230871,0.0183322,0.367316,0.127584,-0.0064671,-0.128899,0.0149912,0.149448,5,0.1,18,2.1,-1.55167,-2.43637,0.734589,0.32268,0.405184,0.0157738,-0.101842,-0.240311,-0.0156388,0.0279049,0.375792,5,0.1,19,2.1,-0.210879,2.38969,0.625892,-0.371685,-0.26381,-0.0168544,0.720301,-0.0531375,-0.032831,0.0111695,3.16131,5,0.1
0,2.2,1.27761,-2.40062,0.612864,-0.493136,0.0112474,-0.0175968,0.56684,-0.13876,0.00673532,0.0171662,0.103797,5,0.1,1,2.2,-0.294234,2.74294,0.57043,-0.0376225,0.230819,-0.0458866,0.343636,0.382066,0.0691414,0.0134637,0.486394,5,0.1,2,2.2,2.26423,1.71603,0.500017,0.285053,-0.220874,-6.25849e-05,0.502467,0.242174,8.9407e-05,0.0178948,0.322146,5,0.1,3,2.2,-1.39669,3.97703,0.624129,0.853994,-0.114572,-0.022015,-0.156224,-0.0574589,0.0162721,0.010548,0.707927,5,0.1,4,2.2,2.08264,-2.00158,0.723929,-0.183225,0.390053,0.0173628,0.0289679,-0.930429,-0.00682473,0.0256587,3.35821,5,0.1,5,2.2,-2.3496,5.51213,0.559288,-0.0174403,0.227368,0.0209019,0.0231266,-0.301123,-0.0277162,0.0161338,0.00266789,5,0.1,6,2.2,0.545154,-4.17183,0.6746,0.0859752,0.625169,0.0188872,-0.074476,-0.124931,-0.0163913,0.00908341,0.64184,5,0.1,7,2.2,-0.285662,3.85248,0.611722,0.183672,-0.135726,-0.0119895,-0.0453591,0.0452995,0.013113,0.0181158,3.55757,5,0.1,8,2.2,-0.254781,-0.137145,0.607333,-0.0352807,0.78357,-0.00572205,0.0152439,-0.736367,0.00244379,0.0135372,1.70914,5,0.1,9,2.2,-3.76052,-3.20575,0.62819,0.866026,0.417042,-0.0179261,0,-0.0953674,0.00408292,0.0169711,1.96843,5,0.1,10,2.2,-3.62599,-4.18174,0.733207,-0.0655174,0.866032,0.0703126,-0.0308752,-0.000238419,0.0519156,0.0205023,2.26456,5,0.1,11,2.2,1.63315,4.34122,0.930794,0.0204086,-0.0650406,0.187163,-0.012815,-0.157595,0.364065,0.0239185,0.179983,5,0.1,12,2.2,4.53107,0.607365,0.590439,-0.337684,-0.308482,0.00976026,0.364542,-0.455379,-0.01055,0.0115893,1.26547,5,0.1,13,2.2,-3.64389,-1.46643,0.630788,-0.0244617,-0.863799,0.0304282,0.0150204,0.0445843,-0.0188351,0.0103392,1.12966,5,0.1,14,2.2,0.176881,-2.55866,0.724293,0.0227567,0.866026,0.115649,-0.004448,0,-0.02262,0.0308005,2.26305,5,0.1,15,2.2,3.60367,-4.11429,0.557656,-0.0114799,0.83617,0.0156268,0.0960827,0.181913,-0.00664592,0.00960447,2.02824,5,0.1,16,2.2,-1.07644,0.098125,0.615226,0.690639,0.0522336,-0.0153229,-0.46134,-0.0533834,0.015676,0.0138596,0.222102,5,0.1,17,2.2,1.01582,4.92913,0.931811,-0.244501,0.0192046,0.38466,0.153661,-0.0121593,-0.241846,0.0143793,0.149448,5,0.1,18,2.2,-1.52006,-2.39708,0.736089,0.307903,0.3802,0.0142276,-0.196934,-0.271201,-0.0155866,0.0274312,0.334465,5,0.1,19,2.2,-0.244668,2.36314,0.624053,-0.307483,-0.265729,-0.0197798,0.521451,0.0239611,-0.0243187,0.00970527,3.16807,5,0.1
0,2.3,1.2309,-2.40011,0.611146,-0.443143,-0.000112131,-0.0166956,0.450447,-0.0900477,0.01131,0.0171662,0.103797,5,0.1,1,2.3,-0.296323,2.76821,0.566235,-0.00475142,0.276338,-0.037616,0.30762,0.490025,0.0929721,0.0134637,0.486394,5,0.1,2,2.3,2.29523,1.69508,0.500011,0.334111,-0.198801,-5.15953e-05,0.4531,0.205584,0.00012666,0.0178948,0.322146,5,0.1,3,2.3,-1.31191,3.96526,0.622005,0.842106,-0.120906,-0.0205094,-0.120878,-0.0612289,0.0145137,0.010548,0.707927,5,0.1,4,2.3,2.06442,-1.96727,0.725637,-0.181391,0.297563,0.0168476,0.0168532,-0.853635,-0.00435859,0.0256587,3.35821,5,0.1,5,2.3,-2.35122,5.53337,0.561241,-0.0151556,0.197626,0.0181652,0.0226349,-0.294834,-0.0271238,0.0161338,0.00266789,5,0.1,6,2.3,0.553401,-4.10958,0.676411,0.0791038,0.622056,0.0173755,-0.0654645,0.0194907,-0.014402,0.00908341,0.64184,5,0.1,7,2.3,-0.267584,3.83948,0.61059,0.177204,-0.122458,-0.01065,-0.0859983,0.150084,0.0137016,0.0181158,3.55757,5,0.1,8,2.3,-0.25824,-0.0632075,0.606772,-0.0339129,0.689871,-0.00550263,0.0134576,-1.05813,0.00216812,0.0135372,1.70914,5,0.1,9,2.3,-3.67392,-3.16438,0.626412,0.866026,0.411129,-0.0176731,0,-0.0454932,0.0019446,0.0169711,1.96843,5,0.1,10,2.3,-3.63271,-4.09514,0.740514,-0.0690006,0.866023,0.0758465,-0.0341535,2.98023e-05,0.0533611,0.0205023,2.26456,5,0.1,11,2.3,1.63513,4.33412,0.951469,0.0192087,-0.0749998,0.227022,-0.0118315,-0.046581,0.405554,0.0239185,0.179983,5,0.1,12,2.3,4.49901,0.573609,0.591365,-0.304409,-0.37126,0.00879709,0.31051,-0.734154,-0.0089854,0.0115893,1.26547,5,0.1,13,2.3,-3.64626,-1.55278,0.633742,-0.0230853,-0.864199,0.0287028,0.0133365,-0.0140145,-0.0166968,0.0103392,1.12966,5,0.1,14,2.3,0.179144,-2.47206,0.735792,0.0225574,0.866026,0.114635,-0.00090152,0,-0.00459328,0.0308005,2.26305,5,0.1,15,2.3,3.60291,-4.02967,0.559169,-0.00461601,0.856181,0.0145099,0.0363141,0.178412,-0.0151359,0.00960447,2.02824,5,0.1,16,2.3,-1.00955,0.103098,0.613768,0.647848,0.0473422,-0.013887,-0.416208,-0.0459235,0.0134781,0.0138596,0.222102,5,0.1,17,2.3,0.992073,4.931,0.969316,-0.230871,0.0183322,0.367316,0.127584,-0.0064671,-0.128899,0.0143793,0.149448,5,0.1,18,2.3,-1.49057,-2.36031,0.737438,0.279082,0.355873,0.0128067,-0.365868,-0.228867,-0.013236,0.0274312,0.334465,5,0.1,19,2.3,-0.273107,2.33666,0.621951,-0.267305,-0.264084,-0.0222381,0.174554,0.0210553,-0.0231639,0.00970527,3.16807,5,0.1
0,2.4,1.18876,-2.4005,0.60954,-0.40004,-0.00706911,-0.0153378,0.424147,-0.0505447,0.0157952,0.0177188,0.927119,5,0.1,1,2.4,-0.295361,2.79821,0.562955,0.0228636,0.322199,-0.027886,0.24052,0.399232,0.0990331,0.00880526,0.23417,5,0.1,2,2.4,2.33065,1.67621,0.500007,0.371361,-0.178686,-3.72529e-05,0.274539,0.201225,0.000119209,0.0152735,0.231298,5,0.1,3,2.4,-1.22851,3.95291,0.620028,0.82317,-0.125462,-0.018999,-0.284791,-0.0241995,0.0161827,0.0129481,0.494441,5,0.1,4,2.4,2.04641,-1.94126,0.727298,-0.178295,0.228709,0.0163391,0.0513792,-0.495195,-0.0064373,0.0214659,3.1716,5,0.1,5,2.4,-2.35263,5.55166,0.562922,-0.0128984,0.16824,0.0154629,0.0225306,-0.293255,-0.0270009,0.0151871,0.00105294,5,0.1,6,2.4,0.560982,-4.04733,0.678077,0.0724584,0.621629,0.0159144,-0.069201,-0.0591278,-0.015229,0.00935219,0.473021,5,0.1,7,2.4,-0.250373,3.82774,0.609594,0.166188,-0.115865,-0.00924766,-0.135161,-0.0499487,0.0143051,0.0154148,3.34779,5,0.1,8,2.4,-0.261558,0.000459473,0.606234,-0.0323623,0.584381,-0.00525266,0.0184774,-1.00678,0.00301003,0.0144894,1.5292,5,0.1,9,2.4,-3.58732,-3.12357,0.624657,0.866026,0.404096,-0.0173718,0,-0.111222,0.00476837,0.0222446,1.51218,5,0.1,10,2.4,-3.63976,-4.00854,0.748331,-0.0715613,0.866032,0.0800669,-0.0137091,-0.000119209,0.0272989,0.0235223,2.26366,5,0.1,11,2.4,1.63699,4.32654,0.976082,0.017938,-0.0753045,0.263545,-0.0140667,0.0360012,0.305206,0.0253096,0.117986,5,0.1,12,2.4,4.4701,0.532798,0.592201,-0.273943,-0.443818,0.0079155,0.305653,-0.668049,-0.00882149,0.00756902,1.32237,5,0.1,13,2.4,-3.6485,-1.63912,0.636526,-0.0216603,-0.860494,0.0269145,0.015974,0.110567,-0.0197887,0.00875371,0.828681,5,0.1,14,2.4,0.181392,-2.38545,0.747216,0.0223432,0.866026,0.113547,-0.00435114,0,-0.0221133,0.0260045,2.26332,5,0.1,15,2.4,3.60251,-3.94341,0.560535,-0.00471473,0.866026,0.0127062,-0.0382662,0,-0.020504,0.0111733,1.59801,5,0.1,16,2.4,-0.946914,0.107605,0.612446,0.603738,0.0427973,-0.0125527,-0.480771,-0.0460036,0.0134706,0.0112373,0.175336,5,0.1,17,2.4,1.01582,4.92913,0.931811,-0.244501,0.0192046,0.38466,0.153661,-0.0121593,-0.241846,0.0192297,0.149448,5,0.1,18,2.4,-1.46467,-2.32589,0.738654,0.237247,0.332129,0.0115111,-0.459373,-0.255346,-0.012964,0.02792,0.306607,5,0.1,19,2.4,-0.3,2.31043,0.619624,-0.280543,-0.259477,-0.0241295,-0.411466,0.0793934,-0.0135005,0.0104942,2.9074,5,0.1
0,2.5,1.14991,-2.40141,0.608087,-0.38483,-0.0107206,-0.0137233,-0.0562817,-0.0236928,0.0165589,0.0177188,0.927119,5,0.1,1,2.5,-0.291929,2.83234,0.560669,0.0450804,0.35907,-0.017817,0.19918,0.318497,0.0999607,0.00880526,0.23417,5,0.1,2,2.5,2.36911,1.65928,0.500003,0.396855,-0.160454,-2.54251e-05,0.215188,0.168659,0.000115484,0.0152735,0.231298,5,0.1,3,2.5,-1.1475,3.94023,0.618204,0.79752,-0.128003,-0.017508,-0.26007,-0.0202954,0.0141971,0.0129481,0.494441,5,0.1,4,2.5,2.0288,-1.92038,0.728904,-0.173929,0.19625,0.0158068,0.0435412,-0.0637099,-0.00493973,0.0214659,3.1716,5,0.1,5,2.5,-2.35381,5.56705,0.564336,-0.0107087,0.139725,0.0128386,0.0212491,-0.276625,-0.0254475,0.0151871,0.00105294,5,0.1,6,2.5,0.567903,-3.98529,0.679596,0.066111,0.620146,0.0145181,-0.0598468,-0.00472367,-0.0131615,0.00935219,0.473021,5,0.1,7,2.5,-0.234206,3.81567,0.608754,0.158983,-0.130662,-0.00746371,-0.0256272,-0.343084,0.0205226,0.0154148,3.34779,5,0.1,8,2.5,-0.264707,0.0540076,0.605722,-0.0306648,0.490614,-0.00497634,0.0165775,-0.775463,0.00270084,0.0144894,1.5292,5,0.1,9,2.5,-3.50072,-3.08363,0.62294,0.865808,0.395056,-0.0169841,-0.00868738,-0.0876784,0.00375882,0.0222446,1.51218,5,0.1,10,2.5,-3.647,-3.92194,0.756493,-0.0734024,0.866026,0.083221,-0.0185966,-1.49012e-05,0.0305809,0.0235223,2.26366,5,0.1,11,2.5,1.63872,4.31931,1.00392,0.0165733,-0.0682786,0.29237,-0.0136271,0.0989437,0.253901,0.0253096,0.117986,5,0.1,12,2.5,4.44413,0.485402,0.592951,-0.246215,-0.500421,0.00711503,0.256956,-0.447126,-0.0074245,0.00756902,1.32237,5,0.1,13,2.5,-3.65059,-1.72483,0.639124,-0.0201922,-0.854837,0.0250947,0.0140816,0.0473559,-0.0174567,0.00875371,0.828681,5,0.1,14,2.5,0.183614,-2.29885,0.758508,0.022158,0.866026,0.112605,-0.000712462,0,-0.00361726,0.0260045,2.26332,5,0.1,15,2.5,3.60178,-3.85681,0.561699,-0.0110362,0.865883,0.0105409,-0.102565,-0.00570714,-0.0224262,0.0111733,1.59801,5,0.1,16,2.5,-0.888807,0.111826,0.611253,0.559304,0.0430536,-0.0113263,-0.426017,0.0400124,0.011418,0.0112373,0.175336,5,0.1,17,2.5,0.992073,4.931,0.969316,-0.230871,0.0183322,0.367316,0.127584,-0.0064671,-0.128899,0.0192297,0.149448,5,0.1,18,2.5,-1.44332,-2.29386,0.739745,0.189215,0.308995,0.0103366,-0.491448,-0.218451,-0.0108704,0.02792,0.306607,5,0.1,19,2.5,-0.331453,2.28483,0.617143,-0.359153,-0.252666,-0.0254733,-1.05239,0.0677407,-0.0119358,0.0104942,2.9074,5,0.1
0,2.6,1.11079,-2.40256,0.606799,-0.40006,-0.0120342,-0.0120193,-0.199556,-0.00357628,0.0175238,0.0183809,1.37278,5,0.1,1,2.6,-0.286524,2.86958,0.559372,0.0619382,0.382632,-0.0083074,0.135034,0.139713,0.0884831,0.0122119,0.280519,5,0.1,2,2.6,2.40964,1.64406,0.500001,0.41104,-0.14405,-1.49012e-05,0.0549555,0.163078,8.9407e-05,0.0146618,0.159741,5,0.1,3,2.6,-1.06922,3.92738,0.616525,0.765792,-0.128448,-0.0160635,-0.396192,0.0154972,0.0150502,0.00967834,0.338203,5,0.1,4,2.6,2.01167,-1.9,0.730458,-0.168306,0.221559,0.0152275,0.0741482,0.535607,-0.00718236,0.0212506,2.72199,5,0.1,5,2.6,-2.35477,5.57967,0.565495,-0.00866055,0.11301,0.0103816,0.019908,-0.257492,-0.0236928,0.0134965,0.000807729,5,0.1,6,2.6,0.574216,-3.92344,0.680983,0.0601321,0.614876,0.0132039,-0.061214,-0.124812,-0.0134706,0.00983363,0.33747,5,0.1,7,2.6,-0.218367,3.8,0.608114,0.15814,-0.191063,-0.00529736,-0.00376254,-0.833511,0.0221133,0.0112967,2.9803,5,0.1,8,2.6,-0.267687,0.1,0.605239,-0.0288606,0.437244,-0.00468194,0.0202507,-0.305463,0.00327826,0.0105111,1.28987,5,0.1,9,2.6,-3.41425,-3.04464,0.621264,0.862545,0.383502,-0.0164881,-0.0693798,-0.156164,0.00670552,0.0166792,1.12899,5,0.1,10,2.6,-3.65441,-3.83533,0.764939,-0.0745177,0.866026,0.0853002,-0.000476837,0,0.00733137,0.0225159,2.26333,5,0.1,11,2.6,1.64031,4.31304,1.03423,0.0151455,-0.056541,0.311425,-0.0151992,0.130892,0.115633,0.0262501,0.10353,5,0.1,12,2.6,4.42077,0.433601,0.593626,-0.221181,-0.530568,0.0063926,0.249147,-0.145957,-0.00724196,0.0101442,1.21269,5,0.1,13,2.6,-3.65254,-1.80989,0.641545,-0.0187278,-0.843424,0.0232786,0.0156164,0.212193,-0.0194609,0.00735178,0.587435,5,0.1,14,2.6,0.185823,-2.21225,0.769735,0.021968,0.866026,0.111642,-0.00404567,0,-0.0205934,0.0287624,2.26341,5,0.1,15,2.6,3.6,-3.77029,0.56264,-0.0259638,0.863749,0.00828952,-0.188947,-0.0456572,-0.0222921,0.0100818,1.22341,5,0.1,16,2.6,-0.835037,0.116398,0.610177,0.51548,0.0488322,-0.0102058,-0.462949,0.0670031,0.0112355,0.0108949,0.121042,5,0.1,17,2.6,1.01582,4.92913,0.931811,-0.244501,0.0192046,0.38466,0.153661,-0.0121593,-0.241846,0.0164585,0.149448,5,0.1,18,2.6,-1.42685,-2.26407,0.740725,0.1407,0.286549,0.00927895,-0.471234,-0.23818,-0.0104904,0.0273227,0.462163,5,0.1,19,2.6,-0.372953,2.25996,0.614548,-0.471973,-0.244093,-0.0262737,-1.12189,0.111461,-0.00312924,0.00872545,2.55742,5,0.1
0,2.7,1.06905,-2.4037,0.605682,-0.44041,-0.00991859,-0.01033,-0.538789,0.0412613,0.0163428,0.0183809,1.37278,5,0.1,1,2.7,-0.279702,2.90863,0.558974,0.0739362,0.398866,0.000200793,0.101306,0.159279,0.0799373,0.0122119,0.280519,5,0.1,2,2.7,2.45099,1.63041,0.5,0.41525,-0.129344,-6.51926e-06,0.0129789,0.135422,7.45058e-05,0.0146618,0.159741,5,0.1,3,2.7,-0.994497,3.91461,0.614989,0.72913,-0.126988,-0.0146836,-0.36319,0.0188351,0.0130236,0.00967834,0.338203,5,0.1,4,2.7,1.99518,-1.8739,0.731948,-0.161549,0.31044,0.0145907,0.0671595,1.13688,-0.00614673,0.0212506,2.72199,5,0.1,5,2.7,-2.35554,5.58972,0.566419,-0.00676923,0.0885107,0.00812821,0.0178367,-0.231713,-0.0213012,0.0134965,0.000807729,5,0.1,6,2.7,0.579943,-3.86247,0.68224,0.0545477,0.604853,0.0119755,-0.0522397,-0.103027,-0.0114888,0.00983363,0.33747,5,0.1,7,2.7,-0.202477,3.77555,0.607684,0.160295,-0.306885,-0.00340082,0.034689,-1.37584,0.0160336,0.0112967,2.9803,5,0.1,8,2.7,-0.270478,0.143238,0.604786,-0.0269921,0.436023,-0.00437936,0.0180304,0.207243,0.0029169,0.0105111,1.28987,5,0.1,9,2.7,-3.32806,-3.00701,0.619646,0.862931,0.369476,-0.0158858,0.027746,-0.139043,0.00597537,0.0166792,1.12899,5,0.1,10,2.7,-3.66189,-3.74873,0.773529,-0.0751417,0.866026,0.0866076,-0.00755489,0,0.0137016,0.0225159,2.26333,5,0.1,11,2.7,1.64175,4.30806,1.06597,0.0137432,-0.0428818,0.323136,-0.0132844,0.138611,0.100411,0.0262501,0.10353,5,0.1,12,2.7,4.39981,0.380762,0.594232,-0.198688,-0.517853,0.00573909,0.207365,0.3563,-0.00602379,0.0101442,1.21269,5,0.1,13,2.7,-3.65434,-1.89331,0.643781,-0.0172943,-0.825456,0.0214913,0.0136197,0.183173,-0.016991,0.00735178,0.587435,5,0.1,14,2.7,0.18801,-2.12565,0.780849,0.0218392,0.866026,0.110985,5.7742e-05,0,0.000279397,0.0287624,2.26341,5,0.1,15,2.7,3.59626,-3.68395,0.563359,-0.050376,0.864146,0.00611041,-0.279859,0.0145882,-0.021033,0.0100818,1.22341,5,0.1,16,2.7,-0.785666,0.121687,0.609209,0.472909,0.057444,-0.00918806,-0.403605,0.0967644,0.00942498,0.0108949,0.121042,5,0.1,17,2.7,0.992073,4.931,0.969316,-0.230871,0.0183322,0.367316,0.127584,-0.0064671,-0.128899,0.0164585,0.149448,5,0.1,18,2.7,-1.41505,-2.23653,0.741604,0.0962539,0.264883,0.00833282,-0.412308,-0.20434,-0.0087209,0.0273227,0.462163,5,0.1,19,2.7,-0.426308,2.23605,0.611903,-0.598352,-0.234412,-0.0266195,-1.31809,0.0921339,-0.00249967,0.00872545,2.55742,5,0.1
0,2.8,1.02221,-2.40444,0.604729,-0.495839,-0.0046134,-0.00873655,-0.51856,0.0611544,0.0155568,0.0220389,1.09315,5,0.1,1,2.8,-0.271882,2.94918,0.559368,0.0816129,0.410122,0.00738651,0.0500083,0.0479221,0.0625551,0.012829,0.539941,5,0.1,2,2.8,2.4924,1.61814,0.5,0.410944,-0.116214,-1.49012e-06,-0.11003,0.130355,5.96046e-05,0.0164711,0.107805,5,0.1,3,2.8,-0.923519,3.90204,0.613586,0.68876,-0.123829,-0.0133798,-0.462025,0.0480413,0.013411,0.0136505,0.228359,5,0.1,4,2.8,1.97939,-1.83689,0.733374,-0.153831,0.430471,0.0138968,0.0913143,1.18417,-0.00810623,0.0203024,2.18842,5,0.1,5,2.8,-2.35614,5.59746,0.567129,-0.0050962,0.0668049,0.00613332,0.0154972,-0.202179,-0.0185668,0.0121794,0.000674307,5,0.1,6,2.8,0.585139,-3.80264,0.683381,0.0493854,0.589639,0.0108421,-0.0522733,-0.22006,-0.0115037,0.0098204,0.234386,5,0.1,7,2.8,-0.186293,3.73782,0.607416,0.162982,-0.447464,-0.00205189,0.0102594,-1.35517,0.0111163,0.0135205,2.71586,5,0.1,8,2.8,-0.273084,0.188223,0.604363,-0.0251003,0.465702,-0.00407249,0.0204444,0.330225,0.00333786,0.0154681,1.01975,5,0.1,9,2.8,-3.24179,-2.97083,0.61809,0.859749,0.353217,-0.0151873,-0.125647,-0.196218,0.00843406,0.0197896,0.812555,5,0.1,10,2.8,-3.66942,-3.66213,0.782234,-0.0752687,0.866026,0.0871718,0.00798702,0,-0.00602007,0.0291775,2.26336,5,0.1,11,2.8,1.64306,4.30445,1.09864,0.0124156,-0.0294447,0.328469,-0.0135899,0.127316,-0.00590086,0.0310685,0.150571,5,0.1,12,2.8,4.38095,0.331292,0.594776,-0.178552,-0.467074,0.0051558,0.200272,0.62561,-0.00584126,0.00891249,1.11002,5,0.1,13,2.8,-3.656,-1.97474,0.645845,-0.0159025,-0.800717,0.0197604,0.0144243,0.336289,-0.0181198,0.0114608,0.406147,5,0.1,14,2.8,0.190191,-2.03904,0.791935,0.0217382,0.866026,0.110468,-0.00309944,0,-0.015676,0.0420738,2.26369,5,0.1,15,2.8,3.5898,-3.59761,0.563869,-0.0785291,0.860465,0.00412762,-0.268579,-0.111341,-0.0184476,0.0121687,0.903933,5,0.1,16,2.8,-0.740396,0.127907,0.608336,0.432198,0.0667162,-0.00827014,-0.421137,0.082463,0.00920892,0.0109229,0.144388,5,0.1,17,2.8,1.01582,4.92913,0.931811,-0.244501,0.0192046,0.38466,0.153661,-0.0121593,-0.241846,0.0148736,0.149448,5,0.1,18,2.8,-1.40735,-2.21106,0.742395,0.0590861,0.244117,0.00748783,-0.328004,-0.217438,-0.00840425,0.0237947,0.44955,5,0.1,19,2.8,-0.492466,2.2131,0.609238,-0.720474,-0.223976,-0.0265583,-1.06078,0.123501,0.00458956,0.011364,2.31608,5,0.1
0,2.9,0.969765,-2.40464,0.60393,-0.554514,0.000293925,-0.00728108,-0.602141,0.0402182,0.013642,0.0220389,1.09315,5,0.1,1,2.9,-0.263695,2.99034,0.56039,0.0801157,0.411856,0.0127311,-0.07057,-0.0253171,0.0440292,0.012829,0.539941,5,0.1,2,2.9,2.53295,1.60712,0.5,0.39975,-0.104502,2.32831e-06,-0.127226,0.107527,1.86265e-05,0.0164711,0.107805,5,0.1,3,2.9,-0.856823,3.88989,0.61231,0.645909,-0.119259,-0.0121565,-0.416636,0.0475496,0.0114553,0.0136505,0.228359,5,0.1,4,2.9,1.96446,-1.7875,0.734726,-0.144577,0.559467,0.0131579,0.0970364,1.31592,-0.00715256,0.0203024,2.18842,5,0.1,5,2.9,-2.35657,5.60318,0.567654,-0.00365898,0.0480354,0.00441,0.0132024,-0.172615,-0.0158474,0.0121794,0.000674307,5,0.1,6,2.9,0.589834,-3.74469,0.684411,0.0446392,0.569637,0.00979817,-0.0441223,-0.202239,-0.00969693,0.0098204,0.234386,5,0.1,7,2.9,-0.169428,3.68689,0.607295,0.178462,-0.564523,-0.000115763,0.260005,-0.964463,0.0255071,0.0135205,2.71586,5,0.1,8,2.9,-0.275498,0.236887,0.603972,-0.0232177,0.510568,-0.00376524,0.0179671,0.510474,0.0029318,0.0154681,1.01975,5,0.1,9,2.9,-3.15627,-2.93642,0.616611,0.851351,0.335155,-0.0144107,-0.083819,-0.177085,0.00761449,0.0197896,0.812555,5,0.1,10,2.9,-3.67694,-3.57553,0.790949,-0.0751335,0.866026,0.08728,-0.000879169,0,0.00312179,0.0291775,2.26336,5,0.1,11,2.9,1.64423,4.30211,1.13131,0.0110669,-0.0178322,0.32347,-0.013493,0.103295,-0.0980273,0.0310685,0.150571,5,0.1,12,2.9,4.36403,0.288166,0.595265,-0.160541,-0.392582,0.00463119,0.165492,0.80085,-0.00480935,0.00891249,1.11002,5,0.1,13,2.9,-3.65752,-2.05325,0.647736,-0.01458,-0.769947,0.0181018,0.0124872,0.308439,-0.0156425,0.0114608,0.406147,5,0.1,14,2.9,0.192358,-1.95244,0.802948,0.0216548,0.866026,0.110051,0.000111759,0,0.000618398,0.0420738,2.26369,5,0.1,15,2.9,3.58055,-3.5119,0.564193,-0.106642,0.854681,0.0023921,-0.27892,-0.0489503,-0.0160821,0.0121687,0.903933,5,0.1,16,2.9,-0.698939,0.13512,0.607548,0.399703,0.0784905,-0.00755545,-0.255033,0.139599,0.00560284,0.0109229,0.144388,5,0.1,17,2.9,0.992073,4.931,0.969316,-0.230871,0.0183322,0.367316,0.127584,-0.0064671,-0.128899,0.0148736,0.149448,5,0.1,18,2.9,-1.40292,-2.18767,0.743105,0.0311239,0.224325,0.00673244,-0.23108,-0.186026,-0.00693277,0.0237947,0.44955,5,0.1,19,2.9,-0.569238,2.19125,0.606601,-0.808569,-0.213394,-0.0262019,-0.679154,0.0975728,0.00374392,0.011364,2.31608,5,0.1
0,3,0.911521,-2.40442,0.603268,-0.607218,0.00393987,-0.00599176,-0.414193,0.0345707,0.0121891,0.0155723,0.83617,5,0.1,1,3,-0.256171,3.0312,0.56185,0.0692144,0.403112,0.0161573,-0.139683,-0.157237,0.0243783,0.00941449,0.430323,5,0.1,2,3,2.57217,1.59719,0.5,0.383276,-0.094083,2.98023e-06,-0.211,0.103533,0,0.0145941,0.158709,5,0.1,3,3,-0.794384,3.87823,0.611151,0.601788,-0.113618,-0.0110224,-0.480562,0.0681877,0.0115037,0.0117703,0.153221,5,0.1,4,3,1.95052,-1.7253,0.736004,-0.13389,0.679913,0.0123844,0.118852,1.03551,-0.00870228,0.0194512,0.451227,5,0.1,5,3,-2.35687,5.60717,0.568021,-0.00246167,0.0323653,0.00297129,0.0107288,-0.140667,-0.0129044,0.0125846,0.000445201,5,0.1,6,3,0.594081,-3.68886,0.685344,0.0403121,0.545448,0.00884831,-0.0435412,-0.296712,-0.00956655,0.0105304,0.159752,5,0.1,7,3,-0.150136,3.6264,0.607421,0.208065,-0.637031,0.00267625,0.302218,-0.473857,0.0286996,0.0146807,2.48756,5,0.1,8,3,-0.277729,0.290412,0.60361,-0.021378,0.558011,-0.00346601,0.0193566,0.397146,0.00315905,0.0128708,0.777698,5,0.1,9,3,-3.07176,-2.90384,0.61521,0.835955,0.315773,-0.0135764,-0.252604,-0.218987,0.00938773,0.0181234,0.568347,5,0.1,10,3,-3.68444,-3.48892,0.799674,-0.0746965,0.866026,0.0869334,0.0127554,0,-0.0136495,0.0239185,2.26359,5,0.1,11,3,1.64527,4.30079,1.16299,0.00970066,-0.00901222,0.308305,-0.0139475,0.0724792,-0.206828,0.0298031,0.20018,5,0.1,12,3,4.34878,0.252803,0.595705,-0.144506,-0.316696,0.00416487,0.15974,0.682362,-0.00461936,0.010645,1.34983,5,0.1,13,3,-3.65892,-2.12856,0.649468,-0.0133216,-0.734097,0.0165313,0.0128746,0.428557,-0.0161827,0.00778663,0.276074,5,0.1,14,3,0.194521,-1.86584,0.813938,0.0215344,0.866026,0.109443,-0.00345707,0,-0.0175238,0.0286432,2.26387,5,0.1,15,3,3.56858,-3.42688,0.564357,-0.131786,0.843096,0.000940263,-0.213265,-0.213861,-0.0128448,0.0139856,0.644502,5,0.1,16,3,-0.660146,0.143671,0.606818,0.376624,0.0923,-0.00706017,-0.225902,0.126652,0.00470877,0.0193327,0.0904036,5,0.1,17,3,1.01582,4.92913,0.931811,-0.244501,0.0192046,0.38466,0.153661,-0.0121593,-0.241846,0.0254108,0.149448,5,0.1,18,3,-1.40081,-2.16616,0.743744,0.0127107,0.205612,0.0060603,-0.138938,-0.193477,-0.00667572,0.0263314,0.919149,5,0.1,19,3,-0.65275,2.17042,0.604006,-0.854242,-0.202864,-0.0256076,-0.235677,0.119567,0.0090003,0.0137344,1.80536,5,0.1
0,3.1,0.848659,-2.40391,0.602726,-0.649648,0.00613295,-0.00487491,-0.393171,0.0189692,0.0102371,0.0155723,0.83617,5,0.1,1,3.1,-0.250197,3.07103,0.563576,0.0482283,0.395967,0.0182363,-0.262866,-0.0167042,0.0165366,0.00941449,0.430323,5,0.1,2,3.1,2.60964,1.58826,0.500001,0.367419,-0.0848046,2.51457e-06,-0.127167,0.0850633,-1.11759e-05,0.0145941,0.158709,5,0.1,3,3.1,-0.736471,3.86719,0.610103,0.557378,-0.107199,-0.00997745,-0.425667,0.0637025,0.00972301,0.0117703,0.153221,5,0.1,4,3.1,1.93784,-1.65287,0.737202,-0.118839,0.761023,0.0115855,0.176959,0.574477,-0.0076741,0.0194512,0.451227,5,0.1,5,3.1,-2.35707,5.60975,0.568258,-0.0014957,0.0196844,0.00180788,0.00859797,-0.112772,-0.0103489,0.0125846,0.000445201,5,0.1,6,3.1,0.597909,-3.63571,0.686184,0.0363755,0.517948,0.00798367,-0.0364222,-0.271603,-0.00799447,0.0105304,0.159752,5,0.1,7,3.1,-0.127438,3.5599,0.607833,0.248603,-0.695578,0.00556046,0.466043,-0.630811,0.0278689,0.0146807,2.48756,5,0.1,8,3.1,-0.279776,0.348351,0.603278,-0.0196025,0.601152,-0.00317646,0.0167843,0.421699,0.00273809,0.0128708,0.777698,5,0.1,9,3.1,-2.98931,-2.8733,0.613897,0.813567,0.295542,-0.0127085,-0.228688,-0.195637,0.00839308,0.0181234,0.568347,5,0.1,10,3.1,-3.69187,-3.40232,0.80833,-0.0741422,0.866026,0.0863728,0.00268221,0,-0.00258163,0.0239185,2.26359,5,0.1,11,3.1,1.64617,4.3002,1.19276,0.00838023,-0.003355,0.28677,-0.0125989,0.0410974,-0.228696,0.0298031,0.20018,5,0.1,12,3.1,4.33507,0.224179,0.5961,-0.130184,-0.259814,0.00375099,0.131309,0.443751,-0.00379235,0.010645,1.34983,5,0.1,13,3.1,-3.66019,-2.19995,0.651045,-0.0121459,-0.694375,0.0150558,0.0110269,0.390023,-0.0138283,0.00778663,0.276074,5,0.1,14,3.1,0.196666,-1.77924,0.82484,0.0214203,0.866026,0.108867,-0.000136904,0,-0.000674278,0.0286432,2.26387,5,0.1,15,3.1,3.55434,-3.3435,0.56439,-0.152645,0.824945,-0.000233296,-0.192523,-0.185058,-0.0104941,0.0139856,0.644502,5,0.1,16,3.1,-0.62347,0.153365,0.606132,0.35788,0.0999783,-0.00667591,-0.166308,0.0299122,0.00331551,0.0193327,0.0904036,5,0.1,17,3.1,0.992073,4.931,0.969316,-0.230871,0.0183322,0.367316,0.127584,-0.0064671,-0.128899,0.0254108,0.149448,5,0.1,18,3.1,-1.40013,-2.14651,0.744319,0.00182725,0.188021,0.00546183,-0.0804812,-0.164717,-0.00548363,0.0263314,0.919149,5,0.1,19,3.1,-0.738896,2.15068,0.601487,-0.865289,-0.19223,-0.0247904,-0.0294559,0.100777,0.00831857,0.0137344,1.80536,5,0.1
0,3.2,0.78204,-2.40317,0.602287,-0.678885,0.00912547,-0.00392795,-0.163108,0.0448227,0.00870228,0.0269829,0.614733,5,0.1,1,3.2,-0.246775,3.11057,0.565465,0.0196937,0.39441,0.0193566,-0.294454,-0.0373125,0.00548363,0.0244071,0.332861,5,0.1,2,3.2,2.64574,1.5802,0.500001,0.354218,-0.0765502,1.49012e-06,-0.151634,0.0821352,-2.98023e-05,0.0353587,0.202698,5,0.1,3,3.2,-0.682891,3.8568,0.609153,0.513612,-0.100297,-0.00902116,-0.462085,0.0767708,0.00962615,0.0135024,0.14039,5,0.1,4,3.2,1.9269,-1.57473,0.738321,-0.0994593,0.793168,0.010781,0.206292,0.064373,-0.00867248,0.0401513,0.0982179,5,0.1,5,3.2,-2.35718,5.6112,0.568391,-0.000745058,0.00982285,0.0009045,0.0064373,-0.0846386,-0.00780821,0.0230767,0.000223658,5,0.1,6,3.2,0.601368,-3.58536,0.686943,0.0328168,0.488049,0.00720322,-0.0355542,-0.338674,-0.00780821,0.0168009,0.107671,5,0.1,7,3.2,-0.100264,3.48738,0.60852,0.293912,-0.751776,0.00805855,0.409011,-0.445247,0.0213385,0.0254464,2.31876,5,0.1,8,3.2,-0.281652,0.41032,0.602974,-0.0179127,0.63487,-0.00290275,0.0174493,0.221819,0.00286102,0.0104732,0.317633,5,0.1,9,3.2,-2.90928,-2.84475,0.612669,0.78457,0.274968,-0.0118241,-0.374198,-0.222802,0.00953674,0.0202582,0.389326,5,0.1,10,3.2,-3.69926,-3.31572,0.816939,-0.073415,0.866026,0.0855595,0.014782,0,-0.0171661,0.0214896,2.32314,5,0.1,11,3.2,1.64695,4.30002,1.22023,0.00715852,-0.000619888,0.261813,-0.0119209,0.0152588,-0.273287,0.0241723,0.19165,5,0.1,12,3.2,4.32269,0.2,0.596456,-0.117433,-0.227612,0.00338405,0.126362,0.21515,-0.00366569,0.0102376,1.29184,5,0.1,13,3.2,-3.66135,-2.26734,0.652482,-0.0110447,-0.652027,0.0136837,0.0112057,0.47338,-0.0140071,0.00794004,0.185851,5,0.1,14,3.2,0.198804,-1.69263,0.835706,0.0212822,0.866026,0.108168,-0.00354648,-5.96046e-05,-0.0180602,0.0370184,2.26405,5,0.1,15,3.2,3.53822,-3.26212,0.564319,-0.168371,0.800037,-0.00113845,-0.114202,-0.337958,-0.00756979,0.0119492,0.447038,5,0.1,16,3.2,-0.588531,0.163374,0.605481,0.340402,0.0988871,-0.00633746,-0.195503,-0.0486895,0.00366569,0.0153584,0.162896,5,0.1,17,3.2,1.01582,4.92913,0.931811,-0.244501,0.0192046,0.38466,0.153661,-0.0121593,-0.241846,0.018598,0.149448,5,0.1,18,3.2,-1.40026,-2.12852,0.744839,-0.00374615,0.17159,0.0049293,-0.0327826,-0.168324,-0.00530481,0.0347616,1.95335,5,0.1,19,3.2,-0.825484,2.13198,0.599054,-0.866026,-0.181413,-0.0237793,0,0.120878,0.0125468,0.0127065,1.392,5,0.1
0,3.3,0.713324,-2.40201,0.601935,-0.694691,0.014735,-0.00314415,-0.120223,0.0822246,0.00704825,0.0269829,0.614733,5,0.1,1,3.3,-0.246148,3.1501,0.567432,-0.00585041,0.397986,0.019982,-0.216442,0.0771582,0.00585243,0.0244071,0.332861,5,0.1,2,3.3,2.6808,1.57288,0.500001,0.349972,-0.070332,-9.31323e-07,0.032112,0.0472963,-1.49012e-05,0.0353587,0.202698,5,0.1,3,3.3,-0.633703,3.84709,0.608296,0.471124,-0.094441,-0.00815028,-0.402726,0.0461489,0.00806525,0.0135024,0.14039,5,0.1,4,3.3,1.918,-1.49576,0.739359,-0.078316,0.779812,0.00998443,0.212982,-0.323072,-0.00759587,0.0401513,0.0982179,5,0.1,5,3.3,-2.35723,5.6118,0.568446,-0.0001885,0.0025019,0.000229385,0.00470877,-0.0619888,-0.00571087,0.0230767,0.000223658,5,0.1,6,3.3,0.604485,-3.53815,0.687627,0.0296123,0.456643,0.0064997,-0.0295565,-0.304595,-0.00648201,0.0168009,0.107671,5,0.1,7,3.3,-0.0692541,3.40966,0.609402,0.322088,-0.804151,0.00931546,0.157207,-0.537649,0.00472367,0.0254464,2.31876,5,0.1,8,3.3,-0.282614,0.474133,0.602696,0.00491263,0.63401,-0.00269376,0.392072,-0.221759,0.00151992,0.0104732,0.317633,5,0.1,9,3.3,-2.83257,-2.8183,0.611531,0.750018,0.254432,-0.0109443,-0.344276,-0.196204,0.00841171,0.0202582,0.389326,5,0.1,10,3.3,-3.7067,-3.22918,0.825551,-0.0768222,0.863376,0.087788,-0.0694692,-0.0789464,0.0499152,0.0214896,2.32314,5,0.1,11,3.3,1.64761,4.30001,1.24503,0.00603013,0.000219792,0.234103,-0.0107139,0.00295043,-0.282496,0.0241723,0.19165,5,0.1,12,3.3,4.31153,0.178372,0.596778,-0.106119,-0.2046,0.00305641,0.103772,0.235979,-0.00300258,0.0102376,1.29184,5,0.1,13,3.3,-3.6624,-2.33031,0.653785,-0.0100248,-0.608187,0.0124115,0.00950694,0.423476,-0.0118464,0.00794004,0.185851,5,0.1,14,3.3,0.200923,-1.60603,0.846477,0.0211602,0.866025,0.107544,-0.000194646,1.49012e-05,-0.00101328,0.0370184,2.26405,5,0.1,15,3.3,3.52083,-3.18369,0.56417,-0.178985,0.769103,-0.00180742,-0.0890642,-0.309974,-0.00571832,0.0119492,0.447038,5,0.1,16,3.3,-0.555415,0.172886,0.604864,0.322178,0.090163,-0.00600209,-0.18011,-0.119981,0.00326708,0.0153584,0.162896,5,0.1,17,3.3,0.992073,4.931,0.969316,-0.230871,0.0183322,0.367316,0.127584,-0.0064671,-0.128899,0.018598,0.149448,5,0.1,18,3.3,-1.40091,-2.11215,0.745307,-0.00978149,0.156315,0.0044547,-0.0691563,-0.14247,-0.00435114,0.0347616,1.95335,5,0.1,19,3.3,-0.912082,2.1144,0.596736,-0.865811,-0.170455,-0.022615,0.00856817,0.104561,0.0115372,0.0127065,1.392,5,0.1
0,3.4,0.643544,-2.4,0.601653,-0.697435,0.0265777,-0.0025034,0.08744,0.149965,0.00581145,0.0232742,0.437173,5,0.1,1,3.4,-0.247686,3.19026,0.569452,-0.0236537,0.40437,0.0203311,-0.140198,0.0277758,0.000298023,0.0179925,0.247536,5,0.1,2,3.4,2.71603,1.56606,0.500001,0.354612,-0.0662118,-1.49012e-06,0.0351667,0.0389814,0,0.0225386,0.163688,5,0.1,3,3.4,-0.588606,3.83787,0.60752,0.430514,-0.0900626,-0.00736117,-0.419974,0.0456572,0.00792742,0.0181404,0.119966,5,0.1,4,3.4,1.91122,-1.41997,0.740319,-0.0575006,0.730419,0.00920743,0.200629,-0.654638,-0.00822544,0.0266541,0.0651756,5,0.1,5,3.4,-2.35722,5.61178,0.568444,0.000202656,-0.0026226,-0.000241399,0.00298023,-0.0405312,-0.00375509,0.0146965,8.40203e-05,5,0.1,6,3.4,0.607301,-3.49405,0.688245,0.0267297,0.42457,0.00586808,-0.0287592,-0.347018,-0.00631809,0.0137933,0.12421,5,0.1,7,3.4,-0.0366546,3.32682,0.610337,0.326053,-0.848711,0.00917464,-0.0736165,-0.312209,-0.00670552,0.00674218,1.05764,5,0.1,8,3.4,-0.279863,0.535814,0.602433,0.0521533,0.59392,-0.002563,0.516251,-0.563353,0.0012517,0.0162007,0.483926,5,0.1,9,3.4,-2.75943,-2.79385,0.61048,0.711101,0.234318,-0.0100806,-0.452757,-0.211716,0.00908971,0.0182102,0.263206,5,0.1,10,3.4,-3.71478,-3.14356,0.83461,-0.0849366,0.845265,0.093475,-0.0827312,-0.307083,0.0548959,0.0197791,2.56542,5,0.1,11,3.4,1.64816,4.30004,1.26701,0.00500381,0.000190735,0.205097,-0.00977516,-0.00190735,-0.298381,0.0290624,0.301357,5,0.1,12,3.4,4.30143,0.159069,0.597069,-0.0960231,-0.181829,0.00276566,0.100851,0.214405,-0.00292063,0.00883632,1.97268,5,0.1,13,3.4,-3.66336,-2.38896,0.654968,-0.00908375,-0.563955,0.0112444,0.00953674,0.475049,-0.0118017,0.0117968,0.137141,5,0.1,14,3.4,0.203035,-1.51943,0.857211,0.0210207,0.866026,0.106832,-0.00352412,-5.96046e-05,-0.017941,0.0434437,2.26424,5,0.1,15,3.4,3.50259,-3.10847,0.563964,-0.184691,0.733119,-0.00226647,-0.0188351,-0.429511,-0.00342727,0.0118568,0.304158,5,0.1,16,3.4,-0.524146,0.181225,0.604281,0.30251,0.0759605,-0.00564605,-0.220746,-0.159174,0.00393391,0.0154826,0.143936,5,0.1,17,3.4,1.01582,4.92913,0.931811,-0.244501,0.0192046,0.38466,0.153661,-0.0121593,-0.241846,0.0302175,0.149448,5,0.1,18,3.4,-1.40217,-2.09722,0.745731,-0.0146002,0.142199,0.00403076,-0.0162721,-0.143647,-0.00420213,0.0217402,0.26622,5,0.1,19,3.4,-0.998552,2.0979,0.594535,-0.862598,-0.159436,-0.021337,0.0685453,0.120044,0.0145733,0.021203,1.04549,5,0.1
0,3.5,0.574215,-2.39643,0.60143,-0.688668,0.0461068,-0.00198893,0.114493,0.224605,0.00454485,0.0232742,0.437173,5,0.1,1,3.5,-0.25067,3.23096,0.571489,-0.035201,0.410269,0.0203894,-0.0907267,0.0653267,-6.70552e-05,0.0179925,0.247536,5,0.1,2,3.5,2.75173,1.55964,0.500001,0.359496,-0.0622729,-1.49012e-06,0.0433624,0.041239,0,0.0225386,0.163688,5,0.1,3,3.5,-0.547313,3.82917,0.606817,0.398105,-0.0830729,-0.00675106,-0.25437,0.0911206,0.00474229,0.0181404,0.119966,5,0.1,4,3.5,1.90646,-1.35026,0.741201,-0.0381341,0.663144,0.00845399,0.184216,-0.696577,-0.0071153,0.0266541,0.0651756,5,0.1,5,3.5,-2.35719,5.61134,0.568403,0.000441074,-0.00586137,-0.000541285,0.00181794,-0.0246465,-0.00227243,0.0146965,8.40203e-05,5,0.1,6,3.5,0.609854,-3.45301,0.688806,0.024529,0.398759,0.00538519,-0.0169724,-0.19592,-0.00372157,0.0137933,0.12421,5,0.1,7,3.5,-0.00420004,3.24273,0.611358,0.324577,-0.812568,0.0123917,0.0194028,0.930652,0.0621714,0.00674218,1.05764,5,0.1,8,3.5,-0.27254,0.592932,0.602183,0.0898649,0.552823,-0.00242693,0.250064,-0.299383,0.00150874,0.0162007,0.483926,5,0.1,9,3.5,-2.69045,-2.77141,0.609514,0.669085,0.214886,-0.0092457,-0.410229,-0.183865,0.00790134,0.0182102,0.263206,5,0.1,10,3.5,-3.7243,-3.06082,0.844592,-0.110373,0.806857,0.109033,-0.381619,-0.469774,0.228174,0.0197791,2.56542,5,0.1,11,3.5,1.64861,4.30013,1.28603,0.00407621,0.00205413,0.175342,-0.00877678,0.0300109,-0.295937,0.0290624,0.301357,5,0.1,12,3.5,4.29229,0.142191,0.597332,-0.0869967,-0.154798,0.00250461,0.0828207,0.273531,-0.00238791,0.00883632,1.97268,5,0.1,13,3.5,-3.66407,-2.44283,0.655951,-0.00402443,-0.511996,0.00771526,0.0825971,0.562727,-0.0536516,0.0117968,0.137141,5,0.1,14,3.5,0.205128,-1.43283,0.867849,0.0208999,0.866025,0.106215,-0.000182539,1.49012e-05,-0.000949949,0.0434437,2.26424,5,0.1,15,3.5,3.48404,-3.03719,0.563722,-0.186061,0.693307,-0.00255136,-0.0012964,-0.390828,-0.0021942,0.0118568,0.304158,5,0.1,16,3.5,-0.494974,0.18799,0.603736,0.281011,0.0591208,-0.0052643,-0.216248,-0.173198,0.00384077,0.0154826,0.143936,5,0.1,17,3.5,0.992073,4.931,0.969316,-0.230871,0.0183322,0.367316,0.127584,-0.0064671,-0.128899,0.0302175,0.149448,5,0.1,18,3.5,-1.40359,-2.08388,0.745839,-0.0123436,0.123339,-0.00418574,0.0682995,-0.224888,-0.142708,0.0217402,0.26622,5,0.1,19,3.5,-1.08475,2.08251,0.592471,-0.86298,-0.148474,-0.0199842,-0.027217,0.104383,0.0131465,0.021203,1.04549,5,0.1
0,3.6,0.506143,-2.39068,0.601252,-0.670103,0.0686944,-0.00158101,0.274583,0.215054,0.00360608,0.0170339,0.303171,5,0.1,1,3.6,-0.254563,3.27221,0.57352,-0.0418365,0.413191,0.0201613,-0.0423938,-0.0244379,-0.005126,0.0200834,0.17775,5,0.1,2,3.6,2.78778,1.55363,0.5,0.360042,-0.0577271,-1.49012e-06,-0.0454187,0.0506043,0,0.0102641,0.200395,5,0.1,3,3.6,-0.508677,3.82137,0.606164,0.375091,-0.0724018,-0.0063315,-0.225246,0.119567,0.00399351,0.00955895,0.146949,5,0.1,4,3.6,1.90352,-1.28753,0.742011,-0.0210822,0.590265,0.00773668,0.155091,-0.763595,-0.00742078,0.0205469,0.0956319,5,0.1,5,3.6,-2.35714,5.61065,0.56834,0.000566244,-0.00761747,-0.000701845,0.000834465,-0.0112057,-0.00104308,0.0127647,2.5849e-05,5,0.1,6,3.6,0.61223,-3.41404,0.689328,0.0230357,0.380749,0.00505894,-0.0141263,-0.18394,-0.00312924,0.012179,0.0725568,5,0.1,7,3.6,0.0283421,3.16746,0.612961,0.325678,-0.681567,0.0200346,-0.0152481,1.60372,0.0838637,0.00995206,2.82608,5,0.1,8,3.6,-0.26266,0.646879,0.601949,0.104452,0.526932,-0.00225306,0.0524521,-0.24879,0.00196695,0.00928454,0.357027,5,0.1,9,3.6,-2.62567,-2.75084,0.608629,0.625241,0.196368,-0.00844896,-0.482321,-0.191331,0.00822544,0.0127306,0.227765,5,0.1,10,3.6,-3.73744,-2.9828,0.856732,-0.153422,0.750071,0.13417,-0.445366,-0.66936,0.25323,0.0158305,2.56514,5,0.1,11,3.6,1.64898,4.30048,1.30209,0.00324845,0.00469685,0.146073,-0.00786781,0.017643,-0.288665,0.026613,0.966092,5,0.1,12,3.6,4.284,0.127857,0.597571,-0.0789165,-0.134781,0.00227243,0.0808239,0.102915,-0.00235438,0.00845343,3.27845,5,0.1,13,3.6,-3.664,-2.49108,0.65642,0.00582337,-0.451803,0.00142753,0.107288,0.638723,-0.0680983,0.00874457,0.172493,5,0.1,14,3.6,0.207214,-1.34622,0.87845,0.0207637,0.866026,0.105523,-0.00344962,-5.96046e-05,-0.0175536,0.0262431,2.26427,5,0.1,15,3.6,3.4655,-2.96991,0.563459,-0.183749,0.650907,-0.00269264,0.0525713,-0.473857,-0.000625849,0.00930012,0.204628,5,0.1,16,3.6,-0.467993,0.193043,0.603229,0.2581,0.0420939,-0.0048548,-0.24654,-0.164032,0.00444055,0.0086932,0.325954,5,0.1,17,3.6,1.01582,4.92913,0.931811,-0.244501,0.0192046,0.38466,0.153661,-0.0121593,-0.241846,0.014818,0.149448,5,0.1,18,3.6,-1.40431,-2.07274,0.744596,-0.000339746,0.0987947,-0.0214189,0.170827,-0.259042,-0.18841,0.0153369,0.221428,5,0.1,19,3.6,-1.17102,2.0682,0.59054,-0.859776,-0.137687,-0.0185966,0.124931,0.115156,0.01508,0.00875769,0.75592,5,0.1
0,3.7,0.44045,-2.38269,0.60111,-0.643737,0.0912555,-0.00126734,0.274604,0.223994,0.00272691,0.0170339,0.303171,5,0.1,1,3.7,-0.258913,3.31347,0.575513,-0.0447208,0.412184,0.0196803,-0.0151731,-0.0155419,-0.00525266,0.0200834,0.17775,5,0.1,2,3.7,2.82387,1.54808,0.5,0.364044,-0.0535462,-1.49012e-06,0.0924468,0.0357926,0,0.0102641,0.200395,5,0.1,3,3.7,-0.472151,3.81477,0.605548,0.356403,-0.0594892,-0.00600712,-0.165779,0.135779,0.00279769,0.00955895,0.146949,5,0.1,4,3.7,1.90215,-1.23207,0.74275,-0.00662263,0.520956,0.00705943,0.132315,-0.638582,-0.00635535,0.0205469,0.0956319,5,0.1,5,3.7,-2.35708,5.60985,0.568266,0.000612065,-0.00823364,-0.000759028,0.00013411,-0.00157952,-0.000141561,0.0127647,2.5849e-05,5,0.1,6,3.7,0.614473,-3.37677,0.68982,0.0218974,0.3656,0.00480711,-0.00977516,-0.136584,-0.00215322,0.012179,0.0725568,5,0.1,7,3.7,0.0606023,3.10508,0.615289,0.317262,-0.585328,0.0256419,-0.151007,0.440672,0.030905,0.00995206,2.82608,5,0.1,8,3.7,-0.252183,0.698624,0.601733,0.102992,0.510114,-0.00205999,-0.0728471,-0.119716,0.00194088,0.00928454,0.357027,5,0.1,9,3.7,-2.56543,-2.73195,0.607823,0.580616,0.183331,-0.0076971,-0.429049,-0.0850558,0.00706688,0.0127306,0.227765,5,0.1,10,3.7,-3.75521,-2.91006,0.871419,-0.203292,0.713668,0.159231,-0.514701,-0.133917,0.232942,0.0158305,2.56514,5,0.1,11,3.7,1.64926,4.30118,1.3153,0.00252184,0.00977814,0.118569,-0.00668317,0.0466704,-0.261299,0.026613,0.966092,5,0.1,12,3.7,4.27648,0.114486,0.597787,-0.0716805,-0.136385,0.00206223,0.0665188,-0.120803,-0.00192598,0.00845343,3.27845,5,0.1,13,3.7,-3.66293,-2.53361,0.656265,0.0152495,-0.403194,-0.00410806,0.0799149,0.365824,-0.0431091,0.00874457,0.172493,5,0.1,14,3.7,0.209283,-1.25962,0.888964,0.020678,0.866025,0.105086,0.000395812,1.49012e-05,0.00199303,0.0262431,2.26427,5,0.1,15,3.7,3.44739,-2.90705,0.563187,-0.178453,0.607026,-0.0027243,0.0593215,-0.423744,5.21541e-05,0.00930012,0.204628,5,0.1,16,3.7,-0.443391,0.196389,0.602766,0.234071,0.0246831,-0.00442164,-0.238437,-0.17221,0.00431016,0.0086932,0.325954,5,0.1,17,3.7,0.992073,4.931,0.969316,-0.230871,0.0183322,0.367316,0.127584,-0.0064671,-0.128899,0.014818,0.149448,5,0.1,18,3.7,-1.40342,-2.06419,0.741434,0.0194801,0.0721488,-0.0423205,0.250451,-0.267997,-0.21797,0.0153369,0.221428,5,0.1,19,3.7,-1.25655,2.05497,0.588751,-0.851496,-0.127159,-0.0172032,0.0822991,0.0996739,0.013344,0.00875769,0.75592,5,0.1
0,3.8,0.377595,-2.37251,0.600996,-0.61153,0.111407,-0.00102669,0.384167,0.170231,0.00214577,0.0171982,0.206762,5,0.1,1,3.8,-0.263416,3.35449,0.577449,-0.0448771,0.40673,0.0189841,0.0118464,-0.107169,-0.00917912,0.0134441,0.130045,5,0.1,2,3.8,2.86074,1.5429,0.5,0.372815,-0.0500858,0,0.0591278,0.0353456,-2.98023e-05,0.0111676,0.123821,5,0.1,3,3.8,-0.437357,3.8095,0.604961,0.338986,-0.0457764,-0.00571758,-0.194773,0.136375,0.00318885,0.00987643,0.20103,5,0.1,4,3.8,1.9021,-1.18307,0.743424,0.00509322,0.459799,0.00642687,0.100791,-0.596046,-0.00649691,0.0192687,0.150869,5,0.1,5,3.8,-2.35702,5.60903,0.568191,0.000596046,-0.00801086,-0.000739098,-0.000357628,0.00548363,0.000536442,0.00902868,1.05165e-05,5,0.1,6,3.8,0.616614,-3.34093,0.69029,0.0208855,0.350451,0.00458509,-0.0112653,-0.178695,-0.00247359,0.0129819,0.0561743,5,0.1,7,3.8,0.0913652,3.04764,0.617938,0.295983,-0.572115,0.0267118,-0.271581,-0.0827312,-0.00724196,0.0123381,2.58856,5,0.1,8,3.8,-0.242395,0.749034,0.601537,0.0915051,0.497454,-0.00185966,-0.149481,-0.15673,0.00208616,0.0122178,0.261987,5,0.1,9,3.8,-2.50955,-2.71397,0.607088,0.536245,0.176609,-0.00699461,-0.471234,-0.0610352,0.00718236,0.0175546,0.158456,5,0.1,10,3.8,-3.77798,-2.83899,0.888373,-0.250047,0.710016,0.178257,-0.394344,0.00333786,0.137568,0.00848104,0.965086,5,0.1,11,3.8,1.64948,4.30221,1.3259,0.00190735,0.00863075,0.0938326,-0.00554323,-0.0860691,-0.233352,0.0274467,3.64492,5,0.1,12,3.8,4.26964,0.1,0.597984,-0.0651717,-0.155202,0.00187457,0.0658035,-0.232361,-0.00190735,0.00915123,3.56855,5,0.1,13,3.8,-3.66106,-2.57233,0.655676,0.0216067,-0.37294,-0.00730455,0.0468493,0.263929,-0.0214279,0.00974301,0.107516,5,0.1,14,3.8,0.21135,-1.17302,0.899469,0.0206128,0.866026,0.104754,-0.00266731,-5.96046e-05,-0.0135601,0.0235754,2.26437,5,0.1,15,3.8,3.42989,-2.84852,0.562917,-0.170887,0.562781,-0.00267029,0.0958443,-0.474811,0.00101328,0.00786036,0.137009,5,0.1,16,3.8,-0.421191,0.19806,0.602345,0.209692,0.00956915,-0.00397861,-0.251934,-0.122882,0.00461936,0.00860521,0.476236,5,0.1,17,3.8,1.01582,4.92913,0.931811,-0.244501,0.0192046,0.38466,0.153661,-0.0121593,-0.241846,0.0151376,0.149448,5,0.1,18,3.8,-1.4,-2.05829,0.736142,0.0510663,0.0462234,-0.0629961,0.369549,-0.246167,-0.18695,0.0151243,0.3358,5,0.1,19,3.8,-1.34108,2.04275,0.587099,-0.836265,-0.117022,-0.015834,0.251114,0.106096,0.0144243,0.00899296,0.530337,5,0.1
0,3.9,0.318276,-2.36052,0.600903,-0.575257,0.128081,-0.000843592,0.359492,0.15381,0.00155717,0.0171982,0.206762,5,0.1,1,3.9,-0.26781,3.39444,0.5793,-0.0426805,0.390417,0.0180122,0.0313502,-0.220388,-0.0106469,0.0134441,0.130045,5,0.1,2,3.9,2.89839,1.53805,0.5,0.380298,-0.046923,-1.02445e-06,0.0691712,0.0297278,3.72529e-06,0.0111676,0.123821,5,0.1,3,3.9,-0.404333,3.80559,0.604406,0.322137,-0.0326209,-0.00536945,-0.156088,0.124931,0.00385195,0.00987643,0.20103,5,0.1,4,3.9,1.90309,-1.1397,0.744036,0.0142096,0.410583,0.00583632,0.0802204,-0.411578,-0.0055097,0.0192687,0.150869,5,0.1,5,3.9,-2.35696,5.60827,0.568121,0.00054054,-0.00721663,-0.000662915,-0.000700355,0.0100136,0.000946224,0.00902868,1.05165e-05,5,0.1,6,3.9,0.618656,-3.30664,0.690738,0.0200284,0.336298,0.00439752,-0.00705197,-0.122547,-0.00153482,0.0129819,0.0561743,5,0.1,7,3.9,0.119543,2.98884,0.620533,0.26695,-0.613175,0.0248241,-0.308664,-0.638768,-0.0288226,0.0123381,2.58856,5,0.1,8,3.9,-0.234078,0.798162,0.601361,0.0741412,0.486101,-0.00166157,-0.191475,-0.095889,0.00190362,0.0122178,0.261987,5,0.1,9,3.9,-2.45814,-2.6965,0.606422,0.49286,0.173558,-0.00634119,-0.412226,-0.0122488,0.00609457,0.0175546,0.158456,5,0.1,10,3.9,-3.80447,-2.76997,0.907023,-0.275004,0.652984,0.195593,-0.113696,-1.04599,0.189073,0.00848104,0.965086,5,0.1,11,3.9,1.64965,4.30271,1.33417,0.00140518,-0.00220239,0.0721861,-0.00451505,-0.287175,-0.19978,0.0274467,3.64492,5,0.1,12,3.9,4.26289,0.0835885,0.598172,-0.0744492,-0.170415,0.00196835,-0.215471,-0.0756919,0.00313297,0.00915123,3.56855,5,0.1,13,3.9,-3.65876,-2.60858,0.654889,0.0234205,-0.35422,-0.00798488,-0.00657141,0.13499,0.00556186,0.00974301,0.107516,5,0.1,14,3.9,0.213407,-1.08642,0.909923,0.0205834,0.866025,0.104604,0.000768341,1.11759e-05,0.0039041,0.0235754,2.26437,5,0.1,15,3.9,3.41326,-2.79447,0.562655,-0.161687,0.519001,-0.00255825,0.0931025,-0.417471,0.00128523,0.00786036,0.137009,5,0.1,16,3.9,-0.40148,0.198425,0.601971,0.184521,-0.00150513,-0.0035149,-0.25228,-0.0787536,0.00466779,0.00860521,0.476236,5,0.1,17,3.9,0.992073,4.931,0.969316,-0.230871,0.0183322,0.367316,0.127584,-0.0064671,-0.128899,0.0151376,0.149448,5,0.1,18,3.9,-1.39293,-2.05483,0.728994,0.0909721,0.0236761,-0.0790143,0.40818,-0.203386,-0.130683,0.0151243,0.3358,5,0.1,19,3.9,-1.42357,2.03155,0.585583,-0.814043,-0.107337,-0.014508,0.22696,0.0911653,0.0125505,0.00899296,0.530337,5,0.1
0,4,0.262627,-2.34704,0.600826,-0.536581,0.140589,-0.000707805,0.426322,0.0897646,0.0012219,0.0112219,0.139274,5,0.1,1,4,-0.271894,3.43219,0.581043,-0.0387549,0.362587,0.0167936,0.0464022,-0.335813,-0.0139773,0.00941706,0.205462,5,0.1,2,4,2.93664,1.53351,0.5,0.383037,-0.0438303,0,-0.0289679,0.033319,0,0.0171567,0.189753,5,0.1,3,4,-0.372929,3.80292,0.60389,0.305408,-0.0210881,-0.00493675,-0.188202,0.104547,0.00485778,0.00532831,0.491146,5,0.1,4,4,1.90487,-1.10056,0.744593,0.0209242,0.373414,0.00529289,0.0533462,-0.349104,-0.00551343,0.0182377,0.195151,5,0.1,5,4,-2.35691,5.6076,0.568059,0.000458956,-0.00607967,-0.000555813,-0.000953674,0.0123978,0.00113249,0.0128773,8.92786e-06,5,0.1,6,4,0.620623,-3.27365,0.69117,0.0192747,0.322849,0.00423342,-0.00882149,-0.159025,-0.00190735,0.0116249,0.025458,5,0.1,7,4,0.144637,2.92408,0.622847,0.234396,-0.682425,0.021258,-0.341371,-0.671387,-0.0410378,0.0113064,2.37768,5,0.1,8,4,-0.227647,0.846222,0.601204,0.0543416,0.47392,-0.00147223,-0.199541,-0.165731,0.00190735,0.0103267,0.188132,5,0.1,9,4,-2.41092,-2.67921,0.605818,0.45113,0.172037,-0.00573993,-0.433326,-0.0268221,0.00604987,0.0116586,0.109754,5,0.1,10,4,-3.83214,-2.71096,0.927477,-0.274563,0.518543,0.212613,0.113368,-1.56379,0.136852,0.00890514,0.300578,5,0.1,11,4,1.64977,4.3,1.34044,0.00100136,-0.0626087,0.0538319,-0.00363588,-0.902414,-0.167549,0.0283252,3.22103,5,0.1,12,4,4.25415,0.0664003,0.598388,-0.1019,-0.171135,0.00238717,-0.306129,0.0571534,0.00467896,0.00753585,3.64601,5,0.1,13,4,-3.65651,-2.64338,0.654148,0.0210166,-0.341707,-0.0066027,-0.0382662,0.133514,0.020206,0.00906418,0.0911304,5,0.1,14,4,0.215466,-0.999813,0.920387,0.0205416,0.866026,0.104392,-0.0025332,0,-0.0128746,0.0300195,2.26462,5,0.1,15,4,3.39759,-2.74468,0.562407,-0.151426,0.476468,-0.00240505,0.115156,-0.444889,0.00184774,0.0103368,0.157974,5,0.1,16,4,-0.384294,0.19807,0.601643,0.159134,-0.00348203,-0.00304282,-0.255704,0.0463799,0.00479817,0.00953484,2.80702,5,0.1,17,4,1.01582,4.92913,0.931811,-0.244501,0.0192046,0.38466,0.153661,-0.0121593,-0.241846,0.0154431,0.149448,5,0.1,18,4,-1.38187,-2.0534,0.720551,0.129175,0.00575781,-0.088717,0.340998,-0.154257,-0.0618696,0.016243,0.307374,5,0.1,19,4,-1.50366,2.02127,0.584195,-0.785208,-0.0981808,-0.0132442,0.372767,0.094533,0.0130236,0.0100601,0.363935,5,0.1
0,4.1,0.210993,-2.33254,0.600761,-0.4968,0.148939,-0.000606105,0.384554,0.069797,0.000849366,0.0112219,0.139274,5,0.1,1,4.1,-0.275638,3.46665,0.582659,-0.0369728,0.325648,0.015559,-0.00426546,-0.400335,-0.0113435,0.00941706,0.205462,5,0.1,2,4.1,2.97506,1.52929,0.5,0.387115,-0.0406673,0,0.0795126,0.0311062,0,0.0171567,0.189753,5,0.1,3,4.1,-0.343995,3.80219,0.603481,0.267529,0.0134341,-0.0027338,-0.533639,0.529528,0.0354126,0.00532831,0.491146,5,0.1,4,4.1,1.90723,-1.06445,0.745099,0.0262588,0.352794,0.0048683,0.0507236,-0.0998601,-0.00330433,0.0182377,0.195151,5,0.1,5,4.1,-2.35687,5.60706,0.56801,0.000359118,-0.00477582,-0.000436418,-0.00101328,0.013411,0.00122935,0.0128773,8.92786e-06,5,0.1,6,4.1,0.622507,-3.24214,0.691584,0.0184187,0.307139,0.00404818,-0.00892207,-0.164658,-0.00193343,0.0116249,0.025458,5,0.1,7,4.1,0.166434,2.85212,0.624759,0.202094,-0.758687,0.0168971,-0.307642,-0.782371,-0.045184,0.0113064,2.37768,5,0.1,8,4.1,-0.223221,0.892891,0.601066,0.0342006,0.459987,-0.00129528,-0.198727,-0.133462,0.00166893,0.0103267,0.188132,5,0.1,9,4.1,-2.36784,-2.66208,0.605273,0.411443,0.170838,-0.00519166,-0.373572,-0.00683963,0.00509247,0.0116586,0.109754,5,0.1,10,4.1,-3.85909,-2.66684,0.949681,-0.264942,0.365206,0.233285,0.0909269,-1.48103,0.247419,0.00890514,0.300578,5,0.1,11,4.1,1.649,4.28807,1.34504,-0.0234457,-0.184935,0.038472,-0.431709,-1.44106,-0.139631,0.0283252,3.22103,5,0.1,12,4.1,4.2422,0.0498797,0.598645,-0.138733,-0.156622,0.00269199,-0.40251,0.216762,0.00155345,0.00753585,3.64601,5,0.1,13,4.1,-3.65465,-2.67711,0.653617,0.0156876,-0.334524,-0.00379886,-0.0645071,0.035122,0.0336841,0.00906418,0.0911304,5,0.1,14,4.1,0.217515,-0.913211,0.930799,0.0204816,0.866026,0.104087,0.000118278,-3.72529e-06,0.000603497,0.0300195,2.26462,5,0.1,15,4.1,3.38292,-2.69888,0.562174,-0.142728,0.442378,-0.00225175,0.0678152,-0.266016,0.0013262,0.0103368,0.157974,5,0.1,16,4.1,-0.36962,0.197842,0.601362,0.134738,0.00182977,-0.00258442,-0.233311,0.205727,0.00439584,0.00953484,2.80702,5,0.1,17,4.1,0.992073,4.931,0.969316,-0.230871,0.0183322,0.367316,0.127584,-0.0064671,-0.128899,0.0154431,0.149448,5,0.1,18,4.1,-1.36765,-2.05354,0.711419,0.151427,-0.00798292,-0.0933494,0.118412,-0.119582,-0.0284985,0.016243,0.307374,5,0.1,19,4.1,-1.58043,2.01189,0.582932,-0.7508,-0.0895742,-0.0120531,0.342891,0.0806004,0.0111796,0.0100601,0.363935,5,0.1
0,4.2,0.163268,-2.31738,0.600704,-0.457102,0.153315,-0.000530481,0.419833,0.012517,0.000625849,0.0129034,0.159601,5,0.1,1,4.2,-0.279397,3.49713,0.584158,-0.0384606,0.283086,0.0144169,-0.020504,-0.447869,-0.0119507,0.00975899,0.193403,5,0.1,2,4.2,3.01414,1.52538,0.5,0.393599,-0.0374168,0,0.0276566,0.0348091,0,0.0142336,0.115065,5,0.1,3,4.2,-0.320236,3.8065,0.60341,0.205123,0.0748217,0.00147074,-0.685766,0.654578,0.0457168,0.00703896,0.309705,5,0.1,4,4.2,1.91008,-1.02951,0.745571,0.0306189,0.347039,0.00457466,0.0348091,-0.0427961,-0.00283122,0.0195806,0.121554,5,0.1,5,4.2,-2.35684,5.60665,0.567972,0.00026226,-0.00345707,-0.000314415,-0.00107288,0.0128746,0.00113249,0.00934839,7.94485e-06,5,0.1,6,4.2,0.6243,-3.21233,0.691979,0.0173867,0.288349,0.00382513,-0.0120997,-0.21708,-0.00268221,0.0106132,0.0152756,5,0.1,7,4.2,0.185141,2.77263,0.626222,0.172367,-0.826967,0.0123993,-0.288941,-0.535369,-0.044018,0.0118225,2.29096,5,0.1,8,4.2,-0.220762,0.938138,0.600945,0.0153851,0.443751,-0.00113398,-0.174254,-0.205517,0.00157952,0.010806,0.131878,5,0.1,9,4.2,-2.32856,-2.64506,0.604778,0.374174,0.169015,-0.00469089,-0.381112,-0.036478,0.00500679,0.012695,0.13058,5,0.1,10,4.2,-3.88509,-2.63744,0.974232,-0.254369,0.226116,0.257045,0.128746,-1.28508,0.206381,0.0179188,3.51281,5,0.1,11,4.2,1.64416,4.26218,1.34823,-0.0758141,-0.332737,0.0258982,-0.573993,-1.43695,-0.111997,0.0273588,2.7229,5,0.1,12,4.2,4.22634,0.035454,0.598917,-0.177538,-0.130694,0.00272393,-0.353098,0.289021,-0.00077486,0.010718,3.7049,5,0.1,13,4.2,-3.65343,-2.71038,0.653412,0.00878572,-0.330395,-0.00025332,-0.0703335,0.0650883,0.035584,0.010336,0.0451564,5,0.1,14,4.2,0.21956,-0.826608,0.941192,0.0203576,0.866026,0.103457,-0.00344962,0,-0.0175536,0.0262233,2.26481,5,0.1,15,4.2,3.36897,-2.65588,0.561956,-0.136298,0.418198,-0.00211895,0.067234,-0.239015,0.00140071,0.00794827,0.0920002,5,0.1,16,4.2,-0.357282,0.2,0.601125,0.112293,0.050858,-0.00216216,-0.21632,0.760898,0.00411272,0.00822279,3.24334,5,0.1,17,4.2,1.01582,4.92913,0.931811,-0.244501,0.0192046,0.38466,0.153661,-0.0121593,-0.241846,0.0155786,0.149448,5,0.1,18,4.2,-1.35219,-2.05487,0.702012,0.15541,-0.0180185,-0.0940621,-0.0277162,-0.0805855,0.0154376,0.0123603,0.278614,5,0.1,19,4.2,-1.65367,2.00334,0.581782,-0.712001,-0.081557,-0.0109419,0.451803,0.0818372,0.0113249,0.00895149,0.246236,5,0.1
0,4.3,0.119319,-2.30188,0.600653,-0.424563,0.157423,-0.000490807,0.257927,0.0562966,0.000223517,0.0129034,0.159601,5,0.1,1,4.3,-0.283298,3.5236,0.585549,-0.0391045,0.249803,0.0134828,0.0069458,-0.241131,-0.00754744,0.00975899,0.193403,5,0.1,2,4.3,3.05368,1.52181,0.5,0.397364,-0.0340588,0,0.0277311,0.0330806,0,0.0142336,0.115065,5,0.1,3,4.3,-0.303113,3.81751,0.603803,0.137999,0.147017,0.00651777,-0.646427,0.749752,0.052616,0.00703896,0.309705,5,0.1,4,4.3,1.91331,-0.994836,0.746016,0.0337323,0.347589,0.00434332,0.0258461,0.0295714,-0.00201911,0.0195806,0.121554,5,0.1,5,4.3,-2.35682,5.60637,0.567946,0.000159815,-0.00220984,-0.00020368,-0.000938773,0.0118613,0.00106171,0.00934839,7.94485e-06,5,0.1,6,4.3,0.62598,-3.18456,0.692348,0.0162043,0.267065,0.00356361,-0.0120327,-0.215992,-0.00265241,0.0106132,0.0152756,5,0.1,7,4.3,0.200988,2.68794,0.627246,0.145085,-0.860469,0.00813566,-0.258252,-0.1591,-0.0406727,0.0118225,2.29096,5,0.1,8,4.3,-0.220073,0.981569,0.600839,-0.00130611,0.425262,-0.000989344,-0.156236,-0.18096,0.00133738,0.010806,0.131878,5,0.1,9,4.3,-2.29274,-2.62818,0.60433,0.344633,0.169975,-0.00430457,-0.232488,0.0393391,0.00301003,0.012695,0.13058,5,0.1,10,4.3,-3.90961,-2.61858,1.0007,-0.233665,0.174306,0.269767,0.274524,0.110298,0.0481382,0.0179188,3.51281,5,0.1,11,4.3,1.63338,4.22135,1.3503,-0.141864,-0.485429,0.0160133,-0.706084,-1.53655,-0.0861064,0.0273588,2.7229,5,0.1,12,4.3,4.20675,0.0240737,0.599179,-0.214534,-0.0953601,0.00245292,-0.364214,0.383393,-0.00407547,0.010718,3.7049,5,0.1,13,4.3,-3.65291,-2.74312,0.653568,0.00157766,-0.324342,0.00336925,-0.0714511,0.0695586,0.0355281,0.010336,0.0451564,5,0.1,14,4.3,0.221587,-0.740005,0.95149,0.0202198,0.866026,0.102755,-0.000515021,-3.72529e-06,-0.00262633,0.0262233,2.26481,5,0.1,15,4.3,3.35564,-2.6151,0.56175,-0.130587,0.398371,-0.00199173,0.0528842,-0.176713,0.00121444,0.00794827,0.0920002,5,0.1,16,4.3,-0.347236,0.210347,0.600928,0.0878193,0.167642,-0.00177911,-0.264609,1.45768,0.00357255,0.00822279,3.24334,5,0.1,17,4.3,0.992073,4.931,0.969316,-0.230871,0.0183322,0.367316,0.127584,-0.0064671,-0.128899,0.0155786,0.149448,5,0.1,18,4.3,-1.33708,-2.05704,0.692704,0.144666,-0.0249129,-0.0918455,-0.15793,-0.0565201,0.0308789,0.0123603,0.278614,5,0.1,19,4.3,-1.72274,1.99556,0.58074,-0.670076,-0.0741273,-0.00991141,0.409432,0.0692308,0.00960752,0.00895149,0.246236,5,0.1
0,4.4,0.0780664,-2.28588,0.600605,-0.400834,0.162274,-0.000476837,0.236492,0.0312328,8.9407e-05,0.0143315,0.111596,5,0.1,1,4.4,-0.287133,3.54756,0.586862,-0.0372186,0.230742,0.0127673,0.0299811,-0.158072,-0.00733137,0.0102451,0.14801,5,0.1,2,4.4,3.09343,1.51857,0.5,0.395787,-0.0306755,0,-0.0729561,0.0350475,0,0.0157917,0.0643686,5,0.1,3,4.4,-0.29241,3.83585,0.604712,0.077606,0.217927,0.0115395,-0.55404,0.639558,0.0458956,0.00796355,0.2288,5,0.1,4,4.4,1.91679,-0.959973,0.74644,0.0355214,0.348797,0.00413358,0.00888109,-0.022769,-0.00232458,0.0195369,0.222702,5,0.1,5,4.4,-2.35681,5.6062,0.567931,7.7486e-05,-0.00112057,-0.000105798,-0.000834465,0.00977516,0.000923872,0.012834,5.33073e-06,5,0.1,6,4.4,0.627537,-3.15898,0.69269,0.0148997,0.243962,0.00327826,-0.0142753,-0.250459,-0.00318885,0.0135855,0.00482649,5,0.1,7,4.4,0.214246,2.60148,0.627866,0.120454,-0.866026,0.00436604,-0.235461,0,-0.0343025,0.0154265,2.26907,5,0.1,8,4.4,-0.220932,1.02312,0.600746,-0.0153013,0.404742,-0.000861287,-0.121392,-0.240982,0.0012219,0.0101562,0.126521,5,0.1,9,4.4,-2.25935,-2.61097,0.603914,0.323725,0.174046,-0.00403821,-0.202656,0.03016,0.002563,0.0125325,0.0777838,5,0.1,10,4.4,-3.93144,-2.59924,1.02766,-0.201476,0.223351,0.26685,0.36025,0.761032,-0.104845,0.0209001,2.95681,5,0.1,11,4.4,1.61572,4.16551,1.35152,-0.209919,-0.626218,0.00858903,-0.624716,-1.2219,-0.0627637,0.0294061,2.37105,5,0.1,12,4.4,4.18361,0.0163876,0.599402,-0.246513,-0.0596029,0.0020057,-0.259399,0.310141,-0.00452995,0.00934616,3.65782,5,0.1,13,4.4,-3.65309,-2.77511,0.654074,-0.0050962,-0.314212,0.00662208,-0.0602007,0.141859,0.02864,0.0106869,0.0191758,5,0.1,14,4.4,0.223603,-0.653403,0.961736,0.020048,0.866026,0.101881,-0.00378489,0,-0.0191629,0.0279271,2.26487,5,0.1,15,4.4,3.34286,-2.57617,0.561557,-0.124717,0.379574,-0.00186265,0.0685453,-0.21255,0.00143051,0.00894701,0.0715104,5,0.1,16,4.4,-0.339799,0.234755,0.600767,0.0608914,0.321769,-0.00144392,-0.267252,1.5357,0.00312924,0.00874782,2.74147,5,0.1,17,4.4,1.01582,4.92913,0.931811,-0.244501,0.0192046,0.38466,0.153661,-0.0121593,-0.241846,0.0164837,0.149448,5,0.1,18,4.4,-1.32343,-2.05977,0.683712,0.128362,-0.0292122,-0.0875741,-0.15223,-0.0290871,0.0557303,0.0200626,3.51457,5,0.1,19,4.4,-1.78761,1.98849,0.579797,-0.626287,-0.0672877,-0.00896603,0.481844,0.0693202,0.00956655,0.0133166,0.165386,5,0.1
0,4.5,0.0394103,-2.26948,0.600557,-0.370003,0.165672,-0.000475999,0.373687,0.0281781,-4.09782e-05,0.0143315,0.111596,5,0.1,1,4.5,-0.290662,3.57019,0.588108,-0.0329839,0.224692,0.012206,0.0526104,0.0105202,-0.00458583,0.0102451,0.14801,5,0.1,2,4.5,3.13262,1.51567,0.5,0.387543,-0.0273054,0,-0.104308,0.0328347,0,0.0157917,0.0643686,5,0.1,3,4.5,-0.287141,3.86085,0.606095,0.0304447,0.281442,0.0160608,-0.392927,0.601649,0.0426956,0.00796355,0.2288,5,0.1,4,4.5,1.92036,-0.925015,0.746841,0.0356823,0.351633,0.00387952,-0.00582635,0.054121,-0.00280887,0.0195369,0.222702,5,0.1,5,4.5,-2.3568,5.60613,0.567925,3.35276e-06,-0.000225008,-2.09548e-05,-0.00064075,0.00804663,0.000763685,0.012834,5.33073e-06,5,0.1,6,4.5,0.628955,-3.13584,0.693002,0.0134503,0.218689,0.00295592,-0.0148788,-0.257373,-0.00328943,0.0135855,0.00482649,5,0.1,7,4.5,0.225199,2.51488,0.628139,0.0993663,-0.866026,0.0011825,-0.189255,0,-0.0289939,0.0154265,2.26907,5,0.1,8,4.5,-0.223198,1.06247,0.600666,-0.0309674,0.38262,-0.00075046,-0.179535,-0.21518,0.00101328,0.0101562,0.126521,5,0.1,9,4.5,-2.22786,-2.59341,0.603521,0.306951,0.176919,-0.00382904,-0.147849,0.0192076,0.00181049,0.0125325,0.0777838,5,0.1,10,4.5,-3.94973,-2.57191,1.05374,-0.163919,0.332453,0.253739,0.384361,1.31373,-0.15942,0.0209001,2.95681,5,0.1,11,4.5,1.59152,4.09695,1.35209,-0.274346,-0.741734,0.00327546,-0.630483,-1.03652,-0.0439808,0.0294061,2.37105,5,0.1,12,4.5,4.15764,0.0120174,0.599578,-0.272616,-0.0289843,0.00149785,-0.243574,0.2428,-0.00467524,0.00934616,3.65782,5,0.1,13,4.5,-3.65389,-2.80578,0.654872,-0.0107028,-0.298797,0.00924692,-0.0506043,0.172883,0.0231415,0.0106869,0.0191758,5,0.1,14,4.5,0.225598,-0.5668,0.971876,0.0199166,0.866026,0.101218,-0.000117347,-1.78814e-06,-0.000551343,0.0279271,2.26487,5,0.1,15,4.5,3.33068,-2.53911,0.561378,-0.119111,0.362702,-0.00173803,0.0496954,-0.14478,0.00113994,0.00894701,0.0715104,5,0.1,16,4.5,-0.335055,0.275102,0.600637,0.0340605,0.487771,-0.00115903,-0.263091,1.69364,0.00259653,0.00874782,2.74147,5,0.1,17,4.5,0.992073,4.931,0.969316,-0.230871,0.0183322,0.367316,0.127584,-0.0064671,-0.128899,0.0164837,0.149448,5,0.1,18,4.5,-1.31168,-2.06281,0.675384,0.108563,-0.031317,-0.0776821,-0.0523776,-0.0126362,0.134412,0.0200626,3.51457,5,0.1,19,4.5,-1.84797,1.98209,0.578945,-0.581703,-0.0610124,-0.00809925,0.428751,0.0582635,0.00803545,0.0133166,0.165386,5,0.1
0,4.6,0.0044591,-2.25283,0.600509,-0.327373,0.16647,-0.000478327,0.472587,-0.0181198,2.98023e-05,0.019251,0.143009,5,0.1,1,4.6,-0.293675,3.59281,0.589306,-0.0270814,0.228202,0.0117302,0.0637025,0.0396967,-0.00536442,0.0153234,0.245132,5,0.1,2,4.6,3.17072,1.5131,0.5,0.372887,-0.0240326,0,-0.196934,0.0329018,0,0.0189356,0.1219,5,0.1,3,4.6,-0.285821,3.89175,0.607897,-0.00173226,0.333327,0.0197679,-0.254422,0.415683,0.0302196,0.00746301,0.184057,5,0.1,4,4.6,1.92387,-0.889624,0.747214,0.0343412,0.355263,0.00356436,-0.0209212,0.000327826,-0.00354648,0.0209073,0.164353,5,0.1,5,4.6,-2.35681,5.60615,0.567926,-5.36442e-05,0.000476837,4.47035e-05,-0.000357628,0.00572205,0.000566244,0.0110128,2.62861e-06,5,0.1,6,4.6,0.630224,-3.11528,0.693281,0.0119001,0.192147,0.00261366,-0.0161827,-0.274777,-0.00354648,0.0114471,0.00145542,5,0.1,7,4.6,0.234246,2.42828,0.628124,0.0820775,-0.866026,-0.00137091,-0.158802,0,-0.0219047,0.0123864,2.27,5,0.1,8,4.6,-0.227204,1.0996,0.600596,-0.0490382,0.359395,-0.000654161,-0.172585,-0.258744,0.000923872,0.0111209,0.157101,5,0.1,9,4.6,-2.19791,-2.57569,0.603147,0.291586,0.176531,-0.00364333,-0.170112,-0.0323057,0.00208616,0.0113891,0.156245,5,0.1,10,4.6,-3.96421,-2.53191,1.07821,-0.125772,0.467294,0.234699,0.373602,1.30236,-0.222147,0.0195622,2.57012,5,0.1,11,4.6,1.56114,4.01824,1.35223,-0.33032,-0.825232,-0.000303984,-0.465453,-0.602484,-0.0280142,0.0285911,2.20579,5,0.1,12,4.6,4.12931,0.00986812,0.59971,-0.291991,-0.0193244,0.00120848,-0.130653,-0.0729887,-0.000715256,0.0106226,3.42995,5,0.1,13,4.6,-3.65519,-2.83471,0.655898,-0.0150025,-0.278616,0.0111341,-0.0345707,0.234365,0.0141561,0.00885888,0.0104286,5,0.1,14,4.6,0.227586,-0.480198,0.981982,0.0198063,0.866025,0.10066,-0.00300258,1.43051e-05,-0.0151992,0.0306082,2.26547,5,0.1,15,4.6,3.31903,-2.50359,0.561209,-0.113732,0.347233,-0.00162274,0.062108,-0.178456,0.0012517,0.014243,0.0324896,5,0.1,16,4.6,-0.332915,0.331995,0.600534,0.00935644,0.644857,-0.000920892,-0.226408,1.38243,0.00217557,0.0147353,2.424,5,0.1,17,4.6,1.01582,4.92913,0.931811,-0.244501,0.0192046,0.38466,0.153661,-0.0121593,-0.241846,0.0201179,0.149448,5,0.1,18,4.6,-1.3,-2.06597,0.668365,0.136355,-0.0316918,-0.0620857,0.60159,0.00536442,0.171274,0.0157112,0.193284,5,0.1,19,4.6,-1.90396,1.97627,0.578174,-0.537345,-0.0552863,-0.007312,0.471354,0.0578165,0.00786781,0.00946958,0.110836,5,0.1
0,4.7,-0.0257625,-2.23624,0.600461,-0.275782,0.165568,-0.000482425,0.549334,-0.00885129,-7.45058e-05,0.019251,0.143009,5,0.1,1,4.7,-0.296057,3.61594,0.590454,-0.0205291,0.235069,0.0112469,0.0658035,0.0801235,-0.00474229,0.0153234,0.245132,5,0.1,2,4.7,3.20728,1.51086,0.5,0.360208,-0.0208989,0,-0.0818521,0.0300705,0,0.0189356,0.1219,5,0.1,3,4.7,-0.287037,3.92713,0.610021,-0.0204546,0.373424,0.0226486,-0.126716,0.361815,0.0258833,0.00746301,0.184057,5,0.1,4,4.7,1.92719,-0.854004,0.747553,0.0320021,0.357551,0.00321586,-0.0260919,0.025399,-0.00347197,0.0209073,0.164353,5,0.1,5,4.7,-2.35681,5.60622,0.567933,-8.27014e-05,0.000968575,9.2946e-05,-0.000238419,0.00405312,0.000402331,0.0110128,2.62861e-06,5,0.1,6,4.7,0.631333,-3.09743,0.693525,0.0102836,0.164859,0.00225957,-0.0161491,-0.270918,-0.00353158,0.0114471,0.00145542,5,0.1,7,4.7,0.24174,2.34167,0.627884,0.068513,-0.866026,-0.00334792,-0.115983,0,-0.017345,0.0123864,2.27,5,0.1,8,4.7,-0.233155,1.13453,0.600534,-0.0713501,0.341186,-0.000579376,-0.254636,-0.129506,0.000614673,0.0111209,0.157101,5,0.1,9,4.7,-2.16955,-2.55843,0.602793,0.275813,0.166806,-0.00345176,-0.155017,-0.154421,0.00187382,0.0113891,0.156245,5,0.1,10,4.7,-3.97496,-2.47832,1.10059,-0.0897098,0.605806,0.212865,0.343785,1.38779,-0.218123,0.0195622,2.57012,5,0.1,11,4.7,1.52575,3.93357,1.35208,-0.377196,-0.860809,-0.00251587,-0.442378,-0.15533,-0.0166222,0.0285911,2.20579,5,0.1,12,4.7,4.09944,0.00718845,0.599832,-0.305206,-0.0405602,0.00132611,-0.116765,-0.438223,0.00437722,0.0106226,3.42995,5,0.1,13,4.7,-3.65685,-2.8614,0.657076,-0.0180446,-0.255018,0.0123329,-0.0252724,0.242427,0.00927597,0.00885888,0.0104286,5,0.1,14,4.7,0.22956,-0.393595,0.99201,0.0196987,0.866025,0.100118,-0.00031665,-1.78814e-06,-0.00157207,0.0306082,2.26547,5,0.1,15,4.7,3.30796,-2.46973,0.561053,-0.107609,0.329811,-0.00150185,0.0635386,-0.180453,0.00120699,0.014243,0.0324896,5,0.1,16,4.7,-0.333257,0.402854,0.600602,-0.017264,0.766007,0.00352673,-0.290258,1.00519,0.0773445,0.0147353,2.424,5,0.1,17,4.7,0.992073,4.931,0.969316,-0.230871,0.0183322,0.367316,0.127584,-0.0064671,-0.128899,0.0201179,0.149448,5,0.1,18,4.7,-1.28342,-2.06911,0.662908,0.194058,-0.0309218,-0.0480031,0.532806,0.0106841,0.114251,0.0157112,0.193284,5,0.1,19,4.7,-1.95547,1.97101,0.57748,-0.493945,-0.050066,-0.00660149,0.412427,0.0483096,0.00656769,0.00946958,0.110836,5,0.1
0,4.8,-0.0505366,-2.21977,0.600413,-0.219343,0.163198,-0.000487268,0.570979,-0.0445843,2.98023e-05,0.0184421,0.132543,5,0.1,1,4.8,-0.297788,3.6398,0.591553,-0.0141859,0.241232,0.0107065,0.0599474,0.0305176,-0.0063777,0.0108075,0.218163,5,0.1,2,4.8,3.24291,1.50892,0.5,0.352162,-0.0179678,0,-0.097394,0.0288486,0,0.0137939,0.0735477,5,0.1,3,4.8,-0.289551,3.96603,0.612398,-0.0283211,0.401586,0.0246927,-0.0364035,0.185013,0.0139475,0.0102022,0.160034,5,0.1,4,4.8,1.93025,-0.818215,0.747857,0.029093,0.356942,0.00286102,-0.0321269,-0.0515878,-0.00363588,0.0178221,0.377479,5,0.1,5,4.8,-2.35682,5.60634,0.567944,-0.000101328,0.00127554,0.00012368,-0.000119209,0.0026226,0.000238419,0.0124422,1.06647e-06,5,0.1,6,4.8,0.632281,-3.08229,0.693733,0.00867248,0.138009,0.00190735,-0.0160635,-0.265598,-0.00351667,0.0123193,0.000809489,5,0.1,7,4.8,0.248058,2.25507,0.627472,0.0582606,-0.866026,-0.0047937,-0.0917614,0,-0.0114143,0.0167411,2.27049,5,0.1,8,4.8,-0.24157,1.16805,0.600479,-0.0966489,0.329322,-0.000526011,-0.237182,-0.125468,0.000506639,0.0107009,0.0969561,5,0.1,9,4.8,-2.14279,-2.54266,0.602457,0.258952,0.147098,-0.00324845,-0.188828,-0.232697,0.00229478,0.0118014,0.140338,5,0.1,10,4.8,-3.98228,-2.4112,1.12077,-0.0576675,0.731111,0.19049,0.294209,1.06096,-0.231683,0.0172446,2.70591,5,0.1,11,4.8,1.48605,3.84709,1.35176,-0.413772,-0.866026,-0.00370741,-0.268459,0,-0.00745058,0.0273624,2.14622,5,0.1,12,4.8,4.06847,0,0.6,-0.312507,-0.112031,0.00216663,-0.017643,-0.955309,0.0119209,0.00951107,3.01587,5,0.1,13,4.8,-3.65876,-2.88564,0.658344,-0.019902,-0.229371,0.0129044,-0.0112057,0.272989,0.00184774,0.00952089,0.00310972,5,0.1,14,4.8,0.231524,-0.306993,1.002,0.0195436,0.866025,0.0993311,-0.00362098,1.43051e-05,-0.0183582,0.0252361,2.60416,5,0.1,15,4.8,3.29754,-2.43773,0.560909,-0.100499,0.30942,-0.00137538,0.0805855,-0.234127,0.0013411,0.0119418,0.0125677,5,0.1,16,4.8,-0.336433,0.48364,0.601401,-0.0459425,0.840873,0.0128701,-0.271514,0.477225,0.102252,0.0111151,2.16999,5,0.1,17,4.8,1.01582,4.92913,0.931811,-0.244501,0.0192046,0.38466,0.153661,-0.0121593,-0.241846,0.0155915,0.149448,5,0.1,18,4.8,-1.2616,-2.07213,0.658611,0.239608,-0.0294507,-0.0385389,0.3649,0.0189543,0.0782013,0.0178045,0.234937,5,0.1,19,4.8,-2.0028,1.96624,0.576852,-0.452179,-0.0453293,-0.00596046,0.433683,0.0475645,0.0064373,0.0100059,0.128284,5,0.1
0,4.9,-0.0696191,-2.20369,0.600364,-0.162598,0.158165,-0.000483915,0.553887,-0.0605136,5.96046e-05,0.0184421,0.132543,5,0.1,1,4.9,-0.298924,3.66408,0.592593,-0.00872388,0.244214,0.0100826,0.0486299,0.0180006,-0.00638142,0.0108075,0.218163,5,0.1,2,4.9,3.27772,1.50726,0.5,0.344434,-0.0152528,0,-0.0735223,0.0256598,0,0.0137939,0.0735477,5,0.1,3,4.9,-0.29246,4.00714,0.614939,-0.0289153,0.4203,0.0261038,0.0200961,0.165597,0.0127293,0.0102022,0.160034,5,0.1,4,4.9,1.933,-0.782412,0.748125,0.0259098,0.361855,0.00251662,-0.0317991,0.114053,-0.00330061,0.0178221,0.377479,5,0.1,5,4.9,-2.35683,5.60648,0.567958,-0.000108406,0.00146627,0.000140816,-4.47035e-05,0.00119209,0.000104308,0.0124422,1.06647e-06,5,0.1,6,4.9,0.633069,-3.0698,0.693906,0.00710804,0.112258,0.00156499,-0.0151694,-0.248507,-0.00332296,0.0123193,0.000809489,5,0.1,7,4.9,0.253489,2.16847,0.62694,0.0509026,-0.866026,-0.00580344,-0.0589415,0,-0.00850111,0.0167411,2.27049,5,0.1,8,4.9,-0.252439,1.20045,0.600429,-0.120579,0.319355,-0.000483822,-0.2291,-0.089623,0.000361353,0.0107009,0.0969561,5,0.1,9,4.9,-2.11781,-2.52921,0.602143,0.240607,0.121159,-0.00302615,-0.184163,-0.278667,0.00223145,0.0118014,0.140338,5,0.1,10,4.9,-3.98676,-2.33454,1.13871,-0.0334922,0.785953,0.168872,0.193909,0.0867695,-0.204712,0.0172446,2.70591,5,0.1,11,4.9,1.44328,3.76049,1.35136,-0.441629,-0.866026,-0.00415444,-0.260301,0,-0.00175834,0.0273624,2.14622,5,0.1,12,4.9,4.03709,-0.0171426,0.600293,-0.315032,-0.239711,0.00383146,-0.0173748,-1.49135,0.0198483,0.00951107,3.01587,5,0.1,13,4.9,-3.66079,-2.90721,0.659636,-0.0205729,-0.201914,0.0128602,-0.00189245,0.277147,-0.0028871,0.00952089,0.00310972,5,0.1,14,4.9,0.233468,-0.221446,1.01188,0.0193838,0.835199,0.0985218,-0.000733882,-0.582674,-0.00371784,0.0252361,2.60416,5,0.1,15,4.9,3.2879,-2.40797,0.560778,-0.0922855,0.28549,-0.00124201,0.0851005,-0.249207,0.0013411,0.0119418,0.0125677,5,0.1,16,4.9,-0.342321,0.569211,0.603269,-0.0710153,0.863376,0.0249914,-0.223873,0.0391379,0.132117,0.0111151,2.16999,5,0.1,17,4.9,0.992073,4.931,0.969316,-0.230871,0.0183322,0.367316,0.127584,-0.0064671,-0.128899,0.0155915,0.149448,5,0.1,18,4.9,-1.2356,-2.075,0.655049,0.281557,-0.0278704,-0.0335436,0.439778,0.0139773,0.0271276,0.0178045,0.234937,5,0.1,19,4.9,-2.0462,1.96191,0.576282,-0.418785,-0.0416987,-0.00546649,0.261724,0.0279546,0.00382215,0.0100059,0.128284,5,0.1
