id,t,px,py,pz,vx,vy,vz,ax,ay,az,planning_time,qp_cost,planning_report,size,id,t,px,py,pz,vx,vy,vz,ax,ay,az,planning_time,qp_cost,planning_report,size,id,t,px,py,pz,vx,vy,vz,ax,ay,az,planning_time,qp_cost,planning_report,size,id,t,px,py,pz,vx,vy,vz,ax,ay,az,planning_time,qp_cost,planning_report,size,id,t,px,py,pz,vx,vy,vz,ax,ay,az,planning_time,qp_cost,planning_report,size,id,t,px,py,pz,vx,vy,vz,ax,ay,az,planning_time,qp_cost,planning_report,size,id,t,px,py,pz,vx,vy,vz,ax,ay,az,planning_time,qp_cost,planning_report,size,id,t,px,py,pz,vx,vy,vz,ax,ay,az,planning_time,qp_cost,planning_report,size,id,t,px,py,pz,vx,vy,vz,ax,ay,az,planning_time,qp_cost,planning_report,size,id,t,px,py,pz,vx,vy,vz,ax,ay,az,planning_time,qp_cost,planning_report,size
0,0,-1.95684,4.02522,0.695634,0,0,0,0,0,0,0.0121075,2.79127,5,0.1,1,0,0.753781,-1.20286,0.655836,0,0,0,0,0,0,0.0218802,1.44798,5,0.1,2,0,-2.50163,2.86723,0.636911,0,0,0,0,0,0,0.00757952,3.51219,5,0.1,3,0,-1.50805,1.6416,0.654175,0,0,0,0,0,0,0.0125426,3.5122,5,0.1,4,0,-1.32999,-0.569182,0.509047,0,0,0,0,0,0,0.0111735,1.02864,5,0.1,5,0,1.17534,-4.02476,0.599636,0,0,0,0,0,0,0.0150457,3.5122,5,0.1,6,0,-4.27398,0.732678,0.675205,0,0,0,0,0,0,0.0349275,1.4488,5,0.1,7,0,-2.95946,4.0599,0.648246,0,0,0,0,0,0,0.015973,3.51219,5,0.1,8,0,-3.68483,4.2382,0.566895,0,0,0,0,0,0,0.0167229,3.51219,5,0.1,9,0,1.5449,-3.14889,0.644999,0,0,0,0,0,0,0.0273134,3.51219,5,0.1
0,0.1,-1.95667,4.02336,0.695691,0.00464786,-0.0526063,0.00161128,0.0826195,-0.935227,0.0286438,0.0121075,2.79127,5,0.1,1,0.1,0.754247,-1.2016,0.655778,0.0132235,0.0356454,-0.00165459,0.235081,0.633702,-0.0294149,0.0218802,1.44798,5,0.1,2,0.1,-2.50346,2.86823,0.636796,-0.0517886,0.0286359,-0.0032465,-0.920698,0.509098,-0.0577159,0.00757952,3.51219,5,0.1,3,0.1,-1.50695,1.63983,0.654125,0.0313023,-0.0503086,-0.0014036,0.556476,-0.894368,-0.0249557,0.0125426,3.5122,5,0.1,4,0.1,-1.33022,-0.570278,0.509189,-0.0066489,-0.0311165,0.00404362,-0.118211,-0.55318,0.0718907,0.0111735,1.02864,5,0.1,5,0.1,1.17549,-4.02268,0.599505,0.00433866,0.0589922,-0.00371728,0.0771359,1.04874,-0.0660866,0.0150457,3.5122,5,0.1,6,0.1,-4.27281,0.733323,0.675283,0.0333093,0.0182938,0.00221627,0.592142,0.325225,0.0394024,0.0349275,1.4488,5,0.1,7,0.1,-2.95827,4.05819,0.648197,0.0339303,-0.0485763,-0.00141179,0.603214,-0.863552,-0.0250973,0.015973,3.51219,5,0.1,8,0.1,-3.68331,4.23678,0.566913,0.0434119,-0.0403471,0.000516046,0.771746,-0.717252,0.00917539,0.0167229,3.51219,5,0.1,9,0.1,1.54479,-3.14681,0.644973,-0.00320468,0.059177,-0.000740122,-0.0569746,1.05205,-0.013154,0.0273134,3.51219,5,0.1
0,0.2,-1.95573,4.01268,0.696018,0.0146896,-0.166273,0.00509173,0.110149,-1.24669,0.0381768,0.0144942,2.29012,5,0.1,1,0.2,0.756933,-1.19436,0.655441,0.0417918,0.112659,-0.00522882,0.313461,0.844896,-0.0392497,0.0200205,1.188,5,0.1,2,0.2,-2.51398,2.87405,0.636137,-0.16368,0.0905037,-0.0102609,-1.22762,0.678778,-0.0769496,0.0113386,2.92579,5,0.1,3,0.2,-1.50059,1.62961,0.65384,0.0989288,-0.158998,-0.00443757,0.741959,-1.19257,-0.0332296,0.0131172,2.92579,5,0.1,4,0.2,-1.33157,-0.576599,0.510011,-0.0210136,-0.0983432,0.0127792,-0.157654,-0.737578,0.0958443,0.0105416,0.843945,5,0.1,5,0.2,1.17638,-4.0107,0.59875,0.013712,0.186443,-0.0117481,0.102878,1.39844,-0.0880957,0.0160979,0.930921,5,0.1,6,0.2,-4.26604,0.737039,0.675734,0.105262,0.057818,0.00700653,0.789881,0.433624,0.0525117,0.0335546,1.18865,5,0.1,7,0.2,-2.95137,4.04832,0.64791,0.107235,-0.153518,-0.00446141,0.804305,-1.15132,-0.0334978,0.0168244,2.9258,5,0.1,8,0.2,-3.67449,4.22858,0.567018,0.137204,-0.127518,0.00163019,1.02901,-0.956297,0.0122488,0.0176576,2.9258,5,0.1,9,0.2,1.54413,-3.13479,0.644822,-0.0101268,0.187027,-0.00233799,-0.0759959,1.40274,-0.0175536,0.0240715,2.92579,5,0.1
0,0.3,-1.95365,3.98913,0.69674,0.0273257,-0.309293,0.00947155,0.134796,-1.52573,0.0467226,0.0144942,2.29012,5,0.1,1,0.3,0.762852,-1.1784,0.654701,0.0777487,0.209579,-0.00973018,0.383563,1.03391,-0.0480078,0.0200205,1.188,5,0.1,2,0.3,-2.53717,2.88688,0.634683,-0.304867,0.16857,-0.0191109,-1.50871,0.834197,-0.0945702,0.0113386,2.92579,5,0.1,3,0.3,-1.48657,1.60708,0.653211,0.184261,-0.296152,-0.00826074,0.911862,-1.4656,-0.0408627,0.0131172,2.92579,5,0.1,4,0.3,-1.33455,-0.590527,0.511821,-0.0390965,-0.182951,0.0237736,-0.192896,-0.902552,0.117283,0.0105416,0.843945,5,0.1,5,0.3,1.17835,-3.98515,0.597217,0.026349,0.322677,-0.0181261,0.140756,1.28134,-0.041537,0.0160979,0.930921,5,0.1,6,0.3,-4.25113,0.745228,0.676726,0.195857,0.107559,0.0130312,0.96634,0.530619,0.0642724,0.0335546,1.18865,5,0.1,7,0.3,-2.93618,4.02657,0.647277,0.199736,-0.285934,-0.00831271,0.988469,-1.41501,-0.0411458,0.0168244,2.9258,5,0.1,8,0.3,-3.65504,4.21051,0.567249,0.25555,-0.237504,0.00303844,1.26463,-1.17528,0.015039,0.0176576,2.9258,5,0.1,9,0.3,1.5427,-3.10828,0.644491,-0.0188662,0.348354,-0.00435626,-0.0933781,1.72392,-0.0215657,0.0240715,2.92579,5,0.1
0,0.4,-1.95025,3.95071,0.697916,0.0402987,-0.456131,0.0139683,0.118971,-1.34611,0.0412464,0.0151717,1.81198,5,0.1,1,0.4,0.772511,-1.15237,0.653492,0.114661,0.30908,-0.0143513,0.338405,0.912189,-0.0423193,0.0201025,0.939957,5,0.1,2,0.4,-2.57507,2.90783,0.632307,-0.45023,0.248945,-0.0282228,-1.33383,0.737548,-0.0836253,0.0117291,2.51008,5,0.1,3,0.4,-1.46367,1.57026,0.652184,0.272116,-0.437358,-0.0121981,0.806272,-1.2958,-0.0361502,0.0127433,2.5237,5,0.1,4,0.4,-1.3394,-0.613255,0.514774,-0.0576615,-0.269812,0.0350624,-0.170112,-0.796258,0.103444,0.00828607,0.667738,5,0.1,5,0.4,1.18169,-3.94697,0.59526,0.0402689,0.43512,-0.0204474,0.130951,0.936389,-0.00676513,0.013421,0.688909,5,0.1,6,0.4,-4.2268,0.75859,0.678345,0.288856,0.158626,0.0192165,0.852346,0.468135,0.0567138,0.0335616,0.940456,5,0.1,7,0.4,-2.91134,3.99102,0.646244,0.294966,-0.422263,-0.0122771,0.874043,-1.25122,-0.0363886,0.0146737,2.34656,5,0.1,8,0.4,-3.62327,4.18099,0.567627,0.377393,-0.350738,0.00448823,1.1183,-1.03927,0.0132918,0.021602,2.51008,5,0.1,9,0.4,1.54035,-3.06497,0.643949,-0.0278622,0.514448,-0.00643283,-0.0825524,1.52433,-0.0191033,0.0359624,2.51533,5,0.1
0,0.5,-1.94562,3.89824,0.699523,0.0523685,-0.59271,0.0181527,0.116505,-1.31848,0.0403933,0.0151717,1.81198,5,0.1,1,0.5,0.7857,-1.11682,0.651841,0.148996,0.40163,-0.0186453,0.331435,0.893414,-0.041455,0.0201025,0.939957,5,0.1,2,0.5,-2.62696,2.93652,0.629055,-0.587488,0.324842,-0.0368279,-1.34073,0.741363,-0.0840537,0.0117291,2.51008,5,0.1,3,0.5,-1.43231,1.52027,0.650779,0.355084,-0.559183,-0.0159185,0.810407,-1.10063,-0.0363439,0.0127433,2.5237,5,0.1,4,0.5,-1.34604,-0.64429,0.518807,-0.0749215,-0.350601,0.0455585,-0.166625,-0.779875,0.101332,0.00828607,0.667738,5,0.1,5,0.5,1.18639,-3.89895,0.593221,0.0538161,0.522533,-0.0199627,0.133075,0.77714,0.0149608,0.013421,0.688909,5,0.1,6,0.5,-4.19358,0.776836,0.680555,0.375333,0.206123,0.0249709,0.834793,0.458501,0.0555478,0.0335616,0.940456,5,0.1,7,0.5,-2.87739,3.94241,0.644831,0.383908,-0.54959,-0.0159792,0.86078,-1.23228,-0.0358261,0.0146737,2.34656,5,0.1,8,0.5,-3.57978,4.14057,0.568144,0.492466,-0.45768,0.00585597,1.12399,-1.04457,0.0133589,0.021602,2.51008,5,0.1,9,0.5,1.53714,-3.00592,0.643208,-0.0363568,0.664639,-0.00839764,-0.0829771,1.41129,-0.0191815,0.0359624,2.51533,5,0.1
0,0.6,-1.93984,3.83287,0.701525,0.0625938,-0.708413,0.0216976,0.0837445,-0.948548,0.0290275,0.0146263,1.35089,5,0.1,1,0.6,0.802132,-1.07252,0.649785,0.178079,0.480032,-0.0222832,0.238448,0.642657,-0.0298023,0.0173154,0.699774,5,0.1,2,0.6,-2.69194,2.97246,0.624981,-0.706321,0.390553,-0.0442773,-0.986099,0.545144,-0.06181,0.00720537,1.97369,5,0.1,3,0.6,-1.39303,1.45944,0.649018,0.426912,-0.650752,-0.0191405,0.595987,-0.703573,-0.0267029,0.0162825,2.40983,5,0.1,4,0.6,-1.3543,-0.682956,0.523831,-0.0895441,-0.419039,0.0544503,-0.119865,-0.561029,0.0728965,0.00747454,0.497115,5,0.1,5,0.6,1.19239,-3.84331,0.591325,0.0656992,0.584781,-0.0177324,0.099659,0.44477,0.0283718,0.0152669,0.480938,5,0.1,6,0.6,-4.15218,0.799567,0.683309,0.448585,0.246359,0.029847,0.600576,0.329792,0.0399351,0.0375838,0.70014,5,0.1,7,0.6,-2.83501,3.88175,0.643067,0.459623,-0.657976,-0.0191316,0.622272,-0.891089,-0.0258684,0.0148956,1.74986,5,0.1,8,0.6,-3.52531,4.08994,0.568792,0.592089,-0.55027,0.0070408,0.826597,-0.768185,0.00980496,0.0201104,2.21914,5,0.1,9,0.6,1.53312,-2.93304,0.642279,-0.0437111,0.785458,-0.010097,-0.0610352,0.960827,-0.0140965,0.0259017,2.33346,5,0.1
0,0.7,-1.93317,3.75753,0.703837,0.0706339,-0.794901,0.0244847,0.0724718,-0.739247,0.0251234,0.0146263,1.35089,5,0.1,1,0.7,0.821111,-1.02136,0.64741,0.20097,0.54173,-0.0251448,0.206292,0.556037,-0.0257939,0.0173154,0.699774,5,0.1,2,0.7,-2.76721,3.01422,0.620245,-0.794939,0.44387,-0.0503224,-0.746951,0.489786,-0.0555329,0.00720537,1.97369,5,0.1,3,0.7,-1.34732,1.39219,0.646968,0.486703,-0.682619,-0.0218203,0.562184,-0.00908226,-0.0251979,0.0162825,2.40983,5,0.1,4,0.7,-1.36384,-0.727616,0.529634,-0.101052,-0.472899,0.0614488,-0.103712,-0.485394,0.0630766,0.00747454,0.497115,5,0.1,5,0.7,1.19946,-3.78275,0.589708,0.0753827,0.624106,-0.0144878,0.0886619,0.314161,0.0354424,0.0152669,0.480938,5,0.1,6,0.7,-4.10437,0.825824,0.68649,0.50624,0.278021,0.0336817,0.519574,0.285346,0.0345632,0.0375838,0.70014,5,0.1,7,0.7,-2.78599,3.81156,0.641026,0.519482,-0.743691,-0.02162,0.540733,-0.774264,-0.0224747,0.0148956,1.74986,5,0.1,8,0.7,-3.46191,4.03102,0.569545,0.675062,-0.627382,0.00802549,0.780568,-0.725433,0.0092648,0.0201104,2.21914,5,0.1,9,0.7,1.52844,-2.85075,0.641198,-0.0498358,0.850353,-0.0115113,-0.057593,0.36405,-0.0132993,0.0259017,2.33346,5,0.1
0,0.8,-1.92579,3.67497,0.706394,0.0763148,-0.849569,0.026454,0.0380874,-0.329137,0.0131726,0.0151137,0.976037,5,0.1,1,0.8,0.842099,-0.964787,0.644785,0.217144,0.585325,-0.0271663,0.108302,0.291944,-0.0135601,0.0319502,0.494079,5,0.1,2,0.8,-2.84979,3.06076,0.61497,-0.849682,0.483227,-0.0547841,-0.326872,0.27585,-0.0312626,0.0116225,1.44413,5,0.1,3,0.8,-1.29615,1.32455,0.644674,0.532976,-0.664705,-0.0238955,0.337183,0.321209,-0.0151098,0.0152626,2.12234,5,0.1,4,0.8,-1.3744,-0.777002,0.536052,-0.109184,-0.510955,0.0663936,-0.054419,-0.254929,0.0331402,0.008313,0.350991,5,0.1,5,0.8,1.20738,-3.71917,0.588441,0.0825286,0.643075,-0.0108346,0.0506639,0.0470877,0.0367463,0.0150034,0.322814,5,0.1,6,0.8,-4.05151,0.854858,0.690007,0.546968,0.300394,0.0363901,0.272989,0.149816,0.0181794,0.0373447,0.494333,5,0.1,7,0.8,-2.7317,3.73384,0.638767,0.56203,-0.804615,-0.0233889,0.287056,-0.411153,-0.0119507,0.0136712,1.23726,5,0.1,8,0.8,-3.39093,3.96505,0.570389,0.739336,-0.687122,0.00878721,0.468969,-0.43571,0.00560284,0.018154,2.04284,5,0.1,9,0.8,1.5232,-2.76463,0.639987,-0.05458,0.866026,-0.0126049,-0.0345111,0,-0.00798702,0.0255173,2.2695,5,0.1
0,0.9,-1.91798,3.58901,0.709103,0.0797661,-0.864572,0.0276481,0.0272766,-0.0241548,0.00944361,0.0151137,0.976037,5,0.1,1,0.9,0.86433,-0.904862,0.642003,0.226958,0.61178,-0.0283952,0.077568,0.209123,-0.00971928,0.0319502,0.494079,5,0.1,2,0.9,-2.93575,3.11041,0.60934,-0.864693,0.50881,-0.0576836,-0.0284165,0.210986,-0.0239126,0.0116225,1.44413,5,0.1,3,0.9,-1.24115,1.26021,0.642209,0.566154,-0.620226,-0.0253828,0.294223,0.443734,-0.013195,0.0152626,2.12234,5,0.1,4,0.9,-1.38557,-0.829313,0.542849,-0.114116,-0.534055,0.0693967,-0.0389889,-0.182595,0.0237413,0.008313,0.350991,5,0.1,5,0.9,1.21588,-3.6547,0.587543,0.0871995,0.644995,-0.00714259,0.038527,-0.0311583,0.0363328,0.0150034,0.322814,5,0.1,6,0.9,-3.99551,0.885612,0.693733,0.571702,0.31397,0.0380375,0.195488,0.107326,0.0130273,0.0373447,0.494333,5,0.1,7,0.9,-2.67413,3.65142,0.636371,0.588119,-0.841979,-0.0244749,0.207543,-0.297248,-0.00863895,0.0136712,1.23726,5,0.1,8,0.9,-3.31463,3.89411,0.571295,0.785584,-0.73111,0.00931239,0.411123,-0.400066,0.00442937,0.018154,2.04284,5,0.1,9,0.9,1.51756,-2.67802,0.638685,-0.0581415,0.866026,-0.0134286,-0.0330582,0,-0.00764057,0.0255173,2.2695,5,0.1
0,1,-1.90991,3.50269,0.7119,0.0811636,-0.859225,0.0281319,-0.00172853,0.135779,-0.000625849,0.0105086,0.692252,5,0.1,1,1,0.887294,-0.842963,0.63913,0.230931,0.622492,-0.0288934,-0.00500679,-0.0134408,0.000625849,0.0210808,0.335995,5,0.1,2,1,-3.02214,3.16208,0.603483,-0.861049,0.521284,-0.0590965,0.099659,0.0218153,-0.00247359,0.00669126,1.0332,5,0.1,3,1,-1.18335,1.2,0.639617,0.586414,-0.588492,-0.0262916,0.0889897,0.190139,-0.00399351,0.0135889,1.6866,5,0.1,4,1,-1.39712,-0.883349,0.549871,-0.11611,-0.54341,0.0706136,0.00244379,0.0117719,-0.00151992,0.00894851,0.238686,5,0.1,5,1,1.22475,-3.59064,0.587004,0.0895262,0.633144,-0.00370145,0.00524521,-0.220418,0.0319481,0.0129851,0.23913,5,0.1,6,1,-3.93766,0.91738,0.697582,0.581717,0.319467,0.0387058,-0.0126362,-0.00691414,-0.000834465,0.0340436,0.336153,5,0.1,7,1,-2.61459,3.56618,0.633893,0.599027,-0.857598,-0.0249282,-0.00751019,0.0104904,0.000298023,0.0157302,0.842254,5,0.1,8,1,-3.23441,3.81935,0.572243,0.814009,-0.759721,0.00959337,0.126839,-0.141978,0.00089407,0.018138,1.97589,5,0.1,9,1,1.51161,-2.59142,0.637311,-0.0605732,0.866026,-0.0139907,-0.0129938,0,-0.00301003,0.0249711,2.26926,5,0.1
0,1.1,-1.90181,3.41731,0.714709,0.0808099,-0.848895,0.0280072,-0.0083223,0.109941,-0.00289455,0.0105086,0.692252,5,0.1,1,1.1,0.910352,-0.780807,0.636245,0.229917,0.619763,-0.0287666,-0.0237301,-0.0638999,0.00296906,0.0210808,0.335995,5,0.1,2,1.1,-3.10794,3.21429,0.597564,-0.855813,0.522287,-0.0592101,0.0487268,-0.02186,0.00248104,0.00669126,1.0332,5,0.1,3,1.1,-1.12427,1.14126,0.636968,0.594472,-0.592813,-0.0266534,0.0463948,-0.205994,-0.00208989,0.0135889,1.6866,5,0.1,4,1.1,-1.40871,-0.937608,0.556922,-0.115606,-0.541024,0.0703046,0.0118688,0.055816,-0.00724196,0.00894851,0.238686,5,0.1,5,1.1,1.23372,-3.52893,0.586789,0.0898166,0.596255,-0.000649039,-0.00286847,-0.503466,0.0285469,0.0129851,0.23913,5,0.1,6,1.1,-3.87958,0.949278,0.701446,0.57916,0.318066,0.0385364,-0.0598133,-0.0328012,-0.00396743,0.0340436,0.336153,5,0.1,7,1.1,-2.55475,3.48051,0.631403,0.596929,-0.854613,-0.0248418,-0.0565052,0.0807792,0.00234321,0.0157302,0.842254,5,0.1,8,1.1,-3.15242,3.74262,0.573204,0.824674,-0.77436,0.0095916,0.0525117,-0.113159,-0.00116602,0.018138,1.97589,5,0.1,9,1.1,1.50548,-2.50482,0.635894,-0.0621445,0.866026,-0.0143541,-0.0148565,0,-0.00342727,0.0249711,2.26926,5,0.1
0,1.2,-1.8938,3.33318,0.717484,0.0790089,-0.830632,0.0273824,-0.0297427,0.282168,-0.0103116,0.0122795,0.481302,5,0.1,1,1.2,0.933138,-0.719385,0.633394,0.224786,0.605936,-0.0281245,-0.0844598,-0.2276,0.01055,0.0177536,0.22342,5,0.1,2,1.2,-3.19307,3.26621,0.591678,-0.843906,0.513577,-0.0582233,0.219822,-0.165582,0.0187755,0.00763352,0.720877,5,0.1,3,1.2,-1.06484,1.08078,0.634303,0.591397,-0.617364,-0.0265166,-0.125229,-0.232339,0.00560284,0.0164048,1.27433,5,0.1,4,1.2,-1.42017,-0.991226,0.563889,-0.113028,-0.528951,0.0687361,0.0423789,0.198692,-0.0258088,0.00654961,0.158714,5,0.1,5,1.2,1.24265,-3.47219,0.586858,0.0883847,0.535136,0.00191331,-0.0280142,-0.705838,0.0223517,0.0144668,0.563322,5,0.1,6,1.2,-3.82218,0.9808,0.705266,0.566226,0.310971,0.0376776,-0.212669,-0.116855,-0.0141561,0.035858,0.350432,5,0.1,7,1.2,-2.49557,3.39578,0.62894,0.584066,-0.836211,-0.0243068,-0.215292,0.308156,0.0089705,0.0114673,0.739162,5,0.1,8,1.2,-3.07004,3.66492,0.574153,0.818866,-0.776035,0.00932515,-0.19145,0.105381,-0.00435114,0.0189897,2.01129,5,0.1,9,1.2,1.49921,-2.41822,0.634446,-0.0629365,0.866026,-0.0145376,0.00149012,0,0.000357628,0.0233063,2.26923,5,0.1
0,1.3,-1.88604,3.25142,0.720172,0.0760697,-0.805007,0.0263637,-0.0314862,0.262067,-0.0109151,0.0122795,0.481302,5,0.1,1,1.3,0.955203,-0.659904,0.630633,0.216436,0.583437,-0.0270815,-0.0895038,-0.24122,0.011187,0.0177536,0.22342,5,0.1,2,1.3,-3.27649,3.31675,0.585948,-0.824903,0.497108,-0.056356,0.195399,-0.180379,0.0204518,0.00763352,0.720877,5,0.1,3,1.3,-1.0063,1.01751,0.631679,0.578906,-0.650094,-0.0259578,-0.145599,-0.367608,0.00651181,0.0164048,1.27433,5,0.1,4,1.3,-1.43127,-1.04315,0.570637,-0.108837,-0.509309,0.0661846,0.0449568,0.210587,-0.0273585,0.00654961,0.158714,5,0.1,5,1.3,1.25135,-3.42264,0.587156,0.0855817,0.452478,0.0039761,-0.0308678,-0.912353,0.0184886,0.0144668,0.563322,5,0.1,6,1.3,-3.76644,1.01133,0.708964,0.549645,0.29942,0.0362784,-0.146404,-0.123817,-0.014998,0.035858,0.350432,5,0.1,7,1.3,-2.43823,3.31351,0.626552,0.562178,-0.810064,-0.0234602,-0.239402,0.250548,0.00881404,0.0114673,0.739162,5,0.1,8,1.3,-2.98909,3.58775,0.575062,0.799591,-0.767352,0.00882605,-0.222161,0.101775,-0.00574067,0.0189897,2.01129,5,0.1,9,1.3,1.49291,-2.33161,0.63299,-0.0632033,0.866026,-0.0145978,-0.00329316,0,-0.000748783,0.0233063,2.26923,5,0.1
0,1.4,-1.87861,3.17241,0.722747,0.0723004,-0.772887,0.0250593,-0.0454187,0.402212,-0.0157952,0.0129489,0.328065,5,0.1,1,1.4,0.976345,-0.602914,0.627988,0.205724,0.554563,-0.0257418,-0.129402,-0.348687,0.0161529,0.0158277,0.14706,5,0.1,2,1.4,-3.35781,3.36543,0.58043,-0.798893,0.474757,-0.0538215,0.348687,-0.277638,0.0314713,0.00868588,0.492347,5,0.1,3,1.4,-0.949314,0.950811,0.629124,0.558779,-0.681496,-0.0250563,-0.270933,-0.221133,0.0121295,0.0152246,0.931658,5,0.1,4,1.4,-1.4419,-1.0929,0.577101,-0.103456,-0.484103,0.0629097,0.0650883,0.304401,-0.0395477,0.00683833,0.104468,5,0.1,5,1.4,1.25973,-3.38206,0.587636,0.0817388,0.358725,0.00554174,-0.0477433,-0.937104,0.0125766,0.0153571,1.05452,5,0.1,6,1.4,-3.71229,1.04057,0.712508,0.532264,0.2846,0.0344828,-0.220537,-0.178933,-0.0216663,0.0350136,0.245815,5,0.1,7,1.4,-2.38337,3.2339,0.624255,0.533396,-0.780046,-0.0224039,-0.347495,0.374436,0.012964,0.0122528,0.511545,5,0.1,8,1.4,-2.91048,3.51174,0.575912,0.769758,-0.750041,0.00815988,-0.393271,0.267029,-0.00759959,0.0197983,2.11941,5,0.1,9,1.4,1.48658,-2.24501,0.63153,-0.0629961,0.866026,-0.014548,0.00995398,0,0.00229478,0.023808,2.26931,5,0.1
0,1.5,-1.8716,3.09701,0.725177,0.0679672,-0.735544,0.0235537,-0.0432879,0.370741,-0.0150353,0.0129489,0.328065,5,0.1,1,1.5,0.996295,-0.549134,0.625491,0.193382,0.521303,-0.0242006,-0.123296,-0.332272,0.0154078,0.0158277,0.14706,5,0.1,2,1.5,-3.43608,3.41157,0.575199,-0.766815,0.448209,-0.0508121,0.321582,-0.267118,0.0302754,0.00868588,0.492347,5,0.1,3,1.5,-0.894738,0.881414,0.626676,0.532819,-0.706749,-0.023894,-0.265647,-0.241045,0.0118911,0.0152246,0.931658,5,0.1,4,1.5,-1.45193,-1.13985,0.583202,-0.0972474,-0.455067,0.0591372,0.0620112,0.290073,-0.0376888,0.00683833,0.104468,5,0.1,5,1.5,1.26768,-3.35095,0.588249,0.0771647,0.264193,0.00665858,-0.0460967,-0.902578,0.00943244,0.0153571,1.05452,5,0.1,6,1.5,-3.66004,1.06817,0.715852,0.513263,0.267532,0.0324159,-0.181615,-0.170499,-0.0206493,0.0350136,0.245815,5,0.1,7,1.5,-2.33185,3.15765,0.622063,0.495944,-0.745615,-0.0215653,-0.406861,0.341743,0.00535697,0.0122528,0.511545,5,0.1,8,1.5,-2.83534,3.43794,0.57669,0.733479,-0.726554,0.00739479,-0.358909,0.23292,-0.00778958,0.0197983,2.11941,5,0.1,9,1.5,1.48031,-2.15841,0.630082,-0.0625167,0.866026,-0.0144373,0.00311434,0,0.000726432,0.023808,2.26931,5,0.1
0,1.6,-1.86503,3.02543,0.727454,0.0633001,-0.694358,0.021933,-0.0514984,0.470638,-0.0178218,0.00951308,0.363891,5,0.1,1,1.6,1.01499,-0.498743,0.623152,0.180086,0.485476,-0.0225395,-0.146449,-0.394806,0.0183284,0.0167142,0.0966573,5,0.1,2,1.6,-3.511,3.45498,0.570278,-0.729752,0.419033,-0.0475034,0.439048,-0.325799,0.0368953,0.0123188,0.331856,5,0.1,3,1.6,-0.842891,0.809789,0.624351,0.502747,-0.722435,-0.0225469,-0.347435,-0.0428259,0.0155866,0.012702,0.658343,5,0.1,4,1.6,-1.46133,-1.18383,0.588919,-0.0905633,-0.423792,0.0550732,0.0737309,0.344694,-0.0447631,0.00744706,0.11739,5,0.1,5,1.6,1.27515,-3.32867,0.588955,0.0721246,0.18577,0.00737607,-0.0562072,-0.641108,0.00467896,0.0135721,0.981505,5,0.1,6,1.6,-3.60971,1.09403,0.718985,0.492185,0.249147,0.0301883,-0.255227,-0.202596,-0.0245273,0.0340233,0.169336,5,0.1,7,1.6,-2.28442,3.08492,0.619931,0.451231,-0.70706,-0.0210658,-0.489712,0.448227,0.00578165,0.0163307,0.359054,5,0.1,8,1.6,-2.76391,3.3666,0.57739,0.693506,-0.698364,0.00658929,-0.458837,0.351787,-0.00840425,0.0185685,2.28084,5,0.1,9,1.6,1.47409,-2.07181,0.628645,-0.0617772,0.866026,-0.0142664,0.0140667,0,0.00324845,0.02596,2.26945,5,0.1
0,1.7,-1.85894,2.95806,0.729563,0.0584727,-0.655094,0.0202624,-0.0467822,0.346154,-0.0161901,0.00951308,0.363891,5,0.1,1,1.7,1.0323,-0.452076,0.620985,0.166358,0.448465,-0.0208211,-0.133052,-0.358682,0.0166558,0.0167142,0.0966573,5,0.1,2,1.7,-3.58191,3.49533,0.565703,-0.688997,0.388435,-0.0440379,0.399694,-0.297755,0.0337325,0.0123188,0.331856,5,0.1,3,1.7,-0.794274,0.737267,0.622171,0.470025,-0.727753,-0.0210791,-0.321537,-0.0293516,0.0144206,0.012702,0.658343,5,0.1,4,1.7,-1.47008,-1.22478,0.59424,-0.084907,-0.397348,0.051639,0.0447109,0.209011,-0.0271425,0.00744706,0.11739,5,0.1,5,1.7,1.28209,-3.31286,0.589713,0.0668408,0.136163,0.00775484,-0.0514463,-0.301763,0.00263378,0.0135721,0.981505,5,0.1,6,1.7,-3.56167,1.11798,0.721887,0.469136,0.230155,0.0278885,-0.223801,-0.184059,-0.0222884,0.0340233,0.169336,5,0.1,7,1.7,-2.24178,3.01634,0.617834,0.401214,-0.665111,-0.0210328,-0.511587,0.412568,-0.0032112,0.0163307,0.359054,5,0.1,8,1.7,-2.69672,3.29842,0.578007,0.650961,-0.665448,0.005743,-0.413984,0.329688,-0.00851229,0.0185685,2.28084,5,0.1,9,1.7,1.46796,-1.9852,0.62723,-0.0609403,0.866026,-0.0140728,0.00610203,0,0.00141561,0.02596,2.26945,5,0.1
0,1.8,-1.85333,2.89429,0.731507,0.0536531,-0.619733,0.0185937,-0.0507832,0.383377,-0.0175536,0.00524864,0.436754,5,0.1,1,1.8,1.04826,-0.409051,0.618988,0.15265,0.41151,-0.0191063,-0.144482,-0.389472,0.0181198,0.0168618,0.111434,5,0.1,2,1.8,-3.64872,3.53265,0.561471,-0.645834,0.357533,-0.0405356,0.479817,-0.328183,0.0371635,0.0107499,0.222259,5,0.1,3,1.8,-0.748933,0.664596,0.620137,0.436004,-0.72256,-0.0195533,-0.368655,0.156552,0.0165105,0.00893467,0.452841,5,0.1,4,1.8,-1.47836,-1.26353,0.599275,-0.0807017,-0.377691,0.0490859,0.0432134,0.202239,-0.0262856,0.0068538,0.0677059,5,0.1,5,1.8,1.28851,-3.3,0.590496,0.0615001,0.128222,0.00786036,-0.056684,0.121951,-0.000685453,0.0169833,0.841687,5,0.1,6,1.8,-3.51594,1.14006,0.724563,0.444376,0.211191,0.0255927,-0.283837,-0.199854,-0.0242293,0.0355159,0.218564,5,0.1,7,1.8,-2.20426,2.95198,0.615713,0.348836,-0.62089,-0.0213757,-0.535607,0.486732,-0.00223517,0.0138156,0.260544,5,0.1,8,1.8,-2.63377,3.23364,0.578538,0.60702,-0.628537,0.00488758,-0.479937,0.424385,-0.00852346,0.0166796,2.48022,5,0.1,9,1.8,1.46191,-1.8986,0.625832,-0.0599742,0.866026,-0.0138491,0.0156164,0,0.00360608,0.0284809,2.2696,5,0.1
0,1.9,-1.84741,2.83494,0.733545,0.0715645,-0.560845,0.0243947,0.35692,0.762388,0.116438,0.00524864,0.436754,5,0.1,1,1.9,1.06291,-0.369675,0.617154,0.1413,0.377321,-0.0176825,-0.0912845,-0.309935,0.0114515,0.0168618,0.111434,5,0.1,2,1.9,-3.71104,3.56685,0.557594,-0.601391,0.327078,-0.0370864,0.428706,-0.290662,0.0329316,0.0107499,0.222259,5,0.1,3,1.9,-0.70708,0.593065,0.61826,0.401688,-0.707913,-0.0180162,-0.329845,0.164088,0.0147745,0.00893467,0.452841,5,0.1,4,1.9,-1.48624,-1.3004,0.604067,-0.0770219,-0.360468,0.0468472,0.0338554,0.158474,-0.0206009,0.0068538,0.0677059,5,0.1,5,1.9,1.2944,-3.28575,0.591278,0.0562375,0.163424,0.00775158,-0.0502393,0.521615,-0.00171363,0.0169833,0.841687,5,0.1,6,1.9,-3.47267,1.16024,0.727008,0.422794,0.192675,0.0233479,-0.172526,-0.176214,-0.0213608,0.0355159,0.218564,5,0.1,7,1.9,-2.172,2.89222,0.613549,0.29689,-0.575044,-0.0219967,-0.50436,0.44699,-0.0083223,0.0138156,0.260544,5,0.1,8,1.9,-2.57531,3.17287,0.578985,0.563256,-0.58702,0.00405423,-0.414908,0.420853,-0.00811368,0.0166796,2.48022,5,0.1,9,1.9,1.45597,-1.812,0.62446,-0.0590008,0.866026,-0.0136241,0.00719726,0,0.00166893,0.0284809,2.2696,5,0.1
0,2,-1.83815,2.78308,0.736671,0.1158,-0.473136,0.0388429,0.487387,0.964999,0.159264,0.00648298,0.280411,5,0.1,1,2,1.07662,-0.333466,0.615439,0.132877,0.34685,-0.0166267,-0.0836253,-0.310615,0.0104904,0.0179654,0.0949014,5,0.1,2,2,-3.76899,3.5981,0.55405,-0.556773,0.297749,-0.0337631,0.477076,-0.302672,0.0343025,0.00660242,0.148652,5,0.1,3,2,-0.668577,0.523291,0.616533,0.367978,-0.685102,-0.016506,-0.35277,0.310793,0.015825,0.0104513,0.382088,5,0.1,4,2,-1.49376,-1.33562,0.608644,-0.0733405,-0.343233,0.0446066,0.0422597,0.197589,-0.0256896,0.00817077,0.0517514,5,0.1,5,2,1.29977,-3.26655,0.592041,0.0511706,0.221884,0.00748336,-0.0522733,0.601292,-0.0038445,0.0127105,1.2096,5,0.1,6,2,-3.43124,1.17863,0.729236,0.405604,0.174978,0.0212029,-0.189066,-0.181675,-0.0220239,0.032816,0.158464,5,0.1,7,2,-2.14478,2.83699,0.61131,0.247812,-0.528669,-0.0227198,-0.477672,0.491977,-0.00482798,0.0131251,0.190165,5,0.1,8,2,-2.52108,3.11636,0.579351,0.52073,-0.541902,0.00326931,-0.449419,0.491381,-0.00756979,0.016558,2.69308,5,0.1,9,2,1.45011,-1.7254,0.623107,-0.0579655,0.866026,-0.0133857,0.0158548,-5.96046e-05,0.00369549,0.025892,2.26976,5,0.1
0,2.1,-1.82389,2.74056,0.741499,0.170959,-0.37776,0.0587869,0.580616,0.933826,0.223793,0.00648298,0.280411,5,0.1,1,2.1,1.08953,-0.300578,0.613823,0.125769,0.308747,-0.0157354,-0.0642836,-0.440639,0.00805408,0.0179654,0.0949014,5,0.1,2,2.1,-3.82242,3.62645,0.550835,-0.512795,0.26992,-0.0306085,0.418916,-0.262171,0.0297204,0.00660242,0.148652,5,0.1,3,2.1,-0.633287,0.456257,0.614957,0.339887,-0.655759,-0.0150465,-0.229191,0.298845,0.0138246,0.0104513,0.382088,5,0.1,4,2.1,-1.50091,-1.36909,0.612994,-0.0698803,-0.327053,0.0425029,0.0305548,0.142932,-0.0185855,0.00817077,0.0517514,5,0.1,5,2.1,1.30464,-3.24075,0.592771,0.0463629,0.298619,0.00709677,-0.0452921,0.867739,-0.00407174,0.0127105,1.2096,5,0.1,6,2.1,-3.39151,1.19527,0.731253,0.389671,0.158298,0.0191808,-0.147238,-0.156775,-0.0190064,0.032816,0.158464,5,0.1,7,2.1,-2.12205,2.78639,0.609039,0.209907,-0.484794,-0.0224613,-0.297427,0.403851,0.00946224,0.0131251,0.190165,5,0.1,8,2.1,-2.47102,3.06463,0.579643,0.482293,-0.492715,0.00259271,-0.341296,0.499293,-0.00603124,0.016558,2.69308,5,0.1,9,2.1,1.44437,-1.63879,0.621782,-0.0569629,0.866025,-0.0131511,0.00742823,1.49012e-05,0.00173971,0.025892,2.26976,5,0.1
0,2.2,-1.80398,2.70734,0.748496,0.225839,-0.287914,0.0808433,0.491321,0.856638,0.205547,0.00515775,0.222684,5,0.1,1,2.2,1.10178,-0.272046,0.612291,0.119036,0.260732,-0.0148907,-0.0743866,-0.510335,0.00926852,0.0169027,0.253656,5,0.1,2,2.2,-3.87159,3.65215,0.547922,-0.470215,0.24392,-0.027661,0.444174,-0.263691,0.0299215,0.0108739,0.0996116,5,0.1,3,2.2,-0.600375,0.392307,0.613522,0.318643,-0.621521,-0.0136629,-0.210434,0.401273,0.0141561,0.00922778,0.263664,5,0.1,4,2.2,-1.50775,-1.40105,0.617148,-0.0666171,-0.311777,0.0405163,0.0373125,0.174463,-0.0226796,0.0065598,0.0231727,5,0.1,5,2.2,1.30905,-3.20655,0.593458,0.0418752,0.383997,0.00663847,-0.0455379,0.791073,-0.00524521,0.0144556,0.955396,5,0.1,6,2.2,-3.35333,1.21032,0.733077,0.373161,0.142801,0.0173032,-0.195265,-0.156522,-0.0189841,0.0360829,0.440715,5,0.1,7,2.2,-2.10236,2.73991,0.60686,0.185317,-0.444776,-0.0209332,-0.207782,0.409484,0.0205934,0.0110509,0.134985,5,0.1,8,2.2,-2.42446,3.01791,0.579874,0.448704,-0.440943,0.00204891,-0.346422,0.540376,-0.00488758,0.0157312,2.85523,5,0.1,9,2.2,1.43872,-1.55219,0.620478,-0.055927,0.866026,-0.0129104,0.0155568,-5.96046e-05,0.00363588,0.0249385,2.26991,5,0.1
0,2.3,-1.77891,2.6826,0.75769,0.274956,-0.209231,0.103464,0.465438,0.717059,0.232104,0.00515775,0.222684,5,0.1,1,2.3,1.11333,-0.248589,0.610846,0.112061,0.208008,-0.0140212,-0.0688136,-0.534714,0.00858307,0.0169027,0.253656,5,0.1,2,2.3,-3.91652,3.6753,0.545296,-0.429487,0.219855,-0.0249304,0.384137,-0.224546,0.025481,0.0108739,0.0996116,5,0.1,3,2.3,-0.569409,0.332061,0.612222,0.301821,-0.583914,-0.0123669,-0.142064,0.369795,0.0121482,0.00922778,0.263664,5,0.1,4,2.3,-1.51422,-1.43138,0.621089,-0.0629596,-0.29467,0.0382925,0.0377148,0.176497,-0.0229441,0.0065598,0.0231727,5,0.1,5,2.3,1.31303,-3.16402,0.594097,0.0377199,0.466916,0.0061363,-0.0387654,0.817135,-0.00496209,0.0144556,0.955396,5,0.1,6,2.3,-3.31736,1.22387,0.734718,0.342769,0.128534,0.0155731,-0.397891,-0.132874,-0.0161119,0.0360829,0.440715,5,0.1,7,2.3,-2.08467,2.69733,0.604879,0.170025,-0.408093,-0.018623,-0.111371,0.33924,0.0252686,0.0110509,0.134985,5,0.1,8,2.3,-2.38095,2.97642,0.580058,0.424457,-0.389647,0.0016775,-0.169411,0.492856,-0.00272691,0.0157312,2.85523,5,0.1,9,2.3,1.43318,-1.46559,0.6192,-0.0549342,0.866025,-0.0126777,0.00742078,1.49012e-05,0.00173599,0.0249385,2.26991,5,0.1
0,2.4,-1.74931,2.66503,0.769141,0.314596,-0.144422,0.124724,0.309527,0.579476,0.182539,0.00660522,0.187182,5,0.1,1,2.4,1.12418,-0.230437,0.609488,0.104651,0.155464,-0.0130951,-0.0817776,-0.50886,0.0101924,0.0165854,0.251386,5,0.1,2,2.4,-3.95756,3.69618,0.542928,-0.391054,0.197834,-0.0224307,0.394106,-0.220895,0.025034,0.00934547,0.115779,5,0.1,3,2.4,-0.539932,0.275593,0.611045,0.28747,-0.544387,-0.0111669,-0.156462,0.433557,0.0121295,0.0113004,0.180528,5,0.1,4,2.4,-1.52032,-1.4599,0.624796,-0.0587612,-0.275025,0.0357389,0.0473857,0.222027,-0.0288486,0.00643161,0.0138356,5,0.1,5,2.4,1.31661,-3.11354,0.594685,0.033921,0.53885,0.00561923,-0.0380278,0.586033,-0.00548363,0.0125088,0.102348,5,0.1,6,2.4,-3.28531,1.23607,0.736196,0.296319,0.115532,0.0139967,-0.51856,-0.130057,-0.0157654,0.0365498,0.432708,5,0.1,7,2.4,-2.06816,2.6582,0.603148,0.160706,-0.374359,-0.0159428,-0.0847578,0.346184,0.0280142,0.010969,0.168004,5,0.1,8,2.4,-2.33927,2.93989,0.580215,0.409454,-0.341153,0.00146925,-0.153422,0.482082,-0.00157952,0.0153635,2.72528,5,0.1,9,2.4,1.42773,-1.37899,0.617942,-0.0539154,0.866026,-0.0124395,0.0152588,0,0.00351667,0.024778,1.81838,5,0.1
0,2.5,-1.71631,2.65331,0.782576,0.344648,-0.0916727,0.144125,0.270031,0.474453,0.191648,0.00660522,0.187182,5,0.1,1,2.5,1.13424,-0.217342,0.608229,0.0967078,0.107488,-0.0121045,-0.0794083,-0.445512,0.009913,0.0165854,0.251386,5,0.1,2,2.5,-3.99501,3.71503,0.540791,-0.360525,0.180461,-0.0204615,0.240207,-0.138372,0.0156909,0.00934547,0.115779,5,0.1,3,2.5,-0.511869,0.223206,0.609985,0.27443,-0.504088,-0.0100638,-0.117233,0.388238,0.0102632,0.0113004,0.180528,5,0.1,4,2.5,-1.52596,-1.48632,0.628228,-0.0541409,-0.253378,0.0329262,0.0464991,0.217773,-0.0282973,0.00643161,0.0138356,5,0.1,5,2.5,1.31984,-3.05743,0.595223,0.0309277,0.576385,0.00517443,-0.0238568,0.169769,-0.00370294,0.0125088,0.102348,5,0.1,6,2.5,-3.2584,1.24702,0.737522,0.24093,0.103747,0.0125683,-0.576839,-0.109032,-0.0132136,0.0365498,0.432708,5,0.1,7,2.5,-2.05225,2.62216,0.601696,0.15963,-0.349046,-0.0130974,0.0425875,0.185609,0.0285655,0.010969,0.168004,5,0.1,8,2.5,-2.29864,2.90805,0.580358,0.40663,-0.296761,0.00143973,0.0568032,0.41312,0.000696629,0.0153635,2.72528,5,0.1,9,2.5,1.42241,-1.29238,0.616713,-0.0527119,0.866026,-0.0121622,0.0113025,0,0.00260398,0.024778,1.81838,5,0.1
0,2.6,-1.6807,2.64634,0.797869,0.365001,-0.0496566,0.160694,0.122428,0.365853,0.130028,0.0145131,2.32514,5,0.1,1,2.6,1.14351,-0.208682,0.607069,0.0883818,0.0671811,-0.0110641,-0.0885725,-0.357576,0.0110865,0.0146348,0.249055,5,0.1,2,2.6,-4.02996,3.73244,0.538817,-0.338876,0.168103,-0.0190601,0.210047,-0.117779,0.0133514,0.00895782,0.0674975,5,0.1,3,2.6,-0.485034,0.174769,0.609029,0.261825,-0.464075,-0.00905991,-0.14393,0.422858,0.0100732,0.0127317,0.122863,5,0.1,4,2.6,-1.53114,-1.51053,0.631375,-0.0492275,-0.230366,0.0299349,0.0526905,0.246644,-0.0320077,0.00753687,0.00435053,5,0.1,5,2.6,1.32282,-2.99959,0.595723,0.028795,0.574082,0.00482798,-0.0202656,-0.208259,-0.00345707,0.0133439,0.0796801,5,0.1,6,2.6,-3.2372,1.25686,0.738715,0.183159,0.0931442,0.0112832,-0.568867,-0.105441,-0.0127554,0.0356652,0.430704,5,0.1,7,2.6,-2.036,2.58809,0.600527,0.165606,-0.332797,-0.0102907,0.0613928,0.158548,0.0273585,0.0103397,0.102702,5,0.1,8,2.6,-2.25762,2.88037,0.580507,0.413817,-0.257272,0.00155568,0.0572205,0.382185,0.00137091,0.0167242,2.39737,5,0.1,9,2.6,1.4172,-1.20578,0.615512,-0.0512302,0.866026,-0.0118211,0.0200868,0,0.00461936,0.0231897,1.41183,5,0.1
0,2.7,-1.64419,2.64134,0.814207,0.359897,-0.066106,0.162606,-0.205323,-0.586689,-0.0781193,0.0145131,2.32514,5,0.1,1,2.7,1.15191,-0.203589,0.606017,0.0797806,0.0363523,-0.00998741,-0.0849143,-0.257893,0.0106283,0.0146348,0.249055,5,0.1,2,2.7,-4.06293,3.74874,0.53697,-0.32147,0.158336,-0.0179524,0.15372,-0.0853986,0.00968575,0.00895782,0.0674975,5,0.1,3,2.7,-0.459502,0.130355,0.60817,0.24924,-0.425067,-0.00814851,-0.118205,0.370559,0.00842661,0.0127317,0.122863,5,0.1,4,2.7,-1.5358,-1.53233,0.634208,-0.0439439,-0.205633,0.0267239,0.0534654,0.25025,-0.0324994,0.00753687,0.00435053,5,0.1,5,2.7,1.32561,-2.9433,0.59619,0.0271138,0.550711,0.00452669,-0.0146925,-0.271186,-0.00276044,0.0133439,0.0796801,5,0.1,6,2.7,-3.22164,1.26568,0.739784,0.129046,0.0836359,0.0101327,-0.507385,-0.0875667,-0.010591,0.0356652,0.430704,5,0.1,7,2.7,-2.01905,2.55551,0.599632,0.173776,-0.319263,-0.00766376,0.0884235,0.126377,0.0249781,0.0103397,0.102702,5,0.1,8,2.7,-2.21545,2.85623,0.580676,0.43326,-0.228366,0.00188174,0.281841,0.215188,0.00461563,0.0167242,2.39737,5,0.1,9,2.7,1.41217,-1.11918,0.614351,-0.0494504,0.865835,-0.0114119,0.0175312,-0.00762194,0.00403076,0.0231897,1.41183,5,0.1
0,2.8,-1.60963,2.63096,0.829828,0.327539,-0.1477,0.147603,-0.424981,-0.960588,-0.210375,0.0147688,2.70476,5,0.1,1,2.8,1.15946,-0.201074,0.605072,0.071162,0.0155888,-0.00890791,-0.0885129,-0.15863,0.0110865,0.0146431,0.246499,5,0.1,2,2.8,-4.09429,3.76414,0.535223,-0.30545,0.149679,-0.0169694,0.17786,-0.0933409,0.01055,0.00748534,0.0529464,5,0.1,3,2.8,-0.435196,0.0897028,0.607396,0.236414,-0.38772,-0.00732839,-0.145614,0.385569,0.00816584,0.0119492,0.15123,5,0.1,4,2.8,-1.53992,-1.55162,0.636715,-0.0384659,-0.179988,0.0233933,0.0563264,0.263631,-0.0342429,0.00704813,0.00133353,5,0.1,5,2.8,1.32825,-2.88977,0.596629,0.025624,0.517917,0.00424385,-0.0160336,-0.39196,-0.00306964,0.0135437,0.125393,5,0.1,6,2.8,-3.21113,1.27362,0.740745,0.0826716,0.0751436,0.00910461,-0.416517,-0.0842214,-0.0101924,0.0383463,0.426251,5,0.1,7,2.8,-2.00128,2.52426,0.598985,0.180954,-0.305098,-0.00533164,0.0456572,0.166774,0.0215471,0.00988133,0.111036,5,0.1,8,2.8,-2.17068,2.83432,0.58089,0.461525,-0.210845,0.00238568,0.246763,0.149846,0.0050962,0.0163439,2.04569,5,0.1,9,2.8,1.40732,-1.0327,0.613232,-0.0473827,0.862977,-0.010936,0.0252128,-0.0609756,0.00581145,0.0210163,1.06481,5,0.1
0,2.9,-1.57922,2.61034,0.843545,0.278945,-0.272552,0.126842,-0.533491,-1.43526,-0.204917,0.0147688,2.70476,5,0.1,1,2.9,1.16615,-0.200157,0.604235,0.0626577,0.00412604,-0.00784267,-0.0825003,-0.0762362,0.010334,0.0146431,0.246499,5,0.1,2,2.9,-4.12409,3.77872,0.53357,-0.291391,0.142325,-0.0161379,0.119537,-0.0618398,0.00699982,0.00748534,0.0529464,5,0.1,3,2.9,-0.412164,0.0527416,0.606702,0.225076,-0.352389,-0.00659255,-0.0935867,0.332174,0.0067763,0.0119492,0.15123,5,0.1,4,2.9,-1.54349,-1.56831,0.638885,-0.0328936,-0.153909,0.0200052,0.0551194,0.257932,-0.0335127,0.00704813,0.00133353,5,0.1,5,2.9,1.33074,-2.83969,0.597039,0.0241533,0.485618,0.00395626,-0.0142604,-0.278801,-0.00280887,0.0135437,0.125393,5,0.1,6,2.9,-3.20481,1.28074,0.741609,0.0452224,0.067576,0.00818875,-0.326619,-0.069499,-0.00841171,0.0383463,0.426251,5,0.1,7,2.9,-1.98288,2.49486,0.598555,0.187391,-0.280339,-0.00330238,0.0691488,0.319108,0.0188313,0.00988133,0.111036,5,0.1,8,2.9,-2.12286,2.81357,0.581159,0.497728,-0.207567,0.00305027,0.424251,-0.0542104,0.00759214,0.0163439,2.04569,5,0.1,9,2.9,1.40273,-0.946449,0.612166,-0.0442097,0.863306,-0.0103962,0.0379905,0.0188015,0.00534952,0.0210163,1.06481,5,0.1
0,3,-1.55408,2.57581,0.855214,0.223276,-0.417048,0.106627,-0.568926,-1.37877,-0.199258,0.0155699,2.65723,5,0.1,1,3,1.172,-0.200028,0.603502,0.0545055,-0.000676885,-0.00682175,-0.0810623,-0.0243858,0.0101626,0.0150549,0.245519,5,0.1,2,3,-4.15262,3.79264,0.531992,-0.278771,0.135934,-0.0154138,0.144005,-0.071764,0.00813603,0.00779755,0.0242338,5,0.1,3,3,-0.390122,0.0191494,0.606075,0.215555,-0.319396,-0.00593364,-0.105813,0.335456,0.00652671,0.013382,0.244307,5,0.1,4,3,-1.5465,-1.58243,0.640719,-0.0274509,-0.128439,0.0166953,0.0536442,0.251174,-0.0326335,0.00621645,0.00075924,5,0.1,5,3,1.33308,-2.7925,0.59742,0.0226259,0.457901,0.00366122,-0.0168681,-0.293493,-0.00315905,0.0130935,0.369962,5,0.1,6,3,-3.20174,1.28716,0.742386,0.0181735,0.0608414,0.00737309,-0.211954,-0.066936,-0.00810623,0.0347322,0.62315,5,0.1,7,3,-1.96385,2.46861,0.598313,0.192416,-0.243074,-0.0015974,0.0215173,0.417829,0.0151396,0.0139951,0.196354,5,0.1,8,3,-2.07103,2.79241,0.581502,0.537205,-0.216395,0.00379682,0.326514,-0.099659,0.00688434,0.0164986,1.68196,5,0.1,9,3,1.39852,-0.860219,0.611155,-0.0398487,0.85844,-0.00980496,0.0489354,-0.150353,0.00673532,0.0242395,0.800987,5,0.1
0,3.1,-1.53463,2.52675,0.864892,0.165469,-0.566624,0.0870635,-0.576295,-1.5247,-0.190895,0.0155699,2.65723,5,0.1,1,3.1,1.17712,-0.20019,0.602869,0.0484522,-0.00231278,-0.00585755,-0.044331,-0.00893231,0.00919774,0.0150549,0.245519,5,0.1,2,3.1,-4.1798,3.80589,0.53049,-0.264801,0.129049,-0.0146325,0.143945,-0.070259,0.00797585,0.00779755,0.0242338,5,0.1,3,3.1,-0.369298,-0.0113741,0.605509,0.199084,-0.293192,-0.00543203,-0.216523,0.207771,0.0038892,0.013382,0.244307,5,0.1,4,3.1,-1.54898,-1.59404,0.642229,-0.0222633,-0.104152,0.0135393,0.0499263,0.233762,-0.0303797,0.00621645,0.00075924,5,0.1,5,3.1,1.33525,-2.74776,0.59777,0.0208341,0.440214,0.00333274,-0.019148,-0.0960529,-0.00343844,0.0130935,0.369962,5,0.1,6,3.1,-3.20091,1.29294,0.743086,-0.000376254,0.0548422,0.00664638,-0.13718,-0.0550002,-0.00666454,0.0347322,0.62315,5,0.1,7,3.1,-1.94458,2.44652,0.598223,0.192277,-0.197634,-0.000261329,-0.0280812,0.479192,0.0115559,0.0139951,0.196354,5,0.1,8,3.1,-2.01539,2.76984,0.58192,0.577439,-0.238322,0.00458453,0.428095,-0.299945,0.00827014,0.0164986,1.68196,5,0.1,9,3.1,1.39502,-0.775304,0.610208,-0.0281632,0.837604,-0.0091278,0.169784,-0.284873,0.00699982,0.0242395,0.800987,5,0.1
0,3.2,-1.52091,2.46282,0.872665,0.109938,-0.706834,0.0686496,-0.52613,-1.21593,-0.176519,0.0137998,2.38556,5,0.1,1,3.2,1.18178,-0.200445,0.602328,0.0448823,-0.00258535,-0.00496954,-0.0303984,0.00286847,0.00861287,0.0140026,0.241644,5,0.1,2,3.2,-4.2055,3.81842,0.529069,-0.248563,0.121164,-0.0137374,0.186682,-0.0902414,0.0102222,0.0110918,0.0147913,5,0.1,3,3.2,-0.350606,-0.0397364,0.604984,0.173589,-0.274509,-0.00509024,-0.287056,0.180079,0.00321865,0.014226,0.217011,5,0.1,4,3.2,-1.55097,-1.60332,0.643435,-0.017494,-0.0818312,0.0106379,0.0452995,0.211954,-0.0275671,0.00624825,0.000677912,5,0.1,5,3.2,1.33724,-2.70413,0.598085,0.0187725,0.432467,0.00297129,-0.0222325,-0.0853539,-0.0038147,0.0154163,1.16951,5,0.1,6,3.2,-3.20138,1.29815,0.743718,-0.00633597,0.0495046,0.00599921,0.0252724,-0.0531673,-0.0064373,0.035218,0.819239,5,0.1,7,3.2,-1.9256,2.42918,0.598249,0.18622,-0.149322,0.000712276,-0.095129,0.477672,0.00789762,0.0114701,0.188979,5,0.1,8,3.2,-1.95567,2.74444,0.582418,0.614241,-0.269586,0.00534654,0.272036,-0.296116,0.00652671,0.0147065,1.3205,5,0.1,9,3.2,1.39315,-0.693312,0.609332,-0.00856221,0.798522,-0.00837445,0.210464,-0.507653,0.00819564,0.0223946,0.616001,5,0.1
0,3.3,-1.51247,2.38681,0.87869,0.0597497,-0.805221,0.052256,-0.470705,-0.737488,-0.151359,0.0137998,2.38556,5,0.1,1,3.3,1.18609,-0.200756,0.601872,0.0412384,-0.00404837,-0.00416283,-0.0421032,-0.0229701,0.00757724,0.0140026,0.241644,5,0.1,2,3.3,-4.22945,3.83009,0.527745,-0.230394,0.112418,-0.0127458,0.183403,-0.0880808,0.0099875,0.0110918,0.0147913,5,0.1,3,3.3,-0.334771,-0.0663993,0.604488,0.142408,-0.259546,-0.00483049,-0.329087,0.131839,0.00223145,0.014226,0.217011,5,0.1,4,3.3,-1.5525,-1.61049,0.644367,-0.0132207,-0.0618381,0.0080375,0.0399947,0.187136,-0.024341,0.00624825,0.000677912,5,0.1,5,3.3,1.339,-2.66047,0.598364,0.016601,0.447376,0.002601,-0.0213832,0.31592,-0.00361353,0.0154163,1.16951,5,0.1,6,3.3,-3.20173,1.30286,0.744288,0.00241175,0.0447465,0.005423,0.199348,-0.0436231,-0.00528619,0.035218,0.819239,5,0.1,7,3.3,-1.90749,2.41657,0.598355,0.175459,-0.103659,0.00137165,-0.12216,0.428945,0.00528991,0.0114701,0.188979,5,0.1,8,3.3,-1.89289,2.71547,0.582991,0.640587,-0.313729,0.0061512,0.222109,-0.533536,0.00879169,0.0147065,1.3205,5,0.1,9,3.3,1.39355,-0.615951,0.608534,0.0182712,0.748667,-0.00757519,0.306927,-0.508823,0.00792742,0.0223946,0.616001,5,0.1
0,3.4,-1.50871,2.30345,0.8832,0.0169575,-0.853825,0.0383675,-0.380397,-0.244021,-0.126511,0.0132645,2.28211,5,0.1,1,3.4,1.18999,-0.201259,0.601492,0.0365466,-0.00571534,-0.00344515,-0.0513196,-0.00489503,0.00682473,0.0167188,0.228128,5,0.1,2,3.4,-4.25153,3.84088,0.526523,-0.210798,0.102997,-0.011678,0.212669,-0.102162,0.0116229,0.00816727,0.00474743,5,0.1,3,3.4,-0.322194,-0.0916896,0.604017,0.109114,-0.245973,-0.00460148,-0.33088,0.148643,0.0025332,0.0131997,0.20093,5,0.1,4,3.4,-1.55363,-1.61578,0.645055,-0.00952184,-0.0445276,0.00578612,0.033915,0.158608,-0.0206232,0.00640826,0.000521987,5,0.1,5,3.4,1.34056,-2.61395,0.598606,0.014466,0.483805,0.00224411,-0.0215173,0.361919,-0.00354648,0.0123056,0.676698,5,0.1,6,3.4,-3.2,1.30712,0.744805,0.0368774,0.0405043,0.00490844,0.473738,-0.0424385,-0.005126,0.0368912,0.965416,5,0.1,7,3.4,-1.89061,2.40822,0.598515,0.161484,-0.0646055,0.00177324,-0.15831,0.34833,0.00277162,0.0100582,0.275566,5,0.1,8,3.4,-1.82802,2.6814,0.583649,0.653166,-0.367022,0.00697225,0.00727177,-0.492692,0.00700355,0.00581485,0.970315,5,0.1,9,3.4,1.39694,-0.543758,0.607817,0.0494361,0.693554,-0.00676811,0.301898,-0.60609,0.00834465,0.024885,0.466369,5,0.1
0,3.5,-1.50882,2.21732,0.886449,-0.0181673,-0.865263,0.0270509,-0.31703,-0.0305027,-0.100333,0.0132645,2.28211,5,0.1,1,3.5,1.19338,-0.201899,0.60118,0.03116,-0.00697526,-0.0028139,-0.0557229,-0.000218861,0.00584126,0.0167188,0.228128,5,0.1,2,3.5,-4.27154,3.85066,0.525413,-0.189364,0.0926964,-0.0105067,0.218272,-0.104994,0.0119396,0.00816727,0.00474743,5,0.1,3,3.5,-0.312899,-0.115588,0.603568,0.0772552,-0.23223,-0.00436967,-0.301816,0.134394,0.00226125,0.0131997,0.20093,5,0.1,4,3.5,-1.55442,-1.61948,0.645536,-0.00640899,-0.0299707,0.00389339,0.0282526,0.132114,-0.0171773,0.00640826,0.000521987,5,0.1,5,3.5,1.3419,-2.56357,0.598813,0.0124367,0.524522,0.00191079,-0.0192598,0.410289,-0.00314787,0.0123056,0.676698,5,0.1,6,3.5,-3.19319,1.31097,0.745272,0.105099,0.0367079,0.00444986,0.827536,-0.034824,-0.00420958,0.0368912,0.965416,5,0.1,7,3.5,-1.87524,2.40335,0.598703,0.145913,-0.034574,0.00197738,-0.155568,0.250801,0.00130385,0.0100582,0.275566,5,0.1,8,3.5,-1.76369,2.64422,0.584313,0.624229,-0.359287,0.00573667,-0.547715,0.551477,-0.0279136,0.00581485,0.970315,5,0.1,9,3.5,1.40322,-0.477031,0.607178,0.0742007,0.644109,-0.00603143,0.193626,-0.417368,0.00662357,0.024885,0.466369,5,0.1
0,3.6,-1.51208,2.13073,0.888692,-0.0456274,-0.866026,0.0182003,-0.228941,0,-0.0772178,0.0110177,2.26979,5,0.1,1,3.6,1.19621,-0.20247,0.600927,0.0255257,-0.00296086,-0.00227094,-0.056386,0.0884235,0.0050962,0.00604854,0.456044,5,0.1,2,3.6,-4.28936,3.8594,0.524424,-0.16681,0.0818193,-0.0092715,0.234127,-0.112891,0.0128448,0.00913111,0.00141221,5,0.1,3,3.6,-0.306605,-0.138108,0.603143,0.0494905,-0.21772,-0.00412166,-0.250563,0.161357,0.00283122,0.00840301,0.189511,5,0.1,4,3.6,-1.55493,-1.62187,0.645845,-0.00388622,-0.0181645,0.00235885,0.0222921,0.103951,-0.0135303,0.0070787,0.000305956,5,0.1,5,3.6,1.34305,-2.50927,0.598989,0.0105828,0.558662,0.00160933,-0.0180006,0.242829,-0.00286102,0.0156323,0.951277,5,0.1,6,3.6,-3.17839,1.31447,0.745696,0.191277,0.0333101,0.00403821,0.848293,-0.0340343,-0.00411272,0.0354317,0.783521,5,0.1,7,3.6,-1.86144,2.40098,0.598905,0.129974,-0.0144839,0.00203401,-0.164688,0.152111,-0.000119209,0.0121686,0.271933,5,0.1,8,3.6,-1.70466,2.61212,0.584716,0.550714,-0.274032,0.00207275,-0.889957,1.07646,-0.0424087,0.0140173,1.08413,5,0.1,9,3.6,1.41143,-0.414628,0.606607,0.0882953,0.604109,-0.00540167,0.0892878,-0.40777,0.00607967,0.0238874,0.346906,5,0.1
0,3.7,-1.51772,2.04413,0.890162,-0.0663381,-0.866026,0.0115411,-0.180811,0,-0.0566095,0.0110177,2.26979,5,0.1,1,3.7,1.19845,-0.202221,0.600708,0.0190645,0.00975612,-0.00225203,-0.0706762,0.193324,-0.00369176,0.00604854,0.456044,5,0.1,2,3.7,-4.30488,3.86702,0.52356,-0.143542,0.0705808,-0.00799391,0.231296,-0.111938,0.0127181,0.00913111,0.00141221,5,0.1,3,3.7,-0.302848,-0.159095,0.602745,0.0264159,-0.202086,-0.00384701,-0.204859,0.156474,0.00276789,0.00840301,0.189511,5,0.1,4,3.7,-1.55522,-1.6232,0.646019,-0.00191014,-0.0089461,0.00115922,0.0172183,0.0803694,-0.0104569,0.0070787,0.000305956,5,0.1,5,3.7,1.34402,-2.45182,0.599137,0.00892188,0.592611,0.00134557,-0.0153854,0.383243,-0.00243634,0.0156323,0.951277,5,0.1,6,3.7,-3.1548,1.31765,0.746081,0.281662,0.0302639,0.00366997,0.911638,-0.0279844,-0.00339001,0.0354317,0.783521,5,0.1,7,3.7,-1.84926,2.40014,0.599107,0.113817,-0.0036791,0.00197627,-0.15942,0.0686347,-0.00102073,0.0121686,0.271933,5,0.1,8,3.7,-1.65336,2.58871,0.584755,0.481091,-0.206276,-0.000893325,-0.540145,0.344202,-0.01847,0.0140173,1.08413,5,0.1,9,3.7,1.42044,-0.35599,0.606094,0.0897065,0.570588,-0.00488888,-0.050962,-0.290044,0.00441819,0.0238874,0.346906,5,0.1
0,3.8,-1.52515,1.95752,0.891063,-0.0810713,-0.866026,0.0067547,-0.111103,0,-0.0396669,0.0124084,2.26693,5,0.1,1,3.8,1.2,-0.2,0.600457,0.0118285,0.0372559,-0.00282675,-0.071764,0.344768,-0.00697374,0.00437355,0.46347,5,0.1,2,3.8,-4.31808,3.87352,0.522824,-0.12058,0.0594437,-0.00672787,0.228167,-0.110745,0.0125468,0.00698942,0.000736398,5,0.1,3,3.8,-0.301117,-0.178495,0.602375,0.00942349,-0.185569,-0.00355244,-0.131994,0.177279,0.00321865,0.0115902,3.51149,5,0.1,4,3.8,-1.55533,-1.62373,0.646087,-0.000441074,-0.0020802,0.000266731,0.0122786,0.0571012,-0.00745058,0.00768843,0.000134856,5,0.1,5,3.8,1.34484,-2.39077,0.59926,0.00747442,0.626212,0.00111759,-0.0137091,0.250578,-0.00214577,0.0111076,1.93182,5,0.1,6,3.8,-3.12229,1.32054,0.746432,0.365388,0.0275224,0.00333786,0.728488,-0.0276566,-0.00333786,0.0335738,0.270877,5,0.1,7,3.8,-1.83867,2.40001,0.599298,0.0979453,0.000274181,0.00183433,-0.158548,0.0160933,-0.00178814,0.0152286,0.270416,5,0.1,8,3.8,-1.60762,2.56904,0.584602,0.436047,-0.193423,-0.00190586,-0.389636,-0.0350475,-0.00306964,0.0110333,0.842963,5,0.1,9,3.8,1.429,-0.300372,0.605626,0.0799567,0.541361,-0.00447482,-0.135601,-0.314518,0.00402331,0.0238216,0.262436,5,0.1
0,3.9,-1.53378,1.87092,0.891564,-0.0910213,-0.866026,0.00350308,-0.0834838,0,-0.0259578,0.0124084,2.26693,5,0.1,1,3.9,1.20085,-0.194522,0.600131,0.00552405,0.0722419,-0.00375286,-0.0542328,0.34101,-0.0106916,0.00437355,0.46347,5,0.1,2,3.9,-4.32902,3.87892,0.522213,-0.0984386,0.0486769,-0.00550831,0.213981,-0.104219,0.0118054,0.00698942,0.000736398,5,0.1,3,3.9,-0.301005,-0.197477,0.602007,-0.00745566,-0.205012,-0.00402881,-0.151249,-0.481425,-0.0109263,0.0115902,3.51149,5,0.1,4,3.9,-1.55532,-1.62369,0.646081,0.000589341,0.00271481,-0.000358559,0.00837445,0.0390485,-0.00508875,0.00768843,0.000134856,5,0.1,5,3.9,1.34553,-2.32613,0.599361,0.00623073,0.672145,0.000923127,-0.0113174,0.587195,-0.00176579,0.0111076,1.93182,5,0.1,6,3.9,-3.08242,1.32316,0.74675,0.428357,0.0250453,0.00303863,0.513926,-0.0227913,-0.00276044,0.0335738,0.270877,5,0.1,7,3.9,-1.82963,2.40008,0.599472,0.0832319,0.000876188,0.00163503,-0.137329,-0.00169873,-0.00217557,0.0152286,0.270416,5,0.1,8,3.9,-1.56559,2.54887,0.584417,0.407748,-0.215128,-0.00160905,-0.205904,-0.349298,0.00784174,0.0110333,0.842963,5,0.1,9,3.9,1.43621,-0.248112,0.605197,0.0635436,0.502046,-0.00413414,-0.185333,-0.426676,0.00298768,0.0238216,0.262436,5,0.1
0,4,-1.54322,1.78432,0.891804,-0.0970393,-0.866026,0.00145137,-0.0340939,5.96046e-05,-0.0156164,0.0105187,2.26591,5,0.1,1,4,1.20116,-0.185693,0.599702,0.000986457,0.103075,-0.00481308,-0.0367165,0.265785,-0.00995398,0.0057909,0.506218,5,0.1,2,4,-4.33782,3.88328,0.52172,-0.0779271,0.0386596,-0.00437349,0.195742,-0.0956059,0.0108182,0.011908,0.000656717,5,0.1,3,4,-0.30221,-0.220897,0.601539,-0.0129864,-0.266834,-0.00541508,0.0647157,-0.689544,-0.015378,0.00866749,3.17837,5,0.1,4,4,-1.55523,-1.62325,0.646023,0.00124872,0.00578463,-0.000758469,0.00476837,0.0226498,-0.00295043,0.00590337,4.4788e-05,5,0.1,5,4,1.34609,-2.25597,0.599445,0.00518262,0.729603,0.000761449,-0.00977516,0.502229,-0.00154972,0.0148781,2.354,5,0.1,6,4,-3.03748,1.32555,0.74704,0.465488,0.0228077,0.00276715,0.218749,-0.0226498,-0.00274181,0.0342732,0.293096,5,0.1,7,4,-1.82197,2.40015,0.599624,0.0702024,0.000327826,0.00140518,-0.124395,-0.00751019,-0.00238419,0.00967657,0.268,5,0.1,8,4,-1.52574,2.52543,0.584306,0.389722,-0.254542,-0.000545382,-0.176609,-0.40102,0.012517,0.0119764,0.66077,5,0.1,9,4,1.44161,-0.2,0.604798,0.0441998,0.460755,-0.00384301,-0.195801,-0.396952,0.00298023,0.022359,0.383259,5,0.1
0,4.1,-1.55309,1.69772,0.891885,-0.100182,-0.866025,0.000310317,-0.0241473,-1.49012e-05,-0.00769645,0.0105187,2.26591,5,0.1,1,4.1,1.20111,-0.174405,0.599168,-0.00167955,0.119435,-0.00587273,-0.0176802,0.0712462,-0.0105649,0.0057909,0.506218,5,0.1,2,4.1,-4.34467,3.88668,0.521335,-0.0594042,0.0295945,-0.00334783,0.173956,-0.085324,0.00965223,0.011908,0.000656717,5,0.1,3,4.1,-0.302889,-0.251575,0.600909,0.00426075,-0.350507,-0.00726515,0.346905,-0.917712,-0.0202097,0.00866749,3.17837,5,0.1,4,4.1,-1.55508,-1.62258,0.645935,0.00159536,0.00743549,-0.000973232,0.00224262,0.0107512,-0.00139326,0.00590337,4.4788e-05,5,0.1,5,4.1,1.34657,-2.18014,0.599514,0.00427421,0.788793,0.000618678,-0.00845641,0.613645,-0.00131503,0.0148781,2.354,5,0.1,6,4.1,-2.98986,1.32773,0.747304,0.486072,0.0207767,0.00252118,0.169098,-0.0187159,-0.0022687,0.0342732,0.293096,5,0.1,7,4.1,-1.81556,2.40023,0.599752,0.0580072,0.00179075,0.00116453,-0.119001,0.027433,-0.00240654,0.00967657,0.268,5,0.1,8,4.1,-1.48744,2.49773,0.584322,0.377709,-0.301078,0.000926014,-0.0869557,-0.491723,0.0160374,0.0119764,0.66077,5,0.1,9,4.1,1.44488,-0.155463,0.604427,0.0197714,0.433561,-0.00358671,-0.277556,-0.181367,0.00230223,0.022359,0.383259,5,0.1
0,4.2,-1.56319,1.61111,0.891887,-0.101101,-0.866026,-0.000178814,0.00888109,5.96046e-05,-0.00247359,0.0140689,2.42702,5,0.1,1,4.2,1.20088,-0.162359,0.598531,-0.00275075,0.119175,-0.00681132,-0.00464916,-0.0677705,-0.0077188,0.013863,0.275235,5,0.1,2,4.2,-4.34978,3.88923,0.521046,-0.0432491,0.0216603,-0.00244975,0.148773,-0.0733137,0.00828505,0.00715559,0.000523625,5,0.1,3,4.2,-0.3,-0.291144,0.600083,0.0603579,-0.438881,-0.0092119,0.747979,-0.801027,-0.0176132,0.0111563,2.78823,5,0.1,4,4.2,-1.55492,-1.6218,0.645833,0.00171363,0.00800788,-0.00104606,0.000178814,0.00113249,-0.000178814,0.00934197,1.37964e-05,5,0.1,5,4.2,1.34695,-2.09846,0.59957,0.00348389,0.841117,0.000496209,-0.00751019,0.388622,-0.00113249,0.0123071,1.1041,5,0.1,6,4.2,-2.94065,1.32971,0.747545,0.495327,0.0189364,0.00229627,0,-0.0187159,-0.00223517,0.0343201,0.338348,5,0.1,7,4.2,-1.81034,2.40054,0.599857,0.0464946,0.00430346,0.000928342,-0.110745,0.0169277,-0.00229478,0.0124098,0.253103,5,0.1,8,4.2,-1.45011,2.46527,0.584494,0.368318,-0.346345,0.00251234,-0.11766,-0.38588,0.0149906,0.0114786,0.498813,5,0.1,9,4.2,1.44543,-0.11289,0.60408,-0.00863075,0.418475,-0.00335425,-0.278831,-0.145991,0.00244379,0.0227139,0.293255,5,0.1
0,4.3,-1.57335,1.52523,0.891864,-0.103056,-0.845049,-0.000218954,-0.0376701,0.398606,0.00130013,0.0140689,2.42702,5,0.1,1,4.3,1.2006,-0.150366,0.59783,-0.00276975,0.124069,-0.00703679,0.00345707,0.13648,0.00252947,0.013863,0.275235,5,0.1,2,4.3,-4.3534,3.89105,0.52084,-0.0295505,0.0148986,-0.00168532,0.124753,-0.0617057,0.00697374,0.00715559,0.000523625,5,0.1,3,4.3,-0.28933,-0.339229,0.59907,0.159909,-0.523353,-0.0110632,1.16138,-0.834355,-0.0182539,0.0111563,2.78823,5,0.1,4,4.3,-1.55475,-1.621,0.645729,0.00165962,0.00777822,-0.00101821,-0.00117719,-0.00532717,0.000681728,0.00934197,1.37964e-05,5,0.1,5,4.3,1.34727,-2.013,0.599614,0.00283513,0.862866,0.000398792,-0.00559539,0.0803247,-0.000834465,0.0123071,1.1041,5,0.1,6,4.3,-2.89097,1.33152,0.747764,0.499029,0.017257,0.00209529,0.0449419,-0.0154972,-0.00186265,0.0343201,0.338348,5,0.1,7,4.3,-1.80623,2.40113,0.599938,0.03598,0.00763722,0.000707619,-0.0991672,0.0246018,-0.00210106,0.0124098,0.253103,5,0.1,8,4.3,-1.41375,2.42864,0.584822,0.35961,-0.385978,0.00404147,-0.0750571,-0.377387,0.0149347,0.0114786,0.498813,5,0.1,9,4.3,1.44314,-0.0715379,0.603755,-0.0374313,0.410218,-0.00313967,-0.285789,-0.0462019,0.00198185,0.0227139,0.293255,5,0.1
0,4.4,-1.58386,1.44323,0.891853,-0.10685,-0.790063,1.3411e-05,-0.0305176,0.684261,0.00306964,0.00958999,2.71328,5,0.1,1,4.4,1.20035,-0.137137,0.597152,-0.00220537,0.141335,-0.00643283,0.00721216,0.186637,0.0090301,0.0189176,0.102869,5,0.1,2,4.4,-4.35578,3.89225,0.520704,-0.0183582,0.00935197,-0.00105798,0.0989437,-0.0492334,0.00554323,0.00666985,0.000316907,5,0.1,3,4.4,-0.267403,-0.395427,0.597879,0.27831,-0.596517,-0.012666,1.14507,-0.590591,-0.0129938,0.0114382,2.43619,5,0.1,4,4.4,-1.55459,-1.62026,0.645632,0.0014931,0.00701249,-0.000919402,-0.00208616,-0.00953674,0.0012517,0.00873529,8.29226e-06,5,0.1,5,4.4,1.34753,-1.92662,0.59965,0.00233948,0.862288,0.000324845,-0.00435114,-0.074625,-0.000625849,0.0108592,2.27703,5,0.1,6,4.4,-2.84097,1.33317,0.747965,0.49935,0.0157297,0.00191033,-0.0590086,-0.0154376,-0.00184774,0.0338151,0.242825,5,0.1,7,4.4,-1.80311,2.40188,0.599999,0.0267237,0.0056684,0.00050962,-0.0857115,-0.0743866,-0.00181794,0.010786,0.21499,5,0.1,8,4.4,-1.37822,2.38837,0.585296,0.350145,-0.416845,0.00538826,-0.127256,-0.219345,0.0115037,0.0127381,0.360195,5,0.1,9,4.4,1.43803,-0.0307642,0.603451,-0.0638276,0.404578,-0.00293702,-0.234067,-0.0861222,0.00217557,0.020842,0.217459,5,0.1
0,4.5,-1.59476,1.36846,0.891872,-0.111639,-0.699644,0.000408944,-0.0559017,1.03284,0.00454113,0.00958999,2.71328,5,0.1,1,4.5,1.20016,-0.121858,0.596567,-0.00143796,0.165719,-0.0051612,0.0077039,0.275109,0.0155345,0.0189176,0.102869,5,0.1,2,4.5,-4.35716,3.89296,0.520624,-0.00954643,0.0049606,-0.000562984,0.0772178,-0.0385642,0.00434741,0.00666985,0.000316907,5,0.1,3,4.5,-0.233541,-0.458121,0.596545,0.40033,-0.657039,-0.0139927,1.22999,-0.572387,-0.0125282,0.0114382,2.43619,5,0.1,4,4.5,-1.55445,-1.61961,0.645547,0.00125617,0.00592098,-0.000775885,-0.0025779,-0.0119507,0.0015758,0.00873529,8.29226e-06,5,0.1,5,4.5,1.34765,-1.84046,0.59968,-0.00054501,0.862881,0.000267755,-0.0478625,0.0466853,-0.000525266,0.0108592,2.27703,5,0.1,6,4.5,-2.79124,1.33467,0.748147,0.495293,0.0143424,0.00174372,-0.0454038,-0.012815,-0.001546,0.0338151,0.242825,5,0.1,7,4.5,-1.80084,2.40196,0.600041,0.0188146,-0.00625253,0.000340771,-0.0722855,-0.198573,-0.001546,0.010786,0.21499,5,0.1,8,4.5,-1.34376,2.34559,0.585892,0.33933,-0.438103,0.00649681,-0.103951,-0.182673,0.0101589,0.0127381,0.360195,5,0.1,9,4.5,1.43049,0.00938861,0.603168,-0.0865299,0.399184,-0.00274274,-0.211298,-0.0432142,0.00181049,0.020842,0.217459,5,0.1
0,4.6,-1.60618,1.30366,0.891936,-0.116423,-0.597644,0.000870228,-0.0329614,0.956953,0.00447035,0.0108074,2.88086,5,0.1,1,4.6,1.20006,-0.103939,0.596133,-0.000733137,0.191888,-0.00348091,0.00613928,0.2295,0.0174344,0.0181186,0.151985,5,0.1,2,4.6,-4.35776,3.89328,0.520588,-0.00290871,0.00163913,-0.000187755,0.0553131,-0.027895,0.00312924,0.00965002,0.000143484,5,0.1,3,4.6,-0.187659,-0.526338,0.595091,0.513069,-0.702952,-0.0149995,0.977746,-0.312924,-0.00688434,0.0122857,2.19015,5,0.1,4,4.6,-1.55434,-1.61908,0.645477,0.000989437,0.00467896,-0.000612438,-0.00268221,-0.012517,0.00163913,0.00591541,7.92555e-06,5,0.1,5,4.6,1.34732,-1.75397,0.599704,-0.00625551,0.866023,0.000219047,-0.062108,5.96046e-05,-0.000476837,0.0138364,2.2722,5,0.1,6,4.6,-2.74208,1.33604,0.748314,0.486338,0.0130773,0.00159144,-0.149727,-0.012815,-0.00157952,0.0355805,0.297331,5,0.1,7,4.6,-1.7993,2.4,0.600068,0.0122905,-0.0360906,0.000201166,-0.0581741,-0.384331,-0.0012517,0.0100012,0.153424,5,0.1,8,4.6,-1.31041,2.30108,0.586587,0.326827,-0.449491,0.00733435,-0.156522,-0.0294447,0.00628829,0.0154041,0.250756,5,0.1,9,4.6,1.42088,0.0490179,0.602902,-0.10463,0.39228,-0.00255555,-0.14466,-0.109936,0.00199676,0.0192534,0.155592,5,0.1
0,4.7,-1.61803,1.24855,0.892047,-0.120879,-0.509377,0.00134464,-0.0476092,0.682376,0.00477582,0.0108074,2.88086,5,0.1,1,4.7,1.20001,-0.0836314,0.59587,-0.000240095,0.213636,-0.00179717,0.00367314,0.192359,0.0159554,0.0181186,0.151985,5,0.1,2,4.7,-4.3578,3.89332,0.520583,0.00177398,-0.000728294,7.8138e-05,0.0384748,-0.0195354,0.0021942,0.00965002,0.000143484,5,0.1,3,4.7,-0.131362,-0.598312,0.593554,0.612411,-0.736535,-0.0157346,0.952436,-0.313886,-0.00685826,0.0122857,2.19015,5,0.1,4,4.7,-1.55425,-1.61867,0.645424,0.00072103,0.00342056,-0.0004475,-0.00264496,-0.0124127,0.00162795,0.00591541,7.92555e-06,5,0.1,5,4.7,1.34635,-1.66737,0.599724,-0.0134278,0.866026,0.000177324,-0.0769347,7.45058e-06,-0.000365078,0.0138364,2.2722,5,0.1,6,4.7,-2.69397,1.33729,0.748466,0.477229,0.0119243,0.00144932,-0.0611842,-0.0106692,-0.00131875,0.0355805,0.297331,5,0.1,7,4.7,-1.79834,2.39412,0.600083,0.00708681,-0.0840604,8.9407e-05,-0.045903,-0.538468,-0.000983477,0.0100012,0.153424,5,0.1,8,4.7,-1.27845,2.25599,0.58735,0.312704,-0.451852,0.00791168,-0.138097,0.000834465,0.0048615,0.0154041,0.250756,5,0.1,9,4.7,1.40972,0.0877742,0.602656,-0.118056,0.383179,-0.00237534,-0.117078,-0.0893234,0.00169501,0.0192534,0.155592,5,0.1
0,4.8,-1.63033,1.2,0.892204,-0.124484,-0.471887,0.00178367,-0.0183582,0.0861883,0.0038445,0.0117906,2.7701,5,0.1,1,4.8,1.2,-0.0614549,0.595766,1.19209e-05,0.228174,-0.000338256,0.00143051,0.0896621,0.0130534,0.0122888,0.106367,5,0.1,2,4.8,-4.35746,3.89316,0.5206,0.0048399,-0.00228882,0.00025481,0.0231266,-0.0118017,0.0013411,0.00653762,4.93228e-05,5,0.1,3,4.8,-0.0657822,-0.673236,0.591953,0.69393,-0.758137,-0.016208,0.638353,-0.0870824,-0.00196695,0.0105666,2.03775,5,0.1,4,4.8,-1.55419,-1.61839,0.645387,0.000467896,0.00223815,-0.000292063,-0.00226498,-0.0110269,0.00146031,0.00923919,6.29397e-06,5,0.1,5,4.8,1.34463,-1.58077,0.59974,-0.0208765,0.866026,0.000146031,-0.0687838,-5.96046e-05,-0.000327826,0.0115753,2.27139,5,0.1,6,4.8,-2.6466,1.33843,0.748604,0.469172,0.0108719,0.00131875,-0.120521,-0.0106692,-0.0013113,0.0351021,0.215922,5,0.1,7,4.8,-1.79784,2.38301,0.600087,0.0031054,-0.13743,5.96046e-06,-0.0338554,-0.501871,-0.000715256,0.013195,0.0931156,5,0.1,8,4.8,-1.24792,2.21098,0.588161,0.297156,-0.446212,0.00824034,-0.181139,0.124335,0.00146031,0.0101931,0.17022,5,0.1,9,4.8,1.39742,0.125564,0.602427,-0.126925,0.371503,-0.00220239,-0.0557303,-0.156083,0.00184774,0.0222198,0.346051,5,0.1
0,4.9,-1.64279,1.15179,0.892402,-0.12392,-0.504065,0.00218004,0.0301525,-0.621952,0.0038594,0.0117906,2.7701,5,0.1,1,4.9,1.20001,-0.0382246,0.595794,9.66713e-05,0.235823,0.00087237,0.000350177,0.0534895,0.0109635,0.0122888,0.106367,5,0.1,2,4.9,-4.35688,3.89288,0.520631,0.00657067,-0.00317879,0.000356417,0.0117719,-0.00615418,0.00070408,0.00653762,4.93228e-05,5,0.1,3,4.9,0.00689745,-0.749669,0.590319,0.759242,-0.7712,-0.0164962,0.614735,-0.129685,-0.0028424,0.0105666,2.03775,5,0.1,4,4.9,-1.55416,-1.61822,0.645365,0.000253133,0.00119638,-0.00015432,-0.00200421,-0.0096634,0.00127777,0.00923919,6.29397e-06,5,0.1,5,4.9,1.34218,-1.49417,0.599753,-0.028035,0.866025,0.000118744,-0.0706613,1.49012e-05,-0.000227243,0.0115753,2.27139,5,0.1,6,4.9,-2.60016,1.33947,0.74873,0.460261,0.00991132,0.00120066,-0.0806004,-0.00888854,-0.00109524,0.0351021,0.215922,5,0.1,7,4.9,-1.79768,2.36677,0.600084,0.000204332,-0.186781,-5.44824e-05,-0.0242814,-0.463963,-0.000495464,0.013195,0.0931156,5,0.1,8,4.9,-1.21905,2.16696,0.588991,0.280518,-0.433967,0.00835303,-0.161603,0.135839,0.000469387,0.0101931,0.17022,5,0.1,9,4.9,1.38447,0.16231,0.602216,-0.131718,0.366289,-0.00203494,-0.0347048,0.0180452,0.00157207,0.0222198,0.346051,5,0.1
0,5,-1.65495,1.09784,0.892638,-0.11842,-0.577301,0.00251532,0.0796914,-0.760794,0.00274181,0.0086936,2.50401,5,0.1,1,5,1.20002,-0.0144999,0.595932,9.83477e-05,0.237253,0.00182092,-0.000298023,-0.0312588,0.00789762,0.0156849,0.101391,5,0.1,2,5,-4.35618,3.89254,0.52067,0.00727177,-0.00355244,0.000400841,0.00238419,-0.00143051,0.000149012,0.00963809,1.46278e-05,5,0.1,3,5,0.0854995,-0.827209,0.58866,0.807878,-0.77652,-0.0166163,0.321159,0.0542998,0.00116229,0.00854654,1.95992,5,0.1,4,5,-1.55414,-1.61815,0.645356,7.15256e-05,0.000327826,-3.8743e-05,-0.00154972,-0.00762939,0.000983477,0.00621949,3.73732e-06,5,0.1,5,5,1.33905,-1.40756,0.599764,-0.034374,0.866026,9.98378e-05,-0.0534058,-5.96046e-05,-0.000178814,0.0135048,2.27076,5,0.1,6,5,-2.55463,1.34042,0.748845,0.449169,0.00903308,0.00109375,-0.157475,-0.0089407,-0.00110269,0.032913,0.275796,5,0.1,7,5,-1.79777,2.34598,0.600077,-0.00177622,-0.226659,-9.38773e-05,-0.0154376,-0.319123,-0.000298023,0.00953204,0.123795,5,0.1,8,5,-1.19184,2.12437,0.589825,0.263149,-0.416511,0.00828207,-0.192583,0.223637,-0.00211596,0.0113944,0.113883,5,0.1,9,5,1.3712,0.199089,0.60202,-0.132969,0.369242,-0.00187606,0.0131726,0.0160635,0.00166893,0.0223194,0.26167,5,0.1
0,5.1,-1.66626,1.03562,0.892904,-0.106823,-0.671596,0.00280114,0.146627,-1.03574,0.00275299,0.0086936,2.50401,5,0.1,1,5.1,1.20003,0.00926326,0.596153,6.1281e-05,0.239387,0.00258079,-0.000424683,0.051957,0.00702217,0.0156849,0.101391,5,0.1,2,5.1,-4.35545,3.89219,0.52071,0.00717863,-0.00352934,0.000397675,-0.0038445,0.00169873,-0.000193715,0.00963809,1.46278e-05,5,0.1,3,5.1,0.168007,-0.904839,0.586999,0.842157,-0.777422,-0.0166354,0.315505,-0.0272244,-0.00057742,0.00854654,1.95992,5,0.1,4,5.1,-1.55414,-1.61815,0.645356,-6.78003e-05,-0.000353344,4.93601e-05,-0.0012219,-0.00593811,0.00076741,0.00621949,3.73732e-06,5,0.1,5,5.1,1.33534,-1.32096,0.599773,-0.0397889,0.866025,8.61473e-05,-0.0515506,1.49012e-05,-0.000100583,0.0135048,2.27076,5,0.1,6,5.1,-2.51025,1.34128,0.748949,0.439933,0.00822805,0.000994559,-0.0556111,-0.00745058,-0.000920147,0.032913,0.275796,5,0.1,7,5.1,-1.79801,2.32166,0.600066,-0.00298135,-0.259709,-0.000115763,-0.00885129,-0.319302,-0.000145286,0.00953204,0.123795,5,0.1,8,5.1,-1.16644,2.08379,0.590643,0.245406,-0.395173,0.00806274,-0.170544,0.215799,-0.00252947,0.0113944,0.113883,5,0.1,9,5.1,1.35797,0.23627,0.60184,-0.131315,0.375464,-0.00172462,0.0243634,0.0820198,0.00142306,0.0223194,0.26167,5,0.1
0,5.2,-1.67614,0.963429,0.893196,-0.0901341,-0.768986,0.00302941,0.182569,-0.846833,0.00160933,0.0123415,0.219024,5,0.1,1,5.2,1.20003,0.0334518,0.596442,1.78814e-05,0.243875,0.00317842,-0.000417233,0.0220782,0.00470877,0.0134244,0.146317,5,0.1,2,5.2,-4.35476,3.89185,0.520748,0.00655651,-0.00324845,0.000365078,-0.00786781,0.00405312,-0.000417233,0.00682967,8.03355e-06,5,0.1,3,5.2,0.253466,-0.98255,0.585336,0.8628,-0.774278,-0.0165686,0.0645065,0.121802,0.00265241,0.010352,1.94066,5,0.1,4,5.2,-1.55415,-1.61821,0.645365,-0.000169873,-0.000846386,0.000113249,-0.000834465,-0.00399351,0.000506639,0.00919898,1.64567e-06,5,0.1,5,5.2,1.33113,-1.23436,0.599781,-0.0441194,0.866026,7.7486e-05,-0.0327229,-5.96046e-05,-5.96046e-05,0.0106946,2.27036,5,0.1,6,5.2,-2.46656,1.34206,0.749044,0.433171,0.0074923,0.0009045,-0.100136,-0.00739098,-0.000923872,0.0322298,1.29972,5,0.1,7,5.2,-1.79834,2.29424,0.600054,-0.00357926,-0.286674,-0.00012368,-0.00339746,-0.204325,0,0.0118933,0.196566,5,0.1,8,5.2,-1.14277,2.04542,0.591434,0.227645,-0.371242,0.00773072,-0.190377,0.271559,-0.00423193,0.0125878,0.129787,5,0.1,9,5.2,1.34501,0.274158,0.601675,-0.127363,0.381127,-0.0015825,0.0575185,0.012368,0.00149012,0.0224719,0.191291,5,0.1
0,5.3,-1.68422,0.883353,0.893509,-0.0711631,-0.822223,0.00322768,0.193194,-0.228029,0.00209734,0.0123415,0.219024,5,0.1,1,5.3,1.20003,0.0581277,0.59678,-1.69501e-05,0.250864,0.00354648,-0.000290573,0.0958069,0.0025928,0.0134244,0.146317,5,0.1,2,5.3,-4.35415,3.89154,0.520782,0.00562519,-0.0027772,0.000315346,-0.0104308,0.00523031,-0.000566244,0.00682967,8.03355e-06,5,0.1,3,5.3,0.339936,-1.05967,0.583686,0.865467,-0.769819,-0.0164694,-0.00622481,0.0133105,0.000309199,0.010352,1.94066,5,0.1,4,5.3,-1.55417,-1.61831,0.645378,-0.000238791,-0.00117198,0.000154506,-0.000536442,-0.0025034,0.00031665,0.00919898,1.64567e-06,5,0.1,5,5.3,1.32655,-1.14776,0.599789,-0.0474917,0.866025,7.40401e-05,-0.031583,1.49012e-05,-1.11759e-05,0.0106946,2.27036,5,0.1,6,5.3,-2.42283,1.34278,0.74913,0.448738,0.00682622,0.000821613,0.339583,-0.00616908,-0.00076741,0.0322298,1.29972,5,0.1,7,5.3,-1.79871,2.26434,0.600042,-0.00365302,-0.31285,-0.000119861,0.00159442,-0.287458,7.07805e-05,0.0118933,0.196566,5,0.1,8,5.3,-1.12078,2.0094,0.59219,0.213509,-0.351146,0.00743894,-0.106834,0.153147,-0.00208989,0.0125878,0.129787,5,0.1,9,5.3,1.33256,0.312416,0.601523,-0.12169,0.384326,-0.00144755,0.0596344,0.0307597,0.00126287,0.0224719,0.191291,5,0.1
0,5.4,-1.69037,0.800938,0.893841,-0.0521451,-0.81692,0.00340343,0.184238,0.320822,0.0012219,0.0100078,0.0809786,5,0.1,1,5.4,1.20003,0.0836675,0.597144,-4.17233e-05,0.259263,0.00368953,-0.000119209,0.0563598,0.000238419,0.0143682,0.0959863,5,0.1,2,5.4,-4.35364,3.89129,0.520811,0.00451803,-0.00222921,0.0002563,-0.0112057,0.00560284,-0.000625849,0.0110518,7.63687e-06,5,0.1,3,5.4,0.426313,-1.13645,0.582043,0.860311,-0.763771,-0.0163376,-0.114262,0.14025,0.00303984,0.00719407,1.95572,5,0.1,4,5.4,-1.5542,-1.61844,0.645395,-0.000277162,-0.00134706,0.000177324,-0.000238419,-0.00107288,0.000119209,0.00677037,5.32857e-07,5,0.1,5,5.4,1.32166,-1.06115,0.599796,-0.049907,0.866026,7.15256e-05,-0.0144243,-2.98023e-05,2.98023e-05,0.0140086,2.27017,5,0.1,6,5.4,-2.37602,1.34343,0.749208,0.488472,0.00621676,0.000746548,0.400901,-0.00613928,-0.000745058,0.0337635,2.66329,5,0.1,7,5.4,-1.79906,2.23169,0.60003,-0.00332296,-0.338703,-0.000108778,0.00470877,-0.206709,0.000119209,0.00992787,0.120229,5,0.1,8,5.4,-1.09992,1.97501,0.592924,0.203764,-0.336665,0.00722855,-0.0987053,0.153124,-0.00247359,0.0115719,0.0779966,5,0.1,9,5.4,1.32071,0.350893,0.601385,-0.114819,0.383744,-0.00132024,0.0801086,-0.0568777,0.0012517,0.00777138,0.235392,5,0.1
0,5.5,-1.69464,0.721194,0.894192,-0.0330696,-0.774473,0.00363737,0.192054,0.529349,0.00301749,0.0100078,0.0809786,5,0.1,1,5.5,1.20002,0.110026,0.597512,-4.91738e-05,0.268841,0.00365851,-2.98023e-05,0.113478,-0.000905246,0.0143682,0.0959863,5,0.1,2,5.5,-4.35325,3.8911,0.520833,0.00337958,-0.0016626,0.000192877,-0.0113845,0.00561774,-0.000629574,0.0110518,7.63687e-06,5,0.1,3,5.5,0.512188,-1.21245,0.580418,0.859852,-0.758205,-0.0162156,0.0480637,0.0175908,0.000394881,0.00719407,1.95572,5,0.1,4,5.5,-1.55423,-1.61858,0.645413,-0.0002902,-0.00140145,0.000183005,-1.49012e-05,-2.98023e-05,-3.72529e-06,0.00677037,5.32857e-07,5,0.1,5,5.5,1.31659,-0.97455,0.599804,-0.0515599,0.866025,7.54371e-05,-0.0156015,3.72529e-06,3.72529e-05,0.0140086,2.27017,5,0.1,6,5.5,-2.32409,1.34402,0.749279,0.558308,0.00563245,0.000675675,0.896186,-0.00568479,-0.000681728,0.0337635,2.66329,5,0.1,7,5.5,-1.79937,2.19678,0.60002,-0.00275914,-0.35895,-9.52743e-05,0.00634044,-0.177994,0.000145286,0.00992787,0.120229,5,0.1,8,5.5,-1.08011,1.94201,0.593636,0.191682,-0.323814,0.00702031,-0.143573,0.118792,-0.00201166,0.0115719,0.0779966,5,0.1,9,5.5,1.31017,0.389155,0.601274,-0.0916213,0.382603,-0.000772066,0.352159,0.00936165,0.00878423,0.00777138,0.235392,5,0.1
0,5.6,-1.69701,0.646742,0.894571,-0.0146478,-0.711128,0.00393242,0.172615,0.735581,0.0025332,0.008906,0.0891296,5,0.1,1,5.6,1.20002,0.137425,0.597872,-5.06639e-05,0.278231,0.00350326,5.96046e-05,0.0587404,-0.00220537,0.0148255,0.173308,5,0.1,2,5.6,-4.35297,3.89096,0.52085,0.00228882,-0.00112653,0.00013113,-0.010252,0.00500679,-0.000536442,0.0083699,6.28996e-06,5,0.1,3,5.6,0.598298,-1.28807,0.5788,0.860144,-0.752291,-0.0160873,-0.0829697,0.133872,0.00286102,0.00921711,1.96088,5,0.1,4,5.6,-1.55426,-1.61872,0.645431,-0.000286102,-0.00135899,0.000177324,0.000238419,0.000834465,-0.000119209,0.00614588,1.50626e-07,5,0.1,5,5.6,1.31138,-0.887948,0.599811,-0.0525087,0.866026,7.89762e-05,-0.00137091,0,0,0.011817,2.27012,5,0.1,6,5.6,-2.26364,1.34456,0.749344,0.650299,0.00506043,0.000606477,0.869155,-0.00590086,-0.000715256,0.0347258,2.40874,5,0.1,7,5.6,-1.79961,2.16018,0.600011,-0.0020951,-0.370902,-7.89762e-05,0.00673532,-0.0475645,0.000119209,0.00976684,0.18319,5,0.1,8,5.6,-1.06174,1.91027,0.594327,0.175014,-0.310376,0.00677407,-0.189543,0.160277,-0.00315905,0.013099,0.0740688,5,0.1,9,5.6,1.303,0.427406,0.601247,-0.05005,0.381388,0.000271201,0.454307,-0.0512302,0.0113249,0.00870542,0.18872,5,0.1
0,5.7,-1.69763,0.579132,0.894977,0.00185594,-0.642389,0.0041998,0.154167,0.656404,0.00252947,0.008906,0.0891296,5,0.1,1,5.7,1.20001,0.165823,0.59821,-4.35859e-05,0.291726,0.00325572,8.9407e-05,0.180315,-0.00276417,0.0148255,0.173308,5,0.1,2,5.7,-4.35279,3.89087,0.52086,0.00131205,-0.000650063,7.92556e-05,-0.00914931,0.00445545,-0.000488013,0.0083699,6.28996e-06,5,0.1,3,5.7,0.684262,-1.36296,0.577199,0.861417,-0.747612,-0.0159875,0.0549778,0.00651926,0.000130385,0.00921711,1.96088,5,0.1,4,5.7,-1.55428,-1.61885,0.645448,-0.000257976,-0.00124648,0.00016205,0.000320375,0.00138581,-0.000178814,0.00614588,1.50626e-07,5,0.1,5,5.7,1.3061,-0.801345,0.599819,-0.0529662,0.866026,8.00006e-05,-0.00481308,-3.72529e-06,1.11759e-05,0.011817,2.27012,5,0.1,6,5.7,-2.19402,1.34504,0.749401,0.742701,0.00452306,0.000541471,0.910282,-0.00498444,-0.000603497,0.0347258,2.40874,5,0.1,7,5.7,-1.79979,2.12264,0.600004,-0.00144672,-0.381337,-6.60308e-05,0.00613183,-0.131071,0.000130385,0.00976684,0.18319,5,0.1,8,5.7,-1.0453,1.87992,0.594991,0.152799,-0.297404,0.00651609,-0.249483,0.114664,-0.00233203,0.013099,0.0740688,5,0.1,9,5.7,1.30031,0.46549,0.601331,-0.0036953,0.381624,0.00141365,0.458069,0.029359,0.01112,0.00870542,0.18872,5,0.1
0,5.8,-1.69673,0.518158,0.895408,0.0156313,-0.576946,0.00439137,0.11915,0.664294,0.00110269,0.00827985,0.084511,5,0.1,1,5.8,1.20001,0.195889,0.598521,-3.57628e-05,0.308953,0.00294894,0.000119209,0.14168,-0.00336766,0.0140774,0.108112,5,0.1,2,5.8,-4.3527,3.89083,0.520866,0.000488758,-0.00025034,3.57628e-05,-0.00739098,0.00357628,-0.000417233,0.00937911,3.91445e-06,5,0.1,3,5.8,0.77055,-1.43759,0.575603,0.862074,-0.742975,-0.0158891,-0.0789762,0.119686,0.0025332,0.00812361,2.06595,5,0.1,4,5.8,-1.55431,-1.61897,0.645464,-0.000223517,-0.00108778,0.000141561,0.000357628,0.00172853,-0.000238419,0.00650004,9.75774e-08,5,0.1,5,5.8,1.3008,-0.714742,0.599827,-0.0529647,0.866026,8.19564e-05,0.00685453,0,-2.98023e-05,0.0116947,2.34208,5,0.1,6,5.8,-2.11558,1.34546,0.749452,0.821018,0.00403821,0.000482798,0.611186,-0.00482798,-0.000566244,0.0363207,0.478681,5,0.1,7,5.8,-1.7999,2.08391,0.599998,-0.000885129,-0.391948,-5.21541e-05,0.005126,-0.0596046,0.000149012,0.00897469,0.108496,5,0.1,8,5.8,-1.03133,1.85078,0.59563,0.126112,-0.284815,0.00625104,-0.279546,0.147939,-0.00312924,0.013489,0.207668,5,0.1,9,5.8,1.30214,0.503754,0.601525,0.0390321,0.382695,0.00242591,0.38588,-0.0270307,0.00888109,0.00687249,0.1726,5,0.1
0,5.9,-1.69463,0.463609,0.89585,0.0257038,-0.515431,0.00442592,0.0818968,0.579888,-0.000465661,0.00827985,0.084511,5,0.1,1,5.9,1.2,0.227552,0.598799,-2.49594e-05,0.324372,0.0026091,8.9407e-05,0.146101,-0.00343844,0.0140774,0.108112,5,0.1,2,5.9,-4.35268,3.89082,0.520867,-0.000176579,7.07805e-05,-1.95578e-06,-0.00587106,0.00283122,-0.000339001,0.00937911,3.91445e-06,5,0.1,3,5.9,0.856681,-1.51066,0.57402,0.862483,-0.712696,-0.0158217,0.0383779,0.472724,-0.000186265,0.00812361,2.06595,5,0.1,4,5.9,-1.55433,-1.61907,0.645476,-0.000186823,-0.000905618,0.000117254,0.00037998,0.00187755,-0.000249594,0.00650004,9.75774e-08,5,0.1,5,5.9,1.29552,-0.628263,0.599835,-0.0526823,0.861637,8.04663e-05,0.00169873,-0.114582,-7.45058e-06,0.0116947,2.34208,5,0.1,6,5.9,-2.03121,1.34585,0.749498,0.858917,0.00362024,0.000433903,0.157416,-0.00368059,-0.000428408,0.0363207,0.478681,5,0.1,7,5.9,-1.79997,2.0444,0.599994,-0.000443496,-0.39815,-3.78117e-05,0.00371784,-0.045225,0.00013411,0.00897469,0.108496,5,0.1,8,5.9,-1.02014,1.82302,0.596239,0.0975508,-0.270156,0.00593569,-0.286415,0.153266,-0.00334531,0.013489,0.207668,5,0.1,9,5.9,1.30788,0.542074,0.601809,0.0747954,0.384895,0.0032194,0.3215,0.0446178,0.00680238,0.00687249,0.1726,5,0.1
0,6,-1.69172,0.414918,0.896287,0.0319719,-0.458611,0.00429153,0.0435114,0.566214,-0.00223517,0.00829336,0.0946918,5,0.1,1,6,1.2,0.260589,0.599042,-1.49012e-05,0.334686,0.00225902,0,0.0459403,-0.00351667,0.0150881,0.0855275,5,0.1,2,6,-4.35273,3.89084,0.520866,-0.000667572,0.000309944,-2.98023e-05,-0.00405312,0.00202656,-0.000268221,0.0101429,1.80651e-06,5,0.1,3,6,0.942993,-1.57908,0.572439,0.861624,-0.651076,-0.015755,-0.0880063,0.746369,0.00226498,0.00868006,1.83382,5,0.1,4,6,-1.55435,-1.61915,0.645487,-0.000149012,-0.000715256,9.23872e-05,0.000417233,0.00178814,-0.000268221,0.0072179,1.0382e-07,5,0.1,5,6,1.29027,-0.543039,0.599843,-0.0521302,0.838728,8.04663e-05,0.0114441,-0.360652,-2.98023e-05,0.0138802,2.79884,5,0.1,6,6,-1.94519,1.34619,0.749539,0.855088,0.00327229,0.000393391,-0.218809,-0.00333786,-0.00038743,0.0362012,2.29381,5,0.1,7,6,-1.79999,2.00451,0.59999,-0.000137091,-0.397772,-2.5332e-05,0.0025034,0.0658035,0.000149012,0.00926901,0.202708,5,0.1,8,6,-1.01179,1.79684,0.596815,0.0697553,-0.252837,0.00555366,-0.265479,0.198185,-0.00435114,0.0136876,0.195937,5,0.1,9,6,1.31681,0.580727,0.602161,0.102034,0.38709,0.00375956,0.218153,-0.0195503,0.0038445,0.0069207,0.163162,5,0.1
0,6.1,-1.68832,0.371527,0.896706,0.035774,-0.412221,0.00408338,0.0309795,0.385636,-0.00207499,0.00829336,0.0946918,5,0.1,1,6.1,1.2,0.294375,0.599251,-1.19209e-05,0.341363,0.00192104,4.47035e-05,0.0662822,-0.00325963,0.0150881,0.0855275,5,0.1,2,6.1,-4.35281,3.89088,0.520861,-0.0010021,0.000476837,-5.21541e-05,-0.00265241,0.0013113,-0.000178814,0.0101429,1.80651e-06,5,0.1,3,6.1,1.02897,-1.63992,0.57087,0.85922,-0.561159,-0.0156385,-0.00783801,1.02007,0.000897795,0.00868006,1.83382,5,0.1,4,6.1,-1.55436,-1.61921,0.645495,-0.000109337,-0.000538304,6.6869e-05,0.000365078,0.00172853,-0.000245869,0.0072179,1.0382e-07,5,0.1,5,6.1,1.2851,-0.461969,0.599851,-0.0514371,0.773768,7.89762e-05,0.00525266,-0.895948,-7.45058e-06,0.0138802,2.79884,5,0.1,6,6.1,-1.86007,1.3465,0.749577,0.852525,0.00297762,0.000359304,0.0973418,-0.00268221,-0.000312924,0.0362012,2.29381,5,0.1,7,6.1,-1.8,1.96491,0.599989,6.51926e-05,-0.394968,-1.22003e-05,0.00156462,0.0133365,0.000115484,0.00926901,0.202708,5,0.1,8,6.1,-1.00609,1.77256,0.597348,0.0450028,-0.232559,0.00510551,-0.225849,0.210911,-0.00468642,0.0136876,0.195937,5,0.1,9,6.1,1.32806,0.619502,0.602554,0.122261,0.389371,0.00409186,0.178486,0.0397936,0.00263005,0.0069207,0.163162,5,0.1
0,6.2,-1.68462,0.332096,0.897103,0.0379175,-0.37729,0.00385344,0.0109076,0.33085,-0.00268221,0.00801218,0.201707,5,0.1,1,6.2,1.2,0.328734,0.599427,-5.96046e-06,0.344344,0.00160635,5.96046e-05,-0.0213087,-0.00306964,0.0140797,0.0399802,5,0.1,2,6.2,-4.35292,3.89093,0.520855,-0.00119209,0.000578165,-6.4075e-05,-0.00143051,0.000476837,-0.000119209,0.012048,6.25904e-07,5,0.1,3,6.2,1.11467,-1.6907,0.569314,0.851932,-0.452819,-0.0154331,-0.171542,1.12098,0.0038147,0.00643044,1.55921,5,0.1,4,6.2,-1.55437,-1.61926,0.6455,-7.45058e-05,-0.000375509,4.61936e-05,0.000298023,0.00160933,-0.000238419,0.00694003,9.09727e-08,5,0.1,5,6.2,1.27999,-0.389663,0.599859,-0.0505954,0.66735,7.89762e-05,0.0135303,-1.19691,-2.98023e-05,0.0123356,3.25446,5,0.1,6,6.2,-1.77427,1.34679,0.749611,0.862873,0.00271797,0.000329316,0.0630617,-0.002563,-0.000327826,0.0321791,2.06366,5,0.1,7,6.2,-1.79998,1.92555,0.599988,0.000184774,-0.391167,-2.98023e-06,0.00077486,0.0790358,8.9407e-05,0.00875143,0.236103,5,0.1,8,6.2,-1.00262,1.7504,0.597834,0.0251442,-0.2101,0.00460744,-0.169516,0.240207,-0.00536442,0.0110704,0.319129,5,0.1,9,6.2,1.34106,0.658565,0.602973,0.136426,0.390716,0.00425875,0.0995994,-0.0309646,0.000566244,0.0065659,0.158342,5,0.1
0,6.3,-1.6808,0.295676,0.897475,0.0381764,-0.353885,0.00356361,-0.00582635,0.164023,-0.00314415,0.00801218,0.201707,5,0.1,1,6.3,1.2,0.363015,0.599573,-9.31323e-07,0.34053,0.0013154,3.72529e-05,-0.0657793,-0.00274926,0.0140797,0.0399802,5,0.1,2,6.3,-4.35305,3.89099,0.520849,-0.0012815,0.000603497,-7.20844e-05,-0.000357628,5.96046e-05,-4.47035e-05,0.012048,6.25904e-07,5,0.1,3,6.3,1.19915,-1.7303,0.567787,0.838295,-0.339048,-0.0151162,-0.139445,1.12418,0.00319257,0.00643044,1.55921,5,0.1,4,6.3,-1.55437,-1.61929,0.645504,-4.67524e-05,-0.000225753,2.49594e-05,0.000245869,0.00137091,-0.000186265,0.00694003,9.09727e-08,5,0.1,5,6.3,1.27498,-0.329416,0.599867,-0.0496892,0.534039,7.7486e-05,0.00729412,-1.41093,-7.45058e-06,0.0123356,3.25446,5,0.1,6,6.3,-1.68779,1.34705,0.749643,0.865829,0.0024952,0.00030091,0.00788271,-0.00199676,-0.000257045,0.0321791,2.06366,5,0.1,7,6.3,-1.79996,1.88675,0.599988,0.000200234,-0.385268,4.37722e-06,-0.000365078,0.0573769,6.33299e-05,0.00875143,0.236103,5,0.1,8,6.3,-1.00093,1.73061,0.598268,0.00920873,-0.185595,0.00406057,-0.141166,0.249974,-0.00556558,0.0110704,0.319129,5,0.1,9,6.3,1.35523,0.697629,0.603403,0.147031,0.391399,0.00433205,0.101984,0.0204965,0.000659376,0.0065659,0.158342,5,0.1
0,6.4,-1.67704,0.261012,0.897814,0.0367522,-0.339818,0.00322163,-0.0225306,0.137203,-0.00375509,0.0117879,0.277263,5,0.1,1,6.4,1.2,0.396595,0.599691,2.98023e-06,0.329439,0.00105351,0,-0.162736,-0.00241399,0.0136083,0.0731173,5,0.1,2,6.4,-4.35318,3.89105,0.520841,-0.00126362,0.000590086,-7.30157e-05,0.000476837,-0.000357628,2.98023e-05,0.0102164,1.86515e-07,5,0.1,3,6.4,1.28208,-1.75878,0.566295,0.817582,-0.233018,-0.0146806,-0.301242,0.976324,0.00599027,0.00862562,1.33944,5,0.1,4,6.4,-1.55438,-1.6193,0.645506,-2.38419e-05,-0.000101328,8.9407e-06,0.000178814,0.00107288,-0.000119209,0.00637964,5.34479e-08,5,0.1,5,6.4,1.27006,-0.283033,0.599875,-0.0486761,0.395028,7.59959e-05,0.014782,-1.32903,0,0.0101899,0.260196,5,0.1,6,6.4,-1.60119,1.34729,0.749672,0.866026,0.00230074,0.000277162,-5.96046e-05,-0.00196695,-0.000268221,0.0309872,1.6265,5,0.1,7,6.4,-1.79995,1.84859,0.599989,0.00013113,-0.376573,8.9407e-06,-0.000953674,0.129282,2.98023e-05,0.010659,0.304742,5,0.1,8,6.4,-1.00062,1.71331,0.598646,-0.00186861,-0.160137,0.00349432,-0.0762939,0.258863,-0.00572205,0.0111264,2.11403,5,0.1,9,6.4,1.37037,0.736794,0.603838,0.155038,0.3907,0.00435114,0.050962,-0.051558,-0.000476837,0.00567892,0.157198,5,0.1
0,6.5,-1.67349,0.227375,0.898118,0.0342103,-0.335564,0.00285348,-0.0284836,-0.0211541,-0.00363961,0.0117879,0.277263,5,0.1,1,6.5,1.2,0.428894,0.599785,2.98023e-06,0.317738,0.000827666,0,-0.0902843,-0.00210479,0.0136083,0.0731173,5,0.1,2,6.5,-4.3533,3.89111,0.520834,-0.00118241,0.00054352,-6.79865e-05,0.00110269,-0.000581145,6.70552e-05,0.0102164,1.86515e-07,5,0.1,3,6.5,1.36245,-1.77745,0.564855,0.79027,-0.143737,-0.0141356,-0.276059,0.778474,0.00546128,0.00862562,1.33944,5,0.1,4,6.5,-1.55438,-1.61931,0.645506,-7.82311e-06,-5.40167e-06,-1.30385e-06,0.00013411,0.000827014,-8.9407e-05,0.00637964,5.34479e-08,5,0.1,5,6.5,1.26525,-0.249711,0.599882,-0.0475075,0.276258,7.63685e-05,0.0108629,-1.03878,7.45058e-06,0.0101899,0.260196,5,0.1,6,6.5,-1.51459,1.34751,0.749698,0.865973,0.00212789,0.000253972,-0.00207871,-0.00156462,-0.000204891,0.0309872,1.6265,5,0.1,7,6.5,-1.79992,1.81152,0.59999,0.000422634,-0.365072,1.13621e-05,0.00544637,0.11564,1.49012e-05,0.010659,0.304742,5,0.1,8,6.5,-1.00135,1.69826,0.598967,-0.0130987,-0.143718,0.00293562,-0.0957176,0.0889674,-0.0054501,0.0111264,2.11403,5,0.1,9,6.5,1.38622,0.775746,0.604273,0.162342,0.389138,0.00436604,0.0819042,-0.00272319,0.000461936,0.00567892,0.157198,5,0.1
0,6.6,-1.67022,0.19366,0.898385,0.0310332,-0.338665,0.00248849,-0.0350475,-0.0180006,-0.00366569,0.012071,0.181066,5,0.1,1,6.6,1.2,0.460208,0.599858,0,0.30812,0.000633299,5.96046e-05,-0.115722,-0.00184774,0.011634,0.0596305,5,0.1,2,6.6,-4.35341,3.89116,0.520828,-0.00104904,0.000470877,-5.96046e-05,0.00143051,-0.000596046,8.9407e-05,0.00718749,1.15828e-07,5,0.1,3,6.6,1.43993,-1.78844,0.563471,0.757143,-0.0815153,-0.0134975,-0.407696,0.454962,0.007689,0.00819342,1.13253,5,0.1,4,6.6,-1.55438,-1.6193,0.645505,2.98023e-06,6.55651e-05,-8.9407e-06,0.000178814,0.000536442,-2.98023e-05,0.00990515,2.32889e-08,5,0.1,5,6.6,1.26056,-0.22676,0.59989,-0.0461191,0.187956,7.59959e-05,0.018537,-0.727981,0,0.00853435,0.228584,5,0.1,6,6.6,-1.42802,1.34771,0.749722,0.865191,0.00196993,0.000233948,-0.0167489,-0.00160933,-0.000208616,0.0310611,1.24627,5,0.1,7,6.6,-1.79985,1.77567,0.599991,0.000995398,-0.350931,1.19209e-05,0.005126,0.177264,2.98023e-05,0.00919007,0.427085,5,0.1,8,6.6,-1.00286,1.68418,0.599234,-0.0134647,-0.138897,0.00240654,0.111341,0.022471,-0.005126,0.0141435,3.58497,5,0.1,9,6.6,1.40282,0.814572,0.604711,0.169155,0.386226,0.00439137,0.0448227,-0.0717044,-0.000208616,0.0197026,0.200187,5,0.1
0,6.7,-1.66728,0.159435,0.898617,0.0277309,-0.347709,0.00215778,-0.0316426,-0.131629,-0.00301376,0.012071,0.181066,5,0.1,1,6.7,1.2,0.490598,0.599912,4.84288e-06,0.300736,0.000464544,2.98023e-05,-0.0514481,-0.00152737,0.011634,0.0596305,5,0.1,2,6.7,-4.35351,3.8912,0.520822,-0.00089258,0.000404567,-5.01052e-05,0.00166893,-0.000715256,0.000104308,0.00718749,1.15828e-07,5,0.1,3,6.7,1.51373,-1.79479,0.562158,0.719381,-0.0511786,-0.012786,-0.373065,0.116684,0.00698492,0.00819342,1.13253,5,0.1,4,6.7,-1.55438,-1.61929,0.645504,1.75089e-05,0.000110082,-1.13621e-05,0.000119209,0.000350177,-1.49012e-05,0.00990515,2.32889e-08,5,0.1,5,6.7,1.25603,-0.211165,0.599897,-0.0444835,0.128734,7.59028e-05,0.0160113,-0.442732,-3.72529e-06,0.00853435,0.228584,5,0.1,6,6.7,-1.34151,1.3479,0.749745,0.865268,0.00182688,0.000215787,-0.00107288,-0.0013262,-0.000167638,0.0310611,1.24627,5,0.1,7,6.7,-1.79966,1.74141,0.599992,0.0032125,-0.334599,1.39698e-05,0.0302419,0.161588,7.45058e-06,0.00919007,0.427085,5,0.1,8,6.7,-1.0035,1.67028,0.59945,0.00542216,-0.140074,0.00192132,0.390843,-0.0332817,-0.00457466,0.0141435,3.58497,5,0.1,9,6.7,1.41947,0.852879,0.605138,0.159422,0.379925,0.00404734,-0.216492,-0.0702515,-0.00613183,0.0197026,0.200187,5,0.1
0,6.8,-1.66467,0.124029,0.898818,0.0245959,-0.359596,0.00187308,-0.0314116,-0.0834352,-0.00268221,0.00945602,0.63498,5,0.1,1,6.8,1.2,0.52039,0.599952,5.96046e-06,0.294499,0.000326335,0,-0.0870526,-0.0012219,0.012265,0.099355,5,0.1,2,6.8,-4.35359,3.89124,0.520818,-0.000715256,0.000333786,-4.02331e-05,0.00166893,-0.000834465,0.000119209,0.00792226,1.18971e-07,5,0.1,3,6.8,1.58369,-1.8,0.560916,0.678241,-0.0594169,-0.0120237,-0.467122,-0.258803,0.00858307,0.00940866,0.91707,5,0.1,4,6.8,-1.55438,-1.61928,0.645503,2.38419e-05,0.000137091,-1.3411e-05,0.000119209,0.000119209,0,0.00800683,7.6254e-09,5,0.1,5,6.8,1.25167,-0.2,0.599905,-0.0426084,0.0993397,7.59959e-05,0.0228286,-0.159584,-5.96046e-05,0.00989537,0.342966,5,0.1,6,6.8,-1.2551,1.34808,0.749766,0.861418,0.00169277,0.000199676,-0.0921488,-0.00137091,-0.000178814,0.0290497,0.926707,5,0.1,7,6.8,-1.79921,1.70881,0.599994,0.00560582,-0.31656,1.49012e-05,0.0120997,0.207424,0,0.0114735,2.22101,5,0.1,8,6.8,-1,1.6561,0.59962,0.0744417,-0.143343,0.00149161,0.962526,-0.0226498,-0.00399351,0.0119274,3.13414,5,0.1,9,6.8,1.43406,0.890417,0.605506,0.130033,0.369501,0.00326335,-0.352561,-0.149071,-0.00914931,0.0223202,0.259251,5,0.1
0,6.9,-1.66236,0.0871734,0.898993,0.0215108,-0.381098,0.00161733,-0.0304356,-0.299484,-0.00245869,0.00945602,0.63498,5,0.1,1,6.9,1.2,0.549627,0.599979,5.7742e-06,0.291873,0.000217464,-7.45058e-06,0.011187,-0.0009574,0.012265,0.099355,5,0.1,2,6.9,-4.35365,3.89127,0.520814,-0.000548363,0.000252202,-2.87779e-05,0.00166893,-0.000789762,0.000108033,0.00792226,1.18971e-07,5,0.1,3,6.9,1.64931,-1.80795,0.559754,0.63493,-0.105241,-0.0112296,-0.420235,-0.602514,0.00767782,0.00940866,0.91707,5,0.1,4,6.9,-1.55437,-1.61927,0.645502,3.22238e-05,0.00014361,-1.30385e-05,5.21541e-05,7.45058e-06,7.45058e-06,0.00800683,7.6254e-09,5,0.1,5,6.9,1.24749,-0.189995,0.599912,-0.0412723,0.108061,7.21775e-05,0.0070855,0.279732,-1.86265e-05,0.00989537,0.342966,5,0.1,6,6.9,-1.16915,1.34824,0.749785,0.858938,0.00156965,0.000183843,-0.00584126,-0.00113994,-0.000141561,0.0290497,0.926707,5,0.1,7,6.9,-1.79833,1.67813,0.599995,0.0130713,-0.29735,1.44355e-05,0.078097,0.186868,-1.11759e-05,0.0114735,2.22101,5,0.1,8,6.9,-0.986486,1.64159,0.59975,0.205545,-0.147152,0.00112448,1.54793,-0.0433251,-0.00336021,0.0119274,3.13414,5,0.1,9,6.9,1.4449,0.926901,0.605778,0.0836335,0.362271,0.0020951,-0.544578,-0.0236258,-0.0134856,0.0223202,0.259251,5,0.1
0,7,-1.66036,0.0475278,0.899142,0.0184834,-0.411296,0.00137985,-0.03016,-0.269625,-0.00235438,0.0101798,1.58388,5,0.1,1,7,1.2,0.578876,0.599996,5.96046e-06,0.292705,0.00013411,-5.96046e-05,-0.0115931,-0.000745058,0.0158372,0.0850857,5,0.1,2,7,-4.3537,3.89129,0.520812,-0.000393391,0.000178814,-1.93715e-05,0.00166893,-0.000715256,8.9407e-05,0.0110043,1.12073e-07,5,0.1,3,7,1.71064,-1.82168,0.55867,0.590634,-0.170195,-0.0104249,-0.480235,-0.654578,0.00864267,0.00696927,0.715066,5,0.1,4,7,-1.55437,-1.61925,0.645501,3.57628e-05,0.000140071,-1.19209e-05,0,-5.96046e-05,0,0.00634159,2.95219e-09,5,0.1,5,7,1.2434,-0.177434,0.59992,-0.0406414,0.145654,7.00355e-05,0.00804663,0.430077,0,0.0117614,0.235214,5,0.1,6,7,-1.08347,1.34839,0.749802,0.852016,0.00145137,0.000169873,-0.166595,-0.00119209,-0.000119209,0.0283298,2.6637,5,0.1,7,7,-1.79688,1.64936,0.599997,0.0126094,-0.277489,1.3411e-05,-0.114381,0.217319,-2.98023e-05,0.0110104,2.05667,5,0.1,8,7,-0.957983,1.6267,0.599847,0.364435,-0.150257,0.000818074,1.54552,-0.0116229,-0.00274181,0.011946,2.66676,5,0.1,9,7,1.45043,0.963028,0.605918,0.0265777,0.359917,0.000692904,-0.572801,-0.0439584,-0.0139773,0.0216897,0.181719,5,0.1
0,7.1,-1.65882,0.00423646,0.899269,0.0111852,-0.460719,0.00116136,-0.106096,-0.642868,-0.00204146,0.0101798,1.58388,5,0.1,1,7.1,1.2,0.608269,0.600006,9.31323e-07,0.296353,6.97561e-05,-3.72529e-05,0.0607818,-0.000547618,0.0158372,0.0850857,5,0.1,2,7.1,-4.35373,3.8913,0.52081,-0.000237674,0.000111386,-1.09896e-05,0.00146031,-0.000610948,7.45058e-05,0.0110043,1.12073e-07,5,0.1,3,7.1,1.76744,-1.84221,0.557669,0.546283,-0.241714,-0.00962773,-0.424415,-0.734061,0.00761077,0.00696927,0.715066,5,0.1,4,7.1,-1.55437,-1.61924,0.645499,3.39001e-05,0.000130758,-1.14553e-05,-4.47035e-05,-0.000119209,1.11759e-05,0.00634159,2.95219e-09,5,0.1,5,7.1,1.23936,-0.160446,0.599927,-0.0401096,0.195888,7.0408e-05,0.00467151,0.538232,7.45058e-06,0.0117614,0.235214,5,0.1,6,7.1,-0.998828,1.34835,0.750049,0.842416,-0.00392739,0.00668261,-0.0717044,-0.0947192,0.115871,0.0283298,2.6637,5,0.1,7,7.1,-1.79646,1.62264,0.599998,-0.00885576,-0.257413,1.05239e-05,-0.385687,0.192598,-2.6077e-05,0.0110104,2.05667,5,0.1,8,7.1,-0.913404,1.61158,0.599916,0.528988,-0.152274,0.000572018,1.65814,-0.0200868,-0.00219047,0.011946,2.66676,5,0.1,9,7.1,1.45019,0.998706,0.60592,-0.0314089,0.352522,-0.000609923,-0.568025,-0.111058,-0.011865,0.0216897,0.181719,5,0.1
0,7.2,-1.65829,-0.045152,0.899375,-0.00100732,-0.526608,0.000970066,-0.130236,-0.61824,-0.00184774,0.00933706,2.04399,5,0.1,1,7.2,1.2,0.638168,0.600011,-2.98023e-06,0.300798,2.38419e-05,0,0.0111759,-0.000357628,0.0158967,0.119716,5,0.1,2,7.2,-4.35375,3.89131,0.52081,-0.000107288,5.96046e-05,-4.47035e-06,0.00119209,-0.000596046,5.96046e-05,0.00748121,7.52636e-08,5,0.1,3,7.2,1.81992,-1.8699,0.556744,0.502774,-0.309804,-0.00885129,-0.457942,-0.597596,0.00819564,0.00639759,0.53805,5,0.1,4,7.2,-1.55436,-1.61923,0.645498,2.98023e-05,0.000116229,-1.04308e-05,-5.96046e-05,-0.000178814,0,0.00654116,2.06204e-09,5,0.1,5,7.2,1.23538,-0.138233,0.599934,-0.039354,0.247001,7.00355e-05,0.0119209,0.457414,0,0.0108164,0.152331,5,0.1,6,7.2,-0.915098,1.34741,0.751389,0.829788,-0.0154167,0.0207663,-0.213474,-0.126064,0.154525,0.0330575,2.4183,5,0.1,7,7.2,-1.8,1.59788,0.599999,-0.0688821,-0.237551,7.45058e-06,-0.787675,0.210345,0,0.00955897,1.7741,5,0.1,8,7.2,-0.852619,1.59629,0.599963,0.681028,-0.152814,0.000378489,1.31968,0.0153184,-0.00169873,0.0105619,2.37367,5,0.1,9,7.2,1.44434,1.03325,0.605805,-0.0837833,0.33659,-0.00164658,-0.46587,-0.211596,-0.00870228,0.0205592,0.222014,5,0.1
0,7.3,-1.65922,-0.101354,0.899464,-0.0190416,-0.600169,0.000802055,-0.215583,-0.784745,-0.00152737,0.00933706,2.04399,5,0.1,1,7.3,1.2,0.668496,0.600012,-2.98023e-06,0.307059,-5.40167e-06,0,0.0893362,-0.000230968,0.0158967,0.119716,5,0.1,2,7.3,-4.35375,3.89132,0.52081,-2.23517e-06,7.45058e-06,9.31323e-07,0.000923872,-0.000447035,4.47035e-05,0.00748121,7.52636e-08,5,0.1,3,7.3,1.86805,-1.90389,0.555898,0.460697,-0.369442,-0.00809953,-0.398338,-0.563093,0.0071004,0.00639759,0.53805,5,0.1,4,7.3,-1.55436,-1.61922,0.645497,2.30968e-05,9.74163e-05,-9.96515e-06,-7.45058e-05,-0.000201166,1.11759e-05,0.00654116,2.06204e-09,5,0.1,5,7.3,1.2315,-0.111258,0.599941,-0.0381725,0.291779,6.98492e-05,0.0130162,0.414878,-7.45058e-06,0.0108164,0.152331,5,0.1,6,7.3,-0.833392,1.34518,0.754373,0.801923,-0.0295769,0.0398922,-0.357505,-0.148982,0.213977,0.0330575,2.4183,5,0.1,7,7.3,-1.81172,1.57511,0.599999,-0.172241,-0.218207,7.07805e-06,-1.19656,0.183553,-7.45058e-06,0.00955897,1.7741,5,0.1,8,7.3,-0.778647,1.58098,0.599993,0.790551,-0.154338,0.000229757,0.85067,-0.0330433,-0.00128523,0.0105619,2.37367,5,0.1,9,7.3,1.43343,1.06597,0.605596,-0.135735,0.318826,-0.00253031,-0.54244,-0.158772,-0.00859424,0.0205592,0.222014,5,0.1
0,7.4,-1.66224,-0.165109,0.899537,-0.0415027,-0.671797,0.000660121,-0.222147,-0.598453,-0.0013411,0.0098672,2.91067,5,0.1,1,7.4,1.2,0.699612,0.60001,-2.98023e-06,0.314413,-2.23517e-05,0,0.0399649,-0.000149012,0.0142292,0.0712685,5,0.1,2,7.4,-4.35375,3.89132,0.52081,7.15256e-05,-2.98023e-05,4.47035e-06,0.000715256,-0.000357628,2.98023e-05,0.00760314,4.11238e-08,5,0.1,3,7.4,1.91212,-1.94338,0.555123,0.420609,-0.416991,-0.007388,-0.413656,-0.365734,0.00736117,0.00818745,0.386826,5,0.1,4,7.4,-1.55436,-1.61921,0.645496,1.78814e-05,7.7486e-05,-8.9407e-06,-0.000119209,-0.000178814,2.98023e-05,0.00742395,2.26356e-09,5,0.1,5,7.4,1.22776,-0.0802322,0.599948,-0.0365317,0.326059,6.85453e-05,0.0206828,0.254802,-2.98023e-05,0.0136368,0.0873933,5,0.1,6,7.4,-0.755314,1.34149,0.759435,0.756179,-0.0437915,0.0611126,-0.564843,-0.129461,0.199974,0.0273961,2.22937,5,0.1,7,7.4,-1.83504,1.55421,0.6,-0.293654,-0.199655,5.96046e-06,-1.16932,0.192344,0,0.00832258,1.429,5,0.1,8,7.4,-0.696211,1.56538,0.60001,0.849475,-0.157222,0.000119209,0.331014,-0.0153184,-0.00089407,0.0105365,2.0193,5,0.1,9,7.4,1.41722,1.09705,0.605302,-0.186953,0.302261,-0.00329912,-0.459492,-0.183225,-0.00649691,0.0181236,0.139441,5,0.1
0,7.5,-1.66719,-0.235331,0.899596,-0.0548555,-0.731902,0.000538491,-0.0668988,-0.555416,-0.00110269,0.0098672,2.91067,5,0.1,1,7.5,1.2,0.731283,0.600007,-2.98023e-06,0.318908,-3.29688e-05,0,0.0340939,-6.70552e-05,0.0142292,0.0712685,5,0.1,2,7.5,-4.35374,3.89131,0.52081,0.000128895,-5.84871e-05,6.98492e-06,0.000447035,-0.000223517,1.86265e-05,0.00760314,4.11238e-08,5,0.1,3,7.5,1.95225,-1.98686,0.554419,0.382795,-0.451654,-0.00671642,-0.354953,-0.302382,0.00628456,0.00818745,0.386826,5,0.1,4,7.5,-1.55436,-1.6192,0.645496,7.07805e-06,5.96046e-05,-6.0536e-06,-8.9407e-05,-0.000178814,2.6077e-05,0.00742395,2.26356e-09,5,0.1,5,7.5,1.22421,-0.0464592,0.599954,-0.0344301,0.347966,6.5472e-05,0.0221506,0.169144,-3.35276e-05,0.0136368,0.0873933,5,0.1,6,7.5,-0.682806,1.33676,0.766573,0.69124,-0.0481524,0.0816597,-0.72886,0.0291914,0.200719,0.0273961,2.22937,5,0.1,7,7.5,-1.87049,1.53515,0.600001,-0.416321,-0.182053,5.86733e-06,-1.2212,0.165552,-3.72529e-06,0.00832258,1.429,5,0.1,8,7.5,-0.61025,1.5496,0.600018,0.864991,-0.158076,4.34928e-05,0.0413731,0.0038594,-0.000622123,0.0105365,2.0193,5,0.1,9,7.5,1.39626,1.12641,0.604941,-0.231401,0.28517,-0.00389805,-0.409909,-0.168294,-0.00524148,0.0181236,0.139441,5,0.1
0,7.6,-1.67289,-0.310903,0.899645,-0.0585169,-0.774739,0.000436604,-0.0206232,-0.268117,-0.000923872,0.00980492,2.86348,5,0.1,1,7.6,1.2,0.763229,0.600004,-2.98023e-06,0.318572,-3.72529e-05,0,-0.0516474,0,0.0184702,0.0537815,5,0.1,2,7.6,-4.35372,3.8913,0.520811,0.000166893,-7.15256e-05,7.45058e-06,0,-0.000119209,2.98023e-05,0.00618688,1.14887e-08,5,0.1,3,7.6,1.98877,-2.03327,0.553778,0.347528,-0.473261,-0.00609308,-0.359237,-0.112891,0.00631809,0.00682318,0.267796,5,0.1,4,7.6,-1.55436,-1.6192,0.645495,0,4.17233e-05,-2.98023e-06,-5.96046e-05,-0.000119209,0,0.0122304,1.75993e-09,5,0.1,5,7.6,1.22089,-0.0110526,0.599961,-0.031966,0.357568,6.10948e-05,0.027597,0.013898,-5.96046e-05,0.00988194,0.0599853,5,0.1,6,7.6,-0.61756,1.33226,0.775675,0.611515,-0.0403225,0.0995055,-0.859559,0.116765,0.149012,0.0275677,1.99255,5,0.1,7,7.6,-1.91789,1.51776,0.600001,-0.527114,-0.165549,4.47035e-06,-0.9498,0.168681,2.98023e-05,0.00861443,1.0878,5,0.1,8,7.6,-0.523668,1.53388,0.60002,0.866026,-0.15552,-7.45058e-06,0,0.0508428,-0.00038743,0.0102842,1.61485,5,0.1,9,7.6,1.37129,1.15404,0.604529,-0.265649,0.266972,-0.00430644,-0.261605,-0.202119,-0.00283122,0.0188307,0.0814641,5,0.1
0,7.7,-1.67861,-0.389792,0.899684,-0.0546396,-0.802636,0.000354927,0.0474453,-0.246061,-0.000718981,0.00980492,2.86348,5,0.1,1,7.7,1.2,0.794901,0.6,-2.98023e-06,0.315163,-3.51109e-05,0,-0.0330694,4.09782e-05,0.0184702,0.0537815,5,0.1,2,7.7,-4.35371,3.8913,0.520812,0.000163168,-7.86036e-05,9.49949e-06,-8.9407e-05,-4.47035e-05,7.45058e-06,0.00618688,1.14887e-08,5,0.1,3,7.7,2.02184,-2.08112,0.553198,0.314846,-0.482994,-0.00551902,-0.304721,-0.0616014,0.00534952,0.00682318,0.267796,5,0.1,4,7.7,-1.55436,-1.61919,0.645495,-5.02914e-06,2.98023e-05,-2.6077e-06,-3.72529e-05,-0.000119209,7.45058e-06,0.0122304,1.75993e-09,5,0.1,5,7.7,1.21782,0.0247682,0.599966,-0.0293747,0.358402,5.56e-05,0.0251085,-0.0123986,-4.84288e-05,0.00988194,0.0599853,5,0.1,6,7.7,-0.560554,1.32951,0.786253,0.529916,-0.00902787,0.110836,-0.780236,0.463471,0.0765286,0.0275677,1.99255,5,0.1,7,7.7,-1.97533,1.502,0.600002,-0.62009,-0.150186,6.51926e-06,-0.861317,0.143476,7.45058e-06,0.00861443,1.0878,5,0.1,8,7.7,-0.437492,1.51858,0.600017,0.853588,-0.150318,-3.7998e-05,-0.234671,0.0578687,-0.000230968,0.0102842,1.61485,5,0.1,9,7.7,1.34369,1.17975,0.604086,-0.283594,0.247341,-0.00452884,-0.0957474,-0.196628,-0.00147521,0.0188307,0.0814641,5,0.1
0,7.8,-1.68403,-0.470956,0.899716,-0.0563532,-0.816575,0.000290573,-0.104189,-0.00274181,-0.000625849,0.0102433,2.78454,5,0.1,1,7.8,1.2,0.826172,0.599997,-2.98023e-06,0.309172,-3.12924e-05,0,-0.0980198,8.9407e-05,0.0136187,0.133286,5,0.1,2,7.8,-4.35369,3.89129,0.520813,0.000143051,-7.15256e-05,1.04308e-05,0,-0.000119209,0,0.0061462,1.21447e-08,5,0.1,3,7.8,2.05182,-2.12951,0.552673,0.284833,-0.482237,-0.00499338,-0.30303,0.0902414,0.00530481,0.00631699,0.180719,5,0.1,4,7.8,-1.55436,-1.61919,0.645495,-8.9407e-06,1.78814e-05,-1.49012e-06,0,-0.000119209,0,0.00846068,1.43021e-09,5,0.1,5,7.8,1.21501,0.0604023,0.599972,-0.0267953,0.352579,4.91738e-05,0.0270605,-0.113974,-2.98023e-05,0.0124359,0.0901486,5,0.1,6,7.8,-0.511383,1.33119,0.797593,0.454161,0.0442654,0.114699,-0.740111,0.5669,0.000655651,0.0274063,1.71416,5,0.1,7,7.8,-2.04117,1.48769,0.600003,-0.691217,-0.136015,7.45058e-06,-0.527978,0.14329,0,0.00828385,0.782235,5,0.1,8,7.8,-0.353616,1.50388,0.600012,0.821005,-0.143173,-5.51343e-05,-0.411943,0.0879765,-8.9407e-05,0.0096366,1.32201,5,0.1,9,7.8,1.31513,1.20347,0.603629,-0.284705,0.226638,-0.00457913,0.0730157,-0.22155,0.000536442,0.00709175,0.368533,5,0.1
0,7.9,-1.69034,-0.55275,0.899743,-0.0736259,-0.819474,0.000237208,-0.321433,-0.0148527,-0.000458211,0.0102433,2.78454,5,0.1,1,7.9,1.2,0.856762,0.599994,-2.98023e-06,0.30376,-2.28174e-05,0,-0.0298768,7.82311e-05,0.0136187,0.133286,5,0.1,2,7.9,-4.35368,3.89128,0.520814,0.000138581,-7.6741e-05,9.96515e-06,-0.000119209,0,-1.11759e-05,0.0061462,1.21447e-08,5,0.1,3,7.9,2.07889,-2.17728,0.552198,0.25738,-0.472782,-0.00451328,-0.254631,0.115365,0.00445172,0.00631699,0.180719,5,0.1,4,7.9,-1.55436,-1.61919,0.645494,-8.9407e-06,6.89179e-06,-1.39698e-06,0,-9.68575e-05,3.72529e-06,0.00846068,1.43021e-09,5,0.1,5,7.9,1.21247,0.0952442,0.599976,-0.0240609,0.34527,4.57279e-05,0.0278354,-0.0526964,-4.09782e-05,0.0124359,0.0901486,5,0.1,6,7.9,-0.469026,1.33904,0.808913,0.398479,0.117344,0.110311,-0.409596,0.838116,-0.0833832,0.0274063,1.71416,5,0.1,7,7.9,-2.11285,1.47476,0.600003,-0.740388,-0.123019,6.98492e-06,-0.417322,0.120714,-1.11759e-05,0.00828385,0.782235,5,0.1,8,7.9,-0.274102,1.48999,0.600007,0.766848,-0.134694,-6.01634e-05,-0.567309,0.0855178,-1.49012e-05,0.0096366,1.32201,5,0.1,9,7.9,1.28777,1.22567,0.603191,-0.256004,0.222568,-0.00404753,0.462875,0.0972152,0.00920147,0.00709175,0.368533,5,0.1
0,8,-1.7,-0.634521,0.899764,-0.126269,-0.812726,0.000196695,-0.707626,0.177592,-0.000357628,0.0104159,2.53959,5,0.1,1,8,1.2,0.886969,0.599992,-2.98023e-06,0.299819,-1.63913e-05,5.96046e-05,-0.0630319,8.9407e-05,0.0130813,0.170327,5,0.1,2,8,-4.35366,3.89127,0.520815,0.000119209,-7.15256e-05,8.9407e-06,0,0,-2.98023e-05,0.0115207,1.44217e-08,5,0.1,3,8,2.10338,-2.22383,0.551769,0.23244,-0.456429,-0.00407845,-0.25022,0.222564,0.00441074,0.00682015,0.120269,5,0.1,4,8,-1.55436,-1.61919,0.645494,-8.9407e-06,0,-1.49012e-06,5.96046e-05,-0.000119209,2.98023e-05,0.0072072,1.48039e-09,5,0.1,5,8,1.21021,0.129471,0.599981,-0.0211984,0.338534,4.17233e-05,0.0295043,-0.0966042,-5.96046e-05,0.0120259,0.16293,5,0.1,6,8,-0.430924,1.35503,0.819423,0.365869,0.201982,0.098969,-0.270277,0.812054,-0.139058,0.0228146,1.40813,5,0.1,7,8,-2.18853,1.46305,0.600004,-0.768322,-0.111172,5.96046e-06,-0.115871,0.11903,0,0.0101962,0.53872,5,0.1,8,8,-0.2,1.47697,0.600001,0.718017,-0.125417,-5.96046e-05,-0.408462,0.102639,5.96046e-05,0.00810302,1.05352,5,0.1,9,8,1.26487,1.24865,0.60284,-0.199011,0.238505,-0.00289828,0.646293,0.188708,0.0130236,0.00526004,0.251494,5,0.1
0,8.1,-1.71713,-0.715055,0.899782,-0.223848,-0.798519,0.000167266,-1.15622,0.143033,-0.000238419,0.0104159,2.53959,5,0.1,1,8.1,1.2,0.916985,0.599991,1.86265e-06,0.30314,-8.10251e-06,2.98023e-05,0.0971742,7.07805e-05,0.0130813,0.170327,5,0.1,2,8.1,-4.35365,3.89127,0.520816,0.000114739,-6.66827e-05,6.0536e-06,-0.000119209,7.45058e-05,-2.6077e-05,0.0115207,1.44217e-08,5,0.1,3,8.1,2.12546,-2.2684,0.551381,0.209851,-0.434893,-0.00368105,-0.208735,0.221878,0.00366941,0.00682015,0.120269,5,0.1,4,8.1,-1.55436,-1.61919,0.645494,-4.09782e-06,-1.00583e-05,1.02445e-06,2.98023e-05,-7.45058e-05,1.86265e-05,0.0072072,1.48039e-09,5,0.1,5,8.1,1.20823,0.163158,0.599985,-0.018326,0.33758,3.58559e-05,0.0280514,0.0467338,-5.58794e-05,0.0120259,0.16293,5,0.1,6,8.1,-0.394954,1.37949,0.828508,0.359529,0.288072,0.0817538,0.0907667,0.864193,-0.197586,0.0228146,1.40813,5,0.1,7,8.1,-2.26589,1.45248,0.600004,-0.777461,-0.100414,5.4948e-06,-0.0361949,0.0995249,-1.11759e-05,0.0101962,0.53872,5,0.1,8,8.1,-0.129538,1.46492,0.599995,0.696685,-0.115749,-5.24335e-05,-0.0787036,0.0940189,7.82311e-05,0.00810302,1.05352,5,0.1,9,8.1,1.24822,1.27376,0.602618,-0.134034,0.26598,-0.00153873,0.63993,0.325225,0.0137389,0.00526004,0.251494,5,0.1
0,8.2,-1.74545,-0.794005,0.899798,-0.342131,-0.777955,0.000146031,-1.1434,0.293463,-0.000178814,0.0103013,1.98036,5,0.1,1,8.2,1.2,0.947831,0.59999,5.96046e-06,0.31364,-1.49012e-06,-5.96046e-05,0.0889897,5.96046e-05,0.0137992,0.14761,5,0.1,2,8.2,-4.35364,3.89126,0.520816,9.53674e-05,-5.96046e-05,2.98023e-06,-0.000238419,0.000238419,0,0.0067864,1.17355e-08,5,0.1,3,8.2,2.14542,-2.31069,0.551031,0.189471,-0.409776,-0.00332296,-0.204086,0.289679,0.00354648,0.00648231,0.136326,5,0.1,4,8.2,-1.55436,-1.61919,0.645494,0,-1.49012e-05,2.98023e-06,0,-5.96046e-05,0,0.00822678,1.1254e-09,5,0.1,5,8.2,1.20654,0.197179,0.599988,-0.0155658,0.342542,2.98023e-05,0.0271201,0.0299215,-5.96046e-05,0.0119406,0.0994283,5,0.1,6,8.2,-0.358308,1.4124,0.835651,0.374754,0.366992,0.060825,0.173762,0.68152,-0.214905,0.0269141,1.09182,5,0.1,7,8.2,-2.34348,1.44293,0.600005,-0.770462,-0.0906855,5.96046e-06,0.196338,0.0975132,-5.96046e-05,0.00676041,0.360873,5,0.1,8,8.2,-0.0601271,1.45383,0.59999,0.691746,-0.106058,-4.32134e-05,-0.0648594,0.102162,8.9407e-05,0.00799685,0.798391,5,0.1,9,8.2,1.23792,1.30197,0.602531,-0.0733316,0.297382,-0.000225008,0.564277,0.276625,0.0122488,0.00695324,0.204178,5,0.1
0,8.3,-1.78566,-0.870452,0.899812,-0.463341,-0.751411,0.000131782,-1.21426,0.267033,-0.000115484,0.0103013,1.98036,5,0.1,1,8.3,1.2,0.97969,0.599991,1.11759e-06,0.323562,3.53903e-06,-2.98023e-05,0.0910684,3.72529e-05,0.0137992,0.14761,5,0.1,2,8.3,-4.35363,3.89126,0.520817,7.15256e-05,-3.61353e-05,2.8871e-06,-0.000238419,0.000223517,-3.72529e-06,0.0067864,1.17355e-08,5,0.1,3,8.3,2.16352,-2.35049,0.550714,0.173813,-0.388325,-0.00305176,-0.121146,0.164226,0.00208616,0.00648231,0.136326,5,0.1,4,8.3,-1.55436,-1.61919,0.645495,-1.86265e-07,-1.95578e-05,2.98023e-06,-7.45058e-06,-2.23517e-05,0,0.00822678,1.1254e-09,5,0.1,5,8.3,1.20511,0.231666,0.599991,-0.0129882,0.347506,2.43075e-05,0.0245124,0.0493444,-4.84288e-05,0.0119406,0.0994283,5,0.1,6,8.3,-0.319953,1.4525,0.840794,0.392095,0.434065,0.043251,0.159249,0.624895,-0.14092,0.0269141,1.09182,5,0.1,7,8.3,-2.41955,1.43431,0.600005,-0.7504,-0.0818986,9.31323e-07,0.230163,0.0810623,-3.72529e-05,0.00676041,0.360873,5,0.1,8,8.3,0.00906774,1.4437,0.599986,0.694377,-0.0965701,-3.41795e-05,0.0700992,0.0903979,9.31323e-05,0.00799685,0.798391,5,0.1,9,8.3,1.23319,1.33324,0.602567,-0.0232941,0.328674,0.000914093,0.435539,0.319399,0.0103377,0.00695324,0.204178,5,0.1
0,8.4,-1.83773,-0.944105,0.899825,-0.573555,-0.719564,0.00012219,-0.942349,0.390172,-0.000119209,0.00936256,1.47633,5,0.1,1,8.4,1.2,1.01238,0.599991,-2.98023e-06,0.328746,5.96046e-06,5.96046e-05,-0.000119209,5.96046e-05,0.0113037,0.232121,5,0.1,2,8.4,-4.35363,3.89125,0.520817,4.76837e-05,-1.78814e-05,1.49012e-06,-0.000238419,0.000119209,2.98023e-05,0.00673723,8.70531e-09,5,0.1,3,8.4,2.18035,-2.38854,0.550418,0.163138,-0.37263,-0.00286698,-0.101447,0.167847,0.00172853,0.00830152,0.079115,5,0.1,4,8.4,-1.55436,-1.61919,0.645495,0,-2.08616e-05,2.98023e-06,0,0,0,0.00983954,9.10166e-10,5,0.1,5,8.4,1.20393,0.266561,0.599993,-0.0106484,0.349019,1.93715e-05,0.0223517,-0.0330061,-5.96046e-05,0.0100842,0.0781557,5,0.1,6,8.4,-0.28007,1.4987,0.844507,0.404035,0.486049,0.0318468,0.0676584,0.390768,-0.0907481,0.0257508,0.842587,5,0.1,7,8.4,-2.49322,1.42652,0.600005,-0.720245,-0.0739932,-2.98023e-06,0.389814,0.0792146,0,0.00791698,0.238291,5,0.1,8,8.4,0.0787603,1.4345,0.599983,0.697636,-0.0875056,-2.5332e-05,-0.0388253,0.0928044,8.9407e-05,0.0109073,0.809914,5,0.1,9,8.4,1.23282,1.36757,0.602705,0.0137091,0.356165,0.00181049,0.304699,0.209153,0.00745058,0.00517374,0.176817,5,0.1
0,8.5,-1.8998,-1.01423,0.899836,-0.666333,-0.683477,0.000112783,-0.861883,0.355873,-7.07805e-05,0.00936256,1.47633,5,0.1,1,8.5,1.2,1.04544,0.599992,7.45058e-07,0.333556,1.06171e-05,2.98023e-05,0.0717342,3.72529e-05,0.0113037,0.232121,5,0.1,2,8.5,-4.35362,3.89125,0.520817,2.45869e-05,-5.96046e-06,3.53903e-06,-0.000208616,0.000119209,7.45058e-06,0.00673723,8.70531e-09,5,0.1,3,8.5,2.19623,-2.42507,0.550139,0.154936,-0.358431,-0.00272756,-0.0705868,0.132352,0.00120327,0.00830152,0.079115,5,0.1,4,8.5,-1.55436,-1.6192,0.645495,-1.86265e-07,-1.99303e-05,2.98023e-06,-7.45058e-06,2.23517e-05,0,0.00983954,9.10166e-10,5,0.1,5,8.5,1.20297,0.301406,0.599995,-0.00857823,0.348425,1.39698e-05,0.019148,0.000404194,-4.47035e-05,0.0100842,0.0781557,5,0.1,6,8.5,-0.239712,1.54888,0.847315,0.400796,0.513737,0.0250012,-0.0782935,0.162944,-0.0495389,0.0257508,0.842587,5,0.1,7,8.5,-2.56336,1.41949,0.600005,-0.682702,-0.0668718,-2.98023e-06,0.382096,0.0655577,0,0.00791698,0.238291,5,0.1,8,8.5,0.148658,1.42618,0.599981,0.702389,-0.078975,-1.68569e-05,0.0864796,0.0801831,7.82311e-05,0.0109073,0.809914,5,0.1,9,8.5,1.23553,1.40432,0.602921,0.038751,0.379138,0.00248412,0.197791,0.223719,0.00585988,0.00517374,0.176817,5,0.1
0,8.6,-1.97026,-1.08069,0.899847,-0.737265,-0.644299,0.000105798,-0.521481,0.444353,-5.96046e-05,0.00923694,1.05051,5,0.1,1,8.6,1.2,1.07911,0.599993,0,0.338864,1.3411e-05,0,0.0168681,0,0.0137887,0.245005,5,0.1,2,8.6,-4.35362,3.89125,0.520817,0,0,4.47035e-06,0,0.000238419,0,0.00980848,8.43403e-09,5,0.1,3,8.6,2.21136,-2.4602,0.549872,0.147647,-0.343406,-0.00260174,-0.0810623,0.179529,0.00137091,0.00646208,0.060685,5,0.1,4,8.6,-1.55436,-1.6192,0.645496,0,-1.78814e-05,1.49012e-06,0,0,2.98023e-05,0.00700977,8.38714e-10,5,0.1,5,8.6,1.20221,0.336167,0.599996,-0.00680089,0.345594,1.04308e-05,0.0165105,-0.071317,-2.98023e-05,0.0133638,0.109163,5,0.1,6,8.6,-0.2,1.60069,0.849612,0.393811,0.518599,0.021334,-0.0611842,-0.0659227,-0.0265241,0.0238281,0.64522,5,0.1,7,8.6,-2.62959,1.41312,0.600005,-0.640321,-0.0604808,-2.98023e-06,0.479579,0.064075,0,0.00905418,0.186493,5,0.1,8,8.6,0.219218,1.41868,0.59998,0.706808,-0.0710666,-8.9407e-06,-0.0319481,0.0796914,5.96046e-05,0.00676413,0.850816,5,0.1,9,8.6,1.24023,1.4432,0.603195,0.0536382,0.396386,0.00295788,0.101864,0.102699,0.00345707,0.00535757,0.162484,5,0.1
0,8.7,-2.04652,-1.14303,0.899858,-0.786055,-0.603133,0.000101048,-0.413857,0.399128,-4.09782e-05,0.00923694,1.05051,5,0.1,1,8.7,1.2,1.11316,0.599994,-1.86265e-07,0.342598,1.29454e-05,-7.45058e-06,0.0383928,-1.11759e-05,0.0137887,0.245005,5,0.1,2,8.7,-4.35362,3.89125,0.520818,-7.45058e-07,1.9744e-05,4.00469e-06,-2.98023e-05,0.00013411,-1.11759e-05,0.00980848,8.43403e-09,5,0.1,3,8.7,2.22579,-2.49377,0.549618,0.141454,-0.32876,-0.00249716,-0.0510514,0.130281,0.000860542,0.00646208,0.060685,5,0.1,4,8.7,-1.55436,-1.6192,0.645496,-1.86265e-07,-1.69501e-05,3.91155e-06,-7.45058e-06,2.23517e-05,1.49012e-05,0.00700977,8.38714e-10,5,0.1,5,8.7,1.2016,0.370548,0.599997,-0.00528283,0.343211,7.91624e-06,0.0139028,0.000584871,-1.86265e-05,0.0133638,0.109163,5,0.1,6,8.7,-0.160625,1.65169,0.851654,0.395852,0.497879,0.0198307,0.0692095,-0.286609,-0.00613928,0.0238281,0.64522,5,0.1,7,8.7,-2.69133,1.40722,0.600004,-0.59511,-0.0591751,-2.98023e-06,0.442326,-0.0261366,0,0.00905418,0.186493,5,0.1,8,8.7,0.289893,1.41179,0.599979,0.707324,-0.0682458,-3.44589e-06,0.00637934,-0.0113994,4.84288e-05,0.00676413,0.850816,5,0.1,9,8.7,1.24603,1.48335,0.603508,0.0614362,0.405999,0.00329306,0.0538453,0.0707209,0.00302866,0.00535757,0.162484,5,0.1
0,8.8,-2.12675,-1.20128,0.899867,-0.813287,-0.561082,9.68575e-05,-0.103593,0.455797,-5.96046e-05,0.00786844,0.721155,5,0.1,1,8.8,1.2,1.14752,0.599996,0,0.343251,1.19209e-05,0,-0.0389218,0,0.0128224,0.312987,5,0.1,2,8.8,-4.35362,3.89126,0.520818,0,3.57628e-05,2.98023e-06,-0.000238419,0,0,0.0060964,7.73463e-09,5,0.1,3,8.8,2.23968,-2.52596,0.549372,0.136024,-0.31448,-0.00240356,-0.0634193,0.167012,0.00107288,0.00670963,0.027291,5,0.1,4,8.8,-1.55436,-1.6192,0.645496,0,-1.49012e-05,4.47035e-06,0,5.96046e-05,0,0.00664788,8.60243e-10,5,0.1,5,8.8,1.20114,0.404836,0.599997,-0.00401139,0.341756,5.96046e-06,0.0115633,-0.0461638,-2.98023e-05,0.0123491,0.184067,5,0.1,6,8.8,-0.120699,1.7,0.853622,0.401986,0.468186,0.0196472,0.0295788,-0.300109,0.000506639,0.0254882,0.481637,5,0.1,7,8.8,-2.74858,1.4011,0.600004,-0.548887,-0.063619,-2.98023e-06,0.494123,-0.0536442,0,0.00698103,0.127115,5,0.1,8,8.8,0.36048,1.40484,0.599979,0.701977,-0.0712514,1.49012e-06,-0.138506,-0.0395775,5.96046e-05,0.00722468,0.290377,5,0.1,9,8.8,1.25236,1.52412,0.603851,0.0644058,0.407383,0.0035271,0.00590086,-0.0555515,0.00154972,0.00573817,0.228689,5,0.1
0,8.9,-2.20854,-1.25524,0.899877,-0.821368,-0.519007,9.20147e-05,-0.0254065,0.40251,-4.47035e-05,0.00786844,0.721155,5,0.1,1,8.9,1.20002,1.1817,0.599997,0.000382774,0.340389,1.14553e-05,0.00631064,-0.0338629,-1.11759e-05,0.0128224,0.312987,5,0.1,2,8.9,-4.35362,3.89126,0.520819,-2.01166e-05,3.53903e-05,2.51457e-06,-0.000149012,-1.49012e-05,-1.11759e-05,0.0060964,7.73463e-09,5,0.1,3,8.9,2.25297,-2.55658,0.549137,0.129883,-0.297927,-0.0022986,-0.0637919,0.172794,0.00110641,0.00670963,0.027291,5,0.1,4,8.9,-1.55436,-1.6192,0.645497,0,-9.12696e-06,4.09782e-06,0,5.21541e-05,-7.45058e-06,0.00664788,8.60243e-10,5,0.1,5,8.9,1.20079,0.439097,0.599998,-0.00296775,0.345792,3.44589e-06,0.00935048,0.0944454,-1.86265e-05,0.0123491,0.184067,5,0.1,6,8.9,-0.0802136,1.74558,0.855609,0.408454,0.445315,0.0202199,0.0740603,-0.183254,0.00894815,0.0254882,0.481637,5,0.1,7,8.9,-2.80112,1.39439,0.600004,-0.502922,-0.0710672,-2.98023e-06,0.440076,-0.0862703,0,0.00698103,0.127115,5,0.1,8,8.9,0.429304,1.39759,0.59998,0.668558,-0.0729337,6.89179e-06,-0.496447,0.0051558,4.47035e-05,0.00722468,0.290377,5,0.1,9,8.9,1.25883,1.56405,0.604213,0.0649968,0.386144,0.00372184,0.00298768,-0.35011,0.00205263,0.00573817,0.228689,5,0.1
0,9,-2.29046,-1.30511,0.899886,-0.812954,-0.477746,8.79169e-05,0.215054,0.434339,-5.96046e-05,0.0091495,0.483779,5,0.1,1,9,1.20009,1.21547,0.599998,0.00103414,0.333863,1.04308e-05,0.00578165,-0.107348,0,0.0110199,0.277387,5,0.1,2,9,-4.35363,3.89126,0.520819,-2.38419e-05,2.98023e-05,1.49012e-06,-0.000476837,0.000119209,0,0.00652951,1.90092e-08,5,0.1,3,9,2.26561,-2.58545,0.548913,0.122535,-0.278485,-0.00216961,-0.0859499,0.221729,0.00151992,0.00707735,0.0104214,5,0.1,4,9,-1.55436,-1.6192,0.645497,-2.98023e-06,-5.96046e-06,2.98023e-06,5.96046e-05,5.96046e-05,0,0.00743479,1.14183e-09,5,0.1,5,9,1.20054,0.474162,0.599998,-0.00213087,0.355025,1.49012e-06,0.00745058,0.0664592,0,0.0108302,0.112597,5,0.1,6,9,-0.0390971,1.78921,0.857676,0.412409,0.427058,0.0210881,-0.0131106,-0.200629,0.00694394,0.0239857,0.349762,5,0.1,7,9,-2.84921,1.38686,0.600003,-0.458354,-0.079307,-2.98023e-06,0.461578,-0.0718236,0,0.00700137,0.149888,5,0.1,8,9,0.493303,1.39039,0.599981,0.608269,-0.0703961,1.04308e-05,-0.686928,0.0444651,2.98023e-05,0.00752708,0.212082,5,0.1,9,9,1.26532,1.60055,0.604594,0.0645101,0.340933,0.0038892,-0.0147223,-0.537455,0.00107288,0.00610099,0.323141,5,0.1
0,9.1,-2.3707,-1.35084,0.899894,-0.791174,-0.437847,8.29808e-05,0.247315,0.377677,-4.84288e-05,0.0091495,0.483779,5,0.1,1,9.1,1.20026,1.24836,0.599999,0.0027515,0.324015,9.96515e-06,0.0220984,-0.102222,-1.11759e-05,0.0110199,0.277387,5,0.1,2,9.1,-4.35363,3.89127,0.520819,-5.88596e-05,3.72529e-05,1.11759e-06,-0.000268221,5.96046e-05,-7.45058e-06,0.00652951,1.90092e-08,5,0.1,3,9.1,2.27743,-2.61217,0.548704,0.113699,-0.255832,-0.00201305,-0.0928044,0.23517,0.0016503,0.00707735,0.0104214,5,0.1,4,9.1,-1.55436,-1.6192,0.645498,1.86265e-06,-9.31323e-07,2.6077e-06,2.98023e-05,3.72529e-05,-7.45058e-06,0.00743479,1.14183e-09,5,0.1,5,9.1,1.20036,0.51007,0.599998,-0.00147279,0.363326,1.49012e-06,0.0057444,0.078544,0,0.0108302,0.112597,5,0.1,6,9.1,0.00214794,1.83107,0.859827,0.412661,0.411117,0.0219849,-0.0023248,-0.138924,0.00942126,0.0239857,0.349762,5,0.1,7,9.1,-2.89308,1.37843,0.600003,-0.42189,-0.0903618,-2.98023e-06,0.29394,-0.134885,0,0.00700137,0.149888,5,0.1,8,9.1,0.550403,1.38361,0.599982,0.532472,-0.0650868,1.29454e-05,-0.767341,0.0613332,1.86265e-05,0.00752708,0.212082,5,0.1,9,9.1,1.27175,1.63174,0.604991,0.0642868,0.281115,0.00407081,0.00517815,-0.642136,0.00219047,0.00610099,0.323141,5,0.1
0,9.2,-2.44835,-1.39274,0.899902,-0.759041,-0.399834,7.89762e-05,0.413179,0.392377,-8.9407e-05,0.00893414,0.320756,5,0.1,1,9.2,1.20063,1.28018,0.6,0.00441968,0.3113,8.9407e-06,0.00739098,-0.160575,0,0.0103268,0.674021,5,0.1,2,9.2,-4.35364,3.89127,0.520819,-7.15256e-05,3.57628e-05,0,-0.000238419,0.000119209,0,0.00731438,1.70718e-08,5,0.1,3,9.2,2.28831,-2.63653,0.548512,0.103658,-0.230855,-0.00183433,-0.109196,0.266671,0.00196695,0.00762035,0.00532699,5,0.1,4,9.2,-1.55436,-1.6192,0.645498,2.98023e-06,2.98023e-06,1.49012e-06,0,0,0,0.0092449,9.44148e-10,5,0.1,5,9.2,1.20024,0.546674,0.599998,-0.000971556,0.367177,1.49012e-06,0.00435114,-0.0161529,0,0.00827212,0.0625769,5,0.1,6,9.2,0.0432833,1.87145,0.862066,0.408487,0.395739,0.0227064,-0.0952584,-0.183463,0.0039041,0.0235911,0.361669,5,0.1,7,9.2,-2.9339,1.36871,0.600003,-0.395006,-0.103781,-2.98023e-06,0.262976,-0.122786,0,0.00640746,0.196637,5,0.1,8,9.2,0.6,1.37743,0.599983,0.461645,-0.0582159,1.3411e-05,-0.642449,0.0755191,2.98023e-05,0.00765024,0.163516,5,0.1,9,9.2,1.2782,1.65659,0.605409,0.064671,0.215513,0.00426322,-0.00107288,-0.656605,0.00143051,0.00744929,0.413719,5,0.1
0,9.3,-2.52226,-1.43088,0.89991,-0.719332,-0.36397,7.16187e-05,0.4033,0.336647,-6.33299e-05,0.00893414,0.320756,5,0.1,1,9.3,1.20121,1.3107,0.600001,0.00742245,0.300766,8.47504e-06,0.0255629,-0.0703558,-1.11759e-05,0.0103268,0.674021,5,0.1,2,9.3,-4.35365,3.89127,0.520819,-8.56817e-05,4.28408e-05,-3.72529e-07,-8.9407e-05,4.47035e-05,-7.45058e-06,0.00731438,1.70718e-08,5,0.1,3,9.3,2.29814,-2.6583,0.548338,0.0928946,-0.204683,-0.00164099,-0.107586,0.259683,0.0019297,0.00762035,0.00532699,5,0.1,4,9.3,-1.55436,-1.6192,0.645498,2.79397e-06,2.98023e-06,1.39698e-06,-7.45058e-06,0,-3.72529e-06,0.0092449,9.44148e-10,5,0.1,5,9.3,1.20016,0.583293,0.599999,-0.000598282,0.364666,1.49012e-06,0.00315905,-0.0471845,0,0.00827212,0.0625769,5,0.1,6,9.3,0.0838616,1.91021,0.86436,0.404459,0.38005,0.023165,-0.0116962,-0.147007,0.00403076,0.0235911,0.361669,5,0.1,7,9.3,-2.97223,1.35783,0.600003,-0.372738,-0.112658,-2.98023e-06,0.19972,-0.0537336,0,0.00640746,0.196637,5,0.1,8,9.3,0.643367,1.37199,0.599985,0.409208,-0.0506058,1.58325e-05,-0.431329,0.0765771,1.49012e-05,0.00765024,0.163516,5,0.1,9,9.3,1.28473,1.67492,0.605846,0.0664014,0.152116,0.00451254,0.0288486,-0.601612,0.00308827,0.00744929,0.413719,5,0.1
0,9.4,-2.59204,-1.46561,0.899917,-0.674659,-0.330508,6.55651e-05,0.50509,0.34076,-5.96046e-05,0.00813192,0.211996,5,0.1,1,9.4,1.20195,1.34044,0.600002,0.00564158,0.293735,8.9407e-06,-0.0731945,-0.0850558,-5.96046e-05,0.0111166,0.601814,5,0.1,2,9.4,-4.35366,3.89128,0.520819,-8.34465e-05,4.17233e-05,-1.49012e-06,0.000238419,-0.000119209,2.98023e-05,0.00831454,8.26012e-09,5,0.1,3,9.4,2.30688,-2.67747,0.548183,0.0819027,-0.178474,-0.00144392,-0.113249,0.266075,0.00202656,0.00956219,0.00163267,5,0.1,4,9.4,-1.55436,-1.6192,0.645498,2.98023e-06,2.98023e-06,1.49012e-06,-5.96046e-05,0,-2.98023e-05,0.0102413,9.95428e-10,5,0.1,5,9.4,1.20012,0.619385,0.599999,-0.000330806,0.355566,1.49012e-06,0.00208616,-0.143409,0,0.00878544,0.0434486,5,0.1,6,9.4,0.12421,1.94743,0.866688,0.401616,0.363502,0.0233039,-0.0640976,-0.195622,-0.00211596,0.0211452,0.260744,5,0.1,7,9.4,-3.0085,1.34642,0.600002,-0.352108,-0.114417,-2.98023e-06,0.225186,0.0184178,0,0.00692215,0.163419,5,0.1,8,9.4,0.682312,1.36731,0.599986,0.370991,-0.0429273,1.63913e-05,-0.351816,0.0768304,0,0.00959337,0.214054,5,0.1,9,9.4,1.29152,1.68728,0.606312,0.0692546,0.096783,0.00480115,0.0232458,-0.498831,0.00232458,0.00741368,0.463548,5,0.1
0,9.5,-2.6571,-1.49707,0.899923,-0.627087,-0.299506,6.07222e-05,0.46508,0.289083,-4.47035e-05,0.00813192,0.211996,5,0.1,1,9.5,1.20202,1.3695,0.600002,-0.0064617,0.288097,3.91155e-06,-0.203826,-0.0437275,-3.72529e-05,0.0111166,0.601814,5,0.1,2,9.5,-4.35366,3.89128,0.520819,-5.96046e-05,2.98023e-05,5.58794e-07,0.000238419,-0.000119209,7.45058e-06,0.00831454,8.26012e-09,5,0.1,3,9.5,2.31451,-2.694,0.548049,0.0707362,-0.152421,-0.00124462,-0.110403,0.255451,0.00196695,0.00956219,0.00163267,5,0.1,4,9.5,-1.55436,-1.6192,0.645498,-2.04891e-06,2.98023e-06,-1.02445e-06,-3.72529e-05,0,-1.86265e-05,0.0102413,9.95428e-10,5,0.1,5,9.5,1.20009,0.654279,0.599999,-0.000161491,0.342499,1.49012e-06,0.00134856,-0.131905,0,0.00878544,0.0434486,5,0.1,6,9.5,0.16416,1.98288,0.86901,0.397931,0.345988,0.0231273,-0.0305465,-0.168271,-0.00241399,0.0211452,0.260744,5,0.1,7,9.5,-3.04264,1.33524,0.600002,-0.331131,-0.107658,-2.98023e-06,0.205502,0.110298,0,0.00692215,0.163419,5,0.1,8,9.5,0.718198,1.36339,0.599988,0.351197,-0.0356238,1.62981e-05,-0.0828989,0.0694096,-3.72529e-06,0.00959337,0.214054,5,0.1,9,9.5,1.29864,1.69467,0.606809,0.0738706,0.0532128,0.00518328,0.0602454,-0.369266,0.00470504,0.00741368,0.463548,5,0.1
0,9.6,-2.71742,-1.52559,0.899929,-0.578493,-0.271019,5.51343e-05,0.519276,0.287592,0,0.00609738,0.140441,5,0.1,1,9.6,1.2,1.39805,0.600002,-0.0372648,0.282249,0,-0.398695,-0.084579,-2.98023e-05,0.0115977,0.506259,5,0.1,2,9.6,-4.35367,3.89128,0.520819,-3.57628e-05,1.78814e-05,1.49012e-06,0.000238419,-0.000119209,0,0.0101673,7.56626e-09,5,0.1,3,9.6,2.32104,-2.70798,0.547934,0.0597894,-0.127333,-0.00104904,-0.108719,0.246406,0.00190735,0.00957811,0.000805067,5,0.1,4,9.6,-1.55436,-1.6192,0.645498,-5.96046e-06,2.98023e-06,-2.98023e-06,0,0,0,0.00661671,5.58387e-10,5,0.1,5,9.6,1.20008,0.687796,0.599999,-5.66244e-05,0.326848,1.49012e-06,0.00077486,-0.190496,0,0.00941248,0.080476,5,0.1,6,9.6,0.203715,2.01659,0.871304,0.391947,0.327551,0.0226542,-0.103787,-0.209928,-0.007689,0.0210108,0.183209,5,0.1,7,9.6,-3.07469,1.32513,0.600002,-0.309134,-0.0935584,-2.98023e-06,0.241995,0.166059,2.98023e-05,0.00818854,0.14395,5,0.1,8,9.6,0.753085,1.36016,0.599989,0.347602,-0.0290126,1.63913e-05,-0.0182092,0.0628829,-2.98023e-05,0.0101855,0.136865,5,0.1,9,9.6,1.30633,1.69838,0.607351,0.0797689,0.0231951,0.00563562,0.0512004,-0.231802,0.0038743,0.00582871,0.468751,5,0.1
0,9.7,-2.77281,-1.55135,0.899934,-0.530209,-0.244962,5.4948e-05,0.462204,0.241734,-7.45058e-06,0.00609738,0.140441,5,0.1,1,9.7,1.19384,1.42592,0.600002,-0.0892049,0.275433,-2.51457e-06,-0.598855,-0.0645816,-1.86265e-05,0.0115977,0.506259,5,0.1,2,9.7,-4.35367,3.89129,0.520819,-1.2666e-05,6.33299e-06,1.11759e-06,0.000208616,-0.000104308,-7.45058e-06,0.0101673,7.56626e-09,5,0.1,3,9.7,2.32648,-2.71952,0.547839,0.0492528,-0.103609,-0.000863988,-0.101805,0.2276,0.00178441,0.00957811,0.000805067,5,0.1,4,9.7,-1.55436,-1.6192,0.645498,-5.96046e-06,2.98023e-06,-2.98023e-06,0,0,0,0.00661671,5.58387e-10,5,0.1,5,9.7,1.20008,0.71974,0.599999,1.30385e-06,0.313622,1.49012e-06,0.000409782,-0.0948012,0,0.00941248,0.080476,5,0.1,6,9.7,0.24246,2.04837,0.873533,0.383203,0.308403,0.021931,-0.0879262,-0.184208,-0.00759214,0.0210108,0.183209,5,0.1,7,9.7,-3.10442,1.31667,0.600001,-0.285709,-0.0752881,-5.58794e-07,0.233546,0.193909,1.49012e-05,0.00818854,0.14395,5,0.1,8,9.7,0.787836,1.35748,0.599991,0.347765,-0.0255955,1.37836e-05,0.00272691,0.0110343,-2.23517e-05,0.0101855,0.136865,5,0.1,9,9.7,1.31468,1.69976,0.607942,0.0881625,0.00632331,0.00623493,0.104271,-0.113174,0.00726804,0.00582871,0.468751,5,0.1
0,9.8,-2.82351,-1.57466,0.89994,-0.483388,-0.221273,5.36442e-05,0.485063,0.237763,-2.98023e-05,0.00760907,0.0935334,5,0.1,1,9.8,1.18188,1.45309,0.600002,-0.14981,0.267157,-2.98023e-06,-0.582218,-0.109851,-2.98023e-05,0.00659111,0.633584,5,0.1,2,9.8,-4.35367,3.89129,0.520819,0,0,0,0.000238419,-0.000119209,0,0.0128576,9.03995e-09,5,0.1,3,9.8,2.33091,-2.72877,0.547761,0.0394642,-0.0819027,-0.000691414,-0.0938177,0.206113,0.00160933,0.00792925,0.000666714,5,0.1,4,9.8,-1.55436,-1.6192,0.645497,-5.96046e-06,2.98023e-06,-2.98023e-06,5.96046e-05,0,0,0.00774604,8.82366e-10,5,0.1,5,9.8,1.20008,0.750646,0.599999,2.68221e-05,0.304301,1.49012e-06,0.000238419,-0.106782,0,0.010265,0.0672609,5,0.1,6,9.8,0.280254,2.07826,0.875683,0.371519,0.288826,0.0210002,-0.157312,-0.215173,-0.0115335,0.0186426,0.126145,5,0.1,7,9.8,-3.13179,1.31011,0.600001,-0.261253,-0.0557423,1.49012e-06,0.260234,0.192881,0,0.00915076,0.326155,5,0.1,8,9.8,0.822535,1.35492,0.599992,0.344971,-0.0258148,1.19209e-05,-0.0715852,-0.0110269,-2.98023e-05,0.00915625,0.114535,5,0.1,9,9.8,1.32403,1.69997,0.608602,0.0984699,-0.000852346,0.00694394,0.0926852,-0.0370145,0.00628829,0.00538492,0.437057,5,0.1
0,9.9,-2.86956,-1.59568,0.899945,-0.438718,-0.199805,5.06639e-05,0.421613,0.198416,-2.98023e-05,0.00760907,0.0935334,5,0.1,1,9.9,1.16524,1.47892,0.599998,-0.171894,0.246484,-0.000111759,0.0847578,-0.289835,-0.0019148,0.00659111,0.633584,5,0.1,2,9.9,-4.35367,3.89129,0.520819,2.01166e-05,-1.00583e-05,-3.72529e-07,0.000149012,-7.45058e-05,-7.45058e-06,0.0128576,9.03995e-09,5,0.1,3,9.9,2.33441,-2.73597,0.5477,0.0305712,-0.0624835,-0.000538025,-0.0837445,0.181675,0.00144914,0.00792925,0.000666714,5,0.1,4,9.9,-1.55436,-1.6192,0.645497,-1.11759e-06,2.98023e-06,-2.98023e-06,2.98023e-05,0,0,0.00774604,8.82366e-10,5,0.1,5,9.9,1.20009,0.780723,0.599999,3.72529e-05,0.298506,1.49012e-06,0,-0.0303648,0,0.010265,0.0672609,5,0.1,6,9.9,0.316678,2.10613,0.877728,0.357178,0.269096,0.019916,-0.143208,-0.188649,-0.0108182,0.0186426,0.126145,5,0.1,7,9.9,-3.15665,1.30556,0.600002,-0.236015,-0.0352195,1.39698e-06,0.248984,0.20466,-3.72529e-06,0.00915076,0.326155,5,0.1,8,9.9,0.856786,1.35206,0.599993,0.340685,-0.0334222,9.40636e-06,-0.0329614,-0.12511,-1.86265e-05,0.00915625,0.114535,5,0.1,9,9.9,1.33454,1.69976,0.609337,0.113379,-0.00273399,0.0078449,0.185661,-0.00371039,0.0106171,0.00538492,0.437057,5,0.1
