id,t,px,py,pz,vx,vy,vz,ax,ay,az,planning_time,qp_cost,planning_report,size,id,t,px,py,pz,vx,vy,vz,ax,ay,az,planning_time,qp_cost,planning_report,size,id,t,px,py,pz,vx,vy,vz,ax,ay,az,planning_time,qp_cost,planning_report,size,id,t,px,py,pz,vx,vy,vz,ax,ay,az,planning_time,qp_cost,planning_report,size,id,t,px,py,pz,vx,vy,vz,ax,ay,az,planning_time,qp_cost,planning_report,size,id,t,px,py,pz,vx,vy,vz,ax,ay,az,planning_time,qp_cost,planning_report,size,id,t,px,py,pz,vx,vy,vz,ax,ay,az,planning_time,qp_cost,planning_report,size,id,t,px,py,pz,vx,vy,vz,ax,ay,az,planning_time,qp_cost,planning_report,size,id,t,px,py,pz,vx,vy,vz,ax,ay,az,planning_time,qp_cost,planning_report,size,id,t,px,py,pz,vx,vy,vz,ax,ay,az,planning_time,qp_cost,planning_report,size
0,0,3.71228,-1.87394,0.597682,0,0,0,0,0,0,0.0135448,3.51219,5,0.1,1,0,0.752167,-0.828695,0.691887,0,0,0,0,0,0,0.0076329,3.51219,5,0.1,2,0,-3.60005,-1.69086,0.578535,0,0,0,0,0,0,0.012112,3.5122,5,0.1,3,0,-3.03483,-3.5947,0.680797,0,0,0,0,0,0,0.0178638,1.76434,5,0.1,4,0,-4.04517,-0.401542,0.660076,0,0,0,0,0,0,0.00690095,1.89672,5,0.1,5,0,2.17443,3.65817,0.579805,0,0,0,0,0,0,0.0185658,3.51219,5,0.1,6,0,-3.94344,3.91923,0.585261,0,0,0,0,0,0,0.00823923,3.5122,5,0.1,7,0,1.84324,-0.259759,0.639924,0,0,0,0,0,0,0.0073502,3.51219,5,0.1,8,0,2.24455,-2.5218,0.653393,0,0,0,0,0,0,0.0140713,3.5122,5,0.1,9,0,-0.414933,-3.90455,0.690375,0,0,0,0,0,0,0.00664608,2.43275,5,0.1
0,0.1,3.71215,-1.87186,0.597683,-0.00362955,0.0591571,3.20375e-05,-0.0645369,1.05169,0.000566244,0.0135448,3.51219,5,0.1,1,0.1,0.7501,-0.828423,0.691771,-0.0586689,0.00774022,-0.00328179,-1.043,0.137605,-0.058338,0.0076329,3.51219,5,0.1,2,0.1,-3.59977,-1.68879,0.578548,0.00791289,0.0587365,0.000377372,0.140652,1.04421,0.00671297,0.012112,3.5122,5,0.1,3,0.1,-3.03338,-3.59439,0.680869,0.0410385,0.0087332,0.00205077,0.729561,0.155255,0.0364557,0.0178638,1.76434,5,0.1,4,0.1,-4.04501,-0.400017,0.660106,0.00478327,0.0432825,0.000858866,0.0850558,0.769468,0.0152737,0.00690095,1.89672,5,0.1,5,0.1,2.17281,3.65685,0.579824,-0.0459053,-0.0374857,0.000537746,-0.816077,-0.666425,0.00955909,0.0185658,3.51219,5,0.1,6,0.1,-3.94136,3.91932,0.585271,0.059218,0.00242442,0.00027325,1.05277,0.0430942,0.00485778,0.00823923,3.5122,5,0.1,7,0.1,1.84116,-0.259799,0.639886,-0.0592476,-0.00111242,-0.0011038,-1.0533,-0.0197757,-0.0196174,0.0073502,3.51219,5,0.1,8,0.1,2.24298,-2.52043,0.65336,-0.0446387,0.0389766,-0.000936631,-0.793576,0.692919,-0.0166558,0.0140713,3.5122,5,0.1,9,0.1,-0.416642,-3.90483,0.690226,-0.0485289,-0.00776798,-0.00421088,-0.862734,-0.138074,-0.074856,0.00664608,2.43275,5,0.1
0,0.2,3.71141,-1.85984,0.59769,-0.0114739,0.186965,0.000101328,-0.0860691,1.40226,0.00077486,0.0177632,2.92579,5,0.1,1,0.2,0.738183,-0.82685,0.691104,-0.185424,0.0244632,-0.0103712,-1.39064,0.183463,-0.0778139,0.00844967,2.9258,5,0.1,2,0.2,-3.59817,-1.67686,0.578625,0.0250101,0.185636,0.00119358,0.187516,1.3923,0.00891089,0.0131548,2.92579,5,0.1,3,0.2,-3.02505,-3.59262,0.681286,0.1297,0.0276029,0.00648201,0.972867,0.206947,0.0485778,0.0326956,1.44755,5,0.1,4,0.2,-4.04403,-0.391225,0.66028,0.0151277,0.136794,0.00271499,0.113249,1.02596,0.020355,0.0109805,1.55616,5,0.1,5,0.2,2.16348,3.64924,0.579933,-0.145084,-0.11847,0.00169873,-1.08802,-0.888705,0.0127554,0.0260505,2.92579,5,0.1,6,0.2,-3.92933,3.91981,0.585326,0.187159,0.00766516,0.000864267,1.40369,0.0574589,0.0064671,0.011076,2.92579,5,0.1,7,0.2,1.82912,-0.260025,0.639661,-0.187251,-0.00351593,-0.00348836,-1.4044,-0.0263602,-0.0261664,0.025964,2.92579,5,0.1,8,0.2,2.23391,-2.51251,0.653169,-0.141078,0.123191,-0.00295937,-1.05822,0.923753,-0.0222325,0.0337434,2.92579,5,0.1,9,0.2,-0.4265,-3.9064,0.689371,-0.153375,-0.0245512,-0.0133082,-1.15031,-0.184059,-0.099808,0.0173647,1.99595,5,0.1
0,0.3,3.70979,-1.83335,0.597704,-0.0213712,0.348237,0.00018999,-0.105768,1.72333,0.000938773,0.0177632,2.92579,5,0.1,1,0.3,0.711907,-0.823384,0.689635,-0.345361,0.0455634,-0.0193196,-1.70908,0.225473,-0.095617,0.00844967,2.9258,5,0.1,2,0.3,-3.59462,-1.65055,0.578794,0.046578,0.345762,0.00221962,0.230491,1.71109,0.010971,0.0131548,2.92579,5,0.1,3,0.3,-3.00668,-3.58871,0.682203,0.241294,0.0513446,0.0120556,1.19041,0.253275,0.0594631,0.0326956,1.44755,5,0.1,4,0.3,-4.04189,-0.371851,0.660665,0.0281245,0.254483,0.00505019,0.1387,1.25545,0.0249073,0.0109805,1.55616,5,0.1,5,0.3,2.14293,3.63245,0.580174,-0.27022,-0.220674,0.00316529,-1.33722,-1.09211,0.0156648,0.0260505,2.92579,5,0.1,6,0.3,-3.90281,3.92089,0.585449,0.348595,0.0142738,0.00160839,1.72511,0.0706315,0.00794977,0.011076,2.92579,5,0.1,7,0.3,1.80259,-0.260523,0.639167,-0.34877,-0.00654785,-0.00649747,-1.72598,-0.0324026,-0.0321567,0.025964,2.92579,5,0.1,8,0.3,2.21392,-2.49506,0.65275,-0.26278,0.229436,-0.00551529,-1.30047,1.13538,-0.0273064,0.0337434,2.92579,5,0.1,9,0.3,-0.448222,-3.90988,0.687486,-0.285329,-0.0456672,-0.0247573,-1.40761,-0.225261,-0.12213,0.0173647,1.99595,5,0.1
0,0.4,3.70713,-1.79005,0.597728,-0.0315666,0.514275,0.000281632,-0.0933409,1.52373,0.000804663,0.0248876,2.51526,5,0.1,1,0.4,0.66897,-0.817719,0.687233,-0.510028,0.0672877,-0.0285313,-1.51113,0.199348,-0.0845492,0.0122022,2.51365,5,0.1,2,0.4,-3.58883,-1.60756,0.57907,0.0687838,0.510621,0.00327677,0.203729,1.51289,0.00971556,0.0161774,2.51385,5,0.1,3,0.4,-2.9767,-3.58233,0.683701,0.355858,0.0757158,0.0177786,1.05011,0.223637,0.0524521,0.0242554,1.22456,5,0.1,4,0.4,-4.0384,-0.340237,0.661292,0.041461,0.375304,0.0074476,0.122786,1.10762,0.0219643,0.0122017,1.23125,5,0.1,5,0.4,2.10933,3.60501,0.580568,-0.399059,-0.325894,0.00467449,-1.18232,-0.965595,0.0138581,0.0322461,2.51007,5,0.1,6,0.4,-3.85947,3.92267,0.585649,0.514805,0.0210822,0.00237525,1.52528,0.0623465,0.00703335,0.0127726,2.51548,5,0.1,7,0.4,1.75923,-0.261337,0.638359,-0.515062,-0.00966936,-0.00959635,-1.52606,-0.0286549,-0.0284016,0.00865591,2.51559,5,0.1,8,0.4,2.18125,-2.46653,0.652064,-0.388074,0.338823,-0.00814646,-1.14977,1.00398,-0.0241101,0.0231546,2.51008,5,0.1,9,0.4,-0.483668,-3.91555,0.684411,-0.420796,-0.0673473,-0.0365108,-1.24182,-0.198722,-0.107765,0.0128007,1.57922,5,0.1
0,0.5,3.70349,-1.73102,0.59776,-0.0411753,0.664454,0.000364892,-0.0938922,1.41157,0.000819564,0.0248876,2.51526,5,0.1,1,0.5,0.610389,-0.809965,0.683945,-0.660036,0.0878016,-0.0372309,-1.41932,0.200376,-0.0849739,0.0122022,2.51365,5,0.1,2,0.5,-3.58091,-1.54892,0.579448,0.0897497,0.660653,0.00427682,0.204802,1.41823,0.00977516,0.0161774,2.51385,5,0.1,3,0.5,-2.93577,-3.57346,0.685746,0.462403,0.102848,0.0231011,1.02851,0.297993,0.0513867,0.0242554,1.22456,5,0.1,4,0.5,-4.03363,-0.297067,0.662149,0.0539102,0.487683,0.00967653,0.120133,1.08482,0.021521,0.0122017,1.23125,5,0.1,5,0.5,2.06335,3.56746,0.581106,-0.520725,-0.425255,0.00610007,-1.18844,-0.970513,0.0139214,0.0322461,2.51007,5,0.1,6,0.5,-3.80038,3.9251,0.585922,0.665005,0.0275005,0.00309916,1.41062,0.062719,0.00707433,0.0127726,2.51548,5,0.1,7,0.5,1.70011,-0.262451,0.637254,-0.665272,-0.0126181,-0.0125194,-1.41014,-0.0288039,-0.0285581,0.00865591,2.51559,5,0.1,8,0.5,2.13653,-2.42749,0.651125,-0.506389,0.442135,-0.0106276,-1.15566,1.00912,-0.024233,0.0231546,2.51008,5,0.1,9,0.5,-0.532071,-3.9233,0.680211,-0.546791,-0.0875108,-0.0474443,-1.21627,-0.194669,-0.105541,0.0128007,1.57922,5,0.1
0,0.6,3.69894,-1.65815,0.5978,-0.0494957,0.78533,0.000436604,-0.0691414,0.961661,0.000625849,0.0264723,2.33313,5,0.1,1,0.6,0.537903,-0.800253,0.679826,-0.782318,0.105561,-0.0447616,-0.980347,0.147402,-0.0624955,0.0146071,2.21516,5,0.1,2,0.6,-3.57098,-1.47638,0.579921,0.107902,0.782737,0.00514388,0.150681,0.977814,0.00715256,0.0222245,2.32614,5,0.1,3,0.6,-2.88478,-3.56171,0.688294,0.55266,0.131667,0.0276119,0.739813,0.262856,0.0369549,0.0232175,0.916958,5,0.1,4,0.6,-4.02768,-0.243284,0.663216,0.0644565,0.58288,0.0115648,0.0860691,0.780382,0.0154972,0.0129638,0.916633,5,0.1,5,0.6,2.00574,3.52041,0.581781,-0.626057,-0.511271,0.00733435,-0.874043,-0.713825,0.010252,0.0315168,2.21915,5,0.1,6,0.6,-3.72747,3.92814,0.586265,0.785708,0.0330627,0.00372529,0.959277,0.0460148,0.00521541,0.0129872,2.33416,5,0.1,7,0.6,1.62717,-0.263847,0.635869,-0.785887,-0.0151709,-0.0150517,-0.958264,-0.0211746,-0.0209808,0.0164358,2.44586,5,0.1,8,0.6,2.08052,-2.37858,0.64995,-0.60882,0.531584,-0.0127763,-0.849962,0.741959,-0.0178218,0.0273147,2.21915,5,0.1,9,0.6,-0.592372,-3.93295,0.674979,-0.653526,-0.104594,-0.0567064,-0.874966,-0.140071,-0.0759363,0.0107625,1.17569,5,0.1
0,0.7,3.69364,-1.57587,0.597847,-0.0564352,0.85031,0.000499096,-0.0652969,0.364803,0.000584871,0.0264723,2.33313,5,0.1,1,0.7,0.455825,-0.788955,0.675036,-0.849249,0.1202,-0.0509677,-0.382716,0.13639,-0.0578202,0.0146071,2.21516,5,0.1,2,0.7,-3.55942,-1.39427,0.580471,0.123024,0.849411,0.0058624,0.142217,0.380211,0.00676885,0.0222245,2.32614,5,0.1,3,0.7,-2.82587,-3.54718,0.691236,0.623687,0.158872,0.0311602,0.640124,0.265181,0.0319853,0.0232175,0.916958,5,0.1,4,0.7,-4.02081,-0.181161,0.664449,0.0727214,0.6578,0.0130525,0.0745356,0.675178,0.013411,0.0129638,0.916633,5,0.1,5,0.7,1.93871,3.46567,0.582566,-0.713795,-0.582922,0.00836309,-0.825375,-0.674039,0.00967085,0.0315168,2.21915,5,0.1,6,0.7,-3.64516,3.93168,0.586664,0.850441,0.0376843,0.00424841,0.36256,0.0435114,0.00491366,0.0129872,2.33416,5,0.1,7,0.7,1.54555,-0.26547,0.634259,-0.830234,-0.0172555,-0.017118,0.018999,-0.0192691,-0.0190996,0.0164358,2.44586,5,0.1,8,0.7,2.01533,-2.32166,0.648582,-0.694138,0.606067,-0.0145654,-0.802614,0.700712,-0.0168271,0.0273147,2.21915,5,0.1,9,0.7,-0.662025,-3.9441,0.668935,-0.737526,-0.118042,-0.0639964,-0.757024,-0.121206,-0.0656918,0.0107625,1.17569,5,0.1
0,0.8,3.68771,-1.48975,0.5979,-0.06181,0.866023,0.000546873,-0.0391006,5.96046e-05,0.000357628,0.0161707,2.26897,5,0.1,1,0.8,0.36974,-0.776332,0.669683,-0.866026,0.131321,-0.0556827,0,0.0798702,-0.0338554,0.00989304,1.70818,5,0.1,2,0.8,-3.54649,-1.30818,0.581088,0.134736,0.866026,0.00641942,0.0853539,0,0.00408292,0.0176078,2.25794,5,0.1,3,0.8,-2.76074,-3.53007,0.694491,0.673872,0.181961,0.0336692,0.336051,0.185251,0.0167787,0.0289856,0.651153,5,0.1,4,0.8,-4.01322,-0.112466,0.665812,0.0785589,0.710735,0.0141039,0.0391006,0.354548,0.00703335,0.0107359,0.647193,5,0.1,5,0.8,1.86365,3.40438,0.583446,-0.781766,-0.638425,0.00915974,-0.495791,-0.404835,0.00581145,0.0191948,1.62604,5,0.1,6,0.8,-3.55903,3.93564,0.587111,0.86602,0.0412643,0.00465363,0.000119209,0.026226,0.00298023,0.00921006,2.27059,5,0.1,7,0.8,1.46388,-0.26728,0.632463,-0.791898,-0.0188142,-0.0186622,0.701845,-0.0110269,-0.0109673,0.00753682,2.24883,5,0.1,8,0.8,1.94234,-2.25793,0.647051,-0.760233,0.663769,-0.0159517,-0.482082,0.420928,-0.010103,0.0141942,2.04191,5,0.1,9,0.8,-0.739046,-3.95643,0.662252,-0.796878,-0.127542,-0.0691473,-0.397533,-0.0636578,-0.0344813,0.00691861,0.830105,5,0.1
0,0.9,3.68132,-1.40315,0.597956,-0.0658493,0.866026,0.000583474,-0.0375062,7.45058e-06,0.000339001,0.0161707,2.26897,5,0.1,1,0.9,0.283138,-0.76281,0.66395,-0.866004,0.138844,-0.0588713,0.000850111,0.063505,-0.0269189,0.00989304,1.70818,5,0.1,2,0.9,-3.53257,-1.22158,0.581751,0.143543,0.866026,0.00684094,0.0817478,0,0.00391155,0.0176078,2.25794,5,0.1,3,0.9,-2.69175,-3.51096,0.697938,0.704325,0.199981,0.0351901,0.240728,0.162616,0.012029,0.0289856,0.651153,5,0.1,4,0.9,-4.00518,-0.0397012,0.667256,0.0821032,0.742863,0.0147413,0.028044,0.253958,0.00504032,0.0107359,0.647193,5,0.1,5,0.9,1.78303,3.33854,0.58439,-0.82912,-0.677091,0.00971444,-0.407256,-0.332505,0.00476837,0.0191948,1.62604,5,0.1,6,0.9,-3.47243,3.9399,0.587592,0.866025,0.043967,0.00496022,1.49012e-05,0.0250787,0.00283867,0.00921006,2.27059,5,0.1,7,0.9,1.38931,-0.269215,0.630543,-0.690222,-0.0198443,-0.0196865,1.25607,-0.00858493,-0.00853837,0.00753682,2.24883,5,0.1,8,0.9,1.8638,-2.18936,0.645403,-0.81018,0.707382,-0.016999,-0.465341,0.40634,-0.00975654,0.0141942,2.04191,5,0.1,9,0.9,-0.82063,-3.96949,0.655173,-0.832901,-0.13331,-0.0722718,-0.28475,-0.0455976,-0.0246949,0.00691861,0.830105,5,0.1
0,1,3.67458,-1.31655,0.598016,-0.0686169,0.866026,0.000607967,-0.014782,-5.96046e-05,0.000149012,0.0131557,2.26868,5,0.1,1,1,0.196549,-0.748682,0.65796,-0.865687,0.142838,-0.0605643,0.00676513,0.0116527,-0.00488758,0.0058478,1.31125,5,0.1,2,1,-3.51787,-1.13498,0.582451,0.14956,0.866026,0.00712872,0.0321865,0,0.00154972,0.0122638,2.25657,5,0.1,3,1,-2.62049,-3.49027,0.701498,0.716656,0.212383,0.035806,-0.0154972,0.0766516,-0.000745058,0.0254063,0.444835,5,0.1,4,1,-3.99687,0.0354616,0.668747,0.0835419,0.75587,0.0149995,-0.00202656,-0.0163293,-0.000327826,0.00703409,0.440115,5,0.1,5,1,1.69853,3.26953,0.58538,-0.855842,-0.698906,0.010027,-0.0976324,-0.0796318,0.00116229,0.016808,1.13005,5,0.1,6,1,-3.38583,3.94441,0.5881,0.866026,0.0458121,0.00516772,0,0.00989437,0.00113249,0.0117056,2.27046,5,0.1,7,1,1.32698,-0.271232,0.628543,-0.553814,-0.0203662,-0.020206,1.41627,-0.00120699,-0.00119209,0.00828858,2.14543,5,0.1,8,1,1.78083,-2.11692,0.643662,-0.844592,0.737435,-0.017719,-0.187337,0.163555,-0.00396371,0.0152115,2.00325,5,0.1,9,1,-0.904903,-3.98297,0.64786,-0.847487,-0.135648,-0.0735372,0.0182986,0.00298023,0.00160933,0.0063954,0.564502,5,0.1
0,1.1,3.66763,-1.22994,0.598078,-0.0704151,0.866025,0.000625383,-0.0170916,1.49012e-05,0.000160187,0.0131557,2.26868,5,0.1,1,1.1,0.109987,-0.734346,0.651881,-0.865569,0.143692,-0.0609217,0.00640884,-0.000294298,0.000163913,0.0058478,1.31125,5,0.1,2,1.1,-3.50273,-1.04838,0.583174,0.153445,0.866026,0.00731535,0.0366867,-3.72529e-06,0.00176579,0.0122638,2.25657,5,0.1,3,1.1,-2.54893,-3.46866,0.705073,0.713513,0.219394,0.0356518,-0.073567,0.0535548,-0.00365078,0.0254063,0.444835,5,0.1,4,1.1,-3.98853,0.110935,0.670245,0.0831578,0.752556,0.0149336,-0.00871718,-0.0776049,-0.00154227,0.00703409,0.440115,5,0.1,5,1.1,1.61251,3.19926,0.586389,-0.863248,-0.705448,0.0101223,-0.0213087,-0.0222623,0.0003241,0.016808,1.13005,5,0.1,6,1.1,-3.29922,3.94905,0.588623,0.866026,0.0470001,0.00530258,0,0.011161,0.0012666,0.0117056,2.27046,5,0.1,7,1.1,1.27881,-0.273274,0.626517,-0.410163,-0.0204415,-0.0202802,1.38044,0.000499189,0.000495464,0.00828858,2.14543,5,0.1,8,1.1,1.69593,-2.04219,0.641866,-0.848324,0.757681,-0.0182082,0.120342,0.19633,-0.00473484,0.0152115,2.00325,5,0.1,9,1.1,-0.989524,-3.99652,0.640518,-0.843772,-0.135051,-0.0732132,0.0870042,0.0139475,0.00756606,0.0063954,0.564502,5,0.1
0,1.2,3.66053,-1.14334,0.598141,-0.0713408,0.866026,0.000634789,0.0013113,-5.96046e-05,-2.98023e-05,0.0146174,2.26862,5,0.1,1,1.2,0.0235543,-0.720036,0.645814,-0.861771,0.141829,-0.0601307,0.0850976,-0.0407398,0.017345,0.00690533,0.977595,5,0.1,2,1.2,-3.48725,-0.961773,0.583911,0.155401,0.866026,0.00741035,-0.0038147,0,-0.000178814,0.0105433,2.25639,5,0.1,3,1.2,-2.47822,-3.44656,0.708607,0.697595,0.221431,0.0348583,-0.262022,-0.0194311,-0.0130832,0.0206872,0.296712,5,0.1,4,1.2,-3.98029,0.185517,0.671725,0.0812948,0.735765,0.0146002,-0.0306368,-0.276387,-0.00548363,0.00674636,0.292654,5,0.1,5,1.2,1.52642,3.12889,0.587398,-0.854555,-0.698549,0.010024,0.22161,0.17941,-0.002563,0.0164606,0.763473,5,0.1,6,1.2,-3.21262,3.95379,0.589158,0.866026,0.0475883,0.00536889,0,-0.0013113,-0.000119209,0.00892076,2.27045,5,0.1,7,1.2,1.24417,-0.275307,0.624499,-0.289118,-0.0201337,-0.019975,1.00267,0.00618398,0.00613928,0.0093612,1.99911,5,0.1,8,1.2,1.61225,-1.96569,0.640028,-0.819561,0.769055,-0.0184834,0.45687,-0.000298023,0,0.0132439,2.23921,5,0.1,9,1.2,-1.07315,-4.0099,0.633262,-0.824946,-0.132024,-0.0715792,0.309885,0.0493526,0.0269413,0.0074728,0.375365,5,0.1
0,1.3,3.65338,-1.05674,0.598204,-0.0716977,0.866025,0.00063628,-0.00441074,1.11759e-05,2.23517e-05,0.0146174,2.26862,5,0.1,1,1.3,-0.0624798,-0.706052,0.639886,-0.860462,0.137763,-0.0584008,-0.00927493,-0.0452809,0.0192448,0.00690533,0.977595,5,0.1,2,1.3,-3.47169,-0.875171,0.584653,0.156038,0.866026,0.00744117,0.00782311,-3.72529e-06,0.000376254,0.0105433,2.25639,5,0.1,3,1.3,-2.40974,-3.42451,0.712029,0.671693,0.219213,0.0335649,-0.277713,-0.0330657,-0.0138655,0.0206872,0.296712,5,0.1,4,1.3,-3.97231,0.257742,0.673158,0.0782698,0.708443,0.0140581,-0.0323951,-0.292926,-0.00581145,0.00674636,0.292654,5,0.1,5,1.3,1.44204,3.05992,0.588388,-0.83246,-0.680595,0.00976687,0.249356,0.203356,-0.0029169,0.0164606,0.763473,5,0.1,6,1.3,-3.12602,3.95855,0.589695,0.866026,0.0477616,0.00539031,0,0.00213087,0.00025332,0.00892076,2.27045,5,0.1,7,1.3,1.21962,-0.27729,0.622532,-0.210288,-0.0195178,-0.0193638,0.502698,0.0067912,0.00673905,0.0093612,1.99911,5,0.1,8,1.3,1.53357,-1.88854,0.638174,-0.745704,0.775026,-0.0186275,0.965498,0.0739321,-0.00178441,0.0132439,2.23921,5,0.1,9,1.3,-1.15413,-4.02286,0.626236,-0.794312,-0.127142,-0.0689169,0.328422,0.0524223,0.0285283,0.0074728,0.375365,5,0.1
0,1.4,3.64621,-0.970136,0.598268,-0.0715375,0.866026,0.000633299,0.0107288,0,-8.9407e-05,0.0126283,2.2687,5,0.1,1,1.4,-0.148395,-0.692541,0.634158,-0.855164,0.131992,-0.0559509,0.150212,-0.0731945,0.031054,0.00688711,0.701426,5,0.1,2,1.4,-3.45609,-0.788568,0.585398,0.155497,0.866026,0.00741631,-0.025034,0,-0.00119209,0.0134123,2.25689,5,0.1,3,1.4,-2.34413,-3.40283,0.715307,0.638455,0.213474,0.0319049,-0.401497,-0.087142,-0.020057,0.0163623,0.195641,5,0.1,4,1.4,-3.96466,0.326943,0.674531,0.0743926,0.673381,0.0133619,-0.04673,-0.423431,-0.00837445,0.00693969,0.192631,5,0.1,5,1.4,1.36028,2.99307,0.589347,-0.799841,-0.65394,0.00938475,0.422299,0.345469,-0.00497699,0.0215201,0.507512,5,0.1,6,1.4,-3.03942,3.96333,0.590234,0.866026,0.0475645,0.00536889,0,-0.00786781,-0.00089407,0.0107312,2.2705,5,0.1,7,1.4,1.2,-0.279203,0.620634,-0.192681,-0.0186667,-0.0185177,-0.120342,0.0106841,0.01055,0.0106208,1.71348,5,0.1,8,1.4,1.4643,-1.81086,0.636306,-0.636089,0.776041,-0.0186518,1.1853,-0.0858307,0.00208616,0.028572,2.49845,5,0.1,9,1.4,-1.23171,-4.03528,0.619504,-0.755003,-0.120866,-0.065504,0.474811,0.0760555,0.0412166,0.00995065,0.247073,5,0.1
0,1.5,3.63908,-0.883533,0.598331,-0.0710763,0.866026,0.000629667,0.0025332,-3.72529e-06,-1.86265e-05,0.0126283,2.2687,5,0.1,1,1.5,-0.233321,-0.679694,0.628713,-0.843929,0.124983,-0.0529781,0.114168,-0.0708848,0.0300631,0.00688711,0.701426,5,0.1,2,1.5,-3.44061,-0.701966,0.586136,0.154255,0.866026,0.00735726,-0.00837445,-3.72529e-06,-0.000402331,0.0134123,2.25689,5,0.1,3,1.5,-2.28221,-3.38191,0.718401,0.600158,0.204983,0.0299918,-0.382587,-0.0893772,-0.019107,0.0163623,0.195641,5,0.1,4,1.5,-3.95745,0.392245,0.675827,0.0699364,0.632991,0.0125627,-0.0445247,-0.403495,-0.0079833,0.00693969,0.192631,5,0.1,5,1.5,1.28233,2.92934,0.590262,-0.759406,-0.620831,0.00890791,0.410542,0.336394,-0.00484288,0.0215201,0.507512,5,0.1,6,1.5,-2.95281,3.96806,0.590768,0.866026,0.0471521,0.00532139,0,-0.00296533,-0.000350177,0.0107312,2.2705,5,0.1,7,1.5,1.17894,-0.281018,0.618834,-0.238333,-0.0176447,-0.0175077,-0.705972,0.0103042,0.0101849,0.0106208,1.71348,5,0.1,8,1.5,1.40698,-1.7334,0.634445,-0.508548,0.774618,-0.0186156,1.28867,0.0114813,-0.00026077,0.028572,2.49845,5,0.1,9,1.5,-1.30493,-4.047,0.613152,-0.709713,-0.113612,-0.061573,0.452429,0.0724196,0.0392608,0.00995065,0.247073,5,0.1
0,1.6,3.632,-0.79693,0.598394,-0.0703454,0.866026,0.000622869,0.0149012,0,-0.000119209,0.021235,2.26821,5,0.1,1,1.6,-0.316937,-0.667572,0.623575,-0.825623,0.117163,-0.0496626,0.279367,-0.0881553,0.0373423,0.0138211,0.48935,5,0.1,2,1.6,-3.42526,-0.615363,0.586868,0.152361,0.866026,0.0072673,-0.0354052,0,-0.00166893,0.016497,2.40585,5,0.1,3,1.6,-2.2242,-3.36191,0.721301,0.558913,0.194484,0.0279307,-0.454664,-0.12517,-0.0226796,0.0296372,0.128677,5,0.1,4,1.6,-3.95069,0.453433,0.677042,0.065136,0.589487,0.0117004,-0.0529289,-0.47943,-0.00950694,0.0123694,0.12661,5,0.1,5,1.6,1.20858,2.86905,0.591127,-0.713697,-0.58338,0.00836849,0.519693,0.425816,-0.00610948,0.0260577,0.335238,5,0.1,6,1.6,-2.86621,3.97275,0.591298,0.866026,0.0465274,0.00525117,0,-0.0110865,-0.0013113,0.0141505,2.27059,5,0.1,7,1.6,1.15119,-0.282728,0.617137,-0.318572,-0.016515,-0.0163883,-0.832438,0.012666,0.012517,0.0134569,1.38426,5,0.1,8,1.6,1.36226,-1.65603,0.632586,-0.3901,0.770497,-0.0185162,1.03956,-0.126302,0.00306964,0.0180524,2.65136,5,0.1,9,1.6,-1.37354,-4.05799,0.6072,-0.660932,-0.105798,-0.0573412,0.537515,0.0860691,0.0466406,0.0101753,0.162394,5,0.1
0,1.7,3.62495,-0.710328,0.598455,-0.0713255,0.866026,0.000611786,-0.026539,-3.72529e-06,-0.000130385,0.021235,2.26821,5,0.1,1,1.7,-0.398225,-0.656276,0.618786,-0.800515,0.108875,-0.0461517,0.254925,-0.0808947,0.0342652,0.0138211,0.48935,5,0.1,2,1.7,-3.41015,-0.529417,0.587589,0.150206,0.846755,0.00716625,-0.0160486,-0.368759,-0.000756234,0.016497,2.40585,5,0.1,3,1.7,-2.17047,-3.34306,0.723986,0.516293,0.182607,0.0258042,-0.413015,-0.117958,-0.020612,0.0296372,0.128677,5,0.1,4,1.7,-3.94443,0.510098,0.678166,0.060175,0.544543,0.0108089,-0.048086,-0.435553,-0.00864267,0.0123694,0.12661,5,0.1,5,1.7,1.13969,2.81275,0.591935,-0.664807,-0.543308,0.00779331,0.478342,0.392139,-0.00562519,0.0260577,0.335238,5,0.1,6,1.7,-2.77961,3.97736,0.591818,0.866026,0.0458263,0.00516707,0,-0.00545382,-0.000659376,0.0141505,2.27059,5,0.1,7,1.7,1.11474,-0.284319,0.615558,-0.413308,-0.015325,-0.0152114,-0.996478,0.0115931,0.0114702,0.0134569,1.38426,5,0.1,8,1.7,1.32801,-1.57934,0.630743,-0.301686,0.765049,-0.0183825,0.640035,-0.0270903,0.000674278,0.0180524,2.65136,5,0.1,9,1.7,-1.43707,-4.06816,0.601688,-0.610543,-0.09773,-0.0529693,0.488319,0.0782311,0.0423603,0.0101753,0.162394,5,0.1
0,1.8,3.61767,-0.623725,0.598516,-0.0742614,0.866026,0.000593066,-0.026226,0,-0.000238419,0.022264,2.26735,5,0.1,1,1.8,-0.476827,-0.645803,0.614347,-0.769228,0.100434,-0.0425756,0.392765,-0.0901222,0.0382066,0.0118583,0.334532,5,0.1,2,1.8,-3.39523,-0.447083,0.588301,0.147718,0.795298,0.00704825,-0.0395775,-0.646756,-0.00187755,0.0159593,2.68993,5,0.1,3,1.8,-2.12094,-3.32541,0.726461,0.473744,0.169951,0.0236809,-0.448465,-0.138879,-0.0224411,0.0295904,0.145642,5,0.1,4,1.8,-3.93865,0.562341,0.679203,0.0552177,0.499669,0.0099197,-0.0522137,-0.472933,-0.00941753,0.0114186,0.143348,5,0.1,5,1.8,1.07567,2.76043,0.592685,-0.614631,-0.502187,0.00720322,0.538766,0.441313,-0.00634789,0.0199455,0.221531,5,0.1,6,1.8,-2.69301,3.98191,0.592331,0.866026,0.0450134,0.00507087,0,-0.0127554,-0.00143051,0.0109443,2.11575,5,0.1,7,1.8,1.0686,-0.285792,0.614095,-0.506493,-0.0141196,-0.014016,-0.819266,0.0128448,0.0126958,0.0125413,1.07023,5,0.1,8,1.8,1.3,-1.5031,0.628911,-0.268704,0.757495,-0.0182003,0.0422597,-0.15533,0.00375509,0.021938,2.56817,5,0.1,9,1.8,-1.49564,-4.07753,0.596606,-0.56023,-0.0896811,-0.0486031,0.530183,0.0851154,0.0459552,0.00925752,0.107154,5,0.1
0,1.9,3.61006,-0.537123,0.598574,-0.0783168,0.866026,0.000573136,-0.0477135,-3.57628e-06,-0.000186265,0.022264,2.26735,5,0.1,1,1.9,-0.551907,-0.636187,0.61027,-0.732892,0.092062,-0.0390268,0.360318,-0.0800788,0.0339411,0.0118583,0.334532,5,0.1,2,1.9,-3.3806,-0.371615,0.588998,0.145169,0.708162,0.00692746,-0.0195205,-1.00556,-0.000920147,0.0159593,2.68993,5,0.1,3,1.9,-2.07547,-3.30899,0.728734,0.438512,0.15934,0.021918,-0.283301,-0.0834167,-0.0141747,0.0295904,0.145642,5,0.1,4,1.9,-3.93335,0.610305,0.680156,0.0511169,0.462514,0.00917958,-0.0329614,-0.298794,-0.00594929,0.0114186,0.143348,5,0.1,5,1.9,1.01676,2.7123,0.593375,-0.564546,-0.461154,0.00661304,0.479963,0.393212,-0.00565872,0.0199455,0.221531,5,0.1,6,1.9,-2.6064,3.98636,0.592832,0.866026,0.0441022,0.0049687,0,-0.0077486,-0.000875443,0.0109443,2.11575,5,0.1,7,1.9,1.01376,-0.287144,0.612754,-0.589702,-0.0129273,-0.0128367,-0.794262,0.0113882,0.0112765,0.0125413,1.07023,5,0.1,8,1.9,1.27204,-1.42787,0.627104,-0.301245,0.748479,-0.0179818,-0.601403,-0.0664517,0.00160933,0.021938,2.56817,5,0.1,9,1.9,-1.54916,-4.0861,0.591963,-0.51111,-0.0817984,-0.0443452,0.467449,0.0749826,0.0405274,0.00925752,0.107154,5,0.1
0,2,3.602,-0.45052,0.59863,-0.0825763,0.866025,0.000551343,-0.0320673,1.43051e-05,-0.000268221,0.0236543,2.26652,5,0.1,1,2,-0.623273,-0.627383,0.606538,-0.692734,0.0839517,-0.0355899,0.460804,-0.0839829,0.0356138,0.0102354,0.225848,5,0.1,2,2,-3.3662,-0.305851,0.589686,0.142437,0.608211,0.00679791,-0.0408888,-0.943617,-0.00196695,0.0213593,2.75641,5,0.1,3,2,-2.03294,-3.29345,0.73086,0.412375,0.151527,0.0206098,-0.259519,-0.0802279,-0.012964,0.0212755,0.0839908,5,0.1,4,2,-3.92839,0.655158,0.681046,0.0480771,0.434944,0.00863075,-0.0302792,-0.273675,-0.00542402,0.0105225,0.0826381,5,0.1,5,2,0.962717,2.66817,0.594008,-0.515768,-0.421202,0.00603944,0.507265,0.415206,-0.00599027,0.020597,0.147029,5,0.1,6,2,-2.5198,3.99073,0.593324,0.866026,0.0430644,0.00485331,0,-0.0144243,-0.00166893,0.0137342,1.67221,5,0.1,7,2,0.951205,-0.288379,0.611526,-0.656752,-0.0117764,-0.0116959,-0.511438,0.0118762,0.0118017,0.00744839,0.782901,5,0.1,8,2,1.23846,-1.35349,0.625317,-0.372794,0.737137,-0.01771,-0.759363,-0.189602,0.00458956,0.0137035,2.01341,5,0.1,9,2,-1.59793,-4.0939,0.587731,-0.464162,-0.0742674,-0.0402749,0.482023,0.0772476,0.0418127,0.00589784,0.122527,5,0.1
0,2.1,3.59355,-0.363918,0.598684,-0.0867262,0.866025,0.000530109,-0.0443161,-1.78814e-06,-0.000186265,0.0236543,2.26652,5,0.1,1,2.1,-0.690372,-0.619383,0.603147,-0.64999,0.0762217,-0.0323121,0.415884,-0.0729412,0.0309236,0.0102354,0.225848,5,0.1,2,2.1,-3.35212,-0.249636,0.590358,0.139535,0.520642,0.00665803,-0.0244975,-0.684213,-0.00117719,0.0213593,2.75641,5,0.1,3,2.1,-1.99286,-3.27866,0.732863,0.390318,0.144727,0.0195079,-0.199489,-0.0623614,-0.00996515,0.0212755,0.0839908,5,0.1,4,2.1,-3.92372,0.697437,0.681885,0.0455052,0.411682,0.00816965,-0.0232458,-0.210408,-0.0041686,0.0105225,0.0826381,5,0.1,5,2.1,0.913531,2.628,0.594584,-0.469042,-0.382952,0.0054881,0.441562,0.361443,-0.00520051,0.020597,0.147029,5,0.1,6,2.1,-2.4332,3.99497,0.593802,0.866,0.0418443,0.00471231,-0.00101328,-0.0118166,-0.00136346,0.0137342,1.67221,5,0.1,7,2.1,0.883005,-0.289501,0.610412,-0.705874,-0.0106838,-0.01061,-0.431281,0.0102986,0.0102445,0.00744839,0.782901,5,0.1,8,2.1,1.19688,-1.28057,0.623565,-0.462057,0.721904,-0.0173415,-0.956066,-0.148341,0.00358,0.0137035,2.01341,5,0.1,9,2.1,-1.6423,-4.101,0.583882,-0.426017,-0.0681572,-0.0369659,0.307515,0.0492632,0.0266731,0.00589784,0.122527,5,0.1
0,2.2,3.58468,-0.277315,0.598736,-0.090307,0.866025,0.00051111,-0.0225306,0,-0.000268221,0.015129,2.26592,5,0.1,1,2.2,-0.753221,-0.612123,0.600069,-0.605883,0.0689685,-0.0292391,0.481099,-0.0737309,0.0312924,0.00968387,0.151553,5,0.1,2,2.2,-3.33831,-0.2,0.591017,0.136286,0.481915,0.00650138,-0.0455379,-0.108391,-0.00217557,0.00990776,2.33604,5,0.1,3,2.2,-1.95484,-3.26451,0.734763,0.36943,0.137931,0.018464,-0.230908,-0.0780821,-0.0115335,0.0132661,0.0662841,5,0.1,4,2.2,-3.91929,0.737531,0.68268,0.0430703,0.389649,0.0077337,-0.0269413,-0.243545,-0.00485778,0.00691693,0.0637443,5,0.1,5,2.2,0.868821,2.5915,0.595107,-0.425024,-0.346929,0.00496954,0.448763,0.367045,-0.00527501,0.0165739,0.0981949,5,0.1,6,2.2,-2.34661,3.99909,0.594266,0.86562,0.0403881,0.00454634,-0.00810623,-0.0185966,-0.00211596,0.00764477,1.28524,5,0.1,7,2.2,0.81066,-0.290518,0.609402,-0.736353,-0.00966117,-0.00959337,-0.151485,0.0103861,0.0103414,0.0131032,0.547162,5,0.1,8,2.2,1.14605,-1.20928,0.621852,-0.55193,0.701836,-0.0168577,-0.790358,-0.276148,0.00661612,0.0135437,1.52036,5,0.1,9,2.2,-1.68347,-4.10759,0.580309,-0.398028,-0.0636816,-0.0345379,0.271976,0.043869,0.0235736,0.00763586,0.0708011,5,0.1
0,2.3,3.5755,-0.190713,0.598786,-0.0933383,0.866025,0.0004909,-0.0318438,5.96046e-07,-0.000160187,0.015129,2.26592,5,0.1,1,2.3,-0.811541,-0.605572,0.597292,-0.561413,0.0622328,-0.026381,0.426464,-0.0629351,0.0266954,0.00968387,0.151553,5,0.1,2,2.3,-3.32488,-0.15105,0.591657,0.132455,0.507592,0.00631828,-0.0369847,0.523928,-0.00176579,0.00990776,2.33604,5,0.1,3,2.3,-1.91889,-3.25116,0.73656,0.350609,0.128521,0.017524,-0.164039,-0.110254,-0.00819564,0.0132661,0.0662841,5,0.1,4,2.3,-3.9151,0.775445,0.683433,0.0408757,0.369797,0.00733789,-0.0191182,-0.173055,-0.00344962,0.00691693,0.0637443,5,0.1,5,2.3,0.828424,2.55853,0.595579,-0.383996,-0.31337,0.00448758,0.383843,0.313953,-0.00450388,0.0165739,0.0981949,5,0.1,6,2.3,-2.26006,4.00304,0.59471,0.865529,0.0387073,0.00435524,-0.00569224,-0.0165105,-0.0018701,0.00764477,1.28524,5,0.1,7,2.3,0.736302,-0.291436,0.608491,-0.749634,-0.00871285,-0.00864901,-0.082314,0.00885315,0.00881404,0.0131032,0.547162,5,0.1,8,2.3,1.08678,-1.14036,0.620197,-0.633218,0.677045,-0.016264,-0.781618,-0.246674,0.00591204,0.0135437,1.52036,5,0.1,9,2.3,-1.72207,-4.11376,0.576959,-0.375062,-0.0599809,-0.0325472,0.204943,0.0329316,0.0177659,0.00763586,0.0708011,5,0.1
0,2.4,3.56604,-0.10411,0.598835,-0.0955999,0.866026,0.000473857,-0.00917912,-3.57628e-06,-0.000208616,0.0118843,2.26561,5,0.1,1,2.4,-0.865519,-0.599658,0.594785,-0.517522,0.0560492,-0.0237584,0.463843,-0.0621378,0.0263453,0.00785491,0.101563,5,0.1,2,2.4,-3.31184,-0.0972907,0.592279,0.127894,0.569469,0.00610054,-0.0582933,0.639274,-0.00280142,0.0114922,1.85332,5,0.1,3,2.4,-1.88467,-3.23891,0.738271,0.333467,0.115907,0.0166684,-0.191867,-0.141621,-0.00959635,0.0144785,0.146919,5,0.1,4,2.4,-3.91111,0.811546,0.684149,0.0388741,0.351709,0.00697821,-0.0221729,-0.202388,-0.00402331,0.00676039,0.0287379,5,0.1,5,2.4,0.791916,2.52874,0.596006,-0.346205,-0.282472,0.00404418,0.380427,0.311017,-0.00447035,0.0141146,0.118437,5,0.1,6,2.4,-2.17363,4.00682,0.595136,0.861722,0.0368237,0.00414401,-0.0859499,-0.0219345,-0.0025034,0.00796305,0.959156,5,0.1,7,2.4,0.661253,-0.292263,0.60767,-0.74752,-0.00784323,-0.00778437,0.145733,0.00871718,0.00870228,0.00862424,0.370588,5,0.1,8,2.4,1.01993,-1.07402,0.618603,-0.699115,0.64795,-0.0155672,-0.498682,-0.353813,0.00849366,0.0135683,1.09783,5,0.1,9,2.4,-1.75855,-4.11959,0.573794,-0.354028,-0.0566006,-0.0307232,0.228226,0.036478,0.0197887,0.00720807,0.0551179,5,0.1
0,2.5,3.5564,-0.0175076,0.598881,-0.0972882,0.866025,0.000459235,-0.018537,-2.98023e-07,-0.000108033,0.0118843,2.26561,5,0.1,1,2.5,-0.915089,-0.594343,0.592532,-0.474863,0.0504079,-0.0213671,0.404522,-0.0523292,0.0221767,0.00785491,0.101563,5,0.1,2,2.5,-3.29932,-0.0366275,0.592876,0.122636,0.647068,0.00584796,-0.0516623,0.837681,-0.00247359,0.0114922,1.85332,5,0.1,3,2.5,-1.85225,-3.22809,0.739891,0.314867,0.100107,0.0157383,-0.1899,-0.172168,-0.00949576,0.0144785,0.146919,5,0.1,4,2.5,-3.90733,0.845734,0.684827,0.036722,0.332088,0.00658846,-0.022009,-0.200331,-0.00398234,0.00676039,0.0287379,5,0.1,5,2.5,0.758909,2.502,0.596391,-0.316301,-0.252776,0.00369288,0.238273,0.288099,-0.00279397,0.0141146,0.118437,5,0.1,6,2.5,-2.08761,4.0104,0.595539,0.860265,0.0348046,0.00391416,0.00730157,-0.0196695,-0.00223517,0.00796305,0.959156,5,0.1,7,2.5,0.587221,-0.293007,0.606932,-0.732554,-0.00705207,-0.00699488,0.17957,0.0073351,0.00731274,0.00862424,0.370588,5,0.1,8,2.5,0.947536,-1.01088,0.617086,-0.747457,0.615359,-0.014785,-0.425976,-0.320163,0.00768527,0.0135683,1.09783,5,0.1,9,2.5,-1.79297,-4.1251,0.570807,-0.3356,-0.0536591,-0.0291252,0.158571,0.0252724,0.01375,0.00720807,0.0551179,5,0.1
0,2.6,3.5466,0.069095,0.598927,-0.0982761,0.866025,0.000447035,0.00286102,0,-0.000149012,0.0144413,2.26554,5,0.1,1,2.6,-0.96055,-0.589559,0.590504,-0.434044,0.045304,-0.0192046,0.422329,-0.0509024,0.0215769,0.00914671,0.117658,5,0.1,2,2.6,-3.28734,0.032089,0.593448,0.116754,0.724062,0.00556707,-0.0691414,0.647812,-0.00330806,0.0103056,1.41155,5,0.1,3,2.6,-1.82178,-3.21897,0.741414,0.293875,0.0819147,0.0146881,-0.236332,-0.189304,-0.0118017,0.0158832,0.130629,5,0.1,4,2.6,-3.90377,0.877877,0.685465,0.0342846,0.309941,0.00614971,-0.0275373,-0.249326,-0.00497699,0.00777122,0.0110711,5,0.1,5,2.6,0.728375,2.47816,0.596747,-0.29496,-0.223994,0.00344217,0.203878,0.291109,-0.00238419,0.0235361,0.2218,5,0.1,6,2.6,-2.00172,4.01378,0.595918,0.854754,0.0326753,0.00367463,-0.152349,-0.0236034,-0.00271201,0.0257809,0.688648,5,0.1,7,2.6,0.515092,-0.293676,0.606268,-0.707286,-0.00633746,-0.00628233,0.34307,0.00713766,0.00709295,0.0180269,0.2465,5,0.1,8,2.6,0.871063,-0.951037,0.615648,-0.77723,0.580187,-0.01394,-0.140846,-0.398427,0.00956655,0.0137086,0.763477,5,0.1,9,2.6,-1.82573,-4.13034,0.567964,-0.319207,-0.0510573,-0.0277027,0.182152,0.0293255,0.015825,0.00769402,0.0250402,5,0.1
0,2.7,3.53676,0.155698,0.598971,-0.098813,0.866025,0.000437815,-0.0077039,8.9407e-07,-6.33299e-05,0.0144413,2.26554,5,0.1,1,2.7,-1.00219,-0.585244,0.588675,-0.401462,0.0413279,-0.0175199,0.255696,-0.0313856,0.0132993,0.00914671,0.117658,5,0.1,2,2.7,-3.27599,0.107884,0.593989,0.110396,0.791825,0.00526309,-0.0619739,0.649365,-0.00295788,0.0103056,1.41155,5,0.1,3,2.7,-1.79358,-3.21175,0.742824,0.269932,0.0622459,0.0134923,-0.246949,-0.199169,-0.0123382,0.0158832,0.130629,5,0.1,4,2.7,-3.90048,0.907617,0.686055,0.0314936,0.284682,0.00564633,-0.028789,-0.260521,-0.00518188,0.00777122,0.0110711,5,0.1,5,2.7,0.699771,2.45733,0.597081,-0.278019,-0.191606,0.00324445,0.148602,0.34903,-0.00173226,0.0235361,0.2218,5,0.1,6,2.7,-1.91685,4.01693,0.596273,0.843286,0.0304952,0.00342503,-0.116572,-0.0209808,-0.00239164,0.0257809,0.688648,5,0.1,7,2.7,0.446019,-0.294277,0.605673,-0.674215,-0.00569299,-0.00564214,0.339901,0.00594184,0.00590086,0.0180269,0.2465,5,0.1,8,2.7,0.79266,-0.894894,0.614299,-0.789715,0.543349,-0.0130557,-0.0750609,-0.356659,0.00856444,0.0137086,0.763477,5,0.1,9,2.7,-1.85677,-4.1353,0.56527,-0.30167,-0.048241,-0.0261793,0.178255,0.0285506,0.0154823,0.00769402,0.0250402,5,0.1
0,2.8,3.52686,0.2423,0.599014,-0.0988126,0.866025,0.000429153,0.0118017,1.43051e-05,-8.9407e-05,0.0202065,2.26566,5,0.1,1,2.8,-1.04115,-0.581254,0.586984,-0.378317,0.0385433,-0.0163406,0.226557,-0.0264049,0.0111759,0.0101181,0.0685703,5,0.1,2,2.8,-3.26527,0.189925,0.5945,0.103694,0.844079,0.00494272,-0.074625,0.355235,-0.00354648,0.0222589,1.036,5,0.1,3,2.8,-1.76786,-3.20651,0.744109,0.243786,0.0429332,0.0121862,-0.278592,-0.183582,-0.0139177,0.0196447,0.246168,5,0.1,4,2.8,-3.89748,0.934734,0.686593,0.0284433,0.257102,0.00509769,-0.0324249,-0.293881,-0.00581145,0.0123152,0.00574662,5,0.1,5,2.8,0.672713,2.43996,0.597397,-0.262898,-0.155562,0.00306815,0.163555,0.365615,-0.00190735,0.0168947,0.215928,5,0.1,6,2.8,-1.83331,4.01988,0.596603,0.824755,0.0283003,0.00317693,-0.281394,-0.0236034,-0.00265241,0.0106868,2.34003,5,0.1,7,2.8,0.380435,-0.294817,0.605138,-0.635711,-0.00511631,-0.00506938,0.444546,0.00575185,0.00569224,0.0129298,0.162731,5,0.1,8,2.8,0.713647,-0.842396,0.613038,-0.78661,0.505763,-0.0121534,0.159711,-0.407606,0.00980496,0.0174205,0.517612,5,0.1,9,2.8,-1.88599,-4.13997,0.562734,-0.281954,-0.045085,-0.0244677,0.222385,0.0355244,0.0193119,0.0172312,0.0152587,5,0.1
0,2.9,3.517,0.328903,0.599057,-0.0985138,0.866025,0.000424683,-5.96046e-05,-1.78814e-06,-2.23517e-05,0.0202065,2.26566,5,0.1,1,2.9,-1.07799,-0.577515,0.585398,-0.359516,0.0363742,-0.015423,0.166848,-0.0188164,0.00796095,0.0101181,0.0685703,5,0.1,2,2.9,-3.25525,0.275535,0.594977,0.0968095,0.863293,0.00461554,-0.0663251,0.063194,-0.00315532,0.0222589,1.036,5,0.1,3,2.9,-1.74489,-3.20315,0.745257,0.215434,0.0244495,0.0107694,-0.288695,-0.176296,-0.0144318,0.0196447,0.246168,5,0.1,4,2.9,-3.8948,0.959,0.687074,0.0252686,0.228351,0.00452911,-0.0314415,-0.284687,-0.00562891,0.0123152,0.00574662,5,0.1,5,2.9,0.647276,2.42627,0.597694,-0.245397,-0.118025,0.00286428,0.189748,0.373527,-0.0022091,0.0168947,0.215928,5,0.1,6,2.9,-1.7512,4.02246,0.596908,0.825364,0.0223197,0.00291504,0.203788,-0.0884235,-0.00263751,0.0106868,2.34003,5,0.1,7,2.9,0.318988,-0.295302,0.604657,-0.593746,-0.00459915,-0.00455752,0.412814,0.00474975,0.00470132,0.0129298,0.162731,5,0.1,8,2.9,0.635799,-0.793783,0.611869,-0.769544,0.466922,-0.0112447,0.207242,-0.381708,0.0087209,0.0174205,0.517612,5,0.1,9,2.9,-1.9131,-4.14431,0.560381,-0.260422,-0.0416502,-0.0225982,0.215821,0.0343919,0.0187382,0.0172312,0.0152587,5,0.1
0,3,3.50717,0.415505,0.599099,-0.0978529,0.866025,0.000421703,0.017643,1.43051e-05,-0.000119209,0.0196585,2.26589,5,0.1,1,3,-1.11309,-0.573971,0.583895,-0.341973,0.0344634,-0.0146151,0.196218,-0.0206828,0.00876188,0.0215966,0.0535529,5,0.1,2,3,-3.24591,0.361884,0.595423,0.0898778,0.860986,0.00428706,-0.0743866,-0.100762,-0.00357628,0.0166379,0.368222,5,0.1,3,3,-1.72481,-3.20151,0.746261,0.186053,0.00922084,0.0093013,-0.298619,-0.122309,-0.014931,0.0226691,0.409884,5,0.1,4,3,-3.89243,0.980404,0.687499,0.0220954,0.199611,0.00395924,-0.0324249,-0.292033,-0.00575185,0.0135852,0.00175536,5,0.1,5,3,0.623749,2.41627,0.597969,-0.224446,-0.0827789,0.00261962,0.231028,0.323772,-0.00268221,0.02352,2.00238,5,0.1,6,3,-1.66745,4.0242,0.597186,0.849915,0.0119686,0.00264049,0.221074,-0.112057,-0.00292063,0.0130891,2.27907,5,0.1,7,3,0.261745,-0.295739,0.604224,-0.550124,-0.0041388,-0.00410229,0.47183,0.00457466,0.00452995,0.0081345,0.107403,5,0.1,8,3,0.560129,-0.749039,0.610788,-0.74092,0.427336,-0.0103489,0.382096,-0.418395,0.00944734,0.0199986,0.352179,5,0.1,9,3,-1.93803,-4.1483,0.558219,-0.237569,-0.0380039,-0.0206128,0.245869,0.0391006,0.0213087,0.0111492,0.00488651,5,0.1
0,3.1,3.49744,0.502108,0.599141,-0.0970129,0.866026,0.000414718,0.00478327,-1.93715e-06,-4.09782e-05,0.0196585,2.26589,5,0.1,1,3.1,-1.14646,-0.570611,0.582471,-0.326415,0.0328543,-0.0139336,0.132956,-0.0134036,0.00567362,0.0215966,0.0535529,5,0.1,2,3.1,-3.23743,0.447316,0.595835,0.078585,0.84549,0.0039584,-0.144303,-0.230219,-0.00312552,0.0166379,0.368222,5,0.1,3,3.1,-1.70768,-3.20117,0.747118,0.156853,-0.00178777,0.00784118,-0.285082,-0.0793189,-0.014253,0.0226691,0.409884,5,0.1,4,3.1,-3.89038,0.998926,0.687866,0.018923,0.171019,0.00339551,-0.0311136,-0.280518,-0.00553951,0.0135852,0.00175536,5,0.1,5,3.1,0.601658,2.40974,0.598217,-0.224067,-0.0479441,0.0023569,-0.170927,0.324056,-0.00260398,0.02352,2.00238,5,0.1,6,3.1,-1.58164,4.02478,0.597436,0.863754,-0.000584871,0.00237161,0.0655651,-0.132889,-0.00252947,0.0130891,2.27907,5,0.1,7,3.1,0.208971,-0.296132,0.603835,-0.506163,-0.00372855,-0.00369614,0.422573,0.00376254,0.00372157,0.0081345,0.107403,5,0.1,8,3.1,0.487972,-0.708406,0.609798,-0.701551,0.385122,-0.0094681,0.42168,-0.429612,0.00844523,0.0199986,0.352179,5,0.1,9,3.1,-1.96055,-4.1519,0.556264,-0.212901,-0.0340782,-0.0184744,0.250086,0.0398457,0.0216849,0.0111492,0.00488651,5,0.1
0,3.2,3.48778,0.58871,0.599182,-0.0959456,0.866026,0.000409782,0.0208616,0,-0.000119209,0.0243906,2.26618,5,0.1,1,3.2,-1.17842,-0.567393,0.581106,-0.312313,0.0314593,-0.0133425,0.161707,-0.015825,0.00670552,0.0109852,0.0244236,5,0.1,2,3.2,-3.23036,0.530362,0.596215,0.0623167,0.811559,0.00363886,-0.175357,-0.461191,-0.00333786,0.0166279,0.229161,5,0.1,3,3.2,-1.69339,-3.20157,0.747832,0.129104,-0.0041306,0.00645369,-0.269413,0.0392199,-0.0134706,0.0196688,1.10249,5,0.1,4,3.2,-3.88864,1.01464,0.688178,0.0158608,0.143418,0.0028491,-0.0300407,-0.271559,-0.00533462,0.0114312,0.000829755,5,0.1,5,3.2,0.578089,2.40627,0.59844,-0.249343,-0.0250757,0.00209212,-0.294149,0.111103,-0.00271201,0.0189459,1.78828,5,0.1,6,3.2,-1.49509,4.02407,0.597661,0.866026,-0.0135541,0.00212342,-5.96046e-05,-0.121593,-0.0025034,0.00915834,2.36036,5,0.1,7,3.2,0.160487,-0.296486,0.603484,-0.463049,-0.00336394,-0.00333488,0.450108,0.00363588,0.00360608,0.00698961,0.122347,5,0.1,8,3.2,0.420099,-0.672084,0.608894,-0.653914,0.340848,-0.00861436,0.541375,-0.457793,0.00885129,0.00963567,0.341317,5,0.1,9,3.2,-1.98057,-4.15511,0.554527,-0.187168,-0.0299811,-0.0162423,0.265777,0.0424385,0.023067,0.006886,0.00146551,5,0.1
0,3.3,3.47825,0.675313,0.599223,-0.0948004,0.866026,0.000402797,0.00751019,-3.72529e-06,-4.09782e-05,0.0243906,2.26618,5,0.1,1,3.3,-1.20887,-0.564324,0.579804,-0.296585,0.0299386,-0.0126983,0.162378,-0.0156052,0.00661239,0.0109852,0.0244236,5,0.1,2,3.3,-3.22504,0.609209,0.596563,0.0438139,0.764882,0.00333311,-0.189513,-0.490509,-0.0028871,0.0166279,0.229161,5,0.1,3,3.3,-1.68178,-3.20175,0.748412,0.103705,0.00285581,0.00518365,-0.238776,0.17795,-0.0119396,0.0196688,1.10249,5,0.1,4,3.3,-3.8872,1.02766,0.688437,0.0129655,0.117241,0.0023338,-0.0278354,-0.251524,-0.00496581,0.0114312,0.000829755,5,0.1,5,3.3,0.551349,2.404,0.598636,-0.287788,-0.0250515,0.00183573,-0.434678,-0.16515,-0.00244752,0.0189459,1.78828,5,0.1,6,3.3,-1.40872,4.02213,0.597862,0.858569,-0.024762,0.00190204,-0.167988,-0.100225,-0.00199303,0.00915834,2.36036,5,0.1,7,3.3,0.116087,-0.296807,0.603165,-0.427721,-0.00308808,-0.00306116,0.283248,0.00210479,0.00208244,0.00698961,0.122347,5,0.1,8,3.3,0.357444,-0.64021,0.608075,-0.598672,0.297307,-0.00778576,0.571165,-0.417627,0.00792369,0.00963567,0.341317,5,0.1,9,3.3,-1.99797,-4.15789,0.553017,-0.160816,-0.0257723,-0.0139553,0.261389,0.0417531,0.022687,0.006886,0.00146551,5,0.1
0,3.4,3.46882,0.761915,0.599263,-0.0935078,0.866026,0.000397861,0.0221729,0,-0.000119209,0.0143707,2.26651,5,0.1,1,3.4,-1.23765,-0.561414,0.57857,-0.27827,0.0281692,-0.0119478,0.210226,-0.0203848,0.00861287,0.00696194,0.0148344,5,0.1,2,3.4,-3.2216,0.683076,0.596882,0.0253201,0.710486,0.00304282,-0.176549,-0.608981,-0.00298023,0.00877834,0.144734,5,0.1,3,3.4,-1.67255,-3.2,0.748874,0.0813127,0.0379145,0.00406355,-0.209212,0.510335,-0.0104308,0.0152072,3.31261,5,0.1,4,3.4,-3.88604,1.03816,0.688646,0.0103056,0.0931978,0.00185817,-0.0252724,-0.228941,-0.00455976,0.00751046,0.000674455,5,0.1,5,3.4,0.520435,2.4,0.598808,-0.329331,-0.061214,0.0015974,-0.366747,-0.534773,-0.00238419,0.0124917,1.55759,5,0.1,6,3.4,-1.32411,4.01921,0.598042,0.829419,-0.0331998,0.00171065,-0.426173,-0.067234,-0.00187755,0.00835789,2.51199,5,0.1,7,3.4,0.0746357,-0.297107,0.602868,-0.401749,-0.00290498,-0.0028789,0.255921,0.00172853,0.00169873,0.00726242,0.105591,5,0.1,8,3.4,0.300532,-0.612531,0.607336,-0.53848,0.25655,-0.00699461,0.636981,-0.400573,0.00804663,0.0107807,0.271123,5,0.1,9,3.4,-2.01275,-4.16026,0.551735,-0.134909,-0.0216365,-0.0117064,0.256419,0.041008,0.0222623,0.00622552,0.000771138,5,0.1
0,3.5,3.45955,0.848518,0.599302,-0.0922211,0.866026,0.000390876,0.00888109,-3.72529e-06,-4.09782e-05,0.0143707,2.26651,5,0.1,1,3.5,-1.26445,-0.558697,0.577417,-0.257789,0.0261885,-0.0111103,0.206843,-0.0200234,0.00847131,0.00696194,0.0148344,5,0.1,2,3.5,-3.21994,0.751174,0.597172,0.00804812,0.652005,0.00277087,-0.165135,-0.576377,-0.0025481,0.00877834,0.144734,5,0.1,3,3.5,-1.66541,-3.192,0.74923,0.0620235,0.135633,0.00310158,-0.176892,1.32225,-0.00882521,0.0152072,3.31261,5,0.1,4,3.5,-3.88513,1.04638,0.68881,0.00792034,0.0715915,0.00142762,-0.0223666,-0.202566,-0.00404194,0.00751046,0.000674455,5,0.1,5,3.5,0.485564,2.39125,0.598956,-0.368343,-0.113069,0.00137733,-0.382591,-0.491962,-0.00205263,0.0124917,1.55759,5,0.1,6,3.5,-1.24429,4.01565,0.598205,0.758404,-0.0369884,0.00154776,-0.93735,-0.0114739,-0.00144169,0.00835789,2.51199,5,0.1,7,3.5,0.0355936,-0.297111,0.602588,-0.380106,0.00513331,-0.00274396,0.194591,0.1415,0.00115111,0.00726242,0.105591,5,0.1,8,3.5,0.249775,-0.588716,0.606674,-0.477371,0.221166,-0.00625784,0.593162,-0.315428,0.00687316,0.0107807,0.271123,5,0.1,9,3.5,-2.02498,-4.16222,0.550673,-0.11005,-0.0176594,-0.0095482,0.239953,0.0383854,0.0208281,0.00622552,0.000771138,5,0.1
0,3.6,3.45038,0.93512,0.599341,-0.0908315,0.866026,0.00038594,0.022769,0,-0.000119209,0.0140065,2.26684,5,0.1,1,3.6,-1.28915,-0.556182,0.57635,-0.23571,0.0240371,-0.0101998,0.239372,-0.0234842,0.00995398,0.00755854,0.00473878,5,0.1,2,3.6,-3.21991,0.813443,0.597437,-0.00706315,0.592589,0.00251681,-0.134468,-0.622332,-0.002563,0.00992298,0.189607,5,0.1,3,3.6,-1.66004,-3.17131,0.749499,0.0458658,0.280839,0.00229478,-0.146568,1.48857,-0.00730157,0.0145284,2.79331,5,0.1,4,3.6,-3.88445,1.05257,0.688934,0.00584126,0.0527859,0.00105351,-0.0191927,-0.173211,-0.00348687,0.0103115,0.000526884,5,0.1,5,3.6,0.446998,2.37763,0.599084,-0.40058,-0.157732,0.00118166,-0.240371,-0.392914,-0.00190735,0.0144603,2.94927,5,0.1,6,3.6,-1.1736,4.01197,0.598353,0.651854,-0.0360489,0.00140965,-1.15126,0.0274181,-0.0013411,0.00904491,1.92414,5,0.1,7,3.6,-0.00142717,-0.295779,0.602319,-0.359817,0.0222795,-0.00262409,0.223664,0.187814,0.0013411,0.0103727,0.155096,5,0.1,8,3.6,0.204984,-0.568092,0.606082,-0.41853,0.192012,-0.00558794,0.588886,-0.273824,0.00664592,0.00996182,0.217927,5,0.1,9,3.6,-2.03482,-4.1638,0.54982,-0.0870585,-0.0139832,-0.00755191,0.219107,0.0352859,0.0190139,0.00806717,0.000683892,5,0.1
0,3.7,3.44138,1.02172,0.599379,-0.0894602,0.866026,0.000378955,0.00979006,0,-4.09782e-05,0.0140065,2.26684,5,0.1,1,3.7,-1.31152,-0.553897,0.57538,-0.21159,0.021664,-0.00919346,0.245497,-0.0242554,0.0102893,0.00755854,0.00473878,5,0.1,2,3.7,-3.22127,0.869888,0.597676,-0.0196937,0.53869,0.0022836,-0.11532,-0.479147,-0.00217557,0.00992298,0.189607,5,0.1,3,3.7,-1.65614,-3.13519,0.749694,0.0325713,0.44498,0.00163205,-0.119567,1.70045,-0.00596792,0.0145284,2.79331,5,0.1,4,3.7,-3.88395,1.05703,0.689022,0.0040751,0.0368387,0.000732858,-0.0161082,-0.145346,-0.0029169,0.0103115,0.000526884,5,0.1,5,3.7,0.405113,2.36046,0.599193,-0.441784,-0.181305,0.0009913,-0.520898,-0.133097,-0.00189245,0.0144603,2.94927,5,0.1,6,3.7,-1.11452,4.00857,0.598488,0.528184,-0.0312246,0.00129277,-1.24704,0.0650585,-0.00104681,0.00904491,1.92414,5,0.1,7,3.7,-0.036349,-0.292254,0.602063,-0.338912,0.0510521,-0.00250144,0.205793,0.358215,0.00121072,0.0103727,0.155096,5,0.1,8,3.7,0.165837,-0.550021,0.605554,-0.366422,0.171419,-0.0049971,0.46704,-0.152413,0.00535697,0.00996182,0.217927,5,0.1,9,3.7,-2.04247,-4.16503,0.549156,-0.0663355,-0.0106491,-0.00575371,0.19455,0.0312626,0.016883,0.00806717,0.000683892,5,0.1
0,3.8,3.43249,1.10833,0.599417,-0.0880003,0.866026,0.000372529,0.0230074,0,-5.96046e-05,0.0130073,1.98427,5,0.1,1,3.8,-1.33143,-0.551855,0.574514,-0.186244,0.0191465,-0.0081256,0.262618,-0.0262558,0.0111163,0.00931456,0.00141569,5,0.1,2,3.8,-3.22376,0.92144,0.597894,-0.0296652,0.49271,0.00206977,-0.082016,-0.457436,-0.00217557,0.0103034,0.251459,5,0.1,3,3.8,-1.65344,-3.08248,0.74983,0.0218958,0.604719,0.00109971,-0.0941753,1.42574,-0.00470877,0.0135487,2.44027,5,0.1,4,3.8,-3.88362,1.06004,0.689082,0.0026226,0.0237614,0.000469387,-0.0127554,-0.115931,-0.00229478,0.00948339,0.000321082,5,0.1,5,3.8,0.358291,2.34176,0.599282,-0.493825,-0.192553,0.000806153,-0.47341,-0.119448,-0.00181794,0.01307,2.79354,5,0.1,6,3.8,-1.06763,4.00581,0.598612,0.413856,-0.0237465,0.00118911,-1.00046,0.0808239,-0.00101328,0.00809099,1.77111,5,0.1,7,3.8,-0.0691653,-0.285276,0.601819,-0.316754,0.0887491,-0.0023663,0.245057,0.373438,0.00151992,0.00783116,0.11105,5,0.1,8,3.8,0.131421,-0.533538,0.60508,-0.32273,0.159,-0.00448525,0.416949,-0.106931,0.00503659,0.00867057,0.172334,5,0.1,9,3.8,-2.04818,-4.16595,0.548661,-0.0482798,-0.0077486,-0.00418723,0.166059,0.0267029,0.0144243,0.00727496,0.00054033,5,0.1
0,3.9,3.42378,1.19493,0.599454,-0.0863519,0.866026,0.000369083,0.0143796,0,-2.6077e-05,0.0130073,1.98427,5,0.1,1,3.9,-1.34875,-0.550071,0.573757,-0.160151,0.0165301,-0.00701733,0.25928,-0.0260808,0.0110567,0.00931456,0.00141569,5,0.1,2,3.9,-3.22712,0.968793,0.598091,-0.0370953,0.457281,0.00187261,-0.0644177,-0.280127,-0.00182912,0.0103034,0.251459,5,0.1,3,3.9,-1.65168,-3.01524,0.749918,0.0136256,0.735087,0.000686012,-0.0716597,1.13492,-0.00359118,0.0135487,2.44027,5,0.1,4,3.9,-3.88342,1.06187,0.689118,0.00148304,0.0134116,0.000264496,-0.0100285,-0.0910237,-0.00180304,0.00948339,0.000321082,5,0.1,5,3.9,0.306275,2.322,0.599354,-0.547849,-0.204205,0.000637211,-0.556099,-0.205487,-0.00156462,0.01307,2.79354,5,0.1,6,3.9,-1.03081,4.00386,0.598726,0.329118,-0.0150725,0.00109961,-0.614904,0.0897646,-0.000815839,0.00809099,1.77111,5,0.1,7,3.9,-0.0996457,-0.274767,0.60159,-0.292972,0.11908,-0.00221748,0.237743,0.232764,0.00151247,0.00783116,0.11105,5,0.1,8,3.9,0.100954,-0.517928,0.604654,-0.288953,0.15516,-0.00404818,0.276374,0.0116453,0.00387803,0.00867057,0.172334,5,0.1,9,3.9,-2.05222,-4.1666,0.548311,-0.0329934,-0.00529438,-0.00285953,0.139177,0.0223517,0.0120848,0.00727496,0.00054033,5,0.1
0,4,3.41524,1.28153,0.599491,-0.0843704,0.866026,0.000363588,0.0282526,0,-8.9407e-05,0.0143436,1.58817,5,0.1,1,4,-1.36347,-0.548548,0.57311,-0.134414,0.0139326,-0.00591576,0.255048,-0.0258386,0.0109673,0.0101158,0.000751845,5,0.1,2,4,-3.2311,1.01322,0.598269,-0.0421882,0.431648,0.00169426,-0.0361204,-0.253856,-0.00181794,0.00980034,0.193582,5,0.1,3,4,-1.65065,-2.93683,0.74997,0.00747442,0.824755,0.000376999,-0.051856,0.635386,-0.0025928,0.014831,2.30538,5,0.1,4,4,-3.88332,1.0628,0.689137,0.000619888,0.00554621,0.000108778,-0.00751019,-0.0664592,-0.0013411,0.00830182,0.000149356,5,0.1,5,4,0.248917,2.3,0.599411,-0.596312,-0.24125,0.000493228,-0.376775,-0.519395,-0.0013411,0.0119619,2.57316,5,0.1,6,4,-1,4.0028,0.598832,0.296493,-0.00630617,0.00101775,-0.0608265,0.0832081,-0.000834465,0.00807416,0.655023,5,0.1,7,4,-0.127719,-0.261929,0.601376,-0.26802,0.135358,-0.00205338,0.266001,0.0937432,0.00178814,0.00800231,0.139302,5,0.1,8,4,0.073328,-0.502283,0.604268,-0.264344,0.158086,-0.0036791,0.229141,0.0329912,0.00363588,0.00998023,0.245548,5,0.1,9,4,-2.05487,-4.16702,0.548081,-0.020504,-0.00327826,-0.00177622,0.110269,0.0174046,0.00959635,0.00807043,0.000324638,5,0.1
0,4.1,3.40692,1.36804,0.599526,-0.0819549,0.862543,0.000355951,0.0236332,-0.0984818,-7.45058e-05,0.0143436,1.58817,5,0.1,1,4.1,-1.37566,-0.547282,0.572572,-0.109663,0.0114187,-0.00484828,0.239141,-0.0243522,0.0103414,0.0101158,0.000751845,5,0.1,2,4.1,-3.23533,1.05533,0.59843,-0.0408147,0.412101,0.00153016,0.0554472,-0.160098,-0.00151247,0.00980034,0.193582,5,0.1,3,4.1,-1.65013,-2.85214,0.749997,0.00309423,0.861071,0.000157952,-0.03618,0.150681,-0.00181049,0.014831,2.30538,5,0.1,4,4.1,-3.88329,1.06306,0.689142,-1.93715e-05,-0.000117719,-5.40167e-06,-0.00530481,-0.047043,-0.000946224,0.00830182,0.000149356,5,0.1,5,4.1,0.187269,2.27237,0.599454,-0.636846,-0.318421,0.000375509,-0.390246,-0.941038,-0.00102818,0.0119619,2.57316,5,0.1,6,4.1,-0.970003,4.00258,0.59893,0.308655,0.00189692,0.00094315,0.252977,0.0787377,-0.000696629,0.00807416,0.655023,5,0.1,7,4.1,-0.153266,-0.248196,0.601179,-0.243478,0.13679,-0.00188826,0.232552,-0.0575623,0.0015758,0.00800231,0.139302,5,0.1,8,4.1,0.0478804,-0.486233,0.603915,-0.245841,0.163357,-0.0034078,0.154753,0.0600498,0.00203773,0.00998023,0.245548,5,0.1,9,4.1,-2.05641,-4.16727,0.547948,-0.0106845,-0.00172555,-0.000922196,0.0860542,0.0135899,0.00748038,0.00807043,0.000324638,5,0.1
0,4.2,3.39886,1.45345,0.599562,-0.0790417,0.841591,0.000345707,0.0370741,-0.33915,-0.000149012,0.0143423,1.50463,5,0.1,1,4.2,-1.38546,-0.546258,0.572138,-0.0867397,0.00907779,-0.00385493,0.21863,-0.0224113,0.00953674,0.0086382,0.000673623,5,0.1,2,4.2,-3.23904,1.09574,0.598576,-0.032568,0.395671,0.00138283,0.102758,-0.185072,-0.00149012,0.00803202,0.186392,5,0.1,3,4.2,-1.64998,-2.76566,0.750004,0.000151992,0.866026,8.9407e-06,-0.0230074,0,-0.00110269,0.013997,2.27195,5,0.1,4,4.2,-3.88331,1.06284,0.689137,-0.000447035,-0.00391901,-8.04663e-05,-0.00333786,-0.0292659,-0.000625849,0.00812303,5.24644e-05,5,0.1,5,4.2,0.121904,2.23569,0.599487,-0.666947,-0.414926,0.000284612,-0.181292,-0.926733,-0.00077486,0.0120743,2.32735,5,0.1,6,4.2,-0.937701,4.00314,0.599021,0.338119,0.00905991,0.000874698,0.297815,0.0634193,-0.00077486,0.006624,0.170049,5,0.1,7,4.2,-0.176456,-0.235001,0.600999,-0.220208,0.125308,-0.00172704,0.238135,-0.165001,0.00166893,0.00780443,0.12698,5,0.1,8,4.2,0.02404,-0.469636,0.603584,-0.231008,0.16798,-0.00322908,0.151913,0.0236183,0.00172853,0.00906937,0.187004,5,0.1,9,4.2,-2.05709,-4.16738,0.54789,-0.00329614,-0.000548363,-0.000281632,0.0619888,0.00977516,0.00542402,0.00713479,0.000147705,5,0.1
0,4.3,3.39113,1.53491,0.599595,-0.0756755,0.778775,0.000332203,0.0331402,-0.875875,-0.000130385,0.0143423,1.50463,5,0.1,1,4.3,-1.39308,-0.545459,0.571799,-0.0660516,0.00695232,-0.00295062,0.194281,-0.0200048,0.00850856,0.0086382,0.000673623,5,0.1,2,4.3,-3.24156,1.13451,0.598707,-0.0160206,0.380621,0.001249,0.212327,-0.134356,-0.00123307,0.00803202,0.186392,5,0.1,3,4.3,-1.65006,-2.67906,0.750001,-0.00166185,0.866026,-7.82311e-05,-0.0136197,0,-0.000655651,0.013997,2.27195,5,0.1,4,4.3,-3.88337,1.06232,0.689126,-0.000703335,-0.00617094,-0.000128243,-0.00181794,-0.016138,-0.000339001,0.00812303,5.24644e-05,5,0.1,5,4.3,0.0541703,2.18917,0.599512,-0.688011,-0.517484,0.000219606,-0.199465,-1.05509,-0.000536442,0.0120743,2.32735,5,0.1,6,4.3,-0.902364,4.00438,0.599105,0.368332,0.0159003,0.000819471,0.281367,0.0698268,-0.000391155,0.006624,0.170049,5,0.1,7,4.3,-0.197319,-0.223445,0.600834,-0.197294,0.104584,-0.00156444,0.224007,-0.239654,0.00160933,0.00780443,0.12698,5,0.1,8,4.3,0.00177379,-0.452683,0.603269,-0.213568,0.171196,-0.00304831,0.196751,0.0309441,0.00195578,0.00906937,0.187004,5,0.1,9,4.3,-2.05714,-4.16739,0.547886,0.00194795,0.000282377,0.000176392,0.0431091,0.00682473,0.00376254,0.00713479,0.000147705,5,0.1
0,4.4,3.38374,1.60781,0.599628,-0.071919,0.674012,0.000315905,0.0437498,-1.1847,-0.000178814,0.0127622,1.44494,5,0.1,1,4.4,-1.39876,-0.544859,0.571544,-0.0480175,0.00509173,-0.00215918,0.16582,-0.0171959,0.00730157,0.00648466,0.000533467,5,0.1,2,4.4,-3.24203,1.17186,0.598826,0.00708103,0.36566,0.00112802,0.237584,-0.17792,-0.00119209,0.0085819,0.220677,5,0.1,3,4.4,-1.65028,-2.59245,0.74999,-0.00263751,0.866026,-0.00012517,-0.00619888,0,-0.000298023,0.0144717,1.49116,5,0.1,4,4.4,-3.88345,1.06165,0.689112,-0.000822544,-0.00722408,-0.000151992,-0.000596046,-0.00524521,-5.96046e-05,0.00806248,1.5776e-05,5,0.1,5,4.4,-0.0153864,2.1324,0.599531,-0.699972,-0.613999,0.000174344,-0.011611,-0.825405,-0.000357628,0.0114737,2.18208,5,0.1,6,4.4,-0.864319,4.00631,0.599185,0.390156,0.0224113,0.000785291,0.137836,0.0576973,-0.000327826,0.00862616,0.252875,5,0.1,7,4.4,-0.215926,-0.214241,0.600686,-0.174772,0.0791345,-0.00139922,0.228904,-0.26159,0.00172853,0.00981665,0.0157997,5,0.1,8,4.4,-0.0185273,-0.435462,0.602975,-0.191752,0.172516,-0.00282973,0.238781,-0.0113547,0.0025034,0.00962575,0.311787,5,0.1,9,4.4,-2.05676,-4.16733,0.54792,0.00537634,0.000822544,0.000473857,0.0258684,0.00429153,0.00226498,0.00786954,5.06846e-05,5,0.1
0,4.5,3.37675,1.66884,0.599659,-0.0678852,0.543227,0.00029942,0.0393093,-1.38123,-0.000160187,0.0127622,1.44494,5,0.1,1,4.5,-1.40278,-0.544432,0.571363,-0.0327494,0.00350541,-0.00148537,0.139043,-0.0144802,0.00615045,0.00648466,0.000533467,5,0.1,2,4.5,-3.24012,1.20763,0.598933,0.0309285,0.3502,0.00102082,0.23143,-0.146158,-0.000987202,0.0085819,0.220677,5,0.1,3,4.5,-1.65057,-2.50585,0.749977,-0.00300296,0.865888,-0.000142958,-0.00137091,-0.00549853,-7.07805e-05,0.0144717,1.49116,5,0.1,4,4.5,-3.88353,1.06091,0.689097,-0.000836328,-0.0073567,-0.000150688,0.00025332,0.00219047,7.45058e-05,0.00806248,1.5776e-05,5,0.1,5,4.5,-0.0850574,2.06668,0.599547,-0.689493,-0.700901,0.000147242,0.225257,-0.850409,-0.000204891,0.0114737,2.18208,5,0.1,6,4.5,-0.824543,4.00881,0.599262,0.405443,0.0272766,0.000750087,0.143655,0.0388622,-0.000394881,0.00862616,0.252875,5,0.1,7,4.5,-0.232048,-0.207602,0.600556,-0.145921,0.054056,-0.00117598,0.333559,-0.236723,0.00261888,0.00981665,0.0157997,5,0.1,8,4.5,-0.0363989,-0.418155,0.602704,-0.164745,0.174372,-0.00261208,0.295025,0.0345688,0.00196323,0.00962575,0.311787,5,0.1,9,4.5,-2.05611,-4.16723,0.547976,0.00731088,0.0011459,0.000642613,0.0131875,0.00220537,0.00113994,0.00786954,5.06846e-05,5,0.1
0,4.6,3.37017,1.71626,0.599688,-0.0636578,0.406262,0.000281632,0.0469685,-1.32281,-0.000208616,0.0133834,1.40353,5,0.1,1,4.6,-1.40541,-0.544149,0.571243,-0.0202775,0.00220388,-0.000932813,0.110209,-0.0115633,0.00488758,0.00591734,0.000321376,5,0.1,2,4.6,-3.23593,1.24187,0.59903,0.052011,0.333905,0.000925362,0.184417,-0.190139,-0.000983477,0.00885998,0.953175,5,0.1,3,4.6,-1.65087,-2.41934,0.749962,-0.00295639,0.863826,-0.000140071,0.00196695,-0.043869,5.96046e-05,0.0150407,0.44594,5,0.1,4,4.6,-3.88361,1.06019,0.689082,-0.00077486,-0.00686347,-0.000138581,0.000715256,0.00739098,0.000178814,0.00784606,7.92195e-06,5,0.1,5,4.6,-0.152466,1.99271,0.599561,-0.654512,-0.773478,0.00013113,0.474379,-0.557303,-0.000119209,0.0117169,2.25192,5,0.1,6,4.6,-0.783434,4.0117,0.599335,0.414777,0.0300527,0.000703335,0.0262558,0.0164509,-0.000536442,0.00901026,0.180325,5,0.1,7,4.6,-0.244898,-0.203317,0.600452,-0.110608,0.0323169,-0.00089705,0.361778,-0.19604,0.00289083,0.00928036,0.249532,5,0.1,8,4.6,-0.0513494,-0.400563,0.602452,-0.133909,0.17704,-0.00241697,0.316409,0.00882149,0.00199676,0.00871438,0.282326,5,0.1,9,4.6,-2.05533,-4.16711,0.548045,0.00808835,0.00128746,0.000709295,0.00274181,0.000238419,0.000208616,0.00694981,1.51532e-05,5,0.1
0,4.7,3.36403,1.75043,0.599715,-0.059323,0.279959,0.000262354,0.0416934,-1.15359,-0.000182539,0.0133834,1.40353,5,0.1,1,4.7,-1.40692,-0.543982,0.571172,-0.0104653,0.00117207,-0.000496488,0.0859424,-0.00906363,0.00383332,0.00591734,0.000321376,5,0.1,2,4.7,-3.23011,1.27438,0.599118,0.0620145,0.316771,0.000837073,0.034228,-0.16468,-0.000812113,0.00885998,0.953175,5,0.1,3,4.7,-1.65115,-2.3333,0.749949,-0.00264961,0.855084,-0.000128243,0.00398606,-0.156358,0.000167638,0.0150407,0.44594,5,0.1,4,4.7,-3.88369,1.05955,0.689069,-0.000679865,-0.00595208,-0.000117905,0.00114739,0.010483,0.000223517,0.00784606,7.92195e-06,5,0.1,5,4.7,-0.214859,1.91264,0.599574,-0.587336,-0.826363,0.000124425,0.836328,-0.457652,-2.98023e-05,0.0117169,2.25192,5,0.1,6,4.7,-0.741793,4.01477,0.599403,0.41785,0.0311933,0.000650901,0.0158586,0.00569224,-0.000525266,0.00901026,0.180325,5,0.1,7,4.7,-0.254332,-0.201005,0.600376,-0.0797833,0.0147515,-0.000650622,0.25964,-0.14749,0.00207871,0.00928036,0.249532,5,0.1,8,4.7,-0.0630682,-0.382771,0.60222,-0.099816,0.178977,-0.00223564,0.355695,0.0195149,0.00170991,0.00871438,0.282326,5,0.1,9,4.7,-2.05452,-4.16698,0.548115,0.00799038,0.0012584,0.000697933,-0.00430644,-0.000804663,-0.000402331,0.00694981,1.51532e-05,5,0.1
0,4.8,3.35831,1.77324,0.59974,-0.0549853,0.182673,0.000242889,0.0464916,-0.770509,-0.000208616,0.0181037,1.30603,5,0.1,1,4.8,-1.40758,-0.543906,0.57114,-0.00308454,0.000391901,-0.000165403,0.0617504,-0.00655651,0.00277162,0.00824393,0.00014563,5,0.1,2,4.8,-3.22386,1.3052,0.599198,0.0619769,0.298911,0.000758469,-0.0221729,-0.200808,-0.00077486,0.00834541,1.91144,5,0.1,3,4.8,-1.65139,-2.24892,0.749937,-0.00219345,0.828415,-0.000107288,0.00500679,-0.393033,0.000178814,0.0184859,2.34968,5,0.1,4,4.8,-3.88375,1.05901,0.689059,-0.000560284,-0.00483096,-9.38773e-05,0.00143051,0.0117421,0.000268221,0.00816767,7.30303e-06,5,0.1,5,4.8,-0.269039,1.82815,0.599586,-0.493233,-0.858253,0.00012368,1.01869,-0.155449,-2.98023e-05,0.0122833,2.42416,5,0.1,6,4.8,-0.700075,4.01789,0.599465,0.414699,0.0310779,0.000594556,-0.0920594,-0.00810623,-0.000566244,0.0090689,0.809846,5,0.1,7,4.8,-0.261148,-0.200146,0.60032,-0.0577711,0.00366233,-0.000475347,0.18473,-0.073649,0.00151992,0.0111188,0.246865,5,0.1,8,4.8,-0.0712732,-0.364827,0.602005,-0.0644986,0.179181,-0.00206232,0.343122,-0.0226647,0.00184774,0.00887834,0.244585,5,0.1,9,4.8,-2.05376,-4.16686,0.548182,0.00730753,0.00114441,0.00063628,-0.00905991,-0.00143051,-0.000834465,0.0080417,8.3326e-06,5,0.1
0,4.9,3.35303,1.78825,0.599764,-0.0507075,0.125049,0.000223611,0.0406951,-0.332341,-0.000182539,0.0181037,1.30603,5,0.1,1,4.9,-1.40761,-0.543896,0.571136,0.00213608,-0.000164844,7.00355e-05,0.0428855,-0.00459701,0.0019446,0.00824393,0.00014563,5,0.1,2,4.9,-3.21807,1.33415,0.59927,0.0524525,0.280561,0.000688899,-0.112787,-0.176191,-0.000644475,0.00834541,1.91144,5,0.1,3,4.9,-1.65159,-2.16689,0.749927,-0.0016721,0.821349,-8.72649e-05,0.00531226,0.157729,0.000219792,0.0184859,2.34968,5,0.1,4,4.9,-3.8838,1.05859,0.689051,-0.000414997,-0.00362992,-6.7614e-05,0.00143051,0.0120252,0.00025332,0.00816767,7.30303e-06,5,0.1,5,4.9,-0.313024,1.74186,0.599598,-0.384957,-0.864917,0.000123866,1.11009,0.00548363,2.23517e-05,0.0122833,2.42416,5,0.1,6,4.9,-0.658408,4.02095,0.599522,0.423795,0.0300623,0.00054054,0.21876,-0.0127852,-0.000528991,0.0090689,0.809846,5,0.1,7,4.9,-0.266112,-0.200059,0.600279,-0.0425261,-0.00110029,-0.000349898,0.123851,-0.0254335,0.001017,0.0111188,0.246865,5,0.1,8,4.9,-0.0760769,-0.346884,0.601807,-0.0323638,0.180682,-0.00189627,0.295891,0.0374056,0.001546,0.00887834,0.244585,5,0.1,9,4.9,-2.05308,-4.16676,0.548241,0.00624545,0.000978261,0.000540074,-0.0118166,-0.00181794,-0.00106171,0.0080417,8.3326e-06,5,0.1
0,5,3.34816,1.8,0.599785,-0.0465631,0.118449,0.000205636,0.0431538,0.173211,-0.000178814,0.0157122,1.12008,5,0.1,1,5,-1.40721,-0.543932,0.571151,0.00554323,-0.000531971,0.000226498,0.0255704,-0.00280142,0.00116229,0.00579821,4.96223e-05,5,0.1,2,5,-3.2132,1.3613,0.599336,0.0475645,0.261983,0.000625849,0.0411272,-0.202239,-0.000625849,0.00654627,1.76119,5,0.1,3,5,-1.65173,-2.08369,0.749919,-0.00115037,0.843543,-6.4075e-05,0.00494719,0.215888,0.000208616,0.01214,2.27851,5,0.1,4,5,-3.88383,1.05828,0.689045,-0.000274181,-0.00247061,-4.32134e-05,0.00119209,0.0110269,0.000238419,0.0110622,6.05277e-06,5,0.1,5,5,-0.346063,1.65566,0.599611,-0.277416,-0.856063,0.00012517,1.01544,0.199318,2.98023e-05,0.013014,2.80871,5,0.1,6,5,-0.614795,4.02388,0.599573,0.448799,0.0284195,0.000487268,0.240058,-0.0202656,-0.000566244,0.00709973,1.62552,5,0.1,7,5,-0.269821,-0.200242,0.600249,-0.032331,-0.00211261,-0.000266731,0.0830293,0.00211596,0.000685453,0.00935814,0.245794,5,0.1,8,5,-0.0779367,-0.328632,0.601625,-0.00592284,0.184023,-0.00174195,0.230584,0.0182837,0.00160933,0.00864333,0.206037,5,0.1,9,5,-2.05251,-4.16667,0.54829,0.00500679,0.000786781,0.000429153,-0.0127554,-0.00190735,-0.00110269,0.00865127,7.9409e-06,5,0.1
0,5.1,3.34371,1.81366,0.599805,-0.0426076,0.162541,0.000189245,0.0373423,0.638552,-0.000156462,0.0157122,1.12008,5,0.1,1,5.1,-1.40655,-0.543997,0.571179,0.00744928,-0.000743754,0.000314601,0.0129268,-0.00146776,0.000610948,0.00579821,4.96223e-05,5,0.1,2,5.1,-3.20803,1.38655,0.599396,0.0598773,0.243439,0.000569597,0.27436,-0.176914,-0.000521541,0.00654627,1.76119,5,0.1,3,5.1,-1.65182,-1.99839,0.749914,-0.000666454,0.860772,-4.28408e-05,0.00463426,0.11465,0.000216067,0.01214,2.27851,5,0.1,4,5.1,-3.88385,1.05809,0.689042,-0.000157952,-0.00141934,-2.12342e-05,0.00110269,0.00984967,0.000201166,0.0110622,6.05277e-06,5,0.1,5,5.1,-0.368874,1.5721,0.599624,-0.181428,-0.805641,0.000129081,0.860665,0.759587,3.72529e-05,0.013014,2.80871,5,0.1,6,5.1,-0.567969,4.02628,0.599619,0.493324,0.0167347,0.000434369,0.578165,-0.192612,-0.000499189,0.00709973,1.62552,5,0.1,7,5.1,-0.2727,-0.200428,0.600225,-0.0258041,-0.00147244,-0.0002129,0.0501629,0.00958052,0.000417233,0.00935814,0.245794,5,0.1,8,5.1,-0.0775506,-0.310021,0.601458,0.0119994,0.188981,-0.0015988,0.13187,0.0654422,0.00131503,0.00864333,0.206037,5,0.1,9,5.1,-2.05208,-4.1666,0.548327,0.00371672,0.000593066,0.000317581,-0.0127703,-0.00196695,-0.00110269,0.00865127,7.9409e-06,5,0.1
0,5.2,3.33963,1.8334,0.599823,-0.0388682,0.233793,0.000172853,0.0386238,0.732899,-0.000149012,0.0178031,0.907337,5,0.1,1,5.2,-1.40576,-0.544077,0.571213,0.00820458,-0.000834465,0.000351667,0.0025034,-0.000327826,0.000149012,0.00898499,1.48642e-05,5,0.1,2,5.2,-3.2,1.41,0.59945,0.10699,0.225201,0.00051856,0.644088,-0.193655,-0.000536442,0.00867301,1.51426,5,0.1,3,5.2,-1.65186,-1.91195,0.749911,-0.000235438,0.866026,-2.23517e-05,0.0038147,0,0.000178814,0.0207502,2.27192,5,0.1,4,5.2,-3.88386,1.05799,0.689041,-5.96046e-05,-0.000524521,-2.98023e-06,0.000953674,0.00780821,0.000119209,0.0109612,3.72685e-06,5,0.1,5,5.2,-0.383233,1.49593,0.599637,-0.111458,-0.712928,0.00013113,0.520676,1.05631,0,0.0183208,3.08092,5,0.1,6,5.2,-0.515677,4.02685,0.59966,0.551834,-0.00640154,0.00038594,0.538349,-0.253677,-0.000476837,0.0102496,2.07684,5,0.1,7,5.2,-0.275066,-0.200522,0.600205,-0.0218228,-0.00038892,-0.000180304,0.0315458,0.0112802,0.000268221,0.0114933,0.245462,5,0.1,8,5.2,-0.0758267,-0.290822,0.601305,0.0212185,0.194458,-0.00146776,0.0561699,0.0330061,0.0013113,0.0143522,0.189671,5,0.1,9,5.2,-2.05177,-4.16655,0.548354,0.00249147,0.000405312,0.000211596,-0.0114441,-0.00190735,-0.00101328,0.0109617,6.47471e-06,5,0.1
0,5.3,3.33593,1.86079,0.59984,-0.0353456,0.315909,0.00015907,0.0329912,0.856318,-0.00013411,0.0178031,0.907337,5,0.1,1,5.3,-1.40494,-0.544161,0.571248,0.00808463,-0.000828598,0.00035027,-0.00450015,0.000406057,-0.000160187,0.00898499,1.48642e-05,5,0.1,2,5.3,-3.18525,1.43161,0.5995,0.194478,0.207463,0.000470504,1.02912,-0.167988,-0.000439584,0.00867301,1.51426,5,0.1,3,5.3,-1.65187,-1.82535,0.74991,0.000127964,0.866026,-4.65661e-06,0.00337511,0,0.000171363,0.0207502,2.27192,5,0.1,4,5.3,-3.88386,1.05798,0.689041,2.64496e-05,0.000181049,7.82311e-06,0.000759959,0.00622869,8.9407e-05,0.0109612,3.72685e-06,5,0.1,5,5.3,-0.39225,1.43045,0.59965,-0.0754485,-0.593357,0.000130571,0.136115,1.25614,-1.49012e-05,0.0183208,3.08092,5,0.1,6,5.3,-0.457309,4.02512,0.599599,0.618668,-0.0268169,-0.00242535,0.72879,-0.162512,-0.0496134,0.0102496,2.07684,5,0.1,7,5.3,-0.277121,-0.200512,0.600188,-0.0195358,0.000517769,-0.000160839,0.0160374,0.00694767,0.000137836,0.0114933,0.245462,5,0.1,8,5.3,-0.073611,-0.271488,0.601164,0.0214665,0.18965,-0.00135023,-0.0417479,-0.120623,0.00109524,0.0143522,0.189671,5,0.1,9,5.3,-2.05157,-4.16652,0.54837,0.00140481,0.000225753,0.00011567,-0.0101477,-0.00169873,-0.00089407,0.0109617,6.47471e-06,5,0.1
0,5.4,3.33256,1.8965,0.599855,-0.0320792,0.395882,0.000144541,0.0333786,0.704527,-0.000119209,0.0204547,0.498871,5,0.1,1,5.4,-1.40417,-0.544241,0.571282,0.00737906,-0.000761449,0.000321865,-0.00917912,0.00089407,-0.000357628,0.00986997,8.2297e-06,5,0.1,2,5.4,-3.16054,1.45151,0.599544,0.299394,0.190434,0.000427663,1.01149,-0.177264,-0.000417233,0.0107474,1.21616,5,0.1,3,5.4,-1.65184,-1.73875,0.74991,0.000426173,0.866026,1.04308e-05,0.0026226,-5.96046e-05,0.000149012,0.0253625,1.96871,5,0.1,4,5.4,-3.88386,1.05803,0.689042,8.9407e-05,0.000706315,1.63913e-05,0.000596046,0.00435114,5.96046e-05,0.0116587,1.73889e-06,5,0.1,5,5.4,-0.4,1.37723,0.599663,-0.0879832,-0.473946,0.00012815,-0.360891,1.08838,-5.96046e-05,0.0127271,3.05814,5,0.1,6,5.4,-0.391953,4.02172,0.599069,0.685596,-0.0401974,-0.008443,0.55933,-0.110149,-0.0660121,0.00770833,1.67498,5,0.1,7,5.4,-0.279008,-0.200432,0.600173,-0.0182889,0.00102147,-0.000150502,0.0102818,0.00323355,8.9407e-05,0.0102863,0.245282,5,0.1,8,5.4,-0.0717703,-0.253321,0.601035,0.014567,0.171949,-0.00124127,-0.0887178,-0.225775,0.00110269,0.0097135,0.268971,5,0.1,9,5.4,-2.05148,-4.1665,0.548377,0.000488758,8.34465e-05,3.72529e-05,-0.00810623,-0.00143051,-0.000745058,0.00647377,3.96597e-06,5,0.1
0,5.5,3.3295,1.93951,0.599869,-0.0290494,0.462514,0.000133086,0.0281781,0.597194,-0.000108033,0.0204547,0.498871,5,0.1,1,5.5,-1.40348,-0.544312,0.571312,0.00630561,-0.000655465,0.000278652,-0.0119433,0.00119209,-0.000491738,0.00986997,8.2297e-06,5,0.1,2,5.5,-3.1253,1.46973,0.599585,0.406327,0.174242,0.000390224,1.06905,-0.15232,-0.000350177,0.0107474,1.21616,5,0.1,3,5.5,-1.65179,-1.65215,0.749912,0.000668317,0.866025,2.43075e-05,0.00216067,1.49012e-05,0.000122935,0.0253625,1.96871,5,0.1,4,5.5,-3.88385,1.05812,0.689044,0.000138208,0.00106841,2.13273e-05,0.000372529,0.00287592,3.35276e-05,0.0116587,1.73889e-06,5,0.1,5,5.5,-0.411618,1.33495,0.599675,-0.152513,-0.377498,0.000122562,-0.851154,0.751369,-5.21541e-05,0.0127271,3.05814,5,0.1,6,5.5,-0.320445,4.01734,0.597859,0.744683,-0.0461742,-0.0160052,0.568439,-0.0349879,-0.0806153,0.00770833,1.67498,5,0.1,7,5.5,-0.280798,-0.20032,0.600158,-0.0176161,0.00115815,-0.000144634,0.00441447,-0.000217929,4.09782e-05,0.0102863,0.245282,5,0.1,8,5.5,-0.0708321,-0.237381,0.600915,0.00366254,0.14576,-0.0011472,-0.121015,-0.290589,0.000834465,0.0097135,0.268971,5,0.1,9,5.5,-2.05147,-4.1665,0.548378,-0.000238791,-4.17233e-05,-2.86847e-05,-0.0063628,-0.00107288,-0.000573695,0.00647377,3.96597e-06,5,0.1
0,5.6,3.32674,1.98837,0.599881,-0.0262737,0.510156,0.00012219,0.0277758,0.334859,-0.000119209,0.0176044,0.522648,5,0.1,1,5.6,-1.40291,-0.544371,0.571337,0.00505447,-0.000528991,0.000226498,-0.0128746,0.0013113,-0.000536442,0.0119194,7.85212e-06,5,0.1,2,5.6,-3.07962,1.48639,0.599623,0.503242,0.158995,0.000354648,0.827432,-0.156641,-0.000327826,0.0101327,0.924656,5,0.1,3,5.6,-1.65171,-1.56554,0.749915,0.000849366,0.866026,3.57628e-05,0.00143051,-5.96046e-05,5.96046e-05,0.0133514,1.5436,5,0.1,4,5.6,-3.88383,1.05823,0.689046,0.000166893,0.0012815,2.38419e-05,0.000119209,0.0013113,2.98023e-05,0.00766027,5.69665e-07,5,0.1,5,5.6,-0.431401,1.3,0.599687,-0.24437,-0.330785,0.000116229,-0.926077,0.200927,-5.96046e-05,0.0129087,2.78314,5,0.1,6,5.6,-0.243482,4.01252,0.595862,0.790116,-0.0509501,-0.0237629,0.302523,-0.0722408,-0.0711381,0.00820972,1.305,5,0.1,7,5.6,-0.282539,-0.200209,0.600144,-0.0171907,0.00102893,-0.000141561,0.00499189,-0.00214577,5.96046e-05,0.00895699,0.245671,5,0.1,8,5.6,-0.0710685,-0.224314,0.600805,-0.00821184,0.115198,-0.00106543,-0.110578,-0.3144,0.000864267,0.00964008,0.261436,5,0.1,9,5.6,-2.05152,-4.16651,0.548372,-0.00077486,-0.00013113,-7.7486e-05,-0.00429153,-0.000715256,-0.000357628,0.00843133,1.76279e-06,5,0.1
0,5.7,3.32424,2.04112,0.599893,-0.0237603,0.544589,0.000111293,0.0232905,0.319347,-0.000108033,0.0176044,0.522648,5,0.1,1,5.7,-1.40247,-0.544418,0.571357,0.0037536,-0.000396185,0.00017155,-0.0128895,0.00131875,-0.000551343,0.0119194,7.85212e-06,5,0.1,2,5.7,-3.02516,1.50156,0.599657,0.584593,0.144735,0.000324938,0.754774,-0.13335,-0.000279397,0.0101327,0.924656,5,0.1,3,5.7,-1.65162,-1.47894,0.749919,0.00097584,0.865921,4.1537e-05,0.00106543,-0.00414252,5.21541e-05,0.0133514,1.5436,5,0.1,4,5.7,-3.88381,1.05837,0.689049,0.000172108,0.00136048,2.56114e-05,0,0.000283122,1.11759e-05,0.00766027,5.69665e-07,5,0.1,5,5.7,-0.460852,1.26673,0.599698,-0.346886,-0.344344,0.000110921,-1.06207,-0.389837,-5.58794e-05,0.0129087,2.78314,5,0.1,6,5.7,-0.162928,4.00703,0.593124,0.820161,-0.0600822,-0.0309767,0.255733,-0.147969,-0.0696182,0.00820972,1.305,5,0.1,7,5.7,-0.284307,-0.200128,0.60013,-0.0187899,0.000495394,-0.000136998,-0.0316668,-0.00739936,4.09782e-05,0.00895699,0.245671,5,0.1,8,5.7,-0.0724098,-0.21437,0.600702,-0.0182082,0.0838079,-0.000985712,-0.0863127,-0.306939,0.00076741,0.00964008,0.261436,5,0.1,9,5.7,-2.05162,-4.16653,0.548363,-0.00112988,-0.0001885,-0.000106543,-0.00278652,-0.000447035,-0.000223517,0.00843133,1.76279e-06,5,0.1
0,5.8,3.32198,2.09692,0.599904,-0.0214756,0.568205,0.000101328,0.0228882,0.129342,-0.000149012,0.0131104,0.396696,5,0.1,1,5.8,-1.40216,-0.544451,0.571372,0.0025183,-0.000269711,0.000117719,-0.0115633,0.0012219,-0.000476837,0.00650543,6.40643e-06,5,0.1,2,5.8,-2.96335,1.51537,0.599688,0.646639,0.131509,0.000298023,0.455379,-0.134468,-0.000327826,0.00894806,0.664996,5,0.1,3,5.8,-1.65152,-1.39241,0.749923,0.00105202,0.864363,4.61936e-05,0.000476837,-0.0332594,0,0.0212189,1.17563,5,0.1,4,5.8,-3.8838,1.0585,0.689052,0.000172853,0.0013411,2.5332e-05,-0.000238419,-0.000596046,0,0.0322751,1.60204e-07,5,0.1,5,5.8,-0.500655,1.22993,0.599709,-0.446045,-0.394228,0.000105798,-0.87586,-0.544846,-8.9407e-05,0.0317948,2.46738,5,0.1,6,5.8,-0.0799957,4,0.589704,0.834099,-0.0832856,-0.037089,-0.00596285,-0.306129,-0.0500977,0.0163177,0.979066,5,0.1,7,5.8,-0.286369,-0.200117,0.600117,-0.0225894,-0.000261143,-0.00013262,-0.0402629,-0.00695139,5.96046e-05,0.01037,0.242123,5,0.1,8,5.8,-0.0746026,-0.207468,0.600608,-0.0250081,0.0549052,-0.000907481,-0.0480525,-0.266626,0.000864267,0.00939926,0.251446,5,0.1,9,5.8,-2.05174,-4.16655,0.548351,-0.00132918,-0.000226498,-0.00012219,-0.0013113,0,-8.9407e-05,0.00766176,5.85565e-07,5,0.1
0,5.9,3.31983,2.1544,0.599913,-0.0223972,0.580796,8.81031e-05,-0.0340641,0.0950694,-0.000119209,0.0131104,0.396696,5,0.1,1,5.9,-1.40196,-0.544472,0.571381,0.00142083,-0.000154041,7.17118e-05,-0.0102222,0.00107288,-0.000432134,0.00650543,6.40643e-06,5,0.1,2,5.9,-2.89648,1.52789,0.599716,0.689188,0.119308,0.000268873,0.36025,-0.113532,-0.000264496,0.00894806,0.664996,5,0.1,3,5.9,-1.65141,-1.30598,0.749928,0.00108927,0.864766,4.65661e-05,0.000223517,0.00780821,7.45058e-06,0.0212189,1.17563,5,0.1,4,5.9,-3.88378,1.05863,0.689054,0.000149012,0.00125077,2.44007e-05,-0.000238419,-0.00116974,-2.23517e-05,0.0322751,1.60204e-07,5,0.1,5,5.9,-0.549761,1.18723,0.599719,-0.535949,-0.463668,9.84408e-05,-0.869997,-0.776529,-6.33299e-05,0.0317948,2.46738,5,0.1,6,5.9,0.00340353,3.98975,0.585749,0.833191,-0.124703,-0.0418973,-0.0465359,-0.484824,-0.0433363,0.0163177,0.979066,5,0.1,7,5.9,-0.288793,-0.20025,0.600104,-0.0255226,-0.00286265,-0.000127032,-0.018483,-0.0352878,5.21541e-05,0.01037,0.242123,5,0.1,8,5.9,-0.0773417,-0.203216,0.600521,-0.029658,0.0311474,-0.000825617,-0.0412427,-0.205772,0.000793487,0.00939926,0.251446,5,0.1,9,5.9,-2.05188,-4.16657,0.548339,-0.00140555,-0.000222027,-0.000126287,-0.000223517,0.000119209,7.45058e-06,0.00766176,5.85565e-07,5,0.1
0,6,3.31738,2.21271,0.599921,-0.0270009,0.582629,7.7486e-05,-0.0525713,-0.0767708,-0.000119209,0.0165987,0.279106,5,0.1,1,6,-1.40187,-0.544482,0.571386,0.000500679,-5.66244e-05,3.12924e-05,-0.00816584,0.000834465,-0.000357628,0.0100303,3.913e-06,5,0.1,2,6,-2.82615,1.53927,0.599742,0.7128,0.10812,0.000242889,0.0883341,-0.11301,-0.000268221,0.014431,0.458375,5,0.1,3,6,-1.6513,-1.21961,0.749932,0.00109375,0.860834,4.61936e-05,-0.000238419,-0.103772,0,0.0198353,1.46265,5,0.1,4,6,-3.88377,1.05875,0.689056,0.00012517,0.00110865,2.23517e-05,-0.000357628,-0.00154972,-5.96046e-05,0.0112429,8.76252e-08,5,0.1,5,6,-0.607345,1.13705,0.599729,-0.611158,-0.53784,9.23872e-05,-0.597507,-0.657439,-5.96046e-05,0.0144163,2.23096,5,0.1,6,6,0.0861941,3.97481,0.581372,0.819058,-0.173712,-0.0452995,-0.259128,-0.467181,-0.0227988,0.0104065,0.708973,5,0.1,7,6,-0.291403,-0.200697,0.600091,-0.0263229,-0.00574552,-0.000119209,0.00219047,-0.0164285,2.98023e-05,0.0196379,0.228844,5,0.1,8,6,-0.0804784,-0.201014,0.600442,-0.0326635,0.0140823,-0.000745058,-0.0166446,-0.134975,0.000834465,0.0120164,0.244471,5,0.1,9,6,-2.05202,-4.16659,0.548326,-0.00137687,-0.000202656,-0.00012219,0.000715256,0,5.96046e-05,0.0148842,1.67388e-07,5,0.1
0,6.1,3.31447,2.27061,0.599929,-0.0306189,0.574985,6.71484e-05,-0.0216961,-0.098303,-9.31323e-05,0.0165987,0.279106,5,0.1,1,6.1,-1.40186,-0.544484,0.571388,-0.000232086,1.84402e-05,-1.21072e-06,-0.0064224,0.000655651,-0.000286847,0.0100303,3.913e-06,5,0.1,2,6.1,-2.75447,1.54955,0.599765,0.719625,0.0978971,0.000219233,0.0196993,-0.0947639,-0.000216067,0.014431,0.458375,5,0.1,3,6.1,-1.65144,-1.13378,0.749982,-0.00602379,0.856991,0.00131931,-0.126392,-0.0206083,0.0226349,0.0198353,1.46265,5,0.1,4,6.1,-3.88376,1.05885,0.689058,9.31323e-05,0.00094194,1.68569e-05,-0.000268221,-0.00176579,-4.84288e-05,0.0112429,8.76252e-08,5,0.1,5,6.1,-0.671524,1.07971,0.599738,-0.671964,-0.610127,8.79169e-05,-0.571221,-0.729881,-3.72529e-05,0.0144163,2.23096,5,0.1,6,6.1,0.166857,3.95499,0.576734,0.793988,-0.223159,-0.0473657,-0.270383,-0.493318,-0.0163503,0.0104065,0.708973,5,0.1,7,6.1,-0.293992,-0.201391,0.600079,-0.0251825,-0.00798877,-0.000115205,0.0196099,-0.0082897,5.58794e-05,0.0196379,0.228844,5,0.1,8,6.1,-0.0838102,-0.200163,0.600372,-0.0337446,0.00407095,-0.000664778,-0.00311527,-0.0671893,0.000782311,0.0120164,0.244471,5,0.1,9,6.1,-2.05215,-4.16661,0.548315,-0.00127479,-0.000195205,-0.000112969,0.0012815,0.000178814,0.000115484,0.0148842,1.67388e-07,5,0.1
0,6.2,3.31134,2.32743,0.599935,-0.0316679,0.559258,5.96046e-05,-0.000596046,-0.230908,-8.9407e-05,0.0221702,0.19381,5,0.1,1,6.2,-1.40191,-0.544479,0.571386,-0.00077188,7.45058e-05,-2.68221e-05,-0.00441074,0.000447035,-0.000178814,0.0138783,1.76853e-06,5,0.1,2,6.2,-2.68271,1.55888,0.599785,0.712019,0.0885993,0.000198185,-0.190854,-0.0935197,-0.000208616,0.0164757,0.307423,5,0.1,3,6.2,-1.65278,-1.04837,0.750245,-0.0213891,0.848624,0.00406951,-0.168681,-0.180155,0.03016,0.019109,1.1157,5,0.1,4,6.2,-3.88375,1.05894,0.68906,6.55651e-05,0.000762939,1.04308e-05,-0.000238419,-0.00178814,0,0.013479,9.29874e-08,5,0.1,5,6.2,-0.741215,1.01533,0.599747,-0.717378,-0.673811,8.34465e-05,-0.304252,-0.502229,-2.98023e-05,0.0170976,2.07316,5,0.1,6,6.2,0.244698,3.93036,0.571941,0.760291,-0.267494,-0.0482082,-0.422328,-0.373125,0.00089407,0.0124953,0.499713,5,0.1,7,6.2,-0.296391,-0.202098,0.600068,-0.0225924,-0.00459962,-0.000108778,0.0313222,0.083968,8.9407e-05,0.0139532,0.199442,5,0.1,8,6.2,-0.0871663,-0.2,0.600309,-0.0330126,0,-0.000587106,0.0186339,-0.0187382,0.000804663,0.0147041,0.239074,5,0.1,9,6.2,-2.05227,-4.16663,0.548304,-0.00112057,-0.000178814,-9.98378e-05,0.00154972,0.000238419,0.000178814,0.0186974,1.04221e-07,5,0.1
0,6.3,3.30823,2.38225,0.59994,-0.0301398,0.53711,5.18747e-05,0.0246465,-0.230342,-7.07805e-05,0.0221702,0.19381,5,0.1,1,6.3,-1.402,-0.54447,0.571383,-0.00113565,0.000111572,-4.2282e-05,-0.00285357,0.000290573,-0.00012666,0.0138783,1.76853e-06,5,0.1,2,6.3,-2.61245,1.5673,0.599804,0.692703,0.0801619,0.000179466,-0.218868,-0.0779927,-0.000167638,0.0164757,0.307423,5,0.1,3,6.3,-1.65574,-0.964027,0.750797,-0.0374332,0.84069,0.00688536,-0.147685,-0.0309534,0.0254624,0.019109,1.1157,5,0.1,4,6.3,-3.88374,1.05901,0.689061,4.39584e-05,0.000585616,9.87202e-06,-0.000178814,-0.00174344,-1.49012e-05,0.013479,9.29874e-08,5,0.1,5,6.3,-0.814596,0.945243,0.599755,-0.750294,-0.728372,8.15839e-05,-0.308443,-0.534724,-1.49012e-05,0.0170976,2.07316,5,0.1,6,6.3,0.318708,3.90174,0.567126,0.720223,-0.304221,-0.0480097,-0.402324,-0.339419,0.00484288,0.0124953,0.499713,5,0.1,7,6.3,-0.298483,-0.20203,0.600058,-0.0191577,0.00783799,-9.97446e-05,0.0366401,0.192302,9.31323e-05,0.0139532,0.199442,5,0.1,8,6.3,-0.0903703,-0.200058,0.600255,-0.0309889,-0.000851648,-0.000510365,0.0233357,-0.000488013,0.000737607,0.0147041,0.239074,5,0.1,9,6.3,-2.05238,-4.16665,0.548295,-0.000951067,-0.000151247,-8.15839e-05,0.00180304,0.000327826,0.000186265,0.0186974,1.04221e-07,5,0.1
0,6.4,3.30534,2.43469,0.599945,-0.0277281,0.510144,4.61936e-05,0.0200272,-0.321269,-5.96046e-05,0.020393,0.134001,5,0.1,1,6.4,-1.40213,-0.544457,0.571378,-0.00134408,0.00013262,-5.21541e-05,-0.00119209,0.000149012,-5.96046e-05,0.0124025,5.5559e-07,5,0.1,2,6.4,-2.54448,1.57493,0.599821,0.664359,0.0725299,0.000163913,-0.36335,-0.076592,-0.000178814,0.015345,0.20326,5,0.1,3,6.4,-1.66015,-0.880219,0.7516,-0.0501752,0.83345,0.00904649,-0.10401,-0.151277,0.0172555,0.0277758,1.39228,5,0.1,4,6.4,-3.88374,1.05906,0.689062,2.98023e-05,0.000420213,8.9407e-06,-0.000238419,-0.00160933,-2.98023e-05,0.0191718,8.61769e-08,5,0.1,5,6.4,-0.890868,0.870043,0.599763,-0.771342,-0.771518,8.04663e-05,-0.0808537,-0.290096,0,0.0167656,1.98372,5,0.1,6,6.4,0.388596,3.86983,0.562368,0.675927,-0.331664,-0.0469491,-0.499308,-0.194311,0.0175834,0.0153948,0.343453,5,0.1,7,6.4,-0.300212,-0.2,0.600048,-0.0153974,0.0354066,-8.9407e-05,0.0379682,0.347026,0.000119209,0.0155648,0.332971,5,0.1,8,6.4,-0.0933355,-0.20013,0.600207,-0.0281239,-0.000473484,-0.000439584,0.0346787,0.00649691,0.000745058,0.0210241,0.232502,5,0.1,9,6.4,-2.05246,-4.16666,0.548288,-0.0007689,-0.00013113,-6.25849e-05,0.00178814,0.000476837,0.000149012,0.0162853,1.11273e-07,5,0.1
0,6.5,3.30266,2.48417,0.59995,-0.0261098,0.479824,4.13507e-05,0.00348687,-0.300333,-4.47035e-05,0.020393,0.134001,5,0.1,1,6.5,-1.40227,-0.544443,0.571373,-0.00141039,0.000141468,-5.62519e-05,-0.000149012,3.35276e-05,-2.23517e-05,0.0124025,5.5559e-07,5,0.1,2,6.5,-2.4798,1.58183,0.599837,0.629442,0.0656342,0.00014808,-0.354514,-0.0636205,-0.000141561,0.015345,0.20326,5,0.1,3,6.5,-1.66553,-0.797045,0.752563,-0.0558941,0.834195,0.00996664,-0.015296,0.100579,0.00200421,0.0277758,1.39228,5,0.1,4,6.5,-3.88374,1.05909,0.689062,1.08033e-05,0.00026878,5.96046e-06,-0.000163913,-0.00140816,-2.98023e-05,0.0191718,8.61769e-08,5,0.1,5,6.5,-0.968606,0.791233,0.599771,-0.784227,-0.805397,8.11182e-05,-0.131015,-0.334729,3.72529e-06,0.0167656,1.98372,5,0.1,6,6.5,0.453815,3.83572,0.557759,0.629162,-0.349809,-0.0452103,-0.455474,-0.151172,0.0186563,0.0153948,0.343453,5,0.1,7,6.5,-0.301562,-0.194138,0.60004,-0.0116415,0.0864319,-7.79517e-05,0.0366606,0.624148,0.000108033,0.0155648,0.332971,5,0.1,8,6.5,-0.0960137,-0.200148,0.600167,-0.0257431,7.68574e-05,-0.000369828,0.016355,0.00440981,0.000651926,0.0210241,0.232502,5,0.1,9,6.5,-2.05253,-4.16667,0.548282,-0.000590459,-8.71718e-05,-4.76837e-05,0.00177324,0.00038743,0.000149012,0.0162853,1.11273e-07,5,0.1
0,6.6,3.3,2.53059,0.599954,-0.0277281,0.44753,3.72529e-05,-0.0342131,-0.355721,-5.96046e-05,0.026344,0.147252,5,0.1,1,6.6,-1.40241,-0.544429,0.571367,-0.00137687,0.000140071,-5.66244e-05,0.000715256,-5.96046e-05,0,0.0132407,0.396815,5,0.1,2,6.6,-2.41874,1.58808,0.599851,0.590211,0.0594169,0.00013411,-0.44322,-0.0624657,-0.000119209,0.0101448,0.133787,5,0.1,3,6.6,-1.67108,-0.713148,0.753551,-0.0541568,0.842242,0.00960678,0.0457168,0.0127554,-0.00849366,0.0174728,1.05042,5,0.1,4,6.6,-3.88374,1.05911,0.689063,-5.96046e-06,0.000143051,4.47035e-06,0,-0.00113249,-5.96046e-05,0.00945521,5.45686e-08,5,0.1,5,6.6,-1.04746,0.7093,0.599779,-0.789756,-0.829495,8.19564e-05,0.0525117,-0.110298,-2.98023e-05,0.0129414,1.94382,5,0.1,6,6.6,0.514397,3.80017,0.553343,0.581558,-0.358993,-0.0429764,-0.509918,-0.0208616,0.0270009,0.00728885,0.231782,5,0.1,7,6.6,-0.302549,-0.182251,0.600033,-0.00814945,0.151569,-6.70552e-05,0.0328273,0.641249,0.000119209,0.0109873,0.229843,5,0.1,8,6.6,-0.0985139,-0.200122,0.600133,-0.0242781,0.000396743,-0.000308454,0.0152662,0.00198185,0.000596046,0.00835653,0.21045,5,0.1,9,6.6,-2.05258,-4.16668,0.548278,-0.000423193,-4.76837e-05,-3.42727e-05,0.00166893,0.000238419,0.000178814,0.00761462,9.95079e-08,5,0.1
0,6.7,3.29681,2.57365,0.599957,-0.0381179,0.414343,3.241e-05,-0.155807,-0.320762,-4.47035e-05,0.026344,0.147252,5,0.1,1,6.7,-1.40186,-0.543988,0.570899,0.0180937,0.0122735,-0.0131683,0.34532,0.215553,-0.232883,0.0132407,0.396815,5,0.1,2,6.7,-2.36184,1.59373,0.599864,0.548469,0.0538023,0.0001234,-0.407964,-0.0517294,-0.000100583,0.0101448,0.133787,5,0.1,3,6.7,-1.6762,-0.62889,0.754457,-0.0476228,0.841797,0.00842316,0.0814125,-0.0538118,-0.0145696,0.0174728,1.05042,5,0.1,4,6.7,-3.88374,1.05912,0.689063,-5.58794e-06,4.09782e-05,-5.58794e-07,1.49012e-05,-0.00089407,-3.72529e-05,0.00945521,5.45686e-08,5,0.1,5,6.7,-1.12644,0.625542,0.599787,-0.791249,-0.846888,8.01869e-05,-0.035733,-0.184838,-1.11759e-05,0.0129414,1.94382,5,0.1,6,6.7,0.570141,3.76418,0.549175,0.534273,-0.360281,-0.0404007,-0.45215,0.00913441,0.025738,0.00728885,0.231782,5,0.1,7,6.7,-0.303206,-0.163786,0.600027,-0.00505713,0.217927,-5.60656e-05,0.0287276,0.653594,9.68575e-05,0.0109873,0.229843,5,0.1,8,6.7,-0.101094,-0.200078,0.600105,-0.0291895,0.00044941,-0.00025332,-0.0974047,-0.00061281,0.000506639,0.00835653,0.21045,5,0.1,9,6.7,-2.05262,-4.16668,0.548275,-0.000265986,-2.45869e-05,-1.81608e-05,0.00146031,0.000208616,0.000145286,0.00761462,9.95079e-08,5,0.1
0,6.8,3.29214,2.61346,0.59996,-0.0557601,0.381237,2.98023e-05,-0.183225,-0.349998,-5.96046e-05,0.0137363,0.188996,5,0.1,1,6.8,-1.39805,-0.541511,0.568233,0.0599802,0.0384256,-0.0414222,0.458717,0.286371,-0.309378,0.00566426,0.308791,5,0.1,2,6.8,-2.30908,1.59886,0.599876,0.505865,0.0487477,0.000113249,-0.455141,-0.0507832,-0.000119209,0.00640705,0.151261,5,0.1,3,6.8,-1.68052,-0.545303,0.755221,-0.0385195,0.826143,0.00680536,0.0978112,-0.280544,-0.017345,0.0126494,0.967372,5,0.1,4,6.8,-3.88374,1.05912,0.689063,-5.96046e-06,-3.27826e-05,-2.98023e-06,0,-0.000715256,-2.98023e-05,0.0101292,3.02011e-08,5,0.1,5,6.8,-1.20557,0.54016,0.599795,-0.788951,-0.857486,7.89762e-05,0.11462,0.0100136,-2.98023e-05,0.0100185,2.06079,5,0.1,6,6.8,0.621294,3.72834,0.545269,0.488365,-0.354826,-0.0376254,-0.477284,0.109076,0.0305772,0.00610758,0.154806,5,0.1,7,6.8,-0.303576,-0.138923,0.600021,-0.00245273,0.276759,-4.61936e-05,0.0231713,0.500061,8.9407e-05,0.00919374,0.0675545,5,0.1,8,6.8,-0.104577,-0.200038,0.600082,-0.0409439,0.000328571,-0.000205636,-0.125617,-0.00158697,0.000417233,0.0104846,0.1842,5,0.1,9,6.8,-2.05264,-4.16668,0.548274,-0.00013113,-1.19209e-05,-5.96046e-06,0.00107288,0.000238419,0.000119209,0.00812796,6.04229e-08,5,0.1
0,6.9,3.28539,2.65011,0.599963,-0.0811365,0.354119,2.58908e-05,-0.300154,-0.214875,-2.23517e-05,0.0137363,0.188996,5,0.1,1,6.9,-1.38946,-0.536526,0.562588,0.113861,0.0585956,-0.0708025,0.5835,0.125028,-0.269748,0.00566426,0.308791,5,0.1,2,6.9,-2.26041,1.60353,0.599887,0.470392,0.044908,0.000104588,-0.283569,-0.0292063,-6.33299e-05,0.00640705,0.151261,5,0.1,3,6.9,-1.68387,-0.46509,0.755812,-0.0282845,0.769146,0.0049971,0.104345,-0.81953,-0.0183806,0.0126494,0.967372,5,0.1,4,6.9,-3.88374,1.05911,0.689062,-5.58794e-06,-9.20147e-05,-5.40167e-06,1.49012e-05,-0.000476837,-1.49012e-05,0.0101292,3.02011e-08,5,0.1,5,6.9,-1.28375,0.455071,0.599695,-0.772678,-0.838306,-0.00299644,0.229776,0.369072,-0.05465,0.0100185,2.06079,5,0.1,6,6.9,0.667883,3.69339,0.541653,0.444464,-0.343961,-0.0347585,-0.414465,0.119805,0.0277869,0.00610758,0.154806,5,0.1,7,6.9,-0.303711,-0.10904,0.600017,-0.000298722,0.317741,-3.81842e-05,0.0196118,0.31109,6.70552e-05,0.00919374,0.0675545,5,0.1,8,6.9,-0.109594,-0.200013,0.600063,-0.0616941,0.000169291,-0.000167266,-0.264444,-0.00146497,0.000357628,0.0104846,0.1842,5,0.1,9,6.9,-2.05264,-4.16668,0.548274,-3.31551e-05,8.19564e-06,4.19095e-06,0.000879169,0.000149012,8.56817e-05,0.00812796,6.04229e-08,5,0.1
0,7,3.27575,2.68452,0.599965,-0.111568,0.334352,2.38419e-05,-0.290394,-0.196934,0,0.0141973,0.139927,5,0.1,1,7,-1.37519,-0.530253,0.554282,0.17052,0.0649318,-0.0939578,0.523567,0.00873208,-0.187695,0.00513186,0.291324,5,0.1,2,7,-2.2147,1.60789,0.599897,0.444078,0.0423491,9.83477e-05,-0.264168,-0.0243783,-2.98023e-05,0.00620021,0.133898,5,0.1,3,7,-1.68618,-0.392888,0.756221,-0.018093,0.669593,0.00320524,0.0975132,-1.13785,-0.0171363,0.01319,3.23919,5,0.1,4,7,-3.88374,1.0591,0.689062,-5.96046e-06,-0.00013113,-5.96046e-06,0.000119209,-0.000178814,0,0.0105925,8.8905e-09,5,0.1,5,7,-1.35956,0.373643,0.599078,-0.739956,-0.784853,-0.00963807,0.436127,0.692695,-0.0728667,0.00928193,2.32605,5,0.1,6,7,0.71027,3.65969,0.538318,0.403139,-0.328946,-0.0318959,-0.421673,0.188231,0.0301898,0.00638573,0.103026,5,0.1,7,7,-0.303651,-0.0760778,0.600014,0.00142083,0.337722,-3.12924e-05,0.0146031,0.0844932,8.9407e-05,0.00824151,0.0817536,5,0.1,8,7,-0.117146,-0.200003,0.600048,-0.0894735,5.28991e-05,-0.00013411,-0.272494,-0.000819564,0.000298023,0.00999094,0.159053,5,0.1,9,7,-2.05264,-4.16668,0.548275,4.17233e-05,2.38419e-05,1.04308e-05,0.000596046,0,5.96046e-05,0.00808833,2.9095e-08,5,0.1
0,7.1,3.26346,2.71709,0.599968,-0.131126,0.317765,2.43075e-05,-0.107542,-0.149608,1.11759e-05,0.0141973,0.139927,5,0.1,1,7.1,-1.35553,-0.524167,0.544222,0.222141,0.0529366,-0.104694,0.486195,-0.222892,-0.0346452,0.00513186,0.291324,5,0.1,2,7.1,-2.17146,1.61229,0.599907,0.421622,0.0483057,9.63919e-05,-0.204191,0.123717,-1.86265e-05,0.00620021,0.133898,5,0.1,3,7.1,-1.68643,-0.332145,0.756458,0.0220075,0.541427,0.00158008,0.634685,-1.36985,-0.015147,0.01319,3.23919,5,0.1,4,7.1,-3.88374,1.05909,0.689061,4.09782e-06,-0.000142306,-5.86733e-06,7.45058e-05,-5.96046e-05,3.72529e-06,0.0105925,8.8905e-09,5,0.1,5,7.1,-1.43101,0.298926,0.597626,-0.685566,-0.706649,-0.0203769,0.644907,0.862344,-0.131484,0.00928193,2.32605,5,0.1,6,7.1,0.748607,3.6277,0.535271,0.364618,-0.310938,-0.0290989,-0.360277,0.181571,0.0266172,0.00638573,0.103026,5,0.1,7,7.1,-0.303443,-0.0418842,0.600011,0.00265576,0.345722,-2.35625e-05,0.0100657,0.0593472,7.07805e-05,0.00824151,0.0817536,5,0.1,8,7.1,-0.127492,-0.2,0.600036,-0.117409,2.63099e-06,-0.000106543,-0.271425,-0.000244938,0.00025332,0.00999094,0.159053,5,0.1,9,7.1,-2.05264,-4.16668,0.548276,9.23872e-05,2.38419e-05,1.4808e-05,0.000417233,0,3.35276e-05,0.00808833,2.9095e-08,5,0.1
0,7.2,3.25006,2.74809,0.59997,-0.134403,0.301903,2.5332e-05,0.0354052,-0.177979,0,0.0138166,0.110462,5,0.1,1,7.2,-1.33109,-0.520195,0.533779,0.263926,0.024958,-0.102334,0.333905,-0.316411,0.0751019,0.00870868,0.185595,5,0.1,2,7.2,-2.13035,1.61785,0.599916,0.399965,0.0635892,9.23872e-05,-0.242352,0.166655,0,0.00629684,0.0789628,5,0.1,3,7.2,-1.68065,-0.284864,0.756546,0.0964463,0.405084,0.000213087,0.799835,-1.31801,-0.0120401,0.0130619,3.31759,5,0.1,4,7.2,-3.88374,1.05907,0.689061,5.96046e-06,-0.000140071,-4.47035e-06,0.000119209,0,0,0.0100793,5.47061e-09,5,0.1,5,7.2,-1.49604,0.232788,0.594905,-0.612405,-0.614186,-0.0341013,0.810683,0.977956,-0.135094,0.00847507,1.12704,5,0.1,6,7.2,0.783292,3.59757,0.532494,0.329117,-0.291026,-0.0264257,-0.357836,0.22316,0.0274479,0.00687991,0.118106,5,0.1,7,7.2,-0.303135,-0.00716457,0.600009,0.00343174,0.346893,-1.78814e-05,0.00549853,-0.0467539,5.96046e-05,0.00876176,0.060224,5,0.1,8,7.2,-0.140488,-0.200001,0.600027,-0.14125,-6.33299e-06,-8.34465e-05,-0.195079,1.49012e-05,0.000208616,0.0095016,0.140668,5,0.1,9,7.2,-2.05263,-4.16668,0.548278,0.00012517,2.38419e-05,1.63913e-05,0.000238419,0,2.98023e-05,0.00886855,1.20789e-08,5,0.1
0,7.3,3.23702,2.77744,0.599973,-0.12437,0.285179,2.54251e-05,0.155419,-0.166014,3.72529e-06,0.0138166,0.110462,5,0.1,1,7.3,-1.30414,-0.519139,0.524203,0.265548,-0.00242544,-0.0868171,-0.249527,-0.231262,0.218082,0.00870868,0.185595,5,0.1,2,7.3,-2.09151,1.62513,0.599925,0.377126,0.0825172,9.18284e-05,-0.226721,0.1987,-1.49012e-05,0.00629684,0.0789628,5,0.1,3,7.3,-1.66657,-0.250846,0.75651,0.187852,0.277963,-0.000896771,0.973061,-1.16097,-0.0099875,0.0130619,3.31759,5,0.1,4,7.3,-3.88374,1.05906,0.68906,1.56462e-05,-0.000134856,-4.09782e-06,5.96046e-05,0.000104308,7.45058e-06,0.0100793,5.47061e-09,5,0.1,5,7.3,-1.55287,0.176029,0.590811,-0.521154,-0.523065,-0.0476947,0.991441,0.853711,-0.130795,0.00847507,1.12704,5,0.1,6,7.3,0.81469,3.56938,0.529968,0.301086,-0.274185,-0.0242535,-0.222556,0.131056,0.0175089,0.00687991,0.118106,5,0.1,7,7.3,-0.302768,0.0273495,0.600007,0.00385521,0.343537,-1.28523e-05,0.00292435,-0.0373407,3.72529e-05,0.00876176,0.060224,5,0.1,8,7.3,-0.155519,-0.200001,0.60002,-0.158478,-2.8871e-06,-6.43544e-05,-0.141834,4.65661e-05,0.000175089,0.0095016,0.140668,5,0.1,9,7.3,-2.05261,-4.16667,0.54828,0.000142306,2.38419e-05,1.80677e-05,0.000119209,0,7.45058e-06,0.00886855,1.20789e-08,5,0.1
0,7.4,3.2255,2.80508,0.599975,-0.105119,0.267106,2.5332e-05,0.221491,-0.201702,0,0.0133705,0.259748,5,0.1,1,7.4,-1.27944,-0.520398,0.516731,0.223327,-0.0213668,-0.0617459,-0.553846,-0.148356,0.270218,0.00992349,0.124192,5,0.1,2,7.4,-2.05499,1.63434,0.599934,0.352556,0.101054,8.9407e-05,-0.27287,0.162363,-5.96046e-05,0.00834475,0.0686403,5,0.1,3,7.4,-1.64301,-0.228209,0.756375,0.281459,0.182,-0.00175685,0.858366,-0.730656,-0.00709295,0.00568289,0.625184,5,0.1,4,7.4,-3.88374,1.05905,0.68906,1.78814e-05,-0.00012219,-2.98023e-06,0,0.000119209,0,0.0106895,3.89198e-09,5,0.1,5,7.4,-1.59989,0.127847,0.585435,-0.418282,-0.441854,-0.059244,1.04725,0.777151,-0.0959337,0.00940726,0.376213,5,0.1,6,7.4,0.843776,3.54258,0.527624,0.281166,-0.261801,-0.0226602,-0.190526,0.129461,0.0154972,0.00677217,0.0685779,5,0.1,7,7.4,-0.302373,0.0614191,0.600006,0.00401065,0.33658,-1.04308e-05,0.000178814,-0.113279,5.96046e-05,0.00884613,0.0939642,5,0.1,8,7.4,-0.171938,-0.200001,0.600014,-0.168375,1.49012e-06,-4.91738e-05,-0.051342,4.47035e-05,0.000149012,0.00989669,0.0247077,5,0.1,9,7.4,-2.0526,-4.16667,0.548281,0.000143051,2.38419e-05,1.78814e-05,0.000119209,-0.000238419,-2.98023e-05,0.00702007,1.05459e-08,5,0.1
0,7.5,3.21615,2.83081,0.599978,-0.0815213,0.247445,2.52388e-05,0.243753,-0.197515,-3.72529e-06,0.0133705,0.259748,5,0.1,1,7.5,-1.26028,-0.523171,0.511979,0.156782,-0.0330653,-0.0328707,-0.740699,-0.0867546,0.295952,0.00992349,0.124192,5,0.1,2,7.5,-2.02099,1.64509,0.599943,0.328093,0.112301,8.39122e-05,-0.229418,0.0634044,-4.84288e-05,0.00834475,0.0686403,5,0.1,3,7.5,-1.61188,-0.214255,0.756572,0.329171,0.0925241,0.00912538,0.141263,-1.00613,0.199098,0.00568289,0.625184,5,0.1,4,7.5,-3.88373,1.05904,0.689059,1.63913e-05,-0.000107102,-2.8871e-06,-2.98023e-05,0.000171363,3.72529e-06,0.0106895,3.89198e-09,5,0.1,5,7.5,-1.63652,0.0868714,0.579204,-0.315045,-0.383474,-0.0638096,1.00295,0.427027,-0.000961125,0.00940726,0.376213,5,0.1,6,7.5,0.87106,3.51697,0.525427,0.265372,-0.250831,-0.0213517,-0.138439,0.101328,0.0116751,0.00677217,0.0685779,5,0.1,7,7.5,-0.301974,0.094692,0.600006,0.00393218,0.330137,-5.68107e-06,-0.00171177,-0.0371919,4.09782e-05,0.00884613,0.0939642,5,0.1,8,7.5,-0.188596,-0.200001,0.60001,-0.160951,3.95812e-06,-3.47383e-05,0.179113,7.45058e-06,0.000137836,0.00989669,0.0247077,5,0.1,9,7.5,-2.05258,-4.16667,0.548283,0.000147894,4.47035e-06,1.45286e-05,-1.49012e-05,-0.000119209,-3.72529e-05,0.00702007,1.05459e-08,5,0.1
0,7.6,3.2092,2.85453,0.59998,-0.0575304,0.226623,2.5332e-05,0.231147,-0.223041,-2.98023e-05,0.0146805,0.254106,5,0.1,1,7.6,-1.24837,-0.526818,0.510138,0.0815034,-0.038968,-0.00449717,-0.738025,-0.0326633,0.263512,0.0110023,0.08619,5,0.1,2,7.6,-1.98934,1.65648,0.599951,0.304469,0.113982,7.7486e-05,-0.252008,-0.0280142,-2.98023e-05,0.0130829,0.137109,5,0.1,3,7.6,-1.57913,-0.210129,0.758646,0.318095,-0.00994429,0.0335082,-0.324428,-1.00314,0.268579,0.00680628,0.291122,5,0.1,4,7.6,-3.88373,1.05903,0.689059,1.19209e-05,-8.64267e-05,-1.49012e-06,0,0.000119209,-2.98023e-05,0.0103044,4.55441e-09,5,0.1,5,7.6,-1.66318,0.0503283,0.572936,-0.22018,-0.349969,-0.0604749,0.884056,0.271293,0.0628233,0.00843764,0.238334,5,0.1,6,7.6,0.896903,3.49243,0.523351,0.251235,-0.239599,-0.0201523,-0.153601,0.13113,0.012964,0.00707496,0.0532585,5,0.1,7,7.6,-0.301592,0.1275,0.600005,0.00367761,0.325429,-2.98023e-06,-0.00333786,-0.072487,2.98023e-05,0.00929367,0.169252,5,0.1,8,7.6,-0.203555,-0.200001,0.600007,-0.136239,3.72529e-06,-2.23517e-05,0.298947,-7.45058e-06,0.000119209,0.00973369,0.250432,5,0.1,9,7.6,-2.05257,-4.16667,0.548284,0.000143051,-1.19209e-05,1.19209e-05,-0.000238419,0.000238419,-5.96046e-05,0.00748998,5.35834e-09,5,0.1
0,7.7,3.20459,2.87606,0.599983,-0.0350393,0.203715,2.24449e-05,0.210762,-0.236154,-2.6077e-05,0.0146805,0.254106,5,0.1,1,7.7,-1.24392,-0.530812,0.510971,0.00795703,-0.0402941,0.0206334,-0.710554,0.00455603,0.232641,0.0110023,0.08619,5,0.1,2,7.7,-1.96017,1.66756,0.599959,0.278635,0.105945,7.35745e-05,-0.268057,-0.12517,-5.21541e-05,0.0130829,0.137109,5,0.1,3,7.7,-1.54905,-0.216055,0.763585,0.282689,-0.107056,0.0670732,-0.380084,-0.913204,0.37754,0.00680628,0.291122,5,0.1,4,7.7,-3.88373,1.05902,0.689059,1.15484e-05,-7.20844e-05,-3.53903e-06,-1.49012e-05,0.000156462,-7.45058e-06,0.0103044,4.55441e-09,5,0.1,5,7.7,-1.68105,0.0161987,0.567316,-0.140052,-0.336572,-0.0509582,0.713289,0.0334901,0.120811,0.00843764,0.238334,5,0.1,6,7.7,0.921378,3.46903,0.521391,0.239126,-0.228901,-0.0191053,-0.102106,0.094682,0.00900775,0.00707496,0.0532585,5,0.1,7,7.7,-0.301243,0.160006,0.600005,0.00330638,0.327137,-5.58794e-07,-0.00404939,0.0750805,1.49012e-05,0.00929367,0.169252,5,0.1,8,7.7,-0.215845,-0.2,0.600005,-0.111021,2.468e-06,-1.24797e-05,0.211957,-1.67638e-05,8.19564e-05,0.00973369,0.250432,5,0.1,9,7.7,-2.05256,-4.16667,0.548285,0.000118837,8.19564e-06,6.51926e-06,-0.00025332,0.000149012,-4.47035e-05,0.00748998,5.35834e-09,5,0.1
0,7.8,3.20206,2.89522,0.599985,-0.0166297,0.179255,1.93715e-05,0.152707,-0.253201,-2.98023e-05,0.0139631,0.412239,5,0.1,1,7.8,-1.24648,-0.534768,0.514104,-0.0568599,-0.038366,0.0409737,-0.570655,0.0325143,0.170022,0.00953148,0.0493363,5,0.1,2,7.8,-1.9337,1.67742,0.599966,0.250337,0.0903398,6.70552e-05,-0.299692,-0.180542,-5.96046e-05,0.0111876,0.193606,5,0.1,3,7.8,-1.52274,-0.231003,0.772189,0.242794,-0.188217,0.104621,-0.414491,-0.692226,0.354618,0.00692303,0.212552,5,0.1,4,7.8,-3.88373,1.05901,0.689059,5.96046e-06,-5.66244e-05,-4.47035e-06,0.000119209,0.000238419,0,0.0105923,5.53297e-09,5,0.1,5,7.8,-1.6918,-0.0174349,0.562875,-0.0781894,-0.336823,-0.0375167,0.522494,-0.0108862,0.142723,0.0111196,0.462665,5,0.1,6,7.8,0.944775,3.44664,0.519526,0.228506,-0.21866,-0.0181735,-0.119835,0.118613,0.0103712,0.00664238,0.0241792,5,0.1,7,7.8,-0.300933,0.193126,0.600005,0.00287518,0.334966,0,-0.00455976,0.0583082,0,0.00854281,0.104065,5,0.1,8,7.8,-0.225987,-0.2,0.600004,-0.0926763,1.11759e-06,-5.96046e-06,0.160091,-1.49012e-05,5.96046e-05,0.00938068,0.247961,5,0.1,9,7.8,-2.05254,-4.16667,0.548286,9.53674e-05,1.19209e-05,2.98023e-06,-0.000238419,0.000238419,-5.96046e-05,0.00719376,9.04333e-09,5,0.1
0,7.9,3.20114,2.91191,0.599987,-0.00229925,0.1548,1.64844e-05,0.113517,-0.237212,-2.6077e-05,0.0139631,0.412239,5,0.1,1,7.9,-1.25486,-0.53841,0.51898,-0.108856,-0.0341854,0.055756,-0.457883,0.0495501,0.122759,0.00953148,0.0493363,5,0.1,2,7.9,-1.91012,1.6855,0.599972,0.221624,0.0709897,6.07222e-05,-0.27851,-0.201292,-6.70552e-05,0.0111876,0.193606,5,0.1,3,7.9,-1.50024,-0.252918,0.78453,0.209918,-0.24625,0.142701,-0.259116,-0.462897,0.385132,0.00692303,0.212552,5,0.1,4,7.9,-3.88373,1.05901,0.689058,1.41561e-05,-3.39001e-05,-4.00469e-06,2.98023e-05,0.000208616,1.11759e-05,0.0105923,5.53297e-09,5,0.1,5,7.9,-1.69733,-0.0514326,0.559826,-0.0356147,-0.344965,-0.0236019,0.333168,-0.121709,0.133347,0.0111196,0.462665,5,0.1,6,7.9,0.967048,3.42535,0.517759,0.216974,-0.20697,-0.0171748,-0.118017,0.121325,0.0101514,0.00664238,0.0241792,5,0.1,7,7.9,-0.300669,0.226996,0.600005,0.00239504,0.34273,-9.31323e-08,-0.00496395,0.0764439,-3.72529e-06,0.00854281,0.104065,5,0.1,8,7.9,-0.234545,-0.2,0.600004,-0.0792824,4.65661e-08,-1.21072e-06,0.112389,-7.45058e-06,4.09782e-05,0.00938068,0.247961,5,0.1,9,7.9,-2.05254,-4.16667,0.548286,7.18981e-05,3.12924e-05,-1.76951e-06,-0.000223517,0.000119209,-4.09782e-05,0.00719376,9.04333e-09,5,0.1
0,8,3.2013,2.92622,0.599988,0.00326037,0.131595,1.49012e-05,-0.0103712,-0.227571,-5.96046e-05,0.0136039,0.395811,5,0.1,1,8,-1.26777,-0.541563,0.525073,-0.146636,-0.0287384,0.0650957,-0.291049,0.0581145,0.0626445,0.00777133,0.0216833,5,0.1,2,8,-1.88934,1.6916,0.599978,0.193983,0.0510007,5.36442e-05,-0.276864,-0.19455,-8.9407e-05,0.00855731,0.19014,5,0.1,3,8,-1.48039,-0.279443,0.800629,0.18813,-0.280055,0.177893,-0.188887,-0.211343,0.303,0.00675853,0.18697,5,0.1,4,8,-3.88373,1.059,0.689058,1.78814e-05,-1.49012e-05,-2.98023e-06,0,0.000119209,0,0.00789553,4.15012e-09,5,0.1,5,8,-1.69951,-0.0865168,0.558102,-0.0105172,-0.35594,-0.0112265,0.17494,-0.0757837,0.112593,0.0109744,1.04457,5,0.1,6,8,0.988111,3.40531,0.516095,0.203709,-0.193381,-0.0160515,-0.151932,0.154376,0.0126362,0.00674101,0.0146376,5,0.1,7,8,-0.300455,0.261544,0.600005,0.00189692,0.346775,-1.49012e-06,-0.00493228,-0.00983477,2.98023e-05,0.00996542,0.0822439,5,0.1,8,8,-0.24196,-0.2,0.600004,-0.0693869,-3.72529e-07,0,0.089027,0,5.96046e-05,0.00882184,0.246668,5,0.1,9,8,-2.05253,-4.16666,0.548285,4.76837e-05,3.57628e-05,-4.47035e-06,-0.000119209,0,-2.98023e-05,0.00613862,4.39718e-09,5,0.1
0,8.1,3.20141,2.93814,0.599989,-0.0033211,0.105831,9.87202e-06,-0.149086,-0.279263,-3.72529e-05,0.0136039,0.395811,5,0.1,1,8.1,-1.2837,-0.544138,0.531828,-0.169959,-0.0227119,0.0693205,-0.171535,0.0611953,0.02129,0.00777133,0.0216833,5,0.1,2,8.1,-1.87129,1.69576,0.599983,0.167357,0.0326417,4.51691e-05,-0.257418,-0.168949,-7.82311e-05,0.00855731,0.19014,5,0.1,3,8.1,-1.46221,-0.308245,0.819978,0.178198,-0.293348,0.209037,-0.0316948,-0.0532176,0.300545,0.00675853,0.18697,5,0.1,4,8.1,-3.88373,1.059,0.689058,1.60187e-05,-3.1665e-06,-2.51457e-06,-4.47035e-05,0.000111759,1.11759e-05,0.00789553,4.15012e-09,5,0.1,5,8.1,-1.69985,-0.122916,0.557521,0.00203382,-0.375203,-0.000662263,0.0811741,-0.266042,0.0970848,0.0109744,1.04457,5,0.1,6,8.1,1.00774,3.38672,0.514551,0.188963,-0.178293,-0.0148274,-0.148628,0.152186,0.0122786,0.00674101,0.0146376,5,0.1,7,8.1,-0.300289,0.296278,0.600005,0.00142115,0.348423,3.72529e-07,-0.00454299,0.0215769,1.49012e-05,0.00996542,0.0822439,5,0.1,8,8.1,-0.248502,-0.2,0.600004,-0.0618612,-2.79397e-07,4.28408e-06,0.0646347,1.86265e-06,2.98023e-05,0.00882184,0.246668,5,0.1,9,8.1,-2.05253,-4.16666,0.548285,3.57628e-05,3.27826e-05,-6.51926e-06,-0.000119209,-5.96046e-05,-7.45058e-06,0.00613862,4.39718e-09,5,0.1
0,8.2,3.2,2.9473,0.59999,-0.0280499,0.0772536,7.45058e-06,-0.332475,-0.285506,-5.96046e-05,0.0128497,0.342876,5,0.1,1,8.2,-1.30134,-0.546107,0.538795,-0.180432,-0.0167146,0.0693083,-0.0365973,0.0578463,-0.0213981,0.00907217,0.509322,5,0.1,2,8.2,-1.85582,1.69824,0.599987,0.14222,0.0177711,3.72529e-05,-0.246465,-0.126541,-8.9407e-05,0.00882606,0.188775,5,0.1,3,8.2,-1.44443,-0.337578,0.84225,0.177938,-0.290641,0.23472,0.00989437,0.106618,0.199556,0.0126463,3.85285,5,0.1,4,8.2,-3.88372,1.059,0.689057,1.19209e-05,5.96046e-06,-1.49012e-06,0,5.96046e-05,0,0.00835153,3.38611e-09,5,0.1,5,8.2,-1.69937,-0.161788,0.557904,0.00667274,-0.401601,0.00792444,0.0162125,-0.229887,0.0735819,0.00951937,3.25227,5,0.1,6,8.2,1.02586,3.36968,0.513132,0.173077,-0.162172,-0.0135273,-0.172615,0.172973,0.0140071,0.0073391,0.00466352,5,0.1,7,8.2,-0.300169,0.331138,0.600005,0.000996143,0.3475,1.49012e-06,-0.00393391,-0.0547469,-2.98023e-05,0.0109303,0.112062,5,0.1,8,8.2,-0.254384,-0.2,0.600005,-0.0559121,0,5.96046e-06,0.056684,0,2.98023e-05,0.00927723,0.245927,5,0.1,9,8.2,-2.05252,-4.16666,0.548284,1.78814e-05,2.38419e-05,-7.45058e-06,0,0,0,0.0064275,5.22847e-09,5,0.1
0,8.3,3.19514,2.95359,0.599991,-0.0722207,0.0486422,2.70084e-06,-0.514776,-0.280663,-4.09782e-05,0.0128497,0.342876,5,0.1,1,8.3,-1.31886,-0.547993,0.544942,-0.163927,-0.0252768,0.0478912,0.330448,-0.198148,-0.36598,0.00907217,0.509322,5,0.1,2,8.3,-1.84279,1.69947,0.59999,0.118732,0.00756048,2.8871e-05,-0.223972,-0.077948,-7.45058e-05,0.00882606,0.188775,5,0.1,3,8.3,-1.42593,-0.363892,0.866276,0.197607,-0.216832,0.241679,0.334144,1.23807,-0.0478365,0.0126463,3.85285,5,0.1,4,8.3,-3.88372,1.05901,0.689057,1.00583e-05,1.17347e-05,-1.11759e-06,-4.47035e-05,5.21541e-05,7.45058e-06,0.00835153,3.38611e-09,5,0.1,5,8.3,-1.69851,-0.203832,0.559037,0.0110535,-0.444844,0.0144529,0.0531152,-0.5656,0.0561215,0.00951937,3.25227,5,0.1,6,8.3,1.04231,3.35433,0.51185,0.155678,-0.144802,-0.0121217,-0.177294,0.175953,0.0142455,0.0073391,0.00466352,5,0.1,7,8.3,-0.300087,0.365785,0.600005,0.0006421,0.346548,-1.02445e-06,-0.00314601,0.0125393,-1.86265e-05,0.0109303,0.112062,5,0.1,8,8.3,-0.259717,-0.2,0.600006,-0.0509413,0,7.72998e-06,0.0448376,0,1.11759e-05,0.00927723,0.245927,5,0.1,9,8.3,-2.05252,-4.16665,0.548284,1.60187e-05,2.30968e-05,-6.98492e-06,-4.47035e-05,-2.98023e-05,1.11759e-05,0.0064275,5.22847e-09,5,0.1
0,8.4,3.18529,2.9571,0.599991,-0.124657,0.022167,0,-0.506759,-0.244141,0,0.013679,0.277238,5,0.1,1,8.4,-1.33324,-0.551724,0.547611,-0.120869,-0.0508443,0.00341386,0.501752,-0.289112,-0.49156,0.00634176,0.393439,5,0.1,2,8.4,-1.832,1.69991,0.599993,0.0973135,0.0019908,2.23517e-05,-0.204921,-0.0352263,-5.96046e-05,0.00594656,0.320368,5,0.1,3,8.4,-1.40429,-0.378413,0.889883,0.236076,-0.0665098,0.227532,0.397682,1.66509,-0.223905,0.0117259,3.11087,5,0.1,4,8.4,-3.88372,1.05901,0.689057,5.96046e-06,1.49012e-05,0,0,5.96046e-05,0,0.010853,2.74089e-09,5,0.1,5,8.4,-1.69719,-0.251229,0.560728,0.0144005,-0.502617,0.0190154,0.00315905,-0.538216,0.0346601,0.0081003,3.10091,5,0.1,6,8.4,1.05697,3.34075,0.51071,0.137329,-0.126755,-0.0106558,-0.190496,0.185609,0.0151396,0.00661411,0.00140299,5,0.1,7,8.4,-0.300038,0.400458,0.600005,0.000367314,0.346036,-2.98023e-06,-0.00236928,-0.0393242,-2.98023e-05,0.00937255,0.186426,5,0.1,8,8.4,-0.264592,-0.2,0.600006,-0.046584,0,7.45058e-06,0.0438243,0,-2.98023e-05,0.00850111,0.245492,5,0.1,9,8.4,-2.05252,-4.16665,0.548283,1.19209e-05,1.19209e-05,-5.96046e-06,-0.000119209,0.000238419,0,0.00650339,9.09401e-09,5,0.1
0,8.5,3.17018,2.95813,0.599991,-0.177942,-0.00112839,3.72529e-07,-0.531539,-0.217304,7.45058e-06,0.013679,0.277238,5,0.1,1,8.5,-1.34282,-0.558342,0.545722,-0.0710594,-0.0819555,-0.0388973,0.484101,-0.31662,-0.353772,0.00634176,0.393439,5,0.1,2,8.5,-1.82325,1.69996,0.599995,0.0781648,-0.000739843,1.68569e-05,-0.178546,-0.0196695,-4.84288e-05,0.00594656,0.320368,5,0.1,3,8.5,-1.37844,-0.375967,0.911353,0.282596,0.120648,0.200439,0.494927,1.98134,-0.309892,0.0117259,3.11087,5,0.1,4,8.5,-3.88372,1.05901,0.689057,4.47035e-06,1.9744e-05,3.72529e-07,-2.98023e-05,2.98023e-05,7.45058e-06,0.010853,2.74089e-09,5,0.1,5,8.5,-1.69565,-0.3045,0.562787,0.0161437,-0.564541,0.0219671,-0.0111088,-0.643693,0.0236034,0.0081003,3.10091,5,0.1,6,8.5,1.06975,3.32899,0.50972,0.118377,-0.108383,-0.00915471,-0.188619,0.181779,0.0148863,0.00661411,0.00140299,5,0.1,7,8.5,-0.300012,0.435176,0.600004,0.000167778,0.350596,-5.40167e-06,-0.00164099,0.0980198,-1.49012e-05,0.00937255,0.186426,5,0.1,8,8.5,-0.269045,-0.2,0.600007,-0.0425665,2.32831e-08,4.47035e-06,0.037903,9.31323e-07,-2.98023e-05,0.00850111,0.245492,5,0.1,9,8.5,-2.05252,-4.16665,0.548282,3.72529e-07,2.83122e-05,-5.4948e-06,-0.000104308,5.96046e-05,1.11759e-05,0.00650339,9.09401e-09,5,0.1
0,8.6,3.14987,2.957,0.599991,-0.226265,-0.0205517,1.49012e-06,-0.415325,-0.168204,-2.98023e-05,0.0135071,0.211413,5,0.1,1,8.6,-1.34761,-0.568054,0.540296,-0.0258267,-0.111325,-0.0672996,0.41306,-0.258833,-0.214726,0.00771489,0.0767494,5,0.1,2,8.6,-1.81629,1.69981,0.599996,0.061515,-0.00200868,1.3411e-05,-0.154912,-0.00619888,-5.96046e-05,0.00821084,0.315917,5,0.1,3,8.6,-1.3478,-0.35413,0.929762,0.328538,0.312903,0.167036,0.396371,1.79191,-0.351369,0.0111418,2.61249,5,0.1,4,8.6,-3.88372,1.05901,0.689057,0,2.38419e-05,1.49012e-06,0,0,-2.98023e-05,0.0090993,2.39467e-09,5,0.1,5,8.6,-1.69437,-0.363966,0.565078,0.00622571,-0.621641,0.0236124,-0.203907,-0.457749,0.00891089,0.0101433,2.90365,5,0.1,6,8.6,1.08065,3.31906,0.508878,0.0996172,-0.0904262,-0.00768006,-0.186384,0.177026,0.0146329,0.00656545,0.000756556,5,0.1,7,8.6,-0.300002,0.470734,0.600004,3.35276e-05,0.360016,-7.45058e-06,-0.00102818,0.0666529,2.98023e-05,0.00964331,0.113798,5,0.1,8,8.6,-0.273112,-0.2,0.600007,-0.0387698,0,1.49012e-06,0.0390112,0,-2.98023e-05,0.00830972,0.245246,5,0.1,9,8.6,-2.05252,-4.16665,0.548282,-5.96046e-06,3.57628e-05,-4.47035e-06,-0.000119209,-0.000238419,2.98023e-05,0.00680592,6.2238e-09,5,0.1
0,8.7,3.12517,2.95415,0.599991,-0.266969,-0.0360515,-5.58794e-07,-0.377655,-0.138447,-7.45058e-06,0.0135071,0.211413,5,0.1,1,8.7,-1.34858,-0.579934,0.532921,0.00227336,-0.121406,-0.0763755,0.167228,0.0337847,0.0142604,0.00771489,0.0767494,5,0.1,2,8.7,-1.81087,1.69951,0.599997,0.047165,-0.00451375,8.3819e-06,-0.132225,-0.0334159,-3.72529e-05,0.00821084,0.315917,5,0.1,3,8.7,-1.31287,-0.313746,0.944694,0.370131,0.494173,0.131594,0.404507,1.75792,-0.35252,0.0111418,2.61249,5,0.1,4,8.7,-3.88372,1.05901,0.689057,-1.49012e-06,2.30968e-05,-5.58794e-07,-2.98023e-05,-1.49012e-05,-7.45058e-06,0.0090993,2.39467e-09,5,0.1,5,8.7,-1.69496,-0.428562,0.567477,-0.0220645,-0.670477,0.0242621,-0.432938,-0.471175,0.00333041,0.0101433,2.90365,5,0.1,6,8.7,1.0897,3.31088,0.508182,0.0815066,-0.073304,-0.00626193,-0.17523,0.164837,0.013683,0.00656545,0.000756556,5,0.1,7,8.7,-0.300003,0.507139,0.600003,-4.70318e-05,0.368242,-4.93601e-06,-0.000603497,0.0768509,1.86265e-05,0.00964331,0.113798,5,0.1,8,8.7,-0.276803,-0.2,0.600007,-0.0350958,0,-1.39698e-06,0.035366,0,-2.6077e-05,0.00830972,0.245246,5,0.1,9,8.7,-2.05252,-4.16664,0.548281,-1.60187e-05,1.49012e-05,-1.86265e-06,-7.45058e-05,-0.000178814,2.23517e-05,0.00680592,6.2238e-09,5,0.1
0,8.8,3.09679,2.94992,0.599991,-0.298238,-0.0476956,-1.49012e-06,-0.233412,-0.0920296,-2.98023e-05,0.0125811,0.152061,5,0.1,1,8.8,-1.3478,-0.591582,0.525605,0.0109017,-0.10879,-0.0678509,0.0200272,0.199705,0.141174,0.00571969,0.369934,5,0.1,2,8.8,-1.80678,1.69891,0.599998,0.0350386,-0.00701845,4.47035e-06,-0.110567,-0.0103116,-2.98023e-05,0.00666359,0.298399,5,0.1,3,8.8,-1.27403,-0.256105,0.956123,0.404161,0.651589,0.0974074,0.254393,1.337,-0.327438,0.0140318,2.28705,5,0.1,4,8.8,-3.88372,1.05901,0.689057,-5.96046e-06,2.08616e-05,-1.49012e-06,0.000119209,0,0,0.00799632,3.27768e-09,5,0.1,5,8.8,-1.7,-0.497666,0.569905,-0.0848979,-0.707756,0.0241578,-0.798166,-0.241041,-0.00584126,0.0100295,2.63655,5,0.1,6,8.8,1.09699,3.30435,0.507622,0.06468,-0.0575662,-0.00495315,-0.160754,0.149608,0.012517,0.00786622,0.000676645,5,0.1,7,8.8,-0.30001,0.544223,0.600003,-8.9407e-05,0.371827,-2.98023e-06,-0.000283122,-0.0196695,0,0.00892934,0.0630644,5,0.1,8,8.8,-0.280136,-0.2,0.600007,-0.0315472,3.72529e-07,-2.98023e-06,0.0362247,-7.45058e-06,-2.98023e-05,0.00857368,0.245388,5,0.1,9,8.8,-2.05252,-4.16664,0.548281,-1.78814e-05,0,0,-0.000119209,-0.000238419,2.98023e-05,0.00660494,6.47607e-09,5,0.1
0,8.9,3.06584,2.94473,0.599991,-0.320002,-0.0558417,-3.53903e-06,-0.185251,-0.0682622,-7.45058e-06,0.0125811,0.152061,5,0.1,1,8.9,-1.34576,-0.601655,0.519469,0.037108,-0.0943242,-0.055386,0.448808,0.100091,0.110153,0.00571969,0.369934,5,0.1,2,8.9,-1.8038,1.69811,0.599998,0.0250215,-0.00880659,1.95578e-06,-0.0899956,-0.0026077,-1.86265e-05,0.00666359,0.298399,5,0.1,3,8.9,-1.23228,-0.184767,0.964273,0.430766,0.769166,0.0661437,0.24984,0.978106,-0.294682,0.0140318,2.28705,5,0.1,4,8.9,-3.88372,1.05902,0.689057,2.23517e-06,1.99303e-05,-1.11759e-06,2.98023e-05,-2.23517e-05,7.45058e-06,0.00799632,3.27768e-09,5,0.1,5,8.9,-1.71339,-0.569748,0.572291,-0.189904,-0.733792,0.0235291,-1.21667,-0.237729,-0.00746548,0.0100295,2.63655,5,0.1,6,8.9,1.10268,3.29931,0.507187,0.0494488,-0.0434548,-0.00377018,-0.14326,0.132054,0.0111014,0.00786622,0.000676645,5,0.1,7,8.9,-0.30002,0.581288,0.600002,-0.000105752,0.368925,-2.98023e-06,-5.7742e-05,-0.0515133,0,0.00892934,0.0630644,5,0.1,8,8.9,-0.28317,-0.200011,0.600007,-0.0296487,-0.000298186,-5.4948e-06,0.00580214,-0.00491273,-1.86265e-05,0.00857368,0.245388,5,0.1,9,8.9,-2.05253,-4.16664,0.548282,-2.75671e-05,-2.01166e-05,2.51457e-06,-5.96046e-05,-0.000149012,1.86265e-05,0.00660494,6.47607e-09,5,0.1
0,9,3.0331,2.93886,0.59999,-0.332522,-0.0609219,-2.98023e-06,-0.0540018,-0.0317097,-2.98023e-05,0.0104146,0.177434,5,0.1,1,9,-1.33947,-0.610681,0.514443,0.0908524,-0.0869185,-0.0454605,0.583351,0.056088,0.0899136,0.00746113,0.132517,5,0.1,2,9,-1.80171,1.69737,0.599999,0.0169903,-0.00436306,1.49012e-06,-0.0709295,0.100493,-2.98023e-05,0.00814379,0.259821,5,0.1,3,9,-1.18815,-0.103777,0.96949,0.449416,0.842027,0.0390008,0.103831,0.463722,-0.246018,0.0129096,2.16189,5,0.1,4,9,-3.88372,1.05902,0.689057,5.96046e-06,1.78814e-05,0,0,0,0,0.00744422,3.37936e-09,5,0.1,5,9,-1.73858,-0.644029,0.574599,-0.313291,-0.748213,0.022544,-1.18673,-0.0217855,-0.0127256,0.00785461,2.21375,5,0.1,6,9,1.10695,3.29559,0.506863,0.0361323,-0.0312448,-0.00274181,-0.122726,0.111818,0.00947714,0.00809872,0.000531867,5,0.1,7,9,-0.300031,0.617783,0.600002,-0.000103563,0.359355,-2.98023e-06,0.000104308,-0.148475,0,0.00968469,0.0436489,5,0.1,8,9,-0.286129,-0.200066,0.600006,-0.0296727,-0.000805035,-7.45058e-06,-0.00320375,-0.00451505,0,0.0111841,0.241973,5,0.1,9,9,-2.05253,-4.16665,0.548282,-2.98023e-05,-2.38419e-05,2.98023e-06,0,-0.000238419,2.98023e-05,0.00763416,6.44876e-09,5,0.1
0,9.1,2.99935,2.93263,0.59999,-0.344104,-0.0632301,-4.37722e-06,-0.14782,-0.0127256,-3.72529e-06,0.0104146,0.177434,5,0.1,1,9.1,-1.32836,-0.618745,0.510541,0.123326,-0.071466,-0.0309943,0.103176,0.231281,0.185061,0.00746113,0.132517,5,0.1,2,9.1,-1.80034,1.69755,0.599999,0.0107219,0.0101665,-9.31323e-07,-0.0546947,0.221662,-1.49012e-05,0.00814379,0.259821,5,0.1,3,9.1,-1.1426,-0.0181303,0.972217,0.461841,0.864322,0.0161713,0.117816,0.0640562,-0.208229,0.0129096,2.16189,5,0.1,4,9.1,-3.88372,1.05902,0.689057,4.47035e-06,1.69501e-05,3.72529e-07,-2.98023e-05,-2.23517e-05,7.45058e-06,0.00744422,3.37936e-09,5,0.1,5,9.1,-1.77615,-0.719049,0.576792,-0.439343,-0.752143,0.0213321,-1.26643,-0.0206381,-0.0121891,0.00785461,2.21375,5,0.1,6,9.1,1.10998,3.293,0.506634,0.0248166,-0.0209842,-0.00187047,-0.103228,0.0930876,0.00792742,0.00809872,0.000531867,5,0.1,7,9.1,-0.30004,0.65303,0.600002,-8.70321e-05,0.345784,-2.98023e-06,0.000210479,-0.13693,0,0.00968469,0.0436489,5,0.1,8,9.1,-0.289087,-0.200242,0.600005,-0.0292443,-0.00318338,-7.45058e-06,0.0115205,-0.0332734,0,0.0111841,0.241973,5,0.1,9,9.1,-2.05253,-4.16665,0.548282,-2.83122e-05,-4.32134e-05,5.40167e-06,2.98023e-05,-0.000119209,1.49012e-05,0.00763416,6.44876e-09,5,0.1
0,9.2,2.96425,2.92629,0.599989,-0.35696,-0.0631988,-4.47035e-06,-0.0879765,0.0145435,0,0.0102448,0.108592,5,0.1,1,9.2,-1.31605,-0.624593,0.508428,0.11816,-0.0444785,-0.0109538,-0.176966,0.291914,0.20501,0.00688958,0.0827698,5,0.1,2,9.2,-1.79952,1.7,0.599998,0.00599623,0.041756,-1.49012e-06,-0.0401139,0.39655,-2.98023e-05,0.0079868,0.198979,5,0.1,3,9.2,-1.09598,0.0684361,0.972871,0.468424,0.866025,-0.00226647,-0.00470877,4.76837e-06,-0.159055,0.0132129,2.13598,5,0.1,4,9.2,-3.88372,1.05902,0.689057,0,1.49012e-05,1.49012e-06,0,0,0,0.00775313,2.71372e-09,5,0.1,5,9.2,-1.82609,-0.794122,0.578861,-0.554916,-0.746246,0.0199929,-0.996292,0.163376,-0.0150204,0.00784486,1.6518,5,0.1,6,9.2,1.11198,3.29133,0.506484,0.0155419,-0.012666,-0.00115931,-0.0820756,0.0730753,0.00625849,0.00752419,0.000317728,5,0.1,7,9.2,-0.300048,0.68685,0.600002,-6.33299e-05,0.329633,-2.98023e-06,0.00025332,-0.195473,0,0.00855837,0.0804924,5,0.1,8,9.2,-0.291931,-0.200711,0.600004,-0.0274301,-0.00588819,-5.96046e-06,0.0244379,-0.0148863,-2.98023e-05,0.0117364,0.228744,5,0.1,9,9.2,-2.05253,-4.16666,0.548283,-2.38419e-05,-4.76837e-05,5.96046e-06,0,0,0,0.00643562,4.30424e-09,5,0.1
0,9.3,2.92808,2.92013,0.599989,-0.366195,-0.0593033,-3.63216e-06,-0.0776649,0.0601858,1.86265e-05,0.0102448,0.108592,5,0.1,1,9.3,-1.3055,-0.627493,0.508392,0.0898711,-0.0129967,0.0103587,-0.362441,0.323664,0.212304,0.00688958,0.0827698,5,0.1,2,9.3,-1.7991,1.70651,0.599998,0.00257064,0.0909671,-3.53903e-06,-0.0286624,0.551596,-7.45058e-06,0.0079868,0.198979,5,0.1,3,9.3,-1.04904,0.155039,0.971894,0.471075,0.866025,-0.0167728,0.0311583,5.96046e-07,-0.128958,0.0132129,2.13598,5,0.1,4,9.3,-3.88372,1.05902,0.689057,-1.49012e-06,1.39698e-05,1.58325e-06,-2.98023e-05,-2.23517e-05,3.72529e-06,0.00775313,2.71372e-09,5,0.1,5,9.3,-1.88655,-0.868001,0.580789,-0.653074,-0.731272,0.0185839,-0.914596,0.165377,-0.0137277,0.00784486,1.6518,5,0.1,6,9.3,1.11315,3.2904,0.506397,0.0082206,-0.00618696,-0.000602379,-0.0642836,0.0564754,0.00488013,0.00752419,0.000317728,5,0.1,7,9.3,-0.300053,0.719049,0.600001,-3.78583e-05,0.315925,-2.98023e-06,0.000247732,-0.099469,0,0.00855837,0.0804924,5,0.1,8,9.3,-0.294535,-0.201413,0.600004,-0.0244961,-0.00800462,-8.3819e-06,0.0335202,-0.00727922,-1.49012e-05,0.0117364,0.228744,5,0.1,9,9.3,-2.05254,-4.16666,0.548284,-2.19792e-05,-4.47035e-05,5.58794e-06,4.47035e-05,5.96046e-05,-7.45058e-06,0.00643562,4.30424e-09,5,0.1
0,9.4,2.89122,2.91455,0.599989,-0.369287,-0.0517428,-1.49012e-06,0.0289679,0.0879765,0,0.0117248,0.0610391,5,0.1,1,9.4,-1.29845,-0.627216,0.510442,0.0502974,0.0178576,0.029996,-0.409305,0.28348,0.174314,0.00673588,0.0544994,5,0.1,2,9.4,-1.79897,1.71837,0.599998,0.000208616,0.145781,-4.47035e-06,-0.0187159,0.517666,0,0.00769579,0.135069,5,0.1,3,9.4,-1.00189,0.241641,0.969636,0.470142,0.866025,-0.0277191,-0.0684559,7.15256e-06,-0.0886917,0.0120854,1.74883,5,0.1,4,9.4,-3.88372,1.05902,0.689057,-5.96046e-06,1.19209e-05,1.49012e-06,0,-5.96046e-05,2.98023e-05,0.00845227,2.24986e-09,5,0.1,5,9.4,-1.95595,-0.940102,0.582577,-0.729012,-0.708263,0.0171512,-0.568211,0.314653,-0.0152588,0.00773384,1.17542,5,0.1,6,9.4,1.11368,3.29004,0.506358,0.00268519,-0.00136495,-0.000183284,-0.046432,0.0401735,0.00348687,0.00711376,0.000143379,5,0.1,7,9.4,-0.300055,0.750163,0.600001,-1.49012e-05,0.306153,-2.98023e-06,0.000223517,-0.111043,2.98023e-05,0.00893684,0.0671986,5,0.1,8,9.4,-0.296807,-0.202118,0.600003,-0.0208609,-0.00453666,-8.9407e-06,0.0385493,0.0845492,0,0.0102332,0.199369,5,0.1,9,9.4,-2.05254,-4.16666,0.548284,-2.38419e-05,-3.57628e-05,4.47035e-06,0.000238419,0,0,0.00816579,5.73537e-09,5,0.1
0,9.5,2.85447,2.90985,0.599989,-0.365042,-0.0420988,-9.31323e-07,0.0677258,0.102252,1.49012e-05,0.0117248,0.0610391,5,0.1,1,9.5,-1.29554,-0.624053,0.514274,0.0076171,0.0447992,0.04613,-0.427544,0.247508,0.143651,0.00673588,0.0544994,5,0.1,2,9.5,-1.79902,1.73556,0.599997,-0.00121091,0.197678,-4.09782e-06,-0.0100955,0.496916,7.45058e-06,0.00769579,0.135069,5,0.1,3,9.5,-0.955131,0.328241,0.966453,0.465436,0.865911,-0.035561,-0.0480674,-0.00457555,-0.0664033,0.0120854,1.74883,5,0.1,4,9.5,-3.88372,1.05903,0.689058,-6.33299e-06,6.14673e-06,3.91155e-06,-1.49012e-05,-5.21541e-05,1.49012e-05,0.00845227,2.24986e-09,5,0.1,5,9.5,-2.03161,-1.00944,0.58422,-0.78225,-0.678709,0.0157349,-0.455424,0.300426,-0.0135452,0.00773384,1.17542,5,0.1,6,9.5,1.11374,3.29008,0.506356,-0.00125412,0.00200644,0.000111479,-0.032492,0.0274181,0.00242516,0.00711376,0.000143379,5,0.1,7,9.5,-0.300056,0.780405,0.600001,6.79865e-06,0.299955,-5.58794e-07,0.000204891,-0.034146,1.49012e-05,0.00893684,0.0671986,5,0.1,8,9.5,-0.298698,-0.202041,0.600002,-0.0169439,0.00794092,-8.56817e-06,0.0392869,0.192545,7.45058e-06,0.0102332,0.199369,5,0.1,9,9.5,-2.05254,-4.16667,0.548284,-3.72529e-06,-3.27826e-05,4.09782e-06,0.000149012,5.96046e-05,-7.45058e-06,0.00816579,5.73537e-09,5,0.1
0,9.6,2.81844,2.90615,0.599989,-0.353807,-0.0317633,0,0.164628,0.10252,2.98023e-05,0.0113081,0.157736,5,0.1,1,9.6,-1.29683,-0.618447,0.519523,-0.0323743,0.0660777,0.057967,-0.360548,0.173062,0.0902414,0.00895613,0.0303848,5,0.1,2,9.6,-1.79918,1.75763,0.599997,-0.00188351,0.241196,-2.98023e-06,-0.0038147,0.35727,0,0.00708889,0.112795,5,0.1,3,9.6,-0.908944,0.414773,0.962613,0.456741,0.864196,-0.0407204,-0.141323,-0.0365829,-0.0357628,0.00943102,1.63127,5,0.1,4,9.6,-3.88372,1.05903,0.689058,-5.96046e-06,2.98023e-06,5.96046e-06,-0.000119209,-5.96046e-05,0,0.010553,2.88269e-09,5,0.1,5,9.6,-2.11165,-1.07567,0.585725,-0.813234,-0.644153,0.0143632,-0.136733,0.406981,-0.0142753,0.00695137,0.806576,5,0.1,6,9.6,1.11348,3.2904,0.506377,-0.00385046,0.0041604,0.000303984,-0.0196695,0.0157356,0.00146031,0.00869628,4.84804e-05,5,0.1,7,9.6,-0.300054,0.810214,0.600001,2.5332e-05,0.29569,1.49012e-06,0.000163913,-0.0662804,0,0.0069488,0.369113,5,0.1,8,9.6,-0.300198,-0.2,0.600001,-0.0130937,0.0355229,-7.45058e-06,0.0373423,0.347048,0,0.00881069,0.332879,5,0.1,9,9.6,-2.05254,-4.16667,0.548285,5.96046e-06,-2.38419e-05,2.98023e-06,0.000119209,0,0,0.00677294,5.03432e-09,5,0.1
0,9.7,2.78384,2.90348,0.599989,-0.338388,-0.0219714,2.98023e-06,0.156403,0.0918955,2.98023e-05,0.0113081,0.157736,5,0.1,1,9.7,-1.3018,-0.611056,0.525713,-0.0660613,0.0808217,0.0651927,-0.304148,0.118434,0.0524633,0.00895613,0.0303848,5,0.1,2,9.7,-1.79938,1.78357,0.599997,-0.00202749,0.277386,-2.51457e-06,0.000603497,0.342585,1.11759e-05,0.00708889,0.112795,5,0.1,3,9.7,-0.86391,0.501172,0.958383,0.444132,0.864662,-0.0436408,-0.12897,0.0184366,-0.0212342,0.00943102,1.63127,5,0.1,4,9.7,-3.88372,1.05903,0.689059,-1.56462e-05,-2.04891e-06,5.86733e-06,-5.96046e-05,-3.72529e-05,-3.72529e-06,0.010553,2.88269e-09,5,0.1,5,9.7,-2.1936,-1.13816,0.587094,-0.824368,-0.606077,0.0130503,-0.0528246,0.374459,-0.0123903,0.00695137,0.806576,5,0.1,6,9.7,1.11301,3.29088,0.506414,-0.0053335,0.00530295,0.000413135,-0.010252,0.00737607,0.000737607,0.00869628,4.84804e-05,5,0.1,7,9.7,-0.300459,0.839736,0.599911,-0.0115389,0.296883,-0.00255862,-0.20572,0.0624247,-0.0455119,0.0069488,0.369113,5,0.1,8,9.7,-0.301326,-0.194127,0.6,-0.00951113,0.0865435,-7.07805e-06,0.0339895,0.624043,7.45058e-06,0.00881069,0.332879,5,0.1,9,9.7,-2.05254,-4.16667,0.548285,1.56462e-05,-2.08616e-05,2.6077e-06,5.96046e-05,5.96046e-05,-7.45058e-06,0.00677294,5.03432e-09,5,0.1
0,9.8,2.75085,2.90171,0.599989,-0.320417,-0.0136197,5.96046e-06,0.211358,0.0745058,2.98023e-05,0.0100106,0.256671,5,0.1,1,9.8,-1.30978,-0.602494,0.532421,-0.0917405,0.089258,0.0682026,-0.203907,0.0486374,0.00697374,0.00773336,0.0132344,5,0.1,2,9.8,-1.79958,1.81283,0.599996,-0.0018239,0.305682,-1.49012e-06,0.00321865,0.206947,0,0.00801426,0.0560401,5,0.1,3,9.8,-0.820242,0.587664,0.953946,0.427897,0.864254,-0.0447422,-0.20808,-0.0354946,8.9407e-05,0.00979081,1.22339,5,0.1,4,9.8,-3.88373,1.05903,0.689059,-2.38419e-05,-5.96046e-06,5.96046e-06,0,0,-2.98023e-05,0.00811773,1.85078e-09,5,0.1,5,9.8,-2.27594,-1.19681,0.588338,-0.818306,-0.565916,0.0118181,0.195742,0.442147,-0.0125468,0.00783803,0.540735,5,0.1,6,9.8,1.11244,3.29144,0.506458,-0.0059545,0.00569224,0.000457466,-0.00244379,0.000596046,0.000149012,0.00936906,1.46143e-05,5,0.1,7,9.8,-0.302806,0.869762,0.599391,-0.0365444,0.303361,-0.00808984,-0.274375,0.0467598,-0.0606775,0.00631493,0.289017,5,0.1,8,9.8,-0.302115,-0.182229,0.6,-0.00634864,0.151666,-5.96046e-06,0.0290126,0.641063,0,0.00921099,0.229766,5,0.1,9,9.8,-2.05254,-4.16668,0.548285,1.78814e-05,-1.19209e-05,1.49012e-06,0,0,0,0.00635322,4.65789e-09,5,0.1
