id,t,px,py,pz,vx,vy,vz,ax,ay,az,planning_time,qp_cost,planning_report,size,id,t,px,py,pz,vx,vy,vz,ax,ay,az,planning_time,qp_cost,planning_report,size,id,t,px,py,pz,vx,vy,vz,ax,ay,az,planning_time,qp_cost,planning_report,size,id,t,px,py,pz,vx,vy,vz,ax,ay,az,planning_time,qp_cost,planning_report,size,id,t,px,py,pz,vx,vy,vz,ax,ay,az,planning_time,qp_cost,planning_report,size,id,t,px,py,pz,vx,vy,vz,ax,ay,az,planning_time,qp_cost,planning_report,size,id,t,px,py,pz,vx,vy,vz,ax,ay,az,planning_time,qp_cost,planning_report,size,id,t,px,py,pz,vx,vy,vz,ax,ay,az,planning_time,qp_cost,planning_report,size,id,t,px,py,pz,vx,vy,vz,ax,ay,az,planning_time,qp_cost,planning_report,size,id,t,px,py,pz,vx,vy,vz,ax,ay,az,planning_time,qp_cost,planning_report,size
0,0,0.435367,3.36834,0.584731,0,0,0,0,0,0,0.0857533,3.5122,5,0.1,1,0,-0.605404,-1.96391,0.678355,0,0,0,0,0,0,0.00727334,3.5122,5,0.1,2,0,-1.13062,-0.216648,0.658345,0,0,0,0,0,0,0.0082315,3.5122,5,0.1,3,0,0.660032,-1.03999,0.685119,0,0,0,0,0,0,0.0113635,0.928874,5,0.1,4,0,-4.00485,1.43727,0.504044,0,0,0,0,0,0,0.0157567,3.51223,5,0.1,5,0,-1.27806,3.22641,0.691431,0,0,0,0,0,0,0.00696057,3.5122,5,0.1,6,0,0.198631,2.72113,0.635776,0,0,0,0,0,0,0.00681751,2.32439,5,0.1,7,0,4.31329,2.50857,0.60437,0,0,0,0,0,0,0.016333,2.49736,5,0.1,8,0,-3.8227,-0.827779,0.59472,0,0,0,0,0,0,0.00785454,0.722684,5,0.1,9,0,2.29811,-0.425342,0.54331,0,0,0,0,0,0,0.0149317,3.51219,5,0.1
0,0.1,0.435382,3.36625,0.584747,0.000429712,-0.0592653,0.000448432,0.00763685,-1.05359,0.0079684,0.0857533,3.5122,5,0.1,1,0.1,-0.605649,-1.96184,0.678394,-0.00695111,0.0588484,0.00112029,-0.123579,1.0462,0.0199117,0.00727334,3.5122,5,0.1,2,0.1,-1.12856,-0.217012,0.658365,0.0583587,-0.010327,0.000579748,1.03749,-0.183591,0.0103079,0.0082315,3.5122,5,0.1,3,0.1,0.660753,-1.04078,0.685187,0.0204466,-0.0225224,0.00192281,0.363499,-0.400394,0.0341833,0.0113635,0.928874,5,0.1,4,0.1,-4.00276,1.43718,0.504009,0.0592053,-0.00234302,-0.000982545,1.0525,-0.0416562,-0.0174642,0.0157567,3.51223,5,0.1,5,0.1,-1.27809,3.22432,0.691418,-0.000849925,-0.0592608,-0.000358466,-0.0151023,-1.05353,-0.00637397,0.00696057,3.5122,5,0.1,6,0.1,0.197802,2.71965,0.635841,-0.0235353,-0.0420414,0.00183433,-0.418405,-0.747412,0.0326112,0.00681751,2.32439,5,0.1,7,0.1,4.3116,2.50908,0.604365,-0.0478096,0.0145629,-0.000129547,-0.849932,0.258893,-0.0022985,0.016333,2.49736,5,0.1,8,0.1,-3.82216,-0.828555,0.594644,0.0152528,-0.0220343,-0.00215285,0.271171,-0.391725,-0.0382736,0.00785454,0.722684,5,0.1,9,0.1,2.29602,-0.425247,0.543353,-0.0591945,0.00269976,0.00122096,-1.05233,0.0479985,0.021711,0.0149317,3.51219,5,0.1
0,0.2,0.43547,3.35422,0.584838,0.00135824,-0.187308,0.0014171,0.0101775,-1.40476,0.0106096,0.0110607,2.9258,5,0.1,1,0.2,-0.607061,-1.94989,0.678622,-0.0219703,0.18599,0.00354052,-0.164747,1.39493,0.0265539,0.00743216,2.92579,5,0.1,2,0.2,-1.11671,-0.21911,0.658483,0.184444,-0.0326384,0.00183284,1.38324,-0.244789,0.0137091,0.00980011,2.9258,5,0.1,3,0.2,0.664906,-1.04536,0.685578,0.0646219,-0.0711828,0.00607669,0.484645,-0.533819,0.0455678,0.0109582,0.762096,5,0.1,4,0.2,-3.99073,1.43671,0.50381,0.187117,-0.00740588,-0.00310689,1.40333,-0.0555515,-0.0232458,0.0206876,2.92611,5,0.1,5,0.2,-1.27826,3.21229,0.691346,-0.00268519,-0.187296,-0.00113249,-0.0201464,-1.40464,-0.00852346,0.00994969,2.9258,5,0.1,6,0.2,0.193022,2.71111,0.636213,-0.0743832,-0.132871,0.00579804,-0.557877,-0.99647,0.0434518,0.00673448,1.90705,5,0.1,7,0.2,4.30189,2.51204,0.604339,-0.151098,0.0460267,-0.000408292,-1.1332,0.34523,-0.00309944,0.0211006,2.04896,5,0.1,8,0.2,-3.81906,-0.833031,0.594207,0.0482023,-0.0696391,-0.00680387,0.361681,-0.522286,-0.0510216,0.00754234,0.592923,5,0.1,9,0.2,2.284,-0.424699,0.543601,-0.187081,0.00853315,0.0038594,-1.40321,0.0639856,0.0289381,0.0247522,2.92578,5,0.1
0,0.3,0.435662,3.32767,0.585039,0.00252901,-0.348869,0.00263816,0.0125133,-1.72646,0.0130497,0.0110607,2.9258,5,0.1,1,0.3,-0.610174,-1.92353,0.679123,-0.0409186,0.34642,0.00659442,-0.202484,1.71433,0.0326373,0.00743216,2.92579,5,0.1,2,0.3,-1.09057,-0.223735,0.658743,0.343532,-0.0607913,0.0034105,1.70003,-0.30084,0.0168681,0.00980011,2.9258,5,0.1,3,0.3,0.674058,-1.05544,0.686438,0.120217,-0.132419,0.011304,0.593059,-0.653245,0.0557676,0.0109582,0.762096,5,0.1,4,0.3,-3.96422,1.43566,0.503398,0.348514,-0.0137947,-0.00498025,1.72466,-0.0682622,-0.0143461,0.0206876,2.92611,5,0.1,5,0.3,-1.27864,3.18575,0.691185,-0.00500195,-0.348844,-0.00211196,-0.0247508,-1.72631,-0.0104569,0.00994969,2.9258,5,0.1,6,0.3,0.182487,2.69229,0.637034,-0.138378,-0.24718,0.0107835,-0.68266,-1.21939,0.053186,0.00673448,1.90705,5,0.1,7,0.3,4.28049,2.51856,0.604281,-0.28109,0.0856269,-0.000762753,-1.38667,0.422433,-0.00377744,0.0211006,2.04896,5,0.1,8,0.3,-3.81223,-0.842894,0.593243,0.0896864,-0.129551,-0.012657,0.442475,-0.639118,-0.0624359,0.00754234,0.592923,5,0.1,9,0.3,2.25749,-0.423489,0.544148,-0.34846,0.0158925,0.00718785,-1.72445,0.0786446,0.0355653,0.0247522,2.92578,5,0.1
0,0.4,0.435976,3.2843,0.585367,0.00373423,-0.515205,0.00389516,0.0110716,-1.52659,0.0115633,0.0183447,2.33073,5,0.1,1,0.4,-0.615261,-1.88046,0.679943,-0.0604272,0.51159,0.00973791,-0.179052,1.51581,0.0288785,0.0120742,2.51421,5,0.1,2,0.4,-1.04786,-0.231293,0.659167,0.507325,-0.0897765,0.00503659,1.50317,-0.265993,0.0149012,0.0112142,2.51279,5,0.1,3,0.4,0.688993,-1.07189,0.687843,0.177291,-0.195289,0.0166699,0.523239,-0.576258,0.0492334,0.0159509,0.602981,5,0.1,4,0.4,-3.92089,1.43394,0.502842,0.514686,-0.0203729,-0.00600368,1.52481,-0.0603199,-0.00628829,0.02864,2.51608,5,0.1,5,0.4,-1.27926,3.14238,0.690922,-0.007388,-0.515169,-0.00311881,-0.0218749,-1.52647,-0.00926852,0.0089557,2.51565,5,0.1,6,0.4,0.165296,2.66159,0.638374,-0.204076,-0.364536,0.0159025,-0.60226,-1.07574,0.0469387,0.0069189,1.50888,5,0.1,7,0.4,4.24557,2.5292,0.604186,-0.41455,0.126278,-0.00112504,-1.22333,0.372767,-0.00333786,0.0183808,1.62116,5,0.1,8,0.4,-3.80109,-0.858988,0.591671,0.132275,-0.191058,-0.0186667,0.390172,-0.56389,-0.0550747,0.00903297,0.469126,5,0.1,9,0.4,2.21416,-0.421514,0.545042,-0.514603,0.0234693,0.0106156,-1.52481,0.0695437,0.0314415,0.0146328,2.51538,5,0.1
0,0.5,0.436406,3.22517,0.585815,0.00485941,-0.665379,0.00507003,0.0108797,-1.40971,0.0113584,0.0183447,2.33073,5,0.1,1,0.5,-0.622225,-1.82172,0.681065,-0.0788521,0.661663,0.012709,-0.179976,1.41647,0.0290126,0.0120742,2.51421,5,0.1,2,0.5,-0.989566,-0.241638,0.659747,0.657228,-0.117148,0.00657085,1.42426,-0.26736,0.0149906,0.0112142,2.51279,5,0.1,3,0.5,0.709386,-1.09435,0.68976,0.230379,-0.253758,0.0216646,0.512473,-0.564434,0.0482053,0.0159509,0.602981,5,0.1,4,0.5,-3.86181,1.4316,0.502226,0.664873,-0.0265805,-0.00617867,1.41078,-0.0606403,0.00223145,0.02864,2.51608,5,0.1,5,0.5,-1.28011,3.08325,0.690563,-0.00963919,-0.665389,-0.00407156,-0.0219941,-1.40996,-0.00929832,0.0089557,2.51565,5,0.1,6,0.5,0.141822,2.61966,0.640203,-0.265182,-0.473683,0.0206651,-0.589869,-1.05366,0.0459775,0.0069189,1.50888,5,0.1,7,0.5,4.19789,2.54372,0.604056,-0.538671,0.164096,-0.00146311,-1.19817,0.365064,-0.0032559,0.0183808,1.62116,5,0.1,8,0.5,-3.78588,-0.880965,0.589524,0.171864,-0.24827,-0.0242549,0.3822,-0.552274,-0.0539459,0.00903297,0.469126,5,0.1,9,0.5,2.1551,-0.418809,0.546265,-0.664801,0.0306256,0.0138512,-1.41101,0.0699013,0.0316054,0.0146328,2.51538,5,0.1
0,0.6,0.436942,3.15222,0.586375,0.00581518,-0.786006,0.00606775,0.00783801,-0.958681,0.00819564,0.0131327,1.81092,5,0.1,1,0.6,-0.630947,-1.74909,0.682471,-0.0948027,0.783429,0.0152797,-0.132382,0.973463,0.0213683,0.0075184,2.32797,5,0.1,2,0.6,-0.917322,-0.254597,0.660474,0.780405,-0.140845,0.0079006,0.992209,-0.196621,0.0109971,0.0104836,2.32001,5,0.1,3,0.6,0.734793,-1.12234,0.692149,0.27535,-0.303292,0.0258952,0.368685,-0.406027,0.0346601,0.0110725,0.598312,5,0.1,4,0.6,-3.78891,1.42866,0.501629,0.785619,-0.031957,-0.00565797,0.959754,-0.0445843,0.0076592,0.0188428,2.30981,5,0.1,5,0.6,-1.28118,3.0103,0.690112,-0.0115871,-0.785971,-0.00489652,-0.0162125,-0.957727,-0.00679493,0.0104252,2.3349,5,0.1,6,0.6,0.112577,2.56742,0.642482,-0.316945,-0.566149,0.0246987,-0.42434,-0.757933,0.0331104,0.00611374,1.12333,5,0.1,7,0.6,4.13848,2.56182,0.603895,-0.643826,0.196135,-0.0017494,-0.861645,0.262499,-0.00232458,0.0156921,1.20692,5,0.1,8,0.6,-3.76692,-0.908345,0.586849,0.205404,-0.296734,-0.0289902,0.274897,-0.397295,-0.0387728,0.00866452,0.349254,5,0.1,9,0.6,2.0822,-0.415421,0.547797,-0.785565,0.0368215,0.016652,-0.96035,0.0513941,0.0232756,0.0149341,2.33378,5,0.1
0,0.7,0.437563,3.0699,0.587022,0.00656871,-0.850495,0.00685537,0.00679865,-0.360474,0.00711158,0.0131327,1.81092,5,0.1,1,0.7,-0.641098,-1.66694,0.684108,-0.108088,0.84965,0.0174232,-0.124946,0.376113,0.0201538,0.0075184,2.32797,5,0.1,2,0.7,-0.835372,-0.269678,0.66132,0.8486,-0.160576,0.00900524,0.394102,-0.185573,0.0103973,0.0104836,2.32001,5,0.1,3,0.7,0.764139,-1.15482,0.694909,0.310744,-0.346719,0.0292226,0.318974,-0.430338,0.0299849,0.0110725,0.598312,5,0.1,4,0.7,-3.70661,1.42524,0.501108,0.850403,-0.036421,-0.00472553,0.363111,-0.0418872,0.0105947,0.0188428,2.30981,5,0.1,5,0.7,-1.28242,2.92798,0.689588,-0.0132136,-0.850533,-0.00557872,-0.0152886,-0.360981,-0.00641868,0.0104252,2.3349,5,0.1,6,0.7,0.0787973,2.50708,0.645115,-0.357684,-0.638915,0.0278767,-0.367137,-0.6558,0.02864,0.00611374,1.12333,5,0.1,7,0.7,4.06987,2.58273,0.603709,-0.726553,0.221336,-0.00197245,-0.745565,0.227109,-0.00200793,0.0156921,1.20692,5,0.1,8,0.7,-3.74503,-0.939971,0.583759,0.231797,-0.334876,-0.0327133,0.237867,-0.343729,-0.0335574,0.00866452,0.349254,5,0.1,9,0.7,1.9999,-0.411479,0.54958,-0.850395,0.0419791,0.0189872,-0.363365,0.0485051,0.0219606,0.0149341,2.33378,5,0.1
0,0.8,0.438249,2.98377,0.587738,0.00710338,-0.866026,0.00741333,0.00359118,0,0.00378489,0.0128382,1.38427,5,0.1,1,0.8,-0.652463,-1.58084,0.68594,-0.118376,0.866026,0.0190824,-0.0750124,0,0.0120997,0.00929028,2.26086,5,0.1,2,0.8,-0.74931,-0.286561,0.662267,0.866026,-0.175855,0.00986159,0,-0.111371,0.00625849,0.00670418,2.07481,5,0.1,3,0.8,0.796591,-1.19146,0.697961,0.335751,-0.383866,0.0315741,0.167519,-0.289917,0.0157356,0.00855122,0.436651,5,0.1,4,0.8,-3.62049,1.42141,0.50069,0.866026,-0.0398636,-0.00361055,0,-0.0249743,0.0113845,0.0190523,1.90047,5,0.1,5,0.8,-1.28381,2.84185,0.689002,-0.014475,-0.866026,-0.00610799,-0.00911951,0,-0.0038445,0.00672074,2.27173,5,0.1,6,0.8,0.0414438,2.44036,0.648026,-0.386468,-0.690329,0.0301227,-0.192792,-0.344515,0.0150204,0.00614209,0.805004,5,0.1,7,0.8,3.99399,2.60584,0.603503,-0.785011,0.239146,-0.00213087,-0.391483,0.119209,-0.00101328,0.0161193,1.1008,5,0.1,8,0.8,-3.72083,-0.974943,0.580343,0.250447,-0.361826,-0.0353456,0.124931,-0.180453,-0.0175834,0.00649344,0.246595,5,0.1,9,0.8,1.91378,-0.407065,0.551577,-0.866026,0.0459723,0.0207946,0,0.0291169,0.0131726,0.0139071,2.26996,5,0.1
0,0.9,0.439133,2.89717,0.588497,0.0118746,-0.865803,0.00775661,0.0816137,0.00889599,0.00271946,0.0128382,1.38427,5,0.1,1,0.9,-0.664691,-1.49423,0.687911,-0.126119,0.866026,0.0203308,-0.0718832,0,0.0115857,0.00929028,2.26086,5,0.1,2,0.9,-0.663363,-0.304702,0.663284,0.846553,-0.186679,0.0104702,-0.381395,-0.0948049,0.00533834,0.00670418,2.07481,5,0.1,3,0.9,0.830965,-1.23132,0.701194,0.350931,-0.412676,0.0329999,0.119984,-0.261135,0.0112727,0.00855122,0.436651,5,0.1,4,0.9,-3.53445,1.4173,0.500385,0.849411,-0.0422342,-0.00250135,-0.32346,-0.0202283,0.0105724,0.0190523,1.90047,5,0.1,5,0.9,-1.2853,2.75524,0.688371,-0.015419,-0.866026,-0.00650603,-0.00877678,0,-0.00370294,0.00672074,2.27173,5,0.1,6,0.9,0.00187744,2.37029,0.65111,-0.403938,-0.705511,0.0314837,-0.138096,-0.0090152,0.0107586,0.00614209,0.805004,5,0.1,7,0.9,3.91347,2.63032,0.603285,-0.824934,0.249948,-0.00222297,-0.359505,0.0853837,-0.000726432,0.0161193,1.1008,5,0.1,8,0.9,-3.69519,-1.01199,0.576725,0.261768,-0.378178,-0.0369397,0.0895113,-0.129264,-0.0126027,0.00649344,0.246595,5,0.1,9,0.9,1.82717,-0.402316,0.553724,-0.866026,0.0489716,0.0221513,0,0.0277944,0.0125691,0.0139071,2.26996,5,0.1
0,1,0.440788,2.81071,0.589282,0.0216134,-0.862467,0.00789762,0.105232,0.0711679,-8.9407e-05,0.0112611,1.0961,5,0.1,1,1,-0.677604,-1.40763,0.689992,-0.131409,0.866026,0.021182,-0.0284314,-5.96046e-05,0.00458956,0.00766813,2.25976,5,0.1,2,1,-0.581186,-0.323748,0.664352,0.791529,-0.193084,0.0108317,-0.709295,-0.0262707,0.00146031,0.00701075,1.95338,5,0.1,3,1,0.866472,-1.27367,0.704532,0.357077,-0.431859,0.0335768,-0.0077188,-0.105262,-0.000715256,0.00990112,0.30522,5,0.1,4,1,-3.4516,1.413,0.500185,0.803024,-0.0435412,-0.00153333,-0.595927,-0.00441074,0.00867248,0.0193803,1.69274,5,0.1,5,1,-1.28688,2.66864,0.687705,-0.0160664,-0.866026,-0.00677854,-0.00345707,0,-0.00149012,0.0133438,2.27171,5,0.1,6,1,-0.038993,2.3,0.654295,-0.411011,-0.697333,0.0320345,0.00887513,0.170708,-0.000715256,0.00639727,0.560606,5,0.1,7,1,3.82955,2.65561,0.60306,-0.848907,0.254321,-0.00225902,-0.0872612,-0.00560284,5.96046e-05,0.0151163,1.30368,5,0.1,8,1,-3.6687,-1.05025,0.572987,0.266355,-0.384799,-0.0375852,-0.00584126,0.00834465,0.000804663,0.0116046,0.167696,5,0.1,9,1,1.74057,-0.397303,0.555992,-0.866026,0.0510119,0.0230744,5.96046e-05,0.0108927,0.00488758,0.0141256,2.28564,5,0.1
0,1.1,0.443533,2.72533,0.590071,0.0336701,-0.840154,0.00786996,0.128189,0.369608,-0.000756234,0.0112611,1.0961,5,0.1,1,1.1,-0.690913,-1.32103,0.692138,-0.134849,0.866025,0.0217367,-0.0325777,1.49012e-05,0.00525266,0.00766813,2.25976,5,0.1,2,1.1,-0.506422,-0.343184,0.665443,0.696768,-0.195386,0.0109602,-1.12962,-0.0114944,0.00064075,0.00701075,1.95338,5,0.1,3,1.1,0.902126,-1.31738,0.707885,0.35551,-0.441677,0.0334302,-0.036668,-0.0710413,-0.00344217,0.00990112,0.30522,5,0.1,4,1.1,-3.37507,1.40862,0.500071,0.72162,-0.0438903,-0.000792556,-0.955567,-0.000804663,0.00612438,0.0193803,1.69274,5,0.1,5,1.1,-1.28851,2.58204,0.687018,-0.016492,-0.866026,-0.00696033,-0.00409037,0,-0.00174344,0.0133438,2.27171,5,0.1,6,1.1,-0.0800323,2.23098,0.657494,-0.40921,-0.68363,0.0318922,0.0421959,0.134751,-0.00330061,0.00639727,0.560606,5,0.1,7,1.1,3.74411,2.68101,0.602835,-0.860071,0.253197,-0.0022484,-0.102848,-0.0261813,0.000238419,0.0151163,1.30368,5,0.1,8,1.1,-3.6421,-1.08867,0.569234,0.26518,-0.383109,-0.0374216,-0.0273883,0.0395328,0.00384822,0.0116046,0.167696,5,0.1,9,1.1,1.65398,-0.392131,0.558331,-0.865615,0.0525054,0.0237467,0.0163838,0.0155736,0.00701845,0.0141256,2.28564,5,0.1
0,1.2,0.447527,2.64362,0.590852,0.0459135,-0.789714,0.00769943,0.111014,0.633121,-0.00283122,0.0158117,0.947035,5,0.1,1,1.2,-0.704516,-1.23443,0.69433,-0.136603,0.866026,0.022018,0.00286102,-5.96046e-05,-0.000447035,0.00829043,2.25958,5,0.1,2,1.2,-0.44271,-0.3627,0.666537,0.575379,-0.194003,0.0108838,-1.25667,0.0446886,-0.0025034,0.00753564,1.84596,5,0.1,3,1.2,0.937359,-1.36171,0.711198,0.347579,-0.442719,0.0326842,-0.130594,0.0637174,-0.0122488,0.00946093,0.207026,5,0.1,4,1.2,-3.30779,1.40425,0.500018,0.623935,-0.0434041,-0.000306964,-0.954747,0.0116825,0.00366569,0.017091,1.49799,5,0.1,5,1.2,-1.29017,2.49544,0.686316,-0.0167191,-0.866026,-0.00705719,0.000238419,0,5.96046e-05,0.0077294,2.27171,5,0.1,6,1.2,-0.120587,2.16344,0.660655,-0.40008,-0.665063,0.0311792,0.150293,0.258207,-0.0116825,0.00876161,0.38669,5,0.1,7,1.2,3.65777,2.7061,0.602612,-0.864542,0.247544,-0.00219792,0.0299215,-0.0929832,0.000834465,0.0153109,0.764986,5,0.1,8,1.2,-3.61582,-1.12664,0.565526,0.259262,-0.374562,-0.0365868,-0.097394,0.140727,0.0137091,0.00821269,0.111512,5,0.1,9,1.2,1.56763,-0.386818,0.560734,-0.859466,0.0535466,0.0242159,0.13113,0.00287592,0.0012815,0.0183374,0.888456,5,0.1
0,1.3,0.452684,2.56844,0.591608,0.057184,-0.708773,0.00741864,0.108505,0.938252,-0.00302866,0.0158117,0.947035,5,0.1,1,1.3,-0.718199,-1.14782,0.696536,-0.137234,0.866025,0.0221203,-0.0077486,1.49012e-05,0.00124797,0.00829043,2.25958,5,0.1,2,1.3,-0.391643,-0.381883,0.667614,0.445917,-0.189539,0.010634,-1.26288,0.051355,-0.00287592,0.00753564,1.84596,5,0.1,3,1.3,0.971478,-1.40567,0.714407,0.334669,-0.436193,0.0314727,-0.138398,0.0830963,-0.0129938,0.00946093,0.207026,5,0.1,4,1.3,-3.25013,1.39996,0.500002,0.532585,-0.0422357,-4.26546e-05,-0.775665,0.0131354,0.00173599,0.017091,1.49799,5,0.1,5,1.3,-1.29185,2.40883,0.685608,-0.0168186,-0.866026,-0.00710217,-0.0012517,0,-0.000555068,0.0077294,2.27171,5,0.1,6,1.3,-0.15986,2.09812,0.663715,-0.385223,-0.641823,0.0300239,0.159284,0.232056,-0.012394,0.00876161,0.38669,5,0.1,7,1.3,3.57203,2.7304,0.602396,-0.844713,0.238352,-0.00211578,0.364766,-0.0985414,0.000879169,0.0153109,0.764986,5,0.1,8,1.3,-3.59037,-1.16341,0.561934,0.249635,-0.360651,-0.0352314,-0.103191,0.149138,0.0145361,0.00821269,0.111512,5,0.1,9,1.3,1.48319,-0.3805,0.563167,-0.821314,0.0807231,0.0244431,0.607833,0.478551,0.00198185,0.0183374,0.888456,5,0.1
0,1.4,0.458901,2.50245,0.592332,0.0666119,-0.609821,0.00705421,0.0759363,1.01066,-0.00438094,0.0106495,0.88963,5,0.1,1,1.4,-0.731927,-1.06122,0.698749,-0.136842,0.866026,0.0220567,0.020951,-2.98023e-05,-0.00336766,0.0108889,2.25991,5,0.1,2,1.4,-0.352943,-0.400524,0.668659,0.333258,-0.182606,0.010246,-0.955477,0.0917912,-0.005126,0.00884581,1.70427,5,0.1,3,1.4,1.00417,-1.44874,0.717481,0.318104,-0.423384,0.0299171,-0.200033,0.18394,-0.0188351,0.00808242,0.137972,5,0.1,4,1.4,-3.2,1.39582,0.500004,0.477356,-0.0405341,6.4075e-05,-0.340104,0.0218749,0.000476837,0.0176485,1.25846,5,0.1,5,1.4,-1.29353,2.32223,0.684897,-0.0168025,-0.866026,-0.00709742,0.00214577,0,0.000953674,0.00608106,2.27171,5,0.1,6,1.4,-0.197489,2.03522,0.666648,-0.366157,-0.614357,0.0285387,0.230246,0.334859,-0.0179112,0.00528336,0.262254,5,0.1,7,1.4,3.48991,2.75368,0.602189,-0.792295,0.226557,-0.00201017,0.678301,-0.142455,0.0012517,0.0157593,0.708571,5,0.1,8,1.4,-3.56599,-1.19864,0.558492,0.23728,-0.342801,-0.0334904,-0.149131,0.21559,0.0210404,0.00806689,0.125008,5,0.1,9,1.4,1.40472,-0.369671,0.565614,-0.742516,0.13824,0.0243962,0.945985,0.623718,-0.0038743,0.0123237,0.325666,5,0.1
0,1.5,0.465842,2.44661,0.593017,0.0712537,-0.506616,0.0066353,0.0181999,1.03378,-0.00419468,0.0106495,0.88963,5,0.1,1,1.5,-0.745551,-0.974619,0.700945,-0.135885,0.866025,0.0219028,0.00582635,3.72529e-06,-0.000942498,0.0108889,2.25991,5,0.1,2,1.5,-0.323871,-0.418343,0.669659,0.255404,-0.17381,0.00975486,-0.531219,0.0897329,-0.00501424,0.00884581,1.70427,5,0.1,3,1.5,1.03502,-1.49019,0.720382,0.299023,-0.405665,0.0281207,-0.190616,0.18388,-0.017941,0.00808242,0.137972,5,0.1,4,1.5,-3.15296,1.39187,0.500012,0.471696,-0.0384387,8.26083e-05,0.154719,0.0212491,-6.33299e-05,0.0176485,1.25846,5,0.1,5,1.5,-1.29521,2.23563,0.68419,-0.016739,-0.866026,-0.0070666,9.68575e-05,0,7.82311e-05,0.00608106,2.27171,5,0.1,6,1.5,-0.232998,1.97536,0.669416,-0.344195,-0.583471,0.0268296,0.219403,0.303805,-0.0170805,0.00528336,0.262254,5,0.1,7,1.5,3.41482,2.77565,0.601995,-0.703089,0.212969,-0.00189049,1.06992,-0.135735,0.00119582,0.0157593,0.708571,5,0.1,8,1.5,-3.54285,-1.23206,0.555227,0.226587,-0.32734,-0.0319819,-0.079453,0.114888,0.0112094,0.00806689,0.125008,5,0.1,9,1.5,1.33571,-0.352844,0.568037,-0.633644,0.196694,0.0240664,1.19288,0.528134,-0.00375882,0.0123237,0.325666,5,0.1
0,1.6,0.472973,2.40102,0.593658,0.0705294,-0.406355,0.00618249,-0.031203,0.958204,-0.00503659,0.0143466,1.45363,5,0.1,1,1.6,-0.759084,-0.888016,0.703126,-0.134377,0.866026,0.0216603,0.0297427,0,-0.00482798,0.00825639,2.26049,5,0.1,2,1.6,-0.3,-0.435242,0.670608,0.231492,-0.163724,0.00918955,0.0273883,0.115737,-0.0064373,0.00725982,1.45376,5,0.1,3,1.6,1.06392,-1.52975,0.7231,0.278473,-0.384364,0.0261873,-0.226498,0.251114,-0.0213385,0.00832571,0.155917,5,0.1,4,1.6,-3.10469,1.38814,0.500019,0.495601,-0.0360817,5.96046e-05,0.268459,0.0266433,-0.000327826,0.017677,0.991036,5,0.1,5,1.6,-1.29688,2.14903,0.683485,-0.0166178,-0.866026,-0.007011,0.00309944,0,0.0012815,0.00704602,2.27171,5,0.1,6,1.6,-0.266269,1.91862,0.672009,-0.320539,-0.550076,0.0249863,0.260696,0.37843,-0.0202656,0.00635951,0.181942,5,0.1,7,1.6,3.35026,2.79624,0.601812,-0.584894,0.198334,-0.00176281,1.26386,-0.16129,0.00146031,0.0149033,0.463895,5,0.1,8,1.6,-3.52058,-1.26424,0.552083,0.21885,-0.316149,-0.0308916,-0.0860691,0.124276,0.0121593,0.00633236,0.072435,5,0.1,9,1.6,1.27846,-0.330808,0.570418,-0.510588,0.241004,0.0234723,1.24037,0.346676,-0.00888109,0.0144926,0.296277,5,0.1
0,1.7,0.479764,2.36519,0.594879,0.0643784,-0.311528,0.0234907,-0.0870563,0.893936,0.31152,0.0143466,1.45363,5,0.1,1,1.7,-0.772421,-0.801414,0.705276,-0.132664,0.866026,0.0213812,0.0120364,-3.72529e-06,-0.00196323,0.00825639,2.26049,5,0.1,2,1.7,-0.275617,-0.451062,0.671496,0.265121,-0.152827,0.0085827,0.5659,0.10689,-0.00596046,0.00725982,1.45376,5,0.1,3,1.7,1.09083,-1.56719,0.72563,0.261097,-0.366434,0.0245501,-0.137337,0.131786,-0.0129454,0.00832571,0.155917,5,0.1,4,1.7,-3.05335,1.38466,0.500024,0.534127,-0.0335749,2.59839e-05,0.446513,0.0245124,-0.000331551,0.017677,0.991036,5,0.1,5,1.7,-1.29853,2.06242,0.682787,-0.0164781,-0.866026,-0.006954,0.000685453,0,0.000275671,0.00704602,2.27171,5,0.1,6,1.7,-0.296847,1.86539,0.674412,-0.289463,-0.515065,0.0230855,0.354586,0.339121,-0.018429,0.00635951,0.181942,5,0.1,7,1.7,3.2982,2.8153,0.601642,-0.455643,0.183214,-0.00162646,1.29698,-0.146523,0.00131875,0.0149033,0.463895,5,0.1,8,1.7,-3.49907,-1.29531,0.549047,0.211599,-0.305676,-0.0298672,-0.0685453,0.0989959,0.00968203,0.00633236,0.072435,5,0.1,9,1.7,1.23349,-0.305573,0.572739,-0.390131,0.258151,0.0230785,1.15259,0.013493,-0.000812113,0.0144926,0.296277,5,0.1
0,1.8,0.485708,2.33812,0.599038,0.0539899,-0.234032,0.061433,-0.11678,0.635743,0.416517,0.0108921,1.30958,5,0.1,1,1.8,-0.785606,-0.714811,0.707401,-0.130686,0.866026,0.0210598,0.0328124,0,-0.00530481,0.00715805,2.26115,5,0.1,2,1.8,-0.245924,-0.465794,0.672324,0.330682,-0.141561,0.00795424,0.684738,0.121638,-0.00682473,0.00769844,1.16814,5,0.1,3,1.8,1.11629,-1.60321,0.728024,0.248179,-0.353804,0.0233337,-0.132859,0.138521,-0.012517,0.00965362,0.236603,5,0.1,4,1.8,-2.99778,1.38143,0.500025,0.57531,-0.0310093,-5.96046e-06,0.336885,0.0275373,-0.000268221,0.0155161,0.753489,5,0.1,5,1.8,-1.30017,1.97582,0.682094,-0.0163138,-0.866026,-0.00688583,0.00327826,0,0.00137091,0.00753995,2.27172,5,0.1,6,1.8,-0.323909,1.81563,0.676626,-0.250809,-0.479332,0.0211865,0.412881,0.387371,-0.020057,0.00815941,0.133048,5,0.1,7,1.8,3.25901,2.83288,0.601486,-0.329733,0.168115,-0.00149012,1.20318,-0.159025,0.00140071,0.0125209,0.457541,5,0.1,8,1.8,-3.47829,-1.32534,0.546113,0.20352,-0.294009,-0.0287265,-0.099659,0.144005,0.0140667,0.00699914,0.054949,5,0.1,9,1.8,1.2,-0.280121,0.575043,-0.28241,0.246956,0.0229955,0.994623,-0.222057,-0.00220537,0.0153118,0.273466,5,0.1
0,1.9,0.490491,2.31751,0.607498,0.0414493,-0.183693,0.109321,-0.130635,0.318676,0.511367,0.0108921,1.30958,5,0.1,1,1.9,-0.798561,-0.628209,0.709488,-0.12871,0.866026,0.0207398,0.0140704,-3.72529e-06,-0.00227988,0.00715805,2.26115,5,0.1,2,1.9,-0.209016,-0.479374,0.673087,0.410084,-0.130244,0.00731908,0.84299,0.108635,-0.00610203,0.00769844,1.16814,5,0.1,3,1.9,1.14042,-1.63792,0.730293,0.234045,-0.340316,0.0220031,-0.154138,0.142522,-0.0145063,0.00965362,0.236603,5,0.1,4,1.9,-2.93841,1.37846,0.500023,0.612628,-0.02845,-2.71946e-05,0.366271,0.0244975,-0.000163913,0.0155161,0.753489,5,0.1,5,1.9,-1.3018,1.88922,0.68141,-0.0161629,-0.866026,-0.00682315,0.000715256,0,0.000294298,0.00753995,2.27172,5,0.1,6,1.9,-0.346811,1.76952,0.67865,-0.206386,-0.443595,0.019328,0.463545,0.341788,-0.0176914,0.00815941,0.133048,5,0.1,7,1.9,3.23177,2.84894,0.601344,-0.218196,0.153381,-0.00136048,1.01636,-0.140235,0.0012368,0.0125209,0.457541,5,0.1,8,1.9,-3.45836,-1.35412,0.543301,0.195397,-0.282272,-0.02758,-0.0727624,0.10515,0.0102669,0.00699914,0.054949,5,0.1,9,1.9,1.17647,-0.256844,0.577337,-0.19086,0.215909,0.0228958,0.833765,-0.38246,-0.000968575,0.0153118,0.273466,5,0.1
0,2,0.493983,2.3,0.620941,0.0284657,-0.173473,0.158516,-0.126392,-0.0934601,0.450492,0.00943095,0.687157,5,0.1,1,2,-0.811343,-0.541606,0.711548,-0.126614,0.866026,0.0204012,0.0330806,0,-0.00533462,0.00873702,2.26671,5,0.1,2,2,-0.163939,-0.49185,0.673788,0.488858,-0.119169,0.00669807,0.688553,0.115559,-0.00652671,0.0121076,0.90008,5,0.1,3,2,1.16299,-1.67115,0.732414,0.216666,-0.323421,0.0203669,-0.19598,0.202954,-0.018388,0.00865757,0.102676,5,0.1,4,2,-2.87556,1.37573,0.500019,0.641215,-0.0259668,-4.02331e-05,0.174999,0.0258088,-2.98023e-05,0.022176,0.548048,5,0.1,5,2,-1.30341,1.80262,0.68073,-0.0160038,-0.866026,-0.00675619,0.00315905,0,0.0013411,0.00998901,2.27173,5,0.1,6,2,-0.365129,1.72689,0.680495,-0.160187,-0.408536,0.0175521,0.45158,0.369251,-0.0182688,0.00974155,0.180093,5,0.1,7,2,3.21466,2.86358,0.601214,-0.128138,0.139296,-0.00123531,0.779271,-0.144601,0.0012517,0.0163012,0.442623,5,0.1,8,2,-3.43921,-1.38179,0.540598,0.187278,-0.270537,-0.0264347,-0.0965595,0.139475,0.0136197,0.00581518,0.0244966,5,0.1,9,2,1.16127,-0.237318,0.579616,-0.116017,0.173445,0.0226021,0.662029,-0.453442,-0.00575185,0.0156813,0.261948,5,0.1
0,2.1,0.496202,2.28152,0.638461,0.0160179,-0.201537,0.186485,-0.12012,-0.415906,0.125647,0.00943095,0.687157,5,0.1,1,2.1,-0.823801,-0.455004,0.713522,-0.122131,0.866026,0.0187299,0.0582337,-3.57628e-06,-0.0262521,0.00873702,2.26671,5,0.1,2,2.1,-0.111516,-0.503222,0.674427,0.559357,-0.108517,0.00609681,0.674954,0.10081,-0.00568479,0.0121076,0.90008,5,0.1,3,2.1,1.18384,-1.7022,0.734375,0.201639,-0.294838,0.0189572,-0.118144,0.358529,-0.0110827,0.00865757,0.102676,5,0.1,4,2.1,-2.81051,1.37326,0.500015,0.659377,-0.0235908,-4.09782e-05,0.154033,0.0224262,1.49012e-05,0.022176,0.548048,5,0.1,5,2.1,-1.305,1.71601,0.680058,-0.015866,-0.866026,-0.00669714,0.000566244,0,0.000245869,0.00998901,2.27173,5,0.1,6,2.1,-0.378895,1.68757,0.682172,-0.115658,-0.38046,0.0161057,0.420377,0.217497,-0.0116602,0.00974155,0.180093,5,0.1,7,2.1,3.2053,2.87683,0.601097,-0.0631653,0.126019,-0.00112001,0.5247,-0.124797,0.00108778,0.0163012,0.442623,5,0.1,8,2.1,-3.42096,-1.40815,0.538022,0.177636,-0.256609,-0.0250746,-0.101402,0.146493,0.0143051,0.00581518,0.0244966,5,0.1,9,2.1,1.15274,-0.222272,0.581847,-0.0569379,0.127442,0.022011,0.518925,-0.455575,-0.00681356,0.0156813,0.261948,5,0.1
0,2.2,0.49723,2.2591,0.657317,0.00486076,-0.247514,0.186792,-0.101253,-0.464439,-0.104755,0.0116862,0.226761,5,0.1,1,2.2,-0.835671,-0.368401,0.715241,-0.11472,0.866025,0.0154868,0.0908375,1.43051e-05,-0.0371635,0.0076115,2.26439,5,0.1,2,2.2,-0.0525403,-0.513572,0.675008,0.615955,-0.0984445,0.00552833,0.424564,0.102907,-0.00578165,0.00837685,0.657578,5,0.1,3,2.2,1.20345,-1.7297,0.736218,0.19069,-0.253654,0.0179306,-0.110626,0.455856,-0.0103712,0.0100316,0.212862,5,0.1,4,2.2,-2.74407,1.37101,0.500011,0.666273,-0.0213563,-3.72529e-05,-0.0395775,0.0226498,5.96046e-05,0.0181225,0.384083,5,0.1,5,2.2,-1.30658,1.62941,0.679391,-0.0157267,-0.866026,-0.00663698,0.00303984,0,0.0012815,0.0118363,2.27173,5,0.1,6,2.2,-0.388526,1.65053,0.683729,-0.0788733,-0.360656,0.0150442,0.306338,0.197113,-0.0102818,0.00649328,0.126441,5,0.1,7,2.2,3.20122,2.88881,0.60099,-0.0221312,0.113684,-0.00101328,0.301838,-0.124693,0.00113249,0.01286,0.883037,5,0.1,8,2.2,-3.40374,-1.43302,0.535591,0.166154,-0.240022,-0.0234544,-0.131488,0.190079,0.0185668,0.00832002,0.0144406,5,0.1,9,2.2,1.1494,-0.211735,0.584008,-0.0122488,0.0842009,0.0211164,0.375271,-0.401571,-0.0115633,0.0143383,0.254895,5,0.1
0,2.3,0.497227,2.2321,0.675214,-0.00469848,-0.291439,0.168869,-0.0881311,-0.39424,-0.241663,0.0116862,0.226761,5,0.1,1,2.3,-0.846778,-0.281799,0.71664,-0.108129,0.866025,0.0127898,0.0484213,-1.78814e-06,-0.0184961,0.0076115,2.26439,5,0.1,2,2.3,0.0111618,-0.522934,0.675534,0.65698,-0.0890289,0.00499943,0.35943,0.0881851,-0.00495836,0.00837685,0.657578,5,0.1,3,2.3,1.22192,-1.75266,0.737955,0.178181,-0.204661,0.0167568,-0.140838,0.511944,-0.0132211,0.0100316,0.212862,5,0.1,4,2.3,-2.6776,1.36898,0.500008,0.662613,-0.0192862,-3.08268e-05,-0.0611246,0.0193566,7.07805e-05,0.0181225,0.384083,5,0.1,5,2.3,-1.30814,1.54281,0.67873,-0.0156008,-0.866026,-0.00658389,0.000447035,0,0.000186265,0.0118363,2.27173,5,0.1,6,2.3,-0.395077,1.61532,0.685187,-0.0545598,-0.344348,0.0141757,0.164684,0.145644,-0.0077486,0.00649328,0.126441,5,0.1,7,2.3,3.20037,2.8996,0.600894,0.0029102,0.102319,-0.000910182,0.176728,-0.105828,0.0009574,0.01286,0.883037,5,0.1,8,2.3,-3.38777,-1.45609,0.533337,0.153234,-0.221347,-0.0216302,-0.130907,0.189185,0.0184774,0.00832002,0.0144406,5,0.1,9,2.3,1.14987,-0.205176,0.586061,0.0198515,0.048534,0.0199289,0.267185,-0.308909,-0.0126399,0.0143383,0.254895,5,0.1
0,2.4,0.496351,2.20123,0.69075,-0.0124663,-0.323057,0.14066,-0.066027,-0.22459,-0.312597,0.0131012,0.146642,5,0.1,1,2.4,-0.857369,-0.195196,0.717845,-0.103739,0.866025,0.0114813,0.0448525,0,-0.00908971,0.0112154,2.26503,5,0.1,2,2.4,0.0783051,-0.531401,0.676009,0.681719,-0.0803322,0.00451207,0.110638,0.0877082,-0.00494719,0.00775869,0.459649,5,0.1,3,2.4,1.23897,-1.77056,0.739559,0.162357,-0.153404,0.0152692,-0.176013,0.503778,-0.0165105,0.00763901,0.413511,5,0.1,4,2.4,-2.61187,1.36715,0.500005,0.649446,-0.0173777,-2.38419e-05,-0.221014,0.0190735,5.96046e-05,0.0218099,0.262364,5,0.1,5,2.4,-1.3097,1.45621,0.678074,-0.0154734,-0.866026,-0.00652969,0.00274181,0,0.00119209,0.00870151,2.27174,5,0.1,6,2.4,-0.4,1.58164,0.686566,-0.046654,-0.328699,0.0133798,0.00150502,0.179052,-0.00861287,0.007979,0.117672,5,0.1,7,2.4,3.20121,2.90931,0.600807,0.0103772,0.091964,-0.000816584,-0.0334978,-0.103593,0.000923872,0.0129253,1.78835,5,0.1,8,2.4,-3.37313,-1.47724,0.53127,0.139338,-0.201267,-0.019668,-0.149488,0.215888,0.0211,0.0068579,0.00449354,5,0.1,9,2.4,1.15302,-0.201698,0.587986,0.0413537,0.0227377,0.0185132,0.163853,-0.206679,-0.0159442,0.0150603,0.249071,5,0.1
0,2.5,0.494792,2.16787,0.703335,-0.0184913,-0.343198,0.111844,-0.0531022,-0.162482,-0.265002,0.0131012,0.146642,5,0.1,1,2.5,-0.867585,-0.108594,0.718969,-0.101075,0.866025,0.0111607,0.0154115,0,0.00118092,0.0112154,2.26503,5,0.1,2,2.5,0.147009,-0.539025,0.676437,0.691398,-0.0723574,0.00406262,0.0536691,0.0741184,-0.00417978,0.00775869,0.459649,5,0.1,3,2.5,1.25437,-1.78346,0.741008,0.145919,-0.105585,0.0137265,-0.156559,0.446357,-0.0147037,0.00763901,0.413511,5,0.1,4,2.5,-2.54797,1.3655,0.500003,0.628341,-0.015644,-1.78814e-05,-0.223607,0.0161082,5.96046e-05,0.0218099,0.262364,5,0.1,5,2.5,-1.31124,1.3696,0.677424,-0.0153719,-0.866026,-0.00648396,0.000230968,0,0.000122935,0.00870151,2.27174,5,0.1,6,2.5,-0.405047,1.54953,0.687867,-0.0574646,-0.314508,0.0126841,-0.190431,0.121951,-0.00598654,0.007979,0.117672,5,0.1,7,2.5,3.20194,2.91802,0.60073,0.000522658,0.0825789,-0.000733044,-0.25101,-0.0867993,0.000771135,0.0129253,1.78835,5,0.1,8,2.5,-3.35995,-1.49628,0.529409,0.124306,-0.179557,-0.0175465,-0.152409,0.220113,0.0215098,0.0068579,0.00449354,5,0.1,9,2.5,1.15785,-0.20029,0.589758,0.0541516,0.00702473,0.0169211,0.0930279,-0.110373,-0.0161789,0.0150603,0.249071,5,0.1
0,2.6,0.492708,2.13294,0.713265,-0.0228629,-0.352949,0.0874206,-0.0334829,-0.0224113,-0.22456,0.01051,0.704588,5,0.1,1,2.6,-0.877617,-0.021991,0.720098,-0.0994518,0.866025,0.011453,0.0221133,-1.19209e-06,0.00354648,0.00883331,2.20843,5,0.1,2,2.6,0.216128,-0.545897,0.676823,0.687577,-0.0651091,0.00365525,-0.149592,0.0725091,-0.00408292,0.0117695,0.311634,5,0.1,3,2.6,1.26819,-1.79192,0.742307,0.130403,-0.065133,0.0122681,-0.156343,0.35888,-0.0146925,0.0101887,0.362379,5,0.1,4,2.6,-2.48641,1.36401,0.500002,0.600964,-0.0140697,-1.19209e-05,-0.339031,0.015676,5.96046e-05,0.0145913,0.176681,5,0.1,5,2.6,-1.31277,1.283,0.676777,-0.0152647,-0.866026,-0.0064373,0.0026226,5.96046e-05,0.00113249,0.0109271,2.27174,5,0.1,6,2.6,-0.411877,1.51871,0.689105,-0.0799395,-0.301385,0.0120655,-0.238359,0.152707,-0.00691414,0.00560659,0.0643344,5,0.1,7,2.6,3.2,2.92586,0.600661,-0.046587,0.0741363,-0.000658631,-0.671268,-0.0840425,0.00077486,0.0135854,2.33047,5,0.1,8,2.6,-3.34829,-1.51312,0.527764,0.108683,-0.15699,-0.0153407,-0.160694,0.231981,0.0226498,0.0120487,0.00139148,5,0.1,9,2.6,1.16362,-0.200007,0.591367,0.0601858,-0.000170618,0.0152349,0.028789,-0.0390857,-0.0177622,0.0142639,0.245858,5,0.1
0,2.7,0.490268,2.0971,0.721427,-0.0257791,-0.367243,0.0804668,-0.0237543,-0.221074,0.0545755,0.01051,0.704588,5,0.1,1,2.7,-0.887502,0.0646115,0.721272,-0.0985655,0.866025,0.0121273,0.00204518,4.47035e-07,0.00863522,0.00883331,2.20843,5,0.1,2,2.7,0.284154,-0.55207,0.67717,0.672485,-0.0585502,0.00328608,-0.176164,0.0606179,-0.00341237,0.0117695,0.311634,5,0.1,3,2.7,1.28045,-1.79678,0.743461,0.114966,-0.0333728,0.0108168,-0.153303,0.271909,-0.0144131,0.0101887,0.362379,5,0.1,4,2.7,-2.42793,1.36268,0.500001,0.56895,-0.0126518,-6.89179e-06,-0.319913,0.013113,3.72529e-05,0.0145913,0.176681,5,0.1,5,2.7,-1.31429,1.1964,0.676136,-0.0151714,-0.866025,-0.00639604,0.000171363,-1.49012e-05,8.56817e-05,0.0109271,2.27174,5,0.1,6,2.7,-0.42115,1.48932,0.690278,-0.10595,-0.286431,0.0114,-0.265196,0.155412,-0.00675395,0.00560659,0.0643344,5,0.1,7,2.7,3.19077,2.93288,0.600598,-0.147685,0.0665598,-0.000589155,-1.25161,-0.0697672,0.00064075,0.0135854,2.33047,5,0.1,8,2.7,-3.33822,-1.52767,0.526342,0.0927806,-0.134029,-0.0130987,-0.157267,0.227116,0.0221804,0.0120487,0.00139148,5,0.1,9,2.7,1.16975,-0.200175,0.592803,0.0619926,-0.0027678,0.0135028,0.00621378,-0.0141449,-0.0170507,0.0142639,0.245858,5,0.1
0,2.8,0.487594,2.05922,0.729997,-0.027439,-0.389791,0.0928313,-0.00877678,-0.198245,0.168562,0.0140127,0.549466,5,0.1,1,2.8,-0.897338,0.151214,0.722528,-0.0979379,0.866026,0.0129521,0.01508,-7.15256e-06,0.00691414,0.0103576,1.75188,5,0.1,2,2.8,0.350319,-0.557628,0.677482,0.648364,-0.0526518,0.0029549,-0.322104,0.0587702,-0.00330806,0.011265,0.207581,5,0.1,3,2.8,1.29118,-1.79892,0.744471,0.0996053,-0.0113368,0.00937283,-0.154376,0.16737,-0.0145435,0.00994606,0.546211,5,0.1,4,2.8,-2.37273,1.36148,0.5,0.533861,-0.0113755,-2.98023e-06,-0.394464,0.0126958,0,0.015993,0.11841,5,0.1,5,2.8,-1.31581,1.1098,0.675498,-0.0150681,-0.866026,-0.00635237,0.00244379,5.96046e-05,0.00107288,0.00983749,2.27175,5,0.1,6,2.8,-0.433003,1.46151,0.691382,-0.130132,-0.268814,0.0106528,-0.206575,0.202835,-0.00840425,0.0101956,0.031783,5,0.1,7,2.8,3.16946,2.93919,0.600543,-0.279462,0.0597954,-0.000528991,-1.30868,-0.0669956,0.000625849,0.0124747,2.29935,5,0.1,8,2.8,-3.32972,-1.53994,0.525142,0.0772595,-0.111616,-0.0109091,-0.152826,0.220776,0.0215769,0.00785681,0.000827771,5,0.1,9,2.8,1.17594,-0.20049,0.594068,0.0612646,-0.00324622,0.0117972,-0.0213385,0.00339746,-0.0171363,0.0164421,0.241774,5,0.1
0,2.9,0.484814,2.01908,0.740354,-0.0280674,-0.414131,0.116022,-0.00290386,-0.255704,0.271823,0.0140127,0.549466,5,0.1,1,2.9,-0.907082,0.237817,0.723862,-0.0970842,0.866025,0.0137548,0.00709295,-1.78814e-06,0.00811741,0.0103576,1.75188,5,0.1,2,2.9,0.413604,-0.56262,0.677762,0.617427,-0.0473576,0.00265725,-0.316465,0.0487417,-0.00273436,0.011265,0.207581,5,0.1,3,2.9,1.3004,-1.79927,0.745338,0.0849603,0.00329297,0.00799317,-0.139512,0.104748,-0.0131428,0.00994606,0.546211,5,0.1,4,2.9,-2.32121,1.3604,0.5,0.496998,-0.0102317,-1.49012e-06,-0.358373,0.0105426,2.23517e-05,0.015993,0.11841,5,0.1,5,2.9,-1.31731,1.02319,0.674866,-0.0149874,-0.866025,-0.00631539,9.68575e-05,-1.11759e-05,5.58794e-05,0.00983749,2.27175,5,0.1,6,2.9,-0.447002,1.43566,0.692406,-0.149134,-0.248056,0.00980189,-0.164479,0.216387,-0.00878796,0.0101956,0.031783,5,0.1,7,2.9,3.13443,2.94471,0.600493,-0.424185,0.0493307,-0.000473298,-1.50102,-0.134304,0.000506639,0.0124747,2.29935,5,0.1,8,2.9,-3.32274,-1.55003,0.524157,0.0624873,-0.0902746,-0.00882354,-0.142097,0.205293,0.0200644,0.00785681,0.000827771,5,0.1,9,2.9,1.1819,-0.200859,0.595165,0.0575786,-0.00452672,0.0101569,-0.0508204,-0.0201548,-0.0157766,0.0164421,0.241774,5,0.1
0,3,0.482008,1.97651,0.753328,-0.0278763,-0.435302,0.143109,0.00727177,-0.144243,0.252515,0.0121311,0.413473,5,0.1,1,3,-0.916734,0.324419,0.725273,-0.0956506,0.866025,0.014402,0.0250936,1.43051e-05,0.00414252,0.0114711,1.35268,5,0.1,2,3,0.473642,-0.567118,0.678014,0.581764,-0.0426248,0.00239015,-0.41008,0.0470281,-0.0025928,0.0142313,0.137241,5,0.1,3,3,1.30822,-1.79864,0.746073,0.0715345,0.00686646,0.00672936,-0.12958,-0.0404119,-0.012219,0.0111418,1.31194,5,0.1,4,3,-2.27335,1.35943,0.5,0.459564,-0.00920892,1.49012e-06,-0.400782,0.0101328,-2.98023e-05,0.0143041,0.137346,5,0.1,5,3,-1.3188,0.936591,0.674235,-0.0148922,-0.866026,-0.00627339,0.00244379,0,0.00101328,0.00944008,2.27175,5,0.1,6,3,-0.462608,1.41198,0.69334,-0.161549,-0.2249,0.00887066,-0.0779927,0.249088,-0.00998378,0.00886054,0.0196256,5,0.1,7,3,3.08476,2.94891,0.600448,-0.565016,0.034368,-0.000424683,-1.25384,-0.158548,0.000476837,0.0139655,1.79095,5,0.1,8,3,-3.31718,-1.55806,0.523372,0.0489295,-0.0706941,-0.00690967,-0.128508,0.185847,0.0181794,0.0078262,0.000746066,5,0.1,9,3,1.18737,-0.201395,0.596103,0.0513971,-0.00586696,0.0086233,-0.0713468,-0.00140071,-0.0149608,0.0152943,0.228022,5,0.1
0,3.1,0.479259,1.93219,0.768973,-0.0270602,-0.451002,0.170049,0.00979565,-0.143901,0.268344,0.0121311,0.413473,5,0.1,1,3.1,-0.92619,0.411017,0.726736,-0.0935336,0.865791,0.0148434,0.0213422,-0.00937283,0.00388175,0.0114711,1.35268,5,0.1,2,3.1,0.529861,-0.571163,0.678241,0.543115,-0.0384009,0.00215704,-0.379495,0.0387989,-0.00214204,0.0142313,0.137241,5,0.1,3,3.1,1.31475,-1.79822,0.746688,0.0595339,-0.00128634,0.00559818,-0.111401,-0.203729,-0.0104979,0.0111418,1.31194,5,0.1,4,3.1,-2.22906,1.35855,0.5,0.428883,-0.00842977,0,-0.240415,0.00602752,-7.45058e-06,0.0143041,0.137346,5,0.1,5,3.1,-1.32029,0.849989,0.67361,-0.0148093,-0.866026,-0.00623995,0.00012666,3.72529e-06,4.09782e-05,0.00944008,2.27175,5,0.1,6,3.1,-0.479105,1.39072,0.694178,-0.167726,-0.200416,0.00789426,-0.0386257,0.243679,-0.00967085,0.00886054,0.0196256,5,0.1,7,3.1,3.02193,2.95152,0.600407,-0.690696,0.0175145,-0.000382308,-1.19486,-0.17263,0.000383705,0.0139655,1.79095,5,0.1,8,3.1,-3.31291,-1.56423,0.522768,0.036817,-0.0531791,-0.00519659,-0.113279,0.163756,0.0160187,0.0078262,0.000746066,5,0.1,9,3.1,1.19214,-0.202033,0.596894,0.0438092,-0.00680492,0.00721458,-0.0792667,0.00264589,-0.0132918,0.0152943,0.228022,5,0.1
0,3.2,0.476611,1.88655,0.787225,-0.0257961,-0.45971,0.193711,0.0159889,-0.0123978,0.192106,0.010327,0.298018,5,0.1,1,3.2,-0.935416,0.497474,0.728234,-0.0906885,0.862277,0.0150442,0.0383556,-0.0749528,-0.000447035,0.00852976,1.01438,5,0.1,2,3.2,0.582216,-0.574813,0.678446,0.503084,-0.0346333,0.00194758,-0.432402,0.0375211,-0.00208616,0.0108485,0.155477,5,0.1,3,3.2,1.32017,-1.8,0.747198,0.0490844,-0.0404775,0.0046134,-0.0983477,-0.565112,-0.00926852,0.00863858,3.29107,5,0.1,4,3.2,-2.1873,1.35773,0.5,0.406688,-0.0079006,0,-0.223637,0.00506639,0,0.0143364,0.143475,5,0.1,5,3.2,-1.32177,0.763386,0.672988,-0.0147104,-0.866026,-0.00620037,0.0025034,0,0.00101328,0.0106581,2.27176,5,0.1,6,3.2,-0.495961,1.37191,0.694919,-0.168179,-0.175688,0.00691563,0.0336468,0.252485,-0.00995398,0.00807935,0.0068237,5,0.1,7,3.2,2.94742,2.95242,0.600371,-0.792974,0.000864267,-0.000344217,-0.805616,-0.156045,0.000327826,0.0135319,1.71324,5,0.1,8,3.2,-3.30976,-1.56877,0.522325,0.0263512,-0.0380546,-0.00371784,-0.0957251,0.138402,0.0135303,0.00950859,0.000568859,5,0.1,9,3.2,1.19612,-0.202575,0.597551,0.0357509,-0.00255145,0.00595152,-0.0808239,0.0902861,-0.0120103,0.0138793,0.198438,5,0.1
0,3.3,0.47411,1.84048,0.807562,-0.0242246,-0.461345,0.212735,0.0160746,0.00038743,0.174426,0.010327,0.298018,5,0.1,1,3.3,-0.944307,0.583629,0.729737,-0.087189,0.862515,0.01501,0.0349768,0.0285357,-0.000882894,0.00852976,1.01438,5,0.1,2,3.3,0.630719,-0.578121,0.678632,0.46979,-0.0317762,0.0017887,-0.263136,0.0218824,-0.00121444,0.0108485,0.155477,5,0.1,3,3.3,1.32516,-1.8084,0.747388,0.055461,-0.139775,-0.00269543,0.190958,-1.30583,-0.122622,0.00863858,3.29107,5,0.1,4,3.3,-2.14762,1.35681,0.5,0.387635,-0.0118392,0,-0.174731,-0.0737831,0,0.0143364,0.143475,5,0.1,5,3.3,-1.32323,0.676784,0.67237,-0.0146197,-0.866026,-0.00616582,0.000201166,3.72529e-06,5.58794e-05,0.0106581,2.27176,5,0.1,6,3.3,-0.512545,1.35559,0.695561,-0.162782,-0.150884,0.00593988,0.0764728,0.244156,-0.00958517,0.00807935,0.0068237,5,0.1,7,3.3,2.86488,2.95158,0.600338,-0.850131,-0.018907,-0.000314601,-0.346482,-0.225142,0.000275671,0.0135319,1.71324,5,0.1,8,3.3,-3.30758,-1.57193,0.522017,0.0175763,-0.0253694,-0.00247788,-0.0795275,0.11494,0.0112355,0.00950859,0.000568859,5,0.1,9,3.3,1.19929,-0.202278,0.598089,0.0278229,0.0102821,0.00483757,-0.0769868,0.194145,-0.0103302,0.0138793,0.198438,5,0.1
0,3.4,0.471772,1.79451,0.829585,-0.0224754,-0.456163,0.226244,0.019297,0.117242,0.0861585,0.0104847,0.207228,5,0.1,1,3.4,-0.952834,0.66985,0.731229,-0.0831306,0.859253,0.0147596,0.0484288,-0.129938,-0.00452995,0.0110038,0.731026,5,0.1,2,3.4,0.676462,-0.5812,0.678806,0.445317,-0.0298634,0.00168234,-0.248045,0.01809,-0.00101328,0.00805164,0.089897,5,0.1,3,3.4,1.3319,-1.82935,0.746415,0.0810653,-0.281346,-0.0173703,0.29397,-1.43754,-0.1598,0.00799011,2.77988,5,0.1,4,3.4,-2.10977,1.3552,0.5,0.368786,-0.0208706,0,-0.214219,-0.0991821,0,0.0153434,0.181243,5,0.1,5,3.4,-1.32469,0.590181,0.671755,-0.0145137,-0.866026,-0.00612438,0.00244379,0,0.00104308,0.00767267,2.27176,5,0.1,6,3.4,-0.528356,1.34171,0.696108,-0.152594,-0.126794,0.00499487,0.12809,0.237823,-0.00932813,0.0094948,0.00216074,5,0.1,7,3.4,2.77878,2.94854,0.600308,-0.866026,-0.0416636,-0.000287592,0,-0.219226,0.000268221,0.0147817,1.69451,5,0.1,8,3.4,-3.30619,-1.57393,0.521821,0.0104785,-0.0151157,-0.00147521,-0.0622272,0.090003,0.00876188,0.00600417,0.000328466,5,0.1,9,3.4,1.2017,-0.2,0.598524,0.0204861,0.0378687,0.0038743,-0.0690818,0.345729,-0.0089407,0.0127344,0.331532,5,0.1
0,3.5,0.469618,1.74945,0.852631,-0.0206429,-0.445043,0.2343,0.0179,0.121996,0.0638776,0.0104847,0.207228,5,0.1,1,3.5,-0.96092,0.755292,0.732683,-0.0786475,0.850194,0.0143281,0.0439845,-0.092078,-0.00462309,0.0110038,0.731026,5,0.1,2,3.5,0.719898,-0.584109,0.67897,0.424322,-0.028418,0.00160113,-0.19132,0.0123233,-0.000692904,0.00805164,0.089897,5,0.1,3,3.5,1.34171,-1.8652,0.743794,0.116795,-0.438859,-0.0356304,0.393651,-1.62395,-0.194453,0.00799011,2.77988,5,0.1,4,3.5,-2.07362,1.35245,0.5,0.356609,-0.035519,0,-0.0587702,-0.17909,0,0.0153434,0.181243,5,0.1,5,3.5,-1.32613,0.503578,0.671145,-0.0144251,-0.866026,-0.00608591,0.000208616,3.57628e-06,9.31323e-05,0.00767267,2.27176,5,0.1,6,3.5,-0.542931,1.33019,0.696562,-0.138461,-0.103822,0.00409475,0.154238,0.221163,-0.0086613,0.0094948,0.00216074,5,0.1,7,3.5,2.69218,2.9433,0.60028,-0.865941,-0.0628762,-0.000263471,0.00339746,-0.199288,0.000227243,0.0147817,1.69451,5,0.1,8,3.5,-3.30543,-1.57503,0.521714,0.00496954,-0.00715032,-0.00069961,-0.0479221,0.0692755,0.00675023,0.00600417,0.000328466,5,0.1,9,3.5,1.20342,-0.193902,0.598869,0.0139905,0.0886612,0.00305679,-0.0603721,0.620957,-0.00745058,0.0127344,0.331532,5,0.1
0,3.6,0.467644,1.70567,0.87627,-0.0188053,-0.428951,0.237168,0.0192225,0.211239,-0.0139177,0.0106167,0.140552,5,0.1,1,3.6,-0.968554,0.839641,0.734089,-0.073871,0.833932,0.0137463,0.0534058,-0.261396,-0.00733137,0.00693983,0.511625,5,0.1,2,3.6,0.761337,-0.586889,0.679126,0.403741,-0.027144,0.00152886,-0.233978,0.0143051,-0.000804663,0.00808059,0.0691116,5,0.1,3,3.6,1.35534,-1.91692,0.739276,0.155103,-0.590798,-0.0543579,0.352502,-1.35028,-0.172019,0.0074197,2.4177,5,0.1,4,3.6,-2.0382,1.34797,0.5,0.351918,-0.0541091,0,-0.0568628,-0.181615,0,0.0144204,0.116345,5,0.1,5,3.6,-1.32757,0.416976,0.670538,-0.01432,-0.866025,-0.00604093,0.00244379,-1.43051e-05,0.00104308,0.00961475,2.27177,5,0.1,6,3.6,-0.555966,1.32088,0.696929,-0.121859,-0.0826448,0.00326633,0.177056,0.201941,-0.00792742,0.00995204,0.00106442,5,0.1,7,3.6,2.60563,2.93609,0.600255,-0.864673,-0.0805318,-0.000239909,0.0271797,-0.149369,0.000208616,0.0117811,1.31029,5,0.1,8,3.6,-3.30515,-1.57543,0.521675,0.000888109,-0.00124872,-0.00012368,-0.0339746,0.0488758,0.00473857,0.00712009,0.000143094,5,0.1,9,3.6,1.20453,-0.18181,0.59914,0.00848472,0.153423,0.00237375,-0.0494719,0.637077,-0.00619888,0.0149052,0.228669,5,0.1
0,3.7,0.465855,1.66378,0.899916,-0.0170134,-0.408981,0.235514,0.0170767,0.202037,-0.028152,0.0106167,0.140552,5,0.1,1,3.7,-0.975689,0.921849,0.735429,-0.0689277,0.810602,0.0130534,0.0477433,-0.238225,-0.00695884,0.00693983,0.511625,5,0.1,2,3.7,0.800704,-0.589545,0.679276,0.384717,-0.0260683,0.00146823,-0.166707,0.00875443,-0.000495464,0.00808059,0.0691116,5,0.1,3,3.7,1.3727,-1.98258,0.732955,0.192295,-0.71929,-0.0720734,0.369124,-1.16425,-0.173308,0.0074197,2.4177,5,0.1,4,3.7,-2.00318,1.34176,0.5,0.348949,-0.0688037,0,-0.0217557,-0.111736,0,0.0144204,0.116345,5,0.1,5,3.7,-1.329,0.330373,0.669936,-0.0142284,-0.866025,-0.00600154,0.00025332,1.78814e-06,0.000115484,0.00961475,2.27177,5,0.1,6,3.7,-0.567254,1.31359,0.697218,-0.1038,-0.0635592,0.00251764,0.182837,0.179164,-0.00702962,0.00995204,0.00106442,5,0.1,7,3.7,2.51917,2.9275,0.600232,-0.864952,-0.0895932,-0.00022063,-0.00450015,-0.045985,0.000182539,0.0117811,1.31029,5,0.1,8,3.7,-3.30521,-1.57534,0.521683,-0.00195429,0.00283942,0.000273157,-0.0230372,0.0330955,0.00321493,0.00712009,0.000143094,5,0.1,9,3.7,1.20515,-0.163181,0.599348,0.00399332,0.219338,0.00181515,-0.0401214,0.649011,-0.00500679,0.0149052,0.228669,5,0.1
0,3.8,0.464239,1.62397,0.923243,-0.0153109,-0.386223,0.230044,0.0172853,0.262499,-0.0872314,0.00884654,0.160609,5,0.1,1,3.8,-0.982337,1.00154,0.736697,-0.0639379,0.780725,0.0122815,0.0536144,-0.381827,-0.00876188,0.00671219,0.740254,5,0.1,2,3.8,0.838319,-0.592107,0.67942,0.366963,-0.0251278,0.00141561,-0.202477,0.0110865,-0.000655651,0.00821015,0.0310949,5,0.1,3,3.8,1.39365,-2.05966,0.72494,0.225124,-0.814825,-0.0874862,0.271678,-0.713825,-0.128567,0.00982941,2.02346,5,0.1,4,3.8,-1.96847,1.33444,0.5,0.344294,-0.0764281,0,-0.0849366,-0.041008,0,0.0129465,0.180461,5,0.1,5,3.8,-1.33042,0.243771,0.669338,-0.0141203,-0.866025,-0.00595599,0.0025034,0,0.00107288,0.0129109,2.27177,5,0.1,6,3.8,-0.576719,1.30809,0.697436,-0.0855401,-0.0469059,0.00186414,0.181228,0.153482,-0.00602007,0.00906837,0.000902155,5,0.1,7,3.8,2.43279,2.91839,0.600211,-0.861055,-0.0919163,-0.000202656,0.0995398,-0.00822544,0.000178814,0.0108325,0.984428,5,0.1,8,3.8,-3.30551,-1.57491,0.521724,-0.00374913,0.00542104,0.000524521,-0.013113,0.0188351,0.00181794,0.00651611,4.69664e-05,5,0.1,9,3.8,1.20536,-0.1382,0.599506,0.000491738,0.277717,0.00136495,-0.0297427,0.495687,-0.00402331,0.0145396,0.0669287,5,0.1
0,3.9,0.462782,1.58639,0.945964,-0.0139066,-0.367516,0.225477,0.0116192,0.13648,-0.020396,0.00884654,0.160609,5,0.1,1,3.9,-0.988478,1.07813,0.737884,-0.058995,0.754309,0.011462,0.0471473,-0.193305,-0.00799447,0.00671219,0.740254,5,0.1,2,3.9,0.874026,-0.594566,0.679559,0.34716,-0.0240513,0.00135237,-0.204165,0.0112616,-0.000651926,0.00821015,0.0310949,5,0.1,3,3.9,1.41754,-2.14377,0.715548,0.25233,-0.858794,-0.100146,0.254087,-0.205547,-0.11722,0.00982941,2.02346,5,0.1,4,3.9,-1.93445,1.32675,0.5,0.335914,-0.0760522,0,-0.0948608,0.0433475,0,0.0129465,0.180461,5,0.1,5,3.9,-1.33182,0.157168,0.668745,-0.0140207,-0.866025,-0.00591269,0.000335276,-1.19209e-06,0.000152737,0.0129109,2.27177,5,0.1,6,3.9,-0.58438,1.30413,0.697594,-0.0678515,-0.0327595,0.00130916,0.171214,0.129074,-0.00506267,0.00906837,0.000902155,5,0.1,7,3.9,2.34693,2.90923,0.600192,-0.857347,-0.0912152,-0.000186265,0.0216365,-0.00154972,0.000156462,0.0108325,0.984428,5,0.1,8,3.9,-3.30594,-1.57429,0.521784,-0.00469051,0.00677183,0.000655185,-0.00594556,0.00852346,0.000823289,0.00651611,4.69664e-05,5,0.1,9,3.9,1.20527,-0.108243,0.599624,-0.0021629,0.318258,0.00101151,-0.0230968,0.306762,-0.00308827,0.0145396,0.0669287,5,0.1
0,4,0.461446,1.55028,0.96841,-0.0128455,-0.354633,0.223157,0.0102222,0.139236,-0.0377595,0.0110098,0.126604,5,0.1,1,4,-0.99414,1.15259,0.738989,-0.0541881,0.734004,0.0106215,0.0503361,-0.246525,-0.0090301,0.00780295,0.541643,5,0.1,2,4,0.907649,-0.596909,0.67969,0.324388,-0.0227392,0.00127703,-0.258178,0.015527,-0.00089407,0.0111157,0.0119161,5,0.1,3,4,1.44389,-2.23018,0.705016,0.27284,-0.86602,-0.109684,0.143528,-0.000119209,-0.0683963,0.0104174,1.5371,5,0.1,4,4,-1.90143,1.31946,0.5,0.323293,-0.0687271,0,-0.165582,0.0986457,0,0.015307,0.349999,5,0.1,5,4,-1.33322,0.0705658,0.668155,-0.0139058,-0.866026,-0.0058651,0.0025034,5.96046e-06,0.00110269,0.0100597,2.27178,5,0.1,6,4,-0.590335,1.30146,0.697701,-0.0515297,-0.0211388,0.000852346,0.154227,0.103176,-0.00405312,0.00809257,0.000727783,5,0.1,7,4,2.26149,2.9,0.600174,-0.848728,-0.0943959,-0.000169873,0.183702,-0.0600815,0.000149012,0.0139218,0.714218,5,0.1,8,4,-3.30642,-1.57359,0.521852,-0.00498891,0.0071913,0.000697374,-0.000119209,0.000238419,0,0.00722165,1.45824e-05,5,0.1,9,4,1.20495,-0.07525,0.599711,-0.00409186,0.337834,0.000742078,-0.0153184,0.0807881,-0.00238419,0.012031,0.0812273,5,0.1
0,4.1,0.460212,1.51541,0.990478,-0.0118319,-0.343339,0.2175,0.0102799,0.10296,-0.0794157,0.0110098,0.126604,5,0.1,1,4.1,-0.999323,1.22501,0.740008,-0.0495701,0.715738,0.00978382,0.0436045,-0.156052,-0.008028,0.00780295,0.541643,5,0.1,2,4.1,0.938786,-0.599104,0.679814,0.298124,-0.0211366,0.00118539,-0.271838,0.0168979,-0.000961125,0.0111157,0.0119161,5,0.1,3,4.1,1.47188,-2.31678,0.693715,0.28645,-0.865836,-0.116078,0.114173,0.00755489,-0.0536293,0.0104174,1.5371,5,0.1,4,4.1,-1.86994,1.31316,0.5,0.306335,-0.0567762,0,-0.181079,0.134952,0,0.015307,0.349999,5,0.1,5,4.1,-1.33461,-0.0160367,0.667572,-0.0138031,-0.866025,-0.00581825,0.00037998,1.49012e-07,0.000182539,0.0100597,2.27178,5,0.1,6,4.1,-0.594746,1.29982,0.697767,-0.0369878,-0.0119198,0.000489969,0.135668,0.0811368,-0.00319257,0.00809257,0.000727783,5,0.1,7,4.1,2.17739,2.89008,0.600158,-0.833863,-0.105444,-0.00015609,0.151321,-0.143781,0.00013411,0.0139218,0.714218,5,0.1,8,4.1,-3.30692,-1.57288,0.521921,-0.00479855,0.00692066,0.000669621,0.00371039,-0.00529736,-0.000521541,0.00722165,1.45824e-05,5,0.1,9,4.1,1.20448,-0.0410625,0.599775,-0.00530556,0.3455,0.000534393,-0.0090003,0.0564115,-0.00179559,0.012031,0.0812273,5,0.1
0,4.2,0.459082,1.48164,1.01174,-0.0107519,-0.331262,0.206652,0.0114888,0.149906,-0.139892,0.0115108,0.15823,5,0.1,1,4.2,-1.00406,1.2957,0.740946,-0.0451952,0.696445,0.00896603,0.0449419,-0.256002,-0.00858307,0.006637,0.805832,5,0.1,2,4.2,0.967186,-0.601128,0.679927,0.269274,-0.0192985,0.00108182,-0.307858,0.0200272,-0.00113249,0.00645005,0.00613551,5,0.1,3,4.2,1.50095,-2.40326,0.681903,0.293252,-0.863004,-0.119436,0.0120997,0.0605583,-0.00959635,0.00655878,1.15129,5,0.1,4,4.2,-1.84028,1.30818,0.5,0.285849,-0.0426948,0,-0.233412,0.142515,0,0.0132949,0.311255,5,0.1,5,4.2,-1.33598,-0.102639,0.666992,-0.0136852,-0.866025,-0.00576675,0.0025034,0,0.00107288,0.0109464,2.27178,5,0.1,6,4.2,-0.597803,1.299,0.697802,-0.0245512,-0.00490248,0.000213087,0.112563,0.0593066,-0.00235438,0.00858856,0.000459028,5,0.1,7,4.2,2.09495,2.87879,0.600143,-0.812101,-0.120157,-0.000143051,0.309825,-0.137925,0.000149012,0.0145857,0.503335,5,0.1,8,4.2,-3.30737,-1.57222,0.521985,-0.00429749,0.0061959,0.000599027,0.00631809,-0.00888109,-0.000834465,0.00651919,9.08357e-06,5,0.1,9,4.2,1.20391,-0.00637825,0.59982,-0.00590384,0.346423,0.00037998,-0.00303984,-0.0487661,-0.00137091,0.0120348,0.0598454,5,0.1
0,4.3,0.458058,1.44923,1.03178,-0.00976729,-0.317009,0.194653,0.00865571,0.146218,-0.108816,0.0115108,0.15823,5,0.1,1,4.3,-1.00837,1.36423,0.741802,-0.0410918,0.675019,0.00817655,0.038445,-0.202946,-0.00746176,0.006637,0.805832,5,0.1,2,4.3,0.992598,-0.602959,0.68003,0.239104,-0.0173204,0.000970438,-0.29913,0.0198185,-0.00111759,0.00645005,0.00613551,5,0.1,3,4.3,1.53033,-2.48952,0.669917,0.293976,-0.863388,-0.120109,-0.00931323,-0.0227839,0.000845641,0.00655878,1.15129,5,0.1,4,4.3,-1.81292,1.30466,0.5,0.260919,-0.0274453,0,-0.266217,0.152707,0,0.0132949,0.311255,5,0.1,5,4.3,-1.33734,-0.189242,0.666418,-0.0135794,-0.866025,-0.00572121,0.000432134,-8.9407e-07,0.000182539,0.0109464,2.27178,5,0.1,6,4.3,-0.599729,1.29877,0.697812,-0.0143001,0.000155903,1.20141e-05,0.0919998,0.0420585,-0.00168011,0.00858856,0.000459028,5,0.1,7,4.3,2.01517,2.86602,0.600129,-0.783965,-0.135588,-0.000129361,0.283524,-0.15752,0.000130385,0.0145857,0.503335,5,0.1,8,4.3,-3.30777,-1.57165,0.52204,-0.00359118,0.00519399,0.000504497,0.00759959,-0.0108704,-0.00103191,0.00651919,9.08357e-06,5,0.1,9,4.3,1.20331,0.0280795,0.599852,-0.00604317,0.342888,0.000265706,0.000238419,-0.038858,-0.000935048,0.0120348,0.0598454,5,0.1
0,4.4,0.457123,1.41833,1.05069,-0.00894219,-0.300172,0.183401,0.00816584,0.197887,-0.122368,0.010167,0.141674,5,0.1,1,4.4,-1.01229,1.4306,0.742583,-0.0372797,0.650698,0.00742972,0.038743,-0.30458,-0.00762939,0.00672899,1.35298,5,0.1,2,4.4,1.015,-0.60459,0.680121,0.20889,-0.0152901,0.000856817,-0.307083,0.0209212,-0.00119209,0.00830882,0.0018771,5,0.1,3,4.4,1.55957,-2.57581,0.657959,0.289443,-0.860018,-0.118484,-0.0890493,0.120163,0.0348091,0.00898937,0.832395,5,0.1,4,4.4,-1.78822,1.30263,0.5,0.232503,-0.0137299,0,-0.302196,0.115633,0,0.014379,0.48005,5,0.1,5,4.4,-1.3387,-0.275844,0.665848,-0.0134617,-0.866025,-0.00567138,0.0026226,-1.43051e-05,0.00107288,0.00908804,2.27179,5,0.1,6,4.4,-0.600735,1.29897,0.697806,-0.00621378,0.00355542,-0.00012368,0.0695288,0.026226,-0.00107288,0.00911657,0.000222007,5,0.1,7,4.4,1.93835,2.85173,0.600117,-0.750241,-0.149405,-0.000116229,0.411808,-0.109434,8.9407e-05,0.0131131,0.588461,5,0.1,8,4.4,-3.30809,-1.57118,0.522085,-0.00280738,0.00407398,0.000396371,0.0077486,-0.0112057,-0.00104308,0.006732,8.72113e-06,5,0.1,9,4.4,1.20272,0.0620777,0.599874,-0.00586212,0.335812,0.000187755,0.00333786,-0.114128,-0.000625849,0.0134294,0.0937343,5,0.1
0,4.5,0.456267,1.38958,1.06845,-0.00820709,-0.272264,0.171952,0.00683591,0.348791,-0.112206,0.010167,0.141674,5,0.1,1,4.5,-1.01584,1.49344,0.74329,-0.0337586,0.599803,0.00673225,0.0327975,-0.684068,-0.00653788,0.00672899,1.35298,5,0.1,2,4.5,1.03438,-0.606016,0.680201,0.178811,-0.0132233,0.000739656,-0.295147,0.0204667,-0.00115484,0.00830882,0.0018771,5,0.1,3,4.5,1.58808,-2.6614,0.646281,0.28065,-0.852614,-0.115001,-0.096418,0.0706166,0.0387207,0.00898937,0.832395,5,0.1,4,4.5,-1.76645,1.30186,0.5,0.202912,-0.00213776,0,-0.291102,0.0931993,0,0.014379,0.48005,5,0.1,5,4.5,-1.34004,-0.362447,0.665284,-0.0133431,-0.866025,-0.00562444,0.000543892,1.78814e-06,0.000201166,0.00908804,2.27179,5,0.1,6,4.5,-0.601039,1.29944,0.697789,-0.000160187,0.00557583,-0.000206847,0.051491,0.0145063,-0.000599772,0.00911657,0.000222007,5,0.1,7,4.5,1.86511,2.83607,0.600105,-0.716549,-0.164988,-0.000107661,0.29707,-0.182092,8.19564e-05,0.0131131,0.588461,5,0.1,8,4.5,-3.30833,-1.57083,0.52212,-0.00203289,0.00295248,0.000291038,0.00758469,-0.0110194,-0.00104681,0.006732,8.72113e-06,5,0.1,9,4.5,1.20215,0.0952705,0.59989,-0.00543203,0.329311,0.000136252,0.00519305,-0.0375066,-0.000420958,0.0134294,0.0937343,5,0.1
0,4.6,0.45548,1.36427,1.08506,-0.00752434,-0.232553,0.160015,0.00701845,0.435591,-0.130236,0.00791162,0.19829,5,0.1,1,4.6,-1.01905,1.54958,0.743931,-0.0305325,0.51927,0.00608712,0.0325441,-0.901997,-0.00652671,0.00621551,1.3156,5,0.1,2,4.6,1.0508,-0.607236,0.680269,0.149781,-0.0111893,0.000625849,-0.285506,0.020206,-0.00116229,0.00806123,0.000907995,5,0.1,3,4.6,1.61559,-2.7461,0.635007,0.268564,-0.838661,-0.110096,-0.151753,0.238061,0.0619888,0.0082747,0.583883,5,0.1,4,4.6,-1.74761,1.30194,0.5,0.174057,0.00167787,0,-0.286818,-0.0261664,0,0.012801,0.65815,5,0.1,5,4.6,-1.34137,-0.449049,0.664723,-0.0132143,-0.866025,-0.00557154,0.0026226,-1.43051e-05,0.00104308,0.00713521,2.27179,5,0.1,6,4.6,-0.600828,1.30005,0.697766,0.00409186,0.00652373,-0.000247359,0.0336468,0.00476837,-0.000208616,0.00887343,8.303e-05,5,0.1,7,4.6,1.79499,2.81868,0.600095,-0.684834,-0.182337,-9.98378e-05,0.361979,-0.149846,0.000119209,0.0124978,0.425243,5,0.1,8,4.6,-3.3085,-1.57059,0.522144,-0.0013113,0.00190437,0.000192225,0.00667572,-0.00971556,-0.000953674,0.00697594,6.82982e-06,5,0.1,9,4.6,1.20164,0.127995,0.599902,-0.00483692,0.324598,0.000101328,0.00655651,-0.0722861,-0.000238419,0.0124044,0.169102,5,0.1
0,4.7,0.454759,1.34327,1.10046,-0.0069147,-0.186936,0.148373,0.00548363,0.468299,-0.108518,0.00791162,0.19829,5,0.1,1,4.7,-1.02195,1.59663,0.744509,-0.0275867,0.419196,0.00549378,0.0272915,-1.05887,-0.00551715,0.00621551,1.3156,5,0.1,2,4.7,1.06439,-0.608256,0.680326,0.122264,-0.00922829,0.000513997,-0.264317,0.0189766,-0.00107661,0.00806123,0.000907995,5,0.1,3,4.7,1.64171,-2.82891,0.624296,0.25408,-0.817867,-0.104158,-0.145905,0.212252,0.0600033,0.0082747,0.583883,5,0.1,4,4.7,-1.73158,1.30186,0.5,0.146973,-0.00574123,0,-0.256516,-0.169657,0,0.012801,0.65815,5,0.1,5,4.7,-1.34268,-0.535652,0.664169,-0.0130927,-0.866026,-0.00552554,0.000588596,1.93715e-06,0.000208616,0.00713521,2.27179,5,0.1,6,4.7,-0.600273,1.30072,0.697741,0.00678031,0.0066489,-0.000254065,0.0203289,-0.00190735,5.96046e-05,0.00887343,8.303e-05,5,0.1,7,4.7,1.72812,2.79964,0.600086,-0.653607,-0.198704,-8.90344e-05,0.290856,-0.161901,0.000104308,0.0124978,0.425243,5,0.1,8,4.7,-3.3086,-1.57045,0.522158,-0.000681728,0.000988692,0.000102259,0.00581145,-0.00846386,-0.000834465,0.00697594,6.82982e-06,5,0.1,9,4.7,1.20119,0.16042,0.599911,-0.00411309,0.32634,8.28877e-05,0.0077635,0.075563,-0.000141561,0.0124044,0.169102,5,0.1
0,4.8,0.454095,1.32691,1.11476,-0.00637472,-0.140417,0.137305,0.00555813,0.45526,-0.116885,0.00891993,0.193902,5,0.1,1,4.8,-1.02458,1.63327,0.745031,-0.0249118,0.314391,0.00495315,0.0267029,-1.00875,-0.00542402,0.00574951,2.02844,5,0.1,2,4.8,1.07533,-0.609086,0.680372,0.0970125,-0.00740141,0.000411272,-0.240207,0.017494,-0.000983477,0.00756063,0.000745712,5,0.1,3,4.8,1.66635,-2.90945,0.614198,0.238049,-0.790405,-0.0975549,-0.180125,0.360489,0.074178,0.00913209,0.40069,5,0.1,4,4.8,-1.71813,1.3,0.5,0.122473,-0.0356436,0,-0.234663,-0.414908,0,0.0135749,3.34777,5,0.1,5,4.8,-1.34398,-0.622254,0.663619,-0.012961,-0.866026,-0.0054732,0.0026226,0,0.00110269,0.0076583,2.2718,5,0.1,6,4.8,-0.599514,1.30136,0.697716,0.00820756,0.0062108,-0.000239909,0.00843406,-0.00655651,0.000268221,0.00908394,2.71708e-05,5,0.1,7,4.8,1.66429,2.77904,0.600077,-0.621855,-0.212055,-8.04663e-05,0.363946,-0.0942945,0.000119209,0.0120733,0.299852,5,0.1,8,4.8,-3.30864,-1.57039,0.522165,-0.000160933,0.000229478,2.68221e-05,0.00452995,-0.00655651,-0.000625849,0.00597149,3.97052e-06,5,0.1,9,4.8,1.20082,0.193463,0.599919,-0.00331402,0.334231,7.15256e-05,0.00816584,0.0590307,-8.9407e-05,0.0119168,0.104011,5,0.1
0,4.9,0.453484,1.31509,1.12792,-0.0058488,-0.0967653,0.125983,0.005126,0.410624,-0.112593,0.00891993,0.193902,5,0.1,1,4.9,-1.02694,1.65968,0.745501,-0.0225015,0.215685,0.00446225,0.0222772,-0.906579,-0.00454113,0.00574951,2.02844,5,0.1,2,4.9,1.08388,-0.609742,0.680408,0.0743521,-0.00574095,0.000318419,-0.212334,0.0156574,-0.000867993,0.00756063,0.000745712,5,0.1,3,4.9,1.68929,-2.9868,0.604797,0.22114,-0.757221,-0.0905798,-0.164762,0.331312,0.068035,0.00913209,0.40069,5,0.1,4,4.9,-1.7056,1.29406,0.5,0.14049,-0.0854816,0,0.505209,-0.554338,0,0.0135749,3.34777,5,0.1,5,4.9,-1.34527,-0.708857,0.663074,-0.0128357,-0.866026,-0.00542067,0.000648201,3.72529e-06,0.000268221,0.0076583,2.2718,5,0.1,6,4.9,-0.598665,1.30195,0.697694,0.00862405,0.00539906,-0.000207312,0.000223517,-0.00937283,0.000372529,0.00908394,2.71708e-05,5,0.1,7,4.9,1.60377,2.75735,0.60007,-0.589298,-0.221614,-7.01286e-05,0.310272,-0.084579,9.31323e-05,0.0120733,0.299852,5,0.1,8,4.9,-3.30863,-1.57039,0.522164,0.000242516,-0.000355206,-2.93367e-05,0.00350177,-0.00507385,-0.000495464,0.00597149,3.97052e-06,5,0.1,9,4.9,1.20052,0.227263,0.599926,-0.00251513,0.342072,6.50994e-05,0.00772625,0.0772672,-4.09782e-05,0.0119168,0.104011,5,0.1
0,5,0.452925,1.30734,1.13994,-0.00532195,-0.0594378,0.114289,0.00552833,0.33164,-0.123143,0.0101954,0.191306,5,0.1,1,5,-1.02909,1.67724,0.745925,-0.0203252,0.141558,0.00402033,0.0218153,-0.549912,-0.00444055,0.00683909,1.89077,5,0.1,2,5,1.0903,-0.610241,0.680436,0.0546545,-0.00427961,0.000236928,-0.181198,0.0135601,-0.000745058,0.00737788,0.000580013,5,0.1,3,5,1.71057,-3.06073,0.596087,0.20397,-0.719416,-0.0834927,-0.183105,0.444055,0.0755489,0.00794306,0.271116,5,0.1,4,5,-1.68841,1.2827,0.5,0.207552,-0.141546,0,0.766277,-0.544846,0,0.0146268,3.02024,5,0.1,5,5,-1.34655,-0.79546,0.662535,-0.0127017,-0.866026,-0.00536293,0.00268221,0,0.00110269,0.0080749,2.2718,5,0.1,6,5,-0.597813,1.30244,0.697675,0.00831485,0.00439286,-0.000168383,-0.00610948,-0.0104904,0.000447035,0.0107686,1.32359e-05,5,0.1,7,5,1.54646,2.73486,0.600063,-0.5559,-0.226903,-6.10948e-05,0.373721,-0.0128746,8.9407e-05,0.0112616,0.700777,5,0.1,8,5,-3.30859,-1.57045,0.522159,0.000536442,-0.000777841,-7.00355e-05,0.00226498,-0.00339746,-0.000357628,0.00600768,1.71947e-06,5,0.1,9,5,1.20031,0.261749,0.599932,-0.00178516,0.346203,6.10948e-05,0.00679493,-0.0089258,-2.98023e-05,0.0109403,0.0822329,5,0.1
0,5.1,0.45242,1.3029,1.15076,-0.00478094,-0.0310283,0.102144,0.00536814,0.235036,-0.121102,0.0101954,0.191306,5,0.1,1,5.1,-1.03102,1.68919,0.746307,-0.0183614,0.104741,0.00362014,0.0180975,-0.122949,-0.00369176,0.00683909,1.89077,5,0.1,2,5.1,1.09491,-0.610605,0.680456,0.0379816,-0.00302484,0.000168011,-0.151858,0.0114925,-0.000625849,0.00737788,0.000580013,5,0.1,3,5.1,1.7301,-3.13058,0.588095,0.186975,-0.678226,-0.0764754,-0.162423,0.402957,0.067085,0.00794306,0.271116,5,0.1,4,5.1,-1.66322,1.26632,0.5,0.300444,-0.182139,0,1.02195,-0.307724,0,0.0146268,3.02024,5,0.1,5,5.1,-1.34781,-0.882062,0.662002,-0.0125682,-0.866026,-0.00530854,0.000737607,3.72529e-06,0.000298023,0.0080749,2.2718,5,0.1,6,5.1,-0.597019,1.30282,0.69766,0.00749277,0.00331756,-0.000123866,-0.0100024,-0.0107959,0.000439584,0.0107686,1.32359e-05,5,0.1,7,5.1,1.49214,2.7121,0.600058,-0.535242,-0.228121,-5.33648e-05,0.0880063,-0.00166893,7.07805e-05,0.0112616,0.700777,5,0.1,8,5.1,-3.30853,-1.57055,0.522151,0.000720099,-0.0010537,-9.90927e-05,0.00141561,-0.00210851,-0.000223517,0.00600768,1.71947e-06,5,0.1,9,5.1,1.20016,0.296431,0.599938,-0.00116732,0.347942,5.97909e-05,0.00553578,0.0224579,0,0.0109403,0.0822329,5,0.1
0,5.2,0.451969,1.30081,1.16036,-0.00423566,-0.0124514,0.08986,0.00558794,0.137746,-0.125408,0.00959982,0.321158,5,0.1,1,5.2,-1.03276,1.7,0.746651,-0.0165969,0.120297,0.00326186,0.0177026,0.403821,-0.00354648,0.00699249,1.62917,5,0.1,2,5.2,1.098,-0.610853,0.68047,0.0243366,-0.00198632,0.000111759,-0.120997,0.00926852,-0.000506639,0.00753377,0.000351991,5,0.1,3,5.2,1.74798,-3.1963,0.580784,0.170535,-0.634921,-0.0696898,-0.17035,0.479102,0.0701845,0.00742649,0.182099,5,0.1,4,5.2,-1.62812,1.24671,0.5,0.399834,-0.209096,0,0.914276,-0.250816,0,0.0165606,2.7573,5,0.1,5,5.2,-1.34906,-0.968665,0.661473,-0.0124276,-0.866026,-0.00524968,0.00268221,0,0.00110269,0.00764781,2.27181,5,0.1,6,5.2,-0.596324,1.3031,0.69765,0.00637323,0.00227392,-8.19564e-05,-0.0121295,-0.00989437,0.00038743,0.0136707,1.11501e-05,5,0.1,7,5.2,1.43891,2.68937,0.600053,-0.529826,-0.225592,-4.61936e-05,0.056386,0.0590086,2.98023e-05,0.0106115,0.597605,5,0.1,8,5.2,-3.30845,-1.57066,0.52214,0.000816584,-0.00120103,-0.000116229,0.000596046,-0.00077486,-5.96046e-05,0.00701119,5.38581e-07,5,0.1,9,5.2,1.20007,0.331248,0.599944,-0.000679493,0.347103,5.96046e-05,0.00423193,-0.0538975,0,0.0117363,0.112078,5,0.1
0,5.3,0.451573,1.30013,1.16877,-0.00368152,-0.00214837,0.0786467,0.00550225,0.0717193,-0.101618,0.00959982,0.321158,5,0.1,1,5.3,-1.03434,1.71509,0.746961,-0.0150066,0.189828,0.00294298,0.0146329,0.903934,-0.00293553,0.00699249,1.62917,5,0.1,2,5.3,1.09987,-0.611009,0.680479,0.0135463,-0.00115456,6.61239e-05,-0.0947714,0.00735745,-0.000402331,0.00753377,0.000351991,5,0.1,3,5.3,1.76423,-3.25753,0.574146,0.154865,-0.590579,-0.0632311,-0.147805,0.427037,0.0609122,0.00742649,0.182099,5,0.1,4,5.3,-1.58336,1.22475,0.5,0.495939,-0.230432,0,0.951096,-0.26112,0,0.0165606,2.7573,5,0.1,5,5.3,-1.3503,-1.05527,0.660952,-0.0122901,-0.866026,-0.00519371,0.000804663,0,0.0003241,0.00764781,2.27181,5,0.1,6,5.3,-0.59575,1.30328,0.697644,0.00510477,0.00132788,-4.55417e-05,-0.0129789,-0.00887364,0.000339001,0.0136707,1.11501e-05,5,0.1,7,5.3,1.38592,2.66693,0.600048,-0.532017,-0.224319,-4.33065e-05,-0.062272,-0.0156611,2.6077e-05,0.0106115,0.597605,5,0.1,8,5.3,-3.30837,-1.57078,0.522128,0.000844896,-0.00123531,-0.000118278,0,7.45058e-05,1.49012e-05,0.00701119,5.38581e-07,5,0.1,9,5.3,1.20002,0.365859,0.59995,-0.000322424,0.346232,5.94184e-05,0.00295788,0.0133086,-7.45058e-06,0.0117363,0.112078,5,0.1
0,5.4,0.451233,1.30019,1.17615,-0.00313371,0.0025332,0.0690609,0.00543892,0.0248551,-0.0920892,0.00907373,0.315546,5,0.1,1,5.4,-1.03577,1.73886,0.74724,-0.0135809,0.286496,0.00265688,0.0143051,0.96637,-0.00283122,0.00711178,1.31841,5,0.1,2,5.4,1.10079,-0.611091,0.680484,0.00537038,-0.00051558,3.27826e-05,-0.068903,0.00545382,-0.000327826,0.00866858,0.000162124,5,0.1,3,5.4,1.77898,-3.31441,0.568125,0.140169,-0.546259,-0.0571817,-0.149369,0.472546,0.0614822,0.00784369,0.122031,5,0.1,4,5.4,-1.52933,1.2,0.5,0.580347,-0.268579,0,0.696719,-0.489175,0,0.0141709,2.49761,5,0.1,5,5.4,-1.35152,-1.14187,0.660435,-0.0121444,-0.866026,-0.00513196,0.00268221,0,0.00110269,0.00681571,2.27181,5,0.1,6,5.4,-0.595304,1.30337,0.697641,0.00382364,0.000521541,-1.49012e-05,-0.0124276,-0.00715256,0.000268221,0.0138287,9.05555e-06,5,0.1,7,5.4,1.33246,2.64442,0.600044,-0.535756,-0.225621,-4.02331e-05,0.0148416,0.0025034,2.98023e-05,0.00946468,0.442265,5,0.1,8,5.4,-3.30828,-1.5709,0.522117,0.000816584,-0.00118911,-0.000114739,-0.000476837,0.000834465,0.000119209,0.00681374,1.54235e-07,5,0.1,9,5.4,1.2,0.400504,0.599956,-8.04663e-05,0.345793,5.81145e-05,0.00190735,-0.0386387,-2.98023e-05,0.0121966,0.186453,5,0.1
0,5.5,0.450946,1.30061,1.18258,-0.00261194,0.00593513,0.0595177,0.0050012,0.0343621,-0.0979826,0.00907373,0.315546,5,0.1,1,5.5,-1.03706,1.77269,0.747493,-0.0122974,0.391936,0.00240263,0.0117943,1.07965,-0.00233948,0.00711178,1.31841,5,0.1,2,5.5,1.10102,-0.611118,0.680485,-0.000490248,-4.74975e-05,4.84288e-06,-0.048548,0.00391901,-0.000230968,0.00866858,0.000162124,5,0.1,3,5.5,1.7923,-3.36681,0.562695,0.126529,-0.502728,-0.0515671,-0.127435,0.414208,0.052426,0.00784369,0.122031,5,0.1,4,5.5,-1.46773,1.16994,0.5,0.651249,-0.338251,0,0.671633,-0.831045,0,0.0141709,2.49761,5,0.1,5,5.5,-1.35273,-1.22847,0.659925,-0.0120021,-0.866026,-0.00507403,0.000864267,0,0.000357628,0.00681571,2.27181,5,0.1,6,5.5,-0.594983,1.30339,0.697641,0.00261711,-0.000124983,9.12696e-06,-0.0115298,-0.0057146,0.000208616,0.0138287,9.05555e-06,5,0.1,7,5.5,1.27882,2.62179,0.60004,-0.537802,-0.227453,-3.7346e-05,-0.0257716,-0.0250489,2.6077e-05,0.00946468,0.442265,5,0.1,8,5.5,-3.30821,-1.57102,0.522106,0.000751391,-0.00108276,-0.000101607,-0.000819564,0.00125915,0.000137836,0.00681374,1.54235e-07,5,0.1,9,5.5,1.2,0.435201,0.599961,6.96629e-05,0.350416,5.50412e-05,0.00113249,0.0986028,-3.35276e-05,0.0121966,0.186453,5,0.1
0,5.6,0.450709,1.30133,1.18804,-0.00213236,0.00802577,0.0496149,0.00458956,0.0026226,-0.0993013,0.00698125,0.297698,5,0.1,1,5.6,-1.03823,1.81704,0.747722,-0.0111461,0.491604,0.00217408,0.0115633,0.868201,-0.00226498,0.00648027,0.767107,5,0.1,2,5.6,1.10076,-0.611105,0.680485,-0.00439882,0.000272691,-1.3411e-05,-0.0299811,0.00247359,-0.000149012,0.0076031,5.65556e-05,5,0.1,3,5.6,1.80432,-3.415,0.557796,0.114003,-0.460696,-0.0464201,-0.125885,0.437617,0.0516772,0.00704977,0.141223,5,0.1,4,5.6,-1.39962,1.13189,0.5,0.706252,-0.421998,0,0.393987,-0.789285,0,0.0156982,2.25982,5,0.1,5,5.6,-1.35392,-1.31507,0.65942,-0.0118494,-0.866026,-0.00500977,0.00268221,0,0.00110269,0.00654397,2.27213,5,0.1,6,5.6,-0.594776,1.30335,0.697643,0.00154823,-0.000610948,2.5332e-05,-0.00974536,-0.00393391,0.000178814,0.0122016,5.73228e-06,5,0.1,7,5.6,1.22504,2.59897,0.600036,-0.535816,-0.228232,-3.42727e-05,0.0864863,0.0194311,2.98023e-05,0.0108746,0.31631,5,0.1,8,5.6,-3.30814,-1.57112,0.522096,0.000655651,-0.000941753,-8.64267e-05,-0.000953674,0.00154972,0.000149012,0.00713045,1.04134e-07,5,0.1,9,5.6,1.20002,0.470743,0.599967,0.000151992,0.359889,5.21541e-05,0.000536442,0.0670999,-8.9407e-05,0.0125343,0.113821,5,0.1
0,5.7,0.450518,1.30219,1.19251,-0.00170236,0.00891984,0.039945,0.00401959,-0.00688434,-0.0935718,0.00698125,0.297698,5,0.1,1,5.7,-1.0393,1.87042,0.747929,-0.0101091,0.573791,0.00197068,0.00952929,0.737108,-0.00187755,0.00648027,0.767107,5,0.1,2,5.7,1.10019,-0.611067,0.680483,-0.00669137,0.000466127,-2.48663e-05,-0.0162721,0.00141934,-8.56817e-05,0.0076031,5.65556e-05,5,0.1,3,5.7,1.81519,-3.45925,0.553373,0.104114,-0.427058,-0.0423544,-0.078693,0.263229,0.0324063,0.00704977,0.141223,5,0.1,4,5.7,-1.32692,1.08542,0.5,0.747493,-0.50914,0,0.384219,-0.892058,0,0.0156982,2.25982,5,0.1,5,5.7,-1.3551,-1.40168,0.658923,-0.0117019,-0.866026,-0.00494933,0.000938773,0,0.000391155,0.00654397,2.27213,5,0.1,6,5.7,-0.594667,1.30327,0.697646,0.000649411,-0.000939518,3.97675e-05,-0.00813231,-0.0026226,0.000115484,0.0122016,5.73228e-06,5,0.1,7,5.7,1.17181,2.5762,0.600033,-0.52905,-0.227275,-3.13856e-05,0.0728592,0.0109076,2.6077e-05,0.0108746,0.31631,5,0.1,8,5.7,-3.30807,-1.57121,0.522088,0.000552088,-0.000780448,-7.14324e-05,-0.00110269,0.00165403,0.000152737,0.00713045,1.04134e-07,5,0.1,9,5.7,1.20003,0.507137,0.599972,0.000184029,0.368156,4.4331e-05,0.000119209,0.077216,-7.45058e-05,0.0125343,0.113821,5,0.1
0,5.8,0.450367,1.3029,1.19605,-0.00132769,0.00358224,0.0309944,0.00347197,-0.108242,-0.0849366,0.00734496,0.258907,5,0.1,1,5.8,-1.04026,1.93101,0.748117,-0.00917912,0.632605,0.00178814,0.00941753,0.413358,-0.00187755,0.00683016,0.14945,5,0.1,2,5.8,1.09946,-0.611015,0.68048,-0.0077337,0.000563264,-3.12924e-05,-0.00494719,0.000536442,-2.98023e-05,0.00840313,1.70774e-05,5,0.1,3,5.8,1.82524,-3.50074,0.549287,0.0970751,-0.403172,-0.0394568,-0.0671148,0.2352,0.027597,0.00930239,0.082297,5,0.1,4,5.8,-1.25058,1.03029,0.5,0.775212,-0.589836,0,0.137925,-0.677764,0,0.0139173,2.10396,5,0.1,5,5.8,-1.35626,-1.48828,0.65843,-0.0115424,-0.866026,-0.00488311,0.00268221,0,0.00116229,0.00716581,2.40582,5,0.1,6,5.8,-0.59464,1.30317,0.69765,-6.4075e-05,-0.00113249,4.61936e-05,-0.00604987,-0.0013113,8.9407e-05,0.0140585,2.76608e-06,5,0.1,7,5.8,1.11941,2.55359,0.60003,-0.517192,-0.224161,-2.83122e-05,0.180721,0.0593662,0,0.00968044,0.219899,5,0.1,8,5.8,-3.30803,-1.57127,0.522082,0.000441074,-0.000616908,-5.66244e-05,-0.00107288,0.00160933,0.000149012,0.00850127,1.11349e-07,5,0.1,9,5.8,1.20005,0.544215,0.599976,0.000184774,0.371775,3.8743e-05,-0.000238419,-0.0194311,-8.9407e-05,0.0138853,0.0630781,5,0.1
0,5.9,0.45025,1.3026,1.19874,-0.00100886,-0.0115564,0.0230119,0.00291131,-0.226043,-0.0744164,0.00734496,0.258907,5,0.1,1,5.9,-1.04113,1.99575,0.748287,-0.00833496,0.656323,0.00161994,0.0077635,0.0601336,-0.00154972,0.00683016,0.14945,5,0.1,2,5.9,1.09868,-0.610957,0.680477,-0.00782069,0.000584684,-3.22238e-05,0.00277907,-7.45058e-05,7.45058e-06,0.00840313,1.70774e-05,5,0.1,3,5.9,1.83466,-3.54003,0.545462,0.0915073,-0.383652,-0.0371662,-0.0487566,0.173718,0.0200532,0.00930239,0.082297,5,0.1,4,5.9,-1.17225,0.967703,0.5,0.791643,-0.662609,0,0.147663,-0.719849,0,0.0139173,2.10396,5,0.1,5,5.9,-1.35741,-1.57398,0.657946,-0.0113899,-0.840672,-0.00481559,0.00103563,0.445917,0.000465661,0.00716581,2.40582,5,0.1,6,5.9,-0.594674,1.30305,0.697655,-0.000590179,-0.001215,5.17815e-05,-0.00444427,-0.000350177,2.98023e-05,0.0140585,2.76608e-06,5,0.1,7,5.9,1.06852,2.53144,0.600027,-0.500693,-0.218898,-2.78465e-05,0.168778,0.0549704,1.11759e-05,0.00968044,0.219899,5,0.1,8,5.9,-3.30799,-1.57133,0.522077,0.000334159,-0.000459515,-4.2282e-05,-0.00105798,0.00151247,0.00013411,0.00850127,1.11349e-07,5,0.1,9,5.9,1.20007,0.581275,0.599979,0.000153668,0.368894,3.1013e-05,-0.000365078,-0.0513196,-7.07805e-05,0.0138853,0.0630781,5,0.1
0,6,0.450163,1.3,1.20069,-0.000744313,-0.043419,0.0161588,0.00239909,-0.397742,-0.0624657,0.0102887,0.198153,5,0.1,1,6,-1.04193,2.0611,0.748441,-0.00757575,0.644851,0.00146925,0.007689,-0.286698,-0.00151992,0.00946109,0.242162,5,0.1,2,6,1.09792,-0.6109,0.680474,-0.00725687,0.000554323,-2.98023e-05,0.00810623,-0.000506639,2.98023e-05,0.0141452,8.80645e-06,5,0.1,3,6,1.84356,-3.5775,0.541845,0.0865489,-0.365275,-0.035131,-0.0536442,0.207067,0.0219345,0.00811567,0.0642027,5,0.1,4,6,-1.09262,0.898163,0.5,0.797468,-0.723934,0,-0.0609159,-0.46578,0,0.0143259,2.00432,5,0.1,5,6,-1.35854,-1.65547,0.657468,-0.0112236,-0.786346,-0.00474304,0.00274181,0.606775,0.00119209,0.00920931,2.37494,5,0.1,6,6,-0.594752,1.30293,0.69766,-0.000947714,-0.00120401,5.21541e-05,-0.00271201,0.000476837,-2.98023e-05,0.00857966,1.02085e-06,5,0.1,7,6,1.01941,2.50987,0.600024,-0.48016,-0.21165,-2.68221e-05,0.255197,0.0962019,0,0.0100983,0.150345,5,0.1,8,6,-3.30796,-1.57137,0.522074,0.000232458,-0.000318885,-2.98023e-05,-0.000953674,0.00137091,0.000149012,0.0103213,9.56277e-08,5,0.1,9,6,1.20008,0.617768,0.599982,0.000113249,0.35934,2.5332e-05,-0.000357628,-0.148296,-2.98023e-05,0.00854664,0.0436579,5,0.1
0,6.1,0.4501,1.29332,1.20201,-0.000528665,-0.092632,0.0104584,0.00192039,-0.550598,-0.0514239,0.0102887,0.198153,5,0.1,1,6.1,-1.04265,2.12423,0.748581,-0.00688657,0.618104,0.001333,0.00634789,-0.270501,-0.00124797,0.00946109,0.242162,5,0.1,2,6.1,1.09724,-0.610848,0.680471,-0.00626892,0.000488665,-2.58908e-05,0.0112951,-0.000778586,5.21541e-05,0.0141452,8.80645e-06,5,0.1,3,6.1,1.85199,-3.61315,0.538425,0.0823187,-0.348841,-0.0334005,-0.0356361,0.140786,0.0145696,0.00811567,0.0642027,5,0.1,4,6.1,-1.01295,0.823254,0.5,0.796913,-0.774677,0,0.00579283,-0.494238,0,0.0143259,2.00432,5,0.1,5,6.1,-1.35965,-1.73069,0.656998,-0.0110429,-0.718088,-0.00466369,0.00146031,0.62374,0.000648201,0.00920931,2.37494,5,0.1,6,6.1,-0.594858,1.30281,0.697665,-0.00115577,-0.00112783,4.75906e-05,-0.00145286,0.00102073,-5.58794e-05,0.00857966,1.02085e-06,5,0.1,7,6.1,0.972596,2.48923,0.600022,-0.456434,-0.200863,-2.63564e-05,0.235353,0.122786,1.11759e-05,0.0100983,0.150345,5,0.1,8,6.1,-3.30794,-1.57139,0.522071,0.000141934,-0.000191852,-1.65775e-05,-0.000819564,0.00116229,0.000119209,0.0103213,9.56277e-08,5,0.1,9,6.1,1.20009,0.653015,0.599984,7.35745e-05,0.345784,2.28174e-05,-0.000424683,-0.136804,-1.86265e-05,0.00854664,0.0436579,5,0.1
0,6.2,0.450056,1.2813,1.20282,-0.000358373,-0.147268,0.00588596,0.00149012,-0.515342,-0.0398755,0.0180401,0.134374,5,0.1,1,6.2,-1.04331,2.18457,0.748708,-0.00626445,0.587016,0.00121146,0.00625849,-0.36633,-0.0012517,0.0107995,0.658981,5,0.1,2,6.2,1.09667,-0.610803,0.680469,-0.00506639,0.000403821,-2.23517e-05,0.012517,-0.00089407,8.9407e-05,0.0125215,8.16387e-06,5,0.1,3,6.2,1.86004,-3.64731,0.535158,0.0786245,-0.333852,-0.031893,-0.0414848,0.172377,0.0168979,0.0107414,0.0292557,5,0.1,4,6.2,-0.933416,0.743637,0.5,0.791143,-0.81346,0,-0.151992,-0.243008,0,0.0154253,1.95912,5,0.1,5,6.2,-1.36075,-1.8,0.656535,-0.0108302,-0.674483,-0.00457168,0.00327826,0.254154,0.00140071,0.00781031,1.96872,5,0.1,6,6.2,-0.594979,1.30271,0.69767,-0.00124127,-0.00100434,4.02331e-05,-0.000268221,0.00143051,-5.96046e-05,0.00891763,3.20477e-07,5,0.1,7,6.2,0.928203,2.46982,0.600019,-0.430395,-0.186592,-2.5332e-05,0.296354,0.164509,2.98023e-05,0.00826341,0.107878,5,0.1,8,6.2,-3.30793,-1.57141,0.52207,6.55651e-05,-8.64267e-05,-7.45058e-06,-0.000596046,0.00089407,0.000119209,0.00706909,5.57797e-08,5,0.1,9,6.2,1.2001,0.686836,0.599986,2.98023e-05,0.329645,2.08616e-05,-0.000357628,-0.195414,-2.98023e-05,0.0099895,0.080497,5,0.1
0,6.3,0.450027,1.26397,1.20322,-0.000227615,-0.198889,0.00236146,0.00113249,-0.493839,-0.030607,0.0180401,0.134374,5,0.1,1,6.3,-1.04391,2.24201,0.748824,-0.00570305,0.566168,0.00109952,0.0051707,-0.0986904,-0.00102818,0.0107995,0.658981,5,0.1,2,6.3,1.09623,-0.610767,0.680467,-0.00378918,0.000311155,-1.39698e-05,0.0127628,-0.000942498,7.45058e-05,0.0125215,8.16387e-06,5,0.1,3,6.3,1.86771,-3.67986,0.53205,0.074639,-0.317052,-0.030271,-0.0407174,0.173718,0.0165477,0.0107414,0.0292557,5,0.1,4,6.3,-0.854831,0.660865,0.5,0.781773,-0.842736,0,-0.0768676,-0.289675,0,0.0154253,1.95912,5,0.1,5,6.3,-1.36181,-1.86725,0.656084,-0.010559,-0.678969,-0.00445535,0.0026226,-0.257142,0.00112131,0.00781031,1.96872,5,0.1,6,6.3,-0.595103,1.30261,0.697674,-0.00122795,-0.000850856,3.37139e-05,0.000510365,0.00160933,-7.45058e-05,0.00891763,3.20477e-07,5,0.1,7,6.3,0.886564,2.45214,0.600017,-0.402865,-0.165669,-2.23517e-05,0.267543,0.246599,2.98023e-05,0.00826341,0.107878,5,0.1,8,6.3,-3.30793,-1.57141,0.52207,1.04308e-05,-7.07805e-06,2.32831e-06,-0.000476837,0.000685453,7.82311e-05,0.00706909,5.57797e-08,5,0.1,9,6.3,1.2001,0.719036,0.599988,-4.65661e-06,0.315941,1.82539e-05,-0.000320375,-0.0994354,-2.23517e-05,0.0099895,0.080497,5,0.1
0,6.4,0.450009,1.24181,1.20332,-0.000130385,-0.242087,-0.000238419,0.000819564,-0.353992,-0.0215173,0.00901548,0.112047,5,0.1,1,6.4,-1.04445,2.29825,0.748929,-0.00519454,0.558919,0.000999868,0.005126,-0.082016,-0.00104308,0.00719127,1.25305,5,0.1,2,6.4,1.09592,-0.610741,0.680466,-0.002563,0.000219047,-7.45058e-06,0.0116825,-0.000864267,5.96046e-05,0.00873326,6.73078e-06,5,0.1,3,6.4,1.87495,-3.71063,0.529112,0.0700712,-0.297439,-0.028415,-0.0523329,0.225067,0.0212193,0.00852142,0.0113615,5,0.1,4,6.4,-0.777192,0.575417,0.5,0.768717,-0.862521,0,-0.213325,-0.0700951,0,0.0124335,1.95358,5,0.1,5,6.4,-1.36285,-1.93669,0.655645,-0.0102252,-0.710735,-0.0043124,0.00441074,-0.313103,0.00184774,0.00675204,1.53277,5,0.1,6,6.4,-0.595222,1.30254,0.697677,-0.00114441,-0.000688434,2.5332e-05,0.00113249,0.00166893,-5.96046e-05,0.00859344,1.58036e-07,5,0.1,7,6.4,0.847656,2.43689,0.600015,-0.374645,-0.138628,-2.08616e-05,0.305891,0.288129,5.96046e-05,0.0102407,0.142099,5,0.1,8,6.4,-3.30793,-1.57141,0.52207,-2.98023e-05,5.06639e-05,8.9407e-06,-0.000357628,0.000476837,2.98023e-05,0.00623447,2.67273e-08,5,0.1,9,6.4,1.2001,0.750151,0.59999,-3.27826e-05,0.306173,1.63913e-05,-0.000238419,-0.111043,-2.98023e-05,0.00935808,0.0672013,5,0.1
0,6.5,0.45,1.21579,1.2032,-6.10948e-05,-0.277934,-0.00208262,0.000573695,-0.339113,-0.0153407,0.00901548,0.112047,5,0.1,1,6.5,-1.04495,2.35448,0.749024,-0.00473429,0.571568,0.000907108,0.00425428,0.267714,-0.000849366,0.00719127,1.25305,5,0.1,2,6.5,1.09572,-0.610723,0.680465,-0.001451,0.000135694,-2.04891e-06,0.010401,-0.000793487,4.47035e-05,0.00873326,6.73078e-06,5,0.1,3,6.5,1.88169,-3.73923,0.526378,0.0647444,-0.274448,-0.0262554,-0.0553429,0.239298,0.0224374,0.00852142,0.0113615,5,0.1,4,6.5,-0.70109,0.488956,0.5,0.755181,-0.865535,0,-0.1003,0.00210837,0,0.0124335,1.95358,5,0.1,5,6.5,-1.36386,-2.00979,0.655222,-0.00982825,-0.754165,-0.00414588,0.00391155,-0.488482,0.00164658,0.00675204,1.53277,5,0.1,6,6.5,-0.595331,1.30247,0.697679,-0.00101225,-0.000524148,1.8999e-05,0.00147894,0.00159442,-6.70552e-05,0.00859344,1.58036e-07,5,0.1,7,6.5,0.811441,2.42449,0.600013,-0.351851,-0.109114,-1.60187e-05,0.173468,0.296891,4.47035e-05,0.0102407,0.142099,5,0.1,8,6.5,-3.30793,-1.5714,0.522071,-6.03497e-05,8.95932e-05,1.09896e-05,-0.000268221,0.000305474,7.45058e-06,0.00623447,2.67273e-08,5,0.1,9,6.5,1.20009,0.780395,0.599992,-5.55068e-05,0.299974,1.38767e-05,-0.000208616,-0.0341572,-1.86265e-05,0.00935808,0.0672013,5,0.1
0,6.6,0.449996,1.18649,1.20293,-1.41561e-05,-0.305897,-0.00330508,0.000372529,-0.203788,-0.00917912,0.0104496,0.0555978,5,0.1,1,6.6,-1.0454,2.4131,0.74911,-0.0043124,0.600731,0.000824034,0.00417233,0.26536,-0.000834465,0.00615883,2.2329,5,0.1,2,6.6,1.09562,-0.610713,0.680465,-0.00050962,6.4075e-05,1.49012e-06,0.00822544,-0.000685453,2.98023e-05,0.00873651,4.10921e-06,5,0.1,3,6.6,1.88788,-3.76543,0.523869,0.0588179,-0.248861,-0.0238538,-0.063777,0.275254,0.0258684,0.00687061,0.00589253,5,0.1,4,6.6,-0.626175,0.402526,0.5,0.741322,-0.861678,0,-0.207305,0.0869179,0,0.0125563,2.10492,5,0.1,5,6.6,-1.36482,-2.08749,0.654817,-0.00937581,-0.796896,-0.00395626,0.00530481,-0.317931,0.00226498,0.00638873,1.14816,5,0.1,6,6.6,-0.595424,1.30243,0.69768,-0.000853837,-0.000372529,1.19209e-05,0.00166893,0.00143051,-2.98023e-05,0.00839217,1.40701e-07,5,0.1,7,6.6,0.777062,2.41505,0.600012,-0.335881,-0.0801742,-1.3411e-05,0.163227,0.277758,5.96046e-05,0.010922,0.102192,5,0.1,8,6.6,-3.30794,-1.57139,0.522073,-7.7486e-05,0.000113249,1.19209e-05,-0.000238419,0.000119209,-2.98023e-05,0.0084641,1.12994e-08,5,0.1,9,6.6,1.20008,0.810207,0.599993,-7.15256e-05,0.295708,1.19209e-05,-0.000178814,-0.0662804,-2.98023e-05,0.0080865,0.106142,5,0.1
0,6.7,0.449996,1.15499,1.20256,1.50874e-05,-0.322535,-0.00399984,0.000219792,-0.117026,-0.00476837,0.0104496,0.0555978,5,0.1,1,6.7,-1.04587,2.4754,0.749116,-0.00544917,0.651894,-0.00130925,-0.0234172,0.669256,-0.0372827,0.00615883,2.2329,5,0.1,2,6.7,1.09561,-0.61071,0.680466,0.000232086,1.95578e-06,4.00469e-06,0.00652671,-0.000555068,1.86265e-05,0.00873651,4.10921e-06,5,0.1,3,6.7,1.89345,-3.78896,0.521611,0.0525583,-0.221826,-0.0213153,-0.0622869,0.268921,0.0252537,0.00687061,0.00589253,5,0.1,4,6.7,-0.553883,0.316449,0.5,0.697161,-0.862128,0,-0.648467,-0.0500596,0,0.0125563,2.10492,5,0.1,5,6.7,-1.36573,-2.16894,0.654432,-0.00888687,-0.832548,-0.00374755,0.00479072,-0.342622,0.00203773,0.00638873,1.14816,5,0.1,6,6.7,-0.595501,1.3024,0.697681,-0.000683963,-0.000238605,8.47504e-06,0.00169873,0.00124425,-4.09782e-05,0.00839217,1.40701e-07,5,0.1,7,6.7,0.744182,2.40836,0.60001,-0.322406,-0.054222,-8.6613e-06,0.121672,0.238553,4.09782e-05,0.010922,0.102192,5,0.1,8,6.7,-3.30795,-1.57138,0.522074,-9.46224e-05,0.000119954,9.03383e-06,-0.000119209,1.49012e-05,-2.6077e-05,0.0084641,1.12994e-08,5,0.1,9,6.7,1.20008,0.839669,0.599994,-8.58679e-05,0.295145,9.40636e-06,-0.000111759,0.0309944,-1.86265e-05,0.0080865,0.106142,5,0.1
0,6.8,0.449999,1.12238,1.20214,3.12924e-05,-0.327384,-0.00427365,8.9407e-05,0.0273585,-0.000715256,0.00780235,0.145995,5,0.1,1,6.8,-1.04655,2.544,0.74877,-0.00837147,0.719154,-0.00582486,-0.0324249,0.610113,-0.0494719,0.00889372,1.7359,5,0.1,2,6.8,1.09566,-0.610712,0.680466,0.000780821,-4.47035e-05,5.96046e-06,0.00452995,-0.00038743,0,0.0074031,1.89262e-06,5,0.1,3,6.8,1.89839,-3.80979,0.519607,0.0462264,-0.194538,-0.0187486,-0.0649095,0.278711,0.0263155,0.00563397,0.00178147,5,0.1,4,6.8,-0.487948,0.230055,0.5,0.616793,-0.864316,0,-0.934764,0.0341988,0,0.00976361,2.27983,5,0.1,5,6.8,-1.36659,-2.2536,0.654068,-0.00836253,-0.856519,-0.00352561,0.00584126,-0.100374,0.0025034,0.00893023,0.825291,5,0.1,6,6.8,-0.595561,1.30238,0.697682,-0.00051707,-0.00012517,4.47035e-06,0.00157952,0.000953674,-2.98023e-05,0.0106922,1.15216e-07,5,0.1,7,6.8,0.712584,2.40405,0.60001,-0.308926,-0.0328839,-5.96046e-06,0.158727,0.186563,0,0.0110483,0.211093,5,0.1,8,6.8,-3.30796,-1.57137,0.522074,-0.000101328,0.000116229,5.96046e-06,0,0,0,0.00914345,5.51863e-09,5,0.1,9,6.8,1.20007,0.869337,0.599995,-9.23872e-05,0.297754,7.45058e-06,-5.96046e-05,0.00372529,-2.98023e-05,0.00980079,0.0909722,5,0.1
0,6.9,0.450002,1.08969,1.20187,3.69735e-05,-0.326699,0.000235066,2.6077e-05,0.0038445,0.0809133,0.00780235,0.145995,5,0.1,1,6.9,-1.04757,2.61921,0.747913,-0.0121744,0.785785,-0.0114829,-0.0410005,0.659674,-0.0602715,0.00889372,1.7359,5,0.1,2,6.9,1.09576,-0.610718,0.680467,0.00115633,-7.72066e-05,5.96046e-06,0.00296533,-0.000264496,0,0.0074031,1.89262e-06,5,0.1,3,6.9,1.90269,-3.82786,0.517862,0.0398442,-0.167162,-0.0161613,-0.0629127,0.269458,0.0255071,0.00563397,0.00178147,5,0.1,4,6.9,-0.431309,0.143641,0.5,0.513023,-0.86479,0,-1.11324,-0.0181013,0,0.00976361,2.27983,5,0.1,5,6.9,-1.3674,-2.33967,0.653727,-0.00782218,-0.863755,-0.00329465,0.00522286,-0.0240356,0.00222772,0.00893023,0.825291,5,0.1,6,6.9,-0.595605,1.30237,0.697682,-0.000364706,-3.89293e-05,1.49012e-06,0.00145286,0.00076741,-2.98023e-05,0.0106922,1.15216e-07,5,0.1,7,6.9,0.68245,2.40159,0.600009,-0.29386,-0.0171866,-6.0536e-06,0.152428,0.128463,-3.72529e-06,0.0110483,0.211093,5,0.1,8,6.9,-3.30797,-1.57136,0.522075,-9.76026e-05,0.000111945,5.58794e-06,8.9407e-05,-8.19564e-05,-7.45058e-06,0.00914345,5.51863e-09,5,0.1,9,6.9,1.20006,0.899312,0.599995,-9.59262e-05,0.302918,5.02914e-06,-2.23517e-05,0.0750907,-1.49012e-05,0.00980079,0.0909722,5,0.1
0,7,0.450006,1.05712,1.20237,3.7998e-05,-0.323641,0.0101328,-2.98023e-05,0.069499,0.109255,0.00843157,0.204994,5,0.1,1,7,-1.04899,2.70075,0.746469,-0.0161111,0.840509,-0.0172853,-0.0358224,0.39196,-0.0532269,0.0079243,1.10647,5,0.1,2,7,1.09589,-0.610727,0.680467,0.00137389,-9.68575e-05,4.47035e-06,0.00137091,-0.000149012,2.98023e-05,0.010036,6.2737e-07,5,0.1,3,7,1.90636,-3.84324,0.516373,0.03362,-0.140566,-0.0136375,-0.0616312,0.262618,0.0249743,0.00802765,0.000824183,5,0.1,4,7,-0.385679,0.0571276,0.5,0.399072,-0.864718,0,-1.14393,0.0261414,0,0.00914973,2.36532,5,0.1,5,7,-1.36816,-2.42589,0.653409,-0.00727177,-0.857151,-0.0030607,0.00590086,0.177264,0.0025034,0.00914095,0.578009,5,0.1,6,7,-0.595634,1.30237,0.697682,-0.000230968,2.68221e-05,-2.98023e-06,0.0012219,0.000536442,0,0.00852249,7.50471e-08,5,0.1,7,7,0.653881,2.40043,0.600008,-0.276799,-0.00694394,-5.96046e-06,0.195414,0.0779629,0,0.00902837,0.415133,5,0.1,8,7,-3.30798,-1.57135,0.522076,-8.9407e-05,0.000101328,4.47035e-06,0.000119209,-0.000178814,0,0.0137945,3.45741e-09,5,0.1,9,7,1.20005,0.929933,0.599996,-9.23872e-05,0.308588,2.98023e-06,0,0.020951,0,0.0104826,0.123647,5,0.1
0,7.1,0.45001,1.02489,1.20399,3.39001e-05,-0.322318,0.0226535,-5.21541e-05,-0.0190958,0.133678,0.00843157,0.204994,5,0.1,1,7.1,-1.05073,2.78617,0.744542,-0.0182645,0.862725,-0.0206204,-0.00857562,0.0843555,-0.0154451,0.0079243,1.10647,5,0.1,2,7.1,1.09603,-0.610738,0.680468,0.00145454,-0.000106823,6.51926e-06,0.00026077,-4.84288e-05,7.45058e-06,0.010036,6.2737e-07,5,0.1,3,7.1,1.90942,-3.85602,0.515131,0.0276573,-0.115195,-0.0112209,-0.0575334,0.244305,0.0233129,0.00802765,0.000824183,5,0.1,4,7.1,-0.351386,-0.0293366,0.5,0.288234,-0.865238,0,-1.0573,-0.0163378,0,0.00914973,2.36532,5,0.1,5,7.1,-1.36886,-2.51081,0.653115,-0.00672713,-0.841305,-0.0028301,0.00520051,0.174284,0.00219792,0.00914095,0.578009,5,0.1,6,7.1,-0.595652,1.30238,0.697682,-0.000118464,7.24569e-05,-3.44589e-06,0.00102073,0.00037998,-1.11759e-05,0.00852249,7.50471e-08,5,0.1,7,7.1,0.627162,2.40015,0.600008,-0.257568,0.0015121,-5.96046e-06,0.195373,0.080809,0,0.00902837,0.415133,5,0.1,8,7.1,-3.30798,-1.57134,0.522076,-7.59959e-05,8.27014e-05,4.09782e-06,0.000149012,-0.000193715,-7.45058e-06,0.0137945,3.45741e-09,5,0.1,9,7.1,1.20004,0.961082,0.599996,-8.99658e-05,0.315611,2.98023e-06,3.72529e-05,0.0946186,0,0.0104826,0.123647,5,0.1
0,7.2,0.450013,0.992582,1.20691,2.83122e-05,-0.323336,0.0355631,-5.96046e-05,0.0160933,0.118971,0.00813811,0.153149,5,0.1,1,7.2,-1.05256,2.87255,0.742452,-0.0180811,0.862408,-0.0207454,0.0110269,-0.0721216,0.0112355,0.00809864,0.97559,5,0.1,2,7.2,1.09617,-0.610748,0.680469,0.00143051,-0.000108778,7.45058e-06,-0.000715256,5.96046e-05,0,0.00897039,1.71032e-07,5,0.1,3,7.2,1.91191,-3.86635,0.514123,0.0221342,-0.0917912,-0.00898242,-0.0528097,0.223279,0.0214279,0.00933466,0.000673709,5,0.1,4,7.2,-0.327602,-0.115915,0.5,0.190195,-0.866026,0,-0.893146,4.76837e-06,0,0.00931046,2.86397,5,0.1,5,7.2,-1.3695,-2.59384,0.652843,-0.00619292,-0.81647,-0.00260323,0.00566244,0.345945,0.00232458,0.0108096,0.395176,5,0.1,6,7.2,-0.595659,1.30239,0.697682,-2.83122e-05,0.000101328,-4.47035e-06,0.00077486,0.000178814,0,0.00840155,3.69339e-08,5,0.1,7,7.2,0.602423,2.40065,0.600007,-0.236714,0.00759363,-7.45058e-06,0.225663,0.0349283,2.98023e-05,0.00985097,1.95635,5,0.1,8,7.2,-3.30799,-1.57133,0.522076,-5.96046e-05,6.25849e-05,2.98023e-06,0.000119209,-0.000119209,0,0.012548,3.83061e-09,5,0.1,9,7.2,1.20003,0.99307,0.599997,-8.34465e-05,0.323237,2.98023e-06,0.000119209,0.0400245,0,0.0091202,0.0733017,5,0.1
0,7.3,0.450015,0.960227,1.21107,2.21189e-05,-0.324307,0.0476236,-6.51926e-05,-0.0166409,0.116549,0.00813811,0.153149,5,0.1,1,7.3,-1.05435,2.95871,0.740391,-0.0178777,0.862249,-0.0208099,-0.00455976,0.0191629,-0.00937656,0.00809864,0.97559,5,0.1,2,7.3,1.09631,-0.610759,0.680469,0.00132713,-0.000100676,6.98492e-06,-0.00131875,0.000100583,-1.11759e-05,0.00897039,1.71032e-07,5,0.1,3,7.3,1.91387,-3.87445,0.513328,0.0171334,-0.0706829,-0.00695335,-0.0470579,0.198215,0.0190921,0.00933466,0.000673709,5,0.1,4,7.3,-0.312799,-0.202507,0.5,0.108751,-0.865488,0,-0.72108,0.0214817,0,0.00931046,2.86397,5,0.1,5,7.3,-1.3701,-2.67386,0.652593,-0.00567324,-0.784145,-0.00238931,0.00491738,0.328958,0.00203028,0.0108096,0.395176,5,0.1,6,7.3,-0.595658,1.3024,0.697681,3.95812e-05,0.000113808,-4.84288e-06,0.00057742,6.70552e-05,-7.45058e-06,0.00840155,3.69339e-08,5,0.1,7,7.3,0.579122,2.4017,0.600007,-0.2356,0.0134967,-4.93601e-06,-0.152986,0.0423193,1.86265e-05,0.00985097,1.95635,5,0.1,8,7.3,-3.308,-1.57132,0.522077,-4.73112e-05,4.97326e-05,2.6077e-06,0.00013411,-0.000141561,-7.45058e-06,0.012548,3.83061e-09,5,0.1,9,7.3,1.20002,1.02562,0.599997,-7.13393e-05,0.327604,2.98023e-06,0.00012666,0.031393,0,0.0091202,0.0733017,5,0.1
0,7.4,0.450017,0.927786,1.21637,1.56462e-05,-0.323451,0.0579,-5.96046e-05,0.0470281,0.0849962,0.00804735,0.358222,5,0.1,1,7.4,-1.05617,3.04485,0.73825,-0.0185728,0.857764,-0.0220656,-0.00739098,-0.143886,-0.0133812,0.0104386,0.700787,5,0.1,2,7.4,1.09644,-0.610768,0.68047,0.00117421,-8.79169e-05,5.96046e-06,-0.00172853,0.000119209,0,0.0108942,9.58405e-08,5,0.1,3,7.4,1.91536,-3.88057,0.512724,0.0127494,-0.0522554,-0.00517368,-0.0405908,0.170112,0.0164509,0.00683821,0.000534758,5,0.1,4,7.4,-0.305153,-0.288776,0.5,0.0481196,-0.857432,0,-0.484809,0.171856,0,0.00901741,2.94625,5,0.1,5,7.4,-1.37064,-2.75047,0.652365,-0.00517964,-0.745922,-0.00218451,0.00506639,0.454664,0.00211596,0.00946609,0.266216,5,0.1,6,7.4,-0.595652,1.30241,0.697681,8.64267e-05,0.000116229,-5.96046e-06,0.000357628,0,2.98023e-05,0.00701792,1.42406e-08,5,0.1,7,7.4,0.554513,2.40303,0.600006,-0.258407,0.010258,-4.47035e-06,-0.264496,-0.124335,5.96046e-05,0.0151976,1.74395,5,0.1,8,7.4,-3.308,-1.57132,0.522077,-3.57628e-05,3.57628e-05,1.49012e-06,0.000119209,-0.000119209,0,0.0118905,3.27446e-09,5,0.1,9,7.4,1.20002,1.05842,0.599997,-5.96046e-05,0.326845,2.98023e-06,0.000119209,-0.0574589,0,0.00979842,0.122491,5,0.1
0,7.5,0.450018,0.895354,1.22258,9.73232e-06,-0.32759,0.0660555,-5.7742e-05,-0.0980198,0.0736937,0.00804735,0.358222,5,0.1,1,7.5,-1.05808,3.13006,0.735959,-0.0196885,0.847062,-0.0238824,-0.0130534,-0.109941,-0.0205301,0.0104386,0.700787,5,0.1,2,7.5,1.09654,-0.610776,0.680471,0.000989996,-7.48783e-05,5.4948e-06,-0.0019297,0.00013411,-1.11759e-05,0.0108942,9.58405e-08,5,0.1,3,7.5,1.91644,-3.88499,0.512284,0.0090003,-0.0365719,-0.00365395,-0.0343025,0.143141,0.0139028,0.00683821,0.000534758,5,0.1,4,7.5,-0.302559,-0.373931,0.5,0.00680056,-0.847176,0,-0.304772,0.0793244,0,0.00901741,2.94625,5,0.1,5,7.5,-1.37113,-2.8229,0.652156,-0.0047164,-0.703437,-0.0019907,0.00434369,0.418514,0.00182167,0.00946609,0.266216,5,0.1,6,7.5,-0.595641,1.30242,0.69768,0.000114925,0.00011269,-3.91155e-06,0.000208616,-6.70552e-05,7.45058e-06,0.00701792,1.42406e-08,5,0.1,7,7.5,0.527031,2.40322,0.600006,-0.293437,-0.00993647,2.79397e-07,-0.397598,-0.33389,4.09782e-05,0.0151976,1.74395,5,0.1,8,7.5,-3.308,-1.57132,0.522077,-2.38419e-05,2.38419e-05,1.39698e-06,0.000119209,-0.000119209,-3.72529e-06,0.0118905,3.27446e-09,5,0.1,9,7.5,1.20001,1.09089,0.599997,-4.8615e-05,0.322824,2.98023e-06,9.68575e-05,-0.0396147,0,0.00979842,0.122491,5,0.1
0,7.6,0.450019,0.86208,1.22951,4.47035e-06,-0.337537,0.0718981,-4.47035e-05,-0.0775158,0.0401735,0.00872204,0.327617,5,0.1,1,7.6,-1.06011,3.21401,0.733473,-0.0208646,0.829059,-0.0257522,-0.00911951,-0.277638,-0.0151396,0.010104,0.489217,5,0.1,2,7.6,1.09663,-0.610783,0.680471,0.000795722,-6.10948e-05,4.47035e-06,-0.00190735,0.000149012,0,0.00709248,1.02824e-07,5,0.1,3,7.6,1.91718,-3.88798,0.511984,0.00590384,-0.023675,-0.0023976,-0.027597,0.114441,0.0111461,0.00574153,0.000329924,5,0.1,4,7.6,-0.302893,-0.458096,0.5,-0.00803918,-0.833721,0,0.0191331,0.222191,0,0.0108812,2.88993,5,0.1,5,7.6,-1.37158,-2.89106,0.651966,-0.00428557,-0.65828,-0.001809,0.00441074,0.500679,0.00184774,0.0115987,0.178065,5,0.1,6,7.6,-0.595629,1.30243,0.69768,0.00012815,0.000104308,-1.49012e-06,5.96046e-05,-0.000178814,-2.98023e-05,0.00801634,4.28782e-09,5,0.1,7,7.6,0.49574,2.4,0.600006,-0.331255,-0.0597596,1.49012e-06,-0.330567,-0.640512,5.96046e-05,0.0107456,3.06567,5,0.1,8,7.6,-3.30801,-1.57131,0.522077,-1.78814e-05,1.49012e-05,0,0.000238419,-0.000178814,2.98023e-05,0.0104307,4.53588e-09,5,0.1,9,7.6,1.20001,1.12289,0.599998,-3.8743e-05,0.316125,2.98023e-06,0.000119209,-0.105798,0,0.00909459,0.0919932,5,0.1
0,7.7,0.450019,0.828421,1.23689,2.32831e-07,-0.331169,0.0755452,-3.91155e-05,0.190232,0.0292659,0.00872204,0.327617,5,0.1,1,7.7,-1.06224,3.29565,0.730815,-0.0219012,0.804069,-0.0274076,-0.0101551,-0.254378,-0.0160821,0.010104,0.489217,5,0.1,2,7.7,1.0967,-0.610789,0.680471,0.00060685,-4.63799e-05,4.00469e-06,-0.00184774,0.000141561,-1.11759e-05,0.00709248,1.02824e-07,5,0.1,3,7.7,1.91764,-3.88982,0.511796,0.00343099,-0.0134435,-0.0013981,-0.0218302,0.0901073,0.00883639,0.00574153,0.000329924,5,0.1,4,7.7,-0.303231,-0.540607,0.5,0.00690632,-0.81792,0,0.347629,0.13612,0,0.0108812,2.88993,5,0.1,5,7.7,-1.37199,-2.95452,0.651794,-0.00388436,-0.611767,-0.00164052,0.00374019,0.449151,0.0015758,0.0115987,0.178065,5,0.1,6,7.7,-0.595616,1.30244,0.69768,0.00012964,8.64267e-05,-4.00469e-06,-2.98023e-05,-0.000178814,-1.86265e-05,0.00801634,4.28782e-09,5,0.1,7,7.7,0.460313,2.39107,0.600007,-0.382123,-0.116503,5.86733e-06,-0.622567,-0.496447,3.35276e-05,0.0107456,3.06567,5,0.1,8,7.7,-3.30801,-1.57131,0.522077,2.23517e-06,-3.72529e-07,2.04891e-06,0.000149012,-0.00013411,7.45058e-06,0.0104307,4.53588e-09,5,0.1,9,7.7,1.2,1.15395,0.599998,-2.6077e-05,0.304564,2.98023e-06,0.00013411,-0.133708,0,0.00909459,0.0919932,5,0.1
0,7.8,0.450019,0.796596,1.24455,-2.98023e-06,-0.302257,0.0771672,-4.47035e-05,0.374973,0.00089407,0.00879149,0.501565,5,0.1,1,7.8,-1.06448,3.3746,0.728005,-0.0226468,0.772762,-0.0286475,-0.0038743,-0.393748,-0.00736117,0.0107225,0.334523,5,0.1,2,7.8,1.09676,-0.610793,0.680472,0.000429153,-3.27826e-05,2.98023e-06,-0.00160933,0.000119209,0,0.0119419,8.88449e-08,5,0.1,3,7.8,1.91788,-3.89075,0.511697,0.00153184,-0.00564456,-0.000630319,-0.0160336,0.0660419,0.00652671,0.0101936,0.000155219,5,0.1,4,7.8,-0.3,-0.621578,0.5,0.0652283,-0.799295,0,0.788376,0.266016,0,0.013339,2.68042,5,0.1,5,7.8,-1.37236,-3.01341,0.651638,-0.00351369,-0.565159,-0.00148565,0.00369549,0.496507,0.00157952,0.00893144,0.118914,5,0.1,6,7.8,-0.595604,1.30245,0.697679,0.00012219,6.85453e-05,-5.96046e-06,-8.9407e-05,-0.000178814,0,0.00781545,2.16611e-09,5,0.1,7,7.8,0.41894,2.37716,0.600007,-0.444573,-0.159311,7.45058e-06,-0.578687,-0.36025,2.98023e-05,0.0113678,2.90376,5,0.1,8,7.8,-3.30801,-1.57131,0.522078,1.19209e-05,-1.19209e-05,2.98023e-06,0.000238419,-5.96046e-05,0,0.00730346,5.06296e-09,5,0.1,9,7.8,1.2,1.18363,0.599998,-1.49012e-05,0.288042,2.98023e-06,5.96046e-05,-0.201881,0,0.00995447,0.279046,5,0.1
0,7.9,0.450019,0.768497,1.25226,-6.93835e-06,-0.257601,0.0770582,-3.1665e-05,0.502754,-0.00592321,0.00879149,0.501565,5,0.1,1,7.9,-1.06676,3.45003,0.725102,-0.0230657,0.736306,-0.0294061,-0.00334531,-0.361815,-0.00631809,0.0107225,0.334523,5,0.1,2,7.9,1.09679,-0.610795,0.680472,0.000276417,-2.14204e-05,2.6077e-06,-0.00141561,0.000104308,-7.45058e-06,0.0119419,8.88449e-08,5,0.1,3,7.9,1.91796,-3.89102,0.511663,0.000157021,-5.96046e-06,-7.03149e-05,-0.0115111,0.0469387,0.00469014,0.0101936,0.000155219,5,0.1,4,7.9,-0.288507,-0.700407,0.5,0.172563,-0.778617,0,1.26683,0.185888,0,0.013339,2.68042,5,0.1,5,7.9,-1.3727,-3.06758,0.651496,-0.0031786,-0.519336,-0.0013425,0.00310689,0.436321,0.00132993,0.00893144,0.118914,5,0.1,6,7.9,-0.595592,1.30246,0.697679,0.000110641,5.15953e-05,-5.96046e-06,-0.000141561,-0.000156462,0,0.00781545,2.16611e-09,5,0.1,7,7.9,0.371304,2.35998,0.600008,-0.509632,-0.180409,9.22009e-06,-0.669098,-0.115976,1.11759e-05,0.0113678,2.90376,5,0.1,8,7.9,-3.308,-1.57132,0.522078,2.94298e-05,-1.67638e-05,2.51457e-06,0.00013411,-2.98023e-05,-1.11759e-05,0.00730346,5.06296e-09,5,0.1,9,7.9,1.2,1.21139,0.599999,1.86265e-06,0.26668,2.98023e-06,0.000208616,-0.22871,0,0.00995447,0.279046,5,0.1
0,8,0.450018,0.745356,1.25991,-9.68575e-06,-0.204489,0.0755131,-2.98023e-05,0.547081,-0.0269413,0.0110769,0.501186,5,0.1,1,8,-1.06908,3.52173,0.722141,-0.0231236,0.695956,-0.0296593,0.00303984,-0.463009,0.00229478,0.00671436,0.225835,5,0.1,2,8,1.09681,-0.610797,0.680472,0.000146031,-1.19209e-05,1.49012e-06,-0.00113249,8.9407e-05,0,0.00708587,5.69953e-08,5,0.1,3,8,1.91793,-3.89081,0.511677,-0.000780821,0.00379086,0.000312924,-0.00733137,0.0295639,0.00298023,0.00686611,5.55902e-05,5,0.1,4,8,-0.264748,-0.777215,0.5,0.302535,-0.755598,0,1.2635,0.301331,0,0.0107532,2.18202,5,0.1,5,8,-1.373,-3.11732,0.651369,-0.00287294,-0.475121,-0.00121146,0.00309944,0.459194,0.0012815,0.00842874,0.137158,5,0.1,6,8,-0.595582,1.30246,0.697678,9.53674e-05,3.57628e-05,-5.96046e-06,-0.000178814,-0.000119209,2.98023e-05,0.00764127,1.71882e-09,5,0.1,7,8,0.317206,2.34143,0.600009,-0.569227,-0.190634,1.04308e-05,-0.484511,-0.115395,-2.98023e-05,0.0100479,2.7426,5,0.1,8,8,-3.308,-1.57132,0.522078,3.57628e-05,-2.08616e-05,1.49012e-06,0.000119209,5.96046e-05,0,0.00844017,4.3585e-09,5,0.1,9,8,1.2,1.23685,0.599999,1.49012e-05,0.241798,2.98023e-06,5.96046e-05,-0.270545,0,0.00930022,0.270715,5,0.1
0,8.1,0.450017,0.727626,1.26742,-1.21538e-05,-0.150497,0.0752848,-1.67638e-05,0.523806,0.0103861,0.0110769,0.501186,5,0.1,1,8.1,-1.07138,3.58914,0.719185,-0.0228427,0.652989,-0.0294426,0.00351667,-0.418201,0.00324473,0.00671436,0.225835,5,0.1,2,8.1,1.09682,-0.610798,0.680472,4.32134e-05,-3.91155e-06,1.11759e-06,-0.000908971,6.70552e-05,-7.45058e-06,0.00708587,5.69953e-08,5,0.1,3,8.1,1.91782,-3.89031,0.511721,-0.00135396,0.00607483,0.000546407,-0.00422448,0.0164658,0.00171736,0.00686611,5.55902e-05,5,0.1,4,8.1,-0.227857,-0.851443,0.5,0.436657,-0.729891,0,1.34817,0.244834,0,0.0107532,2.18202,5,0.1,5,8.1,-1.37327,-3.16291,0.651253,-0.00263378,-0.43958,-0.00111246,0.00186265,0.280172,0.000778586,0.00842874,0.137158,5,0.1,6,8.1,-0.595573,1.30246,0.697677,7.70204e-05,2.40281e-05,-3.53903e-06,-0.00018999,-0.000111759,1.49012e-05,0.00764127,1.71882e-09,5,0.1,7,8.1,0.257711,2.32186,0.60001,-0.620978,-0.202485,7.45058e-06,-0.503533,-0.210911,-2.98023e-05,0.0100479,2.7426,5,0.1,8,8.1,-3.308,-1.57132,0.522078,4.28408e-05,-1.58325e-05,1.11759e-06,4.47035e-05,3.72529e-05,-7.45058e-06,0.00844017,4.3585e-09,5,0.1,9,8.1,1.20008,1.25967,0.599999,0.00200924,0.214363,2.98023e-06,0.0307932,-0.278942,0,0.00930022,0.270715,5,0.1
0,8.2,0.450015,0.715097,1.27498,-1.3411e-05,-0.101246,0.0756085,-1.49012e-05,0.454992,-0.0117421,0.00914627,0.497964,5,0.1,1,8.2,-1.07364,3.65228,0.716267,-0.0222653,0.608635,-0.0288084,0.00864267,-0.483871,0.0102818,0.00967975,0.151514,5,0.1,2,8.2,1.09682,-0.610798,0.680473,-3.57628e-05,1.49012e-06,0,-0.000655651,8.9407e-05,0,0.00676873,2.78696e-08,5,0.1,3,8.2,1.91767,-3.88964,0.511782,-0.00163913,0.00716448,0.000663102,-0.00160933,0.00548363,0.000655651,0.006726,1.65279e-05,5,0.1,4,8.2,-0.177789,-0.923088,0.5,0.560005,-0.701205,0,1.06794,0.351101,0,0.00856492,1.64197,5,0.1,5,8.2,-1.37353,-3.20557,0.651145,-0.00247061,-0.414121,-0.00104457,0.00160933,0.25022,0.000685453,0.00892902,0.079776,5,0.1,6,8.2,-0.595566,1.30246,0.697677,5.96046e-05,1.49012e-05,-1.49012e-06,-0.000208616,-5.96046e-05,0,0.0107595,1.70821e-09,5,0.1,7,8.2,0.19338,2.3,0.600011,-0.661942,-0.24007,5.96046e-06,-0.282817,-0.524282,-5.96046e-05,0.00978172,2.5494,5,0.1,8,8.2,-3.30799,-1.57132,0.522078,4.17233e-05,-1.19209e-05,0,0,5.96046e-05,0,0.00915554,3.53201e-09,5,0.1,9,8.2,1.20042,1.27969,0.599999,0.00470877,0.185922,1.49012e-06,0.0177026,-0.289917,2.98023e-05,0.00934817,0.347622,5,0.1
0,8.3,0.450014,0.707136,1.2824,-1.44355e-05,-0.0592883,0.0717841,-3.72529e-06,0.375796,-0.068441,0.00914627,0.497964,5,0.1,1,8.3,-1.07582,3.71086,0.713435,-0.0214456,0.5639,-0.0278268,0.00850111,-0.429049,0.0103414,0.00967975,0.151514,5,0.1,2,8.3,1.09681,-0.610797,0.680473,-9.14559e-05,8.75443e-06,-9.31323e-08,-0.000454485,5.96046e-05,-3.72529e-06,0.00676873,2.78696e-08,5,0.1,3,8.3,1.9175,-3.88891,0.51185,-0.00170507,0.00732206,0.000690296,0.000208616,-0.00195205,-7.45058e-05,0.006726,1.65279e-05,5,0.1,4,8.3,-0.116456,-0.991592,0.5,0.665168,-0.669596,0,0.980882,0.307154,0,0.00856492,1.64197,5,0.1,5,8.3,-1.37377,-3.24589,0.651044,-0.00233967,-0.393257,-0.000988413,0.00113994,0.185892,0.000488013,0.00892902,0.079776,5,0.1,6,8.3,-0.595561,1.30247,0.697677,4.00469e-05,8.9407e-06,-1.49012e-06,-0.000186265,-5.96046e-05,0,0.0107595,1.70821e-09,5,0.1,7,8.3,0.125697,2.27244,0.600011,-0.691429,-0.318334,9.31323e-07,-0.267179,-0.95655,-3.72529e-05,0.00978172,2.5494,5,0.1,8,8.3,-3.30799,-1.57132,0.522078,3.94881e-05,-6.89179e-06,-3.72529e-07,-5.96046e-05,3.72529e-05,-7.45058e-06,0.00915554,3.53201e-09,5,0.1,9,8.3,1.20103,1.29684,0.6,0.00725742,0.157277,3.91155e-06,0.014089,-0.282258,1.49012e-05,0.00934817,0.347622,5,0.1
0,8.4,0.450012,0.702903,1.28912,-1.49012e-05,-0.0273377,0.0615954,1.49012e-05,0.259072,-0.134826,0.00958859,0.482874,5,0.1,1,8.4,-1.07792,3.76507,0.710711,-0.0204355,0.519753,-0.0265747,0.0121593,-0.466585,0.0153184,0.00993182,0.10151,5,0.1,2,8.4,1.0968,-0.610796,0.680472,-0.00012517,1.19209e-05,0,-0.000298023,5.96046e-05,-2.98023e-05,0.0134049,1.16336e-08,5,0.1,3,8.4,1.91733,-3.8882,0.511918,-0.00161529,0.00685453,0.000654161,0.00149012,-0.00727177,-0.000596046,0.00717141,7.97936e-06,5,0.1,4,8.4,-0.0455445,-1.05691,0.5,0.746991,-0.635374,0,0.618116,0.395298,0,0.00890916,1.17624,5,0.1,5,8.4,-1.374,-3.28426,0.650947,-0.00222623,-0.373727,-0.000938773,0.00137091,0.218153,0.000536442,0.0088798,0.0621553,5,0.1,6,8.4,-0.595558,1.30247,0.697677,2.38419e-05,2.98023e-06,-2.98023e-06,-0.000149012,0,2.98023e-05,0.00845977,1.32918e-09,5,0.1,7,8.4,0.0555103,2.23568,0.600011,-0.70867,-0.416595,-2.98023e-06,-0.0503063,-0.945091,-2.98023e-05,0.00926131,2.31562,5,0.1,8,8.4,-3.30798,-1.57132,0.522078,2.98023e-05,-5.96046e-06,-1.49012e-06,0,5.96046e-05,2.98023e-05,0.00807643,4.00264e-09,5,0.1,9,8.4,1.2017,1.31118,0.6,0.00483096,0.129616,4.47035e-06,-0.0703335,-0.270128,2.98023e-05,0.00840092,1.31247,5,0.1
0,8.5,0.450011,0.701348,1.29451,-1.3411e-05,-0.00538416,0.0453195,1.49012e-05,0.163078,-0.186078,0.00958859,0.482874,5,0.1,1,8.5,-1.07991,3.81485,0.708126,-0.0192912,0.476838,-0.0251286,0.0113472,-0.406936,0.0144243,0.00993182,0.10151,5,0.1,2,8.5,1.09679,-0.610795,0.680472,-0.000146404,1.61119e-05,-2.51457e-06,-0.00013411,2.6077e-05,-1.86265e-05,0.0134049,1.16336e-08,5,0.1,3,8.5,1.91718,-3.88755,0.51198,-0.00142213,0.00595637,0.000576675,0.00228733,-0.0103563,-0.000916421,0.00717141,7.97936e-06,5,0.1,4,8.5,0.0321521,-1.1186,0.5,0.804904,-0.599147,0,0.497346,0.350676,0,0.00890916,1.17624,5,0.1,5,8.5,-1.37421,-3.32071,0.650856,-0.00212081,-0.356331,-0.000897329,0.000864267,0.14928,0.000346452,0.0088798,0.0621553,5,0.1,6,8.5,-0.595556,1.30247,0.697677,1.06171e-05,2.04891e-06,-5.58794e-07,-0.000119209,-2.23517e-05,1.49012e-05,0.00845977,1.32918e-09,5,0.1,7,8.5,-0.0157329,2.18889,0.600011,-0.716469,-0.521365,-5.40167e-06,-0.0679788,-1.07947,-1.49012e-05,0.00926131,2.31562,5,0.1,8,8.5,-3.30798,-1.57132,0.522078,2.75671e-05,-1.11759e-06,5.58794e-07,-5.96046e-05,2.98023e-05,7.45058e-06,0.00807643,4.00264e-09,5,0.1,9,8.5,1.20188,1.32284,0.600001,-0.00331011,0.104004,6.51926e-06,-0.185944,-0.242002,7.45058e-06,0.00840092,1.31247,5,0.1
0,8.6,0.45001,0.701369,1.29808,-1.2666e-05,0.00310093,0.0257134,2.98023e-05,0.00172853,-0.197232,0.00822931,0.661382,5,0.1,1,8.6,-1.08177,3.8605,0.70569,-0.0180572,0.435787,-0.0235528,0.0137091,-0.424743,0.017643,0.00759021,0.117555,5,0.1,2,8.6,1.09677,-0.610793,0.680472,-0.000151992,1.78814e-05,-2.98023e-06,0,0,-2.98023e-05,0.0143199,3.68783e-09,5,0.1,3,8.6,1.91705,-3.88701,0.512033,-0.00117421,0.00484586,0.000476837,0.00268221,-0.0115633,-0.00110269,0.00680174,7.36728e-06,5,0.1,4,8.6,0.114644,-1.1767,0.5,0.839322,-0.561625,0,0.16243,0.414491,0,0.00829988,0.811045,5,0.1,5,8.6,-1.37442,-3.35558,0.650768,-0.00203252,-0.340557,-0.000861287,0.00101328,0.180244,0.000417233,0.00754533,0.0282846,5,0.1,6,8.6,-0.595556,1.30247,0.697677,0,0,0,-5.96046e-05,0,2.98023e-05,0.00957483,8.75737e-10,5,0.1,7,8.6,-0.0874965,2.13162,0.60001,-0.71589,-0.620294,-7.45058e-06,0.105603,-0.847697,0,0.00845627,2.28495,5,0.1,8,8.6,-3.30798,-1.57132,0.522078,1.78814e-05,0,1.49012e-06,0,5.96046e-05,0,0.00799767,3.68588e-09,5,0.1,9,8.6,1.2,1.33207,0.600001,-0.0405848,0.0812352,7.45058e-06,-0.548422,-0.213325,0,0.00924252,3.2996,5,0.1
0,8.7,0.450009,0.701531,1.29972,-9.96515e-06,-0.00269134,0.00802875,2.23517e-05,-0.161849,-0.143543,0.00822931,0.661382,5,0.1,1,8.7,-1.08352,3.9023,0.703406,-0.0170441,0.403004,-0.0222507,0.00768155,-0.257388,0.00986829,0.00759021,0.117555,5,0.1,2,8.7,1.09676,-0.610791,0.680472,-0.000146776,1.69501e-05,-5.40167e-06,0.000104308,-2.23517e-05,-1.49012e-05,0.0143199,3.68783e-09,5,0.1,3,8.7,1.91695,-3.88659,0.512075,-0.000897609,0.00366122,0.000363775,0.00279397,-0.0118911,-0.00113994,0.00680174,7.36728e-06,5,0.1,4,8.7,0.199324,-1.23091,0.5,0.85275,-0.523498,0,0.071696,0.365779,0,0.00829988,0.811045,5,0.1,5,8.7,-1.37462,-3.38876,0.650684,-0.00193641,-0.323042,-0.000820775,0.000983477,0.180349,0.000420958,0.00754533,0.0282846,5,0.1,6,8.7,-0.595556,1.30247,0.697677,-5.40167e-06,-7.45058e-07,2.04891e-06,-4.47035e-05,-1.49012e-05,7.45058e-06,0.00957483,8.75737e-10,5,0.1,7,8.7,-0.157632,2.06527,0.600003,-0.678388,-0.705884,-0.000179,0.611401,-0.808783,-0.00304729,0.00845627,2.28495,5,0.1,8,8.7,-3.30798,-1.57132,0.522078,1.56462e-05,4.09782e-06,1.11759e-06,-5.96046e-05,1.49012e-05,-7.45058e-06,0.00799767,3.68588e-09,5,0.1,9,8.7,1.19157,1.33918,0.600002,-0.141182,0.061398,7.07805e-06,-1.34245,-0.183299,-7.45058e-06,0.00924252,3.2996,5,0.1
0,8.8,0.450008,0.7,1.3,-8.19564e-06,-0.0322238,0,1.49012e-05,-0.414073,0,0.00783752,0.802492,5,0.1,1,8.8,-1.08519,3.94141,0.701227,-0.0163257,0.379711,-0.0213251,0.00745058,-0.228167,0.00968575,0.00666581,0.0685032,5,0.1,2,8.8,1.09675,-0.61079,0.680471,-0.00013411,1.49012e-05,-5.96046e-06,0.000178814,-2.98023e-05,0,0.0156213,1.83522e-09,5,0.1,3,8.8,1.91687,-3.88628,0.512105,-0.000625849,0.00251532,0.00025332,0.002563,-0.0109673,-0.00104308,0.0116777,6.183e-06,5,0.1,4,8.8,0.284578,-1.2814,0.5,0.847954,-0.485474,0,-0.190318,0.406981,0,0.00716947,0.545687,5,0.1,5,8.8,-1.37481,-3.42009,0.650604,-0.0018239,-0.302786,-0.00077337,0.0013113,0.231504,0.000566244,0.00801678,0.010979,5,0.1,6,8.8,-0.595557,1.30247,0.697677,-8.9407e-06,-2.98023e-06,2.98023e-06,-2.98023e-05,0,0,0.0100282,5.66843e-10,5,0.1,7,8.8,-0.221807,1.99108,0.599968,-0.59978,-0.772679,-0.000549853,0.932106,-0.488698,-0.00405312,0.00740395,2.43808,5,0.1,8,8.8,-3.30798,-1.57132,0.522079,1.19209e-05,5.96046e-06,0,-0.000119209,0,0,0.00729731,3.0066e-09,5,0.1,9,8.8,1.17025,1.34445,0.600003,-0.287697,0.0445873,5.96046e-06,-1.49494,-0.153005,0,0.00999762,2.78988,5,0.1
0,8.9,0.450007,0.694013,1.3,-6.93835e-06,-0.0929955,0,9.31323e-06,-0.743628,0,0.00783752,0.802492,5,0.1,1,8.9,-1.08679,3.97839,0.699137,-0.015706,0.360774,-0.0205184,0.00568479,-0.168055,0.0074096,0.00666581,0.0685032,5,0.1,2,8.9,1.09673,-0.610788,0.68047,-0.000113994,1.15484e-05,-5.58794e-06,0.000208616,-3.72529e-05,7.45058e-06,0.0156213,1.83522e-09,5,0.1,3,8.9,1.91682,-3.88608,0.512126,-0.000379235,0.00146888,0.000153203,0.00232458,-0.00981987,-0.000942498,0.0116777,6.183e-06,5,0.1,4,8.9,0.368425,-1.32803,0.5,0.828274,-0.448095,0,-0.231506,0.355348,0,0.00716947,0.545687,5,0.1,5,8.9,-1.37498,-3.4492,0.650529,-0.00169072,-0.279188,-0.000715442,0.00137836,0.245139,0.000603497,0.00801678,0.010979,5,0.1,6,8.9,-0.595558,1.30247,0.697677,-1.13621e-05,-3.1665e-06,2.51457e-06,-1.49012e-05,-7.45058e-06,-1.11759e-05,0.0100282,5.66843e-10,5,0.1,7,8.9,-0.276749,1.91194,0.59983,-0.49606,-0.804006,-0.00270717,1.1134,-0.128448,-0.0350475,0.00740395,2.43808,5,0.1,8,8.9,-3.30797,-1.57132,0.522079,3.72529e-07,5.02914e-06,-3.72529e-07,-0.000104308,-2.23517e-05,-7.45058e-06,0.00729731,3.0066e-09,5,0.1,9,8.9,1.13346,1.34851,0.600003,-0.45136,0.0396473,5.58794e-06,-1.68652,0.0342205,-7.45058e-06,0.00999762,2.78988,5,0.1
0,9,0.450006,0.680843,1.3,-5.96046e-06,-0.170791,0,1.49012e-05,-0.768453,0,0.00893704,0.453065,5,0.1,1,9,-1.08833,4.01361,0.697125,-0.0150651,0.34312,-0.0196815,0.00762939,-0.197411,0.00998378,0.00813166,0.0534934,5,0.1,2,9,1.09672,-0.610787,0.68047,-9.23872e-05,7.45058e-06,-4.47035e-06,0.000178814,0,0,0.0106238,2.09203e-09,5,0.1,3,9,1.91679,-3.88598,0.512137,-0.000169873,0.000578165,6.85453e-05,0.00196695,-0.00798702,-0.000804663,0.0118567,3.90353e-06,5,0.1,4,9,0.449839,-1.37105,0.5,0.796968,-0.411904,0,-0.413209,0.378668,0,0.00671232,0.362669,5,0.1,5,9,-1.37515,-3.47584,0.650461,-0.00154078,-0.253022,-0.000651181,0.00160933,0.280857,0.000715256,0.00796809,0.00570082,5,0.1,6,9,-0.595559,1.30247,0.697677,-1.19209e-05,-2.98023e-06,2.98023e-06,-2.98023e-05,-5.96046e-05,-5.96046e-05,0.0104419,7.27569e-10,5,0.1,7,9,-0.320687,1.83155,0.599361,-0.382276,-0.797153,-0.00683963,1.13942,0.26834,-0.0445247,0.0075174,2.76968,5,0.1,8,9,-3.30798,-1.57132,0.522078,-1.19209e-05,5.96046e-06,-1.49012e-06,0,-0.000119209,0,0.00799562,2.61844e-09,5,0.1,9,9,1.08019,1.35282,0.600004,-0.609142,0.0478685,4.47035e-06,-1.40226,0.114501,0,0.00775702,2.43624,5,0.1
0,9.1,0.450006,0.659865,1.3,-4.70318e-06,-0.248447,0,9.31323e-06,-0.750884,0,0.00893704,0.453065,5,0.1,1,9.1,-1.08981,4.04708,0.695199,-0.0144534,0.327465,-0.0188795,0.00536442,-0.133753,0.00705197,0.00813166,0.0534934,5,0.1,2,9.1,1.09671,-0.610787,0.680469,-7.35745e-05,6.89179e-06,-4.09782e-06,0.000201166,-1.49012e-05,7.45058e-06,0.0106238,2.09203e-09,5,0.1,3,9.1,1.91678,-3.88596,0.51214,7.63685e-06,-0.000141189,-4.00469e-06,0.00157207,-0.00633299,-0.000637025,0.0118567,3.90353e-06,5,0.1,4,9.1,0.527538,-1.41047,0.5,0.75707,-0.377242,0,-0.408251,0.326887,0,0.00671232,0.362669,5,0.1,5,9.1,-1.37529,-3.49976,0.650399,-0.00138264,-0.225458,-0.000581145,0.00157207,0.273973,0.000692904,0.00796809,0.00570082,5,0.1,6,9.1,-0.59556,1.30247,0.697678,-1.39698e-05,-8.00937e-06,-1.76951e-06,-7.45058e-06,-3.72529e-05,-4.09782e-05,0.0104419,7.27569e-10,5,0.1,7,9.1,-0.353379,1.75364,0.598341,-0.273433,-0.756666,-0.0144565,1.02679,0.536069,-0.0990555,0.0075174,2.76968,5,0.1,8,9.1,-3.30798,-1.57132,0.522078,-1.22935e-05,-3.91155e-06,-1.58325e-06,-1.49012e-05,-6.70552e-05,-3.72529e-06,0.00799562,2.61844e-09,5,0.1,9,9.1,1.01262,1.35835,0.600004,-0.737465,0.063904,4.09782e-06,-1.11773,0.190303,-7.45058e-06,0.00775702,2.43624,5,0.1
0,9.2,0.450005,0.631523,1.3,-3.72529e-06,-0.31521,0,0,-0.560611,0,0.0119037,0.17404,5,0.1,1,9.2,-1.09122,4.07914,0.693348,-0.0138611,0.313294,-0.0181019,0.00703335,-0.162601,0.00914931,0.00564207,0.0243942,5,0.1,2,9.2,1.09671,-0.610786,0.680469,-5.36442e-05,4.47035e-06,-2.98023e-06,0.000178814,0,0,0.00965493,1.92516e-09,5,0.1,3,9.2,1.91679,-3.886,0.512136,0.000143051,-0.000679493,-5.81145e-05,0.00101328,-0.00441074,-0.000447035,0.00652819,1.79973e-06,5,0.1,4,9.2,0.601056,-1.44656,0.5,0.711404,-0.344437,0,-0.520736,0.33778,0,0.0117124,0.240355,5,0.1,5,9.2,-1.37542,-3.52093,0.650345,-0.0012219,-0.197679,-0.00051111,0.00166893,0.283599,0.000715256,0.00785671,0.00172562,5,0.1,6,9.2,-0.595562,1.30246,0.697677,-1.3411e-05,-8.9407e-06,-5.96046e-06,0,-5.96046e-05,0,0.0095427,6.49951e-10,5,0.1,7,9.2,-0.375846,1.68105,0.59637,-0.178682,-0.691181,-0.025107,0.861242,0.766516,-0.107288,0.0102052,3.10782,5,0.1,8,9.2,-3.30798,-1.57132,0.522078,-1.19209e-05,-1.19209e-05,-1.49012e-06,-0.000119209,0,-2.98023e-05,0.00659125,2.79307e-09,5,0.1,9,9.2,0.93405,1.3657,0.600005,-0.82574,0.0831485,2.98023e-06,-0.624806,0.182748,0,0.00763015,2.29677,5,0.1
0,9.3,0.450005,0.59734,1.3,-3.77186e-06,-0.366487,0,-1.86265e-06,-0.443943,0,0.0119037,0.17404,5,0.1,1,9.3,-1.09258,4.10968,0.691583,-0.0131642,0.297488,-0.0171942,0.00729412,-0.163049,0.00951812,0.00564207,0.0243942,5,0.1,2,9.3,1.0967,-0.610786,0.680469,-3.59491e-05,3.91155e-06,-2.8871e-06,0.000171363,-1.49012e-05,3.72529e-06,0.00965493,1.92516e-09,5,0.1,3,9.3,1.91681,-3.88609,0.512129,0.000228733,-0.00104643,-9.54606e-05,0.000685453,-0.00290573,-0.000294298,0.00652819,1.79973e-06,5,0.1,4,9.3,0.669706,-1.47942,0.5,0.662244,-0.313637,0,-0.482187,0.288494,0,0.0117124,0.240355,5,0.1,5,9.3,-1.37554,-3.5393,0.650297,-0.00105742,-0.169836,-0.000440795,0.00163168,0.273943,0.000696629,0.00785671,0.00172562,5,0.1,6,9.3,-0.595563,1.30246,0.697677,-1.28523e-05,-1.37836e-05,-5.86733e-06,1.49012e-05,-2.98023e-05,3.72529e-06,0.0095427,6.49951e-10,5,0.1,7,9.3,-0.38957,1.6155,0.593223,-0.0976504,-0.621984,-0.0385473,0.750499,0.638478,-0.150975,0.0102052,3.10782,5,0.1,8,9.3,-3.30798,-1.57132,0.522078,-2.16067e-05,-1.17347e-05,-3.91155e-06,-5.96046e-05,7.45058e-06,-1.49012e-05,0.00659125,2.79307e-09,5,0.1,9,9.3,0.849303,1.37501,0.600005,-0.861247,0.103237,2.8871e-06,-0.145935,0.205606,-3.72529e-06,0.00763015,2.29677,5,0.1
0,9.4,0.450005,0.558805,1.3,-3.72529e-06,-0.40054,0,0,-0.223517,0,0.0112393,0.135941,5,0.1,1,9.4,-1.09385,4.13855,0.689915,-0.0123382,0.279105,-0.0161126,0.00959635,-0.211,0.0124574,0.00783272,0.0148184,5,0.1,2,9.4,1.0967,-0.610785,0.680468,-2.08616e-05,2.98023e-06,-1.49012e-06,0.000178814,-2.98023e-05,-2.98023e-05,0.00888299,1.68783e-09,5,0.1,3,9.4,1.91684,-3.88621,0.512118,0.000280142,-0.00126362,-0.000117719,0.000417233,-0.0013113,-0.000149012,0.00684045,5.88645e-07,5,0.1,4,9.4,0.733453,-1.50936,0.5,0.611658,-0.284991,0,-0.542879,0.291705,0,0.00731103,0.15988,5,0.1,5,9.4,-1.37563,-3.55492,0.650256,-0.00089705,-0.142801,-0.000372529,0.00166893,0.266671,0.000685453,0.0105389,0.000798037,5,0.1,6,9.4,-0.595564,1.30246,0.697676,-1.19209e-05,-1.49012e-05,-5.96046e-06,2.98023e-05,0,2.98023e-05,0.00643341,0.396145,5,0.1,7,9.4,-0.395826,1.55642,0.588613,-0.0300504,-0.559881,-0.0534624,0.595689,0.618577,-0.139475,0.00753553,3.26355,5,0.1,8,9.4,-3.30798,-1.57132,0.522077,-2.98023e-05,-1.19209e-05,-5.96046e-06,0,5.96046e-05,0,0.00984793,1.99181e-09,5,0.1,9,9.4,0.762819,1.3863,0.600005,-0.866026,0.12196,1.49012e-06,0,0.159144,2.98023e-05,0.00722005,2.25781,5,0.1
0,9.5,0.450004,0.517802,1.3,-3.72529e-06,-0.417503,0,0,-0.103595,0,0.0112393,0.135941,5,0.1,1,9.5,-1.09504,4.16543,0.688365,-0.011399,0.258554,-0.0148909,0.00949204,-0.207514,0.0123829,0.00783272,0.0148184,5,0.1,2,9.5,1.0967,-0.610785,0.680468,-4.84288e-06,9.31323e-08,-3.53903e-06,0.00013411,-2.6077e-05,-7.45058e-06,0.00888299,1.68783e-09,5,0.1,3,9.5,1.91687,-3.88634,0.512106,0.000308454,-0.00134222,-0.000127032,0.000149012,-0.000283122,-4.47035e-05,0.00684045,5.88645e-07,5,0.1,4,9.5,0.792043,-1.53649,0.5,0.561107,-0.258494,0,-0.484776,0.246815,0,0.00731103,0.15988,5,0.1,5,9.5,-1.37572,-3.5679,0.650223,-0.00073649,-0.117041,-0.000306312,0.00153482,0.248045,0.000637025,0.0105389,0.000798037,5,0.1,6,9.5,-0.596109,1.30177,0.697972,-0.0154348,-0.0196274,0.00841971,-0.273958,-0.348359,0.14963,0.00643341,0.396145,5,0.1,7,9.5,-0.396093,1.50268,0.582524,0.0221187,-0.522016,-0.0684977,0.440829,0.19411,-0.151213,0.00753553,3.26355,5,0.1,8,9.5,-3.30798,-1.57132,0.522077,-2.94298e-05,-6.89179e-06,-5.86733e-06,1.49012e-05,3.72529e-05,3.72529e-06,0.00984793,1.99181e-09,5,0.1,9,9.5,0.676216,1.39945,0.600006,-0.866026,0.141968,3.91155e-06,3.72529e-06,0.22164,1.49012e-05,0.00722005,2.25781,5,0.1
0,9.6,0.450004,0.475812,1.3,-3.72529e-06,-0.41933,0,1.49012e-05,0.0742376,0,0.00758412,0.176699,5,0.1,1,9.6,-1.09613,4.19021,0.68694,-0.0103891,0.236404,-0.013572,0.0109076,-0.239849,0.0142157,0.00790561,0.00473448,5,0.1,2,9.6,1.0967,-0.610785,0.680468,5.96046e-06,-2.98023e-06,-4.47035e-06,0.000119209,0,0,0.0134773,1.09562e-09,5,0.1,3,9.6,1.9169,-3.88647,0.512093,0.000309944,-0.00132322,-0.00012666,-5.96046e-05,0.000596046,5.96046e-05,0.00613035,1.67318e-07,5,0.1,4,9.6,0.845715,-1.56113,0.5,0.511895,-0.234166,0,-0.510842,0.24575,0,0.00738019,0.107173,5,0.1,5,9.6,-1.37578,-3.5784,0.650195,-0.000590086,-0.0932813,-0.000244379,0.00143051,0.226736,0.000566244,0.00802943,0.000651666,5,0.1,6,9.6,-0.59924,1.29779,0.699681,-0.0486717,-0.0618905,0.0265718,-0.364035,-0.46283,0.198781,0.00755076,0.291413,5,0.1,7,9.6,-0.391976,1.45113,0.574966,0.057175,-0.511277,-0.0820041,0.25776,0.0631809,-0.111938,0.00782116,3.30019,5,0.1,8,9.6,-3.30799,-1.57132,0.522076,-2.38419e-05,-2.98023e-06,-5.96046e-06,-0.000119209,0,2.98023e-05,0.00862417,3.37623e-09,5,0.1,9,9.6,0.589613,1.41473,0.600006,-0.866026,0.162932,4.47035e-06,0,0.183463,0,0.0117529,2.24707,5,0.1
0,9.7,0.450004,0.43416,1.3,-2.51457e-06,-0.414091,0,7.45058e-06,0.0507105,0,0.00758412,0.176699,5,0.1,1,9.7,-1.09711,4.21265,0.685654,-0.00929199,0.212235,-0.0121399,0.0111312,-0.246078,0.0145547,0.00790561,0.00473448,5,0.1,2,9.7,1.0967,-0.610786,0.680467,1.58325e-05,-3.07336e-06,-4.00469e-06,6.70552e-05,-3.72529e-06,1.11759e-05,0.0134773,1.09562e-09,5,0.1,3,9.7,1.91693,-3.8866,0.51208,0.000295229,-0.00123307,-0.000117999,-0.000230968,0.00116229,0.000115484,0.00613035,1.67318e-07,5,0.1,4,9.7,0.894496,-1.5834,0.5,0.464805,-0.211919,0,-0.444997,0.206314,0,0.00738019,0.107173,5,0.1,5,9.7,-1.37583,-3.58663,0.650173,-0.000455789,-0.0718482,-0.000190549,0.00125915,0.201285,0.000506639,0.00802943,0.000651666,5,0.1,6,9.7,-0.606219,1.28927,0.703529,-0.0930057,-0.108125,0.0518418,-0.490975,-0.444263,0.286948,0.00755076,0.291413,5,0.1,7,9.7,-0.385906,1.40076,0.5663,0.0560923,-0.491886,-0.0903727,-0.230448,0.313759,-0.0546463,0.00782116,3.30019,5,0.1,8,9.7,-3.30799,-1.57133,0.522076,-3.20375e-05,-2.98023e-06,-3.44589e-06,-2.98023e-05,0,1.86265e-05,0.00862417,3.37623e-09,5,0.1,9,9.7,0.503011,1.43202,0.600007,-0.866026,0.183319,4.00469e-06,3.57628e-06,0.206932,-1.11759e-05,0.0117529,2.24707,5,0.1
0,9.8,0.450003,0.393101,1.3,-1.49012e-06,-0.405772,0,0,0.12964,0,0.00860466,0.124805,5,0.1,1,9.8,-1.09799,4.23261,0.684515,-0.00814497,0.186825,-0.0106424,0.0117421,-0.263214,0.0154078,0.00679344,0.00141425,5,0.1,2,9.8,1.0967,-0.610786,0.680467,2.38419e-05,-2.98023e-06,-2.98023e-06,0,-2.98023e-05,0,0.0120487,4.36501e-10,5,0.1,3,9.8,1.91696,-3.88672,0.512069,0.000268221,-0.00109076,-0.000102818,-0.000417233,0.00154972,0.000119209,0.00860267,9.01255e-08,5,0.1,4,9.8,0.938767,-1.60357,0.5,0.420517,-0.19168,0,-0.450552,0.203431,0,0.00996256,0.123291,5,0.1,5,9.8,-1.37587,-3.59286,0.650157,-0.000339746,-0.0531316,-0.000143051,0.00107288,0.172615,0.000447035,0.0074241,0.000515917,5,0.1,6,9.8,-0.617969,1.27639,0.71016,-0.141348,-0.147751,0.0805259,-0.45228,-0.335991,0.272006,0.00938877,0.242696,5,0.1,7,9.8,-0.381922,1.35348,0.557089,0.0198737,-0.450641,-0.0928551,-0.455037,0.500917,0.00506639,0.00771766,3.31678,5,0.1,8,9.8,-3.30799,-1.57133,0.522076,-2.98023e-05,-2.98023e-06,-1.49012e-06,-0.000119209,0,0,0.00800831,4.02107e-09,5,0.1,9,9.8,0.416408,1.45131,0.600007,-0.866025,0.201353,4.47035e-06,-1.43051e-05,0.141382,-5.96046e-05,0.00780891,2.23878,5,0.1
0,9.9,0.450003,0.353107,1.3,-1.49012e-06,-0.394312,0,0,0.115866,0,0.00860466,0.124805,5,0.1,1,9.9,-1.09874,4.24999,0.683527,-0.00697989,0.160669,-0.00911374,0.0115559,-0.259936,0.0151545,0.00679344,0.00141425,5,0.1,2,9.9,1.09671,-0.610786,0.680467,2.36556e-05,-5.40167e-06,-2.51457e-06,-7.45058e-06,-1.49012e-05,1.11759e-05,0.0120487,4.36501e-10,5,0.1,3,9.9,1.91698,-3.88682,0.51206,0.000224449,-0.000924617,-8.92207e-05,-0.000439584,0.00172853,0.000149012,0.00860267,9.01255e-08,5,0.1,4,9.9,0.978704,-1.62195,0.5,0.379316,-0.177763,0,-0.385262,0.0907183,0,0.00996256,0.123291,5,0.1,5,9.9,-1.3759,-3.59735,0.650145,-0.000241213,-0.0372153,-0.000101607,0.00090152,0.145301,0.000376254,0.0074241,0.000515917,5,0.1,6,9.9,-0.634493,1.26023,0.719693,-0.189681,-0.172471,0.11084,-0.486698,-0.161052,0.315025,0.00938877,0.242696,5,0.1,7,9.9,-0.382653,1.3114,0.547844,-0.0378929,-0.386991,-0.0918183,-0.659218,0.732675,0.0182502,0.00771766,3.31678,5,0.1,8,9.9,-3.308,-1.57133,0.522075,-3.68804e-05,-2.98023e-06,-1.49012e-06,-4.47035e-05,0,0,0.00800831,4.02107e-09,5,0.1,9,9.9,0.329806,1.47221,0.600007,-0.866025,0.216845,-5.58794e-07,1.78814e-06,0.152379,-3.72529e-05,0.00780891,2.23878,5,0.1
