id,t,px,py,pz,vx,vy,vz,ax,ay,az,planning_time,qp_cost,planning_report,size,id,t,px,py,pz,vx,vy,vz,ax,ay,az,planning_time,qp_cost,planning_report,size,id,t,px,py,pz,vx,vy,vz,ax,ay,az,planning_time,qp_cost,planning_report,size,id,t,px,py,pz,vx,vy,vz,ax,ay,az,planning_time,qp_cost,planning_report,size,id,t,px,py,pz,vx,vy,vz,ax,ay,az,planning_time,qp_cost,planning_report,size,id,t,px,py,pz,vx,vy,vz,ax,ay,az,planning_time,qp_cost,planning_report,size,id,t,px,py,pz,vx,vy,vz,ax,ay,az,planning_time,qp_cost,planning_report,size,id,t,px,py,pz,vx,vy,vz,ax,ay,az,planning_time,qp_cost,planning_report,size,id,t,px,py,pz,vx,vy,vz,ax,ay,az,planning_time,qp_cost,planning_report,size,id,t,px,py,pz,vx,vy,vz,ax,ay,az,planning_time,qp_cost,planning_report,size
0,0,-0.16851,2.93006,0.695517,0,0,0,0,0,0,0.0227042,3.51219,5,0.1,1,0,-1.21818,-2.44666,0.570764,0,0,0,0,0,0,0.00928664,3.51219,5,0.1,2,0,1.69806,-1.1808,0.697474,0,0,0,0,0,0,0.0161843,3.5122,5,0.1,3,0,1.53126,4.13214,0.571891,0,0,0,0,0,0,0.0078878,1.60863,5,0.1,4,0,-2.4001,3.88356,0.643894,0,0,0,0,0,0,0.00875876,3.5122,5,0.1,5,0,-0.516105,-1.49851,0.667398,0,0,0,0,0,0,0.00816735,3.51219,5,0.1,6,0,-1.77258,3.48933,0.695854,0,0,0,0,0,0,0.0125737,0.947128,5,0.1,7,0,2.09154,1.45167,0.654199,0,0,0,0,0,0,0.0128145,3.51219,5,0.1,8,0,3.69568,-3.96613,0.611188,0,0,0,0,0,0,0.0178498,3.51219,5,0.1,9,0,0.0141835,2.34355,0.523945,0,0,0,0,0,0,0.00573893,0.616343,5,0.1
0,0.1,-0.166423,2.93011,0.695549,0.059249,0.0011947,0.000930764,1.05332,0.0212342,0.0165477,0.0227042,3.51219,5,0.1,1,0.1,-1.21769,-2.44463,0.570777,0.013992,0.0575908,0.00038296,0.248753,1.02386,0.00680238,0.00928664,3.51219,5,0.1,2,0.1,1.6961,-1.18152,0.697505,-0.0556843,-0.0202775,0.000873767,-0.989951,-0.360489,0.015527,0.0161843,3.5122,5,0.1,3,0.1,1.53248,4.13142,0.57192,0.0346346,-0.0202149,0.000832882,0.615723,-0.359356,0.014808,0.0078878,1.60863,5,0.1,4,0.1,-2.40182,3.88239,0.643848,-0.0489242,-0.0334281,-0.0012896,-0.869751,-0.594273,-0.0229292,0.00875876,3.5122,5,0.1,5,0.1,-0.514033,-1.49825,0.667408,0.0587998,0.0074327,0.000289269,1.04533,0.132129,0.0051409,0.00816735,3.51219,5,0.1,6,0.1,-1.77166,3.48991,0.695911,0.025858,0.0166155,0.00160448,0.459701,0.295401,0.0285283,0.0125737,0.947128,5,0.1,7,0.1,2.08945,1.45158,0.654152,-0.0591997,-0.00251662,-0.00134176,-1.05242,-0.0447407,-0.023853,0.0128145,3.51219,5,0.1,8,0.1,3.6956,-3.96405,0.611184,-0.00228584,0.0592243,-0.000103842,-0.0406206,1.05287,-0.00185147,0.0178498,3.51219,5,0.1,9,0.1,0.013699,2.34283,0.523868,-0.0137557,-0.0205524,-0.00219122,-0.244545,-0.365376,-0.0389591,0.00573893,0.616343,5,0.1
0,0.2,-0.154388,2.93035,0.695738,0.187256,0.00377893,0.00294149,1.40442,0.0282526,0.0220537,0.0249187,2.92579,5,0.1,1,0.2,-1.21485,-2.43293,0.570855,0.0442207,0.182021,0.00121146,0.3317,1.36507,0.00905991,0.0103311,2.9258,5,0.1,2,0.2,1.68479,-1.18564,0.697682,-0.175992,-0.0640869,0.00276119,-1.31994,-0.480652,0.0207126,0.0181113,2.92579,5,0.1,3,0.2,1.53952,4.12732,0.572089,0.109464,-0.0638843,0.00263304,0.820935,-0.479221,0.0197291,0.00890479,1.3198,5,0.1,4,0.2,-2.41176,3.8756,0.643586,-0.154626,-0.105649,-0.00407547,-1.15979,-0.792384,-0.0305772,0.00842511,2.92578,5,0.1,5,0.2,-0.50209,-1.49674,0.667467,0.185836,0.0234872,0.000913441,1.39378,0.176251,0.00685453,0.00961165,2.92579,5,0.1,6,0.2,-1.76641,3.49329,0.696237,0.0817239,0.0525117,0.00507087,0.612974,0.393748,0.0380278,0.0121594,0.777072,5,0.1,7,0.2,2.07742,1.45107,0.65388,-0.187099,-0.00795424,-0.00424087,-1.40321,-0.0596642,-0.0317693,0.015329,2.9258,5,0.1,8,0.2,3.69514,-3.95202,0.611163,-0.00722408,0.187176,-0.000329316,-0.054121,1.40393,-0.00244379,0.0218428,2.92578,5,0.1,9,0.2,0.0109048,2.33865,0.523423,-0.0434748,-0.0649571,-0.00692606,-0.32606,-0.487208,-0.0519156,0.00924412,0.505677,5,0.1
0,0.3,-0.127852,2.93088,0.696155,0.348777,0.00703037,0.00547813,1.726,0.0347495,0.0271089,0.0249187,2.92579,5,0.1,1,0.3,-1.20858,-2.40714,0.571027,0.082368,0.339017,0.00225417,0.407636,1.67768,0.0111461,0.0103311,2.9258,5,0.1,2,0.3,1.65985,-1.19472,0.698074,-0.327797,-0.119367,0.00514295,-1.62217,-0.590704,0.0254512,0.0181113,2.92579,5,0.1,3,0.3,1.55502,4.11827,0.572462,0.203635,-0.118855,0.00489699,1.00458,-0.586361,0.0241511,0.00890479,1.3198,5,0.1,4,0.3,-2.43367,3.86063,0.643009,-0.288009,-0.19678,-0.00759168,-1.42528,-0.973821,-0.0375696,0.00842511,2.92578,5,0.1,5,0.3,-0.475755,-1.49341,0.667597,0.346133,0.0437547,0.00170171,1.71292,0.216559,0.00842661,0.00961165,2.92579,5,0.1,6,0.3,-1.75484,3.50073,0.696955,0.152037,0.097682,0.00943327,0.750065,0.481889,0.0465401,0.0121594,0.777072,5,0.1,7,0.3,2.05091,1.44994,0.653279,-0.348482,-0.0148159,-0.00789566,-1.72454,-0.0733286,-0.0390597,0.015329,2.9258,5,0.1,8,0.3,3.69411,-3.92549,0.611116,-0.0134505,0.348637,-0.000611227,-0.0665486,1.72532,-0.00302121,0.0218428,2.92578,5,0.1,9,0.3,0.00474746,2.32945,0.522442,-0.0808775,-0.120844,-0.0128823,-0.398993,-0.596166,-0.0635423,0.00924412,0.505677,5,0.1
0,0.4,-0.0844912,2.93176,0.696836,0.515073,0.0103772,0.00808984,1.52609,0.0308752,0.0239611,0.023852,2.5156,5,0.1,1,0.4,-1.19834,-2.36499,0.571307,0.121641,0.500661,0.00332743,0.360429,1.48332,0.00989437,0.0163241,2.51116,5,0.1,2,0.4,1.6191,-1.20956,0.698713,-0.484088,-0.176281,0.00759661,-1.43433,-0.522256,0.022471,0.0200525,2.51007,5,0.1,3,0.4,1.58032,4.1035,0.57307,0.300315,-0.175285,0.0072211,0.886261,-0.517368,0.0213087,0.00770704,1.04424,5,0.1,4,0.4,-2.46948,3.83616,0.642065,-0.425333,-0.290608,-0.0112131,-1.26016,-0.860929,-0.03317,0.00733296,2.51006,5,0.1,5,0.4,-0.432722,-1.48797,0.667808,0.511169,0.0646174,0.00251383,1.51451,0.19151,0.00745058,0.00960444,2.51405,5,0.1,6,0.4,-1.73595,3.51286,0.698127,0.224221,0.144058,0.0139132,0.661731,0.42522,0.0410378,0.0126137,0.614828,5,0.1,7,0.4,2.00759,1.4481,0.652297,-0.514641,-0.0218809,-0.0116602,-1.52475,-0.0647902,-0.0345409,0.0132492,2.51542,5,0.1,8,0.4,3.69244,-3.88215,0.61104,-0.0198662,0.514865,-0.00090152,-0.0587702,1.52552,-0.00268221,0.0189517,2.51549,5,0.1,9,0.4,-0.00529987,2.31444,0.520842,-0.119276,-0.178218,-0.018999,-0.352005,-0.525951,-0.0560284,0.00658323,0.400097,5,0.1
0,0.5,-0.0253747,2.93295,0.697769,0.665283,0.0135522,0.0105559,1.41012,0.0310093,0.0240915,0.023852,2.5156,5,0.1,1,0.5,-1.18432,-2.3074,0.57169,0.15873,0.65029,0.00434499,0.362262,1.43638,0.00993162,0.0163241,2.51116,5,0.1,2,0.5,1.56331,-1.22987,0.699588,-0.631684,-0.230023,0.00990955,-1.44167,-0.524953,0.0225939,0.0200525,2.51007,5,0.1,3,0.5,1.61486,4.08334,0.573901,0.390236,-0.227775,0.00938345,0.868037,-0.506669,0.0208765,0.00770704,1.04424,5,0.1,4,0.5,-2.51849,3.80267,0.640773,-0.555007,-0.379203,-0.0146274,-1.26661,-0.86537,-0.0333562,0.00733296,2.51006,5,0.1,5,0.5,-0.37402,-1.48053,0.668098,0.661222,0.0843221,0.00328068,1.41724,0.192456,0.00748783,0.00960444,2.51405,5,0.1,6,0.5,-1.71016,3.52943,0.699727,0.291359,0.187201,0.0180773,0.648104,0.416458,0.0402033,0.0126137,0.614828,5,0.1,7,0.5,1.94852,1.44558,0.650954,-0.664831,-0.0285486,-0.015215,-1.41089,-0.0651255,-0.0347272,0.0132492,2.51542,5,0.1,8,0.5,3.69015,-3.82305,0.610936,-0.0259165,0.66507,-0.00117766,-0.0591129,1.41051,-0.00270084,0.0189517,2.51549,5,0.1,9,0.5,-0.0190197,2.29394,0.518659,-0.15499,-0.23158,-0.0246268,-0.344763,-0.515133,-0.0538677,0.00658323,0.400097,5,0.1
0,0.6,0.0475629,2.93445,0.698936,0.785896,0.0163019,0.0126913,0.95814,0.0226498,0.0177324,0.0225706,2.33469,5,0.1,1,0.6,-1.16677,-2.23575,0.572171,0.190839,0.775677,0.00522435,0.266373,1.0215,0.00733137,0.00933459,2.30809,5,0.1,2,0.6,1.49343,-1.25532,0.700684,-0.759465,-0.276554,0.011912,-1.06019,-0.386,0.0166595,0.0150255,2.27781,5,0.1,3,0.6,1.6579,4.05822,0.574936,0.466412,-0.272238,0.0112161,0.624418,-0.364542,0.0149906,0.0115862,0.777407,5,0.1,4,0.6,-2.57989,3.76073,0.639155,-0.667274,-0.45591,-0.0175849,-0.931382,-0.63622,-0.0245273,0.00645075,1.92148,5,0.1,5,0.6,-0.301432,-1.4712,0.668461,0.783128,0.101382,0.00394434,0.975325,0.141442,0.00548363,0.0073615,2.32716,5,0.1,6,0.6,-1.67803,3.55008,0.70172,0.348234,0.223744,0.0216067,0.466168,0.299692,0.0288785,0.0115441,0.457722,5,0.1,7,0.6,1.87562,1.44242,0.64927,-0.785586,-0.0343233,-0.0182927,-0.960112,-0.0478625,-0.0255704,0.0159365,2.33386,5,0.1,8,0.6,3.68728,-3.75013,0.610806,-0.0311553,0.78575,-0.0014171,-0.0435114,0.959039,-0.00199676,0.0201872,2.33426,5,0.1,9,0.6,-0.0361125,2.2684,0.515948,-0.185245,-0.276786,-0.0293195,-0.248015,-0.370502,-0.038147,0.00656688,0.298362,5,0.1
0,0.7,0.129882,2.9362,0.700295,0.850506,0.0185762,0.0144706,0.361435,0.021413,0.0167303,0.0225706,2.33469,5,0.1,1,0.7,-1.14633,-2.15412,0.572731,0.217576,0.846958,0.00595935,0.251494,0.42221,0.00690669,0.00933459,2.30809,5,0.1,2,0.7,1.4131,-1.28493,0.70196,-0.837947,-0.315303,0.0135836,-0.511065,-0.364542,0.0157245,0.0150255,2.27781,5,0.1,3,0.7,1.70761,4.02921,0.576131,0.52636,-0.307232,0.0126558,0.540257,-0.315368,0.0129826,0.0115862,0.777407,5,0.1,4,0.7,-2.65123,3.71198,0.637275,-0.757897,-0.517817,-0.0199721,-0.82846,-0.565991,-0.0218265,0.00645075,1.92148,5,0.1,5,0.7,-0.219299,-1.46034,0.668883,0.849545,0.115577,0.00449531,0.377904,0.133507,0.0051856,0.0073615,2.32716,5,0.1,6,0.7,-1.64091,3.57392,0.704023,0.392988,0.252515,0.0243803,0.40333,0.259265,0.0250004,0.0115441,0.457722,5,0.1,7,0.7,1.79332,1.43874,0.647312,-0.8504,-0.0391271,-0.0208582,-0.363268,-0.0451803,-0.0241213,0.0159365,2.33386,5,0.1,8,0.7,3.68395,-3.66782,0.610654,-0.0355236,0.850455,-0.00161733,-0.0410974,0.362307,-0.001885,0.0201872,2.33426,5,0.1,9,0.7,-0.0558557,2.2389,0.512894,-0.209055,-0.312357,-0.0311291,-0.21458,-0.320584,-3.72529e-05,0.00656688,0.298362,5,0.1
0,0.8,0.216012,2.93815,0.701817,0.866025,0.0203431,0.0158489,7.15256e-06,0.0127554,0.0100136,0.0251156,2.27141,5,0.1,1,0.8,-1.12346,-2.06812,0.573357,0.238287,0.866026,0.0065282,0.150979,5.96046e-05,0.00414252,0.00945606,2.22874,5,0.1,2,0.8,1.3276,-1.31808,0.703388,-0.864178,-0.345322,0.0148788,-0.0368953,-0.218987,0.00944734,0.0148578,2.18334,5,0.1,3,0.8,1.76258,3.99712,0.577453,0.568715,-0.331956,0.0136733,0.283778,-0.165701,0.00682473,0.0103429,0.548893,5,0.1,4,0.8,-2.73064,3.65773,0.635182,-0.824124,-0.563061,-0.021717,-0.460148,-0.314355,-0.0121295,0.00640071,1.37356,5,0.1,5,0.8,-0.133203,-1.44819,0.669356,0.866025,0.126567,0.00492185,4.76837e-06,0.0801682,0.00312924,0.0105962,2.2596,5,0.1,6,0.8,-1.59987,3.60029,0.706569,0.424609,0.27284,0.0263408,0.211835,0.136137,0.013113,0.0126767,0.323176,5,0.1,7,0.8,1.70719,1.43463,0.645118,-0.866026,-0.0428468,-0.0228435,5.96046e-05,-0.0271201,-0.0145137,0.015112,2.33513,5,0.1,8,0.8,3.68021,-3.58169,0.610484,-0.0389099,0.866026,-0.00177175,-0.0246763,0,-0.00116229,0.0197176,2.27075,5,0.1,9,0.8,-0.0776877,2.20628,0.50983,-0.225879,-0.337487,-0.029701,-0.112679,-0.168443,0.0268221,0.00721326,0.211265,5,0.1
0,0.9,0.302615,2.94025,0.703454,0.866026,0.0216614,0.0168825,-2.68221e-06,0.0122637,0.00959262,0.0251156,2.27141,5,0.1,1,0.9,-1.09884,-1.98152,0.574032,0.253896,0.866026,0.00695596,0.145137,-1.49012e-05,0.00397488,0.00945606,2.22874,5,0.1,2,0.9,1.24107,-1.35375,0.704925,-0.865909,-0.367973,0.0158556,-0.00463426,-0.210702,0.00908226,0.0148578,2.18334,5,0.1,3,0.9,1.8208,3.96314,0.578853,0.594429,-0.346969,0.0142919,0.203267,-0.118643,0.00489503,0.0103429,0.548893,5,0.1,4,0.9,-2.81492,3.5999,0.632952,-0.856933,-0.592052,-0.0228357,-0.192806,-0.236973,-0.00914931,0.00640071,1.37356,5,0.1,5,0.9,-0.0466006,-1.43512,0.669864,0.866026,0.134831,0.00524437,-8.9407e-07,0.0766292,0.00299141,0.0105962,2.2596,5,0.1,6,0.9,-1.5564,3.62823,0.709266,0.443804,0.285175,0.0275298,0.151731,0.0974834,0.00939891,0.0126767,0.323176,5,0.1,7,0.9,1.62071,1.43021,0.642759,-0.861779,-0.0456382,-0.0243359,0.111051,-0.0258386,-0.0138097,0.015112,2.33513,5,0.1,8,0.9,3.67619,-3.49509,0.610301,-0.041461,0.866026,-0.00189096,-0.0237226,0,-0.00110269,0.0197176,2.27075,5,0.1,9,0.9,-0.100813,2.17173,0.50703,-0.236089,-0.35275,-0.0259942,-0.0807117,-0.120655,0.0454001,0.00721326,0.211265,5,0.1
0,1,0.389217,2.94247,0.705182,0.866025,0.0225604,0.0175864,1.43051e-05,0.00488758,0.0038147,0.0205484,2.27136,5,0.1,1,1,-1.07284,-1.89491,0.574744,0.264597,0.866026,0.00724941,0.0578165,-5.96046e-05,0.00154972,0.00932754,2.2229,5,0.1,2,1,1.15447,-1.39143,0.706549,-0.866026,-0.38352,0.0165254,0,-0.0842214,0.00363588,0.0150013,2.17514,5,0.1,3,1,1.88095,3.92803,0.580299,0.604844,-0.35305,0.0145435,-0.0130534,0.0077486,-0.000327826,0.0107918,0.37326,5,0.1,4,1,-2.90114,3.53983,0.630635,-0.863463,-0.605714,-0.0233635,0.0513792,-0.0174046,-0.000685453,0.00612063,0.952213,5,0.1,5,1,0.0400019,-1.42131,0.670401,0.866025,0.140458,0.00546426,-1.19209e-06,0.0301003,0.00119209,0.00727806,2.28019,5,0.1,6,1,-1.5115,3.65708,0.712051,0.451574,0.290167,0.0280127,-0.00971556,-0.00619888,-0.000625849,0.0221777,0.21977,5,0.1,7,1,1.53544,1.42553,0.640268,-0.839522,-0.0475347,-0.0253484,0.350893,-0.0100136,-0.00539422,0.0156273,2.20215,5,0.1,8,1,3.67195,-3.40849,0.610107,-0.0432074,0.866026,-0.00197291,-0.00953674,0,-0.000417233,0.0172546,2.27063,5,0.1,9,1,-0.124701,2.13604,0.504675,-0.240223,-0.358933,-0.0209689,0.00518173,0.0077486,0.0536144,0.00666239,0.144453,5,0.1
0,1.1,0.47582,2.94476,0.706963,0.866026,0.0231486,0.0180453,-1.93715e-06,0.00555813,0.00432134,0.0205484,2.27136,5,0.1,1,1.1,-1.04602,-1.80831,0.575479,0.27217,0.866025,0.00745365,0.0766143,1.49012e-05,0.00207499,0.00932754,2.2229,5,0.1,2,1.1,1.06787,-1.43038,0.708228,-0.865986,-0.396341,0.0170922,0.00159442,-0.143513,0.00642985,0.0150013,2.17514,5,0.1,3,1.1,1.94134,3.89278,0.581751,0.602193,-0.351491,0.0144791,-0.0620857,0.0363439,-0.00149757,0.0107918,0.37326,5,0.1,4,1.1,-2.98729,3.4792,0.628296,-0.858989,-0.606065,-0.0233783,0.0743866,0.0334233,0.00127777,0.00612063,0.952213,5,0.1,5,1.1,0.126598,-1.40679,0.67094,0.865721,0.15266,0.00518924,-0.0121595,0.186607,-0.0060834,0.00727806,2.28019,5,0.1,6,1.1,-1.46641,3.68605,0.714848,0.449597,0.2889,0.0278885,-0.0463352,-0.0297427,-0.00287965,0.0221777,0.21977,5,0.1,7,1.1,1.45426,1.42073,0.637705,-0.77535,-0.0485243,-0.02588,0.878103,-0.00747293,-0.00400841,0.0156273,2.20215,5,0.1,8,1.1,3.66757,-3.32189,0.609907,-0.0443701,0.866026,-0.00202432,-0.0111014,0,-0.000491738,0.0172546,2.27063,5,0.1,9,1.1,-0.148687,2.1002,0.502849,-0.239171,-0.357359,-0.0155605,0.0246581,0.0368506,0.0533909,0.00666239,0.144453,5,0.1
0,1.2,0.562422,2.94709,0.708783,0.866026,0.0234485,0.0182763,0,-0.000596046,-0.000447035,0.0202542,2.27135,5,0.1,1,1.2,-1.0185,-1.72171,0.576232,0.277025,0.866026,0.00758469,0.00864267,-5.96046e-05,0.000208616,0.0099271,2.22116,5,0.1,2,1.2,0.981291,-1.47063,0.709965,-0.865389,-0.407314,0.0175953,0.0127256,-0.0554919,0.00274181,0.0142787,2.16793,5,0.1,3,1.2,2.00102,3.85794,0.583186,0.588757,-0.343639,0.0141546,-0.221133,0.129104,-0.00527501,0.00825909,0.248197,5,0.1,4,1.2,-3.07253,3.419,0.625974,-0.842512,-0.5952,-0.0229612,0.279784,0.19896,0.007689,0.00628206,0.64589,5,0.1,5,1.2,0.213012,-1.39052,0.67142,0.861162,0.172991,0.0043571,-0.0972819,0.199497,-0.0100136,0.00715211,2.26321,5,0.1,6,1.2,-1.42185,3.71469,0.717612,0.439566,0.28246,0.0272676,-0.165045,-0.106215,-0.010252,0.0101886,0.146132,5,0.1,7,1.2,1.38162,1.41586,0.635107,-0.673443,-0.0486434,-0.0259459,1.11902,0.00661612,0.00357628,0.0135299,2.05379,5,0.1,8,1.2,3.66309,-3.23528,0.609703,-0.0449896,0.866026,-0.00205189,0.000596046,0,5.96046e-05,0.0199614,2.2706,5,0.1,9,1.2,-0.17239,2.06478,0.501551,-0.233835,-0.349385,-0.0104874,0.0878423,0.131249,0.0472665,0.00599675,0.165167,5,0.1
0,1.3,0.649025,2.94944,0.710613,0.866026,0.0235423,0.0183506,-3.72529e-06,0.00116229,0.000916421,0.0202542,2.27135,5,0.1,1,1.3,-0.990671,-1.63511,0.576994,0.280033,0.866025,0.00766451,0.034783,1.49012e-05,0.000935048,0.0099271,2.22116,5,0.1,2,1.3,0.894755,-1.5117,0.71174,-0.865668,-0.413968,0.0179073,-0.00794977,-0.056155,0.00258535,0.0142787,2.16793,5,0.1,3,1.3,2.05881,3.82421,0.584575,0.566896,-0.330875,0.0136326,-0.234365,0.136837,-0.00560656,0.00825909,0.248197,5,0.1,4,1.3,-3.15546,3.36045,0.623716,-0.815919,-0.575428,-0.0221976,0.281721,0.215456,0.00831857,0.00628206,0.64589,5,0.1,5,1.3,0.299028,-1.37237,0.671817,0.861746,0.188245,0.00366149,0.0607967,0.102296,-0.00443682,0.00715211,2.26321,5,0.1,6,1.3,-1.3787,3.74241,0.720289,0.423249,0.271962,0.0262549,-0.174962,-0.112519,-0.0108555,0.0101886,0.146132,5,0.1,7,1.3,1.32031,1.41103,0.63253,-0.550636,-0.0479931,-0.0255944,1.25658,0.00826269,0.004448,0.0135299,2.05379,5,0.1,8,1.3,3.65858,-3.14868,0.609498,-0.0452567,0.866026,-0.00206139,-0.00332296,0,-0.00012666,0.0199614,2.2706,5,0.1,9,1.3,-0.195482,2.03028,0.500723,-0.229061,-0.342251,-0.00624247,0.0237413,0.0354871,0.0372082,0.00599675,0.165167,5,0.1
0,1.4,0.735627,2.95179,0.712448,0.866026,0.0234604,0.0182852,0,-0.0038147,-0.00292063,0.0195485,2.27137,5,0.1,1,1.4,-0.962563,-1.5485,0.577763,0.28113,0.866026,0.00769347,-0.0245869,-5.96046e-05,-0.000685453,0.00934608,2.22131,5,0.1,2,1.4,0.808162,-1.55323,0.713538,-0.866026,-0.414926,0.0179574,0,0.0517964,-0.00217557,0.0116772,2.18361,5,0.1,3,1.4,2.11419,3.79189,0.585907,0.538838,-0.314498,0.0129595,-0.338793,0.197768,-0.00810623,0.0073513,0.163367,5,0.1,4,1.4,-3.23544,3.30414,0.621543,-0.781208,-0.548953,-0.021176,0.432253,0.326633,0.0126064,0.0101151,0.431504,5,0.1,5,1.4,0.385469,-1.35322,0.672166,0.866026,0.192985,0.00337213,0,-0.0089407,-0.00175834,0.0068631,2.08001,5,0.1,6,1.4,-1.33736,3.76898,0.722853,0.402308,0.258493,0.0249565,-0.253022,-0.162482,-0.015676,0.00992771,0.0961849,5,0.1,7,1.4,1.27125,1.40628,0.63,-0.434431,-0.0466794,-0.0248909,1.02502,0.0192523,0.0102818,0.0107947,1.88818,5,0.1,8,1.4,3.65405,-3.06208,0.609291,-0.0452101,0.866026,-0.00205785,0.00607967,0,0.000298023,0.0186603,2.27061,5,0.1,9,1.4,-0.218267,1.99624,0.500266,-0.226313,-0.338143,-0.00309944,0.0428408,0.0640154,0.0255704,0.00605169,0.098759,5,0.1
0,1.5,0.82223,2.95413,0.714268,0.866026,0.0232704,0.0181405,-3.72529e-06,-0.0012815,-0.000976026,0.0195485,2.27137,5,0.1,1,1.5,-0.934477,-1.4619,0.578532,0.281138,0.866025,0.00769282,0.00819564,1.49012e-05,0.000219792,0.00934608,2.22131,5,0.1,2,1.5,0.72156,-1.59446,0.715327,-0.866026,-0.409254,0.0178635,3.72529e-06,0.0764057,-0.000670552,0.0116772,2.18361,5,0.1,3,1.5,2.16644,3.76139,0.587164,0.506521,-0.295632,0.0121858,-0.322849,0.18847,-0.0077337,0.0073513,0.163367,5,0.1,4,1.5,-3.3115,3.25082,0.619487,-0.740438,-0.517731,-0.0199714,0.407651,0.31364,0.0121035,0.0101151,0.431504,5,0.1,5,1.5,0.472072,-1.33402,0.6725,0.866026,0.1903,0.0033603,-3.57628e-06,-0.0486374,0.00106916,0.0068631,2.08001,5,0.1,6,1.5,-1.29834,3.79405,0.725274,0.378173,0.242993,0.0234613,-0.241108,-0.154883,-0.0149384,0.00992771,0.0961849,5,0.1,7,1.5,1.23251,1.40171,0.627561,-0.347042,-0.044837,-0.0239066,0.638805,0.0191405,0.0102185,0.0107947,1.88818,5,0.1,8,1.5,3.64955,-2.97548,0.609086,-0.0450093,0.866026,-0.00204714,0.000551343,0,3.35276e-05,0.0186603,2.27061,5,0.1,9,1.5,-0.240724,1.96268,0.500064,-0.22298,-0.333162,-0.00113342,0.0342177,0.0511333,0.0142232,0.00605169,0.098759,5,0.1
0,1.6,0.908832,2.95644,0.716074,0.866026,0.0229836,0.0179186,0,-0.00536442,-0.00417233,0.0183003,2.2714,5,0.1,1,1.6,-0.906379,-1.3753,0.579301,0.279945,0.866026,0.0076592,-0.0437796,-5.96046e-05,-0.00119209,0.0102215,2.22099,5,0.1,2,1.6,0.634957,-1.63487,0.717106,-0.866026,-0.397193,0.0176609,0,0.174522,-0.00408292,0.00643446,0.782007,5,0.1,3,1.6,2.21541,3.73282,0.588342,0.471711,-0.275314,0.0113502,-0.383735,0.223994,-0.00920892,0.0101655,0.107376,5,0.1,4,1.6,-3.38339,3.2007,0.617553,-0.695568,-0.483578,-0.0186548,0.506163,0.380158,0.0146925,0.00621754,0.286444,5,0.1,5,1.6,0.558674,-1.31533,0.672843,0.866026,0.182652,0.00350773,0,-0.106514,0.00151992,0.00681261,1.6365,5,0.1,6,1.6,-1.26179,3.81754,0.727542,0.35218,0.226301,0.0218511,-0.28652,-0.184178,-0.0177622,0.010976,0.406639,5,0.1,7,1.6,1.2,1.39733,0.625226,-0.312746,-0.0425965,-0.0227109,0.0703931,0.0267029,0.0142455,0.0117478,1.60938,5,0.1,8,1.6,3.64506,-2.88887,0.608882,-0.0446498,0.866026,-0.00202954,0.00834465,0,0.000357628,0.0180001,2.27065,5,0.1,9,1.6,-0.262796,1.9297,0.500006,-0.217716,-0.325298,-0.000156462,0.0782162,0.116885,0.00587106,0.00885331,0.133579,5,0.1
0,1.7,0.995435,2.95872,0.717851,0.866025,0.0226576,0.0176643,0,-0.00242889,-0.00189617,0.0183003,2.2714,5,0.1,1,1.7,-0.878477,-1.2887,0.580064,0.278896,0.866025,0.00763116,0.00499189,1.49012e-05,0.000145286,0.0102215,2.22099,5,0.1,2,1.7,0.550189,-1.6733,0.718946,-0.813071,-0.367638,0.019908,0.977524,0.401191,0.0424609,0.00643446,0.782007,5,0.1,3,1.7,2.26075,3.70635,0.589433,0.43574,-0.254317,0.0104866,-0.348568,0.20349,-0.00837818,0.0101655,0.107376,5,0.1,4,1.7,-3.45054,3.15415,0.615758,-0.648278,-0.447888,-0.0172758,0.460103,0.346974,0.0133961,0.00621754,0.286444,5,0.1,5,1.7,0.645276,-1.2976,0.673204,0.865974,0.171624,0.00372762,-0.00208244,-0.117481,0.00252947,0.00681261,1.6365,5,0.1,6,1.7,-1.22746,3.83929,0.729642,0.338657,0.209036,0.0201863,-0.0231937,-0.16731,-0.0161342,0.010976,0.406639,5,0.1,7,1.7,1.16792,1.3932,0.623023,-0.338278,-0.0400783,-0.0213671,-0.497729,0.0249371,0.0133067,0.0117478,1.60938,5,0.1,8,1.7,3.64062,-2.80227,0.60868,-0.0442669,0.866026,-0.00201408,0.00193715,0,7.45058e-05,0.0180001,2.27065,5,0.1,9,1.7,-0.284325,1.89775,0.500012,-0.213948,-0.313455,0.000197254,0.0130422,0.129722,0.00157207,0.00885331,0.133579,5,0.1
0,1.8,1.08204,2.96097,0.719605,0.866026,0.0222802,0.0173718,0,-0.00584126,-0.00467896,0.0174189,2.27144,5,0.1,1,1.8,-0.850602,-1.20209,0.580827,0.277892,0.866026,0.00760406,-0.0377595,-5.96046e-05,-0.00104308,0.0122797,2.22191,5,0.1,2,1.8,0.474824,-1.70779,0.721182,-0.685395,-0.319844,0.0249952,1.50885,0.541329,0.0542402,0.00964168,2.79204,5,0.1,3,1.8,2.30255,3.68195,0.590439,0.399822,-0.233352,0.00962317,-0.37837,0.220776,-0.00908971,0.0073968,0.150945,5,0.1,4,1.8,-3.51301,3.11113,0.614098,-0.600106,-0.41194,-0.0158876,0.51713,0.380993,0.0146925,0.00660293,0.1901,5,0.1,5,1.8,0.731846,-1.28107,0.673589,0.865194,0.158602,0.00395328,-0.0166297,-0.145137,0.00172853,0.00934636,1.25243,5,0.1,6,1.8,-1.19355,3.85934,0.731579,0.340652,0.191808,0.0185236,0.0335574,-0.181675,-0.0175238,0.0112177,0.166237,5,0.1,7,1.8,1.13123,1.38932,0.620956,-0.397602,-0.037393,-0.0199363,-0.625193,0.0295639,0.0157952,0.0142223,1.28841,5,0.1,8,1.8,3.63621,-2.71567,0.608479,-0.0438154,0.866026,-0.00199527,0.0089407,0,0.00038743,0.0176747,2.2707,5,0.1,9,1.8,-0.305656,1.86714,0.500035,-0.212367,-0.297746,0.000223517,0.0300854,0.190794,-0.000804663,0.00898698,0.272625,5,0.1
0,1.9,1.16864,2.96318,0.721325,0.866026,0.0219099,0.0170724,0,-0.00280142,-0.00226125,0.0174189,2.27144,5,0.1,1,1.9,-0.822885,-1.11549,0.581585,0.277166,0.866025,0.00758348,0.00595674,1.49012e-05,0.000160187,0.0122797,2.22191,5,0.1,2,1.9,0.411685,-1.73691,0.723904,-0.595836,-0.261268,0.0289748,0.398925,0.616118,0.0257604,0.00964168,2.79204,5,0.1,3,1.9,2.3409,3.65966,0.591359,0.369213,-0.212897,0.0087806,-0.254571,0.194669,-0.00802055,0.0073968,0.150945,5,0.1,4,1.9,-3.57057,3.07174,0.612579,-0.552199,-0.376596,-0.0145249,0.458121,0.337124,0.0130013,0.00660293,0.1901,5,0.1,5,1.9,0.818357,-1.26592,0.673994,0.86527,0.144556,0.0041483,-0.00111759,-0.138849,0.0018999,0.00934636,1.25243,5,0.1,6,1.9,-1.15947,3.87775,0.733357,0.339034,0.177535,0.0171473,-0.0706092,-0.114784,-0.0110641,0.0112177,0.166237,5,0.1,7,1.9,1.08789,1.38572,0.619037,-0.472088,-0.0346353,-0.0184632,-0.80099,0.0266507,0.0142343,0.0142223,1.28841,5,0.1,8,1.9,3.63185,-2.62907,0.608281,-0.0433929,0.866026,-0.00197748,0.00211596,0,8.56817e-05,0.0176747,2.2707,5,0.1,9,1.9,-0.326492,1.83832,0.500052,-0.202046,-0.278433,0.000117999,0.168445,0.201449,-0.00121072,0.00898698,0.272625,5,0.1
0,2,1.25524,2.96535,0.723019,0.866026,0.0215113,0.0167549,0,-0.00596046,-0.00473857,0.0160238,2.27147,5,0.1,1,2,-0.795182,-1.02889,0.582343,0.276123,0.866024,0.00755489,-0.0391006,2.98023e-05,-0.00110269,0.00960454,2.23024,5,0.1,2,2,0.353055,-1.75993,0.726886,-0.58485,-0.199142,0.0302434,-0.0882149,0.615299,0.000119209,0.0116055,0.0586904,5,0.1,3,2,2.37662,3.63934,0.592197,0.345314,-0.19334,0.0079751,-0.238657,0.200629,-0.00828505,0.00738404,0.19119,5,0.1,4,2,-3.62349,3.03577,0.611192,-0.50559,-0.342619,-0.0132158,0.486135,0.350237,0.0135303,0.00731333,0.126602,5,0.1,5,2,0.904767,-1.25216,0.674417,0.861423,0.130329,0.00428706,-0.0920892,-0.14776,0.000655651,0.00654684,0.930626,5,0.1,6,2,-1.12613,3.89497,0.73502,0.325865,0.166947,0.016126,-0.194728,-0.105143,-0.0101328,0.0101906,0.319607,5,0.1,7,2,1.03682,1.38239,0.617263,-0.546825,-0.0318825,-0.0169933,-0.647426,0.0291467,0.015527,0.0121214,0.990317,5,0.1,8,2,3.62753,-2.54246,0.608084,-0.0429451,0.866026,-0.00195801,0.00870228,0,0.00038743,0.0208297,2.27074,5,0.1,9,2,-0.345681,1.81155,0.500058,-0.180177,-0.256485,-2.98023e-06,0.261858,0.24122,-0.00116229,0.00674168,0.259857,5,0.1
0,2.1,1.34185,2.96748,0.724677,0.866026,0.0211269,0.0164473,0,-0.00292063,-0.00233948,0.0160238,2.27147,5,0.1,1,2.1,-0.767742,-0.942285,0.583097,0.272619,0.866026,0.00755079,-0.0422895,0,0.000506639,0.00960454,2.23024,5,0.1,2,2.1,0.294638,-1.77686,0.729897,-0.57854,-0.140532,0.0298324,0.208363,0.55071,-0.0086911,0.0116055,0.0586904,5,0.1,3,2.1,2.41038,3.62086,0.592959,0.333251,-0.177461,0.00731898,-0.0359565,0.128016,-0.00529364,0.00738404,0.19119,5,0.1,4,2.1,-3.67176,3.00315,0.609934,-0.460892,-0.310427,-0.0119725,0.422224,0.303105,0.0117049,0.00731333,0.126602,5,0.1,5,2.1,0.990715,-1.23984,0.674849,0.858952,0.11643,0.00435878,-0.00568852,-0.132889,0.000566244,0.00654684,0.930626,5,0.1,6,2.1,-1.09487,3.91113,0.736581,0.295966,0.156136,0.0150838,-0.387549,-0.114083,-0.0110008,0.0101906,0.319607,5,0.1,7,2.1,0.978778,1.37934,0.615637,-0.613869,-0.0291882,-0.015558,-0.644401,0.0256374,0.0136606,0.0121214,0.990317,5,0.1,8,2.1,3.62326,-2.45586,0.607889,-0.0425506,0.866026,-0.00194069,0.00177324,0,7.45058e-05,0.0208297,2.27074,5,0.1,9,2.1,-0.362264,1.78709,0.500053,-0.150473,-0.232611,-8.89413e-05,0.323555,0.239901,-0.000584871,0.00674168,0.259857,5,0.1
0,2.2,1.42845,2.96958,0.726308,0.866026,0.0207186,0.016129,0,-0.00584126,-0.00464916,0.0125108,1.92461,5,0.1,1,2.2,-0.740772,-0.855682,0.583854,0.26577,0.866026,0.00756681,-0.102311,0,-0.000596046,0.0106266,2.23407,5,0.1,2,2.2,0.238271,-1.7883,0.73282,-0.544532,-0.0900179,0.0284582,0.464312,0.455797,-0.0189543,0.00856883,0.0998409,5,0.1,3,2.2,2.44363,3.60371,0.593666,0.33229,-0.165808,0.00683665,-0.00810623,0.113368,-0.00467896,0.00705781,0.323251,5,0.1,4,2.2,-3.71575,2.97361,0.608794,-0.418705,-0.280392,-0.0108138,0.431538,0.304222,0.0117421,0.00752905,0.146307,5,0.1,5,2.2,1.0764,-1.22885,0.675286,0.852045,0.103295,0.00436306,-0.166476,-0.131607,-0.000596046,0.0101467,0.666083,5,0.1,6,2.2,-1.06742,3.92614,0.738031,0.251245,0.143647,0.0138789,-0.493705,-0.137448,-0.013262,0.00962995,0.311647,5,0.1,7,2.2,0.914504,1.37655,0.61415,-0.667371,-0.0266045,-0.0141799,-0.391275,0.0267029,0.0141859,0.0105501,0.722936,5,0.1,8,2.2,3.61902,-2.36926,0.607696,-0.0421464,0.866026,-0.00192225,0.00810623,0,0.00038743,0.0180824,2.27078,5,0.1,9,2.2,-0.375652,1.76505,0.500042,-0.117027,-0.207916,-0.00012517,0.338361,0.2563,-0.000178814,0.0079054,0.255069,5,0.1
0,2.3,1.51505,2.97163,0.727902,0.866026,0.0202745,0.0157754,0,-0.00405312,-0.00320002,0.0125108,1.92461,5,0.1,1,2.3,-0.71464,-0.76908,0.584611,0.257256,0.866026,0.0075954,-0.0797026,-3.72529e-06,0.000674278,0.0106266,2.23407,5,0.1,2,2.3,0.186041,-1.79522,0.735561,-0.500705,-0.050227,0.0262605,0.426039,0.341311,-0.0249222,0.00856883,0.0998409,5,0.1,3,2.3,2.47643,3.5877,0.594326,0.320118,-0.154362,0.00636401,-0.22386,0.118688,-0.00489876,0.00705781,0.323251,5,0.1,4,2.3,-3.75579,2.94687,0.607763,-0.384971,-0.256352,-0.00988636,0.268042,0.192955,0.00744313,0.00752905,0.146307,5,0.1,5,2.3,1.16093,-1.21915,0.67572,0.839048,0.0911316,0.00430755,-0.132188,-0.113986,-0.000685453,0.0101467,0.666083,5,0.1,6,2.3,-1.04486,3.93984,0.739354,0.199549,0.130372,0.0125978,-0.529163,-0.130713,-0.0126213,0.00962995,0.311647,5,0.1,7,2.3,0.845811,1.37402,0.612799,-0.705514,-0.0241553,-0.0128781,-0.332985,0.0230446,0.0122562,0.0105501,0.722936,5,0.1,8,2.3,3.61483,-2.28266,0.607505,-0.0418041,0.866026,-0.00190502,0.0012964,0,7.07805e-05,0.0180824,2.27078,5,0.1,9,2.3,-0.385685,1.74551,0.500029,-0.0839991,-0.183067,-0.000125356,0.316827,0.242971,0.000149012,0.0079054,0.255069,5,0.1
0,2.4,1.60165,2.97363,0.729461,0.866026,0.0197411,0.0153571,0,-0.00739098,-0.00575185,0.0140307,1.50491,5,0.1,1,2.4,-0.689354,-0.682477,0.585373,0.247838,0.866026,0.00761449,-0.116885,0,-0.000566244,0.00852994,2.23966,5,0.1,2,2.4,0.138129,-1.79872,0.738054,-0.457006,-0.0214279,0.0234962,0.457298,0.236511,-0.0301898,0.00957247,0.273576,5,0.1,3,2.4,2.50705,3.57289,0.594937,0.289702,-0.141573,0.00583678,-0.37396,0.139236,-0.00575185,0.00848004,0.312664,5,0.1,4,2.4,-3.79305,2.92212,0.606809,-0.360763,-0.238961,-0.00921637,0.234604,0.167131,0.0064373,0.00972974,0.0849951,5,0.1,5,2.4,1.24397,-1.21059,0.676146,0.819066,0.0800967,0.00419617,-0.294149,-0.108302,-0.00163913,0.00715302,0.46385,5,0.1,6,2.4,-1.02753,3.95221,0.74055,0.147364,0.117064,0.011313,-0.506043,-0.137329,-0.013262,0.00999139,0.309593,5,0.1,7,2.4,0.773949,1.37171,0.611572,-0.727491,-0.0218689,-0.0116616,-0.0803173,0.0231862,0.012368,0.0128389,0.505554,5,0.1,8,2.4,3.61066,-2.19605,0.607315,-0.0414491,0.866026,-0.00188798,0.00762939,0,0.000357628,0.0190091,2.27081,5,0.1,9,2.4,-0.392572,1.72841,0.500018,-0.0545591,-0.158957,-0.000101328,0.26837,0.240803,0.000298023,0.00821069,0.425137,5,0.1
0,2.5,1.68825,2.97557,0.730971,0.865897,0.0190966,0.0148566,-0.0051558,-0.00628829,-0.00489131,0.0140307,1.50491,5,0.1,1,2.5,-0.665067,-0.595875,0.586134,0.238456,0.866003,0.00763489,-0.0825785,-0.000927597,0.000502914,0.00852994,2.23966,5,0.1,2,2.5,0.0942836,-1.79982,0.740252,-0.423401,-0.00197478,0.0204734,0.246319,0.155151,-0.0302754,0.00957247,0.273576,5,0.1,3,2.5,2.53393,3.5594,0.595493,0.246182,-0.128218,0.00528507,-0.482962,0.130609,-0.00539422,0.00848004,0.312664,5,0.1,4,2.5,-3.8281,2.89896,0.605915,-0.341193,-0.224963,-0.0086776,0.173271,0.12368,0.0047572,0.00972974,0.0849951,5,0.1,5,2.5,1.32453,-1.20309,0.676558,0.79249,0.0702159,0.00404054,-0.268787,-0.0913069,-0.0016205,0.00715302,0.46385,5,0.1,6,2.5,-1.01522,3.96326,0.741618,0.0998639,0.104164,0.010067,-0.438541,-0.123039,-0.0118837,0.00999139,0.309593,5,0.1,7,2.5,0.700806,1.36964,0.610463,-0.734475,-0.019755,-0.0105339,-0.028383,0.0197217,0.0105239,0.0128389,0.505554,5,0.1,8,2.5,3.60654,-2.10945,0.607127,-0.0411462,0.866026,-0.00187326,0.000968575,0,5.21541e-05,0.0190091,2.27081,5,0.1,9,2.5,-0.396736,1.7137,0.500009,-0.0294161,-0.135564,-6.91041e-05,0.226537,0.227526,0.000327826,0.00821069,0.425137,5,0.1
0,2.6,1.77478,2.97745,0.732429,0.863963,0.0183463,0.0142723,-0.0411868,-0.00941753,-0.00718236,0.01016,1.14281,5,0.1,1,2.6,-0.641657,-0.509287,0.586899,0.229305,0.865656,0.00763386,-0.108808,-0.00740528,-0.000864267,0.0093606,2.38594,5,0.1,2,2.6,0.0530391,-1.79936,0.742148,-0.402243,0.0101119,0.0174433,0.200313,0.0890493,-0.0303388,0.0121596,2.06048,5,0.1,3,2.6,2.55605,3.54724,0.595994,0.195557,-0.114995,0.00473857,-0.51868,0.135779,-0.00557303,0.00708101,0.309563,5,0.1,4,2.6,-3.86134,2.87708,0.605071,-0.323296,-0.212371,-0.00819266,0.196457,0.135899,0.00521541,0.00667145,0.0665445,5,0.1,5,2.6,1.40226,-1.19651,0.676953,0.760019,0.0614882,0.00384897,-0.401974,-0.0846386,-0.00232458,0.00702604,0.316744,5,0.1,6,2.6,-1.00728,3.97307,0.742566,0.0604987,0.0920594,0.00889748,-0.345826,-0.12064,-0.0116825,0.013885,0.305446,5,0.1,7,2.6,0.627509,1.36776,0.609462,-0.728004,-0.0178158,-0.00950098,0.178546,0.0194311,0.0104308,0.0122293,0.343149,5,0.1,8,2.6,3.60243,-2.02285,0.60694,-0.0408232,0.866026,-0.00185817,0.00727177,-5.96046e-05,0.000327826,0.0186745,2.27084,5,0.1,9,2.6,-0.398664,1.70126,0.500004,-0.0104651,-0.11338,-3.8743e-05,0.148311,0.216246,0.000268221,0.00532844,0.883375,5,0.1
0,2.7,1.86115,2.97924,0.733823,0.864369,0.0174891,0.013618,0.0121817,-0.00835955,-0.00641495,0.01016,1.14281,5,0.1,1,2.7,-0.619179,-0.423711,0.587661,0.220877,0.838045,0.0076199,-0.0713728,-0.479294,0.00013411,0.0093606,2.38594,5,0.1,2,2.7,0.0124846,-1.79808,0.743745,-0.419758,0.0138538,0.0145466,-0.45664,-0.00602752,-0.0276528,0.0121596,2.06048,5,0.1,3,2.7,2.57303,3.53639,0.596442,0.144426,-0.10229,0.00421675,-0.495747,0.120759,-0.00496581,0.00708101,0.309563,5,0.1,4,2.7,-3.89284,2.85643,0.604274,-0.307657,-0.20152,-0.00777645,0.13335,0.0923574,0.00354275,0.00667145,0.0665445,5,0.1,5,2.7,1.47638,-1.19075,0.677327,0.722812,0.053845,0.0036303,-0.367947,-0.0699162,-0.00216812,0.00702604,0.316744,5,0.1,6,2.7,-1.00282,3.98171,0.743401,0.0302665,0.0809237,0.00781938,-0.2556,-0.104159,-0.0100806,0.013885,0.305446,5,0.1,7,2.7,0.555575,1.36607,0.60856,-0.710298,-0.0160534,-0.00855532,0.200897,0.0163466,0.00876188,0.0122293,0.343149,5,0.1,8,2.7,3.59837,-1.93625,0.606755,-0.0405457,0.866025,-0.00184597,0.000759959,1.49012e-05,3.35276e-05,0.0186745,2.27084,5,0.1,9,2.7,-0.39895,1.69096,0.500105,0.00413056,-0.0930628,0.00294717,0.113068,0.190832,0.0528656,0.00532844,0.883375,5,0.1
0,2.8,1.9475,2.98094,0.73515,0.860593,0.0165582,0.0129014,-0.1086,-0.0107288,-0.00822544,0.0101705,0.839824,5,0.1,1,2.8,-0.597464,-0.342672,0.588422,0.21304,0.780043,0.0075832,-0.0936091,-0.643835,-0.0012219,0.0107456,2.14006,5,0.1,2,2.8,-0.032222,-1.79683,0.745066,-0.477001,0.0103831,0.0119001,-0.616475,-0.0568032,-0.0252426,0.00805162,2.18804,5,0.1,3,2.8,2.58509,3.52675,0.596839,0.0977933,-0.0904381,0.00372827,-0.430942,0.117898,-0.00482798,0.00721499,0.493093,5,0.1,4,2.8,-3.92293,2.83674,0.603515,-0.29372,-0.191987,-0.00741184,0.157356,0.106096,0.00411272,0.00742849,0.0303946,5,0.1,5,2.8,1.5467,-1.18571,0.677678,0.682092,0.0472128,0.00339597,-0.463903,-0.0639558,-0.0025928,0.010183,0.213727,5,0.1,6,2.8,-1.0009,3.98929,0.744134,0.00977218,0.0708818,0.00684857,-0.153661,-0.0983477,-0.00953674,0.0101506,0.476232,5,0.1,7,2.8,0.485755,1.36454,0.607748,-0.683609,-0.0144571,-0.00770092,0.349746,0.015974,0.00855327,0.00953826,0.228899,5,0.1,8,2.8,3.59432,-1.84964,0.606571,-0.0402451,0.866026,-0.00183135,0.00715256,-5.96046e-05,0.000298023,0.0197945,2.27087,5,0.1,9,2.8,-0.398212,1.68257,0.500706,0.00788271,-0.0750899,0.00936538,-0.0501573,0.169277,0.0703335,0.00710322,1.05388,5,0.1
0,2.9,2.03324,2.98255,0.736402,0.855297,0.0155717,0.0121431,-0.0425056,-0.00953674,-0.00736117,0.0101705,0.839824,5,0.1,1,2.9,-0.576563,-0.268226,0.589176,0.205383,0.708958,0.00750553,-0.0693053,-0.65202,-0.000707805,0.0107456,2.14006,5,0.1,2,2.9,-0.0835419,-1.79606,0.746135,-0.552931,0.00515543,0.00955444,-0.830379,-0.0481755,-0.0217557,0.00805162,2.18804,5,0.1,3,2.9,2.5928,3.51827,0.597189,0.0577711,-0.0795826,0.00328328,-0.360698,0.101328,-0.00415742,0.00721499,0.493093,5,0.1,4,2.9,-3.95154,2.81805,0.602793,-0.278516,-0.181798,-0.00701752,0.155732,0.103623,0.00400841,0.00742849,0.0303946,5,0.1,5,2.9,1.61272,-1.18128,0.678006,0.639078,0.041485,0.0031543,-0.417739,-0.0520125,-0.00234321,0.010183,0.213727,5,0.1,6,2.9,-1.00065,3.99592,0.744774,-0.00358708,0.0619229,0.00598012,-0.0946075,-0.0825971,-0.0079982,0.0101506,0.476232,5,0.1,7,2.9,0.419074,1.36317,0.607017,-0.650158,-0.0130145,-0.00692904,0.340249,0.0133142,0.00712276,0.00953826,0.228899,5,0.1,8,2.9,3.59032,-1.76304,0.606389,-0.0399716,0.866025,-0.00182102,0.00077486,1.49012e-05,1.86265e-05,0.0197945,2.27087,5,0.1,9,2.9,-0.397851,1.67586,0.502106,-0.00398797,-0.0594527,0.0194977,-0.241874,0.14405,0.122759,0.00710322,1.05388,5,0.1
0,3,2.11836,2.98405,0.737578,0.844413,0.0145555,0.0113577,-0.206828,-0.0110865,-0.00864267,0.0116684,0.598784,5,0.1,1,3,-0.556397,-0.2,0.589921,0.197516,0.66166,0.00737756,-0.0948906,-0.299559,-0.00214577,0.00773988,1.76582,5,0.1,2,3,-0.142856,-1.79577,0.746987,-0.630671,0.000688434,0.00753254,-0.672132,-0.0414252,-0.0187159,0.00945014,2.96909,5,0.1,3,3,2.59695,3.5108,0.597497,0.026983,-0.0698149,0.00288039,-0.250459,0.0954866,-0.0039041,0.00718819,0.478366,5,0.1,4,3,-3.97856,2.80043,0.602113,-0.26108,-0.170273,-0.00657141,0.19908,0.130892,0.00503659,0.00879774,0.0118709,5,0.1,5,3,1.67448,-1.17738,0.678309,0.59495,0.0365645,0.00291169,-0.47946,-0.0473857,-0.0026226,0.0114978,0.143409,5,0.1,6,3,-1.00127,4.00171,0.745333,-0.00661612,0.0540495,0.00521839,0.0405312,-0.0758171,-0.00736117,0.00822511,0.909241,5,0.1,7,3,0.355883,1.36193,0.606359,-0.612056,-0.0117183,-0.00623763,0.43586,0.0129342,0.00691414,0.0109119,0.294671,5,0.1,8,3,3.58633,-1.67644,0.606207,-0.0396729,0.866026,-0.001809,0.00691414,-5.96046e-05,0.000298023,0.0196227,2.2709,5,0.1,9,3,-0.4,1.6706,0.504691,-0.0441127,-0.0461727,0.0322402,-0.542209,0.12213,0.124872,0.00715917,0.912434,5,0.1
0,3.1,2.20176,2.98546,0.738673,0.822647,0.0135336,0.0105608,-0.255093,-0.00979006,-0.0076443,0.0116684,0.598784,5,0.1,1,3.1,-0.537073,-0.134313,0.59065,0.189206,0.660184,0.00719186,-0.0792257,0.188452,-0.00187755,0.00773988,1.76582,5,0.1,2,3.1,-0.209418,-1.79572,0.747653,-0.700536,0.00152998,0.00582831,-0.670991,0.0374019,-0.0154562,0.00945014,2.96909,5,0.1,3,3.1,2.5985,3.50427,0.597767,0.00564009,-0.0611287,0.00252472,-0.159115,0.0800341,-0.00328198,0.00718819,0.478366,5,0.1,4,3.1,-4.00366,2.78406,0.601481,-0.240823,-0.156995,-0.00606021,0.210166,0.137433,0.00529364,0.00879774,0.0118709,5,0.1,5,3.1,1.73171,-1.17394,0.678588,0.550659,0.0323473,0.00266954,-0.424154,-0.0381395,-0.00230223,0.0114978,0.143409,5,0.1,6,3.1,-1.00164,4.00677,0.745821,0.00176057,0.0472136,0.00455519,0.189438,-0.0624359,-0.0060536,0.00822511,0.909241,5,0.1,7,3.1,0.296599,1.36067,0.605768,-0.575502,-0.0149995,-0.00561597,0.322626,-0.0683218,0.00571832,0.0109119,0.294671,5,0.1,8,3.1,3.58238,-1.58984,0.606027,-0.0394125,0.866025,-0.00179829,0.000700355,1.49012e-05,2.6077e-05,0.0196227,2.2709,5,0.1,9,3.1,-0.407777,1.66656,0.508574,-0.116452,-0.0351215,0.0455578,-0.844972,0.0995025,0.134248,0.00715917,0.912434,5,0.1
0,3.2,2.28249,2.98676,0.73969,0.788999,0.0125229,0.0097692,-0.435114,-0.010848,-0.00843406,0.00986038,0.555372,5,0.1,1,3.2,-0.518576,-0.0670979,0.591358,0.180332,0.685077,0.0069499,-0.103652,0.24824,-0.00312924,0.00732015,1.37037,5,0.1,2,3.2,-0.282461,-1.79539,0.748163,-0.755667,0.00479221,0.00442564,-0.393792,0.0150204,-0.0126958,0.00963003,2.89548,5,0.1,3,3.2,2.59852,3.49854,0.598003,-0.00259876,-0.0535071,0.00221133,-0.000357628,0.0739098,-0.00306964,0.0099201,0.911629,5,0.1,4,3.2,-4.02665,2.76907,0.600903,-0.218391,-0.142354,-0.00549555,0.241041,0.157118,0.00602007,0.00848451,0.00620987,5,0.1,5,3.2,1.78463,-1.17089,0.678843,0.507113,0.0287354,0.00243783,-0.459015,-0.0349879,-0.00241399,0.00781488,0.096127,5,0.1,6,3.2,-1,4.01119,0.746247,0.0361145,0.041306,0.00398457,0.483602,-0.0567436,-0.00551343,0.0102966,1.36579,5,0.1,7,3.2,0.240658,1.35876,0.605234,-0.542829,-0.0235617,-0.00506192,0.350416,-0.0950694,0.00554323,0.0112866,0.211709,5,0.1,8,3.2,3.57845,-1.50323,0.605848,-0.0391185,0.866026,-0.00178516,0.00691414,-5.96046e-05,0.000327826,0.02014,2.27093,5,0.1,9,3.2,-0.423743,1.66351,0.513767,-0.202652,-0.0261635,0.0578463,-0.834107,0.0802875,0.106364,0.00758252,0.736759,5,0.1
0,3.3,2.35839,2.98781,0.740628,0.721538,0.00708178,0.00899406,-0.879064,-0.0884831,-0.0073649,0.00986038,0.555372,5,0.1,1,3.3,-0.501023,0.00309759,0.592038,0.170948,0.721678,0.00666268,-0.0904817,0.420684,-0.00286847,0.00732015,1.37037,5,0.1,2,3.3,-0.36008,-1.79472,0.748547,-0.796324,0.00850521,0.00328999,-0.371916,0.014931,-0.0100881,0.00963003,2.89548,5,0.1,3,3.3,2.59838,3.49353,0.59821,0.00258163,-0.04685,0.00193492,0.165015,0.0607371,-0.00252575,0.0099201,0.911629,5,0.1,4,3.3,-4.0473,2.75561,0.600383,-0.194754,-0.126963,-0.0049049,0.234902,0.152782,0.00587106,0.00848451,0.00620987,5,0.1,5,3.3,1.83318,-1.16818,0.679076,0.464925,0.0256347,0.00221664,-0.399642,-0.0279918,-0.00207499,0.00781488,0.096127,5,0.1,6,3.3,-0.993019,4.01505,0.74662,0.11107,0.0362307,0.00349209,0.939302,-0.0460148,-0.00445545,0.0102966,1.36579,5,0.1,7,3.3,0.18795,1.35587,0.604753,-0.512536,-0.0347236,-0.00456488,0.277635,-0.120424,0.00455603,0.0112866,0.211709,5,0.1,8,3.3,3.57456,-1.41663,0.60567,-0.0388503,0.866025,-0.00177184,0.000834465,1.49012e-05,4.84288e-05,0.02014,2.27093,5,0.1,9,3.3,-0.448362,1.66126,0.520084,-0.290422,-0.0190442,0.0683453,-0.876172,0.062637,0.0980496,0.00758252,0.736759,5,0.1
0,3.4,2.42565,2.98801,0.74149,0.619638,-0.00348091,0.00824779,-1.12963,-0.115275,-0.00777841,0.0084503,0.51748,5,0.1,1,3.4,-0.484401,0.0772285,0.592689,0.161146,0.758356,0.00633448,-0.110015,0.267409,-0.0038445,0.00717404,1.02478,5,0.1,2,3.4,-0.441218,-1.79406,0.748829,-0.822041,0.00154972,0.00239313,-0.109748,-0.172079,-0.00789762,0.0110108,2.78574,5,0.1,3,3.4,2.6,3.48914,0.598392,0.0350475,-0.0411034,0.00169575,0.469446,0.0555515,-0.00229478,0.00870739,1.06111,5,0.1,4,3.4,-4.06559,2.74368,0.599922,-0.170922,-0.111467,-0.00430793,0.243425,0.158191,0.00607967,0.00671083,0.00187573,5,0.1,5,3.4,1.87768,-1.16575,0.679287,0.424668,0.0229686,0.00201017,-0.415921,-0.0259876,-0.00211596,0.00935986,0.11143,5,0.1,6,3.4,-0.976981,4.01846,0.746948,0.21055,0.0319004,0.00307262,0.992239,-0.0419617,-0.00405312,0.0120738,1.11146,5,0.1,7,3.4,0.138113,1.3518,0.604319,-0.483522,-0.0463039,-0.00412315,0.318236,-0.1055,0.00444055,0.0128726,0.149629,5,0.1,8,3.4,3.57068,-1.33003,0.605493,-0.0385523,0.866026,-0.00175685,0.00703335,-5.96046e-05,0.000327826,0.0216062,2.27096,5,0.1,9,3.4,-0.48155,1.65965,0.527358,-0.37014,-0.0135362,0.076516,-0.685856,0.0481009,0.0615418,0.00646563,0.562054,5,0.1
0,3.5,2.48164,2.98703,0.742278,0.497773,-0.0164744,0.0075358,-1.2694,-0.137463,-0.0067018,0.0084503,0.51748,5,0.1,1,3.5,-0.468802,0.154575,0.593304,0.151071,0.789048,0.00597797,-0.0967979,0.297012,-0.00348687,0.00717404,1.02478,5,0.1,2,3.5,-0.524079,-1.79496,0.749032,-0.835166,-0.02352,0.00170469,-0.109727,-0.402316,-0.00594556,0.0110108,2.78574,5,0.1,3,3.5,2.60666,3.48529,0.59855,0.104492,-0.0361402,0.00149067,0.852853,0.0449568,-0.00185519,0.00870739,1.06111,5,0.1,4,3.5,-4.08148,2.73332,0.599521,-0.147018,-0.0959355,-0.0037102,0.235319,0.152871,0.00588596,0.00671083,0.00187573,5,0.1,5,3.5,1.9184,-1.16356,0.679479,0.39256,0.0210214,0.00184514,-0.252075,-0.0145584,-0.0013113,0.00935986,0.11143,5,0.1,6,3.5,-0.950664,4.02145,0.747237,0.317299,0.0281729,0.00271313,1.08514,-0.0335872,-0.00323355,0.0120738,1.11146,5,0.1,7,3.5,0.0912179,1.34663,0.603927,-0.455256,-0.0571046,-0.00372585,0.265151,-0.104606,0.00363588,0.0128726,0.149629,5,0.1,8,3.5,3.56685,-1.24343,0.605318,-0.0382666,0.866025,-0.00174316,0.00102818,1.49012e-05,5.58794e-05,0.0216062,2.27096,5,0.1,9,3.5,-0.521979,1.65851,0.535308,-0.437384,-0.00937134,0.0822928,-0.624262,0.0356585,0.0496209,0.00646563,0.562054,5,0.1
0,3.6,2.5251,2.98471,0.742999,0.372326,-0.0297368,0.00686646,-1.21188,-0.122547,-0.00688434,0.00918591,0.501163,5,0.1,1,3.6,-0.454192,0.234682,0.593884,0.140887,0.80937,0.00560135,-0.110522,0.0749743,-0.00417233,0.0100361,2.08166,5,0.1,2,3.6,-0.607857,-1.8,0.749176,-0.836729,-0.0837028,0.0011906,0.108063,-0.776291,-0.00438094,0.00911126,2.34933,5,0.1,3,3.6,2.62155,3.48189,0.598691,0.193894,-0.0318944,0.00131428,0.884533,0.041008,-0.00166893,0.00641991,1.13429,5,0.1,4,3.6,-4.09502,2.72448,0.599179,-0.123775,-0.0808358,-0.00312775,0.229359,0.14925,0.00578165,0.00707221,0.000845963,5,0.1,5,3.6,1.95649,-1.16152,0.679658,0.369766,0.0197798,0.00172853,-0.222862,-0.0115037,-0.00116229,0.0128679,0.0649546,5,0.1,6,3.6,-0.913745,4.02411,0.747493,0.417656,0.0249982,0.00240803,0.880361,-0.0305176,-0.00295043,0.00826414,0.299916,5,0.1,7,3.6,0.0470509,1.34044,0.603572,-0.427424,-0.0662178,-0.00337213,0.304096,-0.0735521,0.00354648,0.00965627,0.183679,5,0.1,8,3.6,3.56303,-1.15682,0.605145,-0.0379443,0.866026,-0.00172853,0.00679493,-5.96046e-05,0.000327826,0.0219786,2.271,5,0.1,9,3.6,-0.568503,1.65773,0.543737,-0.489134,-0.00631809,0.08571,-0.386864,0.0257492,0.0157952,0.00740762,0.404766,5,0.1
0,3.7,2.55645,2.98111,0.743653,0.257463,-0.0420798,0.00623912,-1.05286,-0.118896,-0.00586361,0.00918591,0.501163,5,0.1,1,3.7,-0.440309,0.31654,0.594424,0.139635,0.831471,0.00521513,0.0613146,0.298203,-0.00372157,0.0100361,2.08166,5,0.1,2,3.7,-0.691081,-1.81313,0.749275,-0.827744,-0.185532,0.000819936,0.107519,-1.17798,-0.00309199,0.00911126,2.34933,5,0.1,3,3.7,2.64577,3.47889,0.598814,0.29294,-0.0282537,0.00116555,1.03615,0.0328571,-0.00134483,0.00641991,1.13429,5,0.1,4,3.7,-4.10627,2.71713,0.598895,-0.101606,-0.0664108,-0.00256887,0.213653,0.138998,0.00538304,0.00707221,0.000845963,5,0.1,5,3.7,1.9925,-1.15959,0.679825,0.351281,0.0188926,0.00163233,-0.163876,-0.00729412,-0.000845641,0.0128679,0.0649546,5,0.1,6,3.7,-0.868036,4.02647,0.74772,0.491541,0.0222988,0.00214744,0.582792,-0.0243485,-0.00233948,0.00826414,0.299916,5,0.1,7,3.7,0.00546476,1.33355,0.60325,-0.407146,-0.0707079,-0.00310577,0.132499,-0.017345,0.00200421,0.00965627,0.183679,5,0.1,8,3.7,3.55925,-1.07022,0.604973,-0.0376683,0.866025,-0.00171429,0.00102818,1.11759e-05,5.58794e-05,0.0219786,2.271,5,0.1,9,3.7,-0.619288,1.65722,0.552381,-0.525225,-0.00416059,0.0870153,-0.307612,0.0177696,0.00679493,0.00740762,0.404766,5,0.1
0,3.8,2.5774,2.97635,0.744248,0.166452,-0.0525951,0.00565946,-0.753164,-0.087738,-0.00590086,0.0107961,0.462901,5,0.1,1,3.8,-0.425918,0.40109,0.594927,0.148892,0.857388,0.00482798,0.105426,0.172734,-0.00414252,0.00694281,1.61895,5,0.1,2,3.8,-0.773079,-1.83768,0.749343,-0.809191,-0.304872,0.000561774,0.28798,-1.14691,-0.00211596,0.00849039,1.82118,5,0.1,3,3.8,2.68009,3.47622,0.598924,0.390708,-0.0251412,0.00103861,0.874877,0.03016,-0.0012517,0.00693868,0.31117,5,0.1,4,3.8,-4.11539,2.71116,0.598664,-0.0811219,-0.0530779,-0.00205189,0.195503,0.127316,0.00491738,0.0178322,0.000683143,5,0.1,5,3.8,2.02679,-1.15774,0.679984,0.334078,0.0181407,0.00154674,-0.192165,-0.00858307,-0.000953674,0.00706845,0.0507597,5,0.1,6,3.8,-0.816555,4.02858,0.747923,0.532007,0.0199914,0.00192523,0.219017,-0.0228882,-0.00217557,0.00891065,0.658281,5,0.1,7,3.8,-0.0346618,1.32647,0.602948,-0.395538,-0.0699282,-0.00293106,0.122488,0.0315309,0.00163913,0.0102905,0.41855,5,0.1,8,3.8,3.5555,-0.983619,0.604802,-0.0373542,0.866026,-0.00169873,0.00691414,0,0.000298023,0.0218615,2.27103,5,0.1,9,3.8,-0.673035,1.65688,0.561078,-0.546098,-0.00269711,0.0864848,-0.0916123,0.0118017,-0.0197291,0.0100307,0.278983,5,0.1
0,3.9,2.59077,2.97066,0.744786,0.106657,-0.0609778,0.00512432,-0.415921,-0.0757277,-0.00497699,0.0107961,0.462901,5,0.1,1,3.9,-0.410392,0.487352,0.59539,0.162326,0.86522,0.00443645,0.147143,0.0109875,-0.00380725,0.00694281,1.61895,5,0.1,2,3.9,-0.852649,-1.87414,0.74939,-0.782361,-0.42522,0.000390969,0.277888,-1.19765,-0.0013411,0.00849039,1.82118,5,0.1,3,3.9,2.72312,3.47384,0.599023,0.4655,-0.0224732,0.00092769,0.604466,0.0240505,-0.0010021,0.00693868,0.31117,5,0.1,4,3.9,-4.12256,2.70647,0.598483,-0.0626244,-0.0410307,-0.00158623,0.173837,0.113264,0.00438094,0.0178322,0.000683143,5,0.1,5,3.9,2.05939,-1.15596,0.680135,0.318853,0.0175294,0.00147149,-0.129953,-0.00472367,-0.000633299,0.00706845,0.0507597,5,0.1,6,3.9,-0.762036,4.03048,0.748106,0.559516,0.0179723,0.00173356,0.289176,-0.0181794,-0.00172853,0.00891065,0.658281,5,0.1,7,3.9,-0.0738569,1.31975,0.602663,-0.390182,-0.0636393,-0.00276426,0.0127096,0.088729,0.00176206,0.0102905,0.41855,5,0.1,8,3.9,3.55178,-0.897016,0.604633,-0.0370592,0.866026,-0.00168681,0.0012219,-3.72529e-06,4.47035e-05,0.0218615,2.27103,5,0.1,9,3.9,-0.728062,1.65666,0.569628,-0.553466,-0.0017643,0.0844533,-0.0337325,0.00713766,-0.0237897,0.0100307,0.278983,5,0.1
0,4,2.6,2.96423,0.745274,0.0841618,-0.0670433,0.00463575,-0.0516176,-0.0426769,-0.00491738,0.00749884,0.391682,5,0.1,1,4,-0.393463,0.573779,0.595814,0.175546,0.861782,0.00404567,0.105634,-0.0848472,-0.00408292,0.00768441,0.963758,5,0.1,2,4,-0.929317,-1.92231,0.749424,-0.748707,-0.533703,0.000283122,0.414968,-0.927269,-0.000804663,0.0112628,1.3503,5,0.1,3,4,2.77214,3.47171,0.59911,0.509042,-0.0201762,0.000832975,0.257373,0.0222921,-0.000953674,0.0110696,0.482212,5,0.1,4,4,-4.128,2.70291,0.598345,-0.0464439,-0.0304878,-0.00117868,0.149488,0.0975132,0.00375509,0.00889213,0.00054547,5,0.1,5,4,2.09061,-1.15423,0.680279,0.305086,0.0170112,0.00140667,-0.157952,-0.00655651,-0.00077486,0.0098028,0.0231619,5,0.1,6,4,-0.704805,4.03219,0.748271,0.582665,0.0162363,0.0015676,0.143975,-0.0171661,-0.00163913,0.0122067,0.932396,5,0.1,7,4,-0.112804,1.31388,0.602396,-0.388155,-0.0531763,-0.00256747,0.048179,0.11611,0.00220537,0.0116801,1.4392,5,0.1,8,4,3.54809,-0.810413,0.604465,-0.0367284,0.866026,-0.00167191,0.00703335,0,0.000298023,0.0197389,2.27106,5,0.1,9,4,-0.783335,1.65651,0.577929,-0.549191,-0.0012219,0.0812501,0.133723,0.00411272,-0.0422597,0.00641497,0.186931,5,0.1
0,4.1,2.6088,2.95733,0.745715,0.0972487,-0.070909,0.00419123,0.270903,-0.0313371,-0.00411645,0.00749884,0.391682,5,0.1,1,4.1,-0.375642,0.659045,0.596197,0.178431,0.838614,0.00361428,-0.0416916,-0.37954,-0.00452995,0.00768441,0.963758,5,0.1,2,4.1,-1.00222,-1.9803,0.749449,-0.709864,-0.624497,0.000224914,0.386033,-0.840478,-0.000398606,0.0112628,1.3503,5,0.1,3,4.1,2.82442,3.4698,0.599189,0.536435,-0.0182044,0.00074869,0.257045,0.0178367,-0.000756234,0.0110696,0.482212,5,0.1,4,4.1,-4.13193,2.70032,0.598245,-0.0326492,-0.0214867,-0.000831671,0.126034,0.0822842,0.00317395,0.00889213,0.00054547,5,0.1,5,4.1,2.12035,-1.15256,0.680416,0.289734,0.0163751,0.00133282,-0.158414,-0.00675768,-0.000748783,0.0098028,0.0231619,5,0.1,6,4.1,-0.645419,4.03373,0.74842,0.60769,0.0147216,0.00142306,0.303674,-0.0137389,-0.00130385,0.0122067,0.932396,5,0.1,7,4.1,-0.151977,1.30927,0.60215,-0.39997,-0.038355,-0.00235522,-0.23268,0.164337,0.00208989,0.0116801,1.4392,5,0.1,8,4.1,3.54444,-0.723811,0.604298,-0.036414,0.866026,-0.00165934,0.00146031,-3.72529e-06,4.84288e-05,0.0197389,2.27106,5,0.1,9,4.1,-0.837589,1.65641,0.585849,-0.535463,-0.000945292,0.0771741,0.158928,0.00163168,-0.0416674,0.00641497,0.186931,5,0.1
0,4.2,2.62013,2.95012,0.746114,0.130826,-0.0727594,0.00378788,0.36788,-0.00357628,-0.00402331,0.00862768,0.316712,5,0.1,1,4.2,-0.358207,0.74052,0.596536,0.16842,0.786057,0.00314265,-0.152647,-0.668764,-0.00491738,0.0104454,0.816728,5,0.1,2,4.2,-1.07117,-2.04648,0.74947,-0.66745,-0.693691,0.000198185,0.478625,-0.510335,-0.000208616,0.00823146,0.956755,5,0.1,3,4.2,2.87912,3.46806,0.599261,0.554782,-0.0164926,0.000675023,0.0867844,0.0171661,-0.000685453,0.00618545,0.519103,5,0.1,4,4.2,-4.13461,2.69856,0.598177,-0.0212789,-0.0140607,-0.000545382,0.101089,0.0660419,0.002563,0.00703606,0.000339918,5,0.1,5,4.2,2.14847,-1.15096,0.680545,0.271863,0.0155658,0.00125021,-0.20504,-0.00983477,-0.000923872,0.00968293,0.0140776,5,0.1,6,4.2,-0.583224,4.03514,0.748556,0.634293,0.0133991,0.00129491,0.190198,-0.0133514,-0.0012517,0.0131657,2.52583,5,0.1,7,4.2,-0.193251,1.30623,0.601925,-0.425644,-0.022921,-0.00213981,-0.242136,0.13411,0.00226498,0.00988928,3.17482,5,0.1,8,4.2,3.54081,-0.637208,0.604133,-0.0360668,0.866026,-0.0016436,0.00715256,0,0.000298023,0.0213879,2.27109,5,0.1,9,4.2,-0.890179,1.65632,0.593344,-0.514404,-0.000858307,0.072518,0.274181,0.000417233,-0.0531077,0.00686567,0.123421,5,0.1
0,4.3,2.6353,2.94283,0.746474,0.174262,-0.0728913,0.00342485,0.468686,0.00360608,-0.00335276,0.00862768,0.316712,5,0.1,1,4.3,-0.342305,0.815454,0.596825,0.148084,0.709595,0.00263546,-0.244981,-0.850819,-0.00516325,0.0104454,0.816728,5,0.1,2,4.3,-1.13564,-2.11832,0.749489,-0.622883,-0.741212,0.000189058,0.432789,-0.402167,-7.45058e-06,0.00823146,0.956755,5,0.1,3,4.3,2.93522,3.46649,0.599325,0.568096,-0.0149734,0.000614394,0.142977,0.0137985,-0.000555068,0.00618545,0.519103,5,0.1,4,4.3,-4.13626,2.69746,0.598134,-0.0122301,-0.00814497,-0.000315811,0.0798404,0.0522137,0.00203028,0.00703606,0.000339918,5,0.1,5,4.3,2.17465,-1.14945,0.680666,0.25189,0.0146,0.00116052,-0.201702,-0.00993162,-0.000905246,0.00968293,0.0140776,5,0.1,6,4.3,-0.517861,4.03604,0.748679,0.68042,0.00145882,0.00116676,0.639185,-0.20206,-0.00131875,0.0131657,2.52583,5,0.1,7,4.3,-0.2377,1.30477,0.601723,-0.46835,-0.00612568,-0.00192048,-0.545117,0.149854,0.00215694,0.00988928,3.17482,5,0.1,8,4.3,3.53722,-0.550606,0.603969,-0.0357322,0.866026,-0.00163028,0.00166893,-3.57628e-06,6.33299e-05,0.0213879,2.27109,5,0.1,9,4.3,-0.940294,1.65623,0.600342,-0.487969,-0.000882149,0.0675071,0.269588,-0.000715256,-0.0491291,0.00686567,0.123421,5,0.1
0,4.4,2.65502,2.93559,0.7468,0.218987,-0.0715911,0.00309795,0.402212,0.0240803,-0.00330806,0.0107655,0.247001,5,0.1,1,4.4,-0.328811,0.881928,0.597062,0.121083,0.61781,0.00212044,-0.287548,-0.975311,-0.0050962,0.00829252,0.432067,5,0.1,2,4.4,-1.19571,-2.19402,0.749508,-0.577512,-0.767803,0.000193715,0.488341,-0.104427,2.98023e-05,0.00755945,0.654787,5,0.1,3,4.4,2.99259,3.46506,0.599384,0.577152,-0.0136375,0.000558794,0.0122786,0.0135899,-0.000506639,0.00655896,0.778422,5,0.1,4,4.4,-4.13712,2.69688,0.598112,-0.00531673,-0.003618,-0.000140071,0.0588894,0.0385046,0.00149012,0.00906704,0.000162235,5,0.1,5,4.4,2.19879,-1.14805,0.680777,0.230354,0.0135064,0.00106543,-0.233531,-0.012219,-0.00110269,0.00900783,0.00449975,5,0.1,6,4.4,-0.446511,4.03502,0.748789,0.745896,-0.0228405,0.00103116,0.601113,-0.265837,-0.00143051,0.0102854,2.34778,5,0.1,7,4.4,-0.287308,1.30461,0.601541,-0.523023,-0.000423193,-0.00170469,-0.498757,-0.0585914,0.00223517,0.0105284,2.97047,5,0.1,8,4.4,3.53366,-0.464003,0.603807,-0.0353634,0.866025,-0.00161529,0.00715256,1.43051e-05,0.000357628,0.0213643,2.27113,5,0.1,9,4.4,-0.987651,1.65614,0.60684,-0.457975,-0.000974536,0.0623539,0.340343,-0.000953674,-0.0552833,0.00819335,0.138472,5,0.1
0,4.5,2.67898,2.92859,0.747094,0.260311,-0.0680737,0.00280039,0.39959,0.0460446,-0.00274554,0.0107655,0.247001,5,0.1,1,4.5,-0.318149,0.939511,0.597252,0.0921851,0.539675,0.00170786,-0.285706,-0.624549,-0.00329316,0.00829252,0.432067,5,0.1,2,4.5,-1.25116,-2.27127,0.749528,-0.532343,-0.775904,0.00020247,0.431851,-0.0270158,0.000119209,0.00755945,0.654787,5,0.1,3,4.5,3.05075,3.46396,0.599478,0.588577,-0.00674687,0.00166567,0.1688,0.112072,0.0200607,0.00655896,0.778422,5,0.1,4,4.5,-4.13739,2.69669,0.598104,-0.000280887,-0.000320375,-1.22935e-05,0.0420511,0.0275671,0.00107288,0.00906704,0.000162235,5,0.1,5,4.5,2.22065,-1.14676,0.680878,0.20682,0.0122571,0.000955537,-0.239596,-0.0129268,-0.00111014,0.00900783,0.00449975,5,0.1,6,4.5,-0.368828,4.03155,0.748886,0.807245,-0.0451498,0.000897236,0.571674,-0.18242,-0.0012666,0.0102854,2.34778,5,0.1,7,4.5,-0.342403,1.30401,0.601381,-0.580451,-0.0163583,-0.00149766,-0.594882,-0.329576,0.00194088,0.0105284,2.97047,5,0.1,8,4.5,3.53015,-0.377401,0.603646,-0.0350174,0.866025,-0.00159685,0.00183284,-1.78814e-06,0.000104308,0.0213643,2.27113,5,0.1,9,4.5,-1.03205,1.65603,0.612843,-0.432381,-0.0011513,0.0580534,0.198916,-0.00233203,-0.0343397,0.00819335,0.138472,5,0.1
0,4.6,2.70684,2.92205,0.747361,0.294709,-0.0624478,0.0025332,0.271082,0.0660419,-0.00271201,0.00920184,0.189803,5,0.1,1,4.6,-0.310324,0.990684,0.597409,0.0647627,0.486331,0.00143647,-0.259221,-0.470966,-0.00223517,0.00779619,0.820914,5,0.1,2,4.6,-1.30221,-2.34866,0.749549,-0.488308,-0.768131,0.000213087,0.460505,0.202537,0.000119209,0.0351057,0.438373,5,0.1,3,4.6,3.11039,3.46393,0.599761,0.60274,0.00661612,0.00411272,0.0802279,0.145555,0.0268519,0.0332759,0.583504,5,0.1,4,4.6,-4.13723,2.69678,0.598108,0.00312328,0.00192523,7.45058e-05,0.0267029,0.0174046,0.000685453,0.0237236,5.84607e-05,5,0.1,5,4.6,2.24011,-1.1456,0.680968,0.18208,0.0108957,0.000840425,-0.2563,-0.0142455,-0.00113249,0.00827154,0.00134327,5,0.1,6,4.6,-0.285641,4.02625,0.748969,0.851704,-0.0597,0.00077337,0.286423,-0.110388,-0.00116229,0.0111586,2.2924,5,0.1,7,4.6,-0.403211,1.3,0.601241,-0.632575,-0.0706643,-0.00130981,-0.408292,-0.730336,0.00184774,0.00916144,0.701671,5,0.1,8,4.6,3.52666,-0.290798,0.603488,-0.0346422,0.866025,-0.00157803,0.00739098,1.43051e-05,0.000357628,0.018011,2.27116,5,0.1,9,4.6,-1.07434,1.65591,0.618487,-0.413463,-0.00139475,0.0548601,0.199378,-0.00232458,-0.0321269,0.00707778,0.0799782,5,0.1
0,4.7,2.73766,2.91626,0.747602,0.320957,-0.0522774,0.00228984,0.234589,0.129953,-0.00223145,0.00920184,0.189803,5,0.1,1,4.7,-0.305086,1.03775,0.597543,0.0406746,0.461396,0.0012761,-0.218594,-0.0823401,-0.00109524,0.00779619,0.820914,5,0.1,2,4.7,-1.34888,-2.42447,0.749571,-0.445988,-0.747528,0.00022687,0.399962,0.234649,0.00013411,0.0351057,0.438373,5,0.1,3,4.7,3.17123,3.46539,0.600322,0.614915,0.0230365,0.00720453,0.126019,0.173748,0.0330359,0.0332759,0.583504,5,0.1,4,4.7,-4.13681,2.69705,0.598118,0.00519753,0.00328198,0.00012815,0.01508,0.00992417,0.000394881,0.0237236,5.84607e-05,5,0.1,5,4.7,2.25705,-1.14458,0.681046,0.15661,0.00946391,0.00072727,-0.253141,-0.014402,-0.00112876,0.00827154,0.00134327,5,0.1,6,4.7,-0.199593,4.01992,0.749041,0.86513,-0.0653349,0.000668969,0.0358035,-0.0184476,-0.000942498,0.0111586,2.2924,5,0.1,7,4.7,-0.467269,1.29088,0.601131,-0.6372,-0.0976108,-0.000784919,0.275042,0.115022,0.00789016,0.00916144,0.701671,5,0.1,8,4.7,3.52322,-0.204196,0.603331,-0.0342663,0.866025,-0.00155922,0.00216067,-2.98023e-07,0.000111759,0.018011,2.27116,5,0.1,9,4.7,-1.11481,1.65575,0.62383,-0.39652,-0.00164136,0.0521274,0.157341,-0.00244379,-0.0248998,0.00707778,0.0799782,5,0.1
0,4.8,2.77074,2.91173,0.74782,0.338393,-0.0377893,0.00207275,0.101209,0.153899,-0.00220537,0.0100457,0.135065,5,0.1,1,4.8,-0.30202,1.08375,0.597667,0.0216238,0.460267,0.00119358,-0.16059,0.0183582,-0.000655651,0.00610565,2.31386,5,0.1,2,4.8,-1.39148,-2.49783,0.749594,-0.405928,-0.717032,0.000236928,0.411034,0.391841,8.9407e-05,0.00637515,0.290323,5,0.1,3,4.8,3.23318,3.46854,0.601205,0.621605,0.0397801,0.0103846,-0.0183582,0.154376,0.0290871,0.00611322,0.421465,5,0.1,4,4.8,-4.13623,2.69742,0.598133,0.0062108,0.00395179,0.000154972,0.00524521,0.0038147,0.000119209,0.0066632,1.74912e-05,5,0.1,5,4.8,2.27145,-1.14371,0.681114,0.131476,0.0080198,0.000613928,-0.249267,-0.0144243,-0.00113249,0.010283,0.000712041,5,0.1,6,4.8,-0.113009,4.01335,0.749103,0.866026,-0.0658751,0.000579655,-3.57628e-06,-0.000953674,-0.000804663,0.0104436,2.28116,5,0.1,7,4.8,-0.528767,1.28257,0.601097,-0.585181,-0.0614196,0.00013113,0.730008,0.547588,0.00986457,0.00587353,0.210466,5,0.1,8,4.8,3.51981,-0.117593,0.603176,-0.0338674,0.866026,-0.00153929,0.00751019,-3.57628e-06,0.000327826,0.0176223,2.27161,5,0.1,9,4.8,-1.15362,1.65558,0.628915,-0.378963,-0.00185668,0.0494763,0.206292,-0.00166893,-0.0297725,0.00748755,0.0609355,5,0.1
0,4.9,2.80506,2.90876,0.748017,0.347537,-0.0214692,0.0018754,0.0662804,0.167057,-0.00181422,0.0100457,0.135065,5,0.1,1,4.9,-0.300564,1.1308,0.597769,0.00843247,0.488089,0.000735652,-0.104424,0.460304,-0.00766292,0.00610565,2.31386,5,0.1,2,4.9,-1.43015,-2.56765,0.749618,-0.368375,-0.679331,0.000245776,0.351809,0.383139,7.07805e-05,0.00637515,0.290323,5,0.1,3,4.9,3.29534,3.4733,0.602391,0.621591,0.0553362,0.0133405,-0.0116229,0.149846,0.0285544,0.00611322,0.421465,5,0.1,4,4.9,-4.13559,2.69782,0.598148,0.00638738,0.00410378,0.000158697,-0.00140071,-0.000566244,-3.72529e-05,0.0066632,1.74912e-05,5,0.1,5,4.9,2.28337,-1.14298,0.681169,0.107285,0.00660811,0.000503566,-0.233755,-0.0137612,-0.00106916,0.010283,0.000712041,5,0.1,6,4.9,-0.0264061,4.00679,0.749158,0.866025,-0.0655606,0.000510272,-5.96046e-07,-0.0180006,-0.000607222,0.0104436,2.28116,5,0.1,7,4.9,-0.583817,1.27946,0.601162,-0.517325,0.00125151,0.00117999,0.639852,0.672944,0.0106469,0.00587353,0.210466,5,0.1,8,4.9,3.51636,-0.0309906,0.603023,-0.035996,0.866025,-0.0015079,-0.0424981,-5.96046e-07,0.000353903,0.0176223,2.27161,5,0.1,9,4.9,-1.19063,1.65538,0.633734,-0.362079,-0.00203755,0.0470445,0.149973,-0.00178069,-0.0213198,0.00748755,0.0609355,5,0.1
0,5,2.83999,2.90743,0.748196,0.349092,-0.00532866,0.00170022,-0.0456572,0.151873,-0.00178814,0.00952889,0.154514,5,0.1,1,5,-0.300159,1.18211,0.597798,0.000478327,0.53871,-0.000189245,-0.0560582,0.493705,-0.0101328,0.00817533,1.97256,5,0.1,2,5,-1.46525,-2.63354,0.749643,-0.33356,-0.636917,0.00025034,0.3528,0.479221,0,0.00835526,0.191795,5,0.1,3,5,3.35725,3.47953,0.603857,0.614274,0.0685692,0.0158429,-0.155091,0.11003,0.0204444,0.00863892,0.294655,5,0.1,4,5,-4.13497,2.69823,0.598164,0.00600815,0.00388026,0.000149012,-0.00619888,-0.00369549,-0.000149012,0.0109392,8.19954e-06,5,0.1,5,5,2.29296,-1.14238,0.681215,0.084877,0.00528097,0.000402331,-0.213861,-0.012815,-0.00101328,0.0118373,0.000638306,5,0.1,6,5,0.0601965,4,0.749206,0.866025,-0.0716686,0.000454485,-1.19209e-06,-0.10097,-0.000536442,0.0104546,2.27258,5,0.1,7,5,-0.632415,1.28293,0.601331,-0.455046,0.0674218,0.00218004,0.614613,0.625849,0.0090003,0.00566813,0.179012,5,0.1,8,5,3.51251,0.0556119,0.602875,-0.0410318,0.866025,-0.00145882,-0.0523329,-1.19209e-06,0.000715256,0.0190221,2.27028,5,0.1,9,5,-1.22606,1.65517,0.638329,-0.345814,-0.00218451,0.0447929,0.188291,-0.000953674,-0.0254214,0.010247,0.0272292,5,0.1
0,5.1,2.8749,2.90744,0.748358,0.350919,0.00357889,0.00156593,0.0544786,0.0356287,-0.00100583,0.00952889,0.154514,5,0.1,1,5.1,-0.300421,1.23882,0.597724,-0.00575925,0.597587,-0.00133626,-0.0585485,0.624053,-0.0121742,0.00817533,1.97256,5,0.1,2,5.1,-1.49696,-2.69494,0.749668,-0.301492,-0.591762,0.00025006,0.298396,0.441462,-1.11759e-05,0.00835526,0.191795,5,0.1,3,5.1,3.41797,3.48693,0.605542,0.60016,0.0790846,0.0178079,-0.151232,0.0949353,0.0177063,0.00863892,0.294655,5,0.1,4,5.1,-4.13441,2.69859,0.598178,0.00523552,0.00340603,0.000130385,-0.0089705,-0.00558794,-0.000216067,0.0109392,8.19954e-06,5,0.1,5,5.1,2.30042,-1.14192,0.68125,0.0646412,0.00406206,0.000306591,-0.190049,-0.0115186,-0.00089407,0.0118373,0.000638306,5,0.1,6,5.1,0.146799,3.99208,0.749249,0.866025,-0.0886187,0.000410341,7.45058e-07,-0.216514,-0.000365078,0.0104546,2.27258,5,0.1,7,5.1,-0.675371,1.29245,0.601593,-0.408483,0.119402,0.00302,0.34941,0.414252,0.00755116,0.00566813,0.179012,5,0.1,8,5.1,3.5081,0.142214,0.602732,-0.0476513,0.866025,-0.00139782,-0.0735372,7.45058e-07,0.000569969,0.0190221,2.27028,5,0.1,9,5.1,-1.25971,1.65495,0.642684,-0.327228,-0.00226218,0.0423152,0.193067,-0.00051409,-0.0254288,0.010247,0.0272292,5,0.1
0,5.2,2.91025,2.90785,0.74851,0.355214,0.00348687,0.0014782,0.0112057,-0.0299215,-0.000834465,0.0112477,0.0926251,5,0.1,1,5.2,-0.301229,1.30151,0.59753,-0.00965372,0.653243,-0.00251383,-0.0136942,0.446022,-0.0109076,0.00652086,1.69228,5,0.1,2,5.2,-1.52564,-2.75186,0.749693,-0.272197,-0.545669,0.000245869,0.294507,0.492215,-5.96046e-05,0.00717979,0.127066,5,0.1,3,5.2,3.47707,3.49525,0.607399,0.579989,0.0866532,0.0191897,-0.268221,0.0530481,0.00920892,0.00674411,0.201175,5,0.1,4,5.2,-4.13393,2.6989,0.59819,0.00426769,0.00279546,0.000107288,-0.0100136,-0.0064373,-0.000238419,0.00922421,7.5062e-06,5,0.1,5,5.2,2.30598,-1.14157,0.681276,0.0469983,0.00298619,0.000223517,-0.162125,-0.00995398,-0.000745058,0.00991271,0.000505022,5,0.1,6,5.2,0.233402,3.98209,0.749288,0.866025,-0.111204,0.000375509,-7.15256e-06,-0.218868,-0.000298023,0.00933986,2.2591,5,0.1,7,5.2,-0.714689,1.30612,0.601928,-0.37941,0.150532,0.0036478,0.256807,0.210404,0.00485778,0.00993764,3.28921,5,0.1,8,5.2,3.50297,0.228817,0.602595,-0.0546217,0.866025,-0.00133514,-0.0609159,1.43051e-05,0.000715256,0.0194304,2.26908,5,0.1,9,5.2,-1.2914,1.65472,0.64678,-0.305611,-0.00227392,0.0394955,0.245392,0.000417233,-0.0318289,0.00728131,0.0103346,5,0.1
0,5.3,2.94587,2.908,0.748655,0.357367,-0.000807643,0.00141272,0.014022,-0.0522137,-0.000555068,0.0112477,0.0926251,5,0.1,1,5.3,-0.302293,1.36851,0.597224,-0.011274,0.680975,-0.003614,0.00588223,0.104837,-0.0106208,0.00652086,1.69228,5,0.1,2,5.3,-1.55148,-2.80409,0.749717,-0.245545,-0.499894,0.000239722,0.246748,0.438124,-6.70552e-05,0.00717979,0.127066,5,0.1,3,5.3,3.53381,3.50417,0.609362,0.554908,0.091454,0.0200241,-0.253111,0.0387281,0.00656024,0.00674411,0.201175,5,0.1,4,5.3,-4.13355,2.69915,0.598199,0.00323877,0.00213087,8.2422e-05,-0.0103414,-0.00670552,-0.000249594,0.00922421,7.5062e-06,5,0.1,5,5.3,2.30991,-1.14131,0.681295,0.0320699,0.0020653,0.0001546,-0.135943,-0.00843406,-0.000625849,0.00991271,0.000505022,5,0.1,6,5.3,0.320004,3.96976,0.749325,0.866025,-0.136128,0.000352599,8.9407e-07,-0.261113,-0.000178814,0.00933986,2.2591,5,0.1,7,5.3,-0.752108,1.32017,0.602306,-0.37516,0.113014,0.003816,-0.116434,-0.843778,-0.00110269,0.00993764,3.28921,5,0.1,8,5.3,3.49718,0.31542,0.602465,-0.0613965,0.866025,-0.00127722,-0.0687838,-1.78814e-06,0.000506639,0.0194304,2.26908,5,0.1,9,5.3,-1.32072,1.6545,0.65057,-0.280593,-0.00221096,0.0362656,0.259228,0.000879169,-0.0333525,0.00728131,0.0103346,5,0.1
0,5.4,2.98157,2.90765,0.748793,0.355017,-0.00628829,0.00135452,-0.0733137,-0.0545979,-0.000655651,0.00895523,0.127253,5,0.1,1,5.4,-0.303214,1.43654,0.596813,-0.00509545,0.673911,-0.00455528,0.126898,-0.245273,-0.00789762,0.00636593,1.5439,5,0.1,2,5.4,-1.57483,-2.85188,0.749741,-0.22144,-0.45554,0.000229478,0.24122,0.459075,-8.9407e-05,0.00779435,0.139856,5,0.1,3,5.4,3.58793,3.51346,0.611387,0.526059,0.0936925,0.0203505,-0.337124,0.00321865,-0.000625849,0.00844477,0.135365,5,0.1,4,5.4,-4.13328,2.69933,0.598206,0.00224113,0.0014782,5.81145e-05,-0.00977516,-0.00607967,-0.000208616,0.0110931,6.35935e-06,5,0.1,5,5.4,2.31248,-1.14115,0.681308,0.0198722,0.00130832,9.83477e-05,-0.107884,-0.00679493,-0.000506639,0.00723642,0.000304875,5,0.1,6,5.4,0.406607,3.9549,0.749359,0.866025,-0.160235,0.000335276,1.43051e-05,-0.207782,-0.000149012,0.00927388,2.24748,5,0.1,7,5.4,-0.790448,1.32631,0.602675,-0.392966,0.00269115,0.00350028,-0.197738,-1.27059,-0.00485778,0.0107005,2.68415,5,0.1,8,5.4,3.49072,0.402022,0.60234,-0.067389,0.866025,-0.00122339,-0.0468493,1.43051e-05,0.000655651,0.0202085,2.26816,5,0.1,9,5.4,-1.34743,1.65428,0.654023,-0.253099,-0.00209212,0.0327349,0.293016,0.00149012,-0.0376403,0.0106553,0.00527085,5,0.1
0,5.5,3.01669,2.90678,0.748926,0.346945,-0.0106934,0.00129454,-0.0992268,-0.0336319,-0.000596046,0.00895523,0.127253,5,0.1,1,5.5,-0.302961,1.50179,0.596319,0.0125439,0.62303,-0.0053104,0.264969,-0.724599,-0.00683963,0.00636593,1.5439,5,0.1,2,5.5,-1.59601,-2.89527,0.749763,-0.204097,-0.413264,0.000220351,0.122279,0.398979,-9.68575e-05,0.00779435,0.139856,5,0.1,3,5.5,3.63893,3.52283,0.613418,0.494591,0.0937395,0.0202447,-0.308558,-0.00572205,-0.00223517,0.00844477,0.135365,5,0.1,4,5.5,-4.13311,2.69945,0.598211,0.00131056,0.000892207,3.74392e-05,-0.00873208,-0.00552833,-0.000201166,0.0110931,6.35935e-06,5,0.1,5,5.5,2.31397,-1.14105,0.681315,0.0102676,0.000700727,5.30854e-05,-0.084132,-0.00534952,-0.000394881,0.00723642,0.000304875,5,0.1,6,5.5,0.493209,3.93777,0.749392,0.866025,-0.182434,0.000325404,1.78814e-06,-0.219598,-6.70552e-05,0.00927388,2.24748,5,0.1,7,5.5,-0.831064,1.31945,0.602997,-0.421586,-0.145398,0.00288971,-0.332043,-1.60363,-0.0070706,0.0107005,2.68415,5,0.1,8,5.5,3.48373,0.488625,0.60222,-0.0725213,0.866026,-0.00117272,-0.0504702,-1.93715e-06,0.000424683,0.0202085,2.26816,5,0.1,9,5.5,-1.3713,1.65408,0.657112,-0.224365,-0.00193398,0.0290507,0.284873,0.00170618,-0.0364855,0.0106553,0.00527085,5,0.1
0,5.6,3.05077,2.90558,0.749052,0.333339,-0.0130594,0.00122786,-0.180006,-0.0138283,-0.00077486,0.0071967,0.267911,5,0.1,1,5.6,-0.3,1.56,0.595758,0.0502475,0.537422,-0.00586063,0.473499,-0.950933,-0.0039041,0.00640349,1.37922,5,0.1,2,5.6,-1.61589,-2.93462,0.749785,-0.19407,-0.37362,0.000208616,0.0907183,0.402451,-0.000149012,0.00675538,0.205436,5,0.1,3,5.6,3.68679,3.53214,0.615424,0.461602,0.0919759,0.0197798,-0.362396,-0.0318289,-0.00751019,0.00924427,0.155247,5,0.1,4,5.6,-4.13302,2.69951,0.598214,0.000524521,0.00038743,1.93715e-05,-0.00715256,-0.00452995,-0.000178814,0.00923025,4.04729e-06,5,0.1,5,5.6,2.31462,-1.141,0.681319,0.00303984,0.000238419,1.93715e-05,-0.0603199,-0.0038743,-0.000298023,0.00707194,0.000137634,5,0.1,6,5.6,0.579812,3.91852,0.749424,0.866026,-0.201315,0.000317395,0,-0.14627,-5.96046e-05,0.0112131,2.23906,5,0.1,7,5.6,-0.874817,1.29694,0.603249,-0.452015,-0.302753,0.00213683,-0.245601,-1.47808,-0.007689,0.0107505,2.13227,5,0.1,8,5.6,3.47625,0.575227,0.602105,-0.0765681,0.866026,-0.00112951,-0.0268221,0,0.000536442,0.0206094,2.2678,5,0.1,9,5.6,-1.39231,1.6539,0.659833,-0.195628,-0.0017494,0.0253707,0.291586,0.00208616,-0.0374019,0.00994171,0.00162476,5,0.1
0,5.7,3.08318,2.90424,0.749171,0.314616,-0.01336,0.00115186,-0.20121,0.00651181,-0.00077486,0.0071967,0.267911,5,0.1,1,5.7,-0.292123,1.60866,0.595153,0.110924,0.43415,-0.0062149,0.693038,-1.0557,-0.00289083,0.00640349,1.37922,5,0.1,2,5.7,-1.63468,-2.97027,0.749805,-0.18022,-0.341779,0.000197254,0.181191,0.256032,-8.9407e-05,0.00675538,0.205436,5,0.1,3,5.7,3.73148,3.54124,0.617377,0.434775,0.0903349,0.0193683,-0.203103,-0.00731647,-0.00207871,0.00924427,0.155247,5,0.1,4,5.7,-4.133,2.69953,0.598215,-0.000117719,-2.45869e-05,3.1665e-06,-0.00566244,-0.00366569,-0.000149012,0.00923025,4.04729e-06,5,0.1,5,5.7,2.31465,-1.141,0.681319,-0.00206195,-9.12696e-05,-5.96046e-06,-0.041917,-0.00272691,-0.000208616,0.00707194,0.000137634,5,0.1,6,5.7,0.666414,3.89761,0.749456,0.866026,-0.216969,0.000314787,-3.72529e-06,-0.151351,-7.45058e-06,0.0112131,2.23906,5,0.1,7,5.7,-0.921368,1.25913,0.603423,-0.479365,-0.453188,0.0013452,-0.268202,-1.46437,-0.00793487,0.0107505,2.13227,5,0.1,8,5.7,3.46845,0.66183,0.601994,-0.0794433,0.866026,-0.00108751,-0.0261664,-3.72529e-06,0.000361353,0.0206094,2.2678,5,0.1,9,5.7,-1.41043,1.65373,0.662186,-0.167086,-0.00153724,0.0217102,0.279792,0.00215322,-0.0358894,0.00994171,0.00162476,5,0.1
0,5.8,3.11356,2.90296,0.749282,0.292009,-0.0120044,0.00106841,-0.255227,0.0194311,-0.000923872,0.00669991,0.255053,5,0.1,1,5.8,-0.277522,1.647,0.594521,0.180628,0.335383,-0.00638962,0.665784,-0.887573,-0.000447035,0.00623411,1.20345,5,0.1,2,5.8,-1.65168,-3.00326,0.749824,-0.158808,-0.31864,0.000189245,0.242352,0.222683,-0.000119209,0.00934144,0.171296,5,0.1,3,5.8,3.77401,3.55023,0.619303,0.415951,0.0894189,0.0191301,-0.194311,-0.0156164,-0.00369549,0.011272,0.0905718,5,0.1,4,5.8,-4.13303,2.69951,0.598215,-0.000596046,-0.000339746,-8.9407e-06,-0.0038147,-0.0025034,-0.000149012,0.00680638,1.83876e-06,5,0.1,5,5.8,2.31426,-1.14102,0.681318,-0.00538826,-0.000309944,-2.23517e-05,-0.0251532,-0.00166893,-0.000149012,0.00747041,4.72855e-05,5,0.1,6,5.8,0.753017,3.87526,0.749487,0.866026,-0.228947,0.000312924,0,-0.077486,-8.9407e-05,0.00930859,2.21445,5,0.1,7,5.8,-0.97046,1.20696,0.603519,-0.500008,-0.584313,0.000585616,-0.121444,-1.11127,-0.00709295,0.0108019,1.59661,5,0.1,8,5.8,3.46041,0.748432,0.601888,-0.0810325,0.866026,-0.00104755,-0.0026226,0,0.000476837,0.0200631,2.26768,5,0.1,9,5.8,-1.42576,1.65359,0.66418,-0.139609,-0.00131726,0.0181824,0.269771,0.00220537,-0.0346899,0.0107011,0.000815712,5,0.1
0,5.9,3.14149,2.90188,0.749384,0.26645,-0.00943206,0.000977516,-0.26004,0.0301152,-0.000916421,0.00669991,0.255053,5,0.1,1,5.9,-0.256001,1.67644,0.59388,0.250156,0.2584,-0.00641318,0.689144,-0.597969,0.000212342,0.00623411,1.20345,5,0.1,2,5.9,-1.66626,-3.03414,0.749843,-0.132042,-0.299943,0.000179186,0.286222,0.165597,-8.9407e-05,0.00934144,0.171296,5,0.1,3,5.9,3.81476,3.55911,0.621201,0.399889,0.0882067,0.0188421,-0.145897,-0.0126958,-0.0029467,0.011272,0.0905718,5,0.1,4,5.9,-4.13311,2.69946,0.598213,-0.000913441,-0.000551715,-2.12342e-05,-0.002563,-0.00171363,-9.68575e-05,0.00680638,1.83876e-06,5,0.1,5,5.9,2.31362,-1.14105,0.681315,-0.00726543,-0.000437163,-3.34345e-05,-0.0127405,-0.000886619,-7.82311e-05,0.00747041,4.72855e-05,5,0.1,6,5.9,0.839619,3.85192,0.749518,0.866026,-0.237831,0.000307709,-3.72529e-06,-0.0855029,-3.72529e-05,0.00930859,2.21445,5,0.1,7,5.9,-1.02111,1.14306,0.603543,-0.512719,-0.691221,-0.000100769,-0.106491,-0.97578,-0.00648201,0.0108019,1.59661,5,0.1,8,5.9,3.45227,0.835035,0.601785,-0.0817191,0.866026,-0.0010116,-0.00666082,-3.72529e-06,0.000298023,0.0200631,2.26768,5,0.1,9,5.9,-1.4384,1.65347,0.665829,-0.113637,-0.00109915,0.0148409,0.249162,0.00213832,-0.0320785,0.0107011,0.000815712,5,0.1
0,6,3.1668,2.90109,0.749477,0.239348,-0.00631809,0.000882149,-0.284314,0.0308752,-0.000953674,0.00737615,0.667625,5,0.1,1,6,-0.227742,1.7,0.593242,0.31235,0.219721,-0.00630915,0.529296,-0.190437,0.00208616,0.00756248,0.980453,5,0.1,2,6,-1.67801,-3.06331,0.74986,-0.102779,-0.283068,0.000169873,0.293612,0.182271,-0.000119209,0.0106293,0.150742,5,0.1,3,6,3.85397,3.56785,0.623066,0.383544,0.0861824,0.0183925,-0.194311,-0.0303984,-0.00661612,0.00800976,0.069782,5,0.1,4,6,-4.13321,2.6994,0.59821,-0.00109673,-0.000685453,-2.83122e-05,-0.00119209,-0.000834465,-5.96046e-05,0.00619485,6.18685e-07,5,0.1,5,6,2.31285,-1.1411,0.681311,-0.00801086,-0.000491738,-3.8743e-05,-0.0026226,-0.000238419,-2.98023e-05,0.00679013,1.43185e-05,5,0.1,6,6,0.926222,3.8278,0.749549,0.866026,-0.243556,0.000302494,0,-0.0188351,-5.96046e-05,0.00853607,1.74476,5,0.1,7,6,-1.07271,1.06963,0.603502,-0.516883,-0.770888,-0.000685453,0.0411272,-0.582993,-0.00506639,0.0078851,1.13287,5,0.1,8,6,3.44409,0.921637,0.601685,-0.0816047,0.866026,-0.000980496,0.0118017,0,0.000447035,0.0164141,2.26742,5,0.1,9,6,-1.44856,1.65337,0.667157,-0.0898719,-0.000891089,0.0117764,0.225782,0.00208616,-0.0291467,0.00777949,0.000676355,5,0.1
0,6.1,3.18946,2.90071,0.749561,0.215166,-0.000847504,0.000784919,-0.209719,0.0657886,-0.000990927,0.00737615,0.667625,5,0.1,1,6.1,-0.193878,1.72182,0.592622,0.364045,0.223183,-0.00609932,0.477097,0.206523,0.00230595,0.00756248,0.980453,5,0.1,2,6.1,-1.68684,-3.09076,0.749876,-0.0741931,-0.266233,0.000158977,0.273652,0.163719,-0.000108033,0.0106293,0.150742,5,0.1,3,6.1,3.8915,3.57634,0.624877,0.368073,0.0837699,0.0178687,-0.134811,-0.0221431,-0.00477582,0.00800976,0.069782,5,0.1,4,6.1,-4.13333,2.69933,0.598207,-0.00116751,-0.000740215,-3.22238e-05,-0.000268221,-0.00025332,-2.23517e-05,0.00619485,6.18685e-07,5,0.1,5,6.1,2.31205,-1.14115,0.681307,-0.00790767,-0.000492297,-3.94881e-05,0.00430644,0.000201166,1.49012e-05,0.00679013,1.43185e-05,5,0.1,6,6.1,1.01282,3.80333,0.749579,0.866006,-0.245802,0.000298303,-0.000782311,-0.0143796,-3.35276e-05,0.00853607,1.74476,5,0.1,7,6.1,-1.12422,0.989756,0.603409,-0.513074,-0.824251,-0.00115773,0.0562146,-0.443906,-0.00426546,0.0078851,1.13287,5,0.1,8,6.1,3.43583,1.00824,0.601589,-0.0849385,0.866026,-0.000947993,-0.0654012,0,0.000257045,0.0164141,2.26742,5,0.1,9,6.1,-1.45646,1.65329,0.668195,-0.0686003,-0.000691786,0.00902759,0.199027,0.00189245,-0.0257455,0.00777949,0.000676355,5,0.1
0,6.2,3.20998,2.90093,0.749634,0.195599,0.00478029,0.000683963,-0.189304,0.0392199,-0.00104308,0.00682982,3.83081,5,0.1,1,6.2,-0.155359,1.74546,0.592025,0.403137,0.251633,-0.00581592,0.285938,0.321627,0.00351667,0.0062048,0.755435,5,0.1,2,6.2,-1.69295,-3.11653,0.749892,-0.0487894,-0.248772,0.000147521,0.231564,0.191927,-8.9407e-05,0.00574444,0.333338,5,0.1,3,6.2,3.9276,3.58459,0.626637,0.353235,0.0810385,0.0172824,-0.175595,-0.0355244,-0.00753999,0.00694753,0.0315056,5,0.1,4,6.2,-4.13344,2.69925,0.598204,-0.00115633,-0.000745058,-3.27826e-05,0.000476837,0.000357628,2.98023e-05,0.00647227,1.72328e-07,5,0.1,5,6.2,2.31129,-1.1412,0.681304,-0.00722408,-0.000455976,-3.72529e-05,0.0089407,0.000536442,5.96046e-05,0.00671319,7.87414e-06,5,0.1,6,6.2,1.09941,3.77876,0.749608,0.865713,-0.244474,0.000290573,-0.00625849,0.0492334,-5.96046e-05,0.00802001,1.33717,5,0.1,7,6.2,-1.17508,0.905611,0.603274,-0.502095,-0.852966,-0.00151992,0.177622,-0.103682,-0.00286102,0.00761089,0.773062,5,0.1,8,6.2,3.42697,1.09484,0.601495,-0.0923872,0.866026,-0.000919402,-0.0736713,0,0.000357628,0.0154007,2.26405,5,0.1,9,6.2,-1.46237,1.65323,0.668975,-0.0501662,-0.00051558,0.00663847,0.169218,0.00160933,-0.0219643,0.00666762,0.000519596,5,0.1
0,6.3,3.2287,2.90193,0.749697,0.179416,0.0166412,0.000583567,-0.142604,0.11985,-0.000968575,0.00682982,3.83081,5,0.1,1,6.3,-0.113665,1.77256,0.59146,0.429688,0.292594,-0.00547888,0.223392,0.457048,0.00339374,0.0062048,0.755435,5,0.1,2,6.3,-1.69677,-3.14047,0.749906,-0.0285737,-0.23025,0.000138488,0.172973,0.184372,-9.31323e-05,0.00574444,0.333338,5,0.1,3,6.3,3.96206,3.59251,0.628327,0.335854,0.077375,0.0165054,-0.182286,-0.0399053,-0.00846013,0.00694753,0.0315056,5,0.1,4,6.3,-4.13355,2.69918,0.598201,-0.00108108,-0.000694022,-2.93367e-05,0.000983477,0.00064075,4.09782e-05,0.00647227,1.72328e-07,5,0.1,5,6.3,2.31061,-1.14124,0.6813,-0.00617653,-0.000392646,-3.08268e-05,0.0116825,0.000700355,7.07805e-05,0.00671319,7.87414e-06,5,0.1,6,6.3,1.18598,3.75454,0.749637,0.865585,-0.239883,0.000285078,-0.00668317,0.0520796,-6.33299e-05,0.00802001,1.33717,5,0.1,7,6.3,-1.22445,0.819868,0.603109,-0.485166,-0.860314,-0.00177659,0.17827,-0.0106357,-0.00218302,0.00761089,0.773062,5,0.1,8,6.3,3.41727,1.18145,0.601405,-0.102133,0.866026,-0.000894722,-0.109687,0,0.000182539,0.0154007,2.26405,5,0.1,9,6.3,-1.46659,1.65319,0.669535,-0.0346191,-0.000365637,0.00461768,0.141367,0.00137836,-0.0184029,0.00666762,0.000519596,5,0.1
0,6.4,3.24595,2.90386,0.749751,0.165653,0.0173748,0.000488758,-0.13864,-0.141025,-0.00089407,0.0076542,3.57931,5,0.1,1,6.4,-0.0698274,1.80405,0.59093,0.444201,0.336021,-0.0051111,0.0524133,0.381708,0.00411272,0.00621764,0.562168,5,0.1,2,6.4,-1.69886,-3.16255,0.749919,-0.0140995,-0.210923,0.00012666,0.117362,0.206113,-8.9407e-05,0.00598361,0.304468,5,0.1,3,6.4,3.99466,3.60003,0.629931,0.315094,0.0726998,0.0155151,-0.239611,-0.0547171,-0.0116825,0.00750535,0.0120565,5,0.1,4,6.4,-4.13366,2.69912,0.598198,-0.000965595,-0.000619888,-2.5332e-05,0.00166893,0.000834465,5.96046e-05,0.00648607,8.02163e-08,5,0.1,5,6.4,2.31006,-1.14128,0.681297,-0.00495315,-0.000315905,-2.38419e-05,0.0126362,0.000715256,8.9407e-05,0.00692018,7.49728e-06,5,0.1,6,6.4,1.27241,3.73088,0.749665,0.861791,-0.23247,0.000275671,-0.0848174,0.102401,-0.000119209,0.00779615,0.995684,5,0.1,7,6.4,-1.27196,0.734154,0.602922,-0.463542,-0.849691,-0.00194162,0.265837,0.244409,-0.00104308,0.00714682,0.515102,5,0.1,8,6.4,3.40653,1.26805,0.601316,-0.112325,0.866026,-0.000871718,-0.0858307,0,0.000268221,0.0161568,2.01888,5,0.1,9,6.4,-1.46939,1.65316,0.669911,-0.0219405,-0.000241399,0.00296384,0.112176,0.00119209,-0.0146627,0.00814502,0.000310781,5,0.1
0,6.5,3.2618,2.90453,0.749795,0.151272,-0.0102364,0.000402052,-0.150368,-0.505358,-0.00083819,0.0076542,3.57931,5,0.1,1,6.5,-0.0251742,1.83966,0.590439,0.448121,0.376351,-0.00472488,0.00847243,0.393599,0.00375137,0.00621764,0.562168,5,0.1,2,6.5,-1.69971,-3.1826,0.749932,-0.00329986,-0.18978,0.000116695,0.0931323,0.217855,-0.000115484,0.00598361,0.304468,5,0.1,3,6.5,4.02495,3.60702,0.631423,0.290511,0.0670139,0.0143024,-0.256568,-0.0598878,-0.0127666,0.00750535,0.0120565,5,0.1,4,6.5,-4.13375,2.69906,0.598196,-0.000795722,-0.000530109,-1.94646e-05,0.00172853,0.000938773,5.58794e-05,0.00648607,8.02163e-08,5,0.1,5,6.5,2.30962,-1.14131,0.681295,-0.00367723,-0.000242144,-1.546e-05,0.0126511,0.000745058,7.45058e-05,0.00692018,7.49728e-06,5,0.1,6,6.5,1.35845,3.70812,0.749692,0.860536,-0.222798,0.000264589,0.0100061,0.0988245,-0.000115484,0.00779615,0.995684,5,0.1,7,6.5,-1.31705,0.6504,0.602723,-0.438467,-0.824762,-0.00202702,0.250041,0.281081,-0.000592321,0.00714682,0.515102,5,0.1,8,6.5,3.39483,1.35461,0.60123,-0.121858,0.864441,-0.000852253,-0.0952035,-0.0509322,0.000160187,0.0161568,2.01888,5,0.1,9,6.5,-1.47107,1.65314,0.670139,-0.0119571,-0.000134669,0.00165626,0.0874847,0.000946224,-0.0114888,0.00814502,0.000310781,5,0.1
0,6.6,3.27615,2.9,0.749832,0.13538,-0.0894845,0.000321865,-0.168204,-1.04344,-0.00077486,0.0121283,3.11665,5,0.1,1,6.6,0.0194912,1.87908,0.589985,0.442992,0.409415,-0.00433922,-0.122565,0.245631,0.00411272,0.00673856,0.401562,5,0.1,2,6.6,-1.69965,-3.20046,0.749943,0.00370741,-0.167209,0.000104308,0.0442266,0.233889,-0.000119209,0.00631137,1.27937,5,0.1,3,6.6,4.05266,3.61341,0.632786,0.263059,0.0605762,0.0129312,-0.294924,-0.0691414,-0.0147521,0.00691061,0.00615036,5,0.1,4,6.6,-4.13382,2.69901,0.598194,-0.000619888,-0.000435114,-1.49012e-05,0.00143051,0.000953674,5.96046e-05,0.00818426,8.40816e-08,5,0.1,5,6.6,2.30932,-1.14133,0.681294,-0.00246763,-0.000169873,-7.45058e-06,0.0114441,0.000715256,2.98023e-05,0.00821238,6.13552e-06,5,0.1,6,6.6,1.44438,3.68638,0.749718,0.855318,-0.211406,0.00025183,-0.149369,0.134349,-0.000178814,0.0110299,0.954989,5,0.1,7,6.6,-1.35957,0.569569,0.602519,-0.411129,-0.789014,-0.00204742,0.306368,0.451595,0.000208616,0.0118016,0.339366,5,0.1,8,6.6,3.38222,1.44054,0.601146,-0.129724,0.850627,-0.000831485,-0.0554323,-0.258148,0.000298023,0.0169279,1.93439,5,0.1,9,6.6,-1.47187,1.65313,0.670252,-0.00442863,-5.36442e-05,0.000664592,0.0632405,0.000715256,-0.00834465,0.00739999,0.000141079,5,0.1
0,6.7,3.28885,2.88464,0.74986,0.118713,-0.226816,0.000249408,-0.165746,-1.5925,-0.000670552,0.0121283,3.11665,5,0.1,1,6.7,0.0631846,1.92126,0.589571,0.430576,0.433693,-0.00395821,-0.140167,0.215366,0.00362471,0.00673856,0.401562,5,0.1,2,6.7,-1.69891,-3.21604,0.749952,0.0113005,-0.144632,9.22941e-05,0.0656173,0.218973,-0.000122935,0.00631137,1.27937,5,0.1,3,6.7,4.07751,3.61912,0.634006,0.234047,0.0537425,0.011474,-0.288725,-0.0681877,-0.0145324,0.00691061,0.00615036,5,0.1,4,6.7,-4.13387,2.69897,0.598193,-0.000477582,-0.000340119,-9.49949e-06,0.00140071,0.000938773,4.47035e-05,0.00818426,8.40816e-08,5,0.1,5,6.7,2.30913,-1.14134,0.681294,-0.00138432,-0.000101514,-4.47035e-06,0.0100732,0.000633299,2.98023e-05,0.00821238,6.13552e-06,5,0.1,6,6.7,1.52948,3.66587,0.749742,0.84862,-0.198808,0.000235438,-0.0341982,0.124067,-0.000156462,0.0110299,0.954989,5,0.1,7,6.7,-1.39923,0.49285,0.602315,-0.382518,-0.745535,-0.00201799,0.277847,0.440467,0.000439584,0.0118016,0.339366,5,0.1,8,6.7,3.36902,1.52326,0.600908,-0.133675,0.794492,-0.00525163,-0.0198781,-0.822939,-0.0787862,0.0169279,1.93439,5,0.1,9,6.7,-1.47203,1.65313,0.670281,0.000931509,7.07805e-06,-4.54485e-05,0.0442192,0.000491738,-0.00588596,0.00739999,0.000141079,5,0.1
0,6.8,3.29989,2.85384,0.749882,0.102139,-0.388575,0.000187755,-0.165939,-1.55938,-0.000596046,0.0117966,2.64806,5,0.1,1,6.8,0.105417,1.96549,0.589193,0.412568,0.448355,-0.00359416,-0.229471,0.0611544,0.00372529,0.00700749,0.27731,5,0.1,2,6.8,-1.69767,-3.22942,0.749961,0.0107825,-0.123197,7.89762e-05,-0.0942349,0.210404,-8.9407e-05,0.00648922,3.5665,5,0.1,3,6.8,4.09946,3.62415,0.635081,0.20479,0.0468314,0.0100017,-0.2985,-0.0702143,-0.0149608,0.00996348,0.00187419,5,0.1,4,6.8,-4.13391,2.69894,0.598192,-0.000345707,-0.00025034,-4.47035e-06,0.00143051,0.000834465,0,0.00839567,8.14035e-08,5,0.1,5,6.8,2.30904,-1.14135,0.681293,-0.000470877,-4.47035e-05,-1.49012e-06,0.00786781,0.000536442,2.98023e-05,0.0070346,3.67191e-06,5,0.1,6,6.8,1.61403,3.64664,0.749765,0.840005,-0.185508,0.000217557,-0.173151,0.146151,-0.000149012,0.00745279,0.687446,5,0.1,7,6.8,-1.43606,0.42063,0.602117,-0.353545,-0.69717,-0.00194907,0.309825,0.541822,0.000953674,0.00702285,0.223093,5,0.1,8,6.8,3.35563,1.59795,0.599925,-0.133109,0.693709,-0.0148267,0.0334978,-1.15758,-0.104994,0.0200321,1.45905,5,0.1,9,6.8,-1.47174,1.65313,0.670251,0.00447035,4.76837e-05,-0.000520051,0.0270009,0.000298023,-0.00363588,0.00920662,4.87195e-05,5,0.1
0,6.9,3.30951,2.80682,0.749866,0.0920724,-0.553201,-0.000765081,-0.0488311,-1.6472,-0.0164621,0.0117966,2.64806,5,0.1,1,6.9,0.145566,2.01063,0.588851,0.390513,0.453918,-0.0032519,-0.223649,0.0304207,0.00321493,0.00700749,0.27731,5,0.1,2,6.9,-1.6971,-3.24138,0.749919,-0.00326931,-0.121683,-0.00132658,-0.319958,-0.138298,-0.0249222,0.00648922,3.5665,5,0.1,3,6.9,4.11847,3.62849,0.636007,0.175487,0.0399366,0.00853278,-0.288159,-0.0677407,-0.0144318,0.00996348,0.00187419,5,0.1,4,6.9,-4.13394,2.69892,0.598192,-0.000213087,-0.000170991,-4.00469e-06,0.0012517,0.000730157,1.11759e-05,0.00839567,8.14035e-08,5,0.1,5,6.9,2.30903,-1.14135,0.681293,0.000236183,3.53903e-06,1.39698e-06,0.00619888,0.000424683,2.6077e-05,0.0070346,3.67191e-06,5,0.1,6,6.9,1.69734,3.62878,0.749786,0.827068,-0.171914,0.000203587,-0.1252,0.131086,-0.000141561,0.00745279,0.687446,5,0.1,7,6.9,-1.46995,0.353501,0.601927,-0.324862,-0.646125,-0.00185324,0.273906,0.498028,0.00100955,0.00702285,0.223093,5,0.1,8,6.9,3.34266,1.66103,0.597859,-0.124693,0.564242,-0.0268799,0.12809,-1.3805,-0.128608,0.0200321,1.45905,5,0.1,9,6.9,-1.47118,1.65314,0.670184,0.00651367,7.05943e-05,-0.000798423,0.0142604,0.000171363,-0.00197813,0.00920662,4.87195e-05,5,0.1
0,7,3.31857,2.7437,0.749695,0.0899792,-0.703245,-0.00274926,-0.00333786,-1.29223,-0.0216961,0.00952267,2.62253,5,0.1,1,7,0.183429,2.05599,0.588542,0.365836,0.451154,-0.00293404,-0.277885,-0.0988245,0.00321865,0.00785839,0.187129,5,0.1,2,7,-1.7,-3.25453,0.749642,-0.064379,-0.143433,-0.00435263,-0.880837,-0.264168,-0.03317,0.00801335,3.11836,5,0.1,3,7,4.13459,3.63215,0.636789,0.147104,0.0332773,0.00711381,-0.279665,-0.0653267,-0.0139177,0.0116466,0.000919106,5,0.1,4,7,-4.13396,2.69891,0.598192,-0.000107288,-0.000101328,-4.47035e-06,0.000953674,0.000596046,5.96046e-05,0.00655882,5.13406e-08,5,0.1,5,7,2.30908,-1.14135,0.681294,0.000756979,3.8743e-05,2.98023e-06,0.00429153,0.000298023,2.98023e-05,0.00695692,1.67457e-06,5,0.1,6,7,1.77924,3.61226,0.749806,0.808254,-0.158376,0.000189245,-0.278473,0.14329,-0.000149012,0.00722293,0.481366,5,0.1,7,7,-1.50106,0.291432,0.601747,-0.297067,-0.594385,-0.00173897,0.288963,0.549599,0.0013113,0.00799359,0.147165,5,0.1,8,7,3.33094,1.71053,0.59454,-0.108731,0.426379,-0.0392526,0.185251,-1.34045,-0.113308,0.0196512,1.41166,5,0.1,9,7,-1.47048,1.65314,0.670097,0.00739992,8.04663e-05,-0.000925362,0.0038147,0,-0.000625849,0.00858066,1.4828e-05,5,0.1
0,7.1,3.32768,2.66853,0.749299,0.0931568,-0.784906,-0.00524754,0.0553727,-0.377119,-0.0267215,0.00952267,2.62253,5,0.1,1,7.1,0.218686,2.10063,0.588264,0.339668,0.44135,-0.00264067,-0.255577,-0.113264,0.00273436,0.00785839,0.187129,5,0.1,2,7.1,-1.71207,-3.27048,0.749023,-0.186669,-0.177757,-0.00816435,-1.45784,-0.390202,-0.0407174,0.00801335,3.11836,5,0.1,3,7.1,4.14794,3.63516,0.637432,0.120121,0.026983,0.00577252,-0.259459,-0.0604093,-0.0128746,0.0116466,0.000919106,5,0.1,4,7.1,-4.13396,2.6989,0.598191,-2.23517e-05,-4.69387e-05,4.65661e-07,0.00077486,0.000506639,3.35276e-05,0.00655882,5.13406e-08,5,0.1,5,7.1,2.30917,-1.14134,0.681294,0.00111088,6.38887e-05,5.4948e-06,0.00277162,0.000201166,1.86265e-05,0.00695692,1.67457e-06,5,0.1,6,7.1,1.8588,3.59709,0.749824,0.783509,-0.145151,0.000175368,-0.248462,0.125736,-0.000137836,0.00722293,0.481366,5,0.1,7,7.1,-1.52941,0.234598,0.601579,-0.270513,-0.543301,-0.00161324,0.250533,0.488072,0.0012517,0.00799359,0.147165,5,0.1,8,7.1,3.32105,1.7466,0.590038,-0.088631,0.297621,-0.0507534,0.21176,-1.18345,-0.111025,0.0196512,1.41166,5,0.1,9,7.1,-1.46973,1.65315,0.670003,0.00740644,7.72998e-05,-0.000938307,-0.00328571,-5.21541e-05,0.000309199,0.00858066,1.4828e-05,5,0.1
0,7.2,3.33729,2.58942,0.748643,0.099057,-0.785649,-0.00782609,0.0538826,0.328779,-0.023663,0.0102186,2.89063,5,0.1,1,7.2,0.251345,2.14407,0.588013,0.313027,0.425828,-0.00237226,-0.284076,-0.207901,0.00265241,0.00734831,0.124654,5,0.1,2,7.2,-1.73826,-3.2902,0.748006,-0.33713,-0.215882,-0.0120863,-1.47027,-0.34833,-0.0359714,0.00710868,2.65882,5,0.1,3,7.2,4.15869,3.63756,0.637947,0.0953078,0.0212252,0.00454634,-0.236034,-0.0545979,-0.0116825,0.0118277,0.000764996,5,0.1,4,7.2,-4.13396,2.6989,0.598192,3.57628e-05,-5.96046e-06,4.47035e-06,0.000715256,0.000476837,0,0.00670082,3.80176e-08,5,0.1,5,7.2,2.30929,-1.14133,0.681295,0.0013113,7.7486e-05,5.96046e-06,0.00119209,0.000119209,2.98023e-05,0.00756882,5.33194e-07,5,0.1,6,7.2,1.93575,3.58321,0.749841,0.753161,-0.132459,0.000160933,-0.380516,0.131011,-0.000149012,0.00698838,0.330169,5,0.1,7,7.2,-1.55521,0.182713,0.601424,-0.245526,-0.494068,-0.00148267,0.255108,0.507615,0.00137091,0.00800379,0.0977008,5,0.1,8,7.2,3.31326,1.77101,0.584449,-0.0672698,0.197092,-0.0604883,0.211477,-0.804424,-0.0796914,0.0192022,1.30569,5,0.1,9,7.2,-1.46902,1.65316,0.669912,0.00681877,6.85453e-05,-0.000871718,-0.00810623,-5.96046e-05,0.000953674,0.00784842,8.01755e-06,5,0.1
0,7.3,3.34754,2.51383,0.747738,0.106344,-0.714789,-0.0102746,0.0816882,1.00879,-0.0240318,0.0102186,2.89063,5,0.1,1,7.3,0.281301,2.18565,0.587788,0.286621,0.405934,-0.0021317,-0.252562,-0.203252,0.002224,0.00734831,0.124654,5,0.1,2,7.3,-1.77973,-3.31364,0.746613,-0.494214,-0.253185,-0.0157733,-1.58745,-0.371903,-0.0358969,0.00710868,2.65882,5,0.1,3,7.3,4.16708,3.63942,0.638346,0.0730276,0.0160843,0.00344655,-0.208914,-0.0480711,-0.0102781,0.0118277,0.000764996,5,0.1,4,7.3,-4.13395,2.6989,0.598192,9.31323e-05,3.46452e-05,4.37722e-06,0.000447035,0.000342727,-3.72529e-06,0.00670082,3.80176e-08,5,0.1,5,7.3,2.30943,-1.14133,0.681295,0.00137798,8.51229e-05,8.3819e-06,0.000163913,3.72529e-05,1.49012e-05,0.00756882,5.33194e-07,5,0.1,6,7.3,2.00928,3.57058,0.749856,0.718124,-0.120447,0.000147149,-0.346474,0.11301,-0.00013411,0.00698838,0.330169,5,0.1,7,7.3,-1.57857,0.135698,0.601283,-0.222234,-0.447355,-0.00135368,0.21781,0.440145,0.00124052,0.00800379,0.0977008,5,0.1,8,7.3,3.30756,1.7873,0.578165,-0.0471488,0.136109,-0.0636959,0.188828,-0.364766,0.0100806,0.0192022,1.30569,5,0.1,9,7.3,-1.46838,1.65316,0.66983,0.00584833,6.03497e-05,-0.000754464,-0.0109524,-8.9407e-05,0.00134483,0.00784842,8.01755e-06,5,0.1
0,7.4,3.35856,2.44798,0.746598,0.113654,-0.597769,-0.0124156,0.0571012,1.27232,-0.0178516,0.00944958,3.20679,5,0.1,1,7.4,0.308696,2.22515,0.587586,0.261078,0.382966,-0.00191331,-0.264138,-0.265241,0.00211596,0.00787001,0.14151,5,0.1,2,7.4,-1.83671,-3.34068,0.744869,-0.640169,-0.285846,-0.0189468,-1.27119,-0.262856,-0.0262856,0.00751992,2.34182,5,0.1,3,7.4,4.17339,3.6408,0.638641,0.0536442,0.0116408,0.00249594,-0.178576,-0.0406504,-0.00867248,0.0109001,0.000598172,5,0.1,4,7.4,-4.13394,2.6989,0.598192,0.00013113,5.96046e-05,4.47035e-06,0,0.000119209,0,0.00711663,7.11171e-09,5,0.1,5,7.4,2.30957,-1.14132,0.681296,0.00134706,8.64267e-05,8.9407e-06,-0.000715256,-5.96046e-05,0,0.00713003,1.48389e-07,5,0.1,6,7.4,2.07924,3.55909,0.74987,0.679457,-0.109208,0.00013262,-0.444889,0.114322,-0.000119209,0.00711955,0.223494,5,0.1,7,7.4,-1.59972,0.0931415,0.601153,-0.200757,-0.403745,-0.00122786,0.216722,0.441476,0.0013113,0.0063084,0.197783,5,0.1,8,7.4,3.30374,1.8,0.571957,-0.029856,0.126496,-0.0594869,0.155807,0.145614,0.0694096,0.0173885,0.605068,5,0.1,9,7.4,-1.46785,1.65317,0.669761,0.00468791,5.06639e-05,-0.000610948,-0.0119209,-0.000119209,0.00151992,0.00839883,7.47729e-06,5,0.1
0,7.5,3.37026,2.39494,0.745266,0.120531,-0.461882,-0.0142133,0.0712126,1.35019,-0.0169724,0.00944958,3.20679,5,0.1,1,7.5,0.333681,2.26238,0.587403,0.240208,0.363689,-0.00174819,-0.168217,-0.144213,0.00130013,0.00787001,0.14151,5,0.1,2,7.5,-1.90675,-3.37063,0.742842,-0.756107,-0.313018,-0.0215628,-1.00289,-0.258073,-0.0244193,0.00751992,2.34182,5,0.1,3,7.5,4.17791,3.64177,0.63885,0.0372104,0.00791065,0.00170004,-0.149697,-0.0338405,-0.00722706,0.0109001,0.000598172,5,0.1,4,7.5,-4.13393,2.69891,0.598193,0.000127405,6.78003e-05,4.37722e-06,-8.9407e-05,2.98023e-05,-3.72529e-06,0.00711663,7.11171e-09,5,0.1,5,7.5,2.3097,-1.14131,0.681297,0.00124536,7.93487e-05,8.47504e-06,-0.0012666,-8.9407e-05,-1.11759e-05,0.00713003,1.48389e-07,5,0.1,6,7.5,2.14509,3.54871,0.749883,0.638269,-0.0987869,0.000121258,-0.400573,0.0972599,-0.000104308,0.00711955,0.223494,5,0.1,7,7.5,-1.61882,0.05468,0.601037,-0.181946,-0.367884,-0.0011066,0.167362,0.29698,0.00114739,0.0063084,0.197783,5,0.1,8,7.5,3.30146,1.81402,0.566421,-0.0162531,0.159186,-0.050658,0.116512,0.457868,0.103243,0.0173885,0.605068,5,0.1,9,7.5,-1.46744,1.65318,0.669708,0.00347588,3.8743e-05,-0.000456162,-0.0120774,-0.000119209,0.00154227,0.00839883,7.47729e-06,5,0.1
0,7.6,3.38263,2.35504,0.743769,0.12632,-0.342083,-0.0156194,0.0379086,0.997305,-0.0103712,0.012149,3.30711,5,0.1,1,7.6,0.356918,2.29807,0.587235,0.224835,0.349981,-0.00163168,-0.150234,-0.147462,0.00110269,0.0054157,0.082117,5,0.1,2,7.6,-1.98665,-3.40306,0.740577,-0.834024,-0.333643,-0.0235558,-0.532866,-0.138879,-0.0143349,0.00711242,2.05745,5,0.1,3,7.6,4.18093,3.64241,0.638986,0.0237584,0.00488162,0.00105351,-0.119209,-0.0265837,-0.00569224,0.00938251,0.000362088,5,0.1,4,7.6,-4.13392,2.69892,0.598193,0.000119209,7.15256e-05,4.47035e-06,-0.000238419,-0.000119209,-2.98023e-05,0.0103652,4.32492e-09,5,0.1,5,7.6,2.30981,-1.1413,0.681298,0.00109673,6.85453e-05,8.9407e-06,-0.00166893,-0.000119209,-5.96046e-05,0.00682823,8.46889e-08,5,0.1,6,7.6,2.20685,3.53931,0.749895,0.595689,-0.0892162,0.000110269,-0.46587,0.0965595,-0.000119209,0.00726403,2.72267,5,0.1,7,7.6,-1.6362,0.0192806,0.600932,-0.165933,-0.340655,-0.000993907,0.158668,0.263304,0.00116229,0.00636777,0.160258,5,0.1,8,7.6,3.30036,1.83241,0.561901,-0.00646114,0.209212,-0.0395447,0.0798702,0.504375,0.115842,0.0196088,0.340729,5,0.1,9,7.6,-1.46716,1.65318,0.66967,0.00231862,2.68221e-05,-0.000308454,-0.0109076,-0.000119209,0.00143051,0.0082355,6.06691e-06,5,0.1
0,7.7,3.39568,2.32514,0.742216,0.136513,-0.264562,-0.0149039,0.145167,0.484094,0.0217818,0.012149,3.30711,5,0.1,1,7.7,0.378736,2.33242,0.587076,0.212121,0.337679,-0.00154087,-0.113929,-0.114173,0.000786036,0.0054157,0.082117,5,0.1,2,7.7,-2.07184,-3.43716,0.738149,-0.862686,-0.348147,-0.0249785,-0.106797,-0.131279,-0.0126921,0.00711242,2.05745,5,0.1,3,7.7,4.18275,3.64277,0.639065,0.0131287,0.00252053,0.000547897,-0.0933707,-0.0206232,-0.00441447,0.00938251,0.000362088,5,0.1,4,7.7,-4.13391,2.69892,0.598194,9.53674e-05,5.99772e-05,1.95578e-06,-0.000238419,-0.000104308,-1.86265e-05,0.0103652,4.32492e-09,5,0.1,5,7.7,2.30992,-1.14129,0.681298,0.000920147,5.66244e-05,3.91155e-06,-0.00184774,-0.000119209,-3.72529e-05,0.00682823,8.46889e-08,5,0.1,6,7.7,2.26497,3.53031,0.749751,0.573868,-0.0955027,-0.00427924,-0.035733,-0.18619,-0.0779405,0.00726403,2.72267,5,0.1,7,7.7,-1.6519,-0.0136487,0.600838,-0.14699,-0.319299,-0.000887737,0.215247,0.180778,0.000990927,0.00636777,0.160258,5,0.1,8,7.7,3.30011,1.85574,0.558504,0.00144057,0.255925,-0.0286215,0.0760406,0.413083,0.102032,0.0196088,0.340729,5,0.1,9,7.7,-1.46698,1.65318,0.669646,0.00128131,1.58325e-05,-0.000172574,-0.0096783,-9.68575e-05,0.00126287,0.0082355,6.06691e-06,5,0.1
0,7.8,3.41009,2.3,0.740868,0.151724,-0.248832,-0.0117898,0.143528,-0.136137,0.0382066,0.00964314,3.06795,5,0.1,1,7.8,0.399372,2.36557,0.586926,0.200363,0.324494,-0.00146031,-0.128239,-0.160217,0.000864267,0.00616195,0.0630159,5,0.1,2,7.8,-2.15836,-3.47248,0.7356,-0.866026,-0.356531,-0.0258535,0,-0.022769,-0.00378489,0.00719704,1.5729,5,0.1,3,7.8,4.18364,3.64293,0.6391,0.00507832,0.000756979,0.000169873,-0.0677109,-0.0149012,-0.00318885,0.0104549,0.000166081,5,0.1,4,7.8,-4.1339,2.69893,0.598194,8.34465e-05,4.76837e-05,0,-0.000476837,-0.000119209,0,0.00985204,8.08559e-09,5,0.1,5,7.8,2.31,-1.14129,0.681299,0.000733137,4.47035e-05,1.49012e-06,-0.00178814,-0.000119209,-5.96046e-05,0.0071274,9.02684e-08,5,0.1,6,7.8,2.32245,3.51961,0.748871,0.577122,-0.120062,-0.0137493,0.0516176,-0.277042,-0.103891,0.00640496,2.91832,5,0.1,7,7.8,-1.66546,-0.0446972,0.600754,-0.123802,-0.301579,-0.000791252,0.244379,0.185877,0.000923872,0.00932899,0.247817,5,0.1,8,7.8,3.30061,1.88313,0.556125,0.00838637,0.289044,-0.0192359,0.061512,0.238299,0.0852942,0.0186265,0.275728,5,0.1,9,7.8,-1.46689,1.65318,0.669635,0.000408292,5.96046e-06,-5.81145e-05,-0.007689,-0.000119209,0.000983477,0.00750421,3.68026e-06,5,0.1
0,7.9,3.4263,2.27304,0.739938,0.174686,-0.301585,-0.00632619,0.285551,-0.817075,0.0666864,0.00964314,3.06795,5,0.1,1,7.9,0.418858,2.39734,0.586784,0.189975,0.311577,-0.00139279,-0.089759,-0.114381,0.000562519,0.00616195,0.0630159,5,0.1,2,7.9,-2.24496,-3.50826,0.732996,-0.865859,-0.358879,-0.0262019,0.00667572,-0.00824034,-0.00203773,0.00719704,1.5729,5,0.1,3,7.9,4.18385,3.64294,0.639103,-0.000677258,-0.000498071,-9.89996e-05,-0.0476539,-0.0102669,-0.00220165,0.0104549,0.000166081,5,0.1,4,7.9,-4.13389,2.69893,0.598194,4.32134e-05,3.61353e-05,0,-0.000298023,-0.000104308,0,0.00985204,8.08559e-09,5,0.1,5,7.9,2.31006,-1.14129,0.681299,0.000556931,3.29688e-05,-2.8871e-06,-0.00171363,-0.000111759,-3.35276e-05,0.0071274,9.02684e-08,5,0.1,6,7.9,2.37968,3.50596,0.746911,0.560851,-0.154781,-0.0259112,-0.353575,-0.387758,-0.131477,0.00640496,2.91832,5,0.1,7,7.9,-1.67659,-0.0742612,0.600679,-0.0987995,-0.292346,-0.000717305,0.25174,0.0265446,0.000596046,0.00932899,0.247817,5,0.1,8,7.9,3.30163,1.91309,0.554527,0.0107203,0.308257,-0.0136121,-0.00868738,0.136331,0.0316985,0.0186265,0.275728,5,0.1,9,7.9,-1.46689,1.65318,0.669634,-0.000282191,-4.09782e-06,3.04542e-05,-0.00605732,-7.45058e-05,0.000778586,0.00750421,3.68026e-06,5,0.1
0,8,3.44522,2.23837,0.739657,0.203574,-0.394273,0.00077039,0.269651,-0.959039,0.0718534,0.0112655,2.69333,5,0.1,1,8,0.437401,2.42789,0.586647,0.180668,0.298864,-0.00133365,-0.103578,-0.151157,0.000685453,0.00540521,0.0283463,5,0.1,2,8,-2.33146,-3.54406,0.730376,-0.863361,-0.355512,-0.0260696,0.0534058,0.0864267,0.00545382,0.00681916,1.18036,5,0.1,3,8,4.18357,3.64285,0.639084,-0.00450611,-0.00130534,-0.000272691,-0.0295639,-0.00619888,-0.0013113,0.00956432,5.84502e-05,5,0.1,4,8,-4.13389,2.69894,0.598194,1.19209e-05,2.98023e-05,0,0,-0.000119209,0,0.0112731,2.74369e-09,5,0.1,5,8,2.31011,-1.14128,0.681298,0.000393391,2.38419e-05,-5.96046e-06,-0.00154972,-0.000119209,0,0.00680798,7.91836e-08,5,0.1,6,8,2.43349,3.48856,0.74367,0.510806,-0.192469,-0.038676,-0.626802,-0.344157,-0.117958,0.00677385,2.79272,5,0.1,7,8,-1.68523,-0.103439,0.60061,-0.0741482,-0.291433,-0.000663102,0.23818,0.0123084,0.000506639,0.00700935,0.534267,5,0.1,8,8,3.30258,1.94436,0.553267,0.00776052,0.314784,-0.0120819,-0.0455379,-0.0115633,0.0025332,0.0060391,0.646989,5,0.1,9,8,-1.46694,1.65318,0.66964,-0.000792742,-1.19209e-05,9.68575e-05,-0.00411272,0,0.000506639,0.00719965,1.65323e-06,5,0.1
0,8.1,3.46667,2.19335,0.740008,0.222665,-0.511594,0.00548987,0.112399,-1.29223,0.0256635,0.0112655,2.69333,5,0.1,1,8.1,0.454957,2.45703,0.586517,0.17038,0.283817,-0.00126762,-0.106663,-0.158176,0.000674278,0.00540521,0.0283463,5,0.1,2,8.1,-2.41776,-3.5792,0.727795,-0.863752,-0.347208,-0.0255286,-0.01885,0.0926256,0.00629947,0.00681916,1.18036,5,0.1,3,8.1,4.183,3.64269,0.639051,-0.00676215,-0.0017643,-0.000369828,-0.0159144,-0.00306964,-0.000651926,0.00956432,5.84502e-05,5,0.1,4,8.1,-4.13389,2.69894,0.598194,1.19209e-05,1.9744e-05,0,0,-7.45058e-05,0,0.0112731,2.74369e-09,5,0.1,5,8.1,2.31014,-1.14128,0.681298,0.000247732,1.30385e-05,-5.4948e-06,-0.00135601,-8.9407e-05,1.11759e-05,0.00680798,7.91836e-08,5,0.1,6,8.1,2.48086,3.46752,0.739199,0.431975,-0.228439,-0.0507211,-0.899926,-0.352561,-0.116959,0.00677385,2.79272,5,0.1,7,8.1,-1.6915,-0.132776,0.600546,-0.0516593,-0.297149,-0.000612903,0.209376,-0.0992715,0.000510365,0.00700935,0.534267,5,0.1,8,8.1,3.30312,1.97448,0.551668,0.00303127,0.27627,-0.0232511,-0.047341,-0.688151,-0.199903,0.0060391,0.646989,5,0.1,9,8.1,-1.46704,1.65318,0.669652,-0.00113137,-1.19209e-05,0.000138953,-0.00265241,0,0.000335276,0.00719965,1.65323e-06,5,0.1
0,8.2,3.48924,2.13582,0.74063,0.226241,-0.636196,0.00647604,-0.0392199,-1.12975,-0.00333786,0.0108156,2.39594,5,0.1,1,8.2,0.471427,2.48455,0.586394,0.158596,0.265843,-0.00119209,-0.13198,-0.20647,0.00089407,0.00681898,0.0111355,5,0.1,2,8.2,-2.50407,-3.61336,0.725282,-0.860232,-0.334811,-0.024654,0.115871,0.163674,0.0118315,0.0091497,0.856774,5,0.1,3,8.2,4.18226,3.6425,0.639012,-0.00778437,-0.00194311,-0.000408292,-0.00452995,-0.000476837,-0.000119209,0.00743755,1.73509e-05,5,0.1,4,8.2,-4.13389,2.69894,0.598194,1.19209e-05,1.19209e-05,0,0,-0.000119209,0,0.00749775,3.76195e-09,5,0.1,5,8.2,2.31016,-1.14128,0.681297,0.00013113,5.96046e-06,-4.47035e-06,-0.00119209,-0.000119209,0,0.0113293,5.60353e-08,5,0.1,6,8.2,2.51944,3.44305,0.733584,0.339299,-0.259113,-0.0610456,-0.918627,-0.244975,-0.085324,0.00636648,2.64923,5,0.1,7,8.2,-1.69568,-0.162987,0.600487,-0.0326335,-0.306553,-0.000558794,0.169754,-0.0688213,0.000566244,0.00791156,3.42666,5,0.1,8,8.2,3.3032,1.99803,0.548186,-0.00141263,0.189823,-0.0474468,-0.0401735,-0.984669,-0.26384,0.00612714,0.453191,5,0.1,9,8.2,-1.46717,1.65318,0.669667,-0.00132322,-1.19209e-05,0.000163913,-0.00119209,5.96046e-05,0.000119209,0.00651239,5.44419e-07,5,0.1
0,8.3,3.51158,2.06664,0.741222,0.219765,-0.745151,0.00501852,-0.0929236,-0.993595,-0.0234768,0.0108156,2.39594,5,0.1,1,8.3,0.48654,2.51009,0.586279,0.143087,0.244666,-0.0011012,-0.168335,-0.220731,0.000938773,0.00681898,0.0111355,5,0.1,2,8.3,-2.58972,-3.64606,0.722873,-0.85361,-0.319273,-0.0235217,0.0601858,0.157788,0.0115857,0.0091497,0.856774,5,0.1,3,8.3,4.18147,3.64231,0.638971,-0.00783652,-0.00190176,-0.000401307,0.00303984,0.00120699,0.000242144,0.00743755,1.73509e-05,5,0.1,4,8.3,-4.13389,2.69894,0.598194,1.19209e-05,2.23517e-06,0,0,-5.96046e-05,0,0.00749775,3.76195e-09,5,0.1,5,8.3,2.31017,-1.14128,0.681297,2.49594e-05,-3.53903e-06,-4.00469e-06,-0.000908971,-8.19564e-05,1.11759e-05,0.0113293,5.60353e-08,5,0.1,6,8.3,2.54871,3.41591,0.727059,0.247276,-0.283092,-0.069271,-0.857741,-0.216931,-0.0745431,0.00636648,2.64923,5,0.1,7,8.3,-1.69798,-0.194861,0.600381,-0.0129709,-0.337898,-0.00200747,0.20089,-0.488547,-0.0261851,0.00791156,3.42666,5,0.1,8,8.3,3.30289,2.01209,0.542306,-0.00453293,0.0919953,-0.0683474,-0.0227392,-0.949383,-0.155564,0.00612714,0.453191,5,0.1,9,8.3,-1.4673,1.65318,0.669684,-0.00138972,-7.07805e-06,0.000170153,-0.000156462,2.98023e-05,1.11759e-05,0.00651239,5.44419e-07,5,0.1
0,8.4,3.53299,1.98774,0.741589,0.207281,-0.826123,0.00219792,-0.157714,-0.593841,-0.0311434,0.00884297,2.28529,5,0.1,1,8.4,0.5,2.53341,0.586174,0.126098,0.221121,-0.00100136,-0.169635,-0.252128,0.00110269,0.00968237,0.00594842,5,0.1,2,8.4,-2.67458,-3.67714,0.720584,-0.840795,-0.301462,-0.0222087,0.226378,0.205636,0.0152588,0.00679655,0.602877,5,0.1,3,8.4,4.18072,3.64213,0.638932,-0.00724792,-0.00172853,-0.000363588,0.00810623,0.0025034,0.000447035,0.00838089,9.19175e-06,5,0.1,4,8.4,-4.13389,2.69894,0.598194,1.19209e-05,-5.96046e-06,0,-0.000238419,0,0,0.0115627,5.65764e-09,5,0.1,5,8.4,2.31017,-1.14128,0.681296,-4.76837e-05,-8.9407e-06,-2.98023e-06,-0.000715256,-5.96046e-05,0,0.00746261,2.87325e-08,5,0.1,6,8.4,2.56964,3.38669,0.719808,0.177038,-0.299519,-0.0751749,-0.518441,-0.0997782,-0.0403821,0.00638363,2.42696,5,0.1,7,8.4,-1.69837,-0.231315,0.600028,0.00393987,-0.392055,-0.00520051,0.123739,-0.54203,-0.0351071,0.00813082,3.26932,5,0.1,8,8.4,3.30234,2.01675,0.534862,-0.00606179,0.00380874,-0.0788942,-0.00834465,-0.798345,-0.0573695,0.019106,1.00121,5,0.1,9,8.4,-1.46744,1.65318,0.669701,-0.00135899,-2.98023e-06,0.000166893,0.00077486,0,-0.000119209,0.00873356,1.45631e-07,5,0.1
0,8.5,3.55295,1.90302,0.741639,0.192008,-0.860979,-0.00129603,-0.152528,-0.150807,-0.0369847,0.00884297,2.28529,5,0.1,1,8.5,0.511808,2.55427,0.586079,0.110449,0.19633,-0.000893697,-0.14659,-0.246495,0.00106543,0.00968237,0.00594842,5,0.1,2,8.5,-2.75766,-3.70631,0.718436,-0.821274,-0.282167,-0.0207726,0.199154,0.1892,0.0141039,0.00679655,0.602877,5,0.1,3,8.5,4.18004,3.64197,0.638899,-0.00626147,-0.00144728,-0.000310317,0.0112653,0.00305474,0.000596046,0.00838089,9.19175e-06,5,0.1,4,8.5,-4.13389,2.69894,0.598194,-7.45058e-06,-5.58794e-06,0,-0.000119209,1.49012e-05,0,0.0115627,5.65764e-09,5,0.1,5,8.5,2.31016,-1.14128,0.681296,-0.000106543,-1.30385e-05,-2.51457e-06,-0.000447035,-1.49012e-05,1.11759e-05,0.00746261,2.87325e-08,5,0.1,6,8.5,2.58526,3.35625,0.712098,0.142486,-0.308696,-0.0788581,-0.0982434,-0.0696629,-0.0295937,0.00638363,2.42696,5,0.1,7,8.5,-1.69733,-0.273602,0.599312,0.0159534,-0.455956,-0.0092702,0.0715479,-0.680419,-0.0436902,0.00813082,3.26932,5,0.1,8,8.5,3.30172,2.01474,0.526912,-0.00620671,-0.0299107,-0.0780913,0.00442564,0.047043,0.0640787,0.019106,1.00121,5,0.1,9,8.5,-1.46757,1.65318,0.669717,-0.001253,-2.98023e-06,0.000152364,0.00131875,0,-0.000171363,0.00873356,1.45631e-07,5,0.1
0,8.6,3.57137,1.81654,0.741327,0.175983,-0.866026,-0.00489354,-0.171065,0,-0.033617,0.00955521,2.25924,5,0.1,1,8.6,0.522137,2.57267,0.585995,0.0962391,0.171399,-0.000785291,-0.139773,-0.253558,0.00110269,0.00600774,0.00187014,5,0.1,2,8.6,-2.8386,-3.73355,0.716431,-0.795037,-0.262123,-0.0192791,0.349522,0.217557,0.0161827,0.0072261,0.414757,5,0.1,3,8.6,4.17947,3.64184,0.638871,-0.00505447,-0.00113249,-0.000247359,0.0121593,0.00309944,0.000625849,0.00994245,8.60311e-06,5,0.1,4,8.6,-4.13389,2.69894,0.598194,-2.38419e-05,-5.96046e-06,0,0.000238419,0,0,0.0103651,5.89029e-09,5,0.1,5,8.6,2.31015,-1.14128,0.681296,-0.000137091,-1.49012e-05,-1.49012e-06,-0.000238419,0,0,0.00682528,9.99157e-09,5,0.1,6,8.6,2.6,3.32518,0.704106,0.16169,-0.311106,-0.0804812,0.451207,0.0309944,-0.000417233,0.00604672,2.06937,5,0.1,7,8.6,-1.69573,-0.322453,0.59817,0.0120461,-0.518554,-0.0134885,-0.166595,-0.531286,-0.038743,0.00927576,3.03991,5,0.1,8,8.6,3.30114,2.01286,0.51956,-0.00536442,-0.00063777,-0.0677899,0.0115633,0.477076,0.1342,0.0215897,0.800438,5,0.1,9,8.6,-1.46769,1.65318,0.669731,-0.00110269,-5.96046e-06,0.00013262,0.00166893,5.96046e-05,-0.000178814,0.00905088,8.61557e-08,5,0.1
0,8.7,3.58818,1.72994,0.740666,0.160766,-0.866026,-0.00830693,-0.1394,0,-0.0332408,0.00955521,2.25924,5,0.1,1,8.7,0.531087,2.58856,0.585922,0.0829704,0.146536,-0.000677165,-0.126988,-0.244126,0.00106171,0.00600774,0.00187014,5,0.1,2,8.7,-2.91648,-3.75873,0.71458,-0.762944,-0.241905,-0.0177729,0.320986,0.194281,0.0144802,0.0072261,0.414757,5,0.1,3,8.7,4.17903,3.64174,0.638849,-0.00380427,-0.000821427,-0.000183471,0.012517,0.00305474,0.00064075,0.00994245,8.60311e-06,5,0.1,4,8.7,-4.13389,2.69894,0.598194,-3.72529e-06,-5.58794e-06,0,0.000149012,1.49012e-05,0,0.0103651,5.89029e-09,5,0.1,5,8.7,2.31013,-1.14128,0.681296,-0.000151992,-1.39698e-05,-1.11759e-06,-5.96046e-05,2.23517e-05,7.45058e-06,0.00682528,9.99157e-09,5,0.1,6,8.7,2.61955,3.29422,0.69606,0.23813,-0.307694,-0.0803334,0.986621,0.0487119,0.00635907,0.00604672,2.06937,5,0.1,7,8.7,-1.69562,-0.377107,0.596622,-0.0145802,-0.574773,-0.0174779,-0.437744,-0.547195,-0.038974,0.00927576,3.03991,5,0.1,8,8.7,3.30066,2.01586,0.513458,-0.00405535,0.0661079,-0.054234,0.0140369,0.800177,0.135135,0.0215897,0.800438,5,0.1,9,8.7,-1.46779,1.65318,0.669744,-0.000926107,-1.11759e-06,0.000113249,0.00183284,2.98023e-05,-0.000201166,0.00905088,8.61557e-08,5,0.1
0,8.8,3.60357,1.64334,0.739679,0.147063,-0.866026,-0.011304,-0.139236,0,-0.02563,0.00797836,2.26165,5,0.1,1,8.8,0.538761,2.602,0.58586,0.0706196,0.122529,-0.000572205,-0.120968,-0.235915,0.00107288,0.0063796,0.000835469,5,0.1,2,8.8,-2.99102,-3.78194,0.712876,-0.726014,-0.222003,-0.0162914,0.436902,0.208855,0.0154972,0.00824268,0.281117,5,0.1,3,8.8,4.17871,3.64167,0.638834,-0.00258684,-0.000536442,-0.00012219,0.0114441,0.00286102,0.000596046,0.0115433,7.09868e-06,5,0.1,4,8.8,-4.13389,2.69894,0.598194,0,-5.96046e-06,0,0.000238419,0.000119209,0,0.00820194,6.35841e-09,5,0.1,5,8.8,2.31012,-1.14129,0.681296,-0.000154972,-1.19209e-05,0,0.000119209,0,0,0.00707202,3.31282e-09,5,0.1,6,8.8,2.64856,3.2638,0.688089,0.343019,-0.299466,-0.0787124,1.04201,0.123501,0.0280142,0.0061042,1.6595,5,0.1,7,8.8,-1.7,-0.437038,0.594692,-0.0798315,-0.620186,-0.0209287,-0.838697,-0.328867,-0.0285804,0.00794537,2.72501,5,0.1,8,8.8,3.30033,2.02662,0.508699,-0.00266433,0.149256,-0.041081,0.0134706,0.818968,0.12657,0.0194923,0.675045,5,0.1,9,8.8,-1.46787,1.65318,0.669754,-0.000742078,0,9.23872e-05,0.00184774,5.96046e-05,-0.000208616,0.00789556,9.31298e-08,5,0.1
0,8.9,3.61766,1.55673,0.738421,0.135406,-0.866026,-0.0138306,-0.100642,0,-0.0236742,0.00797836,2.26165,5,0.1,1,8.9,0.545237,2.6131,0.585808,0.0590787,0.099792,-0.000469293,-0.11028,-0.218347,0.000987202,0.0063796,0.000835469,5,0.1,2,8.9,-3.06156,-3.80315,0.71132,-0.685497,-0.202752,-0.0148618,0.397056,0.182435,0.0135563,0.00824268,0.281117,5,0.1,3,8.9,4.1785,3.64163,0.638824,-0.00149161,-0.000269338,-6.56582e-05,0.0103116,0.00245869,0.000525266,0.0115433,7.09868e-06,5,0.1,4,8.9,-4.13389,2.69894,0.598194,1.93715e-05,4.09782e-06,0,0.000119209,7.45058e-05,0,0.00820194,6.35841e-09,5,0.1,5,8.9,2.3101,-1.14129,0.681296,-0.000139326,-1.09896e-05,3.72529e-07,0.000208616,2.23517e-05,7.45058e-06,0.00707202,3.31282e-09,5,0.1,6,8.9,2.68844,3.23445,0.680355,0.456652,-0.287468,-0.075933,1.16162,0.1259,0.0300482,0.0061042,1.6595,5,0.1,7,8.9,-1.71314,-0.500776,0.592456,-0.19019,-0.654311,-0.023759,-1.27921,-0.314115,-0.0262782,0.00794537,2.72501,5,0.1,8,8.9,3.30012,2.04584,0.5052,-0.00143014,0.236024,-0.0291602,0.0108629,0.872865,0.110861,0.0194923,0.675045,5,0.1,9,8.9,-1.46794,1.65318,0.669762,-0.000560097,4.09782e-06,7.16187e-05,0.00176579,1.49012e-05,-0.000204891,0.00789556,9.31298e-08,5,0.1
0,9,3.63072,1.47013,0.736931,0.125766,-0.866026,-0.015834,-0.0971556,5.96046e-05,-0.0154972,0.00831276,2.26324,5,0.1,1,9,0.550609,2.62202,0.585766,0.0484973,0.0789464,-0.000375509,-0.101626,-0.198007,0.000923872,0.00743962,0.000625771,5,0.1,2,9,-3.12804,-3.82252,0.709901,-0.642633,-0.184453,-0.0135049,0.476599,0.187993,0.0139475,0.00706444,0.189008,5,0.1,3,9,4.1784,3.64162,0.63882,-0.000548363,-5.36442e-05,-1.78814e-05,0.00810623,0.00190735,0.000417233,0.0110345,4.35467e-06,5,0.1,4,9,-4.13388,2.69894,0.598194,2.38419e-05,5.96046e-06,0,0.000238419,0.000119209,0,0.00873509,9.54773e-09,5,0.1,5,9,2.31009,-1.14129,0.681296,-0.000119209,-8.9407e-06,1.49012e-06,0.000238419,0,-2.98023e-05,0.00696141,2.89716e-09,5,0.1,6,9,2.73965,3.2064,0.672932,0.563461,-0.272715,-0.072293,0.924587,0.175595,0.0443757,0.00584884,1.268,5,0.1,7,9,-1.73867,-0.567488,0.589964,-0.320029,-0.676328,-0.0258908,-1.25033,-0.0989437,-0.0151694,0.00716849,2.41656,5,0.1,8,9,3.30003,2.0736,0.502806,-0.000542402,0.316346,-0.0190675,0.00691414,0.702143,0.0904202,0.0186435,0.525831,5,0.1,9,9,-1.46799,1.65318,0.669768,-0.000396371,5.96046e-06,5.21541e-05,0.00160933,0,-0.000178814,0.0067974,8.23585e-08,5,0.1
0,9.1,3.64288,1.38353,0.73527,0.118196,-0.866025,-0.0173732,-0.0611842,-1.49012e-05,-0.0141375,0.00831276,2.26324,5,0.1,1,9.1,0.554969,2.62897,0.585733,0.038889,0.0602767,-0.00028871,-0.0905804,-0.174791,0.000804663,0.00743962,0.000625771,5,0.1,2,9.1,-3.19005,-3.84008,0.708616,-0.598509,-0.167244,-0.0122282,0.425503,0.161424,0.0119694,0.00706444,0.189008,5,0.1,3,9.1,4.17839,3.64162,0.638821,0.000187755,0.000114739,1.93715e-05,0.00655651,0.00143051,0.000327826,0.0110345,4.35467e-06,5,0.1,4,9.1,-4.13388,2.69894,0.598194,4.02331e-05,1.56462e-05,0,5.96046e-05,5.96046e-05,0,0.00873509,9.54773e-09,5,0.1,5,9.1,2.31008,-1.14129,0.681296,-9.53674e-05,-8.00937e-06,-5.58794e-07,0.000238419,2.23517e-05,-7.45058e-06,0.00696141,2.89716e-09,5,0.1,6,9.1,2.80066,3.17997,0.665916,0.655734,-0.25607,-0.0680543,0.86771,0.165194,0.0424646,0.00584884,1.268,5,0.1,7,9.1,-1.77728,-0.63571,0.587298,-0.453749,-0.688105,-0.0273978,-1.35096,-0.10068,-0.013411,0.00716849,2.41656,5,0.1,8,9.1,3.3,2.10873,0.501313,-4.88013e-05,0.385393,-0.0111869,0.00320375,0.645414,0.0672117,0.0186435,0.525831,5,0.1,9,9.1,-1.46802,1.65318,0.669773,-0.000245869,5.02914e-06,3.5204e-05,0.00138581,-2.23517e-05,-0.000156462,0.0067974,8.23585e-08,5,0.1
0,9.2,3.65441,1.29693,0.733471,0.112325,-0.866026,-0.01847,-0.0611544,5.96046e-05,-0.00697374,0.0111837,2.26418,5,0.1,1,9.2,0.558423,2.63416,0.585708,0.030376,0.0440776,-0.000213087,-0.0796914,-0.148892,0.000655651,0.00633626,0.000477929,5,0.1,2,9.2,-3.24773,-3.85601,0.707453,-0.554216,-0.151271,-0.0110447,0.473619,0.161767,0.0119209,0.00756234,0.126725,5,0.1,3,9.2,4.17844,3.64164,0.638824,0.000739098,0.000232458,4.61936e-05,0.00452995,0.000953674,0.000208616,0.00835189,2.03277e-06,5,0.1,4,9.2,-4.13388,2.69894,0.598194,4.76837e-05,1.78814e-05,0,-0.000238419,0,0,0.0114541,4.45687e-09,5,0.1,5,9.2,2.31007,-1.14129,0.681296,-7.15256e-05,-5.96046e-06,-1.49012e-06,0.000238419,0,0,0.00725577,2.82008e-09,5,0.1,6,9.2,2.87012,3.15522,0.659334,0.728005,-0.238359,-0.0634566,0.540972,0.194311,0.0509024,0.00568309,0.917723,5,0.1,7,9.2,-1.82908,-0.704786,0.584505,-0.577646,-0.690399,-0.0283107,-1.07431,0.0795424,-0.00378489,0.00682187,2.13627,5,0.1,8,9.2,3.30001,2.15018,0.500492,0.000143051,0.439793,-0.00559241,0.000715256,0.419497,0.0450015,0.0180429,1.10368,5,0.1,9,9.2,-1.46804,1.65318,0.669775,-0.00012219,5.96046e-06,2.08616e-05,0.00107288,-0.000119209,-0.000119209,0.0111808,4.99183e-08,5,0.1
0,9.3,3.66541,1.21032,0.731587,0.108061,-0.866025,-0.0192206,-0.0309795,-1.49012e-05,-0.00691414,0.0111837,2.26418,5,0.1,1,9.3,0.561081,2.63787,0.585689,0.022964,0.030392,-0.000152458,-0.0684932,-0.124469,0.000555068,0.00633626,0.000477929,5,0.1,2,9.3,-3.30092,-3.87038,0.706404,-0.510564,-0.136551,-0.00995975,0.415772,0.137046,0.0100955,0.00756234,0.126725,5,0.1,3,9.3,4.17853,3.64167,0.638829,0.00111908,0.000308082,6.31437e-05,0.00303984,0.000551343,0.00013411,0.00835189,2.03277e-06,5,0.1,4,9.3,-4.13387,2.69895,0.598194,2.45869e-05,1.63913e-05,0,-0.000208616,-2.98023e-05,0,0.0114541,4.45687e-09,5,0.1,5,9.3,2.31006,-1.14129,0.681296,-4.80562e-05,-5.02914e-06,-1.11759e-06,0.000223517,2.23517e-05,7.45058e-06,0.00725577,2.82008e-09,5,0.1,6,9.3,2.94556,3.13231,0.653231,0.779242,-0.220199,-0.0586809,0.441954,0.175506,0.0463538,0.00568309,0.917723,5,0.1,7,9.3,-1.89234,-0.773563,0.581652,-0.687008,-0.685614,-0.0287502,-1.04962,0.0497848,-0.00355765,0.00682187,2.13627,5,0.1,8,9.3,3.30003,2.19666,0.500123,0.000416115,0.492425,-0.00211932,0.00394881,0.577316,0.0254363,0.0180429,1.10368,5,0.1,9,9.3,-1.46804,1.65318,0.669777,-2.6077e-05,-3.91155e-06,9.87202e-06,0.000834465,-6.70552e-05,-9.68575e-05,0.0111808,4.99183e-08,5,0.1
0,9.4,3.67606,1.12372,0.729638,0.104934,-0.866026,-0.0196636,-0.036478,5.96046e-05,-0.00116229,0.0120033,2.26469,5,0.1,1,9.4,0.563054,2.64032,0.585677,0.0166833,0.0192225,-0.000102818,-0.0571609,-0.0987053,0.000476837,0.00641663,0.000292731,5,0.1,2,9.4,-3.34989,-3.88336,0.705458,-0.468284,-0.123107,-0.0089705,0.441074,0.134826,0.00992417,0.00696792,0.146659,5,0.1,3,9.4,4.17865,3.6417,0.638836,0.00134706,0.000345707,7.30157e-05,0.00143051,0.000238419,5.96046e-05,0.00850909,6.87563e-07,5,0.1,4,9.4,-4.13387,2.69895,0.598194,1.19209e-05,1.19209e-05,0,-0.000238419,0,0,0.00903109,5.13913e-09,5,0.1,5,9.4,2.31006,-1.14129,0.681295,-2.98023e-05,-2.98023e-06,0,0.000119209,0,0,0.00895313,1.98352e-09,5,0.1,6,9.4,3.02526,3.11118,0.647598,0.809401,-0.202143,-0.053893,0.133395,0.190258,0.0505447,0.00667422,0.636215,5,0.1,7,9.4,-1.96582,-0.841699,0.578769,-0.776815,-0.674751,-0.0287756,-0.702202,0.190705,0.00402331,0.00691491,1.56026,5,0.1,8,9.4,3.3001,2.24868,0.500013,0.000792742,0.545615,-0.000317395,0.00321865,0.4462,0.0115037,0.0157356,0.647153,5,0.1,9,9.4,-1.46804,1.65318,0.669777,4.47035e-05,-1.19209e-05,1.49012e-06,0.000596046,0,-8.9407e-05,0.0108319,2.33207e-08,5,0.1
0,9.5,3.68643,1.03712,0.727661,0.102847,-0.866025,-0.0198945,-0.0119656,-1.11759e-05,-0.00233948,0.0120033,2.26469,5,0.1,1,9.5,0.564453,2.64179,0.585669,0.0114832,0.0104345,-6.01634e-05,-0.0468343,-0.0770092,0.000372529,0.00641663,0.000292731,5,0.1,2,9.5,-3.39487,-3.8951,0.704602,-0.434429,-0.112592,-0.0081948,0.264585,0.0829846,0.00613555,0.00696792,0.146659,5,0.1,3,9.5,4.17879,3.64174,0.638844,0.00143647,0.000355765,7.62753e-05,0.000357628,-1.49012e-05,3.72529e-06,0.00850909,6.87563e-07,5,0.1,4,9.5,-4.13387,2.69895,0.598194,-8.19564e-06,1.15484e-05,0,-0.000149012,-1.49012e-05,0,0.00903109,5.13913e-09,5,0.1,5,9.5,2.31006,-1.14129,0.681295,-1.78814e-05,-2.23517e-06,3.72529e-07,0.000119209,1.49012e-05,7.45058e-06,0.00895313,1.98352e-09,5,0.1,6,9.5,3.10682,3.09187,0.642448,0.820548,-0.184548,-0.049207,0.0559539,0.167221,0.0446364,0.00667422,0.636215,5,0.1,7,9.5,-2.04666,-0.908317,0.575909,-0.83573,-0.657849,-0.028412,-0.447839,0.174504,0.00442192,0.00691491,1.56026,5,0.1,8,9.5,3.30022,2.30544,0.500024,0.00186749,0.588449,0.000425801,0.0139922,0.377014,0.00391155,0.0157356,0.647153,5,0.1,9,9.5,-1.46804,1.65318,0.669777,9.44361e-05,-1.17347e-05,-6.14673e-06,0.000394881,7.45058e-06,-6.70552e-05,0.0108319,2.33207e-08,5,0.1
0,9.6,3.69665,0.950515,0.725665,0.101382,-0.866026,-0.0199407,-0.0221729,0,0.00220537,0.0117629,2.26495,5,0.1,1,9.6,0.565385,2.64248,0.585664,0.007312,0.00380278,-2.83122e-05,-0.0366271,-0.0555515,0.000268221,0.00670865,0.00013795,5,0.1,2,9.6,-3.43709,-3.90598,0.703811,-0.410396,-0.105202,-0.00764877,0.236988,0.0704527,0.0051856,0.00648398,0.0854846,5,0.1,3,9.6,4.17894,3.64177,0.638851,0.00141859,0.000339746,7.30157e-05,-0.000476837,-0.000238419,0,0.00799721,2.09501e-07,5,0.1,4,9.6,-4.13387,2.69895,0.598194,-1.19209e-05,5.96046e-06,0,-0.000476837,0.000119209,0,0.00827139,1.68975e-08,5,0.1,5,9.6,2.31006,-1.14129,0.681295,-5.96046e-06,0,1.49012e-06,0,0,0,0.00830539,2.07199e-09,5,0.1,6,9.6,3.1888,3.07425,0.637751,0.815004,-0.167745,-0.0447169,-0.189066,0.172377,0.0461936,0.00722816,0.428576,5,0.1,7,9.6,-2.13188,-0.973074,0.573098,-0.862372,-0.635281,-0.0276968,-0.0730753,0.29549,0.0107586,0.00671257,1.1084,5,0.1,8,9.6,3.30047,2.36583,0.500078,0.00290275,0.615418,0.000563264,0.00429153,0.139713,-0.000685453,0.0158913,0.477371,5,0.1,9,9.6,-1.46803,1.65317,0.669776,0.00012517,-1.19209e-05,-1.19209e-05,0.000178814,5.96046e-05,-2.98023e-05,0.00839107,7.24093e-09,5,0.1
0,9.7,3.70673,0.863913,0.723676,0.100502,-0.866026,-0.019881,-0.00196695,3.72529e-06,0.000115484,0.0117629,2.26495,5,0.1,1,9.7,0.565947,2.64261,0.585663,0.00407863,-0.000907108,-5.40167e-06,-0.028111,-0.0388771,0.000193715,0.00670865,0.00013795,5,0.1,2,9.7,-3.4771,-3.91619,0.703069,-0.39073,-0.0994004,-0.00722129,0.175163,0.0505745,0.00372529,0.00648398,0.0854846,5,0.1,3,9.7,4.17908,3.6418,0.638859,0.00133589,0.000307709,7.0408e-05,-0.00116229,-0.00038743,-5.21541e-05,0.00799721,2.09501e-07,5,0.1,4,9.7,-4.13388,2.69895,0.598194,-4.69387e-05,1.41561e-05,0,-0.000268221,2.98023e-05,0,0.00827139,1.68975e-08,5,0.1,5,9.7,2.31006,-1.14129,0.681296,-4.09782e-06,7.45058e-07,1.58325e-06,4.47035e-05,1.49012e-05,3.72529e-06,0.00830539,2.07199e-09,5,0.1,6,9.7,3.26937,3.05828,0.633496,0.795742,-0.151932,-0.0404737,-0.223696,0.148594,0.039909,0.00722816,0.428576,5,0.1,7,9.7,-2.21833,-1.03522,0.57038,-0.865223,-0.607947,-0.0266825,0.0138581,0.273407,0.0104867,0.00671257,1.1084,5,0.1,8,9.7,3.30079,2.42804,0.500128,0.00356361,0.627723,0.000418536,0,0.0796169,-0.00204146,0.0158913,0.477371,5,0.1,9,9.7,-1.46801,1.65317,0.669775,0.000136718,-6.89179e-06,-1.43424e-05,4.47035e-05,3.72529e-05,-1.49012e-05,0.00839107,7.24093e-09,5,0.1
0,9.8,3.71676,0.77731,0.721693,0.0998676,-0.866026,-0.0197247,-0.015378,0,0.0038147,0.0112746,2.2651,5,0.1,1,9.8,0.566228,2.64236,0.585663,0.0016734,-0.00401735,1.04308e-05,-0.0201166,-0.0237226,0.000119209,0.00855037,5.02106e-05,5,0.1,2,9.8,-3.51527,-3.92588,0.702365,-0.372148,-0.0942349,-0.00684261,0.209689,0.0561476,0.00414252,0.00738059,0.0666601,5,0.1,3,9.8,4.1792,3.64183,0.638865,0.00120401,0.000268221,6.4075e-05,-0.00190735,-0.000596046,-8.9407e-05,0.007822,9.22012e-08,5,0.1,4,9.8,-4.13388,2.69895,0.598194,-5.96046e-05,1.78814e-05,0,-0.000238419,0,0,0.0087798,1.20479e-08,5,0.1,5,9.8,2.31005,-1.14129,0.681296,-5.96046e-06,2.98023e-06,1.49012e-06,0.000238419,-5.96046e-05,2.98023e-05,0.0110133,3.47688e-09,5,0.1,6,9.8,3.34758,3.04382,0.629646,0.765687,-0.137234,-0.0365242,-0.395656,0.148773,0.0398755,0.0101433,0.284205,5,0.1,7,9.8,-2.30457,-1.09453,0.56777,-0.856829,-0.576863,-0.0254378,0.183821,0.36335,0.0150204,0.00882017,0.777961,5,0.1,8,9.8,3.30109,2.49093,0.500159,0.00166297,0.62688,0.000184774,-0.0413656,-0.114202,-0.0025034,0.0166618,0.421759,5,0.1,9,9.8,-1.468,1.65317,0.669773,0.000137091,-2.98023e-06,-1.49012e-05,-5.96046e-05,0,0,0.00844175,2.22921e-09,5,0.1
0,9.9,3.72671,0.690708,0.719732,0.0995185,-0.866026,-0.019532,0.00204146,3.72529e-06,0.00117347,0.0112746,2.2651,5,0.1,1,9.9,0.566306,2.64185,0.585665,-1.86265e-05,-0.00581257,1.9744e-05,-0.0138432,-0.0125021,6.70552e-05,0.00855037,5.02106e-05,5,0.1,2,9.9,-3.5516,-3.93507,0.701698,-0.3555,-0.0898469,-0.00651861,0.142768,0.0367612,0.00270829,0.00738059,0.0666601,5,0.1,3,9.9,4.17931,3.64186,0.638871,0.00100508,0.000208989,5.40167e-05,-0.00199676,-0.000581145,-0.000104308,0.007822,9.22012e-08,5,0.1,4,9.9,-4.13389,2.69895,0.598194,-7.37607e-05,1.60187e-05,0,-8.9407e-05,-4.47035e-05,0,0.0087798,1.20479e-08,5,0.1,5,9.9,2.31006,-1.14129,0.681296,1.30385e-05,-1.11759e-06,3.91155e-06,0.000163913,-1.49012e-05,1.49012e-05,0.0110133,3.47688e-09,5,0.1,6,9.9,3.42224,3.0308,0.626181,0.727607,-0.123679,-0.0328878,-0.388816,0.126258,0.0338927,0.0101433,0.284205,5,0.1,7,9.9,-2.38946,-1.15051,0.565297,-0.841344,-0.543102,-0.0240275,0.162572,0.330232,0.0139736,0.00882017,0.777961,5,0.1,8,9.9,3.30101,2.55274,0.50074,-0.00421964,0.606157,0.0162745,-0.0898987,-0.302359,0.288054,0.0166618,0.421759,5,0.1,9,9.9,-1.46798,1.65317,0.669772,0.000127777,-2.98023e-06,-1.44355e-05,-0.000119209,0,1.11759e-05,0.00844175,2.22921e-09,5,0.1
