id,t,px,py,pz,vx,vy,vz,ax,ay,az,planning_time,qp_cost,planning_report,size,id,t,px,py,pz,vx,vy,vz,ax,ay,az,planning_time,qp_cost,planning_report,size,id,t,px,py,pz,vx,vy,vz,ax,ay,az,planning_time,qp_cost,planning_report,size,id,t,px,py,pz,vx,vy,vz,ax,ay,az,planning_time,qp_cost,planning_report,size,id,t,px,py,pz,vx,vy,vz,ax,ay,az,planning_time,qp_cost,planning_report,size,id,t,px,py,pz,vx,vy,vz,ax,ay,az,planning_time,qp_cost,planning_report,size,id,t,px,py,pz,vx,vy,vz,ax,ay,az,planning_time,qp_cost,planning_report,size,id,t,px,py,pz,vx,vy,vz,ax,ay,az,planning_time,qp_cost,planning_report,size,id,t,px,py,pz,vx,vy,vz,ax,ay,az,planning_time,qp_cost,planning_report,size,id,t,px,py,pz,vx,vy,vz,ax,ay,az,planning_time,qp_cost,planning_report,size
0,0,4.36084,-1.27337,0.632505,0,0,0,0,0,0,0.0106539,3.51219,5,0.1,1,0,1.19161,3.27807,0.634732,0,0,0,0,0,0,0.00974154,2.89295,5,0.1,2,0,3.66848,-0.304083,0.601925,0,0,0,0,0,0,0.0158847,3.5122,5,0.1,3,0,1.83001,-1.76556,0.676095,0,0,0,0,0,0,0.00879399,0.54006,5,0.1,4,0,0.646034,3.54149,0.553078,0,0,0,0,0,0,0.00817591,3.51219,5,0.1,5,0,-3.93878,4.08523,0.615189,0,0,0,0,0,0,0.0118261,3.51219,5,0.1,6,0,2.09837,3.31145,0.557881,0,0,0,0,0,0,0.0221582,3.3766,5,0.1,7,0,-3.25008,3.19072,0.573962,0,0,0,0,0,0,0.00995973,2.39588,5,0.1,8,0,-0.647106,-2.43709,0.651221,0,0,0,0,0,0,0.00671721,2.25654,5,0.1,9,0,0.738726,-1.00785,0.618408,0,0,0,0,0,0,0.00747912,1.72707,5,0.1
0,0.1,4.36031,-1.27135,0.632501,-0.0150762,0.057319,-0.000136998,-0.268012,1.01899,-0.00243261,0.0106539,3.51219,5,0.1,1,0.1,1.19003,3.27881,0.634701,-0.0448691,0.0210512,-0.000887737,-0.797682,0.374243,-0.0157878,0.00974154,2.89295,5,0.1,2,0.1,3.66825,-0.302008,0.601924,-0.0065688,0.0589031,-3.41795e-05,-0.11678,1.04716,-0.000607222,0.0158847,3.5122,5,0.1,3,0.1,1.8292,-1.7656,0.676172,-0.0231151,-0.00102036,0.00219019,-0.410929,-0.0181347,0.038933,0.00879399,0.54006,5,0.1,4,0.1,0.645848,3.53942,0.553122,-0.0052793,-0.0590198,0.00126362,-0.093855,-1.04922,0.0224635,0.00817591,3.51219,5,0.1,5,0.1,-3.93714,4.08394,0.615178,0.0465527,-0.0366822,-0.000330713,0.82761,-0.652075,-0.00587478,0.0118261,3.51219,5,0.1,6,0.1,2.09665,3.31034,0.557925,-0.0488486,-0.0314552,0.00124807,-0.868425,-0.559226,0.0221916,0.0221582,3.3766,5,0.1,7,0.1,-3.24856,3.18989,0.573989,0.0429723,-0.0234324,0.000771601,0.763938,-0.416562,0.0137202,0.00995973,2.39588,5,0.1,8,0.1,-0.647771,-2.43863,0.651154,-0.018893,-0.0435472,-0.00189785,-0.33588,-0.774175,-0.0337437,0.00671721,2.25654,5,0.1,9,0.1,0.737642,-1.00883,0.618389,-0.0307817,-0.0279201,-0.000545289,-0.54723,-0.49635,-0.00969693,0.00747912,1.72707,5,0.1
0,0.2,4.35725,-1.2597,0.632473,-0.047648,0.181156,-0.000433624,-0.357389,1.35863,-0.00324845,0.00790801,2.92579,5,0.1,1,0.2,1.18091,3.28308,0.63452,-0.141808,0.0665307,-0.00280589,-1.06359,0.49901,-0.0210404,0.0080669,2.42659,5,0.1,2,0.2,3.66691,-0.290044,0.601917,-0.0207603,0.186163,-0.000108778,-0.155807,1.39621,-0.000804663,0.0201438,2.92579,5,0.1,3,0.2,1.8245,-1.76581,0.676617,-0.0730544,-0.00322759,0.00692159,-0.547886,-0.0241399,0.0519156,0.00715628,0.443094,5,0.1,4,0.2,0.644776,3.52743,0.553379,-0.0166848,-0.186533,0.00399351,-0.12517,-1.39892,0.0299811,0.00698997,2.9258,5,0.1,5,0.2,-3.92768,4.07649,0.615111,0.147128,-0.115931,-0.00104457,1.10352,-0.869513,-0.00783801,0.0122203,2.92578,5,0.1,6,0.2,2.08673,3.30395,0.558179,-0.154382,-0.0994086,0.00394583,-1.158,-0.745773,0.0295639,0.0191031,2.77032,5,0.1,7,0.2,-3.23984,3.18513,0.574146,0.135815,-0.0740588,0.00243783,1.01852,-0.555396,0.0183284,0.0119453,1.9657,5,0.1,8,0.2,-0.651609,-2.44747,0.650769,-0.0597104,-0.137633,-0.00599921,-0.447869,-1.03211,-0.0449717,0.00631143,1.85138,5,0.1,9,0.2,0.731389,-1.0145,0.618278,-0.0972852,-0.0882387,-0.00172406,-0.72965,-0.66185,-0.0129342,0.00629798,1.41697,5,0.1
0,0.3,4.35049,-1.23403,0.632411,-0.0887498,0.337412,-0.000807177,-0.439167,1.66973,-0.00398979,0.00790801,2.92579,5,0.1,1,0.3,1.16115,3.29265,0.63414,-0.254655,0.12783,-0.00474583,-1.13866,0.682756,-0.0173226,0.0080669,2.42659,5,0.1,2,0.3,3.66397,-0.263663,0.601901,-0.0386752,0.34674,-0.000201445,-0.19142,1.71592,-0.000994653,0.0201438,2.92579,5,0.1,3,0.3,1.81416,-1.76626,0.677597,-0.135904,-0.00599828,0.0128767,-0.670463,-0.0295565,0.0635274,0.00715628,0.443094,5,0.1,4,0.3,0.642411,3.50099,0.553945,-0.0310796,-0.347424,0.00744062,-0.153814,-1.71927,0.0368245,0.00698997,2.9258,5,0.1,5,0.3,-3.90683,4.06006,0.614962,0.274041,-0.215932,-0.00194591,1.35615,-1.06856,-0.0096336,0.0122203,2.92578,5,0.1,6,0.3,2.06487,3.28987,0.558737,-0.287212,-0.184951,0.00733789,-1.41695,-0.912488,0.0361949,0.0191031,2.77032,5,0.1,7,0.3,-3.2206,3.17464,0.574491,0.252653,-0.137771,0.00453899,1.24641,-0.679657,0.0224002,0.0119453,1.9657,5,0.1,8,0.3,-0.660066,-2.46697,0.649919,-0.111085,-0.256031,-0.0111585,-0.548027,-1.26305,-0.0550374,0.00631143,1.85138,5,0.1,9,0.3,0.717611,-1.027,0.618034,-0.180984,-0.164158,-0.00320775,-0.892851,-0.809871,-0.0158213,0.00629798,1.41697,5,0.1
0,0.4,4.33946,-1.19208,0.632311,-0.131071,0.498289,-0.00119209,-0.388145,1.47635,-0.00351667,0.0123003,2.39078,5,0.1,1,0.4,1.13024,3.30885,0.633587,-0.360122,0.19536,-0.00620037,-0.931084,0.635028,-0.0114739,0.00941201,1.96899,5,0.1,2,0.4,3.65916,-0.220555,0.601876,-0.0571191,0.512065,-0.000298023,-0.169158,1.51717,-0.000864267,0.0166828,2.51438,5,0.1,3,0.4,1.79727,-1.76701,0.679197,-0.200427,-0.00884533,0.0189915,-0.591516,-0.0261068,0.0560284,0.00810607,0.350582,5,0.1,4,0.4,0.638547,3.4578,0.55487,-0.0458986,-0.513071,0.0109881,-0.135988,-1.52016,0.0325739,0.00693213,2.51478,5,0.1,5,0.4,-3.87276,4.03321,0.614721,0.404704,-0.318885,-0.00287443,1.19913,-0.944853,-0.00849366,0.0128343,2.51006,5,0.1,6,0.4,2.02918,3.26689,0.559649,-0.423574,-0.272763,0.0108212,-1.25009,-0.80502,0.0319183,0.0193662,2.19189,5,0.1,7,0.4,-3.18921,3.15753,0.575055,0.372601,-0.203174,0.00669509,1.09971,-0.599742,0.0197291,0.0138603,1.55529,5,0.1,8,0.4,-0.673866,-2.49877,0.648533,-0.163826,-0.377584,-0.0164554,-0.483483,-1.11449,-0.0485778,0.00619799,1.46484,5,0.1,9,0.4,0.695127,-1.04739,0.617636,-0.266911,-0.242099,-0.00473112,-0.787675,-0.714421,-0.0139475,0.00765618,1.12113,5,0.1
0,0.5,4.32437,-1.13475,0.632174,-0.170694,0.647796,-0.00155121,-0.38451,1.44061,-0.00348687,0.0123003,2.39078,5,0.1,1,0.5,1.08913,3.33158,0.632892,-0.464651,0.258827,-0.00783121,-1.08889,0.605702,-0.0194423,0.00941201,1.96899,5,0.1,2,0.5,3.65258,-0.161757,0.601842,-0.0745256,0.662155,-0.000387523,-0.170037,1.4156,-0.000875443,0.0166828,2.51438,5,0.1,3,0.5,1.77422,-1.76803,0.681382,-0.260442,-0.0114944,0.0246764,-0.579335,-0.0255704,0.0548773,0.00810607,0.350582,5,0.1,4,0.5,0.633258,3.3989,0.556136,-0.059892,-0.663201,0.0143395,-0.136685,-1.41378,0.0327267,0.00693213,2.51478,5,0.1,5,0.5,-3.82613,3.99646,0.614389,0.528096,-0.416112,-0.00374895,1.20527,-0.949681,-0.00854582,0.0128343,2.51006,5,0.1,6,0.5,1.98046,3.23552,0.560894,-0.550406,-0.354437,0.0140603,-1.22432,-0.78842,0.0312664,0.0193662,2.19189,5,0.1,7,0.5,-3.14635,3.13416,0.575825,0.484175,-0.264022,0.00869688,1.07706,-0.587374,0.0193268,0.0138603,1.55529,5,0.1,8,0.5,-0.69271,-2.54221,0.64664,-0.21288,-0.490657,-0.021384,-0.473529,-1.09152,-0.0475757,0.00619799,1.46484,5,0.1,9,0.5,0.664426,-1.07524,0.617092,-0.346829,-0.314585,-0.00614645,-0.771478,-0.699736,-0.0136606,0.00765618,1.12113,5,0.1
0,0.6,4.30552,-1.06332,0.632002,-0.204587,0.774002,-0.00185966,-0.279427,1.03274,-0.0025034,0.00808379,1.8417,5,0.1,1,0.6,1.03744,3.36025,0.63201,-0.56572,0.311637,-0.00979006,-0.881255,0.430465,-0.0184476,0.010048,1.50633,5,0.1,2,0.6,3.64433,-0.0890889,0.601799,-0.0895977,0.783763,-0.000464916,-0.125051,0.971371,-0.000655651,0.0138428,2.32888,5,0.1,3,0.6,1.7455,-1.76929,0.684103,-0.311285,-0.0137389,0.0294939,-0.416696,-0.0184178,0.0394583,0.00760743,0.260999,5,0.1,4,0.6,0.626633,3.32614,0.557723,-0.0720054,-0.784475,0.0172406,-0.100523,-0.967026,0.0240207,0.0085637,2.28701,5,0.1,5,0.6,-3.76771,3.95043,0.613975,0.634921,-0.50028,-0.00450611,0.886321,-0.698447,-0.00628829,0.0126382,2.21913,5,0.1,6,0.6,1.91976,3.19643,0.562444,-0.657848,-0.423622,0.0168055,-0.880659,-0.567198,0.022471,0.0256698,1.63179,5,0.1,7,0.6,-3.09296,3.10504,0.576784,0.578696,-0.315565,0.0103921,0.774741,-0.422478,0.0139475,0.0084836,1.15787,5,0.1,8,0.6,-0.716187,-2.59632,0.644282,-0.254433,-0.586438,-0.02556,-0.34067,-0.785351,-0.0342131,0.00685638,1.09053,5,0.1,9,0.6,0.626176,-1.10993,0.616414,-0.414529,-0.375989,-0.00734627,-0.554979,-0.503421,-0.00980496,0.0088034,0.834653,5,0.1
0,0.7,4.28368,-0.981797,0.631804,-0.231519,0.84633,-0.00210153,-0.243783,0.431985,-0.0021942,0.00808379,1.8417,5,0.1,1,0.7,0.976379,3.39352,0.630934,-0.654781,0.352537,-0.0117683,-0.845619,0.365302,-0.0198148,0.010048,1.50633,5,0.1,2,0.7,3.63474,-0.00691277,0.601749,-0.102147,0.849766,-0.000530761,-0.118047,0.374121,-0.000622123,0.0138428,2.32888,5,0.1,3,0.7,1.71232,-1.77076,0.687246,-0.351291,-0.0155069,0.0332824,-0.360541,-0.0159293,0.0341497,0.00760743,0.260999,5,0.1,4,0.7,0.618925,3.24392,0.559568,-0.082051,-0.850008,0.0196418,-0.0941232,-0.369847,0.0225008,0.0085637,2.28701,5,0.1,5,0.7,-3.69972,3.89687,0.613492,0.723892,-0.570389,-0.00513755,0.836968,-0.65954,-0.00594556,0.0126382,2.21913,5,0.1,6,0.7,1.84965,3.15128,0.564235,-0.742394,-0.478073,0.0189636,-0.761941,-0.49071,0.0194535,0.0256698,1.63179,5,0.1,7,0.7,-3.03128,3.07141,0.577892,0.653074,-0.356124,0.0117306,0.670299,-0.365525,0.012055,0.0084836,1.15787,5,0.1,8,0.7,-0.743304,-2.65882,0.641558,-0.287137,-0.661831,-0.0288447,-0.294734,-0.679433,-0.0296012,0.00685638,1.09053,5,0.1,9,0.7,0.581996,-1.15001,0.615631,-0.46781,-0.424319,-0.00828812,-0.480168,-0.435553,-0.00848994,0.0088034,0.834653,5,0.1
0,0.8,4.25947,-0.895818,0.631584,-0.250769,0.866026,-0.00227541,-0.130653,0,-0.00116229,0.00737178,1.36591,5,0.1,1,0.8,0.907098,3.43034,0.629664,-0.725625,0.380975,-0.0135288,-0.533491,0.188351,-0.0144541,0.00642069,1.0912,5,0.1,2,0.8,3.624,0.0791905,0.601694,-0.111866,0.866026,-0.000581145,-0.0708103,0,-0.000417233,0.0191394,2.2623,5,0.1,3,0.8,1.67564,-1.77238,0.690722,-0.379556,-0.0167578,0.0359595,-0.189364,-0.00834465,0.017941,0.00905174,0.184283,5,0.1,4,0.8,0.610302,3.1578,0.561632,-0.0897706,-0.866026,0.021486,-0.055939,0,0.013411,0.00773028,1.77615,5,0.1,5,0.8,-3.62361,3.83689,0.612952,0.792819,-0.624698,-0.00562817,0.502586,-0.396252,-0.00354648,0.0153928,2.04468,5,0.1,6,0.8,1.77212,3.10135,0.566216,-0.802132,-0.516546,0.0204891,-0.400066,-0.257611,0.0102222,0.0196826,1.15212,5,0.1,7,0.8,-2.96308,3.03422,0.579117,0.70563,-0.384784,0.0126749,0.352025,-0.191927,0.00634789,0.0115269,0.817518,5,0.1,8,0.8,-0.773291,-2.72794,0.638546,-0.310247,-0.715101,-0.0311658,-0.154734,-0.356674,-0.0155568,0.00585786,0.769956,5,0.1,9,0.8,0.533142,-1.19432,0.614765,-0.505456,-0.458467,-0.00895411,-0.252142,-0.228703,-0.00447035,0.00663348,0.589311,5,0.1
0,0.9,4.23377,-0.809221,0.631351,-0.262676,0.865749,-0.00238195,-0.0953078,-0.0110492,-0.000856817,0.00737178,1.36591,5,0.1,1,0.9,0.831908,3.46933,0.628239,-0.776668,0.397817,-0.0149635,-0.444658,0.130773,-0.0132285,0.00642069,1.0912,5,0.1,2,0.9,3.61245,0.165793,0.601633,-0.119171,0.866026,-0.000623148,-0.0677705,-1.78814e-06,-0.000383705,0.0191394,2.2623,5,0.1,3,0.9,1.63678,-1.77409,0.694403,-0.396716,-0.0175143,0.0375853,-0.135638,-0.00598282,0.012856,0.00905174,0.184283,5,0.1,4,0.9,0.60105,3.0712,0.563847,-0.0950701,-0.866026,0.022756,-0.045117,0,0.0108145,0.00773028,1.77615,5,0.1,5,0.9,-3.54192,3.77236,0.612371,0.838798,-0.665749,-0.00599632,0.378281,-0.382453,-0.00343844,0.0153928,2.04468,5,0.1,6,0.9,1.69,3.04847,0.568313,-0.838385,-0.539889,0.0214157,-0.286572,-0.184491,0.00732765,0.0196826,1.15212,5,0.1,7,0.9,-2.89084,2.99482,0.580415,0.737528,-0.402175,0.0132497,0.252172,-0.137463,0.0045374,0.0115269,0.817518,5,0.1,8,0.9,-0.805053,-2.80115,0.635355,-0.324268,-0.74742,-0.0325753,-0.110831,-0.255466,-0.0111423,0.00585786,0.769956,5,0.1,9,0.9,0.481394,-1.24126,0.613849,-0.528304,-0.479191,-0.00935923,-0.180612,-0.163816,-0.00320375,0.00663348,0.589311,5,0.1
0,1,4.20717,-0.72279,0.63111,-0.26778,0.861606,-0.0024274,0.000953674,-0.0883639,0,0.0078625,1.0144,5,0.1,1,1,0.75245,3.50955,0.626685,-0.807407,0.404191,-0.0160038,-0.141293,-0.0151396,-0.00688434,0.00959297,0.757,5,0.1,2,1,3.60025,0.252396,0.601569,-0.124156,0.866026,-0.000652671,-0.0268221,-1.43051e-05,-0.000119209,0.0125813,2.26136,5,0.1,3,1,1.59664,-1.77586,0.698206,-0.403666,-0.0178188,0.0382438,0.00876188,0.000357628,-0.000804663,0.00770649,0.12532,5,0.1,4,1,0.591369,2.9846,0.566164,-0.0979677,-0.866026,0.02345,-0.00953674,0,0.00229478,0.0077958,1.3732,5,0.1,5,1,-3.45661,3.70418,0.611757,0.86242,-0.694036,-0.00625104,0.0721216,-0.15378,-0.00137091,0.012974,1.98075,5,0.1,6,1,1.60517,2.99384,0.57048,-0.853062,-0.549334,0.0217915,0.0184774,0.0119209,-0.000476837,0.0229522,0.783487,5,0.1,7,1,-2.81621,2.95413,0.581755,0.75044,-0.409216,0.0134811,-0.0160933,0.00882149,-0.000268221,0.00826975,0.555942,5,0.1,8,1,-0.837863,-2.87677,0.632059,-0.329943,-0.760502,-0.0331461,0.00712276,0.0164509,0.000685453,0.00696438,0.523596,5,0.1,9,1,0.42794,-1.28974,0.612902,-0.537556,-0.487581,-0.00952482,0.0116229,0.0104904,0.000238419,0.00715896,0.400755,5,0.1
0,1.1,4.1804,-0.636789,0.630867,-0.267073,0.859964,-0.00242209,0.0230968,0.00599399,0.00019744,0.0078625,1.0144,5,0.1,1,1.1,0.671039,3.54988,0.625051,-0.819566,0.401712,-0.0166499,-0.0676177,-0.0488609,-0.00523403,0.00959297,0.757,5,0.1,2,1.1,3.58767,0.338998,0.601503,-0.127385,0.866025,-0.000667665,-0.0304431,0,-0.000145286,0.0125813,2.26136,5,0.1,3,1.1,1.55633,-1.77764,0.702025,-0.401894,-0.017743,0.0380781,0.041455,0.00181049,-0.00391155,0.00770649,0.12532,5,0.1,4,1.1,0.581528,2.898,0.56852,-0.0987113,-0.865804,0.023629,-0.00135601,0.00885129,0.000327826,0.0077958,1.3732,5,0.1,5,1.1,-3.37015,3.63385,0.611123,0.865509,-0.713057,-0.00642138,-0.0026226,-0.184283,-0.00165775,0.012974,1.98075,5,0.1,6,1.1,1.51999,2.93899,0.572656,-0.849318,-0.546921,0.0216958,0.0876188,0.0564307,-0.00223145,0.0229522,0.783487,5,0.1,7,1.1,-2.74128,2.91327,0.583101,0.747159,-0.407422,0.0134234,-0.0769645,0.0420213,-0.00137463,0.00826975,0.555942,5,0.1,8,1.1,-0.870807,-2.95271,0.628749,-0.328497,-0.757165,-0.0330034,0.0338778,0.0781268,0.00338629,0.00696438,0.523596,5,0.1,9,1.1,0.374265,-1.33843,0.611951,-0.535199,-0.485447,-0.00948049,0.0551921,0.0500232,0.000998378,0.00715896,0.400755,5,0.1
0,1.2,4.15391,-0.550939,0.630627,-0.261521,0.854364,-0.00237226,0.0946522,-0.152812,0.000834465,0.00941909,0.725604,5,0.1,1,1.2,0.589094,3.58965,0.623368,-0.815229,0.39202,-0.0169173,0.177115,-0.154138,0.000447035,0.00651939,0.510207,5,0.1,2,1.2,3.57482,0.425601,0.601436,-0.129002,0.866025,-0.000675023,0.00321865,1.43051e-05,2.98023e-05,0.0143626,2.26124,5,0.1,3,1.2,1.5165,-1.7794,0.705799,-0.392926,-0.0173479,0.0372291,0.147641,0.00649691,-0.0139475,0.00916203,0.146514,5,0.1,4,1.2,0.57169,2.81153,0.570875,-0.0975788,-0.862485,0.0233576,0.0266731,0.0708103,-0.0063777,0.00954586,1.17889,5,0.1,5,1.2,-3.28373,3.56185,0.610475,0.861377,-0.723708,-0.00651777,-0.0931025,0.000834465,0,0.0131268,1.6927,5,0.1,6,1.2,1.43582,2.88479,0.574806,-0.830367,-0.534713,0.0212118,0.311971,0.200987,-0.00795722,0.0231789,0.520979,5,0.1,7,1.2,-2.66723,2.87289,0.584432,0.730497,-0.398338,0.0131235,-0.27442,0.149727,-0.00491738,0.00950531,0.369665,5,0.1,8,1.2,-0.903363,-3.02775,0.625478,-0.321168,-0.740272,-0.0322685,0.12064,0.278234,0.0121295,0.00796138,0.348161,5,0.1,9,1.2,0.321224,-1.38654,0.611011,-0.523258,-0.474617,-0.00926852,0.196561,0.178277,0.00351667,0.00590646,0.26648,5,0.1
0,1.3,4.12823,-0.466106,0.630394,-0.252146,0.842878,-0.00228947,0.10106,-0.116493,0.000897795,0.00941909,0.725604,5,0.1,1,1.3,0.508443,3.6281,0.621678,-0.797207,0.376772,-0.0168503,0.211349,-0.16278,0.001546,0.00651939,0.510207,5,0.1,2,1.3,3.56191,0.512203,0.601369,-0.129517,0.866026,-0.000676792,-0.00631809,-1.93715e-06,-2.6077e-05,0.0143626,2.26124,5,0.1,3,1.3,1.47791,-1.78112,0.709475,-0.378968,-0.0169953,0.036472,0.145167,0.00175089,-0.00375882,0.00916203,0.146514,5,0.1,4,1.3,0.562063,2.72652,0.573179,-0.0949124,-0.829659,0.0227198,0.0299215,0.561416,-0.00716001,0.00954586,1.17889,5,0.1,5,1.3,-3.19771,3.48934,0.609822,0.861152,-0.727086,-0.00654915,0.0350475,-0.0301898,-0.000279397,0.0131268,1.6927,5,0.1,6,1.3,1.35431,2.8323,0.576889,-0.799528,-0.514846,0.0204253,0.330612,0.212952,-0.00843033,0.0231789,0.520979,5,0.1,7,1.3,-2.59553,2.83379,0.58572,0.703368,-0.383537,0.0126367,-0.290841,0.158638,-0.00522286,0.00950531,0.369665,5,0.1,8,1.3,-0.93489,-3.10041,0.622311,-0.309241,-0.712769,-0.0310694,0.127867,0.294834,0.012856,0.00796138,0.348161,5,0.1,9,1.3,0.269859,-1.43313,0.610102,-0.503827,-0.456993,-0.00892188,0.208316,0.188947,0.00370294,0.00590646,0.26648,5,0.1
0,1.4,4.10358,-0.382605,0.63017,-0.239956,0.824373,-0.00218004,0.148296,-0.280902,0.0013113,0.00678827,0.505086,5,0.1,1,1.4,0.430022,3.66487,0.620007,-0.768301,0.357479,-0.0165001,0.385374,-0.230908,0.00587106,0.00916264,0.497272,5,0.1,2,1.4,3.54895,0.598806,0.601301,-0.129044,0.866026,-0.000673532,0.0208616,0,0.000119209,0.0165325,2.2616,5,0.1,3,1.4,1.44082,-1.78281,0.713103,-0.361612,-0.0167936,0.036037,0.211239,0.00315905,-0.00682473,0.00774879,0.121995,5,0.1,4,1.4,0.552748,2.647,0.575409,-0.0910521,-0.754857,0.0217959,0.0494421,0.912189,-0.0118315,0.00743822,1.1007,5,0.1,5,1.4,-3.11157,3.41668,0.609167,0.859231,-0.723267,-0.00651479,-0.11158,0.132918,0.00116229,0.0118682,1.21664,5,0.1,6,1.4,1.27621,2.78201,0.578884,-0.759956,-0.48936,0.0194147,0.47785,0.307798,-0.0121593,0.0185423,0.342922,5,0.1,7,1.4,-2.52682,2.79633,0.586954,0.668561,-0.364548,0.0120103,-0.42057,0.229239,-0.00753999,0.0107661,0.243321,5,0.1,8,1.4,-0.965097,-3.17004,0.619276,-0.293936,-0.677484,-0.0295311,0.184804,0.426054,0.0185668,0.00591109,0.229169,5,0.1,9,1.4,0.220646,-1.47776,0.60923,-0.478893,-0.434375,-0.00847876,0.30113,0.273108,0.00533462,0.00570746,0.175402,5,0.1
0,1.5,4.0803,-0.30145,0.629959,-0.225801,0.799124,-0.00205431,0.14165,-0.256159,0.00125915,0.00678827,0.505086,5,0.1,1,1.5,0.354894,3.69951,0.618386,-0.735665,0.335452,-0.0159254,0.300486,-0.219628,0.00616163,0.00916264,0.497272,5,0.1,2,1.5,3.53611,0.685408,0.601234,-0.127992,0.866026,-0.000667293,0.00725687,-3.72529e-06,4.09782e-05,0.0165325,2.2616,5,0.1,3,1.5,1.40608,-1.78447,0.71668,-0.33002,-0.0165476,0.0355056,0.401497,0.00252575,-0.0054501,0.00774879,0.121995,5,0.1,4,1.5,0.543881,2.57676,0.577531,-0.0863155,-0.644418,0.0206624,0.0479966,1.24498,-0.0114925,0.00743822,1.1007,5,0.1,5,1.5,-3.02602,3.34493,0.608521,0.852545,-0.711988,-0.00641616,-0.0647306,0.123367,0.00108406,0.0118682,1.21664,5,0.1,6,1.5,1.20252,2.73456,0.580767,-0.714376,-0.460001,0.0182544,0.455357,0.29327,-0.0116043,0.0185423,0.342922,5,0.1,7,1.5,-2.46199,2.76098,0.588119,0.628446,-0.342682,0.0112906,-0.400722,0.218451,-0.00719726,0.0107661,0.243321,5,0.1,8,1.5,-0.993602,-3.23574,0.616412,-0.276307,-0.636845,-0.0277598,0.176113,0.405982,0.0176989,0.00591109,0.229169,5,0.1,9,1.5,0.174204,-1.51989,0.608408,-0.450169,-0.408323,-0.00797035,0.28695,0.260256,0.00507757,0.00570746,0.175402,5,0.1
0,1.6,4.05846,-0.222991,0.62976,-0.210476,0.767745,-0.00191629,0.169277,-0.393324,0.00149012,0.00753034,0.344784,5,0.1,1,1.6,0.282911,3.7319,0.616828,-0.702569,0.311875,-0.0151798,0.384636,-0.258446,0.00911951,0.0108524,0.346111,5,0.1,2,1.6,3.52338,0.772011,0.601168,-0.126392,0.866026,-0.000658631,0.0298023,0,0.000149012,0.0122189,2.26218,5,0.1,3,1.6,1.37527,-1.78611,0.720194,-0.28469,-0.0161558,0.0346676,0.490606,0.00572205,-0.0124872,0.00775449,0.278135,5,0.1,4,1.6,0.535505,2.51875,0.579536,-0.0809982,-0.514817,0.0193894,0.0601113,1.30892,-0.0143945,0.0102379,1.0505,5,0.1,5,1.6,-2.94129,3.27453,0.607886,0.839061,-0.693423,-0.00625104,-0.234485,0.268936,0.00241399,0.0119477,0.849664,5,0.1,6,1.6,1.13346,2.69009,0.582531,-0.66528,-0.428385,0.0170037,0.541091,0.348449,-0.0138283,0.0212279,0.225392,5,0.1,7,1.6,-2.40124,2.72785,0.589211,0.585246,-0.319129,0.0105143,-0.476003,0.259519,-0.00855327,0.00740383,0.159929,5,0.1,8,1.6,-1.02031,-3.2973,0.613729,-0.257319,-0.593072,-0.025852,0.209272,0.482321,0.0210106,0.00651494,0.150625,5,0.1,9,1.6,0.130689,-1.55936,0.607638,-0.41923,-0.38026,-0.00742376,0.34095,0.309229,0.00604987,0.00576365,0.194646,5,0.1
0,1.7,4.03822,-0.148063,0.629575,-0.194599,0.731361,-0.00177566,0.154078,-0.36064,0.00137091,0.00753034,0.344784,5,0.1,1,1.7,0.21441,3.76186,0.615354,-0.668446,0.287652,-0.0143124,0.324745,-0.23444,0.00867993,0.0108524,0.346111,5,0.1,2,1.7,3.51084,0.858613,0.601102,-0.124552,0.866026,-0.000649597,0.0139177,-3.72529e-06,6.33299e-05,0.0122189,2.26218,5,0.1,3,1.7,1.34948,-1.7877,0.723599,-0.230009,-0.0155739,0.0334029,0.56228,0.0064075,-0.0138395,0.00775449,0.278135,5,0.1,4,1.7,0.527692,2.47384,0.581407,-0.0753433,-0.384469,0.0180352,0.0552572,1.24387,-0.0132285,0.0102379,1.0505,5,0.1,5,1.7,-2.85843,3.20645,0.607273,0.818541,-0.668528,-0.00602743,-0.2103,0.25399,0.0022836,0.0119477,0.849664,5,0.1,6,1.7,1.06951,2.64891,0.584166,-0.614556,-0.39572,0.0157073,0.49156,0.31653,-0.0125617,0.0212279,0.225392,5,0.1,7,1.7,-2.34498,2.69717,0.590221,0.540624,-0.2948,0.0097122,-0.432417,0.235781,-0.00777841,0.00740383,0.159929,5,0.1,8,1.7,-1.04505,-3.35431,0.611243,-0.237701,-0.547857,-0.0238821,0.190131,0.438184,0.0190958,0.00651494,0.150625,5,0.1,9,1.7,0.0903895,-1.59607,0.606924,-0.387268,-0.355715,-0.00685705,0.309746,0.201918,0.00548735,0.00576365,0.194646,5,0.1
0,1.8,4.01954,-0.0768508,0.629405,-0.178695,0.691196,-0.00163317,0.167847,-0.460584,0.00151992,0.0100218,0.232575,5,0.1,1,1.8,0.149269,3.78944,0.613968,-0.633062,0.26356,-0.0133708,0.401604,-0.252962,0.0104904,0.00747376,0.237559,5,0.1,2,1.8,3.49848,0.945216,0.601038,-0.122434,0.866026,-0.00063926,0.0333786,2.98023e-05,0.000178814,0.0129942,2.26285,5,0.1,3,1.8,1.32916,-1.78922,0.726861,-0.178447,-0.0147969,0.0317276,0.447631,0.00947714,-0.020355,0.0119591,0.239918,5,0.1,4,1.8,0.520441,2.44117,0.583142,-0.0695646,-0.274134,0.0166506,0.0618696,0.93627,-0.014782,0.00940461,0.975827,5,0.1,5,1.8,-2.77782,3.14101,0.606682,0.791216,-0.638419,-0.00575632,-0.359893,0.365257,0.00327826,0.00933919,0.58155,5,0.1,6,1.8,1.01055,2.61095,0.585673,-0.563914,-0.363106,0.0144124,0.53376,0.343561,-0.0136197,0.0203054,0.149635,5,0.1,7,1.8,-2.29312,2.66889,0.591153,0.496072,-0.27051,0.00891089,-0.469565,0.256062,-0.00843406,0.00791127,0.105529,5,0.1,8,1.8,-1.06785,-3.40687,0.608952,-0.218111,-0.502712,-0.0219136,0.206411,0.475764,0.0207126,0.00632403,0.0993868,5,0.1,9,1.8,0.0532358,-1.63067,0.606266,-0.355355,-0.336373,-0.00629276,0.336317,0.199676,0.00599027,0.00712137,0.14113,5,0.1
0,1.9,4.00247,-0.00990415,0.629248,-0.163137,0.648477,-0.00149198,0.148177,-0.415552,0.00134856,0.0100218,0.232575,5,0.1,1,1.9,0.0878283,3.8146,0.612681,-0.596622,0.240131,-0.0123884,0.349253,-0.222743,0.00953302,0.00747376,0.237559,5,0.1,2,1.9,3.48636,1.03182,0.600974,-0.12027,0.866026,-0.000627711,0.0166297,-7.45058e-06,8.19564e-05,0.0129942,2.26285,5,0.1,3,1.9,1.31333,-1.79065,0.729931,-0.141368,-0.0138365,0.0296677,0.256225,0.0100136,-0.0214763,0.0119591,0.239918,5,0.1,4,1.9,0.513777,2.41791,0.584737,-0.0638149,-0.19774,0.0152763,0.0550412,0.54206,-0.0131652,0.00940461,0.975827,5,0.1,5,1.9,-2.70043,3.07894,0.606123,0.756691,-0.603111,-0.0054406,-0.355661,0.358805,0.0031963,0.00933919,0.58155,5,0.1,6,1.9,0.956767,2.5763,0.58705,-0.512095,-0.330297,0.0131535,0.512682,0.3203,-0.0119545,0.0203054,0.149635,5,0.1,7,1.9,-2.24573,2.64305,0.592004,0.452569,-0.246787,0.00812924,-0.413984,0.225738,-0.0074394,0.00791127,0.105529,5,0.1,8,1.9,-1.08869,-3.45489,0.606859,-0.198987,-0.458633,-0.0199942,0.181988,0.419468,0.0182763,0.00632403,0.0993868,5,0.1,9,1.9,0.0192912,-1.66327,0.605665,-0.324197,-0.315101,-0.00573862,0.296517,0.230625,0.00526011,0.00712137,0.14113,5,0.1
0,2,3.9869,0.0527954,0.629106,-0.148237,0.604421,-0.00135601,0.153184,-0.480449,0.00140071,0.0078494,0.156008,5,0.1,1,2,0.0299729,3.8375,0.611491,-0.559482,0.217807,-0.0114009,0.408771,-0.228763,0.0104606,0.00697011,0.882552,5,0.1,2,2,3.47443,1.11842,0.600912,-0.117964,0.866026,-0.000615418,0.0340939,0,0.000178814,0.0149523,1.9635,5,0.1,3,2,1.3,-1.79198,0.732785,-0.129762,-0.0127465,0.0273287,-0.0119209,0.0120401,-0.0257194,0.0126543,0.179736,5,0.1,4,2,0.507673,2.4,0.586199,-0.0582337,-0.168508,0.0139415,0.0579357,0.0642538,-0.0138581,0.00605567,0.831484,5,0.1,5,2,-2.6267,3.02053,0.605596,0.715894,-0.563681,-0.00509024,-0.476837,0.44167,0.00396371,0.00909631,0.40056,5,0.1,6,2,0.908152,2.54488,0.588305,-0.459719,-0.297761,0.0119537,0.541359,0.335574,-0.0123084,0.0186005,0.104641,5,0.1,7,2,-2.20254,2.6195,0.59278,0.410998,-0.224113,0.00738204,-0.426888,0.232697,-0.007689,0.00841257,0.123261,5,0.1,8,2,-1.10768,-3.49866,0.604951,-0.180709,-0.416505,-0.0181586,0.187695,0.432611,0.0188351,0.00898196,0.113647,5,0.1,9,2,-0.0116475,-1.69355,0.605117,-0.294417,-0.289488,-0.00520945,0.305758,0.284433,0.00539422,0.00832134,0.232984,5,0.1
0,2.1,3.97279,0.110972,0.628977,-0.134166,0.560016,-0.00122702,0.132322,-0.42578,0.00121817,0.0078494,0.156008,5,0.1,1,2.1,-0.0246897,3.8582,0.6104,-0.539875,0.196815,-0.0104319,0.0410903,-0.197113,0.00923872,0.00697011,0.882552,5,0.1,2,2.1,3.46277,1.20502,0.600851,-0.115404,0.866026,-0.000601914,0.0228435,0,0.000115484,0.0149523,1.9635,5,0.1,3,2.1,1.28647,-1.7932,0.73539,-0.144719,-0.0115553,0.0247836,-0.250481,0.0119582,-0.0255704,0.0126543,0.179736,5,0.1,4,2.1,0.502122,2.38258,0.587528,-0.0528996,-0.187364,0.0126654,0.0503566,-0.380144,-0.012055,0.00605567,0.831484,5,0.1,5,2.1,-2.55747,2.96636,0.605106,0.6683,-0.51963,-0.00469917,-0.490114,0.449166,0.00395253,0.00909631,0.40056,5,0.1,6,2.1,0.864808,2.51673,0.589443,-0.407772,-0.265542,0.0108262,0.504412,0.31352,-0.0105761,0.0186005,0.104641,5,0.1,7,2.1,-2.16345,2.59803,0.593482,0.371805,-0.207193,0.006676,-0.368342,0.121772,-0.00663474,0.00841257,0.123261,5,0.1,8,2.1,-1.12495,-3.53846,0.603215,-0.165855,-0.382271,-0.0166676,0.119753,0.27597,0.0120215,0.00898196,0.113647,5,0.1,9,2.1,-0.0397875,-1.72087,0.60462,-0.270221,-0.255076,-0.00478318,0.195068,0.393897,0.00343099,0.00832134,0.232984,5,0.1
0,2.2,3.96003,0.164815,0.62886,-0.121075,0.516204,-0.00110716,0.132322,-0.462935,0.0012219,0.00688864,0.104542,5,0.1,1,2.2,-0.0786889,3.87691,0.609403,-0.541161,0.17736,-0.00950098,-0.0234997,-0.196099,0.00965595,0.00722498,0.703899,5,0.1,2,2.2,3.45136,1.29163,0.600792,-0.112408,0.866026,-0.000585616,0.041008,0,0.000178814,0.0190337,1.56651,5,0.1,3,2.2,1.2706,-1.79429,0.737738,-0.173393,-0.0103265,0.0221521,-0.295222,0.012815,-0.0272989,0.00692117,0.120627,5,0.1,4,2.2,0.497082,2.36162,0.588734,-0.0478879,-0.23371,0.0114664,0.0509769,-0.499845,-0.0122488,0.00636481,0.670397,5,0.1,5,2.2,-2.49322,2.91672,0.604657,0.615412,-0.472248,-0.00428259,-0.57745,0.504494,0.00441074,0.0105054,0.284705,5,0.1,6,2.2,0.826537,2.49174,0.590473,-0.357705,-0.234276,0.00978112,0.501394,0.31507,-0.0106096,0.0172569,0.142451,5,0.1,7,2.2,-2.12809,2.57784,0.594117,0.335401,-0.196952,0.00602007,-0.36788,0.0952482,-0.00658631,0.00855763,0.154906,5,0.1,8,2.2,-1.14098,-3.57541,0.601604,-0.154954,-0.357145,-0.0155717,0.105858,0.243902,0.0106096,0.00841842,0.0656667,5,0.1,9,2.2,-0.0659035,-1.74429,0.604157,-0.252466,-0.212541,-0.00447184,0.1725,0.448465,0.00303984,0.00568107,0.21098,5,0.1
0,2.3,3.94854,0.214257,0.628755,-0.10901,0.473632,-0.000995491,0.112429,-0.403657,0.00103936,0.00688864,0.104542,5,0.1,1,2.3,-0.132811,3.89373,0.608498,-0.539764,0.159495,-0.00861455,0.0667247,-0.166252,0.0083372,0.00722498,0.703899,5,0.1,2,2.3,3.4403,1.37813,0.600734,-0.10886,0.862342,-0.000569969,0.0346154,-0.101417,0.000156462,0.0190337,1.56651,5,0.1,3,2.3,1.25166,-1.79526,0.73982,-0.206159,-0.00908542,0.0195054,-0.335835,0.0121221,-0.0258759,0.00692117,0.120627,5,0.1,4,2.3,0.492533,2.3354,0.589824,-0.0432295,-0.292934,0.0103475,0.0435449,-0.638127,-0.0104569,0.00636481,0.670397,5,0.1,5,2.3,-2.43445,2.87193,0.604249,0.560557,-0.424123,-0.00386685,-0.533447,0.466838,0.00400096,0.0105054,0.284705,5,0.1,6,2.3,0.792872,2.4699,0.591406,-0.31897,-0.202546,0.00894088,0.297807,0.31893,-0.00676513,0.0172569,0.142451,5,0.1,7,2.3,-2.09612,2.55831,0.594691,0.306316,-0.196253,0.00549899,-0.233427,-0.0562072,-0.0041835,0.00855763,0.154906,5,0.1,8,2.3,-1.156,-3.61004,0.600094,-0.146016,-0.33655,-0.0146754,0.0797734,0.183806,0.00800937,0.00841842,0.0656667,5,0.1,9,2.3,-0.0903867,-1.76326,0.603723,-0.237901,-0.166597,-0.00421563,0.129987,0.461981,0.0022836,0.00568107,0.21098,5,0.1
0,2.4,3.93819,0.259599,0.628661,-0.0980079,0.432907,-0.00089407,0.110269,-0.421375,0.00101328,0.00729339,0.121143,5,0.1,1,2.4,-0.186204,3.90886,0.607678,-0.525345,0.143254,-0.00778884,0.231065,-0.162363,0.00840425,0.00694381,0.673805,5,0.1,2,2.4,3.42961,1.46351,0.600678,-0.104702,0.841179,-0.000549853,0.0517368,-0.339806,0.000268221,0.0177886,1.42155,5,0.1,3,2.4,1.22946,-1.79611,0.741642,-0.236395,-0.00788271,0.0169367,-0.251532,0.0119209,-0.02563,0.00697893,0.10453,5,0.1,4,2.4,0.488424,2.303,0.590807,-0.0389472,-0.353283,0.00932068,0.0430346,-0.534892,-0.0103414,0.00630318,0.519835,5,0.1,5,2.4,-2.38108,2.83185,0.603883,0.506413,-0.377405,-0.00346601,-0.558734,0.473499,0.00405312,0.0103519,0.207229,5,0.1,6,2.4,0.762293,2.45124,0.592269,-0.293842,-0.170636,0.00832975,0.223249,0.318408,-0.00587106,0.0169889,0.240103,5,0.1,7,2.4,-2.06656,2.53832,0.595221,0.28531,-0.203812,0.00512153,-0.201344,-0.0760555,-0.00360608,0.0084987,0.0958354,5,0.1,8,2.4,-1.1702,-3.64277,0.598667,-0.137827,-0.317687,-0.0138521,0.0888705,0.204802,0.00891089,0.0081793,0.0511178,5,0.1,9,2.4,-0.113522,-1.77765,0.603313,-0.22456,-0.121626,-0.0039801,0.14475,0.431061,0.0025034,0.00557674,0.19817,5,0.1
0,2.5,3.92886,0.301127,0.628576,-0.0893362,0.4004,-0.000814069,0.0690222,-0.255082,0.000637025,0.00729339,0.121143,5,0.1,1,2.5,-0.236979,3.92243,0.606939,-0.484721,0.128552,-0.00702292,0.557221,-0.135884,0.00713766,0.00694381,0.673805,5,0.1,2,2.5,3.41938,1.54493,0.600624,-0.0999957,0.778783,-0.000525359,0.0461638,-0.858083,0.000242144,0.0177886,1.42155,5,0.1,3,2.5,1.20446,-1.79684,0.743213,-0.263989,-0.00676867,0.0145414,-0.275649,0.0104979,-0.0225492,0.00697893,0.10453,5,0.1,4,2.5,0.48473,2.26492,0.591691,-0.0350387,-0.408403,0.0083819,0.0362676,-0.531718,-0.00870973,0.00630318,0.519835,5,0.1,5,2.5,-2.33298,2.79625,0.603555,0.45759,-0.336346,-0.00311164,-0.436768,0.362322,0.00316277,0.0103519,0.207229,5,0.1,6,2.5,0.733818,2.43579,0.593076,-0.277263,-0.138316,0.00783587,0.126459,0.323981,-0.00438467,0.0169889,0.240103,5,0.1,7,2.5,-2.03892,2.51754,0.595717,0.268465,-0.211719,0.0048195,-0.148565,-0.0701994,-0.00266358,0.0084987,0.0958354,5,0.1,8,2.5,-1.1836,-3.67366,0.59732,-0.13065,-0.301149,-0.013132,0.0617504,0.142291,0.00620633,0.0081793,0.0511178,5,0.1,9,2.5,-0.135295,-1.78775,0.602927,-0.211124,-0.0815082,-0.00374718,0.131159,0.367254,0.0022836,0.00557674,0.19817,5,0.1
0,2.6,3.92024,0.339989,0.628497,-0.0831783,0.377315,-0.000756979,0.0585318,-0.226051,0.000536442,0.0067399,0.0706038,5,0.1,1,2.6,-0.282293,3.93462,0.606272,-0.418384,0.115347,-0.00632256,0.748888,-0.131011,0.00700355,0.00658352,0.439334,5,0.1,2,2.6,3.40963,1.618,0.600573,-0.094831,0.678402,-0.000499189,0.0597239,-1.11109,0.000357628,0.0160949,1.30416,5,0.1,3,2.6,1.17681,-1.79747,0.744558,-0.287327,-0.00576079,0.0123799,-0.173986,0.00965595,-0.0209212,0.00800612,0.132552,5,0.1,4,2.6,0.481404,2.22166,0.592486,-0.0314988,-0.45355,0.00753403,0.0353307,-0.345945,-0.00849366,0.00608871,0.136371,5,0.1,5,2.6,-2.28934,2.76434,0.603259,0.415778,-0.302398,-0.00281185,-0.413418,0.327587,0.00295043,0.0109246,0.148721,5,0.1,6,2.6,0.706686,2.42356,0.593838,-0.265411,-0.106555,0.00738949,0.123858,0.307918,-0.00479817,0.0166605,0.215464,5,0.1,7,2.6,-2.01281,2.49611,0.596186,0.253373,-0.215852,0.00454783,-0.162482,-0.00417233,-0.00292063,0.0077849,0.105027,5,0.1,8,2.6,-1.19636,-3.70306,0.596038,-0.124267,-0.286442,-0.0124887,0.0709295,0.163555,0.00712276,0.0086665,0.0232219,5,0.1,9,2.6,-0.155727,-1.79419,0.602564,-0.197117,-0.0487894,-0.00350177,0.153884,0.28497,0.00268221,0.00552299,0.410424,5,0.1
0,2.7,3.91218,0.376733,0.628424,-0.0783302,0.35856,-0.000712555,0.0423193,-0.166422,0.000391155,0.0067399,0.0706038,5,0.1,1,2.7,-0.320203,3.94555,0.605672,-0.338427,0.103538,-0.00568759,0.83201,-0.108689,0.00587851,0.00658352,0.439334,5,0.1,2,2.7,3.40043,1.67986,0.600525,-0.0893291,0.556463,-0.000466779,0.0534207,-1.25591,0.000305474,0.0160949,1.30416,5,0.1,3,2.7,1.14709,-1.798,0.745695,-0.30759,-0.00484157,0.0103923,-0.206925,0.00875443,-0.018917,0.00800612,0.132552,5,0.1,4,2.7,0.478419,2.1749,0.5932,-0.0283062,-0.478239,0.00676708,0.0294708,-0.139534,-0.00707433,0.00608871,0.136371,5,0.1,5,2.7,-2.24963,2.73557,0.602991,0.380011,-0.274522,-0.00255629,-0.318542,0.242993,0.00227243,0.0109246,0.148721,5,0.1,6,2.7,0.680686,2.41439,0.594554,-0.255063,-0.0772309,0.00694599,0.0949502,0.275925,-0.00431389,0.0166605,0.215464,5,0.1,7,2.7,-1.98817,2.47478,0.596628,0.240419,-0.207973,0.00431454,-0.110015,0.153676,-0.00198558,0.0077849,0.105027,5,0.1,8,2.7,-1.20844,-3.73092,0.594823,-0.117438,-0.270698,-0.0118022,0.0694171,0.160024,0.00698492,0.0086665,0.0232219,5,0.1,9,2.7,-0.17469,-1.79772,0.602227,-0.182245,-0.0226891,-0.00324138,0.148131,0.228606,0.00260025,0.00552299,0.410424,5,0.1
0,2.8,3.90456,0.41174,0.628355,-0.0740469,0.341065,-0.000673532,0.046134,-0.195742,0.000447035,0.00689725,0.0551678,5,0.1,1,2.8,-0.349873,3.95537,0.605132,-0.255235,0.093013,-0.00511408,0.817582,-0.104547,0.00572205,0.00696547,0.436925,5,0.1,2,2.8,3.39177,1.72944,0.60048,-0.0836134,0.438315,-0.000435114,0.0628233,-1.06782,0.000357628,0.016242,1.22924,5,0.1,3,2.8,1.11541,-1.79844,0.746642,-0.324559,-0.00400245,0.00858307,-0.115275,0.00804663,-0.0173151,0.0073902,0.07782,5,0.1,4,2.8,0.475732,2.12677,0.593842,-0.0254422,-0.480258,0.00607967,0.0284761,0.10252,-0.00679493,0.0064879,0.283417,5,0.1,5,2.8,-2.21317,2.70928,0.602746,0.349206,-0.251538,-0.00233799,-0.309467,0.226259,0.00214577,0.00964703,0.182363,5,0.1,6,2.8,0.655686,2.40798,0.595226,-0.244404,-0.0518084,0.00648797,0.126481,0.23067,-0.00506639,0.0167298,0.420454,5,0.1,7,2.8,-1.96468,2.45496,0.59705,0.229079,-0.186676,0.00410974,-0.126243,0.264645,-0.00226498,0.00755095,0.0838028,5,0.1,8,2.8,-1.21982,-3.75713,0.59368,-0.109762,-0.253004,-0.0110298,0.0865459,0.199676,0.00870228,0.00755091,0.0141506,5,0.1,9,2.8,-0.192153,-1.79899,0.601916,-0.166735,-0.00431836,-0.00296831,0.165068,0.134826,0.00292063,0.00725607,0.785019,5,0.1
0,2.9,3.89735,0.445018,0.628289,-0.0704192,0.325548,-0.000638235,0.030458,-0.13257,0.000294298,0.00689725,0.0551678,5,0.1,1,2.9,-0.371427,3.96419,0.604647,-0.177304,0.0836242,-0.00459785,0.730388,-0.0861436,0.00476465,0.00696547,0.436925,5,0.1,2,2.9,3.38355,1.76831,0.600438,-0.0822648,0.344822,-0.000402518,-0.023365,-0.731498,0.000305474,0.016242,1.22924,5,0.1,3,2.9,1.0824,-1.7988,0.747418,-0.33507,-0.00325106,0.0069676,-0.0796095,0.00701845,-0.0150576,0.0073902,0.07782,5,0.1,4,2.9,0.47332,2.07908,0.594419,-0.0228791,-0.474663,0.00546835,0.0235736,0.0367165,-0.00562519,0.0064879,0.283417,5,0.1,5,2.9,-2.17978,2.68511,0.602522,0.318604,-0.232928,-0.0021372,-0.308082,0.158191,0.0019297,0.00964703,0.182363,5,0.1,6,2.9,0.631853,2.40396,0.59585,-0.232307,-0.0288777,0.00599958,0.123017,0.216126,-0.00485778,0.0167298,0.420454,5,0.1,7,2.9,-1.94238,2.43776,0.59745,0.216966,-0.155972,0.00389218,-0.123143,0.339523,-0.00221282,0.00755095,0.0838028,5,0.1,8,2.9,-1.23037,-3.78146,0.59262,-0.101382,-0.233673,-0.0101867,0.0840053,0.193745,0.00846013,0.00755091,0.0141506,5,0.1,9,2.9,-0.207989,-1.79878,0.601634,-0.149829,0.0075588,-0.00266861,0.173887,0.0779256,0.00308454,0.00725607,0.785019,5,0.1
0,3,3.89046,0.476894,0.628227,-0.0672698,0.311491,-0.000607967,0.0352859,-0.161245,0.000327826,0.0067106,0.0251704,5,0.1,1,3,-0.38572,3.97213,0.604211,-0.11087,0.0752807,-0.00413656,0.591844,-0.0828505,0.00461936,0.0074537,0.432782,5,0.1,2,3,3.37515,1.8,0.600399,-0.0860929,0.297296,-0.000371039,-0.043869,-0.23669,0.000327826,0.0150733,1.04108,5,0.1,3,3,1.04865,-1.79909,0.748043,-0.337932,-0.00259578,0.00555962,0.0325441,0.00613928,-0.013113,0.0113632,0.056631,5,0.1,4,3,0.471147,2.03187,0.594938,-0.0205927,-0.468248,0.00492185,0.0227392,0.110805,-0.00539422,0.00615162,0.276419,5,0.1,5,3,-2.1495,2.66258,0.602318,0.286686,-0.217783,-0.00194162,-0.333667,0.153661,0.00202656,0.00987074,0.147778,5,0.1,6,3,0.609282,2.40205,0.596426,-0.218542,-0.0104487,0.00549257,0.157326,0.145793,-0.00542402,0.0145274,0.354109,5,0.1,7,3,-1.92134,2.42392,0.597827,0.203261,-0.120574,0.00364631,-0.155509,0.360489,-0.00283122,0.007555,0.277513,5,0.1,8,3,-1.24007,-3.80383,0.591645,-0.0924855,-0.213164,-0.00929236,0.0957251,0.220656,0.00965595,0.00932874,0.00453177,5,0.1,9,3,-0.222083,-1.79788,0.601383,-0.131847,0.00791252,-0.00234991,0.186034,-0.0796318,0.00333786,0.00641058,3.624,5,0.1
0,3.1,3.8839,0.50726,0.628168,-0.0638846,0.295809,-0.000576954,0.0345558,-0.161879,0.00031665,0.0067106,0.0251704,5,0.1,1,3.1,-0.39413,3.97928,0.603818,-0.0601307,0.0678584,-0.00372147,0.42348,-0.0680387,0.00381097,0.0074537,0.432782,5,0.1,2,3.1,3.36624,1.82953,0.600363,-0.0925235,0.301541,-0.00034133,-0.0751615,0.254616,0.000279397,0.0150733,1.04108,5,0.1,3,3.1,1.01498,-1.79932,0.748537,-0.335602,-0.00203568,0.00436306,0.0301711,0.00510365,-0.0108927,0.0113632,0.056631,5,0.1,4,3.1,0.469507,1.9855,0.595405,-0.00966168,-0.459704,0.00443757,0.176782,0.0819042,-0.004448,0.00615162,0.276419,5,0.1,5,3.1,-2.12249,2.6415,0.602134,0.253447,-0.204235,-0.00175312,-0.332758,0.125602,0.00179559,0.00987074,0.147778,5,0.1,6,3.1,0.588255,2.40165,0.596947,-0.20155,0.00112094,0.00493741,0.183877,0.0727624,-0.00571087,0.0145274,0.354109,5,0.1,7,3.1,-1.90179,2.41365,0.598178,0.18748,-0.0850867,0.00335975,-0.163414,0.341788,-0.00295416,0.007555,0.277513,5,0.1,8,3.1,-1.24884,-3.82404,0.590764,-0.082881,-0.191027,-0.00832388,0.0973642,0.224397,0.00981614,0.00932874,0.00453177,5,0.1,9,3.1,-0.23456,-1.7974,0.601085,-0.119578,-0.00185054,-0.00428576,0.0729971,-0.27322,-0.0370219,0.00641058,3.624,5,0.1
0,3.2,3.8777,0.535968,0.628112,-0.060004,0.277548,-0.000540912,0.0444651,-0.20954,0.00038743,0.00785006,0.0152972,5,0.1,1,3.2,-0.398296,3.98573,0.603465,-0.0258289,0.0612617,-0.00335127,0.265479,-0.0656843,0.00363588,0.00806169,0.423038,5,0.1,2,3.2,3.35663,1.86132,0.600331,-0.0994682,0.336397,-0.000312924,-0.0567436,0.391185,0.000298023,0.0159799,0.832375,5,0.1,3,3.2,0.981671,-1.7995,0.748922,-0.329196,-0.00157058,0.00336915,0.108808,0.00423193,-0.0090301,0.00742897,0.0909883,5,0.1,4,3.2,0.469549,1.94004,0.595827,0.0113629,-0.448167,0.00400543,0.228837,0.163972,-0.00429153,0.00933503,0.304784,5,0.1,5,3.2,-2.09882,2.62171,0.601968,0.219899,-0.191253,-0.00157654,-0.339031,0.139832,0.00184774,0.0100156,0.243742,5,0.1,6,3.2,0.569072,2.40193,0.597412,-0.181587,0.0025034,0.00434667,0.215799,-0.0482798,-0.00607967,0.0154934,0.509812,5,0.1,7,3.2,-1.8839,2.40677,0.598498,0.170055,-0.0534534,0.00304431,-0.18698,0.286102,-0.00333786,0.00778123,0.273758,5,0.1,8,3.2,-1.25664,-3.842,0.589982,-0.0728637,-0.167936,-0.00731498,0.103533,0.238538,0.010401,0.00855403,0.00135928,5,0.1,9,3.2,-0.246247,-1.8,0.600439,-0.114839,-0.0607193,-0.00885874,0.0322536,-0.886381,-0.0505447,0.00590925,3.17621,5,0.1
0,3.3,3.87192,0.562699,0.628059,-0.0556935,0.257132,-0.000503007,0.0434369,-0.206176,0.000383705,0.00785006,0.0152972,5,0.1,1,3.3,-0.399724,3.99155,0.603147,-0.00448381,0.055385,-0.00302503,0.160785,-0.0538379,0.00299886,0.00806169,0.423038,5,0.1,2,3.3,3.34651,1.89732,0.600301,-0.101805,0.386457,-0.000285823,0.00861287,0.558898,0.000257045,0.0159799,0.832375,5,0.1,3,3.3,0.949116,-1.79964,0.749217,-0.323132,-0.00118706,0.00255117,0.0337623,0.00344962,-0.00737235,0.00742897,0.0909883,5,0.1,4,3.3,0.471718,1.89596,0.596208,0.030907,-0.433587,0.00362052,0.162002,0.145316,-0.0035353,0.00933503,0.304784,5,0.1,5,3.3,-2.07853,2.60315,0.601818,0.185765,-0.181168,-0.00142679,-0.341713,0.0743717,0.0012368,0.0100156,0.243742,5,0.1,6,3.3,0.551978,2.40184,0.597817,-0.160394,-0.00629351,0.00375975,0.209641,-0.168681,-0.00569224,0.0154934,0.509812,5,0.1,7,3.3,-1.86783,2.40273,0.598786,0.151313,-0.0285845,0.00270959,-0.189021,0.209048,-0.00338256,0.00778123,0.273758,5,0.1,8,3.3,-1.26341,-3.85761,0.589302,-0.0625996,-0.144288,-0.00628373,0.101797,0.234529,0.0102259,0.00855403,0.00135928,5,0.1,9,3.3,-0.257682,-1.81184,0.59927,-0.114711,-0.186497,-0.0147262,-0.0190018,-1.51553,-0.0629984,0.00590925,3.17621,5,0.1
0,3.4,3.86657,0.587339,0.628011,-0.0510454,0.235119,-0.000463426,0.0504255,-0.238597,0.000476837,0.00841637,0.00488923,5,0.1,1,3.4,-0.399543,3.99683,0.602859,0.0064075,0.0501454,-0.00273287,0.0584573,-0.0524521,0.00289083,0.00802279,0.870329,5,0.1,2,3.4,3.33647,1.93869,0.600274,-0.0980496,0.439325,-0.00026226,0.0648499,0.461042,0.000298023,0.0169186,0.166447,5,0.1,3,3.4,0.916991,-1.79974,0.749438,-0.318785,-0.000876188,0.00188798,0.0684559,0.00274181,-0.00596046,0.00778523,0.0752017,5,0.1,4,3.4,0.475508,1.85342,0.596553,0.043802,-0.416124,0.00327677,0.0963062,0.216067,-0.00345707,0.00864074,0.581145,5,0.1,5,3.4,-2.06165,2.58538,0.601681,0.15192,-0.174212,-0.00131428,-0.33319,0.0736713,0.00110269,0.00899007,0.207431,5,0.1,6,3.4,0.536986,2.4,0.598165,-0.139414,-0.0341415,0.00320375,0.210911,-0.376225,-0.00551343,0.0157329,0.648086,5,0.1,7,3.4,-1.85365,2.40078,0.59904,0.132078,-0.0118136,0.0023663,-0.196159,0.1266,-0.00354648,0.0102657,0.271437,5,0.1,8,3.4,-1.26916,-3.87087,0.588724,-0.0525117,-0.121039,-0.00527054,0.0998378,0.230074,0.0100434,0.0073062,0.000714963,5,0.1,9,3.4,-0.269261,-1.83833,0.597488,-0.116783,-0.343841,-0.0207976,-0.0145584,-1.54525,-0.0555515,0.0064097,2.69615,5,0.1
0,3.5,3.86172,0.609654,0.627967,-0.0459582,0.211076,-0.000415649,0.0518858,-0.24477,0.000480562,0.00841637,0.00488923,5,0.1,1,3.5,-0.398585,4.0016,0.602599,0.0122489,0.0454541,-0.00247378,0.0303779,-0.0429899,0.00238419,0.00802279,0.870329,5,0.1,2,3.5,3.3271,1.98459,0.600249,-0.0883143,0.474836,-0.000235718,0.124678,0.239305,0.000242144,0.0169186,0.166447,5,0.1,3,3.5,0.885293,-1.79982,0.749599,-0.31623,-0.000632927,0.00136076,0.00446662,0.00213087,-0.00463054,0.00778523,0.0752017,5,0.1,4,3.5,0.480147,1.81282,0.596864,0.0471232,-0.396257,0.00296719,-0.0147726,0.195749,-0.00283867,0.00864074,0.581145,5,0.1,5,3.5,-2.04809,2.56819,0.601554,0.119925,-0.170419,-0.00122804,-0.305548,0.015378,0.000692904,0.00899007,0.207431,5,0.1,6,3.5,0.52406,2.39426,0.598459,-0.119459,-0.0841171,0.00268798,0.189796,-0.5835,-0.00484288,0.0157329,0.648086,5,0.1,7,3.5,-1.84138,2.40011,0.599259,0.113687,-0.00289679,0.00201957,-0.173695,0.0557005,-0.00339374,0.0102657,0.271437,5,0.1,8,3.5,-1.27392,-3.88185,0.588246,-0.0428334,-0.0987366,-0.00429703,0.0934154,0.215292,0.00939146,0.0073062,0.000714963,5,0.1,9,3.5,-0.281069,-1.88088,0.595123,-0.119729,-0.509302,-0.0265075,-0.0356678,-1.67537,-0.0556335,0.0064097,2.69615,5,0.1
0,3.6,3.85739,0.629512,0.627928,-0.0405788,0.185801,-0.000366569,0.0559092,-0.261873,0.000506639,0.0103358,0.0014598,5,0.1,1,3.6,-0.39742,4.00594,0.602363,0.00861958,0.0412583,-0.00223964,-0.113606,-0.0422001,0.00229478,0.00958578,1.08779,5,0.1,2,3.6,3.31896,2.03284,0.600226,-0.0740588,0.48573,-0.000211596,0.156045,-0.0261068,0.000208616,0.0130245,0.513176,5,0.1,3,3.6,0.853733,-1.79987,0.749714,-0.31417,-0.000444055,0.000955164,0.0521541,0.00160933,-0.00354648,0.00736342,0.110679,5,0.1,4,3.6,0.484701,1.77423,0.597147,0.0433877,-0.374541,0.00268966,-0.0496209,0.248551,-0.00277162,0.00818784,0.531396,5,0.1,5,3.6,-2.03757,2.55122,0.601435,0.0910103,-0.168866,-0.00116229,-0.271678,0.0252724,0.000685453,0.0120462,0.174433,5,0.1,6,3.6,0.513039,2.38286,0.598704,-0.101182,-0.143826,0.0022307,0.176817,-0.580192,-0.00438094,0.0161316,1.61835,5,0.1,7,3.6,-1.83086,2.40001,0.599444,0.0969917,0.000226498,0.00168681,-0.161648,0.0116825,-0.00324845,0.00867342,0.268002,5,0.1,8,3.6,-1.27775,-3.89067,0.587862,-0.0338823,-0.0781059,-0.00339746,0.0852346,0.196457,0.00855327,0.00598381,0.000633009,5,0.1,9,3.6,-0.293197,-1.93981,0.592214,-0.122422,-0.663656,-0.0314102,-0.0119507,-1.34772,-0.0402927,0.00672346,2.252,5,0.1
0,3.7,3.85361,0.646789,0.627894,-0.0350125,0.15978,-0.000316277,0.0554323,-0.258587,0.000499189,0.0103358,0.0014598,5,0.1,1,3.7,-0.397252,4.00987,0.60215,-0.00818213,0.0374831,-0.00203364,-0.281293,-0.0346601,0.0018999,0.00958578,1.08779,5,0.1,2,3.7,3.31235,2.08159,0.600206,-0.0578754,0.491543,-0.000192784,0.164151,0.103995,0.000171363,0.0130245,0.513176,5,0.1,3,3.7,0.822374,-1.79991,0.749793,-0.314425,-0.000303239,0.00064671,-0.0332966,0.0012219,-0.00265241,0.00736342,0.110679,5,0.1,4,3.7,0.488683,1.73795,0.597403,0.0358336,-0.351557,0.00244137,-0.0759177,0.223085,-0.00227988,0.00818784,0.531396,5,0.1,5,3.7,-2.02973,2.53433,0.601321,0.0667471,-0.169794,-0.00110967,-0.215337,-0.0296533,0.000428408,0.0120462,0.174433,5,0.1,6,3.7,0.502976,2.36611,0.598907,-0.107058,-0.186767,0.00182968,-0.24341,-0.314802,-0.00367314,0.0161316,1.61835,5,0.1,7,3.7,-1.82196,2.40014,0.599597,0.0809498,0.00280067,0.00137603,-0.15834,0.0317693,-0.00296161,0.00867342,0.268002,5,0.1,8,3.7,-1.28073,-3.89754,0.587564,-0.0258198,-0.0595234,-0.00258842,0.0756904,0.174463,0.00759587,0.00598381,0.000633009,5,0.1,9,3.7,-0.305531,-2.01228,0.588871,-0.124399,-0.778847,-0.0353721,-0.0202935,-0.927657,-0.0364743,0.00672346,2.252,5,0.1
0,3.8,3.85039,0.66148,0.627865,-0.0294864,0.134112,-0.000266731,0.0547171,-0.254452,0.000506639,0.0112267,0.00077387,5,0.1,1,3.8,-0.4,4.01345,0.601956,-0.0517614,0.0340939,-0.00184774,-0.572622,-0.0343323,0.00187755,0.00765288,1.23263,5,0.1,2,3.8,3.30738,2.13122,0.600188,-0.0418365,0.499916,-0.000175834,0.154138,0.0355244,0.000178814,0.0120537,0.388121,5,0.1,3,3.8,0.790785,-1.79993,0.749846,-0.316705,-0.000199676,0.000418723,0.00500679,0.000953674,-0.00190735,0.00783244,0.188616,5,0.1,4,3.8,0.491998,1.70395,0.597636,0.0319049,-0.327909,0.00221729,0.00880659,0.258148,-0.00223517,0.0119852,0.475215,5,0.1,5,3.8,-2.02405,2.51721,0.601212,0.0476122,-0.172347,-0.00106543,-0.1688,-0.0112057,0.000506639,0.0074637,0.145587,5,0.1,6,3.8,0.490706,2.34608,0.599072,-0.140816,-0.212246,0.00148863,-0.392213,-0.213265,-0.00315905,0.0185991,1.69245,5,0.1,7,3.8,-1.81465,2.40056,0.599721,0.0654817,0.00529289,0.00109524,-0.150323,0.0132322,-0.00268221,0.00658184,0.252882,5,0.1,8,3.8,-1.28295,-3.90266,0.587341,-0.0187963,-0.0433326,-0.00188351,0.0646114,0.149012,0.0064671,0.00603042,0.000500814,5,0.1,9,3.8,-0.318037,-2.09395,0.585175,-0.125241,-0.845772,-0.038287,0.00852346,-0.405073,-0.0201166,0.00791397,1.73875,5,0.1
0,3.9,3.84771,0.673643,0.627841,-0.0241619,0.109418,-0.000217836,0.0515729,-0.23859,0.000473112,0.0112267,0.00077387,5,0.1,1,3.9,-0.408851,4.0167,0.60178,-0.131556,0.0310212,-0.00167917,-0.952562,-0.0282526,0.00154972,0.00765288,1.23263,5,0.1,2,3.9,3.30393,2.18154,0.600171,-0.027528,0.507046,-0.000159908,0.13046,0.0768751,0.000145286,0.0120537,0.388121,5,0.1,3,3.9,0.758817,-1.79995,0.749879,-0.325022,-0.000119582,0.000257976,-0.138275,0.000670552,-0.0013262,0.00783244,0.188616,5,0.1,4,3.9,0.495339,1.67237,0.597848,0.0369601,-0.304085,0.00201687,0.126397,0.228271,-0.00184774,0.0119852,0.475215,5,0.1,5,3.9,-2.02003,2.49983,0.601108,0.0336871,-0.175888,-0.0010238,-0.11307,-0.046432,0.000368804,0.0074637,0.145587,5,0.1,6,3.9,0.474331,2.32406,0.599206,-0.189019,-0.227769,0.00120448,-0.533307,-0.184402,-0.00255927,0.0185991,1.69245,5,0.1,7,3.9,-1.80883,2.40123,0.599817,0.0511054,0.00810362,0.000844523,-0.136554,0.0184625,-0.00233203,0.00658184,0.252882,5,0.1,8,3.9,-1.28453,-3.90629,0.587184,-0.012848,-0.0296161,-0.00128793,0.0541732,0.124902,0.00542775,0.00603042,0.000500814,5,0.1,9,3.9,-0.330536,-2.17977,0.581248,-0.124753,-0.86476,-0.0401614,0.0070557,-0.0506341,-0.0154078,0.00791397,1.73875,5,0.1
0,4,3.84554,0.683425,0.627821,-0.0192046,0.0865474,-0.000172853,0.0474453,-0.218153,0.000447035,0.0109725,0.000693455,5,0.1,1,4,-0.426917,4.01966,0.601619,-0.229854,0.0282407,-0.00152588,-0.959888,-0.0276566,0.00151992,0.00602775,1.2888,5,0.1,2,4,3.30178,2.23249,0.600156,-0.01598,0.510156,-0.000146031,0.0995398,-0.0360012,0.000178814,0.0116749,0.284972,5,0.1,3,4,0.72561,-1.79996,0.749899,-0.338623,-6.55651e-05,0.000147521,-0.109494,0.000476837,-0.000864267,0.00803249,0.116568,5,0.1,4,4,0.5,1.64312,0.59804,0.059405,-0.280574,0.00183582,0.31057,0.248849,-0.00184774,0.00915792,0.401164,5,0.1,5,4,-2.01715,2.48204,0.601008,0.0243902,-0.179374,-0.000981987,-0.0754595,-0.0139475,0.000476837,0.00967536,0.199204,5,0.1,6,4,0.45279,2.3,0.599315,-0.240775,-0.257039,0.000970066,-0.473335,-0.393152,-0.00208616,0.0177973,1.40531,5,0.1,7,4,-1.80438,2.402,0.599891,0.0382811,0.00552535,0.000628829,-0.119507,-0.0801086,-0.00196695,0.00671986,0.214546,5,0.1,8,4,-1.28556,-3.90867,0.58708,-0.00799,-0.0184119,-0.000801682,0.0430346,0.0990629,0.00435114,0.00634107,0.000301884,5,0.1,9,4,-0.342939,-2.26635,0.577176,-0.122848,-0.866026,-0.0410423,0.0350326,0,-0.00089407,0.00734906,1.32713,5,0.1
0,4.1,3.84385,0.691027,0.627806,-0.0147052,0.0659049,-0.000130944,0.0423491,-0.193864,0.00038743,0.0109725,0.000693455,5,0.1,1,4.1,-0.455097,4.02236,0.601474,-0.336083,0.0257581,-0.00138907,-1.1013,-0.0228882,0.00126287,0.00602775,1.2888,5,0.1,2,4.1,3.30063,2.2834,0.600142,-0.00747815,0.50823,-0.000130292,0.0700653,-0.0266284,0.000137836,0.0116749,0.284972,5,0.1,3,4.1,0.691131,-1.79996,0.74991,-0.351099,-2.75671e-05,7.86036e-05,-0.118613,0.000283122,-0.000536442,0.00803249,0.116568,5,0.1,4,4.1,0.507888,1.61623,0.598215,0.101376,-0.257705,0.00167023,0.492249,0.216842,-0.00151992,0.00915792,0.401164,5,0.1,5,4.1,-2.01496,2.46426,0.600911,0.020707,-0.17412,-0.000948459,-0.00683963,0.113398,0.00025332,0.00967536,0.199204,5,0.1,6,4.1,0.426259,2.27169,0.599402,-0.289945,-0.313951,0.000785012,-0.48057,-0.682458,-0.00164285,0.0177973,1.40531,5,0.1,7,4.1,-1.80112,2.40203,0.599944,0.0271935,-0.00686906,0.000448991,-0.101894,-0.202194,-0.0016354,0.00671986,0.214546,5,0.1,8,4.1,-1.28616,-3.91005,0.58702,-0.0041591,-0.0095915,-0.000414532,0.0335649,0.0772625,0.00338629,0.00634107,0.000301884,5,0.1,9,4.1,-0.355063,-2.35294,0.573069,-0.119643,-0.865771,-0.0410519,0.0337921,0.0101924,0.0022836,0.00734906,1.32713,5,0.1
0,4.2,3.84258,0.696694,0.627795,-0.0107646,0.0479117,-9.53674e-05,0.0363588,-0.165462,0.000357628,0.0118509,0.000549559,5,0.1,1,4.2,-0.494017,4.02482,0.601341,-0.43916,0.0234962,-0.00126511,-0.914127,-0.0228882,0.0012815,0.00544891,0.164432,5,0.1,2,4.2,3.30018,2.33395,0.600129,-0.00199676,0.500768,-0.000116229,0.0398159,-0.139356,8.9407e-05,0.0121587,0.204618,5,0.1,3,4.2,0.655557,-1.79996,0.749916,-0.358716,-5.96046e-06,3.8743e-05,-0.0188351,0.000178814,-0.000298023,0.00882006,0.0653281,5,0.1,4,4.2,0.520539,1.59155,0.598375,0.151436,-0.235796,0.00151992,0.481367,0.226974,-0.00149012,0.00896099,0.336054,5,0.1,5,4.2,-2.01287,2.44758,0.600818,0.0215173,-0.157815,-0.000920892,0.0169277,0.207305,0.000357628,0.00786552,0.185245,5,0.1,6,4.2,0.395049,2.23683,0.599473,-0.331857,-0.382596,0.00063628,-0.336841,-0.643849,-0.0013113,0.0181345,1.09426,5,0.1,7,4.2,-1.79888,2.4,0.599982,0.0179499,-0.0369549,0.000303984,-0.0827312,-0.385761,-0.0013411,0.00623936,0.153001,5,0.1,8,4.2,-1.28642,-3.91066,0.586994,-0.00127554,-0.00295639,-0.00012517,0.0240803,0.0556707,0.00247359,0.00594454,0.000137123,5,0.1,9,4.2,-0.366829,-2.43939,0.568991,-0.115298,-0.861949,-0.0403225,0.0563264,0.0815392,0.0133514,0.00647835,0.992469,5,0.1
0,4.3,3.84168,0.700701,0.627787,-0.00740997,0.0326772,-6.31437e-05,0.0306219,-0.138741,0.000290573,0.0118509,0.000549559,5,0.1,1,4.3,-0.541771,4.02706,0.601221,-0.508619,0.0214383,-0.00115009,-0.475846,-0.0190735,0.00106171,0.00544891,0.164432,5,0.1,2,4.3,3.30016,2.38339,0.600118,0.00112429,0.488121,-0.000108313,0.0195205,-0.133112,7.82311e-05,0.0121587,0.204618,5,0.1,3,4.3,0.619617,-1.79996,0.749918,-0.359464,6.51926e-06,1.82539e-05,0.0172555,6.70552e-05,-0.00012666,0.00882006,0.0653281,5,0.1,4,4.3,0.53768,1.56903,0.59852,0.187762,-0.215033,0.00138599,0.26267,0.19522,-0.0012368,0.00896099,0.336054,5,0.1,5,4.3,-2.01057,2.43297,0.600727,0.0247285,-0.133225,-0.000888668,0.0410676,0.276178,0.000320375,0.00786552,0.185245,5,0.1,6,4.3,0.360187,2.19514,0.599531,-0.364697,-0.451947,0.000521448,-0.296975,-0.695243,-0.0010021,0.0181345,1.09426,5,0.1,7,4.3,-1.79747,2.39403,0.600006,0.0105117,-0.0849783,0.000185333,-0.0659525,-0.53826,-0.00103563,0.00623936,0.153001,5,0.1,8,4.3,-1.28644,-3.9107,0.586993,0.000761449,0.00175163,8.33534e-05,0.0167489,0.0386834,0.00170991,0.00594454,0.000137123,5,0.1,9,4.3,-0.378093,-2.52547,0.565023,-0.110036,-0.861266,-0.0390018,0.0527911,-0.0175238,0.0143684,0.00647835,0.992469,5,0.1
0,4.4,3.84108,0.703323,0.627782,-0.00465512,0.0202313,-3.72529e-05,0.0244379,-0.109971,0.000208616,0.0112245,0.000331308,5,0.1,1,4.4,-0.594297,4.02911,0.601111,-0.534868,0.0195622,-0.00104606,-0.0537038,-0.0190735,0.00107288,0.00578038,0.390757,5,0.1,2,4.4,3.30031,2.43142,0.600108,0.00152588,0.470871,-9.98378e-05,-0.0120401,-0.225186,8.9407e-05,0.0112503,0.14486,5,0.1,3,4.4,0.583906,-1.79996,0.74992,-0.353055,8.9407e-06,1.19209e-05,0.119686,0,-5.96046e-05,0.0106287,0.0455212,5,0.1,4,4.4,0.557517,1.5485,0.598652,0.206698,-0.195572,0.00126362,0.125796,0.198841,-0.0012219,0.00792115,0.277481,5,0.1,5,4.4,-2.0079,2.42109,0.60064,0.0286818,-0.104094,-0.000850856,0.0334978,0.299335,0.000506639,0.00783935,0.167102,5,0.1,6,4.4,0.322452,2.14671,0.599578,-0.387388,-0.513434,0.000432134,-0.141144,-0.500321,-0.000804663,0.0158999,0.810086,5,0.1,7,4.4,-1.79672,2.38284,0.60002,0.00475943,-0.138271,9.53674e-05,-0.0491738,-0.500679,-0.00077486,0.00832995,0.0927715,5,0.1,8,4.4,-1.28629,-3.91036,0.587008,0.0020951,0.00483394,0.000219047,0.0100136,0.0230074,0.00101328,0.00668098,4.6439e-05,5,0.1,9,4.4,-0.388813,-2.61151,0.561205,-0.104089,-0.856858,-0.037232,0.0687689,0.141025,0.0218749,0.00624769,0.713759,5,0.1
0,4.5,3.84073,0.704836,0.627779,-0.00247322,0.0104403,-1.8999e-05,0.0191778,-0.0857562,0.000156462,0.0112245,0.000331308,5,0.1,1,4.5,-0.648172,4.03098,0.601011,-0.543024,0.0178456,-0.000949949,-0.0789016,-0.0158548,0.000886619,0.00578038,0.390757,5,0.1,2,4.5,3.30037,2.47744,0.600098,-0.000889972,0.449876,-9.19215e-05,-0.0422746,-0.210732,7.82311e-05,0.0112503,0.14486,5,0.1,3,4.5,0.54915,-1.79996,0.749921,-0.342167,5.7742e-06,1.22935e-05,0.112291,-5.21541e-05,5.96046e-05,0.0106287,0.0455212,5,0.1,4,4.5,0.578542,1.52987,0.598773,0.21232,-0.177465,0.00115335,0.0319481,0.169091,-0.00102073,0.00792115,0.277481,5,0.1,5,4.5,-2.00475,2.41217,0.600558,0.0349503,-0.0743706,-0.000801869,0.0817925,0.288591,0.000499189,0.00783935,0.167102,5,0.1,6,4.5,0.283031,2.09284,0.599618,-0.400331,-0.563242,0.00036303,-0.0994187,-0.458509,-0.000596046,0.0158999,0.810086,5,0.1,7,4.5,-1.79646,2.36652,0.600026,0.000520237,-0.187466,2.94298e-05,-0.0357255,-0.462145,-0.000543892,0.00832995,0.0927715,5,0.1,8,4.5,-1.28604,-3.90978,0.587034,0.00284314,0.00655279,0.000294112,0.0050962,0.0117123,0.000499189,0.00668098,4.6439e-05,5,0.1,9,4.5,-0.398896,-2.69665,0.557587,-0.0976784,-0.846622,-0.0351436,0.0626612,0.103936,0.0209808,0.00624769,0.713759,5,0.1
0,4.6,3.84057,0.705492,0.627778,-0.000828505,0.00307709,-5.96046e-06,0.0140667,-0.0616312,0.000119209,0.0109746,0.000150451,5,0.1,1,4.6,-0.702706,4.03269,0.600921,-0.545476,0.0162721,-0.000862777,0.0510812,-0.0157356,0.000864267,0.00750664,1.4685,5,0.1,2,4.6,3.3,2.52129,0.600089,-0.00721812,0.426036,-8.49366e-05,-0.0814199,-0.276923,0.000119209,0.0121825,0.157893,5,0.1,3,4.6,0.515577,-1.79996,0.749923,-0.32822,-2.98023e-06,2.08616e-05,0.176132,-5.96046e-05,8.9407e-05,0.0100659,0.0819437,5,0.1,4,4.6,0.6,1.51296,0.598883,0.217609,-0.160766,0.00105351,0.0737309,0.168979,-0.00107288,0.00836637,0.223596,5,0.1,5,4.6,-2.00084,2.40612,0.60048,0.0433087,-0.0474572,-0.000746548,0.0780225,0.245452,0.000625849,0.00769688,0.141268,5,0.1,6,4.6,0.242692,2.03454,0.599651,-0.404221,-0.598842,0.000309944,0.0338179,-0.228107,-0.000506639,0.0164071,0.572659,5,0.1,7,4.6,-1.79657,2.34566,0.600026,-0.00241399,-0.227147,-1.49012e-05,-0.0231266,-0.317216,-0.000327826,0.00925742,0.123428,5,0.1,8,4.6,-1.28574,-3.90908,0.587065,0.00314713,0.00724196,0.000323355,0.000953674,0.00238419,8.9407e-05,0.00582186,1.38809e-05,5,0.1,9,4.6,-0.408339,-2.78059,0.554184,-0.0910163,-0.829268,-0.0328541,0.0727624,0.270963,0.0255108,0.00633295,0.498805,5,0.1
0,4.7,3.84055,0.705523,0.627778,0.000365078,-0.00213347,3.81842e-06,0.00983477,-0.0427961,7.82311e-05,0.0109746,0.000150451,5,0.1,1,4.7,-0.757848,4.03424,0.600838,-0.563962,0.0148527,-0.000785198,-0.346977,-0.0132024,0.00071153,0.00750664,1.4685,5,0.1,2,4.7,3.29863,2.56259,0.600082,-0.0221934,0.400234,-7.45989e-05,-0.199959,-0.252411,9.31323e-05,0.0121825,0.157893,5,0.1,3,4.7,0.483432,-1.79996,0.749925,-0.316199,-9.68575e-06,3.08268e-05,0.0850819,-7.45058e-05,0.000100583,0.0100659,0.0819437,5,0.1,4,4.7,0.622382,1.49767,0.598984,0.231862,-0.145441,0.000957306,0.18448,0.142343,-0.000890344,0.00836637,0.223596,5,0.1,5,4.7,-1.99591,2.40251,0.600409,0.0568222,-0.0258163,-0.000685919,0.174105,0.184476,0.000607222,0.00769688,0.141268,5,0.1,6,4.7,0.202443,1.97354,0.59968,-0.40034,-0.620291,0.000267196,0.0586715,-0.171266,-0.000361353,0.0164071,0.572659,5,0.1,7,4.7,-1.79691,2.32131,0.600023,-0.00423677,-0.260009,-4.06057e-05,-0.013575,-0.317439,-0.000186265,0.00925742,0.123428,5,0.1,8,4.7,-1.28542,-3.90836,0.587098,0.00310093,0.0071492,0.000317674,-0.00172853,-0.0038892,-0.00018999,0.00582186,1.38809e-05,5,0.1,9,4.7,-0.417097,-2.86228,0.55102,-0.0842731,-0.804997,-0.0304594,0.0647865,0.247002,0.0232942,0.00633295,0.498805,5,0.1
0,4.8,3.84063,0.705126,0.627779,0.00115037,-0.00553429,1.04308e-05,0.00584126,-0.0255108,2.98023e-05,0.0101953,5.12022e-05,5,0.1,1,4.8,-0.816137,4.03566,0.600763,-0.601982,0.0135541,-0.000715256,-0.358254,-0.0133514,0.000715256,0.00823655,2.2136,5,0.1,2,4.8,3.29534,2.6013,0.600075,-0.0440121,0.373328,-6.70552e-05,-0.222683,-0.294805,8.9407e-05,0.0135021,0.203054,5,0.1,3,4.8,0.452226,-1.79996,0.749929,-0.30762,-1.49012e-05,4.02331e-05,0.101596,-5.96046e-05,5.96046e-05,0.00968575,0.15823,5,0.1,4,4.8,0.646492,1.48383,0.599075,0.249845,-0.13147,0.000870228,0.155389,0.140488,-0.000864267,0.0088848,0.171041,5,0.1,5,4.8,-1.98932,2.40073,0.600343,0.0749767,-0.0108659,-0.000622869,0.175595,0.114083,0.000685453,0.00590148,0.214098,5,0.1,6,4.8,0.162842,1.91095,0.599705,-0.390016,-0.628147,0.000235438,0.157647,0.0339746,-0.000298023,0.0167561,0.391344,5,0.1,7,4.8,-1.79739,2.29387,0.600019,-0.00517666,-0.286806,-5.51343e-05,-0.00554323,-0.202656,-2.98023e-05,0.00781236,0.196176,5,0.1,8,4.8,-1.28513,-3.90767,0.587128,0.00282824,0.00653267,0.000287592,-0.00351667,-0.00810623,-0.000327826,0.00777336,7.65228e-06,5,0.1,9,4.8,-0.425196,-2.94137,0.548093,-0.0776067,-0.774384,-0.0280425,0.0703931,0.38743,0.0256896,0.00727038,0.341364,5,0.1
0,4.9,3.84077,0.704466,0.62778,0.0015907,-0.00743596,1.24797e-05,0.00303984,-0.0128932,7.45058e-06,0.0101953,5.12022e-05,5,0.1,1,4.9,-0.878931,4.03669,0.60079,-0.659755,0.00488535,0.00203233,-0.711489,-0.143915,0.0482947,0.00823655,2.2136,5,0.1,2,4.9,3.28953,2.63743,0.600068,-0.0742577,0.35151,-6.03497e-05,-0.355244,-0.16503,4.47035e-05,0.0135021,0.203054,5,0.1,3,4.9,0.421628,-1.79996,0.749933,-0.306993,-2.06754e-05,4.61936e-05,-0.0579022,-5.21541e-05,5.96046e-05,0.00968575,0.15823,5,0.1,4,4.9,0.67235,1.47134,0.599158,0.267753,-0.118774,0.000792556,0.181951,0.117451,-0.000715256,0.0088848,0.171041,5,0.1,5,4.9,-1.98088,2.4001,0.600284,0.0943517,-0.00267811,-0.000554603,0.198923,0.0538379,0.000681728,0.00590148,0.214098,5,0.1,6,4.9,0.124605,1.8483,0.599727,-0.374652,-0.624096,0.000210851,0.161902,0.071004,-0.000208616,0.0167561,0.391344,5,0.1,7,4.9,-1.79792,2.26396,0.600013,-0.00537448,-0.312826,-5.54137e-05,0.00119209,-0.286043,2.6077e-05,0.00781236,0.196176,5,0.1,8,4.9,-1.28486,-3.90706,0.587155,0.00241715,0.00558347,0.000247732,-0.00458211,-0.0105798,-0.000454485,0.00777336,7.65228e-06,5,0.1,9,4.9,-0.432625,-3.01699,0.54541,-0.0711243,-0.738551,-0.0256594,0.0615045,0.355899,0.0227392,0.00727038,0.341364,5,0.1
0,5,3.84094,0.703677,0.627781,0.00177622,-0.00818819,1.19209e-05,0.000715256,-0.0025034,2.98023e-05,0.0112647,1.53679e-05,5,0.1,1,5,-0.948468,4.03635,0.601272,-0.729384,-0.0123382,0.00788718,-0.617892,-0.188351,0.064224,0.0065768,1.71637,5,0.1,2,5,3.28029,2.67182,0.600062,-0.110346,0.336254,-5.66244e-05,-0.346065,-0.157475,2.98023e-05,0.0141068,0.147765,5,0.1,3,5,0.390586,-1.79997,0.749938,-0.313781,-2.68221e-05,5.06639e-05,-0.0548512,0,5.96046e-05,0.00979714,0.0980676,5,0.1,4,5,0.699939,1.46004,0.599234,0.282679,-0.107288,0.000721216,0.101805,0.115097,-0.000685453,0.00936826,0.216492,5,0.1,5,5,-1.97049,2.40003,0.600232,0.112534,0.000655651,-0.000485778,0.15527,0.0163317,0.000715256,0.00647576,0.299538,5,0.1,6,5,0.0880378,1.78647,0.599747,-0.355591,-0.609955,0.000192225,0.227498,0.227749,-0.000208616,0.0175905,0.261889,5,0.1,7,5,-1.79844,2.23132,0.600008,-0.00501275,-0.33856,-5.21541e-05,0.00578165,-0.205636,8.9407e-05,0.00701734,0.119987,5,0.1,8,5,-1.28465,-3.90656,0.587177,0.00193715,0.00447631,0.000199676,-0.00494719,-0.0114441,-0.000506639,0.00660364,7.28773e-06,5,0.1,9,5,-0.43943,-3.08894,0.542958,-0.0649258,-0.698721,-0.023365,0.0640303,0.458837,0.0237226,0.00655797,0.230587,5,0.1
0,5.1,3.84112,0.702858,0.627782,0.00176504,-0.00806898,1.36904e-05,-0.000864267,0.00448525,1.11759e-05,0.0112647,1.53679e-05,5,0.1,1,5.1,-1.02466,4.03409,0.602417,-0.79472,-0.0336297,0.0152387,-0.629824,-0.225455,0.0783354,0.0065768,1.71637,5,0.1,2,5.1,3.26788,2.70476,0.600057,-0.134574,0.323259,-5.46686e-05,-0.145525,-0.117809,1.86265e-05,0.0141068,0.147765,5,0.1,3,5.1,0.35884,-1.79997,0.749943,-0.321569,-2.68221e-05,5.59725e-05,-0.0805743,0,4.09782e-05,0.00979714,0.0980676,5,0.1,4,5.1,0.729034,1.44979,0.599303,0.301517,-0.0984501,0.000669993,0.240199,0.0684857,-0.00038743,0.00936826,0.216492,5,0.1,5,5.1,-1.95841,2.40014,0.600187,0.129316,0.00117309,-0.000418071,0.167206,-0.00338256,0.000644475,0.00647576,0.299538,5,0.1,6,5.1,0.0535688,1.72657,0.599766,-0.333999,-0.587778,0.000175089,0.214593,0.235535,-0.000141561,0.0175905,0.261889,5,0.1,7,5.1,-1.79891,2.19643,0.600003,-0.00428502,-0.358713,-4.28408e-05,0.00845641,-0.177205,9.68575e-05,0.00701734,0.119987,5,0.1,8,5.1,-1.28448,-3.90617,0.587195,0.00143778,0.00332072,0.00014808,-0.00495464,-0.0114441,-0.00051409,0.00660364,7.28773e-06,5,0.1,9,5.1,-0.445622,-3.15665,0.540733,-0.0590642,-0.656149,-0.0211846,0.0550821,0.414699,0.0205338,0.00655797,0.230587,5,0.1
0,5.2,3.84129,0.702082,0.627784,0.00162125,-0.00736564,1.3411e-05,-0.00190735,0.00920892,-2.98023e-05,0.0131517,8.4749e-06,5,0.1,1,5.2,-1.10691,4.02962,0.604326,-0.845495,-0.055337,0.0227779,-0.346303,-0.199556,0.0691712,0.00728743,1.30086,5,0.1,2,5.2,3.25398,2.73646,0.600051,-0.140834,0.310069,-5.36442e-05,0.0134706,-0.156522,2.98023e-05,0.0128066,0.114365,5,0.1,3,5.2,0.326374,-1.79997,0.749949,-0.326439,-2.98023e-05,5.81145e-05,-0.0025779,5.96046e-05,0,0.0122225,0.078525,5,0.1,4,5.2,0.760381,1.44025,0.599368,0.324698,-0.0924051,0.00063628,0.197947,0.0575185,-0.000357628,0.00633896,0.194203,5,0.1,5,5.2,-1.94471,2.40023,0.600148,0.143737,0.000429153,-0.000354648,0.111997,-0.00989437,0.000566244,0.00748365,0.285219,5,0.1,6,5.2,0.0212887,1.66912,0.599783,-0.310956,-0.559559,0.000160933,0.253166,0.342011,-8.9407e-05,0.0180743,0.173486,5,0.1,7,5.2,-1.79929,2.15986,0.599999,-0.0033766,-0.370604,-3.27826e-05,0.00941753,-0.0470877,5.96046e-05,0.00707345,0.182999,5,0.1,8,5.2,-1.28436,-3.90589,0.587207,0.000965595,0.00222325,9.83477e-05,-0.00447035,-0.010252,-0.000447035,0.00821801,5.93567e-06,5,0.1,9,5.2,-0.451255,-3.22011,0.538716,-0.053589,-0.612068,-0.019148,0.0557303,0.482082,0.020653,0.00749642,0.154759,5,0.1
0,5.3,3.84144,0.701397,0.627785,0.00139438,-0.00629053,1.04308e-05,-0.0025481,0.0119507,-2.98023e-05,0.0131517,8.4749e-06,5,0.1,1,5.3,-1.19261,4.02326,0.606955,-0.863782,-0.0702254,0.0297898,-0.061132,-0.105292,0.0676662,0.00728743,1.30086,5,0.1,2,5.3,3.24022,2.76672,0.600046,-0.132158,0.29516,-5.11296e-05,0.149369,-0.15147,1.86265e-05,0.0128066,0.114365,5,0.1,3,5.3,0.293608,-1.79998,0.749955,-0.329433,-2.49594e-05,5.80214e-05,-0.0363234,2.98023e-05,-3.72529e-06,0.0122225,0.078525,5,0.1,4,5.3,0.793892,1.43098,0.599431,0.345448,-0.0956466,0.000607688,0.194624,-0.100143,-0.000249594,0.00633896,0.194203,5,0.1,5,5.3,-1.92982,2.40023,0.600116,0.153494,-0.000334904,-0.000300258,0.0762567,-0.00546873,0.000521541,0.00748365,0.285219,5,0.1,6,5.3,-0.00860324,1.6148,0.599798,-0.287282,-0.527089,0.000153482,0.228942,0.323832,-6.70552e-05,0.0180743,0.173486,5,0.1,7,5.3,-1.79959,2.12234,0.599996,-0.00244714,-0.381002,-2.63564e-05,0.0090152,-0.130773,7.07805e-05,0.00707345,0.182999,5,0.1,8,5.3,-1.28428,-3.90572,0.587215,0.000542216,0.00125021,5.54137e-05,-0.00394136,-0.00905991,-0.000398606,0.00821801,5.93567e-06,5,0.1,9,5.3,-0.456353,-3.27905,0.536898,-0.0485141,-0.567493,-0.0172634,0.0473429,0.427797,0.0175834,0.00749642,0.154759,5,0.1
0,5.4,3.84156,0.70083,0.627786,0.00112653,-0.00503808,7.45058e-06,-0.00286102,0.0128448,-2.98023e-05,0.011551,8.08692e-06,5,0.1,1,5.4,-1.27907,4.01582,0.610247,-0.863513,-0.0775337,0.0357315,0.0501275,-0.0448227,0.0487864,0.00655362,0.959533,5,0.1,2,5.4,3.2279,2.79542,0.600041,-0.112921,0.278139,-4.76837e-05,0.226617,-0.195503,0,0.0128632,0.261433,5,0.1,3,5.4,0.260567,-1.79998,0.749961,-0.33015,-2.38419e-05,5.81145e-05,0.0365376,5.96046e-05,-2.98023e-05,0.011498,0.151148,5,0.1,4,5.4,0.829254,1.42081,0.59949,0.359829,-0.108519,0.000582635,0.0774562,-0.140369,-0.000327826,0.00649095,0.116111,5,0.1,5,5.4,-1.91419,2.40017,0.600088,0.157866,-0.000685453,-0.00025034,0.00679493,-0.00166893,0.000506639,0.00690442,0.276443,5,0.1,6,5.4,-0.0361695,1.56379,0.599813,-0.263717,-0.492039,0.000146031,0.24824,0.388265,-5.96046e-05,0.0166956,0.114665,5,0.1,7,5.4,-1.79979,2.08365,0.599994,-0.00160038,-0.391597,-2.08616e-05,0.00780821,-0.0594854,8.9407e-05,0.00630547,0.1084,5,0.1,8,5.4,-1.28425,-3.90564,0.587218,0.000187755,0.000435114,1.78814e-05,-0.00315905,-0.00727177,-0.000298023,0.00778183,3.63185e-06,5,0.1,9,5.4,-0.460971,-3.33363,0.535259,-0.0438526,-0.5234,-0.0155389,0.0470132,0.466466,0.0173151,0.00731208,0.103701,5,0.1
0,5.5,3.84166,0.700391,0.627786,0.000837445,-0.00374047,4.56348e-06,-0.00286102,0.012856,-2.6077e-05,0.011551,8.08692e-06,5,0.1,1,5.5,-1.36539,4.00795,0.61406,-0.863875,-0.0791788,0.0404123,-0.0113249,-0.00441074,0.0421926,0.00655362,0.959533,5,0.1,2,5.5,3.21781,2.82227,0.600036,-0.0883974,0.258866,-4.72181e-05,0.256389,-0.196114,1.11759e-05,0.0128632,0.261433,5,0.1,3,5.5,0.227609,-1.79998,0.749966,-0.329757,-1.88127e-05,5.45755e-05,-0.00866123,3.72529e-05,-4.47035e-05,0.011498,0.151148,5,0.1,4,5.5,0.865577,1.40916,0.599547,0.365811,-0.125035,0.00055274,0.0282638,-0.175215,-0.000286847,0.00649095,0.116111,5,0.1,5,5.5,-1.89843,2.4001,0.600066,0.156649,-0.000669062,-0.000202842,-0.0340566,0.00154972,0.000439584,0.00690442,0.276443,5,0.1,6,5.5,-0.0613681,1.51643,0.599828,-0.240749,-0.455707,0.00014063,0.218373,0.352189,-5.96046e-05,0.0166956,0.114665,5,0.1,7,5.5,-1.79991,2.04417,0.599992,-0.000909902,-0.397795,-1.24797e-05,0.00599772,-0.0452697,7.45058e-05,0.00630547,0.1084,5,0.1,8,5.5,-1.28424,-3.90563,0.587219,-9.49949e-05,-0.000216812,-9.49949e-06,-0.00247359,-0.00572205,-0.000245869,0.00778183,3.63185e-06,5,0.1,9,5.5,-0.465137,-3.38377,0.533786,-0.0395912,-0.480483,-0.0139686,0.0395309,0.407219,0.0145473,0.00731208,0.103701,5,0.1
0,5.6,3.84173,0.70008,0.627787,0.000566244,-0.00251085,1.49012e-06,-0.0026226,0.0115931,0,0.0110393,6.61384e-06,5,0.1,1,5.6,-1.45163,4,0.618284,-0.858006,-0.0801086,0.0437275,0.160396,-0.0146627,0.0222921,0.00653175,0.687609,5,0.1,2,5.6,3.21025,2.84713,0.600032,-0.0629544,0.237906,-4.61936e-05,0.247002,-0.226855,5.96046e-05,0.0148951,0.254777,5,0.1,3,5.6,0.19465,-1.79998,0.749971,-0.328464,-1.49012e-05,4.91738e-05,0.0486892,0,-5.96046e-05,0.00927327,0.189609,5,0.1,4,5.6,0.902126,1.39582,0.599601,0.363186,-0.141022,0.000521541,-0.0897646,-0.133932,-0.000357628,0.00568989,0.0642305,5,0.1,5,5.6,-1.88303,2.40005,0.600047,0.150615,-0.000447035,-0.000160933,-0.0880361,0.0026226,0.00038743,0.00746992,0.272171,5,0.1,6,5.6,-0.0843522,1.47265,0.599841,-0.218813,-0.419277,0.000135601,0.225369,0.385702,-0.000119209,0.0149536,0.160553,5,0.1,7,5.6,-1.79998,2.00432,0.599991,-0.000399351,-0.397429,-5.96046e-06,0.00423193,0.0655651,5.96046e-05,0.00669743,0.0578137,5,0.1,8,5.6,-1.28426,-3.90568,0.587217,-0.000303984,-0.000697374,-2.98023e-05,-0.00160933,-0.0038147,-0.000178814,0.00689178,1.59914e-06,5,0.1,9,5.6,-0.468902,-3.42978,0.53246,-0.0357226,-0.439358,-0.0125512,0.0387877,0.426054,0.0141263,0.00803922,0.120091,5,0.1
0,5.7,3.84178,0.699885,0.627787,0.00031814,-0.00141216,1.11759e-06,-0.00229478,0.0102334,-7.45058e-06,0.0110393,6.61384e-06,5,0.1,1,5.7,-1.53677,3.99183,0.622763,-0.845255,-0.0838138,0.0457472,0.132985,-0.0506043,0.0160076,0.00653175,0.687609,5,0.1,2,5.7,3.20517,2.86976,0.600027,-0.0389058,0.214434,-4.03263e-05,0.225797,-0.243559,5.58794e-05,0.0148951,0.254777,5,0.1,3,5.7,0.161705,-1.79998,0.749976,-0.332999,-1.49012e-05,4.33065e-05,-0.105916,0,-5.58794e-05,0.00927327,0.189609,5,0.1,4,5.7,0.93794,1.38114,0.599651,0.352327,-0.151455,0.000486989,-0.135772,-0.0709444,-0.000346452,0.00568989,0.0642305,5,0.1,5,5.7,-1.86845,2.40001,0.600033,0.140487,-0.000207126,-0.000124983,-0.115216,0.00205636,0.000327826,0.00746992,0.272171,5,0.1,6,5.7,-0.105276,1.43284,0.599854,-0.201045,-0.375356,0.000127405,0.142685,0.486366,-5.21541e-05,0.0149536,0.160553,5,0.1,7,5.7,-1.8,1.96494,0.599991,-5.43892e-05,-0.389544,-5.58794e-07,0.00272691,0.103973,4.47035e-05,0.00669743,0.0578137,5,0.1,8,5.7,-1.2843,-3.90576,0.587213,-0.00043679,-0.00101216,-4.48897e-05,-0.00103563,-0.00245869,-0.000119209,0.00689178,1.59914e-06,5,0.1,9,5.7,-0.472312,-3.47193,0.531264,-0.0327218,-0.406501,-0.0114494,0.0234563,0.25782,0.00868365,0.00803922,0.120091,5,0.1
0,5.8,3.8418,0.699791,0.627787,0.000113249,-0.000490248,0,-0.00178814,0.00813603,0,0.0106519,4.01521e-06,5,0.1,1,5.8,-1.62042,3.9832,0.627393,-0.824934,-0.0886977,0.0465795,0.299811,-0.0406504,-0.000745058,0.00738638,0.479123,5,0.1,2,5.8,3.20232,2.88996,0.600024,-0.0190854,0.189078,-3.42727e-05,0.165582,-0.264049,2.98023e-05,0.0144189,0.412751,5,0.1,3,5.8,0.127846,-1.79998,0.74998,-0.343838,-1.49012e-05,3.72529e-05,-0.0862217,0,-2.98023e-05,0.0095059,0.282438,5,0.1,4,5.8,0.972363,1.36577,0.599698,0.334688,-0.154632,0.000450015,-0.222057,0.00947714,-0.000417233,0.00658733,0.14531,5,0.1,5,5.8,-1.85503,2.4,0.600022,0.127497,-5.36442e-05,-9.38773e-05,-0.144601,0.00107288,0.000268221,0.00801611,0.270645,5,0.1,6,5.8,-0.124719,1.39786,0.599867,-0.188072,-0.323239,0.00012219,0.126127,0.549912,0,0.0151237,0.146035,5,0.1,7,5.8,-1.79999,1.92664,0.599991,0.000154972,-0.37469,4.47035e-06,0.00149012,0.20057,0,0.00710384,0.105879,5,0.1,8,5.8,-1.28435,-3.90587,0.587208,-0.0005126,-0.00118613,-5.36442e-05,-0.000417233,-0.00119209,-8.9407e-05,0.00723524,5.37393e-07,5,0.1,9,5.8,-0.475477,-3.51139,0.530159,-0.0306435,-0.383157,-0.0106797,0.0197738,0.228882,0.00727177,0.00732032,0.0699853,5,0.1
0,5.9,3.8418,0.69978,0.627787,-4.69387e-05,0.000239443,-9.31323e-08,-0.00140071,0.00638887,-3.72529e-06,0.0106519,4.01521e-06,5,0.1,1,5.9,-1.70153,3.97409,0.632045,-0.79765,-0.0935778,0.0463982,0.27705,-0.0500679,-0.00458583,0.00738638,0.479123,5,0.1,2,5.9,3.20122,2.90757,0.60002,-0.00361726,0.163507,-3.11993e-05,0.123411,-0.2487,3.35276e-05,0.0144189,0.412751,5,0.1,3,5.9,0.0928399,-1.79999,0.749984,-0.357456,-1.49012e-05,3.3807e-05,-0.157741,0,-4.09782e-05,0.0095059,0.282438,5,0.1,4,5.9,1.00469,1.35058,0.599741,0.31153,-0.147158,0.000409689,-0.246037,0.132009,-0.000398606,0.00658733,0.14531,5,0.1,5,5.9,-1.84301,2.4,0.600014,0.112556,8.56817e-06,-6.92904e-05,-0.153922,0.00025332,0.000223517,0.00801611,0.270645,5,0.1,6,5.9,-0.142969,1.3684,0.599879,-0.177451,-0.264975,0.000122469,0.0946824,0.603609,3.72529e-06,0.0151237,0.146035,5,0.1,7,5.9,-1.79997,1.89013,0.599992,0.000155158,-0.35584,4.84288e-06,-0.00108033,0.189155,7.45058e-06,0.00710384,0.105879,5,0.1,8,5.9,-1.2844,-3.906,0.587202,-0.000535324,-0.00125468,-5.97909e-05,-2.98023e-05,-0.000208616,-2.98023e-05,0.00723524,5.37393e-07,5,0.1,9,5.9,-0.478456,-3.54871,0.529123,-0.0290293,-0.36416,-0.0100834,0.0139885,0.168666,0.00516325,0.00732032,0.0699853,5,0.1
0,6,3.84179,0.699833,0.627787,-0.000166893,0.000777841,0,-0.000953674,0.00432134,-2.98023e-05,0.0114675,1.79107e-06,5,0.1,1,6,-1.77974,3.96452,0.636645,-0.764287,-0.097549,0.04538,0.41151,-0.0241995,-0.0169277,0.00742881,0.327323,5,0.1,2,6,3.20129,2.9227,0.600017,0.00278354,0.139129,-2.83122e-05,-0.00345707,-0.23973,5.96046e-05,0.0145949,0.39607,5,0.1,3,6,0.0563787,-1.79999,0.749987,-0.370509,-1.19209e-05,2.98023e-05,-0.0829661,-5.96046e-05,-2.98023e-05,0.00867859,2.89201,5,0.1,4,6,1.03455,1.33667,0.59978,0.284708,-0.12973,0.000368059,-0.293255,0.20951,-0.000417233,0.00574397,0.198362,5,0.1,5,6,-1.83254,2.4,0.600008,0.096795,1.19209e-05,-4.91738e-05,-0.160933,-0.000119209,0.000149012,0.0076231,0.270281,5,0.1,6,6,-0.160236,1.34493,0.599891,-0.167703,-0.20462,0.00012219,0.106201,0.594199,-2.98023e-05,0.0145902,0.330739,5,0.1,7,6,-1.79996,1.85555,0.599992,8.9407e-06,-0.334734,5.96046e-06,-0.00154972,0.241399,0,0.00730725,0.191643,5,0.1,8,6,-1.28445,-3.90612,0.587196,-0.000521541,-0.00123382,-6.10948e-05,0.000298023,0.000715256,2.98023e-05,0.00753917,1.41688e-07,5,0.1,9,6,-0.481289,-3.58426,0.52814,-0.0275925,-0.346416,-0.00955909,0.0157803,0.198722,0.00569224,0.00698425,0.054643,5,0.1
0,6.1,3.84177,0.69993,0.627787,-0.000244752,0.00113407,-2.51457e-06,-0.000610948,0.00279024,-1.86265e-05,0.0114675,1.79107e-06,5,0.1,1,6.1,-1.85423,3.95463,0.6411,-0.726105,-0.100205,0.0437049,0.377722,-0.0234991,-0.0179783,0.00742881,0.327323,5,0.1,2,6.1,3.20139,2.93531,0.600015,-0.00324622,0.112191,-2.28174e-05,-0.144839,-0.290588,4.84288e-05,0.0145949,0.39607,5,0.1,3,6.1,0.0174368,-1.79983,0.74999,-0.420264,0.00440218,2.6729e-05,-0.80168,0.0785142,-3.35276e-05,0.00867859,2.89201,5,0.1,4,6.1,1.0616,1.32483,0.599815,0.256591,-0.10653,0.000329409,-0.274666,0.248529,-0.000368804,0.00574397,0.198362,5,0.1,5,6.1,-1.82366,2.4,0.600004,0.0809386,1.19209e-05,-3.54834e-05,-0.155628,5.96046e-05,0.000130385,0.0076231,0.270281,5,0.1,6,6.1,-0.176506,1.32744,0.599903,-0.157842,-0.145623,0.000119023,0.0964319,0.569448,-3.72529e-05,0.0145902,0.330739,5,0.1,7,6.1,-1.79997,1.82334,0.599993,-8.95932e-05,-0.308927,5.96046e-06,-0.00051409,0.277422,0,0.00730725,0.191643,5,0.1,8,6.1,-1.2845,-3.90624,0.58719,-0.000480749,-0.00113621,-5.65313e-05,0.000499189,0.0012219,5.58794e-05,0.00753917,1.41688e-07,5,0.1,9,6.1,-0.483982,-3.61806,0.527208,-0.0263723,-0.330655,-0.00911718,0.0101496,0.134736,0.00366941,0.00698425,0.054643,5,0.1
0,6.2,3.84174,0.700055,0.627786,-0.000292063,0.00133514,-2.98023e-06,-0.000238419,0.0012815,-2.98023e-05,0.0105644,5.89811e-07,5,0.1,1,6.2,-1.92484,3.94453,0.645369,-0.684437,-0.101328,0.0415489,0.473082,0.00452995,-0.0260472,0.00729902,0.220899,5,0.1,2,6.2,3.2,2.94505,0.600013,-0.0276506,0.0825226,-1.93715e-05,-0.330091,-0.296235,5.96046e-05,0.0114558,0.343175,5,0.1,3,6.2,-0.0290356,-1.79894,0.749992,-0.511393,0.0139475,2.23517e-05,-0.936842,0.104725,-2.98023e-05,0.0113832,2.35218,5,0.1,4,6.2,1.08587,1.31544,0.599846,0.228849,-0.081107,0.000293553,-0.283718,0.255048,-0.00038743,0.00806057,0.192057,5,0.1,5,6.2,-1.81633,2.4,0.600001,0.0657797,1.19209e-05,-2.38419e-05,-0.147104,-0.000119209,8.9407e-05,0.00739317,0.268093,5,0.1,6,6.2,-0.191788,1.31558,0.599915,-0.147509,-0.0933766,0.000114739,0.113882,0.465333,-8.9407e-05,0.0145,0.312061,5,0.1,7,6.2,-1.79998,1.79391,0.599993,-0.000107288,-0.278863,5.96046e-06,0.000119209,0.324965,2.98023e-05,0.00661846,0.275552,5,0.1,8,6.2,-1.28455,-3.90635,0.587185,-0.000423193,-0.00100136,-5.06639e-05,0.000655651,0.00166893,8.9407e-05,0.00736269,8.05734e-08,5,0.1,9,6.2,-0.486568,-3.65044,0.526315,-0.0253037,-0.31637,-0.00873506,0.0123233,0.164032,0.00438094,0.00692076,0.0249154,5,0.1
0,6.3,3.84171,0.700193,0.627786,-0.000305101,0.00140825,-5.40167e-06,-1.49012e-05,0.00019744,-1.49012e-05,0.0105644,5.89811e-07,5,0.1,1,6.3,-1.99105,3.93441,0.649399,-0.64054,-0.100974,0.0390631,0.426106,0.00691414,-0.024844,0.00729902,0.220899,5,0.1,2,6.3,3.19519,2.95181,0.600011,-0.0716507,0.0529092,-1.43424e-05,-0.513703,-0.289991,3.72529e-05,0.0114558,0.343175,5,0.1,3,6.3,-0.0854291,-1.79696,0.749994,-0.619994,0.025988,1.93715e-05,-1.15024,0.128642,-2.98023e-05,0.0113832,2.35218,5,0.1,4,6.3,1.10737,1.30859,0.599873,0.201292,-0.0561439,0.000256952,-0.269927,0.238732,-0.000346452,0.00806057,0.192057,5,0.1,5,6.3,-1.81047,2.40008,0.599999,0.0517465,0.00199601,-1.55531e-05,-0.133082,0.030756,7.07805e-05,0.00739317,0.268093,5,0.1,6,6.3,-0.205985,1.30844,0.599926,-0.13649,-0.0512997,0.000106171,0.109915,0.35385,-8.19564e-05,0.0145,0.312061,5,0.1,7,6.3,-1.79999,1.76762,0.599994,-7.26432e-05,-0.247193,8.3819e-06,0.000461936,0.311814,1.49012e-05,0.00661846,0.275552,5,0.1,8,6.3,-1.28459,-3.90644,0.58718,-0.000354461,-0.000828505,-4.17233e-05,0.000707805,0.00175834,8.9407e-05,0.00736269,8.05734e-08,5,0.1,9,6.3,-0.489039,-3.68128,0.525462,-0.0241135,-0.300416,-0.00831457,0.0122935,0.164658,0.00431761,0.00692076,0.0249154,5,0.1
0,6.4,3.84168,0.700333,0.627785,-0.000292063,0.00137985,-5.96046e-06,0,-0.000745058,0,0.0130486,1.68523e-07,5,0.1,1,6.4,-2.05291,3.92438,0.653175,-0.595641,-0.0992119,0.0363842,0.486374,0.0309944,-0.0295937,0.00726063,0.148194,5,0.1,2,6.4,3.1854,2.9557,0.60001,-0.124037,0.0255644,-1.04308e-05,-0.50652,-0.252366,2.98023e-05,0.0129281,0.277571,5,0.1,3,6.4,-0.152958,-1.79373,0.749996,-0.726779,0.0383824,1.49012e-05,-0.92376,0.113666,0,0.0111542,1.82297,5,0.1,4,6.4,1.12616,1.30411,0.599897,0.17446,-0.0342518,0.000222027,-0.268161,0.195682,-0.000298023,0.00737435,0.189709,5,0.1,5,6.4,-1.80593,2.40043,0.599998,0.0392437,0.00469685,-8.9407e-06,-0.116646,0.0177622,5.96046e-05,0.00738945,0.253191,5,0.1,6,6.4,-0.219068,1.30476,0.599936,-0.12496,-0.0256121,9.68575e-05,0.122942,0.152111,-8.9407e-05,0.0145765,0.27169,5,0.1,7,6.4,-1.79999,1.74446,0.599995,-3.27826e-05,-0.21596,1.04308e-05,0.000357628,0.314891,-2.98023e-05,0.00622057,0.401806,5,0.1,8,6.4,-1.28462,-3.90651,0.587177,-0.000283122,-0.000655651,-3.27826e-05,0.000715256,0.00166893,8.9407e-05,0.00663266,8.66597e-08,5,0.1,9,6.4,-0.491383,-3.71043,0.524654,-0.0227109,-0.281841,-0.00782609,0.016287,0.212908,0.00566244,0.00883773,0.0151307,5,0.1
0,6.5,3.84165,0.700466,0.627785,-0.000281632,0.00127489,-5.58794e-06,0.000208616,-0.00132248,7.45058e-06,0.0130486,1.68523e-07,5,0.1,1,6.5,-2.11018,3.9146,0.656673,-0.550707,-0.096273,0.03361,0.430033,0.0313371,-0.0268854,0.00726063,0.148194,5,0.1,2,6.5,3.17035,2.95704,0.600009,-0.177333,0.00151955,-7.91624e-06,-0.531971,-0.224128,1.86265e-05,0.0129281,0.277571,5,0.1,3,6.5,-0.229891,-1.78931,0.749998,-0.807356,0.0499247,1.44355e-05,-0.655268,0.111498,-1.11759e-05,0.0111542,1.82297,5,0.1,4,6.5,1.1423,1.30157,0.599918,0.148607,-0.0175105,0.000192784,-0.249848,0.137992,-0.000283122,0.00737435,0.189709,5,0.1,5,6.5,-1.80256,2.40106,0.599997,0.0284217,0.00803247,-3.53903e-06,-0.0995398,0.0240207,4.47035e-05,0.00738945,0.253191,5,0.1,6,6.5,-0.230964,1.30268,0.599946,-0.113031,-0.0195231,8.801e-05,0.117798,-0.0576526,-8.56817e-05,0.0145765,0.27169,5,0.1,7,6.5,-1.79988,1.72442,0.599996,0.00298303,-0.185099,7.91624e-06,0.0463948,0.30271,-1.86265e-05,0.00622057,0.401806,5,0.1,8,6.5,-1.28465,-3.90657,0.587174,-0.0002129,-0.000491738,-2.43075e-05,0.000678003,0.00157952,7.82311e-05,0.00663266,8.66597e-08,5,0.1,9,6.5,-0.493575,-3.73758,0.523899,-0.0211247,-0.261095,-0.00727652,0.0160672,0.20951,0.00554696,0.00883773,0.0151307,5,0.1
0,6.6,3.84163,0.700586,0.627784,-0.0002563,0.00112206,-4.47035e-06,0.000357628,-0.00169873,0,0.0123634,9.92734e-08,5,0.1,1,6.6,-2.16307,3.90516,0.659897,-0.506645,-0.0923514,0.0308394,0.463367,0.0494719,-0.0291765,0.00755601,0.099291,5,0.1,2,6.6,3.1501,2.95614,0.600008,-0.225717,-0.0185251,-5.96046e-06,-0.416279,-0.173807,0,0.0157276,0.211744,5,0.1,3,6.6,-0.313264,-1.7838,0.749999,-0.853375,0.0597149,1.3411e-05,-0.253007,0.0804067,-2.98023e-05,0.0111876,1.38551,5,0.1,4,6.6,1.15593,1.30041,0.599936,0.124344,-0.0066936,0.000165403,-0.235975,0.0790954,-0.000298023,0.00805628,0.320734,5,0.1,5,6.6,-1.80019,2.40184,0.599997,0.0193715,0.00596642,0,-0.0813603,-0.0753403,2.98023e-05,0.00702991,0.215015,5,0.1,6,6.6,-0.241672,1.3,0.599954,-0.101047,-0.0382006,7.89762e-05,0.123248,-0.299215,-8.9407e-05,0.0140777,0.211034,5,0.1,7,6.6,-1.79937,1.7074,0.599996,0.00705421,-0.155377,5.96046e-06,0.0265837,0.291765,-2.98023e-05,0.00542476,0.541756,5,0.1,8,6.6,-1.28466,-3.90661,0.587172,-0.000151992,-0.000345707,-1.63913e-05,0.000655651,0.00143051,5.96046e-05,0.00689422,7.74543e-08,5,0.1,9,6.6,-0.495603,-3.76259,0.5232,-0.0193946,-0.238729,-0.0066787,0.0189096,0.242352,0.0064671,0.0110071,0.00483208,5,0.1
0,6.7,3.8416,0.70069,0.627784,-0.000216067,0.000941753,-4.09782e-06,0.000417233,-0.00187755,7.45058e-06,0.0123634,9.92734e-08,5,0.1,1,6.7,-2.21156,3.89616,0.662843,-0.464063,-0.0876851,0.028136,0.403076,0.0467896,-0.0257269,0.00755601,0.099291,5,0.1,2,6.7,3.12545,2.95346,0.600008,-0.266526,-0.034526,-5.96046e-06,-0.378788,-0.142902,0,0.0157276,0.211744,5,0.1,3,6.7,-0.399374,-1.77744,0.75,-0.865094,0.0674374,1.04308e-05,-0.0259858,0.069648,-2.98023e-05,0.0111876,1.38551,5,0.1,4,6.7,1.16724,1.30007,0.599951,0.102258,-0.000689924,0.000136904,-0.206776,0.0425428,-0.000275671,0.00805628,0.320734,5,0.1,5,6.7,-1.79863,2.40194,0.599997,0.0120409,-0.0060644,2.51457e-06,-0.0652224,-0.199661,1.86265e-05,0.00702991,0.215015,5,0.1,6,6.7,-0.251178,1.29442,0.599961,-0.0891987,-0.0752535,7.01286e-05,0.115096,-0.414416,-8.56817e-05,0.0140777,0.211034,5,0.1,7,6.7,-1.7985,1.69328,0.599997,0.00991691,-0.127513,3.44589e-06,0.00875443,0.265598,-1.86265e-05,0.00542476,0.541756,5,0.1,8,6.7,-1.28468,-3.90664,0.58717,-9.18284e-05,-0.000212342,-1.08965e-05,0.000543892,0.0012219,4.84288e-05,0.00689422,7.74543e-08,5,0.1,9,6.7,-0.497448,-3.78525,0.522565,-0.0174815,-0.214305,-0.00602426,0.0195671,0.248641,0.00669435,0.0110071,0.00483208,5,0.1
0,6.8,3.84158,0.700774,0.627783,-0.000178814,0.000752509,-2.98023e-06,0.000596046,-0.00187755,0,0.00954886,1.07664e-07,5,0.1,1,6.8,-2.25595,3.88764,0.665528,-0.423521,-0.0825047,0.0255525,0.418067,0.0587702,-0.0265539,0.00837323,0.114999,5,0.1,2,6.8,3.09711,2.94937,0.600007,-0.29791,-0.0465631,-5.96046e-06,-0.234485,-0.0957251,0,0.0133899,0.152336,5,0.1,3,6.8,-0.485873,-1.77039,0.750001,-0.863769,0.0729054,8.9407e-06,0.045166,0.0366569,-5.96046e-05,0.00993508,1.03443,5,0.1,4,6.8,1.17647,1.30016,0.599963,0.0828087,0.00211596,0.000111759,-0.182927,0.0150204,-0.000268221,0.00793388,0.315896,5,0.1,5,6.8,-1.79772,2.4,0.599998,0.00632405,-0.0360012,2.98023e-06,-0.049293,-0.385165,2.98023e-05,0.00766335,0.153416,5,0.1,6,6.8,-0.259527,1.28482,0.599968,-0.0778034,-0.116301,6.10948e-05,0.113711,-0.386059,-5.96046e-05,0.0135944,0.194362,5,0.1,7,6.8,-1.79762,1.68181,0.599997,0.00578165,-0.102249,1.49012e-06,-0.0998378,0.23967,0,0.00594918,2.1269,5,0.1,8,6.8,-1.28468,-3.90666,0.58717,-4.47035e-05,-0.000101328,-4.47035e-06,0.000476837,0.000953674,0,0.00687862,4.76608e-08,5,0.1,9,6.8,-0.499095,-3.80541,0.521997,-0.0154488,-0.188631,-0.00532717,0.0211596,0.265956,0.00724196,0.0109517,0.00144372,5,0.1
0,6.9,3.84157,0.70084,0.627783,-0.000123307,0.000567548,-2.6077e-06,0.000491738,-0.00179559,7.45058e-06,0.00954886,1.07664e-07,5,0.1,1,6.9,-2.29655,3.87962,0.66797,-0.391192,-0.078249,0.023451,0.254199,0.0315905,-0.0169463,0.00837323,0.114999,5,0.1,2,6.9,3.06619,2.94427,0.600007,-0.319782,-0.0550319,-5.96046e-06,-0.186324,-0.0710636,0,0.0133899,0.152336,5,0.1,3,6.9,-0.572223,-1.76293,0.750002,-0.864149,0.0762302,3.91155e-06,-0.0112559,0.0263304,-3.72529e-05,0.00993508,1.03443,5,0.1,4,6.9,1.18387,1.30051,0.599973,0.065539,0.00508502,8.70787e-05,-0.162348,0.0345707,-0.000227243,0.00793388,0.315896,5,0.1,5,6.9,-1.79732,2.39413,0.599998,0.00205003,-0.0840403,5.40167e-06,-0.0363141,-0.539035,1.49012e-05,0.00766335,0.153416,5,0.1,6,6.9,-0.266758,1.27166,0.599974,-0.0670042,-0.143262,5.50412e-05,0.103176,-0.16138,-6.33299e-05,0.0135944,0.194362,5,0.1,7,6.9,-1.79748,1.67242,0.599997,-0.00544246,-0.0888826,1.49012e-06,-0.241034,0.0478104,0,0.00594918,2.1269,5,0.1,8,6.9,-1.28468,-3.90666,0.587169,-3.35276e-06,-1.67638e-05,-4.00469e-06,0.000342727,0.000730157,1.11759e-05,0.00687862,4.76608e-08,5,0.1,9,6.9,-0.500535,-3.82295,0.5215,-0.0133387,-0.162204,-0.00460427,0.0210498,0.262603,0.00721961,0.0109517,0.00144372,5,0.1
0,7,3.84156,0.700888,0.627783,-7.15256e-05,0.000397861,-1.49012e-06,0.000238419,-0.00160933,0,0.00949538,9.04209e-08,5,0.1,1,7,-2.3345,3.87195,0.670237,-0.36822,-0.0752807,0.0219092,0.224471,0.0315905,-0.0149906,0.00905264,0.0670169,5,0.1,2,7,3.03347,2.93847,0.600006,-0.332403,-0.0603497,-5.96046e-06,-0.0549555,-0.0338554,2.98023e-05,0.0149042,0.177794,5,0.1,3,7,-0.658516,-1.75521,0.750002,-0.859241,0.0775903,0,0.13569,-0.00143051,-2.98023e-05,0.0080252,0.749386,5,0.1,4,7,1.18965,1.30116,0.599981,0.05036,0.00748038,6.70552e-05,-0.141203,0.00762939,-0.000208616,0.00759584,0.298245,5,0.1,5,7,-1.79727,2.38302,0.599999,-0.000968575,-0.137448,5.96046e-06,-0.0242591,-0.502348,0,0.00748784,0.0931016,5,0.1,6,7,-0.272954,1.25684,0.599979,-0.0570171,-0.150183,4.76837e-05,0.0971556,0.0151992,-5.96046e-05,0.0142052,0.184839,5,0.1,7,7,-1.8,1.66359,0.599997,-0.0526696,-0.089097,1.49012e-06,-0.689566,-0.0362992,0,0.00827807,1.84828,5,0.1,8,7,-1.28468,-3.90666,0.587169,2.38419e-05,4.76837e-05,-1.49012e-06,0.000298023,0.000357628,-2.98023e-05,0.00722301,1.96267e-08,5,0.1,9,7,-0.501764,-3.83787,0.521076,-0.0112414,-0.136131,-0.00388324,0.0208914,0.258207,0.00715256,0.0109042,0.000767587,5,0.1
0,7.1,3.84155,0.70092,0.627783,-4.76837e-05,0.000247266,-1.39698e-06,0.000238419,-0.00138953,3.72529e-06,0.00949538,9.04209e-08,5,0.1,1,7.1,-2.37034,3.86456,0.672361,-0.349591,-0.072673,0.0206436,0.165075,0.0239909,-0.0112914,0.00905264,0.0670169,5,0.1,2,7.1,2.99972,2.9323,0.600005,-0.344083,-0.0627801,-3.53903e-06,-0.148833,-0.0131726,1.49012e-05,0.0149042,0.177794,5,0.1,3,7.1,-0.743944,-1.74746,0.750002,-0.850067,0.0772733,-2.42144e-06,0.0894666,-0.0077486,-1.49012e-05,0.0080252,0.749386,5,0.1,4,7.1,1.19401,1.30199,0.599986,0.0373524,0.00893325,4.84288e-05,-0.118986,-0.00111759,-0.000163913,0.00759584,0.298245,5,0.1,5,7.1,-1.79748,2.36677,0.599999,-0.00293236,-0.186834,5.86733e-06,-0.0152215,-0.464186,-3.72529e-06,0.00748784,0.0931016,5,0.1,6,7.1,-0.278242,1.24218,0.599983,-0.049356,-0.140276,4.17233e-05,0.059966,0.169694,-5.96046e-05,0.0142052,0.184839,5,0.1,7,7.1,-1.8097,1.65433,0.599998,-0.149018,-0.0974258,1.49012e-06,-1.15208,-0.114895,0,0.00827807,1.84828,5,0.1,8,7.1,-1.28468,-3.90665,0.587169,4.73112e-05,7.82311e-05,-3.25963e-06,0.000163913,0.000268221,-1.11759e-05,0.00722301,1.96267e-08,5,0.1,9,7.1,-0.502785,-3.85021,0.520723,-0.00920873,-0.11107,-0.00318633,0.0196919,0.242174,0.0067614,0.0109042,0.000767587,5,0.1
0,7.2,3.84155,0.700939,0.627783,-2.98023e-05,0.000120699,-1.49012e-06,0.000357628,-0.00107288,2.98023e-05,0.00908693,5.68305e-08,5,0.1,1,7.2,-2.40446,3.85742,0.674369,-0.332308,-0.0699043,0.0194848,0.192404,0.0337362,-0.0125766,0.0107151,0.0523435,5,0.1,2,7.2,2.96461,2.926,0.600005,-0.357038,-0.0627398,-2.98023e-06,-0.0885725,0.0146627,2.98023e-05,0.015402,0.108828,5,0.1,3,7.2,-0.828301,-1.7398,0.750001,-0.834292,0.0755697,-4.47035e-06,0.254959,-0.028193,0,0.00687053,0.5262,5,0.1,4,7.2,1.19719,1.30273,0.599991,0.0265419,0.0041306,3.42727e-05,-0.0972748,-0.103712,-0.000149012,0.00845232,0.259534,5,0.1,5,7.2,-1.79783,2.34597,0.6,-0.00405312,-0.226724,4.47035e-06,-0.00745058,-0.319242,2.98023e-05,0.009139,0.123765,5,0.1,6,7.2,-0.282913,1.22917,0.599987,-0.0443354,-0.118652,3.42727e-05,0.043422,0.251949,-2.98023e-05,0.0126718,0.269506,5,0.1,7,7.2,-1.83055,1.64398,0.599998,-0.268096,-0.109392,1.49012e-06,-1.16491,-0.112951,0,0.00677316,1.49666,5,0.1,8,7.2,-1.28467,-3.90665,0.587168,5.96046e-05,9.53674e-05,-2.98023e-06,5.96046e-05,0.000238419,0,0.00775113,1.11729e-08,5,0.1,9,7.2,-0.50361,-3.86014,0.520437,-0.00731498,-0.0878513,-0.00253469,0.01809,0.221372,0.00619888,0.0104681,0.000688343,5,0.1
0,7.3,3.84155,0.700946,0.627783,1.11759e-06,2.43075e-05,1.02445e-06,0.000283122,-0.000853091,1.86265e-05,0.00908693,5.68305e-08,5,0.1,1,7.3,-2.43687,3.85057,0.676263,-0.317059,-0.0672113,0.0184695,0.130102,0.0236779,-0.00873581,0.0107151,0.0523435,5,0.1,2,7.3,2.92844,2.91988,0.600005,-0.366334,-0.0588335,-5.58794e-07,-0.078246,0.0602603,1.49012e-05,0.015402,0.108828,5,0.1,3,7.3,-0.910584,-1.73239,0.750001,-0.811789,0.0727812,-4.37722e-06,0.22877,-0.029929,3.72529e-06,0.00687053,0.5262,5,0.1,4,7.3,1.19939,1.3025,0.599993,0.0177946,-0.0106551,2.15136e-05,-0.0778437,-0.223547,-0.000108033,0.00845232,0.259534,5,0.1,5,7.3,-1.79826,2.32165,0.6,-0.00442658,-0.25978,6.51926e-06,-0.000439584,-0.319302,7.45058e-06,0.009139,0.123765,5,0.1,6,7.3,-0.287118,1.21869,0.599991,-0.0396504,-0.0902202,3.08268e-05,0.0500288,0.301152,-4.09782e-05,0.0126718,0.269506,5,0.1,7,7.3,-1.86347,1.63242,0.599998,-0.391644,-0.12229,1.49012e-06,-1.24151,-0.133187,0,0.00677316,1.49666,5,0.1,8,7.3,-1.28467,-3.90664,0.587168,6.22123e-05,0.000112504,-2.51457e-06,0,0.000119209,1.11759e-05,0.00775113,1.11729e-08,5,0.1,9,7.3,-0.504254,-3.86786,0.520214,-0.00559911,-0.0669006,-0.00194544,0.0161529,0.19677,0.00555441,0.0104681,0.000688343,5,0.1
0,7.4,3.84155,0.700944,0.627783,1.78814e-05,-4.76837e-05,1.49012e-06,0.000238419,-0.000596046,2.98023e-05,0.00832139,2.78514e-08,5,0.1,1,7.4,-2.46792,3.84398,0.678066,-0.303304,-0.0645697,0.0175655,0.157595,0.0317097,-0.00998378,0.0136458,0.0238738,5,0.1,2,7.4,2.89156,2.91435,0.600005,-0.369477,-0.0512779,0,0.028491,0.0879765,0,0.0156553,0.0611777,5,0.1,3,7.4,-0.990438,-1.72528,0.750001,-0.782868,0.069195,-4.47035e-06,0.372708,-0.0433922,2.98023e-05,0.00741154,0.361343,5,0.1,4,7.4,1.20081,1.3,0.599995,0.0109375,-0.042367,1.19209e-05,-0.0596046,-0.397146,-5.96046e-05,0.0114395,0.19869,5,0.1,5,7.4,-1.7987,2.29422,0.600001,-0.00422001,-0.28674,7.45058e-06,0.00435114,-0.204206,0,0.00645677,0.196519,5,0.1,6,7.4,-0.290824,1.21115,0.599993,-0.0343852,-0.0610173,2.68221e-05,0.0549555,0.272453,-5.96046e-05,0.0137759,0.256302,5,0.1,7,7.4,-1.90853,1.61957,0.599998,-0.505301,-0.134003,1.49012e-06,-0.985265,-0.0926256,0,0.00765592,1.14699,5,0.1,8,7.4,-1.28466,-3.90662,0.587168,5.66244e-05,0.000113249,0,0,0.000119209,-2.98023e-05,0.00837313,8.17363e-09,5,0.1,9,7.4,-0.504737,-3.87361,0.520046,-0.00409633,-0.0486314,-0.00142753,0.0138581,0.167847,0.00479817,0.00650129,0.000544932,5,0.1
0,7.5,3.84155,0.700937,0.627783,3.65078e-05,-9.77889e-05,3.91155e-06,0.000149012,-0.000402331,1.49012e-05,0.00832139,2.78514e-08,5,0.1,1,7.5,-2.49748,3.83768,0.679775,-0.288,-0.0614118,0.0166036,0.157788,0.0333041,-0.00978261,0.0136458,0.0238738,5,0.1,2,7.5,2.85479,2.90969,0.600005,-0.365277,-0.0416495,-9.31323e-08,0.0673383,0.101954,-3.72529e-06,0.0156553,0.0611777,5,0.1,3,7.5,-1.06698,-1.71856,0.75,-0.748515,0.0650551,-1.95578e-06,0.341877,-0.0413656,1.86265e-05,0.00741154,0.361343,5,0.1,4,7.5,1.20163,1.29343,0.599996,0.00573248,-0.0915909,6.89179e-06,-0.0447184,-0.551321,-3.72529e-05,0.0114395,0.19869,5,0.1,5,7.5,-1.79909,2.26431,0.600002,-0.00363495,-0.312902,6.98492e-06,0.0070408,-0.287294,-1.11759e-05,0.00645677,0.196519,5,0.1,6,7.5,-0.293982,1.20642,0.599996,-0.028751,-0.03422,2.09548e-05,0.0570863,0.236697,-5.58794e-05,0.0137759,0.256302,5,0.1,7,7.5,-1.96398,1.60569,0.599998,-0.602274,-0.143528,1.49012e-06,-0.904568,-0.0886396,0,0.00765592,1.14699,5,0.1,8,7.5,-1.28466,-3.90661,0.587168,5.34579e-05,0.000118464,-1.76951e-06,-5.21541e-05,0,-1.11759e-05,0.00837313,8.17363e-09,5,0.1,9,7.5,-0.505081,-3.87768,0.519926,-0.00281753,-0.0331741,-0.000984315,0.0116788,0.140801,0.00405684,0.00650129,0.000544932,5,0.1
0,7.6,3.84155,0.700925,0.627784,4.76837e-05,-0.00012815,4.47035e-06,0,-0.000178814,0,0.00949729,9.28409e-09,5,0.1,1,7.6,-2.52543,3.83172,0.681383,-0.270218,-0.0576079,0.015521,0.203967,0.0439882,-0.0122488,0.0120464,0.0145048,5,0.1,2,7.6,2.81874,2.90604,0.600005,-0.354069,-0.031358,-1.49012e-06,0.16427,0.101924,2.98023e-05,0.0122002,0.157833,5,0.1,3,7.6,-1.13999,-1.71228,0.75,-0.709862,0.0605941,0,0.449896,-0.0492334,0,0.00639285,0.583124,5,0.1,4,7.6,1.20201,1.2815,0.599996,0.00194609,-0.146344,4.47035e-06,-0.0312328,-0.516891,-5.96046e-05,0.00916256,0.13481,5,0.1,5,7.6,-1.79942,2.23166,0.600002,-0.002864,-0.338739,5.96046e-06,0.00810623,-0.20659,0,0.00912711,0.120197,5,0.1,6,7.6,-0.296573,1.20396,0.599998,-0.0230841,-0.0174701,1.63913e-05,0.0557005,0.0872612,-5.96046e-05,0.0131904,0.219709,5,0.1,7,7.6,-2.02827,1.59096,0.599998,-0.67783,-0.150174,1.49012e-06,-0.572562,-0.0377893,0,0.00736212,0.829388,5,0.1,8,7.6,-1.28465,-3.9066,0.587167,4.76837e-05,0.000113249,-1.49012e-06,-0.000119209,-0.000119209,-2.98023e-05,0.00895038,4.69208e-09,5,0.1,9,7.6,-0.505308,-3.88034,0.519846,-0.00176728,-0.0205398,-0.000619888,0.00929832,0.11158,0.00324845,0.0067335,0.000328452,5,0.1
0,7.7,3.84156,0.700912,0.627784,4.58211e-05,-0.000139885,4.37722e-06,-4.47035e-05,-5.96046e-05,-3.72529e-06,0.00949729,9.28409e-09,5,0.1,1,7.7,-2.55146,3.82617,0.682875,-0.250357,-0.0532851,0.0143352,0.200495,0.0438988,-0.0118874,0.0120464,0.0145048,5,0.1,2,7.7,2.78411,2.9034,0.600005,-0.338682,-0.0216328,3.72529e-07,0.156164,0.0911653,1.49012e-05,0.0122002,0.157833,5,0.1,3,7.7,-1.20917,-1.70645,0.75,-0.677031,0.055979,0,0.2492,-0.0447258,0,0.00639285,0.583124,5,0.1,4,7.7,1.20206,1.26426,0.599997,-0.000659749,-0.198145,-1.86265e-07,-0.0211149,-0.495799,-3.72529e-05,0.00916256,0.13481,5,0.1,5,7.7,-1.79966,2.19675,0.600003,-0.00206102,-0.358972,5.4948e-06,0.00780076,-0.177845,-1.11759e-05,0.00912711,0.120197,5,0.1,6,7.7,-0.298608,1.20244,0.599999,-0.0176889,-0.0158692,1.09896e-05,0.0517517,-0.0882074,-4.47035e-05,0.0131904,0.219709,5,0.1,7,7.7,-2.09882,1.57575,0.599998,-0.731457,-0.153852,1.49012e-06,-0.460967,-0.0284389,0,0.00736212,0.829388,5,0.1,8,7.7,-1.28465,-3.90659,0.587167,3.57628e-05,9.90927e-05,-3.25963e-06,-0.000119209,-0.000178814,-1.11759e-05,0.00895038,4.69208e-09,5,0.1,9,7.7,-0.505442,-3.88188,0.519799,-0.000937004,-0.0106025,-0.000329688,0.00729784,0.0870675,0.0025481,0.0067335,0.000328452,5,0.1
0,7.8,3.84156,0.700898,0.627784,4.17233e-05,-0.000140071,2.98023e-06,0,5.96046e-05,2.98023e-05,0.00890762,3.90746e-09,5,0.1,1,7.8,-2.57545,3.82107,0.684247,-0.228959,-0.0485957,0.0130773,0.2321,0.0505447,-0.0135303,0.0123231,0.00463483,5,0.1,2,7.8,2.75109,2.90167,0.600005,-0.320733,-0.0133514,1.49012e-06,0.211358,0.0734329,-2.98023e-05,0.011317,0.256698,5,0.1,3,7.8,-1.27567,-1.70108,0.75,-0.65268,0.0513673,0,0.268698,-0.0485182,0,0.00657205,0.860636,5,0.1,4,7.8,1.20191,1.24216,0.599997,-0.0023216,-0.241548,-2.98023e-06,-0.0123382,-0.356019,-2.98023e-05,0.00833069,0.112506,5,0.1,5,7.8,-1.79983,2.16015,0.600003,-0.00132918,-0.37092,4.47035e-06,0.00679493,-0.0472069,0,0.0113514,0.183162,5,0.1,6,7.8,-0.300128,1.2,0.6,-0.0128105,-0.0368506,5.96046e-06,0.0454932,-0.315845,0,0.0132657,0.156936,5,0.1,7,7.8,-2.17383,1.56029,0.599999,-0.763524,-0.154632,1.49012e-06,-0.154138,0.0177622,0,0.00695887,0.573373,5,0.1,8,7.8,-1.28464,-3.90658,0.587167,2.38419e-05,8.34465e-05,-2.98023e-06,-5.96046e-05,-0.000238419,2.98023e-05,0.00771412,4.64112e-09,5,0.1,9,7.8,-0.505502,-3.88254,0.519778,-0.000309944,-0.00312328,-0.000108778,0.00530481,0.0625849,0.00181794,0.00604796,0.000149107,5,0.1
0,7.9,3.84157,0.700884,0.627785,3.98606e-05,-0.000130758,5.02914e-06,-4.47035e-05,0.000119209,7.45058e-06,0.00890762,3.90746e-09,5,0.1,1,7.9,-2.59718,3.81647,0.685487,-0.205574,-0.0434954,0.0117195,0.238031,0.0519305,-0.0137649,0.0123231,0.00463483,5,0.1,2,7.9,2.72013,2.90067,0.600005,-0.297752,-0.00704937,-1.02445e-06,0.250921,0.0523478,-1.86265e-05,0.011317,0.256698,5,0.1,3,7.9,-1.34016,-1.69617,0.75,-0.641396,0.0468714,0,0.0105128,-0.0427887,0,0.00657205,0.860636,5,0.1,4,7.9,1.20163,1.21619,0.599996,-0.00318866,-0.277606,-4.74975e-06,-0.00531226,-0.341244,-1.11759e-05,0.00833069,0.112506,5,0.1,5,7.9,-1.79993,2.1226,0.600004,-0.000729039,-0.381325,4.00469e-06,0.0051856,-0.130817,-1.11759e-05,0.0113514,0.183162,5,0.1,6,7.9,-0.301192,1.19433,0.600001,-0.00857236,-0.0796042,5.4948e-06,0.0390224,-0.501156,-1.11759e-05,0.0132657,0.156936,5,0.1,7,7.9,-2.25089,1.54491,0.599999,-0.776309,-0.152848,1.49012e-06,-0.0701994,0.0238568,0,0.00695887,0.573373,5,0.1,8,7.9,-1.28464,-3.90657,0.587167,1.71363e-05,5.99772e-05,0,-7.45058e-05,-0.000223517,2.98023e-05,0.00771412,4.64112e-09,5,0.1,9,7.9,-0.505509,-3.88258,0.519775,0.000140537,0.00216961,4.59142e-05,0.00371411,0.0434816,0.00127777,0.00604796,0.000149107,5,0.1
0,8,3.84157,0.700872,0.627785,3.57628e-05,-0.000116229,5.96046e-06,-0.000119209,0.000149012,0,0.00979816,3.50693e-09,5,0.1,1,8,-2.61652,3.81238,0.686589,-0.180995,-0.0381529,0.0103027,0.25475,0.0553131,-0.0146329,0.0100666,0.00138457,5,0.1,2,8,2.69169,2.90019,0.600005,-0.270164,-0.00288486,-2.98023e-06,0.301838,0.0314713,-2.98023e-05,0.0123463,0.249237,5,0.1,3,8,-1.40432,-1.6917,0.75,-0.641292,0.0425726,0,0.0309348,-0.044167,0,0.00775945,1.27975,5,0.1,4,8,1.20129,1.18691,0.599996,-0.00344515,-0.305772,-4.47035e-06,-0.000119209,-0.205755,0,0.00765186,0.0558686,5,0.1,5,8,-1.79998,2.08388,0.600004,-0.000292063,-0.391912,2.98023e-06,0.00357628,-0.0594854,0,0.0118092,0.108483,5,0.1,6,8,-0.301866,1.18382,0.600001,-0.00504628,-0.130448,5.96046e-06,0.0313818,-0.487447,-5.96046e-05,0.0135213,0.0959927,5,0.1,7,8,-2.32853,1.52979,0.599999,-0.772369,-0.148869,1.49012e-06,0.169992,0.0596642,0,0.00633803,0.384935,5,0.1,8,8,-1.28464,-3.90657,0.587167,8.9407e-06,3.57628e-05,1.49012e-06,0,-0.000119209,5.96046e-05,0.00871991,4.7215e-09,5,0.1,9,8,-0.505479,-3.88217,0.519786,0.000438094,0.00562668,0.000149012,0.00223517,0.0259876,0.00077486,0.0069557,5.09637e-05,5,0.1
0,8.1,3.84157,0.700861,0.627786,2.42144e-05,-9.97446e-05,5.4948e-06,-0.000104308,0.000175089,-1.11759e-05,0.00979816,3.50693e-09,5,0.1,1,8.1,-2.63335,3.80884,0.687547,-0.155682,-0.0326656,0.00885176,0.251576,0.054419,-0.0143908,0.0100666,0.00138457,5,0.1,2,8.1,2.66619,2.90004,0.600004,-0.239857,-0.000304356,-5.40167e-06,0.305757,0.0201315,-1.49012e-05,0.0123463,0.249237,5,0.1,3,8.1,-1.46769,-1.68765,0.75,-0.620685,0.0385173,0,0.359856,-0.0381172,0,0.00775945,1.27975,5,0.1,4,8.1,1.20095,1.15541,0.599995,-0.00324883,-0.322596,-4.00469e-06,0.00372529,-0.118747,1.11759e-05,0.00765186,0.0558686,5,0.1,5,8.1,-1.8,2.04437,0.600004,-2.6077e-06,-0.398104,2.51457e-06,0.00225008,-0.0451654,-1.11759e-05,0.0118092,0.108483,5,0.1,6,8.1,-0.302225,1.16831,0.600001,-0.00223243,-0.1792,9.31323e-07,0.0248086,-0.465266,-3.72529e-05,0.0135213,0.0959927,5,0.1,7,8.1,-2.40491,1.51519,0.599999,-0.754738,-0.143137,1.49012e-06,0.208378,0.059858,0,0.00633803,0.384935,5,0.1,8,8.1,-1.28464,-3.90657,0.587167,7.82311e-06,2.38419e-05,6.42613e-06,-2.98023e-05,-0.000119209,3.35276e-05,0.00871991,4.7215e-09,5,0.1,9,8.1,-0.505426,-3.8815,0.519804,0.000606943,0.00756495,0.000207778,0.00117347,0.0131577,0.000413507,0.0069557,5.09637e-05,5,0.1
0,8.2,3.84158,0.700852,0.627786,1.19209e-05,-8.04663e-05,4.47035e-06,0,0.000149012,-2.98023e-05,0.0129935,2.94752e-09,5,0.1,1,8.2,-2.64767,3.80584,0.68836,-0.130707,-0.027287,0.00742674,0.247598,0.0532866,-0.0141561,0.0108877,0.000734746,5,0.1,2,8.2,2.64375,2.90009,0.600004,-0.208813,0.00115037,-7.45058e-06,0.315666,0.00929832,2.98023e-05,0.0113428,0.243455,5,0.1,3,8.2,-1.52756,-1.68399,0.75,-0.573128,0.0347495,0,0.57441,-0.038147,0,0.00698705,1.16538,5,0.1,4,8.2,1.20065,1.12278,0.599995,-0.00275671,-0.327596,-1.49012e-06,0.00584126,0.0261068,-2.98023e-05,0.00756518,0.0833175,5,0.1,5,8.2,-1.79999,2.00448,0.600005,0.000169873,-0.397724,2.98023e-06,0.00119209,0.0658035,-5.96046e-05,0.0103124,0.544357,5,0.1,6,8.2,-0.302335,1.14825,0.600001,-9.61125e-05,-0.219727,-1.49012e-06,0.0179261,-0.329971,-2.98023e-05,0.0143477,0.127697,5,0.1,7,8.2,-2.47911,1.50121,0.599999,-0.726432,-0.136083,1.49012e-06,0.374913,0.0845194,0,0.00881233,0.446488,5,0.1,8,8.2,-1.28464,-3.90656,0.587168,5.96046e-06,1.19209e-05,8.9407e-06,-5.96046e-05,-0.000119209,2.98023e-05,0.00608314,3.77193e-09,5,0.1,9,8.2,-0.505361,-3.8807,0.519826,0.000678003,0.00833273,0.000233948,0.000268221,0.0026226,8.9407e-05,0.0064992,1.53194e-05,5,0.1
0,8.3,3.84158,0.700845,0.627787,1.04308e-05,-6.45407e-05,1.58325e-06,-2.98023e-05,0.000160187,-2.6077e-05,0.0129935,2.94752e-09,5,0.1,1,8.3,-2.65953,3.80338,0.689034,-0.106676,-0.0221297,0.00605518,0.232205,0.0496805,-0.013236,0.0108877,0.000734746,5,0.1,2,8.3,2.62441,2.90031,0.600003,-0.178242,0.00370704,-4.93601e-06,0.296608,0.0325888,1.86265e-05,0.0113428,0.243455,5,0.1,3,8.3,-1.58147,-1.68069,0.75,-0.501385,0.0312733,0,0.798434,-0.0323579,0,0.00698705,1.16538,5,0.1,4,8.3,1.2004,1.09006,0.599995,-0.00212975,-0.327491,-3.35276e-06,0.00651181,-0.00526011,-1.49012e-05,0.00756518,0.0833175,5,0.1,5,8.3,-1.79981,1.96458,0.600005,0.0047015,-0.403812,-2.04891e-06,0.0795797,-0.14475,-3.72529e-05,0.0103124,0.544357,5,0.1,6,8.3,-0.302265,1.12457,0.600001,0.00140658,-0.254105,-3.91155e-06,0.0121966,-0.334382,-1.49012e-05,0.0143477,0.127697,5,0.1,7,8.3,-2.5501,1.48785,0.599999,-0.694657,-0.132546,1.49012e-06,0.291884,0.000178814,0,0.00881233,0.446488,5,0.1,8,8.3,-1.28464,-3.90656,0.587169,1.86265e-07,3.72529e-07,1.09896e-05,-5.21541e-05,-0.000104308,7.45058e-06,0.00608314,3.77193e-09,5,0.1,9,8.3,-0.505293,-3.87986,0.519849,0.000673719,0.00821799,0.000232551,-0.000327826,-0.00450015,-0.000108033,0.0064992,1.53194e-05,5,0.1
0,8.4,3.84158,0.700839,0.627787,5.96046e-06,-4.76837e-05,0,0,0.000119209,-2.98023e-05,0.0107891,2.59692e-09,5,0.1,1,8.4,-2.66906,3.8014,0.689575,-0.0844121,-0.0173807,0.00478923,0.212431,0.0451803,-0.0120997,0.0110525,0.000658175,5,0.1,2,8.4,2.60804,2.90082,0.600003,-0.149351,0.00619292,-2.98023e-06,0.281453,0.0116825,0,0.0108675,1.22115,5,0.1,3,8.4,-1.62763,-1.67772,0.75,-0.423074,0.0281036,0,0.733554,-0.0315905,0,0.00784683,2.64714,5,0.1,4,8.4,1.20022,1.05735,0.599994,-0.00148714,-0.325465,-2.98023e-06,0.00619888,0.0590682,-2.98023e-05,0.00754084,0.153789,5,0.1,5,8.4,-1.79888,1.92342,0.600004,0.0143349,-0.41922,-4.47035e-06,0.105441,-0.131786,-2.98023e-05,0.00947915,0.418788,5,0.1,6,8.4,-0.302072,1.09763,0.600001,0.00235885,-0.282654,-4.47035e-06,0.00697374,-0.220418,-2.98023e-05,0.0128513,0.201352,5,0.1,7,8.4,-2.61803,1.47455,0.6,-0.662732,-0.13361,1.49012e-06,0.368476,-0.0110269,0,0.00756637,0.550527,5,0.1,8,8.4,-1.28464,-3.90656,0.58717,-5.96046e-06,-5.96046e-06,1.19209e-05,0,-0.000119209,-2.98023e-05,0.00811955,2.60954e-09,5,0.1,9,8.4,-0.505228,-3.87907,0.519872,0.000619888,0.00750422,0.000213087,-0.000745058,-0.00929832,-0.000208616,0.00614577,8.42061e-06,5,0.1
0,8.5,3.84158,0.700835,0.627787,5.58794e-06,-3.52971e-05,-2.51457e-06,-1.49012e-05,0.000130385,-1.86265e-05,0.0107891,2.59692e-09,5,0.1,1,8.5,-2.67648,3.79988,0.689995,-0.0643086,-0.0131182,0.00364576,0.188842,0.0398755,-0.0107288,0.0110525,0.000658175,5,0.1,2,8.5,2.59337,2.9015,0.600002,-0.15369,0.00696182,-2.98023e-06,-0.298798,-0.00908971,0,0.0108675,1.22115,5,0.1,3,8.5,-1.66658,-1.67506,0.75,-0.358739,0.0252409,0,0.556618,-0.0264868,0,0.00784683,2.64714,5,0.1,4,8.5,1.2001,1.02482,0.599994,-0.000918284,-0.327403,-4.74975e-06,0.005126,-0.068292,-1.11759e-05,0.00754084,0.153789,5,0.1,5,8.5,-1.79686,1.88064,0.600004,0.0264134,-0.437503,-6.89179e-06,0.128716,-0.200577,-1.49012e-05,0.00947915,0.418788,5,0.1,6,8.5,-0.301808,1.06805,0.6,0.00287499,-0.31046,-6.51926e-06,0.00342727,-0.303566,-7.45058e-06,0.0128513,0.201352,5,0.1,7,8.5,-2.68278,1.46089,0.6,-0.634519,-0.141336,1.49012e-06,0.231072,-0.122793,0,0.00756637,0.550527,5,0.1,8,8.5,-1.28464,-3.90656,0.587171,-6.14673e-06,-1.60187e-05,9.03383e-06,-7.45058e-06,-7.45058e-05,-2.6077e-05,0.00811955,2.60954e-09,5,0.1,9,8.5,-0.50517,-3.87837,0.519892,0.000532251,0.00641644,0.000186823,-0.000979751,-0.0120997,-0.000305474,0.00614577,8.42061e-06,5,0.1
0,8.6,3.84158,0.700832,0.627786,5.96046e-06,-2.38419e-05,-2.98023e-06,-0.000119209,0.000149012,-2.98023e-05,0.0110237,3.56278e-09,5,0.1,1,8.6,-2.68201,3.79876,0.690309,-0.0467837,-0.00942349,0.00265092,0.16129,0.033617,-0.00914931,0.0137042,0.00052121,5,0.1,2,8.6,2.57602,2.90204,0.600002,-0.196773,0.00267029,-2.98023e-06,-0.508904,-0.0813007,2.98023e-05,0.0112141,1.01686,5,0.1,3,8.6,-1.69993,-1.67266,0.75,-0.310826,0.0226647,0,0.407398,-0.0256896,0,0.00817708,2.50854,5,0.1,4,8.6,1.20004,0.991723,0.599993,-0.000470877,-0.334014,-4.47035e-06,0.0038743,-0.0423193,0,0.0088279,0.0935723,5,0.1,5,8.6,-1.79359,1.836,0.600003,0.0387907,-0.45363,-7.45058e-06,0.113308,-0.0983477,-2.98023e-05,0.00769202,0.30978,5,0.1,6,8.6,-0.301508,1.03556,0.599999,0.0030607,-0.337836,-7.45058e-06,0.000372529,-0.220776,0,0.0127814,0.123421,5,0.1,7,8.6,-2.74507,1.4461,0.6,-0.610453,-0.154546,1.49012e-06,0.275493,-0.125885,0,0.00886392,0.404837,5,0.1,8,8.6,-1.28464,-3.90657,0.587172,-8.9407e-06,-1.78814e-05,5.96046e-06,5.96046e-05,-0.000119209,0,0.00713994,4.18476e-09,5,0.1,9,8.6,-0.505122,-3.8778,0.519909,0.000429153,0.00514388,0.000153482,-0.00107288,-0.0129938,-0.000357628,0.00636559,8.04124e-06,5,0.1
0,8.7,3.84158,0.70083,0.627786,-4.09782e-06,-1.00583e-05,-5.40167e-06,-7.45058e-05,0.000119209,-1.49012e-05,0.0110237,3.56278e-09,5,0.1,1,8.7,-2.68593,3.79798,0.690531,-0.0319324,-0.0063356,0.00180956,0.135273,0.0280291,-0.0076592,0.0137042,0.00052121,5,0.1,2,8.7,2.55334,2.90183,0.600002,-0.260199,-0.00822134,-4.65661e-07,-0.707075,-0.158831,1.86265e-05,0.0112141,1.01686,5,0.1,3,8.7,-1.72884,-1.67052,0.75,-0.267453,0.0203483,0,0.410736,-0.0213236,0,0.00817708,2.50854,5,0.1,4,8.7,1.20001,0.958042,0.599993,-0.000150502,-0.339805,-4.00469e-06,0.0025779,-0.0543781,1.11759e-05,0.0088279,0.0935723,5,0.1,5,8.7,-1.78913,1.79006,0.600002,0.050283,-0.465222,-9.49949e-06,0.110887,-0.107273,-7.45058e-06,0.00769202,0.30978,5,0.1,6,8.7,-0.301204,1.00067,0.599999,0.00299234,-0.359412,-6.98492e-06,-0.00164658,-0.190258,1.11759e-05,0.0127814,0.123421,5,0.1,7,8.7,-2.80493,1.42992,0.6,-0.588015,-0.169552,1.49012e-06,0.201508,-0.158295,0,0.00886392,0.404837,5,0.1,8,8.7,-1.28464,-3.90657,0.587173,-4.84288e-06,-2.75671e-05,5.58794e-06,1.49012e-05,-5.96046e-05,-7.45058e-06,0.00713994,4.18476e-09,5,0.1,9,8.7,-0.505085,-3.87735,0.519923,0.000320841,0.00382811,0.000116788,-0.00107661,-0.0130534,-0.000365078,0.00636559,8.04124e-06,5,0.1
0,8.8,3.84158,0.70083,0.627785,-1.19209e-05,1.49012e-06,-5.96046e-06,0,5.96046e-05,0,0.00962008,2.58439e-09,5,0.1,1,8.8,-2.68849,3.79748,0.690676,-0.0198007,-0.00382662,0.00112355,0.107408,0.0220537,-0.00607967,0.0146935,0.000314591,5,0.1,2,8.8,2.52381,2.9,0.600002,-0.329036,-0.0304282,0,-0.631094,-0.276089,2.98023e-05,0.0176054,0.816653,5,0.1,3,8.8,-1.75383,-1.66859,0.75,-0.23565,0.0182807,0,0.204861,-0.020504,0,0.0366941,2.29696,5,0.1,4,8.8,1.2,0.923897,0.599993,5.36442e-05,-0.341655,-1.49012e-06,0.00154972,0.0306666,0,0.0335482,0.0729887,5,0.1,5,8.8,-1.78359,1.74316,0.600001,0.060007,-0.470644,-1.04308e-05,0.0796318,0.0169277,0,0.0174072,0.220339,5,0.1,6,8.8,-0.300916,0.963968,0.599998,0.00274926,-0.372453,-5.96046e-06,-0.00312924,-0.056684,0,0.0208172,0.0675283,5,0.1,7,8.8,-2.86266,1.41223,0.6,-0.565338,-0.183466,1.49012e-06,0.271916,-0.10848,-2.98023e-05,0.00574524,0.536261,5,0.1,8,8.8,-1.28464,-3.90657,0.587173,-2.98023e-06,-2.98023e-05,4.47035e-06,5.96046e-05,0,0,0.00668554,3.39602e-09,5,0.1,9,8.8,-0.505058,-3.87703,0.519933,0.000217557,0.00258088,8.19564e-05,-0.000953674,-0.0118017,-0.000357628,0.00728878,6.60274e-06,5,0.1
0,8.9,3.84158,0.70083,0.627785,-1.19209e-05,6.98492e-06,-5.58794e-06,0,4.84288e-05,7.45058e-06,0.00962008,2.58439e-09,5,0.1,1,8.9,-2.68997,3.79719,0.69076,-0.010239,-0.00186972,0.000582729,0.0837296,0.0170916,-0.00473484,0.0146935,0.000314591,5,0.1,2,8.9,2.48763,2.8953,0.600002,-0.394847,-0.065624,2.42144e-06,-0.644907,-0.400782,1.49012e-05,0.0176054,0.816653,5,0.1,3,8.9,-1.77658,-1.66685,0.75,-0.223872,0.0164382,0,-0.0524372,-0.0169128,0,0.0366941,2.29696,5,0.1,4,8.9,1.20001,0.889787,0.599992,0.000167266,-0.341021,-1.02445e-06,0.000759959,0.00186265,1.11759e-05,0.0335482,0.0729887,5,0.1,5,8.9,-1.7772,1.69614,0.6,0.06765,-0.469704,-9.96515e-06,0.0688508,0.0228733,1.11759e-05,0.0174072,0.220339,5,0.1,6,8.9,-0.300659,0.926505,0.599997,0.0023704,-0.375802,-5.4948e-06,-0.00431761,0.00224635,1.11759e-05,0.0208172,0.0675283,5,0.1,7,8.9,-2.91812,1.39349,0.6,-0.546073,-0.1899,-1.02445e-06,0.146091,-0.0187755,-1.86265e-05,0.00574524,0.536261,5,0.1,8,8.9,-1.28464,-3.90657,0.587174,7.45058e-07,-2.83122e-05,4.09782e-06,2.98023e-05,2.98023e-05,-7.45058e-06,0.00668554,3.39602e-09,5,0.1,9,8.9,-0.505041,-3.87683,0.519939,0.000126753,0.0014618,4.81494e-05,-0.000845641,-0.0104308,-0.00031665,0.00728878,6.60274e-06,5,0.1
0,9,3.84158,0.700831,0.627784,-1.19209e-05,1.04308e-05,-4.47035e-06,0.000119209,5.96046e-05,0,0.0108047,3.03432e-09,5,0.1,1,9,-2.69062,3.79708,0.690797,-0.0030458,-0.000411272,0.000177324,0.0602007,0.0121593,-0.00342727,0.00947163,0.000142448,5,0.1,2,9,2.44517,2.88671,0.600002,-0.451154,-0.105852,2.98023e-06,-0.452638,-0.383496,2.98023e-05,0.0121851,0.619246,5,0.1,3,9,-1.8,-1.66529,0.75,-0.251904,0.0147998,0,-0.482738,-0.0162721,0,0.00849414,1.96483,5,0.1,4,9,1.20003,0.855779,0.599992,0.000211596,-0.337932,1.49012e-06,0.000238419,0.0736415,0,0.00846072,0.10535,5,0.1,5,9,-1.77014,1.64943,0.599999,0.0730395,-0.462544,-8.9407e-06,0.0359416,0.134647,0,0.0063631,0.430911,5,0.1,6,9,-0.300444,0.889117,0.599997,0.00190958,-0.369956,-4.47035e-06,-0.00478327,0.122666,0,0.0152191,0.0451739,5,0.1,7,9,-2.97199,1.37456,0.6,-0.530493,-0.187072,-1.49012e-06,0.189066,0.0754595,-2.98023e-05,0.00623212,0.431728,5,0.1,8,9,-1.28464,-3.90658,0.587174,0,-2.38419e-05,2.98023e-06,5.96046e-05,0,0,0.00653389,3.45422e-09,5,0.1,9,9,-0.505032,-3.87673,0.519942,5.06639e-05,0.00051856,1.93715e-05,-0.000685453,-0.00834465,-0.000238419,0.007163,4.03894e-06,5,0.1
0,9.1,3.84158,0.700832,0.627784,-2.23517e-06,1.51806e-05,-4.09782e-06,5.96046e-05,4.09782e-05,7.45058e-06,0.0108047,3.03432e-09,5,0.1,1,9.1,-2.69065,3.7971,0.690799,0.00204407,0.00060983,-0.000112131,0.0417978,0.00829995,-0.00236928,0.00947163,0.000142448,5,0.1,2,9.1,2.3978,2.87414,0.600003,-0.495392,-0.145859,5.02914e-06,-0.400767,-0.396147,7.45058e-06,0.0121851,0.619246,5,0.1,3,9.1,-1.8286,-1.66389,0.75,-0.327924,0.0133414,0,-0.949822,-0.0133663,0,0.00849414,1.96483,5,0.1,4,9.1,1.20006,0.822175,0.599993,0.000216812,-0.33536,1.86265e-06,-0.000104308,0.000532717,7.45058e-06,0.00846072,0.10535,5,0.1,5,9.1,-1.76266,1.6035,0.599998,0.0762951,-0.458819,-8.47504e-06,0.0256747,-0.0233203,1.11759e-05,0.0063631,0.430911,5,0.1,6,9.1,-0.300277,0.852707,0.599996,0.00143549,-0.358162,-4.00469e-06,-0.00462867,0.126682,1.11759e-05,0.0152191,0.0451739,5,0.1,7,9.1,-3.02426,1.35648,0.6,-0.515987,-0.172338,-3.91155e-06,0.127152,0.208184,-1.49012e-05,0.00623212,0.431728,5,0.1,8,9.1,-1.28464,-3.90658,0.587174,3.53903e-06,-2.19792e-05,2.6077e-06,2.23517e-05,4.47035e-05,-7.45058e-06,0.00653389,3.45422e-09,5,0.1,9,9.1,-0.50503,-3.87672,0.519943,-1.09896e-05,-0.00022985,-2.14204e-06,-0.000543892,-0.00657141,-0.00018999,0.007163,4.03894e-06,5,0.1
0,9.2,3.84158,0.700834,0.627783,5.96046e-06,1.78814e-05,-2.98023e-06,-0.000119209,0,0,0.0109589,2.32063e-09,5,0.1,1,9.2,-2.69027,3.79719,0.690778,0.00536442,0.00126362,-0.000299513,0.025034,0.00488758,-0.00143051,0.00812882,4.87728e-05,5,0.1,2,9.2,2.34655,2.85769,0.600003,-0.526035,-0.181562,5.96046e-06,-0.190616,-0.303507,0,0.0139407,0.446341,5,0.1,3,9.2,-1.86632,-1.66262,0.75,-0.426468,0.0120431,0,-0.954926,-0.0129342,0,0.00881001,1.57035,5,0.1,4,9.2,1.20008,0.788674,0.599993,0.000193715,-0.333917,2.98023e-06,-0.000357628,0.0445843,0,0.00869812,0.180694,5,0.1,5,9.2,-1.75494,1.55748,0.599997,0.0775963,-0.460836,-8.9407e-06,-0.00202656,0.00995398,5.96046e-05,0.0063377,0.334134,5,0.1,6,9.2,-0.300156,0.81762,0.599996,0.000996143,-0.342382,-2.98023e-06,-0.00411272,0.197768,2.98023e-05,0.0157096,0.0800278,5,0.1,7,9.2,-3.07515,1.34043,0.599999,-0.500619,-0.147453,-4.47035e-06,0.198483,0.28038,-2.98023e-05,0.00655986,0.350007,5,0.1,8,9.2,-1.28464,-3.90658,0.587175,5.96046e-06,-2.38419e-05,1.49012e-06,-5.96046e-05,0.000238419,0,0.00648658,4.49693e-09,5,0.1,9,9.2,-0.505034,-3.87677,0.519942,-5.81145e-05,-0.000780821,-1.78814e-05,-0.000327826,-0.00452995,-0.000149012,0.00746005,1.8323e-06,5,0.1
0,9.3,3.84158,0.700836,0.627783,-4.09782e-06,1.74157e-05,-2.6077e-06,-7.45058e-05,-1.11759e-05,7.45058e-06,0.0109589,2.32063e-09,5,0.1,1,9.3,-2.68963,3.79734,0.690742,0.00723153,0.00161976,-0.00040587,0.012666,0.00232458,-0.000715256,0.00812882,4.87728e-05,5,0.1,2,9.3,2.29302,2.83802,0.600004,-0.543568,-0.211186,5.4948e-06,-0.135094,-0.273138,-1.11759e-05,0.0139407,0.446341,5,0.1,3,9.3,-1.91407,-1.66147,0.75,-0.530129,0.0108857,0,-1.05137,-0.0106096,0,0.00881001,1.57035,5,0.1,4,9.3,1.20009,0.755187,0.599993,0.000151619,-0.338157,3.07336e-06,-0.000461936,-0.0971146,3.72529e-06,0.00869812,0.180694,5,0.1,5,9.3,-1.7472,1.51161,0.599997,0.0772245,-0.454911,-3.63216e-06,-0.00824034,0.116386,4.09782e-05,0.0063377,0.334134,5,0.1,6,9.3,-0.300076,0.784172,0.599996,0.000624359,-0.328043,-3.72529e-07,-0.00331178,0.10936,2.23517e-05,0.0157096,0.0800278,5,0.1,7,9.3,-3.12433,1.32719,0.599999,-0.483596,-0.116552,-6.51926e-06,0.163004,0.324503,-7.45058e-06,0.00655986,0.350007,5,0.1,8,9.3,-1.28464,-3.90658,0.587175,1.86265e-07,-3.72529e-06,1.39698e-06,-5.21541e-05,0.000149012,-3.72529e-06,0.00648658,4.49693e-09,5,0.1,9,9.3,-0.505041,-3.87687,0.51994,-8.57748e-05,-0.00115372,-3.01749e-05,-0.000219792,-0.00293553,-9.68575e-05,0.00746005,1.8323e-06,5,0.1
0,9.4,3.84158,0.700838,0.627783,-5.96046e-06,1.63913e-05,-1.49012e-06,-0.000119209,-2.98023e-05,0,0.013202,3.08992e-09,5,0.1,1,9.4,-2.68886,3.79751,0.690699,0.00796914,0.00174642,-0.000447035,0.0026226,0.000119209,-0.000149012,0.00866319,1.48377e-05,5,0.1,2,9.4,2.23825,2.8157,0.600004,-0.548893,-0.233519,5.96046e-06,0.0452995,-0.162959,-5.96046e-05,0.0132713,0.634247,5,0.1,3,9.4,-1.97205,-1.66044,0.75,-0.62525,0.00985265,0,-0.802875,-0.010252,0,0.00878413,0.351102,5,0.1,4,9.4,1.20011,0.72087,0.599993,0.000104308,-0.34775,2.98023e-06,-0.000476837,-0.0711083,2.98023e-05,0.00784255,0.110803,5,0.1,5,9.4,-1.73955,1.46693,0.599997,0.0754774,-0.436357,0,-0.0285506,0.258744,2.98023e-05,0.00631637,0.709802,5,0.1,6,9.4,-0.300028,0.751905,0.599996,0.000335276,-0.317006,1.49012e-06,-0.00247359,0.126094,0,0.0148284,0.155229,5,0.1,7,9.4,-3.1718,1.31715,0.599998,-0.464463,-0.0847697,-7.45058e-06,0.234365,0.302196,0,0.00636791,0.674128,5,0.1,8,9.4,-1.28464,-3.90658,0.587175,-5.96046e-06,5.96046e-06,1.49012e-06,0,0.000119209,-2.98023e-05,0.00705662,3.12784e-09,5,0.1,9,9.4,-0.50505,-3.87699,0.519936,-0.000102818,-0.00136495,-3.72529e-05,-8.9407e-05,-0.0013113,-2.98023e-05,0.00702874,5.94254e-07,5,0.1
0,9.5,3.84157,0.700839,0.627783,-1.56462e-05,1.35042e-05,-1.39698e-06,-5.96046e-05,-2.6077e-05,3.72529e-06,0.013202,3.08992e-09,5,0.1,1,9.5,-2.68806,3.79768,0.690654,0.00786707,0.00168681,-0.000441168,-0.00429153,-0.0012219,0.000249594,0.00866319,1.48377e-05,5,0.1,2,9.5,2.18328,2.79156,0.600005,-0.552602,-0.248637,9.31323e-07,-0.0794679,-0.126883,-3.72529e-05,0.0132713,0.634247,5,0.1,3,9.5,-2.038,-1.6595,0.75,-0.687545,0.00893474,0,-0.430755,-0.00843406,0,0.00878413,0.351102,5,0.1,4,9.5,1.20011,0.685665,0.599994,5.68107e-05,-0.35654,5.4948e-06,-0.000469387,-0.0837781,1.86265e-05,0.00784255,0.110803,5,0.1,5,9.5,-1.73214,1.4251,0.599997,0.0726575,-0.39568,2.51457e-06,-0.0301972,0.523917,1.86265e-05,0.00631637,0.709802,5,0.1,6,9.5,-0.300006,0.72049,0.599996,0.000128942,-0.313976,1.58325e-06,-0.00167824,-0.0346191,3.72529e-06,0.0148284,0.155229,5,0.1,7,9.5,-3.21737,1.3102,0.599967,-0.44935,-0.0546556,-0.000872277,0.098452,0.275299,-0.0153705,0.00636791,0.674128,5,0.1,8,9.5,-1.28464,-3.90658,0.587175,-6.14673e-06,1.56462e-05,-1.02445e-06,-7.45058e-06,5.96046e-05,-1.86265e-05,0.00705662,3.12784e-09,5,0.1,9,9.5,-0.505061,-3.87714,0.519932,-0.00010822,-0.00143871,-3.89293e-05,-2.23517e-05,-0.000208616,-7.45058e-06,0.00702874,5.94254e-07,5,0.1
0,9.6,3.84157,0.70084,0.627783,-1.78814e-05,1.04308e-05,-1.49012e-06,0,0,2.98023e-05,0.0106017,1.70701e-10,5,0.1,1,9.6,-2.6873,3.79784,0.690612,0.00718832,0.00151396,-0.000402331,-0.0089407,-0.00202656,0.000506639,0.00795714,8.24074e-06,5,0.1,2,9.6,2.12768,2.7662,0.600005,-0.557899,-0.256819,-2.98023e-06,0.00226498,-0.0283718,0,0.00912656,0.464434,5,0.1,3,9.6,-2.10822,-1.65865,0.75,-0.709671,0.00811219,0,-0.00679493,-0.00828505,0,0.00860987,0.915343,5,0.1,4,9.6,1.20012,0.649711,0.599994,1.19209e-05,-0.360964,5.96046e-06,-0.000357628,0.00983477,2.98023e-05,0.00971028,0.0617409,5,0.1,5,9.6,-1.72504,1.38839,0.599997,0.069046,-0.336948,2.98023e-06,-0.0434518,0.627756,2.98023e-05,0.00739587,1.237,5,0.1,6,9.6,-0.3,0.688862,0.599996,-5.96046e-06,-0.318563,1.49012e-06,-0.00101328,-0.0343025,0,0.0155551,0.0958539,5,0.1,7,9.6,-3.26184,1.30592,0.59979,-0.439501,-0.0332892,-0.00273883,0.120997,0.141084,-0.0205338,0.009058,0.571097,5,0.1,8,9.6,-1.28464,-3.90658,0.587175,-5.96046e-06,1.78814e-05,-2.98023e-06,-5.96046e-05,0,0,0.00623883,2.77414e-09,5,0.1,9,9.6,-0.505072,-3.87728,0.519929,-0.000105798,-0.00141263,-3.8743e-05,2.98023e-05,0.000834465,5.96046e-05,0.00731658,1.56261e-07,5,0.1
0,9.7,3.84157,0.700841,0.627783,-1.63913e-05,9.96515e-06,1.02445e-06,2.98023e-05,-1.11759e-05,1.86265e-05,0.0106017,1.70701e-10,5,0.1,1,9.7,-2.68663,3.79798,0.690575,0.00614114,0.0012815,-0.000342727,-0.0116676,-0.002563,0.000663102,0.00795714,8.24074e-06,5,0.1,2,9.7,2.07176,2.7404,0.600004,-0.561324,-0.258903,-2.98023e-06,-0.0391901,-0.00323355,0,0.00912656,0.464434,5,0.1,3,9.7,-2.17957,-1.65787,0.75,-0.719581,0.00737067,0,-0.140712,-0.00681728,0,0.00860987,0.915343,5,0.1,4,9.7,1.20012,0.613683,0.599995,-2.2538e-05,-0.359085,8.3819e-06,-0.000320375,0.0408404,1.49012e-05,0.00971028,0.0617409,5,0.1,5,9.7,-1.71835,1.35809,0.599998,0.0649011,-0.26786,5.40167e-06,-0.0414029,0.697359,1.49012e-05,0.00739587,1.237,5,0.1,6,9.7,-0.300005,0.656736,0.599997,-8.32602e-05,-0.324425,1.49012e-06,-0.000551343,-0.0627898,0,0.0155551,0.0958539,5,0.1,7,9.7,-3.30535,1.30309,0.599403,-0.431692,-0.0260081,-0.00509275,0.0593662,-0.0228733,-0.0251047,0.009058,0.571097,5,0.1,8,9.7,-1.28464,-3.90658,0.587174,-1.08033e-05,1.63913e-05,-2.98023e-06,-2.98023e-05,-2.98023e-05,0,0.00623883,2.77414e-09,5,0.1,9,9.7,-0.505082,-3.87741,0.519925,-0.00010021,-0.00129901,-3.28757e-05,8.19564e-05,0.00138581,5.58794e-05,0.00731658,1.56261e-07,5,0.1
0,9.8,3.84157,0.700842,0.627783,-1.19209e-05,8.9407e-06,1.49012e-06,0,0,5.96046e-05,0.0100303,2.03887e-09,5,0.1,1,9.8,-2.68608,3.7981,0.690544,0.00491738,0.00101924,-0.000272691,-0.012517,-0.00286102,0.000685453,0.0110738,7.84556e-06,5,0.1,2,9.8,2.01557,2.7146,0.600004,-0.560364,-0.255793,-2.98023e-06,0.0804663,0.0721216,0,0.00831084,0.329012,5,0.1,3,9.8,-2.25211,-1.65717,0.75,-0.729114,0.00670254,0,-0.0139475,-0.00673532,0,0.0075244,0.193283,5,0.1,4,9.8,1.20011,0.578117,0.599996,-5.06639e-05,-0.350635,8.9407e-06,-0.000238419,0.136733,0,0.00990522,0.0429611,5,0.1,5,9.8,-1.71207,1.33455,0.599998,0.0604391,-0.206003,5.96046e-06,-0.0492334,0.51111,2.98023e-05,0.00840456,1.14508,5,0.1,6,9.8,-0.300016,0.624067,0.599997,-0.000120699,-0.327693,2.98023e-06,-0.000223517,0.0115633,-2.98023e-05,0.016002,0.0766769,5,0.1,7,9.8,-3.34816,1.3,0.59877,-0.423491,-0.0393391,-0.0075087,0.121713,-0.231087,-0.0221133,0.00794959,0.461129,5,0.1,8,9.8,-1.28464,-3.90658,0.587174,-1.49012e-05,1.19209e-05,-2.98023e-06,0,0,2.98023e-05,0.00617482,2.91034e-09,5,0.1,9,9.8,-0.505092,-3.87754,0.519922,-9.08971e-05,-0.00113845,-2.68221e-05,0.000149012,0.00166893,2.98023e-05,0.00693817,9.87519e-08,5,0.1
