id,t,px,py,pz,vx,vy,vz,ax,ay,az,planning_time,qp_cost,planning_report,size,id,t,px,py,pz,vx,vy,vz,ax,ay,az,planning_time,qp_cost,planning_report,size,id,t,px,py,pz,vx,vy,vz,ax,ay,az,planning_time,qp_cost,planning_report,size,id,t,px,py,pz,vx,vy,vz,ax,ay,az,planning_time,qp_cost,planning_report,size,id,t,px,py,pz,vx,vy,vz,ax,ay,az,planning_time,qp_cost,planning_report,size,id,t,px,py,pz,vx,vy,vz,ax,ay,az,planning_time,qp_cost,planning_report,size,id,t,px,py,pz,vx,vy,vz,ax,ay,az,planning_time,qp_cost,planning_report,size,id,t,px,py,pz,vx,vy,vz,ax,ay,az,planning_time,qp_cost,planning_report,size,id,t,px,py,pz,vx,vy,vz,ax,ay,az,planning_time,qp_cost,planning_report,size,id,t,px,py,pz,vx,vy,vz,ax,ay,az,planning_time,qp_cost,planning_report,size
0,0,-2.36379,-3.74523,0.696075,0,0,0,0,0,0,0.00980374,3.5122,5,0.1,1,0,2.15364,-3.85881,0.639623,0,0,0,0,0,0,0.0118417,3.5122,5,0.1,2,0,4.2849,3.2102,0.644209,0,0,0,0,0,0,0.00751359,3.5122,5,0.1,3,0,-4.17891,-1.95969,0.673341,0,0,0,0,0,0,0.0082534,1.30927,5,0.1,4,0,2.02957,-0.791875,0.646386,0,0,0,0,0,0,0.00960378,3.51219,5,0.1,5,0,4.1208,-1.5304,0.628456,0,0,0,0,0,0,0.021901,3.51219,5,0.1,6,0,-1.20679,0.158722,0.571821,0,0,0,0,0,0,0.00840868,0.597291,5,0.1,7,0,3.88398,-3.52333,0.534639,0,0,0,0,0,0,0.0155818,3.5122,5,0.1,8,0,1.66421,3.63944,0.535743,0,0,0,0,0,0,0.00824819,3.5122,5,0.1,9,0,-4.2398,-0.829943,0.69088,0,0,0,0,0,0,0.00926453,3.5122,5,0.1
0,0.1,-2.36171,-3.74503,0.696022,0.0589959,0.00546798,-0.00150222,1.04883,0.0972152,-0.0267029,0.00980374,3.5122,5,0.1,1,0.1,2.15328,-3.85676,0.639609,-0.0101093,0.058398,-0.00042012,-0.179723,1.03818,-0.00746921,0.0118417,3.5122,5,0.1,2,0.1,4.28285,3.21059,0.644188,-0.0582293,0.0110272,-0.000580493,-1.03521,0.196025,-0.0103153,0.00751359,3.5122,5,0.1,3,0.1,-4.17768,-1.95937,0.673264,0.0349358,0.00917707,-0.00217315,0.62108,0.16316,-0.0386387,0.0082534,1.30927,5,0.1,4,0.1,2.02899,-0.79388,0.646337,-0.0164818,-0.0569133,-0.00139941,-0.293002,-1.0118,-0.0248775,0.00960378,3.51219,5,0.1,5,0.1,4.12043,-1.52835,0.628443,-0.0105642,0.0583181,-0.000366289,-0.187844,1.03676,-0.00651553,0.021901,3.51219,5,0.1,6,0.1,-1.20627,0.159409,0.571802,0.0147266,0.0194994,-0.000539422,0.261806,0.346655,-0.0095889,0.00840868,0.597291,5,0.1,7,0.1,3.88383,-3.52125,0.534662,-0.00433028,0.0591069,0.000652205,-0.0769794,1.05077,0.0115968,0.0155818,3.5122,5,0.1,8,0.1,1.66216,3.63981,0.535802,-0.0582946,0.0105713,0.00165449,-1.03635,0.187919,0.0294112,0.00824819,3.5122,5,0.1,9,0.1,-4.2378,-0.830513,0.690781,0.056947,-0.0161867,-0.00280514,1.01236,-0.287767,-0.0498742,0.00926453,3.5122,5,0.1
0,0.2,-2.34973,-3.74392,0.695717,0.186461,0.0172794,-0.00474751,1.39832,0.1297,-0.0356138,0.00721232,2.9258,5,0.1,1,0.2,2.15123,-3.84489,0.639523,-0.0319481,0.184572,-0.00132769,-0.23973,1.38414,-0.00995398,0.0146986,2.9258,5,0.1,2,0.2,4.27102,3.21283,0.64407,-0.184047,0.0348508,-0.00183433,-1.37997,0.261307,-0.0137687,0.00771989,2.92582,5,0.1,3,0.2,-4.17058,-1.9575,0.672823,0.110412,0.0290036,-0.00686944,0.828266,0.217557,-0.0514984,0.0074031,1.07418,5,0.1,4,0.2,2.02564,-0.80544,0.646052,-0.0520885,-0.179875,-0.00442117,-0.390649,-1.34906,-0.0331998,0.00817507,2.92579,5,0.1,5,0.2,4.11828,-1.5165,0.628369,-0.0334024,0.184312,-0.00115782,-0.250101,1.38235,-0.00867248,0.019331,2.9258,5,0.1,6,0.2,-1.20328,0.16337,0.571693,0.0465423,0.0616275,-0.00170469,0.349045,0.462212,-0.0127554,0.00795824,0.490048,5,0.1,7,0.2,3.88295,-3.50924,0.534794,-0.0136912,0.186807,0.00206083,-0.10252,1.40095,0.0154972,0.0169465,2.9258,5,0.1,8,0.2,1.65032,3.64196,0.536138,-0.184238,0.0334024,0.00522733,-1.38181,0.250697,0.0392497,0.00734256,2.92579,5,0.1,9,0.2,-4.22623,-0.833801,0.690212,0.179982,-0.0511572,-0.00886619,1.34969,-0.383705,-0.066489,0.00824978,2.9258,5,0.1
0,0.3,-2.32331,-3.74147,0.695044,0.347284,0.0321925,-0.00884328,1.71858,0.159353,-0.0437647,0.00721232,2.9258,5,0.1,1,0.3,2.1467,-3.81874,0.639335,-0.0595152,0.343764,-0.00247257,-0.294566,1.70113,-0.0122301,0.0146986,2.9258,5,0.1,2,0.3,4.24494,3.21776,0.64381,-0.342767,0.0649065,-0.0034174,-1.69611,0.32118,-0.0169128,0.00771989,2.92582,5,0.1,3,0.3,-4.15494,-1.95339,0.67185,0.205416,0.0539592,-0.0127774,1.01343,0.266202,-0.0630319,0.0074031,1.07418,5,0.1,4,0.3,2.01826,-0.83093,0.645426,-0.097017,-0.335029,-0.00823848,-0.480115,-1.65796,-0.0407845,0.00817507,2.92579,5,0.1,5,0.3,4.11355,-1.49039,0.628205,-0.0621781,0.343295,-0.00215573,-0.30756,1.69887,-0.0106655,0.019331,2.9258,5,0.1,6,0.3,-1.19669,0.172098,0.571451,0.0865826,0.114648,-0.00316892,0.427134,0.565597,-0.0156313,0.00795824,0.490048,5,0.1,7,0.3,3.88101,-3.48277,0.535086,-0.0254862,0.347931,0.00384189,-0.126064,1.72178,0.0190213,0.0169465,2.9258,5,0.1,8,0.3,1.62421,3.64669,0.536879,-0.343158,0.0622306,0.00974024,-1.69821,0.308022,0.0482164,0.00734256,2.92579,5,0.1,9,0.3,-4.20073,-0.84105,0.688955,0.335214,-0.0952858,-0.0165131,1.65883,-0.471555,-0.081718,0.00824978,2.9258,5,0.1
0,0.4,-2.28013,-3.73747,0.693945,0.512868,0.0475466,-0.0130594,1.51956,0.140786,-0.0387132,0.00778591,2.5147,5,0.1,1,0.4,2.1393,-3.776,0.639028,-0.087899,0.507665,-0.00365227,-0.260234,1.50418,-0.0107884,0.0115944,2.51289,5,0.1,2,0.4,4.20233,3.22583,0.643385,-0.506186,0.0958502,-0.00504702,-1.49989,0.284076,-0.0149608,0.00877711,2.51249,5,0.1,3,0.4,-4.12942,-1.94669,0.670262,0.302947,0.0795782,-0.018844,0.89407,0.234842,-0.0555813,0.0107029,0.849895,5,0.1,4,0.4,2.0062,-0.872582,0.644401,-0.143278,-0.494769,-0.0121668,-0.424445,-1.46595,-0.0360608,0.0086052,2.51033,5,0.1,5,0.4,4.10582,-1.44771,0.627937,-0.0918269,0.506976,-0.00318289,-0.271797,1.50216,-0.00944734,0.0165101,2.51268,5,0.1,6,0.4,-1.18593,0.186341,0.571058,0.127688,0.16908,-0.004673,0.37688,0.49898,-0.0137985,0.00844933,0.387732,5,0.1,7,0.4,3.87784,-3.43952,0.535564,-0.0376344,0.513822,0.00567436,-0.111461,1.52242,0.0168085,0.0170742,2.51509,5,0.1,8,0.4,1.58155,3.65443,0.53809,-0.506777,0.0919044,0.0143856,-1.5015,0.272274,0.0426173,0.00880968,2.51261,5,0.1,9,0.4,-4.15905,-0.852897,0.686902,0.49504,-0.140718,-0.0243872,1.46651,-0.416934,-0.0722408,0.00765012,2.51038,5,0.1
0,0.5,-2.22125,-3.73199,0.69244,0.662991,0.0620354,-0.0170424,1.41414,0.141546,-0.0389032,0.00778591,2.5147,5,0.1,1,0.5,2.12917,-3.71767,0.638607,-0.114681,0.65758,-0.00476316,-0.261635,1.42364,-0.0108555,0.0115944,2.51289,5,0.1,2,0.5,4.14415,3.23688,0.642804,-0.656049,0.125082,-0.00658613,-1.42634,0.285506,-0.0150353,0.00877711,2.51249,5,0.1,3,0.5,-4.09458,-1.93754,0.668095,0.393655,0.103405,-0.0244841,0.875622,0.229999,-0.0544488,0.0107029,0.849895,5,0.1,4,0.5,1.98969,-0.929547,0.642999,-0.186956,-0.644167,-0.0158769,-0.426657,-1.44714,-0.0362359,0.0086052,2.51033,5,0.1,5,0.5,4.09524,-1.38945,0.62757,-0.119804,0.656866,-0.00415491,-0.273347,1.4249,-0.00949576,0.0165101,2.51268,5,0.1,6,0.5,-1.17125,0.20579,0.57052,0.165926,0.219707,-0.00607334,0.369109,0.488715,-0.0135228,0.00844933,0.387732,5,0.1,7,0.5,3.8735,-3.38053,0.536218,-0.049106,0.663985,0.00740364,-0.112087,1.41239,0.0168905,0.0170742,2.51509,5,0.1,8,0.5,1.52331,3.66502,0.539747,-0.656655,0.119922,0.0187706,-1.42524,0.273675,0.0428334,0.00880968,2.51261,5,0.1,9,0.5,-4.10206,-0.869112,0.684092,0.644436,-0.183621,-0.0318215,1.44657,-0.419069,-0.0726171,0.00765012,2.51038,5,0.1
0,0.6,-2.14851,-3.72513,0.690554,0.784332,0.0745773,-0.0204906,0.96786,0.104189,-0.0286102,0.00835041,2.33044,5,0.1,1,0.6,2.11649,-3.6454,0.63808,-0.137872,0.780648,-0.00572503,-0.192404,0.990629,-0.00801682,0.0172283,2.32063,5,0.1,2,0.6,4.07201,3.25072,0.642075,-0.779605,0.150388,-0.00791848,-0.997066,0.209928,-0.0110269,0.00767952,2.31796,5,0.1,3,0.6,-4.05116,-1.92613,0.665395,0.470507,0.12359,-0.0292629,0.629663,0.165462,-0.0391901,0.0128789,0.632715,5,0.1,4,0.6,1.969,-1.00067,0.641243,-0.224772,-0.771505,-0.0190884,-0.313759,-1.04737,-0.0266433,0.0105434,2.29812,5,0.1,5,0.6,4.08199,-1.31723,0.62711,-0.144041,0.780159,-0.00499487,-0.201225,0.993729,-0.00700355,0.0171159,2.31936,5,0.1,6,0.6,-1.15295,0.23002,0.56985,0.19832,0.262594,-0.00725836,0.265479,0.35157,-0.00977516,0.00724539,0.288656,5,0.1,7,0.6,3.86807,-3.30771,0.537037,-0.0590384,0.785011,0.00890046,-0.0824928,0.963688,0.0123978,0.0173269,2.33229,5,0.1,8,0.6,1.45112,3.67828,0.541824,-0.780013,0.144172,0.0225678,-0.994682,0.201344,0.0314713,0.00791527,2.31899,5,0.1,9,0.6,-4.03092,-0.889425,0.680572,0.771677,-0.220764,-0.0382572,1.04642,-0.308216,-0.0534356,0.013986,2.29862,5,0.1
0,0.7,-2.06629,-3.71715,0.68836,0.849964,0.0850312,-0.0233616,0.370733,0.0983179,-0.0269972,0.00835041,2.33044,5,0.1,1,0.7,2.10173,-3.56343,0.637467,-0.157185,0.848684,-0.0065295,-0.181675,0.392675,-0.00756234,0.0172283,2.32063,5,0.1,2,0.7,3.99011,3.26682,0.641227,-0.84832,0.17146,-0.00902582,-0.398889,0.1982,-0.0104159,0.00767952,2.31796,5,0.1,3,0.7,-4.00102,-1.91296,0.662276,0.530959,0.139476,-0.0330255,0.544801,0.143155,-0.0339113,0.0128789,0.632715,5,0.1,4,0.7,1.94494,-1.08202,0.639199,-0.256267,-0.84551,-0.0217625,-0.296287,-0.447065,-0.0251494,0.0105434,2.29812,5,0.1,5,0.7,4.06657,-1.2353,0.626575,-0.164238,0.848515,-0.00569709,-0.18999,0.395566,-0.00660121,0.0171159,2.31936,5,0.1,6,0.7,-1.13181,0.258007,0.569076,0.223807,0.296346,-0.0081962,0.229694,0.304176,-0.00844896,0.00724539,0.288656,5,0.1,7,0.7,3.86175,-3.22545,0.53799,-0.0673179,0.8502,0.0101449,-0.0778884,0.366688,0.0117049,0.0173269,2.33229,5,0.1,8,0.7,1.36919,3.69372,0.54424,-0.848466,0.164375,0.0257264,-0.396423,0.18999,0.0297092,0.00791527,2.31899,5,0.1,9,0.7,-3.94955,-0.913063,0.676475,0.845573,-0.2517,-0.0436204,0.445977,-0.291005,-0.0504442,0.013986,2.29862,5,0.1
0,0.8,-1.98018,-3.70821,0.685904,0.866026,0.0931323,-0.0255838,0,0.0588894,-0.0162125,0.0114408,2.26474,5,0.1,1,0.8,2.0852,-3.47736,0.63678,-0.17215,0.86602,-0.00715256,-0.108957,0.000119209,-0.00452995,0.0207703,2.24916,5,0.1,2,0.8,3.90406,3.28485,0.640279,-0.866026,0.187778,-0.00988394,0,0.118971,-0.00625849,0.0103801,2.24487,5,0.1,3,0.8,-3.94557,-1.89839,0.658827,0.573671,0.150698,-0.0356853,0.286222,0.0752211,-0.017792,0.0128435,2.16138,5,0.1,4,0.8,1.91799,-1.16797,0.636911,-0.280663,-0.866026,-0.0238329,-0.177979,0,-0.0151098,0.0125596,2.21208,5,0.1,5,0.8,4.0493,-1.14924,0.625976,-0.179887,0.866026,-0.00624061,-0.114202,0,-0.00396371,0.0208926,2.24711,5,0.1,6,0.8,-1.10844,0.288954,0.56822,0.241819,0.320194,-0.00885725,0.120521,0.15974,-0.00447035,0.01087,0.203808,5,0.1,7,0.8,3.85467,-3.13933,0.539056,-0.0737309,0.866026,0.0111088,-0.0468493,0,0.00703335,0.0163794,2.26763,5,0.1,8,0.8,1.28313,3.711,0.546945,-0.866026,0.180018,0.0281721,5.96046e-05,0.113964,0.0178516,0.0107205,2.01267,5,0.1,9,0.8,-3.8636,-0.939528,0.671889,0.866026,-0.275663,-0.0477746,0,-0.174761,-0.030309,0.00742167,2.2129,5,0.1
0,0.9,-1.89358,-3.69859,0.683261,0.866026,0.0992127,-0.0272566,0,0.0564456,-0.015527,0.0114408,2.26474,5,0.1,1,0.9,2.06742,-3.39076,0.636041,-0.183418,0.866025,-0.00762101,-0.104785,1.49012e-05,-0.00435859,0.0207703,2.24916,5,0.1,2,0.9,3.81746,3.30424,0.639258,-0.866026,0.200073,-0.0105307,0,0.114262,-0.00601634,0.0103801,2.24487,5,0.1,3,0.9,-3.8859,-1.88297,0.655174,0.626278,0.157514,-0.0372977,0.67915,0.0538751,-0.0127517,0.0128435,2.16138,5,0.1,4,0.9,1.889,-1.25457,0.634449,-0.29906,-0.866026,-0.0253944,-0.171021,0,-0.0145137,0.0125596,2.21208,5,0.1,5,0.9,4.03071,-1.06264,0.625331,-0.191686,0.866026,-0.00664983,-0.109673,-3.72529e-06,-0.0037998,0.0208926,2.24711,5,0.1,6,0.9,-1.08368,0.321736,0.567313,0.252741,0.334669,-0.00926144,0.0863448,0.114419,-0.0031963,0.01087,0.203808,5,0.1,7,0.9,3.84705,-3.05272,0.540204,-0.0785705,0.866026,0.011836,-0.0449866,0,0.00675768,0.0163794,2.26763,5,0.1,8,0.9,1.19653,3.72958,0.549852,-0.866025,0.191306,0.0299401,-1.49012e-05,0.100762,0.0157766,0.0107205,2.01267,5,0.1,9,0.9,-3.777,-0.968003,0.666954,0.866026,-0.293712,-0.0509045,0,-0.167694,-0.0290759,0.00742167,2.2129,5,0.1
0,1,-1.80698,-3.68843,0.680471,0.866026,0.103366,-0.0283986,-5.96046e-05,0.0222921,-0.00616908,0.0104332,2.26403,5,0.1,1,1,2.04864,-3.30416,0.635261,-0.191146,0.866026,-0.00794232,-0.0417233,0,-0.00172853,0.0181743,2.24677,5,0.1,2,1,3.73086,3.32473,0.638179,-0.866026,0.208491,-0.0109747,0,0.0455379,-0.00238419,0.0114695,2.284,5,0.1,3,1,-3.81981,-1.86703,0.6514,0.6944,0.160274,-0.0379503,0.619054,-0.00345707,0.00077486,0.0104769,1.6777,5,0.1,4,1,1.85838,-1.34117,0.631849,-0.31167,-0.866026,-0.0264645,-0.0681281,0,-0.00578165,0.0104199,2.20578,5,0.1,5,1,4.01108,-0.976037,0.62465,-0.199771,0.866026,-0.00693053,-0.0435114,0,-0.00149012,0.0207319,2.24453,5,0.1,6,1,-1.05811,0.355598,0.566376,0.257161,0.34053,-0.00942647,-0.00554323,-0.00734627,0.000208616,0.00840552,0.138599,5,0.1,7,1,3.83901,-2.96612,0.541416,-0.0818908,0.866026,0.0123337,-0.0177622,0,0.00268221,0.0149678,2.26718,5,0.1,8,1,1.10993,3.74912,0.55291,-0.866026,0.198311,0.0310376,5.96046e-05,0.0319481,0.00500679,0.00690316,1.57206,5,0.1,9,1,-3.69039,-0.998077,0.661741,0.866026,-0.306065,-0.0530466,0,-0.066489,-0.0115335,0.00817457,2.20688,5,0.1
0,1.1,-1.72038,-3.67796,0.677594,0.866025,0.106065,-0.0291431,1.49012e-05,0.0255555,-0.0070408,0.0104332,2.26403,5,0.1,1,1.1,2.02927,-3.21756,0.634457,-0.196245,0.866026,-0.00815373,-0.0487715,0,-0.00202656,0.0181743,2.24677,5,0.1,2,1.1,3.64429,3.34585,0.637068,-0.864297,0.214028,-0.0112652,0.054732,0.0527352,-0.00276789,0.0114695,2.284,5,0.1,3,1.1,-3.74695,-1.85103,0.64761,0.764248,0.159571,-0.0377876,0.710979,-0.0164658,0.00386313,0.0104769,1.6777,5,0.1,4,1.1,1.8268,-1.42778,0.629168,-0.31994,-0.866026,-0.0271661,-0.0786707,0,-0.00667572,0.0104199,2.20578,5,0.1,5,1.1,3.99085,-0.889434,0.623948,-0.205069,0.866026,-0.0071127,-0.0504851,-3.72529e-06,-0.00173599,0.0207319,2.24453,5,0.1,6,1.1,-1.03243,0.389599,0.565435,0.256035,0.339037,-0.00938447,-0.02639,-0.0349563,0.000972301,0.00840552,0.138599,5,0.1,7,1.1,3.83071,-2.87952,0.542665,-0.0840642,0.866026,0.0126615,-0.0207722,0,0.00313669,0.0149678,2.26718,5,0.1,8,1.1,1.02333,3.76911,0.556039,-0.865913,0.201245,0.0314973,0.00447035,0.0179112,0.00280142,0.00690316,1.57206,5,0.1,9,1.1,-3.60379,-1.02908,0.656369,0.866026,-0.314087,-0.0544374,0,-0.0758208,-0.0131465,0.00817457,2.20688,5,0.1
0,1.2,-1.63377,-3.66726,0.674655,0.866026,0.107437,-0.0295222,-5.96046e-05,-0.00226498,0.000625849,0.00861633,2.26391,5,0.1,1,1.2,2.00947,-3.13095,0.633634,-0.198954,0.866026,-0.00826567,0.0025034,0,8.9407e-05,0.0123419,2.24617,5,0.1,2,1.2,3.55841,3.36744,0.635931,-0.849903,0.216925,-0.0114173,0.264764,-0.00333786,0.000178814,0.0185678,2.72192,5,0.1,3,1.2,-3.66727,-1.83521,0.643865,0.825149,0.156012,-0.0369474,0.459313,-0.058651,0.0138581,0.00894843,0.273787,5,0.1,4,1.2,1.79452,-1.51438,0.626427,-0.324252,-0.866026,-0.0275329,0.00530481,0,0.000506639,0.00976244,2.2045,5,0.1,5,1.2,3.97016,-0.802832,0.623231,-0.207847,0.866026,-0.0072062,0.00321865,0,8.9407e-05,0.0201604,2.24396,5,0.1,6,1.2,-1.00706,0.4232,0.564505,0.250325,0.331473,-0.00917315,-0.0939965,-0.124514,0.00342727,0.00912748,0.156396,5,0.1,7,1.2,3.82223,-2.79292,0.543943,-0.0852168,0.866026,0.0128359,0.00107288,0,-0.000178814,0.0170348,2.26707,5,0.1,8,1.2,0.936796,3.78924,0.55919,-0.864233,0.200415,0.0313684,0.0358522,-0.0401735,-0.00631809,0.0112505,1.19292,5,0.1,9,1.2,-3.51719,-1.06076,0.650877,0.866026,-0.318161,-0.0551447,0,0.00697374,0.0012219,0.00722687,2.20602,5,0.1
0,1.3,-1.54717,-3.6565,0.671698,0.866025,0.107929,-0.0296566,1.49012e-05,0.00603497,-0.0016503,0.00861633,2.26391,5,0.1,1,1.3,1.98953,-3.04435,0.632805,-0.200133,0.866026,-0.00831578,-0.0145733,0,-0.000618398,0.0123419,2.24617,5,0.1,2,1.3,3.47579,3.38911,0.634786,-0.79298,0.216147,-0.0115061,0.831246,-0.0202805,-0.00124425,0.0185678,2.72192,5,0.1,3,1.3,-3.5834,-1.8199,0.640238,0.84324,0.150215,-0.0355771,-0.0852644,-0.0621453,0.0147,0.00894843,0.273787,5,0.1,4,1.3,1.76204,-1.60098,0.623669,-0.325941,-0.866026,-0.0276717,-0.0206456,0,-0.00171736,0.00976244,2.2045,5,0.1,5,1.3,3.94933,-0.716229,0.622509,-0.208981,0.866026,-0.00724718,-0.0139773,-3.72529e-06,-0.000499189,0.0201604,2.24396,5,0.1,6,1.3,-0.982336,0.455934,0.563599,0.245218,0.324706,-0.0089868,-0.0253767,-0.0336505,0.000927597,0.00912748,0.156396,5,0.1,7,1.3,3.81369,-2.70631,0.545229,-0.0857208,0.866026,0.0129105,-0.00621378,0,0.000927597,0.0170348,2.26707,5,0.1,8,1.3,0.850388,3.80909,0.562296,-0.864642,0.196406,0.0307384,-0.00923127,-0.0471771,-0.00740215,0.0112505,1.19292,5,0.1,9,1.3,-3.43059,-1.09262,0.645355,0.866026,-0.319526,-0.0553801,0,-0.016503,-0.00284985,0.00722687,2.20602,5,0.1
0,1.4,-1.46057,-3.6457,0.668731,0.866026,0.107616,-0.0295684,-5.96046e-05,-0.0165701,0.00452995,0.0115778,2.26413,5,0.1,1,1.4,1.96949,-2.95775,0.631973,-0.199914,0.866026,-0.0083074,0.0270009,0,0.00110269,0.0110321,2.24656,5,0.1,2,1.4,3.4013,3.41054,0.633632,-0.691462,0.211525,-0.0115439,1.16348,-0.0772476,0.000983477,0.00754069,3.1926,5,0.1,3,1.4,-3.50031,-1.80522,0.636763,0.810736,0.142777,-0.0338167,-0.550508,-0.0897646,0.0212491,0.0104852,0.194187,5,0.1,4,1.4,1.72942,-1.68758,0.6209,-0.325245,-0.866026,-0.0276104,0.0475645,0,0.00408292,0.00860516,2.20603,5,0.1,5,1.4,3.92841,-0.629627,0.621783,-0.208622,0.866026,-0.00723451,0.0296831,0,0.000983477,0.0159111,2.24451,5,0.1,6,1.4,-0.957944,0.488233,0.562705,0.242279,0.320812,-0.0088796,-0.0458062,-0.0607371,0.00169873,0.00714947,0.0915563,5,0.1,7,1.4,3.80511,-2.61971,0.546521,-0.085628,0.866026,0.0128955,0.0116825,0,-0.00175834,0.0166954,2.26714,5,0.1,8,1.4,0.764022,3.82843,0.565324,-0.860754,0.189775,0.0296995,0.105381,-0.090003,-0.0140965,0.00650853,2.26415,5,0.1,9,1.4,-3.34398,-1.12458,0.639816,0.866026,-0.318435,-0.0551894,0,0.0507236,0.00879169,0.0112327,2.09119,5,0.1
0,1.5,-1.37397,-3.63499,0.665787,0.866025,0.106851,-0.0293597,1.49012e-05,-0.00472367,0.00128523,0.0115778,2.26413,5,0.1,1,1.5,1.94956,-2.87115,0.631145,-0.198996,0.866026,-0.0082707,0.00289083,0,0.000111759,0.0110321,2.24656,5,0.1,2,1.5,3.33853,3.43107,0.632477,-0.559682,0.196947,-0.0115821,1.41186,-0.205532,-0.000983477,0.00754069,3.1926,5,0.1,3,1.5,-3.42292,-1.79138,0.633483,0.729064,0.134214,-0.0317896,-1.04026,-0.0855476,0.0202507,0.0104852,0.194187,5,0.1,4,1.5,1.69703,-1.77419,0.61815,-0.323234,-0.866026,-0.0274361,0.0109375,0,0.000949949,0.00860516,2.20603,5,0.1,5,1.5,3.90763,-0.543024,0.621062,-0.20747,0.866026,-0.00719782,0.00526011,-3.57628e-06,0.000156462,0.0159111,2.24451,5,0.1,6,1.5,-0.933901,0.520068,0.561824,0.238716,0.316086,-0.00874689,-0.0365898,-0.0485145,0.00135973,0.00714947,0.0915563,5,0.1,7,1.5,3.79657,-2.53311,0.547807,-0.0852261,0.866026,0.012835,0.0012964,0,-0.00018999,0.0166954,2.26714,5,0.1,8,1.5,0.678058,3.84695,0.568221,-0.861341,0.180353,0.0282242,-0.0658855,-0.102609,-0.0160672,0.00650853,2.26415,5,0.1,9,1.5,-3.25738,-1.15626,0.634326,0.866026,-0.315559,-0.0546908,0,0.0234768,0.00406802,0.0112327,2.09119,5,0.1
0,1.6,-1.28736,-3.62435,0.662863,0.866026,0.105649,-0.0290304,-5.96046e-05,-0.023365,0.0064671,0.00682803,2.26451,5,0.1,1,1.6,1.92972,-2.78454,0.63032,-0.197369,0.866026,-0.00820458,0.0377893,0,0.00157952,0.0133949,2.25186,5,0.1,2,1.6,3.28963,3.44959,0.631316,-0.419313,0.172061,-0.011611,1.35386,-0.284672,0.000923872,0.0122331,3.51221,5,0.1,3,1.6,-3.35573,-1.7784,0.63041,0.610507,0.124991,-0.0296041,-1.29533,-0.101626,0.0240505,0.00754382,0.459646,5,0.1,4,1.6,1.66482,-1.86079,0.615416,-0.319937,-0.866026,-0.0271544,0.0679493,0,0.00578165,0.00714649,2.2089,5,0.1,5,1.6,3.88695,-0.456422,0.620345,-0.205541,0.866025,-0.00713319,0.041604,1.43051e-05,0.00146031,0.0166871,2.24554,5,0.1,6,1.6,-0.910272,0.551355,0.560958,0.233084,0.308624,-0.00853986,-0.0836849,-0.110865,0.00312924,0.00813485,0.0691692,5,0.1,7,1.6,3.78807,-2.44651,0.549087,-0.0845253,0.866026,0.0127286,0.0160933,0,-0.00241399,0.015938,2.26729,5,0.1,8,1.6,0.591632,3.86443,0.570956,-0.866024,0.168574,0.026381,-2.98023e-05,-0.135541,-0.0212193,0.00985662,2.2604,5,0.1,9,1.6,-3.17078,-1.18763,0.628889,0.866026,-0.310904,-0.0538841,0,0.0814199,0.0141263,0.00734224,1.63158,5,0.1
0,1.7,-1.20076,-3.61386,0.659982,0.866025,0.104298,-0.0286552,1.49012e-05,-0.00955164,0.00265613,0.00682803,2.26451,5,0.1,1,1.7,1.91029,-2.69794,0.629507,-0.189993,0.866026,-0.00802753,0.108846,0,0.00221655,0.0133949,2.25186,5,0.1,2,1.7,3.2544,3.46529,0.630154,-0.288072,0.141212,-0.0116612,1.19667,-0.325024,-0.00115111,0.0122331,3.51221,5,0.1,3,1.7,-3.30133,-1.76639,0.627565,0.476369,0.115464,-0.0273491,-1.35881,-0.0923425,0.0218563,0.00754382,0.459646,5,0.1,4,1.7,1.63305,-1.94739,0.61272,-0.316175,-0.866026,-0.0268345,0.0253394,0,0.00214949,0.00714649,2.2089,5,0.1,5,1.7,3.86652,-0.369819,0.619636,-0.203395,0.866025,-0.0070571,0.0131279,-1.78814e-06,0.000473112,0.0166871,2.24554,5,0.1,6,1.7,-0.887314,0.581754,0.560117,0.226461,0.29985,-0.00829194,-0.0603795,-0.079982,0.00225753,0.00813485,0.0691692,5,0.1,7,1.7,3.77967,-2.3599,0.550353,-0.0837665,0.866026,0.012615,0.00400841,0,-0.000599772,0.015938,2.26729,5,0.1,8,1.7,0.50503,3.88064,0.573493,-0.866025,0.155949,0.0244048,-1.49012e-07,-0.121772,-0.0190623,0.00985662,2.2604,5,0.1,9,1.7,-3.08418,-1.21837,0.623562,0.865925,-0.304072,-0.0526989,-0.00403821,0.0686347,0.011906,0.00734224,1.63158,5,0.1
0,1.8,-1.11416,-3.6035,0.657135,0.866026,0.102735,-0.0282228,-5.96046e-05,-0.0259876,0.00718236,0.00866914,2.26494,5,0.1,1,1.8,1.89194,-2.61134,0.628718,-0.175834,0.866026,-0.00772029,0.172794,0,0.00411272,0.0120902,2.25415,5,0.1,2,1.8,3.23087,3.47777,0.628984,-0.190634,0.108361,-0.0117093,0.720024,-0.326395,0.000804663,0.00694291,3.48618,5,0.1,3,1.8,-3.2604,-1.75531,0.624941,0.343752,0.10595,-0.0250965,-1.2722,-0.100255,0.0237525,0.00783764,0.455916,5,0.1,4,1.8,1.60161,-2.03399,0.610052,-0.311786,-0.866026,-0.0264615,0.0752211,0,0.0063777,0.00871674,2.21224,5,0.1,5,1.8,3.84628,-0.283217,0.618934,-0.200903,0.866025,-0.00696927,0.0452995,0,0.00160933,0.0191544,2.24671,5,0.1,6,1.8,-0.865008,0.611287,0.559301,0.219047,0.29003,-0.00801682,-0.0959039,-0.127017,0.00354648,0.00697638,0.0308306,5,0.1,7,1.8,3.77132,-2.2733,0.551609,-0.0828743,0.866026,0.0124812,0.0171661,0,-0.0025928,0.023977,2.26746,5,0.1,8,1.8,0.418427,3.89562,0.575837,-0.866025,0.143409,0.0224426,-1.43051e-05,-0.132322,-0.0207424,0.00831615,2.05609,5,0.1,9,1.8,-2.99764,-1.24836,0.618363,0.864416,-0.294912,-0.051111,-0.0323057,0.123739,0.0214577,0.00887725,1.23738,5,0.1
0,1.9,-1.02756,-3.59331,0.654338,0.866025,0.101159,-0.0277864,1.11759e-05,-0.01131,0.00312924,0.00866914,2.26494,5,0.1,1,1.9,1.87502,-2.52474,0.627962,-0.164235,0.866026,-0.0074611,0.0736713,0,0.00159815,0.0120902,2.25415,5,0.1,2,1.9,3.2147,3.48702,0.627804,-0.142219,0.0772797,-0.0119905,0.158727,-0.292748,-0.00515953,0.00694291,3.48618,5,0.1,3,1.9,-3.23209,-1.74519,0.622543,0.225686,0.0966616,-0.0228957,-1.07579,-0.0883937,0.0209473,0.00783764,0.455916,5,0.1,4,1.9,1.57069,-2.1206,0.607427,-0.307397,-0.866026,-0.0260899,0.0302568,0,0.00255555,0.00871674,2.21224,5,0.1,5,1.9,3.82634,-0.196614,0.618242,-0.198471,0.866025,-0.00688173,0.0150353,5.96046e-07,0.000543892,0.0191544,2.24671,5,0.1,6,1.9,-0.843587,0.63965,0.558517,0.209175,0.276956,-0.00765268,-0.107437,-0.142269,0.00394881,0.00697638,0.0308306,5,0.1,7,1.9,3.76309,-2.1867,0.552849,-0.0820428,0.866026,0.0123553,0.00438094,0,-0.000663102,0.023977,2.26746,5,0.1,8,1.9,0.331825,3.90934,0.577985,-0.866025,0.131452,0.0205686,1.78814e-06,-0.111431,-0.0174567,0.00831615,2.05609,5,0.1,9,1.9,-2.91121,-1.27728,0.613351,0.864797,-0.283641,-0.0491567,0.00725687,0.112578,0.0195205,0.00887725,1.23738,5,0.1
0,2,-0.940954,-3.58327,0.651579,0.866026,0.0994921,-0.0273243,0,-0.0263453,0.00718236,0.00908011,2.26538,5,0.1,1,2,1.8589,-2.43813,0.627223,-0.158566,0.866026,-0.00730753,0.0506043,0,0.00187755,0.00567621,1.28481,5,0.1,2,2,3.2,3.49336,0.626578,-0.163859,0.0502229,-0.01252,-0.551701,-0.246525,-0.00447035,0.00738818,0.859615,5,0.1,3,2,-3.21449,-1.73597,0.620359,0.130588,0.0877827,-0.0207931,-0.819683,-0.0911355,0.0216067,0.0114135,0.271015,5,0.1,4,2,1.54014,-2.2072,0.604835,-0.302708,-0.866026,-0.0256941,0.0759959,0,0.0064671,0.00637646,2.21566,5,0.1,5,2,3.8066,-0.110012,0.617558,-0.195903,0.866026,-0.00678897,0.0448227,-3.57628e-06,0.00151992,0.0165616,2.24787,5,0.1,6,2,-0.823265,0.666557,0.557774,0.196598,0.260302,-0.0071913,-0.14782,-0.195712,0.00542402,0.00774295,0.011535,5,0.1,7,2,3.75492,-2.1001,0.55408,-0.0811636,0.866026,0.0122219,0.0169277,0,-0.0025332,0.025873,2.26763,5,0.1,8,2,0.245222,3.92193,0.579955,-0.866025,0.120336,0.0188276,0,-0.114202,-0.0178814,0.00961201,1.61846,5,0.1,9,2,-2.82483,-1.30503,0.608543,0.86087,-0.27056,-0.0468895,-0.103116,0.156641,0.0271499,0.00703529,0.910202,5,0.1
0,2.1,-0.854351,-3.57341,0.648871,0.866026,0.0978772,-0.0268853,-3.72529e-06,-0.0115484,0.00314042,0.00908011,2.26538,5,0.1,1,2.1,1.84431,-2.3537,0.626566,-0.124807,0.803705,-0.00527231,0.565462,-1.14387,0.0349395,0.00567621,1.28481,5,0.1,2,2.1,3.18035,3.49721,0.625297,-0.232766,0.0274282,-0.0131223,-0.77121,-0.207677,-0.00656396,0.00738818,0.859615,5,0.1,3,2.1,-3.20506,-1.72762,0.618381,0.0626493,0.0794146,-0.0188093,-0.542477,-0.0786483,0.0186451,0.0114135,0.271015,5,0.1,4,2.1,1.51013,-2.2938,0.602288,-0.298217,-0.866026,-0.0253119,0.0310615,0,0.00264496,0.00637646,2.21566,5,0.1,5,2.1,3.78715,-0.023409,0.616884,-0.193523,0.866025,-0.00670897,0.0142604,0,0.000473112,0.0165616,2.24787,5,0.1,6,2.1,-0.804361,0.691587,0.557082,0.181251,0.239983,-0.00662887,-0.161607,-0.213973,0.00591949,0.00774295,0.011535,5,0.1,7,2.1,3.74685,-2.01349,0.555294,-0.0803653,0.866026,0.0121031,0.0038892,0,-0.000573695,0.025873,2.26763,5,0.1,8,2.1,0.158621,3.93344,0.581755,-0.865964,0.11001,0.0172112,0.00243515,-0.0961274,-0.0150502,0.00961201,1.61846,5,0.1,9,2.1,-2.73902,-1.33135,0.603981,0.856564,-0.25607,-0.044378,-0.0293553,0.14215,0.0246353,0.00703529,0.910202,5,0.1
0,2.2,-0.767749,-3.5637,0.646202,0.866026,0.0962198,-0.0264332,0,-0.02563,0.00703335,0.00846061,2.2658,5,0.1,1,2.2,1.8351,-2.28023,0.626242,-0.0560313,0.655848,-0.00101179,0.763535,-1.72985,0.0472069,0.0111184,2.97966,5,0.1,2,2.2,3.15323,3.49899,0.623955,-0.308484,0.00895262,-0.0136584,-0.702024,-0.160694,-0.00342727,0.00657748,0.193562,5,0.1,3,2.2,-3.20108,-1.72006,0.616592,0.0209749,0.0716388,-0.0169665,-0.298619,-0.0784993,0.0186265,0.00671497,0.424303,5,0.1,4,2.2,1.48051,-2.38041,0.599773,-0.293547,-0.866026,-0.0249162,0.0745058,0,0.00634789,0.00710863,2.10137,5,0.1,5,2.2,3.76789,0.0631935,0.616216,-0.191081,0.866025,-0.00662655,0.0426769,0,0.00149012,0.019727,2.24897,5,0.1,6,2.2,-0.787082,0.714464,0.55645,0.163895,0.217004,-0.00599325,-0.186831,-0.247359,0.00682473,0.00855145,0.00571974,5,0.1,7,2.2,3.73885,-1.92689,0.5565,-0.0795484,0.866026,0.0119805,0.0158548,0,-0.00235438,0.0187419,2.26777,5,0.1,8,2.2,0.0720563,3.94396,0.583401,-0.865051,0.100452,0.0157163,0.0194967,-0.0976324,-0.0152886,0.0120556,1.31409,5,0.1,9,2.2,-2.6537,-1.35621,0.599673,0.847107,-0.240618,-0.0416994,-0.192046,0.173032,0.0299513,0.0114601,0.646763,5,0.1
0,2.3,-0.681146,-3.55417,0.643584,0.866026,0.0946455,-0.0260013,-3.72529e-06,-0.0112951,0.00309572,0.00846061,2.2658,5,0.1,1,2.3,1.83251,-2.22094,0.62633,-0.0031257,0.550428,0.00234805,0.324436,-0.500634,0.0215396,0.0111184,2.97966,5,0.1,2,2.3,3.11921,3.49913,0.62257,-0.368281,-0.00550263,-0.0140528,-0.481412,-0.127181,-0.00365451,0.00657748,0.193562,5,0.1,3,2.3,-3.20022,-1.71327,0.614983,-0.0014063,0.0644829,-0.0152689,-0.152513,-0.0666529,0.0158064,0.00671497,0.424303,5,0.1,4,2.3,1.45142,-2.46701,0.597304,-0.288806,-0.866026,-0.0245123,0.0363365,0,0.00309572,0.00710863,2.10137,5,0.1,5,2.3,3.74892,0.149796,0.615558,-0.188873,0.866025,-0.00654906,0.0127703,8.9407e-07,0.000454485,0.019727,2.24897,5,0.1,6,2.3,-0.771618,0.73494,0.555885,0.14544,0.19257,-0.00531934,-0.184119,-0.243772,0.00672042,0.00855145,0.00571974,5,0.1,7,2.3,3.73094,-1.84029,0.557691,-0.078845,0.866026,0.0118772,0.00301003,0,-0.000439584,0.0187419,2.26777,5,0.1,8,2.3,-0.0138944,3.95355,0.584902,-0.849251,0.0916261,0.0143345,0.301618,-0.0820607,-0.0128448,0.0120556,1.31409,5,0.1,9,2.3,-2.5698,-1.37945,0.595644,0.831336,-0.224606,-0.0389273,-0.160605,0.154674,0.0267811,0.0114601,0.646763,5,0.1
0,2.4,-0.594544,-3.54477,0.641003,0.866026,0.0930309,-0.025557,0,-0.0247955,0.00679493,0.00671512,2.48143,5,0.1,1,2.4,1.8333,-2.1672,0.626641,0.0143141,0.533921,0.00357926,0.0489354,0.074625,0.00444055,0.0103978,2.67727,5,0.1,2,2.4,3.08042,3.49801,0.621152,-0.402838,-0.0162959,-0.0142545,-0.202656,-0.0883341,0.000208616,0.00708572,0.118088,5,0.1,3,2.4,-3.20091,-1.70715,0.613533,-0.0103414,0.0579625,-0.0137225,-0.030756,-0.0653267,0.0154674,0.0101984,0.615203,5,0.1,4,2.4,1.42277,-2.55361,0.594872,-0.283548,-0.866026,-0.0240669,0.0801086,0,0.00682473,0.00759853,1.66075,5,0.1,5,2.4,3.73012,0.236399,0.614906,-0.186604,0.866025,-0.00647008,0.0407696,1.43051e-05,0.00143051,0.0154324,2.25,5,0.1,6,2.4,-0.758002,0.752969,0.555387,0.126791,0.167879,-0.00463873,-0.189811,-0.251323,0.00694394,0.00666523,0.00177119,5,0.1,7,2.4,3.72308,-1.75369,0.558875,-0.0781178,0.866026,0.0117704,0.014782,-5.96046e-05,-0.00226498,0.01726,2.26791,5,0.1,8,2.4,-0.0968156,3.96231,0.586272,-0.804198,0.0835001,0.0130624,0.599637,-0.0828505,-0.0129342,0.00773645,1.25806,5,0.1,9,2.4,-2.48767,-1.40112,0.591889,0.808704,-0.208429,-0.0361249,-0.317454,0.173986,0.0301301,0.00748153,0.448111,5,0.1
0,2.5,-0.508893,-3.53556,0.638471,0.838407,0.0914861,-0.0251336,-0.51502,-0.01131,0.00309944,0.00671512,2.48143,5,0.1,1,2.5,1.83457,-2.11221,0.626998,0.00784378,0.575388,0.00336654,-0.155263,0.654221,-0.00752509,0.0103978,2.67727,5,0.1,2,2.5,3.03931,3.49598,0.619726,-0.417223,-0.0239585,-0.0142545,-0.0745803,-0.0639707,0.000428408,0.00708572,0.118088,5,0.1,3,2.5,-3.20208,-1.70165,0.612233,-0.012289,0.0520438,-0.0123214,0.0113845,-0.0547469,0.012964,0.0101984,0.615203,5,0.1,4,2.5,1.39514,-2.64021,0.592494,-0.266123,-0.86594,-0.0235167,0.256859,0.00342727,0.00527129,0.00759853,1.66075,5,0.1,5,2.5,3.71159,0.323001,0.614264,-0.184527,0.866025,-0.00639651,0.0117868,-1.78814e-06,0.000417233,0.0154324,2.25,5,0.1,6,2.5,-0.74626,0.768516,0.554957,0.108158,0.143208,-0.00395719,-0.183046,-0.242364,0.00669062,0.00666523,0.00177119,5,0.1,7,2.5,3.71531,-1.66708,0.560046,-0.0774998,0.866025,0.0116739,0.00230968,1.49012e-05,-0.000372529,0.01726,2.26791,5,0.1,8,2.5,-0.173409,3.97027,0.587518,-0.720403,0.0760168,0.0118942,1.03634,-0.0694394,-0.0108443,0.00773645,1.25806,5,0.1,9,2.5,-2.40826,-1.42115,0.588418,0.779808,-0.192389,-0.0333467,-0.290722,0.153035,0.0265092,0.00748153,0.448111,5,0.1
0,2.6,-0.428228,-3.52648,0.635977,0.769661,0.0898778,-0.0246927,-0.830873,-0.0245571,0.00673532,0.00889123,2.26528,5,0.1,1,2.6,1.8344,-2.05113,0.627285,-0.0126213,0.647146,0.00228435,-0.235915,0.705302,-0.0132322,0.00976363,2.43019,5,0.1,2,2.6,2.99749,3.49331,0.618307,-0.416112,-0.02895,-0.0140607,0.10252,-0.0355244,0.0038743,0.00980588,0.116206,5,0.1,3,2.6,-3.20307,-1.69672,0.611064,-0.00547767,0.0467211,-0.0110611,0.131249,-0.0529885,0.012517,0.00847027,1.08738,5,0.1,4,2.6,1.37002,-2.72676,0.590174,-0.234336,-0.864661,-0.0228286,0.368893,0.0274181,0.00926852,0.00612019,1.28358,5,0.1,5,2.6,3.69322,0.409604,0.613627,-0.182366,0.866025,-0.00631958,0.0393391,1.43051e-05,0.0013411,0.0159371,2.25099,5,0.1,6,2.6,-0.736349,0.781639,0.554594,0.0901684,0.119391,-0.00329912,-0.176609,-0.233889,0.0064373,0.00687799,0.000951841,5,0.1,7,2.6,3.70758,-1.58048,0.56121,-0.0768483,0.866026,0.0115737,0.0141859,-5.96046e-05,-0.00217557,0.0188759,2.26803,5,0.1,8,2.6,-0.239821,3.97753,0.588654,-0.604211,0.0691652,0.0108242,1.25462,-0.0697374,-0.0109076,0.00701271,1.22155,5,0.1,9,2.6,-2.33189,-1.43961,0.585217,0.745475,-0.176772,-0.0306413,-0.416756,0.163615,0.0283718,0.00916637,0.305077,5,0.1
0,2.7,-0.356129,-3.51759,0.633535,0.667462,0.0879444,-0.024162,-1.12585,-0.0182986,0.00502169,0.00889123,2.26528,5,0.1,1,2.7,1.8318,-1.98237,0.627439,-0.0406202,0.731115,0.00071656,-0.306144,0.893794,-0.0172481,0.00976363,2.43019,5,0.1,2,2.7,2.95626,3.49024,0.61691,-0.40929,-0.0323866,-0.0139667,0.0559986,-0.0310689,-0.000864267,0.00980588,0.116206,5,0.1,3,2.7,-3.20292,-1.69229,0.610017,0.0108369,0.041944,-0.00993237,0.263393,-0.0439808,0.0103936,0.00847027,1.08738,5,0.1,4,2.7,1.34856,-2.81322,0.587933,-0.19371,-0.864945,-0.0220004,0.433125,-0.00463426,0.00818446,0.00612019,1.28358,5,0.1,5,2.7,3.67511,0.496206,0.612999,-0.180364,0.866026,-0.00625197,0.0114441,-1.93715e-06,0.00038743,0.0159371,2.25099,5,0.1,6,2.7,-0.728194,0.792437,0.554296,0.0731541,0.0968593,-0.00267876,-0.163265,-0.216197,0.00595674,0.00687799,0.000951841,5,0.1,7,2.7,3.69993,-1.49388,0.562361,-0.0762712,0.866025,0.0114837,0.00201166,1.49012e-05,-0.000331551,0.0188759,2.26803,5,0.1,8,2.7,-0.293697,3.98413,0.589686,-0.471692,0.0628754,0.00984045,1.35364,-0.0582635,-0.00910833,0.00701271,1.22155,5,0.1,9,2.7,-2.25931,-1.45652,0.582286,0.706873,-0.161762,-0.0280382,-0.380173,0.141792,0.0245869,0.00916637,0.305077,5,0.1
0,2.8,-0.29495,-3.5089,0.631149,0.558021,0.0855207,-0.0234962,-1.01495,-0.0333786,0.00914931,0.0072004,2.04828,5,0.1,1,2.8,1.82621,-1.90502,0.627423,-0.0707179,0.812185,-0.0010103,-0.282526,0.670791,-0.0167191,0.0114821,2.29976,5,0.1,2,2.8,2.91568,3.48686,0.615509,-0.401145,-0.0348091,-0.0140384,0.122309,-0.015974,0.000298023,0.00835413,0.766392,5,0.1,3,2.8,-3.2,-1.68831,0.609074,0.0525653,0.0376791,-0.00892431,0.556588,-0.0422597,0.00998378,0.00596965,1.23386,5,0.1,4,2.8,1.33139,-2.8996,0.585778,-0.149593,-0.861043,-0.0210434,0.440896,0.099659,0.0115931,0.00679972,0.762131,5,0.1,5,2.8,3.65716,0.582809,0.612377,-0.178242,0.866026,-0.00617951,0.0385046,0,0.0013411,0.0194533,2.25197,5,0.1,6,2.8,-0.721669,0.801075,0.554057,0.057593,0.0762537,-0.00211,-0.147611,-0.195473,0.00536442,0.00845553,0.00081395,5,0.1,7,2.8,3.69233,-1.40728,0.563506,-0.0756443,0.866026,0.011389,0.0137091,-5.96046e-05,-0.00211596,0.015183,2.26816,5,0.1,8,2.8,-0.334216,3.99013,0.590625,-0.340606,0.057137,0.00894368,1.239,-0.0579357,-0.00908971,0.00655699,1.19116,5,0.1,9,2.8,-2.19063,-1.47199,0.579605,0.665253,-0.147533,-0.0255704,-0.468969,0.146449,0.0253618,0.00658221,0.205581,5,0.1
0,2.9,-0.243987,-3.5005,0.628841,0.466393,0.0825606,-0.0226841,-0.717882,-0.0292063,0.00802055,0.0072004,2.04828,5,0.1,1,2.9,1.81767,-1.82122,0.627237,-0.100158,0.856454,-0.00273008,-0.291549,0.236109,-0.0169948,0.0114821,2.29976,5,0.1,2,2.9,2.87552,3.48333,0.614111,-0.407427,-0.0356659,-0.0138735,-0.193805,-0.000804663,0.00328571,0.00835413,0.766392,5,0.1,3,2.9,-3.19114,-1.68474,0.608228,0.131066,0.0338824,-0.00802716,0.942528,-0.0348464,0.00824407,0.00596965,1.23386,5,0.1,4,2.9,1.31857,-2.98537,0.583769,-0.107545,-0.854885,-0.0188106,0.396505,0.0650883,0.0311919,0.00679972,0.762131,5,0.1,5,2.9,3.63945,0.669411,0.611763,-0.17625,0.866026,-0.00610976,0.011757,-3.72529e-06,0.000413507,0.0194533,2.25197,5,0.1,6,2.9,-0.71662,0.80776,0.553872,0.043692,0.0578463,-0.00160411,-0.129949,-0.172071,0.00473857,0.00845553,0.00081395,5,0.1,7,2.9,3.6848,-1.32067,0.564639,-0.075094,0.866025,0.0113023,0.00189245,1.49012e-05,-0.000309199,0.015183,2.26816,5,0.1,8,2.9,-0.362312,3.99557,0.591477,-0.224716,0.0519153,0.00812477,1.03749,-0.0483245,-0.00757352,0.00655699,1.19116,5,0.1,9,2.9,-2.12631,-1.48606,0.577167,0.621798,-0.134163,-0.0232547,-0.420764,0.125311,0.0217073,0.00658221,0.205581,5,0.1
0,3,-0.2,-3.49241,0.626617,0.422551,0.0791132,-0.0217378,-0.1776,-0.0422001,0.0115931,0.00900483,1.73602,5,0.1,1,3,1.80628,-1.7349,0.626883,-0.126505,0.866023,-0.00429004,-0.224829,5.96046e-05,-0.0137389,0.0114258,2.25578,5,0.1,2,3,2.83365,3.47978,0.612746,-0.430429,-0.0349343,-0.013338,-0.225902,0.0156164,0.00759959,0.0100374,2.78433,5,0.1,3,3,-3.17316,-1.68152,0.607465,0.228608,0.0305027,-0.00722855,0.954628,-0.0334978,0.00795722,0.0067785,0.999554,5,0.1,4,3,1.3097,-3.07031,0.582064,-0.0708878,-0.840986,-0.0151441,0.334322,0.241637,0.0406206,0.00716212,0.722167,5,0.1,5,3,3.62191,0.756014,0.611155,-0.174105,0.866026,-0.00603497,0.0382662,0,0.0013411,0.018559,2.25297,5,0.1,6,3,-0.712868,0.812727,0.553734,0.0316739,0.0419348,-0.00116676,-0.11012,-0.145853,0.00405312,0.00708484,0.000621333,5,0.1,7,3,3.67731,-1.23407,0.565766,-0.0744879,0.866026,0.0112087,0.0135899,-5.96046e-05,-0.00205636,0.0148097,2.26828,5,0.1,8,3,-0.380178,4.00052,0.592252,-0.138901,0.0471592,0.00738055,0.662118,-0.0479221,-0.00753999,0.0062278,1.10748,5,0.1,9,3,-2.06629,-1.49885,0.574949,0.577629,-0.121737,-0.0211,-0.476837,0.126362,0.0218451,0.00664864,0.137923,5,0.1
0,3.1,-0.15746,-3.48469,0.624497,0.437793,0.075246,-0.0206749,0.396971,-0.0379235,0.0104271,0.00900483,1.73602,5,0.1,1,3.1,1.79249,-1.6483,0.626385,-0.149193,0.866026,-0.00564875,-0.215895,7.45058e-06,-0.0128411,0.0114258,2.25578,5,0.1,2,3.1,2.7882,3.47662,0.611455,-0.488708,-0.0262752,-0.0124504,-0.834942,0.142783,0.0101887,0.0100374,2.78433,5,0.1,3,3.1,-3.14528,-1.67863,0.606779,0.330034,0.0275003,-0.00651544,1.02025,-0.0275299,0.00653788,0.0067785,0.999554,5,0.1,4,3.1,1.30418,-3.15341,0.580723,-0.040756,-0.821905,-0.0119421,0.264429,0.178978,0.0246577,0.00716212,0.722167,5,0.1,5,3.1,3.60463,0.842616,0.610556,-0.172061,0.866026,-0.00596289,0.0126809,-3.72529e-06,0.000454485,0.018559,2.25297,5,0.1,6,3.1,-0.710221,0.816231,0.553636,0.0215701,0.0285539,-0.000794884,-0.0917055,-0.121433,0.00337139,0.00708484,0.000621333,5,0.1,7,3.1,3.6699,-1.14747,0.566881,-0.0739317,0.866025,0.0111245,0.00204146,1.49012e-05,-0.000305474,0.0148097,2.26828,5,0.1,8,3.1,-0.391328,4.00502,0.592955,-0.0910534,0.0428438,0.00670198,0.25204,-0.0399351,-0.00626594,0.0062278,1.10748,5,0.1,9,3.1,-2.01078,-1.51044,0.572941,0.533623,-0.110252,-0.0191139,-0.420466,0.106953,0.0185072,0.00664864,0.137923,5,0.1
0,3.2,-0.111326,-3.47737,0.622485,0.486902,0.0710666,-0.0195265,0.520234,-0.0476837,0.013113,0.00855275,1.37915,5,0.1,1,3.2,1.7766,-1.56169,0.625761,-0.167471,0.866026,-0.00675768,-0.140607,-5.96046e-05,-0.0089705,0.0143543,2.24911,5,0.1,2,3.2,2.73486,3.47481,0.610265,-0.579029,-0.00902414,-0.0112981,-0.892639,0.190735,0.0128448,0.00733173,2.5281,5,0.1,3,3.2,-3.10743,-1.67601,0.60616,0.423425,0.0248283,-0.00588149,0.809073,-0.0265837,0.00631809,0.00714111,0.15707,5,0.1,4,3.2,1.30129,-3.23454,0.579634,-0.0185221,-0.798571,-0.00998974,0.178933,0.314832,0.015378,0.00846061,0.527966,5,0.1,5,3.2,3.58751,0.929219,0.609963,-0.169849,0.866026,-0.00588447,0.0389814,0,0.0013113,0.0171015,2.25399,5,0.1,6,3.2,-0.708491,0.818522,0.553573,0.0133663,0.0176892,-0.000493228,-0.07236,-0.0957847,0.00265241,0.00722536,0.000365241,5,0.1,7,3.2,3.66253,-1.06087,0.567991,-0.0733137,0.866026,0.0110313,0.0135899,-2.98023e-05,-0.00202656,0.0180696,2.2684,5,0.1,8,3.2,-0.4,4.00911,0.593595,-0.0901751,0.0389218,0.00608712,-0.208512,-0.0395775,-0.00622869,0.00829195,0.950786,5,0.1,9,3.2,-1.95954,-1.52093,0.571121,0.490627,-0.0997245,-0.0172913,-0.451267,0.106037,0.0183582,0.0073906,0.159464,5,0.1
0,3.3,-0.0595576,-3.47049,0.620594,0.551562,0.0666678,-0.0183166,0.707554,-0.0425875,0.011716,0.00855275,1.37915,5,0.1,1,3.3,1.75913,-1.47509,0.625041,-0.181815,0.866025,-0.00764057,-0.134043,1.49012e-05,-0.00814348,0.0143543,2.24911,5,0.1,2,3.3,2.67197,3.47487,0.609203,-0.681873,0.0100393,-0.00991505,-1.08084,0.185177,0.0146627,0.00733173,2.5281,5,0.1,3,3.3,-3.06168,-1.67365,0.605601,0.485352,0.0224486,-0.00531599,0.427693,-0.0218302,0.0051856,0.00714111,0.15707,5,0.1,4,3.3,1.30022,-3.31297,0.578695,-0.00412539,-0.770693,-0.00891909,0.104889,0.27433,0.00700355,0.00846061,0.527966,5,0.1,5,3.3,3.57065,1.01582,0.609379,-0.167666,0.866026,-0.00581192,0.0144243,0,0.000473112,0.0171015,2.25399,5,0.1,6,3.3,-0.707489,0.819848,0.553536,0.00694282,0.00918685,-0.000257511,-0.0561029,-0.0742488,0.00206009,0.00722536,0.000365241,5,0.1,7,3.3,3.65524,-0.974263,0.569088,-0.0727396,0.866025,0.010947,0.00230968,3.72529e-06,-0.000327826,0.0180696,2.2684,5,0.1,8,3.3,-0.410924,4.01281,0.594174,-0.135286,0.035359,0.00552721,-0.629272,-0.0329614,-0.0051707,0.00829195,0.950786,5,0.1,9,3.3,-1.91235,-1.53046,0.569469,0.45614,-0.0915213,-0.0158705,-0.268541,0.0642017,0.0111312,0.0073906,0.159464,5,0.1
0,3.4,-0.000995849,-3.46404,0.618823,0.617118,0.0621617,-0.0170767,0.556024,-0.048995,0.0134408,0.0101101,1.05357,5,0.1,1,3.4,1.74037,-1.38849,0.624241,-0.19221,0.866026,-0.00829548,-0.0654459,-5.96046e-05,-0.00458956,0.00953187,2.24568,5,0.1,2,3.4,2.59863,3.47675,0.608287,-0.780827,0.0270844,-0.00839531,-0.838041,0.151992,0.0155866,0.00840076,2.36979,5,0.1,3,3.4,-3.01164,-1.67151,0.605095,0.509012,0.0203252,-0.00481308,0.0480413,-0.0212193,0.00506639,0.00838269,0.408854,5,0.1,4,3.4,1.30019,-3.38853,0.577831,0.0020504,-0.738376,-0.00841916,0.0186563,0.393748,0.00375509,0.00978181,0.381468,5,0.1,5,3.4,3.55398,1.10242,0.608801,-0.165308,0.866026,-0.00573248,0.0398159,0,0.00137091,0.014942,2.02127,5,0.1,6,3.4,-0.707048,0.820431,0.553519,0.00213534,0.00282526,-8.19564e-05,-0.0401139,-0.0531375,0.00149012,0.00884605,0.000162347,5,0.1,7,3.4,3.64798,-0.887661,0.57018,-0.0721037,0.866026,0.010854,0.0135899,0,-0.00205636,0.0193626,2.26793,5,0.1,8,3.4,-0.427856,4.01619,0.594702,-0.20466,0.0321269,0.0050202,-0.708982,-0.0326633,-0.0050962,0.00749411,0.771246,5,0.1,9,3.4,-1.86798,-1.53932,0.567933,0.431696,-0.0858068,-0.0148788,-0.242472,0.0546575,0.00947714,0.00868382,0.0929707,5,0.1
0,3.5,0.0636403,-3.45806,0.617178,0.675743,0.0576451,-0.0158373,0.565787,-0.0432432,0.0118688,0.0101101,1.05357,5,0.1,1,3.5,1.72078,-1.30189,0.623388,-0.199497,0.866025,-0.00876635,-0.0684187,1.49012e-05,-0.00429899,0.00953187,2.24568,5,0.1,2,3.5,2.51703,3.48004,0.607524,-0.844011,0.0371732,-0.00688601,-0.417799,0.0590384,0.0145584,0.00840076,2.36979,5,0.1,3,3.5,-2.96033,-1.66958,0.604637,0.518006,0.018426,-0.00436017,0.0994951,-0.0174344,0.0041537,0.00838269,0.408854,5,0.1,4,3.5,1.30038,-3.46053,0.577,0.000600517,-0.702314,-0.00827489,-0.0572354,0.353321,-0.000122935,0.00978181,0.381468,5,0.1,5,3.5,3.5376,1.18903,0.608233,-0.162629,0.866026,-0.00564,0.0223368,0,0.000771135,0.014942,2.02127,5,0.1,6,3.5,-0.707014,0.820476,0.553518,-0.0012462,-0.00165347,4.3679e-05,-0.0276901,-0.0366643,0.00103191,0.00884605,0.000162347,5,0.1,7,3.5,3.64075,-0.801058,0.571256,-0.0732336,0.866026,0.0106806,-0.0280589,-3.72529e-06,-0.00187755,0.0193626,2.26793,5,0.1,8,3.5,-0.452168,4.01925,0.59518,-0.283346,0.0291884,0.00456199,-0.815945,-0.0271797,-0.00423193,0.00749411,0.771246,5,0.1,9,3.5,-1.82587,-1.54766,0.566486,0.411585,-0.0813285,-0.0141014,-0.179529,0.0390038,0.0067763,0.00868382,0.0929707,5,0.1
0,3.6,0.133719,-3.45251,0.615655,0.721662,0.0531971,-0.0146151,0.317142,-0.0470877,0.0129342,0.00682054,0.766643,5,0.1,1,3.6,1.70057,-1.21528,0.622494,-0.203881,0.866026,-0.00906736,-0.0110865,-5.96046e-05,-0.0013411,0.00954287,2.24462,5,0.1,2,3.6,2.43124,3.48396,0.606906,-0.86509,0.0404596,-0.00548959,-0.0187159,0.013113,0.0133216,0.0112392,2.32137,5,0.1,3,3.6,-2.90817,-1.66782,0.604221,0.523394,0.0167251,-0.00395477,-0.0144243,-0.0171661,0.00405312,0.00770452,0.663017,5,0.1,4,3.6,1.3,-3.52889,0.57617,-0.00969768,-0.663352,-0.00831336,-0.142276,0.443578,-0.000119209,0.0088318,0.272267,5,0.1,5,3.6,3.52148,1.27563,0.607674,-0.159377,0.866026,-0.00552684,0.0487566,0,0.00166893,0.0167347,1.59909,5,0.1,6,3.6,-0.707258,0.820153,0.553526,-0.00344217,-0.00455976,0.00012517,-0.0164211,-0.0217557,0.000625849,0.00784018,5.46585e-05,5,0.1,7,3.6,3.63328,-0.714456,0.572312,-0.0762939,0.866026,0.010401,-0.0271797,0,-0.00405312,0.0179507,2.26704,5,0.1,8,3.6,-0.484429,4.02203,0.595616,-0.359423,0.0265241,0.00414699,-0.670135,-0.0269413,-0.00420213,0.00854068,0.158284,5,0.1,9,3.6,-1.78564,-1.5556,0.56511,0.392413,-0.0773042,-0.0134036,-0.217795,0.0444055,0.0077486,0.00593121,0.0723802,5,0.1
0,3.7,0.207495,-3.44741,0.614254,0.753059,0.0488728,-0.013427,0.270814,-0.0409782,0.0112616,0.00682054,0.766643,5,0.1,1,3.7,1.68007,-1.12868,0.621578,-0.206221,0.866025,-0.00924282,-0.0240281,1.49012e-05,-0.00165403,0.00954287,2.24462,5,0.1,2,3.7,2.34468,3.48795,0.60642,-0.865967,0.0384022,-0.00425735,-0.00233948,-0.0341684,0.011351,0.0112392,2.32137,5,0.1,3,3.7,-2.8555,-1.66623,0.603844,0.532691,0.0151889,-0.0035923,0.154853,-0.0141189,0.00332296,0.00770452,0.663017,5,0.1,4,3.7,1.29814,-3.59314,0.575334,-0.0287853,-0.622429,-0.00842884,-0.223681,0.396237,-0.00160933,0.0088318,0.272267,5,0.1,5,3.7,3.50575,1.36221,0.607128,-0.155287,0.864886,-0.00538658,0.0399351,-0.0391454,0.00137091,0.0167347,1.59909,5,0.1,6,3.7,-0.70767,0.819607,0.553541,-0.00466062,-0.00617336,0.000171736,-0.00820681,-0.0108629,0.000320375,0.00784018,5.46585e-05,5,0.1,7,3.7,3.62546,-0.627853,0.573335,-0.0804573,0.866026,0.0100774,-0.0487864,-3.72529e-06,-0.00290945,0.0179507,2.26704,5,0.1,8,3.7,-0.523295,4.02456,0.596011,-0.41342,0.0241011,0.00376916,-0.401957,-0.0223517,-0.00348315,0.00854068,0.158284,5,0.1,9,3.7,-1.74732,-1.56315,0.563802,0.375117,-0.0738505,-0.0128003,-0.148624,0.0288934,0.00505149,0.00593121,0.0723802,5,0.1
0,3.8,0.283811,-3.44273,0.612968,0.769108,0.0447333,-0.012289,0.0229764,-0.0429153,0.0118017,0.00696492,0.535692,5,0.1,1,3.8,1.65939,-1.04208,0.620649,-0.206697,0.866026,-0.00930876,0.0227094,-2.98023e-05,0.000655651,0.0120561,2.245,5,0.1,2,3.8,2.25808,3.49166,0.606048,-0.866026,0.0365853,-0.00321418,0,0.00751019,0.00950694,0.00751654,2.31484,5,0.1,3,3.8,-2.80149,-1.66478,0.603501,0.546503,0.0138104,-0.00326633,0.0884533,-0.0139475,0.00327826,0.00608023,0.498311,5,0.1,4,3.8,1.29412,-3.65334,0.574485,-0.0516623,-0.580513,-0.0085339,-0.221908,0.456929,-5.96046e-05,0.00712878,0.191907,5,0.1,5,3.8,3.49046,1.44826,0.606598,-0.150222,0.852951,-0.00521094,0.0661612,-0.235677,0.00229478,0.0201383,1.4308,5,0.1,6,3.8,-0.708165,0.818951,0.55356,-0.00513494,-0.00680089,0.000189245,-0.00151992,-0.00202656,8.9407e-05,0.00703742,1.67713e-05,5,0.1,7,3.8,3.61718,-0.541251,0.574327,-0.0847936,0.866026,0.00973642,-0.0325441,0,-0.00429153,0.0145912,2.26619,5,0.1,8,3.8,-0.566154,4.02686,0.596371,-0.438729,0.0219107,0.00342727,-0.101209,-0.0224113,-0.00345707,0.00675981,0.466743,5,0.1,9,3.8,-1.71057,-1.57038,0.562548,0.359198,-0.0708044,-0.0122681,-0.184059,0.0349879,0.00607967,0.00777507,0.0329303,5,0.1
0,3.9,0.360848,-3.43846,0.611794,0.770925,0.0408091,-0.01121,-0.0187847,-0.0368953,0.0101477,0.00696492,0.535692,5,0.1,1,3.9,1.63877,-0.955476,0.619719,-0.206033,0.866025,-0.00930671,0.00213087,3.72529e-06,-0.000104308,0.0120561,2.245,5,0.1,2,3.9,2.17147,3.4954,0.605771,-0.866026,0.0394739,-0.0023623,0,0.0806749,0.00757352,0.00751654,2.31484,5,0.1,3,3.9,-2.74622,-1.66346,0.60319,0.559727,0.0125615,-0.00297306,0.140384,-0.0114962,0.00270084,0.00608023,0.498311,5,0.1,4,3.9,1.28779,-3.70924,0.573629,-0.0750324,-0.538401,-0.0085854,-0.233538,0.403047,-0.000502914,0.00712878,0.191907,5,0.1,5,3.9,3.47574,1.53135,0.606087,-0.144238,0.799794,-0.00500306,0.0591129,-0.778958,0.00205636,0.0201383,1.4308,5,0.1,6,3.9,-0.708678,0.818272,0.553579,-0.00504889,-0.00668727,0.000188407,0.00297278,0.00394136,-9.31323e-05,0.00703742,1.67713e-05,5,0.1,7,3.9,3.6085,-0.454648,0.575283,-0.0890054,0.866026,0.00941046,-0.0449419,-3.57628e-06,-0.00272691,0.0145912,2.26619,5,0.1,8,3.9,-0.610788,4.02895,0.596697,-0.455566,0.019899,0.00311658,-0.198819,-0.018537,-0.00286847,0.00675981,0.466743,5,0.1,9,3.9,-1.67555,-1.57729,0.56135,0.341206,-0.0674201,-0.0116801,-0.18657,0.0349358,0.00607222,0.00777507,0.0329303,5,0.1
0,4,0.437563,-3.43456,0.610724,0.759983,0.0371337,-0.0101984,-0.22158,-0.0376701,0.0103414,0.0109826,0.363902,5,0.1,1,4,1.61822,-0.868873,0.61879,-0.204298,0.866026,-0.0092417,0.0405908,0,0.00175834,0.0109755,2.24613,5,0.1,2,4,2.08487,3.5,0.60557,-0.866026,0.0549793,-0.0016883,0,0.22161,0.00590086,0.00676622,2.29042,5,0.1,3,4,-2.6897,-1.66226,0.602906,0.568503,0.0114352,-0.00270754,0.0101328,-0.0113249,0.00268221,0.00631609,0.3605,5,0.1,4,4,1.27918,-3.76103,0.572771,-0.0963181,-0.496906,-0.00855625,-0.183582,0.439167,0.00143051,0.00784446,0.133656,5,0.1,5,4,3.46164,1.60686,0.605598,-0.137448,0.705767,-0.00476688,0.0804663,-1.06406,0.00277162,0.017637,1.34482,5,0.1,6,4,-0.709163,0.81763,0.553597,-0.00459105,-0.00607967,0.000172853,0.00599027,0.00792742,-0.000208616,0.00708479,9.66503e-06,5,0.1,7,4,3.5994,-0.368046,0.57621,-0.0926256,0.866025,0.00910461,-0.0226498,1.43051e-05,-0.00375509,0.0154184,2.26558,5,0.1,8,4,-0.657253,4.03085,0.596995,-0.472184,0.018084,0.00283569,-0.107169,-0.0185966,-0.00289083,0.00729121,0.347127,5,0.1,9,4,-1.64244,-1.58385,0.560215,0.320107,-0.0634432,-0.0109911,-0.242472,0.0460148,0.00801682,0.00779437,0.0127542,5,0.1
0,4.1,0.512497,-3.43102,0.609752,0.738429,0.0337049,-0.00925679,-0.235796,-0.0320077,0.00879169,0.0109826,0.363902,5,0.1,1,4.1,1.59792,-0.782271,0.617871,-0.20207,0.866026,-0.00914391,0.0153482,-3.72529e-06,0.000700355,0.0109755,2.24613,5,0.1,2,4.1,1.99827,3.50697,0.605428,-0.866026,0.0873551,-0.00117561,0,0.393748,0.00440702,0.00676622,2.29042,5,0.1,3,4.1,-2.63271,-1.66117,0.602647,0.571323,0.0104196,-0.00246707,0.0179112,-0.00935793,0.00222027,0.00631609,0.3605,5,0.1,4,4.1,1.26864,-3.80866,0.571921,-0.114324,-0.456577,-0.00843881,-0.167333,0.38223,0.00128523,0.00784446,0.133656,5,0.1,5,4.1,3.44811,1.67163,0.605134,-0.134479,0.586483,-0.00451095,-0.00658631,-1.24779,0.0025034,0.017637,1.34482,5,0.1,6,4.1,-0.709588,0.817066,0.553613,-0.00389498,-0.00515785,0.000147801,0.0077039,0.0102073,-0.000286847,0.00708479,9.66503e-06,5,0.1,7,4.1,3.58999,-0.281443,0.577105,-0.0956859,0.866025,0.00883676,-0.0321418,-1.78814e-06,-0.00210106,0.0154184,2.26558,5,0.1,8,4.1,-0.705113,4.03257,0.597265,-0.485356,0.0164166,0.00257641,-0.127438,-0.0153184,-0.00239164,0.00729121,0.347127,5,0.1,9,4.1,-1.61165,-1.58996,0.559156,0.295317,-0.0587322,-0.0101713,-0.258178,0.0492334,0.00856072,0.00779437,0.0127542,5,0.1
0,4.2,0.584962,-3.42781,0.60887,0.70844,0.0305414,-0.00838786,-0.381559,-0.0319481,0.00879169,0.00747867,0.243155,5,0.1,1,4.2,1.57782,-0.695668,0.616962,-0.199285,0.866026,-0.0090152,0.048399,0,0.00226498,0.0121983,2.24757,5,0.1,2,4.2,1.91167,3.51774,0.60533,-0.866026,0.128084,-0.000797212,5.96046e-05,0.396609,0.00321865,0.00728122,2.25626,5,0.1,3,4.2,-2.57567,-1.66018,0.602412,0.567305,0.009498,-0.00225008,-0.117898,-0.00935793,0.00223517,0.00684736,0.252319,5,0.1,4,4.2,1.25646,-3.8524,0.571086,-0.12823,-0.417954,-0.00823438,-0.104606,0.400424,0.00301003,0.00920054,0.157681,5,0.1,5,4.2,3.43459,1.7242,0.604696,-0.136232,0.467685,-0.00423938,-0.0177622,-1.08725,0.00306964,0.016686,1.2203,5,0.1,6,4.2,-0.709938,0.816603,0.553626,-0.00309199,-0.00409335,0.000119209,0.00822544,0.0108778,-0.000357628,0.00728969,9.13609e-06,5,0.1,7,4.2,3.58029,-0.194841,0.577978,-0.0979662,0.866025,0.00859797,-0.00882149,0,-0.00303984,0.0151965,2.26526,5,0.1,8,4.2,-0.754126,4.03414,0.597511,-0.492777,0.0149131,0.00234246,-0.000834465,-0.0150204,-0.00238419,0.0077656,0.416803,5,0.1,9,4.2,-1.58347,-1.59557,0.558184,0.267708,-0.0534356,-0.00925213,-0.296831,0.0573397,0.00995398,0.00770561,0.00659401,5,0.1
0,4.3,0.65398,-3.42491,0.608072,0.672162,0.0276439,-0.00759056,-0.365797,-0.0269115,0.0074096,0.00747867,0.243155,5,0.1,1,4.3,1.55806,-0.609066,0.616068,-0.196377,0.866026,-0.00887429,0.0209287,-3.72529e-06,0.00104681,0.0121983,2.24757,5,0.1,2,4.3,1.82506,3.5327,0.605265,-0.866025,0.171918,-0.000528805,-1.49012e-05,0.452608,0.00219792,0.00728122,2.25626,5,0.1,3,4.3,-2.51946,-1.65927,0.602197,0.556743,0.00865813,-0.00204965,-0.116244,-0.00775605,0.00184774,0.00684736,0.252319,5,0.1,4,4.3,1.24299,-3.89253,0.570271,-0.141819,-0.387244,-0.00811107,-0.151291,0.239462,0.000111759,0.00920054,0.157681,5,0.1,5,4.3,3.42079,1.76587,0.604287,-0.140228,0.371236,-0.00395598,-0.0508875,-0.768587,0.00273064,0.016686,1.2203,5,0.1,6,4.3,-0.710206,0.816249,0.553636,-0.0022633,-0.00299681,8.40984e-05,0.00818074,0.0108406,-0.000339001,0.00728969,9.13609e-06,5,0.1,7,4.3,3.57042,-0.108238,0.578826,-0.0996437,0.866025,0.00839792,-0.0185519,0,-0.00145286,0.0151965,2.26526,5,0.1,8,4.3,-0.803617,4.0354,0.597734,-0.498292,0.00911951,0.00212872,-0.0765584,-0.0914931,-0.00197068,0.0077656,0.416803,5,0.1,9,4.3,-1.55816,-1.60063,0.557308,0.238543,-0.0477949,-0.00827359,-0.290155,0.0562444,0.00974908,0.00770561,0.00659401,5,0.1
0,4.4,0.719248,-3.42227,0.60735,0.631636,0.0250041,-0.00686347,-0.459343,-0.0267029,0.00730157,0.00898495,0.161314,5,0.1,1,4.4,1.53856,-0.522463,0.615188,-0.193197,0.866026,-0.00872016,0.0505447,0,0.00238419,0.0103187,2.32017,5,0.1,2,4.4,1.73846,3.55206,0.605221,-0.866026,0.213867,-0.000348687,0,0.366449,0.00146031,0.00756595,2.22675,5,0.1,3,4.4,-2.46452,-1.65844,0.602001,0.540215,0.00789464,-0.00186712,-0.229836,-0.0077486,0.00181794,0.00697767,0.17244,5,0.1,4,4.4,1.22809,-3.93015,0.56946,-0.15575,-0.365591,-0.00810027,-0.115812,0.212431,0.000596046,0.0110042,0.0937526,5,0.1,5,4.4,3.40653,1.8,0.603905,-0.14447,0.319639,-0.00367016,-0.0259876,-0.279784,0.00303984,0.0140612,1.02987,5,0.1,6,4.4,-0.710392,0.816002,0.553643,-0.00148267,-0.00196248,5.21541e-05,0.00730157,0.00968575,-0.000268221,0.00662803,7.27485e-06,5,0.1,7,4.4,3.56039,-0.0216354,0.579658,-0.100625,0.866025,0.00822246,0.00345707,-1.19209e-06,-0.00244379,0.0146303,2.2652,5,0.1,8,4.4,-0.853733,4.03579,0.597937,-0.502458,-0.00170469,0.00193566,0.0166297,-0.11754,-0.00193715,0.00854694,1.12193,5,0.1,9,4.4,-1.53577,-1.60513,0.55653,0.209108,-0.042063,-0.00727922,-0.300527,0.0587702,0.0101626,0.00808654,0.00199543,5,0.1
0,4.5,0.780226,-3.4199,0.606697,0.588559,0.022592,-0.00620354,-0.420421,-0.022307,0.00610203,0.00898495,0.161314,5,0.1,1,4.5,1.51942,-0.436393,0.614324,-0.190081,0.850838,-0.00856901,0.0226051,-0.274645,0.00112131,0.0103187,2.32017,5,0.1,2,4.5,1.65186,3.57536,0.605193,-0.866026,0.252214,-0.000235904,0,0.375852,0.00083819,0.00756595,2.22675,5,0.1,3,4.5,-2.41158,-1.65769,0.601823,0.518728,0.00719819,-0.00170358,-0.218645,-0.00644475,0.00151247,0.00697767,0.17244,5,0.1,4,4.5,1.21193,-3.96578,0.568651,-0.167213,-0.348035,-0.00808379,-0.103295,0.155643,0.000160187,0.0110042,0.0937526,5,0.1,5,4.5,3.39192,1.83155,0.603552,-0.147926,0.319542,-0.00339011,-0.0343174,0.21141,0.00267103,0.0140612,1.02987,5,0.1,6,4.5,-0.710505,0.815852,0.553647,-0.000791997,-0.00104625,2.68221e-05,0.00641495,0.00850856,-0.000230968,0.00662803,7.27485e-06,5,0.1,7,4.5,3.55031,0.0649671,0.580472,-0.101133,0.866025,0.00807606,-0.00759959,4.47035e-07,-0.000968575,0.0146303,2.2652,5,0.1,8,4.5,-0.904396,4.03489,0.598163,-0.514485,-0.017409,0.00292314,-0.206061,-0.184357,0.0190474,0.00854694,1.12193,5,0.1,9,4.5,-1.51634,-1.60905,0.555852,0.179591,-0.0362761,-0.00627823,-0.290498,0.0571162,0.00987947,0.00808654,0.00199543,5,0.1
0,4.6,0.836923,-3.41775,0.606107,0.54449,0.0204086,-0.00560582,-0.473261,-0.0218153,0.00602007,0.0096636,0.106952,5,0.1,1,4.6,1.50055,-0.352963,0.613474,-0.186825,0.815301,-0.00841171,0.0501871,-0.423149,0.00232458,0.00978859,2.44018,5,0.1,2,4.6,1.56526,3.60231,0.605172,-0.866026,0.284839,-0.000172853,5.96046e-05,0.25928,0.000417233,0.00762432,1.92981,5,0.1,3,4.6,-2.36091,-1.657,0.60166,0.493348,0.00656545,-0.00155568,-0.3016,-0.00649691,0.00154972,0.00736152,0.116135,5,0.1,4,4.6,1.19478,-3.99979,0.567846,-0.174701,-0.331569,-0.00799596,-0.0396371,0.18549,0.00184774,0.0098691,0.0729658,5,0.1,5,4.6,3.377,1.86492,0.603227,-0.149834,0.350192,-0.00311583,0.0026226,0.350595,0.00283122,0.0141412,0.820229,5,0.1,6,4.6,-0.710555,0.815787,0.553649,-0.000217557,-0.000283122,5.96046e-06,0.0050962,0.00673532,-0.000178814,0.00701307,4.34057e-06,5,0.1,7,4.6,3.54018,0.15157,0.581274,-0.101113,0.866026,0.00794381,0.0122786,-7.15256e-06,-0.00196695,0.0153296,2.26532,5,0.1,8,4.6,-0.956898,4.0322,0.598567,-0.534806,-0.0364304,0.00527501,-0.16278,-0.186205,0.025928,0.00893413,0.925207,5,0.1,9,4.6,-1.49982,-1.61239,0.555274,0.150928,-0.0306159,-0.00530034,-0.282884,0.0559688,0.00971556,0.00796297,0.000933008,5,0.1
0,4.7,0.889132,-3.41581,0.605574,0.500563,0.0184435,-0.0050636,-0.42057,-0.0181347,0.00499934,0.0096636,0.106952,5,0.1,1,4.7,1.48205,-0.274057,0.612641,-0.183679,0.761479,-0.00826325,0.0231564,-0.517813,0.00111014,0.00978859,2.44018,5,0.1,2,4.7,1.47865,3.63211,0.605157,-0.866025,0.31096,-0.000148732,-1.49012e-05,0.242323,9.31323e-05,0.00762432,1.92981,5,0.1,3,4.7,-2.313,-1.65637,0.601511,0.465162,0.0059817,-0.00141654,-0.277624,-0.00539422,0.00128895,0.00736152,0.116135,5,0.1,4,4.7,1.17708,-4.03216,0.567053,-0.179276,-0.316919,-0.00787349,-0.0412911,0.124991,0.00103936,0.0098691,0.0729658,5,0.1,5,4.7,3.36215,1.90211,0.602929,-0.145986,0.396368,-0.0028559,0.0725985,0.522122,0.00246242,0.0141412,0.820229,5,0.1,6,4.7,-0.710553,0.81579,0.553649,0.000237301,0.000318419,-1.00583e-05,0.00395626,0.00523403,-0.000141561,0.00701307,4.34057e-06,5,0.1,7,4.7,3.53009,0.238172,0.582062,-0.100799,0.866025,0.00783755,-8.9407e-05,-1.78814e-06,-0.000629574,0.0153296,2.26532,5,0.1,8,4.7,-1.01141,4.02782,0.59924,-0.556479,-0.0496224,0.00828942,-0.230879,-0.0866652,0.0323616,0.00893413,0.925207,5,0.1,9,4.7,-1.48611,-1.61518,0.554791,0.123604,-0.0251947,-0.00435989,-0.263065,0.0523552,0.00907481,0.00796297,0.000933008,5,0.1
0,4.8,0.937071,-3.41405,0.605093,0.457795,0.0166714,-0.00457615,-0.445306,-0.0177622,0.00491738,0.0115911,0.12244,5,0.1,1,4.8,1.46382,-0.2,0.611822,-0.180408,0.724891,-0.00810921,0.0495911,-0.217899,0.00229478,0.0081508,2.06742,5,0.1,2,4.8,1.39205,3.66425,0.605142,-0.866026,0.329792,-0.000147521,5.96046e-05,0.119925,-2.98023e-05,0.0103666,1.47954,5,0.1,3,4.8,-2.26794,-1.6558,0.601376,0.435221,0.00544786,-0.00129044,-0.331759,-0.00530481,0.0012815,0.00955162,0.133335,5,0.1,4,4.8,1.15901,-4.06321,0.566272,-0.181186,-0.30359,-0.00771284,0.010252,0.154257,0.00241399,0.00741901,0.0333678,5,0.1,5,4.8,3.34802,1.9443,0.602655,-0.135684,0.445822,-0.0026077,0.131369,0.429809,0.002563,0.0155781,0.635774,5,0.1,6,4.8,-0.710511,0.815846,0.553647,0.000567734,0.000756979,-2.23517e-05,0.0026226,0.00345707,-8.9407e-05,0.00827453,1.88287e-06,5,0.1,7,4.8,3.52003,0.324775,0.582841,-0.10013,0.866025,0.00773519,0.0178814,1.43051e-05,-0.00169873,0.0174257,2.26556,5,0.1,8,4.8,-1.06805,4.02253,0.600228,-0.574178,-0.0553012,0.0114009,-0.0947714,-0.0331402,0.0284016,0.0100406,0.749321,5,0.1,9,4.8,-1.47503,-1.61744,0.554399,0.0984132,-0.0201672,-0.00348836,-0.240207,0.0481606,0.00831485,0.00695408,0.000766086,5,0.1
0,4.9,0.980972,-3.41246,0.604655,0.42301,0.0153165,-0.00420082,-0.277255,-0.0104159,0.00288337,0.0115911,0.12244,5,0.1,1,4.9,1.44598,-0.127577,0.61102,-0.176608,0.731565,-0.00793198,0.0350177,0.264535,0.0016354,0.0081508,2.06742,5,0.1,2,4.9,1.30545,3.69783,0.605127,-0.865788,0.34121,-0.00015879,0.00944734,0.0918955,-0.000167638,0.0103666,1.47954,5,0.1,3,4.9,-2.22576,-1.65528,0.601252,0.410866,0.00505168,-0.00119498,-0.182867,-0.00298768,0.000718981,0.00955162,0.133335,5,0.1,4,4.9,1.14098,-4.09282,0.565513,-0.179065,-0.288554,-0.00745403,0.0373945,0.155717,0.00298396,0.00741901,0.0333678,5,0.1,5,4.9,3.33523,1.99116,0.602407,-0.119088,0.49177,-0.00237348,0.194371,0.449903,0.00220165,0.0155781,0.635774,5,0.1,6,4.9,-0.710443,0.815936,0.553644,0.000781473,0.00103898,-2.96161e-05,0.00164285,0.00217557,-5.96046e-05,0.00827453,1.88287e-06,5,0.1,7,4.9,3.51007,0.411377,0.58361,-0.0992961,0.866025,0.00764951,0.00455976,-1.78814e-06,-0.000476837,0.0174257,2.26556,5,0.1,8,4.9,-1.12603,4.01699,0.601513,-0.58553,-0.054428,0.014298,-0.100821,0.028193,0.0280142,0.0100406,0.749321,5,0.1,9,4.9,-1.46635,-1.61923,0.554091,0.0757109,-0.0156045,-0.00270037,-0.213146,0.0429451,0.00741705,0.00695408,0.000766086,5,0.1
0,5,1.02198,-3.41098,0.604248,0.397679,0.0144005,-0.00394881,-0.249207,-0.00870228,0.00244379,0.00834716,0.0709262,5,0.1,1,5,1.42853,-0.0528885,0.610237,-0.171947,0.762634,-0.0077188,0.0642538,0.29205,0.00298023,0.00950466,1.59917,5,0.1,2,5,1.219,3.73225,0.60511,-0.862241,0.345415,-0.000177324,0.0756383,-0.0189543,-0.000149012,0.00830035,1.10137,5,0.1,3,5,-2.18553,-1.65479,0.601136,0.393879,0.00478923,-0.00113249,-0.176907,-0.0025034,0.000625849,0.00677885,0.140202,5,0.1,4,5,1.12334,-4.12084,0.564785,-0.172865,-0.270927,-0.00707954,0.0897646,0.203133,0.00464916,0.00738951,0.0128476,5,0.1,5,5,3.32435,2.04236,0.60218,-0.0979424,0.529116,-0.00215471,0.223398,0.269413,0.00223517,0.016769,0.471836,5,0.1,6,5,-0.710358,0.816049,0.553641,0.00089854,0.00119209,-3.27826e-05,0.000625849,0.000864267,-2.98023e-05,0.00702867,5.88793e-07,5,0.1,7,5,3.50018,0.49798,0.584371,-0.0982344,0.866025,0.00756085,0.0208616,1.43051e-05,-0.00157952,0.0134013,2.26585,5,0.1,8,5,-1.18489,4.01165,0.603072,-0.589025,-0.0529647,0.0167444,0.0526905,-0.00953674,0.0198483,0.00680549,0.595009,5,0.1,9,5,-1.45979,-1.62058,0.553856,0.0558972,-0.0115991,-0.00200868,-0.182629,0.0369549,0.0063777,0.00716692,0.000605792,5,0.1
0,5.1,1.06065,-3.40957,0.603864,0.376712,0.0137009,-0.00375267,-0.187866,-0.00602007,0.00167638,0.00834716,0.0709262,5,0.1,1,5.1,1.41162,0.0252774,0.609478,-0.166312,0.803379,-0.00745775,0.0554025,0.455589,0.00255927,0.00950466,1.59917,5,0.1,2,5.1,1.13285,3.7667,0.605091,-0.862381,0.343243,-0.000195578,-0.0273511,-0.0378489,-0.000201166,0.00830035,1.10137,5,0.1,3,5.1,-2.14691,-1.65448,0.601026,0.378992,8.47504e-05,-0.00106851,-0.138015,-0.0818148,0.000681728,0.00677885,0.140202,5,0.1,4,5.1,1.10654,-4.1469,0.564102,-0.162738,-0.250156,-0.00658613,0.114821,0.216424,0.00531226,0.00738951,0.0128476,5,0.1,5,5.1,3.31569,2.09664,0.601975,-0.075328,0.555998,-0.00195149,0.224844,0.237331,0.00189245,0.016769,0.471836,5,0.1,6,5.1,-0.710266,0.816171,0.553638,0.000928063,0.0012341,-3.44589e-05,-2.6077e-05,-3.72529e-06,-7.45058e-06,0.00702867,5.88793e-07,5,0.1,7,5.1,3.49042,0.584582,0.585122,-0.0971168,0.866026,0.00748225,0.00712276,-1.93715e-06,-0.000439584,0.0134013,2.26585,5,0.1,8,5.1,-1.24358,4.00627,0.604844,-0.5847,-0.0560351,0.0186568,0.0590906,-0.0827014,0.0172108,0.00680549,0.595009,5,0.1,9,5.1,-1.45507,-1.62157,0.553685,0.0390625,-0.00818335,-0.00141887,-0.153624,0.0312626,0.0054054,0.00716692,0.000605792,5,0.1
0,5.2,1.09737,-3.40823,0.603497,0.357085,0.0130773,-0.00358075,-0.217199,-0.00691414,0.00193715,0.0103685,0.0550704,5,0.1,1,5.2,1.3953,0.10771,0.608746,-0.159693,0.842199,-0.00715554,0.081718,0.272558,0.00372529,0.0135758,1.24943,5,0.1,2,5.2,1.04665,3.80071,0.605071,-0.858995,0.335622,-0.000213087,0.13113,-0.12362,-0.000149012,0.00926522,0.789255,5,0.1,3,5.2,-2.10976,-1.65494,0.600923,0.363368,-0.00983477,-0.000992417,-0.186682,-0.108957,0.000834465,0.00649144,0.174654,5,0.1,4,5.2,1.09089,-4.17079,0.563471,-0.149602,-0.226974,-0.00600368,0.148892,0.249386,0.0064373,0.00693669,0.00648727,5,0.1,5,5.2,3.30926,2.15317,0.601789,-0.0536799,0.571382,-0.00176579,0.205159,0.0493526,0.00187755,0.0135228,0.338326,5,0.1,6,5.2,-0.710175,0.816293,0.553634,0.00089705,0.00119507,-3.42727e-05,-0.000596046,-0.00077486,2.98023e-05,0.0103431,1.61592e-07,5,0.1,7,5.2,3.48076,0.671185,0.585867,-0.0958502,0.866026,0.00739694,0.0222921,0,-0.00157952,0.0159918,2.26618,5,0.1,8,5.2,-1.30158,4,0.606784,-0.572965,-0.0717402,0.0199884,0.192702,-0.22316,0.00858307,0.00851892,0.457601,5,0.1,9,5.2,-1.45188,-1.62224,0.553569,0.0252306,-0.00536144,-0.000931323,-0.122845,0.0252128,0.00435114,0.00898331,0.000373562,5,0.1
0,5.3,1.13215,-3.40695,0.603147,0.339591,0.0125516,-0.00343425,-0.151031,-0.00430644,0.00119582,0.0103685,0.0550704,5,0.1,1,5.3,1.37956,0.193028,0.608048,-0.15667,0.861336,-0.0068157,-0.00572205,0.104979,0.00332668,0.0135758,1.24943,5,0.1,2,5.3,0.961239,3.83368,0.605049,-0.849809,0.32362,-0.000228733,0.0933632,-0.127375,-0.000149012,0.00926522,0.789255,5,0.1,3,5.3,-2.07403,-1.65664,0.600827,0.353596,-0.0252964,-0.00092322,-0.0381023,-0.186093,0.000599772,0.00649144,0.174654,5,0.1,4,5.3,1.07668,-4.19225,0.562903,-0.134502,-0.202463,-0.00536311,0.154562,0.244051,0.00644475,0.00693669,0.00648727,5,0.1,5,5.3,3.30486,2.21056,0.601621,-0.0346892,0.575888,-0.00159573,0.172377,0.0159889,0.00157207,0.0135228,0.338326,5,0.1,6,5.3,-0.710088,0.816408,0.553631,0.000819936,0.00109365,-3.08268e-05,-0.000923872,-0.00122562,4.09782e-05,0.0103431,1.61592e-07,5,0.1,7,5.3,3.47125,0.757787,0.586602,-0.0945818,0.866026,0.00731489,0.00853837,-3.72529e-06,-0.000495464,0.0159918,2.26618,5,0.1,8,5.3,-1.35797,3.99137,0.608824,-0.554873,-0.103336,0.0207672,0.189722,-0.377923,0.00604987,0.00851892,0.457601,5,0.1,9,5.3,-1.44993,-1.62266,0.553496,0.014253,-0.00310168,-0.000541005,-0.0966489,0.0199676,0.00345334,0.00898331,0.000373562,5,0.1
0,5.4,1.16534,-3.40572,0.60281,0.323752,0.0120878,-0.00330657,-0.178576,-0.00548363,0.00149012,0.00829886,0.0249752,5,0.1,1,5.4,1.36382,0.279411,0.607384,-0.158125,0.863794,-0.00644773,-0.0118017,-0.0445986,0.00420213,0.0093051,0.916055,5,0.1,2,5.4,0.876935,3.86532,0.605025,-0.833426,0.308311,-0.000239909,0.262439,-0.186205,-5.96046e-05,0.00638812,0.550129,5,0.1,3,5.4,-2.03881,-1.66013,0.600738,0.350654,-0.0445634,-0.000865757,-0.0422001,-0.188529,0.000625849,0.00614342,0.111379,5,0.1,4,5.4,1.06402,-4.21127,0.562399,-0.118476,-0.17767,-0.00470579,0.166476,0.253201,0.00679493,0.00820696,0.00195169,5,0.1,5,5.4,3.30219,2.26801,0.60147,-0.0195503,0.570446,-0.00144094,0.129223,-0.141382,0.00151992,0.0166659,0.237294,5,0.1,6,5.4,-0.710012,0.816511,0.553628,0.000715256,0.000955164,-2.68221e-05,-0.00116229,-0.00151992,5.96046e-05,0.00705233,1.02116e-07,5,0.1,7,5.4,3.46185,0.84439,0.58733,-0.0932097,0.866026,0.00722408,0.022769,0,-0.00160933,0.0146752,2.26652,5,0.1,8,5.4,-1.41237,3.9791,0.61092,-0.531572,-0.141919,0.0210404,0.290334,-0.370622,-0.00119209,0.00743553,0.339569,5,0.1,9,5.4,-1.44894,-1.62288,0.553458,0.0058949,-0.00137091,-0.000241399,-0.0706911,0.014782,0.002563,0.00870875,0.000175103,5,0.1
0,5.5,1.19685,-3.40454,0.602486,0.306438,0.011554,-0.0031624,-0.177369,-0.00555813,0.00149757,0.00829886,0.0249752,5,0.1,1,5.5,1.34786,0.365759,0.606759,-0.161581,0.863923,-0.00606049,-0.0452101,0.00194103,0.00375509,0.0093051,0.916055,5,0.1,2,5.5,0.794782,3.89526,0.605001,-0.809994,0.29065,-0.000246149,0.23919,-0.176176,-4.84288e-05,0.00638812,0.550129,5,0.1,3,5.5,-2.00386,-1.66538,0.600654,0.348911,-0.0591384,-0.000809692,-0.0117943,-0.104405,0.000521541,0.00614342,0.111379,5,0.1,4,5.5,1.05301,-4.22778,0.561962,-0.101891,-0.152779,-0.0040357,0.165179,0.245214,0.00661984,0.00820696,0.00195169,5,0.1,5,5.5,3.30082,2.32437,0.601333,-0.00849925,0.556611,-0.00130367,0.088647,-0.155538,0.00127405,0.0166659,0.237294,5,0.1,6,5.5,-0.709946,0.816598,0.553626,0.000593998,0.000795722,-2.09548e-05,-0.00124425,-0.00163913,5.58794e-05,0.00705233,1.02116e-07,5,0.1,7,5.5,3.45261,0.930992,0.588047,-0.0918683,0.866026,0.00713579,0.00934303,0,-0.000566244,0.0146752,2.26652,5,0.1,8,5.5,-1.46415,3.96296,0.613018,-0.504303,-0.181471,0.0208839,0.272058,-0.396937,-0.00270084,0.00743553,0.339569,5,0.1,9,5.5,-1.44867,-1.62295,0.553445,-0.000135973,-0.000104681,-2.17929e-05,-0.0501573,0.0105798,0.00184029,0.00870875,0.000175103,5,0.1
0,5.6,1.22654,-3.40341,0.602178,0.286677,0.0109076,-0.00298768,-0.224233,-0.00751019,0.00205636,0.0106801,0.0151391,5,0.1,1,5.6,1.33151,0.451935,0.606173,-0.165087,0.856516,-0.00566244,-0.0161529,-0.181526,0.00438094,0.00735551,0.649584,5,0.1,2,5.6,0.715161,3.9234,0.604976,-0.780037,0.271547,-0.000247359,0.382453,-0.212073,0,0.00565564,0.375828,5,0.1,3,5.6,-1.96911,-1.67169,0.600576,0.345045,-0.0657678,-0.000755489,-0.0789762,-0.0299811,0.000596046,0.00620972,0.175208,5,0.1,4,5.6,1.04364,-4.24185,0.561592,-0.085476,-0.128555,-0.00338256,0.162899,0.239372,0.0064671,0.00798608,0.000950813,5,0.1,5,5.6,3.30033,2.3791,0.601209,-0.00219941,0.535971,-0.00117719,0.0368357,-0.270844,0.0012219,0.0173272,0.164602,5,0.1,6,5.6,-0.709893,0.81667,0.553624,0.000470877,0.000631809,-1.63913e-05,-0.0012517,-0.00160933,5.96046e-05,0.00769105,1.10267e-07,5,0.1,7,5.6,3.44348,1.0176,0.588757,-0.0904381,0.866026,0.00703782,0.0228882,0,-0.00163913,0.0149265,2.23201,5,0.1,8,5.6,-1.51314,3.94294,0.615085,-0.47431,-0.217277,0.0203714,0.339389,-0.302553,-0.00801682,0.0073569,0.244678,5,0.1,9,5.6,-1.4489,-1.62291,0.553451,-0.00419319,0.000756979,0.00012815,-0.0312924,0.00673532,0.00119209,0.00816143,6.19215e-05,5,0.1
0,5.7,1.25412,-3.40236,0.601889,0.264893,0.0101708,-0.00278689,-0.219025,-0.00751019,0.00204146,0.0106801,0.0151391,5,0.1,1,5.7,1.31488,0.536801,0.605627,-0.167629,0.84109,-0.00525881,-0.0251457,-0.163354,0.00386685,0.00735551,0.649584,5,0.1,2,5.7,0.63895,3.94955,0.604952,-0.744672,0.251707,-0.000246987,0.351861,-0.192404,1.49012e-05,0.00565564,0.375828,5,0.1,3,5.7,-1.93499,-1.67828,0.600503,0.337115,-0.0648014,-0.000699237,-0.0917241,0.0444502,0.000543892,0.00620972,0.175208,5,0.1,4,5.7,1.03589,-4.25353,0.561285,-0.0696532,-0.105416,-0.00275746,0.152975,0.222951,0.00602007,0.00798608,0.000950813,5,0.1,5,5.7,3.30022,2.4314,0.601097,-0.000695884,0.510153,-0.00106655,-0.0118017,-0.262231,0.00102818,0.0173272,0.164602,5,0.1,6,5.7,-0.709852,0.816725,0.553623,0.000349339,0.00047395,-1.09896e-05,-0.00116602,-0.00152364,4.47035e-05,0.00769105,1.10267e-07,5,0.1,7,5.7,3.43452,1.1042,0.589455,-0.089021,0.866026,0.00694096,0.0104904,0,-0.000692904,0.0149265,2.23201,5,0.1,8,5.7,-1.55896,3.9197,0.617083,-0.442654,-0.247185,0.0195839,0.307895,-0.27746,-0.00836328,0.0073569,0.244678,5,0.1,9,5.7,-1.44946,-1.62281,0.553469,-0.00660494,0.00128169,0.000221375,-0.0173301,0.00383705,0.000681728,0.00816143,6.19215e-05,5,0.1
0,5.8,1.27947,-3.40138,0.601622,0.241652,0.00935793,-0.00256598,-0.25034,-0.00905991,0.00247359,0.00695705,0.00482546,5,0.1,1,5.8,1.29804,0.619881,0.605121,-0.168493,0.817719,-0.00485927,0.0144839,-0.328988,0.00420213,0.00808264,0.449003,5,0.1,2,5.8,0.566371,3.97374,0.604927,-0.705124,0.231773,-0.000242889,0.457495,-0.211239,8.9407e-05,0.00758494,0.253594,5,0.1,3,5.8,-1.90184,-1.68445,0.600436,0.32469,-0.0577837,-0.00064224,-0.164628,0.0916123,0.000625849,0.00600304,0.149888,5,0.1,4,5.8,1.02967,-4.26299,0.561038,-0.0549853,-0.0840545,-0.00218302,0.139773,0.204086,0.00551343,0.00813532,0.00080782,5,0.1,5,5.8,3.3,2.481,0.600995,-0.00469089,0.480729,-0.000967085,-0.064373,-0.337481,0.00104308,0.0172445,0.113425,5,0.1,6,5.8,-0.709823,0.816765,0.553622,0.000239909,0.000329316,-5.96046e-06,-0.00101328,-0.0013411,2.98023e-05,0.00793381,9.19198e-08,5,0.1,7,5.8,3.42568,1.1908,0.590144,-0.0874877,0.866026,0.00683218,0.0238419,0,-0.00175834,0.0142144,1.77334,5,0.1,8,5.8,-1.60165,3.89375,0.618995,-0.410348,-0.269699,0.0185937,0.347853,-0.160575,-0.0118911,0.00625201,0.170845,5,0.1,9,5.8,-1.45018,-1.62266,0.553494,-0.00773966,0.00154376,0.000268221,-0.00578165,0.00137091,0.000238419,0.00705607,1.86545e-05,5,0.1
0,5.9,1.30238,-3.40049,0.601377,0.216503,0.00843927,-0.00231573,-0.25519,-0.00941753,0.00255927,0.00695705,0.00482546,5,0.1,1,5.9,1.28128,0.700119,0.604655,-0.166247,0.787398,-0.00447286,0.0353232,-0.307091,0.00366941,0.00808264,0.449003,5,0.1,2,5.9,0.498018,3.99592,0.604903,-0.662664,0.212211,-0.000234414,0.414047,-0.186488,9.31323e-05,0.00758494,0.253594,5,0.1,3,5.9,-1.8702,-1.68971,0.600375,0.307752,-0.0470785,-0.000582356,-0.181578,0.118233,0.000584871,0.00600304,0.149888,5,0.1,4,5.9,1.02485,-4.27041,0.560847,-0.0417564,-0.0647537,-0.00166288,0.124246,0.181288,0.00486895,0.00813532,0.00080782,5,0.1,5,5.9,3.29911,2.52747,0.600903,-0.0139903,0.449024,-0.000873208,-0.112966,-0.310585,0.000864267,0.0172445,0.113425,5,0.1,6,5.9,-0.709803,0.816791,0.553621,0.000145566,0.00020368,-3.35276e-06,-0.000867993,-0.00115857,2.23517e-05,0.00793381,9.19198e-08,5,0.1,7,5.9,3.41703,1.2774,0.59082,-0.0855934,0.866026,0.00669379,0.0180453,0,-0.0013262,0.0142144,1.77334,5,0.1,8,5.9,-1.64104,3.866,0.620797,-0.378144,-0.284756,0.0174624,0.308089,-0.126198,-0.011269,0.00625201,0.170845,5,0.1,9,5.9,-1.45097,-1.6225,0.553521,-0.00789762,0.00159387,0.000276975,0.00219047,-0.000290573,-5.21541e-05,0.00705607,1.86545e-05,5,0.1
0,6,1.32273,-3.3997,0.601159,0.190237,0.0074625,-0.00204891,-0.271201,-0.0101328,0.00277162,0.00840177,0.00145102,5,0.1,1,6,1.2649,0.777162,0.604226,-0.160635,0.751321,-0.0041008,0.0799894,-0.434667,0.0038743,0.00676745,0.310793,5,0.1,2,6,0.433898,4.01621,0.60488,-0.618555,0.193393,-0.000222027,0.483394,-0.19455,8.9407e-05,0.00882744,0.170104,5,0.1,3,6,-1.84041,-1.69382,0.600319,0.287163,-0.0348955,-0.000523031,-0.234962,0.12219,0.000596046,0.00749916,0.682735,5,0.1,4,6,1.02126,-4.27602,0.560703,-0.0302315,-0.0478864,-0.00121146,0.105977,0.155449,0.00414252,0.00684231,0.000640114,5,0.1,5,6,3.29712,2.57077,0.60082,-0.0257671,0.416261,-0.000789762,-0.11611,-0.353813,0.000864267,0.0176512,0.13043,5,0.1,6,6,-0.709793,0.816806,0.553621,6.85453e-05,9.98378e-05,-1.49012e-06,-0.000655651,-0.000923872,0,0.00672547,5.53668e-08,5,0.1,7,6,3.40858,1.36401,0.591482,-0.0831962,0.866026,0.0065133,0.0326633,0,-0.0025034,0.0149937,1.51851,5,0.1,8,6,-1.6773,3.83705,0.622485,-0.346726,-0.292546,0.0162512,0.328302,-0.0201464,-0.0132918,0.00693842,0.116395,5,0.1,9,6,-1.45174,-1.62235,0.553548,-0.00738204,0.00150204,0.00026077,0.0077486,-0.00143051,-0.000238419,0.00619347,0.400701,5,0.1
0,6.1,1.34041,-3.399,0.600968,0.16334,0.0064496,-0.00177221,-0.266783,-0.0101179,0.00276044,0.00840177,0.00145102,5,0.1,1,6.1,1.24941,0.850243,0.603834,-0.147532,0.710883,-0.00374615,0.17494,-0.398543,0.00334531,0.00676745,0.310793,5,0.1,2,6.1,0.374323,4.03463,0.604858,-0.573842,0.175525,-0.0002129,0.429465,-0.168204,9.68575e-05,0.00882744,0.170104,5,0.1,3,6.1,-1.8127,-1.69662,0.600365,0.268269,-0.0207838,0.00224132,-0.157706,0.146851,0.0486821,0.00749916,0.682735,5,0.1,4,6.1,1.01874,-4.28007,0.560602,-0.0204777,-0.033547,-0.000830926,0.0887588,0.130951,0.00346452,0.00684231,0.000640114,5,0.1,5,6.1,3.29378,2.61072,0.600745,-0.0425864,0.383373,-0.000712276,-0.203893,-0.315666,0.000707805,0.0176512,0.13043,5,0.1,6,6.1,-0.709789,0.816812,0.553621,1.01514e-05,1.71363e-05,-1.39698e-06,-0.000510365,-0.000722706,3.72529e-06,0.00672547,5.53668e-08,5,0.1,7,6.1,3.40041,1.44983,0.592122,-0.0802863,0.843198,0.00629025,0.0287741,-0.441134,-0.00221655,0.0149937,1.51851,5,0.1,8,6.1,-1.71043,3.8077,0.624046,-0.316539,-0.293915,0.0150066,0.285365,0.00432134,-0.0120401,0.00693842,0.116395,5,0.1,9,6.1,-1.45152,-1.62204,0.553464,0.0193341,0.00604093,-0.00286717,0.468574,0.081718,-0.0553727,0.00619347,0.400701,5,0.1
0,6.2,1.35541,-3.39841,0.600804,0.136906,0.00543594,-0.00149608,-0.261664,-0.0100136,0.00277162,0.00835146,0.000779036,5,0.1,1,6.2,1.23564,0.919235,0.603476,-0.12697,0.667503,-0.00341237,0.230193,-0.485659,0.00339746,0.00950627,0.0558872,5,0.1,2,6.2,0.31912,4.05135,0.604838,-0.529523,0.158823,-0.000201166,0.469714,-0.169277,0.000149012,0.0118963,0.113961,5,0.1,3,6.2,-1.78663,-1.69801,0.600872,0.253072,-0.0076592,0.00814497,-0.157058,0.107586,0.0647306,0.00810251,0.633877,5,0.1,4,6.2,1.01711,-4.28282,0.560535,-0.0125229,-0.0217438,-0.000521541,0.0701547,0.104666,0.00277162,0.00696846,0.000390932,5,0.1,5,6.2,3.28846,2.64746,0.600677,-0.0636637,0.351155,-0.00064373,-0.205278,-0.336885,0.000685453,0.0134339,0.168598,5,0.1,6,6.2,-0.70979,0.81681,0.553621,-3.27826e-05,-4.47035e-05,-1.49012e-06,-0.000357628,-0.000476837,2.98023e-05,0.00966771,2.43313e-08,5,0.1,7,6.2,3.39254,1.53133,0.592738,-0.07689,0.780889,0.00602752,0.0413656,-0.789464,-0.00321865,0.0208625,1.42554,5,0.1,8,6.2,-1.74066,3.77845,0.625486,-0.287968,-0.289762,0.0137672,0.293016,0.0865459,-0.0130534,0.0071148,0.133416,5,0.1,9,6.2,-1.44688,-1.62096,0.552856,0.0760317,0.01598,-0.00957996,0.620365,0.108898,-0.0735223,0.0051005,0.28801,5,0.1
0,6.3,1.36782,-3.39791,0.600668,0.111545,0.00445955,-0.00122646,-0.244729,-0.00946224,0.00261143,0.00835146,0.000779036,5,0.1,1,6.3,1.22415,0.983493,0.603149,-0.102548,0.616813,-0.00315029,0.252955,-0.536084,0.00205636,0.00950627,0.0558872,5,0.1,2,6.3,0.268379,4.06644,0.604818,-0.486295,0.143379,-0.000186916,0.410387,-0.144124,0.000145286,0.0118963,0.113961,5,0.1,3,6.3,-1.76186,-1.69825,0.602039,0.244424,0.00220425,0.0153792,-0.0372157,0.0689477,0.0758357,0.00810251,0.633877,5,0.1,4,6.3,1.01618,-4.2845,0.560496,-0.00628289,-0.0123806,-0.000275578,0.0545755,0.0825226,0.00214949,0.00696846,0.000390932,5,0.1,5,6.3,3.28092,2.68116,0.600616,-0.0883047,0.32488,-0.000592135,-0.268862,-0.209227,0.000394881,0.0134339,0.168598,5,0.1,6,6.3,-0.709795,0.816804,0.553621,-6.23986e-05,-8.46572e-05,1.02445e-06,-0.000238419,-0.00031665,1.86265e-05,0.00966771,2.43313e-08,5,0.1,7,6.3,3.38504,1.60468,0.593326,-0.0730913,0.679755,0.00573192,0.0372678,-1.17899,-0.00290573,0.0208625,1.42554,5,0.1,8,6.3,-1.76822,3.74972,0.626807,-0.265129,-0.286236,0.0127431,0.180975,0.00500679,-0.00822544,0.0071148,0.133416,5,0.1,9,6.3,-1.43592,-1.61873,0.55148,0.144921,0.0292338,-0.0182941,0.718676,0.146672,-0.0949092,0.0051005,0.28801,5,0.1
0,6.4,1.37779,-3.39751,0.600559,0.0881106,0.00354648,-0.000976026,-0.223219,-0.00882149,0.00241399,0.00751767,0.000694447,5,0.1,1,6.4,1.21516,1.04236,0.602843,-0.0773221,0.559068,-0.00296533,0.247478,-0.623047,0.00181794,0.00821132,0.161583,5,0.1,2,6.4,0.221806,4.08007,0.6048,-0.444814,0.129211,-0.000172853,0.43001,-0.142097,0.000178814,0.00761662,0.131987,5,0.1,3,6.4,-1.73755,-1.69787,0.603946,0.241917,0.00329912,0.0225976,-0.0287294,-0.0547171,0.0655055,0.00642215,0.566302,5,0.1,4,6.4,1.0158,-4.28537,0.560478,-0.00160635,-0.00523329,-8.9407e-05,0.039041,0.0605583,0.00149012,0.00734665,0.000181604,5,0.1,5,6.4,3.27076,2.71267,0.600558,-0.114202,0.30573,-0.000557303,-0.235438,-0.189066,0.000298023,0.0176491,0.129543,5,0.1,6,6.4,-0.709802,0.816794,0.553621,-7.89762e-05,-0.000108778,1.49012e-06,-0.000149012,-0.000149012,2.98023e-05,0.0068328,8.42911e-09,5,0.1,7,6.4,3.37793,1.66649,0.593884,-0.0689864,0.554523,0.0054121,0.0466108,-1.28555,-0.00363588,0.0148525,1.354,5,0.1,8,6.4,-1.7939,3.72113,0.628043,-0.248775,-0.285137,0.011985,0.158787,0.0321865,-0.00751019,0.00914486,0.0782491,5,0.1,9,6.4,-1.41793,-1.61508,0.549181,0.213054,0.0436544,-0.0275433,0.615656,0.134647,-0.0857711,0.00640685,0.221134,5,0.1
0,6.5,1.38552,-3.3972,0.600473,0.067007,0.00271015,-0.0007472,-0.198014,-0.00788271,0.00214949,0.00751767,0.000694447,5,0.1,1,6.5,1.20863,1.09542,0.602556,-0.0537001,0.504209,-0.0027799,0.221625,-0.494212,0.00194833,0.00821132,0.161583,5,0.1,2,6.5,0.179124,4.09239,0.604784,-0.411661,0.118072,-0.000158697,0.260079,-0.0884533,0.000111759,0.00761662,0.131987,5,0.1,3,6.5,-1.71338,-1.69796,0.606537,0.242369,-0.00742227,0.0291831,0.0210926,-0.191018,0.063058,0.00642215,0.566302,5,0.1,4,6.5,1.01581,-4.28562,0.560476,0.00168607,-5.73695e-05,3.68804e-05,0.0269562,0.043124,0.00103563,0.00734665,0.000181604,5,0.1,5,6.5,3.25847,2.74241,0.600504,-0.128817,0.289813,-0.000533648,-0.064075,-0.142872,0.000201166,0.0176491,0.129543,5,0.1,6,6.5,-0.709811,0.816783,0.553621,-8.89413e-05,-0.00011865,3.91155e-06,-4.84288e-05,-4.47035e-05,1.49012e-05,0.0068328,8.42911e-09,5,0.1,7,6.5,3.37125,1.71539,0.594408,-0.0646811,0.423937,0.00507617,0.0416785,-1.26413,-0.00325963,0.0148525,1.354,5,0.1,8,6.5,-1.81808,3.69273,0.629209,-0.235546,-0.283009,0.0113476,0.117183,0.0239462,-0.0057593,0.00914486,0.0782491,5,0.1,9,6.5,-1.39355,-1.61,0.545965,0.273871,0.0581287,-0.0369374,0.573233,0.146344,-0.0963137,0.00640685,0.221134,5,0.1
0,6.6,1.39128,-3.39697,0.600408,0.0486463,0.00197887,-0.000546873,-0.1688,-0.00679493,0.00184774,0.0120319,0.000546344,5,0.1,1,6.6,1.2043,1.14345,0.602288,-0.0335336,0.456768,-0.00256598,0.179708,-0.469148,0.00235438,0.00720614,0.299668,5,0.1,2,6.6,0.139159,4.10379,0.604768,-0.388099,0.110161,-0.000147521,0.231113,-0.0751019,8.9407e-05,0.00707008,0.0769093,5,0.1,3,6.6,-1.68906,-1.7,0.609746,0.243273,-0.0366598,0.034675,-0.0150204,-0.37998,0.0446141,0.00599854,0.476381,5,0.1,4,6.6,1.0161,-4.28543,0.560484,0.00381768,0.00344515,0.000120699,0.0157952,0.0267029,0.000596046,0.00745599,6.25263e-05,5,0.1,5,6.6,3.2455,2.77067,0.600451,-0.128406,0.274843,-0.00051111,0.0653267,-0.166297,0.000208616,0.0191386,0.270139,5,0.1,6,6.6,-0.70982,0.816771,0.553622,-9.08971e-05,-0.000119209,4.47035e-06,5.96046e-05,5.96046e-05,0,0.00704809,2.01277e-09,5,0.1,7,6.6,3.365,1.75188,0.594899,-0.0602782,0.311014,0.00473261,0.0479221,-0.963271,-0.00378489,0.0169349,1.25599,5,0.1,8,6.6,-1.84104,3.66462,0.630314,-0.223392,-0.278062,0.0107437,0.133932,0.084281,-0.00667572,0.00853113,0.0599919,5,0.1,9,6.6,-1.36355,-1.60349,0.541812,0.32306,0.071463,-0.0458106,0.391662,0.114202,-0.0769198,0.00778546,0.180659,5,0.1
0,6.7,1.39535,-3.3968,0.600362,0.0331171,0.0013534,-0.000376627,-0.141308,-0.00570714,0.00154972,0.0120319,0.000546344,5,0.1,1,6.7,1.20176,1.18698,0.602043,-0.0181891,0.41538,-0.00233892,0.127912,-0.37507,0.00223517,0.00720614,0.299668,5,0.1,2,6.7,0.101359,4.11448,0.604754,-0.368914,0.10394,-0.000140071,0.170427,-0.0544786,6.70552e-05,0.00707008,0.0769093,5,0.1,3,6.7,-1.66475,-1.70599,0.613431,0.243307,-0.0862652,0.0389309,0.00249594,-0.57254,0.0380613,0.00599854,0.476381,5,0.1,4,6.7,1.01654,-4.28498,0.560498,0.00498313,0.00551268,0.000165403,0.00775605,0.014931,0.000305474,0.00745599,6.25263e-05,5,0.1,5,6.7,3.23318,2.79736,0.600401,-0.116302,0.259291,-0.000491086,0.167742,-0.153482,0.000204891,0.0191386,0.270139,5,0.1,6,6.7,-0.709829,0.816759,0.553622,-8.28877e-05,-0.000110641,4.09782e-06,9.68575e-05,0.000111759,-7.45058e-06,0.00704809,2.01277e-09,5,0.1,7,6.7,3.3592,1.77869,0.595354,-0.0558604,0.231965,0.00438392,0.0422746,-0.558309,-0.00333041,0.0169349,1.25599,5,0.1,8,6.7,-1.86281,3.63716,0.631359,-0.212741,-0.271617,0.0102005,0.0908598,0.0587553,-0.00473484,0.00853113,0.0599919,5,0.1,9,6.7,-1.32933,-1.59574,0.53683,0.360355,0.0836896,-0.0538492,0.331886,0.121765,-0.0786074,0.00778546,0.180659,5,0.1
0,6.8,1.398,-3.39669,0.600332,0.0204504,0.000840425,-0.000236928,-0.111818,-0.00452995,0.0012517,0.00748824,0.000326908,5,0.1,1,6.8,1.2005,1.22668,0.601821,-0.00777543,0.378928,-0.00211,0.0814795,-0.365734,0.00235438,0.00970319,0.424525,5,0.1,2,6.8,0.0653385,4.1246,0.60474,-0.35097,0.0983953,-0.00013262,0.201078,-0.0605583,8.9407e-05,0.00813395,0.060069,5,0.1,3,6.8,-1.64046,-1.71753,0.617488,0.24153,-0.144231,0.0418767,-0.0472665,-0.557005,0.0192225,0.00697608,0.390442,5,0.1,4,6.8,1.01707,-4.28437,0.560516,0.00541806,0.00649691,0.000184774,0.00113249,0.00548363,5.96046e-05,0.00968472,1.91995e-05,5,0.1,5,6.8,3.2225,2.82249,0.600353,-0.0965059,0.24268,-0.000466406,0.220656,-0.184655,0.000268221,0.0151536,0.257344,5,0.1,6,6.8,-0.709836,0.816749,0.553622,-7.15256e-05,-9.68575e-05,2.98023e-06,0.000119209,0.000119209,0,0.00709118,1.3815e-09,5,0.1,7,6.8,3.35383,1.8,0.595776,-0.0515163,0.20299,0.00404119,0.0458956,-0.0442863,-0.00360608,0.0168708,1.07165,5,0.1,8,6.8,-1.88362,3.61034,0.632355,-0.203216,-0.263923,0.00970662,0.108063,0.105023,-0.00557303,0.00914686,0.0270438,5,0.1,9,6.8,-1.29188,-1.58681,0.531085,0.385705,0.0943512,-0.0606388,0.160098,0.0854135,-0.053525,0.00684341,0.165078,5,0.1
0,6.9,1.39953,-3.39663,0.600314,0.0105029,0.000436604,-0.000125542,-0.0870451,-0.00351667,0.000976026,0.00748824,0.000326908,5,0.1,1,6.9,1.20013,1.2629,0.601621,0.00022389,0.346527,-0.00188863,0.0717193,-0.295781,0.00211224,0.00970319,0.424525,5,0.1,2,6.9,0.0310926,4.13418,0.604728,-0.335016,0.0936285,-0.000125263,0.136453,-0.0401139,6.33299e-05,0.00813395,0.060069,5,0.1,3,6.9,-1.61651,-1.73435,0.621766,0.237666,-0.188823,0.0436006,-0.0405982,-0.347495,0.0133067,0.00697608,0.390442,5,0.1,4,6.9,1.01761,-4.2837,0.560534,0.00529811,0.00668317,0.000182539,-0.00327826,-0.00143051,-9.68575e-05,0.00968472,1.91995e-05,5,0.1,5,6.9,3.21399,2.84585,0.600308,-0.0734836,0.224732,-0.000439212,0.233769,-0.179827,0.000283122,0.0151536,0.257344,5,0.1,6,6.9,-0.709843,0.81674,0.553623,-5.9139e-05,-8.33534e-05,2.8871e-06,0.000130385,0.000145286,-3.72529e-06,0.00709118,1.3815e-09,5,0.1,7,6.9,3.34889,1.82106,0.596163,-0.0473011,0.226381,0.00371002,0.0399202,0.443161,-0.00313669,0.0168708,1.07165,5,0.1,8,6.9,-1.90342,3.58449,0.633299,-0.192761,-0.252955,0.00916682,0.107273,0.121534,-0.00551343,0.00914686,0.0270438,5,0.1,9,6.9,-1.25251,-1.57687,0.524874,0.401115,0.104799,-0.0624557,0.127777,0.112474,0.0136979,0.00684341,0.165078,5,0.1
0,7,1.40018,-3.3966,0.600306,0.00303388,0.00013113,-4.17233e-05,-0.0624061,-0.0025034,0.000685453,0.0110755,0.000147192,5,0.1,1,7,1.20045,1.2961,0.601442,0.00552237,0.317463,-0.00167936,0.0305772,-0.295162,0.00211596,0.00579249,0.666063,5,0.1,2,7,-0.00171016,4.14334,0.604715,-0.320536,0.0894666,-0.000119209,0.166125,-0.0469685,8.9407e-05,0.00749095,0.0273968,5,0.1,3,7,-1.59301,-1.7547,0.62617,0.231624,-0.215656,0.0442147,-0.0875592,-0.195801,-0.00226498,0.00784374,0.315985,5,0.1,4,7,1.01812,-4.28305,0.560552,0.00481009,0.00628233,0.000166893,-0.00625849,-0.00619888,-0.000208616,0.0100365,9.73528e-06,5,0.1,5,7,3.20779,2.8674,0.600266,-0.0507891,0.205803,-0.000408292,0.215769,-0.202179,0.00038743,0.0148682,0.424535,5,0.1,6,7,-0.709848,0.816732,0.553623,-4.61936e-05,-6.85453e-05,1.49012e-06,0.000119209,0.000149012,2.98023e-05,0.00701613,1.52492e-09,5,0.1,7,7,3.34436,1.84625,0.596518,-0.043267,0.279441,0.00339448,0.041604,0.565112,-0.00330806,0.0166242,0.889374,5,0.1,8,7,-1.92212,3.55987,0.634186,-0.18073,-0.238454,0.00855774,0.137508,0.173092,-0.00685453,0.00897547,0.0102854,5,0.1,9,7,-1.21195,-1.56586,0.518784,0.40786,0.114939,-0.0585601,-0.00655651,0.0823736,0.0610948,0.00711354,0.494893,5,0.1
0,7.1,1.40021,-3.3966,0.600305,-0.00223648,-8.15839e-05,1.62981e-05,-0.0432357,-0.00174344,0.000480562,0.0110755,0.000147192,5,0.1,1,7.1,1.2012,1.32664,0.601285,0.00925027,0.295624,-0.00148416,0.0205487,-0.162579,0.00182539,0.00579249,0.666063,5,0.1,2,7.1,-0.0329565,4.15206,0.604704,-0.304371,0.0849538,-0.000110921,0.166904,-0.0461638,8.56817e-05,0.00749095,0.0273968,5,0.1,3,7.1,-1.57025,-1.77692,0.630579,0.223613,-0.226801,0.043894,-0.0812709,-0.0738576,-0.00573695,0.00784374,0.315985,5,0.1,4,7.1,1.01856,-4.28246,0.560567,0.00408869,0.00549629,0.000142679,-0.00793487,-0.00920892,-0.000268221,0.0100365,9.73528e-06,5,0.1,5,7.1,3.20379,2.88695,0.600227,-0.0294015,0.185043,-0.000368431,0.20209,-0.213981,0.000417233,0.0148682,0.424535,5,0.1,6,7.1,-0.709852,0.816726,0.553623,-3.43658e-05,-5.32717e-05,3.53903e-06,0.000115484,0.000156462,7.45058e-06,0.00701613,1.52492e-09,5,0.1,7,7.1,3.34007,1.87741,0.596842,-0.043907,0.346046,0.00309246,-0.0432432,0.714533,-0.00283495,0.0166242,0.889374,5,0.1,8,7.1,-1.9395,3.53692,0.635008,-0.166728,-0.220362,0.00786297,0.145391,0.191763,-0.00716746,0.00897547,0.0102854,5,0.1,9,7.1,-1.17267,-1.55441,0.513395,0.365008,0.110049,-0.0478528,-0.771277,-0.157841,0.143006,0.00711354,0.494893,5,0.1
0,7.2,1.3998,-3.39662,0.600308,-0.00566542,-0.000220537,5.51343e-05,-0.0256896,-0.000953674,0.000298023,0.0117456,4.99489e-05,5,0.1,1,7.2,1.20207,1.35547,0.601145,0.00635684,0.281298,-0.00130683,-0.087738,-0.139475,0.00175834,0.00582574,0.596114,5,0.1,2,7.2,-0.0624935,4.16031,0.604693,-0.285546,0.0797749,-0.000102818,0.215957,-0.0593662,5.96046e-05,0.00715885,0.0106545,5,0.1,3,7.2,-1.54834,-1.8,0.634923,0.213924,-0.235155,0.0428051,-0.118494,-0.0936985,-0.0171065,0.00726897,0.249353,5,0.1,4,7.2,1.01893,-4.28196,0.56058,0.00326037,0.00450611,0.000114739,-0.00840425,-0.0104904,-0.000298023,0.0110379,9.0552e-06,5,0.1,5,7.2,3.20177,2.90436,0.600192,-0.0119388,0.162882,-0.000324845,0.141501,-0.229597,0.000447035,0.0123014,1.51491,5,0.1,6,7.2,-0.709855,0.816721,0.553624,-2.38419e-05,-3.8743e-05,4.47035e-06,0.000119209,0.000119209,0,0.00739939,1.39226e-09,5,0.1,7,7.2,3.3354,1.91547,0.597137,-0.0499427,0.413275,0.00281036,-0.0690222,0.591815,-0.00286102,0.0178227,0.190618,5,0.1,8,7.2,-1.95542,3.51589,0.635757,-0.151202,-0.199646,0.00710338,0.166774,0.224113,-0.00807643,0.00986633,0.00518787,5,0.1,9,7.2,-1.14075,-1.54444,0.509391,0.267792,0.0873864,-0.0317469,-1.11037,-0.277519,0.171304,0.00723628,0.337142,5,0.1
0,7.3,1.39912,-3.39664,0.600315,-0.00757463,-0.00029169,7.77654e-05,-0.0128746,-0.000491738,0.000152737,0.0117456,4.99489e-05,5,0.1,1,7.3,1.20215,1.38305,0.601023,-0.00716448,0.271474,-0.00114664,-0.216588,-0.0735447,0.00148267,0.00582574,0.596114,5,0.1,2,7.3,-0.089957,4.16799,0.604683,-0.263497,0.0737287,-9.62988e-05,0.22944,-0.0628531,7.45058e-05,0.00715885,0.0106545,5,0.1,3,7.3,-1.52751,-1.82422,0.63912,0.202918,-0.250817,0.0411197,-0.108711,-0.192605,-0.0179149,0.00726897,0.249353,5,0.1,4,7.3,1.01921,-4.28156,0.56059,0.00241343,0.00342652,8.50298e-05,-0.0083819,-0.0108778,-0.000294298,0.0110379,9.0552e-06,5,0.1,5,7.3,3.2014,2.91953,0.600162,0.00442304,0.140711,-0.000281725,0.140354,-0.215039,0.000420958,0.0123014,1.51491,5,0.1,6,7.3,-0.709857,0.816718,0.553624,-1.29454e-05,-2.69152e-05,4.00469e-06,9.31323e-05,0.000115484,-1.11759e-05,0.00739939,1.39226e-09,5,0.1,7,7.3,3.33015,1.95938,0.597405,-0.0542738,0.460858,0.00255033,-0.0189841,0.349112,-0.00242889,0.0178227,0.190618,5,0.1,8,7.3,-1.96972,3.49704,0.636427,-0.134839,-0.177447,0.00631269,0.162639,0.222087,-0.00783056,0.00986633,0.00518787,5,0.1,9,7.3,-1.11995,-1.53724,0.507109,0.145286,0.0555281,-0.0137218,-1.28773,-0.344694,0.182759,0.00723628,0.337142,5,0.1
0,7.4,1.39832,-3.39667,0.600323,-0.00831783,-0.000321865,8.79169e-05,-0.00238419,0,2.98023e-05,0.0108551,1.50883e-05,5,0.1,1,7.4,1.2,1.40983,0.600915,-0.0389725,0.263739,-0.00100583,-0.405848,-0.0930429,0.00137091,0.00577775,0.502759,5,0.1,2,7.4,-0.115109,4.17503,0.604674,-0.238962,0.0669956,-8.9407e-05,0.263803,-0.0724792,0.000119209,0.00668432,0.0055341,5,0.1,3,7.4,-1.50779,-1.85024,0.643132,0.190991,-0.269011,0.0390038,-0.134647,-0.151694,-0.0252426,0.00813864,0.188063,5,0.1,4,7.4,1.01941,-4.28127,0.560597,0.00161529,0.00237226,5.66244e-05,-0.00756979,-0.0100136,-0.000268221,0.0100454,7.55342e-06,5,0.1,5,7.4,3.20227,2.93254,0.600136,0.00963211,0.11968,-0.000239909,-0.0556707,-0.20659,0.000417233,0.0121075,3.11698,5,0.1,6,7.4,-0.709858,0.816716,0.553624,-4.47035e-06,-1.63913e-05,2.98023e-06,8.9407e-05,0.000119209,0,0.00727292,1.11871e-09,5,0.1,7,7.4,3.3247,2.00674,0.597648,-0.0540197,0.481504,0.00231117,0.0225306,0.0585318,-0.00244379,0.0160092,0.522348,5,0.1,8,7.4,-1.98238,3.48041,0.637019,-0.118336,-0.154901,0.00551939,0.168622,0.230193,-0.00801682,0.00719619,0.00158619,5,0.1,9,7.4,-1.1118,-1.53342,0.506626,0.019303,0.0210613,0.00369251,-1.1934,-0.333309,0.160873,0.00893191,0.169995,5,0.1
0,7.5,1.39749,-3.3967,0.600332,-0.00818167,-0.000311062,8.69855e-05,0.00470132,0.000223517,-4.47035e-05,0.0108551,1.50883e-05,5,0.1,1,7.5,1.19364,1.43583,0.600821,-0.0914004,0.256702,-0.000882056,-0.601679,-0.0608787,0.00112876,0.00577775,0.502759,5,0.1,2,7.5,-0.137704,4.18137,0.604666,-0.213053,0.0598811,-7.79517e-05,0.257726,-0.0708401,0.000108033,0.00668432,0.0055341,5,0.1,3,7.5,-1.48933,-1.87799,0.646912,0.178497,-0.286288,0.0365991,-0.121117,-0.172921,-0.0239536,0.00813864,0.188063,5,0.1,4,7.5,1.01954,-4.28108,0.560602,0.000899471,0.00141263,3.15718e-05,-0.00665337,-0.0090003,-0.000234693,0.0100454,7.55342e-06,5,0.1,5,7.5,3.20284,2.94352,0.600114,-0.00282712,0.100331,-0.000200886,-0.316158,-0.18169,0.000361353,0.0121075,3.11698,5,0.1,6,7.5,-0.709858,0.816715,0.553625,3.1665e-06,-5.4948e-06,2.51457e-06,6.70552e-05,9.31323e-05,-1.11759e-05,0.00727292,1.11871e-09,5,0.1,7,7.5,3.31945,2.05547,0.597868,-0.0505775,0.494919,0.00208998,0.0452399,0.170723,-0.00205263,0.0160092,0.522348,5,0.1,8,7.5,-1.99338,3.46606,0.637532,-0.101775,-0.132267,0.00473317,0.163034,0.222668,-0.00772625,0.00719619,0.00158619,5,0.1,9,7.5,-1.11556,-1.53292,0.507752,-0.0912139,-0.010303,0.0183007,-0.998683,-0.288427,0.129208,0.00893191,0.169995,5,0.1
0,7.6,1.3967,-3.39673,0.600341,-0.00745356,-0.000280142,8.04663e-05,0.00941753,0.000357628,-0.000119209,0.00911648,8.47616e-06,5,0.1,1,7.6,1.18145,1.46116,0.600738,-0.15212,0.24932,-0.00077486,-0.581801,-0.0961423,0.00101328,0.00787031,0.398657,5,0.1,2,7.6,-0.15771,4.18701,0.604658,-0.186897,0.0526667,-6.85453e-05,0.26723,-0.0736713,0.000149012,0.00713833,0.0016718,5,0.1,3,7.6,-1.4721,-1.90738,0.650447,0.165778,-0.300029,0.0340283,-0.137329,-0.0870228,-0.0281334,0.00910515,0.136318,5,0.1,4,7.6,1.0196,-4.28098,0.560604,0.000303984,0.000596046,1.04308e-05,-0.00530481,-0.00762939,-0.000178814,0.00959266,4.80453e-06,5,0.1,5,7.6,3.2,2.95268,0.600095,-0.0634611,0.0831187,-0.000165403,-0.872612,-0.163674,0.000298023,0.01284,3.20742,5,0.1,6,7.6,-0.709857,0.816715,0.553625,7.45058e-06,2.98023e-06,1.49012e-06,5.96046e-05,5.96046e-05,0,0.00723689,7.28725e-10,5,0.1,7,7.6,3.31465,2.10574,0.598067,-0.0451803,0.50894,0.00188947,0.0613928,0.0816584,-0.00202656,0.0199886,0.410739,5,0.1,8,7.6,-2.00275,3.45393,0.637967,-0.0856817,-0.110358,0.00397265,0.159144,0.215411,-0.00751019,0.00711066,0.000801679,5,0.1,9,7.6,-1.12923,-1.53528,0.510162,-0.177455,-0.0357091,0.0292033,-0.714481,-0.215948,0.0876188,0.0107708,0.127467,5,0.1
0,7.7,1.39601,-3.39676,0.600348,-0.00635553,-0.000239536,6.73346e-05,0.0121966,0.000432134,-0.000137836,0.00911648,8.47616e-06,5,0.1,1,7.7,1.16321,1.48566,0.600665,-0.212972,0.241136,-0.00068415,-0.60413,-0.0781342,0.000827014,0.00787031,0.398657,5,0.1,2,7.7,-0.17508,4.19191,0.604652,-0.160646,0.0454172,-5.52274e-05,0.258437,-0.0715256,0.000122935,0.00713833,0.0016718,5,0.1,3,7.7,-1.45617,-1.93785,0.653715,0.153095,-0.309206,0.0313926,-0.121236,-0.0799969,-0.0255033,0.00910515,0.136318,5,0.1,4,7.7,1.0196,-4.28096,0.560604,-0.000170246,-9.0152e-05,-5.58794e-06,-0.00412762,-0.00604987,-0.000141561,0.00959266,4.80453e-06,5,0.1,5,7.7,3.18795,2.95992,0.60008,-0.188134,0.059789,-0.000137649,-1.50689,-0.2857,0.00026077,0.01284,3.20742,5,0.1,6,7.7,-0.709856,0.816715,0.553625,1.18278e-05,8.28877e-06,1.11759e-06,3.35276e-05,4.09782e-05,-7.45058e-06,0.00723689,7.28725e-10,5,0.1,7,7.7,3.31047,2.15717,0.598246,-0.0381161,0.520062,0.00170683,0.0775605,0.11009,-0.00168756,0.0199886,0.410739,5,0.1,8,7.7,-2.01054,3.44395,0.638327,-0.0703037,-0.0895869,0.00324817,0.148147,0.199482,-0.00696257,0.00711066,0.000801679,5,0.1,9,7.7,-1.15038,-1.53989,0.513492,-0.243252,-0.0559254,0.0370735,-0.582375,-0.182651,0.0675693,0.0107708,0.127467,5,0.1
0,7.8,1.39544,-3.39678,0.600354,-0.0050813,-0.000190735,5.36442e-05,0.013113,0.000357628,-0.000149012,0.00635369,8.08046e-06,5,0.1,1,7.8,1.13907,1.50935,0.600601,-0.26761,0.231895,-0.000604987,-0.466526,-0.114024,0.000745058,0.00607116,0.300013,5,0.1,2,7.8,-0.189863,4.19609,0.604647,-0.135133,0.0383377,-4.47035e-05,0.251971,-0.0700951,0.000119209,0.00800589,0.000769388,5,0.1,3,7.8,-1.44147,-1.96904,0.656725,0.140703,-0.313243,0.0287727,-0.129998,0.0106096,-0.0275671,0.0104108,0.163453,5,0.1,4,7.8,1.01957,-4.281,0.560603,-0.00051856,-0.000607967,-1.78814e-05,-0.00274181,-0.00405312,-8.9407e-05,0.00907015,2.13105e-06,5,0.1,5,7.8,3.16132,2.96439,0.600068,-0.344813,0.0290453,-0.000113249,-1.54018,-0.315666,0.000238419,0.0126558,2.71434,5,0.1,6,7.8,-0.709855,0.816716,0.553625,1.3411e-05,1.19209e-05,0,2.98023e-05,2.98023e-05,0,0.00739502,4.90158e-10,5,0.1,7,7.8,3.30706,2.20957,0.598409,-0.0300765,0.525743,0.00154078,0.0811815,-0.017643,-0.00160933,0.0181626,0.300227,5,0.1,8,7.8,-2.01685,3.43596,0.638618,-0.0561059,-0.07056,0.00258386,0.135541,0.180602,-0.0063777,0.00739042,0.000676041,5,0.1,9,7.8,-1.17727,-1.5463,0.51749,-0.290811,-0.0712961,0.042361,-0.356615,-0.120997,0.0367761,0.0103896,0.0602857,5,0.1
0,7.9,1.395,-3.3968,0.600359,-0.00375845,-0.000152737,3.88362e-05,0.0130832,0.000417233,-0.000145286,0.00635369,8.08046e-06,5,0.1,1,7.9,1.10999,1.53201,0.600544,-0.313208,0.221625,-0.000538304,-0.42145,-0.100002,0.000603497,0.00607116,0.300013,5,0.1,2,7.9,-0.202145,4.19958,0.604643,-0.110786,0.031551,-3.40864e-05,0.23451,-0.0655353,9.68575e-05,0.00800589,0.000769388,5,0.1,3,7.9,-1.42794,-2.00058,0.659486,0.130747,-0.319218,0.0266024,-0.0777245,-0.10132,-0.0174828,0.0104108,0.163453,5,0.1,4,7.9,1.0195,-4.28108,0.560601,-0.000743568,-0.000945479,-2.51457e-05,-0.00175834,-0.00271201,-5.96046e-05,0.00907015,2.13105e-06,5,0.1,5,7.9,3.1187,2.96565,0.600058,-0.50981,-0.00435188,-9.1549e-05,-1.67115,-0.33927,0.00019744,0.0126558,2.71434,5,0.1,6,7.9,-0.709854,0.816718,0.553625,1.51806e-05,1.42492e-05,-3.72529e-07,1.11759e-05,1.11759e-05,-7.45058e-06,0.00739502,4.90158e-10,5,0.1,7,7.9,3.30446,2.26212,0.598555,-0.0217564,0.52527,0.00139549,0.0820756,-0.0163019,-0.0013411,0.0181626,0.300227,5,0.1,8,7.9,-2.02181,3.42977,0.638846,-0.043286,-0.0535425,0.00198223,0.120446,0.159189,-0.00563264,0.00739042,0.000676041,5,0.1,9,7.9,-1.2079,-1.55397,0.521878,-0.319164,-0.0813574,0.045059,-0.202231,-0.077635,0.0162981,0.0103896,0.0602857,5,0.1
0,8,1.39469,-3.39681,0.600362,-0.00250638,-0.000113249,2.68221e-05,0.0117421,0.000476837,-0.000149012,0.00615898,6.554e-06,5,0.1,1,8,1.0768,1.55364,0.600493,-0.347859,0.210434,-0.000481308,-0.255108,-0.1297,0.000596046,0.00619786,0.214327,5,0.1,2,8,-0.212083,4.20242,0.60464,-0.0883184,0.0252604,-2.5332e-05,0.214435,-0.0600815,5.96046e-05,0.00716533,0.00062815,5,0.1,3,8,-1.41523,-2.03299,0.662064,0.123668,-0.328541,0.0249907,-0.0701547,-0.0641346,-0.0159442,0.0113272,0.0989208,5,0.1,4,8,1.01942,-4.28118,0.560598,-0.000870228,-0.00114441,-2.83122e-05,-0.000715256,-0.00143051,-5.96046e-05,0.00776266,7.28263e-07,5,0.1,5,8,3.05975,2.96356,0.600049,-0.663793,-0.0365496,-7.45058e-05,-1.34468,-0.295281,0.000208616,0.0125312,2.39889,5,0.1,6,8,-0.709852,0.816719,0.553625,1.3411e-05,1.49012e-05,-1.49012e-06,2.98023e-05,0,2.98023e-05,0.00691725,5.3587e-10,5,0.1,7,8,3.30268,2.3144,0.598688,-0.014174,0.518358,0.00126362,0.0675917,-0.13876,-0.0013113,0.021418,0.214629,5,0.1,8,8,-2.02556,3.42517,0.639017,-0.0320792,-0.0388145,0.00145882,0.103354,0.134945,-0.00476837,0.0115202,0.000524378,5,0.1,9,8,-1.24051,-1.56241,0.526426,-0.330022,-0.0864297,0.0454947,-0.0109076,-0.022471,-0.00798702,0.00625824,0.0222465,5,0.1
0,8.1,1.39449,-3.39682,0.600364,-0.00139438,-6.78003e-05,1.32248e-05,0.0103414,0.000417233,-0.00012666,0.00615898,6.554e-06,5,0.1,1,8.1,1.04078,1.57408,0.600448,-0.371573,0.19854,-0.000428595,-0.200249,-0.115298,0.000476837,0.00619786,0.214327,5,0.1,2,8.1,-0.219881,4.20466,0.604638,-0.0680432,0.0195645,-1.98372e-05,0.190444,-0.0536144,4.84288e-05,0.00716533,0.00062815,5,0.1,3,8.1,-1.40317,-2.06622,0.664492,0.117839,-0.336049,0.0236353,-0.0520572,-0.0674874,-0.0122488,0.0113272,0.0989208,5,0.1,4,8.1,1.01933,-4.2813,0.560595,-0.000908226,-0.00123456,-3.21306e-05,-5.96046e-05,-0.00038743,-1.86265e-05,0.00776266,7.28263e-07,5,0.1,5,8.1,2.98727,2.95848,0.600043,-0.778782,-0.0644691,-5.6345e-05,-0.926405,-0.255615,0.000152737,0.0125312,2.39889,5,0.1,6,8.1,-0.709851,0.816721,0.553625,1.4808e-05,1.44355e-05,5.58794e-07,3.72529e-06,-1.11759e-05,7.45058e-06,0.00691725,5.3587e-10,5,0.1,7,8.1,3.30159,2.3656,0.598809,-0.00797287,0.505583,0.00114553,0.0519156,-0.136584,-0.00109524,0.021418,0.214629,5,0.1,8,8.1,-2.02828,3.42193,0.639141,-0.0225417,-0.0264276,0.00101952,0.087142,0.112489,-0.00400469,0.0115202,0.000524378,5,0.1,9,8.1,-1.27338,-1.5711,0.530912,-0.325377,-0.0869762,0.043988,0.105709,0.0122488,-0.0222847,0.00625824,0.0222465,5,0.1
0,8.2,1.3944,-3.39683,0.600365,-0.000458956,-2.98023e-05,2.98023e-06,0.00810623,0.000238419,-8.9407e-05,0.00626716,3.9254e-06,5,0.1,1,8.2,1.00284,1.59333,0.600407,-0.38476,0.186181,-0.00038296,-0.0508726,-0.136852,0.000417233,0.00656637,0.147202,5,0.1,2,8.2,-0.225778,4.20636,0.604636,-0.0503309,0.0145674,-1.63913e-05,0.163406,-0.0462532,5.96046e-05,0.00785576,0.000499033,5,0.1,3,8.2,-1.39165,-2.10005,0.666794,0.112292,-0.338906,0.0223562,-0.0629425,0.0232458,-0.0140965,0.00962458,0.0765503,5,0.1,4,8.2,1.01924,-4.28142,0.560592,-0.000885129,-0.00122786,-3.42727e-05,0.000536442,0.000476837,5.96046e-05,0.00736017,2.02617e-07,5,0.1,5,8.2,2.90561,2.95087,0.600038,-0.845695,-0.0864327,-4.17233e-05,-0.406504,-0.178337,8.9407e-05,0.0125858,1.94395,5,0.1,6,8.2,-0.709849,0.816722,0.553625,1.3411e-05,1.3411e-05,1.49012e-06,0,-2.98023e-05,0,0.00738625,4.01405e-10,5,0.1,7,8.2,3.301,2.41534,0.598918,-0.00441074,0.487709,0.00103861,0.017643,-0.234365,-0.00107288,0.0220321,0.151313,5,0.1,8,8.2,-2.03013,3.41981,0.639224,-0.0146866,-0.0163615,0.000658631,0.0699759,0.0886917,-0.00321865,0.00965843,0.00031521,5,0.1,9,8.2,-1.30519,-1.57968,0.535175,-0.308698,-0.0839025,0.0410348,0.22763,0.049293,-0.0366867,0.00756092,0.00905025,5,0.1
0,8.3,1.39439,-3.39683,0.600364,0.000268593,-6.33299e-06,-4.74975e-06,0.0063777,0.000223517,-7.07805e-05,0.00626716,3.9254e-06,5,0.1,1,8.3,0.964134,1.6113,0.600371,-0.388664,0.173587,-0.000345986,-0.011947,-0.120915,0.000339001,0.00656637,0.147202,5,0.1,2,8.3,-0.230036,4.20759,0.604635,-0.0352611,0.0102922,-1.13621e-05,0.137596,-0.0391603,3.72529e-05,0.00785576,0.000499033,5,0.1,3,8.3,-1.38069,-2.13391,0.668968,0.107286,-0.338721,0.0212071,-0.0430495,-0.000238419,-0.0100136,0.00962458,0.0765503,5,0.1,4,8.3,1.01916,-4.28154,0.560588,-0.000813045,-0.00114962,-2.84053e-05,0.000871718,0.00104308,5.58794e-05,0.00736017,2.02617e-07,5,0.1,5,8.3,2.81979,2.94159,0.600034,-0.864753,-0.0966523,-3.39933e-05,-0.0508577,-0.0338703,7.07805e-05,0.0125858,1.94395,5,0.1,6,8.3,-0.709848,0.816723,0.553625,1.22935e-05,1.05239e-05,1.02445e-06,-1.49012e-05,-2.6077e-05,-1.11759e-05,0.00738625,4.01405e-10,5,0.1,7,8.3,3.3006,2.46301,0.599017,-0.00417866,0.465747,0.000941847,-0.0192076,-0.221178,-0.000890344,0.0220321,0.151313,5,0.1,8,8.3,-2.03127,3.41858,0.639275,-0.008424,-0.0084836,0.000371225,0.0552088,0.0688285,-0.00252575,0.00965843,0.00031521,5,0.1,9,8.3,-1.33484,-1.5878,0.539086,-0.283455,-0.0781665,0.037095,0.278197,0.0658259,-0.0421442,0.00756092,0.00905025,5,0.1
0,8.4,1.39445,-3.39683,0.600364,0.000807643,1.19209e-05,-8.9407e-06,0.00429153,0.000119209,-5.96046e-05,0.00806223,1.74936e-06,5,0.1,1,8.4,0.925374,1.62805,0.600338,-0.38462,0.161007,-0.000312924,0.102878,-0.134706,0.000327826,0.00955915,0.170873,5,0.1,2,8.4,-0.232919,4.20844,0.604634,-0.0228647,0.00675917,-7.45058e-06,0.110194,-0.0314713,2.98023e-05,0.00707668,0.000309367,5,0.1,3,8.4,-1.37018,-2.16769,0.671038,0.102687,-0.335699,0.0201643,-0.0530481,0.074029,-0.0116825,0.00641589,0.0349907,5,0.1,4,8.4,1.01908,-4.28165,0.560586,-0.000712276,-0.0010252,-2.23517e-05,0.00113249,0.00166893,5.96046e-05,0.00667935,1.03832e-07,5,0.1,5,8.4,2.73322,2.93195,0.600031,-0.866026,-0.0946641,-2.83122e-05,0,0.0668764,5.96046e-05,0.014804,1.94766,5,0.1,6,8.4,-0.709847,0.816724,0.553625,8.9407e-06,7.45058e-06,1.49012e-06,0,0,-2.98023e-05,0.00911232,4.65723e-10,5,0.1,7,8.4,3.3,2.50839,0.599106,-0.00856519,0.440741,0.000853837,-0.0654459,-0.290155,-0.000864267,0.0135426,0.162189,5,0.1,8,8.4,-2.03186,3.41805,0.639301,-0.00364184,-0.00258684,0.000153482,0.0405312,0.0493526,-0.00184774,0.00690801,0.000143861,5,0.1,9,8.4,-1.3617,-1.59525,0.542576,-0.253007,-0.070703,0.0326142,0.330389,0.0833869,-0.0473857,0.00782273,0.00266467,5,0.1
0,8.5,1.39455,-3.39683,0.600363,0.00116192,2.34693e-05,-1.35973e-05,0.00277162,0.000104308,-3.72529e-05,0.00806223,1.74936e-06,5,0.1,1,8.5,0.887182,1.64343,0.600308,-0.380945,0.146333,-0.000288617,-0.00150129,-0.158668,0.000182539,0.00955915,0.170873,5,0.1,2,8.5,-0.234693,4.20897,0.604633,-0.0130109,0.0039354,-4.93601e-06,0.0868179,-0.0249743,1.86265e-05,0.00707668,0.000309367,5,0.1,3,8.5,-1.36017,-2.20086,0.672998,0.0975063,-0.327099,0.0190335,-0.0536516,0.107706,-0.0115298,0.00641589,0.0349907,5,0.1,4,8.5,1.01902,-4.28175,0.560584,-0.000593625,-0.000853837,-1.68569e-05,0.00121444,0.00178814,4.84288e-05,0.00667935,1.03832e-07,5,0.1,5,8.5,2.64661,2.92299,0.600028,-0.866026,-0.08296,-2.34693e-05,0,0.154436,4.47035e-05,0.014804,1.94766,5,0.1,6,8.5,-0.709846,0.816725,0.553625,7.82311e-06,6.98492e-06,-1.02445e-06,-1.49012e-05,-1.11759e-05,-1.86265e-05,0.00911232,4.65723e-10,5,0.1,7,8.5,3.29856,2.55109,0.599188,-0.0222292,0.413651,0.000775792,-0.189528,-0.265166,-0.000722706,0.0135426,0.162189,5,0.1,8,8.5,-2.03204,3.41801,0.639308,-0.000175461,0.00157431,-4.09782e-06,0.0289232,0.0340939,-0.00130385,0.00690801,0.000143861,5,0.1,9,8.5,-1.38532,-1.6019,0.545598,-0.219059,-0.0619929,0.0278161,0.346825,0.0903606,-0.0483207,0.00782273,0.00266467,5,0.1
0,8.6,1.39468,-3.39682,0.600361,0.00136197,2.98023e-05,-1.63913e-05,0.00119209,0.000119209,0,0.0100661,5.64176e-07,5,0.1,1,8.6,0.849095,1.65724,0.60028,-0.380121,0.129336,-0.000274181,0.0380874,-0.180662,0.000178814,0.00668465,0.108793,5,0.1,2,8.6,-0.235599,4.20925,0.604633,-0.00549555,0.0017643,-2.98023e-06,0.0636056,-0.0183582,0,0.00809049,0.000145638,5,0.1,3,8.6,-1.35071,-2.23291,0.67484,0.0914484,-0.312573,0.0177622,-0.069499,0.188828,-0.0143349,0.0093259,0.0132967,5,0.1,4,8.6,1.01896,-4.28182,0.560582,-0.000473857,-0.000679493,-1.19209e-05,0.0012517,0.00166893,2.98023e-05,0.0074064,1.13863e-07,5,0.1,5,8.6,2.56001,2.91553,0.600026,-0.866026,-0.0659704,-1.93715e-05,0,0.176191,0,0.0113468,1.53611,5,0.1,6,8.6,-0.709845,0.816725,0.553625,5.96046e-06,5.96046e-06,-2.98023e-06,-2.98023e-05,0,-2.98023e-05,0.00710991,4.00483e-10,5,0.1,7,8.6,3.29531,2.59108,0.599262,-0.0432372,0.385433,0.000704825,-0.216603,-0.308514,-0.000715256,0.0240289,0.208022,5,0.1,8,8.6,-2.03193,3.41831,0.639301,0.00217557,0.00427365,-0.000110269,0.018239,0.0203848,-0.000804663,0.00660857,4.99525e-05,5,0.1,9,8.6,-1.40548,-1.60763,0.548138,-0.184003,-0.0527263,0.0230029,0.352502,0.0944734,-0.0477135,0.00876887,0.00182312,5,0.1
0,8.7,1.39482,-3.39682,0.600359,0.00142809,3.94881e-05,-1.59256e-05,0.000141561,5.96046e-05,1.11759e-05,0.0100661,5.64176e-07,5,0.1,1,8.7,0.811214,1.6692,0.600253,-0.377639,0.109481,-0.000260491,0.029508,-0.212185,0.000115484,0.00668465,0.108793,5,0.1,2,8.7,-0.235862,4.20934,0.604633,-6.26082e-05,0.000187755,-2.98023e-06,0.0452539,-0.0132322,0,0.00809049,0.000145638,5,0.1,3,8.7,-1.34192,-2.26318,0.676544,0.0843475,-0.292133,0.0163116,-0.0739172,0.22395,-0.0149496,0.0093259,0.0132967,5,0.1,4,8.7,1.01892,-4.28188,0.560581,-0.000352599,-0.000516325,-8.9407e-06,0.00116974,0.00157952,2.98023e-05,0.0074064,1.13863e-07,5,0.1,5,8.7,2.47341,2.90984,0.600024,-0.865841,-0.0478201,-1.93715e-05,0.00737607,0.172019,0,0.0113468,1.53611,5,0.1,6,8.7,-0.709845,0.816726,0.553625,2.98023e-06,5.4948e-06,-5.40167e-06,-2.98023e-05,-1.11759e-05,-1.49012e-05,0.00710991,4.00483e-10,5,0.1,7,8.7,3.28961,2.62836,0.599329,-0.0730578,0.362448,0.000650715,-0.352666,-0.175208,-0.000413507,0.0240289,0.208022,5,0.1,8,8.7,-2.03164,3.41883,0.639287,0.00359155,0.00578649,-0.000172015,0.0102967,0.0101775,-0.00044331,0.00660857,4.99525e-05,5,0.1,9,8.7,-1.42213,-1.61244,0.550204,-0.149335,-0.0433488,0.0183552,0.33851,0.0924096,-0.0449382,0.00876887,0.00182312,5,0.1
0,8.8,1.39496,-3.39681,0.600358,0.00139773,4.76837e-05,-1.3411e-05,-0.000834465,0,0,0.00776399,1.48206e-07,5,0.1,1,8.8,0.773703,1.67907,0.600228,-0.371195,0.0876725,-0.000248849,0.111759,-0.220358,0.000119209,0.00861258,0.1728,5,0.1,2,8.8,-0.235671,4.2093,0.604632,0.00360422,-0.00089407,-2.98023e-06,0.0283644,-0.00834465,2.98023e-05,0.00792754,5.17375e-05,5,0.1,3,8.8,-1.33387,-2.29119,0.678098,0.0764489,-0.267178,0.0147313,-0.084877,0.277162,-0.0168681,0.00692518,0.00651248,5,0.1,4,8.8,1.01889,-4.28193,0.560581,-0.000241399,-0.000369549,-7.45058e-06,0.000953674,0.00166893,5.96046e-05,0.01007,1.07354e-07,5,0.1,5,8.8,2.38692,2.90582,0.600022,-0.863075,-0.0337362,-1.78814e-05,0.0590086,0.102878,-2.98023e-05,0.0180117,1.17967,5,0.1,6,8.8,-0.709844,0.816727,0.553624,0,4.47035e-06,-5.96046e-06,-2.98023e-05,0,-2.98023e-05,0.0100883,3.38213e-10,5,0.1,7,8.8,3.2805,2.66379,0.599393,-0.109011,0.346231,0.000613928,-0.346184,-0.166774,-0.000327826,0.0186772,0.150161,5,0.1,8,8.8,-2.03124,3.41944,0.639268,0.00427961,0.0063777,-0.000201166,0.00357628,0.00190735,-0.000149012,0.00690621,1.50791e-05,5,0.1,9,8.8,-1.43541,-1.61632,0.551822,-0.116724,-0.034368,0.0140682,0.311911,0.0867248,-0.0405312,0.00698511,0.00184105,5,0.1
0,8.9,1.39509,-3.39681,0.600357,0.00128597,4.73112e-05,-1.28523e-05,-0.00137091,-1.49012e-05,1.49012e-05,0.00776399,1.48206e-07,5,0.1,1,8.9,0.737147,1.68674,0.600203,-0.359577,0.0659611,-0.000238325,0.131819,-0.210807,0.000100583,0.00861258,0.1728,5,0.1,2,8.9,-0.23519,4.20918,0.604632,0.00579823,-0.00154749,-5.58794e-07,0.0158604,-0.00485778,1.49012e-05,0.00792754,5.17375e-05,5,0.1,3,8.9,-1.32664,-2.31652,0.679488,0.0681117,-0.239385,0.0130824,-0.082925,0.281602,-0.016313,0.00692518,0.00651248,5,0.1,4,8.9,1.01887,-4.28196,0.56058,-0.000151806,-0.000216812,-2.42144e-06,0.000827014,0.00140071,3.72529e-05,0.01007,1.07354e-07,5,0.1,5,8.9,2.30066,2.90286,0.600021,-0.863464,-0.0271086,-2.03028e-05,-0.0219792,0.0133365,-1.49012e-05,0.0180117,1.17967,5,0.1,6,8.9,-0.709845,0.816727,0.553623,-2.8871e-06,4.00469e-06,-8.00937e-06,-2.6077e-05,-1.11759e-05,-7.45058e-06,0.0100883,3.38213e-10,5,0.1,7,8.9,3.26821,2.69769,0.599452,-0.133496,0.332407,0.000587571,-0.150055,-0.125453,-0.000227243,0.0186772,0.150161,5,0.1,8,8.9,-2.0308,3.42008,0.639248,0.00439957,0.00627227,-0.00020517,-0.000953674,-0.00368059,6.33299e-05,0.00690621,1.50791e-05,5,0.1,9,8.9,-1.44558,-1.61933,0.553033,-0.0870703,-0.0260662,0.010245,0.27927,0.0787377,-0.0357069,0.00698511,0.00184105,5,0.1
0,9,1.39521,-3.39681,0.600355,0.00112951,4.17233e-05,-1.19209e-05,-0.00172853,0,2.98023e-05,0.00727477,8.73109e-08,5,0.1,1,9,0.701956,1.69232,0.60018,-0.342982,0.0460327,-0.000226498,0.207394,-0.185609,0.000149012,0.00805557,0.148381,5,0.1,2,9,-0.234549,4.209,0.604632,0.00684634,-0.00187159,1.49012e-06,0.00545382,-0.00190735,-2.98023e-05,0.00624369,1.55565e-05,5,0.1,3,9,-1.32025,-2.33902,0.680714,0.059703,-0.210416,0.0114366,-0.0858903,0.298977,-0.0167489,0.00615816,0.00195562,5,0.1,4,9,1.01886,-4.28197,0.56058,-7.7486e-05,-0.000107288,0,0.000715256,0.00143051,5.96046e-05,0.00746989,9.14242e-08,5,0.1,5,9,2.21437,2.9,0.600018,-0.860059,-0.0320256,-2.08616e-05,0.119209,-0.105023,0,0.0139777,0.9785,5,0.1,6,9,-0.709845,0.816727,0.553623,-4.47035e-06,2.98023e-06,-8.9407e-06,-2.98023e-05,0,2.98023e-05,0.00936575,3.10322e-10,5,0.1,7,9,3.25439,2.73026,0.59951,-0.140321,0.318462,0.000563264,0.00727177,-0.164509,-0.000298023,0.014113,0.115746,5,0.1,8,9,-2.03037,3.42068,0.639228,0.0041306,0.00571012,-0.000192225,-0.00405312,-0.00751019,0.000208616,0.00620962,8.09941e-06,5,0.1,9,9,-1.45295,-1.62156,0.553889,-0.0611842,-0.0187159,0.00696331,0.237346,0.0678897,-0.0297725,0.00772443,0.0014541,5,0.1
0,9.1,1.39532,-3.3968,0.600354,0.000947155,3.98606e-05,-8.9407e-06,-0.001885,-4.47035e-05,2.98023e-05,0.00727477,8.73109e-08,5,0.1,1,9.1,0.668704,1.69605,0.600158,-0.32178,0.0292661,-0.000212248,0.223495,-0.148915,0.000145286,0.00805557,0.148381,5,0.1,2,9.1,-0.23385,4.20881,0.604632,0.00701479,-0.0019528,-1.02445e-06,-0.00170711,0.000149012,-1.86265e-05,0.00624369,1.55565e-05,5,0.1,3,9.1,-1.3147,-2.35858,0.681776,0.0512689,-0.18078,0.00979789,-0.0829846,0.293896,-0.0160635,0.00615816,0.00195562,5,0.1,4,9.1,1.01886,-4.28198,0.56058,-1.39698e-05,1.41561e-05,4.37722e-06,0.000558794,0.000983477,3.35276e-05,0.00746989,9.14242e-08,5,0.1,5,9.1,2.12877,2.89587,0.600016,-0.852823,-0.0537187,-2.0396e-05,0.0683963,-0.299245,1.11759e-05,0.0139777,0.9785,5,0.1,6,9.1,-0.709846,0.816728,0.553622,-6.98492e-06,2.6077e-06,-6.0536e-06,-1.86265e-05,-7.45058e-06,2.6077e-05,0.00936575,3.10322e-10,5,0.1,7,9.1,3.24065,2.76132,0.599565,-0.132225,0.302812,0.00053579,0.144094,-0.158519,-0.000271946,0.014113,0.115746,5,0.1,8,9.1,-2.02998,3.42121,0.63921,0.00361577,0.0048399,-0.00016652,-0.00602007,-0.00959635,0.000290573,0.00620962,8.09941e-06,5,0.1,9,9.1,-1.45795,-1.62311,0.554445,-0.0393439,-0.0124283,0.00424562,0.198409,0.0575334,-0.024464,0.00772443,0.0014541,5,0.1
0,9.2,1.3954,-3.3968,0.600354,0.000759959,4.17233e-05,-5.96046e-06,-0.00196695,-0.000238419,0,0.00736461,9.63271e-08,5,0.1,1,9.2,0.637715,1.6983,0.600137,-0.297171,0.0163496,-0.000196695,0.27287,-0.109255,0.000149012,0.00906813,0.30774,5,0.1,2,9.2,-0.233167,4.20862,0.604632,0.00657588,-0.00185966,-1.49012e-06,-0.00672787,0.00166893,-2.98023e-05,0.00657531,7.5115e-06,5,0.1,3,9.2,-1.30999,-2.3752,0.682676,0.0430822,-0.151652,0.00821799,-0.0807643,0.288248,-0.0155568,0.0104614,0.00101839,5,0.1,4,9.2,1.01886,-4.28197,0.560581,3.27826e-05,8.34465e-05,5.96046e-06,0.000357628,0.000953674,2.98023e-05,0.00743889,6.21404e-08,5,0.1,5,9.2,2.04403,2.88889,0.600014,-0.839108,-0.0866473,-1.93715e-05,0.235558,-0.336766,0,0.0118762,0.711148,5,0.1,6,9.2,-0.709846,0.816728,0.553621,-7.45058e-06,1.49012e-06,-2.98023e-06,-2.98023e-05,0,0,0.00681705,3.07419e-10,5,0.1,7,9.2,3.2283,2.79075,0.599617,-0.11344,0.285083,0.000505149,0.222802,-0.202775,-0.000327826,0.0151254,0.262091,5,0.1,8,9.2,-2.02965,3.42164,0.639195,0.00296235,0.0038445,-0.00013411,-0.00679493,-0.0103712,0.000298023,0.010337,7.58488e-06,5,0.1,9,9.2,-1.46096,-1.62409,0.554757,-0.0216573,-0.00725985,0.00208616,0.154912,0.0455976,-0.0187159,0.00990021,0.00084718,5,0.1
0,9.3,1.39547,-3.39679,0.600353,0.000568479,2.16067e-05,-5.4948e-06,-0.00184774,-0.000149012,1.11759e-05,0.00736461,9.63271e-08,5,0.1,1,9.3,0.609405,1.69939,0.600119,-0.268581,0.00574663,-0.00018077,0.299785,-0.0962168,0.000175089,0.00906813,0.30774,5,0.1,2,9.3,-0.232549,4.20844,0.604632,0.00573411,-0.00164211,-3.91155e-06,-0.00977516,0.0026226,-1.49012e-05,0.00657531,7.5115e-06,5,0.1,3,9.3,-1.30607,-2.38895,0.683422,0.0352819,-0.123711,0.00671912,-0.075087,0.269726,-0.0143945,0.0104614,0.00101839,5,0.1,4,9.3,1.01886,-4.28196,0.560582,6.22123e-05,0.000156462,7.72998e-06,0.000223517,0.000476837,1.11759e-05,0.00743889,6.21404e-08,5,0.1,5,9.3,1.96116,2.8784,0.600012,-0.818584,-0.123871,-1.89058e-05,0.209495,-0.385329,1.11759e-05,0.0118762,0.711148,5,0.1,6,9.3,-0.709847,0.816728,0.553621,-9.49949e-06,1.11759e-06,-2.8871e-06,-7.45058e-06,-7.45058e-06,3.72529e-06,0.00681705,3.07419e-10,5,0.1,7,9.3,3.21814,2.81826,0.599666,-0.0891831,0.265121,0.000472832,0.254765,-0.202745,-0.000331551,0.0151254,0.262091,5,0.1,8,9.3,-2.02939,3.42198,0.639183,0.00226013,0.0028044,-0.000102818,-0.00710785,-0.0102222,0.000320375,0.010337,7.58488e-06,5,0.1,9,9.3,-1.46241,-1.6246,0.554879,-0.00795089,-0.00319239,0.000448618,0.118971,0.0356361,-0.0140257,0.00990021,0.00084718,5,0.1
0,9.4,1.39552,-3.39679,0.600353,0.000396371,1.19209e-05,-4.47035e-06,-0.00160933,-0.000238419,2.98023e-05,0.00711724,8.26778e-08,5,0.1,1,9.4,0.584095,1.69955,0.600101,-0.237131,-0.00187755,-0.000160933,0.329107,-0.0526905,0.000178814,0.00683819,0.475985,5,0.1,2,9.4,-0.232027,4.20829,0.604631,0.00468008,-0.00135899,-4.47035e-06,-0.0110269,0.00286102,0,0.00731496,6.89941e-06,5,0.1,3,9.4,-1.30291,-2.40001,0.684024,0.0280917,-0.0978708,0.00534356,-0.0685453,0.246286,-0.013113,0.0112684,0.000897176,5,0.1,4,9.4,1.01887,-4.28194,0.560582,8.04663e-05,0.000190735,8.9407e-06,0.000119209,0.000238419,-2.98023e-05,0.00698174,2.79874e-08,5,0.1,5,9.4,1.88054,2.86416,0.600011,-0.79138,-0.159842,-1.78814e-05,0.358224,-0.317931,0,0.0124744,0.503628,5,0.1,6,9.4,-0.709848,0.816728,0.553621,-1.04308e-05,0,-1.49012e-06,0,0,-2.98023e-05,0.00733539,3.13241e-10,5,0.1,7,9.4,3.2105,2.84372,0.599712,-0.0638127,0.243503,0.000436604,0.247002,-0.233769,-0.00038743,0.0163304,0.254983,5,0.1,8,9.4,-2.0292,3.42221,0.639174,0.0015676,0.0018239,-7.15256e-05,-0.0064373,-0.0089407,0.000298023,0.0118777,6.10727e-06,5,0.1,9,9.4,-1.46267,-1.62476,0.554862,0.00211895,-0.000143051,-0.000719726,0.0825524,0.025332,-0.00938773,0.0069209,0.000366111,5,0.1
0,9.5,1.39555,-3.39679,0.600352,0.000246614,-6.70552e-06,-1.58325e-06,-0.00137091,-0.000149012,2.6077e-05,0.00711724,8.26778e-08,5,0.1,1,9.5,0.561997,1.69907,0.600086,-0.205107,-0.00746548,-0.000143051,0.312757,-0.0371784,0.000178814,0.00683819,0.475985,5,0.1,2,9.5,-0.231615,4.20817,0.604631,0.00354697,-0.00105798,-4.09782e-06,-0.011391,0.00309944,7.45058e-06,0.00731496,6.89941e-06,5,0.1,3,9.5,-1.30043,-2.40861,0.684495,0.0216132,-0.0745773,0.00410648,-0.0608191,0.21866,-0.0115894,0.0112684,0.000897176,5,0.1,4,9.5,1.01888,-4.28192,0.560583,8.81031e-05,0.000200421,5.96046e-06,3.72529e-05,-2.98023e-05,-2.98023e-05,0.00698174,2.79874e-08,5,0.1,5,9.5,1.80307,2.84657,0.600009,-0.758422,-0.19172,-1.74157e-05,0.329189,-0.302464,1.11759e-05,0.0124744,0.503628,5,0.1,6,9.5,-0.709849,0.816728,0.553621,-9.96515e-06,-9.31323e-08,-3.53903e-06,1.11759e-05,-3.72529e-06,-7.45058e-06,0.00733539,3.13241e-10,5,0.1,7,9.5,3.20534,2.86688,0.599753,-0.0396874,0.21935,0.000395998,0.227198,-0.25031,-0.000424683,0.0163304,0.254983,5,0.1,8,9.5,-2.02907,3.42235,0.639168,0.000946224,0.000977516,-4.27477e-05,-0.00587106,-0.00786781,0.000271946,0.0118777,6.10727e-06,5,0.1,9,9.5,-1.4621,-1.62466,0.554749,0.00896771,0.00198949,-0.00148071,0.0547096,0.0173822,-0.00588968,0.0069209,0.000366111,5,0.1
0,9.6,1.39557,-3.39679,0.600352,0.00012219,-1.78814e-05,0,-0.00101328,0,2.98023e-05,0.00701721,4.59563e-08,5,0.1,1,9.6,0.543031,1.69829,0.600073,-0.174367,-0.00626147,-0.00012368,0.302792,0.0700951,0.000149012,0.0114181,0.653226,5,0.1,2,9.6,-0.231316,4.20808,0.604631,0.00244454,-0.000751019,-2.98023e-06,-0.010483,0.00286102,0,0.0103963,5.80737e-06,5,0.1,3,9.6,-1.29856,-2.41502,0.684851,0.0159591,-0.0542879,0.00302941,-0.0520945,0.186563,-0.00989437,0.00711901,0.000708206,5,0.1,4,9.6,1.01889,-4.2819,0.560584,8.64267e-05,0.000190735,2.98023e-06,0,-0.000476837,0,0.00822023,1.36279e-08,5,0.1,5,9.6,1.72902,2.82602,0.600007,-0.720796,-0.21742,-1.63913e-05,0.442564,-0.199556,2.98023e-05,0.0119449,0.348126,5,0.1,6,9.6,-0.70985,0.816728,0.55362,-8.9407e-06,0,-4.47035e-06,2.98023e-05,-2.98023e-05,0,0.00864534,3.03997e-10,5,0.1,7,9.6,3.20242,2.88753,0.599791,-0.0196934,0.19331,0.000351667,0.167608,-0.270486,-0.000476837,0.0164656,0.412891,5,0.1,8,9.6,-2.02901,3.42241,0.639165,0.000411272,0.000268221,-1.78814e-05,-0.00488758,-0.00619888,0.000208616,0.0109906,3.75769e-06,5,0.1,9,9.6,-1.46097,-1.62439,0.554577,0.0131369,0.0033468,-0.00190884,0.0290871,0.00989437,-0.00277162,0.00644766,0.00011779,5,0.1
0,9.7,1.39557,-3.3968,0.600352,3.09199e-05,-1.60187e-05,2.51457e-06,-0.000804663,4.47035e-05,1.86265e-05,0.00701721,4.59563e-08,5,0.1,1,9.7,0.527047,1.69811,0.600061,-0.14588,0.00480153,-0.000108778,0.268545,0.199035,0.000149012,0.0114181,0.653226,5,0.1,2,9.7,-0.231123,4.20802,0.60463,0.00144122,-0.000473857,-2.8871e-06,-0.00943057,0.0026226,3.72529e-06,0.0103963,5.80737e-06,5,0.1,3,9.7,-1.29721,-2.41957,0.685107,0.0111567,-0.0371139,0.00211811,-0.0438318,0.156388,-0.00831112,0.00711901,0.000708206,5,0.1,4,9.7,1.0189,-4.28188,0.560584,8.3074e-05,0.000143051,2.51457e-06,-5.96046e-05,-0.000476837,-1.11759e-05,0.00822023,1.36279e-08,5,0.1,5,9.7,1.65903,2.8033,0.600006,-0.679746,-0.236406,-1.35042e-05,0.401735,-0.166729,2.6077e-05,0.0119449,0.348126,5,0.1,6,9.7,-0.709851,0.816728,0.55362,-6.0536e-06,-2.51457e-06,-4.00469e-06,2.6077e-05,-1.86265e-05,1.11759e-05,0.00864534,3.03997e-10,5,0.1,7,9.7,3.20127,2.90554,0.599823,-0.00402145,0.167124,0.000305567,0.125393,-0.254571,-0.00045076,0.0164656,0.412891,5,0.1,8,9.7,-2.02899,3.4224,0.639165,-3.241e-05,-0.00028573,1.21072e-06,-0.00391901,-0.00484288,0.000175089,0.0109906,3.75769e-06,5,0.1,9,9.7,-1.45954,-1.62401,0.554376,0.0151057,0.00405964,-0.00207135,0.0108629,0.0045076,-0.000562519,0.00644766,0.00011779,5,0.1
0,9.8,1.39557,-3.3968,0.600353,-3.57628e-05,-1.78814e-05,2.98023e-06,-0.000655651,0.000238419,2.98023e-05,0.00651634,2.74126e-08,5,0.1,1,9.8,0.513756,1.7,0.600051,-0.120386,0.0370234,-9.38773e-05,0.242442,0.432193,0.000149012,0.00960298,0.805724,5,0.1,2,9.8,-0.231023,4.20799,0.60463,0.000583753,-0.000226498,-1.49012e-06,-0.00762194,0.00214577,-2.98023e-05,0.00688649,3.67578e-06,5,0.1,3,9.8,-1.2963,-2.42255,0.68528,0.00720918,-0.0230789,0.00137091,-0.0350475,0.123978,-0.00661612,0.0066009,0.000427073,5,0.1,4,9.8,1.0189,-4.28187,0.560584,7.45058e-05,9.53674e-05,1.49012e-06,-5.96046e-05,-0.000238419,0,0.0106962,1.14194e-08,5,0.1,5,9.8,1.59315,2.77897,0.600004,-0.63653,-0.248516,-1.04308e-05,0.478506,-0.0662804,0,0.0188705,0.741927,5,0.1,6,9.8,-0.709851,0.816728,0.553619,-4.47035e-06,-2.98023e-06,-2.98023e-06,5.96046e-05,-2.98023e-05,0,0.0102133,4.21262e-10,5,0.1,7,9.8,3.20131,2.92099,0.599852,0.002563,0.142175,0.00026077,-0.00178814,-0.245214,-0.000447035,0.0182511,0.396016,5,0.1,8,9.8,-2.02901,3.42235,0.639166,-0.000369549,-0.000691414,1.63913e-05,-0.00286102,-0.00321865,0.000149012,0.00730243,1.71329e-06,5,0.1,9,9.8,-1.458,-1.62359,0.554169,0.0154227,0.00427663,-0.00203848,-0.0038743,5.96046e-05,0.00119209,0.00776129,3.6025e-05,5,0.1
