id,t,px,py,pz,vx,vy,vz,ax,ay,az,planning_time,qp_cost,planning_report,size,id,t,px,py,pz,vx,vy,vz,ax,ay,az,planning_time,qp_cost,planning_report,size,id,t,px,py,pz,vx,vy,vz,ax,ay,az,planning_time,qp_cost,planning_report,size,id,t,px,py,pz,vx,vy,vz,ax,ay,az,planning_time,qp_cost,planning_report,size,id,t,px,py,pz,vx,vy,vz,ax,ay,az,planning_time,qp_cost,planning_report,size,id,t,px,py,pz,vx,vy,vz,ax,ay,az,planning_time,qp_cost,planning_report,size,id,t,px,py,pz,vx,vy,vz,ax,ay,az,planning_time,qp_cost,planning_report,size,id,t,px,py,pz,vx,vy,vz,ax,ay,az,planning_time,qp_cost,planning_report,size,id,t,px,py,pz,vx,vy,vz,ax,ay,az,planning_time,qp_cost,planning_report,size,id,t,px,py,pz,vx,vy,vz,ax,ay,az,planning_time,qp_cost,planning_report,size
0,0,-3.10599,-0.574461,0.569101,0,0,0,0,0,0,0.0148863,1.92835,5,0.1,1,0,0.215106,2.46273,0.670721,0,0,0,0,0,0,0.00595661,0.714451,5,0.1,2,0,1.00955,3.77764,0.599123,0,0,0,0,0,0,0.00980284,3.51219,5,0.1,3,0,-2.71499,-3.705,0.624579,0,0,0,0,0,0,0.00892715,1.26688,5,0.1,4,0,-3.54226,-1.77994,0.693018,0,0,0,0,0,0,0.00878838,1.07508,5,0.1,5,0,-4.1482,-4.17893,0.556023,0,0,0,0,0,0,0.0207288,3.5122,5,0.1,6,0,3.67798,3.90503,0.646963,0,0,0,0,0,0,0.00899959,3.5122,5,0.1,7,0,4.25986,-0.542022,0.601262,0,0,0,0,0,0,0.0125623,3.5122,5,0.1,8,0,-4.117,-2.03459,0.665768,0,0,0,0,0,0,0.00718317,3.348,5,0.1,9,0,-1.89952,2.81748,0.618213,0,0,0,0,0,0,0.0339432,2.21133,5,0.1
0,0.1,-3.10447,-0.574175,0.569133,0.0431471,0.00813333,0.000915863,0.767052,0.144597,0.0162795,0.0148863,1.92835,5,0.1,1,0.1,0.215507,2.46188,0.670647,0.011406,-0.0240844,-0.00209594,0.202773,-0.428155,-0.0372566,0.00595661,0.714451,5,0.1,2,0.1,1.01149,3.77686,0.599124,0.0549337,-0.0222482,2.09548e-05,0.9766,-0.395536,0.000368804,0.00980284,3.51219,5,0.1,3,0.1,-2.71388,-3.70442,0.624553,0.0315603,0.0164472,-0.000728387,0.561073,0.292391,-0.0129528,0.00892715,1.26688,5,0.1,4,0.1,-3.54301,-1.78082,0.692994,-0.0212207,-0.0249891,-0.000686292,-0.377268,-0.444256,-0.0122003,0.00878838,1.07508,5,0.1,5,0.1,-4.14741,-4.177,0.556045,0.0225782,0.054796,0.000621285,0.401378,0.974178,0.0110455,0.0207288,3.5122,5,0.1,6,0.1,3.67798,3.90294,0.64695,2.83122e-05,-0.0592671,-0.000362471,0.000506639,-1.05363,-0.00644475,0.00899959,3.5122,5,0.1,7,0.1,4.25931,-0.540007,0.601262,-0.0155017,0.057205,-2.03028e-05,-0.275612,1.01698,-0.000365078,0.0125623,3.5122,5,0.1,8,0.1,-4.1173,-2.03258,0.665803,-0.00827238,0.0572629,0.00100276,-0.147074,1.01802,0.0178255,0.00718317,3.348,5,0.1,9,0.1,-1.89847,2.81877,0.618194,0.0296198,0.0365246,-0.000539795,0.526577,0.649348,-0.00959635,0.0339432,2.21133,5,0.1
0,0.2,-3.0957,-0.572523,0.569319,0.136369,0.025706,0.00289381,1.02258,0.192761,0.0216961,0.0143263,1.58213,5,0.1,1,0.2,0.217824,2.45699,0.670222,0.0360485,-0.0761211,-0.00662357,0.270367,-0.570893,-0.0496805,0.00757422,0.586171,5,0.1,2,0.2,1.02265,3.77234,0.599128,0.173619,-0.0703156,6.70552e-05,1.30206,-0.527382,0.000476837,0.016088,2.9258,5,0.1,3,0.2,-2.70747,-3.70108,0.624405,0.0997424,0.0519812,-0.00230223,0.748158,0.389814,-0.0172555,0.00892762,1.03941,5,0.1,4,0.2,-3.54732,-1.7859,0.692854,-0.0670671,-0.0789762,-0.00216812,-0.503063,-0.592351,-0.0162721,0.00945013,0.882047,5,0.1,5,0.2,-4.14282,-4.16587,0.556171,0.0713468,0.173175,0.00196397,0.535488,1.29914,0.0147223,0.0212456,2.92576,5,0.1,6,0.2,3.67799,3.8909,0.646876,8.9407e-05,-0.187314,-0.0011459,0.000596046,-1.40488,-0.00858307,0.0069718,2.92579,5,0.1,7,0.2,4.25617,-0.528387,0.601258,-0.048995,0.180796,-6.4075e-05,-0.367403,1.35598,-0.000476837,0.015114,2.92579,5,0.1,8,0.2,-4.11898,-2.02095,0.666007,-0.0261307,0.180978,0.00316948,-0.196457,1.35744,0.0237525,0.00682387,2.74685,5,0.1,9,0.2,-1.89246,2.82619,0.618084,0.0936121,0.115436,-0.00170618,0.702143,0.865698,-0.0127852,0.0428053,1.81429,5,0.1
0,0.3,-3.07639,-0.568882,0.569729,0.253676,0.0478189,0.00538286,1.25141,0.235893,0.0265539,0.0143263,1.58213,5,0.1,1,0.3,0.22293,2.44621,0.669284,0.0670625,-0.141609,-0.0123223,0.330842,-0.698596,-0.0607893,0.00757422,0.586171,5,0.1,2,0.3,1.04725,3.76238,0.599138,0.323371,-0.130969,0.000122748,1.60026,-0.648126,0.000603497,0.016088,2.9258,5,0.1,3,0.3,-2.69334,-3.69371,0.624079,0.185562,0.0966977,-0.00428194,0.915453,0.477031,-0.0211187,0.00892762,1.03941,5,0.1,4,0.3,-3.55682,-1.79708,0.692547,-0.124772,-0.146925,-0.00403468,-0.615567,-0.724837,-0.019908,0.00945013,0.882047,5,0.1,5,0.3,-4.13271,-4.14133,0.556449,0.132921,0.322579,0.00365721,0.657886,1.59645,0.0180937,0.0212456,2.92576,5,0.1,6,0.3,3.678,3.86436,0.646714,0.000161305,-0.348887,-0.00213338,0.000789762,-1.72657,-0.0105537,0.0069718,2.92579,5,0.1,7,0.3,4.24922,-0.502767,0.601249,-0.091251,0.336745,-0.000119302,-0.451595,1.66646,-0.000592321,0.015114,2.92579,5,0.1,8,0.3,-4.12268,-1.99531,0.666456,-0.048653,0.336688,0.0058949,-0.240177,1.66101,0.0290722,0.00682387,2.74685,5,0.1,9,0.3,-1.8792,2.84254,0.617843,0.174154,0.214744,-0.00317292,0.859171,1.05935,-0.0156499,0.0428053,1.81429,5,0.1
0,0.4,-3.04487,-0.562942,0.570398,0.374109,0.0705212,0.00793785,1.10412,0.208139,0.0234544,0.0118431,1.25181,5,0.1,1,0.4,0.231261,2.42862,0.667753,0.098902,-0.208843,-0.0181735,0.291884,-0.616312,-0.0536144,0.00662027,0.463784,5,0.1,2,0.4,1.08745,3.74609,0.599153,0.477552,-0.193417,0.000180304,1.4149,-0.57292,0.000536442,0.0105424,2.51009,5,0.1,3,0.4,-2.67029,-3.6817,0.623547,0.273663,0.14261,-0.00631511,0.807762,0.420809,-0.0186265,0.00962489,0.822389,5,0.1,4,0.4,-3.57232,-1.81534,0.692046,-0.184011,-0.216684,-0.00595003,-0.542998,-0.639439,-0.0175536,0.0073828,0.697883,5,0.1,5,0.4,-4.11618,-4.10122,0.556904,0.196302,0.476384,0.00540018,0.581503,1.41168,0.0160038,0.024491,2.51003,5,0.1,6,0.4,3.67802,3.82098,0.646449,0.000238419,-0.515234,-0.00315011,0.000596046,-1.52647,-0.00932813,0.00710761,2.51566,5,0.1,7,0.4,4.23788,-0.460901,0.601234,-0.134754,0.497304,-0.000175834,-0.399351,1.47346,-0.000536442,0.0185146,2.51061,5,0.1,8,0.4,-4.12872,-1.95349,0.667188,-0.071764,0.496539,0.00869334,-0.211716,1.46544,0.0256598,0.00664851,2.17333,5,0.1,9,0.4,-1.85756,2.86922,0.617449,0.256836,0.316703,-0.00468045,0.758052,0.934482,-0.0137687,0.0715208,1.43549,5,0.1
0,0.5,-3.00184,-0.55483,0.571311,0.486133,0.091639,0.0103171,1.08141,0.203855,0.0229664,0.0118431,1.25181,5,0.1,1,0.5,0.242637,2.4046,0.665662,0.128516,-0.271374,-0.0236133,0.285875,-0.603646,-0.0525191,0.00662027,0.463784,5,0.1,2,0.5,1.14248,3.72381,0.599174,0.623151,-0.252375,0.000235625,1.4222,-0.57593,0.000543892,0.0105424,2.51009,5,0.1,3,0.5,-2.63881,-3.6653,0.622821,0.355615,0.185307,-0.00820542,0.791103,0.412166,-0.0182502,0.00962489,0.822389,5,0.1,4,0.5,-3.59348,-1.84026,0.691362,-0.239104,-0.281562,-0.00773109,-0.531837,-0.626288,-0.0171885,0.0073828,0.697883,5,0.1,5,0.5,-4.09356,-4.04632,0.557526,0.256139,0.621643,0.00704676,0.584483,1.41881,0.0160858,0.024491,2.51003,5,0.1,6,0.5,3.67805,3.76185,0.646086,0.000303611,-0.665446,-0.0041103,0.000670552,-1.4098,-0.00938028,0.00710761,2.51566,5,0.1,7,0.5,4.22235,-0.403668,0.601213,-0.175849,0.646804,-0.000230689,-0.401378,1.44252,-0.000532717,0.0185146,2.51061,5,0.1,8,0.5,-4.13698,-1.89637,0.668188,-0.0932418,0.64522,0.0112968,-0.207335,1.43524,0.0251345,0.00664851,2.17333,5,0.1,9,0.5,-1.82802,2.90564,0.616911,0.333746,0.411519,-0.00607828,0.742413,0.915319,-0.0135042,0.0715208,1.43549,5,0.1
0,0.6,-2.94823,-0.544724,0.572449,0.581032,0.109528,0.0123322,0.778079,0.146687,0.0165105,0.0285138,0.931944,5,0.1,1,0.6,0.25681,2.37467,0.663058,0.153603,-0.324345,-0.0282213,0.205651,-0.434279,-0.0378191,0.0123837,0.345275,5,0.1,2,0.6,1.21142,3.69589,0.5992,0.749204,-0.303423,0.000284612,1.04594,-0.423551,0.00038743,0.0172241,2.26486,5,0.1,3,0.6,-2.59959,-3.64486,0.621916,0.425035,0.221479,-0.00980645,0.568986,0.296474,-0.0131428,0.0106059,0.612241,5,0.1,4,0.6,-3.61985,-1.87131,0.690509,-0.28578,-0.336522,-0.00924021,-0.382423,-0.450552,-0.012368,0.00969939,0.519558,5,0.1,5,0.6,-4.06523,-3.97756,0.558306,0.307941,0.747389,0.0084728,0.42963,1.04344,0.0118315,0.0248895,2.26264,5,0.1,6,0.6,3.67808,3.6889,0.645631,0.000363588,-0.786006,-0.00494123,0.000596046,-0.95737,-0.00691414,0.00859735,2.33499,5,0.1,7,0.6,4.2029,-0.332323,0.601188,-0.211418,0.773299,-0.000278652,-0.295401,1.03632,-0.00038743,0.0137924,2.30005,5,0.1,8,0.6,-4.14726,-1.82521,0.669434,-0.111437,0.771168,0.0135019,-0.148773,1.03253,0.01809,0.00856462,1.66258,5,0.1,9,0.6,-1.79121,2.95103,0.61624,0.398895,0.491846,-0.00726432,0.534117,0.658512,-0.00971556,0.0362847,1.06869,5,0.1
0,0.7,-2.8863,-0.53305,0.573763,0.655728,0.12361,0.0139172,0.67316,0.126902,0.0142865,0.0285138,0.931944,5,0.1,1,0.7,0.273181,2.3401,0.66005,0.173347,-0.366037,-0.0318514,0.177927,-0.375718,-0.0327155,0.0123837,0.345275,5,0.1,2,0.7,1.29076,3.6634,0.59923,0.829538,-0.345942,0.000323821,0.555187,-0.400007,0.000376254,0.0172241,2.26486,5,0.1,3,0.7,-2.55429,-3.62126,0.620871,0.479659,0.249942,-0.0110681,0.492275,0.256538,-0.0113733,0.0106059,0.612241,5,0.1,4,0.7,-3.65031,-1.90718,0.689524,-0.322497,-0.379777,-0.0104276,-0.33091,-0.389814,-0.010699,0.00969939,0.519558,5,0.1,5,0.7,-4.03226,-3.89838,0.559213,0.351071,0.828052,0.00966033,0.405774,0.563011,0.0111721,0.0248895,2.26264,5,0.1,6,0.7,3.67812,3.60657,0.645102,0.000422448,-0.850542,-0.00563506,0.000566244,-0.360802,-0.00652671,0.00859735,2.33499,5,0.1,7,0.7,4.18017,-0.25085,0.601158,-0.243419,0.846126,-0.000317302,-0.320733,0.436366,-0.000361353,0.0137924,2.30005,5,0.1,8,0.7,-4.15913,-1.74393,0.670873,-0.125723,0.844892,0.0152387,-0.128806,0.453301,0.0156462,0.00856462,1.66258,5,0.1,9,0.7,-1.7487,3.00345,0.615466,0.450171,0.555067,-0.0081975,0.462078,0.569761,-0.00841171,0.0362847,1.06869,5,0.1
0,0.8,-2.81782,-0.520141,0.575217,0.708508,0.133559,0.0150368,0.353456,0.0666678,0.00751019,0.0108067,0.716688,5,0.1,1,0.8,0.291284,2.30188,0.656724,0.187296,-0.395495,-0.0344157,0.0934303,-0.197291,-0.0171959,0.00657025,0.243781,5,0.1,2,0.8,1.37569,3.62703,0.599264,0.861266,-0.378883,0.000354648,0.0951886,-0.240326,0.000238419,0.00876631,2.16739,5,0.1,3,0.8,-2.5042,-3.59516,0.619715,0.518256,0.270057,-0.0119597,0.258327,0.134706,-0.00596046,0.0102794,0.432276,5,0.1,4,0.8,-3.68399,-1.94684,0.688435,-0.348443,-0.410339,-0.0112668,-0.173807,-0.204742,-0.00563264,0.00707332,0.366842,5,0.1,5,0.8,-3.99534,-3.81356,0.560229,0.384492,0.860751,0.0105798,0.243664,0.1055,0.00673532,0.0237686,2.16449,5,0.1,6,0.8,3.67816,3.52044,0.644509,0.000470877,-0.866026,-0.00617206,0.000357628,0,-0.00393391,0.00744922,2.27189,5,0.1,7,0.8,4.15435,-0.164877,0.601125,-0.271463,0.866025,-0.000347197,-0.223637,0,-0.000208616,0.0136625,2.2114,5,0.1,8,0.8,-4.17226,-1.658,0.672465,-0.135815,0.866026,0.0164658,-0.0677109,0,0.00822544,0.00924024,1.22451,5,0.1,9,0.8,-1.70169,3.06142,0.61461,0.486398,0.599736,-0.00885725,0.242651,0.299335,-0.00441074,0.0408176,0.754557,5,0.1
0,0.9,-2.74529,-0.506311,0.576756,0.740537,0.144045,0.015717,0.253156,0.126773,0.00537932,0.0108067,0.716688,5,0.1,1,0.9,0.310459,2.26138,0.6532,0.195763,-0.413373,-0.0359736,0.066923,-0.141308,-0.0123084,0.00657025,0.243781,5,0.1,2,0.9,1.46211,3.58789,0.599301,0.865728,-0.403724,0.000379048,0.0118986,-0.230968,0.000230968,0.00876631,2.16739,5,0.1,3,0.9,-2.45114,-3.56751,0.61849,0.541667,0.282265,-0.0124998,0.185058,0.0964999,-0.00426918,0.0102794,0.432276,5,0.1,4,0.9,-3.71966,-1.98885,0.687282,-0.364193,-0.428891,-0.0117769,-0.124514,-0.14665,-0.00403449,0.00707332,0.366842,5,0.1,5,0.9,-3.95562,-3.72716,0.561322,0.40971,0.865696,0.0112763,0.234738,0.0131875,0.00647455,0.0237686,2.16449,5,0.1,6,0.9,3.67821,3.43384,0.643872,0.000507385,-0.866026,-0.0065784,0.000357628,0,-0.00377372,0.00744922,2.27189,5,0.1,7,0.9,4.12601,-0.0782741,0.601089,-0.29533,0.866025,-0.000368617,-0.231713,4.47035e-07,-0.000201166,0.0136625,2.2114,5,0.1,8,0.9,-4.18617,-1.57141,0.67415,-0.141951,0.86569,0.0172111,-0.0484884,-0.0134185,0.00588968,0.00924024,1.22451,5,0.1,9,0.9,-1.65189,3.12282,0.613703,0.508384,0.62686,-0.00925716,0.173792,0.214428,-0.0031665,0.0408176,0.754557,5,0.1
0,1,-2.67036,-0.491283,0.578346,0.75351,0.156094,0.0159919,-0.0164509,0.102326,-0.000327826,0.0128275,0.494337,5,0.1,1,1,0.330267,2.21956,0.649561,0.199191,-0.420612,-0.0366047,-0.00430644,0.00917912,0.00077486,0.00824299,0.165779,5,0.1,2,1,1.5487,3.54655,0.59934,0.866026,-0.420755,0.000396371,0,-0.0921488,8.9407e-05,0.00780563,1.85401,5,0.1,3,1,-2.39634,-3.53895,0.617226,0.55114,0.287205,-0.0127181,-0.0119209,-0.00607967,0.000268221,0.00678036,0.293972,5,0.1,4,1,-3.75651,-2.03225,0.68609,-0.370574,-0.436401,-0.011985,0.00798702,0.00941753,0.000298023,0.00819518,0.249468,5,0.1,5,1,-3.91367,-3.64057,0.562476,0.427043,0.866026,0.011754,0.0939369,0,0.0026226,0.0311732,2.15073,5,0.1,6,1,3.67827,3.34723,0.643198,0.000530481,-0.866026,-0.00685751,0.000238419,0,-0.00149012,0.00713517,2.27189,5,0.1,7,1,4.09546,0.00832846,0.601051,-0.314057,0.866025,-0.00038445,-0.127554,-1.19209e-06,-2.98023e-05,0.0145008,2.20038,5,0.1,8,1,-4.20053,-1.48501,0.675892,-0.144434,0.860658,0.0175118,0.00309944,-0.107408,-0.000357628,0.00740668,0.9059,5,0.1,9,1,-1.60045,3.18624,0.612767,0.517285,0.637847,-0.00942051,-0.0111461,-0.0137091,0.000238419,0.0337115,0.51312,5,0.1
0,1.1,-2.59512,-0.47511,0.579943,0.750192,0.16756,0.015923,-0.077486,0.114363,-0.00163168,0.0128275,0.494337,5,0.1,1,1.1,0.350156,2.17756,0.645905,0.198317,-0.41876,-0.0364452,-0.0204518,0.0432283,0.00375137,0.00824299,0.165779,5,0.1,2,1.1,1.63531,3.50397,0.59938,0.865974,-0.430618,0.000405964,-0.00208616,-0.0829399,8.56817e-05,0.00780563,1.85401,5,0.1,3,1.1,-2.34131,-3.51027,0.615956,0.548723,0.285957,-0.0126631,-0.0565946,-0.0294,0.00130013,0.00678036,0.293972,5,0.1,4,1.1,-3.79351,-2.07582,0.684894,-0.368951,-0.434489,-0.0119294,0.0380129,0.0447929,0.00125542,0.00819518,0.249468,5,0.1,5,1.1,-3.8704,-3.55396,0.563667,0.438534,0.866026,0.0120728,0.110164,0,0.00305101,0.0311732,2.15073,5,0.1,6,1.1,3.67832,3.26063,0.642503,0.000555068,-0.866026,-0.00704024,0.000238419,0,-0.00175089,0.00713517,2.27189,5,0.1,7,1.1,4.06334,0.094931,0.601012,-0.328486,0.866025,-0.000390131,-0.139982,7.45058e-07,-6.33299e-05,0.0145008,2.20038,5,0.1,8,1.1,-4.21495,-1.39923,0.67764,-0.143804,0.85635,0.0174365,0.014782,-0.0259429,-0.00178441,0.00740668,0.9059,5,0.1,9,1.1,-1.5488,3.24993,0.611826,0.515018,0.635057,-0.00937674,-0.0531077,-0.0654608,0.000983477,0.0337115,0.51312,5,0.1
0,1.2,-2.52077,-0.457847,0.581521,0.733447,0.176813,0.0155687,-0.275612,0.06181,-0.00584126,0.0124128,0.332877,5,0.1,1,1.2,0.36981,2.13606,0.642294,0.193892,-0.409412,-0.0356331,-0.0728518,0.153899,0.013411,0.00756878,0.110236,5,0.1,2,1.2,1.72188,3.46066,0.599421,0.865191,-0.433606,0.000408292,-0.0166893,0.0383854,0,0.0128119,1.40553,5,0.1,3,1.2,-2.28693,-3.48193,0.614701,0.536484,0.279582,-0.0123814,-0.201583,-0.104904,0.00464916,0.0110816,0.195476,5,0.1,4,1.2,-3.83008,-2.11888,0.683711,-0.360721,-0.424796,-0.0116602,0.135422,0.159621,0.00435114,0.0082659,0.165883,5,0.1,5,1.2,-3.82614,-3.46736,0.564886,0.44471,0.866026,0.0122443,-0.00429153,0,-8.9407e-05,0.025354,2.14746,5,0.1,6,1.2,3.67838,3.17403,0.641793,0.000566244,-0.866026,-0.00713766,0.000119209,0,8.9407e-05,0.0062137,2.27189,5,0.1,7,1.2,4.02991,0.181534,0.600973,-0.338471,0.866025,-0.000393391,-0.0448227,0,2.98023e-05,0.012715,2.19527,5,0.1,8,1.2,-4.2292,-1.3139,0.679369,-0.140595,0.847444,0.0170484,0.0529289,-0.185311,-0.0063777,0.00870954,0.646116,5,0.1,9,1.2,-1.49776,3.31287,0.610897,0.503525,0.620896,-0.0091657,-0.189126,-0.233293,0.00342727,0.0361774,0.341193,5,0.1
0,1.3,-2.44878,-0.439841,0.58305,0.706204,0.18322,0.0149908,-0.292048,0.0563525,-0.00619516,0.0124128,0.332877,5,0.1,1,1.3,0.388843,2.09587,0.638796,0.186691,-0.394201,-0.0343077,-0.0772048,0.163049,0.0142083,0.00756878,0.110236,5,0.1,2,1.3,1.80839,3.41746,0.599462,0.865269,-0.430122,0.000408012,-0.00108033,0.0491589,-2.6077e-05,0.0128119,1.40553,5,0.1,3,1.3,-2.23426,-3.45448,0.613485,0.516557,0.269209,-0.0119219,-0.213608,-0.111252,0.00492483,0.0110816,0.195476,5,0.1,4,1.3,-3.86549,-2.16058,0.682567,-0.347333,-0.409018,-0.0112298,0.143543,0.169158,0.00462309,0.0082659,0.165883,5,0.1,5,1.3,-3.78157,-3.38076,0.566113,0.44748,0.866026,0.0123225,0.0339448,0,0.000946224,0.025354,2.14746,5,0.1,6,1.3,3.67843,3.08743,0.641078,0.000580028,-0.866026,-0.00718078,0.000104308,0,-0.000540167,0.0062137,2.27189,5,0.1,7,1.3,3.99575,0.268136,0.600934,-0.345161,0.866025,-0.000393856,-0.0683367,-8.9407e-07,-1.11759e-05,0.012715,2.19527,5,0.1,8,1.3,-4.243,-1.22993,0.681042,-0.135364,0.832513,0.0164174,0.0560582,-0.151128,-0.0067763,0.00870954,0.646116,5,0.1,9,1.3,-1.44833,3.37382,0.609997,0.484828,0.597834,-0.00882717,-0.200473,-0.247225,0.00363216,0.0361774,0.341193,5,0.1
0,1.4,-2.3798,-0.421313,0.584514,0.67125,0.186407,0.0142485,-0.42212,0.000551343,-0.0089407,0.011125,0.221161,5,0.1,1,1.4,0.407079,2.05737,0.635445,0.17745,-0.374687,-0.0326067,-0.111595,0.235677,0.0204742,0.00723738,0.125064,5,0.1,2,1.4,1.8948,3.37483,0.599502,0.861418,-0.420785,0.000400841,-0.0920296,0.149608,-0.000119209,0.0111122,1.0353,5,0.1,3,1.4,-2.18381,-3.42819,0.612321,0.490993,0.255889,-0.0113308,-0.308871,-0.160813,0.00709295,0.00782331,0.128668,5,0.1,4,1.4,-3.89941,-2.20053,0.68147,-0.330144,-0.388771,-0.0106752,0.207424,0.244498,0.00670552,0.00691584,0.109187,5,0.1,5,1.4,-3.73676,-3.29416,0.567347,0.447118,0.866026,0.0123128,-0.059247,0,-0.00163913,0.0240107,2.14912,5,0.1,6,1.4,3.67849,3.00082,0.640359,0.000584126,-0.866026,-0.00717491,-0.000119209,0,0.000923872,0.00798025,2.27189,5,0.1,7,1.4,3.96099,0.354739,0.600895,-0.348634,0.866025,-0.000391901,0.0135899,1.43051e-05,5.96046e-05,0.0144357,2.19436,5,0.1,8,1.4,-4.25623,-1.14763,0.682646,-0.128663,0.810832,0.015606,0.0810623,-0.308514,-0.00980496,0.00620244,0.448817,5,0.1,9,1.4,-1.40097,3.43221,0.609135,0.46083,0.568241,-0.00839084,-0.289738,-0.35727,0.00524521,0.0333849,0.224578,5,0.1
0,1.5,-2.3147,-0.402661,0.585896,0.630986,0.186509,0.0133952,-0.402227,-0.00650249,-0.00853091,0.011125,0.221161,5,0.1,1,1.5,0.424285,2.02103,0.632283,0.166722,-0.352209,-0.030653,-0.107827,0.224546,0.019528,0.00723738,0.125064,5,0.1,2,1.5,1.98074,3.33346,0.599542,0.85895,-0.406571,0.0003892,-0.00570714,0.14925,-0.000130385,0.0111122,1.0353,5,0.1,3,1.5,-2.13619,-3.40337,0.611222,0.461534,0.240548,-0.0106539,-0.294283,-0.153288,0.00676885,0.00782331,0.128668,5,0.1,4,1.5,-3.93143,-2.23823,0.680434,-0.310355,-0.36545,-0.0100353,0.197724,0.23298,0.00638887,0.00691584,0.109187,5,0.1,5,1.5,-3.69219,-3.20755,0.568575,0.445159,0.866026,0.0122579,-0.00572205,0,-0.000171363,0.0240107,2.14912,5,0.1,6,1.5,3.67855,2.91422,0.639643,0.000577793,-0.866026,-0.00714734,-4.47035e-05,0,4.47035e-05,0.00798025,2.27189,5,0.1,7,1.5,3.92609,0.441341,0.600856,-0.350011,0.866025,-0.000389572,-0.0207722,-3.57628e-06,1.11759e-05,0.0144357,2.19436,5,0.1,8,1.5,-4.2687,-1.06797,0.684159,-0.120932,0.782866,0.0146705,0.077188,-0.281516,-0.0093542,0.00620244,0.448817,5,0.1,9,1.5,-1.35628,3.48732,0.608321,0.433192,0.534162,-0.00789035,-0.276133,-0.340462,0.00499934,0.0333849,0.224578,5,0.1
0,1.6,-2.25371,-0.384107,0.587191,0.587624,0.183768,0.0124753,-0.478029,-0.053674,-0.0101328,0.0116681,0.146199,5,0.1,1,1.6,0.440392,1.98699,0.629319,0.155076,-0.327998,-0.0285476,-0.128344,0.26679,0.023216,0.00872496,0.193402,5,0.1,2,1.6,2.06643,3.29365,0.59958,0.852036,-0.388491,0.000372529,-0.166416,0.222206,-0.000208616,0.00760334,0.736412,5,0.1,3,1.6,-2.09158,-3.38012,0.610192,0.429809,0.224018,-0.00992268,-0.349641,-0.182152,0.00804663,0.00925381,0.144589,5,0.1,4,1.6,-3.96143,-2.27356,0.679464,-0.289035,-0.340331,-0.00934601,0.234962,0.276685,0.00759959,0.0073394,0.122685,5,0.1,5,1.6,-3.64778,-3.12095,0.569797,0.441575,0.866026,0.0121579,-0.0840425,0,-0.00235438,0.0255453,2.15298,5,0.1,6,1.6,3.67861,2.82762,0.63893,0.000572205,-0.866026,-0.00709444,-0.000238419,0,0.0013113,0.00902509,2.27189,5,0.1,7,1.6,3.89106,0.527944,0.600817,-0.349319,0.866026,-0.00038594,0.0487566,0,8.9407e-05,0.014841,2.19598,5,0.1,8,1.6,-4.28039,-0.991252,0.685577,-0.112617,0.749363,0.0136629,0.0915527,-0.409573,-0.0111461,0.00724224,0.306014,5,0.1,9,1.6,-1.31441,3.53896,0.607558,0.403419,0.497448,-0.00734925,-0.328124,-0.404477,0.00593066,0.0294863,0.147604,5,0.1
0,1.7,-2.19722,-0.365986,0.58839,0.542815,0.178622,0.0115252,-0.434235,-0.0557676,-0.00921264,0.0116681,0.146199,5,0.1,1,1.7,0.455139,1.9553,0.626561,0.138811,-0.307533,-0.026766,-0.192011,0.161745,0.0140816,0.00872496,0.193402,5,0.1,2,1.7,2.15095,3.25586,0.599616,0.839042,-0.367555,0.000352599,-0.132218,0.208631,-0.000201166,0.00760334,0.736412,5,0.1,3,1.7,-2.05005,-3.35848,0.609233,0.402987,0.210043,-0.0093055,-0.211969,-0.110477,0.00488386,0.00925381,0.144589,5,0.1,4,1.7,-3.98936,-2.30644,0.678561,-0.27101,-0.319105,-0.008763,0.142485,0.167787,0.00460446,0.0073394,0.122685,5,0.1,5,1.7,-3.60388,-3.03435,0.571006,0.437561,0.866026,0.0120437,-0.0219047,0,-0.000633299,0.0255453,2.15298,5,0.1,6,1.7,3.67866,2.74102,0.638224,0.000556186,-0.866026,-0.00703577,-0.000104308,0,0.000275671,0.00902509,2.27189,5,0.1,7,1.7,3.85625,0.614546,0.600778,-0.347553,0.866026,-0.000381097,0.00666082,-3.72529e-06,2.98023e-05,0.014841,2.19598,5,0.1,8,1.7,-4.29122,-0.91824,0.686891,-0.104036,0.711458,0.0126181,0.0831783,-0.373747,-0.0101179,0.00724224,0.306014,5,0.1,9,1.7,-1.27563,3.58677,0.606851,0.372658,0.459529,-0.00679279,-0.298105,-0.367492,0.00539795,0.0294863,0.147604,5,0.1
0,1.8,-2.14514,-0.348449,0.589496,0.49808,0.171525,0.0105754,-0.471473,-0.0905395,-0.0100136,0.0126621,0.0967231,5,0.1,1,1.8,0.467989,1.92531,0.623951,0.117601,-0.292322,-0.0254408,-0.227854,0.156522,0.0136197,0.00603709,0.164453,5,0.1,2,1.8,2.234,3.2202,0.59965,0.819057,-0.344741,0.000330806,-0.294209,0.255942,-0.000268221,0.00592205,0.510712,5,0.1,3,1.8,-2.01076,-3.33799,0.608326,0.383055,0.199652,-0.00884533,-0.205159,-0.106931,0.00470877,0.00680214,0.0833959,5,0.1,4,1.8,-4.01578,-2.33756,0.677707,-0.257611,-0.303322,-0.00832826,0.138044,0.162244,0.00444055,0.00700783,0.0707564,5,0.1,5,1.8,-3.5603,-2.94774,0.572205,0.432801,0.866026,0.011909,-0.0915527,0,-0.0025034,0.0280515,2.16448,5,0.1,6,1.8,3.67872,2.65441,0.637523,0.000542402,-0.866026,-0.00696629,-0.000119209,0,0.00137091,0.00818936,2.27189,5,0.1,7,1.8,3.8216,0.701149,0.60074,-0.344563,0.866026,-0.000375509,0.0674725,0,5.96046e-05,0.0148243,2.1989,5,0.1,8,1.8,-4.3012,-0.849072,0.688101,-0.0954628,0.67037,0.0115767,0.0901222,-0.465184,-0.0109971,0.00684746,0.206341,5,0.1,9,1.8,-1.23988,3.63086,0.606199,0.341946,0.421667,-0.00623614,-0.323653,-0.399113,0.00590086,0.030818,0.0973927,5,0.1
0,1.9,-2.09757,-0.331729,0.590506,0.454402,0.162952,0.00964738,-0.415638,-0.0863224,-0.00883639,0.0126621,0.0967231,5,0.1,1,1.9,0.478567,1.89677,0.621468,0.0936634,-0.278994,-0.0242806,-0.245625,0.122622,0.0106804,0.00603709,0.164453,5,0.1,2,1.9,2.31455,3.18694,0.599682,0.792473,-0.320853,0.000305939,-0.268862,0.231951,-0.000234693,0.00592205,0.510712,5,0.1,3,1.9,-1.97336,-3.3185,0.607462,0.365585,0.190545,-0.00844393,-0.160724,-0.083819,0.00369549,0.00680214,0.0833959,5,0.1,4,1.9,-4.04093,-2.36717,0.676894,-0.245855,-0.289503,-0.00794996,0.108153,0.127181,0.00348687,0.00700783,0.0707564,5,0.1,5,1.9,-3.51737,-2.86114,0.57339,0.42638,0.866026,0.011826,-0.0582635,0,4.84288e-05,0.0280515,2.16448,5,0.1,6,1.9,3.67877,2.56781,0.636831,0.000536442,-0.866026,-0.00690464,-2.98023e-05,0,0.000283122,0.00818936,2.27189,5,0.1,7,1.9,3.78735,0.787751,0.600703,-0.341131,0.866026,-0.000373088,0.0209063,-3.72529e-06,1.49012e-05,0.0148243,2.1989,5,0.1,8,1.9,-4.31032,-0.784229,0.689207,-0.0871114,0.627267,0.0105583,0.0795424,-0.41778,-0.00968948,0.00684746,0.206341,5,0.1,9,1.9,-1.20722,3.67114,0.605604,0.31196,0.384691,-0.00568954,-0.285357,-0.351861,0.00520423,0.030818,0.0973927,5,0.1
0,2,-2.0542,-0.315894,0.591427,0.412661,0.153358,0.00876039,-0.428557,-0.109181,-0.00908971,0.0131982,0.110553,5,0.1,1,2,0.486712,1.86951,0.619095,0.0694074,-0.265658,-0.0231192,-0.235453,0.152886,0.0133216,0.00607474,0.216837,5,0.1,2,2,2.39229,3.15604,0.599712,0.760001,-0.296652,0.000281632,-0.402212,0.258803,-0.000268221,0.0063841,0.347918,5,0.1,3,2,-1.93764,-3.29989,0.606637,0.348106,0.181431,-0.00804067,-0.200331,-0.104427,0.00461936,0.00737773,0.120363,5,0.1,4,2,-4.06495,-2.39546,0.676117,-0.234091,-0.275666,-0.00756979,0.134945,0.158548,0.00432134,0.0074647,0.0540794,5,0.1,5,2,-3.47511,-2.77454,0.574572,0.417513,0.866026,0.0117823,-0.133872,0,-0.00146031,0.0251165,2.17221,5,0.1,6,2,3.67883,2.48121,0.636143,0.000536442,-0.866026,-0.00683814,-0.000238419,0,0.0013411,0.00880572,2.27189,5,0.1,7,2,3.7534,0.874354,0.600666,-0.337011,0.866026,-0.000369549,0.0754595,0,5.96046e-05,0.0137893,2.20242,5,0.1,8,2,-4.31863,-0.723652,0.690214,-0.0791192,0.583291,0.00958592,0.082016,-0.476003,-0.00995398,0.00679629,0.138432,5,0.1,9,2,-1.17744,3.70785,0.605061,0.283301,0.349355,-0.00516623,-0.294209,-0.362873,0.00536442,0.0279778,0.111364,5,0.1
0,2.1,-2.01476,-0.300997,0.592264,0.378749,0.145421,0.00804067,-0.273384,-0.0592247,-0.00581145,0.0131982,0.110553,5,0.1,1,2.1,0.492474,1.84361,0.616841,0.0460319,-0.253139,-0.0220279,-0.223763,0.110574,0.00964478,0.00607474,0.216837,5,0.1,2,2.1,2.4664,3.1276,0.599739,0.722773,-0.272696,0.000256859,-0.368118,0.228778,-0.000230968,0.0063841,0.347918,5,0.1,3,2.1,-1.90379,-3.28221,0.605855,0.329048,0.172425,-0.00760071,-0.191353,-0.083372,0.00442564,0.00737773,0.120363,5,0.1,4,2.1,-4.08778,-2.42234,0.675379,-0.22304,-0.262679,-0.00721579,0.0976026,0.114739,0.00313297,0.0074647,0.0540794,5,0.1,5,2.1,-3.43389,-2.68794,0.575748,0.40787,0.866026,0.0117781,-0.0806302,0,0.000610948,0.0251165,2.17221,5,0.1,6,2.1,3.67888,2.39461,0.635463,0.000520796,-0.866026,-0.00678012,-8.9407e-05,0,0.000234693,0.00880572,2.27189,5,0.1,7,2.1,3.71995,0.960956,0.600629,-0.332839,0.866025,-0.000366848,0.0272542,-7.45058e-06,1.11759e-05,0.0137893,2.20242,5,0.1,8,2.1,-4.32616,-0.667566,0.691126,-0.0715874,0.53935,0.00867201,0.0708401,-0.420235,-0.00858679,0.00679629,0.138432,5,0.1,9,2.1,-1.15037,3.74124,0.604567,0.260017,0.320638,-0.00474174,-0.18771,-0.231519,0.00341982,0.0279778,0.111364,5,0.1
0,2.2,-1.97816,-0.286733,0.593041,0.353867,0.139841,0.00751317,-0.241697,-0.0594109,-0.0051856,0.014091,0.0639609,5,0.1,1,2.2,0.496032,1.81886,0.614688,0.0259824,-0.241321,-0.0209972,-0.172243,0.135005,0.0117719,0.00581315,0.300805,5,0.1,2,2.2,2.53672,3.10148,0.599763,0.682044,-0.249463,0.000233948,-0.464082,0.241637,-0.000238419,0.00573797,0.234517,5,0.1,3,2.2,-1.8719,-3.2654,0.605118,0.308079,0.163448,-0.0071153,-0.235081,-0.101447,0.00542402,0.00667512,0.148175,5,0.1,4,2.2,-4.10958,-2.44801,0.674673,-0.21261,-0.250411,-0.00687838,0.118971,0.140071,0.0038147,0.00728084,0.0242135,5,0.1,5,2.2,-3.39356,-2.60133,0.576927,0.3977,0.866026,0.0117734,-0.138044,0,-0.0012517,0.0249388,2.20126,5,0.1,6,2.2,3.67893,2.308,0.634787,0.0005126,-0.866026,-0.00672042,-0.000119209,0,0.0012517,0.00820241,2.29137,5,0.1,7,2.2,3.68685,1.04756,0.600593,-0.328261,0.866026,-0.000363588,0.0779629,0,8.9407e-05,0.0128215,2.21116,5,0.1,8,2.2,-4.33297,-0.615756,0.691951,-0.0645876,0.4963,0.00782311,0.0708103,-0.452787,-0.00858307,0.00665403,0.159942,5,0.1,9,2.2,-1.12524,3.77223,0.604109,0.242931,0.299567,-0.00443012,-0.165999,-0.204682,0.00301003,0.0287374,0.0648818,5,0.1
0,2.3,-1.94384,-0.273007,0.593769,0.333459,0.134915,0.00707526,-0.182107,-0.045402,-0.0039041,0.014091,0.0639609,5,0.1,1,2.3,0.497795,1.79549,0.612654,0.00999658,-0.225391,-0.0196089,-0.130309,0.184044,0.0160299,0.00581315,0.300805,5,0.1,2,2.3,2.60273,3.07767,0.599785,0.639015,-0.227259,0.000212155,-0.417858,0.20957,-0.000201166,0.00573797,0.234517,5,0.1,3,2.3,-1.84218,-3.24969,0.604432,0.286891,0.149687,-0.00662599,-0.199832,-0.170782,0.00461936,0.00667512,0.148175,5,0.1,4,2.3,-4.13026,-2.47237,0.674004,-0.200946,-0.236673,-0.00650333,0.120372,0.141755,0.00387803,0.00728084,0.0242135,5,0.1,5,2.3,-3.35472,-2.51473,0.578105,0.376893,0.866026,0.0118304,-0.274882,0,0.00152737,0.0249388,2.20126,5,0.1,6,2.3,3.67914,2.22141,0.634127,0.00491291,-0.865627,-0.00641411,0.0783205,0.0159293,0.00471994,0.00820241,2.29137,5,0.1,7,2.3,3.6542,1.13416,0.600552,-0.326087,0.865863,-0.000491738,-0.0106394,-0.00651181,-0.00233948,0.0128215,2.21116,5,0.1,8,2.3,-4.33913,-0.568006,0.692697,-0.0589877,0.461758,0.00714464,0.0449419,-0.268523,-0.00544265,0.00665403,0.159942,5,0.1,9,2.3,-1.10174,3.80128,0.603679,0.227057,0.282284,-0.00417577,-0.158101,-0.154227,0.0022687,0.0287374,0.0648818,5,0.1
0,2.4,-1.91141,-0.259761,0.594457,0.314769,0.12969,0.00667572,-0.202894,-0.0635386,-0.00435114,0.0114046,0.110904,5,0.1,1,2.4,0.498314,1.77395,0.610781,0.00228956,-0.204512,-0.0177905,-0.0173301,0.233114,0.0202954,0.00753153,3.32722,5,0.1,2,2.4,2.66448,3.05599,0.599806,0.594878,-0.206345,0.000192225,-0.47946,0.213504,-0.000208616,0.00809452,0.157335,5,0.1,3,2.4,-1.81451,-3.23567,0.603793,0.266227,0.12992,-0.00614822,-0.221074,-0.221252,0.005126,0.00706671,0.131671,5,0.1,4,2.4,-4.14971,-2.49528,0.673374,-0.187552,-0.220895,-0.00607073,0.151396,0.178456,0.00488758,0.00717663,0.0144553,5,0.1,5,2.4,-3.3186,-2.42813,0.579295,0.343442,0.866026,0.0119314,-0.390172,0,-0.000149012,0.0240298,1.50654,5,0.1,6,2.4,3.68008,2.13505,0.633514,0.0144243,-0.859654,-0.00580847,0.104427,0.127316,0.00727177,0.0094644,2.34361,5,0.1,7,2.4,3.62156,1.22066,0.600489,-0.326282,0.863421,-0.00077337,0.0240803,-0.0520945,-0.00309944,0.0144653,1.79619,5,0.1,8,2.4,-4.34482,-0.523073,0.693386,-0.0549436,0.437301,0.00665486,0.0388622,-0.243038,-0.00467896,0.00604211,0.0932418,5,0.1,9,2.4,-1.07986,3.82873,0.603273,0.210205,0.266457,-0.00394285,-0.183344,-0.1719,0.002563,0.0296366,0.149031,5,0.1
0,2.5,-1.88089,-0.247184,0.595104,0.295938,0.121152,0.00627255,-0.183821,-0.106002,-0.00393018,0.0114046,0.110904,5,0.1,1,2.5,0.498384,1.75354,0.609122,0.00173212,-0.213009,-0.015216,0.127254,-0.331245,0.0300817,0.00753153,3.32722,5,0.1,2,2.5,2.72171,3.03636,0.599824,0.550588,-0.186849,0.000173412,-0.424117,0.18239,-0.000171363,0.00809452,0.157335,5,0.1,3,2.5,-1.78897,-3.22386,0.603203,0.244639,0.105552,-0.00564763,-0.216313,-0.259489,0.00501797,0.00706671,0.131671,5,0.1,4,2.5,-4.16772,-2.51649,0.672791,-0.172792,-0.203497,-0.00559352,0.148505,0.175029,0.00481308,0.00717663,0.0144553,5,0.1,5,2.5,-3.28646,-2.34153,0.580491,0.297216,0.865867,0.0120225,-0.520259,-0.00633299,0.00123307,0.0240298,1.50654,5,0.1,6,2.5,3.68263,2.04924,0.632985,0.0413343,-0.859938,-0.0046337,0.393182,-0.0718907,0.0152364,0.0094644,2.34361,5,0.1,7,2.5,3.58885,1.30696,0.600393,-0.329256,0.863883,-0.00117123,-0.0585765,0.0283793,-0.00452995,0.0144653,1.79619,5,0.1,8,2.5,-4.35014,-0.480403,0.694031,-0.0516914,0.417154,0.00626333,0.02864,-0.179967,-0.00345707,0.00604211,0.0932418,5,0.1,9,2.5,-1.05991,3.85457,0.602891,0.187283,0.250504,-0.00370508,-0.268139,-0.155717,0.00231341,0.0296366,0.149031,5,0.1
0,2.6,-1.85225,-0.23566,0.595711,0.276306,0.108754,0.00585467,-0.21565,-0.140525,-0.00458956,0.0103772,0.142086,5,0.1,1,2.6,0.5,1.73014,0.607759,0.0387073,-0.258034,-0.0119761,0.600845,-0.513732,0.0338256,0.00984725,2.95523,5,0.1,2,2.6,2.77462,3.01857,0.59984,0.507045,-0.168848,0.000156462,-0.458956,0.181556,-0.000178814,0.0104734,0.105504,5,0.1,3,2.6,-1.76561,-3.21462,0.602664,0.222048,0.0792027,-0.00512451,-0.239193,-0.261903,0.00554323,0.00720126,0.249065,5,0.1,4,2.6,-4.18424,-2.53594,0.672257,-0.157106,-0.185007,-0.00508577,0.168324,0.198245,0.00548363,0.00832242,0.00454506,5,0.1,5,2.6,-3.25946,-2.25503,0.581697,0.241959,0.863498,0.0120535,-0.573277,-0.0506639,-0.00116229,0.0209669,1.14959,5,0.1,6,2.6,3.68893,1.96297,0.632605,0.0858784,-0.863519,-0.00293553,0.466585,0.0442863,0.0179112,0.00830086,2.29452,5,0.1,7,2.6,3.55566,1.39342,0.600253,-0.333703,0.864354,-0.00162274,-0.0123978,-0.0333786,-0.00423193,0.013585,1.46415,5,0.1,8,2.6,-4.35517,-0.439617,0.69464,-0.0487685,0.397887,0.00591278,0.0309944,-0.219509,-0.0038147,0.00610828,0.0725315,5,0.1,9,2.6,-1.04262,3.87881,0.602532,0.157875,0.233877,-0.00345856,-0.313997,-0.182629,0.00271201,0.0277837,0.204512,5,0.1
0,2.7,-1.82561,-0.225539,0.596276,0.257169,0.0931928,0.00544786,-0.177749,-0.168392,-0.00376999,0.0103772,0.142086,5,0.1,1,2.7,0.506838,1.70132,0.606735,0.0974483,-0.321591,-0.0084986,0.564303,-0.70288,0.034932,0.00984725,2.95523,5,0.1,2,2.7,2.82317,3.00253,0.599855,0.464862,-0.152357,0.000140537,-0.39956,0.153258,-0.000145286,0.0104734,0.105504,5,0.1,3,2.7,-1.74462,-3.20798,0.60218,0.197775,0.0539728,-0.00456255,-0.247173,-0.238031,0.00572205,0.00720126,0.249065,5,0.1,4,2.7,-4.1991,-2.55345,0.671776,-0.140228,-0.165129,-0.00453638,0.170738,0.201106,0.00555441,0.00832242,0.00454506,5,0.1,5,2.7,-3.23814,-2.16871,0.582899,0.184657,0.863892,0.0119885,-0.563651,0.0173301,-0.000722706,0.0209669,1.14959,5,0.1,6,2.7,3.69938,1.87664,0.63238,0.118754,-0.864255,-0.00173673,0.202909,-0.0298694,0.00692159,0.00830086,2.29452,5,0.1,7,2.7,3.5223,1.47903,0.600075,-0.332409,0.841502,-0.0018931,0.0471473,-0.407897,-0.00131503,0.013585,1.46415,5,0.1,8,2.7,-4.35991,-0.400757,0.695215,-0.0462957,0.380459,0.00560861,0.0210702,-0.149826,-0.00258535,0.00610828,0.0725315,5,0.1,9,2.7,-1.02844,3.90136,0.602199,0.125583,0.217672,-0.003218,-0.326753,-0.150502,0.00223145,0.0277837,0.204512,5,0.1
0,2.8,-1.80079,-0.217091,0.596801,0.238955,0.0755358,0.00506192,-0.193894,-0.182465,-0.00411272,0.0106964,0.252118,5,0.1,1,2.8,0.519274,1.6657,0.606056,0.149742,-0.389147,-0.00512749,0.472993,-0.608087,0.0318289,0.00711079,2.62545,5,0.1,2,2.8,2.86765,2.98805,0.599868,0.424606,-0.137347,0.00012666,-0.415683,0.150442,-0.000149012,0.00971669,0.199078,5,0.1,3,2.8,-1.72609,-3.2037,0.601753,0.172499,0.0323474,-0.00397712,-0.258565,-0.191569,0.00596046,0.00831407,0.42149,5,0.1,4,2.8,-4.21226,-2.56894,0.67135,-0.122738,-0.144529,-0.00396818,0.179768,0.211835,0.00584126,0.00736046,0.00139349,5,0.1,5,2.8,-3.22241,-2.08239,0.584091,0.130802,0.860316,0.0118107,-0.506878,-0.114322,-0.00324845,0.0217075,0.17627,5,0.1,6,2.8,3.71192,1.7901,0.632229,0.128728,-0.866026,-0.00139326,0.00727177,0,0.000596046,0.00671861,2.27919,5,0.1,7,2.8,3.48946,1.56063,0.599883,-0.322855,0.785711,-0.00191033,0.149369,-0.694335,0.000864267,0.00661731,0.856404,5,0.1,8,2.8,-4.36443,-0.363484,0.695763,-0.0441194,0.364386,0.00534356,0.0243187,-0.18622,-0.00298023,0.00877251,0.0329777,5,0.1,9,2.8,-1.0175,3.92237,0.601888,0.0934422,0.20225,-0.00299066,-0.311911,-0.16427,0.00244379,0.0270868,0.195533,5,0.1
0,2.9,-1.77788,-0.210471,0.597287,0.219093,0.0567732,0.00464106,-0.206195,-0.188271,-0.00436977,0.0106964,0.252118,5,0.1,1,2.9,0.536067,1.62362,0.605699,0.181971,-0.45259,-0.00204947,0.221867,-0.618905,0.0291541,0.00711079,2.62545,5,0.1,2,2.9,2.90832,2.97486,0.59988,0.391039,-0.128188,0.000113435,-0.277966,0.0467747,-0.000119209,0.00971669,0.199078,5,0.1,3,2.9,-1.71012,-3.20139,0.601384,0.147063,0.0144403,-0.00339067,-0.250034,-0.159249,0.00576302,0.00831407,0.42149,5,0.1,4,2.9,-4.22364,-2.58234,0.670982,-0.104956,-0.123577,-0.00339076,0.175864,0.207186,0.00570714,0.00736046,0.00139349,5,0.1,5,2.9,-3.21177,-1.99735,0.585257,0.0830974,0.836205,0.0115213,-0.443056,-0.372343,-0.00301376,0.0217075,0.17627,5,0.1,6,2.9,3.72462,1.7035,0.632082,0.123418,-0.866026,-0.00162739,-0.105724,0,-0.00458956,0.00671861,2.27919,5,0.1,7,2.9,3.45778,1.63415,0.599606,-0.311703,0.671119,-0.0043924,0.091061,-1.50739,-0.0447072,0.00661731,0.856404,5,0.1,8,2.9,-4.36873,-0.327954,0.696283,-0.0417843,0.34617,0.00505839,0.0237823,-0.189018,-0.00289083,0.00877251,0.0329777,5,0.1,9,2.9,-1.00967,3.94179,0.601601,0.0636961,0.186316,-0.00275392,-0.278294,-0.15904,0.00236183,0.0270868,0.195533,5,0.1
0,3,-1.75704,-0.205714,0.597728,0.197279,0.0386599,0.00417978,-0.231683,-0.170738,-0.00491738,0.0128231,0.245893,5,0.1,1,3,0.555265,1.57553,0.605632,0.201598,-0.50579,0.000606477,0.195205,-0.415623,0.0235438,0.00748861,2.22215,5,0.1,2,3,2.94611,2.9622,0.599891,0.365138,-0.125527,0.000101328,-0.2563,0.0171661,-8.9407e-05,0.00638712,0.152152,5,0.1,3,3,-1.69665,-3.20064,0.601074,0.122529,0.00160336,-0.00282526,-0.240326,-0.0936985,0.00557303,0.00795136,0.872678,5,0.1,4,3,-4.23326,-2.59367,0.670672,-0.0875831,-0.103116,-0.00282824,0.170946,0.201583,0.00557303,0.0108789,0.000792267,5,0.1,5,3,-3.20554,-1.91604,0.586391,0.0428855,0.78541,0.0111282,-0.358582,-0.643551,-0.005126,0.0212902,0.994156,5,0.1,6,3,3.7363,1.61689,0.631892,0.109023,-0.866026,-0.00218749,-0.175714,5.96046e-05,-0.00610948,0.00670342,2.27539,5,0.1,7,3,3.42708,1.69299,0.598907,-0.301665,0.500438,-0.00982136,0.12219,-1.83433,-0.059396,0.0108436,2.08684,5,0.1,8,3,-4.37278,-0.294359,0.696773,-0.0391483,0.32478,0.00473708,0.0302792,-0.245914,-0.00360608,0.00787928,0.0127613,5,0.1,9,3,-1.0046,3.95961,0.601338,0.0385344,0.169683,-0.00250787,-0.222087,-0.176549,0.0026226,0.0273845,0.319721,5,0.1
0,3.1,-1.73845,-0.202715,0.598122,0.174472,0.0214337,0.00369614,-0.22617,-0.164191,-0.004787,0.0128231,0.245893,5,0.1,1,3.1,0.576265,1.52372,0.605786,0.219573,-0.522378,0.00226265,0.254739,0.0631139,0.0103451,0.00748861,2.22215,5,0.1,2,3.1,2.98152,2.94983,0.599901,0.344308,-0.120832,9.34117e-05,-0.178099,0.0748485,-7.82311e-05,0.00638712,0.152152,5,0.1,3,3.1,-1.68555,-3.201,0.600818,0.0997921,-0.00830442,-0.0022985,-0.214718,-0.0736415,0.00496954,0.00795136,0.872678,5,0.1,4,3.1,-4.24119,-2.603,0.670416,-0.0710465,-0.0836231,-0.00229022,0.159234,0.187635,0.00517443,0.0108789,0.000792267,5,0.1,5,3.1,-3.20275,-1.84003,0.58748,0.0156328,0.740243,0.0106523,-0.193894,-0.314862,-0.00477582,0.0212902,0.994156,5,0.1,6,3.1,3.74627,1.53029,0.631639,0.0898685,-0.866025,-0.00292249,-0.20279,-1.49012e-05,-0.00803173,0.00670342,2.27539,5,0.1,7,3.1,3.39785,1.73614,0.597687,-0.280024,0.382582,-0.0140327,0.2985,-0.630535,-0.026349,0.0108436,2.08684,5,0.1,8,3.1,-4.37654,-0.263125,0.697229,-0.0360817,0.299633,0.00437088,0.0317097,-0.261957,-0.00379235,0.00787928,0.0127613,5,0.1,9,3.1,-1.00182,3.97568,0.6011,0.0177918,0.151719,-0.00224151,-0.184558,-0.183523,0.00271946,0.0273845,0.319721,5,0.1
0,3.2,-1.72214,-0.20132,0.598468,0.151786,0.00733957,0.00321567,-0.228643,-0.112109,-0.00485778,0.0126867,0.409439,5,0.1,1,3.2,0.6,1.47245,0.606048,0.26003,-0.497171,0.00281781,0.538826,0.421643,0.00140071,0.00570184,1.43277,5,0.1,2,3.2,3.01507,2.93821,0.59991,0.326449,-0.110942,8.49366e-05,-0.191808,0.121117,-5.96046e-05,0.00598019,0.219637,5,0.1,3,3.2,-1.67661,-3.20198,0.600612,0.0795305,-0.00879169,-0.00182986,-0.190735,0.0761747,0.00441074,0.00669546,3.12481,5,0.1,4,3.2,-4.24752,-2.61045,0.670212,-0.0558376,-0.0657022,-0.00179708,0.144243,0.170112,0.00467896,0.00878583,0.000707398,5,0.1,5,3.2,-3.20194,-1.76741,0.588519,0.00267029,0.712854,0.0101075,-0.0722408,-0.273645,-0.00634789,0.0215235,2.67764,5,0.1,6,3.2,3.75423,1.44369,0.631307,0.0692844,-0.866026,-0.003694,-0.205159,5.96046e-05,-0.00703335,0.0104042,2.27389,5,0.1,7,3.2,3.37155,1.7725,0.596196,-0.24423,0.35499,-0.0153765,0.406742,-0.00703335,-0.00187755,0.0114419,1.307,5,0.1,8,3.2,-4.37999,-0.234529,0.697646,-0.032711,0.271615,0.00396669,0.0362396,-0.301212,-0.00435114,0.00804122,0.00659265,5,0.1,9,3.2,-1.00085,3.98992,0.60089,0.00286698,0.132877,-0.00196248,-0.109792,-0.193715,0.00286102,0.0251812,0.473791,5,0.1
0,3.3,-1.70808,-0.201126,0.598765,0.129469,-0.00276729,0.00274209,-0.217959,-0.0715163,-0.00462309,0.0126867,0.409439,5,0.1,1,3.3,0.629331,1.4254,0.606325,0.331216,-0.439035,0.0026281,0.818115,0.712924,-0.00463054,0.00570184,1.43277,5,0.1,2,3.3,3.04711,2.9278,0.599918,0.316975,-0.0964049,8.05594e-05,-0.0270903,0.165179,-3.35276e-05,0.00598019,0.219637,5,0.1,3,3.3,-1.66956,-3.20251,0.60045,0.061935,0.00164993,-0.00142325,-0.16167,0.274196,0.00373274,0.00669546,3.12481,5,0.1,4,3.3,-4.25241,-2.6162,0.670055,-0.0422239,-0.049654,-0.00135619,0.127494,0.150219,0.00412017,0.00878583,0.000707398,5,0.1,5,3.3,-3.20217,-1.69681,0.5895,-0.00747107,0.704327,0.00951635,-0.0858158,0.0399798,-0.00579283,0.0215235,2.67764,5,0.1,6,3.3,3.76014,1.35709,0.6309,0.0492599,-0.866025,-0.00444287,-0.192747,-1.49012e-05,-0.00745431,0.0104042,2.27389,5,0.1,7,3.3,3.34928,1.80889,0.594677,-0.200249,0.380059,-0.0147529,0.462592,0.436373,0.0132546,0.0114419,1.307,5,0.1,8,3.3,-4.38308,-0.208853,0.698021,-0.029166,0.242017,0.00354042,0.0351071,-0.294486,-0.00423566,0.00804122,0.00659265,5,0.1,9,3.3,-1.00107,4.00225,0.600708,-0.00633989,0.113756,-0.00168029,-0.0563785,-0.188604,0.00278652,0.0251812,0.473791,5,0.1
0,3.4,-1.69621,-0.201585,0.599017,0.108168,-0.0044439,0.00229031,-0.208139,0.0446811,-0.00441074,0.0109828,1.10177,5,0.1,1,3.4,0.666552,1.38534,0.606559,0.412013,-0.359723,0.00199527,0.748217,0.850141,-0.00759959,0.00934281,0.812332,5,0.1,2,3.4,3.07874,2.91903,0.599926,0.315911,-0.0787258,7.7486e-05,-0.015974,0.184655,-5.96046e-05,0.00664104,0.494458,5,0.1,3,3.4,-1.66413,-3.2,0.600325,0.0471026,0.0583768,-0.00108033,-0.135481,0.841975,0.00309944,0.00607659,3.20677,5,0.1,4,3.4,-4.25602,-2.62045,0.669939,-0.0304222,-0.0357568,-0.000974536,0.108004,0.127316,0.00345707,0.00704829,0.000545253,5,0.1,5,3.4,-3.2031,-1.62609,0.590422,-0.00807643,0.709879,0.0088945,0.0932217,0.0244975,-0.00682473,0.0249522,2.86561,5,0.1,6,3.4,3.76414,1.27048,0.630421,0.0311852,-0.866026,-0.00510365,-0.167012,5.96046e-05,-0.00536442,0.00840177,2.27286,5,0.1,7,3.4,3.33159,1.84932,0.593285,-0.153553,0.429615,-0.0129268,0.463247,0.500321,0.0223517,0.014141,1.01879,5,0.1,8,3.4,-4.38582,-0.186136,0.698354,-0.0255942,0.212141,0.00310987,0.0360012,-0.305049,-0.00438094,0.00603757,0.00199596,5,0.1,9,3.4,-1.00179,4.01269,0.600554,-0.00602007,0.0951767,-0.00140667,0.0684857,-0.182629,0.00271201,0.0281459,0.43939,5,0.1
0,3.5,-1.68639,-0.201779,0.599225,0.0885602,0.00297395,0.00187512,-0.184551,0.181226,-0.0039041,0.0109828,1.10177,5,0.1,1,3.5,0.711526,1.35368,0.606716,0.486718,-0.273291,0.0011188,0.704642,0.860922,-0.00951067,0.00934281,0.812332,5,0.1,2,3.5,3.1105,2.9121,0.599934,0.321023,-0.0598699,7.15256e-05,0.0904649,0.188351,-5.96046e-05,0.00664104,0.494458,5,0.1,3,3.5,-1.66006,-3.18856,0.600232,0.0346964,0.181265,-0.00079656,-0.112809,1.50022,0.00258163,0.00607659,3.20677,5,0.1,4,3.5,-4.25855,-2.62343,0.669858,-0.0205025,-0.0240702,-0.000656955,0.0900626,0.106052,0.00288337,0.00704829,0.000545253,5,0.1,5,3.5,-3.20326,-1.5546,0.591278,0.00899732,0.722238,0.00824267,0.327379,0.169896,-0.00644103,0.0249522,2.86561,5,0.1,6,3.5,3.76646,1.18388,0.629883,0.0156172,-0.866025,-0.005663,-0.142813,-1.49012e-05,-0.00538677,0.00840177,2.27286,5,0.1,7,3.5,3.31848,1.89515,0.592114,-0.109282,0.489055,-0.010419,0.417367,0.633314,0.0270195,0.014141,1.01879,5,0.1,8,3.5,-4.3882,-0.166429,0.698643,-0.0220545,0.18218,0.00267932,0.0348985,-0.294864,-0.00424311,0.00603757,0.00199596,5,0.1,9,3.5,-1.00191,4.02133,0.600426,0.00586677,0.077866,-0.00115,0.199027,-0.163853,0.00242889,0.0281459,0.43939,5,0.1
0,3.6,-1.67843,-0.2,0.599393,0.071162,0.03828,0.00150651,-0.163734,0.512116,-0.00345707,0.0105766,2.36971,5,0.1,1,3.6,0.763372,1.33056,0.60678,0.545959,-0.190571,0.000165403,0.451535,0.780642,-0.00917912,0.00757351,0.245951,5,0.1,2,3.6,3.14304,2.90703,0.59994,0.329208,-0.0417531,6.55651e-05,0.0531673,0.170827,-5.96046e-05,0.0113343,1.46996,5,0.1,3,3.6,-1.65712,-3.16263,0.600164,0.0245035,0.338089,-0.000561774,-0.0912547,1.54841,0.00205636,0.00636018,2.71586,5,0.1,4,3.6,-4.26019,-2.62534,0.669806,-0.0124454,-0.0145912,-0.000399351,0.0710487,0.0834465,0.00226498,0.00676289,0.0003205,5,0.1,5,3.6,-3.2,-1.48164,0.592069,0.0629961,0.734794,0.00756979,0.729442,0.0434518,-0.00715256,0.0198163,2.64147,5,0.1,6,3.6,3.76736,1.09728,0.629293,0.00287294,-0.866026,-0.0061065,-0.111103,5.96046e-05,-0.00312924,0.00678985,2.27213,5,0.1,7,3.6,3.30953,1.94706,0.59121,-0.0708818,0.546771,-0.00766069,0.347733,0.481188,0.0274777,0.0145649,0.403331,5,0.1,8,3.6,-4.39023,-0.149672,0.69889,-0.0186086,0.153088,0.00225902,0.0343323,-0.287101,-0.00411272,0.00769861,0.000936323,5,0.1,9,3.6,-1,4.02832,0.600323,0.0354126,0.0623584,-0.000919402,0.37837,-0.146151,0.00214577,0.0260956,0.379566,5,0.1
0,3.7,-1.67208,-0.192266,0.599528,0.0560991,0.127236,0.00118846,-0.138164,1.165,-0.0029169,0.0105766,2.36971,5,0.1,1,3.7,0.819862,1.31514,0.60675,0.579871,-0.120531,-0.000763591,0.214089,0.620879,-0.00908598,0.00757351,0.245951,5,0.1,2,3.7,3.1767,2.90377,0.599945,0.347536,-0.0232108,1.44355e-05,0.268877,0.184923,-0.000860542,0.0113343,1.46996,5,0.1,3,3.7,-1.65509,-3.12062,0.600118,0.0164153,0.504479,-0.000379328,-0.0709072,1.68955,0.0016056,0.00636018,2.71586,5,0.1,4,3.7,-4.2611,-2.62641,0.669776,-0.00614002,-0.00719093,-0.000198092,0.0549853,0.0645369,0.00175461,0.00676289,0.0003205,5,0.1,5,3.7,-3.18909,-1.4077,0.592793,0.162538,0.745367,0.00691405,1.17612,0.12175,-0.00618026,0.0198163,2.64147,5,0.1,6,3.7,3.76713,1.01068,0.628665,-0.00718459,-0.866025,-0.00644624,-0.0889301,-1.11759e-05,-0.00324845,0.00678985,2.27213,5,0.1,7,3.7,3.30418,2.00393,0.590581,-0.0363771,0.587906,-0.0049144,0.334755,0.318438,0.0268891,0.0145649,0.403331,5,0.1,8,3.7,-4.39193,-0.135766,0.699096,-0.0152893,0.125358,0.00186022,0.0319779,-0.266968,-0.00385195,0.00769861,0.000936323,5,0.1,9,3.7,-0.994164,4.03387,0.600241,0.0843539,0.048852,-0.00072103,0.56209,-0.124335,0.00183284,0.0260956,0.379566,5,0.1
0,3.8,-1.66713,-0.173333,0.599633,0.043413,0.25328,0.000920892,-0.116229,1.27785,-0.00247359,0.00956345,2.97497,5,0.1,1,3.8,0.878445,1.30593,0.606631,0.586876,-0.0661761,-0.0015974,-0.0803769,0.467658,-0.00739098,0.005616,0.141227,5,0.1,2,3.8,3.21285,2.9023,0.599942,0.375229,-0.00718236,-8.9407e-05,0.25177,0.1266,-0.00113249,0.00752942,1.31897,5,0.1,3,3.8,-1.65377,-3.0621,0.600087,0.0102401,0.660521,-0.000239909,-0.0529289,1.3665,0.0012219,0.00986142,2.40347,5,0.1,4,3.8,-4.26147,-2.62684,0.669764,-0.00144243,-0.00167489,-4.76837e-05,0.0391006,0.0457764,0.0012517,0.00892499,0.000141215,5,0.1,5,3.8,-3.1668,-1.33273,0.593453,0.283253,0.751254,0.00629425,1.17373,-0.0366569,-0.00631809,0.0202417,2.17811,5,0.1,6,3.8,3.76601,0.924073,0.628007,-0.0147343,-0.866026,-0.00668466,-0.061512,0,-0.0012219,0.00633144,2.27169,5,0.1,7,3.8,3.30215,2.0639,0.59022,-0.00523925,0.606704,-0.00237823,0.282526,0.043273,0.023365,0.00925509,0.609838,5,0.1,8,3.8,-4.3933,-0.124528,0.699263,-0.012219,0.0997966,0.00149012,0.0290871,-0.243779,-0.00354648,0.00798796,0.000769457,5,0.1,9,3.8,-0.982875,4.03816,0.600177,0.14111,0.0374198,-0.000554323,0.54425,-0.104904,0.00157952,0.0255491,0.305843,5,0.1
0,3.9,-1.66216,-0.141203,0.599713,0.0661792,0.391504,0.00069635,0.497036,1.41157,-0.00203028,0.00956345,2.97497,5,0.1,1,3.9,0.936574,1.30145,0.606435,0.573855,-0.0253113,-0.00230586,-0.191167,0.350483,-0.00653788,0.005616,0.141227,5,0.1,2,3.9,3.25182,2.90221,0.599926,0.405114,0.00454895,-0.000217836,0.311524,0.080213,-0.00136718,0.00752942,1.31897,5,0.1,3,3.9,-1.65298,-2.98985,0.600069,0.00571441,0.777289,-0.000135228,-0.0380054,0.940412,0.000879169,0.00986142,2.40347,5,0.1,4,3.9,-4.26144,-2.6268,0.669765,0.00184253,0.00217073,5.75557e-05,0.0267923,0.0313371,0.000856817,0.00892499,0.000141215,5,0.1,5,3.9,-3.1323,-1.25764,0.594053,0.408248,0.751258,0.00572251,1.25945,-0.00195205,-0.00530854,0.0202417,2.17811,5,0.1,6,3.9,3.76425,0.83747,0.627331,-0.0201747,-0.866026,-0.00684615,-0.046283,3.72529e-06,-0.00160187,0.00633144,2.27169,5,0.1,7,3.9,3.30268,2.12499,0.590095,0.0126634,0.616311,-0.000151712,0.0896603,0.11012,0.0207536,0.00925509,0.609838,5,0.1,8,3.9,-4.39438,-0.115723,0.699395,-0.00946373,0.076758,0.00115409,0.025928,-0.216277,-0.0031665,0.00798796,0.000769457,5,0.1,9,3.9,-0.965934,4.04141,0.600129,0.198044,0.0279292,-0.000411831,0.565372,-0.0852942,0.00127405,0.0255491,0.305843,5,0.1
0,4,-1.65255,-0.0952817,0.599773,0.129569,0.522644,0.0005126,0.712752,1.15682,-0.00160933,0.0147704,2.55434,5,0.1,1,4,0.992749,1.30049,0.606174,0.546913,0.00414252,-0.00286698,-0.353962,0.240028,-0.00447035,0.00599628,0.364753,5,0.1,2,4,3.29376,2.90282,0.599898,0.431639,0.00504851,-0.000350177,0.194311,-0.0807047,-0.00119209,0.00580693,1.1449,5,0.1,3,4,-1.65258,-2.90828,0.600059,0.00255406,0.845283,-6.25849e-05,-0.02563,0.414848,0.000596046,0.0069366,0.707832,5,0.1,4,4,-4.26114,-2.62645,0.669774,0.00394583,0.00463128,0.00012517,0.0157356,0.018239,0.000506639,0.00667039,4.74011e-05,5,0.1,5,4,-3.08548,-1.18272,0.5946,0.523669,0.74431,0.00519902,1.00088,-0.163853,-0.00533462,0.0188002,1.63161,5,0.1,6,4,3.76203,0.750867,0.62664,-0.0238299,-0.866026,-0.006935,-0.0261068,0,0.000119209,0.00691757,2.2715,5,0.1,7,4,3.30417,2.18702,0.590177,0.0152588,0.622118,0.00170469,-0.0261068,-0.0212193,0.0160933,0.0120374,0.442788,5,0.1,8,4,-4.3952,-0.109078,0.699495,-0.00703335,0.0566566,0.000858307,0.0219345,-0.185307,-0.00274181,0.0083477,0.000607696,5,0.1,9,4,-0.943464,4.04381,0.600094,0.2492,0.0202775,-0.000296533,0.436962,-0.0681877,0.000983477,0.0288352,0.251902,5,0.1
0,4.1,-1.63552,-0.0371461,0.599817,0.214422,0.639355,0.000370014,0.925712,1.11577,-0.00125542,0.0147704,2.55434,5,0.1,1,4.1,1.04597,1.30175,0.605866,0.519621,0.0178669,-0.00327826,-0.221577,0.049293,-0.00356883,0.00599628,0.364753,5,0.1,2,4.1,3.33796,2.90274,0.599857,0.452199,-0.00984594,-0.000470877,0.189885,-0.259191,-0.00116974,0.00580693,1.1449,5,0.1,3,4.1,-1.65244,-2.8225,0.600055,0.000508502,0.864089,-1.49943e-05,-0.0157207,0.0262409,0.000368804,0.0069366,0.707832,5,0.1,4,4.1,-4.26068,-2.62591,0.669789,0.0050962,0.0059627,0.000162236,0.00751019,0.00867248,0.000238419,0.00667039,4.74011e-05,5,0.1,5,4.1,-3.02811,-1.10901,0.595095,0.622385,0.730177,0.00471743,0.922143,-0.149958,-0.00445917,0.0188002,1.63161,5,0.1,6,4.1,3.75953,0.664265,0.625945,-0.0260953,-0.866026,-0.00697533,-0.0181049,3.72529e-06,-0.000517815,0.00691757,2.2715,5,0.1,7,4.1,3.30546,2.24923,0.590424,0.00960939,0.622351,0.00318652,-0.0803322,-0.00493228,0.013236,0.0120374,0.442788,5,0.1,8,4.1,-4.3958,-0.104291,0.699568,-0.00499785,0.0395771,0.000604987,0.0186563,-0.15584,-0.00231713,0.0083477,0.000607696,5,0.1,9,4.1,-0.916373,4.04537,0.600069,0.291913,0.00979304,-0.000209268,0.394888,-0.132024,0.000763685,0.0288352,0.251902,5,0.1
0,4.2,-1.6095,0.0318856,0.599848,0.304505,0.735331,0.00025928,0.832558,0.760711,-0.000923872,0.0102566,2.26462,5,0.1,1,4.2,1.09684,1.30357,0.605523,0.497484,0.0166982,-0.00355095,-0.242651,-0.0605583,-0.00172853,0.00751229,1.00668,5,0.1,2,4.2,3.38394,2.9,0.599804,0.465053,-0.0491679,-0.000575185,0.0486374,-0.508904,-0.000834465,0.00839077,0.940709,5,0.1,3,4.2,-1.65245,-2.73632,0.600055,-0.000670552,0.855786,1.3411e-05,-0.00822544,-0.204921,0.000178814,0.00933947,0.311009,5,0.1,4,4.2,-4.26014,-2.62529,0.669806,0.00550747,0.00642538,0.000175834,0.000715256,0.00107288,2.98023e-05,0.00711371,1.45514e-05,5,0.1,5,4.2,-2.96174,-1.03693,0.595544,0.699431,0.709075,0.00427961,0.58341,-0.293344,-0.00441074,0.0189196,1.16492,5,0.1,6,4.2,3.75685,0.577662,0.625247,-0.027281,-0.866026,-0.00697076,-0.00488758,0,0.000923872,0.00573832,2.27145,5,0.1,7,4.2,3.30597,2.31127,0.590802,0.000363588,0.615925,0.00430197,-0.0991821,-0.144839,0.00888109,0.0117239,0.378616,5,0.1,8,4.2,-4.39621,-0.101061,0.699618,-0.0033021,0.0255482,0.000394881,0.0150204,-0.124596,-0.00184774,0.0111068,0.000374196,5,0.1,9,4.2,-0.885427,4.04564,0.600052,0.3244,-0.00444651,-0.000141561,0.239491,-0.145435,0.000536442,0.0255992,0.183103,5,0.1
0,4.3,-1.5747,0.109103,0.59987,0.392123,0.806683,0.000179559,0.870407,0.621932,-0.000678003,0.0102566,2.26462,5,0.1,1,4.3,1.14582,1.30496,0.605179,0.485561,0.0112496,-0.00315988,-0.0364259,-0.0540018,0.00849739,0.00751229,1.00668,5,0.1,2,4.3,3.43071,2.89198,0.599743,0.470071,-0.115463,-0.000655558,0.03016,-0.764295,-0.000726432,0.00839077,0.940709,5,0.1,3,4.3,-1.65255,-2.6519,0.600057,-0.00121519,0.830797,2.52388e-05,-0.00299513,-0.31437,6.33299e-05,0.00933947,0.311009,5,0.1,4,4.3,-4.2596,-2.62465,0.669824,0.0053443,0.00625402,0.000171177,-0.00366569,-0.00417233,-0.000111759,0.00711371,1.45514e-05,5,0.1,5,4.3,-2.88896,-0.967389,0.595952,0.754171,0.681961,0.00388203,0.471056,-0.274353,-0.00367686,0.0189196,1.16492,5,0.1,6,4.3,3.7541,0.49106,0.624552,-0.0277072,-0.866026,-0.00694022,-0.00247359,3.57628e-06,8.9407e-05,0.00573832,2.27145,5,0.1,7,4.3,3.30559,2.37221,0.591273,-0.00740215,0.603033,0.00508791,-0.0656545,-0.13788,0.00659749,0.0117239,0.378616,5,0.1,8,4.3,-4.39647,-0.0990846,0.699649,-0.00194833,0.0144155,0.000229012,0.0120103,-0.0979919,-0.00146404,0.0111068,0.000374196,5,0.1,9,4.3,-0.851831,4.04443,0.60004,0.346666,-0.0199944,-9.49018e-05,0.188157,-0.15837,0.000398606,0.0255992,0.183103,5,0.1
0,4.4,-1.5314,0.192362,0.599885,0.470132,0.852577,0.00012219,0.654519,0.268952,-0.000476837,0.00981783,2.10834,5,0.1,1,4.4,1.19426,1.30579,0.604916,0.483146,0.00506639,-0.00203848,-0.0417829,-0.0723004,0.0130832,0.00632557,0.868394,5,0.1,2,4.4,3.47769,2.87655,0.599674,0.467473,-0.192791,-0.000713766,-0.0966787,-0.742555,-0.00038743,0.00687615,0.731682,5,0.1,3,4.4,-1.65268,-2.5707,0.60006,-0.00132918,0.789773,2.83122e-05,0.000476837,-0.518084,-2.98023e-05,0.00872797,2.42201,5,0.1,4,4.4,-4.25909,-2.62405,0.66984,0.00481606,0.00565052,0.000154972,-0.0064373,-0.0077486,-0.000208616,0.00960801,8.67005e-06,5,0.1,5,4.4,-2.81165,-0.900702,0.596322,0.786912,0.649935,0.00352114,0.156879,-0.383437,-0.00363588,0.0154654,0.801374,5,0.1,6,4.4,3.75133,0.404457,0.62386,-0.0275791,-0.866025,-0.00688434,0.00572205,-1.43051e-05,0.0013113,0.00891031,2.27146,5,0.1,7,4.4,3.30452,2.43167,0.59181,-0.0141501,0.584173,0.00558197,-0.0735521,-0.256419,0.00312924,0.0117891,0.203144,5,0.1,8,4.4,-4.39662,-0.0980887,0.699665,-0.000905991,0.0059424,0.000102818,0.00905991,-0.071615,-0.00110269,0.00775531,0.000175054,5,0.1,9,4.4,-0.816426,4.04167,0.600032,0.359087,-0.0349045,-6.10948e-05,0.0484884,-0.13423,0.000298023,0.0241963,0.127582,5,0.1
0,4.5,-1.48102,0.278439,0.599895,0.537442,0.864978,8.27946e-05,0.646606,0.0253339,-0.00031665,0.00981783,2.10834,5,0.1,1,4.5,1.24259,1.30601,0.604784,0.484724,-0.000332668,-0.000530947,0.0414997,-0.0569522,0.0162907,0.00632557,0.868394,5,0.1,2,4.5,3.52398,2.8534,0.599601,0.458198,-0.270591,-0.000749063,-0.10635,-0.773489,-0.000286847,0.00687615,0.731682,5,0.1,3,4.5,-1.65281,-2.49301,0.600063,-0.00117645,0.774541,2.32831e-05,0.00238419,0.115484,-6.70552e-05,0.00872797,2.42201,5,0.1,4,4.5,-4.25864,-2.62353,0.669854,0.00407472,0.00476614,0.000130944,-0.00813603,-0.00968575,-0.00026077,0.00960801,8.67005e-06,5,0.1,5,4.5,-2.73223,-0.83752,0.596657,0.799964,0.614242,0.00319388,0.0717044,-0.351403,-0.00302494,0.0154654,0.801374,5,0.1,6,4.5,3.74859,0.317855,0.623175,-0.0271257,-0.866025,-0.00682054,0.00457466,1.78814e-06,0.000361353,0.00891031,2.27146,5,0.1,7,4.5,3.30271,2.48872,0.592695,-0.0223946,0.555865,0.0147218,-0.0908524,-0.320196,0.159711,0.0117891,0.203144,5,0.1,8,4.5,-4.39666,-0.0978173,0.69967,-0.00012517,-0.000166229,8.19564e-06,0.00655651,-0.0507911,-0.000789762,0.00775531,0.000175054,5,0.1,9,4.5,-0.7803,4.03752,0.600027,0.362823,-0.0479668,-3.60422e-05,0.011988,-0.122011,0.000204891,0.0241963,0.127582,5,0.1
0,4.6,-1.42436,0.364897,0.599902,0.591797,0.86271,5.66244e-05,0.408947,-0.0662959,-0.000208616,0.00912961,1.60887,5,0.1,1,4.6,1.29119,1.30559,0.604813,0.485989,-0.00929832,0.00108331,-0.0389218,-0.130832,0.015378,0.00950887,0.73082,5,0.1,2,4.6,3.56914,2.8227,0.599525,0.44328,-0.340641,-0.00076592,-0.203609,-0.598907,2.98023e-05,0.00693905,0.543315,5,0.1,3,4.6,-1.65291,-2.41459,0.600065,-0.000885129,0.795698,1.63913e-05,0.00321865,0.233889,-5.96046e-05,0.0060662,0.658605,5,0.1,4,4.6,-4.25828,-2.6231,0.669866,0.00323057,0.00376701,0.000104308,-0.00858307,-0.0101328,-0.000298023,0.00701873,8.29889e-06,5,0.1,5,4.6,-2.65223,-0.777939,0.596962,0.795877,0.576128,0.00289679,-0.174761,-0.42513,-0.00295043,0.0188003,0.538168,5,0.1,6,4.6,3.74591,0.231252,0.622496,-0.0264525,-0.866025,-0.00674427,0.00977516,0,0.00149012,0.00598714,2.2715,5,0.1,7,4.6,3.3,2.54254,0.595088,-0.0318706,0.518471,0.0339806,-0.0946522,-0.433803,0.209987,0.00562633,0.721214,5,0.1,8,4.6,-4.39665,-0.0980552,0.699668,0.000417233,-0.00427254,-5.66244e-05,0.00405312,-0.0316687,-0.000476837,0.00697779,6.17702e-05,5,0.1,9,4.6,-0.744113,4.03216,0.600025,0.359121,-0.0584602,-1.93715e-05,-0.0953674,-0.0846386,0.000149012,0.0246065,0.136314,5,0.1
0,4.7,-1.36313,0.451112,0.599907,0.631892,0.86308,4.07919e-05,0.356577,0.0238645,-0.000119209,0.00912961,1.60887,5,0.1,1,4.7,1.33971,1.30395,0.604999,0.484798,-0.0253035,0.00264049,-0.01017,-0.224061,0.0151768,0.00950887,0.73082,5,0.1,2,4.7,3.6125,2.78565,0.599448,0.423932,-0.399232,-0.000761915,-0.197768,-0.542149,7.82311e-05,0.00693905,0.543315,5,0.1,3,4.7,-1.65298,-2.33393,0.600066,-0.00050813,0.815989,8.9407e-06,0.00412762,0.137702,-8.19564e-05,0.0060662,0.658605,5,0.1,4,4.7,-4.258,-2.62278,0.669875,0.00236779,0.00275038,7.47852e-05,-0.00852346,-0.00999868,-0.000286847,0.00701873,8.29889e-06,5,0.1,5,4.7,-2.57352,-0.722335,0.597238,0.777776,0.536683,0.00263117,-0.213847,-0.38122,-0.00245869,0.0188003,0.538168,5,0.1,6,4.7,3.74331,0.14465,0.621826,-0.0256952,-0.866025,-0.00666557,0.00666082,-1.3411e-06,0.000473112,0.00598714,2.2715,5,0.1,7,4.7,3.29583,2.59092,0.599295,-0.055645,0.438146,0.0479396,-0.344381,-1.09804,0.0766702,0.00562633,0.721214,5,0.1,8,4.7,-4.39659,-0.0986162,0.69966,0.000737607,-0.0067124,-9.37842e-05,0.00238419,-0.0175252,-0.000271946,0.00697779,6.17702e-05,5,0.1,9,4.7,-0.70845,4.0261,0.600023,0.355756,-0.0608437,-8.28877e-06,0.00202283,0.0285804,7.82311e-05,0.0246065,0.136314,5,0.1
0,4.8,-1.29849,0.537354,0.59991,0.656995,0.858997,3.12924e-05,0.120699,-0.140578,-2.98023e-05,0.0119738,1.14588,5,0.1,1,4.8,1.38801,1.3,0.605335,0.479671,-0.0563949,0.00402033,-0.11003,-0.385821,0.0119507,0.00635043,0.588042,5,0.1,2,4.8,3.65381,2.74332,0.599373,0.401324,-0.443882,-0.000745058,-0.264287,-0.329614,0.000268221,0.00835978,0.385046,5,0.1,3,4.8,-1.65301,-2.25203,0.600066,-9.23872e-05,0.817549,0,0.00405312,-0.128865,-5.96046e-05,0.00808142,2.32318,5,0.1,4,4.8,-4.2578,-2.62255,0.669881,0.00154972,0.00180006,4.76837e-05,-0.00739098,-0.0089407,-0.000238419,0.0102262,6.58552e-06,5,0.1,5,4.8,-2.49705,-0.670616,0.597489,0.748694,0.496945,0.00239015,-0.385165,-0.425518,-0.00244379,0.0170475,0.356926,5,0.1,6,4.8,3.74077,0.0580471,0.621163,-0.0248969,-0.866025,-0.00658035,0.0101328,-1.19209e-06,0.00146031,0.0071539,2.27154,5,0.1,7,4.8,3.28838,2.62866,0.604304,-0.0943065,0.312263,0.0507042,-0.400901,-1.3603,-0.0149608,0.0112989,0.300144,5,0.1,8,4.8,-4.39651,-0.0993545,0.69965,0.000905991,-0.00785775,-0.000113249,0.000953674,-0.00579283,-5.96046e-05,0.00649491,1.8586e-05,5,0.1,9,4.8,-0.672878,4.02029,0.600023,0.355041,-0.0542641,-2.98023e-06,-0.0350773,0.0958443,5.96046e-05,0.026248,0.0969197,5,0.1
0,4.9,-1.2322,0.622707,0.599914,0.667933,0.848595,3.03611e-05,0.0689328,-0.107322,7.45058e-06,0.0119738,1.14588,5,0.1,1,4.9,1.4355,1.29204,0.605795,0.470297,-0.105794,0.00516698,-0.0977889,-0.563309,0.0105351,0.00635043,0.588042,5,0.1,2,4.9,3.69269,2.69734,0.5993,0.376499,-0.474554,-0.000718702,-0.2442,-0.259548,0.000279397,0.00835978,0.385046,5,0.1,3,4.9,-1.653,-2.17008,0.600066,0.00030417,0.827679,-6.33299e-06,0.00376254,0.249445,-6.70552e-05,0.00808142,2.32318,5,0.1,4,4.9,-4.25768,-2.62241,0.669885,0.000847131,0.000957027,2.50526e-05,-0.00652671,-0.00779331,-0.000204891,0.0102262,6.58552e-06,5,0.1,5,4.9,-2.42404,-0.622927,0.597717,0.711491,0.457679,0.00217045,-0.381008,-0.374366,-0.00203028,0.0170475,0.356926,5,0.1,6,4.9,3.73832,-0.0285554,0.62051,-0.0241444,-0.866025,-0.00650389,0.00622869,0,0.000458211,0.0071539,2.27154,5,0.1,7,4.9,3.27722,2.65427,0.609209,-0.126229,0.21062,0.0465849,-0.238582,-0.718594,-0.0632256,0.0112989,0.300144,5,0.1,8,4.9,-4.39641,-0.100155,0.699638,0.000949204,-0.0080123,-0.000113714,-5.96046e-05,0.00227103,4.09782e-05,0.00649491,1.8586e-05,5,0.1,9,4.9,-0.637494,4.01532,0.600023,0.352767,-0.0453554,7.45058e-07,-0.0271723,0.0831783,1.49012e-05,0.026248,0.0969197,5,0.1
0,5,-1.16534,0.706818,0.599917,0.665927,0.830795,3.12924e-05,-0.128567,-0.276119,0,0.00822057,0.792146,5,0.1,1,5,1.48193,1.27861,0.606359,0.456688,-0.162262,0.00605285,-0.188231,-0.536859,0.00685453,0.00872807,0.45034,5,0.1,2,5,3.72907,2.64886,0.599229,0.350469,-0.49175,-0.000685453,-0.284553,-0.0680685,0.000417233,0.0118583,0.263373,5,0.1,3,5,-1.65295,-2.08599,0.600065,0.00064373,0.853407,-1.19209e-05,0.00292063,0.20659,-5.96046e-05,0.00654535,2.27673,5,0.1,4,5,-4.25763,-2.62235,0.669886,0.00026226,0.0002563,5.96046e-06,-0.00524521,-0.00607967,-0.000149012,0.00673142,3.92317e-06,5,0.1,5,5,-2.35494,-0.579044,0.597924,0.668806,0.419605,0.00196993,-0.487328,-0.397116,-0.00196695,0.0159385,0.23584,5,0.1,6,5,3.73594,-0.115158,0.619863,-0.0234246,-0.866026,-0.00642389,0.0089407,4.76837e-06,0.00143051,0.00607875,2.27157,5,0.1,7,5,3.26366,2.67248,0.6135,-0.142348,0.160205,0.038822,-0.0858307,-0.327349,-0.0885725,0.00920091,0.207805,5,0.1,8,5,-4.39632,-0.100934,0.699627,0.000905991,-0.00748467,-0.000105798,-0.000715256,0.00789389,8.9407e-05,0.00837848,9.19215e-06,5,0.1,9,5,-0.602452,4.01119,0.600023,0.346778,-0.0374913,0,-0.10407,0.074625,0,0.0217222,0.166172,5,0.1
0,5.1,-1.09937,0.788637,0.59992,0.652961,0.805934,3.241e-05,-0.154488,-0.253391,1.49012e-05,0.00822057,0.792146,5,0.1,1,5.1,1.52672,1.2596,0.606997,0.439373,-0.218355,0.00668196,-0.174634,-0.5555,0.00537559,0.00872807,0.45034,5,0.1,2,5.1,3.76277,2.59938,0.599163,0.324,-0.497034,-0.000645686,-0.254869,-0.0180453,0.000398606,0.0118583,0.263373,5,0.1,3,5.1,-1.65287,-1.99995,0.600064,0.000929087,0.864665,-1.78814e-05,0.00268221,0.0429899,-5.96046e-05,0.00654535,2.27673,5,0.1,4,5.1,-4.25763,-2.62236,0.669886,-0.000207871,-0.00028573,-7.26432e-06,-0.00414252,-0.00472367,-0.000119209,0.00673142,3.92317e-06,5,0.1,5,5.1,-2.29039,-0.538949,0.598112,0.622789,0.383167,0.0017927,-0.451565,-0.343837,-0.00164285,0.0159385,0.23584,5,0.1,6,5.1,3.73364,-0.20176,0.619225,-0.0227973,-0.866025,-0.00634938,0.00488758,-2.98023e-07,0.000439584,0.00607875,2.27157,5,0.1,7,5.1,3.24931,2.68743,0.616912,-0.141921,0.143683,0.029218,0.0833124,-0.0355691,-0.100613,0.00920091,0.207805,5,0.1,8,5.1,-4.39623,-0.101637,0.699617,0.000808388,-0.00650658,-9.39704e-05,-0.00116229,0.0112909,0.000137836,0.00837848,9.19215e-06,5,0.1,9,5.1,-0.568299,4.00781,0.600023,0.335952,-0.0301369,-1.21072e-06,-0.12292,0.0719726,-1.86265e-05,0.0217222,0.166172,5,0.1
0,5.2,-1.03505,0.867785,0.599923,0.631079,0.774685,3.42727e-05,-0.298947,-0.393659,2.98023e-05,0.00944945,0.708709,5,0.1,1,5.2,1.5697,1.23515,0.607688,0.418976,-0.26831,0.0070706,-0.244558,-0.422537,0.00211596,0.00764193,0.330681,5,0.1,2,5.2,3.79388,2.5498,0.5991,0.297797,-0.492114,-0.000602007,-0.27597,0.129461,0.000447035,0.00708742,0.176156,5,0.1,3,5.2,-1.65277,-1.91338,0.600062,0.00116527,0.866026,-2.23517e-05,0.00184774,0,-5.96046e-05,0.0079686,2.27192,5,0.1,4,5.2,-4.25767,-2.62241,0.669885,-0.000548363,-0.000685453,-1.78814e-05,-0.00286102,-0.00298023,-5.96046e-05,0.00842134,1.70702e-06,5,0.1,5,5.2,-2.23043,-0.502345,0.598283,0.575382,0.348769,0.00163019,-0.509262,-0.352666,-0.00160933,0.0187331,0.156147,5,0.1,6,5.2,3.73138,-0.288363,0.618593,-0.0222206,-0.866026,-0.0062719,0.00751019,1.43051e-05,0.00140071,0.00638926,2.2716,5,0.1,7,5.2,3.23574,2.70189,0.619331,-0.127739,0.147325,0.0192106,0.190973,0.0832081,-0.0972748,0.012476,0.162312,5,0.1,8,5.2,-4.39616,-0.102228,0.699608,0.000679493,-0.0052942,-7.7486e-05,-0.00143051,0.0126511,0.000149012,0.00619381,8.472e-06,5,0.1,9,5.2,-0.535419,4.00514,0.600023,0.320466,-0.0231862,-2.98023e-06,-0.193626,0.0665188,-5.96046e-05,0.025396,0.144912,5,0.1
0,5.3,-0.973378,0.943562,0.599927,0.602364,0.742671,3.72529e-05,-0.294987,-0.282973,2.98023e-05,0.00944945,0.708709,5,0.1,1,5.3,1.61044,1.20622,0.608404,0.396251,-0.309597,0.00724457,-0.223584,-0.380404,0.00108033,0.00764193,0.330681,5,0.1,2,5.3,3.82236,2.50123,0.599042,0.272335,-0.478934,-0.000559725,-0.241667,0.150204,0.000417233,0.00708742,0.176156,5,0.1,3,5.3,-1.65264,-1.82678,0.600059,0.00134017,0.866026,-2.78465e-05,0.00155717,0,-4.84288e-05,0.0079686,2.27192,5,0.1,4,5.3,-4.25773,-2.62249,0.669883,-0.000783801,-0.00092946,-2.29105e-05,-0.00184774,-0.00189245,-3.72529e-05,0.00842134,1.70702e-06,5,0.1,5,5.3,-2.17531,-0.46912,0.598438,0.527954,0.316582,0.00148481,-0.454947,-0.301279,-0.00134483,0.0187331,0.156147,5,0.1,6,5.3,3.72919,-0.374966,0.61797,-0.0217266,-0.866025,-0.00619888,0.00363588,0,0.000432134,0.00638926,2.2716,5,0.1,7,5.3,3.22404,2.71725,0.620771,-0.105282,0.161429,0.00969414,0.249431,0.176951,-0.0911877,0.012476,0.162312,5,0.1,8,5.3,-4.3961,-0.102693,0.699601,0.000531226,-0.00399711,-6.14673e-05,-0.00146031,0.013012,0.000163913,0.00619381,8.472e-06,5,0.1,9,5.3,-0.50435,4.00315,0.600022,0.300668,-0.0167005,-8.47504e-06,-0.208735,0.0621378,-4.84288e-05,0.025396,0.144912,5,0.1
0,5.4,-0.91474,1.01635,0.599931,0.568806,0.711882,4.02331e-05,-0.389338,-0.358522,0,0.00686774,0.493339,5,0.1,1,5.4,1.64889,1.17358,0.609131,0.371963,-0.340551,0.00724047,-0.271499,-0.2231,-0.0013411,0.00682373,0.232917,5,0.1,2,5.4,3.84838,2.45423,0.598988,0.248033,-0.459397,-0.00051707,-0.25022,0.250936,0.000476837,0.00727284,0.116534,5,0.1,3,5.4,-1.6525,-1.74017,0.600056,0.00146329,0.866026,-3.12924e-05,0.000834465,0,-2.98023e-05,0.0118223,1.97245,5,0.1,4,5.4,-4.25782,-2.62259,0.66988,-0.000917912,-0.00106096,-2.5332e-05,-0.000715256,-0.000715256,-2.98023e-05,0.00855871,5.32809e-07,5,0.1,5,5.4,-2.1248,-0.438951,0.59858,0.481749,0.286776,0.00135154,-0.479937,-0.302017,-0.0013411,0.0144506,0.103921,5,0.1,6,5.4,3.72704,-0.461568,0.617353,-0.0212789,-0.866025,-0.0061214,0.00619888,-1.43051e-05,0.0013113,0.00779917,2.27162,5,0.1,7,5.4,3.21479,2.73428,0.621307,-0.0794053,0.178903,0.00129342,0.261188,0.156283,-0.0754893,0.00981426,0.194417,5,0.1,8,5.4,-4.39605,-0.103029,0.699596,0.00038147,-0.00273995,-4.47035e-05,-0.00143051,0.0119321,0.000149012,0.00724741,7.08081e-06,5,0.1,9,5.4,-0.475394,4.00178,0.600021,0.277682,-0.0109434,-1.3411e-05,-0.254959,0.0522137,-2.98023e-05,0.0234703,0.325069,5,0.1
0,5.5,-0.859718,1.08594,0.599935,0.532093,0.680914,4.06057e-05,-0.361312,-0.290193,7.45058e-06,0.00686774,0.493339,5,0.1,1,5.5,1.6848,1.13845,0.609848,0.346789,-0.361258,0.00709305,-0.243329,-0.173032,-0.00183657,0.00682373,0.232917,5,0.1,2,5.5,3.87201,2.4095,0.598939,0.22511,-0.435247,-0.000472832,-0.215322,0.245482,0.000420958,0.00727284,0.116534,5,0.1,3,5.5,-1.65235,-1.65357,0.600053,0.00154041,0.866026,-3.3807e-05,0.00064075,0,-1.86265e-05,0.0118223,1.97245,5,0.1,4,5.5,-4.25791,-2.6227,0.669878,-0.000954419,-0.00109524,-2.72878e-05,-2.98023e-05,2.98023e-05,-3.72529e-06,0.00855871,5.32809e-07,5,0.1,5,5.5,-2.07889,-0.411684,0.598709,0.437503,0.259342,0.00123046,-0.418186,-0.255184,-0.00112504,0.0144506,0.103921,5,0.1,6,5.5,3.72493,-0.548171,0.616745,-0.0209007,-0.866026,-0.00605406,0.0026077,1.93715e-06,0.000398606,0.00779917,2.27162,5,0.1,7,5.5,3.20813,2.7531,0.621066,-0.0542149,0.198372,-0.00599073,0.237823,0.210956,-0.0683032,0.00981426,0.194417,5,0.1,8,5.5,-4.39602,-0.103245,0.699592,0.000242889,-0.00159945,-2.98955e-05,-0.0013113,0.0107046,0.000145286,0.00724741,7.08081e-06,5,0.1,9,5.5,-0.448892,4.00102,0.600019,0.252336,-0.00392124,-1.59256e-05,-0.255844,0.0769198,-1.86265e-05,0.0234703,0.325069,5,0.1
0,5.6,-0.808378,1.15249,0.599939,0.493793,0.648862,4.02331e-05,-0.415832,-0.371397,0,0.0081599,0.338719,5,0.1,1,5.6,1.71824,1.10166,0.610546,0.321385,-0.372159,0.00683367,-0.272512,-0.0329614,-0.00348687,0.00918104,0.158981,5,0.1,2,5.6,3.89346,2.36729,0.598894,0.203764,-0.408071,-0.000430644,-0.216484,0.307202,0.000447035,0.0112354,0.131587,5,0.1,3,5.6,-1.65219,-1.56697,0.600049,0.00157654,0.866026,-3.57628e-05,5.96046e-05,0,0,0.00890231,1.54687,5,0.1,4,5.6,-4.25801,-2.62281,0.669875,-0.000929832,-0.001055,-2.83122e-05,0.000715256,0.000596046,2.98023e-05,0.00949477,1.44434e-07,5,0.1,5,5.6,-2.03722,-0.387005,0.598826,0.39587,0.234284,0.00111908,-0.42367,-0.252023,-0.00110269,0.0156233,0.120207,5,0.1,6,5.6,3.72286,-0.634773,0.616143,-0.0205457,-0.866026,-0.00598133,0.00536442,0,0.0013113,0.00633625,2.27164,5,0.1,7,5.6,3.20383,2.77393,0.62015,-0.0326216,0.217301,-0.0120521,0.191331,0.152111,-0.0516474,0.0105442,0.274597,5,0.1,8,5.6,-4.396,-0.103354,0.69959,0.00013113,-0.000627339,-1.63913e-05,-0.00143051,0.00862405,0.000149012,0.00808238,4.45786e-06,5,0.1,9,5.6,-0.424964,4.00098,0.600018,0.22589,0.00261068,-1.78814e-05,-0.275463,0.0472069,-2.98023e-05,0.023164,0.474407,5,0.1
0,5.7,-0.760971,1.21567,0.599943,0.45506,0.615547,4.02331e-05,-0.372607,-0.318833,0,0.0081599,0.338719,5,0.1,1,5.7,1.74909,1.0643,0.611212,0.296243,-0.37445,0.00649318,-0.239819,0.00168383,-0.00351667,0.00918104,0.158981,5,0.1,2,5.7,3.91292,2.32774,0.598853,0.186817,-0.384905,-0.000395253,-0.134647,0.180438,0.000283122,0.0112354,0.131587,5,0.1,3,5.7,-1.65204,-1.48037,0.600046,0.00157896,0.865924,-3.56697e-05,-8.19564e-05,-0.00407547,3.72529e-06,0.00890231,1.54687,5,0.1,4,5.7,-4.2581,-2.62291,0.669872,-0.000841916,-0.000973046,-2.52388e-05,0.00101328,0.00101328,3.35276e-05,0.00949477,1.44434e-07,5,0.1,5,5.7,-1.99943,-0.364635,0.598934,0.362347,0.214758,0.00103563,-0.269696,-0.152985,-0.000633299,0.0156233,0.120207,5,0.1,6,5.7,3.72082,-0.721376,0.615549,-0.0202361,-0.866026,-0.00591157,0.00204146,3.72529e-06,0.000428408,0.00633625,2.27164,5,0.1,7,5.7,3.20143,2.79631,0.618713,-0.016411,0.229103,-0.0164206,0.132397,0.0773668,-0.035312,0.0105442,0.274597,5,0.1,8,5.7,-4.396,-0.103376,0.699589,5.96046e-06,0.00015226,-2.8871e-06,-0.00107288,0.0068848,0.000122935,0.00808238,4.45786e-06,5,0.1,9,5.7,-0.403754,4.00149,0.600016,0.198289,0.00723004,-1.99303e-05,-0.277096,0.0247955,-7.45058e-06,0.023164,0.474407,5,0.1
0,5.8,-0.717348,1.27556,0.599947,0.416948,0.58105,4.02331e-05,-0.399083,-0.387788,-2.98023e-05,0.00626079,0.359751,5,0.1,1,5.8,1.77751,1.02702,0.611842,0.271821,-0.369409,0.00609905,-0.255227,0.108659,-0.00452995,0.00612219,0.106412,5,0.1,2,5.8,3.93098,2.29011,0.598814,0.174719,-0.367773,-0.000369549,-0.116348,0.179768,0.000238419,0.00796103,0.0761037,5,0.1,3,5.8,-1.65188,-1.39383,0.600042,0.0015527,0.864395,-3.57628e-05,-0.000536442,-0.0326037,2.98023e-05,0.0123296,1.1784,5,0.1,4,5.8,-4.25817,-2.623,0.66987,-0.000727177,-0.000858307,-2.23517e-05,0.000953674,0.00143051,5.96046e-05,0.0100756,9.28193e-08,5,0.1,5,5.8,-1.96445,-0.343858,0.599034,0.337946,0.201158,0.000979006,-0.235319,-0.129774,-0.000536442,0.0140274,0.155244,5,0.1,6,5.8,3.71881,-0.807978,0.614961,-0.0199318,-0.866026,-0.00583678,0.00488758,0,0.0013411,0.00778963,2.27165,5,0.1,7,5.8,3.20035,2.81945,0.616924,-0.00607967,0.231731,-0.0190586,0.0753403,-0.028491,-0.0172853,0.00887784,0.25829,5,0.1,8,5.8,-4.396,-0.10333,0.699589,-8.34465e-05,0.000737235,7.45058e-06,-0.000715256,0.00476465,8.9407e-05,0.00691473,2.06113e-06,5,0.1,9,5.8,-0.385316,4.00218,0.600014,0.170413,0.00476837,-2.08616e-05,-0.280425,-0.0817776,2.98023e-05,0.0296917,3.30924,5,0.1
0,5.9,-0.677536,1.33201,0.599951,0.380123,0.55015,3.77186e-05,-0.349011,-0.259772,-1.86265e-05,0.00626079,0.359751,5,0.1,1,5.9,1.80349,0.990612,0.61243,0.248401,-0.358484,0.00566998,-0.221089,0.121802,-0.00422075,0.00612219,0.106412,5,0.1,2,5.9,3.94794,2.25413,0.598779,0.165046,-0.352494,-0.000349246,-0.085175,0.141695,0.000178814,0.00796103,0.0761037,5,0.1,3,5.9,-1.65173,-1.3074,0.600039,0.0014998,0.864786,-3.31551e-05,-0.000566244,0.00745803,2.23517e-05,0.0123296,1.1784,5,0.1,4,5.9,-4.25824,-2.62308,0.669868,-0.000622123,-0.000710785,-1.68569e-05,0.00110269,0.00149012,4.84288e-05,0.0100756,9.28193e-08,5,0.1,5,5.9,-1.93169,-0.324029,0.59913,0.318168,0.198351,0.000935607,-0.175409,0.0465047,-0.00037998,0.0140274,0.155244,5,0.1,6,5.9,3.71683,-0.894581,0.614381,-0.0196557,-0.866026,-0.00576247,0.00180304,3.72529e-06,0.000484288,0.00778963,2.27165,5,0.1,7,5.9,3.20005,2.8424,0.61495,-0.000423938,0.226508,-0.0202433,0.0394285,-0.0795871,-0.00624731,0.00887784,0.25829,5,0.1,8,5.9,-4.39601,-0.103235,0.699591,-0.000140816,0.00113517,1.4808e-05,-0.000447035,0.00317395,6.33299e-05,0.00691473,2.06113e-06,5,0.1,9,5.9,-0.367724,4.00209,0.600012,0.197857,-0.00846013,-1.78814e-05,0.707841,-0.200003,2.98023e-05,0.0296917,3.30924,5,0.1
0,6,-0.641263,1.38574,0.599954,0.345181,0.524017,3.57628e-05,-0.357926,-0.284195,-2.98023e-05,0.00786889,0.401518,5,0.1,1,6,1.82723,0.955474,0.612976,0.226256,-0.343062,0.00522733,-0.227273,0.194579,-0.00473857,0.00952119,0.120551,5,0.1,2,6,3.96402,2.21963,0.598745,0.156301,-0.336736,-0.000329316,-0.0953674,0.184536,0.000178814,0.00698136,0.0583279,5,0.1,3,6,-1.65158,-1.22103,0.600036,0.00143051,0.860858,-3.12924e-05,-0.000834465,-0.103354,2.98023e-05,0.00714323,1.44977,5,0.1,4,6,-4.2583,-2.62314,0.669867,-0.0005126,-0.000560284,-1.3411e-05,0.00143051,0.00143051,5.96046e-05,0.00758431,1.00588e-07,5,0.1,5,6,-1.90076,-0.303854,0.599222,0.300267,0.205702,0.00089556,-0.193357,0.0800937,-0.000447035,0.0166112,0.115323,5,0.1,6,6,3.71488,-0.981183,0.613808,-0.0193715,-0.866026,-0.0056833,0.00452995,0,0.0013411,0.00617299,2.27167,5,0.1,7,6,3.20016,2.86455,0.612913,0.00211596,0.215256,-0.0202924,0.0129938,-0.147104,0.00524521,0.010946,0.498542,5,0.1,8,6,-4.39603,-0.103109,0.699592,-0.000178814,0.00137016,1.93715e-05,0,0.00152737,2.98023e-05,0.00893698,6.89045e-07,5,0.1,9,6,-0.343593,4,0.60001,0.290401,-0.0356555,-1.49012e-05,1.04873,-0.330925,2.98023e-05,0.0231158,2.83007,5,0.1
0,6.1,-0.608426,1.43706,0.599958,0.312406,0.504776,3.32482e-05,-0.307318,-0.133999,-1.86265e-05,0.00786889,0.401518,5,0.1,1,6.1,1.8489,0.92192,0.613478,0.208645,-0.329661,0.00485443,-0.138648,0.0953004,-0.00301003,0.00952119,0.120551,5,0.1,2,6.1,3.97924,2.18675,0.598712,0.148748,-0.321634,-0.000314508,-0.0640303,0.134051,0.000130385,0.00698136,0.0583279,5,0.1,3,6.1,-1.65144,-1.13505,0.600033,0.00135079,0.861318,-2.86847e-05,-0.000804663,0.0627786,2.23517e-05,0.00714323,1.44977,5,0.1,4,6.1,-4.25834,-2.62319,0.669866,-0.000374764,-0.000420213,-8.10251e-06,0.0012815,0.0013411,4.09782e-05,0.00758431,1.00588e-07,5,0.1,5,6.1,-1.87164,-0.283172,0.599309,0.282392,0.205241,0.000853743,-0.173949,-0.0819676,-0.000420958,0.0166112,0.115323,5,0.1,6,6.1,3.71296,-1.06779,0.613245,-0.019116,-0.866026,-0.00560638,0.00166893,0,0.000521541,0.00617299,2.27167,5,0.1,7,6.1,3.20052,2.8853,0.61092,0.00564121,0.199457,-0.0194715,0.0445396,-0.170842,0.0112057,0.010946,0.498542,5,0.1,8,6.1,-4.39605,-0.102966,0.699594,-0.000175089,0.00146509,2.14204e-05,8.9407e-05,0.00038743,7.45058e-06,0.00893698,6.89045e-07,5,0.1,9,6.1,-0.308502,3.99447,0.600009,0.417043,-0.0773109,-1.20141e-05,1.38969,-0.470966,2.6077e-05,0.0231158,2.83007,5,0.1
0,6.2,-0.578703,1.48689,0.599961,0.28206,0.491458,3.12924e-05,-0.306487,-0.156581,-2.98023e-05,0.00857323,0.352308,5,0.1,1,6.2,1.86913,0.889413,0.61395,0.196144,-0.320227,0.00457466,-0.121653,0.109226,-0.00283122,0.00586253,0.0701103,5,0.1,2,6.2,3.99379,2.15529,0.598682,0.142074,-0.307119,-0.000299513,-0.0752211,0.167608,0.000149012,0.00746991,0.0261911,5,0.1,3,6.2,-1.65131,-1.04866,0.60003,0.00126064,0.865296,-2.68221e-05,-0.000953674,-0.0144839,2.98023e-05,0.00861541,1.09666,5,0.1,4,6.2,-4.25837,-2.62323,0.669865,-0.00025034,-0.000292063,-4.47035e-06,0.000953674,0.00119209,2.98023e-05,0.0101793,7.93903e-08,5,0.1,5,6.2,-1.8443,-0.263274,0.599392,0.263828,0.19073,0.000806153,-0.203907,-0.201419,-0.000536442,0.0142601,0.261854,5,0.1,6,6.2,3.71106,-1.15439,0.612687,-0.018841,-0.866026,-0.00552386,0.00441074,0,0.00137091,0.00693853,2.16847,5,0.1,7,6.2,3.20128,2.90434,0.609039,0.00895858,0.180799,-0.0180542,0.0140667,-0.203013,0.0171065,0.0114089,1.50591,5,0.1,8,6.2,-4.39606,-0.102819,0.699597,-0.000154972,0.00145175,2.08616e-05,0,-0.000629574,2.98023e-05,0.00629401,1.91216e-07,5,0.1,9,6.2,-0.259926,3.98436,0.600008,0.551913,-0.124395,-8.9407e-06,1.23788,-0.447392,0,0.0263316,2.46843,5,0.1
0,6.3,-0.55193,1.53472,0.599964,0.254173,0.460259,2.87779e-05,-0.259414,-0.44857,-1.86265e-05,0.00857323,0.352308,5,0.1,1,6.3,1.88821,0.857864,0.614395,0.186055,-0.311127,0.00433223,-0.0891834,0.0869632,-0.00221655,0.00586253,0.0701103,5,0.1,2,6.3,4.00764,2.1254,0.598652,0.13482,-0.290586,-0.000284426,-0.0742972,0.171632,0.000156462,0.00746991,0.0261911,5,0.1,3,6.3,-1.65114,-0.962178,0.600027,0.00266992,0.863672,-2.29105e-05,0.025779,-0.0507832,5.21541e-05,0.00861541,1.09666,5,0.1,4,6.3,-4.2584,-2.62325,0.669865,-0.000159442,-0.000181422,-1.95578e-06,0.000834465,0.00102818,1.86265e-05,0.0101793,7.93903e-08,5,0.1,5,6.3,-1.81891,-0.24539,0.59947,0.244142,0.165363,0.000753254,-0.195995,-0.295913,-0.000536442,0.0142601,0.261854,5,0.1,6,6.3,3.70919,-1.24099,0.61214,-0.018568,-0.866026,-0.00543678,0.00207126,0,0.000674278,0.00693853,2.16847,5,0.1,7,6.3,3.20238,2.92139,0.607324,0.0132706,0.15995,-0.0162055,0.0294894,-0.213832,0.0197701,0.0114089,1.50591,5,0.1,8,6.3,-4.39608,-0.102678,0.699599,-0.000150502,0.00135553,2.22586e-05,0.000119209,-0.00126241,3.72529e-06,0.00629401,1.91216e-07,5,0.1,9,6.3,-0.198332,3.96958,0.600007,0.680188,-0.171533,-8.84756e-06,1.25375,-0.470355,3.72529e-06,0.0263316,2.46843,5,0.1
0,6.4,-0.527787,1.57815,0.599967,0.228782,0.405273,2.68221e-05,-0.254214,-0.634551,-2.98023e-05,0.0067254,0.33096,5,0.1,1,6.4,1.90636,0.827244,0.614816,0.176758,-0.300434,0.00409931,-0.103116,0.136763,-0.002563,0.00689913,0.053592,5,0.1,2,6.4,4.02072,2.09726,0.598625,0.126493,-0.27138,-0.000265241,-0.0956059,0.218034,0.000178814,0.00911764,0.0100034,5,0.1,3,6.4,-1.65072,-0.876354,0.600025,0.00581741,0.849237,-1.78814e-05,0.0345707,-0.264198,2.98023e-05,0.0124037,1.50966,5,0.1,4,6.4,-4.25841,-2.62326,0.669865,-8.34465e-05,-8.9407e-05,-1.49012e-06,0.000715256,0.000715256,2.98023e-05,0.00690725,4.91302e-08,5,0.1,5,6.4,-1.7955,-0.230421,0.599543,0.223598,0.133367,0.000695884,-0.218987,-0.335813,-0.000655651,0.0147876,0.253385,5,0.1,6,6.4,3.70734,-1.32759,0.611601,-0.0182509,-0.866026,-0.0053376,0.00500679,0,0.00149012,0.00748356,1.71885,5,0.1,7,6.4,3.20362,2.9363,0.605805,0.00877976,0.138086,-0.0141218,-0.137687,-0.222921,0.0217855,0.00973089,3.55215,5,0.1,8,6.4,-4.39609,-0.10255,0.699601,-0.00013113,0.00120532,2.23517e-05,0,-0.00170991,-5.96046e-05,0.00716801,1.03015e-07,5,0.1,9,6.4,-0.124514,3.95021,0.600006,0.790146,-0.214177,-7.45058e-06,0.894102,-0.36478,0,0.0232462,2.28242,5,0.1
0,6.5,-0.506094,1.61528,0.599969,0.205773,0.335412,2.43075e-05,-0.212798,-0.74476,-1.86265e-05,0.0067254,0.33096,5,0.1,1,6.5,1.9236,0.797785,0.615215,0.168598,-0.289358,0.00388846,-0.0694543,0.0995509,-0.00185519,0.00689913,0.053592,5,0.1,2,6.5,4.03289,2.07122,0.598599,0.116765,-0.249158,-0.000246242,-0.10097,0.230178,0.000208616,0.00911764,0.0100034,5,0.1,3,6.5,-1.64977,-0.793174,0.600024,0.0147326,0.810145,-1.01514e-05,0.130244,-0.516828,0.000108033,0.0124037,1.50966,5,0.1,4,6.5,-4.25841,-2.62327,0.669865,-1.93715e-05,-2.49594e-05,9.31323e-07,0.000536442,0.000581145,1.49012e-05,0.00690725,4.91302e-08,5,0.1,5,6.5,-1.77421,-0.218775,0.599609,0.202364,0.0996073,0.000631809,-0.209585,-0.332711,-0.000633299,0.0147876,0.253385,5,0.1,6,6.5,3.70554,-1.4142,0.611073,-0.0178467,-0.866026,-0.0052169,0.00391901,0,0.00116229,0.00748356,1.71885,5,0.1,7,6.5,3.20377,2.94956,0.604504,-0.00983849,0.131948,-0.0118962,-0.365198,0.0656247,0.0225119,0.00973089,3.55215,5,0.1,8,6.5,-4.39611,-0.102438,0.699603,-0.00012666,0.00102207,1.68569e-05,0.000119209,-0.00192272,-4.84288e-05,0.00716801,1.03015e-07,5,0.1,9,6.5,-0.0419981,3.92694,0.600005,0.850995,-0.251088,-7.35745e-06,0.345571,-0.351682,3.72529e-06,0.0232462,2.28242,5,0.1
0,6.6,-0.486557,1.64503,0.599972,0.185054,0.259537,2.23517e-05,-0.206441,-0.758588,-2.98023e-05,0.00849804,0.323847,5,0.1,1,6.6,1.94011,0.769384,0.615595,0.161272,-0.27802,0.003694,-0.0837445,0.137508,-0.00217557,0.00776051,0.0240518,5,0.1,2,6.6,4.04404,2.0475,0.598576,0.105977,-0.224745,-0.000222027,-0.11611,0.259995,0.000208616,0.00750044,0.00513117,5,0.1,3,6.6,-1.64758,-0.715151,0.600023,0.0294805,0.746335,2.98023e-06,0.154257,-0.755519,0.000119209,0.00712132,1.37827,5,0.1,4,6.6,-4.25841,-2.62327,0.669865,2.38419e-05,2.98023e-05,1.49012e-06,0.000476837,0.000357628,2.98023e-05,0.00740138,2.62365e-08,5,0.1,5,6.6,-1.75503,-0.210427,0.599669,0.181037,0.0679646,0.000567734,-0.219464,-0.295423,-0.000685453,0.0179941,0.24956,5,0.1,6,6.6,3.70378,-1.5008,0.610558,-0.017333,-0.866026,-0.00506341,0.00703335,0,0.00205636,0.00876124,1.32568,5,0.1,7,6.6,3.2,2.96332,0.603427,-0.0750363,0.145084,-0.00965744,-0.915766,0.170231,0.0220537,0.0115282,3.1092,5,0.1,8,6.6,-4.39612,-0.102346,0.699604,-0.000107288,0.000826828,1.19209e-05,0.000238419,-0.0019595,-5.96046e-05,0.00743877,1.06984e-07,5,0.1,9,6.6,0.0441427,3.90024,0.600005,0.866025,-0.280821,-5.96046e-06,3.57628e-06,-0.227928,-2.98023e-05,0.0225757,2.20951,5,0.1
0,6.7,-0.469011,1.66727,0.599974,0.166447,0.18632,1.98372e-05,-0.171384,-0.695802,-1.86265e-05,0.00849804,0.323847,5,0.1,1,6.7,1.95583,0.742266,0.615953,0.153152,-0.26419,0.00348259,-0.0836253,0.146676,-0.00216067,0.00776051,0.0240518,5,0.1,2,6.7,4.05406,2.02631,0.598554,0.0945874,-0.199249,-0.000200234,-0.113219,0.252783,0.000230968,0.00750044,0.00513117,5,0.1,3,6.7,-1.64367,-0.644541,0.600024,0.0502992,0.663617,1.75089e-05,0.243917,-0.890087,0.000156462,0.00712132,1.37827,5,0.1,4,6.7,-4.25841,-2.62326,0.669865,6.33299e-05,6.03497e-05,3.53903e-06,0.000268221,0.000268221,7.45058e-06,0.00740138,2.62365e-08,5,0.1,5,6.7,-1.738,-0.20501,0.599723,0.15994,0.0414252,0.00050189,-0.204965,-0.233585,-0.000644475,0.0179941,0.24956,5,0.1,6,6.7,3.70208,-1.5874,0.610061,-0.0167027,-0.865778,-0.00487892,0.00622869,0.00990182,0.00182912,0.00876124,1.32568,5,0.1,7,6.7,3.18669,2.97894,0.602567,-0.200543,0.169152,-0.00756541,-1.48627,0.283852,0.0197329,0.0115282,3.1092,5,0.1,8,6.7,-4.39613,-0.102273,0.699605,-8.34465e-05,0.000632985,6.51926e-06,0.000238419,-0.00189198,-4.47035e-05,0.00743877,1.06984e-07,5,0.1,9,6.7,0.130745,3.87098,0.600004,0.866026,-0.304161,-8.28877e-06,4.47035e-07,-0.218466,-1.11759e-05,0.0225757,2.20951,5,0.1
0,6.8,-0.453204,1.6826,0.599976,0.149802,0.122023,1.78814e-05,-0.165597,-0.583589,0,0.0074748,0.318009,5,0.1,1,6.8,1.97069,0.716645,0.61629,0.143725,-0.24744,0.00324547,-0.108123,0.193119,-0.00268221,0.0065696,0.0142724,5,0.1,2,6.8,4.06295,2.00765,0.598536,0.0830889,-0.173753,-0.000175834,-0.11754,0.258982,0.000238419,0.00872426,0.00157469,5,0.1,3,6.8,-1.63739,-0.582789,0.600027,0.075075,0.570038,3.27826e-05,0.237942,-0.973016,0.000149012,0.0104569,3.18867,5,0.1,4,6.8,-4.2584,-2.62326,0.669865,9.53674e-05,8.34465e-05,4.47035e-06,0,0.000119209,0,0.00944889,7.7316e-09,5,0.1,5,6.8,-1.72302,-0.201922,0.59977,0.139636,0.0214629,0.000439584,-0.202775,-0.165269,-0.000655651,0.00656002,0.509991,5,0.1,6,6.8,3.70044,-1.67385,0.609584,-0.015974,-0.862065,-0.00466555,0.00882149,0.0792146,0.0025928,0.00986381,0.993042,5,0.1,7,6.8,3.159,2.99728,0.601905,-0.353324,0.197113,-0.00571758,-1.48737,0.255108,0.0171363,0.0118665,2.65258,5,0.1,8,6.8,-4.39613,-0.102219,0.699606,-4.76837e-05,0.000452995,2.98023e-06,0,-0.00169501,-2.98023e-05,0.00607541,9.80406e-08,5,0.1,9,6.8,0.217348,3.83962,0.600003,0.866025,-0.321054,-8.9407e-06,7.15256e-06,-0.105381,0,0.0229563,2.2001,5,0.1
0,6.9,-0.438991,1.69212,0.599977,0.134924,0.0709202,1.78814e-05,-0.136696,-0.437796,0,0.0074748,0.318009,5,0.1,1,6.9,1.98454,0.692852,0.616602,0.133201,-0.228407,0.00298563,-0.106223,0.193421,-0.00260025,0.0065696,0.0142724,5,0.1,2,6.9,4.07068,1.99155,0.598519,0.0715405,-0.148406,-0.000151526,-0.113785,0.248447,0.000249594,0.00872426,0.00157469,5,0.1,3,6.9,-1.62811,-0.530311,0.600044,0.115185,0.482558,0.000413693,0.517167,-0.791132,0.00665337,0.0104569,3.18867,5,0.1,4,6.9,-4.25839,-2.62325,0.669866,9.46224e-05,9.16421e-05,4.00469e-06,-2.98023e-05,2.98023e-05,-1.11759e-05,0.00944889,7.7316e-09,5,0.1,5,6.9,-1.71033,-0.200587,0.599809,0.11191,0.00566426,0.000348128,-0.334412,-0.140749,-0.00111759,0.00656002,0.509991,5,0.1,6,6.9,3.69888,-1.75995,0.609129,-0.0151634,-0.861707,-0.00442704,0.00795722,-0.0214055,0.00233576,0.00986381,0.993042,5,0.1,7,6.9,3.11583,3.01837,0.601414,-0.511897,0.225302,-0.00415724,-1.59937,0.286207,0.0141039,0.0118665,2.65258,5,0.1,8,6.9,-4.39614,-0.102182,0.699606,-4.39584e-05,0.00029318,4.65661e-07,8.9407e-05,-0.00148453,-1.86265e-05,0.00607541,9.80406e-08,5,0.1,9,6.9,0.30395,3.80693,0.600002,0.866026,-0.332933,-8.56817e-06,-2.68221e-06,-0.11225,7.45058e-06,0.0229563,2.2001,5,0.1
0,7,-0.426166,1.69727,0.599979,0.121652,0.0343889,1.63913e-05,-0.132099,-0.294149,2.98023e-05,0.00586577,0.49468,5,0.1,1,7,1.99731,0.671017,0.616887,0.121853,-0.207816,0.00271201,-0.122964,0.221908,-0.00292063,0.00603795,0.00446897,5,0.1,2,7,4.07727,1.97794,0.598505,0.0602961,-0.124007,-0.00012666,-0.111103,0.239551,0.000238419,0.00842931,0.000772469,5,0.1,3,7,-1.61386,-0.485807,0.600124,0.170225,0.409264,0.00121742,0.547767,-0.685692,0.00879169,0.0104655,3.16075,5,0.1,4,7,-4.25838,-2.62324,0.669866,8.34465e-05,9.53674e-05,2.98023e-06,0,-0.000119209,0,0.00877471,4.56514e-09,5,0.1,5,7,-1.70091,-0.200621,0.599838,0.0758469,-0.00516735,0.000227988,-0.373244,-0.0706315,-0.0012517,0.00622562,0.473525,5,0.1,6,7,3.69741,-1.84606,0.608699,-0.0142872,-0.857705,-0.00417084,0.00977516,0.13721,0.00286102,0.0102423,0.715028,5,0.1,7,7,3.05703,3.04224,0.601064,-0.658631,0.2505,-0.00289083,-1.27423,0.201583,0.0112653,0.0115604,2.34661,5,0.1,8,7,-4.39614,-0.102159,0.699606,-3.57628e-05,0.000158511,-1.49012e-06,0.000238419,-0.00119209,0,0.00647913,6.31601e-08,5,0.1,9,7,0.390553,3.7732,0.600001,0.866025,-0.340128,-7.45058e-06,1.43051e-05,-0.0177622,0,0.0218597,2.19457,5,0.1
0,7.1,-0.414613,1.6994,0.599981,0.109809,0.00995956,1.88127e-05,-0.108693,-0.192255,1.49012e-05,0.00586577,0.49468,5,0.1,1,7.1,2.00887,0.651349,0.617143,0.109458,-0.185465,0.00241995,-0.126235,0.226915,-0.00294298,0.00603795,0.00446897,5,0.1,2,7.1,4.08276,1.96671,0.598494,0.0495516,-0.100947,-0.000103284,-0.103563,0.22123,0.000227243,0.00842931,0.000772469,5,0.1,3,7.1,-1.59373,-0.44722,0.600296,0.234735,0.371889,0.00227122,0.689633,-0.119938,0.0115521,0.0104655,3.16075,5,0.1,4,7.1,-4.25837,-2.62323,0.669866,7.97212e-05,8.34465e-05,2.51457e-06,-8.9407e-05,-0.000119209,-1.11759e-05,0.00877471,4.56514e-09,5,0.1,5,7.1,-1.69508,-0.201486,0.599854,0.0419162,-0.0114362,9.44361e-05,-0.303924,-0.0300072,-0.00137091,0.00622562,0.473525,5,0.1,6,7.1,3.69603,-1.9313,0.608295,-0.0133835,-0.847875,-0.00390643,0.00876188,0.0998229,0.00255927,0.0102423,0.715028,5,0.1,7,7.1,2.98524,3.06835,0.600827,-0.771683,0.271974,-0.00189962,-0.947952,0.207871,0.0086166,0.0115604,2.34661,5,0.1,8,7.1,-4.39614,-0.102149,0.699606,-1.2666e-05,5.09783e-05,-1.49012e-06,0.000208616,-0.000951346,0,0.00647913,6.31601e-08,5,0.1,9,7.1,0.477155,3.73898,0.600001,0.866026,-0.344885,-7.07805e-06,-1.93715e-06,-0.0558347,7.45058e-06,0.0218597,2.19457,5,0.1
0,7.2,-0.404163,1.69962,0.599983,0.0992425,-0.00388026,1.93715e-05,-0.105426,-0.0851154,0,0.00567716,0.968344,5,0.1,1,7.2,2.01918,0.633956,0.617371,0.0964165,-0.162178,0.00211746,-0.135303,0.239581,-0.00306964,0.00591771,0.00137006,5,0.1,2,7.2,4.08721,1.95769,0.598485,0.0396013,-0.0798434,-8.04663e-05,-0.0946522,0.200391,0.000208616,0.00814499,0.000635794,5,0.1,3,7.2,-1.56693,-0.410095,0.60058,0.299159,0.374775,0.00339895,0.561714,0.130758,0.0104904,0.0114902,3.1392,5,0.1,4,7.2,-4.25837,-2.62322,0.669867,8.34465e-05,7.15256e-05,2.98023e-06,-0.000476837,-0.000119209,-5.96046e-05,0.00696729,9.57471e-09,5,0.1,5,7.2,-1.69229,-0.202568,0.599857,0.0152618,-0.00781529,-3.72529e-05,-0.228465,0.111215,-0.0012219,0.00582843,0.420694,5,0.1,6,7.2,3.69473,-2.01538,0.607918,-0.0124574,-0.830907,-0.00363588,0.00989437,0.267744,0.00292063,0.00701171,0.500105,5,0.1,7,7.2,2.90411,3.09647,0.600676,-0.842708,0.288677,-0.00115633,-0.456095,0.112295,0.00634789,0.0131116,2.23263,5,0.1,8,7.2,-4.39615,-0.102148,0.699606,0,-3.05474e-05,-1.49012e-06,0.000238419,-0.000681728,0,0.00862912,3.30605e-08,5,0.1,9,7.2,0.563758,3.70429,0.6,0.866026,-0.347614,-5.96046e-06,0,0.0164509,0,0.0199688,2.19384,5,0.1
0,7.3,-0.394726,1.69879,0.599985,0.0898009,-0.0120824,1.8999e-05,-0.0866465,-0.0494346,-7.45058e-06,0.00567716,0.968344,5,0.1,1,7.3,2.02814,0.618929,0.617567,0.0829678,-0.138451,0.00181338,-0.133708,0.234809,-0.00300631,0.00591771,0.00137006,5,0.1,2,7.3,4.09071,1.95067,0.598478,0.0306368,-0.0609627,-6.0536e-05,-0.0843406,0.176661,0.000186265,0.00814499,0.000635794,5,0.1,3,7.3,-1.53494,-0.372182,0.600973,0.333658,0.381451,0.00444818,0.145689,0.00878423,0.0100136,0.0114902,3.1392,5,0.1,4,7.3,-4.25836,-2.62321,0.669867,4.32134e-05,5.96046e-05,-1.76951e-06,-0.000298023,-0.000119209,-4.09782e-05,0.00696729,9.57471e-09,5,0.1,5,7.3,-1.69175,-0.202608,0.599846,-0.00297409,0.00959693,-0.000207592,-0.139542,0.26269,-0.00203028,0.00582843,0.420694,5,0.1,6,7.3,3.69354,-2.09726,0.607568,-0.0115432,-0.806956,-0.00336645,0.00876188,0.244007,0.00257418,0.00701171,0.500105,5,0.1,7,7.3,2.81843,3.12596,0.600589,-0.86444,0.301343,-0.000619981,-0.0608563,0.122026,0.00444427,0.0131116,2.23263,5,0.1,8,7.3,-4.39614,-0.102154,0.699605,2.01166e-05,-8.81962e-05,-1.49012e-06,0.000149012,-0.000470318,0,0.00862912,3.30605e-08,5,0.1,9,7.3,0.650361,3.66949,0.599999,0.866026,-0.349102,-5.86733e-06,-3.72529e-06,-0.0250936,3.72529e-06,0.0199688,2.19384,5,0.1
0,7.4,-0.38617,1.69756,0.599987,0.0813574,-0.00970066,1.78814e-05,-0.0845194,0.108182,-2.98023e-05,0.00644905,2.32545,5,0.1,1,7.4,2.03577,0.606248,0.617733,0.0696898,-0.115272,0.00151545,-0.131726,0.228375,-0.00292063,0.0063029,0.000795334,5,0.1,2,7.4,4.09337,1.94541,0.598473,0.022769,-0.0445992,-4.32134e-05,-0.0724792,0.150323,0.000149012,0.00922541,0.000492709,5,0.1,3,7.4,-1.50142,-0.334159,0.601464,0.331655,0.377434,0.00531971,-0.169694,-0.0861287,0.00706315,0.0122354,3.17699,5,0.1,4,7.4,-4.25836,-2.62321,0.669866,2.38419e-05,5.36442e-05,-5.96046e-06,-0.000476837,-0.000238419,0,0.00729474,1.47931e-08,5,0.1,5,7.4,-1.69262,-0.2,0.599814,-0.0132829,0.0456065,-0.000418723,-0.0697374,0.440672,-0.00202656,0.0053712,0.416625,5,0.1,6,7.4,3.69243,-2.17655,0.607244,-0.0106394,-0.776595,-0.00310242,0.00941753,0.385404,0.00280142,0.0078344,0.342419,5,0.1,7,7.4,2.73186,3.15659,0.600546,-0.866026,0.309855,-0.00025481,0,0.0350475,0.00289083,0.0119963,2.2079,5,0.1,8,7.4,-4.39614,-0.102165,0.699605,3.57628e-05,-0.000124611,-1.49012e-06,0,-0.000264496,2.98023e-05,0.00693524,1.32575e-08,5,0.1,9,7.4,0.736963,3.63453,0.599999,0.866026,-0.349033,-4.47035e-06,0,0.0414848,-2.98023e-05,0.018815,2.26346,5,0.1
0,7.5,-0.378425,1.69717,0.599988,0.0737901,0.00519156,1.49943e-05,-0.0695009,0.300005,-2.6077e-05,0.00644905,2.32545,5,0.1,1,7.5,2.0421,0.595838,0.617871,0.0569023,-0.0931925,0.00123261,-0.12359,0.21242,-0.00273064,0.0063029,0.000795334,5,0.1,2,7.5,4.0953,1.94166,0.598469,0.0160687,-0.030788,-2.92435e-05,-0.0613034,0.125587,0.00012666,0.00922541,0.000492709,5,0.1,3,7.5,-1.46938,-0.297402,0.602031,0.306409,0.354029,0.00601169,-0.325374,-0.310279,0.00635535,0.0122354,3.17699,5,0.1,4,7.5,-4.25836,-2.62321,0.669866,-1.11759e-05,3.35276e-05,-5.86733e-06,-0.000268221,-0.000149012,3.72529e-06,0.00729474,1.47931e-08,5,0.1,5,7.5,-1.69419,-0.193138,0.599758,-0.0172867,0.0920495,-0.000737328,-0.0141487,0.466592,-0.00400469,0.0053712,0.416625,5,0.1,6,7.5,3.69141,-2.25241,0.606947,-0.00977181,-0.740954,-0.00284538,0.00824034,0.35423,0.00243634,0.0078344,0.342419,5,0.1,7,7.5,2.64526,3.18784,0.600533,-0.866026,0.315361,-2.66358e-05,0,0.0564456,0.00172853,0.0119963,2.2079,5,0.1,8,7.5,-4.39614,-0.102179,0.699605,3.57628e-05,-0.000143319,9.31323e-07,0,-0.000113156,1.49012e-05,0.00693524,1.32575e-08,5,0.1,9,7.5,0.823566,3.60013,0.599998,0.866026,-0.335987,-6.51926e-06,-3.72529e-06,0.213072,-7.45058e-06,0.018815,2.26346,5,0.1
0,7.6,-0.371386,1.7,0.59999,0.0669979,0.0594407,1.3411e-05,-0.0682473,0.766039,-2.98023e-05,0.007648,3.20856,5,0.1,1,7.6,2.04719,0.587549,0.617981,0.0450432,-0.0729293,0.000970066,-0.11301,0.192165,-0.00244379,0.0072651,0.000717073,5,0.1,2,7.6,4.09662,1.93917,0.598467,0.0105381,-0.0195235,-1.78814e-05,-0.0495911,0.099659,0.000119209,0.0120013,0.000298176,5,0.1,3,7.6,-1.44056,-0.263481,0.60266,0.268441,0.326065,0.00651926,-0.42516,-0.213824,0.00354648,0.0115904,3.12145,5,0.1,4,7.6,-4.25836,-2.6232,0.669865,-3.57628e-05,1.78814e-05,-5.96046e-06,0,-0.000119209,2.98023e-05,0.00736352,6.32208e-09,5,0.1,5,7.6,-1.69593,-0.181704,0.599664,-0.0168175,0.135208,-0.00115931,0.0204444,0.381023,-0.00414252,0.0146937,3.30672,5,0.1,6,7.6,3.69047,-2.3246,0.606675,-0.0089407,-0.701237,-0.00260025,0.00870228,0.458121,0.0025332,0.00697269,0.231345,5,0.1,7,7.6,2.55865,3.21957,0.600538,-0.866026,0.317967,9.98378e-05,0,-0.0172853,0.000864267,0.0106823,2.20743,5,0.1,8,7.6,-4.39613,-0.102193,0.699605,2.38419e-05,-0.000147894,2.98023e-06,0.000238419,1.86265e-05,-2.98023e-05,0.00766838,8.40528e-09,5,0.1,9,7.6,0.910168,3.56784,0.599998,0.866026,-0.307697,-7.45058e-06,0,0.346303,0,0.0158262,2.2208,5,0.1
0,7.7,-0.364636,1.71117,0.599907,0.0712831,0.174937,-0.00236342,0.128631,1.43026,-0.0422336,0.007648,3.20856,5,0.1,1,7.7,2.05114,0.58118,0.618066,0.0343438,-0.054817,0.000738259,-0.100538,0.169348,-0.00217929,0.0072651,0.000717073,5,0.1,2,7.7,4.09745,1.93768,0.598465,0.00609457,-0.0106534,-7.26432e-06,-0.0392795,0.0777319,9.68575e-05,0.0120013,0.000298176,5,0.1,3,7.7,-1.41587,-0.231874,0.60333,0.224955,0.309939,0.00687242,-0.440054,0.00442274,0.00312924,0.0115904,3.12145,5,0.1,4,7.7,-4.25836,-2.6232,0.669865,-3.20375e-05,8.19564e-06,-3.44589e-06,8.9407e-05,-5.96046e-05,1.86265e-05,0.00736352,6.32208e-09,5,0.1,5,7.7,-1.69692,-0.165062,0.599529,0.00197794,0.207369,-0.00151815,0.318281,0.968515,-0.00297651,0.0146937,3.30672,5,0.1,6,7.7,3.68962,-2.39257,0.606427,-0.0081446,-0.658724,-0.00236873,0.00746548,0.414312,0.00216812,0.00697269,0.231345,5,0.1,7,7.7,2.47205,3.25138,0.600551,-0.866026,0.318765,0.000153109,0,0.0147372,0.000245869,0.0106823,2.20743,5,0.1,8,7.7,-4.39613,-0.102208,0.699606,4.32134e-05,-0.000141514,4.65661e-07,0.000119209,0.000104308,-1.86265e-05,0.00766838,8.40528e-09,5,0.1,9,7.7,0.996771,3.5384,0.599997,0.866025,-0.284377,-6.98492e-06,0,0.14706,1.11759e-05,0.0158262,2.2208,5,0.1
0,7.8,-0.356711,1.73614,0.599426,0.088238,0.325489,-0.00749677,0.190914,1.49441,-0.0562668,0.00670905,2.72178,5,0.1,1,7.8,2.0541,0.576503,0.618129,0.0250041,-0.0391752,0.000536442,-0.0858307,0.142992,-0.00187755,0.00726684,0.000551736,5,0.1,2,7.8,4.09788,1.93696,0.598465,0.00269413,-0.00396371,0,-0.0290871,0.0561476,8.9407e-05,0.0128444,0.000136828,5,0.1,3,7.8,-1.39557,-0.2,0.604029,0.181264,0.335871,0.00707954,-0.430107,0.490316,0.00077486,0.0107962,2.86235,5,0.1,4,7.8,-4.25836,-2.6232,0.669864,-3.57628e-05,0,-1.49012e-06,0.000476837,0,0,0.00657264,1.01544e-08,5,0.1,5,7.8,-1.69489,-0.139149,0.599364,0.0402272,0.312404,-0.00174493,0.417769,1.06076,-0.00151992,0.00662797,0.636092,5,0.1,6,7.8,3.68884,-2.45629,0.606201,-0.00739694,-0.614643,-0.00215173,0.00751019,0.482559,0.00217557,0.00806065,0.155268,5,0.1,7,7.8,2.38545,3.28325,0.600567,-0.866026,0.31777,0.000156462,0,-0.0476837,-0.000149012,0.00908017,2.21923,5,0.1,8,7.8,-4.39613,-0.102222,0.699605,4.76837e-05,-0.000127964,0,0,0.000171363,-2.98023e-05,0.00679094,4.46327e-09,5,0.1,9,7.8,1.08337,3.51055,0.599996,0.866026,-0.27355,-7.45058e-06,0,0.0898838,5.96046e-05,0.016216,2.23052,5,0.1
0,7.9,-0.346767,1.77663,0.598363,0.111804,0.486827,-0.0139924,0.260592,1.644,-0.0695884,0.00670905,2.72178,5,0.1,1,7.9,2.05619,0.573261,0.618174,0.0170961,-0.0260687,0.000363681,-0.072062,0.118747,-0.00156835,0.00726684,0.000551736,5,0.1,2,7.9,4.09801,1.93682,0.598465,0.000203401,0.000796653,7.26432e-06,-0.0208318,0.0392869,5.96046e-05,0.0128444,0.000136828,5,0.1,3,7.9,-1.37952,-0.162725,0.604742,0.140448,0.419258,0.00717565,-0.384875,1.07109,0.000782311,0.0107962,2.86235,5,0.1,4,7.9,-4.25837,-2.6232,0.669864,4.47035e-06,0,-1.49012e-06,0.000298023,0,0,0.00657264,1.01544e-08,5,0.1,5,7.9,-1.68961,-0.103847,0.599173,0.0578921,0.382062,-0.00216924,-0.0255257,0.366077,-0.00622869,0.00662797,0.636092,5,0.1,6,7.9,3.68813,-2.51548,0.605996,-0.0067126,-0.570017,-0.00195354,0.0063926,0.428453,0.00185519,0.00806065,0.155268,5,0.1,7,7.9,2.29885,3.31493,0.600581,-0.865687,0.31669,0.000130292,0.0135303,0.00600517,-0.000353903,0.00908017,2.21923,5,0.1,8,7.9,-4.39612,-0.102233,0.699605,4.47035e-05,-0.000109104,-2.42144e-06,-5.96046e-05,0.000201166,-1.49012e-05,0.00679094,4.46327e-09,5,0.1,9,7.9,1.16997,3.48336,0.599996,0.865678,-0.272489,-5.68107e-06,-0.0139177,-0.0423789,-1.86265e-05,0.016216,2.23052,5,0.1
0,8,-0.334303,1.83318,0.596621,0.136913,0.639063,-0.0207081,0.227004,1.33681,-0.0617206,0.0065691,2.39355,5,0.1,1,8,2.05757,0.571205,0.618203,0.0106275,-0.0154763,0.000222027,-0.0572205,0.0929236,-0.0012219,0.00703367,0.000322369,5,0.1,2,8,4.09794,1.93707,0.598466,-0.00149012,0.00394285,1.19209e-05,-0.013113,0.0239015,0,0.0107954,4.73346e-05,5,0.1,3,8,-1.36732,-0.115206,0.605461,0.104511,0.531446,0.00717342,-0.333011,1.09255,-0.00104308,0.0108662,2.52389,5,0.1,4,8,-4.25836,-2.6232,0.669864,2.38419e-05,5.96046e-06,-1.49012e-06,0.000238419,-0.000119209,0,0.0069537,8.33738e-09,5,0.1,5,8,-1.68442,-0.0647254,0.598922,0.0421375,0.391978,-0.00286251,-0.258207,-0.137858,-0.00706315,0.0063806,0.491548,5,0.1,6,8,3.68749,-2.57031,0.605809,-0.00607967,-0.525838,-0.00177026,0.0064373,0.467777,0.00184774,0.00819243,0.104031,5,0.1,7,8,2.21246,3.34659,0.600592,-0.860614,0.315529,8.9407e-05,0.108123,-0.0433922,-0.000417233,0.00884914,2.30773,5,0.1,8,8,-4.39612,-0.102243,0.699605,3.57628e-05,-8.84756e-05,-2.98023e-06,0,0.000208616,-2.98023e-05,0.00698846,4.44533e-09,5,0.1,9,8,1.25636,3.45586,0.599995,0.860459,-0.27746,-1.04308e-05,-0.111341,-0.0375509,-2.98023e-05,0.0163543,2.30025,5,0.1
0,8.1,-0.31941,1.90335,0.594231,0.161187,0.758809,-0.027098,0.241883,1.0171,-0.0627302,0.0065691,2.39355,5,0.1,1,8.1,2.05836,0.570086,0.61822,0.00552908,-0.00725342,0.000113156,-0.0447035,0.0714995,-0.0009574,0.00703367,0.000322369,5,0.1,2,8.1,4.09774,1.93756,0.598468,-0.00251085,0.00575297,1.15484e-05,-0.00745058,0.0126362,-7.45058e-06,0.0107954,4.73346e-05,5,0.1,3,8.1,-1.35843,-0.0560892,0.606175,0.0741752,0.653756,0.00710776,-0.273965,1.267,-0.000622123,0.0108662,2.52389,5,0.1,4,8.1,-4.25836,-2.6232,0.669864,4.32134e-05,-3.72529e-06,-1.49012e-06,0.000119209,-5.96046e-05,0,0.0069537,8.33738e-09,5,0.1,5,8.1,-1.68152,-0.0266951,0.598592,0.0159146,0.364323,-0.00378536,-0.258319,-0.396444,-0.0105537,0.0063806,0.491548,5,0.1,6,8.1,3.68692,-2.62069,0.605641,-0.00549518,-0.482797,-0.00160234,0.00543892,0.4085,0.0015609,0.00819243,0.104031,5,0.1,7,8.1,2.12681,3.3786,0.600599,-0.852704,0.330209,5.69969e-05,0.0893921,0.282779,-0.000245869,0.00884914,2.30773,5,0.1,8,8.1,-4.39611,-0.102251,0.699605,3.27826e-05,-6.76722e-05,-5.02914e-06,-5.96046e-05,0.000204425,-7.45058e-06,0.00698846,4.44533e-09,5,0.1,9,8.1,1.342,3.4272,0.599993,0.852864,-0.301532,-2.72878e-05,-0.0811592,-0.385821,-0.000271946,0.0163543,2.30025,5,0.1
0,8.2,-0.302169,1.98353,0.591229,0.182452,0.836587,-0.0326812,0.171602,0.520587,-0.046581,0.00684995,2.26758,5,0.1,1,8.2,2.05872,0.569683,0.618227,0.00168681,-0.00116527,3.12924e-05,-0.0321865,0.0503957,-0.000685453,0.00604976,0.000141754,5,0.1,2,8.2,4.09746,1.93818,0.598469,-0.003016,0.00653863,1.04308e-05,-0.0026226,0.00339746,0,0.00891661,1.4238e-05,5,0.1,3,8.2,-1.35229,0.0153243,0.606881,0.0496417,0.769919,0.00698864,-0.217199,0.993659,-0.00202656,0.00772099,2.34,5,0.1,4,8.2,-4.25836,-2.6232,0.669864,4.76837e-05,-5.96046e-06,-1.49012e-06,0,0,2.98023e-05,0.0111505,4.52215e-09,5,0.1,5,8.2,-1.68116,0.00745786,0.598161,-0.00816584,0.316173,-0.00482798,-0.217617,-0.550528,-0.00968575,0.0099426,3.34539,5,0.1,6,8.2,3.68639,-2.66692,0.605488,-0.00496507,-0.441527,-0.00144839,0.00536442,0.427604,0.00151992,0.00643665,0.120442,5,0.1,7,8.2,2.04222,3.41321,0.600604,-0.83611,0.362587,3.8743e-05,0.269473,0.323892,-0.000149012,0.0109324,2.25956,5,0.1,8,8.2,-4.39611,-0.102257,0.699604,2.38419e-05,-4.80562e-05,-5.96046e-06,0,0.000182539,2.98023e-05,0.00655217,5.22088e-09,5,0.1,9,8.2,1.42666,3.39493,0.599989,0.837365,-0.344431,-6.10948e-05,-0.256836,-0.4282,-0.000298023,0.0133039,2.11304,5,0.1
0,8.3,-0.283026,2.06888,0.587723,0.20042,0.863333,-0.0373946,0.172738,0.0906438,-0.0446849,0.00684995,2.26758,5,0.1,1,8.3,2.05874,0.569791,0.618227,-0.00103861,0.00304766,-2.6729e-05,-0.0224113,0.0340864,-0.000480562,0.00604976,0.000141754,5,0.1,2,8.3,4.09715,1.93884,0.59847,-0.00310913,0.00654701,9.96515e-06,0.000625849,-0.00288337,-1.11759e-05,0.00891661,1.4238e-05,5,0.1,3,8.3,-1.34833,0.0963953,0.607572,0.0305146,0.842607,0.00684205,-0.166208,0.462404,-0.00125915,0.00772099,2.34,5,0.1,4,8.3,-4.25835,-2.6232,0.669864,4.47035e-05,-5.58794e-06,9.31323e-07,-5.96046e-05,1.49012e-05,1.49012e-05,0.0111505,4.52215e-09,5,0.1,5,8.3,-1.68223,0.0373203,0.597639,-0.00605844,0.289553,-0.00551296,0.214085,-0.0406647,-0.00413135,0.0099426,3.34539,5,0.1,6,8.3,3.68592,-2.70929,0.60535,-0.0045497,-0.408553,-0.00133095,0.00323355,0.258699,0.000920147,0.00643665,0.120442,5,0.1,7,8.3,1.959,3.45081,0.600607,-0.835439,0.386384,1.21072e-05,-0.170894,0.145391,-0.000350177,0.0109324,2.25956,5,0.1,8,8.3,-4.39611,-0.102261,0.699604,2.08616e-05,-3.07569e-05,-3.07336e-06,-5.96046e-05,0.00016205,2.6077e-05,0.00655217,5.22088e-09,5,0.1,9,8.3,1.51002,3.3586,0.599982,0.836857,-0.37946,-8.14907e-05,0.163645,-0.261322,-0.000122935,0.0133039,2.11304,5,0.1
0,8.4,-0.262219,2.15542,0.583784,0.214447,0.866026,-0.0411093,0.0972822,0,-0.0274777,0.0076322,2.17943,5,0.1,1,8.4,2.05854,0.570241,0.618222,-0.00282526,0.00570267,-6.4075e-05,-0.0133514,0.0193715,-0.000298023,0.00601546,4.70018e-05,5,0.1,2,8.4,4.09685,1.93948,0.598471,-0.00293255,0.00603199,8.9407e-06,0.00286102,-0.00715256,0,0.00832959,7.47112e-06,5,0.1,3,8.4,-1.34603,0.182161,0.608249,0.0162214,0.865227,0.00667721,-0.120521,0.015974,-0.00232458,0.00715832,2.27239,5,0.1,4,8.4,-4.25835,-2.6232,0.669864,3.57628e-05,-5.96046e-06,2.98023e-06,0,0.000119209,-2.98023e-05,0.0104202,5.31136e-09,5,0.1,5,8.4,-1.68137,0.0665153,0.597075,0.0264764,0.297605,-0.00567734,0.400603,0.156172,0.000655651,0.010377,3.07853,5,0.1,6,8.4,3.68548,-2.74895,0.605221,-0.00426173,-0.385123,-0.00124872,0.00274181,0.229716,0.00077486,0.00757578,0.0701831,5,0.1,7,8.4,1.87445,3.48983,0.600606,-0.855526,0.39072,-2.68221e-05,-0.168383,-0.0617504,-0.00038743,0.00932771,2.20894,5,0.1,8,8.4,-4.39611,-0.102263,0.699603,1.19209e-05,-1.60187e-05,-1.49012e-06,0,0.000130385,2.98023e-05,0.00861826,3.75816e-09,5,0.1,9,8.4,1.59466,3.31969,0.599973,0.855649,-0.394988,-8.64267e-05,0.1508,-0.0430346,0,0.00688067,1.31467,5,0.1
0,8.5,-0.240249,2.24202,0.579531,0.224985,0.866026,-0.0439323,0.0994885,0,-0.0261962,0.0076322,2.17943,5,0.1,1,8.5,2.0582,0.570889,0.618214,-0.00382476,0.00708858,-8.61473e-05,-0.00683963,0.0086911,-0.000152737,0.00601546,4.70018e-05,5,0.1,2,8.5,4.09657,1.94004,0.598472,-0.00256971,0.00517573,8.47504e-06,0.00426173,-0.0096634,-1.11759e-05,0.00832959,7.47112e-06,5,0.1,3,8.5,-1.34495,0.268733,0.608907,0.00601206,0.865976,0.00651199,-0.0845566,0.00199318,-0.00133365,0.00715832,2.27239,5,0.1,4,8.5,-4.25834,-2.6232,0.669864,3.27826e-05,4.09782e-06,4.65661e-07,-5.96046e-05,7.45058e-05,-1.86265e-05,0.0104202,5.31136e-09,5,0.1,5,8.5,-1.6762,0.0975409,0.596515,0.0808392,0.326537,-0.00549415,0.640839,0.37527,0.00296906,0.010377,3.07853,5,0.1,6,8.5,3.68507,-2.78645,0.605099,-0.0040371,-0.366056,-0.00118511,0.00195205,0.169322,0.000555068,0.00757578,0.0701831,5,0.1,7,8.5,1.78832,3.52853,0.600601,-0.864849,0.382228,-7.01286e-05,-0.0366494,-0.117466,-0.000458211,0.00932771,2.20894,5,0.1,8,8.5,-4.39611,-0.102264,0.699603,1.11759e-05,-4.23752e-06,1.02445e-06,-2.98023e-05,0.000104308,1.86265e-05,0.00861826,3.75816e-09,5,0.1,9,8.5,1.67846,3.28027,0.599963,0.798376,-0.390583,-0.000132713,-1.17573,0.129908,-0.000815839,0.00688067,1.31467,5,0.1
0,8.6,-0.217343,2.32863,0.575027,0.231975,0.866026,-0.0458777,0.0305995,0,-0.0107586,0.00901027,1.71437,5,0.1,1,8.6,2.05779,0.571626,0.618205,-0.00422597,0.00751019,-9.53674e-05,-0.00143051,8.9407e-05,-2.98023e-05,0.00819136,1.44528e-05,5,0.1,2,8.6,4.09634,1.94051,0.598472,-0.00211,0.00415444,7.45058e-06,0.00500679,-0.0106096,0,0.0079557,6.92912e-06,5,0.1,3,8.6,-1.34471,0.355334,0.609551,-0.000867248,0.866025,0.00634938,-0.0540614,1.43051e-05,-0.00217557,0.0095723,2.27202,5,0.1,4,8.6,-4.25834,-2.6232,0.669864,2.38419e-05,5.96046e-06,0,0,0.000119209,-2.98023e-05,0.00785567,4.37983e-09,5,0.1,5,8.6,-1.66483,0.132114,0.595984,0.146601,0.364438,-0.00509471,0.639796,0.347719,0.00497699,0.0145244,2.82892,5,0.1,6,8.6,3.68467,-2.82219,0.604984,-0.00383854,-0.348234,-0.00112653,0.00214577,0.199676,0.000596046,0.00980966,0.054783,5,0.1,7,8.6,1.70175,3.56601,0.600592,-0.866026,0.365722,-0.000113249,5.96046e-05,-0.218272,-0.000417233,0.0107843,2.21436,5,0.1,8,8.6,-4.3961,-0.102264,0.699604,1.19209e-05,4.65661e-06,1.49012e-06,-0.000238419,7.82311e-05,5.96046e-05,0.00721919,5.5887e-09,5,0.1,9,8.6,1.75105,3.24214,0.599945,0.642323,-0.369412,-0.000230968,-1.84768,0.290632,-0.00107288,0.0130841,1.77406,5,0.1
0,8.7,-0.193978,2.41523,0.570385,0.235196,0.865989,-0.0469243,0.0226824,-0.00146031,-0.00795722,0.00901027,1.71437,5,0.1,1,8.7,2.05737,0.572367,0.618196,-0.0041768,0.00721524,-9.40636e-05,0.00220537,-0.00562146,5.21541e-05,0.00819136,1.44528e-05,5,0.1,2,8.7,4.09615,1.94087,0.598473,-0.00159889,0.00307783,6.98492e-06,0.005126,-0.010699,-1.11759e-05,0.0079557,6.92912e-06,5,0.1,3,8.7,-1.34503,0.441937,0.610178,-0.00515208,0.866025,0.00620252,-0.0323504,-1.78814e-06,-0.00112131,0.0095723,2.27202,5,0.1,4,8.7,-4.25834,-2.6232,0.669864,2.08616e-05,1.56462e-05,-2.42144e-06,-5.96046e-05,5.96046e-05,-1.49012e-05,0.00785567,4.37983e-09,5,0.1,5,8.7,-1.64661,0.170493,0.595501,0.220185,0.404157,-0.00456013,0.783741,0.409075,0.00568479,0.0145244,2.82892,5,0.1,6,8.7,3.6843,-2.85617,0.604874,-0.00367276,-0.332394,-0.00108015,0.00138581,0.135452,0.000394881,0.00980966,0.054783,5,0.1,7,8.7,1.61515,3.60154,0.600578,-0.866025,0.345117,-0.00015609,-1.49012e-05,-0.204936,-0.000424683,0.0107843,2.21436,5,0.1,8,8.7,-4.3961,-0.102263,0.699604,-8.19564e-06,1.12457e-05,5.86733e-06,-0.000149012,5.30854e-05,3.35276e-05,0.00721919,5.5887e-09,5,0.1,9,8.7,1.80807,3.20657,0.599918,0.515623,-0.342393,-0.000303704,-0.782944,0.260547,-0.000413507,0.0130841,1.77406,5,0.1
0,8.8,-0.170432,2.50181,0.565672,0.234641,0.865442,-0.0470966,-0.0413433,-0.0116825,0.00602007,0.00903788,1.31133,5,0.1,1,8.8,2.05697,0.573054,0.618187,-0.00382066,0.00645369,-8.64267e-05,0.00464916,-0.00929832,0.000119209,0.00895349,8.769e-06,5,0.1,2,8.8,4.09602,1.94112,0.598474,-0.00109673,0.0020504,5.96046e-06,0.00452995,-0.00959635,-2.98023e-05,0.0109506,5.6332e-06,5,0.1,3,8.8,-1.34568,0.528539,0.610792,-0.00747442,0.866026,0.00606477,-0.0148416,0,-0.00187755,0.00737769,2.27193,5,0.1,4,8.8,-4.25834,-2.6232,0.669864,1.19209e-05,1.78814e-05,-2.98023e-06,0,0,-2.98023e-05,0.0100945,4.40829e-09,5,0.1,5,8.8,-1.62076,0.212802,0.595074,0.294995,0.43981,-0.00396371,0.677168,0.277162,0.00622869,0.0122138,2.59685,5,0.1,6,8.8,3.68394,-2.88872,0.604768,-0.00352263,-0.318027,-0.00103712,0.00154972,0.164747,0.000506639,0.00726324,0.0249731,5,0.1,7,8.8,1.52855,3.63498,0.600561,-0.866026,0.322866,-0.000192225,0,-0.247478,-0.000357628,0.0114494,2.22531,5,0.1,8,8.8,-4.39611,-0.102262,0.699605,-2.38419e-05,1.52737e-05,7.45058e-06,0,3.35276e-05,2.98023e-05,0.0065216,2.6623e-09,5,0.1,9,8.8,1.85682,3.17366,0.599886,0.468433,-0.315487,-0.000320375,-0.237346,0.28491,5.96046e-05,0.00973062,1.37692,5,0.1
0,8.9,-0.14716,2.58835,0.560991,0.230708,0.86542,-0.0464962,-0.0463393,-0.00376999,0.00778958,0.00903788,1.31133,5,0.1,1,8.9,2.05661,0.573648,0.618179,-0.00327453,0.00540661,-7.29226e-05,0.00610948,-0.0113361,0.000145286,0.00895349,8.769e-06,5,0.1,2,8.9,4.09593,1.94128,0.598474,-0.000663102,0.00113789,3.07336e-06,0.00411272,-0.00851601,-2.6077e-05,0.0109506,5.6332e-06,5,0.1,3,8.9,-1.34648,0.615142,0.611391,-0.00838228,0.866026,0.00594622,-0.0037998,-3.72529e-06,-0.000845641,0.00737769,2.27193,5,0.1,4,8.9,-4.25833,-2.6232,0.669863,1.11759e-05,1.75089e-05,-5.02914e-06,-2.98023e-05,-1.49012e-05,-7.45058e-06,0.0100945,4.40829e-09,5,0.1,5,8.9,-1.58753,0.258542,0.594711,0.371688,0.477452,-0.0032682,0.802465,0.426122,0.00748038,0.0122138,2.59685,5,0.1,6,8.9,3.68359,-2.91972,0.604666,-0.00336915,-0.301997,-0.000987481,0.00160933,0.165492,0.000517815,0.00726324,0.0249731,5,0.1,7,8.9,1.44194,3.66613,0.60054,-0.866026,0.30095,-0.000227615,0,-0.20279,-0.000327826,0.0114494,2.22531,5,0.1,8,8.9,-4.39611,-0.10226,0.699606,-2.38419e-05,1.76369e-05,9.22009e-06,0,1.44355e-05,1.11759e-05,0.0065216,2.6623e-09,5,0.1,9,8.9,1.90346,3.14345,0.599855,0.472504,-0.289197,-0.000298675,0.244863,0.249937,0.000353903,0.00973062,1.37692,5,0.1
0,9,-0.124389,2.67477,0.556395,0.223864,0.861597,-0.0452384,-0.0966007,-0.0885725,0.018537,0.0110628,0.974256,5,0.1,1,9,2.05632,0.574131,0.618172,-0.00263453,0.00423938,-5.81145e-05,0.00667572,-0.0117123,0.000149012,0.00688891,8.39875e-06,5,0.1,2,9,4.09588,1.94136,0.598474,-0.000286102,0.000369549,1.49012e-06,0.00333786,-0.00685453,-2.98023e-05,0.00966029,3.48011e-06,5,0.1,3,9,-1.34732,0.701744,0.611981,-0.00832975,0.866026,0.00583678,0.00452995,0,-0.00160933,0.00837222,2.27191,5,0.1,4,9,-4.25833,-2.6232,0.669863,1.19209e-05,1.19209e-05,-5.96046e-06,-0.000238419,0.000119209,0,0.00924334,5.95546e-09,5,0.1,5,9,-1.5465,0.30833,0.594423,0.446129,0.516481,-0.0025019,0.647068,0.318499,0.0077188,0.0115822,2.2354,5,0.1,6,9,3.68326,-2.94903,0.604571,-0.00317693,-0.283331,-0.000929832,0.00214577,0.214219,0.000715256,0.00661643,0.01516,5,0.1,7,9,1.35534,3.69521,0.600516,-0.866026,0.280273,-0.00025332,0,-0.219226,-0.000238419,0.00972733,2.19897,5,0.1,8,9,-4.39611,-0.102258,0.699607,-2.38419e-05,1.82539e-05,8.9407e-06,0.000238419,-3.72529e-06,0,0.00651759,5.26074e-09,5,0.1,9,9,1.95223,3.11578,0.599827,0.504416,-0.263971,-0.00025481,0.337541,0.26083,0.000536442,0.00875861,1.08004,5,0.1
0,9.1,-0.102464,2.76076,0.55196,0.214689,0.859709,-0.0434595,-0.0943239,0.00181794,0.0185184,0.0110628,0.974256,5,0.1,1,9.1,2.05609,0.574496,0.618167,-0.00196062,0.00306843,-4.32134e-05,0.00669062,-0.0114925,0.000149012,0.00688891,8.39875e-06,5,0.1,2,9.1,4.09587,1.94136,0.598474,1.71363e-05,-0.000245497,-1.02445e-06,0.00265241,-0.00537932,-1.86265e-05,0.00966029,3.48011e-06,5,0.1,3,9.1,-1.34813,0.788347,0.612559,-0.00764988,0.866026,0.00574216,0.00876188,-3.72529e-06,-0.000625849,0.00837222,2.27191,5,0.1,4,9.1,-4.25833,-2.62319,0.669862,-8.19564e-06,2.01166e-05,-5.4948e-06,-0.000149012,2.98023e-05,1.11759e-05,0.00924334,5.95546e-09,5,0.1,5,9.1,-1.49848,0.362135,0.594215,0.514781,0.563583,-0.0016233,0.677511,0.557577,0.00946969,0.0115822,2.2354,5,0.1,6,9.1,3.68296,-2.97632,0.604481,-0.0029631,-0.262458,-0.000860542,0.00220537,0.210777,0.000692904,0.00661643,0.01516,5,0.1,7,9.1,1.26874,3.72225,0.600489,-0.866026,0.261571,-0.000276417,0,-0.166744,-0.000201166,0.00972733,2.19897,5,0.1,8,9.1,-4.39611,-0.102257,0.699607,-4.47035e-06,1.73342e-05,8.3819e-06,0.000119209,-1.44355e-05,-1.49012e-05,0.00651759,5.26074e-09,5,0.1,9,9.1,2.00478,3.09061,0.599804,0.549266,-0.240061,-0.000196509,0.502616,0.224933,0.000610948,0.00875861,1.08004,5,0.1
0,9.2,-0.0815118,2.84656,0.547717,0.203759,0.85361,-0.0412866,-0.12926,-0.15831,0.0258684,0.00770759,0.697294,5,0.1,1,9.2,2.05592,0.574748,0.618163,-0.00132322,0.00197887,-2.98023e-05,0.00607967,-0.0101328,0.000149012,0.0122981,6.66187e-06,5,0.1,2,9.2,4.09588,1.94131,0.598474,0.00025034,-0.000700355,-2.98023e-06,0.00190735,-0.00357628,0,0.00869339,1.55844e-06,5,0.1,3,9.2,-1.34884,0.874949,0.61313,-0.006634,0.866026,0.0056535,0.0113845,0,-0.00140071,0.0070289,2.27191,5,0.1,4,9.2,-4.25834,-2.62319,0.669862,-2.38419e-05,2.38419e-05,-4.47035e-06,0,-0.000119209,2.98023e-05,0.00829333,4.07101e-09,5,0.1,5,9.2,-1.44389,0.421231,0.5941,0.573358,0.616571,-0.000673532,0.45985,0.453844,0.00917912,0.0146737,1.69217,5,0.1,6,9.2,3.68267,-3.00146,0.604399,-0.00272393,-0.239956,-0.000786781,0.0026226,0.243783,0.000804663,0.00691121,0.0048403,5,0.1,7,9.2,1.18213,3.74758,0.600461,-0.866026,0.24488,-0.000292063,0,-0.175595,-8.9407e-05,0.00875398,1.73687,5,0.1,8,9.2,-4.39611,-0.102255,0.699608,1.19209e-05,1.56462e-05,7.45058e-06,-0.000238419,-2.23517e-05,-5.96046e-05,0.00835564,4.58409e-09,5,0.1,9,9.2,2.06211,3.06772,0.599788,0.595134,-0.2177,-0.000135601,0.373602,0.22769,0.000596046,0.0087908,0.802828,5,0.1
0,9.3,-0.061751,2.93129,0.543711,0.191609,0.841497,-0.038844,-0.119902,-0.123143,0.0242144,0.00770759,0.697294,5,0.1,1,9.3,2.05582,0.574897,0.618161,-0.000748411,0.00102501,-1.59256e-05,0.00534952,-0.00881404,0.000122935,0.0122981,6.66187e-06,5,0.1,2,9.3,4.09592,1.94123,0.598474,0.000409782,-0.000995025,-2.98023e-06,0.0013113,-0.00230968,0,0.00869339,1.55844e-06,5,0.1,3,9.3,-1.34945,0.961552,0.61369,-0.00545811,0.866025,0.00557611,0.0119731,-7.45058e-06,-0.000480562,0.0070289,2.27191,5,0.1,4,9.3,-4.25834,-2.62319,0.669861,-2.38419e-05,1.22935e-05,-1.58325e-06,0,-0.000104308,2.6077e-05,0.00829333,4.07101e-09,5,0.1,5,9.3,-1.38424,0.485358,0.594079,0.618819,0.66667,0.000250991,0.411503,0.497011,0.00903383,0.0146737,1.69217,5,0.1,6,9.3,3.68241,-3.02424,0.604324,-0.00245646,-0.215391,-0.000706036,0.00277162,0.250041,0.000815839,0.00691121,0.0048403,5,0.1,7,9.3,1.09553,3.77128,0.600431,-0.866018,0.229566,-0.000300165,0.000298023,-0.140324,-6.33299e-05,0.00875398,1.73687,5,0.1,8,9.3,-4.39611,-0.102254,0.699609,-8.19564e-06,1.32131e-05,2.04891e-06,-0.000149012,-2.56114e-05,-4.47035e-05,0.00835564,4.58409e-09,5,0.1,9,9.3,2.12364,3.04717,0.599777,0.635675,-0.192505,-7.68341e-05,0.392973,0.272661,0.000569969,0.0087908,0.802828,5,0.1
0,9.4,-0.0432151,3.01462,0.539953,0.178745,0.822353,-0.0362381,-0.141554,-0.286698,0.0287592,0.00741107,0.485636,5,0.1,1,9.4,2.05577,0.574958,0.61816,-0.00026226,0.000235438,-4.47035e-06,0.00417233,-0.00685453,8.9407e-05,0.00935315,3.89962e-06,5,0.1,2,9.4,4.09596,1.94112,0.598474,0.0005126,-0.00116229,-2.98023e-06,0.000476837,-0.00101328,0,0.0104314,5.01742e-07,5,0.1,3,9.4,-1.34993,1.04815,0.614245,-0.00427067,0.866026,0.00550002,0.0115633,0,-0.0012815,0.00675067,2.27191,5,0.1,4,9.4,-4.25834,-2.62319,0.669861,-2.38419e-05,5.96046e-06,0,0.000238419,-0.000119209,2.98023e-05,0.00713042,5.95587e-09,5,0.1,5,9.4,-1.32064,0.554238,0.594147,0.649285,0.707257,0.00108331,0.171959,0.278711,0.00745058,0.0149416,1.22291,5,0.1,6,9.4,3.68218,-3.0445,0.604257,-0.00216961,-0.189573,-0.000621378,0.00309944,0.267386,0.000864267,0.00613804,0.00144669,5,0.1,7,9.4,1.00893,3.79353,0.600401,-0.865906,0.215161,-0.000301003,0.00238419,-0.154495,0,0.00797662,1.33523,5,0.1,8,9.4,-4.39611,-0.102252,0.699609,-1.19209e-05,1.06171e-05,-1.49012e-06,-0.000238419,-2.6077e-05,-2.98023e-05,0.00750615,6.68382e-09,5,0.1,9,9.4,2.1889,3.02933,0.599772,0.666213,-0.163835,-2.38419e-05,0.18692,0.297308,0.000506639,0.0104463,0.601671,5,0.1
0,9.5,-0.0260114,3.09554,0.536466,0.165566,0.796515,-0.0335546,-0.127187,-0.261813,0.0259429,0.00741107,0.485636,5,0.1,1,9.5,2.05576,0.57495,0.61816,0.000112504,-0.000374671,3.44589e-06,0.00327826,-0.00529364,6.33299e-05,0.00935315,3.89962e-06,5,0.1,2,9.5,4.09601,1.941,0.598473,0.000542402,-0.00121836,-2.98023e-06,0.000119209,-0.000111759,0,0.0104314,5.01742e-07,5,0.1,3,9.5,-1.3503,1.13476,0.614791,-0.00315662,0.866026,0.00543138,0.0106171,0,-0.000413507,0.00675067,2.27191,5,0.1,4,9.5,-4.25834,-2.62319,0.669861,-4.47035e-06,-4.09782e-06,2.51457e-06,0.000119209,-7.45058e-05,1.86265e-05,0.00713042,5.95587e-09,5,0.1,5,9.5,-1.25486,0.626413,0.594292,0.665234,0.735778,0.0017955,0.11684,0.251431,0.00657514,0.0149416,1.22291,5,0.1,6,9.5,3.68198,-3.06213,0.6042,-0.00186153,-0.163005,-0.000535417,0.00305474,0.264019,0.000853091,0.00613804,0.00144669,5,0.1,7,9.5,0.922349,3.81433,0.600371,-0.865702,0.201417,-0.000300072,0.00876188,-0.128299,2.98023e-05,0.00797662,1.33523,5,0.1,8,9.5,-4.39612,-0.102251,0.699608,-3.12924e-05,8.02102e-06,-4.00469e-06,-0.000119209,-2.56114e-05,-1.86265e-05,0.00750615,6.68382e-09,5,0.1,9,9.5,2.25624,3.01428,0.599772,0.677866,-0.138787,2.37487e-05,0.0276268,0.211388,0.000435859,0.0104463,0.601671,5,0.1
0,9.6,-0.0101012,3.17371,0.533243,0.152439,0.764638,-0.0308767,-0.138873,-0.397325,0.028342,0.00606498,0.331659,5,0.1,1,9.6,2.05579,0.574889,0.618161,0.00038743,-0.000815094,1.04308e-05,0.00226498,-0.00348687,0,0.00728688,1.70083e-06,5,0.1,2,9.6,4.09607,1.94088,0.598473,0.000536442,-0.00119209,-2.98023e-06,-0.000238419,0.000715256,2.98023e-05,0.0113545,1.32598e-07,5,0.1,3,9.6,-1.35057,1.22136,0.615331,-0.00216663,0.866026,0.00536144,0.00923872,0,-0.0012219,0.00980061,2.27632,5,0.1,4,9.6,-4.25834,-2.62319,0.669862,1.19209e-05,-1.19209e-05,2.98023e-06,-0.000238419,0,2.98023e-05,0.00831835,4.93483e-09,5,0.1,5,9.6,-1.18805,0.700934,0.594501,0.667614,0.750758,0.00236332,-0.089407,0.0205934,0.00464916,0.011092,0.850867,5,0.1,6,9.6,3.68181,-3.07711,0.60415,-0.00156164,-0.136805,-0.000450015,0.00309944,0.259876,0.000834465,0.00823847,0.000770839,5,0.1,7,9.6,0.835908,3.83382,0.600341,-0.861926,0.18816,-0.000293553,0.082016,-0.142455,0.000119209,0.0066445,2.26662,5,0.1,8,9.6,-4.39612,-0.102251,0.699608,-3.57628e-05,5.58794e-06,-4.47035e-06,0,-2.23517e-05,-2.98023e-05,0.00672239,4.35215e-09,5,0.1,9,9.6,2.32378,3.00136,0.599777,0.668788,-0.120187,6.25849e-05,-0.220299,0.166655,0.000298023,0.0110275,0.544775,5,0.1
0,9.7,0.00448748,3.24831,0.530289,0.139616,0.727869,-0.0282567,-0.121926,-0.36411,0.0249296,0.00606498,0.331659,5,0.1,1,9.7,2.05584,0.574792,0.618162,0.00057444,-0.00109747,1.05239e-05,0.00146031,-0.00215322,3.72529e-06,0.00728688,1.70083e-06,5,0.1,2,9.7,4.09612,1.94076,0.598473,0.000502169,-0.00109654,-5.58794e-07,-0.000417233,0.00116974,1.49012e-05,0.0113545,1.32598e-07,5,0.1,3,9.7,-1.35074,1.30796,0.615863,-0.00130776,0.865863,0.00529569,0.00787526,-0.00648946,-0.000402331,0.00980061,2.27632,5,0.1,4,9.7,-4.25834,-2.62319,0.669862,-8.19564e-06,-1.19209e-05,5.40167e-06,-0.000149012,0,1.49012e-05,0.00831835,4.93483e-09,5,0.1,5,9.7,-1.12173,0.77614,0.59476,0.658324,0.752799,0.00279015,-0.12093,-0.0120774,0.00372157,0.011092,0.850867,5,0.1,6,9.7,3.68167,-3.08952,0.604109,-0.00126287,-0.111589,-0.000368804,0.00286102,0.243574,0.000789762,0.00823847,0.000770839,5,0.1,7,9.7,0.749795,3.85191,0.600312,-0.862514,0.173268,-0.000278465,-0.0512488,-0.157297,0.000186265,0.0066445,2.26662,5,0.1,8,9.7,-4.39612,-0.10225,0.699607,-3.27826e-05,3.48082e-06,-6.89179e-06,5.96046e-05,-1.90921e-05,-1.49012e-05,0.00672239,4.35215e-09,5,0.1,9,9.7,2.38871,2.99008,0.599784,0.622236,-0.106439,8.99658e-05,-0.676319,0.114501,0.000245869,0.0110275,0.544775,5,0.1
0,9.8,0.0178386,3.31916,0.527588,0.127322,0.687438,-0.0257462,-0.12694,-0.462532,0.0259578,0.00686564,0.223812,5,0.1,1,9.8,2.0559,0.574674,0.618163,0.000679493,-0.00124574,1.04308e-05,0.000715256,-0.000834465,0,0.00740635,5.45173e-07,5,0.1,2,9.8,4.09617,1.94066,0.598473,0.000452995,-0.000962615,1.49012e-06,-0.000715256,0.00149012,0,0.0115998,7.38721e-08,5,0.1,3,9.8,-1.35084,1.39446,0.61639,-0.000604987,0.863433,0.00522733,0.00631809,-0.051856,-0.00119209,0.0125542,2.43647,5,0.1,4,9.8,-4.25834,-2.62319,0.669863,-1.19209e-05,-1.19209e-05,5.96046e-06,-0.000238419,0.000119209,0,0.00975375,7.99781e-09,5,0.1,5,9.8,-1.05671,0.85109,0.595055,0.639346,0.742933,0.00308156,-0.275016,-0.206977,0.00196695,0.0123226,2.15902,5,0.1,6,9.8,3.68156,-3.09949,0.604076,-0.000995398,-0.0882447,-0.000293553,0.00274181,0.222683,0.000745058,0.00810217,0.000690759,5,0.1,7,9.8,0.663323,3.86841,0.600285,-0.866026,0.156415,-0.0002563,2.98023e-05,-0.18084,0.000238419,0.00674943,2.26511,5,0.1,8,9.8,-4.39613,-0.10225,0.699607,-2.38419e-05,1.67638e-06,-5.96046e-06,0,-1.49012e-05,-5.96046e-05,0.0076227,3.7946e-09,5,0.1,9,9.8,2.44704,2.97996,0.599794,0.539863,-0.0962079,0.000108778,-0.941992,0.0948906,0.000178814,0.0107322,0.506312,5,0.1
