id,t,px,py,pz,vx,vy,vz,ax,ay,az,planning_time,qp_cost,planning_report,size,id,t,px,py,pz,vx,vy,vz,ax,ay,az,planning_time,qp_cost,planning_report,size,id,t,px,py,pz,vx,vy,vz,ax,ay,az,planning_time,qp_cost,planning_report,size,id,t,px,py,pz,vx,vy,vz,ax,ay,az,planning_time,qp_cost,planning_report,size,id,t,px,py,pz,vx,vy,vz,ax,ay,az,planning_time,qp_cost,planning_report,size,id,t,px,py,pz,vx,vy,vz,ax,ay,az,planning_time,qp_cost,planning_report,size,id,t,px,py,pz,vx,vy,vz,ax,ay,az,planning_time,qp_cost,planning_report,size,id,t,px,py,pz,vx,vy,vz,ax,ay,az,planning_time,qp_cost,planning_report,size,id,t,px,py,pz,vx,vy,vz,ax,ay,az,planning_time,qp_cost,planning_report,size,id,t,px,py,pz,vx,vy,vz,ax,ay,az,planning_time,qp_cost,planning_report,size
0,0,3.56152,3.79575,0.505838,0,0,0,0,0,0,0.0139498,3.5122,5,0.1,1,0,-3.0015,-1.40432,0.503825,0,0,0,0,0,0,0.0114999,3.5122,5,0.1,2,0,-4.06884,0.361607,0.517062,0,0,0,0,0,0,0.020879,1.60304,5,0.1,3,0,-3.45042,-4.20835,0.602752,0,0,0,0,0,0,0.00817425,3.51219,5,0.1,4,0,-4.21363,-2.69022,0.671255,0,0,0,0,0,0,0.00855795,1.9479,5,0.1,5,0,-1.26595,-3.27743,0.511021,0,0,0,0,0,0,0.0101412,3.5122,5,0.1,6,0,0.578919,3.98861,0.654691,0,0,0,0,0,0,0.0105883,2.33573,5,0.1,7,0,3.73403,-0.422827,0.679455,0,0,0,0,0,0,0.0149916,3.51219,5,0.1,8,0,2.06539,-0.650053,0.585389,0,0,0,0,0,0,0.0147217,3.5122,5,0.1,9,0,-4.16702,2.73035,0.584369,0,0,0,0,0,0,0.0153725,0.756081,5,0.1
0,0.1,3.5616,3.79366,0.505858,0.00212342,-0.059228,0.000557583,0.0377595,-1.05296,0.009913,0.0139498,3.5122,5,0.1,1,0.1,-2.99942,-1.40446,0.503793,0.0591241,-0.00403319,-0.000883546,1.0511,-0.0716969,-0.0157095,0.0114999,3.5122,5,0.1,2,0.1,-4.06788,0.362638,0.516992,0.0272296,0.0292902,-0.00198735,0.484079,0.520715,-0.0353269,0.020879,1.60304,5,0.1,3,0.1,-3.4503,-4.20627,0.60275,0.0034783,0.0591666,-6.37956e-05,0.0618547,1.05184,-0.00113621,0.00817425,3.51219,5,0.1,4,0.1,-4.21252,-2.68913,0.671181,0.0315197,0.030826,-0.0021114,0.560373,0.548005,-0.0375398,0.00855795,1.9479,5,0.1,5,0.1,-1.26597,-3.27535,0.511044,-0.000697747,0.0592608,0.000646431,-0.0123978,1.05353,0.0114925,0.0101412,3.5122,5,0.1,6,0.1,0.577219,3.98868,0.654634,-0.0482715,0.00181906,-0.00162078,-0.858162,0.0323504,-0.0288151,0.0105883,2.33573,5,0.1,7,0.1,3.73377,-0.420756,0.679498,-0.00745431,0.0587851,0.00121146,-0.132531,1.04507,0.0215396,0.0149916,3.51219,5,0.1,8,0.1,2.06331,-0.650184,0.585369,-0.0591498,-0.00371849,-0.000546873,-1.05153,-0.0661053,-0.00972301,0.0147217,3.5122,5,0.1,9,0.1,-4.16611,2.73001,0.584385,0.0256926,-0.00978969,0.00046324,0.45675,-0.174031,0.00823289,0.0153725,0.756081,5,0.1
0,0.2,3.56203,3.78163,0.505971,0.00670552,-0.187188,0.00176281,0.0504255,-1.40381,0.0132024,0.00685382,2.92581,5,0.1,1,0.2,-2.98741,-1.40528,0.503614,0.186861,-0.0127494,-0.00279248,1.40154,-0.0955462,-0.020951,0.0109044,2.92585,5,0.1,2,0.2,-4.06235,0.368588,0.516589,0.0860572,0.0925712,-0.00628084,0.645399,0.69429,-0.0471175,0.0219419,1.31522,5,0.1,3,0.2,-3.4496,-4.19425,0.602737,0.0109911,0.186992,-0.000199676,0.082612,1.40262,-0.00154972,0.0089333,2.92577,5,0.1,4,0.2,-4.20612,-2.68287,0.670752,0.0996113,0.0974238,-0.00667423,0.747442,0.730753,-0.0500381,0.0100835,1.59814,5,0.1,5,0.2,-1.26612,-3.26331,0.511176,-0.00220239,0.18729,0.00204295,-0.0165701,1.40476,0.0153482,0.00827539,2.92579,5,0.1,6,0.2,0.567414,3.98905,0.654305,-0.152563,0.00574589,-0.00512302,-1.1442,0.043273,-0.0383854,0.0119477,1.91635,5,0.1,7,0.2,3.73226,-0.408816,0.679744,-0.0235617,0.18579,0.0038296,-0.176668,1.39344,0.0286996,0.0169823,2.92579,5,0.1,8,0.2,2.05129,-0.650939,0.585258,-0.186938,-0.0117525,-0.00172853,-1.40214,-0.0881553,-0.0129938,0.00672018,2.92578,5,0.1,9,0.2,-4.16089,2.72802,0.584479,0.0812054,-0.0309408,0.00146478,0.608921,-0.231981,0.0109673,0.0117641,0.620332,5,0.1
0,0.3,3.56298,3.75511,0.506221,0.0125017,-0.348643,0.00328179,0.0619143,-1.72533,0.0162348,0.00685382,2.92581,5,0.1,1,0.3,-2.96093,-1.40708,0.503242,0.348048,-0.0237402,-0.00452586,1.7224,-0.117451,-0.0137314,0.0109044,2.92585,5,0.1,2,0.3,-4.05016,0.381699,0.515699,0.160091,0.172214,-0.0116853,0.789791,0.849584,-0.0576526,0.0219419,1.31522,5,0.1,3,0.3,-3.44804,-4.16775,0.602708,0.0204865,0.348299,-0.000376441,0.101432,1.72368,-0.00187755,0.0089333,2.92577,5,0.1,4,0.3,-4.19201,-2.66907,0.669807,0.185339,0.181246,-0.0124145,0.914454,0.894174,-0.0612363,0.0100835,1.59814,5,0.1,5,0.3,-1.26643,-3.23677,0.511465,-0.00410657,0.348848,0.00380734,-0.0203475,1.72637,0.0188462,0.00827539,2.92579,5,0.1,6,0.3,0.545806,3.98986,0.653579,-0.283816,0.0107046,-0.00952734,-1.40014,0.0528544,-0.0469945,0.0119477,1.91635,5,0.1,7,0.3,3.72892,-0.382487,0.680287,-0.0438813,0.346047,0.00713123,-0.217125,1.71249,0.0352822,0.0169823,2.92579,5,0.1,8,0.3,2.0248,-0.652605,0.585013,-0.348193,-0.0218907,-0.00322191,-1.72314,-0.108331,-0.015948,0.00672018,2.92578,5,0.1,9,0.3,-4.14939,2.72364,0.584687,0.151058,-0.0575539,0.00272337,0.745177,-0.283912,0.0134334,0.0117641,0.620332,5,0.1
0,0.4,3.56453,3.71176,0.506629,0.0184655,-0.514871,0.00484586,0.0547171,-1.52564,0.0143647,0.00714855,2.51553,5,0.1,1,0.4,-2.91766,-1.41003,0.502733,0.514001,-0.0350565,-0.00554621,1.52278,-0.103891,-0.00673532,0.0143908,2.51532,5,0.1,2,0.4,-4.03027,0.403093,0.514247,0.236094,0.253976,-0.0172332,0.696898,0.749543,-0.0508726,0.0219598,1.04081,5,0.1,3,0.4,-3.44549,-4.12445,0.602661,0.0302553,0.514364,-0.000557303,0.0897646,1.52421,-0.00163913,0.0101862,2.51527,5,0.1,4,0.4,-4.16898,-2.64656,0.668265,0.273335,0.267297,-0.0183091,0.806808,0.788927,-0.0540018,0.00981751,1.26445,5,0.1,5,0.4,-1.26694,-3.1934,0.511939,-0.00606477,0.515181,0.00562221,-0.0180006,1.52636,0.0166595,0.00727637,2.51563,5,0.1,6,0.4,0.510548,3.99119,0.652396,-0.418563,0.0157893,-0.0140503,-1.23528,0.0466108,-0.041455,0.0116243,1.51624,5,0.1,7,0.4,3.72346,-0.339465,0.681173,-0.0648022,0.511042,0.0105307,-0.191927,1.51415,0.031203,0.0158362,2.514,5,0.1,8,0.4,1.98151,-0.655326,0.584613,-0.514212,-0.0323281,-0.00475943,-1.52355,-0.0957847,-0.0140667,0.00688209,2.51522,5,0.1,9,0.4,-4.13062,2.71649,0.585025,0.222778,-0.084883,0.00401437,0.657558,-0.25034,0.0118911,0.0110307,0.490815,5,0.1
0,0.5,3.56666,3.65267,0.507187,0.0240944,-0.665083,0.00632415,0.0549853,-1.41054,0.014443,0.00714855,2.51553,5,0.1,1,0.5,-2.85866,-1.41407,0.502159,0.66416,-0.0457475,-0.00579022,1.41203,-0.10442,0.00135601,0.0143908,2.51532,5,0.1,2,0.5,-4.00312,0.432307,0.512307,0.306798,0.330024,-0.0212093,0.682518,0.734117,-0.0287555,0.0219598,1.04081,5,0.1,3,0.5,-3.442,-4.0654,0.602597,0.0394884,0.664561,-0.000725873,0.0901371,1.41145,-0.00164658,0.0101862,2.51527,5,0.1,4,0.5,-4.13754,-2.61581,0.666159,0.355187,0.347339,-0.0237889,0.79006,0.772655,-0.0529028,0.00981751,1.26445,5,0.1,5,0.5,-1.26764,-3.13427,0.512586,-0.00791606,0.665393,0.0073364,-0.0180826,1.40993,0.0167415,0.00727637,2.51563,5,0.1,6,0.5,0.462403,3.99301,0.65078,-0.543894,0.0205167,-0.018257,-1.20986,0.0456274,-0.0406094,0.0116243,1.51624,5,0.1,7,0.5,3.716,-0.280776,0.682387,-0.084554,0.661092,0.0137419,-0.192925,1.41747,0.0313669,0.0158362,2.514,5,0.1,8,0.5,1.92249,-0.659052,0.584064,-0.66439,-0.0421845,-0.00620717,-1.41168,-0.0962727,-0.0141449,0.00688209,2.51522,5,0.1,9,0.5,-4.105,2.70672,0.585487,0.289492,-0.110286,0.00522006,0.643998,-0.245258,0.0116304,0.0110307,0.490815,5,0.1
0,0.6,3.56933,3.57975,0.507887,0.0289679,-0.785756,0.00760406,0.0404119,-0.959158,0.0106096,0.0085764,2.33435,5,0.1,1,0.6,-2.78581,-1.41914,0.501597,0.78513,-0.0550032,-0.00536889,0.962853,-0.0768304,0.00661612,0.010309,2.33289,5,0.1,2,0.6,-3.96928,0.468703,0.510078,0.366694,0.394446,-0.0230208,0.491023,0.528112,-0.0077486,0.0176028,0.775417,5,0.1,3,0.6,-3.43763,-3.99253,0.602517,0.0474751,0.785404,-0.000871718,0.0662804,0.961185,-0.00119209,0.0114713,2.33327,5,0.1,4,0.6,-4.09837,-2.5775,0.663535,0.424528,0.415146,-0.0284329,0.568151,0.555634,-0.0380278,0.00853968,0.941325,5,0.1,5,0.6,-1.26851,-3.06132,0.513398,-0.00951588,0.785965,0.00881851,-0.0133514,0.957847,0.0123382,0.00788064,2.33491,5,0.1,6,0.6,0.40242,3.99527,0.648766,-0.650065,0.0245214,-0.0218213,-0.870332,0.0326633,-0.0292063,0.0123125,1.1288,5,0.1,7,0.6,3.70664,-0.2082,0.683907,-0.101656,0.783039,0.0165224,-0.141978,0.97587,0.023067,0.0143592,2.32693,5,0.1,8,0.6,1.84963,-0.663718,0.583378,-0.785288,-0.0507176,-0.00746101,-0.9619,-0.0707805,-0.010401,0.0104782,2.33299,5,0.1,9,0.6,-4.07307,2.69456,0.586063,0.346017,-0.131816,0.00624061,0.463009,-0.176311,0.00837445,0.00901463,0.365399,5,0.1
0,0.7,3.57243,3.49744,0.508701,0.0330236,-0.850461,0.00866922,0.0381619,-0.362232,0.0100248,0.0085764,2.33435,5,0.1,1,0.7,-2.70355,-1.42502,0.501099,0.85024,-0.062713,-0.00454029,0.365987,-0.0725091,0.00958517,0.010309,2.33289,5,0.1,2,0.7,-3.9302,0.510743,0.507781,0.413832,0.445147,-0.0224987,0.424802,0.456916,0.0165328,0.0176028,0.775417,5,0.1,3,0.7,-3.43255,-3.91024,0.602424,0.054124,0.850335,-0.000991579,0.0624955,0.364333,-0.00112876,0.0114713,2.33327,5,0.1,4,0.7,-4.05313,-2.53326,0.660505,0.479072,0.468491,-0.0320845,0.4915,0.480741,-0.0329204,0.00853968,0.941325,5,0.1,5,0.7,-1.26953,-2.979,0.514342,-0.0108544,0.850532,0.010056,-0.0125766,0.360996,0.0116341,0.00788064,2.33491,5,0.1,6,0.7,0.333137,3.99788,0.646441,-0.73362,0.027658,-0.0246257,-0.753004,0.0282824,-0.0252724,0.0123125,1.1288,5,0.1,7,0.7,3.69576,-0.126072,0.685676,-0.115903,0.849514,0.0188374,-0.133991,0.378431,0.0217743,0.0143592,2.32693,5,0.1,8,0.7,1.76735,-0.669149,0.582579,-0.850294,-0.0578221,-0.00850521,-0.365056,-0.0668243,-0.00981987,0.0104782,2.33299,5,0.1,9,0.7,-4.0362,2.68051,0.586728,0.39047,-0.148747,0.00704397,0.400677,-0.152618,0.00723451,0.00901463,0.365399,5,0.1
0,0.8,3.5759,3.41131,0.509613,0.0361681,-0.866026,0.00949353,0.022769,0,0.00604987,0.00659808,2.27084,5,0.1,1,0.8,-2.61743,-1.43162,0.500695,0.866026,-0.0686824,-0.00351816,0,-0.043571,0.01055,0.0478907,2.26853,5,0.1,2,0.8,-3.88698,0.55723,0.505643,0.447136,0.480971,-0.0200227,0.223041,0.239909,0.0316203,0.0243419,0.548168,5,0.1,3,0.8,-3.42686,-3.82412,0.60232,0.0592709,0.866026,-0.0010848,0.0374317,0,-0.000655651,0.0113887,2.26922,5,0.1,4,0.8,-4.0031,-2.48433,0.657154,0.517613,0.506181,-0.0346661,0.258088,0.252485,-0.0172853,0.00770995,0.664629,5,0.1,5,0.8,-1.27067,-2.89287,0.5154,-0.0118881,0.866026,0.0110134,-0.00756979,0,0.00700355,0.0095336,2.27172,5,0.1,6,0.8,0.256524,4.00077,0.643869,-0.792657,0.0298738,-0.026609,-0.395424,0.014782,-0.0132322,0.0131514,0.796996,5,0.1,7,0.8,3.68357,-0.039978,0.687657,-0.12694,0.866025,0.0206307,-0.0803471,1.19209e-06,0.0130534,0.0143181,2.25921,5,0.1,8,0.8,1.68123,-0.675228,0.581685,-0.866026,-0.063324,-0.00931323,0,-0.0401437,-0.00593066,0.00827596,2.26876,5,0.1,9,0.8,-3.99542,2.66498,0.587463,0.421882,-0.160712,0.00761151,0.210404,-0.0802279,0.00378489,0.0111003,0.258006,5,0.1
0,0.9,3.57963,3.3247,0.510593,0.0385251,-0.866026,0.0101185,0.0219494,0,0.00580773,0.00659808,2.27084,5,0.1,1,0.9,-2.53082,-1.43871,0.500395,0.866026,-0.0731768,-0.00248002,0,-0.0417009,0.00999495,0.0478907,2.26853,5,0.1,2,0.9,-3.8412,0.606471,0.503814,0.467347,0.50271,-0.0164298,0.15974,0.171848,0.0390485,0.0243419,0.548168,5,0.1,3,0.9,-3.42074,-3.73752,0.602208,0.063125,0.866026,-0.00115288,0.0357032,0,-0.000629574,0.0113887,2.26922,5,0.1,4,0.9,-3.95011,-2.43251,0.653605,0.540999,0.529059,-0.0362327,0.184834,0.180855,-0.0123903,0.00770995,0.664629,5,0.1,5,0.9,-1.2719,-2.80626,0.516537,-0.0126675,0.866026,0.0117351,-0.00722706,0,0.00669435,0.0095336,2.27172,5,0.1,6,0.9,0.175372,4.00383,0.641145,-0.828488,0.031215,-0.027809,-0.28324,0.0106096,-0.00948831,0.0131514,0.796996,5,0.1,7,0.9,3.67046,0.0466246,0.689788,-0.135232,0.866025,0.0219782,-0.0769943,8.9407e-07,0.0125058,0.0143181,2.25921,5,0.1,8,0.9,1.59462,-0.681769,0.580723,-0.866026,-0.0674725,-0.00992548,0,-0.0385568,-0.00568479,0.00827596,2.26876,5,0.1,9,0.9,-3.95223,2.64853,0.588243,0.440949,-0.167983,0.00795452,0.150755,-0.0575036,0.00270829,0.0111003,0.258006,5,0.1
0,1,3.58358,3.2381,0.51163,0.0401497,-0.866026,0.0105485,0.00858307,0,0.00229478,0.0061266,2.27073,5,0.1,1,1,-2.44422,-1.44621,0.500195,0.866026,-0.0762433,-0.00155419,0,-0.0164509,0.00834465,0.0101134,2.26823,5,0.1,2,1,-3.79392,0.657336,0.50237,0.475526,0.511512,-0.0124231,-0.010252,-0.0110865,0.0401139,0.0208451,0.373578,5,0.1,3,1,-3.41428,-3.65091,0.60209,0.065738,0.866026,-0.00119954,0.0140667,0,-0.000268221,0.00891424,2.3192,5,0.1,4,1,-3.89537,-2.37898,0.649939,0.550461,0.538325,-0.0368685,-0.0119209,-0.0116825,0.000804663,0.0144208,0.451972,5,0.1,5,1,-1.2732,-2.71966,0.517739,-0.0131965,0.866026,0.0122264,-0.00292063,0,0.00265241,0.00648727,2.2717,5,0.1,6,1,0.0915456,4.00699,0.638331,-0.842996,0.0317574,-0.0282943,0.0182056,-0.000953674,0.000596046,0.0111652,0.544201,5,0.1,7,1,3.65661,0.133227,0.692038,-0.140893,0.866025,0.0228986,-0.0305176,0,0.00494719,0.0165428,2.25796,5,0.1,8,1,1.50802,-0.688678,0.579706,-0.866026,-0.0703156,-0.0103459,0,-0.0153184,-0.00223517,0.00626551,2.26843,5,0.1,9,1,-3.90761,2.63153,0.589047,0.448668,-0.170934,0.00809133,-0.00953674,0.00369549,-0.000149012,0.0156907,0.175461,5,0.1
0,1.1,3.58765,3.1515,0.512698,0.0412114,-0.866026,0.0108304,0.0102222,0,0.00270456,0.0061266,2.27073,5,0.1,1,1.1,-2.35762,-1.45393,0.500078,0.866026,-0.078229,-0.000829715,0,-0.0187531,0.00609085,0.0101134,2.26823,5,0.1,2,1.1,-3.74644,0.70841,0.501324,0.473443,0.509266,-0.00856509,-0.0488162,-0.0525378,0.0363849,0.0208451,0.373578,5,0.1,3,1.1,-3.40762,-3.56446,0.601968,0.0674076,0.860938,-0.00123093,0.015527,-0.120133,-0.000294298,0.00891424,2.3192,5,0.1,4,1.1,-3.84041,-2.32523,0.646258,0.548044,0.535961,-0.0367064,-0.056535,-0.0552833,0.00378489,0.0144208,0.451972,5,0.1,5,1.1,-1.27454,-2.63306,0.518977,-0.0135459,0.866026,0.0125461,-0.00327826,0,0.00302121,0.00648727,2.2717,5,0.1,6,1.1,0.00751356,4.01016,0.635506,-0.835308,0.0315964,-0.0281719,0.157528,-0.00339746,0.0028871,0.0111652,0.544201,5,0.1,7,1.1,3.64234,0.21983,0.694357,-0.144571,0.866025,0.0234955,-0.0347346,8.9407e-07,0.00563636,0.0165428,2.25796,5,0.1,8,1.1,1.42142,-0.695801,0.578658,-0.866026,-0.072186,-0.0106194,0,-0.0178777,-0.00261888,0.00626551,2.26843,5,0.1,9,1.1,-3.86281,2.61446,0.589855,0.446714,-0.170187,0.0080579,-0.0459254,0.0175238,-0.000815839,0.0156907,0.175461,5,0.1
0,1.2,3.5918,3.0649,0.513791,0.0417769,-0.866026,0.0109822,-0.000357628,0,-0.000119209,0.00968956,2.2707,5,0.1,1,1.2,-2.27102,-1.46182,0.500021,0.866026,-0.0792295,-0.000338256,0,0.00178814,0.00372529,0.0121351,2.26823,5,0.1,2,1.2,-3.69952,0.758881,0.500639,0.462878,0.497903,-0.00525117,-0.173926,-0.187069,0.0294745,0.020752,0.24925,5,0.1,3,1.2,-3.40083,-3.47929,0.601844,0.0681937,0.838912,-0.00124723,-0.00238419,-0.33319,5.96046e-05,0.00956757,2.05638,5,0.1,4,1.2,-3.78609,-2.27211,0.64262,0.535816,0.524002,-0.0358894,-0.201464,-0.196815,0.0135005,0.00847318,0.300537,5,0.1,5,1.2,-1.2759,-2.54646,0.520243,-0.013721,0.866026,0.0127062,0.000298023,0,-0.000238419,0.00908158,2.2717,5,0.1,6,1.2,-0.0748548,4.01329,0.632714,-0.807956,0.0308871,-0.0275463,0.40289,-0.0116825,0.0103712,0.0110608,0.478712,5,0.1,7,1.2,3.62776,0.306432,0.696727,-0.146431,0.866026,0.0237972,0.00345707,0,-0.000536442,0.0179631,2.25778,5,0.1,8,1.2,1.33482,-0.703085,0.577587,-0.866026,-0.0731751,-0.0107631,0,0.000983477,0.000149012,0.00622871,2.26835,5,0.1,9,1.2,-3.81854,2.59759,0.590654,0.436753,-0.166392,0.00787824,-0.163913,0.0624657,-0.00292063,0.00943498,0.361028,5,0.1
0,1.3,3.59599,2.97829,0.514892,0.0420492,-0.866026,0.0110512,0.00335276,0,0.000860542,0.00968956,2.2707,5,0.1,1,1.3,-2.18441,-1.46975,0.500003,0.866026,-0.0795729,-6.64964e-05,0,-0.00420213,0.00183284,0.0121351,2.26823,5,0.1,2,1.3,-3.65408,0.807756,0.500247,0.445685,0.479411,-0.00273054,-0.184327,-0.198245,0.0208728,0.020752,0.24925,5,0.1,3,1.3,-3.39401,-3.39798,0.60172,0.0680741,0.780337,-0.00124387,-0.00305474,-0.762731,6.70552e-05,0.00956757,2.05638,5,0.1,4,1.3,-3.7335,-2.22068,0.639097,0.515903,0.504546,-0.0345554,-0.213444,-0.208601,0.0142902,0.00847318,0.300537,5,0.1,5,1.3,-1.27728,-2.45985,0.521515,-0.0137813,0.866026,0.0127656,-0.000730157,0,0.000707805,0.00908158,2.2717,5,0.1,6,1.3,-0.152731,4.01632,0.63001,-0.741476,0.0297353,-0.0265219,0.888578,-0.0123382,0.010971,0.0110608,0.478712,5,0.1,7,1.3,3.6131,0.393035,0.69911,-0.147048,0.866026,0.0238995,-0.00759959,-3.57628e-06,0.00124797,0.0179631,2.25778,5,0.1,8,1.3,1.24821,-0.710419,0.576508,-0.866026,-0.0736005,-0.0108253,0,-0.00527129,-0.00077486,0.00622871,2.26835,5,0.1,9,1.3,-3.77535,2.58126,0.591428,0.429437,-0.160218,0.00758851,-0.0157356,0.0662059,-0.00311807,0.00943498,0.361028,5,0.1
0,1.4,3.6002,2.89169,0.515999,0.0420332,-0.866026,0.0110447,-0.00536442,0,-0.00140071,0.0102752,2.27071,5,0.1,1,1.4,-2.09781,-1.47771,0.500003,0.866026,-0.0793129,4.76837e-05,0,0.0124574,0.000625849,0.011994,2.2684,5,0.1,2,1.4,-3.61054,0.854585,0.500064,0.423628,0.455683,-0.0010699,-0.266552,-0.286549,0.0124574,0.0237677,0.16491,5,0.1,3,1.4,-3.38724,-3.32399,0.601596,0.0670612,0.698227,-0.00122488,-0.0190735,-0.836492,0.000357628,0.0119766,1.79363,5,0.1,4,1.4,-3.6831,-2.17139,0.635722,0.490361,0.479579,-0.0328451,-0.308514,-0.3016,0.020653,0.00794424,0.197823,5,0.1,5,1.4,-1.27866,-2.37325,0.522792,-0.0137359,0.866026,0.0127286,0.00214577,0,-0.00199676,0.0077324,2.2717,5,0.1,6,1.4,-0.221896,4.01922,0.627419,-0.637262,0.0282645,-0.0252083,1.16362,-0.0178814,0.015825,0.0119891,0.439535,5,0.1,7,1.4,3.59839,0.479637,0.7015,-0.14655,0.866026,0.023821,0.0232458,0,-0.00378489,0.0177069,2.25823,5,0.1,8,1.4,1.16161,-0.717787,0.575424,-0.866026,-0.0735089,-0.0108123,0,0.00998378,0.00149012,0.00889966,2.26841,5,0.1,9,1.4,-3.73247,2.56561,0.592169,0.427842,-0.152296,0.00721365,-0.0406504,0.0958443,-0.00452995,0.00873102,0.268898,5,0.1
0,1.5,3.6044,2.80509,0.5171,0.0418801,-0.866026,0.0110053,-0.00013411,0,-3.35276e-05,0.0102752,2.27071,5,0.1,1,1.5,-2.01121,-1.48561,0.50001,0.866026,-0.0787154,7.78586e-05,0,0.0038743,2.98023e-05,0.011994,2.2684,5,0.1,2,1.5,-3.56946,0.898776,0.500008,0.398206,0.428351,-0.000168569,-0.25396,-0.273045,0.00597537,0.0237677,0.16491,5,0.1,3,1.5,-3.38063,-3.25846,0.601475,0.0652779,0.614295,-0.00119153,-0.0190884,-0.732064,0.000350177,0.0119766,1.79363,5,0.1,4,1.5,-3.63555,-2.12488,0.632537,0.460936,0.450811,-0.0308755,-0.293925,-0.287399,0.0196733,0.00794424,0.197823,5,0.1,5,1.5,-1.28002,-2.28665,0.524059,-0.013634,0.866026,0.0126339,0.000663102,0,-0.000603497,0.0077324,2.2717,5,0.1,6,1.5,-0.279461,4.02196,0.624975,-0.511611,0.0265628,-0.0236986,1.31019,-0.0169873,0.01508,0.0119891,0.439535,5,0.1,7,1.5,3.5838,0.56624,0.703871,-0.145416,0.866026,0.0236363,0.00749528,-3.72529e-06,-0.00122562,0.0177069,2.25823,5,0.1,8,1.5,1.07501,-0.725114,0.574347,-0.866026,-0.073164,-0.0107599,3.72529e-06,0.00115111,0.000178814,0.00889966,2.26841,5,0.1,9,1.5,-3.68972,2.55084,0.592869,0.428037,-0.143155,0.00678105,0.0183284,0.0912845,-0.00432506,0.00873102,0.268898,5,0.1
0,1.6,3.60858,2.71849,0.518198,0.0415921,-0.866026,0.0109285,-0.00762939,0,-0.00199676,0.00909971,2.27074,5,0.1,1,1.6,-1.92461,-1.49344,0.500017,0.866026,-0.07779,6.25849e-05,0,0.0177622,-0.000327826,0.0122903,2.29683,5,0.1,2,1.6,-3.53097,0.940182,0.500013,0.37083,0.39891,0.000199676,-0.301719,-0.324398,0.00175834,0.0136729,0.109246,5,0.1,3,1.6,-3.37421,-3.2,0.601358,0.0628233,0.561911,-0.0011459,-0.0315905,-0.324607,0.000566244,0.0104317,1.49731,5,0.1,4,1.6,-3.59099,-2.08131,0.629552,0.429249,0.419825,-0.0287548,-0.349164,-0.341415,0.0233948,0.0111355,0.130027,5,0.1,5,1.6,-1.28138,-2.20005,0.525317,-0.0134766,0.866026,0.0124872,0.00309944,0,-0.00280142,0.00731133,2.31331,5,0.1,6,1.6,-0.324093,4.02453,0.622684,-0.381975,0.0247359,-0.0220716,1.25422,-0.0202656,0.0179112,0.0115982,0.427924,5,0.1,7,1.6,3.56933,0.652842,0.706224,-0.143671,0.866026,0.0233516,0.0331402,0,-0.00536442,0.016463,2.25896,5,0.1,8,1.6,0.988405,-0.732411,0.573274,-0.866026,-0.0725567,-0.0106692,0,0.0139773,0.00205636,0.00675864,2.26852,5,0.1,9,1.6,-3.6469,2.537,0.593524,0.427026,-0.133318,0.00631511,-0.0571012,0.10848,-0.0051558,0.01125,0.194066,5,0.1
0,1.7,3.61271,2.63188,0.519286,0.0412598,-0.866026,0.0108419,-0.00149012,0,-0.00038743,0.00909971,2.27074,5,0.1,1,1.7,-1.83801,-1.50074,0.500021,0.865819,-0.0646954,2.92435e-05,-0.00828505,0.221692,-0.000327826,0.0122903,2.29683,5,0.1,2,1.7,-3.49532,0.978528,0.500038,0.342549,0.3685,0.000273623,-0.274062,-0.294708,-0.000119209,0.0136729,0.109246,5,0.1,3,1.7,-3.36808,-3.1444,0.601246,0.0598516,0.558293,-0.00109244,-0.0299066,0.174895,0.000536442,0.0104317,1.49731,5,0.1,4,1.7,-3.54973,-2.04095,0.626788,0.396518,0.387819,-0.0265621,-0.317186,-0.310168,0.0212491,0.0111355,0.130027,5,0.1,5,1.7,-1.28226,-2.11345,0.526572,-0.000318699,0.8656,0.0127628,0.231974,-0.0170171,0.00664219,0.00731133,2.31331,5,0.1,6,1.7,-0.356215,4.02691,0.620562,-0.263261,0.0228383,-0.0203923,1.0886,-0.0183284,0.0162758,0.0115982,0.427924,5,0.1,7,1.7,3.55508,0.739445,0.708541,-0.141672,0.866026,0.0230284,0.0147521,-3.72529e-06,-0.00238419,0.016463,2.25896,5,0.1,8,1.7,0.901802,-0.739624,0.572213,-0.866026,-0.0718873,-0.010571,3.72529e-06,0.00364333,0.000532717,0.00675864,2.26852,5,0.1,9,1.7,-3.6044,2.52419,0.594131,0.423428,-0.12315,0.00583176,-0.0357479,0.0985116,-0.00468642,0.01125,0.194066,5,0.1
0,1.8,3.61683,2.54528,0.520366,0.0408769,-0.866026,0.0107393,-0.00810623,0,-0.00205636,0.00897004,2.27078,5,0.1,1,1.8,-1.75153,-1.50591,0.500023,0.862712,-0.0374705,-1.49012e-06,-0.0662804,0.304997,-0.000298023,0.00991219,2.47369,5,0.1,2,1.8,-3.46246,1.01388,0.500063,0.314313,0.338134,0.000204146,-0.297546,-0.320017,-0.00110269,0.0161313,0.125862,5,0.1,3,1.8,-3.36225,-3.0874,0.60114,0.0565052,0.583315,-0.00103265,-0.0386238,0.267029,0.000715256,0.010117,1.17207,5,0.1,4,1.8,-3.51169,-2.00374,0.62424,0.363845,0.355864,-0.0243738,-0.344515,-0.336826,0.023067,0.00760748,0.147225,5,0.1,5,1.8,-1.28095,-2.02711,0.527886,0.0279218,0.859222,0.0135243,0.310957,-0.136137,0.00727177,0.00841494,2.57164,5,0.1,6,1.8,-0.377565,4.0291,0.618605,-0.168804,0.020957,-0.0187129,0.786513,-0.0197887,0.017643,0.0113941,0.396429,5,0.1,7,1.8,3.54101,0.826047,0.710828,-0.139368,0.866026,0.0226557,0.0368357,0,-0.00602007,0.0144253,2.2598,5,0.1,8,1.8,0.8152,-0.746783,0.57116,-0.866026,-0.0711039,-0.0104561,0,0.0149608,0.00220537,0.008275,2.26865,5,0.1,9,1.8,-3.56234,2.51237,0.59469,0.416344,-0.113004,0.00534952,-0.120521,0.106931,-0.00506639,0.00953816,0.136068,5,0.1
0,1.9,3.62089,2.45868,0.521434,0.040517,-0.866026,0.0106504,-0.00154972,0,-0.000365078,0.00897004,2.27078,5,0.1,1,1.9,-1.66558,-1.50737,0.500021,0.855573,0.0147024,-2.47732e-05,-0.10965,0.682048,-0.000171363,0.00991219,2.47369,5,0.1,2,1.9,-3.43229,1.04634,0.500077,0.290938,0.312993,7.50646e-05,-0.187948,-0.202179,-0.00138581,0.0161313,0.125862,5,0.1,3,1.9,-3.35678,-3.02729,0.60104,0.0528973,0.621906,-0.000966061,-0.0352412,0.445127,0.000651926,0.010117,1.17207,5,0.1,4,1.9,-3.47677,-1.96958,0.6219,0.33678,0.329402,-0.0225621,-0.217631,-0.212796,0.0145622,0.00760748,0.147225,5,0.1,5,1.9,-1.27588,-1.94221,0.52934,0.0790123,0.835228,0.0160845,0.655219,-0.352576,0.0390559,0.00841494,2.57164,5,0.1,6,1.9,-0.391013,4.0311,0.616817,-0.105873,0.0191264,-0.0170775,0.447908,-0.0174344,0.0155717,0.0113941,0.396429,5,0.1,7,1.9,3.5272,0.91265,0.713072,-0.137037,0.866026,0.0222742,0.0174791,-3.72529e-06,-0.00286475,0.0144253,2.2598,5,0.1,8,1.9,0.728597,-0.753848,0.570121,-0.866026,-0.070367,-0.0103476,3.72529e-06,0.00397861,0.000588596,0.008275,2.26865,5,0.1,9,1.9,-3.52125,2.50158,0.595201,0.405717,-0.103098,0.00488004,-0.108883,0.0942647,-0.00447407,0.00953816,0.136068,5,0.1
0,2,3.62493,2.37208,0.522496,0.0401437,-0.866026,0.010556,-0.00762939,0,-0.00202656,0.00754735,2.27081,5,0.1,1,2,-1.58087,-1.50225,0.500018,0.835258,0.0889629,-3.72529e-05,-0.318825,0.75978,-8.9407e-05,0.010885,2.58612,5,0.1,2,2,-3.40408,1.07669,0.500078,0.273597,0.294337,-5.81145e-05,-0.172138,-0.185132,-0.0012219,0.0221299,0.17328,5,0.1,3,2,-3.35168,-2.96298,0.600947,0.0491738,0.662053,-0.00089854,-0.0405312,0.314713,0.00077486,0.00838629,0.884513,5,0.1,4,2,-3.44411,-1.93764,0.619712,0.316703,0.309765,-0.0212193,-0.199318,-0.194848,0.0133514,0.00989234,0.111726,5,0.1,5,2,-1.26452,-1.86086,0.531163,0.149158,0.787491,0.0204757,0.705242,-0.605524,0.0450313,0.00735554,2.9073,5,0.1,6,2,-0.4,4.03293,0.615188,-0.0799179,0.0173807,-0.0155121,0.0884682,-0.0181198,0.0160635,0.0114222,0.335117,5,0.1,7,2,3.51361,0.999252,0.715282,-0.134552,0.866027,0.0218689,0.0374317,-8.9407e-05,-0.00613928,0.0161125,2.26065,5,0.1,8,2,0.641995,-0.760855,0.569091,-0.866026,-0.0695869,-0.0102326,0,0.0145733,0.00214577,0.00599536,2.26877,5,0.1,9,2,-3.48131,2.49174,0.595667,0.391728,-0.0936329,0.00443161,-0.18239,0.0971556,-0.00461936,0.00996528,0.160406,5,0.1
0,2.1,3.62892,2.28547,0.523546,0.039833,-0.866026,0.010472,-0.00104308,0,-0.000298023,0.00754735,2.27081,5,0.1,1,2.1,-1.49854,-1.48922,0.500014,0.814097,0.173688,-4.18164e-05,-0.152111,0.885189,-3.72529e-06,0.010885,2.58612,5,0.1,2,2.1,-3.3772,1.1053,0.500067,0.266868,0.278601,-0.000143796,0.00800192,-0.142351,-0.000528991,0.0221299,0.17328,5,0.1,3,2.1,-3.34695,-2.89503,0.60086,0.0454165,0.697329,-0.000827201,-0.036031,0.344276,0.000678003,0.00838629,0.884513,5,0.1,4,2.1,-3.41329,-1.90765,0.617658,0.300651,0.289725,-0.0198463,-0.137284,-0.211522,0.0144914,0.00989234,0.111726,5,0.1,5,2.1,-1.24588,-1.78541,0.533498,0.224567,0.718951,0.0266897,0.763007,-0.761151,0.07312,0.00735554,2.9073,5,0.1,6,2.1,-0.408175,4.03458,0.613712,-0.0888109,0.0157192,-0.0140364,-0.22638,-0.0155568,0.0138767,0.0114222,0.335117,5,0.1,7,2.1,3.50029,1.08586,0.717446,-0.132142,0.866025,0.0214729,0.0181794,1.11759e-05,-0.00299513,0.0161125,2.26065,5,0.1,8,2.1,0.555392,-0.76777,0.568074,-0.866026,-0.0688927,-0.0101306,1.78814e-06,0.00347197,0.000510365,0.00599536,2.26877,5,0.1,9,2.1,-3.44275,2.48279,0.59609,0.381884,-0.0859462,0.00406578,-0.0440627,0.061959,-0.00295043,0.00996528,0.160406,5,0.1
0,2.2,3.63289,2.19887,0.52459,0.0395179,-0.866026,0.0103861,-0.00715256,0,-0.00187755,0.0122451,2.30035,5,0.1,1,2.2,-1.41793,-1.46755,0.50001,0.796622,0.25745,-4.02331e-05,-0.231743,0.754237,5.96046e-05,0.00578506,0.923134,5,0.1,2,2.2,-3.35038,1.13244,0.500051,0.270039,0.263691,-0.000171363,0.0332594,-0.164747,-2.98023e-05,0.0123743,0.148913,5,0.1,3,2.2,-3.34259,-2.82384,0.600781,0.0417292,0.722992,-0.000758469,-0.0388622,0.136614,0.000715256,0.00957339,0.639249,5,0.1,4,2.2,-3.38391,-1.8798,0.61575,0.286573,0.266561,-0.0182614,-0.155449,-0.254989,0.017494,0.0102457,0.16371,5,0.1,5,2.2,-1.21978,-1.71755,0.536537,0.294882,0.636205,0.0340313,0.614464,-0.888407,0.0690818,0.00953489,3.29654,5,0.1,6,2.2,-0.418436,4.03607,0.612377,-0.118108,0.014174,-0.0126645,-0.328675,-0.0154972,0.0138879,0.0138476,0.271687,5,0.1,7,2.2,3.48718,1.17246,0.719576,-0.12964,0.866026,0.0210643,0.0370741,0,-0.00604987,0.0134569,1.84102,5,0.1,8,2.2,0.46879,-0.774632,0.567065,-0.866025,-0.0681803,-0.0100255,-1.43051e-05,0.0137687,0.00199676,0.00717486,2.26888,5,0.1,9,2.2,-3.40475,2.47448,0.596483,0.377804,-0.0803053,0.00379682,-0.0593662,0.0547171,-0.0025928,0.011183,0.0955434,5,0.1
0,2.3,3.63724,2.11227,0.525529,0.0510383,-0.865792,0.00763005,0.208929,0.00935793,-0.0479184,0.0122451,2.30035,5,0.1,1,2.3,-1.34131,-1.43839,0.500006,0.719465,0.321842,-3.25963e-05,-1.21702,0.52277,8.9407e-05,0.00578506,0.923134,5,0.1,2,2.3,-3.32338,1.15794,0.500034,0.26823,0.24591,-0.0001573,-0.0704974,-0.19379,0.000279397,0.0123743,0.148913,5,0.1,3,2.3,-3.3386,-2.7508,0.600709,0.0381529,0.73755,-0.00069309,-0.0338554,0.117615,0.000618398,0.00957339,0.639249,5,0.1,4,2.3,-3.35578,-1.85438,0.614009,0.277918,0.241933,-0.0165725,-0.0400692,-0.242546,0.0166297,0.0102457,0.16371,5,0.1,5,2.3,-1.18789,-1.65858,0.540338,0.33662,0.541301,0.0423375,0.231825,-0.994436,0.0902675,0.00953489,3.29654,5,0.1,6,2.3,-0.432136,4.03742,0.611175,-0.157578,0.0127628,-0.0113983,-0.43047,-0.013113,0.0117943,0.0138476,0.271687,5,0.1,7,2.3,3.4741,1.25905,0.721719,-0.134464,0.865729,0.0223523,-0.110313,-0.0118613,0.0269115,0.0134569,1.84102,5,0.1,8,2.3,0.382187,-0.78141,0.566068,-0.866025,-0.0675569,-0.00993619,1.78814e-06,0.00280514,0.000391155,0.00717486,2.26888,5,0.1,9,2.3,-3.36717,2.4667,0.596852,0.374114,-0.0756852,0.00357758,-0.0336766,0.0412464,-0.0019595,0.011183,0.0955434,5,0.1
0,2.4,3.64355,2.02582,0.526013,0.0762284,-0.86228,0.00175536,0.272751,0.0748634,-0.0654459,0.00772508,2.2793,5,0.1,1,2.4,-1.27643,-1.40405,0.500004,0.570282,0.360364,-2.38419e-05,-1.69039,0.242233,8.9407e-05,0.00612993,0.410749,5,0.1,2,2.4,-3.29708,1.1815,0.50002,0.255877,0.224492,-0.000120699,-0.176072,-0.235975,0.00038743,0.0143504,0.267056,5,0.1,3,2.4,-3.33496,-2.67673,0.600642,0.0347495,0.740302,-0.000631809,-0.0348091,-0.0876188,0.000655651,0.0103643,0.445698,5,0.1,4,2.4,-3.32815,-1.83142,0.612435,0.27467,0.217229,-0.0148803,-0.0413656,-0.25475,0.017494,0.00871262,0.269871,5,0.1,5,2.4,-1.15362,-1.6095,0.545013,0.34357,0.440112,0.0509128,-0.0811815,-1.01662,0.0762939,0.0138911,3.34475,5,0.1,6,2.4,-0.45001,4.03863,0.610094,-0.198951,0.0114799,-0.0102445,-0.37469,-0.013113,0.0115633,0.00937846,0.212766,5,0.1,7,2.4,3.46001,1.34547,0.72411,-0.147617,0.861281,0.0255823,-0.135303,-0.0948906,0.0340044,0.0142502,1.52179,5,0.1,8,2.4,0.295585,-0.788142,0.565078,-0.866025,-0.0669152,-0.00984371,-1.43051e-05,0.0129342,0.00187755,0.00895205,2.26899,5,0.1,9,2.4,-3.33002,2.45933,0.597199,0.36782,-0.0714481,0.0033766,-0.105739,0.0458956,-0.00217557,0.00862474,0.162041,5,0.1
0,2.5,3.6523,1.93966,0.525925,0.096323,-0.862871,-0.00293627,0.133082,-0.046812,-0.0304729,0.00772508,2.2793,5,0.1,1,2.5,-1.22804,-1.36688,0.500002,0.396521,0.381638,-1.49943e-05,-1.74363,0.166595,8.56817e-05,0.00612993,0.410749,5,0.1,2,2.5,-3.27263,1.20285,0.50001,0.230803,0.203119,-8.00937e-05,-0.314295,-0.198364,0.000402331,0.0143504,0.267056,5,0.1,3,2.5,-3.33164,-2.60309,0.600582,0.0315644,0.73215,-0.000572484,-0.0298917,-0.105217,0.000555068,0.0103643,0.445698,5,0.1,4,2.5,-3.30116,-1.81083,0.611026,0.262566,0.19549,-0.0133885,-0.193655,-0.189371,0.0129864,0.00871262,0.269871,5,0.1,5,2.5,-1.11955,-1.56952,0.550442,0.338323,0.368509,0.0572055,-0.0420362,-0.46806,0.0479184,0.0138911,3.34475,5,0.1,6,2.5,-0.471839,4.03972,0.609123,-0.237637,0.0102952,-0.0091969,-0.375858,-0.0109076,0.00968948,0.00937846,0.212766,5,0.1,7,2.5,3.44473,1.43068,0.726803,-0.156664,0.838455,0.0279245,-0.0449866,-0.364289,0.0130199,0.0142502,1.52179,5,0.1,8,2.5,0.208982,-0.794797,0.564099,-0.866025,-0.0663583,-0.00976389,2.98023e-07,0.0022538,0.00031665,0.00895205,2.26899,5,0.1,9,2.5,-3.29348,2.45241,0.597527,0.36508,-0.0671856,0.00317451,0.0211447,0.0416338,-0.0019744,0.00862474,0.162041,5,0.1
0,2.6,3.66239,1.85317,0.525522,0.103641,-0.866026,-0.00472367,0.0172853,5.96046e-05,-0.00700355,0.00953859,2.27104,5,0.1,1,2.6,-1.19692,-1.32812,0.500001,0.228754,0.390944,-7.45058e-06,-1.58089,0.00864267,5.96046e-05,0.00833789,0.267721,5,0.1,2,2.6,-3.25128,1.22218,0.500004,0.195086,0.183645,-4.32134e-05,-0.390649,-0.19598,0.000327826,0.0134233,0.259186,5,0.1,3,2.6,-3.32864,-2.53063,0.600528,0.0285983,0.714272,-0.00051856,-0.03016,-0.272393,0.000566244,0.00707537,0.303072,5,0.1,4,2.6,-3.27608,-1.79219,0.609749,0.237322,0.177735,-0.0121713,-0.30458,-0.172555,0.0118315,0.00810924,0.25929,5,0.1,5,2.6,-1.08599,-1.53446,0.556345,0.332049,0.337118,0.0602454,-0.0963211,-0.201106,0.0120103,0.0133998,3.16281,5,0.1,6,2.6,-0.497328,4.04069,0.608251,-0.270173,0.00923872,-0.00825524,-0.258565,-0.0104904,0.00938773,0.0100478,0.157589,5,0.1,7,2.6,3.42899,1.51225,0.729627,-0.156605,0.788283,0.0282347,0.0458956,-0.637829,-0.0064373,0.0149786,1.41856,5,0.1,8,2.6,0.12238,-0.801412,0.563126,-0.866026,-0.0657737,-0.0096783,3.57628e-06,0.012368,0.00178814,0.00612629,2.26908,5,0.1,9,2.6,-3.25685,2.4459,0.597834,0.366902,-0.0627339,0.00296384,-0.00655651,0.0488758,-0.00232458,0.0107773,0.139157,5,0.1
0,2.7,3.67274,1.76657,0.525046,0.102364,-0.866025,-0.0045279,-0.0410974,-1.49012e-05,0.00935793,0.00953859,2.27104,5,0.1,1,2.7,-1.18155,-1.28893,0.5,0.0830354,0.392991,-2.51457e-06,-1.31949,0.0126809,3.35276e-05,0.00833789,0.267721,5,0.1,2,2.7,-3.2338,1.23957,0.500001,0.154066,0.164179,-1.70432e-05,-0.420377,-0.195079,0.00019744,0.0134233,0.259186,5,0.1,3,2.7,-3.32592,-2.4605,0.600479,0.0258543,0.688396,-0.000467617,-0.0255406,-0.269562,0.000465661,0.00707537,0.303072,5,0.1,4,2.7,-3.25405,-1.77526,0.60859,0.201755,0.160787,-0.0110101,-0.395536,-0.169024,0.0115782,0.00810924,0.25929,5,0.1,5,2.7,-1.05335,-1.50049,0.56237,0.319684,0.352792,0.0596999,-0.155814,0.427313,-0.021968,0.0133998,3.16281,5,0.1,6,2.7,-0.525629,4.04157,0.607469,-0.295288,0.00829548,-0.00740886,-0.225645,-0.00870228,0.00778586,0.0100478,0.157589,5,0.1,7,2.7,3.41362,1.58707,0.732403,-0.150118,0.70137,0.0271241,0.0847578,-1.04982,-0.0157245,0.0149786,1.41856,5,0.1,8,2.7,0.0357771,-0.807955,0.562163,-0.866025,-0.0652555,-0.00960436,5.96046e-07,0.00196695,0.000275671,0.00612629,2.26908,5,0.1,9,2.7,-3.22015,2.43988,0.598118,0.36718,-0.0575699,0.00271853,-0.00526011,0.0548661,-0.00260025,0.0107773,0.139157,5,0.1
0,2.8,3.68269,1.67997,0.524656,0.0957847,-0.866026,-0.0031352,-0.0885725,0,0.0172257,0.0118639,2.27041,5,0.1,1,2.8,-1.17931,-1.24969,0.5,-0.0329167,0.390175,0,-0.991225,-0.0824332,2.98023e-05,0.00731148,0.211272,5,0.1,2,2.8,-3.22048,1.25501,0.5,0.112659,0.144362,-2.98023e-06,-0.400782,-0.202298,8.9407e-05,0.0125063,0.256377,5,0.1,3,2.8,-3.32346,-2.39317,0.600434,0.0233412,0.656277,-0.000421703,-0.0252724,-0.389218,0.000476837,0.00766324,0.226503,5,0.1,4,2.8,-3.23592,-1.76004,0.607548,0.160247,0.143504,-0.00982583,-0.425696,-0.178277,0.0121891,0.011379,0.25608,5,0.1,5,2.8,-1.02229,-1.46263,0.568181,0.300148,0.407168,0.0560492,-0.237286,0.593424,-0.0499785,0.00838165,2.77756,5,0.1,6,2.8,-0.55611,4.04236,0.606766,-0.312263,0.0074625,-0.00665486,-0.101596,-0.00858307,0.00748038,0.0109562,0.18912,5,0.1,7,2.8,3.3991,1.65162,0.735022,-0.139552,0.587159,0.0251099,0.126839,-1.19662,-0.0243783,0.0132299,1.33327,5,0.1,8,2.8,-0.0508254,-0.814461,0.561205,-0.866025,-0.0646994,-0.00952333,1.19209e-06,0.0119805,0.00172853,0.00686088,2.26917,5,0.1,9,2.8,-3.18357,2.43441,0.598377,0.362933,-0.0516951,0.00244081,-0.0917912,0.0627041,-0.00298023,0.00940291,0.16578,5,0.1
0,2.9,3.6918,1.59336,0.524441,0.0863723,-0.866026,-0.00107875,-0.0996292,0,0.0227354,0.0118639,2.27041,5,0.1,1,2.9,-1.18725,-1.21103,0.5,-0.122267,0.383253,1.76951e-06,-0.78401,-0.0729263,1.11759e-05,0.00731148,0.211272,5,0.1,2,2.9,-3.21117,1.26847,0.5,0.0741437,0.12511,2.70084e-06,-0.36037,-0.184506,3.35276e-05,0.0125063,0.256377,5,0.1,3,2.9,-3.32108,-2.32939,0.600394,0.0254974,0.619635,-0.000379235,0.0578165,-0.363871,0.00038743,0.00766324,0.226503,5,0.1,4,2.9,-3.22201,-1.74655,0.606624,0.118278,0.126621,-0.00867164,-0.406936,-0.161819,0.0110604,0.011379,0.25608,5,0.1,5,2.9,-0.993904,-1.41798,0.573482,0.263825,0.492992,0.0494823,-0.466216,1.0279,-0.0786334,0.00838165,2.77756,5,0.1,6,2.9,-0.588096,4.04307,0.606132,-0.329158,0.00680313,-0.00607735,-0.204604,-0.0050962,0.00448897,0.0109562,0.18912,5,0.1,7,2.9,3.38579,1.70413,0.737407,-0.126553,0.462539,0.0225642,0.134259,-1.23143,-0.0265725,0.0132299,1.33327,5,0.1,8,2.9,-0.137428,-0.820898,0.560258,-0.866025,-0.0642018,-0.00945237,-7.45058e-07,0.00187755,0.00026077,0.00686088,2.26917,5,0.1,9,2.9,-3.14745,2.42954,0.598607,0.361713,-0.0459012,0.0021656,0.0371039,0.0544041,-0.00258163,0.00940291,0.16578,5,0.1
0,3,3.69993,1.50676,0.524448,0.0758886,-0.866026,0.00120848,-0.109792,5.96046e-05,0.0221133,0.00994077,2.2707,5,0.1,1,3,-1.20297,-1.17316,0.5,-0.187865,0.372738,2.98023e-06,-0.521123,-0.148892,-2.98023e-05,0.00705958,0.187778,5,0.1,2,3,-3.20543,1.28007,0.500001,0.0420392,0.107172,4.47035e-06,-0.276446,-0.175536,-2.98023e-05,0.0116748,0.416472,5,0.1,3,3,-3.31818,-2.26934,0.600358,0.0330269,0.580114,-0.000341237,0.0846386,-0.44024,0.00038743,0.00792343,0.154206,5,0.1,4,3,-3.21214,-1.73468,0.605811,0.0800014,0.110739,-0.00758469,-0.353932,-0.157535,0.0107586,0.010172,0.501465,5,0.1,5,3,-0.970073,-1.36347,0.578008,0.211066,0.596142,0.0408232,-0.570238,0.964284,-0.0923276,0.00921256,2.21801,5,0.1,6,3,-0.621991,4.04372,0.605544,-0.347714,0.00636578,-0.0056833,-0.143588,-0.00429153,0.00372529,0.0114556,0.149413,5,0.1,7,3,3.37382,1.74457,0.739527,-0.11254,0.350633,0.0197962,0.146508,-0.973523,-0.028789,0.0126682,1.23187,5,0.1,8,3,-0.224031,-0.827299,0.559315,-0.866025,-0.0636563,-0.00937283,-1.43051e-05,0.0118017,0.00172853,0.00707452,2.38054,5,0.1,9,3,-3.11108,2.42522,0.59881,0.365108,-0.0406027,0.0019148,0.00870228,0.0523329,-0.00247359,0.0106816,0.0997748,5,0.1
0,3.1,3.70699,1.42016,0.524682,0.0655264,-0.866025,0.00348324,-0.0984669,-1.49012e-05,0.0224747,0.00994077,2.2707,5,0.1,1,3.1,-1.22429,-1.13664,0.5,-0.237387,0.357269,5.58794e-07,-0.450149,-0.170246,-1.49012e-05,0.00705958,0.187778,5,0.1,2,3.1,-3.20254,1.28995,0.500001,0.0168957,0.0908706,1.95578e-06,-0.20653,-0.152156,-1.86265e-05,0.0116748,0.416472,5,0.1,3,3.1,-3.31439,-2.21342,0.600326,0.0432439,0.539057,-0.000306685,0.111669,-0.397816,0.000309199,0.00792343,0.154206,5,0.1,4,3.1,-3.20588,-1.72432,0.605101,0.0459399,0.0971254,-0.00665532,-0.314578,-0.119135,0.00813231,0.010172,0.501465,5,0.1,5,3.1,-0.952068,-1.29867,0.581609,0.147164,0.70143,0.0310592,-0.683054,1.06555,-0.100516,0.00921256,2.21801,5,0.1,6,3.1,-0.65751,4.04406,0.604992,-0.362439,-0.00187829,-0.00538183,-0.130579,-0.1432,0.00258163,0.0114556,0.149413,5,0.1,7,3.1,3.36328,1.77523,0.741365,-0.0984035,0.268848,0.0169983,0.137389,-0.598989,-0.0272617,0.0126682,1.23187,5,0.1,8,3.1,-0.310462,-0.833122,0.558355,-0.860262,-0.0486972,-0.0100826,0.139028,0.259064,-0.0136234,0.00707452,2.38054,5,0.1,9,3.1,-3.07445,2.42141,0.59899,0.367658,-0.0357203,0.00168402,0.0226796,0.046134,-0.00217557,0.0106816,0.0997748,5,0.1
0,3.2,3.71306,1.33356,0.525138,0.0560105,-0.866026,0.00554919,-0.092268,0,0.0181794,0.00727832,2.27103,5,0.1,1,3.2,-1.25004,-1.10187,0.5,-0.274691,0.337085,-1.49012e-06,-0.283122,-0.239551,2.98023e-05,0.00734631,0.193982,5,0.1,2,3.2,-3.20165,1.29831,0.500001,0.00345707,0.0764608,0,-0.0550747,-0.137389,-2.98023e-05,0.0141595,0.829322,5,0.1,3,3.2,-3.30952,-2.16154,0.600297,0.053966,0.497705,-0.000277162,0.0970364,-0.440598,0.000327826,0.0103151,0.105872,5,0.1,4,3.2,-3.20271,-1.71517,0.604474,0.0190675,0.0861466,-0.00590533,-0.215769,-0.103652,0.00706315,0.00655725,0.411143,5,0.1,5,3.2,-0.940785,-1.22354,0.584216,0.0788197,0.796232,0.0211492,-0.66483,0.776291,-0.0958145,0.0109756,1.71594,5,0.1,6,3.2,-0.69425,4.04305,0.604467,-0.370407,-0.0191927,-0.00511855,-0.014931,-0.189543,0.00286102,0.0118697,0.0877809,5,0.1,7,3.2,3.35412,1.8,0.742931,-0.0848651,0.235045,0.0143304,0.133872,-0.0980496,-0.0261068,0.0126329,1.04939,5,0.1,8,3.2,-0.395406,-0.836481,0.557269,-0.834381,-0.0169009,-0.0116915,0.393227,0.354528,-0.0168383,0.00736252,2.78129,5,0.1,9,3.2,-3.03768,2.41806,0.599148,0.366324,-0.0312388,0.00147223,-0.0630617,0.0441074,-0.00208616,0.0115664,0.0771763,5,0.1
0,3.3,3.71823,1.24695,0.525783,0.0477768,-0.866026,0.00734096,-0.0739992,0,0.0168942,0.00727832,2.27103,5,0.1,1,3.3,-1.27902,-1.06947,0.5,-0.305281,0.309813,2.79397e-07,-0.302635,-0.305057,1.11759e-05,0.00734631,0.193982,5,0.1,2,3.3,-3.20146,1.30531,0.500001,0.00344776,0.0639297,-1.86265e-06,0.114337,-0.114709,-1.49012e-05,0.0141595,0.829322,5,0.1,3,3.3,-3.30364,-2.11395,0.60027,0.0632495,0.454334,-0.00025304,0.0841618,-0.435159,0.000175089,0.0103151,0.105872,5,0.1,4,3.3,-3.20175,-1.70706,0.603918,0.00191927,0.0762496,-0.0052304,-0.11459,-0.0956208,0.00652298,0.00655725,0.411143,5,0.1,5,3.3,-0.936244,-1.14081,0.585857,0.0122837,0.851015,0.01177,-0.647683,0.329383,-0.0900291,0.0109756,1.71594,5,0.1,6,3.3,-0.73132,4.04017,0.603968,-0.370233,-0.0383951,-0.00485722,0.0309721,-0.18695,0.0025481,0.0118697,0.0877809,5,0.1,7,3.3,3.34628,1.82399,0.744239,-0.0723224,0.252842,0.011876,0.118122,0.385895,-0.0230893,0.0126329,1.04939,5,0.1,8,3.3,-0.476066,-0.836772,0.555952,-0.77145,0.00768909,-0.01515,0.835477,0.150699,-0.0473559,0.00736252,2.78129,5,0.1,9,3.3,-3.00126,2.41514,0.599285,0.362687,-0.0272468,0.00128355,-0.0300556,0.0365973,-0.00172853,0.0115664,0.0771763,5,0.1
0,3.4,3.72266,1.16035,0.526594,0.0409305,-0.866026,0.00879914,-0.0641346,5.96046e-05,0.0117123,0.00781697,2.27125,5,0.1,1,3.4,-1.31092,-1.04011,0.5,-0.330782,0.276318,0,-0.189066,-0.363231,0,0.00737576,0.211679,5,0.1,2,3.4,-3.2,1.31116,0.500001,0.0308812,0.0532538,-2.98023e-06,0.420451,-0.0997782,2.98023e-05,0.0165844,1.2751,5,0.1,3,3.4,-3.29695,-2.07073,0.600246,0.0700474,0.409311,-0.000238419,0.0488758,-0.470638,0.000119209,0.00779831,0.150311,5,0.1,4,3.4,-3.20189,-1.69991,0.603427,-0.00234246,0.0667989,-0.00458509,0.0319481,-0.0942945,0.0064671,0.0053795,0.357805,5,0.1,5,3.4,-0.938102,-1.05468,0.586605,-0.0475913,0.866026,0.00344366,-0.536799,0,-0.0753105,0.00916389,1.28651,5,0.1,6,3.4,-0.76803,4.03545,0.603496,-0.36215,-0.0552893,-0.00457913,0.1387,-0.145197,0.00312924,0.00954775,0.0759538,5,0.1,7,3.4,3.33962,1.85154,0.745315,-0.0610411,0.300199,0.00969321,0.108123,0.509083,-0.020653,0.0121667,0.842307,5,0.1,8,3.4,-0.548511,-0.835494,0.554184,-0.672884,0.0156969,-0.020285,1.10975,0.020653,-0.0515878,0.00858223,2.96252,5,0.1,9,3.4,-2.96522,2.41259,0.599406,0.356865,-0.0237703,0.00111908,-0.100493,0.033617,-0.00157952,0.0101973,0.107587,5,0.1
0,3.5,3.72647,1.07375,0.527533,0.0354879,-0.866025,0.00994727,-0.0465214,-1.11759e-05,0.0105575,0.00781697,2.27125,5,0.1,1,3.5,-1.34508,-1.01449,0.5,-0.353,0.234509,0,-0.227638,-0.460647,0,0.00737576,0.211679,5,0.1,2,3.5,-3.19386,1.31602,0.5,0.0996199,0.044289,-5.58794e-07,0.880167,-0.0808015,1.49012e-05,0.0165844,1.2751,5,0.1,3,3.5,-3.28973,-2.03215,0.600222,0.0740089,0.362265,-0.000248197,0.0277758,-0.472702,-0.000264496,0.00779831,0.150311,5,0.1,4,3.5,-3.20176,-1.69285,0.603012,0.0067737,0.0814628,-0.00362201,0.136182,0.333861,0.0120662,0.0053795,0.357805,5,0.1,5,3.5,-0.945473,-0.968084,0.586587,-0.09874,0.865682,-0.00363812,-0.472497,-0.0137463,-0.0650436,0.00916389,1.28651,5,0.1,6,3.5,-0.803591,4.02936,0.603052,-0.349126,-0.0649758,-0.00430578,0.135228,-0.0515282,0.00252947,0.00954775,0.0759538,5,0.1,7,3.5,3.33402,1.88449,0.746187,-0.0511106,0.361357,0.00779508,0.0915378,0.66223,-0.0174232,0.0121667,0.842307,5,0.1,8,3.5,-0.610537,-0.834512,0.551887,-0.570492,-0.00177119,-0.025653,0.938278,-0.324108,-0.0523366,0.00858223,2.96252,5,0.1,9,3.5,-2.92986,2.41038,0.59951,0.351707,-0.0205684,0.000968669,-0.0255853,0.0306815,-0.00144169,0.0101973,0.107587,5,0.1
0,3.6,3.7298,0.987146,0.528574,0.0313044,-0.866026,0.0107929,-0.0385046,0,0.00584126,0.00599707,2.27137,5,0.1,1,3.6,-1.38139,-0.99342,0.5,-0.371581,0.186415,0,-0.124514,-0.491291,0,0.0118245,4.28578,5,0.1,2,3.6,-3.17924,1.32007,0.5,0.193828,0.0368685,1.49012e-06,0.947595,-0.0686646,0,0.0160249,1.33675,5,0.1,3,3.6,-3.28224,-1.99831,0.600195,0.0751913,0.314426,-0.000281632,-0.00584126,-0.485122,-0.000327826,0.00903827,0.103525,5,0.1,4,3.6,-3.20032,-1.68269,0.602714,0.0223756,0.12404,-0.00229925,0.165105,0.476182,0.0137687,0.00581625,0.268512,5,0.1,5,3.6,-0.957511,-0.881694,0.585923,-0.139798,0.860529,-0.00935197,-0.339448,-0.109971,-0.048399,0.00973078,0.950873,5,0.1,6,3.6,-0.837744,4.02274,0.602635,-0.332865,-0.0662088,-0.00404119,0.198871,0.0240803,0.00289083,0.00911857,0.206148,5,0.1,7,3.6,3.32935,1.92384,0.746884,-0.0425518,0.423673,0.00618845,0.0805855,0.546157,-0.0148416,0.0134169,0.139039,5,0.1,8,3.6,-0.663171,-0.836569,0.549082,-0.484896,-0.0410706,-0.0301778,0.776827,-0.427246,-0.0357926,0.00993979,2.92516,5,0.1,9,3.6,-2.89484,2.40847,0.5996,0.347817,-0.0175834,0.000828505,-0.0685453,0.0290871,-0.00137091,0.00822921,0.182168,5,0.1
0,3.7,3.73277,0.900544,0.529683,0.0282492,-0.866026,0.0113922,-0.0244528,3.72529e-06,0.00547245,0.00599707,2.27137,5,0.1,1,3.7,-1.41655,-0.977807,0.5,-0.309206,0.121214,0,1.22544,-0.769045,0,0.0118245,4.28578,5,0.1,2,3.7,-3.15465,1.32344,0.500001,0.300817,0.0307849,1.39698e-06,1.12629,-0.0540987,-3.72529e-06,0.0160249,1.33675,5,0.1,3,3.7,-3.27465,-1.96888,0.600166,0.0774235,0.277652,-0.000303797,0.041157,-0.274293,-0.000119209,0.00903827,0.103525,5,0.1,4,3.7,-3.1972,-1.66762,0.602554,0.0404384,0.179323,-0.000915769,0.186339,0.591539,0.0135414,0.00581625,0.268512,5,0.1,5,3.7,-0.973103,-0.79594,0.58476,-0.170926,0.855858,-0.0137523,-0.27252,-0.0302866,-0.0386313,0.00973078,0.950873,5,0.1,6,3.7,-0.870015,4.01634,0.602245,-0.31219,-0.0606455,-0.00375854,0.220966,0.0828803,0.00286475,0.00911857,0.206148,5,0.1,7,3.7,3.32546,1.9686,0.747435,-0.0356156,0.467685,0.00487976,0.059858,0.321969,-0.0115111,0.0134169,0.139039,5,0.1,8,3.7,-0.709713,-0.842561,0.545944,-0.462298,-0.0762928,-0.0320286,-0.207007,-0.278369,-0.00264123,0.00993979,2.92516,5,0.1,9,3.7,-2.86008,2.40685,0.599676,0.349792,-0.0148475,0.00069961,0.0756681,0.0258386,-0.00121444,0.00822921,0.182168,5,0.1
0,3.8,3.73548,0.813941,0.530845,0.026089,-0.866026,0.0117719,-0.0201464,0,0.00163913,0.00819576,2.27143,5,0.1,1,3.8,-1.44012,-0.969692,0.5,-0.152746,0.0403419,0,1.7879,-0.814617,0,0.0145029,3.40807,5,0.1,2,3.8,-3.11909,1.32626,0.500001,0.407666,0.0258595,0,0.962496,-0.0452995,2.98023e-05,0.0145712,0.581202,5,0.1,3,3.8,-3.26669,-1.9423,0.600135,0.0818014,0.255352,-0.000305474,0.0393391,-0.18996,8.9407e-05,0.00989955,0.141129,5,0.1,4,3.8,-3.19226,-1.6468,0.602527,0.0579536,0.235772,0.000345707,0.156879,0.50962,0.0114441,0.00689861,0.212567,5,0.1,5,3.8,-0.991377,-0.710688,0.583214,-0.192559,0.846501,-0.0169188,-0.153303,-0.189722,-0.0241101,0.00656872,0.676407,5,0.1,6,3.8,-0.900052,4.01076,0.601884,-0.287664,-0.0504613,-0.00345111,0.273377,0.117064,0.00327826,0.0104745,0.19395,5,0.1,7,3.8,3.32217,2.01653,0.747869,-0.0302792,0.486231,0.00385493,0.0481606,0.0426769,-0.00911951,0.0149243,0.50774,5,0.1,8,3.8,-0.757803,-0.851345,0.542773,-0.505389,-0.0970662,-0.030978,-0.563562,-0.139147,0.0223517,0.00709385,2.78622,5,0.1,9,3.8,-2.82471,2.40549,0.59974,0.357348,-0.0123858,0.000584126,0.0514984,0.0234842,-0.00113249,0.0100585,0.111294,5,0.1
0,3.9,3.73801,0.727339,0.532033,0.0246745,-0.866026,0.0119929,-0.00990927,3.72529e-06,0.00210479,0.00819576,2.27143,5,0.1,1,3.9,-1.44623,-0.970182,0.5,0.0311706,-0.0533135,0,1.82788,-1.00685,0,0.0145029,3.40807,5,0.1,2,3.9,-3.07375,1.32864,0.500001,0.495996,0.0218984,1.67638e-06,0.773475,-0.0348091,7.45058e-06,0.0145712,0.581202,5,0.1,3,3.9,-3.25821,-1.9175,0.600105,0.0883572,0.242357,-0.000289269,0.0810027,-0.0880882,0.000223517,0.00989955,0.141129,5,0.1,4,3.9,-3.18568,-1.62062,0.602616,0.0732761,0.287615,0.00141105,0.142798,0.498638,0.00965223,0.00689861,0.212567,5,0.1,5,3.9,-1.01134,-0.626836,0.581412,-0.205806,0.8311,-0.0190075,-0.103191,-0.155848,-0.0168867,0.00656872,0.676407,5,0.1,6,3.9,-0.927435,4.00634,0.601555,-0.259768,-0.037694,-0.00312254,0.286862,0.133157,0.00333786,0.0104745,0.19395,5,0.1,7,3.9,3.31937,2.06564,0.748212,-0.0258569,0.497908,0.00303686,0.0408739,0.152498,-0.00732392,0.0149243,0.50774,5,0.1,8,3.9,-0.810967,-0.86108,0.539843,-0.555333,-0.0918281,-0.0271355,-0.410065,0.209931,0.051517,0.00709385,2.78622,5,0.1,9,3.9,-2.78863,2.40437,0.599793,0.364317,-0.0102039,0.000479165,0.0668913,0.0202805,-0.000972301,0.0100585,0.111294,5,0.1
0,4,3.74043,0.640736,0.533239,0.0237942,-0.866026,0.0120789,-0.00905991,0,-0.00089407,0.00689376,2.27146,5,0.1,1,4,-1.43433,-0.980514,0.5,0.202036,-0.152011,-1.49012e-06,1.54418,-0.928521,2.98023e-05,0.0118038,2.83689,5,0.1,2,4,-3.0208,1.33067,0.500001,0.557309,0.0187367,1.49012e-06,0.433087,-0.0290275,0,0.0116735,0.578292,5,0.1,3,4,-3.24898,-1.89366,0.600078,0.0961423,0.234583,-0.00026077,0.0667572,-0.0807643,0.000357628,0.00899953,0.115406,5,0.1,4,4,-3.17771,-1.58957,0.602801,0.0853777,0.330639,0.00224113,0.094533,0.341773,0.00685453,0.0106009,0.177561,5,0.1,5,4,-1.0323,-0.5447,0.579444,-0.211817,0.808987,-0.0201717,-0.0116229,-0.312299,-0.00590086,0.00818939,0.468292,5,0.1,6,4,-0.951941,4.00323,0.60126,-0.229952,-0.0247121,-0.00277758,0.31054,0.123024,0.00357628,0.0120521,0.318769,5,0.1,7,4,3.31698,2.11612,0.748482,-0.0220001,0.510132,0.00237674,0.0367165,0.0644922,-0.00593066,0.0127941,0.399615,5,0.1,8,4,-0.868129,-0.868869,0.537415,-0.583263,-0.0611946,-0.0212148,-0.132382,0.375569,0.064522,0.00853838,2.62968,5,0.1,9,4,-2.75198,2.40344,0.599836,0.367165,-0.00830293,0.00038892,-0.0243187,0.0177622,-0.000834465,0.00994762,0.0618704,5,0.1
0,4.1,3.74278,0.554134,0.534446,0.0233337,-0.866026,0.0120794,-0.00184774,1.78814e-06,0.000223517,0.00689376,2.27146,5,0.1,1,4.1,-1.40585,-1.00011,0.5,0.370933,-0.236942,3.72529e-07,1.7433,-0.751358,1.49012e-05,0.0118038,2.83689,5,0.1,2,4.1,-2.96292,1.33241,0.500001,0.59919,0.0162277,1.02445e-06,0.370204,-0.0218749,-1.11759e-05,0.0116735,0.578292,5,0.1,3,4.1,-3.2392,-1.87052,0.600053,0.097914,0.228522,-0.000223331,-0.0268221,-0.0523478,0.00038743,0.00899953,0.115406,5,0.1,4,4.1,-3.16872,-1.55479,0.603058,0.0940122,0.364579,0.00287499,0.0732541,0.312336,0.00561774,0.0106009,0.177561,5,0.1,5,4.1,-1.0535,-0.46524,0.577403,-0.2119,0.780648,-0.0205792,0.0168681,-0.284998,-0.00160933,0.00818939,0.468292,5,0.1,6,4.1,-0.973382,4.00141,0.601,-0.198856,-0.011611,-0.00241939,0.310991,0.12821,0.00359118,0.0120521,0.318769,5,0.1,7,4.1,3.31488,2.16758,0.748692,-0.020694,0.519548,0.00185426,-0.00566244,0.0936091,-0.00458956,0.0127941,0.399615,5,0.1,8,4.1,-0.927993,-0.872802,0.535615,-0.620659,-0.0151259,-0.014805,-0.533227,0.516754,0.0625663,0.00853838,2.62968,5,0.1,9,4.1,-2.7154,2.4027,0.599871,0.363958,-0.00667274,0.000312459,-0.0529438,0.0149608,-0.000696629,0.00994762,0.0618704,5,0.1
0,4.2,3.74511,0.467531,0.535652,0.0231266,-0.866025,0.0120074,-0.00333786,-1.43051e-05,-0.00211596,0.00815694,2.27146,5,0.1,1,4.2,-1.36032,-1.02714,0.500001,0.535047,-0.299227,0,1.47295,-0.4825,2.98023e-05,0.0096935,2.42602,5,0.1,2,4.2,-2.90149,1.33393,0.500001,0.625598,0.0142336,0,0.134587,-0.0185966,0,0.0122587,0.815695,5,0.1,3,4.2,-3.22966,-1.84797,0.600033,0.0916302,0.22209,-0.000184774,-0.094533,-0.0847578,0.000417233,0.0119107,0.146934,5,0.1,4,4.2,-3.15902,-1.51698,0.60337,0.0992239,0.388944,0.0033319,0.0277758,0.158072,0.00336766,0.00594072,0.159348,5,0.1,5,4.2,-1.07452,-0.388759,0.575348,-0.207308,0.746852,-0.0203922,0.0793934,-0.411763,0.00575185,0.00765621,0.318271,5,0.1,6,4.2,-0.991715,4.00083,0.600776,-0.167856,-0.000786781,-0.00206083,0.308424,0.0817776,0.00360608,0.0132003,0.698384,5,0.1,7,4.2,3.31275,2.21985,0.748857,-0.0222623,0.523722,0.00144839,-0.0218153,-0.0311136,-0.00360608,0.0105254,0.291134,5,0.1,8,4.2,-0.99283,-0.871695,0.534437,-0.675556,0.0370637,-0.00889301,-0.50354,0.505149,0.0548661,0.00711536,2.43986,5,0.1,9,4.2,-2.67941,2.4021,0.599899,0.354397,-0.00529289,0.000248849,-0.146747,0.012517,-0.000596046,0.0110585,0.0430512,5,0.1
0,4.3,3.74742,0.380929,0.536846,0.0231311,-0.866025,0.0119057,0.00181794,1.78814e-06,-0.000599772,0.00815694,2.27146,5,0.1,1,4.3,-1.29949,-1.05932,0.500001,0.679363,-0.342249,1.76951e-06,1.34819,-0.361361,1.11759e-05,0.0096935,2.42602,5,0.1,2,4.3,-2.83797,1.33527,0.500001,0.646468,0.0126403,-9.31323e-08,0.235587,-0.013873,-3.72529e-06,0.0122587,0.815695,5,0.1,3,4.3,-3.22106,-1.82609,0.600017,0.0797037,0.215895,-0.000144169,-0.139967,-0.0514537,0.00038743,0.0119107,0.146934,5,0.1,4,4.3,-3.14897,-1.47724,0.603721,0.101478,0.405757,0.0036695,0.0133216,0.15419,0.00312552,0.00594072,0.159348,5,0.1,5,4.3,-1.09485,-0.316008,0.573339,-0.199186,0.708742,-0.0197541,0.0888407,-0.37553,0.00754744,0.00765621,0.318271,5,0.1,6,4.3,-1.007,4.00118,0.600587,-0.138175,0.00753701,-0.00171242,0.284918,0.0581741,0.00335649,0.0132003,0.698384,5,0.1,7,4.3,3.31045,2.27213,0.748985,-0.0233617,0.521974,0.00113705,-0.00207126,-0.0279993,-0.00267848,0.0105254,0.291134,5,0.1,8,4.3,-1.06357,-0.865994,0.533793,-0.743807,0.0720649,-0.00425717,-0.776775,0.211511,0.0383444,0.00711536,2.43986,5,0.1,9,4.3,-2.64464,2.40163,0.599921,0.341066,-0.00416785,0.000195391,-0.133842,0.0100732,-0.000476837,0.0110585,0.0430512,5,0.1
0,4.4,3.74974,0.294326,0.538032,0.0232041,-0.866025,0.0117689,-0.0013113,-1.43051e-05,-0.0025332,0.00571997,2.27146,5,0.1,1,4.4,-1.22546,-1.09504,0.500001,0.793895,-0.368792,1.49012e-06,0.899732,-0.159204,-2.98023e-05,0.00595748,0.978652,5,0.1,2,4.4,-2.77229,1.33647,0.500001,0.664628,0.0113577,-1.49012e-06,0.0940561,-0.0122786,2.98023e-05,0.0108758,0.1603,5,0.1,3,4.4,-3.21383,-1.80479,0.600004,0.0643909,0.209707,-0.000105798,-0.162601,-0.0808239,0.000327826,0.0091726,0.254298,5,0.1,4,4.4,-3.13881,-1.43606,0.604101,0.101233,0.415736,0.00391454,-0.0206232,0.0287294,0.00160933,0.00898162,0.152682,5,0.1,5,4.4,-1.11427,-0.247119,0.571408,-0.188586,0.667528,-0.0187948,0.126958,-0.465833,0.0119805,0.0073806,0.214034,5,0.1,6,4.4,-1.01943,4.00203,0.600433,-0.110924,0.00716448,-0.00138879,0.259757,-0.0762939,0.00306964,0.0104779,1.9132,5,0.1,7,4.4,3.30812,2.32403,0.749087,-0.0229955,0.514054,0.00090301,0.00822544,-0.146747,-0.00202656,0.0125004,0.207539,5,0.1,8,4.4,-1.14172,-0.858101,0.533535,-0.816342,0.0824511,-0.00112653,-0.613034,0.0104606,0.0247359,0.00657992,2.31481,5,0.1,9,4.4,-2.61128,2.40126,0.599939,0.325286,-0.00326037,0.000151992,-0.190973,0.00834465,-0.000357628,0.00932727,0.0803025,5,0.1
0,4.5,3.75206,0.207723,0.539201,0.0233509,-0.866025,0.011635,0.00268221,2.98023e-07,-0.000827014,0.00571997,2.27146,5,0.1,1,4.5,-1.14407,-1.13277,0.500001,0.811191,-0.385641,-9.31323e-07,-0.454292,-0.154793,-1.49012e-05,0.00595748,0.978652,5,0.1,2,4.5,-2.7057,1.33755,0.500001,0.663479,0.0103081,2.79397e-07,-0.124678,-0.00918657,1.11759e-05,0.0108758,0.1603,5,0.1,3,4.5,-3.20823,-1.78426,0.599995,0.0475619,0.200308,-7.52509e-05,-0.169203,-0.110529,0.000283122,0.0091726,0.254298,5,0.1,4,4.5,-3.12878,-1.39424,0.604502,0.0994198,0.421233,0.00411263,-0.0198483,0.0566542,0.00205263,0.00898162,0.152682,5,0.1,5,4.5,-1.13251,-0.182563,0.569587,-0.176352,0.624371,-0.017619,0.122622,-0.418109,0.0119917,0.0073806,0.214034,5,0.1,6,4.5,-1.02928,4.00236,0.600308,-0.0866817,-0.00374317,-0.00110129,0.225253,-0.24581,0.00268593,0.0104779,1.9132,5,0.1,7,4.5,3.3059,2.37476,0.749168,-0.0211686,0.500552,0.000732206,0.0225604,-0.142902,-0.00143051,0.0125004,0.207539,5,0.1,8,4.5,-1.22572,-0.850058,0.533529,-0.8571,0.0761709,0.000828039,-0.219367,-0.123601,0.0147633,0.00657992,2.31481,5,0.1,9,4.5,-2.57949,2.40097,0.599952,0.31206,-0.00250973,0.000119582,-0.0943542,0.00672042,-0.000298023,0.00932727,0.0803025,5,0.1
0,4.6,3.7544,0.121121,0.540358,0.0234723,-0.866026,0.0114873,-0.00119209,3.57628e-06,-0.0025928,0.00896393,2.27147,5,0.1,1,4.6,-1.06678,-1.17194,0.500001,0.721267,-0.395867,-1.49012e-06,-1.26135,-0.033915,0,0.00908369,1.85614,5,0.1,2,4.6,-2.64039,1.33854,0.500001,0.638652,0.00943542,0,-0.374675,-0.00858307,0,0.0108941,0.29622,5,0.1,3,4.6,-3.2043,-1.76486,0.599989,0.0313699,0.187078,-4.91738e-05,-0.151396,-0.155926,0.000238419,0.00974559,0.249041,5,0.1,4,4.6,-3.11896,-1.35195,0.604922,0.0965655,0.422901,0.00427216,-0.0404119,-0.0403523,0.000983477,0.0101459,3.38981,5,0.1,5,4.6,-1.14951,-0.122276,0.567888,-0.163248,0.580404,-0.0163212,0.142753,-0.475452,0.0142753,0.00767301,0.143306,5,0.1,6,4.6,-1.03688,4,0.600211,-0.0658333,-0.0507712,-0.000850856,0.191808,-0.67842,0.00232458,0.0110683,1.66673,5,0.1,7,4.6,3.30389,2.42398,0.749235,-0.0193417,0.482196,0.000609457,0.0112057,-0.237703,-0.00107288,0.0120902,0.145941,5,0.1,8,4.6,-1.31206,-0.843195,0.533672,-0.866023,0.0599861,0.00190288,-5.96046e-05,-0.190049,0.00706315,0.00705197,2.27954,5,0.1,9,4.6,-2.54874,2.40075,0.599963,0.302821,-0.00191331,9.38773e-05,-0.1055,0.00560284,-0.000268221,0.00964019,0.0672028,5,0.1
0,4.7,3.75676,0.0345184,0.541499,0.0236023,-0.866025,0.011351,0.00227988,5.96046e-07,-0.000804663,0.00896393,2.27147,5,0.1,1,4.7,-0.999362,-1.21159,0.500001,0.640723,-0.395748,-1.49012e-06,-0.440642,0.0463128,0,0.00908369,1.85614,5,0.1,2,4.7,-2.57819,1.33944,0.500001,0.606787,0.00869706,-9.31323e-08,-0.289962,-0.00657141,-3.72529e-06,0.0108941,0.29622,5,0.1,3,4.7,-3.20186,-1.74694,0.599985,0.0179693,0.171043,-2.75671e-05,-0.115871,-0.166692,0.000193715,0.00974559,0.249041,5,0.1,4,4.7,-3.10753,-1.31038,0.605322,0.148486,0.403637,0.00345409,0.951707,-0.327624,-0.0155196,0.0101459,3.38981,5,0.1,5,4.7,-1.16515,-0.0664761,0.566325,-0.149814,0.536522,-0.014967,0.130087,-0.419521,0.0132062,0.00767301,0.143306,5,0.1,6,4.7,-1.04256,3.99059,0.600137,-0.0483407,-0.144844,-0.000638235,0.158392,-1.12075,0.00193343,0.0110683,1.66673,5,0.1,7,4.7,3.302,2.47107,0.749291,-0.018838,0.459952,0.000521541,-0.00920892,-0.223249,-0.000715256,0.0120902,0.145941,5,0.1,8,4.7,-1.39866,-0.838244,0.533888,-0.866026,0.0383035,0.00233408,-7.45058e-06,-0.234064,0.00186265,0.00705197,2.27954,5,0.1,9,4.7,-2.5188,2.40059,0.599971,0.297171,-0.0014253,7.05011e-05,-0.0287741,0.00423193,-0.000204891,0.00964019,0.0672028,5,0.1
0,4.8,3.75912,-0.0520842,0.542628,0.023669,-0.866025,0.0112101,-0.00202656,1.19209e-06,-0.0025034,0.0075562,2.27147,5,0.1,1,4.8,-0.936756,-1.25074,0.5,0.616978,-0.38501,-1.49012e-06,-0.104725,0.174403,0,0.00850455,1.43836,5,0.1,2,4.8,-2.519,1.34028,0.500001,0.576001,0.00805557,-1.49012e-06,-0.345111,-0.00655651,2.98023e-05,0.0124672,0.530099,5,0.1,3,4.8,-3.20058,-1.7307,0.599983,0.00827312,0.153446,-1.19209e-05,-0.0782013,-0.186205,0.000178814,0.0105512,0.495471,5,0.1,4,4.8,-3.08715,-1.27201,0.605576,0.264341,0.360626,0.00149459,1.26672,-0.517368,-0.0222325,0.00883551,2.85234,5,0.1,5,4.8,-1.17948,-0.0149443,0.564895,-0.13653,0.493572,-0.0136152,0.138342,-0.451425,0.0140965,0.00802142,0.0959426,5,0.1,6,4.8,-1.04666,3.97033,0.600082,-0.034076,-0.26046,-0.000463426,0.127196,-1.12939,0.00157952,0.0125975,1.35067,5,0.1,7,4.8,3.3,2.51587,0.74934,-0.0217736,0.434846,0.000460446,-0.0474453,-0.289798,-0.000536442,0.0107575,0.15688,5,0.1,8,4.8,-1.48527,-0.835592,0.534124,-0.866026,0.0148535,0.00233203,0,-0.22763,-0.00163913,0.00743948,2.27483,5,0.1,9,4.8,-2.48924,2.40046,0.599977,0.293428,-0.001055,5.21541e-05,-0.0610352,0.00309944,-0.000149012,0.0125906,0.106275,5,0.1
0,4.9,3.76149,-0.138687,0.543741,0.0237077,-0.866025,0.011083,0.0013113,-7.45058e-07,-0.00070408,0.0075562,2.27147,5,0.1,1,4.9,-0.874809,-1.28834,0.5,0.627877,-0.366661,-1.39698e-06,0.252541,0.201203,3.72529e-06,0.00850455,1.43836,5,0.1,2,4.9,-2.46266,1.34105,0.500001,0.554434,0.00748374,2.79397e-07,-0.128195,-0.0051856,1.11759e-05,0.0124672,0.530099,5,0.1,3,4.9,-3.2002,-1.71628,0.599983,-0.000741333,0.135111,3.25963e-06,-0.0897646,-0.181615,0.000122935,0.0105512,0.495471,5,0.1,4,4.9,-3.05361,-1.23866,0.605602,0.411754,0.305524,-0.00104168,1.58347,-0.575751,-0.0271462,0.00883551,2.85234,5,0.1,5,4.9,-1.19248,0.032291,0.5636,-0.123699,0.452114,-0.0123018,0.121817,-0.392222,0.0125021,0.00802142,0.0959426,5,0.1,6,4.9,-1.04947,3.93836,0.600043,-0.0227273,-0.38009,-0.000322144,0.100166,-1.20093,0.00125542,0.0125975,1.35067,5,0.1,7,4.9,3.29734,2.55798,0.749384,-0.0334576,0.407816,0.000417978,-0.168353,-0.264138,-0.000335276,0.0107575,0.15688,5,0.1,8,4.9,-1.57187,-0.835267,0.534345,-0.866026,-0.00837268,0.0020463,0,-0.229161,-0.00385195,0.00743948,2.27483,5,0.1,9,4.9,-2.45998,2.40037,0.599982,0.293361,-0.000784919,3.90224e-05,0.0356436,0.00233948,-0.000115484,0.0125906,0.106275,5,0.1
0,5,3.76386,-0.225289,0.544845,0.0236809,-0.866025,0.0109538,-0.00286102,-1.43051e-05,-0.00229478,0.00598005,2.27148,5,0.1,1,5,-0.810643,-1.3239,0.5,0.655262,-0.34337,-1.49012e-06,0.243098,0.269949,0,0.00932914,1.10063,5,0.1,2,5,-2.40778,1.34178,0.500001,0.543082,0.00696182,0,-0.1297,-0.00542402,0,0.0147719,0.817659,5,0.1,3,5,-3.20066,-1.70367,0.599984,-0.00773668,0.11695,1.3411e-05,-0.0430346,-0.182271,8.9407e-05,0.00949627,3.66625,5,0.1,4,5,-3.00466,-1.21102,0.605363,0.564003,0.247106,-0.00369847,1.38915,-0.585139,-0.0250041,0.00702886,2.4803,5,0.1,5,5,-1.20424,0.0755428,0.562432,-0.111568,0.412673,-0.0110582,0.123262,-0.406682,0.0126064,0.00772748,0.111157,5,0.1,6,5,-1.05129,3.89465,0.600017,-0.0139624,-0.48995,-0.000210106,0.0756383,-0.951409,0.000923872,0.0112624,2.62993,5,0.1,7,5,3.29307,2.5974,0.749424,-0.0522912,0.379765,0.00038892,-0.19455,-0.305772,-0.000298023,0.0114166,0.20088,5,0.1,8,5,-1.65847,-0.8372,0.534528,-0.866026,-0.0296459,0.00160336,0,-0.190765,-0.00485778,0.00719166,2.27076,5,0.1,9,5,-2.43047,2.40031,0.599985,0.296408,-0.000578165,2.98023e-05,0.00786781,0.00166893,-0.000119209,0.0136542,0.091139,5,0.1
0,5.1,3.76622,-0.311892,0.545933,0.023634,-0.866025,0.0108443,0.000476837,1.78814e-06,-0.000551343,0.00598005,2.27148,5,0.1,1,5.1,-0.74357,-1.35692,0.5,0.6881,-0.317133,-1.02445e-06,0.3592,0.262283,1.11759e-05,0.00932914,1.10063,5,0.1,2,5.1,-2.35356,1.34245,0.500001,0.545434,0.00648126,0,0.123963,-0.00444055,0,0.0147719,0.817659,5,0.1,3,5.1,-3.20186,-1.69176,0.599986,-0.016848,0.130829,2.58908e-05,-0.0787973,0.389449,0.000149012,0.00949627,3.66625,5,0.1,4,5.1,-2.94138,-1.18916,0.604866,0.699192,0.190736,-0.00624098,1.25173,-0.538595,-0.0247955,0.00702886,2.4803,5,0.1,5,5.1,-1.21487,0.115107,0.561381,-0.101665,0.381265,-0.0100328,0.080958,-0.246578,0.00848621,0.00772748,0.111157,5,0.1,6,5.1,-1.05291,3.8403,0.6,-0.0237128,-0.600673,-0.000128895,-0.23403,-1.17707,0.000700355,0.0112624,2.62993,5,0.1,7,5.1,3.2866,2.63412,0.749462,-0.0791002,0.356964,0.000375323,-0.316605,-0.173911,-1.49012e-05,0.0114166,0.20088,5,0.1,8,5.1,-1.74507,-0.841114,0.534663,-0.866026,-0.0484206,0.00107959,0,-0.178002,-0.00544637,0.00719166,2.27076,5,0.1,9,5.1,-2.40061,2.40026,0.599987,0.301955,-0.000437349,2.00234e-05,0.0786036,0.00116229,-7.82311e-05,0.0136542,0.091139,5,0.1
0,5.2,3.76859,-0.398494,0.547013,0.0235319,-0.866025,0.0107318,-0.00357628,-1.43051e-05,-0.00217557,0.00584873,2.27149,5,0.1,1,5.2,-0.673139,-1.38728,0.5,0.717768,-0.289676,0,0.195235,0.291765,0,0.00765218,0.811787,5,0.1,2,5.2,-2.29834,1.34307,0.500001,0.558698,0.00602901,0,0.102401,-0.00476837,0,0.0153944,1.44226,5,0.1,3,5.2,-3.20363,-1.67626,0.599989,-0.0147998,0.182334,4.17233e-05,0.146031,0.585973,0.000119209,0.00831963,3.33529,5,0.1,4,5.2,-2.86584,-1.17268,0.604126,0.804162,0.140017,-0.00847578,0.808716,-0.473201,-0.0191927,0.00987009,2.33319,5,0.1,5,5.2,-1.22466,0.152096,0.560417,-0.0943005,0.358992,-0.00925809,0.0708699,-0.217438,0.00745058,0.00863695,0.0647549,5,0.1,6,5.2,-1.05672,3.77456,0.59999,-0.0542432,-0.710511,-6.85453e-05,-0.348032,-0.957012,0.000506639,0.00934021,2.36861,5,0.1,7,5.2,3.27708,2.66901,0.749499,-0.11124,0.340879,0.000378489,-0.307202,-0.164986,2.98023e-05,0.0114843,0.146977,5,0.1,8,5.2,-1.83168,-0.84678,0.534744,-0.866026,-0.0641063,0.000545382,0,-0.131011,-0.005126,0.00791295,1.9894,5,0.1,9,5.2,-2.37007,2.40022,0.599989,0.307941,-0.000339746,1.3411e-05,0.0238419,0.000834465,-2.98023e-05,0.0115794,0.0455073,5,0.1
0,5.3,3.77093,-0.485097,0.54808,0.0234146,-0.866026,0.0106311,-0.000193715,1.93715e-06,-0.000480562,0.00584873,2.27149,5,0.1,1,5.3,-0.600255,-1.41485,0.5,0.740096,-0.262146,0,0.208486,0.265323,0,0.00765218,0.811787,5,0.1,2,5.3,-2.24124,1.34365,0.500001,0.588702,0.00560153,0,0.426859,-0.00398606,0,0.0153944,1.44226,5,0.1,3,5.3,-3.20409,-1.65464,0.599994,0.0107724,0.253214,5.51343e-05,0.443116,0.777751,0.000141561,0.00831963,3.33529,5,0.1,4,5.3,-2.78239,-1.16117,0.603198,0.85583,0.0893699,-0.00992315,0.261799,-0.523008,-0.00983104,0.00987009,2.33319,5,0.1,5,5.3,-1.23377,0.187046,0.559525,-0.0882749,0.340968,-0.0086192,0.0537485,-0.159607,0.0057146,0.00863695,0.0647549,5,0.1,6,5.3,-1.06415,3.69901,0.599986,-0.0963066,-0.796589,-2.56114e-05,-0.46359,-0.725046,0.000361353,0.00934021,2.36861,5,0.1,7,5.3,3.26475,2.70238,0.749538,-0.132192,0.327205,0.000386592,-0.118747,-0.123978,0.000100583,0.0114843,0.146977,5,0.1,8,5.3,-1.91827,-0.853396,0.534746,-0.865698,-0.0642688,-0.000725128,0.0130907,0.105936,-0.0184625,0.00791295,1.9894,5,0.1,9,5.3,-2.33917,2.40019,0.59999,0.30971,-0.000271201,1.09896e-05,-0.00162423,0.000566244,-1.49012e-05,0.0115794,0.0455073,5,0.1
0,5.4,3.77327,-0.571699,0.549139,0.0232518,-0.866026,0.0105262,-0.00405312,0,-0.00208616,0.00693146,2.27151,5,0.1,1,5.4,-0.525469,-1.43974,0.5,0.752214,-0.235519,0,0.00421762,0.271499,0,0.00782736,0.576949,5,0.1,2,5.4,-2.18018,1.34419,0.500001,0.631756,0.00519454,0,0.381827,-0.00429153,0,0.0176535,2.48033,5,0.1,3,5.4,-3.2,-1.62548,0.6,0.0785708,0.328517,6.85453e-05,0.882387,0.688612,8.9407e-05,0.00690055,2.91398,5,0.1,4,5.4,-2.69607,-1.15482,0.602171,0.866026,0.0383437,-0.0104621,0,-0.484824,-0.00107288,0.0118596,2.27885,5,0.1,5,5.4,-1.24233,0.22033,0.558691,-0.0828505,0.324239,-0.00804961,0.0575781,-0.186712,0.00602007,0.00865458,0.0506215,5,0.1,6,5.4,-1.07609,3.61635,0.599985,-0.141793,-0.849861,2.98023e-06,-0.424147,-0.323296,0.000238419,0.0081182,2.00398,5,0.1,7,5.4,3.2512,2.73444,0.749577,-0.136334,0.313443,0.000394881,0.0290871,-0.162125,2.98023e-05,0.0124543,0.114183,5,0.1,8,5.4,-2.00467,-0.85905,0.534571,-0.860792,-0.0468567,-0.00282079,0.104666,0.224769,-0.0221133,0.0104063,1.55053,5,0.1,9,5.4,-2.30833,2.40016,0.599991,0.305444,-0.000226498,8.9407e-06,-0.092268,0.000476837,0,0.00817535,0.0809309,5,0.1
0,5.5,3.77558,-0.658302,0.550186,0.0230864,-0.866026,0.010431,-0.000625849,3.72529e-06,-0.000447035,0.00693146,2.27151,5,0.1,1,5.5,-0.450162,-1.46201,0.5,0.753689,-0.210344,0,-0.00893697,0.237569,0,0.00782736,0.576949,5,0.1,2,5.5,-2.11421,1.34469,0.500001,0.693945,0.0047829,0,0.769645,-0.00406802,0,0.0176535,2.48033,5,0.1,3,5.5,-3.18673,-1.58905,0.600007,0.194534,0.4003,7.84174e-05,1.3435,0.70449,9.68575e-05,0.00690055,2.91398,5,0.1,4,5.5,-2.60947,-1.15313,0.60111,0.866026,-0.00201445,-0.0108452,0,-0.326388,-0.00550225,0.0118596,2.27885,5,0.1,5,5.5,-1.25037,0.251964,0.557913,-0.078168,0.309461,-0.00755573,0.0403002,-0.125992,0.00426546,0.00865458,0.0506215,5,0.1,6,5.5,-1.09247,3.53037,0.599986,-0.186038,-0.865015,2.19792e-05,-0.437036,-0.0404119,0.000141561,0.0081182,2.00398,5,0.1,7,5.5,3.23795,2.76501,0.749616,-0.12668,0.298028,0.000398047,0.153884,-0.156075,1.49012e-05,0.0124543,0.114183,5,0.1,8,5.5,-2.09064,-0.862868,0.534196,-0.861265,-0.0317681,-0.00451375,-0.0654161,0.088159,-0.0120625,0.0104063,1.55053,5,0.1,9,5.5,-2.27808,2.40014,0.599992,0.300705,-0.000185892,8.9407e-06,-0.0225753,0.000342727,0,0.00817535,0.0809309,5,0.1
0,5.6,3.77788,-0.744904,0.551225,0.0228882,-0.866026,0.0103295,-0.00429153,0,-0.00202656,0.00642573,2.27152,5,0.1,1,5.6,-0.375088,-1.48187,0.5,0.744674,-0.187054,0,-0.194638,0.232041,0,0.00808919,0.442961,5,0.1,2,5.6,-2.04095,1.34515,0.500001,0.769639,0.00436306,0,0.675917,-0.00447035,0,0.0131106,2.31963,5,0.1,3,5.6,-3.16043,-1.54576,0.600016,0.330907,0.462151,8.64267e-05,1.31369,0.502348,8.9407e-05,0.00656709,2.535,5,0.1,4,5.6,-2.52287,-1.15473,0.599998,0.866026,-0.027743,-0.0113726,0,-0.192344,-0.00426173,0.00986636,2.27371,5,0.1,5,5.6,-1.25798,0.282266,0.557178,-0.0740707,0.29612,-0.00712723,0.0447631,-0.152886,0.00458956,0.0115989,0.023103,5,0.1,6,5.6,-1.11312,3.44379,0.599989,-0.225139,-0.866026,3.27826e-05,-0.328124,0,5.96046e-05,0.0105085,2.01057,5,0.1,7,5.6,3.22618,2.79398,0.749656,-0.107408,0.280583,0.000394881,0.22316,-0.199676,-8.9407e-05,0.0139891,0.261486,5,0.1,8,5.6,-2.17706,-0.865754,0.533699,-0.866026,-0.027214,-0.00529736,0,0.0119507,-0.0039041,0.0083687,1.17455,5,0.1,9,5.6,-2.24815,2.40012,0.599993,0.297475,-0.000154972,8.9407e-06,-0.056386,0.000238419,-2.98023e-05,0.00856384,0.0669931,5,0.1
0,5.7,3.78016,-0.831507,0.552252,0.0226963,-0.866026,0.0102371,-0.000908971,3.72529e-06,-0.000439584,0.00642573,2.27152,5,0.1,1,5.7,-0.30153,-1.49964,0.5,0.7264,-0.17025,0,-0.198653,0.11868,0,0.00808919,0.442961,5,0.1,2,5.7,-1.96088,1.34557,0.500001,0.828254,0.00395663,0,0.465564,-0.00378489,0,0.0131106,2.31963,5,0.1,3,5.7,-3.12065,-1.4973,0.600037,0.464167,0.504096,0.000440422,1.29102,0.319295,0.00621751,0.00656709,2.535,5,0.1,4,5.7,-2.43627,-1.15831,0.598833,0.866026,-0.0423323,-0.011967,0,-0.102401,-0.00663474,0.00986636,2.27371,5,0.1,5,5.7,-1.26518,0.311136,0.556487,-0.0697948,0.281264,-0.00669165,0.0430197,-0.153292,0.00433996,0.0115989,0.023103,5,0.1,6,5.7,-1.13742,3.35719,0.599992,-0.261622,-0.866026,3.65078e-05,-0.373296,0,1.49012e-05,0.0105085,2.01057,5,0.1,7,5.7,3.21662,2.82105,0.749695,-0.0835259,0.260933,0.000384636,0.247583,-0.199527,-0.00012666,0.0139891,0.261486,5,0.1,8,5.7,-2.26365,-0.868538,0.533158,-0.865659,-0.0294805,-0.00542849,0.0146627,-0.0488237,0.00105798,0.0083687,1.17455,5,0.1,9,5.7,-2.21853,2.40011,0.599994,0.295822,-0.000135973,6.51926e-06,0.00274181,0.000163913,-1.49012e-05,0.00856384,0.0669931,5,0.1
0,5.8,3.78242,-0.91811,0.553272,0.022471,-0.866026,0.0101358,-0.00429153,0,-0.00199676,0.00649732,2.27154,5,0.1,1,5.8,-0.230075,-1.51616,0.5,0.700286,-0.160745,0,-0.342376,0.0824332,0,0.0103989,0.304899,5,0.1,2,5.8,-1.87625,1.34594,0.500001,0.858957,0.00357926,0,0.141382,-0.00369549,0,0.0124376,2.27523,5,0.1,3,5.8,-3.06823,-1.44571,0.600117,0.578791,0.523251,0.00119209,0.95892,0.0535846,0.00825524,0.00746276,2.31921,5,0.1,4,5.8,-2.34966,-1.16293,0.597605,0.866026,-0.0488043,-0.0125289,0,-0.0298023,-0.00393391,0.00646301,0.740888,5,0.1,5,5.8,-1.27193,0.338435,0.555841,-0.0650942,0.263963,-0.00622272,0.0525713,-0.198618,0.0051856,0.012436,0.0140534,5,0.1,6,5.8,-1.16533,3.27058,0.599996,-0.294954,-0.866026,3.57628e-05,-0.273049,0,0,0.00901723,1.5467,5,0.1,7,5.8,3.2095,2.84611,0.749733,-0.059098,0.239658,0.000368059,0.235796,-0.229836,-0.000208616,0.0149132,0.254699,5,0.1,8,5.8,-2.35003,-0.871773,0.532628,-0.860161,-0.0354856,-0.00512898,0.117183,-0.0647604,0.00470877,0.00667734,0.867737,5,0.1,9,5.8,-2.18897,2.4001,0.599994,0.294518,-0.00012517,4.47035e-06,-0.0433922,0.000238419,2.98023e-05,0.00814053,0.10512,5,0.1
0,5.9,3.78466,-1.00471,0.55428,0.0222728,-0.866026,0.0100429,-0.00101328,0,-0.000465661,0.00649732,2.27154,5,0.1,1,5.9,-0.161673,-1.53195,0.5,0.668014,-0.155799,0,-0.325978,0.0279248,0,0.0103989,0.304899,5,0.1,2,5.9,-1.78992,1.34628,0.500001,0.865584,0.0032546,0,0.0176728,-0.00292808,0,0.0124376,2.27523,5,0.1,3,5.9,-3.00531,-1.39344,0.600301,0.680351,0.518704,0.00268156,1.00435,-0.146329,0.0197403,0.00746276,2.31921,5,0.1,4,5.9,-2.26468,-1.16875,0.596562,0.819164,-0.07415,-0.0064156,-0.869304,-0.424013,0.112299,0.00646301,0.740888,5,0.1,5,5.9,-1.27818,0.363862,0.555244,-0.0600291,0.244616,-0.0057254,0.0504926,-0.195408,0.00493228,0.012436,0.0140534,5,0.1,6,5.9,-1.19622,3.18399,0.599999,-0.322575,-0.865784,3.41795e-05,-0.257418,0.00965595,-2.6077e-05,0.00901723,1.5467,5,0.1,7,5.9,3.20475,2.8689,0.749768,-0.0361491,0.215909,0.000343937,0.215188,-0.246182,-0.000279397,0.0149132,0.254699,5,0.1,8,5.9,-2.4357,-0.875694,0.532142,-0.854472,-0.0432436,-0.0045591,0.0425428,-0.0839643,0.00653788,0.00667734,0.867737,5,0.1,9,5.9,-2.15953,2.40009,0.599995,0.295732,-0.000105798,6.89179e-06,0.0440776,0.000178814,1.49012e-05,0.00814053,0.10512,5,0.1
0,6,3.78687,-1.09131,0.55528,0.0220418,-0.866026,0.00994056,-0.00441074,0,-0.00202656,0.00768496,2.27155,5,0.1,1,6,-0.0966268,-1.5474,0.5,0.631254,-0.153178,0,-0.424671,0.033021,0,0.00833694,0.20791,5,0.1,2,6,-1.70333,1.3466,0.500001,0.866026,0.00297129,0,0,-0.00286102,0,0.0115617,1.87964,5,0.1,3,6,-2.93263,-1.34264,0.600675,0.768059,0.493905,0.00482351,0.701427,-0.348508,0.0217557,0.00782945,1.81658,5,0.1,4,6,-2.18808,-1.17857,0.596579,0.704616,-0.124201,0.00745505,-1.36507,-0.536144,0.154287,0.00731316,2.77438,5,0.1,5,6,-1.28392,0.387306,0.554697,-0.0547051,0.223742,-0.00520796,0.056982,-0.226364,0.00548363,0.0117839,0.00449532,5,0.1,6,6,-1.2296,3.09753,0.600003,-0.34273,-0.862157,3.12924e-05,-0.130355,0.0772476,-5.96046e-05,0.0090312,1.15259,5,0.1,7,6,3.20213,2.88923,0.749801,-0.0173271,0.1903,0.000311434,0.156522,-0.266314,-0.000327826,0.0135418,0.412565,5,0.1,8,6,-2.52075,-0.880426,0.53172,-0.843841,-0.0511661,-0.00385046,0.20206,-0.0697374,0.00748038,0.00878402,0.618466,5,0.1,9,6,-2.12975,2.40008,0.599996,0.299269,-8.9407e-05,8.9407e-06,0.00953674,0.000119209,-2.98023e-05,0.00809364,0.107679,5,0.1
0,6.1,3.78906,-1.17792,0.556268,0.0218261,-0.866026,0.00984222,-0.00120699,0,-0.000528991,0.00768496,2.27155,5,0.1,1,6.1,-0.0355172,-1.56261,0.5,0.59152,-0.151512,0,-0.389054,0.00934303,0,0.00833694,0.20791,5,0.1,2,6.1,-1.61672,1.34688,0.500001,0.866026,0.00272077,0,0,-0.00227243,0,0.0115617,1.87964,5,0.1,3,6.1,-2.8526,-1.29451,0.601242,0.828834,0.4725,0.00631185,0.482097,-0.11909,0.0086315,0.00782945,1.81658,5,0.1,4,6.1,-2.1224,-1.19311,0.597946,0.62651,-0.161327,0.0184919,-0.312597,-0.220485,0.0709258,0.00731316,2.77438,5,0.1,5,6.1,-1.28911,0.408544,0.554203,-0.0490025,0.200926,-0.00466052,0.0576973,-0.232346,0.00552088,0.0117839,0.00449532,5,0.1,6,6.1,-1.26452,3.0114,0.600006,-0.355196,-0.862072,2.52388e-05,-0.101551,-0.0246316,-6.33299e-05,0.0090312,1.15259,5,0.1,7,6.1,3.20116,2.90696,0.749831,-0.00266209,0.16452,0.000278186,0.116438,-0.250623,-0.000339001,0.0135418,0.412565,5,0.1,8,6.1,-2.60427,-0.885904,0.531373,-0.827126,-0.0583871,-0.00309078,0.169098,-0.0697263,0.00761077,0.00878402,0.618466,5,0.1,9,6.1,-2.09974,2.40007,0.599997,0.301163,-9.6485e-05,6.42613e-06,0.0131875,-0.000193715,-1.86265e-05,0.00809364,0.107679,5,0.1
0,6.2,3.79124,-1.26452,0.557248,0.0215828,-0.866026,0.00973344,-0.00464916,0,-0.00199676,0.00624865,2.27157,5,0.1,1,6.2,0.0216218,-1.5777,0.5,0.550244,-0.149763,0,-0.449409,0.0320077,0,0.00893199,0.250602,5,0.1,2,6.2,-1.53012,1.34714,0.500001,0.866026,0.00249743,0,0,-0.00226498,0,0.0134798,1.46605,5,0.1,3,6.2,-2.76787,-1.24775,0.601899,0.859839,0.463206,0.00666827,0.123739,-0.0960827,-0.000983477,0.00984447,1.38794,5,0.1,4,6.2,-2.06036,-1.20992,0.600043,0.621563,-0.170982,0.0224724,0.123978,0.0145435,0.0125468,0.00828221,2.54251,5,0.1,5,6.2,-1.29372,0.427451,0.553765,-0.0430763,0.176924,-0.00409484,0.061214,-0.24879,0.00584126,0.0100456,0.00134158,5,0.1,6,6.2,-1.30038,2.92525,0.600008,-0.360125,-0.858408,1.93715e-05,0.0146031,0.133872,-5.96046e-05,0.00971637,0.825821,5,0.1,7,6.2,3.20129,2.92217,0.749857,0.00314116,0.139964,0.000242889,-0.00834465,-0.241399,-0.000327826,0.0131716,0.395774,5,0.1,8,6.2,-2.68594,-0.892058,0.531102,-0.803792,-0.0642687,-0.00234693,0.322938,-0.0444353,0.00715256,0.00816325,0.429391,5,0.1,9,6.2,-2.06965,2.40006,0.599997,0.29934,-0.000119209,4.47035e-06,-0.0599623,-0.000238419,0,0.00925209,0.115256,5,0.1
0,6.3,3.79338,-1.35112,0.558215,0.0213411,-0.866026,0.00963388,-0.00144541,0,-0.000562519,0.00624865,2.27157,5,0.1,1,6.3,0.0746771,-1.59255,0.5,0.512977,-0.147424,0,-0.321741,0.0219643,0,0.00893199,0.250602,5,0.1,2,6.3,-1.44352,1.34738,0.500001,0.86587,0.0022972,0,-0.00621378,-0.00182539,0,0.0134798,1.46605,5,0.1,3,6.3,-2.68318,-1.20358,0.602726,0.816963,0.405562,0.0112467,-0.898287,-0.965923,0.0818335,0.00984447,1.38794,5,0.1,4,6.3,-1.9965,-1.2267,0.60228,0.663948,-0.162331,0.0216478,0.62684,0.149228,-0.0257753,0.00828221,2.54251,5,0.1,5,6.3,-1.29772,0.443904,0.553385,-0.0370143,0.152196,-0.00351723,0.060074,-0.245797,0.0057146,0.0100456,0.00134158,5,0.1,6,6.3,-1.33632,2.83991,0.600009,-0.358365,-0.848932,1.35042e-05,0.034675,0.0962913,-5.58794e-05,0.00971637,0.825821,5,0.1,7,6.3,3.2014,2.93486,0.74988,-0.00328086,0.112874,0.000211038,-0.147894,-0.291958,-0.000305474,0.0131716,0.395774,5,0.1,8,6.3,-2.76483,-0.898706,0.530902,-0.774404,-0.068597,-0.00165896,0.294805,-0.0382476,0.00653788,0.00816325,0.429391,5,0.1,9,6.3,-2.03994,2.40004,0.599998,0.295288,-0.000138208,4.47035e-06,-0.0369102,-0.000104308,0,0.00925209,0.115256,5,0.1
0,6.4,3.79551,-1.43772,0.559174,0.0210762,-0.866026,0.00952482,-0.00464916,5.96046e-05,-0.00208616,0.00686742,2.27159,5,0.1,1,6.4,0.124404,-1.60715,0.5,0.481453,-0.144148,0,-0.327352,0.0485778,0,0.00886246,0.308591,5,0.1,2,6.4,-1.35701,1.3476,0.500001,0.863543,0.00211596,0,-0.0497103,-0.00184774,0,0.0124365,1.11052,5,0.1,3,6.4,-2.60709,-1.16867,0.604324,0.695318,0.28635,0.0211328,-1.46592,-1.34605,0.107646,0.00791021,1.5024,5,0.1,4,6.4,-1.92679,-1.24203,0.604275,0.730014,-0.142851,0.0179112,0.622094,0.232458,-0.0463128,0.0104606,2.35331,5,0.1,5,6.4,-1.30112,0.4579,0.553061,-0.031063,0.127791,-0.00295192,0.0588894,-0.242025,0.00563264,0.00950436,0.000708871,5,0.1,6,6.4,-1.37186,2.75571,0.600011,-0.350848,-0.832283,8.9407e-06,0.12511,0.264764,-5.96046e-05,0.00867356,0.575075,5,0.1,7,6.4,3.2,2.94466,0.749899,-0.0279188,0.083077,0.000180304,-0.331879,-0.297308,-0.000327826,0.015286,0.342905,5,0.1,8,6.4,-2.84064,-0.905721,0.530767,-0.739783,-0.0712633,-0.00105202,0.417948,-0.0124872,0.00554323,0.00663749,0.292669,5,0.1,9,6.4,-2.01066,2.40003,0.599998,0.289285,-0.000137091,2.98023e-06,-0.0939965,0.000119209,2.98023e-05,0.00828134,0.0890136,5,0.1
0,6.5,3.7976,-1.52433,0.56012,0.020827,-0.866025,0.00941437,-0.00156462,-1.49012e-05,-0.000670552,0.00686742,2.27159,5,0.1,1,6.5,0.171252,-1.62135,0.5,0.458116,-0.139876,0,-0.17006,0.0426918,0,0.00886246,0.308591,5,0.1,2,6.5,-1.27069,1.3478,0.500001,0.863939,0.00195093,0,0.0168309,-0.00151992,0,0.0124365,1.11052,5,0.1,3,6.5,-2.5435,-1.14544,0.606862,0.58875,0.190338,0.0285597,-0.736505,-0.62865,0.0439472,0.00791021,1.5024,5,0.1,4,6.5,-1.85051,-1.25508,0.605809,0.795673,-0.117709,0.0125492,0.631198,0.264719,-0.0585616,0.0104606,2.35331,5,0.1,5,6.5,-1.30394,0.469492,0.552794,-0.0253566,0.104299,-0.00240738,0.0550747,-0.227029,0.00524893,0.00950436,0.000708871,5,0.1,6,6.5,-1.40634,2.67368,0.600011,-0.338688,-0.808623,3.53903e-06,0.129648,0.241339,-4.47035e-05,0.00867356,0.575075,5,0.1,7,6.5,3.19515,2.95148,0.749916,-0.0720479,0.0533666,0.000149757,-0.514537,-0.290856,-0.000283122,0.015286,0.342905,5,0.1,8,6.5,-2.91266,-0.912908,0.530688,-0.701091,-0.0723784,-0.000536162,0.380576,-0.0067018,0.00472739,0.00663749,0.292669,5,0.1,9,6.5,-1.98222,2.40002,0.599998,0.279119,-0.000110269,5.40167e-06,-0.117317,0.00038743,1.49012e-05,0.00828134,0.0890136,5,0.1
0,6.6,3.79967,-1.61093,0.561057,0.0205576,-0.866026,0.00929534,-0.00476837,0,-0.00211596,0.00721903,2.2716,5,0.1,1,6.6,0.216267,-1.63509,0.5,0.442131,-0.134629,0,-0.172071,0.0662208,0,0.00823904,0.228416,5,0.1,2,6.6,-1.18437,1.34799,0.500001,0.860342,0.00180006,0,-0.113726,-0.00154972,0,0.0124348,2.08691,5,0.1,3,6.6,-2.48758,-1.12873,0.609853,0.535363,0.150761,0.0304997,-0.386596,-0.206947,-0.00247359,0.00832589,1.15256,5,0.1,4,6.6,-1.76816,-1.26552,0.606767,0.846645,-0.0909299,0.00661612,0.352025,0.266314,-0.0583231,0.0101327,2.28806,5,0.1,5,6.6,-1.30621,0.478818,0.552579,-0.0200808,0.0825301,-0.00190437,0.0503063,-0.207663,0.00473857,0.0087358,0.000634377,5,0.1,6,6.6,-1.43947,2.59421,0.600011,-0.322992,-0.77849,-1.49012e-06,0.192046,0.383973,0,0.00834456,0.392411,5,0.1,7,6.6,3.18532,2.95541,0.749929,-0.124472,0.0259459,0.00012219,-0.506878,-0.253201,-0.000208616,0.0143224,0.277304,5,0.1,8,6.6,-2.98076,-0.920149,0.530657,-0.659525,-0.0720844,-0.000114739,0.467777,0.0146627,0.00369549,0.00605476,0.197303,5,0.1,9,6.6,-1.95498,2.40001,0.599999,0.264525,-7.15256e-05,5.96046e-06,-0.179529,0.000476837,0,0.00880476,0.278075,5,0.1
0,6.7,3.80171,-1.69753,0.561979,0.0202909,-0.866026,0.00917856,-0.00175834,0,-0.000752509,0.00721903,2.2716,5,0.1,1,6.7,0.259808,-1.64824,0.5,0.429949,-0.128552,0,-0.0958563,0.0600964,0,0.00823904,0.228416,5,0.1,2,6.7,-1.09846,1.3491,0.500001,0.860786,0.0283316,0,0.0676215,0.472844,0,0.0124348,2.08691,5,0.1,3,6.7,-2.43526,-1.11403,0.612838,0.516861,0.148826,0.0287139,-0.0384003,0.126868,-0.0310354,0.00832589,1.15256,5,0.1,4,6.7,-1.68237,-1.27329,0.607132,0.86437,-0.0648716,0.000699889,0.0573471,0.251375,-0.0582151,0.0101327,2.28806,5,0.1,5,6.7,-1.30798,0.486069,0.552411,-0.0153232,0.0628762,-0.00145603,0.0446737,-0.184614,0.00421703,0.0087358,0.000634377,5,0.1,6,6.7,-1.47085,2.51816,0.600011,-0.304765,-0.742985,-1.86265e-06,0.182107,0.353068,-7.45058e-06,0.00834456,0.392411,5,0.1,7,6.7,3.17023,2.95678,0.749941,-0.177776,0.00182688,0.000102632,-0.531778,-0.224769,-0.000186265,0.0143224,0.277304,5,0.1,8,6.7,-3.04451,-0.927286,0.530663,-0.616204,-0.0706048,0.00021942,0.419095,0.0174679,0.00295043,0.00605476,0.197303,5,0.1,9,6.7,-1.92946,2.4,0.6,0.245506,-3.12924e-05,5.58794e-06,-0.204161,0.000327826,-7.45058e-06,0.00880476,0.278075,5,0.1
0,6.8,3.80373,-1.78414,0.562892,0.0200033,-0.866026,0.00905395,-0.00476837,0,-0.00214577,0.00709326,2.27162,5,0.1,1,6.8,0.302286,-1.66078,0.5,0.418801,-0.121808,0,-0.144452,0.0779629,0,0.00835743,0.165057,5,0.1,2,6.8,-1.01211,1.35468,0.500001,0.864649,0.0858217,0,-0.0274479,0.630856,0,0.0121885,2.13524,5,0.1,3,6.8,-2.38356,-1.09824,0.615522,0.518072,0.168797,0.0247002,0.0213385,0.240564,-0.0474453,0.00823939,0.900399,5,0.1,4,6.8,-1.59581,-1.27857,0.606923,0.866026,-0.0412524,-0.00472069,-5.96046e-05,0.21857,-0.048846,0.0103702,2.27365,5,0.1,5,6.8,-1.30929,0.491477,0.552285,-0.0111789,0.0457384,-0.00106543,0.0382066,-0.157669,0.00363588,0.010104,0.000503282,5,0.1,6,6.8,-1.50037,2.44575,0.600011,-0.284958,-0.703353,-2.98023e-06,0.220478,0.457883,2.98023e-05,0.0105179,0.264495,5,0.1,7,6.8,3.14993,2.95591,0.74995,-0.226122,-0.0182748,8.49366e-05,-0.415683,-0.174284,-0.000149012,0.014973,0.211478,5,0.1,8,6.8,-3.10398,-0.934238,0.530698,-0.572258,-0.0681669,0.000469387,0.473976,0.0329912,0.00205636,0.00657666,0.132364,5,0.1,9,6.8,-1.90599,2.4,0.6,0.223193,-5.96046e-06,4.47035e-06,-0.243723,0.000119209,0,0.00916594,0.272584,5,0.1
0,6.9,3.80571,-1.87074,0.56379,0.0197276,-0.866026,0.00893073,-0.00187755,0,-0.00083819,0.00709326,2.27162,5,0.1,1,6.9,0.343557,-1.67259,0.5,0.407238,-0.114596,0,-0.10624,0.0701994,0,0.00835743,0.165057,5,0.1,2,6.9,-0.925656,1.36692,0.500001,0.865024,0.162666,0,0.00803918,0.851497,0,0.0121885,2.13524,5,0.1,3,6.9,-2.33131,-1.07988,0.617737,0.529264,0.20033,0.0194629,0.1598,0.358596,-0.0557192,0.00823939,0.900399,5,0.1,4,6.9,-1.5092,-1.28165,0.60621,0.866025,-0.0207385,-0.00947127,1.49012e-05,0.189386,-0.0446923,0.0103702,2.27365,5,0.1,5,6.9,-1.31023,0.495304,0.552196,-0.0076618,0.031219,-0.000731088,0.0320226,-0.132252,0.00304729,0.010104,0.000503282,5,0.1,6,6.9,-1.52782,2.37758,0.600011,-0.264322,-0.660861,-9.31323e-07,0.200316,0.414237,7.45058e-06,0.0105179,0.264495,5,0.1,7,6.9,3.12525,2.95326,0.749958,-0.266863,-0.034317,7.1153e-05,-0.378028,-0.143275,-0.00013411,0.014973,0.211478,5,0.1,8,6.9,-3.15897,-0.940895,0.530754,-0.528535,-0.064998,0.000648294,0.417531,0.0324883,0.00150129,0.00657666,0.132364,5,0.1,9,6.9,-1.88491,2.4,0.600001,0.198431,1.11759e-06,4.09782e-06,-0.252336,4.47035e-05,-7.45058e-06,0.00916594,0.272584,5,0.1
0,7,3.80767,-1.95734,0.564678,0.0194371,-0.866026,0.00879765,-0.00500679,0,-0.00214577,0.00810993,2.1749,5,0.1,1,7,0.383683,-1.68369,0.5,0.394252,-0.107104,0,-0.167057,0.0822544,0,0.00773683,0.116642,5,0.1,2,7,-0.839217,1.38744,0.500001,0.862367,0.246608,0,-0.0731945,0.786602,0,0.011028,1.6385,5,0.1,3,7,-2.27764,-1.05808,0.619402,0.542676,0.235045,0.0138387,0.0776052,0.312567,-0.0555813,0.00689688,0.681563,5,0.1,4,7,-1.4226,-1.28284,0.605057,0.866026,-0.00375509,-0.0134096,0,0.148773,-0.0330508,0.0115358,2.27215,5,0.1,5,7,-1.31085,0.497809,0.552137,-0.00478625,0.0193536,-0.000457466,0.0253916,-0.104889,0.00241399,0.00888225,0.000303619,5,0.1,6,7,-1.55323,2.31364,0.600011,-0.243542,-0.616759,1.49012e-06,0.220835,0.483036,-2.98023e-05,0.0101991,0.177254,5,0.1,7,7,3.09688,2.94918,0.749964,-0.298166,-0.0463843,5.96046e-05,-0.23365,-0.0959635,-0.000119209,0.0149854,0.152108,5,0.1,8,7,-3.20972,-0.94722,0.530825,-0.485867,-0.0613183,0.00076443,0.447631,0.0425279,0.000834465,0.00745107,0.152952,5,0.1,9,7,-1.86634,2.4,0.600001,0.172624,0,2.98023e-06,-0.263929,0,0,0.00570444,0.501296,5,0.1
0,7.1,3.8096,-2.04394,0.56555,0.0191171,-0.866026,0.00866242,-0.00245869,0,-0.00104308,0.00810993,2.1749,5,0.1,1,7.1,0.422353,-1.69401,0.5,0.379553,-0.0995053,0,-0.142649,0.0729784,0,0.00773683,0.116642,5,0.1,2,7.1,-0.75306,1.41616,0.500001,0.862345,0.327828,0,0.0224821,0.79634,0,0.011028,1.6385,5,0.1,3,7.1,-2.22284,-1.03292,0.620508,0.554094,0.268206,0.0083128,0.117213,0.32641,-0.0538006,0.00689688,0.681563,5,0.1,4,7.1,-1.336,-1.28251,0.603554,0.866026,0.00985973,-0.0165773,0,0.121683,-0.0289716,0.0115358,2.27215,5,0.1,5,7.1,-1.31121,0.499259,0.552103,-0.00252426,0.0100133,-0.000242516,0.0198185,-0.0818335,0.001885,0.00888225,0.000303619,5,0.1,6,7.1,-1.57654,2.25424,0.600011,-0.223084,-0.572085,-1.39698e-06,0.195093,0.428975,-2.6077e-05,0.0101991,0.177254,5,0.1,7,7.1,3.06593,2.9441,0.74997,-0.319955,-0.0548735,4.88944e-05,-0.185505,-0.0712276,-0.000100583,0.0149854,0.152108,5,0.1,8,7.1,-3.25644,-0.95318,0.530906,-0.451664,-0.058214,0.000847317,0.266224,0.023365,0.000759959,0.00745107,0.152952,5,0.1,9,7.1,-1.85141,2.40025,0.600001,0.117653,0.00700168,1.86265e-06,-0.770316,0.12438,-1.49012e-05,0.00570444,0.501296,5,0.1
0,7.2,3.81149,-2.13055,0.56641,0.0187635,-0.866026,0.00850856,-0.00536442,0,-0.00235438,0.00668127,1.7245,5,0.1,1,7.2,0.45953,-1.70359,0.5,0.363065,-0.0919551,0,-0.197947,0.0801682,0,0.0079042,0.173433,5,0.1,2,7.2,-0.666892,1.45266,0.500001,0.858295,0.398794,0,-0.138938,0.593543,0,0.00975372,1.35996,5,0.1,3,7.2,-2.167,-1.00461,0.621081,0.560415,0.296193,0.00327229,-0.0143051,0.216305,-0.0461042,0.00802671,0.494667,5,0.1,4,7.2,-1.24939,-1.28097,0.601767,0.866026,0.0202894,-0.0189826,0,0.0858307,-0.018239,0.00868718,2.27122,5,0.1,5,7.2,-1.31137,0.499889,0.552087,-0.000819564,0.00298545,-8.04663e-05,0.0143051,-0.0588745,0.00137091,0.0114769,0.000137951,5,0.1,6,7.2,-1.59787,2.19921,0.60001,-0.203377,-0.527829,-2.98023e-06,0.203729,0.468731,-2.98023e-05,0.00749484,0.118667,5,0.1,7,7.2,3.0332,2.93831,0.749974,-0.332499,-0.0602126,3.8743e-05,-0.0542402,-0.0338554,-5.96046e-05,0.0166671,0.177508,5,0.1,8,7.2,-3.30038,-0.958891,0.530994,-0.427443,-0.0559881,0.000907481,0.240207,0.0239313,0.00038743,0.00647485,0.0891694,5,0.1,9,7.2,-1.84389,2.40167,0.600001,0.030157,0.0220895,0,-0.928879,0.165343,-2.98023e-05,0.0079191,0.334166,5,0.1
0,7.3,3.81335,-2.21715,0.567251,0.0183303,-0.866026,0.0083182,-0.00415742,0,-0.00184029,0.00668127,1.7245,5,0.1,1,7.3,0.495073,-1.71241,0.5,0.349473,-0.0845792,0,-0.096634,0.0700727,0,0.0079042,0.173433,5,0.1,2,7.3,-0.582725,1.49475,0.500001,0.816365,0.435826,0,-0.66106,0.161499,0,0.00975372,1.35996,5,0.1,3,7.3,-2.11095,-0.973903,0.621184,0.560576,0.317592,-0.00110678,-0.00922382,0.192694,-0.0406429,0.00802671,0.494667,5,0.1,4,7.3,-1.16279,-1.27854,0.599778,0.866026,0.0280065,-0.0207499,0,0.0668094,-0.0158399,0.00868718,2.27122,5,0.1,5,7.3,-1.31139,0.499924,0.552085,0.000391528,-0.0019935,3.54834e-05,0.00996888,-0.0409074,0.0009574,0.0114769,0.000137951,5,0.1,6,7.3,-1.61725,2.14864,0.60001,-0.18466,-0.484695,-5.4948e-06,0.176318,0.409454,-1.86265e-05,0.00749484,0.118667,5,0.1,7,7.3,2.99945,2.93215,0.749978,-0.344104,-0.0626251,3.33413e-05,-0.148073,-0.0128746,-4.47035e-05,0.0166671,0.177508,5,0.1,8,7.3,-3.34207,-0.964385,0.531087,-0.40753,-0.0539834,0.000939425,0.177652,0.0186414,0.000212342,0.00647485,0.0891694,5,0.1,9,7.3,-1.84469,2.40429,0.600001,-0.0387268,0.0268999,-2.42144e-06,-0.474013,-0.0471622,-1.49012e-05,0.0079191,0.334166,5,0.1
0,7.4,3.81516,-2.30375,0.568072,0.017792,-0.866026,0.00807494,-0.00727177,0,-0.00324845,0.00671363,1.33057,5,0.1,1,7.4,0.529552,-1.72051,0.5,0.339815,-0.0774801,0,-0.11304,0.0738502,0,0.00760742,0.128212,5,0.1,2,7.4,-0.504994,1.53852,0.500001,0.733047,0.433943,0,-0.974238,-0.185072,0,0.0115662,1.1972,5,0.1,3,7.4,-2.05511,-0.941346,0.620885,0.554067,0.331543,-0.00471771,-0.139236,0.0733435,-0.0309944,0.00693793,0.346211,5,0.1,4,7.4,-1.07619,-1.27545,0.597636,0.866026,0.0333786,-0.0219375,0,0.0395775,-0.00712276,0.00918864,2.27077,5,0.1,5,7.4,-1.31131,0.499548,0.552093,0.00118613,-0.00524521,0.000110269,0.00602007,-0.0244379,0.000596046,0.0112932,4.71047e-05,5,0.1,6,7.4,-1.63484,2.10222,0.600009,-0.167146,-0.443316,-7.45058e-06,0.177979,0.428915,0,0.01031,0.137355,5,0.1,7,7.4,2.96434,2.92587,0.749981,-0.356984,-0.0625491,2.83122e-05,-0.0880957,0.0151396,-2.98023e-05,0.0147633,0.108644,5,0.1,8,7.4,-3.38191,-0.969683,0.531181,-0.388563,-0.0518396,0.000944734,0.21553,0.0259876,-0.000149012,0.00886246,0.0693803,5,0.1,9,7.4,-1.85036,2.40655,0.600001,-0.0693113,0.0165462,-4.47035e-06,-0.158906,-0.143051,2.98023e-05,0.00858122,0.295465,5,0.1
0,7.5,3.8169,-2.39035,0.568864,0.0171419,-0.865781,0.00778371,-0.0064224,0.00977516,-0.0028871,0.00671363,1.33057,5,0.1,1,7.5,0.563094,-1.72792,0.5,0.331811,-0.0707185,0,-0.0650734,0.0636503,0,0.00760742,0.128212,5,0.1,2,7.5,-0.437112,1.58032,0.500001,0.62079,0.396127,0,-1.2052,-0.533044,0,0.0115662,1.1972,5,0.1,3,7.5,-2.00034,-0.90783,0.620266,0.541374,0.338326,-0.00756234,-0.136264,0.0471845,-0.0252649,0.00693793,0.346211,5,0.1,4,7.5,-0.989587,-1.27193,0.595405,0.866026,0.0368999,-0.0226864,-3.72529e-06,0.0291392,-0.00661984,0.00918864,2.27077,5,0.1,5,7.5,-1.31116,0.498922,0.552106,0.00163838,-0.00706897,0.000154972,0.00309944,-0.0123885,0.000305474,0.0112932,4.71047e-05,5,0.1,6,7.5,-1.6508,2.05968,0.600009,-0.153149,-0.410246,-7.45058e-06,0.111811,0.259444,0,0.01031,0.137355,5,0.1,7,7.5,2.92817,2.91977,0.749983,-0.366233,-0.0586119,2.54251e-05,-0.0778139,0.0604242,-2.6077e-05,0.0147633,0.108644,5,0.1,8,7.5,-3.41985,-0.974755,0.531275,-0.371459,-0.049737,0.000930578,0.146881,0.0186451,-0.000171363,0.00886246,0.0693803,5,0.1,9,7.5,-1.85768,2.40749,0.600001,-0.0734443,0.00255071,-1.95578e-06,0.0576302,-0.131741,1.86265e-05,0.00858122,0.295465,5,0.1
0,7.6,3.81858,-2.4768,0.569627,0.0163972,-0.862122,0.00744313,-0.00917912,0.0782013,-0.00405312,0.00739593,0.997095,5,0.1,1,7.6,0.595908,-1.73467,0.5,0.323719,-0.0643611,0,-0.109553,0.0650883,0,0.00746362,0.161261,5,0.1,2,7.6,-0.381021,1.61695,0.500001,0.502427,0.334042,0,-1.12355,-0.679731,0,0.00965368,1.09135,5,0.1,3,7.6,-1.94703,-0.873906,0.619398,0.52318,0.338452,-0.00966787,-0.242233,-0.0548065,-0.0164211,0.00869391,0.236095,5,0.1,4,7.6,-0.902985,-1.26812,0.593112,0.866026,0.0389218,-0.0230521,0,0.0103116,0.000119209,0.00863278,2.27065,5,0.1,5,7.6,-1.31099,0.498171,0.552123,0.0018239,-0.00779405,0.000174344,0.000715256,-0.00248849,5.96046e-05,0.00966232,1.41823e-05,5,0.1,6,7.6,-1.6656,2.01985,0.600008,-0.143069,-0.386745,-7.45058e-06,0.097096,0.230491,-2.98023e-05,0.00876435,0.464585,5,0.1,7,7.6,2.89131,2.91427,0.749986,-0.369334,-0.0510573,2.23517e-05,0.0288486,0.0880957,-2.98023e-05,0.0129024,0.0610719,5,0.1,8,7.6,-3.45624,-0.979631,0.531367,-0.355726,-0.0476733,0.00090301,0.182033,0.0244379,-0.000357628,0.0112011,0.0315512,5,0.1,9,7.6,-1.8645,2.40714,0.600001,-0.0611454,-0.00897646,0,0.17345,-0.0956059,0,0.00782898,0.285865,5,0.1
0,7.7,3.82018,-2.56292,0.570352,0.0155561,-0.861909,0.00706939,-0.00819564,-0.0231415,-0.00366941,0.00739593,0.997095,5,0.1,1,7.7,0.628056,-1.74083,0.5,0.321708,-0.0593267,0,0.0390708,0.0395179,0,0.00746362,0.161261,5,0.1,2,7.7,-0.336159,1.64678,0.500001,0.398936,0.261815,0,-0.883643,-0.723407,0,0.00965368,1.09135,5,0.1,3,7.7,-1.89585,-0.840328,0.618355,0.500518,0.332877,-0.0111122,-0.228755,-0.069011,-0.0119656,0.00869391,0.236095,5,0.1,4,7.7,-0.816382,-1.26418,0.590803,0.866026,0.0398571,-0.0231529,-3.72529e-06,0.00663847,-0.000916421,0.00863278,2.27065,5,0.1,5,7.7,-1.31081,0.497391,0.55214,0.00180956,-0.00768895,0.000172108,-0.000916421,0.00420772,-9.68575e-05,0.00966232,1.41823e-05,5,0.1,6,7.7,-1.67989,1.98203,0.600007,-0.146637,-0.371935,-9.87202e-06,-0.136025,0.0929162,-1.49012e-05,0.00876435,0.464585,5,0.1,7,7.7,2.85455,2.90963,0.749988,-0.365101,-0.0414357,1.94646e-05,0.0676215,0.101715,-2.6077e-05,0.0129024,0.0610719,5,0.1,8,7.7,-3.49093,-0.984277,0.531455,-0.337935,-0.0452433,0.000862498,0.184476,0.0254959,-0.000473112,0.0112011,0.0315512,5,0.1,9,7.7,-1.8696,2.40587,0.600001,-0.0396993,-0.0154544,0,0.242889,-0.0367016,0,0.00782898,0.285865,5,0.1
0,7.8,3.82169,-2.64905,0.57104,0.0146568,-0.858092,0.00666529,-0.0100136,0.135422,-0.00458956,0.00997823,0.718159,5,0.1,1,7.8,0.660463,-1.74658,0.5,0.326279,-0.0557721,0,0.0300407,0.0345111,0,0.0456681,0.258379,5,0.1,2,7.8,-0.3,1.66953,0.500001,0.331034,0.195697,0,-0.483677,-0.577092,0,0.0237865,0.956288,5,0.1,3,7.8,-1.84704,-0.80749,0.617194,0.47445,0.322598,-0.011979,-0.304639,-0.14472,-0.005126,0.0242719,0.1585,5,0.1,4,7.8,-0.72978,-1.26018,0.588489,0.866026,0.039953,-0.0230297,0,-0.00584126,0.00429153,0.013888,2.27069,5,0.1,5,7.8,-1.31063,0.496652,0.552157,0.00165701,-0.00702441,0.000157952,-0.00196695,0.00874698,-0.000238419,0.0076417,7.79284e-06,5,0.1,6,7.8,-1.6954,1.94526,0.600006,-0.164554,-0.363445,-1.04308e-05,-0.19753,0.0967979,0,0.0076543,0.379536,5,0.1,7,7.8,2.81852,2.906,0.74999,-0.353873,-0.0311732,1.63913e-05,0.164509,0.101447,0,0.0144504,0.157759,5,0.1,8,7.8,-3.52373,-0.988664,0.531539,-0.317067,-0.0423551,0.000806153,0.239849,0.03317,-0.000655651,0.00635491,0.012213,5,0.1,9,7.8,-1.87233,2.40422,0.600001,-0.014779,-0.0168562,0,0.246048,0.00619888,0,0.00815978,0.280478,5,0.1
0,7.9,3.82311,-2.73435,0.571684,0.0137322,-0.848454,0.00624107,-0.0089407,0.0978857,-0.004109,0.00997823,0.718159,5,0.1,1,7.9,0.693459,-1.75199,0.5,0.335101,-0.0522573,0,0.118736,0.0368953,0,0.0456681,0.258379,5,0.1,2,7.9,-0.26851,1.68649,0.500001,0.305547,0.147401,0,-0.0752927,-0.351489,0,0.0237865,0.956288,5,0.1,3,7.9,-1.80104,-0.775927,0.615975,0.44601,0.308673,-0.0123718,-0.27886,-0.143956,-0.00232831,0.0242719,0.1585,5,0.1,4,7.9,-0.643177,-1.25621,0.586201,0.866026,0.0394996,-0.0227641,-3.72529e-06,-0.00500679,0.00222027,0.013888,2.27069,5,0.1,5,7.9,-1.31048,0.495998,0.552171,0.00142306,-0.00600177,0.000131596,-0.00263751,0.0113714,-0.000286847,0.0076417,7.79284e-06,5,0.1,6,7.9,-1.71261,1.90924,0.600005,-0.17737,-0.357922,-1.03377e-05,-0.0609085,0.035122,3.72529e-06,0.0076543,0.379536,5,0.1,7,7.9,2.78391,2.90338,0.749991,-0.338464,-0.0214953,1.60187e-05,0.156328,0.0907034,-7.45058e-06,0.0144504,0.157759,5,0.1,8,7.9,-3.55422,-0.992731,0.531616,-0.292543,-0.0389578,0.000737142,0.255436,0.0353605,-0.000733882,0.00635491,0.012213,5,0.1,9,7.9,-1.87257,2.40262,0.600001,0.00982173,-0.0145268,0,0.238314,0.0363737,0,0.00815978,0.280478,5,0.1
0,8,3.82444,-2.81849,0.572287,0.0127912,-0.831658,0.00580847,-0.010252,0.266075,-0.00470877,0.00799037,0.502402,5,0.1,1,8,0.727523,-1.75702,0.5,0.345258,-0.0482142,0,0.064373,0.0446439,0,0.00691366,0.193658,5,0.1,2,8,-0.237991,1.7,0.500001,0.307261,0.127891,0,0.0716746,-0.0511408,0,0.0104329,0.782051,5,0.1,3,8,-1.75789,-0.745846,0.614733,0.416204,0.292109,-0.0123784,-0.327289,-0.194132,0.00241399,0.00755733,0.105639,5,0.1,4,8,-0.556575,-1.25229,0.583941,0.866026,0.0386506,-0.022383,0,-0.0132918,0.00622869,0.00876006,2.10005,5,0.1,5,8,-1.31035,0.495457,0.552183,0.00114441,-0.0048086,0.000104308,-0.00292063,0.0122041,-0.000327826,0.0105752,7.43293e-06,5,0.1,6,8,-1.73044,1.87367,0.600004,-0.177225,-0.352743,-8.9407e-06,0.0609756,0.0837445,0,0.00705749,0.3284,5,0.1,7,8,2.75092,2.90165,0.749993,-0.3205,-0.013262,1.49012e-05,0.211358,0.0731945,0,0.0109093,0.13542,5,0.1,8,8,-3.58214,-0.996443,0.531686,-0.265223,-0.0351906,0.000658631,0.293851,0.0402629,-0.000834465,0.00903574,0.00631069,5,0.1,9,8,-1.87046,2.40138,0.600001,0.0315845,-0.0102878,0,0.19145,0.0456572,0,0.00846659,0.276115,5,0.1
0,8.1,3.82567,-2.90045,0.572846,0.0118472,-0.807869,0.00537457,-0.0090301,0.242487,-0.00414625,0.00799037,0.502402,5,0.1,1,8.1,0.762465,-1.76162,0.5,0.353977,-0.0439174,0,0.0882819,0.0422597,0,0.00691366,0.193658,5,0.1,2,8.1,-0.206537,1.71311,0.500001,0.324567,0.139143,0,0.236629,0.236057,0,0.0104329,0.782051,5,0.1,3,8.1,-1.71781,-0.717562,0.613509,0.385838,0.273782,-0.0120892,-0.292316,-0.180904,0.00370666,0.00755733,0.105639,5,0.1,4,8.1,-0.469972,-1.24848,0.581727,0.866026,0.0375306,-0.0219175,-3.57628e-06,-0.010781,0.00417605,0.00876006,2.10005,5,0.1,5,8.1,-1.31025,0.495038,0.552192,0.00084918,-0.00357432,7.26432e-05,-0.00292808,0.0122376,-0.000298023,0.0105752,7.43293e-06,5,0.1,6,8.1,-1.74761,1.83873,0.600003,-0.163928,-0.346582,-8.84756e-06,0.19449,0.0566021,3.72529e-06,0.00705749,0.3284,5,0.1,7,8.1,2.71994,2.90066,0.749995,-0.298849,-0.00698268,1.44355e-05,0.227645,0.0521243,-1.11759e-05,0.0109093,0.13542,5,0.1,8,8.1,-3.60721,-0.999763,0.531748,-0.23635,-0.0312332,0.00057593,0.287265,0.0393242,-0.000827014,0.00903574,0.00631069,5,0.1,9,8.1,-1.8664,2.40057,0.600001,0.0490543,-0.00589862,0,0.153914,0.0402629,0,0.00846659,0.276115,5,0.1
0,8.2,3.82681,-2.97985,0.573363,0.0109196,-0.777638,0.00495017,-0.00989437,0.384688,-0.00450015,0.00669618,0.344036,5,0.1,1,8.2,0.798198,-1.7658,0.5,0.359222,-0.0396013,0,0.0013411,0.0446439,0,0.00763228,0.139946,5,0.1,2,8.2,-0.17288,1.72841,0.500001,0.348017,0.168017,0,0.204481,0.3106,0,0.0110291,0.615028,5,0.1,3,8.2,-1.68071,-0.691123,0.612323,0.355673,0.254506,-0.0115812,-0.319481,-0.210375,0.00667572,0.00721595,0.120841,5,0.1,4,8.2,-0.383369,-1.24479,0.57956,0.866025,0.0362128,-0.0213608,1.43051e-05,-0.0167489,0.0076592,0.00904192,1.65846,5,0.1,5,8.2,-1.31018,0.49474,0.552198,0.000569224,-0.00240281,4.47035e-05,-0.00268221,0.0110418,-0.000268221,0.00804949,6.08373e-06,5,0.1,6,8.2,-1.76288,1.80442,0.600002,-0.140256,-0.338522,-7.45058e-06,0.270128,0.116646,0,0.0112772,0.290006,5,0.1,7,8.2,2.69126,2.90019,0.749996,-0.274009,-0.00284314,1.3411e-05,0.272512,0.0309944,-2.98023e-05,0.0109191,0.249185,5,0.1,8,8.2,-3.6294,-1.00269,0.531801,-0.20721,-0.0272602,0.000493228,0.297785,0.0404716,-0.000834465,0.00757606,0.00191084,5,0.1,9,8.2,-1.86081,2.40016,0.600001,0.0617146,-0.0025034,0,0.0967979,0.0268221,0,0.0116661,0.272877,5,0.1
0,8.3,3.82785,-3.05581,0.573836,0.0100125,-0.742067,0.0045374,-0.00856817,0.353634,-0.0039041,0.00669618,0.344036,5,0.1,1,8.3,0.834173,-1.76955,0.5,0.360299,-0.035413,0,0.00288337,0.0399649,0,0.00763228,0.139946,5,0.1,2,8.3,-0.13691,1.74699,0.500001,0.372078,0.205116,0,0.24742,0.400864,0,0.0110291,0.615028,5,0.1,3,8.3,-1.64648,-0.666545,0.611192,0.331239,0.238466,-0.0110802,-0.190794,-0.125632,0.00399724,0.00721595,0.120841,5,0.1,4,8.3,-0.296768,-1.24125,0.577458,0.865992,0.0347037,-0.0206969,-0.00133917,-0.0147969,0.00650063,0.00904192,1.65846,5,0.1,5,8.3,-1.31013,0.494553,0.552201,0.000315718,-0.00135559,2.02097e-05,-0.00234693,0.0097584,-0.000219792,0.00804949,6.08373e-06,5,0.1,6,8.3,-1.77549,1.77109,0.600002,-0.111393,-0.328333,-7.35745e-06,0.299655,0.100926,3.72529e-06,0.0112772,0.290006,5,0.1,7,8.3,2.66525,2.90004,0.749997,-0.245718,-0.000298396,1.05239e-05,0.293776,0.0198632,-2.6077e-05,0.0109191,0.249185,5,0.1,8,8.3,-3.64865,-1.00522,0.531846,-0.177964,-0.0232946,0.000412017,0.287816,0.0389069,-0.000789762,0.00757606,0.00191084,5,0.1,9,8.3,-1.85422,2.40002,0.600001,0.0694873,-0.000587106,0,0.0570193,0.0119805,0,0.0116661,0.272877,5,0.1
0,8.4,3.82881,-3.12812,0.574271,0.00915527,-0.702399,0.0041455,-0.00905991,0.458121,-0.00405312,0.00573861,0.232461,5,0.1,1,8.4,0.870105,-1.77289,0.5,0.356884,-0.0314653,0,-0.0830889,0.0395775,0,0.00755497,0.169248,5,0.1,2,8.4,-0.0985915,1.76945,0.500001,0.392491,0.242907,0,0.140038,0.332713,0,0.014793,0.464433,5,0.1,3,8.4,-1.61424,-0.643289,0.610104,0.313765,0.226748,-0.0106692,-0.174642,-0.119895,0.00461936,0.00756821,0.0701818,5,0.1,4,8.4,-0.210186,-1.23786,0.575425,0.86549,0.033024,-0.0199124,-0.010699,-0.0197291,0.00983477,0.00870502,1.27348,5,0.1,5,8.4,-1.31011,0.494463,0.552202,0.000104308,-0.000475347,1.49012e-06,-0.00184774,0.0077635,-0.000178814,0.0103162,3.69957e-06,5,0.1,6,8.4,-1.78513,1.73883,0.600001,-0.0816435,-0.316,-5.96046e-06,0.289679,0.155091,0,0.00682953,1.15616,5,0.1,7,8.4,2.64219,2.90009,0.749998,-0.21522,0.00114441,7.45058e-06,0.315905,0.00917912,0,0.0116071,0.243334,5,0.1,8,8.4,-3.66502,-1.00735,0.531884,-0.149566,-0.0194699,0.000335276,0.280142,0.0375509,-0.000745058,0.00904948,0.000894839,5,0.1,9,8.4,-1.84706,2.4,0.600001,0.0728786,5.96046e-05,0,0.0101328,0.00214577,0,0.0109714,0.271032,5,0.1
0,8.5,3.82968,-3.1962,0.574666,0.00833012,-0.659888,0.00377558,-0.0077039,0.414342,-0.00347197,0.00573861,0.232461,5,0.1,1,8.5,0.905666,-1.77586,0.5,0.356466,-0.0281554,0,0.0445433,0.0281334,0,0.00755497,0.169248,5,0.1,2,8.5,-0.0585928,1.79546,0.500001,0.407385,0.27732,0,0.134782,0.332035,0,0.014793,0.464433,5,0.1,3,8.5,-1.58363,-0.621142,0.609058,0.299204,0.216629,-0.0102582,-0.130795,-0.0924543,0.00401959,0.00756821,0.0701818,5,0.1,4,8.5,-0.123644,-1.23465,0.57348,0.86545,0.0312118,-0.0190171,-0.00429764,-0.0176355,0.00878796,0.00870502,1.27348,5,0.1,5,8.5,-1.31011,0.494452,0.552201,-6.10948e-05,0.000221562,-1.36904e-05,-0.00144541,0.00610575,-0.000122935,0.0103162,3.69957e-06,5,0.1,6,8.5,-1.79179,1.70795,0.6,-0.0512585,-0.301813,-5.86733e-06,0.299945,0.139929,3.72529e-06,0.00682953,1.15616,5,0.1,7,8.5,2.62222,2.90031,0.749999,-0.184201,0.00369474,7.07805e-06,0.304669,0.0326037,-7.45058e-06,0.0116071,0.243334,5,0.1,8,8.5,-3.67861,-1.00912,0.531913,-0.122505,-0.015852,0.000264123,0.260562,0.0347272,-0.000670552,0.00904948,0.000894839,5,0.1,9,8.5,-1.83977,2.40001,0.600001,0.0724448,0.000127032,0,-0.0190809,-0.000432134,0,0.0109714,0.271032,5,0.1
0,8.6,3.83048,-3.26004,0.575027,0.00756383,-0.615793,0.00343025,-0.0077486,0.482798,-0.00351667,0.0063031,0.156025,5,0.1,1,8.6,0.941543,-1.77855,0.5,0.360572,-0.0255764,0,0.0155866,0.0245571,0,0.00593182,0.104018,5,0.1,2,8.6,-0.0173436,1.8247,0.500001,0.415552,0.305316,0,0.0126916,0.211418,0,0.0147379,0.462516,5,0.1,3,8.6,-1.55438,-0.599963,0.608054,0.285187,0.206561,-0.00979602,-0.159621,-0.115812,0.00557303,0.00759713,0.0542401,5,0.1,4,8.6,-0.0372206,-1.23162,0.571625,0.861632,0.0293076,-0.0180319,-0.0878787,-0.0211596,0.0113547,0.00986767,0.949348,5,0.1,5,8.6,-1.31012,0.494502,0.552199,-0.000184774,0.000736117,-2.38419e-05,-0.00089407,0.00414252,-8.9407e-05,0.0103789,1.65046e-06,5,0.1,6,8.6,-1.79551,1.67852,0.6,-0.0245631,-0.286114,-4.47035e-06,0.222981,0.181735,-2.98023e-05,0.00720125,2.21722,5,0.1,7,8.6,2.60531,2.90082,0.75,-0.154287,0.00618696,5.96046e-06,0.293851,0.0116825,0,0.0110097,1.2135,5,0.1,8,8.6,-3.68959,-1.01053,0.531937,-0.0975549,-0.0125378,0.000201166,0.237942,0.0314713,-0.000596046,0.00812847,0.000734849,5,0.1,9,8.6,-1.83267,2.40002,0.600001,0.069052,3.57628e-05,0,-0.0485182,-0.00119209,0,0.00996618,0.270309,5,0.1
0,8.7,3.8312,-3.31934,0.575353,0.00686049,-0.571144,0.00311043,-0.00655651,0.428692,-0.00298023,0.0063031,0.156025,5,0.1,1,8.7,0.977749,-1.78099,0.5,0.363757,-0.0234386,0,0.028573,0.0192001,0,0.00593182,0.104018,5,0.1,2,8.7,0.0244552,1.85628,0.500001,0.421496,0.325895,0,0.0778365,0.181705,0,0.0147379,0.462516,5,0.1,3,8.7,-1.52654,-0.579804,0.607099,0.272428,0.197164,-0.00932142,-0.110298,-0.0824779,0.00435859,0.00759713,0.0542401,5,0.1,4,8.7,0.0487792,-1.22879,0.569875,0.85986,0.0273567,-0.0169851,0.00330836,-0.0187755,0.01017,0.00986767,0.949348,5,0.1,5,8.7,-1.31015,0.494594,0.552197,-0.000258721,0.00107819,-3.05474e-05,-0.000573695,0.00268593,-4.47035e-05,0.0103789,1.65046e-06,5,0.1,6,8.7,-1.79678,1.65076,0.599999,-0.00136178,-0.269327,-6.51926e-06,0.190042,0.163317,-7.45058e-06,0.00720125,2.21722,5,0.1,7,8.7,2.59021,2.9015,0.75,-0.157359,0.00695921,5.86733e-06,-0.286132,-0.0090152,-3.72529e-06,0.0110097,1.2135,5,0.1,8,8.7,-3.6982,-1.01164,0.531954,-0.0750642,-0.0095712,0.000145938,0.211164,0.0277683,-0.000510365,0.00812847,0.000734849,5,0.1,9,8.7,-1.82602,2.40002,0.600001,0.0638796,-3.61353e-05,0,-0.0556186,-0.000372529,0,0.00996618,0.270309,5,0.1
0,8.8,3.83185,-3.37428,0.57565,0.00621676,-0.526923,0.00281781,-0.00655651,0.468135,-0.00301003,0.00548177,0.104538,5,0.1,1,8.8,1.01416,-1.78324,0.5,0.362983,-0.021565,0,-0.0575185,0.0190735,0,0.00581634,0.104794,5,0.1,2,8.8,0.0669111,1.88961,0.500001,0.426269,0.33856,0,-0.00255167,0.0590086,0,0.00995757,0.333808,5,0.1,3,8.8,-1.49987,-0.560514,0.606189,0.260624,0.188309,-0.0088498,-0.136077,-0.101924,0.00536442,0.0113027,0.0245224,5,0.1,4,8.8,0.134603,-1.22615,0.568229,0.853921,0.0253975,-0.0158966,-0.156685,-0.0211,0.0119805,0.00741082,0.681052,5,0.1,5,8.8,-1.31017,0.494712,0.552193,-0.000301003,0.00127181,-3.27826e-05,-0.000238419,0.0012219,-2.98023e-05,0.00854466,5.412e-07,5,0.1,6,8.8,-1.79633,1.62468,0.599998,0.00623465,-0.251886,-7.45058e-06,-0.059247,0.191927,0,0.011032,2.05473,5,0.1,7,8.8,2.57255,2.90204,0.750001,-0.199217,0.00267029,5.96046e-06,-0.497341,-0.0811815,-2.98023e-05,0.0107861,1.01028,5,0.1,8,8.8,-3.7047,-1.01246,0.531966,-0.0554383,-0.00700057,9.98378e-05,0.181079,0.0237226,-0.000417233,0.00729198,0.000581516,5,0.1,9,8.8,-1.81992,2.40002,0.600001,0.0578314,-5.36442e-05,0,-0.0657439,-0.000119209,0,0.0117823,0.267976,5,0.1
0,8.9,3.83244,-3.42477,0.575917,0.0056237,-0.483844,0.00254568,-0.00548363,0.408903,-0.0025183,0.00548177,0.104538,5,0.1,1,8.9,1.05016,-1.78537,0.5,0.356608,-0.0213956,0,-0.0822172,-0.011377,0,0.00581634,0.104794,5,0.1,2,8.9,0.109613,1.92375,0.500001,0.42806,0.343823,0,0.0159056,0.0314787,0,0.00995757,0.333808,5,0.1,3,8.9,-1.47447,-0.542182,0.605331,0.247315,0.178306,-0.00831783,-0.137843,-0.103552,0.00549853,0.0113027,0.0245224,5,0.1,4,8.9,0.21937,-1.22371,0.566696,0.841984,0.0234567,-0.0147915,-0.121346,-0.0184774,0.0106096,0.00741082,0.681052,5,0.1,5,8.9,-1.31021,0.494844,0.55219,-0.000313669,0.00134185,-3.39933e-05,-2.98023e-05,0.00019744,3.72529e-06,0.00854466,5.412e-07,5,0.1,6,8.9,-1.79632,1.60039,0.599998,-0.0113193,-0.234169,-7.07805e-06,-0.358552,0.170141,7.45058e-06,0.011032,2.05473,5,0.1,7,8.9,2.54968,2.90183,0.750001,-0.261527,-0.00821538,3.44589e-06,-0.69648,-0.158802,-1.86265e-05,0.0107861,1.01028,5,0.1,8,8.9,-3.70939,-1.01305,0.531974,-0.0387464,-0.00482164,6.21192e-05,0.152335,0.0198036,-0.000339001,0.00729198,0.000581516,5,0.1,9,8.9,-1.81449,2.40009,0.600001,0.0506872,0.00193901,0,-0.0761971,0.0309199,0,0.0117823,0.267976,5,0.1
0,9,3.83298,-3.4711,0.57616,0.00509024,-0.442523,0.00229925,-0.00548363,0.4282,-0.00247359,0.00590094,0.121019,5,0.1,1,9,1.08529,-1.78758,0.5,0.344518,-0.0230849,0,-0.167489,-0.0190139,0,0.00633944,0.112781,5,0.1,2,9,0.152378,1.95815,0.500001,0.425645,0.34239,0,-0.0797737,-0.0699759,0,0.00981924,0.233478,5,0.1,3,9,-1.45048,-0.524907,0.604528,0.231779,0.166708,-0.00771284,-0.17786,-0.131875,0.00673532,0.00840152,0.0147524,5,0.1,4,9,0.302757,-1.22146,0.565271,0.82301,0.0215709,-0.0136897,-0.285252,-0.0197291,0.0117123,0.0105245,0.475041,5,0.1,5,9,-1.31024,0.494978,0.552187,-0.000306964,0.00131577,-3.12924e-05,0.000178814,-0.000700355,0,0.00768925,1.48151e-07,5,0.1,6,9,-1.8,1.57784,0.599997,-0.0692725,-0.21655,-5.96046e-06,-0.771761,0.187457,0,0.00911316,1.77258,5,0.1,7,9,2.52007,2.9,0.750001,-0.329399,-0.0304163,1.49012e-06,-0.622272,-0.276208,-2.98023e-05,0.0142469,0.811412,5,0.1,8,9,-3.71255,-1.01344,0.531979,-0.025034,-0.0030458,3.27826e-05,0.121832,0.015676,-0.000238419,0.00703207,0.0003581,5,0.1,9,9,-1.80981,2.40043,0.600001,0.0427723,0.00465512,0,-0.0812411,0.0180006,0,0.0104266,0.253098,5,0.1
0,9.1,3.83346,-3.51356,0.576379,0.00466928,-0.409506,0.00210917,-0.00324845,0.259027,-0.00147894,0.00590094,0.121019,5,0.1,1,9.1,1.11896,-1.78997,0.5,0.329195,-0.024391,0,-0.151977,-0.00593066,0,0.00633944,0.112781,5,0.1,2,9.1,0.194599,1.99204,0.500001,0.418866,0.335329,0,-0.07388,-0.0833049,0,0.00981924,0.233478,5,0.1,3,9.1,-1.42817,-0.508882,0.60379,0.214421,0.153837,-0.00705505,-0.17532,-0.129778,0.00659749,0.00840152,0.0147524,5,0.1,4,9.1,0.383753,-1.21939,0.563957,0.797317,0.0197629,-0.0126126,-0.260456,-0.0170693,0.0102408,0.0105245,0.475041,5,0.1,5,9.1,-1.31027,0.495105,0.552184,-0.000282936,0.00121682,-2.96161e-05,0.000305474,-0.00124611,2.98023e-05,0.00768925,1.48151e-07,5,0.1,6,9.1,-1.81169,1.55707,0.599996,-0.171364,-0.199308,-5.58794e-06,-1.18691,0.163816,7.45058e-06,0.00911316,1.77258,5,0.1,7,9.1,2.4839,2.8953,0.750001,-0.394392,-0.0656221,-1.02445e-06,-0.637472,-0.400856,-1.86265e-05,0.0142469,0.811412,5,0.1,8,9.1,-3.71449,-1.01367,0.531981,-0.0141468,-0.00165086,1.17347e-05,0.0958592,0.0122115,-0.000178814,0.00703207,0.0003581,5,0.1,9,9.1,-1.80594,2.40106,0.600001,0.0346785,0.00801273,0,-0.0798777,0.0242144,0,0.0104266,0.253098,5,0.1
0,9.2,3.83392,-3.55332,0.576583,0.00438094,-0.386041,0.00197887,-0.00274181,0.230074,-0.0012517,0.00659615,0.0705181,5,0.1,1,9.2,1.15106,-1.79241,0.5,0.311944,-0.0241041,0,-0.201821,0.0120997,0,0.00537691,0.196721,5,0.1,2,9.2,0.236006,2.02506,0.500001,0.40783,0.323719,0,-0.159182,-0.15676,0,0.009342,0.159858,5,0.1,3,9.2,-1.40764,-0.494171,0.603118,0.195748,0.140078,-0.00636578,-0.201941,-0.147954,0.00730157,0.0099402,0.00467087,5,0.1,4,9.2,0.462011,-1.2175,0.562747,0.765559,0.0180483,-0.0115708,-0.396476,-0.0177622,0.0108182,0.0103278,0.3247,5,0.1,5,9.2,-1.31029,0.495219,0.552181,-0.00025034,0.00107139,-2.68221e-05,0.000417233,-0.00159442,8.9407e-05,0.00716127,8.68458e-08,5,0.1,6,9.2,-1.83488,1.53796,0.599996,-0.292075,-0.182694,-4.47035e-06,-1.16456,0.172853,0,0.00667004,1.42879,5,0.1,7,9.2,2.44151,2.88671,0.750001,-0.450045,-0.105858,-1.49012e-06,-0.447392,-0.383496,-2.98023e-05,0.0139781,0.61541,5,0.1,8,9.2,-3.71546,-1.01378,0.531981,-0.00585914,-0.000602007,-2.98023e-06,0.0700951,0.00888109,-0.000119209,0.00717266,0.000167516,5,0.1,9,9.2,-1.80286,2.40184,0.600001,0.0269353,0.00597239,0,-0.0744462,-0.0754595,0,0.00831353,0.214996,5,0.1
0,9.3,3.83434,-3.59092,0.576776,0.00415929,-0.366943,0.00187736,-0.00189245,0.169635,-0.000871718,0.00659615,0.0705181,5,0.1,1,9.3,1.18119,-1.79471,0.5,0.290058,-0.0215052,0,-0.238828,0.0373051,0,0.00537691,0.196721,5,0.1,2,9.3,0.276045,2.05667,0.500001,0.393099,0.308659,0,-0.150167,-0.154421,0,0.009342,0.159858,5,0.1,3,9.3,-1.38908,-0.480904,0.602518,0.175419,0.125215,-0.00563795,-0.206627,-0.150668,0.00731274,0.0099402,0.00467087,5,0.1,4,9.3,0.536706,-1.21578,0.561641,0.728872,0.0164283,-0.0105795,-0.363387,-0.0151768,0.00934675,0.0103278,0.3247,5,0.1,5,9.3,-1.31032,0.495318,0.552179,-0.000207685,0.00090152,-1.83471e-05,0.000439584,-0.00177324,7.82311e-05,0.00716127,8.68458e-08,5,0.1,6,9.3,-1.87016,1.5205,0.599995,-0.41444,-0.166868,-4.09782e-06,-1.21976,0.149064,7.45058e-06,0.00667004,1.42879,5,0.1,7,9.3,2.39428,2.87414,0.750001,-0.49381,-0.145864,-3.91155e-06,-0.396669,-0.396132,-1.49012e-05,0.0139781,0.61541,5,0.1,8,9.3,-3.71573,-1.0138,0.531981,0.000120699,0.000149757,-1.27591e-05,0.0497103,0.00618398,-7.82311e-05,0.00717266,0.000167516,5,0.1,9,9.3,-1.80053,2.40194,0.600001,0.0198465,-0.0060536,0,-0.0668466,-0.199527,0,0.00831353,0.214996,5,0.1
0,9.4,3.83475,-3.62674,0.576959,0.00396371,-0.349087,0.00178665,-0.00214577,0.200033,-0.000953674,0.00862428,0.0550384,5,0.1,1,9.4,1.20892,-1.79665,0.5,0.263751,-0.0171065,0,-0.288665,0.0485778,0,0.00685855,0.283227,5,0.1,2,9.4,0.314521,2.08671,0.500001,0.375324,0.291163,0,-0.215337,-0.201941,0,0.00894835,0.1105,5,0.1,3,9.4,-1.37259,-0.469149,0.601991,0.154129,0.109744,-0.00489652,-0.220001,-0.159383,0.00759959,0.00745137,0.00141192,5,0.1,4,9.4,0.607657,-1.21421,0.56063,0.68849,0.014919,-0.00964403,-0.462115,-0.0152588,0.00962615,0.0099012,0.219195,5,0.1,5,9.4,-1.31033,0.495399,0.552177,-0.000166893,0.000721961,-1.19209e-05,0.000476837,-0.00177324,8.9407e-05,0.00946195,9.32563e-08,5,0.1,6,9.4,-1.91737,1.50456,0.599995,-0.525215,-0.151965,-2.98023e-06,-0.950694,0.152647,0,0.00636789,1.08857,5,0.1,7,9.4,2.34321,2.85769,0.75,-0.524122,-0.181574,-4.47035e-06,-0.188112,-0.303268,-2.98023e-05,0.0117947,0.443692,5,0.1,8,9.4,-3.71551,-1.01376,0.531979,0.00414848,0.00064671,-1.78814e-05,0.0308752,0.00369549,-5.96046e-05,0.00911548,5.86651e-05,5,0.1,9,9.4,-1.79886,2.4,0.600001,0.0136495,-0.0359774,0,-0.056684,-0.385046,0,0.00805272,0.153447,5,0.1
0,9.5,3.83514,-3.66081,0.577134,0.0037998,-0.333217,0.00171373,-0.0013411,0.13572,-0.000607222,0.00862428,0.0550384,5,0.1,1,9.5,1.23388,-1.79811,0.5,0.235559,-0.0121394,0,-0.278756,0.0491813,0,0.00685855,0.283227,5,0.1,2,9.5,0.350893,2.11486,0.500001,0.351203,0.272122,0,-0.270247,-0.187233,0,0.00894835,0.1105,5,0.1,3,9.5,-1.35827,-0.458966,0.601539,0.132294,0.0939581,-0.00415007,-0.216693,-0.156321,0.00732765,0.00745137,0.00141192,5,0.1,4,9.5,0.674326,-1.21279,0.55971,0.645633,0.0135321,-0.00876645,-0.416666,-0.0129342,0.00821427,0.0099012,0.219195,5,0.1,5,9.5,-1.31035,0.495463,0.552176,-0.000121817,0.000546873,-4.19095e-06,0.000432134,-0.00170618,7.07805e-05,0.00946195,9.32563e-08,5,0.1,6,9.5,-1.97462,1.49007,0.599995,-0.618358,-0.138051,-2.6077e-06,-0.863634,0.130132,7.45058e-06,0.00636789,1.08857,5,0.1,7,9.5,2.28988,2.83802,0.75,-0.54144,-0.211178,-6.79865e-06,-0.133395,-0.273004,-1.11759e-05,0.0117947,0.443692,5,0.1,8,9.5,-3.71496,-1.01368,0.531977,0.00652857,0.000924803,-2.20723e-05,0.0170916,0.0019297,-2.6077e-05,0.00911548,5.86651e-05,5,0.1,9,9.5,-1.79777,2.39413,0.600001,0.00844337,-0.0840086,0,-0.047192,-0.53902,0,0.00805272,0.153447,5,0.1
0,9.6,3.83551,-3.69343,0.577302,0.00365376,-0.318813,0.00164807,-0.00166893,0.165105,-0.000745058,0.00690691,0.0250871,5,0.1,1,9.6,1.25603,-1.79909,0.5,0.207421,-0.00753105,0,-0.286043,0.0419617,0,0.00766651,0.406968,5,0.1,2,9.6,0.384552,2.1411,0.500001,0.320832,0.252318,0,-0.338435,-0.214577,0,0.0100533,0.175436,5,0.1,3,9.6,-1.34612,-0.450346,0.60116,0.110823,0.0785023,-0.00343174,-0.21255,-0.152573,0.00700355,0.006212,0.00077946,5,0.1,4,9.6,0.736737,-1.2115,0.558874,0.601514,0.0122577,-0.00795275,-0.480473,-0.0128746,0.00828505,0.00830916,0.147088,5,0.1,5,9.6,-1.31036,0.495509,0.552176,-8.34465e-05,0.000385195,1.49012e-06,0.000357628,-0.00151992,2.98023e-05,0.00919105,8.02651e-08,5,0.1,6,9.6,-2.04031,1.47691,0.599994,-0.689763,-0.125173,-1.49012e-06,-0.531077,0.130594,0,0.00896601,0.783344,5,0.1,7,9.6,2.23533,2.8157,0.749999,-0.546652,-0.233501,-7.45058e-06,0.0456572,-0.16284,-2.98023e-05,0.0108107,0.631562,5,0.1,8,9.6,-3.71424,-1.01358,0.531975,0.00765324,0.00104606,-2.23517e-05,0.00560284,0.000417233,-2.98023e-05,0.00747659,1.75048e-05,5,0.1,9,9.6,-1.79714,2.38303,0.600001,0.00424683,-0.137419,0,-0.0366569,-0.502229,0,0.0101776,0.093136,5,0.1
0,9.7,3.83587,-3.72451,0.577463,0.00349134,-0.302746,0.00157515,-0.00169873,0.16591,-0.000763685,0.00690691,0.0250871,5,0.1,1,9.7,1.27536,-1.79955,0.5,0.179208,-0.00108741,0,-0.278644,0.0739992,0,0.00766651,0.406968,5,0.1,2,9.7,0.41472,2.16544,0.500001,0.280593,0.235841,-9.31323e-08,-0.455035,-0.129893,-3.72529e-06,0.0100533,0.175436,5,0.1,3,9.7,-1.33608,-0.443243,0.600851,0.0902193,0.0637359,-0.00275811,-0.198819,-0.14226,0.00644848,0.006212,0.00077946,5,0.1,4,9.7,0.794623,-1.21033,0.558118,0.557113,0.0110917,-0.0072008,-0.425555,-0.0108182,0.0069961,0.00830916,0.147088,5,0.1,5,9.7,-1.31037,0.49554,0.552177,-5.10365e-05,0.000242237,4.00469e-06,0.000298023,-0.0013262,1.86265e-05,0.00919105,8.02651e-08,5,0.1,6,9.7,-2.11185,1.46501,0.599994,-0.739265,-0.113319,-1.39698e-06,-0.420734,0.110246,3.72529e-06,0.00896601,0.783344,5,0.1,7,9.7,2.18058,2.79156,0.749998,-0.550342,-0.248611,-9.49949e-06,-0.0794828,-0.126854,-7.45058e-06,0.0108107,0.631562,5,0.1,8,9.7,-3.71346,-1.01347,0.531972,0.00780113,0.00103731,-2.36556e-05,-0.00222027,-0.000528991,0,0.00747659,1.75048e-05,5,0.1,9,9.7,-1.79689,2.36678,0.600001,0.00101402,-0.186798,0,-0.0279397,-0.464156,0,0.0101776,0.093136,5,0.1
0,9.8,3.83621,-3.75389,0.577617,0.00329614,-0.284034,0.00148714,-0.00238419,0.214934,-0.00107288,0.00785217,0.0152272,5,0.1,1,9.8,1.2919,-1.79932,0.5,0.151649,0.00519156,0,-0.272691,0.0437498,0,0.00755434,1.60408,5,0.1,2,9.8,0.44039,2.18841,0.500001,0.23191,0.22375,0,-0.509068,-0.122905,-2.98023e-05,0.0089052,0.156917,5,0.1,3,9.8,-1.32802,-0.43756,0.600607,0.0711858,0.0501409,-0.00214577,-0.181317,-0.129253,0.00581145,0.0110763,0.000699232,5,0.1,4,9.8,0.848178,-1.20928,0.557432,0.51336,0.0100315,-0.0065133,-0.461906,-0.0107288,0.00694394,0.00745543,0.0985744,5,0.1,5,9.8,-1.31037,0.495558,0.552177,-2.38419e-05,0.000122935,5.96046e-06,0.000178814,-0.00105798,0,0.00753137,4.97269e-08,5,0.1,6,9.8,-2.18744,1.45422,0.599994,-0.767541,-0.102481,-1.49012e-06,-0.119209,0.109076,2.98023e-05,0.00819453,0.53975,5,0.1,7,9.8,2.12521,2.76621,0.749997,-0.555682,-0.256789,-8.9407e-06,0.00154972,-0.0283718,-2.98023e-05,0.0102526,0.462574,5,0.1,8,9.8,-3.7127,-1.01337,0.53197,0.00728965,0.000950694,-2.08616e-05,-0.0077486,-0.00119209,0,0.00701373,8.60776e-06,5,0.1,9,9.8,-1.79691,2.34599,0.600001,-0.00133812,-0.226688,0,-0.0191331,-0.319362,0,0.00918184,0.123794,5,0.1
0,9.9,3.83652,-3.78124,0.57776,0.0030648,-0.263093,0.00138246,-0.00233948,0.211462,-0.00105798,0.00785217,0.0152272,5,0.1,1,9.9,1.30626,-1.79846,0.500206,0.140298,0.0121349,0.00585169,0.0126883,0.054054,0.104032,0.00755434,1.60408,5,0.1,2,9.9,0.461002,2.21025,0.500001,0.180228,0.213356,-1.86265e-06,-0.515565,-0.0947714,-1.49012e-05,0.0089052,0.156917,5,0.1,3,9.9,-1.32178,-0.433168,0.60042,0.0540471,0.0379404,-0.00160066,-0.160761,-0.114275,0.00507012,0.0110763,0.000699232,5,0.1,4,9.9,0.897341,-1.20833,0.556813,0.47089,0.00906345,-0.00588549,-0.402559,-0.00894815,0.00580773,0.00745543,0.0985744,5,0.1,5,9.9,-1.31037,0.495566,0.552178,-7.26432e-06,2.78931e-05,5.96046e-06,0.000141561,-0.000836328,0,0.00753137,4.97269e-08,5,0.1,6,9.9,-2.26474,1.44448,0.599994,-0.777008,-0.0926156,1.02445e-06,-0.039354,0.091359,1.86265e-05,0.00819453,0.53975,5,0.1,7,9.9,2.0695,2.7404,0.749996,-0.559186,-0.258874,-1.07102e-05,-0.040099,-0.00326335,-1.11759e-05,0.0102526,0.462574,5,0.1,8,9.9,-3.71202,-1.01329,0.531968,0.00633299,0.000810437,-1.96509e-05,-0.0109971,-0.00155717,1.86265e-05,0.00701373,8.60776e-06,5,0.1,9,9.9,-1.79713,2.32166,0.600001,-0.00289511,-0.259756,0,-0.0121221,-0.319406,0,0.00918184,0.123794,5,0.1
0,10,3.83682,-3.80645,0.577893,0.00281334,-0.240529,0.00126809,-0.00274181,0.244617,-0.0012219,0.00802267,0.00486165,5,0.1,1,10,1.3206,-1.7972,0.501395,0.148329,0.0101447,0.0184953,0.122309,-0.111282,0.1387,0.00612917,1.45883,5,0.1,2,10,0.476498,2.23109,0.500001,0.130368,0.203127,-1.49012e-06,-0.474915,-0.116587,-2.98023e-05,0.00837244,0.341139,5,0.1,3,10,-1.31714,-0.429918,0.600284,0.0391454,0.027363,-0.00113398,-0.136852,-0.0969768,0.00423193,0.00712034,0.000545808,5,0.1,4,10,0.942415,-1.20746,0.556253,0.430298,0.00818968,-0.00531673,-0.419766,-0.00876188,0.00569224,0.0104319,0.114209,5,0.1,5,10,-1.31037,0.495565,0.552178,5.96046e-06,-4.32134e-05,4.47035e-06,5.96046e-05,-0.000581145,2.98023e-05,0.00968278,2.27247e-08,5,0.1,6,10,-2.3423,1.43566,0.599994,-0.770301,-0.083673,2.98023e-06,0.193715,0.0896454,0,0.00634591,0.361667,5,0.1,7,10,2.01353,2.71461,0.749995,-0.558338,-0.255764,-1.19209e-05,0.079155,0.0720024,2.98023e-05,0.0120714,0.327762,5,0.1,8,10,-3.71144,-1.01321,0.531966,0.00514984,0.00064671,-1.63913e-05,-0.0122786,-0.00166893,5.96046e-05,0.00741542,7.96645e-06,5,0.1,9,10,-1.79747,2.29424,0.600001,-0.00379086,-0.286734,0,-0.00584126,-0.204086,0,0.00777774,0.196549,5,0.1
0,10.1,3.83709,-3.82928,0.578013,0.00253618,-0.215885,0.00114404,-0.00283122,0.250801,-0.00127405,0.00802267,0.00486165,5,0.1,1,10.1,1.33629,-1.79695,0.504014,0.16729,-0.00878852,0.0344061,0.231735,-0.32156,0.169735,0.00612917,1.45883,5,0.1,2,10.1,0.487277,2.25084,0.5,0.0864725,0.192086,-2.42144e-06,-0.39915,-0.110492,7.45058e-06,0.00837244,0.341139,5,0.1,3,10.1,-1.31387,-0.42764,0.600191,0.0265598,0.0184568,-0.000747386,-0.114471,-0.0808779,0.0034906,0.00712034,0.000545808,5,0.1,4,10.1,0.983688,-1.20668,0.555745,0.397906,0.00751875,-0.00487929,-0.254236,-0.0051707,0.00339374,0.0104319,0.114209,5,0.1,5,10.1,-1.31037,0.495558,0.552179,1.17347e-05,-9.20612e-05,6.79865e-06,5.21541e-05,-0.000393018,1.11759e-05,0.00968278,2.27247e-08,5,0.1,6,10.1,-2.41837,1.42771,0.599995,-0.750487,-0.0755891,2.98023e-06,0.227869,0.074625,0,0.00634591,0.361667,5,0.1,7,10.1,1.958,2.68939,0.749994,-0.552323,-0.248481,-8.9407e-06,0.0663772,0.0819564,2.98023e-05,0.0120714,0.327762,5,0.1,8,10.1,-3.71099,-1.01316,0.531965,0.00389144,0.000477582,-1.05239e-05,-0.0126064,-0.00168383,5.58794e-05,0.00741542,7.96645e-06,5,0.1,9,10.1,-1.79787,2.26433,0.600001,-0.00416674,-0.312888,0,-0.00178814,-0.287265,0,0.00777774,0.196549,5,0.1
