id,t,px,py,pz,vx,vy,vz,ax,ay,az,planning_time,qp_cost,planning_report,size,id,t,px,py,pz,vx,vy,vz,ax,ay,az,planning_time,qp_cost,planning_report,size,id,t,px,py,pz,vx,vy,vz,ax,ay,az,planning_time,qp_cost,planning_report,size,id,t,px,py,pz,vx,vy,vz,ax,ay,az,planning_time,qp_cost,planning_report,size,id,t,px,py,pz,vx,vy,vz,ax,ay,az,planning_time,qp_cost,planning_report,size,id,t,px,py,pz,vx,vy,vz,ax,ay,az,planning_time,qp_cost,planning_report,size,id,t,px,py,pz,vx,vy,vz,ax,ay,az,planning_time,qp_cost,planning_report,size,id,t,px,py,pz,vx,vy,vz,ax,ay,az,planning_time,qp_cost,planning_report,size,id,t,px,py,pz,vx,vy,vz,ax,ay,az,planning_time,qp_cost,planning_report,size,id,t,px,py,pz,vx,vy,vz,ax,ay,az,planning_time,qp_cost,planning_report,size
0,0,-2.01206,-1.39348,0.549198,0,0,0,0,0,0,0.00946645,3.5122,5,0.1,1,0,-2.34705,3.45499,0.594677,0,0,0,0,0,0,0.0356862,2.14948,5,0.1,2,0,0.551908,3.24151,0.681305,0,0,0,0,0,0,0.0122959,3.51219,5,0.1,3,0,3.88424,1.07175,0.540342,0,0,0,0,0,0,0.00984306,3.51219,5,0.1,4,0,-1.40963,1.74959,0.648741,0,0,0,0,0,0,0.00980992,3.5122,5,0.1,5,0,2.32748,-0.486167,0.693391,0,0,0,0,0,0,0.00667039,1.17456,5,0.1,6,0,-0.851843,-0.829951,0.528596,0,0,0,0,0,0,0.00822704,3.5122,5,0.1,7,0,-1.40282,-1.41082,0.508772,0,0,0,0,0,0,0.0186062,3.5122,5,0.1,8,0,1.62769,-3.06322,0.601754,0,0,0,0,0,0,0.00911682,3.5122,5,0.1,9,0,-2.61149,-4.06432,0.565185,0,0,0,0,0,0,0.0193582,1.54682,5,0.1
0,0.1,-2.01402,-1.39276,0.549204,-0.0556886,0.0202874,0.000178535,-0.990003,0.36066,0.00317022,0.00946645,3.5122,5,0.1,1,0.1,-2.34554,3.45561,0.594683,0.0428822,0.0176325,0.000157673,0.762358,0.313461,0.00280514,0.0356862,2.14948,5,0.1,2,0.1,0.553988,3.24133,0.681357,0.0590225,-0.00518672,0.00147549,1.04929,-0.0922233,0.0262298,0.0122959,3.51219,5,0.1,3,0.1,3.8835,1.0737,0.540402,-0.0210822,0.0553656,0.00171298,-0.374794,0.984281,0.0304542,0.00984306,3.51219,5,0.1,4,0.1,-1.40942,1.74752,0.648696,0.00598952,-0.0589507,-0.00128215,0.106484,-1.04802,-0.0227951,0.00980992,3.5122,5,0.1,5,0.1,2.32669,-0.485259,0.693254,-0.0222579,0.0257721,-0.00388976,-0.395715,0.458168,-0.0691563,0.00667039,1.17456,5,0.1,6,0.1,-0.849914,-0.830751,0.5286,0.0547397,-0.0227222,0.000111479,0.973146,-0.403956,0.00197813,0.00822704,3.5122,5,0.1,7,0.1,-1.40181,-1.40899,0.508719,0.0284906,0.0519494,-0.00151834,0.506505,0.923537,-0.0269897,0.0186062,3.5122,5,0.1,8,0.1,1.62706,-3.06123,0.601753,-0.0179421,0.0564873,-3.57628e-05,-0.318974,1.00422,-0.000633299,0.00911682,3.5122,5,0.1,9,0.1,-2.61049,-4.06336,0.565221,0.0284925,0.0270948,0.00103191,0.50655,0.481665,0.0183433,0.0193582,1.54682,5,0.1
0,0.2,-2.02534,-1.38864,0.549241,-0.176001,0.0641197,0.000563264,-1.31989,0.480831,0.00426173,0.00665017,2.92581,5,0.1,1,0.2,-2.33683,3.45919,0.594715,0.135529,0.0557244,0.000497699,1.0165,0.418067,0.00375509,0.0355147,1.76354,5,0.1,2,0.2,0.565977,3.24027,0.681656,0.18654,-0.0163913,0.00466257,1.39904,-0.123024,0.0349879,0.0123427,2.92579,5,0.1,3,0.2,3.87922,1.08495,0.54075,-0.066632,0.174981,0.00541359,-0.499725,1.31238,0.0406206,0.00888437,2.92579,5,0.1,4,0.2,-1.4082,1.73554,0.648435,0.0189304,-0.186315,-0.00405163,0.141919,-1.39731,-0.0303984,0.00907259,2.9258,5,0.1,5,0.2,2.32217,-0.480024,0.692464,-0.0703454,0.081452,-0.0122935,-0.52762,0.610903,-0.0922084,0.00868524,0.963665,5,0.1,6,0.2,-0.838795,-0.835367,0.528622,0.173002,-0.0718132,0.000351667,1.29756,-0.538617,0.00265241,0.0113021,2.92579,5,0.1,7,0.2,-1.39602,-1.39844,0.508411,0.0900477,0.164184,-0.00479817,0.675261,1.23137,-0.0360012,0.0170546,2.92585,5,0.1,8,0.2,1.62342,-3.04975,0.601746,-0.0567049,0.178528,-0.000113249,-0.425339,1.33896,-0.000864267,0.0130931,2.92579,5,0.1,9,0.2,-2.6047,-4.05786,0.565431,0.0900567,0.085628,0.00326037,0.675201,0.642538,0.0244677,0.0172966,1.26908,5,0.1
0,0.3,-2.05028,-1.37955,0.549321,-0.327804,0.119422,0.00105212,-1.6222,0.590965,0.00521913,0.00665017,2.92581,5,0.1,1,0.3,-2.31764,3.46709,0.594785,0.252132,0.103677,0.000927877,1.24384,0.511497,0.00458583,0.0355147,1.76354,5,0.1,2,0.3,0.592411,3.23795,0.682317,0.347443,-0.0305381,0.00868598,1.71939,-0.151142,0.0429936,0.0123427,2.92579,5,0.1,3,0.3,3.86977,1.10974,0.541518,-0.124104,0.325916,0.0100845,-0.614136,1.61288,0.0499114,0.00888437,2.92579,5,0.1,4,0.3,-1.40552,1.70914,0.647861,0.0352543,-0.34702,-0.00754735,0.174448,-1.71729,-0.0373535,0.00907259,2.9258,5,0.1,5,0.3,2.31221,-0.468488,0.690723,-0.130869,0.151529,-0.0228706,-0.645608,0.747541,-0.112828,0.00868524,0.963665,5,0.1,6,0.3,-0.814279,-0.845543,0.528672,0.322233,-0.133759,0.000656489,1.59466,-0.661939,0.00325218,0.0113021,2.92579,5,0.1,7,0.3,-1.38326,-1.37517,0.507753,0.167712,0.305803,-0.00831168,0.829928,1.51333,-0.0330955,0.0170546,2.92585,5,0.1,8,0.3,1.61538,-3.02446,0.60173,-0.105621,0.332521,-0.000212155,-0.522718,1.64555,-0.00105798,0.0130931,2.92579,5,0.1,9,0.3,-2.59195,-4.04573,0.565893,0.167517,0.159323,0.00606654,0.826329,0.786066,0.0299327,0.0172966,1.26908,5,0.1
0,0.4,-2.09103,-1.36471,0.549451,-0.484097,0.176361,0.00155568,-1.43445,0.522494,0.00458956,0.0069808,2.51009,5,0.1,1,0.4,-2.28631,3.47997,0.594901,0.371838,0.152904,0.00136942,1.09732,0.451207,0.00402331,0.0374289,1.39533,5,0.1,2,0.4,0.635606,3.23415,0.683397,0.513102,-0.0450969,0.0128284,1.52028,-0.133634,0.037998,0.0125096,2.51478,5,0.1,3,0.4,3.85435,1.15026,0.542771,-0.183278,0.481313,0.0148937,-0.542998,1.42604,0.0441074,0.00932912,2.45406,5,0.1,4,0.4,-1.40113,1.666,0.646923,0.0520617,-0.512478,-0.0111461,0.154257,-1.51843,-0.033021,0.00810446,2.51455,5,0.1,5,0.4,2.29595,-0.449664,0.687882,-0.193,0.223471,-0.0337303,-0.569701,0.659496,-0.09951,0.00978155,0.76246,5,0.1,6,0.4,-0.774218,-0.862173,0.528754,0.475873,-0.197534,0.000968575,1.40995,-0.585288,0.00292063,0.00978375,2.51007,5,0.1,7,0.4,-1.36241,-1.33715,0.506769,0.247672,0.451609,-0.0112206,0.733912,1.33806,-0.0242293,0.0182907,2.51049,5,0.1,8,0.4,1.60225,-2.98311,0.601703,-0.155982,0.491065,-0.000312924,-0.462115,1.45495,-0.000953674,0.0123389,2.5101,5,0.1,9,0.4,-2.57114,-4.02594,0.566646,0.247049,0.234973,0.00894666,0.728965,0.693321,0.0264347,0.0172421,1.00411,5,0.1
0,0.5,-2.14682,-1.34438,0.549631,-0.631705,0.230129,0.00202795,-1.44179,0.525206,0.00460818,0.0069808,2.51009,5,0.1,1,0.5,-2.24354,3.49755,0.595058,0.483172,0.198682,0.00177789,1.07476,0.441924,0.00394881,0.0374289,1.39533,5,0.1,2,0.5,0.694514,3.22896,0.684875,0.663235,-0.0588477,0.0167385,1.41372,-0.134319,0.0381917,0.0125096,2.51478,5,0.1,3,0.5,3.83323,1.20571,0.544487,-0.238946,0.627508,0.0194157,-0.542089,1.4236,0.0440367,0.00932912,2.45406,5,0.1,4,0.5,-1.39513,1.60715,0.645638,0.0679357,-0.662586,-0.014544,0.155069,-1.41487,-0.0331886,0.00810446,2.51455,5,0.1,5,0.5,2.27375,-0.423959,0.684002,-0.250799,0.290384,-0.0438271,-0.557944,0.645926,-0.0974759,0.00978155,0.76246,5,0.1,6,0.5,-0.71938,-0.884936,0.528866,0.620961,-0.257762,0.00126809,1.41719,-0.588287,0.00291318,0.00978375,2.51007,5,0.1,7,0.5,-1.33387,-1.28511,0.505559,0.323193,0.589301,-0.0126597,0.73766,1.34494,-0.00548735,0.0182907,2.51049,5,0.1,8,0.5,1.58428,-2.92654,0.601667,-0.203536,0.640313,-0.000410154,-0.464506,1.45391,-0.000946224,0.0123389,2.5101,5,0.1,9,0.5,-2.54272,-3.99891,0.567675,0.321015,0.305317,0.011628,0.714034,0.679031,0.0258796,0.0172421,1.00411,5,0.1
0,0.6,-2.2167,-1.31893,0.549855,-0.759494,0.276679,0.00243783,-1.06025,0.386298,0.00336766,0.00744076,2.27787,5,0.1,1,0.6,-2.19026,3.51947,0.595254,0.577486,0.237465,0.00212342,0.773191,0.317812,0.00286102,0.0328245,1.03879,5,0.1,2,0.6,0.767275,3.22245,0.686727,0.7845,-0.0707507,0.020124,0.966817,-0.0987053,0.0280738,0.0178826,2.33087,5,0.1,3,0.6,3.80682,1.27507,0.546633,-0.286871,0.753364,0.0233084,-0.396252,1.04105,0.0322163,0.00862146,1.87053,5,0.1,4,0.6,-1.38762,1.53445,0.64403,0.0816792,-0.784057,-0.017485,0.114024,-0.969529,-0.0244379,0.00692518,2.34453,5,0.1,5,0.6,2.24609,-0.391934,0.679169,-0.299758,0.347067,-0.0523821,-0.401378,0.464663,-0.0700951,0.0107991,0.567628,5,0.1,6,0.6,-0.650689,-0.91345,0.529006,0.746569,-0.309904,0.00152588,1.04225,-0.432611,0.00211596,0.0151164,2.26176,5,0.1,7,0.6,-1.29812,-1.21992,0.50429,0.388575,0.708506,-0.0124931,0.542462,0.989079,0.00795722,0.0209348,2.23071,5,0.1,8,0.6,1.56176,-2.85576,0.601622,-0.244707,0.768876,-0.000493228,-0.341535,1.06382,-0.000685453,0.0112591,2.29214,5,0.1,9,0.6,-2.50732,-3.96524,0.568958,0.383681,0.364906,0.0138983,0.513554,0.48852,0.0185966,0.0189231,0.747543,5,0.1
0,0.7,-2.29703,-1.2893,0.550116,-0.837971,0.315456,0.00277627,-0.510946,0.364795,0.00318885,0.00744076,2.27787,5,0.1,1,0.7,-2.12871,3.54477,0.595481,0.651714,0.267977,0.00239778,0.668958,0.274986,0.00247359,0.0328245,1.03879,5,0.1,2,0.7,0.849501,3.21487,0.688881,0.850022,-0.0806566,0.0229414,0.369739,-0.093177,0.026498,0.0178826,2.33087,5,0.1,3,0.7,3.77618,1.3548,0.549123,-0.325171,0.832795,0.0264218,-0.347793,0.542082,0.0282675,0.00862146,1.87053,5,0.1,4,0.7,-1.37887,1.45233,0.642157,0.0931242,-0.848168,-0.019937,0.107668,-0.353873,-0.0230595,0.00692518,2.34453,5,0.1,5,0.7,2.21414,-0.354944,0.673586,-0.33829,0.391676,-0.0591121,-0.347227,0.402026,-0.0606589,0.0107991,0.567628,5,0.1,6,0.7,-0.571594,-0.946632,0.529169,0.827377,-0.35333,0.00173813,0.56652,-0.408523,0.00199303,0.0151164,2.26176,5,0.1,7,0.7,-1.25652,-1.14445,0.503099,0.443028,0.796631,-0.0111742,0.512242,0.735946,0.0175238,0.0209348,2.23071,5,0.1,8,0.7,1.53556,-2.77458,0.601569,-0.278991,0.844601,-0.000561867,-0.322536,0.462666,-0.000644475,0.0112591,2.29214,5,0.1,9,0.7,-2.46643,-3.92635,0.570439,0.432988,0.411804,0.0156835,0.444382,0.422627,0.0160858,0.0189231,0.747543,5,0.1
0,0.8,-2.38253,-1.25613,0.550408,-0.864184,0.345495,0.00303835,-0.0368357,0.219166,0.00193715,0.00779708,1.75111,5,0.1,1,0.8,-2.06065,3.57276,0.595731,0.704157,0.289536,0.00259131,0.351429,0.144482,0.0013113,0.0355566,0.733441,5,0.1,2,0.8,0.935613,3.20639,0.691294,0.866024,-0.0883281,0.0251234,2.98023e-05,-0.0557899,0.0159144,0.0117262,2.26543,5,0.1,3,0.8,3.74215,1.43996,0.551888,-0.352746,0.862616,0.0286639,-0.188828,0.0681877,0.0153184,0.0083907,1.37627,5,0.1,4,0.8,-1.36908,1.3665,0.640061,0.10199,-0.861341,-0.0218362,0.0646114,0.0665188,-0.0138283,0.00925396,2.35137,5,0.1,5,0.8,2.17882,-0.314041,0.667413,-0.365514,0.423196,-0.0638679,-0.182271,0.21109,-0.0318587,0.00826379,0.400772,5,0.1,6,0.8,-0.486817,-0.983784,0.529352,0.860518,-0.386973,0.00190288,0.110135,-0.245363,0.00116229,0.0111205,2.16337,5,0.1,7,0.8,-1.20993,-1.06176,0.502079,0.485212,0.850171,-0.00915229,0.307679,0.317097,0.0221729,0.0205075,1.84783,5,0.1,8,0.8,1.50622,-2.68866,0.60151,-0.305554,0.866026,-0.000613928,-0.193715,0,-0.000417233,0.0106664,2.20967,5,0.1,9,0.8,-2.42121,-3.88334,0.572077,0.467837,0.444937,0.0169456,0.233293,0.221968,0.00840425,0.0193573,0.527815,5,0.1
0,0.9,-2.46906,-1.2205,0.550721,-0.865828,0.366441,0.00322331,-0.0013113,0.180252,0.00159442,0.00779708,1.75111,5,0.1,1,0.9,-1.98856,3.6024,0.595996,0.736,0.302627,0.00270978,0.251703,0.103503,0.000938773,0.0355566,0.733441,5,0.1,2,0.9,1.02222,3.19727,0.693888,0.866026,-0.09408,0.0267631,3.72529e-06,-0.0533164,0.0151955,0.0117262,2.26543,5,0.1,3,0.9,3.70597,1.52643,0.554828,-0.37002,0.865504,0.0300651,-0.139236,-0.00382215,0.0112951,0.0083907,1.37627,5,0.1,4,0.9,-1.35855,1.2816,0.637805,0.108667,-0.831869,-0.0232652,0.0620782,0.369735,-0.0132769,0.00925396,2.35137,5,0.1,5,0.9,2.1414,-0.270715,0.660874,-0.38203,0.442324,-0.0667551,-0.130549,0.151208,-0.0228249,0.00826379,0.400772,5,0.1,6,0.9,-0.400428,-1.02376,0.529548,0.865681,-0.412357,0.00202376,0.0137687,-0.23618,0.00113249,0.0111205,2.16337,5,0.1,7,0.9,-1.15986,-0.975778,0.501277,0.515564,0.864949,-0.00687335,0.269882,0.0362247,0.0228509,0.0205075,1.84783,5,0.1,8,0.9,1.4748,-2.60206,0.601446,-0.321754,0.866026,-0.000659097,-0.118196,0,-0.000435859,0.0106664,2.20967,5,0.1,9,0.9,-2.37331,-3.83779,0.573812,0.488979,0.465048,0.0177075,0.167161,0.15898,0.00602379,0.0193573,0.527815,5,0.1
0,1,-2.55561,-1.18315,0.55105,-0.864702,0.378284,0.00332743,0.026226,0.0433922,0.000417233,0.00864644,1.32211,5,0.1,1,1,-1.91409,3.63302,0.596271,0.748897,0.30793,0.0027582,-0.0162125,-0.00667572,-5.96046e-05,0.0420701,0.498756,5,0.1,2,1,1.10882,3.18764,0.696628,0.866026,-0.097996,0.0278786,0,-0.0208616,0.00596046,0.0121989,2.26483,5,0.1,3,1,3.66847,1.61284,0.557875,-0.377697,0.86109,0.0306889,-0.00286102,-0.0987053,0.000178814,0.00876399,1.00982,5,0.1,4,1,-1.34742,1.2,0.635423,0.113246,-0.803277,-0.0242442,0.0246167,0.196457,-0.00527501,0.00808473,2.34014,5,0.1,5,1,2.10274,-0.22596,0.65412,-0.388712,0.450069,-0.067924,0.00846386,-0.00973046,0.00143051,0.0089879,0.27254,5,0.1,6,1,-0.313832,-1.06598,0.529756,0.866025,-0.429788,0.00210702,1.43051e-05,-0.094533,0.000447035,0.0101212,2.14949,5,0.1,7,1,-1.10721,-0.889248,0.500701,0.53423,0.864661,-0.00467896,0.0834465,-0.0272691,0.020653,0.0169848,1.36506,5,0.1,8,1,1.44223,-2.51546,0.601379,-0.327221,0.866026,-0.000692904,0.0164509,0,-0.000238419,0.010748,2.23917,5,0.1,9,1,-2.32384,-3.79074,0.575603,0.497544,0.473189,0.0180155,-0.0106096,-0.010252,-0.000417233,0.0188027,0.358942,5,0.1
0,1.1,-2.64207,-1.14512,0.551384,-0.864964,0.381859,0.0033617,-0.00366569,0.012435,0.00013411,0.00864644,1.32211,5,0.1,1,1.1,-1.83931,3.66377,0.596546,0.745609,0.306577,0.00274582,-0.0769347,-0.0316203,-0.000286847,0.0420701,0.498756,5,0.1,2,1.1,1.19542,3.17772,0.699451,0.866026,-0.100493,0.028591,0,-0.023365,0.00666454,0.0121989,2.26483,5,0.1,3,1.1,3.6307,1.6987,0.560943,-0.377114,0.857577,0.0306373,0.0286251,-0.0188574,-0.00236183,0.00876399,1.00982,5,0.1,4,1.1,-1.33595,1.11963,0.632967,0.116245,-0.812086,-0.0248862,0.0285879,-0.281788,-0.00611693,0.00808473,2.34014,5,0.1,5,1.1,2.06393,-0.181021,0.647337,-0.387001,0.448095,-0.0676294,0.0399649,-0.0462104,0.00694767,0.0089879,0.27254,5,0.1,6,1.1,-0.22723,-1.10953,0.529969,0.866025,-0.441308,0.00216234,0,-0.110075,0.000528991,0.0101212,2.14949,5,0.1,7,1.1,-1.05338,-0.802795,0.50033,0.541831,0.864851,-0.002818,0.0449605,0.00077486,0.0163913,0.0169848,1.36506,5,0.1,8,1.1,1.41007,-2.42885,0.601308,-0.311864,0.866026,-0.000720285,0.273488,0,-0.00026077,0.010748,2.23917,5,0.1,9,1.1,-2.27416,-3.74349,0.577402,0.495376,0.471111,0.0179343,-0.0509471,-0.0486076,-0.00186265,0.0188027,0.358942,5,0.1
0,1.2,-2.72845,-1.10703,0.55172,-0.8609,0.378165,0.00333041,0.10252,-0.0967979,-0.000834465,0.00710952,0.968857,5,0.1,1,1.2,-1.76542,3.69415,0.596818,0.728971,0.299734,0.0026837,-0.273883,-0.112534,-0.000983477,0.0322034,0.331644,5,0.1,2,1.2,1.28202,3.16758,0.702334,0.866026,-0.101697,0.0289336,-5.96046e-05,0.00309944,-0.00089407,0.0123709,2.26481,5,0.1,3,1.2,3.59328,1.78418,0.563983,-0.369632,0.849268,0.0300273,0.130296,-0.180483,-0.0106096,0.0109601,0.715669,5,0.1,4,1.2,-1.32422,1.03683,0.630457,0.117818,-0.843814,-0.0252232,-0.00190735,-0.285298,0.000417233,0.00750949,2.27064,5,0.1,5,1.2,2.02558,-0.136612,0.640635,-0.378364,0.438097,-0.0661224,0.142217,-0.164568,0.0247955,0.00678716,0.181225,5,0.1,6,1.2,-0.140627,-1.15406,0.530187,0.866025,-0.447431,0.00219196,0,0.00554323,-2.98023e-05,0.00788187,2.14652,5,0.1,7,1.2,-0.999192,-0.716467,0.500122,0.539285,0.859515,-0.00142157,-0.111639,-0.130206,0.0114441,0.015232,0.983051,5,0.1,8,1.2,1.38055,-2.34225,0.601235,-0.275719,0.866026,-0.000737607,0.434577,0,-8.9407e-05,0.00882457,1.67359,5,0.1,9,1.2,-2.22506,-3.6968,0.579179,0.484335,0.460595,0.0175327,-0.181794,-0.172973,-0.00658631,0.0232206,0.238678,5,0.1
0,1.3,-2.81428,-1.06968,0.552049,-0.856785,0.368479,0.00324631,0.0264645,-0.10974,-0.0009574,0.00710952,0.968857,5,0.1,1,1.3,-1.69386,3.72357,0.597082,0.701896,0.288608,0.00258582,-0.29026,-0.119284,-0.00105426,0.0322034,0.331644,5,0.1,2,1.3,1.36863,3.1574,0.70523,0.866025,-0.102003,0.0290191,1.49012e-05,-0.00365078,0.00102818,0.0123709,2.26481,5,0.1,3,1.3,3.55695,1.86836,0.566934,-0.356709,0.834761,0.0289758,0.139803,-0.147559,-0.0113659,0.0109601,0.715669,5,0.1,4,1.3,-1.31241,0.951352,0.627929,0.118453,-0.862638,-0.0253586,0.00788271,-0.0952631,-0.00167638,0.00750949,2.27064,5,0.1,5,1.3,1.98844,-0.0936076,0.634144,-0.364307,0.421829,-0.0636705,0.150695,-0.174414,0.0262968,0.00678716,0.181225,5,0.1,6,1.3,-0.0540247,-1.1989,0.530407,0.866025,-0.450013,0.00220463,4.47035e-07,-0.0315011,0.000156462,0.00788187,2.14652,5,0.1,7,1.3,-0.945804,-0.630962,0.500028,0.528147,0.851501,-0.000526663,-0.130344,-0.0733063,0.00662729,0.015232,0.983051,5,0.1,8,1.3,1.35533,-2.25565,0.601161,-0.227389,0.86596,-0.000749528,0.518553,-0.0026077,-0.000111759,0.00882457,1.67359,5,0.1,9,1.3,-2.17752,-3.65159,0.5809,0.466362,0.443494,0.0168818,-0.192732,-0.183374,-0.00697747,0.0232206,0.238678,5,0.1
0,1.4,-2.89964,-1.03349,0.552368,-0.847673,0.354081,0.00311881,0.188708,-0.186682,-0.00160933,0.00745721,0.686337,5,0.1,1,1.4,-1.6253,3.75177,0.597334,0.667155,0.27433,0.00245869,-0.419557,-0.172615,-0.00154972,0.0298558,0.218294,5,0.1,2,1.4,1.45523,3.14721,0.70813,0.866026,-0.101483,0.0288695,0,0.0178814,-0.0050962,0.0130475,1.8656,5,0.1,3,1.4,3.52207,1.9509,0.569767,-0.339741,0.81335,0.0275955,0.207424,-0.306666,-0.0168085,0.00777774,0.494746,5,0.1,4,1.4,-1.30056,0.864837,0.625391,0.118247,-0.866026,-0.0253126,-0.0168085,0,0.00357628,0.00747857,2.26265,5,0.1,5,1.4,1.95285,-0.0524034,0.627925,-0.346273,0.400952,-0.0605226,0.217795,-0.252119,0.0380874,0.00672488,0.119287,5,0.1,6,1.4,0.0325779,-1.24395,0.530627,0.866025,-0.449362,0.0022009,-1.19209e-06,0.0625253,-0.000268221,0.0118106,2.14877,5,0.1,7,1.4,-0.8938,-0.546374,0.500002,0.510012,0.837523,-5.66244e-05,-0.245184,-0.236303,0.00295043,0.020301,0.687436,5,0.1,8,1.4,1.33523,-2.16909,0.601085,-0.174424,0.864983,-0.000752509,0.530124,-0.0209808,5.96046e-05,0.00902488,0.144333,5,0.1,9,1.4,-2.13196,-3.60827,0.582549,0.443298,0.421548,0.0160471,-0.278831,-0.265121,-0.010103,0.0181348,0.157101,5,0.1
0,1.5,-2.98361,-0.99898,0.552672,-0.832284,0.33619,0.00296375,0.156522,-0.181809,-0.00158325,0.00745721,0.686337,5,0.1,1,1.5,-1.5606,3.77837,0.597573,0.627135,0.257867,0.00231061,-0.399798,-0.164464,-0.00147521,0.0298558,0.218294,5,0.1,2,1.5,1.54183,3.13713,0.710996,0.866026,-0.100096,0.0284741,0,0.0144541,-0.00412017,0.0130475,1.8656,5,0.1,3,1.5,3.4891,2.03082,0.572446,-0.319931,0.785531,0.0259898,0.198498,-0.280507,-0.016097,0.00777774,0.494746,5,0.1,4,1.5,-1.28878,0.778235,0.622869,0.11761,-0.866026,-0.0251777,-0.00269711,3.72529e-06,0.000566244,0.00747857,2.26265,5,0.1,5,1.5,1.91927,-0.0135202,0.622055,-0.325499,0.376903,-0.0568898,0.207514,-0.240248,0.0362843,0.00672488,0.119287,5,0.1,6,1.5,0.11918,-1.28873,0.530847,0.866025,-0.446974,0.00219215,7.45058e-07,0.010781,-2.98023e-05,0.0118106,2.14877,5,0.1,7,1.5,-0.843977,-0.463667,0.500008,0.486517,0.817077,0.000130571,-0.240617,-0.207432,0.000938773,0.020301,0.687436,5,0.1,8,1.5,1.32036,-2.08325,0.60101,-0.123841,0.846127,-0.000747666,0.476778,-0.354737,6.70552e-05,0.00902488,0.144333,5,0.1,9,1.5,-2.08897,-3.56739,0.584105,0.416703,0.396259,0.0150837,-0.265673,-0.252649,-0.0096187,0.0181348,0.157101,5,0.1
0,1.6,-3.06586,-0.966333,0.55296,-0.810045,0.315939,0.00278652,0.313997,-0.230283,-0.00202656,0.00873269,0.474491,5,0.1,1,1.6,-1.49998,3.80329,0.597796,0.58403,0.240141,0.00215024,-0.474989,-0.195384,-0.00172853,0.0282708,0.254783,5,0.1,2,1.6,1.62843,3.12722,0.713816,0.866026,-0.0978172,0.0278234,0,0.0343323,-0.00974536,0.0107447,1.45167,5,0.1,3,1.6,3.45815,2.10781,0.574961,-0.298411,0.752074,0.0242457,0.23818,-0.409842,-0.0193715,0.00759348,0.336222,5,0.1,4,1.6,-1.27705,0.691632,0.620359,0.116551,-0.866026,-0.024952,-0.0231862,0,0.00497699,0.00816901,2.26297,5,0.1,5,1.6,1.88781,0.022913,0.616556,-0.303125,0.351,-0.0529781,0.246525,-0.285457,0.0430942,0.00787568,0.134044,5,0.1,6,1.6,0.205783,-1.33328,0.531066,0.866025,-0.442854,0.00217408,0,0.0897646,-0.000417233,0.00858508,2.15348,5,0.1,7,1.6,-0.796627,-0.383182,0.500023,0.459231,0.790165,0.000157952,-0.315726,-0.354692,-0.000268221,0.0134437,0.875664,5,0.1,8,1.6,1.31024,-2.00095,0.600936,-0.0798613,0.794661,-0.000733137,0.399649,-0.669658,0.000238419,0.0105552,1.47728,5,0.1,9,1.6,-2.04869,-3.52908,0.585563,0.388062,0.369024,0.0140458,-0.315666,-0.300288,-0.0113845,0.0224422,0.10326,5,0.1
0,1.7,-3.14541,-0.935837,0.553228,-0.781502,0.294266,0.0025955,0.287294,-0.212099,-0.00187382,0.00873269,0.474491,5,0.1,1,1.7,-1.44368,3.82638,0.598003,0.543947,0.221826,0.00198772,-0.352509,-0.177473,-0.0015758,0.0282708,0.254783,5,0.1,2,1.7,1.71503,3.1176,0.716553,0.865858,-0.0947032,0.0269391,-0.00670552,0.0316948,-0.00900775,0.0107447,1.45167,5,0.1,3,1.7,3.42944,2.18109,0.577293,-0.276061,0.714127,0.0224283,0.216991,-0.374392,-0.017643,0.00759348,0.336222,5,0.1,4,1.7,-1.26547,0.605029,0.617879,0.115399,-0.866026,-0.0247039,-0.00662357,3.72529e-06,0.00143051,0.00816901,2.26297,5,0.1,5,1.7,1.85852,0.0568248,0.611438,-0.284213,0.329101,-0.0496721,0.149474,-0.173091,0.0261292,0.00787568,0.134044,5,0.1,6,1.7,0.292385,-1.37728,0.531282,0.866025,-0.438134,0.00215266,-8.9407e-07,0.0298917,-0.00013411,0.00858508,2.15348,5,0.1,7,1.7,-0.75221,-0.305504,0.500037,0.429491,0.766504,0.000112597,-0.292361,-0.166697,-0.000599772,0.0134437,0.875664,5,0.1,8,1.7,1.30412,-1.9239,0.600864,-0.0440022,0.754009,-0.000710879,0.312202,-0.213839,0.000234693,0.0105552,1.47728,5,0.1,9,1.7,-2.01139,-3.49361,0.586914,0.358472,0.340876,0.0129782,-0.286736,-0.272766,-0.0103489,0.0224422,0.10326,5,0.1
0,1.8,-3.22197,-0.907501,0.553478,-0.747466,0.272021,0.00239909,0.414252,-0.238895,-0.00211596,0.00866477,0.322567,5,0.1,1,1.8,-1.39102,3.84766,0.598194,0.509092,0.203544,0.00182539,-0.363171,-0.192761,-0.00175834,0.0275466,0.180377,5,0.1,2,1.8,1.80153,3.10831,0.719196,0.863343,-0.0908554,0.0258446,-0.0537038,0.0479221,-0.0136197,0.0109153,1.09693,5,0.1,3,1.8,3.40294,2.25052,0.579446,-0.25363,0.672942,0.0206053,0.236988,-0.466704,-0.0192821,0.00828655,0.226256,5,0.1,4,1.8,-1.25398,0.518427,0.61542,0.114068,-0.866026,-0.0244185,-0.0247359,0,0.00533462,0.0109668,2.26333,5,0.1,5,1.8,1.8308,0.0889168,0.606594,-0.270155,0.312822,-0.0472158,0.14466,-0.167519,0.0253022,0.00968405,0.0773117,5,0.1,6,1.8,0.378988,-1.42088,0.531496,0.866025,-0.43256,0.0021264,1.43051e-05,0.0994205,-0.000506639,0.00761038,2.15912,5,0.1,7,1.8,-0.710772,-0.2297,0.500045,0.398532,0.748533,4.61936e-05,-0.335872,-0.227458,-0.000715256,0.0121086,0.635793,5,0.1,8,1.8,1.3011,-1.84929,0.600794,-0.0181228,0.739574,-0.000680983,0.203609,-0.127673,0.000327826,0.0115908,2.9346,5,0.1,9,1.8,-1.977,-3.46091,0.588159,0.328928,0.312775,0.0119105,-0.311255,-0.296116,-0.0112355,0.0168865,0.135097,5,0.1
0,1.9,-3.29477,-0.881431,0.553708,-0.709103,0.249809,0.0022023,0.378042,-0.212859,-0.00188872,0.00866477,0.322567,5,0.1,1,1.9,-1.34174,3.8671,0.598368,0.477771,0.185686,0.0016625,-0.284158,-0.169903,-0.001546,0.0275466,0.180377,5,0.1,2,1.9,1.88783,3.09945,0.721717,0.863736,-0.0864118,0.0245811,0.0190362,0.044018,-0.012517,0.0109153,1.09693,5,0.1,3,1.9,3.3787,2.31561,0.581415,-0.231655,0.629688,0.0188178,0.209406,-0.419334,-0.0170283,0.00828655,0.226256,5,0.1,4,1.9,-1.24265,0.431824,0.612994,0.112812,-0.866026,-0.0241461,-0.00712276,3.57628e-06,0.00155345,0.0109668,2.26333,5,0.1,5,1.9,1.80443,0.119456,0.601985,-0.257836,0.298556,-0.0450614,0.113353,-0.131264,0.0198223,0.00968405,0.0773117,5,0.1,6,1.9,0.465591,-1.4638,0.531707,0.866025,-0.427006,0.00209734,-1.78814e-06,0.0364706,-0.000201166,0.00761038,2.15912,5,0.1,7,1.9,-0.672511,-0.155741,0.500046,0.367264,0.732099,-1.51806e-05,-0.300627,-0.139536,-0.000517815,0.0121086,0.635793,5,0.1,8,1.9,1.30042,-1.77544,0.600728,0.00433233,0.741019,-0.000646245,0.194721,0.0978634,0.000383705,0.0115908,2.9346,5,0.1,9,1.9,-1.94558,-3.43087,0.589297,0.300092,0.289787,0.010869,-0.27442,-0.182033,-0.009913,0.0168865,0.135097,5,0.1
0,2,-3.36368,-0.857521,0.553919,-0.667655,0.228181,0.00201017,0.468016,-0.224888,-0.00199676,0.00793484,0.217175,5,0.1,1,2,-1.2954,3.88482,0.598526,0.448692,0.168628,0.001508,-0.312209,-0.175238,-0.00157952,0.0304526,0.126111,5,0.1,2,2,1.97414,3.09104,0.724108,0.860223,-0.0815332,0.0231937,-0.11605,0.0554323,-0.0157952,0.0147554,0.800439,5,0.1,3,2,3.35658,2.37642,0.583212,-0.210577,0.585544,0.017105,0.216722,-0.478029,-0.0176132,0.00834481,0.151642,5,0.1,4,2,-1.23142,0.345222,0.610591,0.111493,-0.866025,-0.0238627,-0.0239611,-1.43051e-05,0.0051856,0.00826823,2.26367,5,0.1,5,2,1.77924,0.148625,0.597582,-0.245509,0.284281,-0.0429064,0.141323,-0.163667,0.0247061,0.00683477,0.0590946,5,0.1,6,2,0.552193,-1.50626,0.531915,0.866026,-0.421023,0.00206679,0,0.100732,-0.000506639,0.00678092,1.90004,5,0.1,7,2,-0.637304,-0.0833401,0.500042,0.336523,0.714099,-5.51343e-05,-0.321835,-0.247419,-0.000357628,0.0123982,0.450815,5,0.1,8,2,1.30151,-1.70088,0.600665,0.0135392,0.74901,-0.000603497,-0.0325441,0.0194311,0.000536442,0.0104274,2.89951,5,0.1,9,2,-1.91694,-3.40274,0.590334,0.27253,0.27318,0.00987202,-0.282943,-0.163913,-0.0102222,0.0198269,0.170385,5,0.1
0,2.1,-3.42824,-0.835763,0.554111,-0.624288,0.207466,0.00182623,0.420049,-0.19576,-0.00173971,0.00793484,0.217175,5,0.1,1,2.1,-1.25195,3.90086,0.59867,0.421125,0.152541,0.00136308,-0.256136,-0.151172,-0.00136346,0.0304526,0.126111,5,0.1,2,2.1,2.05978,3.08315,0.726353,0.853568,-0.0763875,0.0217276,-0.0606403,0.0500232,-0.014253,0.0147554,0.800439,5,0.1,3,2.1,3.33654,2.43272,0.58484,-0.190664,0.541412,0.0154869,0.187382,-0.422075,-0.0152253,0.00834481,0.151642,5,0.1,4,2.1,-1.22034,0.258619,0.608221,0.110319,-0.866025,-0.023607,-0.00618398,0,0.00135601,0.00826823,2.26367,5,0.1,5,2.1,1.7553,0.176346,0.593398,-0.233936,0.270878,-0.0408833,0.102215,-0.118387,0.0178702,0.00683477,0.0590946,5,0.1,6,2.1,0.638796,-1.54799,0.53212,0.866023,-0.414282,0.0020328,-8.9407e-05,0.0560209,-0.000286847,0.00678092,1.90004,5,0.1,7,2.1,-0.605169,-0.0130115,0.500036,0.306836,0.693234,-7.8883e-05,-0.281297,-0.200678,-0.000130385,0.0123982,0.450815,5,0.1,8,2.1,1.30242,-1.62562,0.600607,-0.000309385,0.757487,-0.000554044,-0.320427,0.10334,0.000473112,0.0104274,2.89951,5,0.1,9,2.1,-1.89089,-3.37588,0.591278,0.25014,0.267034,0.0090627,-0.180505,0.0117272,-0.00652671,0.0198269,0.170385,5,0.1
0,2.2,-3.48851,-0.815989,0.554285,-0.580144,0.187957,0.00165254,0.476837,-0.198871,-0.00175834,0.00786496,0.145631,5,0.1,1,2.2,-1.21114,3.91537,0.598799,0.394571,0.137603,0.00122935,-0.286877,-0.151038,-0.00137091,0.0270913,0.514748,5,0.1,2,2.2,2.14464,3.07577,0.728452,0.840706,-0.0711024,0.0202209,-0.226974,0.0575781,-0.0163317,0.0103994,0.603647,5,0.1,3,2.2,3.3184,2.48473,0.586313,-0.172114,0.498176,0.0139818,0.187635,-0.454783,-0.0152886,0.00910506,0.101636,5,0.1,4,2.2,-1.20936,0.172017,0.60587,0.109121,-0.866025,-0.0233486,-0.0225902,0,0.00485778,0.00842418,2.26398,5,0.1,5,2.2,1.73243,0.202823,0.589402,-0.223008,0.258225,-0.038974,0.124693,-0.144452,0.0217855,0.00699761,0.0264609,5,0.1,6,2.2,0.725397,-1.58906,0.532322,0.86599,-0.40608,0.00199229,-0.000715256,0.123322,-0.000625849,0.00674431,1.45936,5,0.1,7,2.2,-0.575888,0.0551799,0.500027,0.278674,0.668752,-8.34465e-05,-0.288457,-0.310297,0,0.0120107,0.313307,5,0.1,8,2.2,1.3,-1.54953,0.600554,-0.055486,0.7617,-0.000506639,-0.756562,-0.0520945,0.000506639,0.0156913,2.67194,5,0.1,9,2.2,-1.86672,-3.34902,0.592154,0.233713,0.270414,0.00846833,-0.159681,0.0340939,-0.00578165,0.0143485,0.147655,5,0.1
0,2.3,-3.54427,-0.798126,0.554442,-0.536132,0.169776,0.00149189,0.42069,-0.170078,-0.00150129,0.00786496,0.145631,5,0.1,1,2.3,-1.17299,3.92842,0.598916,0.369462,0.12384,0.00110473,-0.230677,-0.12815,-0.00115484,0.0270913,0.514748,5,0.1,2,2.3,2.22745,3.06877,0.730397,0.813919,-0.0702262,0.0187112,-0.327617,-0.0280738,-0.0144616,0.0103994,0.603647,5,0.1,3,2.3,3.30207,2.53241,0.587639,-0.155001,0.4564,0.0125881,0.159517,-0.395328,-0.0129864,0.00910506,0.101636,5,0.1,4,2.3,-1.19851,0.0854142,0.60355,0.108067,-0.866025,-0.0231216,-0.00506639,-1.49012e-07,0.00108778,0.00842418,2.26398,5,0.1,5,2.3,1.71074,0.227939,0.585611,-0.210779,0.24406,-0.0368374,0.126176,-0.14615,0.0220425,0.00699761,0.0264609,5,0.1,6,2.3,0.811991,-1.6289,0.532518,0.865753,-0.389137,0.00194004,-0.00965595,0.218466,-0.000510365,0.00674431,1.45936,5,0.1,7,2.3,-0.549375,0.120627,0.500019,0.252265,0.640786,-7.71135e-05,-0.247605,-0.274074,0.000119209,0.0120107,0.313307,5,0.1,8,2.3,1.28966,-1.47342,0.600506,-0.159235,0.761475,-0.000461191,-1.22927,0.00602752,0.000417233,0.0156913,2.67194,5,0.1,9,2.3,-1.84415,-3.32199,0.592972,0.217588,0.268271,0.0078842,-0.167184,-0.0771582,-0.00605732,0.0143485,0.147655,5,0.1
0,2.4,-3.59576,-0.781987,0.554583,-0.493085,0.153036,0.00134259,0.45228,-0.168443,-0.00146031,0.00852938,0.0976563,5,0.1,1,2.4,-1.1372,3.94018,0.599021,0.345814,0.111306,0.000990927,-0.253022,-0.125408,-0.00110269,0.0262999,0.502058,5,0.1,2,2.4,2.30692,3.06155,0.732195,0.772154,-0.0746012,0.0172257,-0.519276,-0.0503063,-0.0156462,0.00956102,0.74088,5,0.1,3,2.4,3.28735,2.57608,0.588835,-0.139374,0.416631,0.0113174,0.156522,-0.41008,-0.0127256,0.0110363,0.195263,5,0.1,4,2.4,-1.18775,-0.0011883,0.601246,0.10699,-0.866025,-0.0228912,-0.0212789,1.19209e-06,0.00455976,0.00755171,2.26427,5,0.1,5,2.4,1.69034,0.251563,0.582046,-0.196734,0.227793,-0.0343829,0.158846,-0.183925,0.027746,0.00727348,0.0100854,5,0.1,6,2.4,0.898436,-1.66655,0.532709,0.861984,-0.362024,0.00187606,-0.0807941,0.324726,-0.000834465,0.00740693,1.12028,5,0.1,7,2.4,-0.525371,0.183228,0.500012,0.227809,0.609713,-6.25849e-05,-0.247002,-0.36458,0.000178814,0.0108195,0.214748,5,0.1,8,2.4,1.26741,-1.39742,0.600462,-0.285682,0.755847,-0.000421703,-1.23233,-0.1477,0.000447035,0.0133976,2.17332,5,0.1,9,2.4,-1.82326,-3.29574,0.593728,0.199565,0.255084,0.00723004,-0.19592,-0.185609,-0.00706315,0.0177473,0.265266,5,0.1
0,2.5,-3.64294,-0.76747,0.554711,-0.451551,0.137732,0.00120969,0.392854,-0.142097,-0.00124052,0.00852938,0.0976563,5,0.1,1,2.5,-1.10418,3.95072,0.599114,0.312084,0.0999458,0.00089081,-0.409298,-0.105053,-0.000927597,0.0262999,0.502058,5,0.1,2,2.5,2.38077,3.05376,0.733844,0.698355,-0.0816271,0.0157873,-0.915408,-0.0810027,-0.0136308,0.00956102,0.74088,5,0.1,3,2.5,3.27396,2.61602,0.589912,-0.130446,0.384958,0.0103172,0.0380278,-0.248685,-0.00795722,0.0110363,0.195263,5,0.1,4,2.5,-1.17711,-0.0877908,0.59897,0.106039,-0.866025,-0.0226877,-0.00419468,-7.45058e-07,0.000890344,0.00755171,2.26427,5,0.1,5,2.5,1.67147,0.273415,0.578747,-0.180584,0.209093,-0.0315617,0.16696,-0.193324,0.0291653,0.00727348,0.0100854,5,0.1,6,2.5,0.984523,-1.70082,0.532893,0.86139,-0.320603,0.00180071,0.0184923,0.488639,-0.000741333,0.00740693,1.12028,5,0.1,7,2.5,-0.503745,0.242493,0.500007,0.205336,0.576217,-4.44241e-05,-0.20906,-0.325916,0.000182539,0.0108195,0.214748,5,0.1,8,2.5,1.23236,-1.32244,0.600422,-0.416674,0.744406,-0.000382215,-1.31849,-0.115678,0.000357628,0.0133976,2.17332,5,0.1,9,2.5,-1.80418,-3.27141,0.59442,0.182864,0.229211,0.0066272,-0.146717,-0.320718,-0.00530109,0.0177473,0.265266,5,0.1
0,2.6,-3.68614,-0.754394,0.554826,-0.412065,0.123855,0.00108927,0.406981,-0.138581,-0.0012517,0.00769008,0.11338,5,0.1,1,2.6,-1.07519,3.9602,0.599199,0.266236,0.0897288,0.000800192,-0.497222,-0.101566,-0.00089407,0.0305601,0.49715,5,0.1,2,2.6,2.44565,3.04521,0.735355,0.596374,-0.0892103,0.0144139,-1.0922,-0.0638962,-0.0141561,0.00883301,0.673703,5,0.1,3,2.6,3.26102,2.65337,0.590908,-0.128955,0.362486,0.00960678,0.0038147,-0.219345,-0.00673532,0.00725535,0.144555,5,0.1,4,2.6,-1.16654,-0.174393,0.596709,0.10505,-0.866025,-0.0224769,-0.020206,0,0.00432134,0.00763621,2.26453,5,0.1,5,2.6,1.65427,0.293321,0.575742,-0.162899,0.188618,-0.0284716,0.188291,-0.218049,0.0329018,0.00885528,0.00517398,5,0.1,6,2.6,1.07058,-1.73027,0.533069,0.857082,-0.267065,0.00171512,-0.14025,0.569522,-0.000983477,0.00887681,0.840375,5,0.1,7,2.6,-0.484238,0.298412,0.500003,0.184868,0.541061,-2.83122e-05,-0.20498,-0.39129,0.000178814,0.0111233,0.146117,5,0.1,8,2.6,1.18443,-1.24875,0.600385,-0.537515,0.726873,-0.000348687,-1.04862,-0.258803,0.00038743,0.00946677,1.63097,5,0.1,9,2.6,-1.78661,-3.25024,0.595057,0.168738,0.193,0.00611693,-0.142038,-0.393987,-0.0051856,0.0193504,0.255965,5,0.1
0,2.7,-3.72564,-0.742594,0.554929,-0.380621,0.113027,0.000991113,0.246972,-0.0855513,-0.00077486,0.00769008,0.11338,5,0.1,1,2.7,-1.05115,3.9687,0.599275,0.213757,0.0805728,0.000719354,-0.540532,-0.0843108,-0.000745058,0.0305601,0.49715,5,0.1,2,2.7,2.49956,3.03594,0.73673,0.480568,-0.0961926,0.013119,-1.16944,-0.0686198,-0.0121593,0.00883301,0.673703,5,0.1,3,2.7,3.24828,2.68866,0.591839,-0.124461,0.344298,0.0090491,0.0824481,-0.161126,-0.00486523,0.00725535,0.144555,5,0.1,4,2.7,-1.15609,-0.260996,0.594474,0.104174,-0.866025,-0.0222901,-0.00365078,8.9407e-07,0.00077486,0.00763621,2.26453,5,0.1,5,2.7,1.63891,0.31111,0.573057,-0.144455,0.167259,-0.0252484,0.182725,-0.211593,0.0319295,0.00885528,0.00517398,5,0.1,6,2.7,1.15575,-1.75408,0.533236,0.846927,-0.208899,0.00162441,-0.103109,0.583366,-0.000886619,0.00887681,0.840375,5,0.1,7,2.7,-0.466707,0.350678,0.500001,0.166315,0.504994,-1.38767e-05,-0.1716,-0.347094,0.000115484,0.0111233,0.146117,5,0.1,8,2.7,1.12544,-1.17725,0.600352,-0.640839,0.703542,-0.000314787,-0.964791,-0.235841,0.000305474,0.00946677,1.63097,5,0.1,9,2.7,-1.77039,-3.23297,0.595644,0.155906,0.151844,0.00564829,-0.120245,-0.420004,-0.00438839,0.0193504,0.255965,5,0.1
0,2.8,-3.76256,-0.731682,0.555025,-0.358313,0.105429,0.000922382,0.217557,-0.0720918,-0.000625849,0.00820835,0.0661136,5,0.1,1,2.8,-1.03247,3.97635,0.599343,0.160214,0.0723958,0.00064671,-0.521302,-0.0810623,-0.000715256,0.0300548,0.493541,5,0.1,2,2.8,2.54199,3.02602,0.737981,0.370926,-0.101715,0.011909,-0.99349,-0.0369549,-0.0122786,0.00696154,0.667155,5,0.1,3,2.8,3.23635,2.72227,0.592719,-0.113165,0.327402,0.00855625,0.140071,-0.188589,-0.00530481,0.00758652,0.114944,5,0.1,4,2.8,-1.14571,-0.347598,0.592252,0.103235,-0.866025,-0.022091,-0.0194907,-1.43051e-05,0.00417233,0.00723141,2.26479,5,0.1,5,2.8,1.62538,0.326773,0.570693,-0.126025,0.145919,-0.0220284,0.187099,-0.216573,0.0327229,0.00761615,0.00159131,5,0.1,6,2.8,1.23972,-1.7721,0.533394,0.829649,-0.152224,0.00152737,-0.270247,0.542283,-0.00107288,0.0070653,0.626388,5,0.1,7,2.8,-0.450915,0.399402,0.5,0.149602,0.468766,-4.47035e-06,-0.16658,-0.389189,2.98023e-05,0.0153811,0.513074,5,0.1,8,2.8,1.05703,-1.10822,0.600322,-0.721511,0.67499,-0.000284612,-0.61211,-0.35429,0.000268221,0.0097033,1.16574,5,0.1,9,2.8,-1.7554,-3.21987,0.596187,0.143728,0.110602,0.00520498,-0.127256,-0.397921,-0.00464916,0.0148086,0.255386,5,0.1
0,2.9,-3.79744,-0.721453,0.555114,-0.340277,0.0994993,0.000870693,0.159696,-0.0515133,-0.00045076,0.00820835,0.0661136,5,0.1,1,2.9,-1.01902,3.98321,0.599405,0.109436,0.0651125,0.000582449,-0.48098,-0.0668615,-0.000588596,0.0300548,0.493541,5,0.1,2,2.9,2.57447,3.0155,0.739115,0.283579,-0.109923,0.010791,-0.703722,-0.111699,-0.0104308,0.00696154,0.667155,5,0.1,3,2.9,3.22583,2.75412,0.59355,-0.0965588,0.309844,0.00806991,0.186563,-0.173315,-0.00471622,0.00758652,0.114944,5,0.1,4,2.9,-1.13544,-0.434201,0.590055,0.102396,-0.866025,-0.0219118,-0.00347942,3.57628e-06,0.000737607,0.00723141,2.26479,5,0.1,5,2.9,1.6137,0.340298,0.568651,-0.107715,0.124724,-0.0188266,0.179477,-0.207763,0.0313781,0.00761615,0.00159131,5,0.1,6,2.9,1.32146,-1.78472,0.533541,0.805448,-0.101418,0.00142809,-0.246383,0.467114,-0.000961125,0.0070653,0.626388,5,0.1,7,2.9,-0.436729,0.444918,0.5,0.134588,0.446302,-9.31323e-07,-0.138316,-0.103913,2.98023e-05,0.0153811,0.513074,5,0.1,8,2.9,0.981905,-1.04239,0.600295,-0.778902,0.642217,-0.000260957,-0.494003,-0.324145,0.000216067,0.0097033,1.16574,5,0.1,9,2.9,-1.74168,-3.21071,0.596684,0.130704,0.0735436,0.00473009,-0.134528,-0.339285,-0.00489876,0.0148086,0.255386,5,0.1
0,3,-3.83066,-0.71176,0.555199,-0.323546,0.0942647,0.000825524,0.186563,-0.0567138,-0.000506639,0.00909341,0.0517513,5,0.1,1,3,-1.01033,3.9894,0.59946,0.0661433,0.0586271,0.000524521,-0.376999,-0.0642538,-0.000566244,0.0237621,0.479983,5,0.1,2,3,2.6,3.00393,0.740142,0.233823,-0.121349,0.00976175,-0.304818,-0.105381,-0.0103712,0.0106194,0.558925,5,0.1,3,3,3.21714,2.78419,0.594333,-0.0768542,0.29093,0.00756383,0.203252,-0.212193,-0.00560284,0.00970775,0.262737,5,0.1,4,3,-1.12523,-0.520804,0.58787,0.10148,-0.866026,-0.021717,-0.0193119,0,0.00414252,0.00665857,2.26504,5,0.1,5,3,1.60382,0.351744,0.566923,-0.0900865,0.104314,-0.0157431,0.173211,-0.200495,0.0302494,0.00748031,0.000784799,5,0.1,6,3,1.40059,-1.79269,0.533679,0.77489,-0.059846,0.0013262,-0.387132,0.360608,-0.00107288,0.00627161,0.465933,5,0.1,7,3,-0.423946,0.489204,0.5,0.12115,0.440315,1.49012e-06,-0.133708,-0.0486523,0,0.0120384,0.393639,5,0.1,8,3,0.902019,-0.979891,0.60027,-0.813356,0.606295,-0.000239909,-0.167221,-0.409991,0.000238419,0.0109412,0.802219,5,0.1,9,3,-1.7293,-3.20493,0.597132,0.116625,0.0433564,0.00421852,-0.147641,-0.262499,-0.00536442,0.0174767,0.498719,5,0.1
0,3.1,-3.86222,-0.702571,0.55528,-0.308779,0.089844,0.000786036,0.125915,-0.0368766,-0.000327826,0.00909341,0.0517513,5,0.1,1,3.1,-1.00548,3.99496,0.59951,0.0326786,0.0528675,0.000473578,-0.273123,-0.0528246,-0.000465661,0.0237621,0.479983,5,0.1,2,3.1,2.62262,2.99121,0.74107,0.225063,-0.133435,0.00882121,0.0813007,-0.124365,-0.00872836,0.0106194,0.558925,5,0.1,3,3.1,3.21047,2.81225,0.595062,-0.0567537,0.270275,0.0070232,0.195429,-0.207677,-0.00539795,0.00970775,0.262737,5,0.1,4,3.1,-1.11514,-0.607406,0.585711,0.100631,-0.866026,-0.0215347,-0.00374764,3.72529e-06,0.000800937,0.00665857,2.26504,5,0.1,5,3.1,1.59565,0.361197,0.565497,-0.0734095,0.0850085,-0.0128302,0.160024,-0.185262,0.0279583,0.00748031,0.000784799,5,0.1,6,3.1,1.47626,-1.79703,0.533807,0.739087,-0.0286859,0.00122711,-0.355639,0.254825,-0.000953674,0.00627161,0.465933,5,0.1,7,3.1,-0.412451,0.533278,0.5,0.109136,0.44315,1.39698e-06,-0.110401,0.071222,-3.72529e-06,0.0120384,0.393639,5,0.1,8,3.1,0.819912,-0.921196,0.600247,-0.827283,0.568287,-0.000218861,-0.0778027,-0.369217,0.000193715,0.0109412,0.802219,5,0.1,9,3.1,-1.71833,-3.20186,0.597529,0.103167,0.0189073,0.00372995,-0.124611,-0.216484,-0.0045225,0.0174767,0.498719,5,0.1
0,3.2,-3.89246,-0.693773,0.555357,-0.295454,0.086005,0.000752509,0.152707,-0.0435412,-0.000417233,0.00972863,0.023647,5,0.1,1,3.2,-1.00329,3.99999,0.599555,0.0140548,0.0477374,0.000427663,-0.0931621,-0.0511408,-0.000447035,0.0316791,0.445883,5,0.1,2,3.2,2.64585,2.97729,0.74191,0.24153,-0.144178,0.00796616,0.210762,-0.082016,-0.00858307,0.00792543,0.469397,5,0.1,3,3.2,3.20574,2.8382,0.595736,-0.0383317,0.248277,0.00645518,0.170588,-0.236869,-0.00610948,0.00783793,0.251175,5,0.1,4,3.2,-1.10511,-0.694009,0.583564,0.0996947,-0.866026,-0.0213355,-0.0193119,0,0.00414252,0.0105874,2.2653,5,0.1,5,3.2,1.58909,0.3688,0.564349,-0.0581384,0.0673287,-0.0101626,0.145137,-0.168025,0.0253618,0.0111126,0.000645901,5,0.1,6,3.2,1.54827,-1.79884,0.533925,0.699273,-0.00980198,0.00112951,-0.458837,0.121355,-0.00104308,0.00769444,0.346193,5,0.1,7,3.2,-0.402076,0.577918,0.5,0.0984147,0.448677,1.49012e-06,-0.106752,0.0145435,-2.98023e-05,0.0107696,0.293427,5,0.1,8,3.2,0.737165,-0.866272,0.600226,-0.823358,0.529248,-0.000199676,0.178456,-0.424594,0.000149012,0.00891818,0.538638,5,0.1,9,3.2,-1.70862,-3.20091,0.59788,0.0911713,0.00157356,0.00329465,-0.117481,-0.125051,-0.00423193,0.0163734,0.618304,5,0.1
0,3.3,-3.92126,-0.685382,0.55543,-0.280619,0.0818201,0.000713021,0.153065,-0.0429191,-0.000394881,0.00972863,0.023647,5,0.1,1,3.3,-1.00212,4.00453,0.599596,0.0125792,0.0431601,0.000387616,0.0911206,-0.0419766,-0.000372529,0.0316791,0.445883,5,0.1,2,3.3,2.67138,2.96267,0.742823,0.271571,-0.146387,0.0116358,0.353128,0.0332445,0.0718534,0.00792543,0.469397,5,0.1,3,3.3,3.20277,2.86187,0.596352,-0.0211906,0.225194,0.00586202,0.162795,-0.229016,-0.00587478,0.00783793,0.251175,5,0.1,4,3.3,-1.0952,-0.780611,0.581443,0.0988178,-0.866026,-0.0211473,-0.00415742,3.72529e-06,0.000890344,0.0105874,2.2653,5,0.1,5,3.3,1.58397,0.374724,0.563455,-0.0444597,0.0514919,-0.00777207,0.128038,-0.14825,0.0223815,0.0111126,0.000645901,5,0.1,6,3.3,1.61603,-1.7994,0.534033,0.6567,-0.00339299,0.00103377,-0.414707,-0.00455976,-0.00090152,0.00769444,0.346193,5,0.1,7,3.3,-0.392729,0.622993,0.5,0.0888426,0.453488,-5.58794e-07,-0.0878591,0.0548065,-7.45058e-06,0.0107696,0.293427,5,0.1,8,3.3,0.655721,-0.815349,0.600207,-0.804825,0.490024,-0.000186265,0.21968,-0.375729,0.00012666,0.00891818,0.538638,5,0.1,9,3.3,-1.70008,-3.20131,0.598189,0.0797791,-0.00839084,0.00288412,-0.11123,-0.0551939,-0.00400841,0.0163734,0.618304,5,0.1
0,3.4,-3.9485,-0.677432,0.555499,-0.263351,0.076963,0.000669062,0.198245,-0.0559986,-0.000476837,0.00646167,0.0143953,5,0.1,1,3.4,-1,4.00864,0.599632,0.0335082,0.0390649,0.000351667,0.312269,-0.0405312,-0.00038743,0.0295419,0.385174,5,0.1,2,3.4,2.70029,2.94835,0.74441,0.305748,-0.138426,0.0205398,0.303268,0.121593,0.0983477,0.0079724,0.318343,5,0.1,3,3.4,3.20139,2.88323,0.596908,-0.00725985,0.20178,0.00526011,0.110388,-0.242114,-0.00616908,0.00719922,0.621344,5,0.1,4,3.4,-1.08535,-0.867214,0.579336,0.097847,-0.866026,-0.0209391,-0.0193715,0,0.00411272,0.00869892,2.26556,5,0.1,5,3.4,1.58014,0.379168,0.562784,-0.0325948,0.0377521,-0.00569969,0.109076,-0.126272,0.0191033,0.00922034,0.000498452,5,0.1,6,3.4,1.67955,-1.8,0.534132,0.612611,-0.0109464,0.000943244,-0.482202,-0.137568,-0.000923872,0.00825675,0.254713,5,0.1,7,3.4,-0.384274,0.668502,0.5,0.0803001,0.455064,-1.49012e-06,-0.0852495,-0.0421703,0,0.0119216,0.244681,5,0.1,8,3.4,0.576587,-0.76825,0.600189,-0.774862,0.451425,-0.000172853,0.397742,-0.407249,0.000149012,0.00856086,0.357069,5,0.1,9,3.4,-1.69265,-3.2022,0.598457,0.0687897,-0.00698566,0.00248849,-0.109076,0.0890493,-0.00396371,0.0133756,1.09279,5,0.1
0,3.5,-3.97387,-0.670008,0.555564,-0.244043,0.0715242,0.000622775,0.195011,-0.0549369,-0.000473112,0.00646167,0.0143953,5,0.1,1,3.5,-0.994634,4.01236,0.599666,0.0773402,0.035435,0.000317022,0.524879,-0.033319,-0.000312924,0.0295419,0.385174,5,0.1,2,3.5,2.73243,2.93526,0.746867,0.336904,-0.122076,0.0277725,0.295326,0.198007,0.0480525,0.0079724,0.318343,5,0.1,3,3.5,3.20123,2.90219,0.597404,0.00365227,0.177587,0.00464227,0.0825226,-0.242487,-0.00621378,0.00719922,0.621344,5,0.1,4,3.5,-1.07563,-0.953816,0.577254,0.0969348,-0.866025,-0.0207467,-0.00465661,7.45058e-06,0.000968575,0.00869892,2.26556,5,0.1,5,3.5,1.57739,0.382346,0.562305,-0.0225689,0.0261443,-0.00394415,0.09121,-0.105616,0.0159666,0.00922034,0.000498452,5,0.1,6,3.5,1.73854,-1.80204,0.534222,0.568023,-0.0317723,0.000858679,-0.427939,-0.258341,-0.000797212,0.00825675,0.254713,5,0.1,7,3.5,-0.376482,0.71387,0.5,0.0771097,0.452463,-1.11759e-06,0.00894628,-0.0312887,7.45058e-06,0.0119216,0.244681,5,0.1,8,3.5,0.501026,-0.725023,0.600172,-0.736427,0.413991,-0.000159442,0.393839,-0.354677,0.00012666,0.00856086,0.357069,5,0.1,9,3.5,-1.68629,-3.20237,0.598687,0.0585422,0.0062082,0.00211643,-0.0967234,0.241712,-0.0035055,0.0133756,1.09279,5,0.1
0,3.6,-3.99725,-0.663143,0.555623,-0.223219,0.0656277,0.000572205,0.226021,-0.0643432,-0.000536442,0.00841819,0.00460833,5,0.1,1,3.6,-0.984192,4.01574,0.599696,0.131547,0.0321746,0.000286102,0.529438,-0.0329018,-0.000298023,0.0239491,0.311668,5,0.1,2,3.6,2.76742,2.92412,0.749814,0.360656,-0.100178,0.0304922,0.162721,0.233889,0.00801682,0.0115119,0.263675,5,0.1,3,3.6,3.20181,2.91874,0.597836,0.00571012,0.153178,0.00401437,-0.05126,-0.24581,-0.00631809,0.00890109,3.21882,5,0.1,4,3.6,-1.06597,-1.04042,0.575187,0.0959247,-0.866026,-0.0205323,-0.0196099,0,0.00417233,0.00681591,2.26584,5,0.1,5,3.6,1.57556,0.384468,0.561985,-0.0143826,0.0166632,-0.00251234,0.0724792,-0.0839233,0.0126958,0.00922253,0.000299495,5,0.1,6,3.6,1.79317,-1.80656,0.534303,0.523916,-0.0589877,0.000780821,-0.466883,-0.270307,-0.000834465,0.00618303,0.185076,5,0.1,7,3.6,-0.368655,0.758834,0.5,0.0798836,0.445186,0,0.0369847,-0.128984,0,0.00801575,0.174655,5,0.1,8,3.6,0.429498,-0.685398,0.600157,-0.692283,0.378244,-0.000146031,0.504255,-0.369489,0.000119209,0.0104519,0.315369,5,0.1,9,3.6,-1.68091,-3.2,0.598882,0.049299,0.0464857,0.00178069,-0.0888109,0.548482,-0.00318885,0.0174097,1.94161,5,0.1
0,3.7,-4.01844,-0.656903,0.555678,-0.200443,0.0591292,0.000517443,0.231862,-0.0663735,-0.000566244,0.00841819,0.00460833,5,0.1,1,3.7,-0.968256,4.01881,0.599723,0.187767,0.0292286,0.000259466,0.565067,-0.0271201,-0.000245869,0.0239491,0.311668,5,0.1,2,3.7,2.80396,2.91529,0.752923,0.366688,-0.0765003,0.0318367,-0.0397861,0.235319,0.0161156,0.0115119,0.263675,5,0.1,3,3.7,3.20197,2.93317,0.598024,-0.00519268,0.138428,-0.0017819,-0.20723,-0.0696033,-0.0980981,0.00890109,3.21882,5,0.1,4,3.7,-1.05644,-1.12702,0.573147,0.0949601,-0.866026,-0.0203279,-0.00531226,0,0.00112131,0.00681591,2.26584,5,0.1,5,3.7,1.57446,0.385745,0.561792,-0.00792686,0.00918745,-0.00138208,0.056617,-0.0655781,0.00990927,0.00922253,0.000299495,5,0.1,6,3.7,1.84337,-1.81389,0.534378,0.480962,-0.0879865,0.000705291,-0.407569,-0.294089,-0.00070408,0.00618303,0.185076,5,0.1,7,3.7,-0.360398,0.802764,0.5,0.0858473,0.433513,0,0.0726916,-0.121828,0,0.00801575,0.174655,5,0.1,8,3.7,0.362681,-0.64915,0.600143,-0.64466,0.348898,-0.000135135,0.467414,-0.238378,0.000108033,0.0104519,0.315369,5,0.1,9,3.7,-1.6764,-3.19146,0.599045,0.0411298,0.133501,0.00148732,-0.0753701,1.10069,-0.00271201,0.0174097,1.94161,5,0.1
0,3.8,-4.0373,-0.65133,0.555727,-0.176489,0.0522435,0.000458956,0.248194,-0.0717044,-0.000625849,0.00722058,0.00137363,5,0.1,1,3.8,-0.946797,4.0216,0.599748,0.239423,0.0265837,0.000235438,0.446528,-0.0269413,-0.000238419,0.0284555,0.238688,5,0.1,2,3.8,2.84011,2.90878,0.756183,0.353301,-0.0538707,0.033243,-0.224233,0.214219,0.0100136,0.00462159,0.65906,5,0.1,3,3.8,3.2,2.94682,0.597282,-0.0382483,0.135648,-0.0135586,-0.438333,-0.00178814,-0.128478,0.0072402,3.59518,5,0.1,4,3.8,-1.04698,-1.21362,0.571123,0.0938982,-0.866026,-0.0201032,-0.019908,5.96046e-05,0.00429153,0.00735622,2.26612,5,0.1,5,3.8,1.57392,0.386367,0.561699,-0.00304878,0.00353754,-0.000528991,0.041008,-0.0475496,0.00718236,0.0078259,0.000136721,5,0.1,6,3.8,1.88942,-1.8241,0.534445,0.439799,-0.115123,0.00063628,-0.426412,-0.237346,-0.000685453,0.00854971,0.132388,5,0.1,7,3.8,-0.351456,0.845402,0.5,0.092759,0.417903,0,0.0585169,-0.202179,0,0.00891867,0.125018,5,0.1,8,3.8,0.300618,-0.615376,0.60013,-0.595582,0.326927,-0.00012517,0.527158,-0.216484,0.000119209,0.00871168,0.217677,5,0.1,9,3.8,-1.67264,-3.17231,0.59918,0.0340849,0.250566,0.00123382,-0.0662208,1.17135,-0.00238419,0.0139101,2.34396,5,0.1
0,3.9,-4.05372,-0.646463,0.55577,-0.151823,0.0450996,0.000396464,0.245154,-0.0712089,-0.000622123,0.00722058,0.00137363,5,0.1,1,3.9,-0.920624,4.02413,0.59977,0.283405,0.0241704,0.000214111,0.410106,-0.0222027,-0.00018999,0.0284555,0.238688,5,0.1,2,3.9,2.87299,2.90441,0.75986,0.292997,-0.0341292,0.0427987,-0.904843,0.178173,0.16021,0.00462159,0.65906,5,0.1,3,3.9,3.19343,2.96095,0.595032,-0.0973664,0.151644,-0.0334477,-0.694305,0.280097,-0.248939,0.0072402,3.59518,5,0.1,4,3.9,-1.03766,-1.30023,0.569126,0.0928747,-0.866025,-0.0198815,-0.00604242,-1.49012e-05,0.0013113,0.00735622,2.26612,5,0.1,5,3.9,1.5738,0.386507,0.561678,0.000432692,-0.000499422,8.03731e-05,0.0287816,-0.0333693,0.00503287,0.0078259,0.000136721,5,0.1,6,3.9,1.9314,-1.8368,0.534505,0.400773,-0.13861,0.000574533,-0.366971,-0.220425,-0.000569969,0.00854971,0.132388,5,0.1,7,3.9,-0.342011,0.88624,0.5,0.0949502,0.399086,0,-0.0123587,-0.18841,0,0.00891867,0.125018,5,0.1,8,3.9,0.243561,-0.583604,0.600118,-0.546481,0.309719,-0.000114366,0.471042,-0.144366,0.000104308,0.00871168,0.217677,5,0.1,9,3.9,-1.66954,-3.14072,0.599293,0.0280965,0.385826,0.00101812,-0.05427,1.44525,-0.00195205,0.0139101,2.34396,5,0.1
0,4,-4.06768,-0.642308,0.555806,-0.127482,0.0380069,0.000333786,0.24128,-0.0705719,-0.000596046,0.00947825,0.000722703,5,0.1,1,4,-0.890448,4.02644,0.599791,0.317559,0.022006,0.000193715,0.257194,-0.0221729,-0.000149012,0.0258403,0.17252,5,0.1,2,4,2.89717,2.90182,0.765047,0.186121,-0.0185847,0.0615925,-1.17207,0.131488,0.199586,0.00531855,0.397702,5,0.1,3,4,3.18014,2.9777,0.590382,-0.168389,0.184333,-0.0597626,-0.688672,0.341773,-0.261843,0.0116878,3.28746,5,0.1,4,4,-1.02841,-1.38683,0.567147,0.0917554,-0.866026,-0.0196397,-0.020206,0,0.00432134,0.00710863,2.26641,5,0.1,5,4,1.57397,0.386312,0.561708,0.00274181,-0.00317916,0.000484288,0.0177026,-0.0204593,0.00306964,0.00741227,4.74002e-05,5,0.1,6,4,1.96965,-1.85165,0.53456,0.364217,-0.157189,0.00051707,-0.373065,-0.142813,-0.000506639,0.00587356,0.158703,5,0.1,7,4,-0.332679,0.925135,0.5,0.0907555,0.377829,0,-0.0691712,-0.246346,0,0.00765466,0.164315,5,0.1,8,4,0.191283,-0.553347,0.600107,-0.498642,0.295183,-0.000104308,0.496872,-0.15837,0.000119209,0.00683351,0.14985,5,0.1,9,4,-1.66699,-3.09506,0.599385,0.0231057,0.524241,0.000837445,-0.046134,1.25778,-0.00163913,0.0155008,0.376205,5,0.1
0,4.1,-4.07924,-0.638854,0.555836,-0.104061,0.0311424,0.000275206,0.226378,-0.0664927,-0.000569969,0.00947825,0.000722703,5,0.1,1,4.1,-0.857445,4.02853,0.59981,0.341657,0.0200197,0.000179932,0.206679,-0.018239,-0.00013411,0.0258403,0.17252,5,0.1,2,4.1,2.90973,2.90053,0.772406,0.0643324,-0.00791959,0.0870458,-1.22328,0.0822395,0.288066,0.00531855,0.397702,5,0.1,3,4.1,3.15923,2.99786,0.583113,-0.254412,0.218651,-0.085226,-0.964358,0.325456,-0.238065,0.0116878,3.28746,5,0.1,4,4.1,-1.0193,-1.47343,0.565197,0.0906698,-0.866026,-0.0194079,-0.00679493,0,0.00144914,0.00710863,2.26641,5,0.1,5,4.1,1.57432,0.385908,0.561769,0.00408832,-0.00473573,0.000717398,0.00946969,-0.0109542,0.0016354,0.00741227,4.74002e-05,5,0.1,6,4.1,2.00451,-1.86824,0.534609,0.33529,-0.175554,0.000478141,-0.227623,-0.203989,-0.000305474,0.00587356,0.158703,5,0.1,7,4.1,-0.324047,0.961963,0.5,0.0810165,0.360862,0,-0.121055,-0.118278,0,0.00765466,0.164315,5,0.1,8,4.1,0.143763,-0.524518,0.600097,-0.45283,0.28206,-9.35979e-05,0.43301,-0.117477,0.000100583,0.00683351,0.14985,5,0.1,9,4.1,-1.66489,-3.03715,0.599461,0.0189971,0.625611,0.000691041,-0.036642,0.761196,-0.0013113,0.0155008,0.376205,5,0.1
0,4.2,-4.08855,-0.636064,0.555861,-0.0823617,0.0247508,0.000220537,0.207424,-0.0611246,-0.000536442,0.0144894,0.000648677,5,0.1,1,4.2,-0.82245,4.03045,0.599827,0.355875,0.0182271,0.000165403,0.0655949,-0.0181198,-0.000119209,0.0291468,0.135852,5,0.1,2,4.2,2.91024,2.90008,0.782552,-0.0515342,-0.00193119,0.115475,-1.06442,0.0393391,0.264555,0.00457915,0.300389,5,0.1,3,4.2,3.12897,3.0212,0.573502,-0.349504,0.246185,-0.105798,-0.887275,0.212073,-0.166893,0.00750512,2.98382,5,0.1,4,4.2,-1.01028,-1.56003,0.563267,0.0894874,-0.866026,-0.0191554,-0.0205636,0,0.00441074,0.00631061,2.26671,5,0.1,5,4.2,1.57476,0.385394,0.561847,0.00468493,-0.00542626,0.000819564,0.00274181,-0.00317395,0.000476837,0.00754987,1.44417e-05,5,0.1,6,4.2,2.03699,-1.88678,0.534656,0.314838,-0.194448,0.000451505,-0.198007,-0.159085,-0.000298023,0.00670958,0.0956773,5,0.1,7,4.2,-0.316605,0.9975,0.5,0.0673831,0.3498,0,-0.14782,-0.121444,0,0.00939429,0.117116,5,0.1,8,4.2,0.10063,-0.496922,0.600088,-0.409723,0.269403,-8.49366e-05,0.438649,-0.145137,0.000119209,0.00667917,0.102707,5,0.1,9,4.2,-1.66317,-2.97166,0.599524,0.0156671,0.675493,0.000572205,-0.030458,0.235081,-0.00110269,0.0171227,0.116416,5,0.1
0,4.3,-4.09578,-0.633884,0.555881,-0.0627354,0.0189546,0.000169314,0.184357,-0.0545643,-0.000484288,0.0144894,0.000648677,5,0.1,1,4.3,-0.786561,4.03203,0.599843,0.361271,0.0121564,0.000153948,0.027772,-0.0939965,-0.000108033,0.0291468,0.135852,5,0.1,2,4.3,2.90008,2.90003,0.795591,-0.148027,0.000609085,0.146399,-0.850901,0.0135154,0.330389,0.00457915,0.300389,5,0.1,3,4.3,3.08889,3.04636,0.562232,-0.456686,0.252349,-0.118134,-1.17221,-0.0730902,-0.0794753,0.00750512,2.98382,5,0.1,4,4.3,-1.0014,-1.64664,0.561366,0.0883321,-0.866026,-0.0189076,-0.00766292,0,0.00164285,0.00631061,2.26671,5,0.1,5,4.3,1.57524,0.384845,0.56193,0.00471491,-0.00546174,0.000824686,-0.0018701,0.00216439,-0.000331551,0.00754987,1.44417e-05,5,0.1,6,4.3,2.06761,-1.90702,0.5347,0.298459,-0.210193,0.000427198,-0.144228,-0.142701,-0.000204891,0.00670958,0.0956773,5,0.1,7,4.3,-0.310627,1.03197,0.5,0.0520536,0.340115,0,-0.155242,-0.0887401,0,0.00939429,0.117116,5,0.1,8,4.3,0.061716,-0.470636,0.60008,-0.369605,0.256751,-7.45989e-05,0.375206,-0.118738,9.31323e-05,0.00667917,0.102707,5,0.1,9,4.3,-1.66174,-2.9035,0.599576,0.0129947,0.681973,0.000475161,-0.0235066,-0.103772,-0.000856817,0.0171227,0.116416,5,0.1
0,4.4,-4.10118,-0.632249,0.555895,-0.0456333,0.0138775,0.00012368,0.157595,-0.0467896,-0.00038743,0.00620431,0.000515675,5,0.1,1,4.4,-0.750454,4.03271,0.599858,0.359015,0.0010848,0.000141561,-0.0824928,-0.120401,-8.9407e-05,0.0279456,0.137252,5,0.1,2,4.4,2.88147,2.90013,0.811833,-0.219393,0.00113845,0.177483,-0.567555,-0.00119209,0.274181,0.00564489,0.283366,5,0.1,3,4.4,3.03746,3.07087,0.550167,-0.569326,0.234526,-0.121722,-1.01864,-0.269294,0.00709295,0.00687066,2.62813,5,0.1,4,4.4,-0.99262,-1.73324,0.559486,0.0870809,-0.866026,-0.0186399,-0.0210106,0,0.00450015,0.0065914,2.26702,5,0.1,5,4.4,1.57569,0.384316,0.56201,0.00436008,-0.00505,0.000761449,-0.00506639,0.00581145,-0.00089407,0.00879943,7.62907e-06,5,0.1,6,4.4,2.09673,-1.92864,0.534741,0.283492,-0.220782,0.000405312,-0.165582,-0.0602603,-0.000238419,0.00854499,0.0745993,5,0.1,7,4.4,-0.306186,1.06548,0.5,0.0369474,0.329256,0,-0.144258,-0.140011,0,0.0125356,0.221479,5,0.1,8,4.4,0.0266031,-0.445583,0.600073,-0.332724,0.243816,-6.70552e-05,0.370509,-0.147492,0.000119209,0.00657526,0.138851,5,0.1,9,4.4,-1.66055,-2.83637,0.59962,0.0108749,0.655407,0.000397861,-0.0192523,-0.422716,-0.000715256,0.0121114,0.335183,5,0.1
0,4.5,-4.10499,-0.631083,0.555906,-0.0311278,0.00955937,8.72649e-05,0.132054,-0.0394247,-0.000339001,0.00620431,0.000515675,5,0.1,1,4.5,-0.714735,4.03235,0.599871,0.356977,-0.00729486,0.000134576,0.015188,-0.0515282,-5.58794e-05,0.0279456,0.137252,5,0.1,2,4.5,2.85714,2.90023,0.831097,-0.262791,0.00077635,0.208628,-0.302479,-0.00539422,0.323873,0.00564489,0.283366,5,0.1,3,4.5,2.97499,3.0923,0.538244,-0.682305,0.188464,-0.114848,-1.1594,-0.610664,0.12159,0.00687066,2.62813,5,0.1,4,4.5,-0.983984,-1.81984,0.557637,0.0858442,-0.866026,-0.018375,-0.0086464,0,0.00184774,0.0065914,2.26702,5,0.1,5,4.5,1.5761,0.383844,0.562081,0.00374895,-0.00434727,0.000653882,-0.00692159,0.00798516,-0.00121817,0.00879943,7.62907e-06,5,0.1,6,4.5,2.12438,-1.95106,0.534781,0.27044,-0.227552,0.000386871,-0.110596,-0.0615194,-0.000149012,0.00854499,0.0745993,5,0.1,7,4.5,-0.303173,1.09773,0.5,0.0237348,0.315679,0,-0.11896,-0.141971,0,0.0125356,0.221479,5,0.1,8,4.5,-0.00493787,-0.421725,0.600067,-0.29906,0.234998,-5.69038e-05,0.312406,-0.047585,8.56817e-05,0.00657526,0.138851,5,0.1,9,4.5,-1.65955,-2.77267,0.599656,0.00920985,0.620415,0.000336021,-0.0144616,-0.307366,-0.000536442,0.0121114,0.335183,5,0.1
0,4.6,-4.10749,-0.630311,0.555913,-0.0192761,0.00601262,5.66244e-05,0.104427,-0.0314116,-0.000268221,0.00824807,0.000309564,5,0.1,1,4.6,-0.678979,4.03144,0.599885,0.357482,-0.0100136,0.00012815,-0.0242591,-0.00619888,-5.96046e-05,0.0227436,0.105135,5,0.1,2,4.6,2.82977,2.90028,0.853494,-0.280482,0.000172853,0.237989,-0.0553131,-0.00631809,0.245512,0.00564829,0.292283,5,0.1,3,4.6,2.90129,3.10781,0.527495,-0.787181,0.119781,-0.0990182,-0.879526,-0.730515,0.187635,0.00892347,2.39584,5,0.1,4,4.6,-0.975455,-1.90644,0.555812,0.0845119,-0.866026,-0.01809,-0.0215173,0,0.00458956,0.00903195,1.82207,5,0.1,5,4.6,1.57644,0.383452,0.56214,0.003016,-0.00349879,0.000526011,-0.00762939,0.00876188,-0.00137091,0.00733926,7.09322e-06,5,0.1,6,4.6,2.15086,-1.97403,0.534819,0.258791,-0.230798,0.000371039,-0.133157,0.00590086,-0.000178814,0.00628935,0.0342908,5,0.1,7,4.6,-0.301346,1.12851,0.5,0.0133038,0.29912,0,-0.0891984,-0.19604,0,0.00728979,0.423334,5,0.1,8,4.6,-0.0333136,-0.398425,0.600062,-0.268595,0.231046,-4.91738e-05,0.303729,-0.0452697,5.96046e-05,0.00743851,0.178458,5,0.1,9,4.6,-1.65869,-2.71218,0.599688,0.00790656,0.588757,0.000287592,-0.0118017,-0.347257,-0.000447035,0.0174211,0.808921,5,0.1
0,4.7,-4.10894,-0.629856,0.555917,-0.00997707,0.00320747,3.21306e-05,0.0814497,-0.024654,-0.000219792,0.00824807,0.000309564,5,0.1,1,4.7,-0.643298,4.0302,0.599897,0.356226,-0.016629,0.000122562,-0.0179335,-0.112087,-5.21541e-05,0.0227436,0.105135,5,0.1,2,4.7,2.80185,2.90027,0.87865,-0.274326,-0.000320002,0.265771,0.166014,-0.00365078,0.284757,0.00564829,0.292283,5,0.1,3,4.7,2.81904,3.11592,0.5186,-0.849151,0.0408504,-0.07836,-0.371456,-0.816569,0.219457,0.00892347,2.39584,5,0.1,4,4.7,-0.967092,-1.99305,0.554022,0.0828517,-0.866026,-0.017736,-0.0156574,0,0.00334159,0.00903195,1.82207,5,0.1,5,4.7,1.5767,0.383146,0.562186,0.00223983,-0.00260575,0.00038743,-0.00772625,0.00891089,-0.00137091,0.00733926,7.09322e-06,5,0.1,6,4.7,2.17609,-1.99704,0.534855,0.245896,-0.228745,0.000353623,-0.132814,0.0418946,-0.000182539,0.00628935,0.0342908,5,0.1,7,4.7,-0.300508,1.15745,0.5,0.00329674,0.279559,0,-0.0994224,-0.201672,0,0.00728979,0.423334,5,0.1,8,4.7,-0.0588881,-0.375203,0.600057,-0.244811,0.23605,-4.52623e-05,0.188278,0.115637,2.23517e-05,0.00743851,0.178458,5,0.1,9,4.7,-1.65796,-2.65439,0.599714,0.00689905,0.572199,0.000249501,-0.00869483,-0.0379235,-0.000331551,0.0174211,0.808921,5,0.1
0,4.8,-4.10956,-0.629647,0.55592,-0.00298023,0.00108182,1.3411e-05,0.058651,-0.0178516,-0.000178814,0.00911429,0.000140955,5,0.1,1,4.8,-0.607869,4.0279,0.599909,0.351015,-0.0299335,0.000117719,-0.0979602,-0.14329,-0.000119209,0.0226888,0.169574,5,0.1,2,4.8,2.77553,2.90022,0.906545,-0.249618,-0.000572205,0.290596,0.317335,-0.00143051,0.193655,0.01091,0.394594,5,0.1,3,4.8,2.73297,3.11599,0.511872,-0.866026,-0.0380337,-0.0562087,0,-0.737667,0.218779,0.00943345,2.28189,5,0.1,4,4.8,-0.958902,-2.07965,0.552268,0.0807077,-0.866026,-0.0172779,-0.0299811,0,0.0064075,0.00729695,1.41434,5,0.1,5,4.8,1.57689,0.382929,0.562218,0.00149906,-0.0017494,0.0002563,-0.00697374,0.00809133,-0.0012219,0.00676181,5.7812e-06,5,0.1,6,4.8,2.19997,-2.0196,0.534889,0.230908,-0.22133,0.000333786,-0.172377,0.110388,-0.000268221,0.00647148,0.0131812,5,0.1,7,4.8,-0.300618,1.18435,0.5,-0.00475794,0.257728,0,-0.0549406,-0.239193,0,0.00750648,0.392323,5,0.1,8,4.8,-0.0825086,-0.350955,0.600053,-0.228092,0.248989,-4.32134e-05,0.158257,0.120997,0,0.0120406,0.119475,5,0.1,9,4.8,-1.65731,-2.59721,0.599738,0.00610948,0.571746,0.000219047,-0.00733137,-0.0113249,-0.000268221,0.0150989,1.43752,5,0.1
0,4.9,-4.1096,-0.629619,0.55592,0.00197887,-0.000435114,-2.14204e-06,0.0407696,-0.0125393,-0.000130385,0.00911429,0.000140955,5,0.1,1,4.9,-0.573265,4.02429,0.59992,0.340713,-0.0411779,0.000107009,-0.118732,-0.082314,-0.000100583,0.0226888,0.169574,5,0.1,2,4.9,2.75284,2.90027,0.935997,-0.198468,0.00229627,0.293168,0.662848,0.0521839,-0.123415,0.01091,0.394594,5,0.1,3,4.9,2.64637,3.10847,0.507241,-0.866026,-0.112064,-0.0373996,0,-0.716984,0.15955,0.00943345,2.28189,5,0.1,4,4.9,-0.950967,-2.16625,0.550569,0.0780548,-0.865835,-0.0167109,-0.0262819,0.00762939,0.00561774,0.00729695,1.41434,5,0.1,5,4.9,1.57701,0.382793,0.562238,0.000835769,-0.000979239,0.000140537,-0.00619143,0.00719912,-0.00107661,0.00676181,5.7812e-06,5,0.1,6,4.9,2.22219,-2.04113,0.534921,0.213312,-0.208759,0.000306871,-0.183195,0.143677,-0.000271946,0.00647148,0.0131812,5,0.1,7,4.9,-0.301389,1.20894,0.5,-0.0102005,0.234158,0,-0.0290405,-0.236191,0,0.00750648,0.392323,5,0.1,8,4.9,-0.104629,-0.325618,0.600048,-0.215063,0.255989,-4.35859e-05,0.113161,0.0157077,-7.45058e-06,0.0120406,0.119475,5,0.1,9,4.9,-1.65673,-2.53931,0.599758,0.00548903,0.592226,0.000196323,-0.00535697,0.349134,-0.000193715,0.0150989,1.43752,5,0.1
0,5,-4.10923,-0.629717,0.555919,0.00520945,-0.00143945,-1.19209e-05,0.0245571,-0.00762939,-0.000119209,0.00713982,4.8717e-05,5,0.1,1,5,-0.539892,4.01986,0.599931,0.325511,-0.0465751,9.68575e-05,-0.192255,-0.0264645,-8.9407e-05,0.0284784,0.146411,5,0.1,2,5,2.73658,2.9008,0.964303,-0.124705,0.0086844,0.269429,0.778675,0.0705719,-0.334978,0.00835843,0.325999,5,0.1,3,5,2.55977,3.09388,0.504216,-0.866026,-0.177002,-0.023894,0,-0.563145,0.112414,0.00786733,2.23733,5,0.1,4,5,-0.943308,-2.25273,0.54893,0.0749096,-0.862968,-0.0160381,-0.0388324,0.0609159,0.00831485,0.00721506,1.06605,5,0.1,5,5,1.57706,0.382729,0.562247,0.000277162,-0.000328571,4.32134e-05,-0.00500679,0.00575185,-0.000864267,0.00738699,3.54557e-06,5,0.1,6,5,2.24256,-2.06122,0.534951,0.193685,-0.192207,0.000278652,-0.211358,0.188589,-0.000298023,0.00804911,0.00656055,5,0.1,7,5,-0.302365,1.23115,0.5,-0.00714213,0.209841,0,0.0995547,-0.252664,0,0.0104131,1.76341,5,0.1,8,5,-0.125571,-0.300136,0.600044,-0.2036,0.251688,-4.47035e-05,0.123851,-0.102848,2.98023e-05,0.0116821,0.10087,5,0.1,9,5,-1.65621,-2.47823,0.599777,0.00498891,0.629056,0.000178814,-0.00470877,0.334263,-0.000178814,0.0120566,2.48979,5,0.1
0,5.1,-4.1086,-0.629893,0.555918,0.00704303,-0.00201724,-2.1141e-05,0.0124872,-0.00402331,-6.33299e-05,0.00713982,4.8717e-05,5,0.1,1,5.1,-0.508314,4.01517,0.59994,0.305781,-0.0461474,8.83825e-05,-0.20886,0.0311732,-7.82311e-05,0.0284784,0.146411,5,0.1,2,5.1,2.72821,2.90206,0.989351,-0.0415195,0.016794,0.229682,0.853375,0.0866503,-0.446666,0.00835843,0.325999,5,0.1,3,5.1,2.47317,3.07339,0.502325,-0.866026,-0.232159,-0.0145172,0,-0.516951,0.0766553,0.00786733,2.23733,5,0.1,4,5.1,-0.935998,-2.33898,0.547365,0.0713479,-0.863362,-0.0152754,-0.0350326,-0.0230968,0.00750273,0.00721506,1.06605,5,0.1,5,5.1,1.57706,0.382723,0.562247,-0.000172481,0.000188872,-3.40864e-05,-0.00393391,0.00454113,-0.000678003,0.00738699,3.54557e-06,5,0.1,6,5.1,2.26089,-2.07949,0.534977,0.172922,-0.173037,0.000249501,-0.206664,0.19668,-0.000294298,0.00804911,0.00656055,5,0.1,7,5.1,-0.302451,1.25197,0.5,0.00796928,0.215652,0,0.246601,0.299104,0,0.0104131,1.76341,5,0.1,8,5.1,-0.145353,-0.275794,0.60004,-0.192267,0.232334,-4.21889e-05,0.109818,-0.271598,1.86265e-05,0.0116821,0.10087,5,0.1,9,5.1,-1.65573,-2.41274,0.599794,0.0045456,0.687638,0.00016205,-0.00427663,0.744179,-0.000163913,0.0120566,2.48979,5,0.1
0,5.2,-4.10785,-0.63011,0.555915,0.00777245,-0.00226498,-2.68221e-05,0.00238419,-0.00101328,0,0.00948688,1.44558e-05,5,0.1,1,5.2,-0.47885,4.01078,0.599948,0.282686,-0.0410676,8.04663e-05,-0.257045,0.0669956,-0.000119209,0.021588,0.329311,5,0.1,2,5.2,2.72823,2.90417,1.00999,0.0404716,0.0251472,0.182506,0.762701,0.0767708,-0.486016,0.0104236,0.244882,5,0.1,3,5.2,2.38656,3.04782,0.501208,-0.866026,-0.2765,-0.0082776,0,-0.353932,0.0495017,0.0108135,2.2075,5,0.1,4,5.2,-0.92905,-2.42527,0.545877,0.067462,-0.86,-0.0144437,-0.0444949,0.120521,0.00953674,0.00651553,0.774687,5,0.1,5,5.2,1.57703,0.382763,0.56224,-0.000500679,0.00057146,-9.08971e-05,-0.00274181,0.00309944,-0.000447035,0.0069184,1.60959e-06,5,0.1,6,5.2,2.27714,-2.09578,0.535001,0.15192,-0.152606,0.000220537,-0.215054,0.213027,-0.000327826,0.00665082,0.00196396,5,0.1,7,5.2,-0.3,1.27547,0.5,0.0450097,0.257292,0,0.478595,0.479877,0,0.00722953,1.47325,5,0.1,8,5.2,-0.164007,-0.25411,0.600036,-0.180454,0.199708,-4.02331e-05,0.131264,-0.370145,2.98023e-05,0.00978979,0.133211,5,0.1,9,5.2,-1.6553,-2.3402,0.59981,0.00411272,0.76167,0.000147521,-0.00447035,0.667453,-0.000208616,0.013454,0.291588,5,0.1
0,5.3,-4.10708,-0.630337,0.555913,0.00765845,-0.00225939,-2.57045e-05,-0.00426173,0.00101328,1.49012e-05,0.00948688,1.44558e-05,5,0.1,1,5.3,-0.451859,4.00705,0.599956,0.257092,-0.0330865,6.97561e-05,-0.258787,0.0888705,-0.000100583,0.021588,0.329311,5,0.1,2,5.3,2.73607,2.90707,1.02594,0.115578,0.0329394,0.13771,0.715718,0.0752956,-0.410415,0.0104236,0.244882,5,0.1,3,5.3,2.29996,3.0184,0.500593,-0.866026,-0.311252,-0.00432637,0,-0.319436,0.0304952,0.0108135,2.2075,5,0.1,4,5.3,-0.922513,-2.51086,0.544478,0.063352,-0.852532,-0.0135629,-0.0398792,0.0714511,0.00854209,0.00651553,0.774687,5,0.1,5,5.3,1.57697,0.382833,0.562229,-0.000725687,0.00082762,-0.000127777,-0.00175834,0.00201352,-0.000283122,0.0069184,1.60959e-06,5,0.1,6,5.3,2.29126,-2.10998,0.535021,0.130779,-0.13136,0.000188965,-0.208318,0.211805,-0.000309199,0.00665082,0.00196396,5,0.1,7,5.3,-0.292903,1.30404,0.5,0.0982711,0.317285,0,0.559602,0.666983,0,0.00722953,1.47325,5,0.1,8,5.3,-0.181457,-0.236079,0.600032,-0.168954,0.160253,-3.78117e-05,0.106107,-0.40998,1.49012e-05,0.00978979,0.133211,5,0.1,9,5.3,-1.6549,-2.26143,0.599823,0.0037428,0.806371,0.000130385,-0.00312924,0.221908,-0.000141561,0.013454,0.291588,5,0.1
0,5.4,-4.10634,-0.630556,0.55591,0.00698566,-0.00208318,-2.23517e-05,-0.00858307,0.00241399,0,0.0088558,8.06653e-06,5,0.1,1,5.4,-0.427473,4.0042,0.599962,0.230296,-0.0239372,5.96046e-05,-0.279486,0.0905991,-5.96046e-05,0.0243062,3.23679,5,0.1,2,5.4,2.75097,2.91071,1.03778,0.179589,0.0395596,0.100312,0.548005,0.0543594,-0.338316,0.00994232,0.183939,5,0.1,3,5.4,2.21336,2.98588,0.500288,-0.866026,-0.336742,-0.00199676,0,-0.175595,0.0168979,0.00724384,1.82229,5,0.1,4,5.4,-0.916384,-2.59555,0.543165,0.0591218,-0.838488,-0.0126556,-0.0462532,0.238895,0.00986457,0.00620148,0.54542,5,0.1,5,5.4,1.57689,0.382924,0.562215,-0.000855327,0.000973046,-0.000147521,-0.000715256,0.000908971,-0.000149012,0.00715427,5.17983e-07,5,0.1,6,5.4,2.30331,-2.12206,0.535038,0.110191,-0.110292,0.000157952,-0.203729,0.209332,-0.000268221,0.00676459,0.000975389,5,0.1,7,5.4,-0.280329,1.33906,0.5,0.152181,0.381485,0,0.498116,0.578046,0,0.00929114,1.22132,5,0.1,8,5.4,-0.197814,-0.222107,0.600028,-0.157984,0.119319,-3.57628e-05,0.11842,-0.401609,0,0.0104253,0.0187698,5,0.1,9,5.4,-1.65455,-2.18045,0.599836,0.00345111,0.805706,0.000119209,-0.00286102,-0.234008,-0.000149012,0.0166995,2.35228,5,0.1
0,5.5,-4.10569,-0.63075,0.555908,0.00597835,-0.00179587,-2.1141e-05,-0.0112653,0.00323728,1.86265e-05,0.0088558,8.06653e-06,5,0.1,1,5.5,-0.40396,4.0023,0.599968,0.255715,-0.0138953,5.30854e-05,0.668554,0.101745,-7.45058e-05,0.0243062,3.23679,5,0.1,2,5.5,2.77158,2.91494,1.04623,0.231204,0.0447806,0.0698106,0.466138,0.0471026,-0.272445,0.00994232,0.183939,5,0.1,3,5.5,2.12676,2.95134,0.500158,-0.865991,-0.353476,-0.000741798,0.00138581,-0.141025,0.008706,0.00724384,1.82229,5,0.1,4,5.5,-0.910689,-2.67833,0.541946,0.0548554,-0.817599,-0.0117453,-0.0408851,0.213251,0.00873208,0.00620148,0.54542,5,0.1,5,5.5,1.5768,0.383025,0.5622,-0.000893511,0.00102492,-0.000155903,-6.70552e-05,0.000141561,-2.23517e-05,0.00715427,5.17983e-07,5,0.1,6,5.5,2.31333,-2.13206,0.535053,0.0904907,-0.0899464,0.000131689,-0.189915,0.196844,-0.00025332,0.00676459,0.000975389,5,0.1,7,5.5,-0.263095,1.38022,0.5,0.188444,0.441985,0,0.254291,0.591248,0,0.00929114,1.22132,5,0.1,8,5.5,-0.212754,-0.212118,0.600024,-0.138536,0.0812385,-3.35276e-05,0.255219,-0.356078,4.47035e-05,0.0104253,0.0187698,5,0.1,9,5.5,-1.65421,-2.09998,0.599847,0.00319388,0.812071,0.00010645,-0.00239164,0.268698,-0.000108033,0.0166995,2.35228,5,0.1
0,5.6,-4.10515,-0.630913,0.555906,0.00479221,-0.00145286,-1.93715e-05,-0.0121593,0.00354648,5.96046e-05,0.00668767,7.66181e-06,5,0.1,1,5.6,-0.374291,4.00138,0.599973,0.342836,-0.00494719,4.47035e-05,0.981465,0.0720024,-5.96046e-05,0.0256159,2.82615,5,0.1,2,5.6,2.79678,2.91962,1.05196,0.269789,0.0484884,0.0456601,0.293493,0.025034,-0.211358,0.00902314,0.216578,5,0.1,3,5.6,2.04017,2.91547,0.500118,-0.865471,-0.361931,-0.000162423,0.0110865,-0.0158548,0.00330806,0.0107088,1.38737,5,0.1,4,5.6,-0.905411,-2.75884,0.540816,0.0506416,-0.790048,-0.0108451,-0.0446439,0.361323,0.00953674,0.00692595,0.375209,5,0.1,5,5.6,1.57671,0.383127,0.562185,-0.000870228,0.00100508,-0.000153482,0.000476837,-0.000551343,8.9407e-05,0.00688152,1.4307e-07,5,0.1,6,5.6,2.32146,-2.1401,0.535065,0.0722826,-0.0710666,0.000107288,-0.174165,0.180244,-0.000268221,0.00678328,0.000844017,5,0.1,7,5.6,-0.243214,1.42712,0.5,0.207217,0.492787,0,0.135794,0.396252,0,0.0068476,0.993145,5,0.1,8,5.6,-0.225209,-0.205673,0.600021,-0.109645,0.0487298,-2.83122e-05,0.310898,-0.291742,8.9407e-05,0.00870686,0.251853,5,0.1,9,5.6,-1.65391,-2.01722,0.599857,0.00295341,0.843281,9.68575e-05,-0.002563,0.286639,-0.000119209,0.0135243,2.2802,5,0.1
0,5.7,-4.10473,-0.63104,0.555904,0.00356287,-0.00109253,-1.35042e-05,-0.012219,0.00358745,5.58794e-05,0.00668767,7.66181e-06,5,0.1,1,5.7,-0.334305,4.00125,0.599977,0.462414,0.00182018,3.86499e-05,1.31637,0.0478327,-6.33299e-05,0.0256159,2.82615,5,0.1,2,5.7,2.82542,2.92463,1.05554,0.304187,0.0520155,0.0268802,0.362128,0.0403523,-0.164598,0.00902314,0.216578,5,0.1,3,5.7,1.95364,2.8792,0.500113,-0.865438,-0.362955,3.43658e-05,0.00409037,0.00990927,0.000823289,0.0107088,1.38737,5,0.1,4,5.7,-0.900557,-2.83616,0.539777,0.0465395,-0.75678,-0.00996841,-0.0389069,0.332087,0.00831857,0.00692595,0.375209,5,0.1,5,5.7,1.57663,0.383224,0.56217,-0.000803173,0.000928482,-0.000141189,0.000834465,-0.000959262,0.000149012,0.00688152,1.4307e-07,5,0.1,6,5.7,2.32784,-2.14633,0.535074,0.0558045,-0.0540022,8.22358e-05,-0.154898,0.160292,-0.000234693,0.00678328,0.000844017,5,0.1,7,5.7,-0.222056,1.47791,0.5,0.215071,0.518386,0,0.076727,0.116684,0,0.0068476,0.993145,5,0.1,8,5.7,-0.234799,-0.202101,0.600019,-0.0838105,0.024275,-2.10479e-05,0.212113,-0.197669,5.96046e-05,0.00870686,0.251853,5,0.1,9,5.7,-1.65362,-1.93178,0.599866,0.0027325,0.862409,8.70787e-05,-0.00198185,0.0989288,-7.82311e-05,0.0135243,2.2802,5,0.1
0,5.8,-4.10444,-0.631132,0.555903,0.00239611,-0.000746548,-8.9407e-06,-0.0112057,0.00321865,5.96046e-05,0.00694145,6.31116e-06,5,0.1,1,5.8,-0.281563,4.00154,0.599981,0.589819,0.00249147,3.27826e-05,1.16253,-0.0402927,-8.9407e-05,0.0259945,2.52359,5,0.1,2,5.8,2.85754,2.93003,1.05748,0.336659,0.0556648,0.0126541,0.26381,0.0289679,-0.120461,0.00906319,0.149238,5,0.1,3,5.8,1.86721,2.84309,0.500118,-0.861618,-0.357527,3.72529e-05,0.0881553,0.10848,-0.000566244,0.0113028,1.02666,5,0.1,4,5.8,-0.896098,-2.91003,0.538821,0.0426054,-0.718904,-0.00912696,-0.0407696,0.444531,0.00876188,0.00662999,0.254236,5,0.1,5,5.8,1.57655,0.383311,0.562156,-0.000706315,0.000818074,-0.00012368,0.00107288,-0.0012219,0.000208616,0.00722943,8.41332e-08,5,0.1,6,5.8,2.33269,-2.15097,0.535081,0.0413835,-0.0391245,6.10948e-05,-0.133038,0.136852,-0.000208616,0.00676249,0.000670909,5,0.1,7,5.8,-0.2,1.52988,0.5,0.227755,0.516498,0,0.173442,-0.151753,0,0.00647046,0.823513,5,0.1,8,5.8,-0.24224,-0.200512,0.600017,-0.0660773,0.00894591,-1.63913e-05,0.147678,-0.111088,2.98023e-05,0.00911508,0.248025,5,0.1,9,5.8,-1.65336,-1.84527,0.599875,0.00253916,0.866026,8.04663e-05,-0.00202656,0,-5.96046e-05,0.0149779,2.25856,5,0.1
0,5.9,-4.10425,-0.631191,0.555903,0.00133738,-0.000439398,-3.53903e-06,-0.00986457,0.00287592,4.47035e-05,0.00694145,6.31116e-06,5,0.1,1,5.9,-0.216638,4.0015,0.599983,0.708233,-0.00495166,2.44938e-05,1.13762,-0.141025,-7.07805e-05,0.0259945,2.52359,5,0.1,2,5.9,2.89251,2.93546,1.05821,0.361961,0.0506569,0.00233892,0.221685,-0.114754,-0.0863448,0.00906319,0.149238,5,0.1,3,5.9,1.78122,2.80787,0.500119,-0.859801,-0.34683,-3.12924e-05,-0.00272691,0.117391,-0.00076741,0.0113028,1.02666,5,0.1,4,5.9,-0.892029,-2.97983,0.53795,0.0388756,-0.677667,-0.00832547,-0.0350848,0.403389,0.00753254,0.00662999,0.254236,5,0.1,5,5.9,1.57649,0.383387,0.562145,-0.000592507,0.000688294,-0.000102259,0.00118464,-0.00135042,0.000223517,0.00722943,8.41332e-08,5,0.1,6,5.9,2.33619,-2.15424,0.535087,0.0291027,-0.0265263,4.23752e-05,-0.112236,0.114679,-0.000167638,0.00676249,0.000670909,5,0.1,7,5.9,-0.175984,1.58011,0.5,0.255331,0.48255,0,0.340137,-0.480033,0,0.00647046,0.823513,5,0.1,8,5.9,-0.24821,-0.200057,0.600016,-0.0542193,0.00121235,-1.39698e-05,0.0940105,-0.0481512,1.49012e-05,0.00911508,0.248025,5,0.1,9,5.9,-1.65311,-1.75867,0.599883,0.00237096,0.866026,7.60891e-05,-0.00146776,0,-3.35276e-05,0.0149779,2.25856,5,0.1
0,6,-4.10416,-0.631222,0.555902,0.000441074,-0.000178814,0,-0.00762939,0.00235438,2.98023e-05,0.0110297,3.7604e-06,5,0.1,1,6,-0.140622,4,0.599986,0.805954,-0.0279546,1.78814e-05,0.771041,-0.30899,-5.96046e-05,0.0229151,2.3481,5,0.1,2,6,2.92961,2.93981,1.05806,0.37756,0.0352979,-0.00472069,0.0765324,-0.18096,-0.0555515,0.011166,0.0846841,5,0.1,3,6,1.6954,2.77387,0.500112,-0.853798,-0.332057,-0.000107288,0.157237,0.185728,-0.000745058,0.00755165,0.733084,5,0.1,4,6,-0.888316,-3.04549,0.537155,0.0353754,-0.634325,-0.00757426,-0.0357926,0.479102,0.007689,0.00647725,0.170871,5,0.1,5,6,1.57643,0.383449,0.562136,-0.000473857,0.000552088,-8.04663e-05,0.00119209,-0.00135601,0.000208616,0.00655498,9.0343e-08,5,0.1,6,6,2.33858,-2.15635,0.53509,0.0189781,-0.0162423,2.68221e-05,-0.090003,0.0905991,-0.000119209,0.0074129,0.00040889,5,0.1,7,6,-0.148731,1.62572,0.5,0.289176,0.428125,0,0.30867,-0.579298,0,0.0065565,0.667339,5,0.1,8,6,-0.25322,-0.200104,0.600014,-0.046467,-0.00151023,-1.19209e-05,0.0645816,-0.00999123,-2.98023e-05,0.00886693,0.24644,5,0.1,9,6,-1.65288,-1.67207,0.59989,0.00222921,0.866026,7.30157e-05,-0.00154972,-5.96046e-05,-2.98023e-05,0.0144947,1.79832,5,0.1
0,6.1,-4.10416,-0.631228,0.555903,-0.000244379,3.34345e-05,2.51457e-06,-0.00602007,0.00186637,1.86265e-05,0.0110297,3.7604e-06,5,0.1,1,6.1,-0.0571035,3.99526,0.599987,0.855816,-0.0698116,1.24797e-05,0.257773,-0.492647,-4.47035e-05,0.0229151,2.3481,5,0.1,2,6.1,2.96767,2.94235,1.05735,0.382493,0.0147816,-0.00914913,0.00961125,-0.219569,-0.0335202,0.011166,0.0846841,5,0.1,3,6.1,1.61065,2.74155,0.500098,-0.841799,-0.314334,-0.00016354,0.122003,0.178665,-0.000394881,0.00755165,0.733084,5,0.1,4,6.1,-0.884946,-3.10667,0.536433,0.0321153,-0.58998,-0.00687437,-0.0304542,0.427052,0.00653788,0.00647725,0.170871,5,0.1,5,6.1,1.57639,0.383497,0.562129,-0.000356324,0.00041849,-6.00703e-05,0.00113994,-0.00129826,0.00019744,0.00655498,9.0343e-08,5,0.1,6,6.1,2.34006,-2.15756,0.535092,0.0109188,-0.00818074,1.6205e-05,-0.0711083,0.0705421,-9.68575e-05,0.0074129,0.00040889,5,0.1,7,6.1,-0.118139,1.66554,0.5,0.323223,0.36877,0,0.343036,-0.549532,0,0.0065565,0.667339,5,0.1,8,6.1,-0.257595,-0.200277,0.600013,-0.0414635,-0.00171759,-1.43424e-05,0.0386257,0.00428222,-1.49012e-05,0.00886693,0.24644,5,0.1,9,6.1,-1.65267,-1.58546,0.599897,0.0020979,0.866025,7.10599e-05,-0.00118464,1.49012e-05,-1.86265e-05,0.0144947,1.79832,5,0.1
0,6.2,-4.10421,-0.631217,0.555903,-0.000751019,0.000192225,4.47035e-06,-0.00405312,0.0012815,0,0.00636921,1.68311e-06,5,0.1,1,6.2,0.0292052,3.98576,0.599988,0.866026,-0.120258,8.9407e-06,-7.15256e-06,-0.489473,-2.98023e-05,0.0225228,2.25923,5,0.1,2,6.2,3.00577,2.94273,1.0563,0.377446,-0.00690222,-0.0115305,-0.118375,-0.206709,-0.0147223,0.0101788,0.119978,5,0.1,3,6.2,1.52728,2.71107,0.50008,-0.822762,-0.294667,-0.000189245,0.285745,0.221372,-8.9407e-05,0.00762733,0.510175,5,0.1,4,6.2,-0.881884,-3.16349,0.535778,0.0291049,-0.545669,-0.0062272,-0.0304878,0.472665,0.00649691,0.00605101,0.114523,5,0.1,5,6.2,1.57636,0.383533,0.562124,-0.00025034,0.000295788,-4.17233e-05,0.00107288,-0.00116229,0.000178814,0.00686858,7.99809e-08,5,0.1,6,6.2,2.34083,-2.15806,0.535093,0.00475049,-0.00213385,7.45058e-06,-0.0522137,0.0506639,-5.96046e-05,0.00714973,0.000189136,5,0.1,7,6.2,-0.0842419,1.7,0.5,0.352786,0.323969,0,0.227473,-0.347316,0,0.00750933,0.525162,5,0.1,8,6.2,-0.26157,-0.200414,0.600011,-0.0381902,-0.000928715,-1.63913e-05,0.0291914,0.0102967,2.98023e-05,0.00870597,0.245838,5,0.1,9,6.2,-1.65246,-1.49886,0.599904,0.00197589,0.866026,6.85453e-05,-0.0012517,-5.96046e-05,-2.98023e-05,0.0160556,1.39483,5,0.1
0,6.3,-4.1043,-0.631192,0.555903,-0.0010848,0.000299141,4.47035e-06,-0.0026226,0.000849366,0,0.00636921,1.68311e-06,5,0.1,1,6.3,0.115808,3.97113,0.599989,0.866025,-0.17299,6.42613e-06,-8.9407e-07,-0.535905,-1.86265e-05,0.0225228,2.25923,5,0.1,2,6.3,3.04286,2.94095,1.05509,0.36343,-0.0290018,-0.0123665,-0.169307,-0.224963,-0.00245869,0.0101788,0.119978,5,0.1,3,6.3,1.44632,2.68265,0.500061,-0.797018,-0.273884,-0.000185799,0.260957,0.202611,0.000145286,0.00762733,0.510175,5,0.1,4,6.3,-0.879116,-3.21583,0.535186,0.0263394,-0.50213,-0.00563767,-0.0257008,0.414222,0.00548363,0.00605101,0.114523,5,0.1,5,6.3,1.57634,0.383557,0.562121,-0.000151061,0.000186684,-2.49594e-05,0.000916421,-0.00100769,0.000149012,0.00686858,7.99809e-08,5,0.1,6,6.3,2.34107,-2.15804,0.535094,0.000280514,0.00214055,2.14204e-06,-0.0373572,0.0349879,-4.09782e-05,0.00714973,0.000189136,5,0.1,7,6.3,-0.0477967,1.73117,0.5,0.375821,0.303567,0,0.210367,-0.095062,0,0.00750933,0.525162,5,0.1,8,6.3,-0.265266,-0.200459,0.60001,-0.0359084,-4.72646e-06,-1.38767e-05,0.0185519,0.00804756,1.86265e-05,0.00870597,0.245838,5,0.1,9,6.3,-1.65227,-1.41226,0.599911,0.00186581,0.865824,6.60308e-05,-0.00102073,-0.00800937,-1.86265e-05,0.0160556,1.39483,5,0.1
0,6.4,-4.10442,-0.631158,0.555904,-0.00127554,0.000360608,4.47035e-06,-0.00119209,0.000447035,-2.98023e-05,0.00818371,5.59693e-07,5,0.1,1,6.4,0.20241,3.95128,0.599989,0.866026,-0.222397,4.47035e-06,-1.43051e-05,-0.43118,0,0.0260968,2.22236,5,0.1,2,6.4,3.07822,2.93697,1.05386,0.342411,-0.0501037,-0.0121117,-0.255227,-0.189781,0.00721216,0.0078718,0.1441,5,0.1,3,6.4,1.36809,2.6563,0.500043,-0.765216,-0.252753,-0.000163913,0.396788,0.225902,0.000268221,0.00776644,0.577197,5,0.1,4,6.4,-0.876609,-3.26396,0.534649,0.0238165,-0.460106,-0.00509918,-0.0254214,0.437617,0.00542402,0.00773222,0.1325,5,0.1,5,6.4,1.57633,0.383571,0.562119,-7.15256e-05,9.61125e-05,-1.19209e-05,0.00077486,-0.000804663,0.000149012,0.00836954,5.10196e-08,5,0.1,6,6.4,2.34093,-2.15768,0.535094,-0.00275373,0.00491142,-1.49012e-06,-0.0236034,0.0206232,-2.98023e-05,0.00983808,6.57809e-05,5,0.1,7,6.4,-0.00934431,1.76123,0.5,0.391002,0.29892,0,0.0775343,-0.0239015,0,0.00855346,0.392272,5,0.1,8,6.4,-0.268768,-0.200424,0.600009,-0.0341162,0.000660494,-1.19209e-05,0.0188202,0.0051856,2.98023e-05,0.0101754,0.245477,5,0.1,9,6.4,-1.65209,-1.32578,0.599917,0.00175834,0.862816,6.25849e-05,-0.00119209,-0.0641346,0,0.0121639,1.05049,5,0.1
0,6.5,-4.10455,-0.631121,0.555904,-0.00134259,0.000388734,2.04891e-06,-0.000178814,0.00012666,-1.49012e-05,0.00818371,5.59693e-07,5,0.1,1,6.5,0.289013,3.92682,0.59999,0.866025,-0.26659,4.47035e-06,0,-0.426993,0,0.0260968,2.22236,5,0.1,2,6.5,3.11121,2.93119,1.0527,0.317562,-0.0637311,-0.0110881,-0.249982,-0.0855774,0.0128523,0.0078718,0.1441,5,0.1,3,6.5,1.29327,2.63194,0.500028,-0.732944,-0.236231,-0.000132713,0.284649,0.12143,0.000339001,0.00776644,0.577197,5,0.1,4,6.5,-0.874334,-3.30814,0.534162,0.0218551,-0.426463,-0.00468064,-0.0152998,0.263289,0.0032708,0.00773222,0.1325,5,0.1,5,6.5,1.57633,0.383577,0.562118,-3.91155e-06,2.38884e-05,8.3819e-07,0.000573695,-0.000635162,0.000108033,0.00836954,5.10196e-08,5,0.1,6,6.5,2.34055,-2.1571,0.535094,-0.00458919,0.00643581,-3.91155e-06,-0.0133961,0.0101924,-1.49012e-05,0.00983808,6.57809e-05,5,0.1,7,6.5,0.0301476,1.79125,0.5,0.398406,0.303174,0,0.0523266,0.0823513,0,0.00855346,0.392272,5,0.1,8,6.5,-0.272094,-0.200339,0.600008,-0.032471,0.000975374,-9.40636e-06,0.0154562,0.00137277,1.86265e-05,0.0101754,0.245477,5,0.1,9,6.5,-1.65192,-1.23956,0.599924,0.00165123,0.863203,6.24917e-05,-0.00100583,0.0248104,-3.72529e-06,0.0121639,1.05049,5,0.1
0,6.6,-4.10468,-0.631082,0.555904,-0.0013113,0.00038594,0,0.000715256,-0.000149012,0,0.00890753,1.52938e-07,5,0.1,1,6.6,0.375615,3.89821,0.59999,0.866025,-0.303423,4.47035e-06,1.43051e-05,-0.291824,0,0.0191158,2.19647,5,0.1,2,6.6,3.14168,2.92454,1.05166,0.291067,-0.0678122,-0.00961423,-0.285268,0.000834465,0.0162721,0.00777866,0.452594,5,0.1,3,6.6,1.22146,2.60887,0.500017,-0.702143,-0.225532,-9.83477e-05,0.356853,0.105023,0.000357628,0.00868868,0.678373,5,0.1,4,6.6,-0.872218,-3.34957,0.533709,0.020498,-0.402576,-0.00439137,-0.012964,0.235081,0.00280142,0.00881417,0.0772179,5,0.1,5,6.6,1.57633,0.383576,0.562119,4.47035e-05,-2.98023e-05,8.9407e-06,0.000417233,-0.000461936,8.9407e-05,0.00672349,2.40085e-08,5,0.1,6,6.6,2.34004,-2.15642,0.535093,-0.00548959,0.00700355,-5.96046e-06,-0.00488758,0.00166893,0,0.00716477,1.98888e-05,5,0.1,7,6.6,0.0700865,1.82197,0.5,0.398417,0.310788,0,-0.0643879,0.0505447,0,0.00647933,0.285108,5,0.1,8,6.6,-0.275261,-0.200239,0.600007,-0.0307918,0.000983477,-7.45058e-06,0.0190884,-0.00100583,0,0.00833798,0.245251,5,0.1,9,6.6,-1.65176,-1.15328,0.59993,0.00154376,0.859907,5.96046e-05,-0.00107288,-0.122368,0,0.0141884,1.30663,5,0.1
0,6.7,-4.10481,-0.631044,0.555904,-0.00120997,0.00036126,9.31323e-08,0.0012517,-0.000331551,3.72529e-06,0.00890753,1.52938e-07,5,0.1,1,6.7,0.462218,3.86636,0.599991,0.866026,-0.333347,4.47035e-06,-1.93715e-06,-0.282794,0,0.0191158,2.19647,5,0.1,2,6.7,3.16946,2.918,1.05078,0.265339,-0.061157,-0.00797398,-0.238612,0.114515,0.0163913,0.00777866,0.452594,5,0.1,3,6.7,1.15268,2.58656,0.500009,-0.675807,-0.222707,-6.45407e-05,0.208795,-0.0253171,0.00031665,0.00868868,0.678373,5,0.1,4,6.7,-0.870224,-3.3888,0.533282,0.0194402,-0.383067,-0.00416255,-0.00917912,0.173569,0.00198558,0.00881417,0.0772179,5,0.1,5,6.7,1.57634,0.383571,0.56212,7.84174e-05,-6.84056e-05,1.57394e-05,0.00026077,-0.000311062,4.84288e-05,0.00672349,2.40085e-08,5,0.1,6,6.7,2.33948,-2.15573,0.535093,-0.00566803,0.00686385,-5.86733e-06,0.00102818,-0.00412762,3.72529e-06,0.00716477,1.98888e-05,5,0.1,7,6.7,0.10962,1.85342,0.5,0.392005,0.31858,0,-0.0786573,0.0844523,0,0.00647933,0.285108,5,0.1,8,6.7,-0.278248,-0.200148,0.600006,-0.0289639,0.000814139,-7.45058e-06,0.0183415,-0.00220817,0,0.00833798,0.245251,5,0.1,9,6.7,-1.65161,-1.06742,0.599936,0.00144541,0.86034,5.9139e-05,-0.000938773,0.0716671,-1.11759e-05,0.0141884,1.30663,5,0.1
0,6.8,-4.10493,-0.63101,0.555904,-0.00106096,0.000321865,0,0.00143051,-0.000476837,0,0.00843964,9.8314e-08,5,0.1,1,6.8,0.54882,3.83179,0.599991,0.866026,-0.355941,4.47035e-06,0,-0.152349,0,0.0208881,2.18162,5,0.1,2,6.8,3.19481,2.91252,1.05006,0.241756,-0.0479162,-0.0063628,-0.23973,0.138164,0.015676,0.00919608,2.3411,5,0.1,3,6.8,1.08616,2.56411,0.500004,-0.653699,-0.226557,-3.72529e-05,0.261307,-0.0340939,0.000268221,0.0107285,0.499176,5,0.1,4,6.8,-0.868326,-3.42622,0.532875,0.0184923,-0.364703,-0.00395924,-0.0104606,0.20659,0.00229478,0.00663579,0.0602014,5,0.1,5,6.8,1.57634,0.383563,0.562122,9.53674e-05,-9.23872e-05,2.08616e-05,0.000119209,-0.000149012,-2.98023e-05,0.00708807,7.62254e-09,5,0.1,6,6.8,2.33893,-2.15507,0.535092,-0.00534654,0.00624061,-5.96046e-06,0.00524521,-0.00798702,2.98023e-05,0.00658457,1.02985e-05,5,0.1,7,6.8,0.148305,1.88561,0.5,0.380215,0.324124,0,-0.167004,0.0116825,0,0.00809527,0.20145,5,0.1,8,6.8,-0.281048,-0.200078,0.600005,-0.0269778,0.000571832,-7.45058e-06,0.0219643,-0.00251085,2.98023e-05,0.0085763,0.245412,5,0.1,9,6.8,-1.65147,-0.981109,0.599942,0.00134706,0.8641,5.66244e-05,-0.00107288,-0.0385046,-2.98023e-05,0.019636,0.967917,5,0.1
0,6.9,-4.10502,-0.63098,0.555904,-0.0009045,0.000271015,9.31323e-08,0.00166893,-0.000528991,3.72529e-06,0.00843964,9.8314e-08,5,0.1,1,6.9,0.635423,3.79537,0.599992,0.866026,-0.372585,4.47035e-06,-3.72529e-06,-0.157475,0,0.0208881,2.18162,5,0.1,2,6.9,3.21788,2.90871,1.0495,0.220142,-0.0271194,-0.00486113,-0.200272,0.21264,0.0142753,0.00919608,2.3411,5,0.1,3,6.9,1.02189,2.54115,0.500001,-0.632931,-0.233287,-1.63913e-05,0.185147,-0.0824779,0.000156462,0.0107285,0.499176,5,0.1,4,6.9,-0.866521,-3.46182,0.532489,0.0176832,-0.348306,-0.00378164,-0.00674278,0.140488,0.00147894,0.00663579,0.0602014,5,0.1,5,6.9,1.57635,0.383553,0.562124,0.000101887,-0.000102259,1.78814e-05,7.45058e-06,-5.21541e-05,-2.98023e-05,0.00708807,7.62254e-09,5,0.1,6,6.9,2.33842,-2.15449,0.535092,-0.00468232,0.0053145,-3.44589e-06,0.0077635,-0.0102222,1.86265e-05,0.00658457,1.02985e-05,5,0.1,7,6.9,0.185525,1.91813,0.5,0.364206,0.326407,0,-0.165387,0.0174418,0,0.00809527,0.20145,5,0.1,8,6.9,-0.283694,-0.200044,0.600005,-0.0264108,5.43892e-05,-4.93601e-06,-0.00650622,-0.00680052,1.86265e-05,0.0085763,0.245412,5,0.1,9,6.9,-1.65134,-0.894716,0.599947,0.0012489,0.864462,5.3551e-05,-0.000931323,0.00482798,-3.35276e-05,0.019636,0.967917,5,0.1
0,7,-4.10511,-0.630956,0.555904,-0.000739098,0.000217557,0,0.00190735,-0.000536442,0,0.00635689,1.04743e-07,5,0.1,1,7,0.722026,3.75747,0.599992,0.866026,-0.38352,4.47035e-06,0,-0.0454187,0,0.0171653,2.17548,5,0.1,2,7,3.2389,2.90679,1.04909,0.200373,-0.0149548,-0.00352561,-0.200272,0.000119209,0.0123978,0.0111464,3.58464,5,0.1,3,7,0.95961,2.51745,0.5,-0.611375,-0.23995,-4.47035e-06,0.267893,-0.0379086,5.96046e-05,0.00742309,0.372024,5,0.1,4,7,-0.864787,-3.49593,0.532118,0.0169709,-0.333357,-0.00362694,-0.00825524,0.172257,0.00178814,0.00654792,0.0274178,5,0.1,5,7,1.57636,0.383543,0.562126,9.83477e-05,-0.000102818,1.49012e-05,0,1.49012e-05,-2.98023e-05,0.00710468,3.97827e-09,5,0.1,6,7,2.338,-2.15401,0.535091,-0.00383854,0.00424385,-1.49012e-06,0.0089407,-0.010848,2.98023e-05,0.00680429,9.656e-06,5,0.1,7,7,0.22104,1.95076,0.5,0.3451,0.324816,0,-0.224934,-0.0605583,0,0.00739008,1.35051,5,0.1,8,7,-0.286386,-0.200072,0.600004,-0.0275567,-0.000613928,-4.47035e-06,-0.0132769,-0.00586361,2.98023e-05,0.00959593,0.242006,5,0.1,9,7,-1.65122,-0.808443,0.599952,0.00115037,0.858331,5.06639e-05,-0.000953674,-0.153899,-5.96046e-05,0.0127001,1.21883,5,0.1
0,7.1,-4.10517,-0.630937,0.555904,-0.000552833,0.000164658,9.31323e-08,0.00178814,-0.00051409,3.72529e-06,0.00635689,1.04743e-07,5,0.1,1,7.1,0.808628,3.71879,0.599993,0.866026,-0.390345,4.47035e-06,-3.72529e-06,-0.0683367,0,0.0171653,2.17548,5,0.1,2,7.1,3.25793,2.90509,1.04879,0.179959,-0.0245988,-0.00238381,-0.209168,-0.31504,0.010401,0.0111464,3.58464,5,0.1,3,7.1,0.899671,2.49357,0.5,-0.588152,-0.234922,-1.86265e-07,0.221673,0.130221,2.98023e-05,0.00742309,0.372024,5,0.1,4,7.1,-0.863129,-3.52842,0.531764,0.0161725,-0.316571,-0.00345474,-0.00825152,0.173539,0.00177696,0.00654792,0.0274178,5,0.1,5,7.1,1.57637,0.383533,0.562127,9.40636e-05,-9.80683e-05,1.19209e-05,-8.19564e-05,7.82311e-05,-2.98023e-05,0.00710468,3.97827e-09,5,0.1,6,7.1,2.33766,-2.15364,0.535091,-0.00291951,0.00314787,9.31323e-07,0.00925362,-0.010848,1.49012e-05,0.00680429,9.656e-06,5,0.1,7,7.1,0.255014,1.98322,0.5,0.339135,0.326465,0,0.0615782,0.0646561,0,0.00739008,1.35051,5,0.1,8,7.1,-0.289179,-0.200235,0.600004,-0.0280049,-0.00310196,-2.04891e-06,0.00400655,-0.0341404,1.49012e-05,0.00959593,0.242006,5,0.1,9,7.1,-1.65111,-0.722904,0.599957,0.00106208,0.855677,4.51691e-05,-0.000834465,0.0412352,-4.84288e-05,0.0127001,1.21883,5,0.1
0,7.2,-4.10522,-0.630923,0.555905,-0.00038147,0.000116229,0,0.00143051,-0.000476837,0,0.00800691,8.36405e-08,5,0.1,1,7.2,0.895231,3.67953,0.599993,0.866026,-0.393331,4.47035e-06,0,0.0245571,0,0.014204,2.17502,5,0.1,2,7.2,3.27485,2.9,1.0486,0.158387,-0.0873148,-0.00145137,-0.222921,-0.910759,0.00828505,0.0136773,3.12247,5,0.1,3,7.2,0.842056,2.47095,0.5,-0.562789,-0.215489,1.49012e-06,0.30297,0.251055,0,0.00797287,0.285605,5,0.1,4,7.2,-0.861557,-3.55914,0.531428,0.0152305,-0.296986,-0.00325292,-0.0109375,0.224829,0.00232458,0.00647037,0.01064,5,0.1,5,7.2,1.57638,0.383524,0.562128,8.34465e-05,-8.79169e-05,1.04308e-05,-0.000119209,0.000104308,-5.96046e-05,0.0067593,2.89614e-09,5,0.1,6,7.2,2.33741,-2.15338,0.535091,-0.00202656,0.00211,2.98023e-06,0.00858307,-0.00977516,-2.98023e-05,0.00764541,8.01332e-06,5,0.1,7,7.2,0.289411,2.0162,0.5,0.349688,0.332743,0,0.116244,0.0398159,0,0.00697272,0.79065,5,0.1,8,7.2,-0.291933,-0.2007,0.600004,-0.0268273,-0.00587441,-1.49012e-06,0.019148,-0.0154004,2.98023e-05,0.0103125,0.228766,5,0.1,9,7.2,-1.65101,-0.637209,0.599961,0.000977516,0.856334,4.02331e-05,-0.000953674,-0.0710189,-2.98023e-05,0.0148936,2.5029,5,0.1
0,7.3,-4.10525,-0.630913,0.555905,-0.000243634,7.1805e-05,9.31323e-08,0.0012815,-0.000406057,3.72529e-06,0.00800691,8.36405e-08,5,0.1,1,7.3,0.981833,3.6402,0.599993,0.866025,-0.393888,4.47035e-06,-7.45058e-06,-0.0131726,0,0.014204,2.17502,5,0.1,2,7.3,3.2899,2.88547,1.04828,0.145086,-0.213029,-0.00674557,-0.06257,-1.49351,-0.100769,0.0136773,3.12247,5,0.1,3,7.3,0.787297,2.45084,0.5,-0.531995,-0.185225,1.39698e-06,0.325803,0.343725,-3.72529e-06,0.00797287,0.285605,5,0.1,4,7.3,-0.860089,-3.58771,0.531115,0.0141094,-0.274024,-0.00301478,-0.0117309,0.238985,0.00249222,0.00647037,0.01064,5,0.1,5,7.3,1.57639,0.383515,0.562129,6.92904e-05,-7.58562e-05,5.40167e-06,-0.000149012,0.000132248,-3.72529e-05,0.0067593,2.89614e-09,5,0.1,6,7.3,2.33725,-2.15321,0.535092,-0.00120625,0.0011839,4.65661e-07,0.0077188,-0.00861287,-1.86265e-05,0.00764541,8.01332e-06,5,0.1,7,7.3,0.324777,2.04939,0.5,0.355645,0.328163,0,-0.00302494,-0.127718,0,0.00697272,0.79065,5,0.1,8,7.3,-0.2945,-0.201402,0.600004,-0.0243315,-0.00802751,6.51926e-07,0.0299886,-0.00751857,1.11759e-05,0.0103125,0.228766,5,0.1,9,7.3,-1.65092,-0.552551,0.599965,0.000881776,0.830823,3.68804e-05,-0.000968575,-0.430605,-3.72529e-05,0.0148936,2.5029,5,0.1
0,7.4,-4.10527,-0.630908,0.555905,-0.00013113,3.57628e-05,0,0.000953674,-0.000327826,0,0.00791044,5.38332e-08,5,0.1,1,7.4,1.06844,3.60083,0.599994,0.866026,-0.392139,4.47035e-06,0,0.0641346,0,0.0130454,2.17774,5,0.1,2,7.4,3.30422,2.85648,1.04702,0.142425,-0.3667,-0.0192225,-0.00548363,-1.49691,-0.138342,0.0133338,2.66444,5,0.1,3,7.4,0.735849,2.43411,0.5,-0.495519,-0.148648,1.49012e-06,0.411928,0.379324,-2.98023e-05,0.0059994,0.376178,5,0.1,4,7.4,-0.85874,-3.61386,0.530826,0.0128448,-0.248468,-0.00274628,-0.0137091,0.274777,0.00295043,0.00726983,0.00551475,5,0.1,5,7.4,1.5764,0.383508,0.562129,5.36442e-05,-6.18398e-05,1.49012e-06,-0.000119209,0.000149012,0,0.00778655,2.70866e-09,5,0.1,6,7.4,2.33717,-2.15314,0.535092,-0.000506639,0.000405312,-1.49012e-06,0.00631809,-0.00679493,0,0.0069508,4.95627e-06,5,0.1,7,7.4,0.360091,2.08132,0.5,0.348212,0.308007,0,-0.148386,-0.270724,0,0.00653074,0.574548,5,0.1,8,7.4,-0.296771,-0.20211,0.600004,-0.0209749,-0.00457466,1.49012e-06,0.0364482,0.0844672,0,0.00933973,0.199386,5,0.1,9,7.4,-1.65083,-0.472153,0.599969,0.000780821,0.772066,3.27826e-05,-0.00107288,-0.734612,-2.98023e-05,0.0122384,2.92901,5,0.1
0,7.5,-4.10527,-0.630906,0.555905,-4.32134e-05,6.89179e-06,9.31323e-08,0.00077486,-0.00025332,3.72529e-06,0.00791044,5.38332e-08,5,0.1,1,7.5,1.15504,3.5618,0.599994,0.866026,-0.389212,4.47035e-06,0,0.0166297,0,0.0130454,2.17774,5,0.1,2,7.5,3.31861,2.81191,1.04432,0.146598,-0.52653,-0.0353165,0.0725985,-1.61347,-0.173241,0.0133338,2.66444,5,0.1,3,7.5,0.688207,2.42119,0.500173,-0.458408,-0.109687,0.00489755,0.347007,0.391662,0.0870638,0.0059994,0.376178,5,0.1,4,7.5,-0.857523,-3.63735,0.530566,0.0114955,-0.22148,-0.00245655,-0.0134632,0.268459,0.00287965,0.00726983,0.00551475,5,0.1,5,7.5,1.5764,0.383503,0.562129,4.07919e-05,-4.69387e-05,1.49012e-06,-0.000141561,0.000149012,0,0.00778655,2.70866e-09,5,0.1,6,7.5,2.33715,-2.15313,0.535091,6.4075e-05,-0.000205636,-1.49012e-06,0.00503659,-0.00536442,0,0.0069508,4.95627e-06,5,0.1,7,7.5,0.393748,2.11052,0.5,0.321138,0.274068,0,-0.37583,-0.397101,0,0.00653074,0.574548,5,0.1,8,7.5,-0.298682,-0.202037,0.600004,-0.0172147,0.00790043,1.11759e-06,0.0382047,0.192563,-7.45058e-06,0.00933973,0.199386,5,0.1,9,7.5,-1.65076,-0.399453,0.599972,0.000681169,0.675147,2.98023e-05,-0.000931323,-1.14399,-2.98023e-05,0.0122384,2.92901,5,0.1
0,7.6,-4.10528,-0.630906,0.555905,2.38419e-05,-1.49012e-05,0,0.000476837,-0.000178814,0,0.0100377,2.55738e-08,5,0.1,1,7.6,1.24164,3.52304,0.599995,0.866026,-0.385016,4.47035e-06,0,0.0828505,-2.98023e-05,0.0106279,2.18196,5,0.1,2,7.6,3.33365,2.75158,1.03993,0.154108,-0.674552,-0.0520825,0.0654459,-1.28496,-0.154436,0.0105352,2.56293,5,0.1,3,7.6,0.644105,2.41214,0.501168,-0.423273,-0.071758,0.0154778,0.367373,0.360608,0.11614,0.0102625,0.314439,5,0.1,4,7.6,-0.856442,-3.65815,0.530335,0.0101224,-0.19424,-0.00216216,-0.0140965,0.278234,0.00301003,0.00641695,0.00166768,5,0.1,5,7.6,1.5764,0.383499,0.562129,2.68221e-05,-3.27826e-05,1.49012e-06,-0.000119209,0.00013411,-2.98023e-05,0.00715417,2.40283e-09,5,0.1,6,7.6,2.33717,-2.15317,0.535091,0.000488758,-0.000655651,-1.49012e-06,0.00357628,-0.00357628,0,0.00754575,2.2625e-06,5,0.1,7,7.6,0.423726,2.13581,0.5,0.276238,0.230616,0,-0.507519,-0.462532,0,0.00529687,0.6136,5,0.1,8,7.6,-0.300213,-0.2,0.600004,-0.0134319,0.035486,0,0.0369996,0.347108,0,0.00789742,0.3329,5,0.1,9,7.6,-1.6507,-0.337935,0.599975,0.000590086,0.553565,2.5332e-05,-0.000834465,-1.24444,0,0.0131481,3.26043,5,0.1
0,7.7,-4.10527,-0.630909,0.555905,6.70552e-05,-2.96161e-05,9.31323e-08,0.000357628,-0.000111759,3.72529e-06,0.0100377,2.55738e-08,5,0.1,1,7.7,1.32824,3.48481,0.599995,0.866026,-0.380444,2.04891e-06,0,0.0304133,-1.49012e-05,0.0106279,2.18196,5,0.1,2,7.7,3.34949,2.67908,1.03392,0.16321,-0.762437,-0.0680912,0.102311,-0.494629,-0.157297,0.0105352,2.56293,5,0.1,3,7.7,0.603346,2.40658,0.503369,-0.394012,-0.0412405,0.0290388,0.240598,0.251532,0.146315,0.0102625,0.314439,5,0.1,4,7.7,-0.855499,-3.6762,0.530134,0.00873376,-0.16691,-0.00186609,-0.0137091,0.269011,0.00292435,0.00641695,0.00166768,5,0.1,5,7.7,1.57641,0.383496,0.562129,1.49012e-05,-1.99769e-05,-9.31323e-07,-0.000119209,0.000117347,-1.49012e-05,0.00715417,2.40283e-09,5,0.1,6,7.7,2.33724,-2.15325,0.535091,0.000787899,-0.000950694,-1.49012e-06,0.00236928,-0.00232458,0,0.00754575,2.2625e-06,5,0.1,7,7.7,0.44812,2.15577,0.5,0.205948,0.162077,0,-0.849834,-0.853181,0,0.00529687,0.6136,5,0.1,8,7.7,-0.301375,-0.19413,0.600004,-0.00985661,0.0865132,-9.31323e-08,0.0341553,0.624114,-3.72529e-06,0.00789742,0.3329,5,0.1,9,7.7,-1.65064,-0.289018,0.599977,0.000515021,0.424815,2.48663e-05,-0.000678003,-1.24629,-1.11759e-05,0.0131481,3.26043,5,0.1
0,7.8,-4.10526,-0.630912,0.555905,9.53674e-05,-3.8743e-05,0,0.000238419,-2.98023e-05,0,0.0119072,1.18494e-08,5,0.1,1,7.8,1.41485,3.44697,0.599995,0.866026,-0.375205,0,0,0.090003,0,0.009696,2.12506,5,0.1,2,7.8,3.36628,2.60151,1.02638,0.172108,-0.777918,-0.0821024,0.0653267,0.162363,-0.116944,0.00957501,2.81113,5,0.1,3,7.8,0.565091,2.40355,0.506995,-0.371221,-0.0210285,0.0432163,0.231832,0.15521,0.130743,0.0109116,0.262708,5,0.1,4,7.8,-0.854694,-3.69156,0.529962,0.00737458,-0.140357,-0.00157654,-0.0134408,0.262141,0.00289083,0.00698107,0.000773381,5,0.1,5,7.8,1.57641,0.383495,0.562129,5.96046e-06,-8.9407e-06,-2.98023e-06,-0.000119209,7.45058e-05,2.98023e-05,0.00692035,1.69925e-09,5,0.1,6,7.8,2.33733,-2.15336,0.535091,0.000965595,-0.00112057,-1.49012e-06,0.00119209,-0.00107288,2.98023e-05,0.00707835,7.60664e-07,5,0.1,7,7.8,0.464231,2.16744,0.5,0.114886,0.0697613,0,-0.933722,-0.950217,0,0.00516322,0.376582,5,0.1,8,7.8,-0.302197,-0.182235,0.600004,-0.00666082,0.151643,0,0.0295043,0.641137,-2.98023e-05,0.00738132,0.229783,5,0.1,9,7.8,-1.65059,-0.252252,0.59998,0.000452995,0.316796,2.23517e-05,-0.000655651,-0.873439,0,0.0113501,3.31776,5,0.1
0,7.9,-4.10525,-0.630916,0.555905,0.000114739,-4.014e-05,9.31323e-08,0.000119209,-3.72529e-06,3.72529e-06,0.0119072,1.18494e-08,5,0.1,1,7.9,1.50145,3.40977,0.599995,0.866026,-0.369763,9.31323e-08,0,0.0396818,3.72529e-06,0.009696,2.12506,5,0.1,2,7.9,3.38389,2.5259,1.01758,0.180354,-0.722563,-0.0939161,0.086382,0.86838,-0.111833,0.00957501,2.81113,5,0.1,3,7.9,0.528985,2.40214,0.511976,-0.35192,-0.00816621,0.0563244,0.171013,0.094071,0.125308,0.0109116,0.262708,5,0.1,4,7.9,-0.854022,-3.70431,0.529818,0.00607194,-0.115031,-0.00129705,-0.0125803,0.243902,0.00269338,0.00698107,0.000773381,5,0.1,5,7.9,1.57641,0.383494,0.562129,-4.84288e-06,-2.00234e-06,-4.65661e-07,-8.9407e-05,6.14673e-05,1.86265e-05,0.00692035,1.69925e-09,5,0.1,6,7.9,2.33743,-2.15347,0.535091,0.00104085,-0.00118203,9.31323e-07,0.000327826,-0.000163913,1.49012e-05,0.00707835,7.60664e-07,5,0.1,7,7.9,0.471213,2.16944,0.5,0.0267345,-0.0310794,0,-0.81552,-1.02562,0,0.00516322,0.376582,5,0.1,8,7.9,-0.302723,-0.163763,0.600004,-0.00392231,0.217988,-2.51457e-06,0.0250656,0.653443,-1.86265e-05,0.00738132,0.229783,5,0.1,9,7.9,-1.65055,-0.224362,0.599982,0.000395998,0.249625,2.18861e-05,-0.000491738,-0.369372,-1.11759e-05,0.0113501,3.31776,5,0.1
0,8,-4.10524,-0.63092,0.555905,0.00013113,-3.8743e-05,0,-0.000238419,2.98023e-05,0,0.00893541,4.83648e-09,5,0.1,1,8,1.58805,3.37305,0.599995,0.866026,-0.363708,0,0,0.0962019,0,0.0143782,1.65449,5,0.1,2,8,3.4023,2.45864,1.00768,0.187141,-0.617605,-0.103197,0.0398159,1.1735,-0.0686049,0.00892966,3.10655,5,0.1,3,8,0.49466,2.40165,0.518185,-0.33414,-0.00318885,0.0672385,0.196546,0.0038147,0.0887215,0.00817155,0.217454,5,0.1,4,8,-0.853476,-3.71463,0.529702,0.00486225,-0.091666,-0.00103861,-0.0115633,0.222921,0.00247359,0.0107314,0.000632944,5,0.1,5,8,1.57641,0.383495,0.562129,-1.49012e-05,3.72529e-06,0,0,5.96046e-05,2.98023e-05,0.00785287,9.74257e-10,5,0.1,6,8,2.33753,-2.15359,0.535091,0.00103712,-0.00116229,2.98023e-06,-0.000476837,0.000715256,-2.98023e-05,0.00677133,1.92994e-07,5,0.1,7,8,0.470097,2.16136,0.5,-0.0459276,-0.128275,0,-0.62862,-0.888348,0,0.00425948,0.275048,5,0.1,8,8,-0.302998,-0.138895,0.600004,-0.00168011,0.276803,-4.47035e-06,0.0196695,0.499901,0,0.00810724,0.067517,5,0.1,9,8,-1.65051,-0.2,0.599984,0.000348687,0.249555,2.08616e-05,-0.000417233,0.333704,-2.98023e-05,0.0131123,3.01865,5,0.1
0,8.1,-4.10523,-0.630924,0.555905,0.000110269,-3.5204e-05,0,-0.000178814,4.47035e-05,0,0.00893541,4.83648e-09,5,0.1,1,8.1,1.67465,3.33708,0.599995,0.865917,-0.35608,9.31323e-08,-0.00436604,0.0730455,3.72529e-06,0.0143782,1.65449,5,0.1,2,8.1,3.42128,2.40321,0.997009,0.192587,-0.488906,-0.110259,0.056684,1.30422,-0.0656284,0.00892966,3.10655,5,0.1,3,8.1,0.462129,2.40124,0.525343,-0.317111,-0.00636578,0.0756864,0.157641,-0.0822842,0.0754856,0.00817155,0.217454,5,0.1,4,8.1,-0.853046,-3.72272,0.52961,0.0037659,-0.0705913,-0.000804476,-0.0103265,0.197917,0.00220537,0.0107314,0.000632944,5,0.1,5,8.1,1.57641,0.383495,0.562129,-1.50874e-05,8.801e-06,2.42144e-06,-7.45058e-06,4.28408e-05,1.49012e-05,0.00785287,9.74257e-10,5,0.1,6,8.1,2.33763,-2.1537,0.535091,0.000965595,-0.0010673,4.65661e-07,-0.000923872,0.00114739,-1.86265e-05,0.00677133,1.92994e-07,5,0.1,7,8.1,0.462852,2.14411,0.5,-0.0943074,-0.215564,0,-0.348983,-0.826538,0,0.00425948,0.275048,5,0.1,8,8.1,-0.303073,-0.109008,0.600003,0.000120746,0.317769,-4.47035e-06,0.0161398,0.310918,0,0.00810724,0.067517,5,0.1,9,8.1,-1.65048,-0.171899,0.599986,0.000313483,0.324344,1.79745e-05,-0.000305474,1.04875,-2.6077e-05,0.0131123,3.01865,5,0.1
0,8.2,-4.10522,-0.630927,0.555905,9.53674e-05,-3.12924e-05,1.49012e-06,-0.000238419,5.96046e-05,-2.98023e-05,0.0078753,4.18113e-09,5,0.1,1,8.2,1.76119,3.30191,0.599995,0.864279,-0.346273,0,-0.0349283,0.134587,0,0.0124085,1.252,5,0.1,2,8.2,3.44076,2.36045,0.985706,0.196356,-0.371379,-0.115137,0.0100136,0.996709,-0.0270605,0.0087497,3.21058,5,0.1,3,8.2,0.431233,2.4,0.533235,-0.300297,-0.0203431,0.0815392,0.188187,-0.189304,0.0383556,0.0073353,0.173452,5,0.1,4,8.2,-0.852719,-3.72883,0.52954,0.00280291,-0.0521898,-0.000599027,-0.00891089,0.169873,0.00190735,0.00901661,0.000502169,5,0.1,5,8.2,1.5764,0.383496,0.56213,-1.49012e-05,1.19209e-05,2.98023e-06,0,2.98023e-05,2.98023e-05,0.00982797,7.53555e-10,5,0.1,6,8.2,2.33773,-2.1538,0.535091,0.000852346,-0.000935793,0,-0.00107288,0.00143051,-2.98023e-05,0.00678665,1.16598e-07,5,0.1,7,8.2,0.452069,2.11874,0.5,-0.117663,-0.288343,0,-0.127509,-0.607848,0,0.00446407,0.219056,5,0.1,8,8.2,-0.302988,-0.0760442,0.600003,0.0015147,0.337734,-4.47035e-06,0.0116378,0.0843382,0,0.0115633,0.0817247,5,0.1,9,8.2,-1.65045,-0.133809,0.599988,0.000283122,0.439342,1.49012e-05,-0.000178814,1.16491,-2.98023e-05,0.0162906,2.62667,5,0.1
0,8.3,-4.10521,-0.63093,0.555905,7.52509e-05,-2.5332e-05,-9.31323e-07,-0.000149012,5.96046e-05,-1.49012e-05,0.0078753,4.18113e-09,5,0.1,1,8.3,1.8476,3.26789,0.599995,0.864689,-0.334269,9.31323e-08,0.00871718,0.119016,3.72529e-06,0.0124085,1.252,5,0.1,2,8.3,3.4605,2.32777,0.974038,0.198747,-0.290705,-0.118248,0.0261217,0.510901,-0.0285357,0.0087497,3.21058,5,0.1,3,8.3,0.402068,2.39679,0.541571,-0.283494,-0.0456482,0.0849735,0.158967,-0.295669,0.0265464,0.0073353,0.173452,5,0.1,4,8.3,-0.852481,-3.73325,0.529489,0.00197887,-0.036528,-0.000422914,-0.00754744,0.142962,0.0016056,0.00901661,0.000502169,5,0.1,5,8.3,1.5764,0.383498,0.56213,-1.49012e-05,1.4063e-05,5.02914e-06,0,1.49012e-05,7.45058e-06,0.00982797,7.53555e-10,5,0.1,6,8.3,2.3378,-2.15389,0.535091,0.000732392,-0.000784919,-2.42144e-06,-0.0012815,0.00156462,-1.49012e-05,0.00678665,1.16598e-07,5,0.1,7,8.3,0.440055,2.08696,0.5,-0.119135,-0.345417,0,0.0819843,-0.509858,0,0.00446407,0.219056,5,0.1,8,8.3,-0.302785,-0.0418502,0.600002,0.00248239,0.345719,-4.47035e-06,0.00770949,0.0592189,0,0.0115633,0.0817247,5,0.1,9,8.3,-1.65042,-0.0834579,0.599989,0.000268221,0.57128,1.22935e-05,-0.00013411,1.38344,-2.23517e-05,0.0162906,2.62667,5,0.1
0,8.4,-4.1052,-0.630932,0.555905,5.96046e-05,-1.93715e-05,-1.49012e-06,-0.000238419,2.98023e-05,0,0.00863652,4.45299e-09,5,0.1,1,8.4,1.93397,3.23512,0.599995,0.860783,-0.32019,0,-0.104904,0.171661,0,0.00954553,0.918792,5,0.1,2,8.4,3.48046,2.3,0.962113,0.199586,-0.276679,-0.119722,-0.0175238,-0.199437,0.00366569,0.0110275,2.95809,5,0.1,3,8.4,0.374539,2.39071,0.550156,-0.266623,-0.0757754,0.0862196,0.18616,-0.29099,-0.00411272,0.00779588,0.231343,5,0.1,4,8.4,-0.852318,-3.73623,0.529454,0.00129789,-0.0236511,-0.000277162,-0.00607967,0.114322,0.0012815,0.00860727,0.000309664,5,0.1,5,8.4,1.5764,0.383499,0.562131,-1.49012e-05,1.49012e-05,5.96046e-06,0,-1.49012e-05,-2.98023e-05,0.0106702,4.89838e-10,5,0.1,6,8.4,2.33787,-2.15396,0.535091,0.000596046,-0.000625849,-2.98023e-06,-0.0013113,0.00143051,-2.98023e-05,0.00680011,1.221e-07,5,0.1,7,8.4,0.428787,2.05019,0.5,-0.104202,-0.386357,0,0.203386,-0.293255,0,0.00458416,0.183795,5,0.1,8,8.4,-0.302504,-0.00713146,0.600002,0.00305921,0.346879,-2.98023e-06,0.0038594,-0.0468487,-2.98023e-05,0.00789201,0.0602037,5,0.1,9,8.4,-1.6504,-0.019663,0.59999,0.00025332,0.70041,1.04308e-05,-0.000119209,1.13338,-2.98023e-05,0.0122623,0.548509,5,0.1
0,8.5,-4.1052,-0.630934,0.555905,3.94881e-05,-1.60187e-05,-1.39698e-06,-0.000149012,3.72529e-05,3.72529e-06,0.00863652,4.45299e-09,5,0.1,1,8.5,2.01976,3.20391,0.599995,0.85617,-0.304413,9.31323e-08,-0.0333712,0.154957,3.72529e-06,0.00954553,0.918792,5,0.1,2,8.5,3.50038,2.26984,0.950134,0.199221,-0.338714,-0.119953,-0.000730157,-0.929609,-0.00201538,0.0110275,2.95809,5,0.1,3,8.5,0.348585,2.38136,0.558813,-0.254182,-0.113597,0.0873003,0.0818036,-0.433221,0.0188425,0.00779588,0.231343,5,0.1,4,8.5,-0.852217,-3.73807,0.529432,0.000752602,-0.0134297,-0.00016233,-0.00482425,0.0900328,0.001017,0.00860727,0.000309664,5,0.1,5,8.5,1.5764,0.3835,0.562131,-1.49012e-05,1.33645e-05,3.07336e-06,0,-1.67638e-05,-2.6077e-05,0.0106702,4.89838e-10,5,0.1,6,8.5,2.33792,-2.15402,0.53509,0.000463426,-0.00048317,-5.02914e-06,-0.0013411,0.00141561,-7.45058e-06,0.00680011,1.221e-07,5,0.1,7,8.5,0.419562,2.01014,0.5,-0.0788656,-0.413658,0,0.289982,-0.231259,0,0.00458416,0.183795,5,0.1,8,8.5,-0.302183,0.0273808,0.600001,0.00333763,0.343514,-5.40167e-06,0.00168942,-0.0374166,-1.49012e-05,0.00789201,0.0602037,5,0.1,9,8.5,-1.65037,0.0553047,0.599991,0.000244565,0.791124,7.91624e-06,-6.70552e-05,0.665084,-1.86265e-05,0.0122623,0.548509,5,0.1
0,8.6,-4.10519,-0.630935,0.555904,3.57628e-05,-1.19209e-05,-1.49012e-06,-0.000238419,2.98023e-05,2.98023e-05,0.0109539,5.34241e-09,5,0.1,1,8.6,2.10502,3.17429,0.599995,0.846285,-0.287336,0,-0.196576,0.194311,0,0.00830322,0.65178,5,0.1,2,8.6,3.52026,2.23087,0.938161,0.197583,-0.442922,-0.119063,-0.0398159,-1.06931,0.0241101,0.0116983,2.59599,5,0.1,3,8.6,0.323533,2.36782,0.567629,-0.24694,-0.156796,0.088802,0.0770986,-0.406742,0.00625849,0.00745769,0.149695,5,0.1,4,8.6,-0.852164,-3.739,0.529421,0.000335276,-0.00564456,-7.45058e-05,-0.00360608,0.0660419,0.000745058,0.00756167,0.000145867,5,0.1,5,8.6,1.5764,0.383502,0.562131,-1.19209e-05,1.11759e-05,1.49012e-06,-5.96046e-05,-1.49012e-05,-2.98023e-05,0.0109378,7.16858e-10,5,0.1,6,8.6,2.33796,-2.15406,0.53509,0.000339746,-0.000345707,-5.96046e-06,-0.0013113,0.00119209,0,0.00672966,1.12192e-07,5,0.1,7,8.6,0.413177,1.96787,0.5,-0.0485778,-0.429031,0,0.305399,-0.0618696,0,0.00696277,0.571455,5,0.1,8,8.6,-0.301844,0.0614477,0.600001,0.00339597,0.336551,-5.96046e-06,-0.000521541,-0.113323,0,0.00865877,0.093952,5,0.1,9,8.6,-1.65035,0.136867,0.599992,0.000238419,0.831177,5.96046e-06,-0.000119209,0.129327,0,0.0101752,2.28758,5,0.1
0,8.7,-4.10519,-0.630936,0.555904,1.63913e-05,-8.9407e-06,1.02445e-06,-0.000119209,2.98023e-05,1.86265e-05,0.0109539,5.34241e-09,5,0.1,1,8.7,2.18881,3.14647,0.599995,0.830024,-0.269384,9.31323e-08,-0.165552,0.173897,3.72529e-06,0.00830322,0.65178,5,0.1,2,8.7,3.53988,2.18061,0.926344,0.195099,-0.566249,-0.117441,-0.0202358,-1.30764,0.0143349,0.0116983,2.59599,5,0.1,3,8.7,0.299146,2.35007,0.57655,-0.24124,-0.197899,0.0896176,0.0494346,-0.394434,0.00564009,0.00745769,0.149695,5,0.1,4,8.7,-0.852146,-3.73927,0.529417,2.64496e-05,-6.33299e-06,-1.06171e-05,-0.00258535,0.0469238,0.000536442,0.00756167,0.000145867,5,0.1,5,8.7,1.5764,0.383503,0.562131,-1.60187e-05,9.63919e-06,-1.02445e-06,-1.49012e-05,-1.67638e-05,-1.86265e-05,0.0109378,7.16858e-10,5,0.1,6,8.7,2.33799,-2.15409,0.535089,0.000216067,-0.000230968,-5.4948e-06,-0.00116229,0.00107288,1.11759e-05,0.00672966,1.12192e-07,5,0.1,7,8.7,0.40989,1.92578,0.500418,-0.0169783,-0.402714,0.0118535,0.316443,0.536092,0.210732,0.00696277,0.571455,5,0.1,8,8.7,-0.30151,0.0947176,0.6,0.00326922,0.330105,-5.58794e-06,-0.0019744,-0.0372153,7.45058e-06,0.00865877,0.093952,5,0.1,9,8.7,-1.65032,0.220873,0.599992,0.000228733,0.850072,5.96046e-06,-8.9407e-05,0.199613,0,0.0101752,2.28758,5,0.1
0,8.8,-4.10519,-0.630937,0.555905,0,-4.47035e-06,1.49012e-06,0.000238419,0,2.98023e-05,0.00845087,4.42505e-09,5,0.1,1,8.8,2.27079,3.12043,0.599996,0.806928,-0.251013,0,-0.321507,0.199676,0,0.0105819,0.451079,5,0.1,2,8.8,3.55925,2.11766,0.914695,0.191766,-0.688958,-0.115177,-0.0536442,-1.08111,0.0351369,0.0105614,2.34451,5,0.1,3,8.8,0.275308,2.32847,0.58551,-0.234922,-0.232136,0.0891849,0.0857264,-0.275731,-0.0172555,0.00952707,0.0875271,5,0.1,4,8.8,-0.852155,-3.73906,0.529418,-0.000183284,0.00379682,3.42727e-05,-0.00163913,0.0293255,0.000327826,0.00658368,5.15726e-05,5,0.1,5,8.8,1.57639,0.383504,0.562131,-1.78814e-05,8.19564e-06,-1.49012e-06,0,-2.98023e-05,-5.96046e-05,0.00754534,6.58787e-10,5,0.1,6,8.8,2.33801,-2.1541,0.535089,0.000113249,-0.00013113,-4.47035e-06,-0.000953674,0.000953674,2.98023e-05,0.00686913,7.76902e-08,5,0.1,7,8.8,0.409724,1.88882,0.502825,0.0129543,-0.331286,0.037463,0.274777,0.849962,0.280976,0.00671543,0.369429,5,0.1,8,8.8,-0.301195,0.127522,0.6,0.00300929,0.325396,-4.47035e-06,-0.00317395,-0.0724936,0,0.00786517,0.169244,5,0.1,9,8.8,-1.6503,0.306689,0.599993,0.000217557,0.863672,5.96046e-06,-5.96046e-05,0.0470591,0,0.0147178,1.72789,5,0.1
0,8.9,-4.10519,-0.630938,0.555905,2.01166e-05,-4.00469e-06,3.91155e-06,0.000149012,1.11759e-05,1.49012e-05,0.00845087,4.42505e-09,5,0.1,1,8.9,2.34999,3.09627,0.599996,0.777629,-0.232599,9.31323e-08,-0.294521,0.176236,3.72529e-06,0.0105819,0.451079,5,0.1,2,8.9,3.57822,2.04369,0.903316,0.188093,-0.785935,-0.112639,-0.0299513,-0.818171,0.0215136,0.0105614,2.34451,5,0.1,3,8.9,0.252227,2.30396,0.594337,-0.226671,-0.257043,0.0872352,0.0872519,-0.209495,-0.0244789,0.00952707,0.0875271,5,0.1,4,8.9,-0.85218,-3.73856,0.529423,-0.000310969,0.00606142,5.99772e-05,-0.000935048,0.0163466,0.000186265,0.00658368,5.15726e-05,5,0.1,5,8.9,1.57639,0.383504,0.562131,-1.69501e-05,5.4948e-06,-5.86733e-06,2.23517e-05,-2.23517e-05,-3.35276e-05,0.00754534,6.58787e-10,5,0.1,6,8.9,2.33802,-2.15411,0.535088,2.71946e-05,-4.47035e-05,-1.58325e-06,-0.000759959,0.00077486,2.6077e-05,0.00686913,7.76902e-08,5,0.1,7,8.9,0.412373,1.86034,0.507662,0.0396168,-0.235205,0.0563589,0.250883,1.03363,0.106748,0.00671543,0.369429,5,0.1,8,8.9,-0.300911,0.160025,0.599999,0.00265688,0.327104,-4.37722e-06,-0.00382215,0.0750896,3.72529e-06,0.00786517,0.169244,5,0.1,9,8.9,-1.65028,0.393201,0.599994,0.000212342,0.865878,5.96046e-06,-4.47035e-05,0.00588417,0,0.0147178,1.72789,5,0.1
0,9,-4.10519,-0.630938,0.555905,2.38419e-05,-2.98023e-06,4.47035e-06,0.000238419,2.98023e-05,0,0.00686379,5.77008e-09,5,0.1,1,9,2.42613,3.0739,0.599996,0.742972,-0.214481,0,-0.41914,0.19145,0,0.00686612,0.306897,5,0.1,2,9,3.59685,1.96169,0.892176,0.184047,-0.84686,-0.109869,-0.0579357,-0.383317,0.0380576,0.00939272,2.25999,5,0.1,3,9,0.230051,2.2774,0.602908,-0.216145,-0.271904,0.0838384,0.128582,-0.0795126,-0.0452697,0.0115964,0.0623464,5,0.1,4,9,-0.852215,-3.73789,0.52943,-0.000374019,0.00713468,7.30157e-05,-0.000327826,0.00560284,8.9407e-05,0.00801047,1.55897e-05,5,0.1,5,9,1.57639,0.383505,0.56213,-1.49012e-05,2.98023e-06,-7.45058e-06,0,0,-2.98023e-05,0.00700626,3.67564e-10,5,0.1,6,9,2.33801,-2.15411,0.535088,-3.57628e-05,2.38419e-05,0,-0.000476837,0.000476837,2.98023e-05,0.00707209,3.36261e-08,5,0.1,7,9,0.417498,1.84203,0.513611,0.061848,-0.131282,0.0606373,0.188529,1.01572,-0.0127554,0.00909552,0.309807,5,0.1,8,9,-0.300665,0.193142,0.599999,0.00225529,0.334935,-2.98023e-06,-0.00417233,0.058316,0,0.00891159,0.104062,5,0.1,9,9,-1.65026,0.4798,0.599994,0.000205636,0.866026,5.96046e-06,-5.96046e-05,0,-2.98023e-05,0.0111226,0.392741,5,0.1
0,9.1,-4.10518,-0.630938,0.555906,4.32134e-05,-9.31323e-08,4.37722e-06,0.000119209,2.6077e-05,-3.72529e-06,0.00686379,5.77008e-09,5,0.1,1,9.1,2.49845,3.05335,0.599996,0.704141,-0.196898,9.31323e-08,-0.382185,0.166565,3.72529e-06,0.00686612,0.306897,5,0.1,2,9.1,3.61504,1.87583,0.881337,0.18012,-0.864828,-0.107177,-0.0306517,-0.0479147,0.0216737,0.00939272,2.25999,5,0.1,3,9.1,0.209027,2.24982,0.611078,-0.204639,-0.279335,0.0796257,0.109975,-0.055477,-0.0419244,0.0115964,0.0623464,5,0.1,4,9.1,-0.852253,-3.73716,0.529437,-0.000386033,0.00730269,7.7486e-05,7.07805e-05,-0.00186265,0,0.00801047,1.55897e-05,5,0.1,5,9.1,1.57639,0.383505,0.562129,-1.39698e-05,2.7474e-06,-9.22009e-06,2.23517e-05,-5.58794e-06,-1.11759e-05,0.00700626,3.67564e-10,5,0.1,6,9.1,2.33801,-2.15411,0.535089,-7.63685e-05,6.48201e-05,2.51457e-06,-0.000342727,0.000357628,1.86265e-05,0.00707209,3.36261e-08,5,0.1,7,9.1,0.424588,1.83402,0.519464,0.0794135,-0.0293612,0.0551543,0.156952,0.994727,-0.0897013,0.00909552,0.309807,5,0.1,8,9.1,-0.300461,0.227009,0.599998,0.00182586,0.3427,-2.8871e-06,-0.00435114,0.0764653,3.72529e-06,0.00891159,0.104062,5,0.1,9,9.1,-1.65024,0.566193,0.599995,0.000199676,0.859178,3.44589e-06,-5.96046e-05,-0.158302,-1.86265e-05,0.0111226,0.392741,5,0.1
0,9.2,-4.10518,-0.630938,0.555906,4.76837e-05,1.49012e-06,4.47035e-06,0,2.98023e-05,-2.98023e-05,0.0101089,3.47652e-09,5,0.1,1,9.2,2.56685,3.03449,0.599996,0.66238,-0.180089,0,-0.470042,0.173926,0,0.00645538,0.206752,5,0.1,2,9.2,3.63287,1.78925,0.870741,0.176197,-0.866026,-0.104529,-0.0549555,5.96046e-05,0.0354648,0.00844218,2.24657,5,0.1,3,9.2,0.189139,2.22174,0.618817,-0.192733,-0.280732,0.0749633,0.133887,0.036478,-0.0533164,0.0115079,0.0268819,5,0.1,4,9.2,-0.852291,-3.73645,0.529445,-0.000363588,0.00684261,7.45058e-05,0.000357628,-0.00715256,-5.96046e-05,0.00908526,7.55444e-06,5,0.1,5,9.2,1.57639,0.383505,0.562128,-1.19209e-05,2.98023e-06,-8.9407e-06,0,-1.49012e-05,0,0.00708219,6.93046e-10,5,0.1,6,9.2,2.338,-2.1541,0.535089,-0.000101328,8.9407e-05,2.98023e-06,-0.000119209,0.000357628,2.98023e-05,0.00664083,1.61402e-08,5,0.1,7,9.2,0.433223,1.83583,0.524454,0.0922732,0.062862,0.0440001,0.0963807,0.829697,-0.127524,0.00754927,0.243261,5,0.1,8,9.2,-0.3003,0.261554,0.599998,0.00139698,0.346748,-1.49012e-06,-0.00417233,-0.00980496,-2.98023e-05,0.00839034,0.0822434,5,0.1,9,9.2,-1.65022,0.650917,0.599995,0.000190735,0.830954,2.98023e-06,-5.96046e-05,-0.418931,-2.98023e-05,0.0121351,1.35182,5,0.1
0,9.3,-4.10517,-0.630938,0.555906,4.47035e-05,4.00469e-06,1.95578e-06,-5.96046e-05,1.86265e-05,-1.86265e-05,0.0101089,3.47652e-09,5,0.1,1,9.3,2.63087,3.0173,0.599996,0.618833,-0.164187,9.31323e-08,-0.421405,0.149444,3.72529e-06,0.00645538,0.206752,5,0.1,2,9.3,3.65029,1.70265,0.860421,0.172639,-0.866025,-0.102146,-0.0261813,-1.49012e-05,0.0180453,0.00844218,2.24657,5,0.1,3,9.3,0.17053,2.19392,0.626046,-0.179388,-0.274926,0.0695698,0.137197,0.0859797,-0.0559539,0.0115079,0.0268819,5,0.1,4,9.3,-0.852325,-3.73581,0.529452,-0.000318326,0.0059545,6.64033e-05,0.000528991,-0.0102818,-0.000100583,0.00908526,7.55444e-06,5,0.1,5,9.3,1.57639,0.383505,0.562127,-1.09896e-05,1.53668e-06,-8.3819e-06,2.23517e-05,-1.30385e-05,1.49012e-05,0.00708219,6.93046e-10,5,0.1,6,9.3,2.33799,-2.15409,0.535089,-0.000109151,0.000116229,5.40167e-06,-1.49012e-05,0.000178814,1.49012e-05,0.00664083,1.61402e-08,5,0.1,7,9.3,0.44289,1.84616,0.528166,0.10056,0.142046,0.0298955,0.0653639,0.733003,-0.149317,0.00754927,0.243261,5,0.1,8,9.3,-0.30018,0.296286,0.599998,0.00100294,0.3484,-3.53903e-06,-0.00368059,0.0216123,-7.45058e-06,0.00839034,0.0822434,5,0.1,9,9.3,-1.6502,0.73267,0.599995,0.000184588,0.809864,5.58794e-07,-6.70552e-05,-0.0706874,-1.49012e-05,0.0121351,1.35182,5,0.1
0,9.4,-4.10517,-0.630937,0.555907,3.57628e-05,4.47035e-06,0,0,2.98023e-05,0,0.00860726,2.56364e-09,5,0.1,1,9.4,2.69059,3.00162,0.599996,0.574642,-0.149304,0,-0.47648,0.152111,0,0.0122408,0.138712,5,0.1,2,9.4,3.66741,1.61604,0.850307,0.169253,-0.866026,-0.0999168,-0.0486374,5.96046e-05,0.0307262,0.00956379,2.2482,5,0.1,3,9.4,0.15331,2.16698,0.63271,-0.164613,-0.262541,0.063546,0.160925,0.165462,-0.0653267,0.00933549,0.00952478,5,0.1,4,9.4,-0.852354,-3.73527,0.529458,-0.00026077,0.00485182,5.51343e-05,0.000596046,-0.0115633,-0.000119209,0.01003,6.96041e-06,5,0.1,5,9.4,1.57639,0.383506,0.562127,-8.9407e-06,7.45058e-07,-7.45058e-06,0,-1.49012e-05,5.96046e-05,0.00833985,6.25109e-10,5,0.1,6,9.4,2.33798,-2.15408,0.53509,-0.000113249,0.00013113,5.96046e-06,0.000119209,0,0,0.00678359,4.53737e-09,5,0.1,7,9.4,0.453195,1.86373,0.530409,0.104697,0.205946,0.0150621,0.0148863,0.530779,-0.143319,0.0081048,0.17963,5,0.1,8,9.4,-0.300097,0.331144,0.599998,0.000665337,0.347479,-4.47035e-06,-0.00303984,-0.0547022,2.98023e-05,0.00672418,0.775051,5,0.1,9,9.4,-1.65018,0.81342,0.599995,0.000172853,0.805035,-1.49012e-06,-5.96046e-05,-0.0758171,2.98023e-05,0.010972,1.02107,5,0.1
0,9.5,-4.10517,-0.630937,0.555907,3.27826e-05,6.89179e-06,0,-5.96046e-05,1.49012e-05,0,0.00860726,2.56364e-09,5,0.1,1,9.5,2.74581,2.98741,0.599996,0.530679,-0.135459,9.31323e-08,-0.419885,0.129208,3.72529e-06,0.0122408,0.138712,5,0.1,2,9.5,3.68416,1.52944,0.840426,0.166294,-0.866025,-0.0979864,-0.0203699,-1.49012e-05,0.0136532,0.00956379,2.2482,5,0.1,3,9.5,0.137654,2.1416,0.638737,-0.148441,-0.244258,0.0569731,0.164247,0.202313,-0.0666678,0.00933549,0.00952478,5,0.1,4,9.5,-0.852377,-3.73484,0.529463,-0.000199303,0.00366718,4.27477e-05,0.000625849,-0.0118911,-0.000130385,0.01003,6.96041e-06,5,0.1,5,9.5,1.57639,0.383506,0.562126,-8.00937e-06,-5.12227e-07,-2.04891e-06,2.23517e-05,-9.31323e-06,4.47035e-05,0.00833985,6.25109e-10,5,0.1,6,9.5,2.33797,-2.15407,0.535091,-0.000100955,0.000126287,5.58794e-06,0.00013411,-7.45058e-05,-7.45058e-06,0.00678359,4.53737e-09,5,0.1,7,9.5,0.463572,1.88685,0.531354,0.101323,0.254702,0.00522444,-0.0764653,0.428163,-0.0594445,0.0081048,0.17963,5,0.1,8,9.5,-0.300596,0.366125,0.599981,-0.0152444,0.356076,-0.000468548,-0.280406,0.182459,-0.00827387,0.00672418,0.775051,5,0.1,9,9.5,-1.65017,0.893915,0.599995,0.000165962,0.807184,1.02445e-06,-8.19564e-05,0.065621,1.86265e-05,0.010972,1.02107,5,0.1
0,9.6,-4.10516,-0.630936,0.555907,2.38419e-05,7.45058e-06,0,0,0,0,0.00743754,3.46742e-09,5,0.1,1,9.6,2.79676,2.9745,0.599996,0.487775,-0.122702,0,-0.450015,0.129104,0,0.0118966,0.160434,5,0.1,2,9.6,3.70067,1.44284,0.830706,0.163502,-0.866026,-0.0962004,-0.0424385,0,0.026226,0.00754864,2.24956,5,0.1,3,9.6,0.123648,2.11826,0.644095,-0.131498,-0.221783,0.0501305,0.175558,0.247955,-0.0703931,0.0071277,0.00440219,5,0.1,4,9.6,-0.852394,-3.73453,0.529467,-0.000140071,0.00251532,2.98023e-05,0.000596046,-0.010848,-8.9407e-05,0.00955219,5.81354e-06,5,0.1,5,9.6,1.57638,0.383505,0.562126,-5.96046e-06,-7.45058e-07,1.49012e-06,0,-1.49012e-05,2.98023e-05,0.0135647,6.50722e-10,5,0.1,6,9.6,2.33796,-2.15405,0.535091,-8.9407e-05,0.000119209,4.47035e-06,0.000238419,-0.000238419,0,0.00933521,2.90482e-09,5,0.1,7,9.6,0.473212,1.91418,0.531676,0.0905037,0.288907,0.00208318,-0.134826,0.245392,-0.00837445,0.00957655,0.198214,5,0.1,8,9.6,-0.303744,0.402738,0.599886,-0.0492379,0.376262,-0.00147372,-0.372469,0.188321,-0.0110567,0.00636243,0.612322,5,0.1,9,9.6,-1.65015,0.974838,0.599995,0.000157952,0.809048,2.98023e-06,-0.000178814,-0.0663102,0,0.00850546,0.746331,5,0.1
0,9.7,-4.10516,-0.630935,0.555907,2.08616e-05,7.07805e-06,0,-5.96046e-05,-7.45058e-06,0,0.00743754,3.46742e-09,5,0.1,1,9.7,2.84367,2.96277,0.599996,0.453367,-0.112718,9.31323e-08,-0.268027,0.0781864,3.72529e-06,0.0118966,0.160434,5,0.1,2,9.7,3.71687,1.35624,0.821176,0.161082,-0.866026,-0.0946679,-0.015527,0,0.010062,0.00754864,2.24956,5,0.1,3,9.7,0.111358,2.09733,0.648764,-0.114436,-0.196796,0.0432916,0.16697,0.253275,-0.066787,0.0071277,0.00440219,5,0.1,4,9.7,-0.852405,-3.73433,0.529469,-8.33534e-05,0.00147671,2.04891e-05,0.000532717,-0.00974536,-9.68575e-05,0.00955219,5.81354e-06,5,0.1,5,9.7,1.57638,0.383505,0.562126,-5.02914e-06,-1.95578e-06,4.00469e-06,2.23517e-05,-7.45058e-06,1.86265e-05,0.0135647,6.50722e-10,5,0.1,6,9.7,2.33795,-2.15404,0.535091,-6.74278e-05,9.53674e-05,4.09782e-06,0.000193715,-0.000238419,-7.45058e-06,0.00933521,2.90482e-09,5,0.1,7,9.7,0.481483,1.94446,0.531972,0.0740433,0.317666,0.00492688,-0.187196,0.30005,0.0571981,0.00957655,0.198214,5,0.1,8,9.7,-0.310733,0.441518,0.599677,-0.0919144,0.400589,-0.00274228,-0.454914,0.264054,-0.013534,0.00636243,0.612322,5,0.1,9,9.7,-1.65013,1.0556,0.599995,0.000141189,0.806988,2.98023e-06,-0.000149012,-0.0170656,0,0.00850546,0.746331,5,0.1
0,9.8,-4.10516,-0.630934,0.555907,1.19209e-05,5.96046e-06,0,0,-2.98023e-05,0,0.00714388,2.6389e-09,5,0.1,1,9.8,2.88776,2.95185,0.599996,0.428981,-0.105745,0,-0.241876,0.0668764,2.98023e-05,0.00807494,0.169252,5,0.1,2,9.8,3.73289,1.26963,0.811771,0.158751,-0.866026,-0.0932217,-0.0377893,0,0.0228584,0.00925718,2.25072,5,0.1,3,9.8,0.100743,2.07894,0.652762,-0.097904,-0.170934,0.0367135,0.164375,0.264406,-0.0649989,0.00662513,0.00147325,5,0.1,4,9.8,-0.852411,-3.73423,0.529471,-3.57628e-05,0.000590086,1.19209e-05,0.000447035,-0.00786781,-8.9407e-05,0.0105071,3.65759e-06,5,0.1,5,9.8,1.57638,0.383505,0.562127,-2.98023e-06,-2.23517e-06,4.47035e-06,0,-1.49012e-05,2.98023e-05,0.0108731,5.27933e-10,5,0.1,6,9.8,2.33794,-2.15403,0.535092,-5.36442e-05,7.7486e-05,2.98023e-06,0.000238419,-0.000357628,0,0.0134902,4.91364e-09,5,0.1,7,9.8,0.487914,1.97762,0.532805,0.0543527,0.343814,0.0120908,-0.200972,0.201702,0.0798106,0.00723129,0.137554,5,0.1,8,9.8,-0.322158,0.482792,0.599337,-0.135677,0.423208,-0.00404418,-0.401035,0.163838,-0.0119507,0.00701389,0.465436,5,0.1,9,9.8,-1.65012,1.13601,0.599996,0.00012517,0.798479,2.98023e-06,-0.000119209,-0.18239,0,0.00944307,0.528208,5,0.1
0,9.9,-4.10516,-0.630934,0.555907,1.11759e-05,3.44589e-06,0,-2.98023e-05,-1.86265e-05,0,0.00714388,2.6389e-09,5,0.1,1,9.9,2.92961,2.94163,0.599996,0.40892,-0.0986625,2.51457e-06,-0.179008,0.0763983,1.86265e-05,0.00807494,0.169252,5,0.1,2,9.9,3.74864,1.18303,0.802524,0.156704,-0.866026,-0.0919656,-0.0124872,0,0.00775233,0.00925718,2.25072,5,0.1,3,9.9,0.0917566,2.06315,0.656116,-0.0820061,-0.144818,0.0304485,0.153738,0.257492,-0.0603124,0.00662513,0.00147325,5,0.1,4,9.9,-0.852413,-3.73421,0.529471,4.37722e-06,-0.00012219,3.53903e-06,0.000353903,-0.00628829,-7.45058e-05,0.0105071,3.65759e-06,5,0.1,5,9.9,1.57638,0.383505,0.562127,-2.23517e-06,-3.25963e-06,6.89179e-06,1.49012e-05,-3.72529e-06,1.49012e-05,0.0108731,5.27933e-10,5,0.1,6,9.9,2.33794,-2.15403,0.535092,-3.35276e-05,4.65661e-05,2.6077e-06,0.000149012,-0.000283122,-7.45058e-06,0.0134902,4.91364e-09,5,0.1,7,9.9,0.492438,2.01299,0.534451,0.0370073,0.36291,0.0210944,-0.147937,0.161387,0.0948645,0.00723129,0.137554,5,0.1,8,9.9,-0.337767,0.52601,0.598871,-0.17635,0.44123,-0.00525629,-0.392508,0.16981,-0.0117011,0.00701389,0.465436,5,0.1,9,9.9,-1.65011,1.21507,0.599996,0.000113994,0.782979,2.98023e-06,-0.000104308,-0.161514,0,0.00944307,0.528208,5,0.1
