id,t,px,py,pz,vx,vy,vz,ax,ay,az,planning_time,qp_cost,planning_report,size,id,t,px,py,pz,vx,vy,vz,ax,ay,az,planning_time,qp_cost,planning_report,size,id,t,px,py,pz,vx,vy,vz,ax,ay,az,planning_time,qp_cost,planning_report,size,id,t,px,py,pz,vx,vy,vz,ax,ay,az,planning_time,qp_cost,planning_report,size,id,t,px,py,pz,vx,vy,vz,ax,ay,az,planning_time,qp_cost,planning_report,size,id,t,px,py,pz,vx,vy,vz,ax,ay,az,planning_time,qp_cost,planning_report,size,id,t,px,py,pz,vx,vy,vz,ax,ay,az,planning_time,qp_cost,planning_report,size,id,t,px,py,pz,vx,vy,vz,ax,ay,az,planning_time,qp_cost,planning_report,size,id,t,px,py,pz,vx,vy,vz,ax,ay,az,planning_time,qp_cost,planning_report,size,id,t,px,py,pz,vx,vy,vz,ax,ay,az,planning_time,qp_cost,planning_report,size
0,0,1.80771,3.7044,0.69536,0,0,0,0,0,0,0.0110402,3.47851,5,0.1,1,0,2.13032,1.05335,0.693278,0,0,0,0,0,0,0.0143693,1.10485,5,0.1,2,0,-1.93608,3.26273,0.6099,0,0,0,0,0,0,0.00737686,0.916895,5,0.1,3,0,0.201386,4.23519,0.553441,0,0,0,0,0,0,0.017625,3.5122,5,0.1,4,0,-1.24239,-0.718324,0.500277,0,0,0,0,0,0,0.0132144,3.51233,5,0.1,5,0,-3.93922,-2.44746,0.695709,0,0,0,0,0,0,0.00946788,1.10788,5,0.1,6,0,1.39368,-0.402519,0.572893,0,0,0,0,0,0,0.00822475,2.52859,5,0.1,7,0,0.696883,3.69258,0.654937,0,0,0,0,0,0,0.00860026,1.57702,5,0.1,8,0,4.31676,3.88099,0.698378,0,0,0,0,0,0,0.0101035,1.68785,5,0.1,9,0,4.10074,2.14787,0.558815,0,0,0,0,0,0,0.0137124,1.70293,5,0.1
0,0.1,1.80629,3.70288,0.695417,-0.0402346,-0.0430997,0.0016192,-0.715271,-0.766233,0.028789,0.0110402,3.47851,5,0.1,1,0.1,2.12919,1.05366,0.693337,-0.0320144,0.00879075,0.00168094,-0.569135,0.156276,0.029888,0.0143693,1.10485,5,0.1,2,0.1,-1.93594,3.26167,0.60989,0.004033,-0.0300113,-0.000293367,0.0716895,-0.533536,-0.00521541,0.00737686,0.916895,5,0.1,3,0.1,0.203292,4.23433,0.55347,0.0541028,-0.0241853,0.000813045,0.961827,-0.429958,0.0144541,0.017625,3.5122,5,0.1,4,0.1,-1.24169,-0.716356,0.500274,0.0197344,0.0558766,-6.71484e-05,0.350833,0.993356,-0.00119582,0.0132144,3.51233,5,0.1,5,0.1,-3.9384,-2.44662,0.695766,0.0233881,0.0236321,0.00160886,0.415772,0.420138,0.0285991,0.00946788,1.10788,5,0.1,6,0.1,1.39191,-0.402412,0.572921,-0.0501908,0.00303811,0.000803452,-0.892282,0.0540111,0.014279,0.00822475,2.52859,5,0.1,7,0.1,0.697716,3.69146,0.654853,0.0236396,-0.0318237,-0.00238037,0.420257,-0.565767,-0.0423156,0.00860026,1.57702,5,0.1,8,0.1,4.31538,3.88054,0.698432,-0.0390209,-0.0127722,0.00152979,-0.693709,-0.227049,0.0271946,0.0101035,1.68785,5,0.1,9,0.1,4.09959,2.14876,0.558858,-0.0326186,0.0252515,0.0012205,-0.579894,0.448912,0.0216998,0.0137124,1.70293,5,0.1
0,0.2,1.79812,3.69412,0.695746,-0.127164,-0.136214,0.00511706,-0.953674,-1.02174,0.0383854,0.00867466,2.85393,5,0.1,1,0.2,2.12268,1.05545,0.693679,-0.101179,0.0277817,0.00531226,-0.758886,0.208437,0.0398457,0.0128077,0.90647,5,0.1,2,0.2,-1.93512,3.25558,0.60983,0.0127465,-0.0948548,-0.000926852,0.0955462,-0.711203,-0.00697374,0.012351,0.752275,5,0.1,3,0.2,0.214282,4.22942,0.553635,0.170992,-0.076437,0.00256896,1.28243,-0.573397,0.0192821,0.0169378,2.92579,5,0.1,4,0.2,-1.23768,-0.705006,0.500261,0.0623703,0.176598,-0.000211596,0.467718,1.32445,-0.00163913,0.0138321,2.92612,5,0.1,5,0.2,-3.93365,-2.44182,0.696093,0.0739157,0.0746846,0.00508428,0.554442,0.560284,0.038147,0.0093176,0.908957,5,0.1,6,0.2,1.38171,-0.401795,0.573084,-0.158629,0.00960156,0.00253916,-1.18965,0.0720173,0.0190437,0.00749227,2.07459,5,0.1,7,0.2,0.702518,3.68499,0.654369,0.0747129,-0.100583,-0.0075236,0.560343,-0.754237,-0.0564158,0.00789532,1.29387,5,0.1,8,0.2,4.30746,3.87795,0.698743,-0.123334,-0.0403643,0.00483543,-0.924587,-0.302792,0.0362396,0.0110898,1.38482,5,0.1,9,0.2,4.09296,2.15389,0.559106,-0.103092,0.0798106,0.00385642,-0.77343,0.59855,0.0289381,0.0119584,1.39715,5,0.1
0,0.3,1.78011,3.67483,0.696471,-0.236562,-0.253415,0.00952035,-1.16701,-1.25019,0.0469685,0.00867466,2.85393,5,0.1,1,0.3,2.10835,1.05939,0.694431,-0.188231,0.0516895,0.00988282,-0.928611,0.255018,0.0487566,0.0128077,0.90647,5,0.1,2,0.3,-1.93332,3.24214,0.609699,0.0237083,-0.176444,-0.00172602,0.116937,-0.870392,-0.00851974,0.012351,0.752275,5,0.1,3,0.3,0.238513,4.21859,0.553999,0.318483,-0.142379,0.00478607,1.57608,-0.704646,0.0236854,0.0169378,2.92579,5,0.1,4,0.3,-1.22885,-0.67998,0.500232,0.116164,0.328922,-0.000342913,0.57485,1.62772,-0.000998378,0.0138321,2.92612,5,0.1,5,0.3,-3.92318,-2.43124,0.696813,0.137514,0.138951,0.00945972,0.67842,0.685543,0.0466742,0.0093176,0.908957,5,0.1,6,0.3,1.35925,-0.400435,0.573444,-0.295097,0.0178625,0.00472339,-1.45578,0.0881236,0.0233017,0.00749227,2.07459,5,0.1,7,0.3,0.713099,3.67075,0.653304,0.138991,-0.187106,-0.0139955,0.685684,-0.923008,-0.0690445,0.00789532,1.29387,5,0.1,8,0.3,4.28999,3.87223,0.699427,-0.229408,-0.075097,0.00899332,-1.13165,-0.370488,0.044357,0.0110898,1.38482,5,0.1,9,0.3,4.07836,2.16519,0.559653,-0.191804,0.148471,0.00717584,-0.946254,0.732452,0.0354052,0.0119584,1.39715,5,0.1
0,0.4,1.75072,3.64335,0.697654,-0.348872,-0.373733,0.0140399,-1.02967,-1.10292,0.041455,0.00869185,2.25806,5,0.1,1,0.4,2.08497,1.06581,0.695659,-0.277597,0.0762314,0.0145763,-0.819325,0.224948,0.0429749,0.0134296,0.717207,5,0.1,2,0.4,-1.93037,3.22023,0.609484,0.0349641,-0.26021,-0.00254661,0.103176,-0.767946,-0.00748038,0.0115675,0.595215,5,0.1,3,0.4,0.278108,4.20089,0.554594,0.470335,-0.210273,0.00706762,1.39353,-0.622749,0.0209808,0.0190501,2.51007,5,0.1,4,0.4,-1.2144,-0.639088,0.500194,0.171548,0.485751,-0.000412762,0.508368,1.43921,-0.000447035,0.0136891,2.51084,5,0.1,5,0.4,-3.9061,-2.41398,0.697988,0.202805,0.204927,0.0139505,0.598431,0.604749,0.0412166,0.00878441,0.719172,5,0.1,6,0.4,1.32259,-0.398216,0.57403,-0.435197,0.0263438,0.00696629,-1.28442,0.0777394,0.0205636,0.00788526,1.64144,5,0.1,7,0.4,0.730366,3.6475,0.651565,0.204979,-0.275934,-0.0206396,0.604928,-0.814438,-0.0609159,0.00827037,1.02373,5,0.1,8,0.4,4.26149,3.8629,0.700545,-0.338316,-0.110751,0.0132635,-0.998497,-0.326753,0.0391006,0.0112415,1.0957,5,0.1,9,0.4,4.05453,2.18364,0.560544,-0.282872,0.218958,0.0105828,-0.834942,0.646234,0.0312328,0.013904,1.10543,5,0.1
0,0.5,1.71059,3.60036,0.699269,-0.453341,-0.485635,0.0182454,-1.00847,-1.0802,0.0405945,0.00869185,2.25806,5,0.1,1,0.5,2.05304,1.07458,0.697335,-0.360724,0.0990547,0.0189372,-0.802457,0.220314,0.042107,0.0134296,0.717207,5,0.1,2,0.5,-1.92635,3.19029,0.609192,0.0454327,-0.338127,-0.0033061,0.101067,-0.752166,-0.0073351,0.0115675,0.595215,5,0.1,3,0.5,0.332307,4.17666,0.555409,0.613734,-0.274361,0.0092255,1.4007,-0.626057,0.0210702,0.0190501,2.51007,5,0.1,4,0.5,-1.19464,-0.58317,0.500152,0.22386,0.632206,-0.000425428,0.510953,1.4178,0.000156462,0.0136891,2.51084,5,0.1,5,0.5,-3.88277,-2.39041,0.699593,0.263523,0.266283,0.0181313,0.586122,0.592291,0.0403486,0.00878441,0.719172,5,0.1,6,0.5,1.27253,-0.395186,0.574832,-0.565514,0.0342313,0.00905246,-1.25797,0.0761393,0.0201315,0.00788526,1.64144,5,0.1,7,0.5,0.753944,3.61576,0.649191,0.266355,-0.358566,-0.0268203,0.592481,-0.797674,-0.0596605,0.00827037,1.02373,5,0.1,8,0.5,4.22258,3.85016,0.70207,-0.439624,-0.143905,0.0172317,-0.977993,-0.320062,0.0383109,0.0112415,1.0957,5,0.1,9,0.5,4.022,2.20882,0.561761,-0.367578,0.284524,0.0137517,-0.817671,0.632927,0.0305921,0.013904,1.10543,5,0.1
0,0.6,1.6606,3.5468,0.701281,-0.541836,-0.58043,0.0218078,-0.725508,-0.777006,0.0291765,0.00990148,1.68106,5,0.1,1,0.6,2.01326,1.0855,0.699424,-0.431138,0.118387,0.0226319,-0.577271,0.158489,0.0303388,0.0148318,0.533938,5,0.1,2,0.6,-1.92134,3.153,0.608827,0.0543028,-0.404137,-0.0039503,0.0726581,-0.541091,-0.00527501,0.011302,0.443129,5,0.1,3,0.6,0.400198,4.14631,0.55643,0.737882,-0.32984,0.0110924,1.03007,-0.460625,0.0154972,0.0185936,2.2524,5,0.1,4,0.6,-1.16987,-0.513382,0.500111,0.269145,0.757015,-0.00038892,0.375807,1.02756,0.000536442,0.0143428,2.38325,5,0.1,5,0.6,-3.85371,-2.36104,0.701593,0.314963,0.318259,0.0216722,0.421524,0.426054,0.0289977,0.00796421,0.535404,5,0.1,6,0.6,1.21016,-0.391411,0.57583,-0.675908,0.0409126,0.0108197,-0.904977,0.0547916,0.0144839,0.0082052,1.22201,5,0.1,7,0.6,0.783318,3.57622,0.646233,0.318348,-0.428563,-0.0320569,0.426203,-0.573874,-0.0428855,0.00675805,0.762138,5,0.1,8,0.6,4.1741,3.83429,0.70397,-0.525463,-0.171989,0.0205949,-0.703335,-0.230312,0.0275671,0.0127608,0.81573,5,0.1,9,0.6,3.98146,2.2402,0.563278,-0.439328,0.340062,0.016436,-0.588179,0.455379,0.0219941,0.0108561,0.822948,5,0.1
0,0.7,1.60285,3.48494,0.703605,-0.611486,-0.655026,0.0246091,-0.627689,-0.672281,0.02525,0.00990148,1.68106,5,0.1,1,0.7,1.96731,1.09812,0.701836,-0.486556,0.133602,0.0255442,-0.499427,0.137113,0.0262447,0.0148318,0.533938,5,0.1,2,0.7,-1.91555,3.10993,0.608406,0.0612795,-0.456085,-0.00445712,0.0628829,-0.46818,-0.00456721,0.011302,0.443129,5,0.1,3,0.7,0.478465,4.11099,0.557617,0.820322,-0.376076,0.0126474,0.60473,-0.434965,0.014618,0.0185936,2.2524,5,0.1,4,0.7,-1.14105,-0.434136,0.500075,0.306864,0.813988,-0.000323728,0.354797,0.189634,0.000745058,0.0143428,2.38325,5,0.1,5,0.7,-3.82014,-2.32712,0.703903,0.355434,0.359161,0.024456,0.364736,0.36861,0.0250861,0.00796421,0.535404,5,0.1,6,0.7,1.13812,-0.38705,0.576983,-0.762788,0.0461726,0.01221,-0.782982,0.0474006,0.0125319,0.0082052,1.22201,5,0.1,7,0.7,0.817247,3.53054,0.642817,0.359266,-0.483656,-0.0361748,0.368755,-0.496492,-0.0371113,0.00675805,0.762138,5,0.1,8,0.7,4.11809,3.81596,0.706165,-0.592989,-0.1941,0.0232421,-0.608623,-0.199258,0.0238642,0.0127608,0.81573,5,0.1,9,0.7,3.93464,2.27645,0.56503,-0.495791,0.383778,0.0185476,-0.508815,0.393972,0.0190325,0.0108561,0.822948,5,0.1
0,0.8,1.53899,3.41654,0.706175,-0.660697,-0.707734,0.0265881,-0.329614,-0.352979,0.013262,0.0159576,1.18692,5,0.1,1,0.8,1.9165,1.11207,0.704504,-0.525713,0.144354,0.0276014,-0.26226,0.0720024,0.0137985,0.0147382,2.00771,5,0.1,2,0.8,-1.90915,3.0623,0.607941,0.0662088,-0.492793,-0.00481606,0.033021,-0.24581,-0.00238419,0.0138335,0.312878,5,0.1,3,0.8,0.562761,4.07145,0.558947,0.858119,-0.411892,0.0138506,0.158131,-0.261307,0.00879169,0.0218655,2.15092,5,0.1,4,0.8,-1.10879,-0.352678,0.500046,0.336078,0.807586,-0.000247359,0.213087,-0.268996,0.000834465,0.013085,2.36857,5,0.1,5,0.8,-3.78302,-2.28962,0.706456,0.384033,0.388062,0.0264227,0.19145,0.193596,0.0131726,0.00860899,0.378029,5,0.1,6,0.8,1.05847,-0.382228,0.578258,-0.824174,0.0498883,0.0131935,-0.411123,0.0248998,0.00655651,0.00907181,0.864508,5,0.1,7,0.8,0.854766,3.48003,0.639039,0.388177,-0.522584,-0.0390843,0.193626,-0.260711,-0.0195205,0.00792173,0.623441,5,0.1,8,0.8,4.05617,3.79569,0.708593,-0.640714,-0.209725,0.0251129,-0.319481,-0.104547,0.0125468,0.0137894,0.575969,5,0.1,9,0.8,3.88286,2.31653,0.566966,-0.535685,0.41467,0.0200391,-0.267029,0.206828,0.0100136,0.0141897,0.581029,5,0.1
0,0.9,1.47135,3.34408,0.708897,-0.690563,-0.739719,0.02779,-0.236087,-0.252828,0.00950322,0.0159576,1.18692,5,0.1,1,0.9,1.86173,1.12685,0.70733,-0.576148,0.150878,0.0288515,-0.661984,0.0515655,0.0098832,0.0147382,2.00771,5,0.1,2,0.9,-1.90238,3.01185,0.607448,0.0692017,-0.515069,-0.00503231,0.023663,-0.176117,-0.00171363,0.0138335,0.312878,5,0.1,3,0.9,0.649057,4.0289,0.560378,0.865531,-0.438927,0.0147597,0.0197627,-0.251576,0.00846013,0.0218655,2.15092,5,0.1,4,0.9,-1.07407,-0.274044,0.500026,0.358059,0.761507,-0.000168104,0.203975,-0.498812,0.000733882,0.013085,2.36857,5,0.1,5,0.9,-3.74371,-2.24989,0.709162,0.401383,0.405604,0.0276163,0.13718,0.13867,0.00943244,0.00860899,0.378029,5,0.1,6,0.9,0.974296,-0.377121,0.579609,-0.855715,0.0521444,0.0137879,-0.203043,0.0178311,0.00470132,0.00907181,0.864508,5,0.1,7,0.9,0.893843,3.42709,0.634947,0.386859,-0.530332,-0.0434236,-0.196654,0.0955164,-0.0596754,0.00792173,0.623441,5,0.1,8,0.9,3.99057,3.77422,0.711164,-0.669668,-0.219199,0.02625,-0.228927,-0.0749081,0.00898913,0.0137894,0.575969,5,0.1,9,0.9,3.82802,2.35898,0.569018,-0.559881,0.433411,0.0209462,-0.191242,0.148132,0.00717491,0.0141897,0.581029,5,0.1
0,1,1.40148,3.26923,0.711709,-0.702655,-0.75267,0.0282764,0.0151396,0.0163317,-0.000625849,0.0106865,0.807145,5,0.1,1,1,1.80072,1.14211,0.710249,-0.643387,0.153521,0.0293568,-0.620186,-0.00333786,-0.000596046,0.0111934,0.25655,5,0.1,2,1,-1.89537,2.95973,0.606939,0.0704139,-0.524086,-0.00512004,-0.00149012,0.0112057,0.000119209,0.00927088,0.212775,5,0.1,3,1,0.73565,3.98395,0.561889,0.866026,-0.457501,0.0153825,0,-0.100613,0.00339746,0.0176574,2.1339,5,0.1,4,1,-1.03741,-0.2,0.500012,0.373062,0.723752,-0.000101328,0.0804663,-0.25075,0.000566244,0.0121892,2.36411,5,0.1,5,1,-3.70309,-2.20885,0.711956,0.408405,0.412709,0.0280991,-0.00870228,-0.00905991,-0.000625849,0.0117769,0.257079,5,0.1,6,1,0.888146,-0.371845,0.581004,-0.862803,0.0530578,0.014028,0.0644922,-0.00114739,-0.000327826,0.00847014,0.595105,5,0.1,7,1,0.931062,3.37505,0.630291,0.353208,-0.505596,-0.0496939,-0.456065,0.388384,-0.0600219,0.00789974,0.484384,5,0.1,8,1,3.92281,3.75204,0.71382,-0.681394,-0.223035,0.0267118,0.0146627,0.00476837,-0.000566244,0.0133577,0.391702,5,0.1,9,1,3.77137,2.40283,0.571138,-0.569671,0.440997,0.0213146,0.012517,-0.00941753,-0.000476837,0.0117505,0.395119,5,0.1
0,1.1,1.33132,3.19408,0.714532,-0.699577,-0.749364,0.0281512,0.0721216,0.0773072,-0.00290945,0.0106865,0.807145,5,0.1,1,1.1,1.7339,1.15744,0.71318,-0.68679,0.152846,0.029231,-0.242084,-0.0157729,-0.00299886,0.0111934,0.25655,5,0.1,2,1.1,-1.88834,2.9074,0.606427,0.0701087,-0.521798,-0.00509694,-0.00720471,0.0537038,0.000528991,0.00927088,0.212775,5,0.1,3,1.1,0.822252,3.9376,0.563448,0.866026,-0.469781,0.0157962,-3.72529e-06,-0.117481,0.00394881,0.0176574,2.1339,5,0.1,4,1.1,-0.999675,-0.127773,0.500005,0.381499,0.729498,-5.25266e-05,0.0690594,0.274699,0.000402331,0.0121892,2.36411,5,0.1,5,1.1,-3.66231,-2.16764,0.714761,0.406626,0.410886,0.0279743,-0.0418425,-0.0424832,-0.00289828,0.0117769,0.257079,5,0.1,6,1.1,0.802171,-0.366547,0.582404,-0.856005,0.052825,0.0139644,0.105038,-0.0054501,-0.00145286,0.00847014,0.595105,5,0.1,7,1.1,0.964321,3.3268,0.624996,0.313805,-0.456119,-0.0563343,-0.345819,0.585645,-0.0672527,0.00789974,0.484384,5,0.1,8,1.1,3.85478,3.72977,0.716487,-0.678414,-0.222061,0.0265959,0.0698566,0.0228882,-0.00273064,0.0133577,0.391702,5,0.1,9,1.1,3.71449,2.44687,0.573266,-0.567156,0.439072,0.02122,0.0586361,-0.0452101,-0.00219792,0.0117505,0.395119,5,0.1
0,1.2,1.26199,3.11982,0.717322,-0.683966,-0.732642,0.0275224,0.256896,0.275254,-0.0103414,0.00882164,0.956765,5,0.1,1,1.2,1.66467,1.17259,0.716077,-0.691199,0.149435,0.0285804,0.154138,-0.0561476,-0.0107288,0.020478,0.127636,5,0.1,2,1.2,-1.88139,2.85569,0.605922,0.0685483,-0.510162,-0.00498444,-0.0257492,0.19145,0.00190735,0.00825763,0.257798,5,0.1,3,1.2,0.908855,3.89019,0.565042,0.866026,-0.476342,0.0160158,0,0.00560284,-0.000178814,0.0169447,2.13037,5,0.1,4,1.2,-0.961327,-0.0531976,0.500001,0.383642,0.762785,-1.93715e-05,-0.0393093,0.322956,0.000238419,0.00990242,2.24769,5,0.1,5,1.2,-3.62201,-2.12692,0.717534,0.397563,0.401717,0.0273496,-0.14925,-0.151157,-0.0103116,0.00828009,0.170946,5,0.1,6,1.2,0.717386,-0.361312,0.583788,-0.836195,0.0516459,0.013651,0.31358,-0.0194013,-0.0050962,0.00978292,0.401347,5,0.1,7,1.2,0.994062,3.28434,0.619051,0.281641,-0.391346,-0.062196,-0.307798,0.696421,-0.0460744,0.00766173,0.384145,5,0.1,8,1.2,3.78754,3.70776,0.719123,-0.663286,-0.21711,0.0260025,0.249028,0.0814199,-0.00974536,0.00996813,0.260469,5,0.1,9,1.2,3.65828,2.49038,0.575369,-0.554484,0.429279,0.0207454,0.208259,-0.161171,-0.00777841,0.0116684,0.262732,5,0.1
0,1.3,1.1967,3.04862,0.720256,-0.605813,-0.685021,0.0330962,1.20956,0.654519,0.106186,0.00882164,0.956765,5,0.1,1,1.3,1.59658,1.18726,0.718883,-0.667715,0.143884,0.0275193,0.321828,-0.0595003,-0.011377,0.020478,0.127636,5,0.1,2,1.3,-1.87467,2.80545,0.605433,0.066003,-0.495678,-0.00479668,-0.0272766,0.123948,0.00200421,0.00825763,0.257798,5,0.1,3,1.3,0.995457,3.84245,0.566647,0.866026,-0.479147,0.0161107,0,-0.0342876,0.00115111,0.0169447,2.13037,5,0.1,4,1.3,-0.923082,0.0251392,0.5,0.381526,0.806607,-2.04891e-06,-0.0219792,0.484578,0.000111759,0.00990242,2.24769,5,0.1,5,1.3,-3.58299,-2.08749,0.720218,0.382808,0.38678,0.0263309,-0.158206,-0.160068,-0.0109151,0.00828009,0.170946,5,0.1,6,1.3,0.635275,-0.356242,0.585129,-0.805916,0.0497279,0.0131465,0.319615,-0.0205655,-0.00541657,0.00978292,0.401347,5,0.1,7,1.3,1.02102,3.24806,0.61268,0.260243,-0.339625,-0.0644684,-0.142984,0.371888,-0.000447035,0.00766173,0.384145,5,0.1,8,1.3,3.72243,3.68645,0.721675,-0.638669,-0.209058,0.025039,0.263944,0.0863522,-0.010334,0.00996813,0.260469,5,0.1,9,1.3,3.60385,2.53252,0.577405,-0.533896,0.413343,0.019976,0.220761,-0.170872,-0.00825152,0.0116684,0.262732,5,0.1
0,1.4,1.14308,2.98386,0.724183,-0.459456,-0.606036,0.0459939,1.64014,0.905156,0.139773,0.00702294,0.276964,5,0.1,1,1.4,1.53173,1.20131,0.721571,-0.625986,0.136763,0.0261575,0.514805,-0.0860095,-0.0164509,0.0107058,0.256944,5,0.1,2,1.4,-1.86822,2.75657,0.604965,0.0627369,-0.48098,-0.00455827,-0.0394583,0.188112,0.00289083,0.00919435,0.183658,5,0.1,3,1.4,1.08206,3.79448,0.56826,0.866026,-0.478536,0.0160903,-5.96046e-05,0.0656843,-0.00223517,0.016203,2.13272,5,0.1,4,1.4,-0.885138,0.108033,0.5,0.376035,0.848148,4.47035e-06,-0.10094,0.299613,2.98023e-05,0.00979171,2.20061,5,0.1,5,1.4,-3.54559,-2.04971,0.72279,0.363863,0.367624,0.0250265,-0.228643,-0.231147,-0.0157654,0.00873629,0.112524,5,0.1,6,1.4,0.556475,-0.351385,0.586413,-0.767669,0.0472665,0.0124991,0.463784,-0.0297278,-0.00786781,0.0103234,0.267137,5,0.1,7,1.4,1.04645,3.21565,0.606299,0.249043,-0.310957,-0.0625148,-0.0981092,0.22769,0.0382662,0.00613676,0.293163,5,0.1,8,1.4,3.66004,3.66603,0.724121,-0.607067,-0.198716,0.0238016,0.38147,0.124812,-0.0149608,0.010325,0.896679,5,0.1,9,1.4,3.5517,2.5729,0.579356,-0.507474,0.39289,0.0189885,0.319123,-0.247002,-0.0119209,0.0132068,0.278179,5,0.1
0,1.5,1.10522,2.92742,0.729679,-0.299655,-0.525826,0.0654107,1.53159,0.718534,0.22988,0.00702294,0.276964,5,0.1,1,1.5,1.47145,1.21458,0.724108,-0.581738,0.128559,0.024588,0.396073,-0.0819564,-0.0156835,0.0107058,0.256944,5,0.1,2,1.5,-1.86213,2.7093,0.604523,0.0589738,-0.46507,-0.00428325,-0.0375882,0.1508,0.00274554,0.00919435,0.183658,5,0.1,3,1.5,1.16866,3.74679,0.569863,0.866025,-0.476107,0.0160059,1.49012e-05,0.0101924,-0.000365078,0.016203,2.13272,5,0.1,4,1.5,-0.847931,0.193849,0.500001,0.368707,0.864184,5.40167e-06,-0.0643954,0.0591785,-7.45058e-06,0.00979171,2.20061,5,0.1,5,1.5,-3.51031,-2.01406,0.725217,0.34205,0.345576,0.0235233,-0.217944,-0.220254,-0.0150092,0.00873629,0.112524,5,0.1,6,1.5,0.481925,-0.346801,0.587625,-0.723759,0.0444308,0.0117485,0.437362,-0.028329,-0.00749156,0.0103234,0.267137,5,0.1,7,1.5,1.07103,3.18536,0.60027,0.243956,-0.297453,-0.0577722,-0.0214875,0.0687838,0.0559613,0.00613676,0.293163,5,0.1,8,1.5,3.60055,3.64676,0.72643,-0.588458,-0.186807,0.0223747,0.0474602,0.118986,-0.0142604,0.010325,0.896679,5,0.1,9,1.5,3.50233,2.611,0.581198,-0.481479,0.369327,0.0178512,0.225082,-0.235409,-0.0113696,0.0132068,0.278179,5,0.1
0,1.6,1.08257,2.87825,0.737391,-0.157297,-0.458938,0.0887036,1.29837,0.633597,0.221997,0.00546634,0.219459,5,0.1,1,1.6,1.41523,1.227,0.726484,-0.542328,0.119722,0.0228986,0.410616,-0.0973344,-0.0186563,0.0114449,0.226558,5,0.1,2,1.6,-1.85643,2.66362,0.604109,0.0549197,-0.447321,-0.00398904,-0.0446439,0.218749,0.00324845,0.0113388,0.127928,5,0.1,3,1.6,1.25526,3.69932,0.571459,0.866026,-0.471848,0.0158608,0,0.0942945,-0.00318885,0.0124023,2.14053,5,0.1,4,1.6,-0.811448,0.280407,0.500001,0.359964,0.866026,4.47035e-06,-0.12362,0,-2.98023e-05,0.00992227,2.20298,5,0.1,5,1.6,-3.47724,-1.98065,0.727491,0.318551,0.321826,0.0219047,-0.259042,-0.261664,-0.017792,0.00984763,0.143645,5,0.1,6,1.6,0.411845,-0.342506,0.588761,-0.676354,0.0413768,0.0109404,0.526235,-0.0336468,-0.00891089,0.00781109,0.176984,5,0.1,7,1.6,1.09533,3.15587,0.594797,0.241661,-0.292599,-0.0514537,-0.0373721,0.0479221,0.0696778,0.00678146,0.221266,5,0.1,8,1.6,3.54177,3.6287,0.728592,-0.587666,-0.173974,0.0208378,0.0106096,0.141382,-0.0169575,0.0101766,0.7089,5,0.1,9,1.6,3.45532,2.6467,0.582924,-0.4583,0.343949,0.0166252,0.256062,-0.279903,-0.0135303,0.0108707,0.322645,5,0.1
0,1.7,1.07255,2.83505,0.747453,-0.0503099,-0.408916,0.112943,0.856988,0.395656,0.247229,0.00546634,0.219459,5,0.1,1,1.7,1.36349,1.23851,0.728685,-0.488606,0.110597,0.0211501,0.645354,-0.0884309,-0.0169463,0.0114449,0.226558,5,0.1,2,1.7,-1.85115,2.61989,0.603725,0.0507347,-0.427692,-0.00368496,-0.040561,0.19066,0.0029467,0.0113388,0.127928,5,0.1,3,1.7,1.34187,3.65246,0.57303,0.866026,-0.466277,0.0155606,0,0.0425577,-0.00342354,0.0124023,2.14053,5,0.1,4,1.7,-0.775984,0.36701,0.500002,0.349736,0.866026,1.58325e-06,-0.0969134,-3.57628e-06,-2.6077e-05,0.00992227,2.20298,5,0.1,5,1.7,-3.44647,-1.94971,0.729596,0.298711,0.297297,0.0202366,-0.156328,-0.237733,-0.0161715,0.00984763,0.143645,5,0.1,6,1.7,0.346709,-0.338529,0.589812,-0.627164,0.0382225,0.0101051,0.476798,-0.0305679,-0.00808761,0.00781109,0.176984,5,0.1,7,1.7,1.1194,3.12669,0.590004,0.240211,-0.292227,-0.044377,-0.00572205,-0.0198483,0.0715405,0.00678146,0.221266,5,0.1,8,1.7,3.48319,3.61198,0.730595,-0.582216,-0.160718,0.0192484,0.113115,0.128493,-0.0154004,0.0101766,0.7089,5,0.1,9,1.7,3.41063,2.67976,0.584522,-0.43627,0.31771,0.015357,0.20358,-0.254244,-0.0122897,0.0108707,0.322645,5,0.1
0,1.8,1.07119,2.79594,0.75992,0.0170976,-0.374746,0.135472,0.505447,0.309348,0.192165,0.00549162,0.21266,5,0.1,1,1.8,1.31811,1.24912,0.730714,-0.41669,0.101483,0.0194058,0.777185,-0.0959635,-0.0184178,0.0118208,0.577002,5,0.1,2,1.8,-1.84629,2.57814,0.603372,0.0465542,-0.406349,-0.00338107,-0.0439882,0.247836,0.00318885,0.0118697,0.192783,5,0.1,3,1.8,1.42847,3.60613,0.574565,0.866026,-0.458992,0.015074,0,0.120878,-0.00670552,0.0114807,2.14332,5,0.1,4,1.8,-0.741558,0.453612,0.500002,0.337878,0.866025,-1.49012e-06,-0.151336,1.43051e-05,0,0.0108118,1.81738,5,0.1,5,1.8,-3.41733,-1.92119,0.731538,0.284064,0.272804,0.0185698,-0.150084,-0.258148,-0.0175536,0.00937535,0.179913,5,0.1,6,1.8,0.286423,-0.334862,0.590782,-0.577759,0.0350729,0.0092715,0.524395,-0.0331998,-0.00876188,0.00724174,0.11738,5,0.1,7,1.8,1.14335,3.09739,0.585924,0.238115,-0.293022,-0.0372097,-0.0461936,0.0189543,0.0715256,0.00729882,0.162016,5,0.1,8,1.8,3.4258,3.59656,0.732442,-0.56268,-0.147474,0.0176623,0.286222,0.139475,-0.0167489,0.00989149,0.676458,5,0.1,9,1.8,3.36806,2.71024,0.585995,-0.414342,0.291514,0.0140905,0.248194,-0.27585,-0.0133514,0.0109074,0.291312,5,0.1
0,1.9,1.0748,2.75968,0.774476,0.049578,-0.353071,0.155761,0.167429,0.1508,0.19918,0.00549162,0.21266,5,0.1,1,1.9,1.28046,1.25882,0.732568,-0.335463,0.0925912,0.0176999,0.831686,-0.0846311,-0.0162236,0.0118208,0.577002,5,0.1,2,1.9,-1.84182,2.539,0.603047,0.043099,-0.374116,-0.00313111,-0.0277907,0.38974,0.00200421,0.0118697,0.192783,5,0.1,3,1.9,1.51507,3.56062,0.576044,0.866026,-0.452669,0.0145426,0,0.0338703,-0.00464916,0.0114807,2.14332,5,0.1,4,1.9,-0.708453,0.540215,0.500002,0.324612,0.866026,-1.58325e-06,-0.127528,-1.93715e-06,-3.72529e-06,0.0108118,1.81738,5,0.1,5,1.9,-3.38931,-1.895,0.733321,0.279157,0.252525,0.0171909,0.0220984,-0.163078,-0.0110865,0.00937535,0.179913,5,0.1,6,1.9,0.231125,-0.331511,0.591667,-0.529218,0.031997,0.00845976,0.462583,-0.0292696,-0.00772625,0.00724174,0.11738,5,0.1,7,1.9,1.16698,3.0681,0.582552,0.2347,-0.293174,-0.0303349,-0.0333264,-0.00567734,0.0658557,0.00729882,0.162016,5,0.1,8,1.9,3.37158,3.58247,0.734129,-0.51604,-0.13455,0.0161109,0.621065,0.123024,-0.0147559,0.00989149,0.676458,5,0.1,9,1.9,3.32826,2.73809,0.587341,-0.378159,0.265957,0.0128538,0.459716,-0.243217,-0.0117607,0.0109074,0.291312,5,0.1
0,2,1.0802,2.72505,0.790963,0.0548333,-0.339949,0.17285,-0.0430346,0.131369,0.132382,0.00588834,0.196751,5,0.1,1,2,1.25105,1.26765,0.734257,-0.253141,0.0840902,0.0160709,0.802577,-0.0872612,-0.0166893,0.0103669,0.575116,5,0.1,2,2,-1.83764,2.50372,0.602743,0.0405341,-0.329787,-0.00294596,-0.0254512,0.48995,0.00181794,0.0117179,0.187044,5,0.1,3,2,1.60168,3.51557,0.577474,0.866026,-0.447363,0.014019,0,0.0923872,-0.00631809,0.0119729,2.14814,5,0.1,4,2,-0.676681,0.626817,0.500001,0.310081,0.866026,-1.49012e-06,-0.172436,0,-2.98023e-05,0.0124645,2.2367,5,0.1,5,2,-3.3612,-1.87052,0.734988,0.283277,0.237477,0.0161678,0.0380278,-0.149429,-0.0101924,0.00810182,0.150344,5,0.1,6,2,0.180522,-0.328458,0.592475,-0.48251,0.029058,0.00768304,0.482761,-0.0301898,-0.00795722,0.00857438,0.134661,5,0.1,7,2,1.19023,3.03883,0.579837,0.229546,-0.291383,-0.0240594,-0.0776052,0.0529289,0.0595152,0.00877487,0.198411,5,0.1,8,2,3.32346,3.56963,0.735666,-0.443184,-0.122195,0.01463,0.814199,0.126958,-0.0151992,0.0111978,0.441062,5,0.1,9,2,3.29298,2.76347,0.588568,-0.325328,0.241524,0.0116721,0.583291,-0.250697,-0.0121295,0.00897266,0.275542,5,0.1
0,2.1,1.08514,2.6915,0.808979,0.0412077,-0.33245,0.187757,-0.209555,0.0414699,0.150338,0.00588834,0.196751,5,0.1,1,2.1,1.22961,1.27565,0.735785,-0.177309,0.0760769,0.0145389,0.706531,-0.0753179,-0.014402,0.0103669,0.575116,5,0.1,2,2.1,-1.8337,2.47336,0.602457,0.0383703,-0.275952,-0.00279155,-0.0195727,0.574201,0.00139326,0.0117179,0.187044,5,0.1,3,2.1,1.68828,3.4711,0.57885,0.866026,-0.443346,0.0135411,0,0.0154525,-0.00397116,0.0119729,2.14814,5,0.1,4,2.1,-0.645822,0.713418,0.500043,0.312893,0.865945,0.00118716,0.176564,-0.00322238,0.0211559,0.0124645,2.2367,5,0.1,5,2.1,-3.33284,-1.84753,0.736553,0.28241,0.222109,0.0151199,-0.058189,-0.162207,-0.0110604,0.00810182,0.150344,5,0.1,6,2.1,0.134312,-0.325681,0.593209,-0.44468,0.0266689,0.00705319,0.302112,-0.0192635,-0.00507757,0.00857438,0.134661,5,0.1,7,2.1,1.21299,3.00968,0.577717,0.227199,-0.293678,-0.0184692,0.0112578,-0.0711232,0.052195,0.00877487,0.198411,5,0.1,8,2.1,3.28339,3.55801,0.737058,-0.356859,-0.110539,0.0132348,0.893235,0.109568,-0.0131056,0.0111978,0.441062,5,0.1,9,2.1,3.26349,2.78644,0.589678,-0.26353,0.218505,0.0105585,0.639603,-0.21638,-0.0104643,0.00897266,0.275542,5,0.1
0,2.2,1.08807,2.65847,0.828432,0.0164747,-0.327718,0.200287,-0.269413,0.0696182,0.089407,0.00842264,0.417963,5,0.1,1,2.2,1.21521,1.28289,0.737168,-0.113046,0.0686318,0.013116,0.574231,-0.0752211,-0.0143945,0.0122649,0.568743,5,0.1,2,2.2,-1.82996,2.44869,0.602185,0.0363201,-0.217223,-0.00264347,-0.0227094,0.590444,0.00160933,0.00800349,0.185829,5,0.1,3,2.2,1.77488,3.4269,0.580183,0.866026,-0.43956,0.0130996,0,0.0798702,-0.00536442,0.00976118,1.58803,5,0.1,4,2.2,-0.613426,0.799971,0.500284,0.33623,0.864735,0.00375807,0.250667,-0.0257194,0.0282526,0.0119347,2.18748,5,0.1,5,2.2,-3.30507,-1.82617,0.738006,0.271273,0.204352,0.0139102,-0.165224,-0.195563,-0.0133216,0.0104648,0.266821,5,0.1,6,2.2,0.0912465,-0.323103,0.593891,-0.417176,0.0249162,0.00659078,0.268822,-0.017032,-0.00447035,0.00837663,0.574605,5,0.1,7,2.2,1.23578,2.97993,0.576118,0.228441,-0.300807,-0.0136375,-0.000536442,-0.0511408,0.0444353,0.0088345,0.121008,5,0.1,8,2.2,3.25217,3.54749,0.738317,-0.267923,-0.0997126,0.0119388,0.870585,0.109434,-0.0130832,0.0100208,0.438539,5,0.1,9,2.2,3.24034,2.80722,0.590682,-0.199747,0.197119,0.00952482,0.625968,-0.216126,-0.0104606,0.010228,0.27302,5,0.1
0,2.3,1.08788,2.62605,0.848623,-0.0242967,-0.320324,0.200853,-0.507295,0.0889152,-0.0708066,0.00842264,0.417963,5,0.1,1,2.3,1.20656,1.2894,0.738412,-0.0620889,0.0617746,0.0118043,0.439547,-0.0638813,-0.0122115,0.0122649,0.568743,5,0.1,2,2.3,-1.82644,2.42988,0.601928,0.0341902,-0.159593,-0.00249194,-0.0210181,0.553951,0.00150129,0.00800349,0.185829,5,0.1,3,2.3,1.86148,3.38333,0.581471,0.865863,-0.431563,0.0127048,-0.00650436,0.0960231,-0.00322983,0.00976118,1.58803,5,0.1,4,2.3,-0.578169,0.886437,0.500819,0.371567,0.865218,0.00705803,0.410974,0.0133589,0.0356175,0.0119347,2.18748,5,0.1,5,2.3,-3.27905,-1.80662,0.739338,0.246519,0.187572,0.0127674,-0.318021,-0.148594,-0.0101216,0.0104648,0.266821,5,0.1,6,2.3,0.050413,-0.320227,0.594527,-0.403132,0.0365319,0.00613853,0.049528,0.219245,-0.00470132,0.00837663,0.574605,5,0.1,7,2.3,1.25868,2.94953,0.574964,0.229662,-0.307467,-0.00957176,0.0123829,-0.0641197,0.0368655,0.0088345,0.121008,5,0.1,8,2.3,3.2296,3.53803,0.739449,-0.185218,-0.0897385,0.0107463,0.772551,0.092864,-0.0111051,0.0100208,0.438539,5,0.1,9,2.3,3.2234,2.82601,0.59159,-0.140186,0.180028,0.00869799,0.558123,-0.137195,-0.00663847,0.010228,0.27302,5,0.1
0,2.4,1.08278,2.59457,0.86814,-0.0781536,-0.30818,0.187527,-0.540197,0.161052,-0.188977,0.00881134,0.328065,5,0.1,1,2.4,1.2023,1.29526,0.739533,-0.0258267,0.0555247,0.0106096,0.284076,-0.0624657,-0.0119805,0.0120637,0.789468,5,0.1,2,2.4,-1.82313,2.41658,0.601687,0.0319272,-0.107807,-0.00233054,-0.0249147,0.476003,0.00184774,0.00708772,0.274944,5,0.1,3,2.4,1.94798,3.34078,0.582725,0.863427,-0.417691,0.0123352,-0.0520349,0.192046,-0.00467896,0.00894665,1.18954,5,0.1,4,2.4,-0.538997,0.972976,0.501701,0.410613,0.864924,0.0105128,0.336945,-0.0219643,0.0319183,0.0126834,2.20119,5,0.1,5,2.4,-3.25616,-1.78858,0.740565,0.209862,0.173157,0.0117853,-0.405192,-0.145972,-0.00992417,0.00997067,0.256491,5,0.1,6,2.4,0.0102383,-0.315292,0.595117,-0.400732,0.0634216,0.00563264,0.0263703,0.295192,-0.00554323,0.00828338,0.448515,5,0.1,7,2.4,1.28164,2.91856,0.574179,0.228783,-0.310582,-0.00626445,-0.0386834,0.0141859,0.0292957,0.00932759,0.0672149,5,0.1,8,2.4,3.21471,3.52952,0.740469,-0.115162,-0.080651,0.00966042,0.622153,0.0909567,-0.0108778,0.0102591,0.433767,5,0.1,9,2.4,3.21201,2.84338,0.592429,-0.0892699,0.167686,0.00810176,0.455737,-0.118494,-0.00575185,0.0098832,0.262193,5,0.1
0,2.5,1.07211,2.56453,0.885843,-0.135981,-0.292548,0.165601,-0.587188,0.160486,-0.24464,0.00881134,0.328065,5,0.1,1,2.5,1.20102,1.30052,0.740538,-0.00153054,0.0498636,0.00952464,0.178866,-0.052385,-0.0100359,0.0120637,0.789468,5,0.1,2,2.5,-1.82005,2.40801,0.601462,0.0296991,-0.065241,-0.0021656,-0.0208467,0.372291,0.00153854,0.00708772,0.274944,5,0.1,3,2.5,2.03429,3.29994,0.583938,0.863821,-0.399269,0.0119517,0.0181049,0.189573,-0.00355393,0.00894665,1.18954,5,0.1,4,2.5,-0.496795,1.05946,0.502918,0.428211,0.865325,0.0138516,0.0233687,0.0104718,0.0330582,0.0126834,2.20119,5,0.1,5,2.5,-3.23728,-1.77195,0.741697,0.166997,0.159889,0.0108832,-0.442088,-0.124998,-0.00850111,0.00997067,0.256491,5,0.1,6,2.5,-0.0299261,-0.307297,0.595653,-0.404032,0.0976761,0.00510067,-0.0631064,0.367189,-0.00520051,0.00828338,0.448515,5,0.1,7,2.5,1.30432,2.88759,0.573688,0.224646,-0.308472,-0.00365656,-0.0519678,0.0392497,0.0228956,0.00932759,0.0672149,5,0.1,8,2.5,3.206,3.52188,0.741385,-0.0619724,-0.0724114,0.0086749,0.442207,0.0762045,-0.00911206,0.0102591,0.433767,5,0.1,9,2.5,3.20516,2.85956,0.593211,-0.0498679,0.155842,0.0075276,0.332221,-0.121668,-0.00588968,0.0098832,0.262193,5,0.1
0,2.6,1.0557,2.53613,0.901122,-0.190562,-0.274616,0.139512,-0.483215,0.204325,-0.27293,0.0103312,0.249909,5,0.1,1,2.6,1.20145,1.30525,0.741441,0.006935,0.044769,0.00855029,-0.0166297,-0.0506639,-0.00971556,0.0102702,1.00106,5,0.1,2,2.6,-1.81718,2.40316,0.601254,0.0275582,-0.0336945,-0.00200868,-0.0228286,0.258207,0.00169873,0.0072868,0.272543,5,0.1,3,2.6,2.1206,3.26104,0.585113,0.860274,-0.377572,0.0115305,-0.115156,0.253081,-0.00527501,0.00868939,0.863024,5,0.1,4,2.6,-0.454315,1.146,0.504458,0.417012,0.864714,0.016816,-0.238448,-0.0261664,0.0249445,0.0135828,2.29848,5,0.1,5,2.6,-3.22279,-1.75659,0.742743,0.123209,0.147203,0.0100195,-0.426054,-0.13262,-0.0090003,0.00820066,0.255777,5,0.1,6,2.6,-0.0705957,-0.295728,0.596137,-0.408323,0.132915,0.00457466,-0.00168383,0.320867,-0.00542402,0.00898832,0.624597,5,0.1,7,2.6,1.32645,2.85705,0.573426,0.21708,-0.300872,-0.00167489,-0.104547,0.120282,0.0167787,0.0104425,0.0467996,5,0.1,8,2.6,3.20172,3.51501,0.742208,-0.0263274,-0.0650048,0.00778884,0.274062,0.0737906,-0.00882149,0.00891205,0.423217,5,0.1,9,2.6,3.20163,2.87451,0.593933,-0.0226557,0.142819,0.00689775,0.213981,-0.140786,-0.00679493,0.0110991,0.425254,5,0.1
0,2.7,1.03423,2.50969,0.913701,-0.238299,-0.25423,0.112072,-0.44921,0.208542,-0.272643,0.0103312,0.249909,5,0.1,1,2.7,1.20186,1.30949,0.742251,-0.00219196,0.0401998,0.00767494,-0.218824,-0.0420883,-0.0080578,0.0102702,1.00106,5,0.1,2,2.7,-1.8145,2.40089,0.601061,0.0263875,-0.0135291,-0.00184448,-0.00353903,0.14852,0.0016354,0.0072868,0.272543,5,0.1,3,2.7,2.20626,3.22449,0.586243,0.853791,-0.353711,0.0110638,-0.0582933,0.235125,-0.00451133,0.00868939,0.863024,5,0.1,4,2.7,-0.414399,1.23246,0.506268,0.376306,0.865188,0.0193608,-0.539321,0.012435,0.0243224,0.0135828,2.29848,5,0.1,5,2.7,-3.21251,-1.74254,0.743699,0.0832032,0.133644,0.00909884,-0.369385,-0.13984,-0.00949949,0.00820066,0.255777,5,0.1,6,2.7,-0.1117,-0.281143,0.596569,-0.415551,0.155799,0.00406718,-0.109889,0.14131,-0.0048168,0.00898832,0.624597,5,0.1,7,2.7,1.34768,2.82752,0.573335,0.207595,-0.289962,-0.000220817,-0.0935495,0.109896,0.012327,0.0104425,0.0467996,5,0.1,8,2.7,3.20028,3.50885,0.742945,-0.00442453,-0.0583526,0.0069933,0.163808,0.0612289,-0.00732392,0.00891205,0.423217,5,0.1,9,2.7,3.20033,2.88811,0.594589,-0.00471286,0.129366,0.00624871,0.141665,-0.131145,-0.00632182,0.0110991,0.425254,5,0.1
0,2.8,1.00836,2.48535,0.923568,-0.276628,-0.232077,0.0855595,-0.301927,0.237584,-0.255078,0.00974392,0.187874,5,0.1,1,2.8,1.2,1.31331,0.742979,-0.04026,0.0361174,0.00689477,-0.523865,-0.0405312,-0.0077486,0.00925364,3.16367,5,0.1,2,2.8,-1.81187,2.40013,0.600885,0.0263333,-0.00317097,-0.00167489,0.000238419,0.0634193,0.00178814,0.00766433,0.267798,5,0.1,3,2.8,2.29115,3.19034,0.587325,0.841188,-0.328702,0.0105515,-0.224352,0.272512,-0.00604987,0.00830064,0.680399,5,0.1,4,2.8,-0.379719,1.31898,0.508313,0.31547,0.864449,0.0214055,-0.65051,-0.0314713,0.0154078,0.0114606,2.59047,5,0.1,5,2.8,-3.20592,-1.72989,0.74456,0.0500679,0.119042,0.00810623,-0.290751,-0.152826,-0.010401,0.00790604,0.499235,5,0.1,6,2.8,-0.153761,-0.265121,0.596952,-0.424619,0.162107,0.00359416,-0.0476396,-0.0103265,-0.00470877,0.00787867,1.27257,5,0.1,7,2.8,1.36793,2.79914,0.573368,0.196961,-0.276893,0.000795722,-0.124693,0.159502,0.00813603,0.0116613,0.0195534,5,0.1,8,2.8,3.20048,3.50331,0.743609,0.00658631,-0.0524163,0.00628382,0.0585318,0.0587702,-0.00703335,0.00856938,0.616823,5,0.1,9,2.8,3.20043,2.90039,0.595183,0.00529885,0.11611,0.0056088,0.0580549,-0.136018,-0.00655651,0.0105185,1.16999,5,0.1
0,2.9,0.97923,2.46349,0.930883,-0.305041,-0.203688,0.0611662,-0.248872,0.322029,-0.230659,0.00974392,0.187874,5,0.1,1,2.9,1.19176,1.31689,0.743633,-0.137462,0.0369204,0.00619907,-1.302,0.0455752,-0.00638515,0.00925364,3.16367,5,0.1,2,2.9,-1.80926,2.40012,0.600726,0.0256378,0.00284538,-0.0014985,-0.0136942,0.0513792,0.00175834,0.00766433,0.267798,5,0.1,3,2.9,2.37415,3.15861,0.588352,0.818122,-0.307758,0.0100003,-0.260562,0.165492,-0.00534579,0.00830064,0.680399,5,0.1,4,2.9,-0.351609,1.40423,0.510534,0.246131,0.831096,0.0230093,-0.68799,-0.592709,0.0151321,0.0114606,2.59047,5,0.1,5,2.9,-3.2023,-1.71871,0.745322,0.0231046,0.105087,0.00715647,-0.238553,-0.129357,-0.00879914,0.00790604,0.499235,5,0.1,6,2.9,-0.196894,-0.249264,0.597289,-0.441184,0.152367,0.00316072,-0.237965,-0.170625,-0.00404567,0.00787867,1.27257,5,0.1,7,2.9,1.387,2.77226,0.573483,0.184273,-0.260418,0.00144821,-0.133142,0.175774,0.00497699,0.0116613,0.0195534,5,0.1,8,2.9,3.20141,3.49834,0.744205,0.0113849,-0.0471368,0.00565173,0.0165552,0.0484884,-0.00580028,0.00856938,0.616823,5,0.1,9,2.9,3.20132,2.91135,0.595712,0.012508,0.103409,0.00499636,0.0500381,-0.120521,-0.00581145,0.0105185,1.16999,5,0.1
0,3,0.947686,2.44481,0.935902,-0.323489,-0.169164,0.0397891,-0.108451,0.361443,-0.195444,0.0102232,0.193222,5,0.1,1,3,1.17102,1.32088,0.744222,-0.279787,0.0432819,0.00558197,-1.454,0.0732541,-0.00616908,0.00925198,2.7966,5,0.1,2,3,-1.80678,2.40061,0.600585,0.0236899,0.00627637,-0.00131875,-0.0248551,0.0141859,0.00178814,0.00715465,0.252165,5,0.1,3,3,2.45444,3.12861,0.589324,0.785065,-0.292295,0.00941902,-0.417113,0.157833,-0.0064671,0.0102597,0.498562,5,0.1,4,3,-0.330198,1.48373,0.5129,0.185131,0.753561,0.0241697,-0.507683,-0.924349,0.00703335,0.0113848,2.8789,5,0.1,5,3,-3.20104,-1.70883,0.745995,0.00385642,0.0926435,0.00630915,-0.141501,-0.121713,-0.00831485,0.00751176,0.618835,5,0.1,6,3,-0.242208,-0.235051,0.597585,-0.464289,0.130487,0.00277162,-0.190623,-0.255756,-0.00378489,0.00863737,2.1916,5,0.1,7,3,1.40472,2.74716,0.573647,0.169674,-0.240809,0.00180304,-0.16135,0.219941,0.00217557,0.0103142,0.01075,5,0.1,8,3,3.20244,3.49387,0.744742,0.00708699,-0.0424385,0.00508875,-0.109434,0.0466108,-0.00557303,0.00873908,1.09095,5,0.1,9,3,3.2026,2.9211,0.596183,0.0102103,0.0915766,0.00442713,-0.110745,-0.117779,-0.00572205,0.0103389,3.63989,5,0.1
0,3.1,0.914562,2.42972,0.938918,-0.340502,-0.13261,0.020759,-0.200666,0.36405,-0.181645,0.0102232,0.193222,5,0.1,1,3.1,1.13519,1.32582,0.74475,-0.440328,0.0576457,0.00498472,-1.6645,0.194184,-0.00585988,0.00925198,2.7966,5,0.1,2,3.1,-1.80455,2.40136,0.600462,0.0208227,0.00873953,-0.00114329,-0.0318214,0.0117719,0.00172853,0.00715465,0.252165,5,0.1,3,3.1,2.53031,3.10004,0.590235,0.728841,-0.280087,0.0088241,-0.63771,0.101537,-0.00573695,0.0102597,0.498562,5,0.1,4,3.1,-0.313933,1.55378,0.515357,0.144716,0.6429,0.0249803,-0.243336,-1.20176,0.007689,0.0113848,2.8789,5,0.1,5,3.1,-3.20128,-1.70016,0.746585,-0.00746176,0.0808617,0.00550486,-0.0660419,-0.114776,-0.00783056,0.00751176,0.618835,5,0.1,6,3.1,-0.290014,-0.223485,0.597928,-0.494763,0.0994372,0.00478355,-0.367745,-0.339922,0.0387169,0.00863737,2.1916,5,0.1,7,3.1,1.42089,2.72417,0.573835,0.153794,-0.219028,0.00192644,-0.159375,0.220105,0.000353903,0.0103142,0.01075,5,0.1,8,3.1,3.20254,3.48984,0.745225,-0.0075426,-0.0382602,0.004589,-0.251219,0.038296,-0.00458956,0.00873908,1.09095,5,0.1,9,3.1,3.20299,2.92965,0.5966,-0.0059668,0.0791401,0.00393679,-0.317529,-0.129551,-0.00426546,0.0103389,3.63989,5,0.1
0,3.2,0.879566,2.41825,0.940132,-0.358261,-0.0973463,0.00405461,-0.132084,0.337005,-0.149906,0.00991864,0.162916,5,0.1,1,3.2,1.08311,1.33262,0.745219,-0.596723,0.0786334,0.00439733,-1.39612,0.210404,-0.00593066,0.00991807,0.268426,5,0.1,2,3.2,-1.80264,2.40215,0.600356,0.0174463,0.0053823,-0.000971556,-0.0351667,-0.0879765,0.00166893,0.00705022,0.213535,5,0.1,3,3.2,2.6,3.07254,0.591088,0.665271,-0.269377,0.00822097,-0.625968,0.123382,-0.00652671,0.0104628,0.425491,5,0.1,4,3.2,-0.3,1.61216,0.517885,0.140468,0.526759,0.0254557,0.141129,-1.07259,0.000834465,0.0108052,2.96322,5,0.1,5,3.2,-3.20212,-1.69264,0.747097,-0.00691414,0.0695527,0.00473261,0.0823736,-0.112057,-0.00759959,0.00733219,1.09353,5,0.1,6,3.2,-0.341277,-0.215214,0.598634,-0.529002,0.0666846,0.00957102,-0.279769,-0.298642,0.0529289,0.00826286,1.95402,5,0.1,7,3.2,1.43546,2.70339,0.574027,0.137305,-0.196099,0.00188649,-0.172198,0.24116,-0.00113249,0.0100359,0.00320626,5,0.1,8,3.2,3.2,3.4862,0.745661,-0.0484705,-0.0345409,0.00414401,-0.552297,0.0369549,-0.00444055,0.00912135,1.56875,5,0.1,9,3.2,3.2,2.9369,0.596974,-0.0617146,0.0659287,0.00354052,-0.776768,-0.133634,-0.00375509,0.0132713,3.47897,5,0.1
0,3.3,0.843058,2.41013,0.939825,-0.371615,-0.0658266,-0.0097719,-0.115078,0.289947,-0.124525,0.00991864,0.162916,5,0.1,1,3.3,1.01769,1.34129,0.745632,-0.699573,0.0923045,0.00388483,-0.672385,0.0692904,-0.00448897,0.00991807,0.268426,5,0.1,2,3.3,-1.80107,2.40214,0.600267,0.013895,-0.00770129,-0.000810437,-0.0353754,-0.207767,0.00155717,0.00705022,0.213535,5,0.1,3,3.3,2.66301,3.04615,0.591876,0.591616,-0.2588,0.00751773,-0.830501,0.0994802,-0.00756606,0.0104628,0.425491,5,0.1,4,3.3,-0.284416,1.65973,0.520441,0.177944,0.430302,0.02568,0.545986,-0.75233,0.0022389,0.0108052,2.96322,5,0.1,5,3.3,-3.20232,-1.68622,0.747534,0.00578575,0.0590382,0.0040194,0.238225,-0.0990853,-0.00672787,0.00733219,1.09353,5,0.1,6,3.3,-0.395736,-0.210043,0.599887,-0.56077,0.0377052,0.0157142,-0.315812,-0.243155,0.0659376,0.00826286,1.95402,5,0.1,7,3.3,1.44834,2.68498,0.574209,0.120207,-0.172059,0.0017249,-0.170566,0.240743,-0.00203028,0.0100359,0.00320626,5,0.1,8,3.3,3.1914,3.48292,0.746055,-0.131255,-0.0312328,0.00374625,-1.02232,0.0303388,-0.00364706,0.00912135,1.56875,5,0.1,9,3.3,3.19016,2.94341,0.597316,-0.132572,0.0690788,0.00335565,-0.62789,0.161469,-0.000398606,0.0132713,3.47897,5,0.1
0,3.4,0.805482,2.4049,0.938281,-0.377931,-0.0398874,-0.0205114,0.00226498,0.226974,-0.0889003,0.00959219,0.109392,5,0.1,1,3.4,0.945485,1.35068,0.745999,-0.733823,0.0936925,0.00346899,-0.0273287,-0.0359416,-0.00393391,0.00932426,2.39817,5,0.1,2,3.4,-1.79985,2.4,0.600194,0.0104606,-0.0381827,-0.000660121,-0.033021,-0.388026,0.00140071,0.0084402,0.152145,5,0.1,3,3.4,2.7178,3.02081,0.592588,0.502282,-0.247568,0.00670552,-0.941277,0.133276,-0.00864267,0.0110229,0.369332,5,0.1,4,3.4,-0.263646,1.7,0.523013,0.238667,0.384882,0.0256628,0.620887,-0.174344,-0.00354648,0.00987869,2.76347,5,0.1,5,3.4,-3.2,-1.6808,0.747903,0.0458181,0.0495851,0.0033766,0.546932,-0.0904799,-0.00613928,0.00989159,1.94268,5,0.1,6,3.4,-0.453185,-0.207171,0.601783,-0.585391,0.0233371,0.0220641,-0.148654,-0.0291541,0.0580847,0.00811037,1.68974,5,0.1,7,3.4,1.4595,2.66899,0.57437,0.10308,-0.147808,0.00149161,-0.172198,0.244617,-0.002563,0.00963795,0.00116624,5,0.1,8,3.4,3.17294,3.47994,0.746412,-0.238669,-0.0282764,0.0033915,-1.06418,0.0294447,-0.00351667,0.0103103,1.2745,5,0.1,9,3.4,3.17409,2.95137,0.597652,-0.185275,0.091964,0.00338256,-0.418425,0.269055,0.000566244,0.0137322,3.52405,5,0.1
0,3.5,0.767746,2.40193,0.935823,-0.376017,-0.0207182,-0.028233,0.0482947,0.156805,-0.0643805,0.00959219,0.109392,5,0.1,1,3.5,0.871013,1.36013,0.746327,-0.762841,0.0975685,0.00310671,-0.462767,0.0940636,-0.00339746,0.00932426,2.39817,5,0.1,2,3.5,-1.79897,2.3939,0.600135,0.00730809,-0.0863023,-0.000527222,-0.0297204,-0.538051,0.00125542,0.0084402,0.152145,5,0.1,3,3.5,2.76343,2.9968,0.593216,0.411396,-0.231817,0.00586472,-0.874519,0.182509,-0.00822544,0.0110229,0.369332,5,0.1,4,3.5,-0.236327,1.73892,0.525568,0.309911,0.404125,0.0254705,0.753575,0.467055,-0.0016354,0.00987869,2.76347,5,0.1,5,3.5,-3.19153,-1.67626,0.748212,0.13274,0.0412693,0.00281194,1.10033,-0.0766441,-0.00521168,0.00989159,1.94268,5,0.1,6,3.5,-0.512523,-0.204708,0.604286,-0.601131,0.0301593,0.0279843,-0.134703,0.217182,0.0572614,0.00811037,1.68974,5,0.1,7,3.5,1.46896,2.65541,0.574506,0.0862546,-0.123853,0.00122041,-0.164077,0.234112,-0.00280887,0.00963795,0.00116624,5,0.1,8,3.5,3.14345,3.47725,0.746735,-0.352707,-0.0256408,0.00307653,-1.15526,0.0242144,-0.00289828,0.0103103,1.2745,5,0.1,9,3.5,3.15364,2.96228,0.597998,-0.221984,0.128912,0.00358615,-0.305846,0.435024,0.00301749,0.0137322,3.52405,5,0.1
0,3.6,0.730543,2.40053,0.932726,-0.366262,-0.00833869,-0.0332117,0.154704,0.092268,-0.0346005,0.00696886,0.210829,5,0.1,1,3.6,0.792306,1.37044,0.746621,-0.810659,0.109091,0.0027746,-0.42668,0.121653,-0.00330806,0.00963013,2.28314,5,0.1,2,3.6,-1.79838,2.38258,0.600088,0.0045687,-0.139493,-0.000408292,-0.0249147,-0.498772,0.00107288,0.00962966,0.0921589,5,0.1,3,3.6,2.80032,2.97461,0.593762,0.32773,-0.211,0.00505149,-0.797033,0.233293,-0.00810623,0.00885563,0.584148,5,0.1,4,3.6,-0.20169,1.7821,0.528101,0.380661,0.462046,0.0251114,0.62462,0.621021,-0.00652671,0.00986733,2.47294,5,0.1,5,3.6,-3.17246,-1.6725,0.748468,0.249815,0.0341147,0.00232607,1.17171,-0.0669956,-0.00455976,0.00859108,2.34524,5,0.1,6,3.6,-0.573076,-0.2,0.607349,-0.607033,0.0696674,0.0329971,0.0381768,0.550345,0.040859,0.00994231,1.38514,5,0.1,7,3.6,1.47678,2.64418,0.574614,0.0703126,-0.101072,0.000941753,-0.154316,0.221014,-0.00277162,0.00729523,0.00086118,5,0.1,8,3.6,3.10266,3.4748,0.747028,-0.459164,-0.0232756,0.00279397,-0.929832,0.0237226,-0.00286102,0.0102747,0.164304,5,0.1,9,3.6,3.13016,2.97738,0.598373,-0.244862,0.172877,0.00390261,-0.145793,0.417948,0.00289083,0.0130306,3.45336,5,0.1
0,3.7,0.694732,2.40008,0.929261,-0.349345,-0.00140704,-0.0357898,0.190992,0.0485629,-0.0163913,0.00696886,0.210829,5,0.1,1,3.7,0.709256,1.38209,0.746884,-0.848009,0.12489,0.00248197,-0.288866,0.177726,-0.00264496,0.00963013,2.28314,5,0.1,2,3.7,-1.79804,2.36615,0.600052,0.00229012,-0.188451,-0.000308175,-0.0205114,-0.459388,0.000927597,0.00962966,0.0921589,5,0.1,3,3.7,2.8282,2.95488,0.594211,0.222543,-0.18191,0.00378825,-1.23774,0.337034,-0.0160933,0.00885563,0.584148,5,0.1,4,3.7,-0.160368,1.83202,0.530587,0.446008,0.54052,0.0246449,0.639722,0.872545,-0.00406429,0.00986733,2.47294,5,0.1,5,3.7,-3.14094,-1.6694,0.74868,0.385141,0.0280598,0.00191377,1.44614,-0.0548139,-0.00373647,0.00859108,2.34524,5,0.1,6,3.7,-0.633624,-0.189562,0.61085,-0.603622,0.144631,0.0369315,0.0553429,0.883961,0.0354536,0.00994231,1.38514,5,0.1,7,3.7,1.48306,2.63514,0.574694,0.0555642,-0.0799224,0.000671018,-0.14016,0.201195,-0.00260398,0.00729523,0.00086118,5,0.1,8,3.7,3.05287,3.47259,0.747295,-0.528902,-0.0211511,0.00253776,-0.467241,0.0195354,-0.00235811,0.0102747,0.164304,5,0.1,9,3.7,3.10478,2.99714,0.598776,-0.263991,0.224881,0.00413638,-0.221729,0.569537,0.00157207,0.0130306,3.45336,5,0.1
0,3.8,0.660861,2.40012,0.925634,-0.326885,0.00178218,-0.0364125,0.262618,0.0171661,0.00417233,0.00640859,0.412814,5,0.1,1,3.8,0.623417,1.39545,0.747119,-0.864448,0.141761,0.0022307,-0.0315607,0.147521,-0.0025034,0.0117259,2.25352,5,0.1,2,3.8,-1.7979,2.34521,0.600026,0.000488758,-0.227845,-0.000223517,-0.0154376,-0.314236,0.00077486,0.00854859,0.122867,5,0.1,3,3.8,2.84401,2.93847,0.594503,0.0924051,-0.145668,0.00202209,-1.31202,0.378251,-0.0184476,0.00975743,0.355728,5,0.1,4,3.8,-0.11283,1.89034,0.533026,0.501337,0.623408,0.0240833,0.436801,0.729501,-0.00804663,0.00849812,2.26416,5,0.1,5,3.8,-3.09534,-1.66686,0.748853,0.523657,0.0230223,0.00157058,1.25909,-0.0463724,-0.00315905,0.00763507,0.522474,5,0.1,6,3.8,-0.693512,-0.170569,0.614695,-0.591727,0.235064,0.0396892,0.199646,0.875711,0.0181198,0.0130511,1.07768,5,0.1,7,3.8,1.48795,2.62812,0.574749,0.042367,-0.0609636,0.000427663,-0.123441,0.177622,-0.00220537,0.00777868,0.000746155,5,0.1,8,3.8,2.99839,3.47057,0.747537,-0.553429,-0.0192344,0.0023067,-0.0293255,0.0193119,-0.00229478,0.0120314,0.0854999,5,0.1,9,3.8,3.07726,3.02238,0.599194,-0.286359,0.277877,0.00418425,-0.212312,0.454187,-0.000685453,0.0123866,3.31431,5,0.1
0,3.9,0.629497,2.40045,0.92203,-0.300157,0.0052847,-0.035471,0.27632,0.0415742,0.0149049,0.00640859,0.412814,5,0.1,1,3.9,0.536875,1.41044,0.747331,-0.865927,0.158368,0.00201743,-0.00394151,0.169769,-0.00185519,0.0117259,2.25352,5,0.1,2,3.9,-1.79792,2.3208,0.600007,-0.000831485,-0.260416,-0.000153296,-0.0109822,-0.314683,0.000625849,0.00854859,0.122867,5,0.1,3,3.9,2.84669,2.92571,0.594606,-0.0379674,-0.110279,-9.31323e-08,-1.25855,0.328943,-0.0210814,0.00975743,0.355728,5,0.1,4,3.9,-0.0607908,1.95647,0.535318,0.536259,0.699332,0.0210889,0.245858,0.732541,-0.0477284,0.00849812,2.26416,5,0.1,5,3.9,-3.03733,-1.66477,0.748996,0.629609,0.0188943,0.00128904,0.841603,-0.036791,-0.00250712,0.00763507,0.522474,5,0.1,6,3.9,-0.751737,-0.142475,0.618751,-0.572722,0.327625,0.0413334,0.20114,0.926271,0.0128821,0.0130511,1.07768,5,0.1,7,3.9,1.49159,2.62287,0.574781,0.0308573,-0.0443924,0.000222307,-0.106364,0.153229,-0.00188127,0.00777868,0.000746155,5,0.1,8,3.9,2.94313,3.46872,0.747758,-0.549329,-0.0177953,0.00213534,0.120178,0.0107437,-0.0012815,0.0120314,0.0854999,5,0.1,9,3.9,3.04679,3.05174,0.599565,-0.328949,0.302908,0.00286922,-0.573084,0.0653863,-0.0229999,0.0123866,3.31431,5,0.1
0,4,0.600914,2.40116,0.918577,-0.270934,0.00829697,-0.0334054,0.31063,0.0119209,0.0264943,0.0065304,0.348886,5,0.1,1,4,0.450275,1.42706,0.747524,-0.866025,0.173166,0.00184327,-1.43051e-05,0.115633,-0.00169873,0.0128291,2.24562,5,0.1,2,4,-1.79806,2.29333,0.599995,-0.00171661,-0.286955,-9.68575e-05,-0.00673532,-0.200272,0.000476837,0.0113284,0.195625,5,0.1,3,4,2.83693,2.91624,0.594503,-0.153005,-0.0799656,-0.00203699,-1.01638,0.277042,-0.0189543,0.00713849,0.34489,5,0.1,4,4,-0.00635479,2.02969,0.537151,0.548024,0.760323,0.0152767,-0.0196481,0.44775,-0.0652373,0.00846254,2.15192,5,0.1,5,4,-2.97097,-1.66305,0.749113,0.689232,0.0155568,0.00106096,0.341773,-0.0305176,-0.00205636,0.00925683,0.124387,5,0.1,6,4,-0.807863,-0.10533,0.622927,-0.548042,0.411866,0.0419512,0.306398,0.723239,-0.00178814,0.0116314,0.802212,5,0.1,7,4,1.49418,2.61916,0.574795,0.0211537,-0.0304043,5.51343e-05,-0.0875592,0.126123,-0.00146031,0.00935817,0.000514092,5,0.1,8,4,2.8891,3.46699,0.747966,-0.528079,-0.0168562,0.00202358,0.30911,0.0089407,-0.00107288,0.0109897,2.26791,5,0.1,9,4,3.01088,3.08185,0.599718,-0.389349,0.294542,5.06639e-05,-0.58496,-0.21565,-0.0312924,0.0107217,3.00011,5,0.1
0,4.1,0.575388,2.40203,0.915379,-0.239412,0.00867583,-0.030445,0.32023,-0.0186116,0.0325851,0.0065304,0.348886,5,0.1,1,4.1,0.363672,1.44509,0.747701,-0.866025,0.188248,0.00169445,1.78814e-06,0.167154,-0.00134856,0.0128291,2.24562,5,0.1,2,4.1,-1.79826,2.26342,0.599987,-0.00224244,-0.312756,-5.48549e-05,-0.00382215,-0.284061,0.000368804,0.0113284,0.195625,5,0.1,3,4.1,2.81697,2.90955,0.594203,-0.241715,-0.0548635,-0.0039516,-0.747174,0.224903,-0.0185966,0.00713849,0.34489,5,0.1,4,4.1,0.0482984,2.10822,0.538284,0.544062,0.811199,0.00684522,-0.077658,0.509426,-0.0976995,0.00846254,2.15192,5,0.1,5,4.1,-2.90101,-1.66164,0.74921,0.70348,0.0128808,0.000880379,-0.052616,-0.0235066,-0.0015907,0.00925683,0.124387,5,0.1,6,4.1,-0.861208,-0.0605364,0.627112,-0.519136,0.482949,0.0416914,0.288852,0.660493,-0.00493973,0.0116314,0.802212,5,0.1,7,4.1,1.49588,2.61671,0.574793,0.0132222,-0.0189733,-7.34814e-05,-0.0709146,0.102267,-0.00109896,0.00935817,0.000514092,5,0.1,8,4.1,2.83647,3.46535,0.748163,-0.535694,-0.0159368,0.00191312,-0.363469,0.00983477,-0.00118464,0.0109897,2.26791,5,0.1,9,4.1,2.96846,3.10984,0.599532,-0.463096,0.261912,-0.00403458,-0.820786,-0.417829,-0.0472851,0.0107217,3.00011,5,0.1
0,4.2,0.553066,2.40267,0.912507,-0.206868,0.00270009,-0.0269234,0.330478,-0.1055,0.0376999,0.00760258,0.729939,5,0.1,1,4.2,0.27707,1.46471,0.747863,-0.866025,0.203347,0.00156164,0,0.121176,-0.00137091,0.0104255,2.23798,5,0.1,2,4.2,-1.7985,2.2308,0.599983,-0.00249147,-0.338316,-2.23517e-05,-0.00113249,-0.204325,0.000238419,0.0119461,0.119656,5,0.1,3,4.2,2.78958,2.9051,0.59372,-0.300843,-0.034976,-0.00562817,-0.430107,0.173211,-0.0143945,0.00514098,0.411238,5,0.1,4,4.2,0.102101,2.19159,0.538465,0.529519,0.852025,-0.0032559,-0.224859,0.265479,-0.100046,0.00848849,2.11186,5,0.1,5,4.2,-2.83154,-1.66046,0.74929,0.679833,0.0107646,0.000736117,-0.413299,-0.0192523,-0.0012815,0.00826934,0.320001,5,0.1,6,4.2,-0.911592,-0.00929752,0.631241,-0.487405,0.537563,0.040707,0.35733,0.405724,-0.0157058,0.00975231,0.570109,5,0.1,7,4.2,1.49688,2.61528,0.574781,0.00698566,-0.00997782,-0.000165403,-0.0538826,0.0776052,-0.000685453,0.00668355,0.000268569,5,0.1,8,4.2,2.78064,3.46381,0.748348,-0.583524,-0.0148296,0.00178069,-0.51856,0.012517,-0.00151992,0.00820752,0.500776,5,0.1,9,4.2,2.91812,3.13374,0.598887,-0.541514,0.214452,-0.00885725,-0.696659,-0.51558,-0.0467598,0.0134233,2.68651,5,0.1
0,4.3,0.533988,2.40241,0.910002,-0.175112,-0.00971369,-0.0231806,0.305593,-0.202432,0.0371411,0.00760258,0.729939,5,0.1,1,4.3,0.190467,1.48574,0.748013,-0.866025,0.217641,0.00144644,-5.96046e-07,0.14738,-0.0010021,0.0104255,2.23798,5,0.1,2,4.3,-1.79875,2.19594,0.599982,-0.00252295,-0.358354,-1.95578e-06,0.000469387,-0.176221,0.000175089,0.0119461,0.119656,5,0.1,3,4.3,2.7578,2.90238,0.593089,-0.330432,-0.0201534,-0.0069458,-0.164911,0.123993,-0.0115186,0.00514098,0.411238,5,0.1,4,4.3,0.154439,2.27762,0.537756,0.521174,0.864908,-0.00987053,0.0114207,0.0361949,-0.0364184,0.00848849,2.11186,5,0.1,5,4.3,-2.7654,-1.65947,0.749358,0.644392,0.00910182,0.000625104,-0.324011,-0.0144318,-0.000968575,0.00826934,0.320001,5,0.1,6,4.3,-0.958637,0.0464248,0.635235,-0.454022,0.575484,0.0391609,0.324626,0.322818,-0.016477,0.00975231,0.570109,5,0.1,7,4.3,1.49733,2.61464,0.574762,0.00229347,-0.0032153,-0.000220165,-0.040032,0.0577122,-0.000409782,0.00668355,0.000268569,5,0.1,8,4.3,2.72087,3.46278,0.748874,-0.601028,-0.00249594,0.0117247,0.13338,0.209808,0.177775,0.00820752,0.500776,5,0.1,9,4.3,2.85982,3.15223,0.597815,-0.628896,0.152294,-0.0121453,-0.9664,-0.697911,-0.0202022,0.0134233,2.68651,5,0.1
0,4.4,0.517969,2.4,0.907869,-0.145598,-0.042665,-0.0195026,0.285268,-0.445843,0.0363588,0.00713376,1.7074,5,0.1,1,4.4,0.103865,1.50816,0.748153,-0.866026,0.229859,0.00135005,3.57628e-06,0.0846982,-0.00104308,0.0106116,2.18494,5,0.1,2,4.4,-1.79899,2.1594,0.599983,-0.00240803,-0.370169,1.19209e-05,0.00184774,-0.0464916,8.9407e-05,0.0100362,0.182736,5,0.1,3,4.4,2.72434,2.90091,0.592345,-0.334626,-0.0099957,-0.00786036,0.0764132,0.0802279,-0.00649691,0.00798743,0.479502,5,0.1,4,4.4,0.20669,2.36416,0.536663,0.523715,0.865054,-0.0113055,0.00507355,-0.0195503,0.00426173,0.00885422,2.09421,5,0.1,5,4.4,-2.70263,-1.65863,0.749416,0.610185,0.00780821,0.000537932,-0.380397,-0.0118613,-0.000804663,0.00924862,1.04535,5,0.1,6,4.4,-1.00238,0.105251,0.639059,-0.420076,0.597144,0.0371993,0.364006,0.0904274,-0.0235438,0.00844769,0.390878,5,0.1,7,4.4,1.49738,2.61457,0.574738,-0.00104308,0.0015974,-0.000247359,-0.0268221,0.0386238,-0.000149012,0.00685238,0.000105254,5,0.1,8,4.4,2.66227,3.46374,0.751077,-0.563467,0.0228047,0.033319,0.586867,0.277162,0.236541,0.00654828,0.346567,5,0.1,9,4.4,2.79223,3.16387,0.596535,-0.720155,0.0801623,-0.0131264,-0.796914,-0.721455,-0.000506639,0.0143309,2.43392,5,0.1
0,4.5,0.503988,2.39327,0.906094,-0.141201,-0.0935402,-0.0160455,-0.146763,-0.546023,0.032831,0.00713376,1.7074,5,0.1,1,4.5,0.0174783,1.53163,0.748284,-0.858994,0.239762,0.00126502,0.161576,0.0977442,-0.000726432,0.0106116,2.18494,5,0.1,2,4.5,-1.79922,2.12194,0.599984,-0.00217985,-0.380521,1.90921e-05,0.00265986,-0.130475,5.58794e-05,0.0100362,0.182736,5,0.1,3,4.5,2.6916,2.90026,0.591532,-0.317231,-0.00346452,-0.00833897,0.261456,0.0510514,-0.00290945,0.00798743,0.479502,5,0.1,4,4.5,0.259296,2.45066,0.535612,0.529622,0.865341,-0.00922885,0.0798476,0.00670552,0.0339448,0.00885422,2.09421,5,0.1,5,4.5,-2.64272,-1.6579,0.749466,0.59427,0.00679791,0.000469107,-0.000581145,-0.00867248,-0.000592321,0.00924862,1.04535,5,0.1,6,4.5,-1.04266,0.165377,0.642666,-0.38636,0.604359,0.0349563,0.322267,0.0298069,-0.0223741,0.00844769,0.390878,5,0.1,7,4.5,1.49716,2.6149,0.574713,-0.0032166,0.00472926,-0.000252947,-0.0168458,0.0243038,3.72529e-05,0.00685238,0.000105254,5,0.1,8,4.5,2.60911,3.46721,0.755739,-0.497428,0.0449412,0.0609087,0.722393,0.173151,0.29733,0.00654828,0.346567,5,0.1,9,4.5,2.71629,3.16792,0.595241,-0.796756,-0.00158399,-0.0125422,-0.684887,-0.872254,0.011351,0.0143309,2.43392,5,0.1
0,4.6,0.488764,2.3812,0.904648,-0.165959,-0.147295,-0.0129282,-0.309065,-0.509024,0.0295639,0.00660924,1.83358,5,0.1,1,4.6,-0.0672088,1.55602,0.748407,-0.830373,0.246751,0.00119507,0.423275,0.0311136,-0.00077486,0.00937259,2.08668,5,0.1,2,4.6,-1.79943,2.0833,0.599986,-0.00188649,-0.391096,2.23517e-05,0.00315905,-0.0596046,2.98023e-05,0.0111182,0.108266,5,0.1,3,4.6,2.66141,2.90013,0.59069,-0.284249,0.000351667,-0.00841916,0.389099,0.0259876,0.00140071,0.0103679,0.531465,5,0.1,4,4.6,0.312557,2.53716,0.534885,0.533981,0.863838,-0.00511259,-0.0165105,-0.0437498,0.0457466,0.00835376,1.92473,5,0.1,5,4.6,-2.58309,-1.65726,0.74951,0.59911,0.00601113,0.000414252,0.0506639,-0.00727177,-0.000476837,0.00763022,2.5731,5,0.1,6,4.6,-1.07968,0.225702,0.646045,-0.353596,0.599113,0.0325471,0.341177,-0.150598,-0.0265241,0.0108116,0.261892,5,0.1,7,4.6,1.49677,2.61547,0.574688,-0.00445843,0.00651479,-0.000242889,-0.00810623,0.0118017,0.000208616,0.00700753,3.21541e-05,5,0.1,8,4.6,2.56312,3.47245,0.763295,-0.421149,0.0586927,0.0896677,0.79298,0.10705,0.264674,0.00924881,3.19873,5,0.1,9,4.6,2.6337,3.16344,0.594058,-0.849229,-0.0870943,-0.011012,-0.335932,-0.806928,0.018537,0.0130049,2.28639,5,0.1
0,4.7,0.470269,2.36445,0.903496,-0.206499,-0.183618,-0.0101908,-0.46335,-0.259236,0.0252686,0.00660924,1.83358,5,0.1,1,4.7,-0.147177,1.58075,0.748523,-0.760513,0.24674,0.00113025,0.932255,-0.0358224,-0.000573695,0.00937259,2.08668,5,0.1,2,4.7,-1.7996,2.04386,0.599989,-0.00155084,-0.397312,2.41213e-05,0.00348687,-0.0454932,1.11759e-05,0.0111182,0.108266,5,0.1,3,4.7,2.63526,2.90037,0.589858,-0.236268,0.00493489,-0.0081908,0.549704,0.0529438,0.00327826,0.0103679,0.531465,5,0.1,4,4.7,0.365242,2.62352,0.534625,0.514467,0.864275,8.49366e-05,-0.333233,0.0187755,0.0555664,0.00835376,1.92473,5,0.1,5,4.7,-2.52176,-1.65669,0.74955,0.636705,0.00537112,0.000371784,0.602022,-0.00575185,-0.00038743,0.00763022,2.5731,5,0.1,6,4.7,-1.11343,0.284867,0.649173,-0.322229,0.583746,0.0300622,0.296205,-0.176495,-0.0240654,0.0108116,0.261892,5,0.1,7,4.7,1.4963,2.61617,0.574665,-0.00495128,0.00723414,-0.000217743,-0.00201166,0.00296533,0.000290573,0.00700753,3.21541e-05,5,0.1,8,4.7,2.52338,3.47799,0.773298,-0.387123,0.0448365,0.10768,-0.0196397,-0.335529,0.102043,0.00924881,3.19873,5,0.1,9,4.7,2.54774,3.15061,0.593056,-0.864976,-0.169387,-0.00897376,-0.0419915,-0.805706,0.0216849,0.0130049,2.28639,5,0.1
0,4.8,0.447308,2.34495,0.902596,-0.251951,-0.205398,-0.00786036,-0.417247,-0.196934,0.0214279,0.00689775,1.59238,5,0.1,1,4.8,-0.218013,1.6051,0.748633,-0.651557,0.238907,0.00107139,1.21218,-0.123143,-0.000655651,0.0101062,2.02491,5,0.1,2,4.8,-1.79974,2.00406,0.599991,-0.00120103,-0.396973,2.38419e-05,0.00339746,0.0652075,-2.98023e-05,0.00843021,0.544248,5,0.1,3,4.8,2.6145,2.90109,0.589059,-0.178051,0.00892282,-0.00774562,0.598073,0.0190735,0.00569224,0.0130098,0.505722,5,0.1,4,4.8,0.414756,2.70994,0.53491,0.473804,0.862604,0.00553727,-0.455856,-0.0684261,0.0515282,0.00771305,1.49361,5,0.1,5,4.8,-2.45484,-1.65618,0.749585,0.702155,0.00482798,0.000335276,0.632524,-0.00536442,-0.00038743,0.00743909,0.183818,5,0.1,6,4.8,-1.14418,0.342185,0.652057,-0.292647,0.560533,0.0275835,0.302374,-0.300796,-0.026077,0.00977144,0.173446,5,0.1,7,4.8,1.4958,2.61689,0.574645,-0.00490844,0.0071764,-0.000187755,0.002563,-0.00369549,0.000357628,0.00675819,1.18584e-05,5,0.1,8,4.8,2.48386,3.4804,0.784352,-0.408584,0.000286102,0.111327,-0.337481,-0.51713,-0.0231266,0.0096607,2.84296,5,0.1,9,4.8,2.46116,3.12987,0.592268,-0.866026,-0.242543,-0.00677258,0,-0.633717,0.0219345,0.0108899,2.21135,5,0.1
0,4.9,0.419921,2.3236,0.901911,-0.296076,-0.221883,-0.005918,-0.435833,-0.209168,0.0175089,0.00689775,1.59238,5,0.1,1,4.9,-0.27669,1.62811,0.748737,-0.51913,0.21877,0.00101449,1.38566,-0.268333,-0.000525266,0.0101062,2.02491,5,0.1,2,4.9,-1.79969,1.96423,0.599993,0.0035543,-0.403127,2.08616e-05,0.0818372,-0.145465,-2.98023e-05,0.00843021,0.544248,5,0.1,3,4.9,2.59968,2.90215,0.588332,-0.118669,0.0129696,-0.00664266,0.579342,0.0561327,0.0153221,0.0130098,0.505722,5,0.1,4,4.9,0.459655,2.79613,0.535724,0.424022,0.862847,0.010732,-0.472149,0.0233054,0.0503808,0.00771305,1.49361,5,0.1,5,4.9,-2.38227,-1.65572,0.749617,0.741168,0.00438336,0.000302959,0.15159,-0.00376254,-0.000279397,0.00743909,0.183818,5,0.1,6,4.9,-1.17203,0.396786,0.654692,-0.265025,0.531572,0.0251682,0.25849,-0.294896,-0.0229776,0.00977144,0.173446,5,0.1,7,4.9,1.49533,2.61758,0.574628,-0.00449102,0.00657327,-0.000151619,0.00553578,-0.00803173,0.000365078,0.00675819,1.18584e-05,5,0.1,8,4.9,2.44041,3.47723,0.795211,-0.46734,-0.0685968,0.104426,-0.753924,-0.805706,-0.108652,0.0096607,2.84296,5,0.1,9,4.9,2.37456,3.10244,0.5917,-0.866026,-0.305213,-0.00460753,0,-0.590578,0.0210144,0.0108899,2.21135,5,0.1
0,5,0.388302,2.3,0.901401,-0.334092,-0.253719,-0.0043422,-0.303671,-0.416279,0.0140965,0.0083804,1.31281,5,0.1,1,5,-0.321726,1.64848,0.748836,-0.383021,0.18732,0.000958145,1.30129,-0.351071,-0.000596046,0.00807124,1.91617,5,0.1,2,5,-1.79886,1.92313,0.599995,0.013414,-0.418618,1.63913e-05,0.107586,-0.132501,0,0.00760375,0.418773,5,0.1,3,5,2.59061,2.90375,0.587753,-0.0639677,0.0191331,-0.00486821,0.507116,0.0627041,0.0193119,0.00967379,0.490029,5,0.1,4,5,0.5,2.88235,0.537034,0.386055,0.85876,0.0152752,-0.28801,-0.140548,0.0390112,0.0107454,1.12528,5,0.1,5,5,-2.30816,-1.6553,0.749646,0.733608,0.00403523,0.000277162,-0.295401,-0.00345707,-0.000268221,0.00782242,0.778767,5,0.1,6,5,-1.19725,0.448369,0.657094,-0.239515,0.49881,0.0228599,0.257671,-0.371307,-0.0237226,0.00740726,0.114529,5,0.1,7,5,1.49491,2.6182,0.574614,-0.0038445,0.00563264,-0.000116229,0.00715256,-0.0103712,0.000327826,0.00988179,9.54103e-06,5,0.1,8,5,2.38978,3.46623,0.805012,-0.544751,-0.151223,0.0907511,-0.731707,-0.805616,-0.159532,0.00974768,2.528,5,0.1,9,5,2.28796,3.06924,0.59134,-0.866026,-0.355732,-0.00263304,0,-0.399709,0.018239,0.011753,2.21219,5,0.1
0,5.1,0.353369,2.27192,0.901032,-0.364032,-0.312588,-0.00309078,-0.272183,-0.698686,0.0110082,0.0083804,1.31281,5,0.1,1,5.1,-0.353691,1.66538,0.748929,-0.259378,0.150196,0.000905059,1.1177,-0.383161,-0.000506639,0.00807124,1.91617,5,0.1,2,5.1,-1.79692,1.8804,0.599997,0.0257,-0.436974,1.59256e-05,0.130698,-0.201322,-1.11759e-05,0.00760375,0.418773,5,0.1,3,5.1,2.58644,2.90585,0.587369,-0.0223026,0.0216447,-0.00278046,0.338197,-0.00694394,0.0216849,0.00967379,0.490029,5,0.1,4,5.1,0.5377,2.96768,0.538752,0.372249,0.848395,0.0190073,-0.0284538,-0.106692,0.034105,0.0107454,1.12528,5,0.1,5,5.1,-2.23583,-1.65491,0.749672,0.716284,0.0037482,0.000254717,-0.0996739,-0.00248104,-0.00019744,0.00782242,0.778767,5,0.1,6,5.1,-1.22,0.496476,0.659269,-0.216107,0.463807,0.0206825,0.217557,-0.342576,-0.020463,0.00740726,0.114529,5,0.1,7,5.1,1.49456,2.61871,0.574604,-0.0030797,0.00452325,-8.4471e-05,0.00794232,-0.0115633,0.000301749,0.00988179,9.54103e-06,5,0.1,8,5.1,2.33131,3.44697,0.813265,-0.626364,-0.234239,0.0741345,-0.835225,-0.816897,-0.170011,0.00974768,2.528,5,0.1,9,5.1,2.20139,3.03204,0.591172,-0.864695,-0.384276,-0.000725593,0.0442713,-0.168681,0.0192486,0.011753,2.21219,5,0.1
0,5.2,0.31581,2.23712,0.900773,-0.384667,-0.38256,-0.00212491,-0.124812,-0.654101,0.00843406,0.00994816,1.01672,5,0.1,1,5.2,-0.374669,1.67849,0.749017,-0.167137,0.112146,0.000850856,0.704452,-0.371516,-0.000596046,0.00938801,1.77656,5,0.1,2,5.2,-1.79371,1.83581,0.599999,0.0382632,-0.45318,1.3411e-05,0.115156,-0.0991225,0,0.0107144,0.309811,5,0.1,3,5.2,2.5857,2.9079,0.587198,0.00572801,0.0187516,-0.000666082,0.23067,-0.0464916,0.0200272,0.0105667,0.463836,5,0.1,4,5.2,0.574938,3.05178,0.540805,0.373301,0.830674,0.0218406,0.0191629,-0.275254,0.0214875,0.0106168,0.816742,5,0.1,5,5.2,-2.1647,-1.65455,0.749697,0.70529,0.00350773,0.000236928,-0.15533,-0.0025034,-0.000208616,0.00830477,2.46793,5,0.1,6,5.2,-1.24054,0.5411,0.661236,-0.1948,0.427976,0.0186592,0.213623,-0.383407,-0.0204146,0.00761356,0.130194,5,0.1,7,5.2,1.49429,2.6191,0.574597,-0.00228584,0.00336766,-5.66244e-05,0.007689,-0.0112057,0.000268221,0.00991708,8.75727e-06,5,0.1,8,5.2,2.26477,3.4197,0.819831,-0.700581,-0.308132,0.0572473,-0.602484,-0.633955,-0.165492,0.00979519,2.32279,5,0.1,9,5.2,2.11539,2.99317,0.591192,-0.851905,-0.389266,0.00110269,0.246525,0.0683069,0.0167787,0.014646,2.42198,5,0.1
0,5.3,0.276734,2.1954,0.900599,-0.396247,-0.452726,-0.00139447,-0.0885325,-0.701427,0.00624731,0.00994816,1.01672,5,0.1,1,5.3,-0.388487,1.68792,0.749099,-0.117155,0.0773249,0.00079684,0.237251,-0.322856,-0.00051409,0.00938801,1.77656,5,0.1,2,5.3,-1.7893,1.78992,0.6,0.0499267,-0.464847,1.29454e-05,0.112459,-0.107996,-1.11759e-05,0.0107144,0.309811,5,0.1,3,5.3,2.58717,2.90949,0.587231,0.0218585,0.0125818,0.00131447,0.119627,-0.0728369,0.0190213,0.0105667,0.463836,5,0.1,4,5.3,0.612615,3.13359,0.543092,0.381943,0.805913,0.0238035,0.12235,-0.252336,0.0165701,0.0106168,0.816742,5,0.1,5,5.3,-2.09379,-1.65421,0.749719,0.722161,0.00325385,0.000216439,0.395969,-0.00264496,-0.000201166,0.00830477,2.46793,5,0.1,6,5.3,-1.25912,0.582284,0.663015,-0.17818,0.398096,0.0170462,0.13075,-0.238925,-0.0129417,0.00761356,0.130194,5,0.1,7,5.3,1.4941,2.61938,0.574593,-0.00153277,0.00226907,-3.20375e-05,0.00723451,-0.0105649,0.000223517,0.00991708,8.75727e-06,5,0.1,8,5.3,2.1916,3.38597,0.824792,-0.762469,-0.363347,0.042577,-0.582635,-0.455067,-0.129174,0.00979519,2.32279,5,0.1,9,5.3,2.03168,2.95518,0.591399,-0.819348,-0.365236,0.00312263,0.415057,0.388324,0.0222735,0.014646,2.42198,5,0.1
0,5.4,0.236848,2.14686,0.900487,-0.399325,-0.514662,-0.000864267,0.0391757,-0.503302,0.00447035,0.00717467,0.750661,5,0.1,1,5.4,-0.4,1.69414,0.749176,-0.122382,0.0479102,0.000742078,-0.310794,-0.264227,-0.000566244,0.0085535,0.914504,5,0.1,2,5.4,-1.78379,1.74305,0.600001,0.0597954,-0.47034,1.04308e-05,0.0808239,0.0163317,2.98023e-05,0.00839934,0.220378,5,0.1,3,5.4,2.58994,2.91037,0.587452,0.033778,0.00491142,0.00303984,0.132561,-0.0773668,0.0151098,0.00888827,0.424436,5,0.1,4,5.4,0.651381,3.21274,0.545539,0.392371,0.774759,0.0249565,0.0635982,-0.392556,0.00566244,0.0101374,0.579152,5,0.1,5,5.4,-2.01933,-1.6539,0.74974,0.767559,0.00297129,0.000196695,0.439465,-0.00309944,-0.000238419,0.00802422,2.33264,5,0.1,6,5.4,-1.27634,0.620971,0.66466,-0.166559,0.375906,0.0158817,0.110447,-0.223011,-0.0111461,0.00749473,0.0752674,5,0.1,7,5.4,1.49398,2.61956,0.574591,-0.000861287,0.00128746,-1.19209e-05,0.00619888,-0.0089407,0.000178814,0.0100976,6.22415e-06,5,0.1,8,5.4,2.11283,3.34776,0.828455,-0.808197,-0.396711,0.0311777,-0.295281,-0.203252,-0.0998974,0.00958739,2.24833,5,0.1,9,5.4,1.95217,2.92096,0.591823,-0.767356,-0.31603,0.0053212,0.629723,0.575781,0.0207126,0.0136778,2.71646,5,0.1
0,5.5,0.197111,2.09286,0.900421,-0.39506,-0.564655,-0.000490621,0.0609569,-0.459358,0.00305474,0.00717467,0.750661,5,0.1,1,5.5,-0.414534,1.69768,0.749248,-0.174146,0.0238009,0.000690017,-0.663344,-0.216618,-0.000495464,0.0085535,0.914504,5,0.1,2,5.5,-1.77741,1.69606,0.600002,0.0675466,-0.469457,1.22003e-05,0.0698119,0.0223294,1.11759e-05,0.00839934,0.220378,5,0.1,3,5.5,2.59397,2.91047,0.587829,0.0480536,-0.00304244,0.00446811,0.191405,-0.0789613,0.0130236,0.00888827,0.424436,5,0.1,4,5.5,0.691047,3.28837,0.54806,0.401421,0.738408,0.0254032,0.092797,-0.360966,0.0022985,0.0101374,0.579152,5,0.1,5,5.5,-1.94017,-1.65337,0.7497,0.816264,0.00962354,-0.00147317,0.477374,0.120655,-0.0295043,0.00802422,2.33264,5,0.1,6,5.5,-1.29252,0.657571,0.666199,-0.157493,0.356936,0.0149493,0.0788122,-0.172634,-0.00822172,0.00749473,0.0752674,5,0.1,7,5.5,1.49393,2.61964,0.57459,-0.00028871,0.000459701,3.72529e-06,0.0051856,-0.00751019,0.00013411,0.0100976,6.22415e-06,5,0.1,8,5.5,2.03037,3.30739,0.831285,-0.841224,-0.407444,0.0272376,-0.31402,-0.00941753,0.00955164,0.00958739,2.24833,5,0.1,9,5.5,1.87832,2.89271,0.592474,-0.711426,-0.245024,0.00780197,0.516646,0.809312,0.0271015,0.0136778,2.71646,5,0.1
0,5.6,0.158044,2.03442,0.900385,-0.384667,-0.60026,-0.000242889,0.156738,-0.227213,0.00196695,0.00714338,0.530117,5,0.1,1,5.6,-0.435432,1.69907,0.749314,-0.244303,0.00479221,0.00063926,-0.693485,-0.162899,-0.000536442,0.0078096,0.214823,5,0.1,2,5.6,-1.77035,1.64937,0.600004,0.0730217,-0.462347,1.3411e-05,0.0367165,0.13417,-2.98023e-05,0.00881015,0.430944,5,0.1,3,5.6,2.6,2.90978,0.588335,0.0749588,-0.010401,0.00557303,0.337362,-0.0662804,0.00876188,0.0128505,0.364501,5,0.1,4,5.6,0.731536,3.36029,0.550599,0.406748,0.698113,0.025256,-0.00354648,-0.463247,-0.00587106,0.00792787,0.401756,5,0.1,5,5.6,-1.85646,-1.65171,0.749382,0.853926,0.0243485,-0.00505298,0.241995,0.161707,-0.0392795,0.00803018,2.28009,5,0.1,6,5.6,-1.30787,0.692376,0.667653,-0.149435,0.338612,0.0141129,0.0880361,-0.205219,-0.0090301,0.00965562,0.0581578,5,0.1,7,5.6,1.49392,2.61966,0.574591,0.000163913,-0.000202656,1.49012e-05,0.0038743,-0.00548363,5.96046e-05,0.00958999,3.24991e-06,5,0.1,8,5.6,1.94499,3.26693,0.834159,-0.862354,-0.398463,0.0310287,-0.0734329,0.188351,0.0572205,0.00967621,2.2731,5,0.1,9,5.6,1.80976,2.8724,0.593388,-0.659293,-0.160408,0.0104278,0.545502,0.855327,0.0241101,0.0150848,2.87154,5,0.1
0,5.7,0.120335,1.97328,0.900369,-0.369462,-0.621575,-8.93138e-05,0.1596,-0.169538,0.00114366,0.00714338,0.530117,5,0.1,1,5.7,-0.463107,1.69879,0.749376,-0.306515,-0.00965968,0.000590179,-0.533944,-0.125185,-0.000465661,0.0078096,0.214823,5,0.1,2,5.7,-1.76288,1.60345,0.600005,0.076345,-0.458667,1.04308e-05,0.0262558,-0.0237152,-2.98023e-05,0.00881015,0.430944,5,0.1,3,5.7,2.60956,2.90847,0.588934,0.118987,-0.0152495,0.00636801,0.506282,-0.0320822,0.00680238,0.0128505,0.364501,5,0.1,4,5.7,0.772248,3.42791,0.553095,0.407534,0.655122,0.0246339,-0.000335276,-0.418544,-0.0073649,0.00792787,0.401756,5,0.1,5,5.7,-1.77033,-1.64836,0.748656,0.865269,0.0432959,-0.00962922,0.0302494,0.204824,-0.0493266,0.00803018,2.28009,5,0.1,6,5.7,-1.32245,0.725351,0.669026,-0.142583,0.321854,0.013393,0.0571907,-0.146817,-0.00611693,0.00965562,0.0581578,5,0.1,7,5.7,1.49396,2.61961,0.574593,0.000499561,-0.000681356,1.98372e-05,0.00281632,-0.00403821,3.35276e-05,0.00958999,3.24991e-06,5,0.1,8,5.7,1.85853,3.22812,0.837728,-0.865632,-0.37679,0.0417928,-0.00263005,0.24955,0.143703,0.00967621,2.2731,5,0.1,9,5.7,1.74558,2.86048,0.594553,-0.632268,-0.0798669,0.0128718,0.0660941,0.744566,0.0234544,0.0150848,2.87154,5,0.1
0,5.8,0.0842725,1.91056,0.900365,-0.350709,-0.629234,-5.96046e-06,0.223618,0.0362396,0.000566244,0.00801575,0.362256,5,0.1,1,5.8,-0.496053,1.69727,0.749432,-0.348368,-0.0201046,0.000542402,-0.292689,-0.0833869,-0.000506639,0.00807907,0.142446,5,0.1,2,5.8,-1.75515,1.55746,0.600006,0.0776917,-0.46072,7.45058e-06,-0.00154972,0.00959635,-2.98023e-05,0.00839073,0.33416,5,0.1,3,5.8,2.62402,2.90683,0.589599,0.16976,-0.0170767,0.00687838,0.481725,-0.00596046,0.00318885,0.0120611,0.29836,5,0.1,4,5.8,0.812874,3.49126,0.555514,0.403379,0.610703,0.0236496,-0.0962615,-0.484586,-0.012815,0.00799123,0.274081,5,0.1,5,5.8,-1.68374,-1.64302,0.74745,0.866026,0.0631541,-0.0144094,-5.96046e-05,0.183225,-0.0441372,0.00882761,2.26695,5,0.1,6,5.8,-1.33642,0.756787,0.670334,-0.136596,0.30638,0.0127628,0.0683069,-0.174493,-0.00703335,0.0095319,0.0262724,5,0.1,7,5.8,1.49402,2.61952,0.574595,0.000721216,-0.00100732,2.23517e-05,0.00172853,-0.00238419,0,0.00564098,0.395792,5,0.1,8,5.8,1.77203,3.19181,0.842671,-0.863403,-0.3479,0.0572428,0.0523329,0.330567,0.154406,0.0117882,2.36865,5,0.1,9,5.8,1.68238,2.85596,0.595948,-0.633594,-0.0132799,0.0148937,-0.0389814,0.579953,0.0160635,0.012725,2.76471,5,0.1
0,5.9,0.0502719,1.84782,0.900366,-0.329519,-0.624948,2.78465e-05,0.21038,0.0734031,0.000145286,0.00801575,0.362256,5,0.1,1,5.9,-0.532205,1.69488,0.749484,-0.372853,-0.0271929,0.000496395,-0.183497,-0.0576153,-0.000432134,0.00807907,0.142446,5,0.1,2,5.9,-1.74739,1.51159,0.600006,0.0773594,-0.454827,4.56348e-06,-0.00792742,0.116095,-2.6077e-05,0.00839073,0.33416,5,0.1,3,5.9,2.64351,2.90522,0.590301,0.220353,-0.0140525,0.00714259,0.50208,0.0593066,0.00182167,0.0120611,0.29836,5,0.1,4,5.9,0.852773,3.55004,0.557817,0.394618,0.565897,0.0224056,-0.0948161,-0.429824,-0.012733,0.00799123,0.274081,5,0.1,5,5.9,-1.59714,-1.63575,0.74578,0.866025,0.0823366,-0.0190166,1.49012e-05,0.189938,-0.0455417,0.00882761,2.26695,5,0.1,6,5.9,-1.34975,0.786575,0.671577,-0.130014,0.289389,0.0120881,0.0677183,-0.174165,-0.00685826,0.0095319,0.0262724,5,0.1,7,5.9,1.49352,2.61869,0.574532,-0.0155548,-0.0216834,-0.00183452,-0.29052,-0.365257,-0.0329837,0.00564098,0.395792,5,0.1,8,5.9,1.68574,3.15868,0.84938,-0.863851,-0.314591,0.0785282,-0.0260919,0.339091,0.250921,0.0117882,2.36865,5,0.1,9,5.9,1.61802,2.85676,0.597503,-0.659679,0.0218362,0.0160572,-0.407264,0.140399,0.00667199,0.012725,2.76471,5,0.1
0,6,0.0184178,1.78592,0.900369,-0.306924,-0.610569,2.98023e-05,0.248396,0.230014,-0.000119209,0.00762057,0.242534,5,0.1,1,6,-0.570138,1.69192,0.749532,-0.382885,-0.0315219,0.000451505,-0.00885129,-0.0286698,-0.000417233,0.00990177,0.151597,5,0.1,2,6,-1.73973,1.46691,0.600007,0.0756353,-0.4363,1.49012e-06,-0.0283718,0.258625,0,0.00888085,0.70981,5,0.1,3,6,2.6679,2.90417,0.59102,0.265372,-0.00649095,0.00719726,0.378132,0.0861883,-0.000834465,0.012675,0.201464,5,0.1,4,6,0.891657,3.60445,0.559989,0.381756,0.521648,0.0209913,-0.173181,-0.467539,-0.0160038,0.00708578,0.185014,5,0.1,5,6,-1.51054,-1.62663,0.743665,0.866026,0.099346,-0.0230968,-5.96046e-05,0.142872,-0.0343323,0.00917525,2.26197,5,0.1,6,6,-1.36238,0.814585,0.672749,-0.12233,0.270085,0.0113234,0.0888109,-0.217617,-0.00864267,0.00957972,0.0101304,5,0.1,7,6,1.49028,2.61441,0.574157,-0.0508577,-0.0659168,-0.00583529,-0.387073,-0.483751,-0.0438392,0.00562392,0.298828,5,0.1,8,6,1.59931,3.12895,0.858508,-0.863364,-0.279546,0.103864,0.0533462,0.363708,0.240535,0.0111467,2.43054,5,0.1,9,6,1.54992,2.85905,0.599124,-0.701851,0.0187516,0.0161573,-0.379503,-0.180483,-0.00479817,0.0116858,2.57846,5,0.1
0,6.1,-0.0110943,1.72597,0.900371,-0.283712,-0.588172,8.3819e-06,0.22442,0.237651,-0.000290573,0.00762057,0.242534,5,0.1,1,6.1,-0.608638,1.68863,0.749575,-0.388107,-0.0342216,0.00041984,-0.0692457,-0.0234097,-0.000245869,0.00990177,0.151597,5,0.1,2,6.1,-1.7323,1.4251,0.600007,0.0728279,-0.395637,1.39698e-06,-0.0301301,0.523761,-3.72529e-06,0.00888085,0.70981,5,0.1,3,6.1,2.69642,2.90408,0.59174,0.305387,0.00551566,0.00721635,0.393629,0.143826,0.00071153,0.012675,0.201464,5,0.1,4,6.1,0.929015,3.65442,0.562012,0.365545,0.478639,0.0194779,-0.164036,-0.407934,-0.0148267,0.00708578,0.185014,5,0.1,5,6.1,-1.42394,-1.61596,0.74118,0.866025,0.113907,-0.0265859,1.49012e-05,0.138938,-0.0332445,0.00917525,2.26197,5,0.1,6,6.1,-1.37417,0.840499,0.673838,-0.11325,0.248008,0.0104459,0.0947863,-0.227906,-0.00908971,0.00957972,0.0101304,5,0.1,7,6.1,1.48344,2.60501,0.573309,-0.0839878,-0.124899,-0.0114788,-0.273257,-0.653595,-0.0645407,0.00562392,0.298828,5,0.1,8,6.1,1.51301,3.1026,0.870128,-0.863778,-0.249494,0.128491,-0.02224,0.251457,0.238601,0.0111467,2.43054,5,0.1,9,6.1,1.47736,2.85905,0.600696,-0.752322,-0.0268877,0.0151111,-0.560232,-0.665963,-0.0154004,0.0116858,2.57846,5,0.1
0,6.2,-0.038326,1.66849,0.900371,-0.260598,-0.559756,-2.38419e-05,0.243723,0.3438,-0.000327826,0.00662664,0.160771,5,0.1,1,6.2,-0.647718,1.68511,0.749616,-0.392231,-0.035888,0.000396371,0.00545382,-0.00864267,-0.000178814,0.00830081,0.244003,5,0.1,2,6.2,-1.72519,1.38838,0.600007,0.0692189,-0.336918,0,-0.0435114,0.627577,2.98023e-05,0.0084903,1.237,5,0.1,3,6.2,2.72876,2.90537,0.592464,0.339228,0.020498,0.0072524,0.263095,0.148177,-0.00038743,0.0133148,0.159746,5,0.1,4,6.2,0.964678,3.70024,0.563884,0.346769,0.437474,0.0179321,-0.220269,-0.425935,-0.0165105,0.00688724,0.124264,5,0.1,5,6.2,-1.33733,-1.60395,0.738371,0.866026,0.125539,-0.0293717,-5.96046e-05,0.087142,-0.0209212,0.00904582,2.25878,5,0.1,6,6.2,-1.385,0.864117,0.674835,-0.103053,0.223875,0.00947565,0.110269,-0.257015,-0.010401,0.00950302,0.0052492,5,0.1,7,6.2,1.47388,2.58926,0.571835,-0.105214,-0.189263,-0.0179574,-0.150502,-0.602245,-0.061661,0.00472542,0.287085,5,0.1,8,6.2,1.42665,3.07881,0.884077,-0.861603,-0.22679,0.149301,0.0883937,0.213146,0.168085,0.00869927,2.44995,5,0.1,9,6.2,1.3995,2.85268,0.602117,-0.801906,-0.102681,0.0132143,-0.381172,-0.798583,-0.0219345,0.00947257,2.34923,5,0.1
0,6.3,-0.0632343,1.61416,0.900367,-0.238054,-0.527118,-5.95115e-05,0.214356,0.325382,-0.000368804,0.00662664,0.160771,5,0.1,1,6.3,-0.687073,1.6815,0.749655,-0.39582,-0.0360707,0.000376813,-0.0516586,0.00526756,-0.000223517,0.00830081,0.244003,5,0.1,2,6.3,-1.71848,1.35809,0.600007,0.0650661,-0.267845,2.04891e-06,-0.0415072,0.697233,7.45058e-06,0.0084903,1.237,5,0.1,3,6.3,2.76391,2.90812,0.593185,0.362292,0.0340611,0.00713486,0.182599,0.120252,-0.00208616,0.0133148,0.159746,5,0.1,4,6.3,0.998311,3.74199,0.565598,0.326195,0.398498,0.0163945,-0.201996,-0.36636,-0.0147186,0.00688724,0.124264,5,0.1,5,6.3,-1.25073,-1.59094,0.735325,0.866025,0.134598,-0.0315381,1.49012e-05,0.0851378,-0.0203326,0.00904582,2.25878,5,0.1,6,6.3,-1.39476,0.885241,0.675731,-0.0922102,0.198718,0.00845585,0.108123,-0.249159,-0.0101328,0.00950302,0.0052492,5,0.1,7,6.3,1.46317,2.5675,0.569711,-0.103942,-0.243821,-0.0246085,0.148788,-0.473812,-0.0675023,0.00472542,0.287085,5,0.1,8,6.3,1.34058,3.05683,0.899763,-0.861998,-0.215957,0.163436,-0.0424832,0.0295192,0.108846,0.00869927,2.44995,5,0.1,9,6.3,1.31736,2.83801,0.603324,-0.839961,-0.193308,0.0108691,-0.335649,-0.959963,-0.0244826,0.00947257,2.34923,5,0.1
0,6.4,-0.0859686,1.56315,0.900359,-0.216505,-0.491932,-9.53674e-05,0.221618,0.389397,-0.000298023,0.00771078,0.106337,5,0.1,1,6.4,-0.726836,1.67795,0.749691,-0.39819,-0.0348032,0.000350177,0.0224113,0.0201464,-0.000268221,0.0081032,0.708416,5,0.1,2,6.4,-1.71219,1.33455,0.600007,0.0605911,-0.205997,2.98023e-06,-0.049293,0.51105,0,0.00703323,1.14508,5,0.1,3,6.4,2.80081,2.91207,0.593884,0.373185,0.0440776,0.00681728,0.0252724,0.0783205,-0.00429153,0.00797716,0.178545,5,0.1,4,6.4,1.02988,3.78002,0.567164,0.304562,0.362027,0.0149071,-0.238001,-0.372052,-0.0153184,0.013539,0.143732,5,0.1,5,6.4,-1.16413,-1.57712,0.732085,0.866026,0.141066,-0.0330865,-5.96046e-05,0.0380874,-0.00914931,0.00822841,2.25721,5,0.1,6,6.4,-1.40343,0.90386,0.676526,-0.0811934,0.173573,0.00742823,0.11313,-0.255376,-0.0105202,0.00744464,0.00160083,5,0.1,7,6.4,1.45383,2.54106,0.566929,-0.080359,-0.28156,-0.0307947,0.301063,-0.271559,-0.0534356,0.00605016,0.3206,5,0.1,8,6.4,1.25431,3.03525,0.916515,-0.860912,-0.216317,0.170146,0.102222,-0.0170469,0.0219047,0.00901787,2.41766,5,0.1,9,6.4,1.23205,2.81398,0.604287,-0.862029,-0.285292,0.00840575,-0.0799298,-0.840187,-0.0244379,0.00854483,2.20547,5,0.1
0,6.5,-0.106577,1.51581,0.900348,-0.196174,-0.455496,-0.000125449,0.191075,0.353105,-0.000286847,0.00771078,0.106337,5,0.1,1,6.5,-0.767094,1.67473,0.749725,-0.411183,-0.028114,0.000323169,-0.232328,0.10407,-0.000275671,0.0081032,0.708416,5,0.1,2,6.5,-1.70636,1.31619,0.600007,0.0559689,-0.166113,2.6077e-06,-0.0448152,0.22696,-7.45058e-06,0.00703323,1.14508,5,0.1,3,6.5,2.83846,2.91688,0.594547,0.381209,0.0523273,0.00644121,0.106141,0.0813156,-0.00350177,0.00797716,0.178545,5,0.1,4,6.5,1.05937,3.81466,0.568589,0.286955,0.333165,0.013689,-0.133261,-0.227213,-0.00987947,0.013539,0.143732,5,0.1,5,6.5,-1.07753,-1.56279,0.728724,0.866025,0.145523,-0.0341498,1.11759e-05,0.0424236,-0.0100918,0.00822841,2.25721,5,0.1,6,6.5,-1.41099,0.919959,0.677217,-0.0700543,0.148573,0.00639483,0.109963,-0.245191,-0.0101775,0.00744464,0.00160083,5,0.1,7,6.5,1.44779,2.51217,0.563585,-0.0364093,-0.290473,-0.036006,0.540577,0.0736713,-0.0480339,0.00605016,0.3206,5,0.1,8,6.5,1.16837,3.01307,0.933516,-0.860136,-0.231025,0.168663,-0.0326559,-0.238508,-0.0512861,0.00901787,2.41766,5,0.1,9,6.5,1.1456,2.7811,0.605007,-0.865594,-0.372783,0.00600247,-0.00269711,-0.862807,-0.0232868,0.00854483,2.20547,5,0.1
0,6.6,-0.125249,1.47206,0.900334,-0.177259,-0.418991,-0.000150502,0.191487,0.386357,-0.000208616,0.00584407,0.149489,5,0.1,1,6.6,-0.809457,1.67251,0.749756,-0.43595,-0.0157028,0.000295043,-0.225842,0.136673,-0.000327826,0.0110146,0.699392,5,0.1,2,6.6,-1.70099,1.3,0.600008,0.0513524,-0.164601,1.49012e-06,-0.0486374,-0.177145,0,0.00718274,0.984502,5,0.1,3,6.6,2.87705,2.92249,0.595173,0.389427,0.0594258,0.00607073,0.0375509,0.0567436,-0.00405312,0.00726794,0.120343,5,0.1,4,6.6,1.08744,3.84693,0.569912,0.274599,0.312752,0.0127837,-0.127792,-0.197291,-0.00882149,0.00807506,0.0838495,5,0.1,5,6.6,-0.990924,-1.54808,0.72527,0.866026,0.148085,-0.0347629,0,0.00298023,-0.00077486,0.00890655,2.25681,5,0.1,6,6.6,-1.41745,0.933604,0.677806,-0.0591636,0.124465,0.00538975,0.108004,-0.237107,-0.00992417,0.00951068,0.000757181,5,0.1,7,6.6,1.447,2.48392,0.559771,0.0211537,-0.270516,-0.0399381,0.582159,0.308514,-0.0287294,0.00819558,0.190886,5,0.1,8,6.6,1.08233,2.98867,0.950008,-0.858197,-0.25726,0.160016,0.109911,-0.257373,-0.12058,0.00800947,2.35276,5,0.1,9,6.6,1.05912,2.73978,0.605495,-0.863108,-0.449836,0.00380725,0.0583827,-0.645161,-0.0203252,0.0105591,1.77784,5,0.1
0,6.7,-0.142163,1.43228,0.900318,-0.162184,-0.374933,-0.000175927,0.120468,0.487678,-0.000279397,0.00584407,0.149489,5,0.1,1,6.7,-0.854409,1.67177,0.749784,-0.464373,0.00185333,0.000263844,-0.303965,0.202298,-0.000301749,0.0110146,0.699392,5,0.1,2,6.7,-1.69609,1.28202,0.600008,0.0468448,-0.200025,1.11759e-06,-0.0429004,-0.484124,-7.45058e-06,0.00718274,0.984502,5,0.1,3,6.7,2.91621,2.92843,0.59576,0.393497,0.0567399,0.00568535,0.0253171,-0.0961423,-0.00382215,0.00726794,0.120343,5,0.1,4,6.7,1.11435,3.87734,0.571151,0.264032,0.296433,0.0120339,-0.0960529,-0.143647,-0.0067316,0.00807506,0.0838495,5,0.1,5,6.7,-0.904321,-1.53321,0.721781,0.866026,0.149344,-0.0350641,-3.72529e-06,0.0137165,-0.0032559,0.00890655,2.25681,5,0.1,6,6.7,-1.42284,0.944894,0.678296,-0.0487044,0.10162,0.00443012,0.100985,-0.219397,-0.00925362,0.00951068,0.000757181,5,0.1,7,6.7,1.45162,2.45917,0.555794,0.0673546,-0.218311,-0.03822,0.34871,0.685766,0.0549555,0.00819558,0.190886,5,0.1,8,6.7,0.996707,2.9612,0.965308,-0.856472,-0.295387,0.145079,-0.0221282,-0.458479,-0.174638,0.00800947,2.35276,5,0.1,9,6.7,0.972856,2.69189,0.605777,-0.863505,-0.504347,0.00188528,-0.022836,-0.427485,-0.0178628,0.0105591,1.77784,5,0.1
0,6.8,-0.157826,1.39734,0.900299,-0.151345,-0.322807,-0.000201166,0.104047,0.548244,-0.000238419,0.00537783,0.324506,5,0.1,1,6.8,-0.902234,1.67299,0.749808,-0.490114,0.022617,0.000233948,-0.183225,0.203669,-0.000298023,0.0103172,0.878856,5,0.1,2,6.8,-1.69162,1.25942,0.600008,0.0425369,-0.252944,0,-0.0442266,-0.536561,0,0.00948246,1.78789,5,0.1,3,6.8,2.95554,2.93347,0.596309,0.391376,0.0427842,0.0052765,-0.0803471,-0.171423,-0.00444055,0.0103836,0.147155,5,0.1,4,6.8,1.14024,3.90626,0.572321,0.253257,0.281531,0.0113443,-0.12809,-0.164628,-0.00751019,0.0095848,0.0652973,5,0.1,5,6.8,-0.817719,-1.51825,0.718268,0.866026,0.149384,-0.0350773,0,-0.0187159,0.00444055,0.0092355,2.25711,5,0.1,6,6.8,-1.42722,0.953991,0.678694,-0.0390023,0.0806615,0.00354201,0.0928044,-0.199378,-0.00849366,0.0081223,0.000617107,5,0.1,7,6.8,1.45976,2.44105,0.552329,0.092262,-0.142127,-0.0303969,0.156283,0.800371,0.0951886,0.00677334,0.0982572,5,0.1,8,6.8,0.911089,2.92936,0.978878,-0.853506,-0.340831,0.12576,0.119299,-0.415683,-0.208557,0.00873253,1.92245,5,0.1,9,6.8,0.886541,2.6398,0.605882,-0.86057,-0.532562,0.000275671,0.109136,-0.126481,-0.0141561,0.00859232,1.4241,5,0.1
0,6.9,-0.172503,1.36799,0.900277,-0.142661,-0.262764,-0.000224169,0.0765547,0.629991,-0.000212342,0.00537783,0.324506,5,0.1,1,6.9,-0.952244,1.67606,0.74983,-0.510122,0.0370866,0.000206195,-0.186589,0.0969097,-0.00026077,0.0103172,0.878856,5,0.1,2,6.9,-1.68774,1.23188,0.599994,0.0337487,-0.295909,-0.000395719,-0.122212,-0.41385,-0.00702962,0.00948246,1.78789,5,0.1,3,6.9,2.99425,2.9366,0.596815,0.382166,0.0176519,0.00484474,-0.11529,-0.309557,-0.00430644,0.0103836,0.147155,5,0.1,4,6.9,1.16502,3.93372,0.573423,0.243053,0.268556,0.010733,-0.0889674,-0.109926,-0.00528619,0.0095848,0.0652973,5,0.1,5,6.9,-0.731116,-1.50336,0.714771,0.866026,0.148709,-0.0349144,-3.72529e-06,-0.0031516,0.000778586,0.0092355,2.25711,5,0.1,6,6.9,-1.43067,0.961098,0.679007,-0.0302082,0.0618545,0.00273827,0.0827983,-0.176214,-0.00755489,0.0081223,0.000617107,5,0.1,7,6.9,1.46952,2.43092,0.549807,0.100793,-0.0603382,-0.0197507,0.021264,0.810668,0.113282,0.00677334,0.0982572,5,0.1,8,6.9,0.82611,2.89297,0.990546,-0.847176,-0.388132,0.108746,0.0519268,-0.489816,-0.138842,0.00873253,1.92245,5,0.1,9,6.9,0.800821,2.58682,0.605843,-0.85476,-0.518556,-0.00102213,0.0512302,0.372827,-0.0116192,0.00859232,1.4241,5,0.1
0,7,-0.186386,1.34485,0.900254,-0.134849,-0.200638,-0.000239909,0.0846237,0.597,-0.000119209,0.00586993,0.30199,5,0.1,1,7,-1.00399,1.68015,0.74985,-0.522298,0.043869,0.000181794,-0.035882,0.0463128,-0.000298023,0.00842848,0.743385,5,0.1,2,7,-1.68504,1.2,0.599914,0.0197649,-0.343972,-0.00125021,-0.150204,-0.538945,-0.00938773,0.00763571,1.17725,5,0.1,3,7,3.03176,2.93674,0.597278,0.366437,-0.0153005,0.00439882,-0.20659,-0.332594,-0.00470877,0.00937707,0.111096,5,0.1,4,7,1.18886,3.96002,0.57447,0.23326,0.256979,0.0101894,-0.11611,-0.132084,-0.00602007,0.0126134,0.0297232,5,0.1,5,7,-0.644513,-1.48853,0.711291,0.866026,0.147328,-0.0345871,0,-0.0302792,0.00718236,0.0105838,2.25777,5,0.1,6,7,-1.43329,0.966444,0.679245,-0.0224859,0.0455067,0.00203401,0.0713468,-0.150442,-0.00649691,0.00984005,0.413333,5,0.1,7,7,1.47953,2.42879,0.548398,0.0978261,0.0157475,-0.00852048,-0.074625,0.693321,0.107944,0.007154,0.0618593,5,0.1,8,7,0.74184,2.85186,1.00079,-0.835538,-0.431836,0.0967354,0.212044,-0.355005,-0.106871,0.00710557,1.49938,5,0.1,9,7,0.715801,2.53742,0.605688,-0.842832,-0.464243,-0.00201911,0.218093,0.684857,-0.00816584,0.00711993,1.14211,5,0.1
0,7.1,-0.199473,1.32774,0.90023,-0.127043,-0.142803,-0.000249408,0.0759605,0.530556,-6.70552e-05,0.00586993,0.30199,5,0.1,1,7.1,-1.05644,1.68461,0.749867,-0.526341,0.0442676,0.000155251,-0.0207722,-0.012517,-0.000242144,0.00842848,0.743385,5,0.1,2,7.1,-1.6837,1.1624,0.59975,0.00816137,-0.411574,-0.00193147,-0.0854582,-0.750735,-0.00445172,0.00763571,1.17725,5,0.1,3,7.1,3.06734,2.93376,0.597694,0.344885,-0.0423357,0.00394285,-0.23137,-0.210345,-0.0044778,0.00937707,0.111096,5,0.1,4,7.1,1.21162,3.98507,0.575459,0.221766,0.244187,0.0096106,-0.120535,-0.131726,-0.00585988,0.0126134,0.0297232,5,0.1,5,7.1,-0.557911,-1.4739,0.707856,0.866026,0.145636,-0.0341835,-1.78814e-06,-0.011757,0.00281259,0.0105838,2.25777,5,0.1,6,7.1,-1.43454,0.969662,0.679626,0.00301301,0.0140558,0.00735382,0.396177,-0.438903,0.0996552,0.00984005,0.413333,5,0.1,7,7.1,1.48883,2.43369,0.548079,0.0871846,0.0805229,0.00200849,-0.132732,0.588506,0.0999719,0.007154,0.0618593,5,0.1,8,7.1,0.659239,2.80704,1.01016,-0.816664,-0.462483,0.0923866,0.199065,-0.23903,0.00516325,0.00710557,1.49938,5,0.1,9,7.1,0.632473,2.49486,0.605448,-0.824165,-0.383516,-0.00274237,0.190791,0.891536,-0.00616163,0.00711993,1.14211,5,0.1
0,7.2,-0.211782,1.31582,0.900204,-0.118904,-0.0987023,-0.00025034,0.0898838,0.338912,2.98023e-05,0.00789426,0.261915,5,0.1,1,7.2,-1.10899,1.68903,0.749881,-0.522384,0.0451446,0.00013262,0.116289,0.0420809,-0.000208616,0.0082271,0.619042,5,0.1,2,7.2,-1.68323,1.11756,0.599542,0.00201166,-0.48331,-0.00218153,-0.0405908,-0.638127,-0.00077486,0.00703359,0.163776,5,0.1,3,7.2,3.10059,2.92866,0.598066,0.319052,-0.0578582,0.00349283,-0.289559,-0.102758,-0.00458956,0.00699972,0.258027,5,0.1,4,7.2,1.23314,4.00878,0.576389,0.208038,0.229299,0.00896752,-0.15831,-0.170708,-0.00724196,0.0103253,0.0115165,5,0.1,5,7.2,-0.471308,-1.45942,0.704457,0.866025,0.143573,-0.033696,1.43051e-05,-0.0353456,0.00834465,0.0111,2.25859,5,0.1,6,7.2,-1.43201,0.968667,0.680945,0.0492126,-0.0352398,0.0196144,0.494957,-0.516415,0.135243,0.00703808,0.295352,5,0.1,7,7.2,1.49683,2.44442,0.548749,0.0722796,0.131208,0.0110254,-0.161052,0.416398,0.0785589,0.0111253,0.0323836,5,0.1,8,7.2,0.578771,2.75992,1.01951,-0.790073,-0.476563,0.0951707,0.355691,-0.0303984,0.0392795,0.00893863,1.16579,5,0.1,9,7.2,0.551203,2.46106,0.605147,-0.798681,-0.292504,-0.00322908,0.343233,0.901103,-0.00345707,0.00666763,0.94526,5,0.1
0,7.3,-0.223236,1.30735,0.90018,-0.110221,-0.074474,-0.000245124,0.086613,0.115238,7.45058e-05,0.00789426,0.261915,5,0.1,1,7.3,-1.16068,1.69381,0.749893,-0.511363,0.0521293,0.000113994,0.123806,0.13379,-0.000163913,0.0082271,0.619042,5,0.1,2,7.3,-1.68314,1.06649,0.599325,0.00054054,-0.533326,-0.00209864,0.00661612,-0.351675,0.00219047,0.00703359,0.163776,5,0.1,3,7.3,3.13105,2.92257,0.598393,0.290078,-0.0620987,0.00305362,-0.29406,0.00981987,-0.00423938,0.00699972,0.258027,5,0.1,4,7.3,1.25314,4.03085,0.57725,0.191795,0.211862,0.00823671,-0.169531,-0.181675,-0.00751391,0.0103253,0.0115165,5,0.1,5,7.3,-0.384706,-1.44518,0.701117,0.866025,0.141434,-0.03319,-1.78814e-06,-0.0154674,0.00365451,0.0111,2.25859,5,0.1,6,7.3,-1.42433,0.962581,0.683688,0.10632,-0.0858594,0.0359931,0.611961,-0.479966,0.180703,0.00703808,0.295352,5,0.1,7,7.3,1.50322,2.45943,0.550219,0.0554783,0.166808,0.018098,-0.171162,0.289574,0.0615492,0.0111253,0.0323836,5,0.1,8,7.3,0.501469,2.71214,1.02943,-0.756044,-0.478106,0.104834,0.350215,0.0173301,0.135951,0.00893863,1.16579,5,0.1,9,7.3,0.472932,2.43625,0.604809,-0.7672,-0.205102,-0.0035149,0.315377,0.811785,-0.00214204,0.00666763,0.94526,5,0.1
0,7.4,-0.233811,1.3,0.900156,-0.101111,-0.0771403,-0.000233948,0.0974387,-0.152946,0.000149012,0.00646196,0.203667,5,0.1,1,7.4,-1.21106,1.7,0.749904,-0.494334,0.0744551,9.83477e-05,0.229955,0.302017,-0.000149012,0.00950649,0.496162,5,0.1,2,7.4,-1.683,1.01194,0.59913,0.00251532,-0.552143,-0.00178665,0.0293255,-0.0200272,0.0038445,0.00855522,0.0687517,5,0.1,3,7.4,3.15855,2.91654,0.598678,0.259578,-0.0573695,0.002639,-0.318289,0.0779629,-0.00414252,0.00644591,0.668054,5,0.1,4,7.4,1.27143,4.05108,0.578035,0.173664,0.192404,0.00744164,-0.194848,-0.210047,-0.00846386,0.00942555,0.00595084,5,0.1,5,7.4,-0.298103,-1.43114,0.697821,0.866025,0.139108,-0.0326425,1.43051e-05,-0.0366569,0.00864267,0.00856277,2.25944,5,0.1,6,7.4,-1.41068,0.951763,0.688187,0.165477,-0.12852,0.0537291,0.545263,-0.362158,0.165433,0.00968432,0.242459,5,0.1,7,7.4,1.50793,2.47731,0.5523,0.0387222,0.188214,0.0231206,-0.161171,0.135541,0.0381172,0.00892044,0.0183785,5,0.1,8,7.4,0.427775,2.66462,1.04063,-0.715801,-0.470161,0.119209,0.471606,0.153303,0.137985,0.00913893,0.894676,5,0.1,9,7.4,0.397936,2.41944,0.60445,-0.730733,-0.135291,-0.00364035,0.433698,0.568151,-0.000268221,0.0113391,0.780705,5,0.1
0,7.5,-0.243446,1.29127,0.900133,-0.0916518,-0.0994848,-0.000218023,0.0935309,-0.269778,0.000175089,0.00646196,0.203667,5,0.1,1,7.5,-1.25939,1.70936,0.749913,-0.472562,0.115729,8.51229e-05,0.221655,0.485979,-0.000119209,0.00950649,0.496162,5,0.1,2,7.5,-1.68257,0.956908,0.598972,0.0063654,-0.545479,-0.0013493,0.0445694,0.158135,0.00473112,0.00855522,0.0687517,5,0.1,3,7.5,3.18307,2.91136,0.598921,0.232106,-0.0449784,0.00223964,-0.241548,0.152469,-0.00385195,0.00644591,0.668054,5,0.1,4,7.5,1.28784,4.06929,0.578737,0.154498,0.17177,0.0066149,-0.190742,-0.205398,-0.00817701,0.00942555,0.00595084,5,0.1,5,7.5,-0.211501,-1.41736,0.694587,0.866025,0.136834,-0.0321058,-2.98023e-07,-0.0165999,0.00391528,0.00856277,2.25944,5,0.1,6,7.5,-1.39129,0.937438,0.694437,0.222819,-0.15474,0.0715149,0.570484,-0.167362,0.179823,0.00968432,0.242459,5,0.1,7,7.5,1.511,2.49667,0.554782,0.0229686,0.19764,0.0262978,-0.150815,0.0487268,0.0244305,0.00892044,0.0183785,5,0.1,8,7.5,0.358429,2.61809,1.05323,-0.671805,-0.462487,0.132514,0.430374,0.0320971,0.119738,0.00913893,0.894676,5,0.1,9,7.5,0.326905,2.40835,0.604085,-0.690514,-0.0914019,-0.00363728,0.394553,0.277713,0.000420958,0.0113391,0.780705,5,0.1
0,7.6,-0.252139,1.27994,0.900112,-0.0821121,-0.126874,-0.000199676,0.0984222,-0.259995,0.000238419,0.00658453,0.190055,5,0.1,1,7.6,-1.30545,1.72341,0.749921,-0.447294,0.165087,7.59959e-05,0.294626,0.473022,-0.000149012,0.0110597,0.380006,5,0.1,2,7.6,-1.68171,0.903474,0.598861,0.0108838,-0.519913,-0.000868738,0.0434518,0.354409,0.00470877,0.0125832,0.0962113,5,0.1,3,7.6,3.20513,2.90763,0.599127,0.209469,-0.0297546,0.00186712,-0.218987,0.140429,-0.00360608,0.00664116,3.33124,5,0.1,4,7.6,1.30233,4.08543,0.579358,0.135168,0.150907,0.00579059,-0.197053,-0.213861,-0.00843406,0.00938988,0.00180133,5,0.1,5,7.6,-0.124898,-1.40378,0.691401,0.866026,0.134456,-0.0315472,-3.57628e-06,-0.0364184,0.00855327,0.0101261,2.26029,5,0.1,6,7.6,-1.36632,0.921413,0.702441,0.274244,-0.163037,0.0878975,0.435948,-0.00393391,0.140399,0.00772971,0.216942,5,0.1,7,7.6,1.51258,2.51651,0.557505,0.00908077,0.197357,0.0278547,-0.124872,-0.0561476,0.00622869,0.00810049,0.0062942,5,0.1,8,7.6,0.293478,2.57201,1.06699,-0.626018,-0.458241,0.141749,0.500381,0.0759363,0.0593066,0.00782418,0.67687,5,0.1,9,7.6,0.259921,2.4,0.603726,-0.647805,-0.0812352,-0.00354052,0.475929,-0.0574589,0.00157952,0.00980693,0.618925,5,0.1
0,7.7,-0.259871,1.26627,0.900093,-0.0726408,-0.14341,-0.000176299,0.0921357,-0.0776947,0.000227243,0.00658453,0.190055,5,0.1,1,7.7,-1.34878,1.7424,0.749928,-0.41966,0.215215,6.32368e-05,0.271492,0.501052,-0.000108033,0.0110597,0.380006,5,0.1,2,7.7,-1.6804,0.853105,0.598798,0.0152964,-0.488474,-0.000400748,0.0427663,0.293996,0.00454113,0.0125832,0.0962113,5,0.1,3,7.7,3.22509,2.90565,0.599296,0.190559,-0.00875704,0.0015297,-0.167623,0.205323,-0.00315532,0.00664116,3.33124,5,0.1,4,7.7,1.31487,4.09946,0.579895,0.115824,0.129887,0.00496591,-0.190213,-0.207067,-0.00808761,0.00938988,0.00180133,5,0.1,5,7.7,-0.0382956,-1.39046,0.688277,0.866025,0.132166,-0.0310097,-5.96046e-07,-0.0168905,0.00396371,0.0101261,2.26029,5,0.1,6,7.7,-1.3367,0.905448,0.711946,0.317803,-0.153089,0.102108,0.409424,0.186831,0.135113,0.00772971,0.216942,5,0.1,7,7.7,1.5129,2.53586,0.560302,-0.00237469,0.188554,0.027896,-0.102632,-0.119895,-0.00559911,0.00810049,0.0062942,5,0.1,8,7.7,0.233159,2.52622,1.08119,-0.581951,-0.459979,0.139833,0.404537,-0.0730902,-0.0880808,0.00782418,0.67687,5,0.1,9,7.7,0.197386,2.39097,0.60338,-0.603731,-0.104494,-0.0033753,0.425389,-0.363529,0.00181049,0.00980693,0.618925,5,0.1
0,7.8,-0.266678,1.2518,0.900077,-0.0634983,-0.143775,-0.000154972,0.0914484,0.0636578,0.000268221,0.00569327,0.183425,5,0.1,1,7.8,-1.38933,1.76628,0.749934,-0.390735,0.26041,5.51343e-05,0.316143,0.382483,-0.000119209,0.00948144,0.280024,5,0.1,2,7.8,-1.67867,0.805758,0.598779,0.0190914,-0.457785,2.08616e-05,0.0317097,0.333458,0.0038147,0.00857036,0.160189,5,0.1,3,7.8,3.24334,2.90546,0.599434,0.174487,0.000488758,0.00123382,-0.15986,-0.0545979,-0.00277162,0.0119819,3.58083,5,0.1,4,7.8,1.32551,4.11143,0.580352,0.097087,0.109422,0.00416934,-0.184655,-0.202417,-0.00780821,0.00888793,0.000842712,5,0.1,5,7.8,0.0483069,-1.37735,0.6852,0.866025,0.129795,-0.0304535,-1.19209e-06,-0.035882,0.00840425,0.0095853,1.82269,5,0.1,6,7.8,-1.30309,0.891278,0.722765,0.351769,-0.128597,0.113444,0.252008,0.289798,0.0856221,0.00941544,0.396132,5,0.1,7,7.8,1.5122,2.55401,0.563043,-0.0111938,0.173479,0.0267193,-0.0727773,-0.180721,-0.0179708,0.0075994,0.00195262,5,0.1,8,7.8,0.176986,2.47987,1.09456,-0.541086,-0.466353,0.125906,0.429429,-0.0269413,-0.182271,0.00722487,0.495579,5,0.1,9,7.8,0.139188,2.3785,0.603052,-0.559383,-0.146133,-0.0031665,0.475173,-0.435352,0.00247359,0.00781003,0.476067,5,0.1
0,7.9,-0.272586,1.23796,0.900063,-0.0548038,-0.131017,-0.000130199,0.0831857,0.181377,0.000230968,0.00569327,0.183425,5,0.1,1,7.9,-1.42691,1.79424,0.749939,-0.361348,0.298076,4.53554e-05,0.282869,0.348821,-7.82311e-05,0.00948144,0.280024,5,0.1,2,7.9,-1.67661,0.7613,0.5988,0.0219988,-0.434069,0.000376441,0.0251755,0.171088,0.0032261,0.00857036,0.160189,5,0.1,3,7.9,3.25997,2.9049,0.599544,0.158105,-0.0179727,0.000973325,-0.169113,-0.4168,-0.00243261,0.0119819,3.58083,5,0.1,4,7.9,1.33432,4.12138,0.580731,0.0792706,0.0898518,0.00341628,-0.171311,-0.188679,-0.00724196,0.00888793,0.000842712,5,0.1,5,7.9,0.134909,-1.36452,0.682189,0.866025,0.126997,-0.0297986,7.45058e-07,-0.0261664,0.00612438,0.0095853,1.82269,5,0.1,6,7.9,-1.26806,0.880152,0.734077,0.336356,-0.091676,0.108773,-0.488169,0.425078,-0.155624,0.00941544,0.396132,5,0.1,7,7.9,1.51075,2.5704,0.565613,-0.0173692,0.153808,0.024562,-0.0501871,-0.210822,-0.0249669,0.0075994,0.00195262,5,0.1,8,7.9,0.124854,2.43294,1.10614,-0.502775,-0.473092,0.104881,0.356089,-0.0783205,-0.23146,0.00722487,0.495579,5,0.1,9,7.9,0.0854875,2.36148,0.602747,-0.515576,-0.195652,-0.00292715,0.417513,-0.521556,0.00238419,0.00781003,0.476067,5,0.1
0,8,-0.277659,1.22589,0.900051,-0.0467375,-0.109354,-0.000108778,0.0786483,0.243485,0.000238419,0.0103304,0.27166,5,0.1,1,8,-1.46161,1.82558,0.749943,-0.332266,0.326458,3.8743e-05,0.306547,0.203729,-5.96046e-05,0.0074021,0.198019,5,0.1,2,8,-1.6743,0.718684,0.598852,0.0239193,-0.418326,0.000657141,0.012517,0.165939,0.00229478,0.00819536,0.412101,5,0.1,3,8,3.27492,2.9,0.59963,0.14047,-0.0896633,0.000745058,-0.184298,-0.982761,-0.00208616,0.00910386,3.12733,5,0.1,4,8,1.34141,4.12945,0.581037,0.0628948,0.071764,0.00272393,-0.155926,-0.173092,-0.00661612,0.0132605,0.000692552,5,0.1,5,8,0.221512,-1.35197,0.679246,0.866025,0.123531,-0.0289872,1.43051e-05,-0.0473261,0.0111163,0.00870944,1.4133,5,0.1,6,8,-1.2376,0.873175,0.743936,0.266984,-0.0476852,0.0864938,-0.842929,0.437319,-0.271648,0.00995767,0.205855,5,0.1,7,8,1.5088,2.58469,0.567935,-0.0211656,0.131691,0.0217721,-0.0255108,-0.229359,-0.0305474,0.00770953,0.00107009,5,0.1,8,8,0.0763644,2.38535,1.11544,-0.466581,-0.47698,0.0808358,0.381342,0.0216961,-0.244081,0.00683316,0.354893,5,0.1,9,8,0.0360322,2.33939,0.602467,-0.473081,-0.244647,-0.00267774,0.443845,-0.433922,0.00268221,0.00676858,0.356543,5,0.1
0,8.1,-0.281999,1.21621,0.900041,-0.0405702,-0.0838753,-8.75443e-05,0.0479687,0.259653,0.000186265,0.0103304,0.27166,5,0.1,1,8.1,-1.49339,1.85922,0.749947,-0.303994,0.345501,3.39933e-05,0.268333,0.15974,-4.09782e-05,0.0074021,0.198019,5,0.1,2,8.1,-1.67187,0.677269,0.598928,0.0245985,-0.413126,0.000843126,0.000923872,-0.0242963,0.00141934,0.00819536,0.412101,5,0.1,3,8.1,3.28805,2.88488,0.599694,0.12234,-0.222222,0.00055423,-0.178978,-1.55677,-0.00173226,0.00910386,3.12733,5,0.1,4,8.1,1.34695,4.13579,0.581278,0.0481777,0.0553899,0.0020992,-0.13797,-0.153869,-0.00586361,0.0132605,0.000692552,5,0.1,5,8.1,0.308111,-1.33983,0.676397,0.86583,0.11935,-0.0280056,-0.00783801,-0.0412017,0.00967085,0.00870944,1.4133,5,0.1,6,8.1,-1.21548,0.870576,0.751108,0.172749,-0.00474062,0.0560669,-1.00229,0.410728,-0.324048,0.00995767,0.205855,5,0.1,7,8.1,1.50659,2.59671,0.569955,-0.0228556,0.108594,0.0185938,-0.0083968,-0.230342,-0.032682,0.00770953,0.00107009,5,0.1,8,8.1,0.0314725,2.33768,1.12229,-0.432255,-0.476645,0.0562677,0.321058,0.00853837,-0.242479,0.00683316,0.354893,5,0.1,9,8.1,-0.00919101,2.31271,0.602212,-0.432372,-0.288678,-0.00242554,0.384161,-0.420958,0.00242144,0.00676858,0.356543,5,0.1
0,8.2,-0.285845,1.20911,0.900033,-0.036566,-0.0585437,-7.15256e-05,0.0346005,0.242174,0.000178814,0.0373286,0.269867,5,0.1,1,8.2,-1.52245,1.89438,0.74995,-0.276998,0.355506,3.12924e-05,0.278115,0.0286698,-2.98023e-05,0.0218875,0.135605,5,0.1,2,8.2,-1.66942,0.635775,0.599018,0.0240922,-0.416645,0.000941753,-0.0110269,-0.0182688,0.000536442,0.00793648,0.48457,5,0.1,3,8.2,3.2994,2.85469,0.599742,0.104576,-0.381434,0.000397861,-0.17643,-1.54305,-0.00140071,0.00947193,2.65869,5,0.1,4,8.2,1.35111,4.14059,0.58146,0.0353783,0.0410795,0.00155419,-0.117838,-0.132561,-0.00500679,0.0104378,0.000548199,5,0.1,5,8.2,0.394592,-1.32813,0.67365,0.862891,0.114459,-0.0268579,-0.0626886,-0.0599623,0.0140667,0.00880705,1.06422,5,0.1,6,8.2,-1.20322,0.872038,0.755095,0.0734329,0.0326231,0.0239298,-0.954509,0.329018,-0.30908,0.00953016,0.140448,5,0.1,7,8.2,1.50429,2.60643,0.57165,-0.0228822,0.0860333,0.015299,0.00756979,-0.219226,-0.0329018,0.00785655,0.000997539,5,0.1,8,8.2,-0.0101415,2.29019,1.12674,-0.39967,-0.471306,0.0331759,0.341758,0.114679,-0.215709,0.00679885,0.24804,5,0.1,9,8.2,-0.0505139,2.28193,0.601982,-0.393899,-0.32447,-0.00218153,0.394951,-0.276923,0.00244379,0.00716609,0.256495,5,0.1
0,8.3,-0.289318,1.20445,0.900027,-0.0327922,-0.0350503,-5.58794e-05,0.0406373,0.219293,0.00013411,0.0373286,0.269867,5,0.1,1,8.3,-1.54885,1.93006,0.749953,-0.251522,0.357519,2.8871e-05,0.23932,-0.00244379,-1.49012e-05,0.0218875,0.135605,5,0.1,2,8.3,-1.66708,0.593669,0.599114,0.0227703,-0.427971,0.000972487,-0.0155941,-0.168964,7.45058e-05,0.00793648,0.48457,5,0.1,3,8.3,3.30929,2.80845,0.599788,0.0959195,-0.544751,0.000653323,-0.0154078,-1.63743,0.00565872,0.00947193,2.65869,5,0.1,4,8.3,1.35409,4.14407,0.581591,0.0245344,0.0288531,0.00109272,-0.0987649,-0.111699,-0.0042133,0.0104378,0.000548199,5,0.1,5,8.3,0.480829,-1.31696,0.67103,0.863277,0.108968,-0.0255699,0.023993,-0.0538826,0.0126399,0.00880705,1.06422,5,0.1,6,8.3,-1.20059,0.876849,0.755961,-0.0196388,0.062488,-0.0062271,-0.883408,0.262693,-0.286404,0.00953016,0.140448,5,0.1,7,8.3,1.50205,2.61396,0.573017,-0.0216035,0.0649154,0.0120646,0.0175908,-0.201315,-0.031475,0.00785655,0.000997539,5,0.1,8,8.3,-0.0485196,2.24358,1.12916,-0.368754,-0.461091,0.0169868,0.289675,0.108615,-0.114478,0.00679885,0.24804,5,0.1,9,8.3,-0.0880541,2.24812,0.601775,-0.357856,-0.351051,-0.00195503,0.337483,-0.234559,0.00214577,0.00716609,0.256495,5,0.1
0,8.4,-0.292386,1.20195,0.900022,-0.0284895,-0.0160068,-4.32134e-05,0.0451058,0.15682,8.9407e-05,0.0270148,0.256398,5,0.1,1,8.4,-1.57281,1.96565,0.749956,-0.227785,0.352687,2.83122e-05,0.240982,-0.103474,-2.98023e-05,0.0451459,0.155,5,0.1,2,8.4,-1.66489,0.550043,0.599211,0.020951,-0.443642,0.000956655,-0.020802,-0.115782,-0.000417233,0.0113736,0.223155,5,0.1,3,8.4,3.31894,2.74621,0.599888,0.0981748,-0.694168,0.00137836,0.046134,-1.28937,0.00816584,0.0235306,2.60541,5,0.1,4,8.4,1.35609,4.14643,0.581681,0.0156581,0.0187874,0.000712276,-0.0785589,-0.089407,-0.00336766,0.0107827,0.00033599,5,0.1,5,8.4,0.567113,-1.30635,0.66854,0.859953,0.103003,-0.0241712,-0.121504,-0.0681281,0.015974,0.00859154,0.77239,5,0.1,6,8.4,-1.20669,0.884265,0.753995,-0.0992805,0.0842646,-0.0320598,-0.693262,0.169486,-0.224948,0.00903807,0.0796491,5,0.1,7,8.4,1.49999,2.61949,0.57407,-0.019446,0.0460744,0.00905693,0.0250936,-0.174403,-0.0284314,0.00776777,0.000818306,5,0.1,8,8.4,-0.0839453,2.19813,1.13041,-0.339507,-0.446397,0.00910759,0.304442,0.198364,-0.0484586,0.00633632,0.169759,5,0.1,9,8.4,-0.12217,2.21205,0.60159,-0.324432,-0.367999,-0.00174493,0.339139,-0.0909567,0.00211596,0.00728659,0.178141,5,0.1
0,8.5,-0.295004,1.20112,0.900018,-0.0238543,-0.00115186,-3.53903e-05,0.0470579,0.117183,7.45058e-05,0.0270148,0.256398,5,0.1,1,8.5,-1.59457,2.00063,0.749958,-0.208941,0.348534,2.69152e-05,0.149533,-0.0051409,-3.72529e-06,0.0451459,0.155,5,0.1,2,8.5,-1.6629,0.505106,0.599304,0.0188617,-0.454484,0.000906456,-0.021182,-0.0802353,-0.000599772,0.0113736,0.223155,5,0.1,3,8.5,3.32915,2.67189,0.600072,0.107252,-0.777772,0.00234935,0.11988,-0.414297,0.0105873,0.0235306,2.60541,5,0.1,4,8.5,1.35729,4.1479,0.581736,0.00865292,0.0107884,0.0004109,-0.0615194,-0.0705123,-0.00265986,0.0107827,0.00033599,5,0.1,5,8.5,0.652687,-1.29637,0.666198,0.852307,0.0967156,-0.0226971,-0.0738241,-0.0609457,0.0142902,0.00859154,0.77239,5,0.1,6,8.5,-1.21986,0.893434,0.749736,-0.161666,0.0980181,-0.0523128,-0.542551,0.10344,-0.176236,0.00903807,0.0796491,5,0.1,7,8.5,1.49818,2.62326,0.574839,-0.0167251,0.0298798,0.00637015,0.0288635,-0.148416,-0.0250973,0.00776777,0.000818306,5,0.1,8,8.5,-0.116478,2.15442,1.13118,-0.31191,-0.427949,0.00697412,0.25835,0.18613,0.000938773,0.00633632,0.169759,5,0.1,9,8.5,-0.153029,2.17481,0.601426,-0.293623,-0.376042,-0.00155121,0.286712,-0.0537485,0.00180304,0.00728659,0.178141,5,0.1
0,8.6,-0.297155,1.20139,0.900015,-0.0191763,0.00424981,-2.98023e-05,0.0460595,-0.017941,8.9407e-05,0.00893556,0.218857,5,0.1,1,8.6,-1.61478,2.03545,0.749961,-0.195503,0.347263,2.68221e-05,0.129342,-0.0389814,0,0.00701625,0.173723,5,0.1,2,8.6,-1.66112,0.459454,0.599391,0.0166833,-0.456209,0.000835955,-0.0224113,0.0596941,-0.000804663,0.00670185,0.274443,5,0.1,3,8.6,3.34049,2.59327,0.60036,0.119436,-0.783187,0.00337958,0.112295,0.275731,0.00956655,0.00939683,2.86513,5,0.1,4,8.6,1.35787,4.14866,0.581765,0.0033468,0.004673,0.000180304,-0.0447035,-0.0517368,-0.00196695,0.0123604,0.000156805,5,0.1,5,8.6,0.737344,-1.28701,0.664002,0.838004,0.0902563,-0.021182,-0.241607,-0.0706315,0.0165403,0.0092723,0.543334,5,0.1,6,8.6,-1.23842,0.90363,0.74373,-0.205898,0.104654,-0.0666887,-0.334978,0.0284612,-0.109017,0.00769632,0.035661,5,0.1,7,8.6,1.49666,2.62556,0.575357,-0.0137597,0.0165582,0.00407249,0.0299811,-0.117421,-0.0207126,0.0106082,0.00050992,5,0.1,8,8.6,-0.146381,2.11264,1.13193,-0.285991,-0.406563,0.0084281,0.26764,0.252247,0.0241995,0.00589802,0.115391,5,0.1,9,8.6,-0.18098,2.13711,0.601279,-0.265439,-0.37607,-0.00137687,0.283793,0.0640154,0.00172853,0.00611672,0.120713,5,0.1
0,8.7,-0.298847,1.20156,0.900012,-0.0147103,-0.00345018,-2.24449e-05,0.0428818,-0.168644,6.33299e-05,0.00893556,0.218857,5,0.1,1,8.7,-1.63404,2.07004,0.749964,-0.192657,0.344672,2.72878e-05,-0.0457093,-0.0293106,1.11759e-05,0.00701625,0.173723,5,0.1,2,8.7,-1.65956,0.413967,0.599471,0.0145385,-0.454493,0.000754837,-0.0206754,0.00140816,-0.000823289,0.00670185,0.274443,5,0.1,3,8.7,3.35308,2.51767,0.600747,0.13284,-0.717278,0.00438085,0.142291,0.963926,0.009913,0.00939683,2.86513,5,0.1,4,8.7,1.35801,4.14889,0.581775,-0.000453368,0.000249594,1.20141e-05,-0.0314564,-0.0369251,-0.00140443,0.0123604,0.000156805,5,0.1,5,8.7,0.820065,-1.27832,0.661962,0.816821,0.0837451,-0.0196569,-0.216272,-0.0623539,0.0146106,0.0092723,0.543334,5,0.1,6,8.7,-1.26045,0.914159,0.73659,-0.23238,0.105128,-0.075316,-0.19028,-0.0191554,-0.0621043,0.00769632,0.035661,5,0.1,7,8.7,1.49543,2.62667,0.575667,-0.010772,0.00608712,0.00218758,0.0293851,-0.0916123,-0.0168793,0.0106082,0.00050992,5,0.1,8,8.7,-0.173733,2.07318,1.13293,-0.261726,-0.383056,0.0119848,0.226677,0.230744,0.0432804,0.00589802,0.115391,5,0.1,9,8.7,-0.206202,2.09982,0.60115,-0.239759,-0.369375,-0.00122003,0.23786,0.0830442,0.00144541,0.00611672,0.120713,5,0.1
0,8.8,-0.300111,1.2,0.90001,-0.0106648,-0.0312179,-1.63913e-05,0.0377446,-0.371575,2.98023e-05,0.00866541,0.156528,5,0.1,1,8.8,-1.65364,2.10426,0.749967,-0.199959,0.33862,2.83122e-05,-0.0801682,-0.102997,0,0.00971453,0.103866,5,0.1,2,8.8,-1.6582,0.368608,0.599542,0.012514,-0.451353,0.000670552,-0.019908,0.0803173,-0.00089407,0.00722453,1.28397,5,0.1,3,8.8,3.36704,2.45137,0.601232,0.145578,-0.604111,0.00526905,0.10252,1.24073,0.00739098,0.00716447,3.17235,5,0.1,4,8.8,1.35782,4.14875,0.58177,-0.00298321,-0.00275373,-0.000101328,-0.0193715,-0.0231266,-0.00089407,0.011369,5.5087e-05,5,0.1,5,8.8,0.900479,-1.27026,0.66007,0.788987,0.0773191,-0.0181511,-0.363827,-0.0681281,0.015974,0.0113166,0.373554,5,0.1,6,8.8,-1.28437,0.924497,0.728835,-0.243357,0.100848,-0.0789136,-0.0276566,-0.0660121,-0.00929832,0.00797749,0.0167993,5,0.1,7,8.8,1.4945,2.62687,0.575808,-0.00795126,-0.00172257,0.000710785,0.0267625,-0.064373,-0.0126064,0.00898274,0.000240989,5,0.1,8,8.8,-0.19878,2.03608,1.13435,-0.239123,-0.358254,0.0164419,0.231691,0.274062,0.0430346,0.00959509,0.134586,5,0.1,9,8.8,-0.229011,2.06342,0.601035,-0.216488,-0.357276,-0.00108033,0.233278,0.167727,0.0013411,0.00578801,0.137832,5,0.1
0,8.9,-0.300997,1.19465,0.900009,-0.0071459,-0.0785276,-1.38767e-05,0.0324231,-0.537261,1.86265e-05,0.00866541,0.156528,5,0.1,1,8.9,-1.67414,2.13761,0.749969,-0.210644,0.327964,2.84053e-05,-0.116438,-0.120401,3.72529e-06,0.00971453,0.103866,5,0.1,2,8.9,-1.65705,0.323,0.599605,0.0106581,-0.467759,0.000585243,-0.0174046,-0.337668,-0.000819564,0.00722453,1.28397,5,0.1,3,8.9,3.38216,2.39757,0.601797,0.157061,-0.470525,0.00601979,0.114948,1.33553,0.00713393,0.00716447,3.17235,5,0.1,4,8.9,1.35744,4.14838,0.581756,-0.00446085,-0.00455081,-0.000170898,-0.0104532,-0.0130534,-0.000502914,0.011369,5.5087e-05,5,0.1,5,8.9,0.977678,-1.26285,0.65833,0.75547,0.0710621,-0.0166836,-0.334464,-0.0593215,0.013914,0.0113166,0.373554,5,0.1,6,8.9,-1.30871,0.934215,0.720942,-0.241911,0.0931509,-0.0784767,0.0594184,-0.0878498,0.0189655,0.00797749,0.0167993,5,0.1,7,8.9,1.49383,2.62641,0.575822,-0.00541005,-0.00711381,-0.00038119,0.0238046,-0.043571,-0.00921264,0.00898274,0.000240989,5,0.1,8,8.9,-0.221737,2.00136,1.13627,-0.221643,-0.338178,0.0223087,0.133301,0.150226,0.0687018,0.00959509,0.134586,5,0.1,9,8.9,-0.249684,2.0283,0.600932,-0.19852,-0.346846,-0.000973418,0.139724,0.0648573,0.000856817,0.00578801,0.137832,5,0.1
0,9,-0.30156,1.18409,0.900007,-0.00421405,-0.132173,-1.19209e-05,0.0260919,-0.507951,2.98023e-05,0.00803095,0.095511,5,0.1,1,9,-1.69574,2.16971,0.749972,-0.220311,0.312835,2.83122e-05,-0.0647306,-0.188828,0,0.00770116,0.105616,5,0.1,2,9,-1.65607,0.274324,0.599659,0.0090003,-0.506487,0.000505149,-0.0157952,-0.383667,-0.000804663,0.00927781,2.69878,5,0.1,3,9,3.39838,2.35675,0.602431,0.166494,-0.351429,0.00661463,0.0649691,0.997424,0.00438094,0.0106993,3.26505,5,0.1,4,9,1.35696,4.14787,0.581737,-0.00512302,-0.00542402,-0.000204146,-0.00309944,-0.00452995,-0.000178814,0.0082796,1.63995e-05,5,0.1,5,9,1.05142,-1.25604,0.656732,0.717393,0.0650644,-0.0152767,-0.446081,-0.0622272,0.0146031,0.0108518,0.253029,5,0.1,6,9,-1.33244,0.943056,0.713241,-0.231126,0.0833303,-0.075005,0.157118,-0.108123,0.0506938,0.00828396,0.00470606,5,0.1,7,9,1.4934,2.62551,0.575744,-0.00323355,-0.0104725,-0.00113249,0.0196099,-0.0237226,-0.00584126,0.00828964,8.73333e-05,5,0.1,8,9,-0.243293,1.96824,1.13885,-0.209783,-0.324261,0.0292033,0.115328,0.14478,0.0650883,0.00719507,0.0791929,5,0.1,9,9,-0.2689,1.99393,0.600839,-0.186164,-0.340167,-0.00089705,0.11754,0.0860691,0.000715256,0.00985946,0.0806645,5,0.1
0,9.1,-0.30186,1.16833,0.900006,-0.00187275,-0.182386,-9.40636e-06,0.0206549,-0.474535,1.86265e-05,0.00803095,0.095511,5,0.1,1,9.1,-1.71777,2.2001,0.749975,-0.217432,0.295436,2.84053e-05,0.114031,-0.170156,3.72529e-06,0.00770116,0.105616,5,0.1,2,9.1,-1.65453,0.220821,0.599675,0.0276756,-0.570606,-0.000452716,0.344411,-0.807747,-0.016395,0.00927781,2.69878,5,0.1,3,9.1,3.41539,2.32602,0.603115,0.173948,-0.271906,0.00706501,0.0728816,0.488892,0.00417978,0.0106993,3.26505,5,0.1,4,9.1,1.35644,4.14732,0.581716,-0.00516698,-0.00557527,-0.000210386,0.00193715,0.00116229,4.09782e-05,0.0082796,1.63995e-05,5,0.1,5,9.1,1.12105,-1.24983,0.655272,0.676009,0.0593739,-0.0139411,-0.404671,-0.0535026,0.0125654,0.0108518,0.253029,5,0.1,6,9.1,-1.35468,0.950834,0.706024,-0.21265,0.0720963,-0.0690359,0.211403,-0.115708,0.0683628,0.00828396,0.00470606,5,0.1,7,9.1,1.49317,2.62437,0.575605,-0.00145044,-0.0121247,-0.00158977,0.0159368,-0.00970066,-0.00333786,0.00828964,8.73333e-05,5,0.1,8,9.1,-0.263777,1.93644,1.1421,-0.200469,-0.312365,0.0358338,0.0811191,0.108048,0.0638738,0.00719507,0.0791929,5,0.1,9,9.1,-0.28701,1.96027,0.600752,-0.176611,-0.333263,-0.000838004,0.0825748,0.0675172,0.00051409,0.00985946,0.0806645,5,0.1
0,9.2,-0.301953,1.14792,0.900005,-9.23872e-05,-0.223419,-7.45058e-06,0.0149459,-0.331342,0,0.00677737,0.126226,5,0.1,1,9.2,-1.73871,2.22875,0.749978,-0.199115,0.276959,2.83122e-05,0.24426,-0.206709,0,0.00735529,0.082349,5,0.1,2,9.2,-1.64975,0.159637,0.599535,0.0699043,-0.652173,-0.00242591,0.465274,-0.755936,-0.0215769,0.00904019,2.42647,5,0.1,3,9.2,3.43309,2.3,0.603839,0.179154,-0.2608,0.00737309,0.0234842,-0.234246,0.00172853,0.01098,2.99132,5,0.1,4,9.2,1.35594,4.14677,0.581695,-0.00478923,-0.00524521,-0.000198185,0.00542402,0.00548363,0.000208616,0.00841621,7.95399e-06,5,0.1,5,9.2,1.18654,-1.24416,0.653941,0.632575,0.0540376,-0.0126883,-0.479817,-0.0546575,0.0128448,0.0071163,0.170037,5,0.1,6,9.2,-1.3748,0.957458,0.699489,-0.189111,0.0603542,-0.0614166,0.25773,-0.118285,0.0835061,0.0104404,0.00172781,5,0.1,7,9.2,1.4931,2.62313,0.575434,-6.55651e-05,-0.0124872,-0.00181049,0.0116825,0.00214577,-0.00110269,0.00832872,2.81872e-05,5,0.1,8,9.2,-0.283407,1.90578,1.14598,-0.191822,-0.300115,0.0413597,0.0990331,0.147283,0.044167,0.0079746,0.120373,5,0.1,9,9.2,-0.304255,1.92736,0.600671,-0.1681,-0.324038,-0.000786781,0.0941008,0.127673,0.000506639,0.00686556,0.119281,5,0.1
0,9.3,-0.301896,1.12387,0.900005,0.00116136,-0.257685,-7.35745e-06,0.0101849,-0.331134,3.72529e-06,0.00677737,0.126226,5,0.1,1,9.3,-1.75721,2.25542,0.749981,-0.169422,0.256265,2.82191e-05,0.338674,-0.212505,-3.72529e-06,0.00735529,0.082349,5,0.1,2,9.3,-1.64014,0.0902352,0.599172,0.124412,-0.737987,-0.00492102,0.589207,-0.885603,-0.0267737,0.00904019,2.42647,5,0.1,3,9.3,3.45116,2.27124,0.604586,0.182505,-0.326582,0.00757044,0.0329912,-0.96868,0.00179932,0.01098,2.99132,5,0.1,4,9.3,1.35549,4.14628,0.581677,-0.00413191,-0.00456721,-0.000172388,0.00748783,0.00780821,0.000294298,0.00841621,7.95399e-06,5,0.1,5,9.3,1.24754,-1.23901,0.652732,0.58817,0.0490615,-0.011519,-0.427492,-0.0464693,0.0109226,0.0071163,0.170037,5,0.1,6,9.3,-1.39239,0.962907,0.693776,-0.162359,0.048685,-0.0527462,0.274859,-0.114147,0.0891164,0.0104404,0.00172781,5,0.1,7,9.3,1.49315,2.62191,0.57525,0.000938401,-0.0118691,-0.00184178,0.00837445,0.00979006,0.000417233,0.00832872,2.81872e-05,5,0.1,8,9.3,-0.30223,1.87648,1.15032,-0.185651,-0.286045,0.0453521,0.0377949,0.14361,0.0334233,0.0079746,0.120373,5,0.1,9,9.3,-0.320669,1.89558,0.600595,-0.160709,-0.311312,-0.000740588,0.062488,0.136621,0.000439584,0.00686556,0.119281,5,0.1
0,9.4,-0.301736,1.0966,0.900004,0.00195876,-0.285763,-7.45058e-06,0.00581145,-0.214398,0,0.00985838,0.199101,5,0.1,1,9.4,-1.77238,2.27994,0.749984,-0.133365,0.233597,2.68221e-05,0.373542,-0.244141,0,0.00636104,0.185631,5,0.1,2,9.4,-1.62479,0.0122967,0.598548,0.181535,-0.81652,-0.00751168,0.526905,-0.632058,-0.0239015,0.00633454,2.26699,5,0.1,3,9.4,3.46952,2.23329,0.605349,0.183964,-0.434673,0.00766069,-0.0113249,-1.10722,-0.000268221,0.00957037,2.61389,5,0.1,4,9.4,1.35512,4.14587,0.581661,-0.00333488,-0.00373125,-0.000140071,0.00822544,0.00882149,0.000327826,0.0130266,7.38862e-06,5,0.1,5,9.4,1.30418,-1.23433,0.651634,0.543842,0.044468,-0.0104398,-0.472367,-0.0464916,0.0109375,0.00680168,0.113965,5,0.1,6,9.4,-1.40724,0.967218,0.688951,-0.134599,0.037691,-0.0437438,0.278115,-0.104964,0.0902414,0.00808736,0.00159364,5,0.1,7,9.4,1.49328,2.62078,0.57507,0.00160933,-0.0106156,-0.00174046,0.00500679,0.0149012,0.00157952,0.0101436,1.4716e-05,5,0.1,8,9.4,-0.320617,1.84865,1.15499,-0.181946,-0.269806,0.0476748,0.0460595,0.187397,0.0115037,0.00593033,0.290157,5,0.1,9,9.4,-0.336421,1.86521,0.600523,-0.154103,-0.295097,-0.000692904,0.0758469,0.194073,0.000506639,0.00590707,0.146874,5,0.1
0,9.5,-0.301516,1.06673,0.900003,0.00238963,-0.312884,-7.35745e-06,0.00287034,-0.296138,3.72529e-06,0.00985838,0.199101,5,0.1,1,9.5,-1.78385,2.30206,0.749986,-0.0961734,0.208553,2.62633e-05,0.362419,-0.257328,-1.49012e-05,0.00636104,0.185631,5,0.1,2,9.5,-1.60389,-0.0717606,0.597673,0.236703,-0.857611,-0.00999924,0.546306,-0.213275,-0.0245497,0.00633454,2.26699,5,0.1,3,9.5,3.48791,2.18367,0.606116,0.184061,-0.561613,0.00767559,0.00315905,-1.34149,0.000163913,0.00957037,2.61389,5,0.1,4,9.5,1.35483,4.14554,0.581649,-0.00249576,-0.0028275,-0.000106264,0.0083819,0.00908971,0.000339001,0.0130266,7.38862e-06,5,0.1,5,9.5,1.35634,-1.2301,0.650641,0.500335,0.0402518,-0.00944817,-0.413798,-0.0391752,0.00921264,0.00680168,0.113965,5,0.1,6,9.5,-1.41932,0.970479,0.685023,-0.107238,0.0277115,-0.0348647,0.266708,-0.0939071,0.0865646,0.00808736,0.00159364,5,0.1,7,9.5,1.49346,2.6198,0.574905,0.00198726,-0.00896938,-0.00154516,0.00258535,0.0176281,0.00226125,0.0101436,1.4716e-05,5,0.1,8,9.5,-0.338384,1.82259,1.15952,-0.171567,-0.251292,0.0404451,0.155259,0.188813,-0.139758,0.00593033,0.290157,5,0.1,9,9.5,-0.351328,1.83661,0.600456,-0.142863,-0.277337,-0.000648387,0.1463,0.171542,0.000409782,0.00590707,0.146874,5,0.1
0,9.6,-0.301267,1.03404,0.900003,0.00254661,-0.339502,-7.45058e-06,0.000327826,-0.213385,2.98023e-05,0.0102689,0.1218,5,0.1,1,9.6,-1.79173,2.3216,0.749989,-0.0622094,0.182068,2.5332e-05,0.311613,-0.272393,-2.98023e-05,0.0102232,0.273664,5,0.1,2,9.6,-1.57766,-0.158122,0.596558,0.285631,-0.866025,-0.0121981,0.410914,0,-0.0184774,0.00686657,2.19797,5,0.1,3,9.6,3.50629,2.12102,0.606882,0.182867,-0.687402,0.00762343,-0.0339746,-1.10853,-0.00146031,0.007629,2.3553,5,0.1,4,9.6,1.35462,4.1453,0.58164,-0.00168979,-0.00195503,-7.30157e-05,0.007689,0.00834465,0.000298023,0.010466,6.17507e-06,5,0.1,5,9.6,1.40429,-1.22627,0.649742,0.458369,0.0364035,-0.00854433,-0.436604,-0.0386834,0.00911951,0.0109956,0.131865,5,0.1,6,9.6,-1.42875,0.972804,0.681958,-0.0816822,0.0190273,-0.0265673,0.24271,-0.0793338,0.0787675,0.00753654,0.00153639,5,0.1,7,9.6,1.49367,2.61899,0.574762,0.00213683,-0.00715852,-0.00129938,0.000417233,0.0181198,0.0026226,0.00777591,1.2998e-05,5,0.1,8,9.6,-0.354628,1.79845,1.16273,-0.152088,-0.231072,0.0226527,0.228658,0.219405,-0.203192,0.00924091,0.272599,5,0.1,9,9.6,-0.364786,1.80977,0.600393,-0.12541,-0.259042,-0.000606477,0.19978,0.201404,0.000447035,0.00633626,0.130949,5,0.1
0,9.7,-0.301014,0.999025,0.900002,0.00249376,-0.36034,-4.93601e-06,-0.00131316,-0.183076,1.86265e-05,0.0102689,0.1218,5,0.1,1,9.7,-1.79651,2.33848,0.749991,-0.0346763,0.155745,2.23517e-05,0.236221,-0.255093,-2.98023e-05,0.0102232,0.273664,5,0.1,2,9.7,-1.54699,-0.244724,0.595244,0.327636,-0.866025,-0.0140777,0.401847,8.9407e-07,-0.0179335,0.00686657,2.19797,5,0.1,3,9.7,3.52447,2.04712,0.607639,0.180987,-0.785979,0.00753626,-0.0136197,-0.824615,-0.000692904,0.007629,2.3553,5,0.1,4,9.7,1.35449,4.14514,0.581634,-0.000957958,-0.00115782,-4.39584e-05,0.00684708,0.00745058,0.000275671,0.010466,6.17507e-06,5,0.1,5,9.7,1.44831,-1.22279,0.648925,0.424793,0.0334209,-0.00784136,-0.262849,-0.0232384,0.00547618,0.0109956,0.131865,5,0.1,6,9.7,-1.43575,0.974331,0.679682,-0.0586957,0.0117418,-0.0191055,0.215322,-0.0659861,0.0699162,0.00753654,0.00153639,5,0.1,7,9.7,1.49388,2.61836,0.574646,0.00210386,-0.00535101,-0.00102939,-0.00102073,0.0177324,0.00272319,0.00777591,1.2998e-05,5,0.1,8,9.7,-0.368594,1.77642,1.16389,-0.126433,-0.209557,-9.07108e-05,0.277285,0.214569,-0.240602,0.00924091,0.272599,5,0.1,9,9.7,-0.376242,1.78486,0.600335,-0.102988,-0.239049,-0.000562705,0.242239,0.20355,0.000439584,0.00633626,0.130949,5,0.1
0,9.8,-0.300773,0.962262,0.900002,0.0022985,-0.372711,-2.98023e-06,-0.0025332,-0.0505745,2.98023e-05,0.00894529,0.0665201,5,0.1,1,9.8,-1.79893,2.3528,0.749993,-0.0152767,0.130892,1.93715e-05,0.151575,-0.24271,-5.96046e-05,0.00760663,0.271643,5,0.1,2,9.8,-1.51242,-0.331327,0.593755,0.361362,-0.866025,-0.0155851,0.253558,-1.43051e-05,-0.0113547,0.0105594,2.17233,5,0.1,3,9.8,3.54247,1.9651,0.608388,0.178438,-0.846991,0.00741631,-0.0443459,-0.380695,-0.00199676,0.00968216,2.26754,5,0.1,4,9.8,1.35442,4.14506,0.581631,-0.000342727,-0.000476837,-1.93715e-05,0.00554323,0.00596046,0.000238419,0.0088621,3.84554e-06,5,0.1,5,9.8,1.48957,-1.21955,0.648166,0.400949,0.031361,-0.0073567,-0.234663,-0.0197887,0.00464916,0.00863417,0.0768483,5,0.1,6,9.8,-1.4406,0.9752,0.678103,-0.038895,0.00588596,-0.0126749,0.17947,-0.050962,0.0582933,0.00842996,0.0010954,5,0.1,7,9.8,1.49408,2.61791,0.574556,0.00194609,-0.00366569,-0.000762939,-0.00214577,0.0158548,0.002563,0.0068383,1.05714e-05,5,0.1,8,9.8,-0.37982,1.75655,1.16269,-0.09792,-0.187561,-0.0235349,0.287235,0.227749,-0.22018,0.00662365,0.303523,5,0.1,9,9.8,-0.385303,1.76201,0.600281,-0.0781275,-0.217503,-0.00051558,0.249729,0.230551,0.000476837,0.00976046,0.246933,5,0.1
0,9.9,-0.300558,0.924803,0.900001,0.0019887,-0.375488,-5.58794e-07,-0.00355206,0.00748783,1.49012e-05,0.00894529,0.0665201,5,0.1,1,9.9,-1.79984,2.36473,0.749995,-0.00416078,0.108205,1.39698e-05,0.0728518,-0.212267,-4.47035e-05,0.00760663,0.271643,5,0.1,2,9.9,-1.47495,-0.41793,0.592138,0.387854,-0.866025,-0.0167646,0.250317,1.78814e-06,-0.0111125,0.0105594,2.17233,5,0.1,3,9.9,3.56015,1.87923,0.609122,0.175764,-0.864836,0.00728844,-0.0191629,-0.0475869,-0.000972301,0.00968216,2.26754,5,0.1,4,9.9,1.35441,4.14504,0.58163,0.000155158,6.33299e-05,2.23517e-06,0.00435859,0.00479817,0.000193715,0.0088621,3.84554e-06,5,0.1,5,9.9,1.52864,-1.2165,0.647451,0.381473,0.0297468,-0.00697803,-0.173263,-0.0140071,0.00328571,0.00863417,0.0768483,5,0.1,6,9.9,-1.44364,0.975554,0.67711,-0.0225002,0.00139903,-0.00734804,0.147559,-0.0386834,0.0479557,0.00842996,0.0010954,5,0.1,7,9.9,1.49427,2.61762,0.574493,0.00169836,-0.00217073,-0.000515953,-0.00274181,0.013873,0.00234693,0.0068383,1.05714e-05,5,0.1,8,9.9,-0.388198,1.73893,1.15916,-0.0699773,-0.164802,-0.0476025,0.267209,0.22804,-0.248536,0.00662365,0.303523,5,0.1,9,9.9,-0.391821,1.74143,0.600232,-0.0520808,-0.19395,-0.000465754,0.258377,0.241198,0.000517815,0.00976046,0.246933,5,0.1
0,10,-0.300378,0.88747,0.900001,0.00160858,-0.369184,1.49012e-06,-0.00397861,0.126541,0,0.00863741,0.044445,5,0.1,1,10,-1.8,2.37453,0.749996,7.7486e-05,0.0882149,1.04308e-05,0.0177026,-0.18847,-2.98023e-05,0.00689116,0.268023,5,0.1,2,10,-1.4351,-0.504532,0.590413,0.407031,-0.866026,-0.0176176,0.115097,0,-0.0051856,0.00713076,2.15906,5,0.1,3,10,3.57761,1.79265,0.609845,0.172889,-0.866026,0.00715405,-0.0451803,5.96046e-05,-0.00208616,0.00899661,2.25338,5,0.1,4,10,1.35445,4.14507,0.581631,0.000521541,0.000476837,1.78814e-05,0.00298023,0.00309944,0.000149012,0.011595,1.72347e-06,5,0.1,5,10,1.5659,-1.2136,0.646769,0.363153,0.0283003,-0.00663847,-0.206053,-0.015974,0.00372529,0.00741612,0.0599242,5,0.1,6,10,-1.44521,0.975521,0.676596,-0.00950694,-0.00184476,-0.00312477,0.111938,-0.026226,0.0364184,0.00878884,0.000577455,5,0.1,7,10,1.49442,2.61747,0.574452,0.00140965,-0.000923872,-0.000299513,-0.00298023,0.0110865,0.00193715,0.00999633,6.62997e-06,5,0.1,8,10,-0.393922,1.7236,1.15319,-0.0452124,-0.141877,-0.0710547,0.225142,0.23067,-0.211179,0.00614044,0.749738,5,0.1,9,10,-0.395806,1.72326,0.600188,-0.028535,-0.169191,-0.000411272,0.204563,0.253975,0.000566244,0.00699487,0.411409,5,0.1
