id,t,px,py,pz,vx,vy,vz,ax,ay,az,planning_time,qp_cost,planning_report,size,id,t,px,py,pz,vx,vy,vz,ax,ay,az,planning_time,qp_cost,planning_report,size,id,t,px,py,pz,vx,vy,vz,ax,ay,az,planning_time,qp_cost,planning_report,size,id,t,px,py,pz,vx,vy,vz,ax,ay,az,planning_time,qp_cost,planning_report,size,id,t,px,py,pz,vx,vy,vz,ax,ay,az,planning_time,qp_cost,planning_report,size,id,t,px,py,pz,vx,vy,vz,ax,ay,az,planning_time,qp_cost,planning_report,size,id,t,px,py,pz,vx,vy,vz,ax,ay,az,planning_time,qp_cost,planning_report,size,id,t,px,py,pz,vx,vy,vz,ax,ay,az,planning_time,qp_cost,planning_report,size,id,t,px,py,pz,vx,vy,vz,ax,ay,az,planning_time,qp_cost,planning_report,size,id,t,px,py,pz,vx,vy,vz,ax,ay,az,planning_time,qp_cost,planning_report,size
0,0,-2.23605,-1.27473,0.582098,0,0,0,0,0,0,0.00767752,2.421,5,0.1,1,0,-3.52207,-0.696229,0.664424,0,0,0,0,0,0,0.0116084,3.21874,5,0.1,2,0,0.109794,-3.67963,0.544863,0,0,0,0,0,0,0.019815,0.555686,5,0.1,3,0,3.51326,0.671344,0.694584,0,0,0,0,0,0,0.0159134,3.5122,5,0.1,4,0,3.94359,-0.859688,0.654809,0,0,0,0,0,0,0.0268433,3.51219,5,0.1,5,0,-1.36507,-1.61849,0.5799,0,0,0,0,0,0,0.0106323,3.5122,5,0.1,6,0,-4.06332,-1.92224,0.581448,0,0,0,0,0,0,0.0103754,3.5122,5,0.1,7,0,4.39285,2.18826,0.50279,0,0,0,0,0,0,0.0276396,2.28455,5,0.1,8,0,-1.89555,-3.42462,0.676572,0,0,0,0,0,0,0.0117298,0.518715,5,0.1,9,0,-2.46994,-0.658164,0.584108,0,0,0,0,0,0,0.00958892,2.45875,5,0.1
0,0.1,-2.23716,-1.2734,0.582117,-0.0315301,0.0377754,0.000530388,-0.560522,0.671573,0.00942871,0.00767752,2.421,5,0.1,1,0.1,-3.52011,-0.695815,0.664356,0.0554778,0.0117419,-0.00190893,0.986248,0.20875,-0.0339411,0.0116084,3.21874,5,0.1,2,0.1,0.109366,-3.67892,0.544921,-0.0121439,0.0201408,0.00163373,-0.215891,0.35806,0.0290498,0.019815,0.555686,5,0.1,3,0.1,3.51307,0.673423,0.694633,-0.00540353,0.0590048,0.00140425,-0.0960678,1.04898,0.0249594,0.0159134,3.5122,5,0.1,4,0.1,3.94324,-0.857628,0.65478,-0.00974722,0.0584554,-0.000829995,-0.173286,1.03921,-0.0147596,0.0268433,3.51219,5,0.1,5,0.1,-1.36298,-1.61852,0.579918,0.0592604,-0.000824407,0.000525918,1.05351,-0.0146478,0.0093542,0.0106323,3.5122,5,0.1,6,0.1,-4.0628,-1.92022,0.581459,0.0146806,0.0574205,0.000298209,0.260949,1.0208,0.00529736,0.0103754,3.5122,5,0.1,7,0.1,4.39139,2.18911,0.502766,-0.0412755,0.0240561,-0.000677817,-0.733763,0.427648,-0.012055,0.0276396,2.28455,5,0.1,8,0.1,-1.8953,-3.42386,0.676649,0.00727717,0.0214729,0.00217594,0.129364,0.381753,0.0386834,0.0117298,0.518715,5,0.1,9,0.1,-2.47164,-0.657786,0.584128,-0.0484105,0.0107363,0.000582635,-0.860617,0.190869,0.0103563,0.00958892,2.45875,5,0.1
0,0.2,-2.24356,-1.26573,0.582225,-0.099647,0.119388,0.00167787,-0.747323,0.895441,0.0125468,0.00723281,1.98631,5,0.1,1,0.2,-3.50884,-0.69343,0.663969,0.175333,0.0371099,-0.00603497,1.31512,0.278324,-0.0452101,0.0105993,2.6408,5,0.1,2,0.2,0.1069,-3.67483,0.545253,-0.0383807,0.0636518,0.00516325,-0.287857,0.477433,0.0387728,0.0202622,0.455911,5,0.1,3,0.2,3.51197,0.685408,0.694919,-0.0170767,0.186484,0.00443757,-0.12815,1.39865,0.0332892,0.0141508,2.92579,5,0.1,4,0.2,3.94126,-0.845755,0.654612,-0.0308037,0.184748,-0.00262409,-0.231028,1.38563,-0.0196695,0.0325885,2.92579,5,0.1,5,0.2,-1.35094,-1.61869,0.580025,0.187293,-0.00260472,0.00166148,1.40464,-0.0195503,0.0124872,0.0113577,2.9258,5,0.1,6,0.2,-4.05982,-1.90855,0.581519,0.0464082,0.181478,0.000943244,0.347614,1.36101,0.00706315,0.0108467,2.92581,5,0.1,7,0.2,4.38301,2.194,0.502628,-0.130451,0.0760257,-0.00214279,-0.97847,0.570178,-0.0160635,0.0273102,1.87477,5,0.1,8,0.2,-1.89382,-3.4195,0.677091,0.0229985,0.0678658,0.00687689,0.172436,0.509024,0.0515878,0.0127771,0.42558,5,0.1,9,0.2,-2.48148,-0.655605,0.584247,-0.152999,0.0339314,0.00184029,-1.14751,0.254512,0.0138283,0.0101974,2.01728,5,0.1
0,0.3,-2.25768,-1.24882,0.582462,-0.185375,0.222104,0.00311816,-0.914514,1.09572,0.0153743,0.00723281,1.98631,5,0.1,1,0.3,-3.48401,-0.688174,0.663114,0.326188,0.0690369,-0.0112225,1.60922,0.340581,-0.0553541,0.0105993,2.6408,5,0.1,2,0.3,0.101464,-3.66581,0.545984,-0.0714011,0.118418,0.00960939,-0.352244,0.5842,0.0474155,0.0202622,0.455911,5,0.1,3,0.3,3.50955,0.711835,0.695547,-0.0318129,0.34734,0.00826586,-0.157431,1.71889,0.0409111,0.0141508,2.92579,5,0.1,4,0.3,3.9369,-0.819574,0.65424,-0.0573751,0.344107,-0.00488646,-0.283942,1.70289,-0.0241771,0.0325885,2.92579,5,0.1,5,0.3,-1.3244,-1.61906,0.580261,0.348841,-0.00485275,0.00309702,1.7263,-0.0240132,0.0153333,0.0113577,2.9258,5,0.1,6,0.3,-4.05324,-1.88284,0.581653,0.0864007,0.33801,0.00175573,0.427455,1.67269,0.00868738,0.0108467,2.92581,5,0.1,7,0.3,4.36453,2.20477,0.502344,-0.24269,0.141433,-0.00343705,-1.19731,0.697717,-0.00990555,0.0273102,1.87477,5,0.1,8,0.3,-1.89056,-3.40989,0.678065,0.0427807,0.126256,0.0127943,0.211038,0.622883,0.0631213,0.0127771,0.42558,5,0.1,9,0.3,-2.50315,-0.650799,0.584508,-0.284631,0.0631262,0.00342596,-1.40417,0.311427,0.0169128,0.0101974,2.01728,5,0.1
0,0.4,-2.28071,-1.22122,0.58285,-0.273389,0.327554,0.00459701,-0.806689,0.966668,0.0135899,0.00845061,1.57163,5,0.1,1,0.4,-3.44349,-0.679598,0.66172,0.481057,0.101814,-0.0165492,1.41966,0.300467,-0.048846,0.0112185,2.30357,5,0.1,2,0.4,0.0925936,-3.6511,0.547178,-0.1053,0.174636,0.0141725,-0.310764,0.515461,0.0418127,0.0196217,0.517671,5,0.1,3,0.4,3.50559,0.755018,0.696575,-0.0469863,0.512952,0.012207,-0.139117,1.5198,0.03618,0.0133001,2.51472,5,0.1,4,0.4,3.92977,-0.776793,0.653632,-0.084734,0.508176,-0.00721514,-0.251055,1.50567,-0.0213981,0.0296186,2.51304,5,0.1,5,0.4,-1.28103,-1.61966,0.580646,0.515166,-0.00716746,0.00457317,1.52642,-0.0212193,0.0135899,0.0222084,2.51564,5,0.1,6,0.4,-4.0425,-1.84081,0.581871,0.12759,0.499171,0.0025928,0.378132,1.47897,0.0076592,0.0513245,2.51091,5,0.1,7,0.4,4.33438,2.22234,0.50196,-0.357902,0.20858,-0.00414252,-1.05667,0.615597,-0.00438094,0.0351801,1.48385,5,0.1,8,0.4,-1.88525,-3.3942,0.679654,0.0630915,0.186199,0.0188679,0.186205,0.549436,0.0557005,0.0120437,0.337986,5,0.1,9,0.4,-2.53851,-0.642957,0.584933,-0.419766,0.0930965,0.00505298,-1.23882,0.274777,0.0149012,0.0109476,1.72908,5,0.1
0,0.5,-2.31214,-1.18356,0.583378,-0.354913,0.425256,0.00597518,-0.784352,0.940092,0.0132993,0.00845061,1.57163,5,0.1,1,0.5,-3.38953,-0.668038,0.659892,0.586119,0.12802,-0.0193449,0.697523,0.218213,-0.00943244,0.0112185,2.30357,5,0.1,2,0.5,0.0804814,-3.63086,0.548808,-0.13683,0.231377,0.0184145,-0.304367,0.583842,0.0409484,0.0196217,0.517671,5,0.1,3,0.5,3.50018,0.813909,0.697982,-0.0613037,0.663077,0.0159299,-0.139847,1.41399,0.0363588,0.0133001,2.51472,5,0.1,4,0.5,3.92,-0.718408,0.652801,-0.110568,0.658111,-0.00941679,-0.252351,1.4227,-0.0215024,0.0296186,2.51304,5,0.1,5,0.5,-1.22191,-1.62049,0.581173,0.665384,-0.00935141,0.00597062,1.40996,-0.021331,0.0136383,0.0222084,2.51564,5,0.1,6,0.5,-4.0278,-1.78338,0.58217,0.166504,0.648745,0.00338145,0.380099,1.43911,0.0077039,0.0513245,2.51091,5,0.1,7,0.5,4.29321,2.24633,0.501535,-0.465102,0.271039,-0.00426574,-1.03474,0.602916,0.00153109,0.0351801,1.48385,5,0.1,8,0.5,-1.87799,-3.37289,0.681824,0.0819843,0.238932,0.0245187,0.182375,0.484571,0.0545494,0.0120437,0.337986,5,0.1,9,0.5,-2.58571,-0.63213,0.585454,-0.514742,0.124347,0.00486234,-0.667289,0.329055,-0.0156723,0.0109476,1.72908,5,0.1
0,0.6,-2.35125,-1.1367,0.584037,-0.423551,0.507528,0.00714064,-0.560641,0.672162,0.00959635,0.00775176,1.19253,5,0.1,1,0.6,-3.32851,-0.654316,0.657959,0.62393,0.144601,-0.0188753,0.0764132,0.110269,0.0167787,0.0102451,2.17207,5,0.1,2,0.6,0.0653913,-3.60493,0.550839,-0.16354,0.285286,0.0220075,-0.218952,0.468373,0.0294745,0.022039,0.395668,5,0.1,3,0.6,3.4934,0.886657,0.699744,-0.0737011,0.784391,0.0191525,-0.102758,0.967503,0.0267327,0.0134857,2.33057,5,0.1,4,0.6,3.90777,-0.646088,0.651759,-0.132936,0.781007,-0.0113219,-0.18549,0.988483,-0.015825,0.028096,2.32156,5,0.1,5,0.6,-1.14896,-1.62152,0.581833,0.785965,-0.0112414,0.00717789,0.957727,-0.0157356,0.0100434,0.009191,2.33488,5,0.1,6,0.6,-4.00938,-1.71187,0.582544,0.200188,0.774622,0.00406504,0.279784,1.02812,0.00566244,0.0126484,2.30554,5,0.1,7,0.6,4.24192,2.27622,0.501123,-0.555897,0.323945,-0.00390708,-0.744581,0.433803,0.00530481,0.0295719,1.10529,5,0.1,8,0.6,-1.86895,-3.34682,0.684529,0.09799,0.279647,0.0293046,0.13119,0.315666,0.0392795,0.0116131,0.177023,5,0.1,9,0.6,-2.63962,-0.618103,0.585832,-0.554854,0.155248,0.00246465,-0.144839,0.273496,-0.0298619,0.00812883,1.55991,5,0.1
0,0.7,-2.39608,-1.08296,0.5848,-0.469382,0.563029,0.00809217,-0.342801,0.420816,0.00884011,0.00775176,1.19253,5,0.1,1,0.7,-3.26681,-0.639792,0.656276,0.600379,0.141577,-0.0137676,-0.506908,-0.149172,0.0780076,0.0102451,2.17207,5,0.1,2,0.7,0.0479614,-3.57403,0.553185,-0.18456,0.332224,0.0248367,-0.189436,0.443012,0.0254959,0.022039,0.395668,5,0.1,3,0.7,3.48551,0.968875,0.701795,-0.0840157,0.849984,0.0218349,-0.0970066,0.370376,0.0252202,0.0134857,2.33057,5,0.1,4,0.7,3.89354,-0.564097,0.650547,-0.151554,0.848809,-0.0129097,-0.175148,0.390518,-0.0149272,0.028096,2.32156,5,0.1,5,0.7,-1.06664,-1.62273,0.582602,0.85053,-0.0128197,0.00818465,0.361025,-0.0148341,0.00945479,0.009191,2.33488,5,0.1,6,0.7,-3.98794,-1.63031,0.582979,0.228266,0.846594,0.0046337,0.264093,0.428498,0.00535697,0.0126484,2.30554,5,0.1,7,0.7,4.18267,2.31075,0.500763,-0.627371,0.365591,-0.00326158,-0.644058,0.375286,0.0073351,0.0295719,1.10529,5,0.1,8,0.7,-1.85851,-3.31791,0.687652,0.110585,0.292695,0.0330745,0.11351,-0.0355542,0.0339709,0.0116131,0.177023,5,0.1,9,0.7,-2.69502,-0.600872,0.58584,-0.545655,0.191853,-0.00304719,0.304267,0.422675,-0.073906,0.00812883,1.55991,5,0.1
0,0.8,-2.44429,-1.02508,0.585648,-0.490069,0.589034,0.00880957,-0.0640154,0.0897646,0.00506639,0.00898817,0.896347,5,0.1,1,0.8,-3.20999,-0.62666,0.655341,0.53004,0.118688,-0.00458658,-0.865221,-0.29093,0.0997782,0.00897522,1.96137,5,0.1,2,0.8,0.0286875,-3.53882,0.555778,-0.199412,0.369263,0.0268355,-0.0994766,0.278473,0.0133514,0.0168617,0.292438,5,0.1,3,0.8,3.47668,1.05499,0.70409,-0.0919998,0.866026,0.0239119,-0.0582933,0,0.0151396,0.0152003,2.13585,5,0.1,4,0.8,3.8776,-0.478028,0.649189,-0.165975,0.866025,-0.0141382,-0.105143,1.43051e-05,-0.0090003,0.0279596,2.25065,5,0.1,5,0.8,-0.980505,-1.62407,0.583463,0.866026,-0.0140399,0.00896305,0,-0.0089407,0.00566244,0.0176588,1.94765,5,0.1,6,0.8,-3.96394,-1.54432,0.583466,0.250018,0.866026,0.00507385,0.158429,0,0.00324845,0.0137488,2.22451,5,0.1,7,0.8,4.11715,2.34892,0.500475,-0.67786,0.395018,-0.00249147,-0.338316,0.196934,0.00792742,0.0315632,0.78109,5,0.1,8,0.8,-1.84696,-3.28927,0.691106,0.119483,0.276136,0.0357389,0.0596642,-0.278473,0.017792,0.0124381,0.286227,5,0.1,9,0.8,-2.7475,-0.57957,0.585137,-0.498641,0.233524,-0.0111714,0.614166,0.384122,-0.0836253,0.00980925,1.30637,5,0.1
0,0.9,-2.4934,-0.96603,0.586559,-0.48994,0.588728,0.0094275,0.0748336,-0.103019,0.00651553,0.00898817,0.896347,5,0.1,1,0.9,-3.16093,-0.616937,0.65541,0.454438,0.0701506,0.00613397,-0.662565,-0.629432,0.10955,0.00897522,1.96137,5,0.1,2,0.9,0.00827172,-3.50076,0.558526,-0.208426,0.389008,0.0280455,-0.0712543,0.109851,0.00956655,0.0168617,0.292438,5,0.1,3,0.9,3.46718,1.14159,0.706559,-0.0978738,0.866026,0.0254375,-0.0533164,0,0.0138469,0.0152003,2.13585,5,0.1,4,0.9,3.86046,-0.391425,0.647729,-0.176834,0.866025,-0.0150663,-0.100881,-1.78814e-06,-0.0086166,0.0279596,2.25065,5,0.1,5,0.9,-0.893903,-1.62552,0.584387,0.866026,-0.0149088,0.00951393,-3.72529e-06,-0.00762194,0.00482425,0.0176588,1.94765,5,0.1,6,0.9,-3.93811,-1.45772,0.583991,0.266388,0.866026,0.00540884,0.152141,0,0.00311062,0.0137488,2.22451,5,0.1,7,0.9,4.04775,2.38937,0.500265,-0.70851,0.412863,-0.00172229,-0.242218,0.141054,0.00730529,0.0315632,0.78109,5,0.1,8,0.9,-1.83462,-3.26335,0.694797,0.127962,0.239522,0.0382697,0.097245,-0.436947,0.0290424,0.0124381,0.286227,5,0.1,9,0.9,-2.79468,-0.553963,0.583601,-0.448545,0.280753,-0.0194453,0.408918,0.5139,-0.0781938,0.00980925,1.30637,5,0.1
0,1,-2.54174,-0.908036,0.587531,-0.473863,0.567442,0.00997782,0.250578,-0.325412,0.00393391,0.00881637,0.717681,5,0.1,1,1,-3.11857,-0.613287,0.656553,0.394684,0.00166297,0.0164524,-0.545263,-0.702083,0.0932217,0.00657804,0.650905,5,0.1,2,1,-0.0128169,-3.46163,0.561363,-0.212076,0.390297,0.0285342,0.00457972,-0.0869036,-0.000625849,0.0160375,0.256816,5,0.1,3,1,3.45717,1.22819,0.70916,-0.10168,0.866026,0.0264242,-0.0185966,0,0.00485778,0.0155746,1.68738,5,0.1,4,1,3.84235,-0.304823,0.646186,-0.184262,0.866025,-0.0157014,-0.0400543,1.43051e-05,-0.00339746,0.0272659,2.2485,5,0.1,5,1,-0.8073,-1.62704,0.585358,0.866026,-0.0154257,0.00984073,0,-0.00214577,0.0013411,0.00938777,1.52509,5,0.1,6,1,-3.91084,-1.37111,0.584544,0.277603,0.866026,0.0056386,0.0604391,-5.96046e-05,0.0012517,0.012662,2.21959,5,0.1,7,1,3.97607,2.43114,0.500127,-0.720918,0.420088,-0.00105351,0.0157356,-0.00917912,0.00593066,0.031044,0.53194,5,0.1,8,1,-1.82136,-3.24173,0.698762,0.136751,0.191808,0.0408947,0.0693798,-0.503898,0.0207126,0.0112104,0.153662,5,0.1,9,1,-2.83769,-0.523416,0.581299,-0.413013,0.328362,-0.0262037,0.318885,0.405416,-0.0545681,0.00966637,1.08387,5,0.1
0,1.1,-2.58748,-0.852609,0.588489,-0.437309,0.543375,0.00868076,0.466898,-0.188239,-0.0266694,0.00881637,0.717681,5,0.1,1,1.1,-3.08299,-0.616351,0.658789,0.307203,-0.0600319,0.0292204,-1.12972,-0.528105,0.150688,0.00657804,0.650905,5,0.1,2,1.1,-0.0339926,-3.42358,0.564212,-0.211146,0.365945,0.0284081,0.021773,-0.379011,-0.00293553,0.0160375,0.256816,5,0.1,3,1.1,3.44691,1.31479,0.711827,-0.103444,0.866003,0.0268845,-0.0120103,-0.00089407,0.00313669,0.0155746,1.68738,5,0.1,4,1.1,3.82369,-0.21822,0.644596,-0.189115,0.866025,-0.016113,-0.0460446,0,-0.0039041,0.0272659,2.2485,5,0.1,5,1.1,-0.7207,-1.6286,0.586348,0.86591,-0.015614,0.00995863,-0.00463799,-0.000961125,0.000596046,0.00938777,1.52509,5,0.1,6,1.1,-3.88272,-1.28451,0.585116,0.284937,0.866025,0.00578966,0.0697225,1.49012e-05,0.00143051,0.012662,2.21959,5,0.1,7,1.1,3.90408,2.47308,0.500049,-0.717739,0.418237,-0.000545382,0.0742227,-0.0431836,0.00421703,0.031044,0.53194,5,0.1,8,1.1,-1.80726,-3.22509,0.702978,0.145608,0.141165,0.0435404,0.0948831,-0.49825,0.0283495,0.0112104,0.153662,5,0.1,9,1.1,-2.87824,-0.488952,0.57849,-0.404893,0.356829,-0.0291837,-0.0990331,0.160392,-0.00724941,0.00966637,1.08387,5,0.1
0,1.2,-2.62861,-0.799203,0.589196,-0.383061,0.524232,0.00522137,0.60606,-0.217974,-0.0400245,0.0106519,0.543454,5,0.1,1,1.2,-3.05838,-0.624683,0.662482,0.182056,-0.103456,0.0445858,-1.31488,-0.339031,0.148028,0.00563135,0.337713,5,0.1,2,1.2,-0.0549184,-3.38921,0.567028,-0.206436,0.318402,0.0277743,0.0775474,-0.553727,-0.0104606,0.0146987,0.233256,5,0.1,3,1.2,3.43655,1.40138,0.71452,-0.103301,0.865665,0.0268474,0.0181198,-0.00709295,-0.00467896,0.0173723,1.41491,5,0.1,4,1.2,3.80461,-0.131618,0.64297,-0.191617,0.866025,-0.0163257,0.00369549,0,0.000357628,0.0269468,2.2481,5,0.1,5,1.2,-0.634169,-1.63016,0.587343,0.864172,-0.0155061,0.0098899,-0.0370741,0.00351667,-0.00229478,0.0092295,1.2815,5,0.1,6,1.2,-3.85397,-1.19791,0.5857,0.288743,0.866026,0.00586659,-0.005126,-5.96046e-05,-5.96046e-05,0.0133429,2.21863,5,0.1,7,1.2,3.83295,2.51453,0.500012,-0.701714,0.4089,-0.000211596,0.263929,-0.153661,0.002563,0.0269246,0.507081,5,0.1,8,1.2,-1.79227,-3.21338,0.707461,0.15353,0.0939786,0.0459075,0.0545979,-0.437975,0.0163019,0.0157837,0.260108,5,0.1,9,1.2,-2.91952,-0.45289,0.575598,-0.422609,0.360195,-0.0280902,-0.210762,-0.0919849,0.0270009,0.00735959,0.848502,5,0.1
0,1.3,-2.66447,-0.747648,0.58955,-0.338962,0.508352,0.00217482,0.309274,-0.127889,-0.0219643,0.0106519,0.543454,5,0.1,1,1.3,-3.04659,-0.636933,0.667819,0.0559807,-0.142907,0.0631607,-1.18375,-0.422146,0.208307,0.00563135,0.337713,5,0.1,2,1.3,-0.0751827,-3.36032,0.569754,-0.19877,0.258278,0.0267405,0.0821876,-0.63318,-0.0110716,0.0146987,0.233256,5,0.1,3,1.3,3.4263,1.48709,0.717182,-0.101501,0.840806,0.0263819,0.0216663,-0.463985,-0.00562146,0.0173723,1.41491,5,0.1,4,1.3,3.78541,-0.0450152,0.641335,-0.19255,0.866025,-0.0164014,-0.0115037,4.47035e-07,-0.000949949,0.0269468,2.2481,5,0.1,5,1.3,-0.548663,-1.63169,0.588321,0.839032,-0.0151543,0.00966117,-0.452269,0.00406057,-0.0026226,0.0092295,1.2815,5,0.1,6,1.3,-3.82504,-1.11131,0.586288,0.290199,0.866025,0.00589946,0.0178665,1.49012e-05,0.000391155,0.0133429,2.21863,5,0.1,7,1.3,3.76392,2.55467,0.500002,-0.68007,0.393712,-2.71015e-05,0.200599,-0.16281,0.00121072,0.0269246,0.507081,5,0.1,8,1.3,-1.77671,-3.20602,0.712113,0.156896,0.0548679,0.046912,0.00908971,-0.340715,0.00270456,0.0157837,0.260108,5,0.1,9,1.3,-2.96329,-0.417629,0.572975,-0.456152,0.342202,-0.0239321,-0.40777,-0.260573,0.0532307,0.00735959,0.848502,5,0.1
0,1.4,-2.69708,-0.697493,0.589681,-0.31532,0.493816,0.000634789,0.189185,-0.183016,-0.00971556,0.00779425,0.40323,5,0.1,1,1.4,-3.04654,-0.653283,0.675174,-0.0508428,-0.183059,0.0836074,-0.937104,-0.360489,0.189424,0.0089478,0.349102,5,0.1,2,1.4,-0.0945984,-3.33768,0.572366,-0.188932,0.194538,0.0254154,0.118803,-0.629544,-0.015974,0.0133069,0.212797,5,0.1,3,1.4,3.41629,1.56827,0.719784,-0.0983298,0.777626,0.0255585,0.0442266,-0.778198,-0.0114739,0.0140323,1.25085,5,0.1,4,1.4,3.76615,0.0415873,0.639694,-0.192064,0.866025,-0.0163585,0.0286102,-1.19209e-06,0.0025034,0.030471,2.24869,5,0.1,5,1.4,-0.467611,-1.63318,0.589271,0.776458,-0.0146031,0.00930727,-0.785291,0.00733137,-0.00464916,0.0104895,1.19673,5,0.1,6,1.4,-3.79601,-1.0247,0.586878,0.289524,0.866024,0.00588745,-0.0427961,2.98023e-05,-0.000864267,0.0148549,2.2199,5,0.1,7,1.4,3.69702,2.59313,0.500003,-0.656217,0.374222,4.61936e-05,0.298738,-0.2352,0.000327826,0.0272666,0.515644,5,0.1,8,1.4,-1.76107,-3.20206,0.716788,0.154781,0.0262558,0.0462785,-0.0534654,-0.23067,-0.015974,0.013174,0.25158,5,0.1,9,1.4,-3.01092,-0.384939,0.570872,-0.495088,0.309517,-0.0179693,-0.332713,-0.386059,0.0636578,0.00920124,0.645516,5,0.1
0,1.5,-2.72797,-0.648892,0.589712,-0.30483,0.478969,0.000150409,0.046581,-0.136547,-0.000763685,0.00779425,0.40323,5,0.1,1,1.5,-3.05636,-0.672649,0.684394,-0.145328,-0.197573,0.099815,-0.918224,0.0415444,0.131119,0.0089478,0.349102,5,0.1,2,1.5,-0.11302,-3.32128,0.574844,-0.180412,0.134446,0.0242702,0.0633175,-0.563473,-0.00851229,0.0133069,0.212797,5,0.1,3,1.5,3.40667,1.64144,0.722285,-0.0940926,0.680579,0.0244585,0.0436604,-1.08854,-0.0113435,0.0140323,1.25085,5,0.1,4,1.5,3.74702,0.12819,0.638065,-0.190818,0.866025,-0.0162468,0.00709295,7.45058e-07,0.000644475,0.030471,2.24869,5,0.1,5,1.5,-0.394653,-1.6346,0.59018,0.676407,-0.0139009,0.00886144,-1.16381,0.00716746,-0.00454858,0.0104895,1.19673,5,0.1,6,1.5,-3.76717,-0.938101,0.587465,0.287681,0.866026,0.00585001,-0.0103265,0,-0.000216067,0.0148549,2.2199,5,0.1,7,1.5,3.6326,2.62942,0.500009,-0.634205,0.351785,5.83939e-05,0.177041,-0.224158,-4.84288e-05,0.0272666,0.515644,5,0.1,8,1.5,-1.7459,-3.2004,0.721324,0.148151,0.00860579,0.0442972,-0.0811219,-0.127718,-0.0242442,0.013174,0.25158,5,0.1,9,1.5,-3.06226,-0.355999,0.569407,-0.532396,0.268587,-0.0112261,-0.372857,-0.428014,0.0690781,0.00920124,0.645516,5,0.1
0,1.6,-2.75828,-0.601752,0.589733,-0.301486,0.462662,0.000336766,0.0393391,-0.205398,0.0039041,0.00805165,0.293952,5,0.1,1,1.6,-3.07522,-0.691731,0.694911,-0.228608,-0.180003,0.10927,-0.723243,0.286013,0.0559986,0.00570931,0.1996,5,0.1,2,1.6,-0.130757,-3.31049,0.57723,-0.174246,0.0832558,0.023441,0.0685379,-0.455141,-0.00920892,0.0180984,0.200061,5,0.1,3,1.6,3.3975,1.70401,0.724669,-0.0890732,0.571617,0.0231549,0.0587702,-1.04791,-0.0153184,0.0128262,1.14843,5,0.1,4,1.6,3.72801,0.214792,0.636447,-0.18881,0.866025,-0.0160724,0.0406504,0,0.00348687,0.0261183,2.24974,5,0.1,5,1.6,-0.333108,-1.63596,0.591041,0.552739,-0.0130922,0.00835061,-1.27101,0.00917912,-0.00593066,0.00790615,1.13439,5,0.1,6,1.6,-3.73851,-0.851498,0.588047,0.28469,0.866026,0.0057891,-0.0610352,0,-0.0012517,0.012526,2.32844,5,0.1,7,1.6,3.5701,2.66343,0.500014,-0.614715,0.327617,4.17233e-05,0.238299,-0.266433,-0.000238419,0.0297355,0.542786,5,0.1,8,1.6,-1.73155,-3.20004,0.725615,0.138259,-0.000298023,0.0413403,-0.11766,-0.0549555,-0.0351965,0.0122452,0.49501,5,0.1,9,1.6,-3.11716,-0.331317,0.568624,-0.562733,0.224773,-0.00452697,-0.205398,-0.444204,0.0633299,0.0080637,0.487865,5,0.1
0,1.7,-2.78838,-0.556416,0.589794,-0.301542,0.444554,0.000933185,-0.0201166,-0.175066,0.00742078,0.00805165,0.293952,5,0.1,1,1.7,-3.10155,-0.708433,0.706151,-0.295814,-0.155179,0.115656,-0.599056,0.217292,0.0634715,0.00570931,0.1996,5,0.1,2,1.7,-0.147882,-3.30422,0.579534,-0.16847,0.0443306,0.0226649,0.0545941,-0.323102,-0.0073351,0.0180984,0.200061,5,0.1,3,1.7,3.38872,1.75608,0.726911,-0.0879779,0.473471,0.0217111,-0.0243783,-0.83226,-0.0142343,0.0128262,1.14843,5,0.1,4,1.7,3.70927,0.301395,0.634851,-0.186534,0.866025,-0.0158769,0.0154972,-8.9407e-07,0.00132993,0.0261183,2.24974,5,0.1,5,1.7,-0.284307,-1.63722,0.591848,0.423639,-0.012227,0.00779275,-1.25223,0.00850111,-0.00546128,0.00790615,1.13439,5,0.1,6,1.7,-3.71108,-0.764909,0.588639,0.257609,0.865364,0.00620736,-0.44401,-0.0264831,0.00820681,0.012526,2.32844,5,0.1,7,1.7,3.50954,2.69492,0.500017,-0.598273,0.302641,1.7602e-05,0.125229,-0.242069,-0.000242144,0.0297355,0.542786,5,0.1,8,1.7,-1.71833,-3.20038,0.729569,0.126047,-0.00650696,0.0376876,-0.127658,-0.0585169,-0.0381805,0.0122452,0.49501,5,0.1,9,1.7,-3.17423,-0.310812,0.56848,-0.575932,0.187541,0.00151489,-0.0445098,-0.31158,0.056304,0.0080637,0.487865,5,0.1
0,1.8,-2.8186,-0.512909,0.589926,-0.302017,0.42455,0.0017181,0.0249147,-0.237659,0.0077486,0.00920006,0.20913,5,0.1,1,1.8,-3.13377,-0.722932,0.717991,-0.344807,-0.135347,0.120564,-0.366688,0.184476,0.0288486,0.00640556,0.182034,5,0.1,2,1.8,-0.164428,-3.30119,0.58176,-0.162037,0.0184357,0.0218004,0.0793636,-0.197053,-0.0106692,0.0125733,0.363603,5,0.1,3,1.8,3.37974,1.8,0.729008,-0.0917554,0.412366,0.0201941,-0.0417233,-0.400662,-0.0165701,0.0145364,0.963738,5,0.1,4,1.8,3.69072,0.387997,0.633273,-0.183892,0.866025,-0.0156522,0.0447035,1.43051e-05,0.0038147,0.0267616,2.25093,5,0.1,5,1.8,-0.247807,-1.6384,0.592599,0.311145,-0.0113279,0.00721663,-0.967875,0.00965595,-0.00619888,0.00760466,1.05245,5,0.1,6,1.8,-3.68792,-0.678717,0.589307,0.202495,0.855434,0.00718236,-0.628591,-0.211835,0.0101924,0.0108438,2.46709,5,0.1,7,1.8,3.45039,2.72395,0.500018,-0.58372,0.277704,-4.47035e-06,0.190616,-0.262856,-0.000208616,0.0281601,0.484186,5,0.1,8,1.8,-1.70639,-3.20126,0.73314,0.112572,-0.0103414,0.0336587,-0.142276,-0.0121593,-0.0425577,0.0115959,0.614169,5,0.1,9,1.8,-3.23168,-0.293472,0.568893,-0.569427,0.160475,0.00653267,0.182509,-0.238389,0.0432432,0.00912317,0.43134,5,0.1
0,1.9,-2.84875,-0.471558,0.590139,-0.301395,0.402908,0.00255154,0.00363588,-0.210166,0.00846758,0.00920006,0.20913,5,0.1,1,1.9,-3.16988,-0.735925,0.73024,-0.37501,-0.127709,0.124683,-0.225231,-0.0077486,0.0446923,0.00640556,0.182034,5,0.1,2,1.9,-0.180195,-3.30021,0.583881,-0.152884,0.00228174,0.0205698,0.105274,-0.123873,-0.0141598,0.0125733,0.363603,5,0.1,3,1.9,3.37029,1.84017,0.730949,-0.0979111,0.398806,0.0186502,-0.071764,0.0660643,-0.0148751,0.0145364,0.963738,5,0.1,4,1.9,3.67248,0.4746,0.631721,-0.181276,0.866025,-0.015429,0.01809,-1.78814e-06,0.00154227,0.0267616,2.25093,5,0.1,5,1.9,-0.221033,-1.63949,0.593291,0.230879,-0.0104282,0.00664005,-0.582489,0.00864267,-0.00553206,0.00760466,1.05245,5,0.1,6,1.9,-3.67134,-0.593763,0.590096,0.124883,0.846859,0.00874,-0.879124,-0.0169575,0.0191294,0.0108438,2.46709,5,0.1,7,1.9,3.39362,2.75048,0.500016,-0.545719,0.253351,-2.08616e-05,0.545815,-0.231743,-0.000119209,0.0281601,0.484186,5,0.1,8,1.9,-1.69584,-3.20236,0.736292,0.0982504,-0.0112068,0.0293751,-0.144124,0.0158697,-0.0431053,0.0115959,0.614169,5,0.1,9,1.9,-3.28713,-0.27837,0.569739,-0.534249,0.14366,0.0101406,0.501603,-0.112621,0.0288337,0.00912317,0.43134,5,0.1
0,2,-2.8788,-0.432373,0.590434,-0.298554,0.379988,0.00333339,0.0642538,-0.25852,0.00685453,0.00690159,0.145491,5,0.1,1,2,-3.20819,-0.74889,0.742899,-0.387925,-0.132661,0.127992,-0.0259876,-0.0728369,0.015229,0.0101495,3.60783,5,0.1,2,2,-0.194905,-3.30047,0.58586,-0.140755,-0.00612736,0.0189379,0.137977,-0.0444651,-0.0185668,0.0154273,1.06562,5,0.1,3,2,3.36015,1.88072,0.732739,-0.104451,0.414401,0.0171229,-0.051856,0.19747,-0.0160933,0.0134173,0.761063,5,0.1,4,2,3.65447,0.561203,0.630188,-0.178492,0.866026,-0.0151917,0.0449419,0,0.00378489,0.0268569,2.25213,5,0.1,5,2,-0.2,-1.64049,0.593928,0.198031,-0.00954568,0.00607669,-0.0955909,0.00929832,-0.00590086,0.0106806,0.89668,5,0.1,6,2,-3.66336,-0.509226,0.591068,0.0345409,0.842188,0.0106886,-0.893712,-0.11766,0.0184774,0.0143055,2.42549,5,0.1,7,2,3.3422,2.77466,0.500014,-0.478965,0.23008,-2.98023e-05,0.768781,-0.239015,-2.98023e-05,0.0241826,0.457048,5,0.1,8,2,-1.68674,-3.20324,0.739013,0.0837743,-0.0043273,0.0250459,-0.145257,0.129223,-0.043422,0.0143779,1.77267,5,0.1,9,2,-3.33766,-0.264459,0.570873,-0.472778,0.135355,0.0122994,0.710487,-0.0647008,0.0143945,0.008507,0.362324,5,0.1
0,2.1,-2.90838,-0.395586,0.590802,-0.293206,0.356229,0.00401251,0.0556409,-0.22902,0.0063777,0.00690159,0.145491,5,0.1,1,2.1,-3.24474,-0.761647,0.755582,-0.322735,-0.114953,0.123918,1.19637,0.379402,-0.0901632,0.0101495,3.60783,5,0.1,2,2.1,-0.208294,-3.30139,0.587662,-0.127007,-0.0121277,0.0170881,0.138585,-0.0409037,-0.0186488,0.0154273,1.06562,5,0.1,3,2.1,3.34955,1.92357,0.734375,-0.106603,0.445334,0.0156377,0.00815094,0.372469,-0.0140965,0.0134173,0.761063,5,0.1,4,2.1,3.63678,0.647805,0.628681,-0.175845,0.866026,-0.0149701,0.0181943,-3.72529e-06,0.00151992,0.0268569,2.25213,5,0.1,5,2.1,-0.179748,-1.6414,0.594507,0.214642,-0.00868868,0.00553317,0.364385,0.00811368,-0.0051409,0.0106806,0.89668,5,0.1,6,2.1,-3.66372,-0.42497,0.592217,-0.0353906,0.847406,0.012177,-0.517741,0.154018,0.0109822,0.0143055,2.42549,5,0.1,7,2.1,3.29841,2.79654,0.500011,-0.394775,0.208137,-3.05474e-05,0.893772,-0.206232,1.49012e-05,0.0241826,0.457048,5,0.1,8,2.1,-1.67907,-3.20306,0.741307,0.0698691,0.0103492,0.0208889,-0.13309,0.266328,-0.0397824,0.0143779,1.77267,5,0.1,9,2.1,-3.38138,-0.251561,0.572167,-0.401593,0.119877,0.0134977,0.708565,-0.228431,0.00914931,0.008507,0.362324,5,0.1
0,2.2,-2.93735,-0.361142,0.591232,-0.28525,0.332097,0.00455081,0.112414,-0.262126,0.00414252,0.0112032,0.182765,5,0.1,1,2.2,-3.26993,-0.770823,0.767394,-0.172549,-0.0653148,0.111182,1.70171,0.575602,-0.158846,0.0105838,2.99957,5,0.1,2,2.2,-0.22029,-3.30259,0.589276,-0.112784,-0.00940561,0.0151739,0.146806,0.109434,-0.0197291,0.0122941,3.46416,5,0.1,3,2.2,3.33902,1.96992,0.735869,-0.102997,0.480464,0.0142217,0.0629425,0.294447,-0.0145137,0.0177606,0.239352,5,0.1,4,2.2,3.61931,0.734408,0.627194,-0.173104,0.866026,-0.0147402,0.0435114,0,0.00369549,0.027036,2.25329,5,0.1,5,2.2,-0.156133,-1.64223,0.595035,0.259697,-0.00787973,0.0050202,0.48802,0.00828505,-0.00527501,0.00801216,0.721525,5,0.1,6,2.2,-3.66931,-0.339458,0.593476,-0.0715673,0.861692,0.0128403,-0.218391,0.0866795,0.00211596,0.00791513,0.974744,5,0.1,7,2.2,3.26346,2.81634,0.500008,-0.304019,0.187755,-2.83122e-05,0.904679,-0.205874,5.96046e-05,0.0256878,0.2771,5,0.1,8,2.2,-1.67273,-3.2,0.743202,0.0571191,0.0576794,0.0170782,-0.121951,0.665784,-0.036478,0.0113812,3.24478,5,0.1,9,2.2,-3.41803,-0.240873,0.573551,-0.331903,0.0926346,0.0140637,0.6814,-0.303194,0.00190735,0.0102009,0.303949,5,0.1
0,2.3,-2.96536,-0.329245,0.591707,-0.274955,0.305682,0.00494095,0.10401,-0.271304,0.00339374,0.0112032,0.182765,5,0.1,1,2.3,-3.27781,-0.774152,0.777652,0.020925,0.00108173,0.0934317,2.06843,0.716906,-0.191588,0.0105838,2.99957,5,0.1,2,2.3,-0.230859,-3.30303,0.590698,-0.0987882,0.00442564,0.0132927,0.134662,0.314116,-0.0181012,0.0122941,3.46416,5,0.1,3,2.3,3.32916,2.01928,0.737223,-0.0932582,0.504651,0.0128919,0.126511,0.171192,-0.0124872,0.0177606,0.239352,5,0.1,4,2.3,3.60215,0.82101,0.625733,-0.170546,0.866026,-0.0145232,0.0175238,-3.72529e-06,0.00149012,0.027036,2.25329,5,0.1,5,2.3,-0.127359,-1.64298,0.595512,0.3182,-0.0071222,0.00453815,0.633785,0.0070855,-0.0045076,0.00801216,0.721525,5,0.1,6,2.3,-3.67812,-0.254874,0.594813,-0.108887,0.812086,0.0142459,-0.483185,-0.987965,0.0227094,0.00791513,0.974744,5,0.1,7,2.3,3.23748,2.83415,0.500005,-0.216977,0.168991,-2.23517e-05,0.824645,-0.174746,5.96046e-05,0.0256878,0.2771,5,0.1,8,2.3,-1.6676,-3.18939,0.744736,0.0457231,0.166759,0.0136697,-0.10623,1.39745,-0.031773,0.0113812,3.24478,5,0.1,9,2.3,-3.44842,-0.23313,0.574974,-0.281372,0.0623577,0.014435,0.357658,-0.295821,0.00452623,0.0102009,0.303949,5,0.1
0,2.4,-2.99228,-0.300082,0.592215,-0.262678,0.277015,0.00518411,0.148654,-0.305146,0.0012517,0.0072405,0.1623,5,0.1,1,2.4,-3.26545,-0.770466,0.786015,0.22378,0.0718653,0.0736907,1.9145,0.672281,-0.199527,0.0115323,2.43692,5,0.1,2,2.4,-0.240074,-3.3,0.591938,-0.085593,0.0661492,0.0115171,0.130281,0.900745,-0.017494,0.0172494,3.18192,5,0.1,3,2.4,3.32053,2.07028,0.73845,-0.0786722,0.511765,0.0116557,0.160575,-0.0401735,-0.012517,0.0114163,0.454723,5,0.1,4,2.4,3.5852,0.907613,0.62429,-0.1679,0.866026,-0.0142992,0.0422001,0,0.00360608,0.0262715,2.25442,5,0.1,5,2.4,-0.0924554,-1.64365,0.595944,0.378101,-0.0064224,0.00409484,0.528949,0.00697374,-0.00450015,0.00821339,0.558627,5,0.1,6,2.4,-3.69155,-0.179758,0.596363,-0.160325,0.680637,0.016804,-0.511765,-1.56647,0.0259578,0.00645486,0.277328,5,0.1,7,2.4,3.2197,2.85019,0.500003,-0.140995,0.151896,-1.63913e-05,0.68748,-0.171185,5.96046e-05,0.0276172,0.270479,5,0.1,8,2.4,-1.66353,-3.16532,0.745951,0.0358254,0.31631,0.0107095,-0.0919104,1.50323,-0.0274777,0.0125861,2.74678,5,0.1,9,2.4,-3.47511,-0.228317,0.576438,-0.255185,0.0345714,0.0147954,0.189424,-0.255421,0.00196695,0.00812189,0.243395,5,0.1
0,2.5,-3.01784,-0.274085,0.59274,-0.248876,0.241383,0.00529131,0.136063,-0.397976,0.000666827,0.0072405,0.1623,5,0.1,1,2.5,-3.23338,-0.759866,0.792386,0.416862,0.13997,0.0537994,1.87238,0.663161,-0.19512,0.0115323,2.43692,5,0.1,2,2.5,-0.247989,-3.28755,0.593003,-0.0727732,0.193312,0.00979509,0.125995,1.52828,-0.0169352,0.0172494,3.18192,5,0.1,3,2.5,3.31349,2.1215,0.739557,-0.0619303,0.51425,0.0105158,0.170663,0.0550896,-0.0106134,0.0114163,0.454723,5,0.1,4,2.5,3.56856,0.994215,0.622872,-0.165401,0.866026,-0.0140855,0.0173301,0,0.00148267,0.0262715,2.25442,5,0.1,5,2.5,-0.0519065,-1.64426,0.596332,0.432861,-0.00578817,0.00368627,0.529099,0.00590831,-0.00378862,0.00821339,0.558627,5,0.1,6,2.5,-3.71034,-0.119354,0.598204,-0.216474,0.529423,0.0202403,-0.576615,-1.44807,0.0393279,0.00645486,0.277328,5,0.1,7,2.5,3.20875,2.86458,0.500002,-0.0809584,0.13639,-1.09896e-05,0.512436,-0.143439,4.47035e-05,0.0276172,0.270479,5,0.1,8,2.5,-1.66039,-3.12564,0.746892,0.0273395,0.480084,0.00817263,-0.0779182,1.68057,-0.0232942,0.0125861,2.74678,5,0.1,9,2.5,-3.5001,-0.226072,0.577932,-0.248006,0.0110311,0.0151263,-0.0150353,-0.213063,0.00366941,0.00812189,0.243395,5,0.1
0,2.6,-3.04201,-0.252024,0.59327,-0.234014,0.199166,0.00528246,0.167251,-0.438452,-0.00101328,0.00839828,0.124297,5,0.1,1,2.6,-3.1829,-0.742748,0.796819,0.58549,0.199942,0.0352204,1.44732,0.517398,-0.174075,0.0130182,1.85168,5,0.1,2,2.6,-0.254644,-3.26031,0.593899,-0.060425,0.351721,0.00813454,0.120774,1.55342,-0.0162423,0.0115755,2.69828,5,0.1,3,2.6,3.30815,2.17312,0.740556,-0.0451803,0.516826,0.00947416,0.161648,-0.0286102,-0.0104308,0.0137159,0.339371,5,0.1,4,2.6,3.55213,1.08082,0.621473,-0.162798,0.866026,-0.0138626,0.0413656,0,0.00351667,0.0284477,2.07859,5,0.1,5,2.6,-0.0062246,-1.64481,0.596682,0.477601,-0.00520945,0.003317,0.339668,0.00578165,-0.00372529,0.0067122,0.410126,5,0.1,6,2.6,-3.73475,-0.073388,0.600423,-0.269687,0.392709,0.0240713,-0.462532,-1.27911,0.0347495,0.00692613,0.207389,5,0.1,7,2.6,3.20292,2.87752,0.500001,-0.0384092,0.12244,-5.96046e-06,0.340343,-0.13864,0,0.0323222,0.430848,5,0.1,8,2.6,-1.65802,-3.06956,0.747599,0.0202149,0.636595,0.00604242,-0.064671,1.38319,-0.0193417,0.0105824,1.36704,5,0.1,9,2.6,-3.52511,-0.225949,0.579459,-0.252783,-0.00766963,0.0153586,-0.0573397,-0.159569,0.000357628,0.0084856,0.189065,5,0.1
0,2.7,-3.06475,-0.234315,0.593796,-0.222109,0.155043,0.00527315,0.0861883,-0.437264,0.000432134,0.00839828,0.124297,5,0.1,1,2.7,-3.11742,-0.72022,0.799497,0.719972,0.249579,0.0186547,1.19324,0.454888,-0.154991,0.0130182,1.85168,5,0.1,2,2.7,-0.260111,-3.21694,0.594635,-0.0491777,0.517914,0.0066217,0.104673,1.68142,-0.0140816,0.0115755,2.69828,5,0.1,3,2.7,3.30441,2.22479,0.741455,-0.0298448,0.516954,0.00852905,0.142246,0.00362098,-0.00874698,0.0137159,0.339371,5,0.1,4,2.7,3.536,1.16742,0.6201,-0.160051,0.866026,-0.0136293,0.0222027,0,0.00188127,0.0284477,2.07859,5,0.1,5,2.7,0.0432293,-1.64531,0.596997,0.510681,-0.00468604,0.00298079,0.292793,0.00484288,-0.00309944,0.0067122,0.410126,5,0.1,6,2.7,-3.7639,-0.0396874,0.603006,-0.311771,0.288821,0.0275547,-0.361934,-0.827559,0.0327379,0.00692613,0.207389,5,0.1,7,2.7,3.20056,2.88912,0.5,-0.0109207,0.109939,-4.37722e-06,0.209972,-0.115097,2.6077e-05,0.0323222,0.430848,5,0.1,8,2.7,-1.6563,-2.99948,0.748115,0.0145083,0.75899,0.00433577,-0.0499263,1.02797,-0.0149272,0.0105824,1.36704,5,0.1,9,2.7,-3.55086,-0.227459,0.581,-0.263603,-0.0219442,0.0154493,-0.135228,-0.124196,0.000678003,0.0084856,0.189065,5,0.1
0,2.8,-3.08656,-0.220948,0.594325,-0.214118,0.11289,0.00530034,0.084877,-0.400737,-0.000208616,0.00941335,0.272032,5,0.1,1,2.8,-3.0402,-0.693228,0.800634,0.816208,0.28749,0.00459999,0.70107,0.28947,-0.124574,0.0103889,1.35702,5,0.1,2,2.8,-0.264529,-3.15713,0.59523,-0.0394002,0.672686,0.00530481,0.0912696,1.34969,-0.0122488,0.0147434,2.39659,5,0.1,3,2.8,3.30209,2.27637,0.742265,-0.0171781,0.51288,0.00767559,0.109553,-0.104308,-0.00852346,0.013066,0.246743,5,0.1,4,2.8,3.52013,1.25402,0.618749,-0.156885,0.866026,-0.0133589,0.0472069,-5.96046e-05,0.00396371,0.0299101,1.63688,5,0.1,5,2.8,0.0954889,-1.64575,0.59728,0.531267,-0.00421405,0.00267923,0.0991344,0.00464916,-0.00298023,0.0103263,0.287809,5,0.1,6,2.8,-3.79661,-0.0143935,0.605908,-0.33924,0.22195,0.0302508,-0.176311,-0.533421,0.0196993,0.00627152,0.200778,5,0.1,7,2.8,3.20031,2.89955,0.5,0.00388026,0.0987828,-2.98023e-06,0.0883341,-0.110865,5.96046e-05,0.030869,0.622888,5,0.1,8,2.8,-1.65507,-2.91927,0.74848,0.0101447,0.836527,0.00303239,-0.0377893,0.503182,-0.0113249,0.0118726,0.531376,5,0.1,9,2.8,-3.57786,-0.230205,0.582543,-0.275719,-0.0322405,0.0153616,-0.0898838,-0.0807792,-0.00295043,0.00667474,0.141913,5,0.1
0,2.9,-3.10761,-0.211568,0.594855,-0.207259,0.0757448,0.00529634,0.0623465,-0.33887,-0.000130385,0.00941335,0.272032,5,0.1,1,2.9,-2.95601,-0.663099,0.800502,0.859051,0.314011,-0.00688033,0.198364,0.224877,-0.103381,0.0103889,1.35702,5,0.1,2,2.9,-0.268044,-3.08383,0.595703,-0.0312115,0.78563,0.00420539,0.07331,0.886843,-0.00984594,0.0147434,2.39659,5,0.1,3,2.9,3.30087,2.32721,0.742993,-0.00766665,0.504173,0.00690697,0.0770092,-0.09197,-0.00708923,0.013066,0.246743,5,0.1,4,2.9,3.50465,1.34062,0.61743,-0.152984,0.86574,-0.0130312,0.0377446,-0.011377,0.00317767,0.0299101,1.63688,5,0.1,5,2.9,0.149097,-1.64615,0.597534,0.540146,-0.00379439,0.0024111,0.0551155,0.00386685,-0.00246242,0.0103263,0.287809,5,0.1,6,2.9,-3.8313,0.00579266,0.609029,-0.353082,0.187477,0.0321197,-0.0888109,-0.190381,0.0159778,0.00627152,0.200778,5,0.1,7,2.9,3.2011,2.90891,0.5,0.0109918,0.0888232,9.31323e-07,0.0337958,-0.0914186,2.23517e-05,0.030869,0.622888,5,0.1,8,2.9,-1.65423,-2.83397,0.748732,0.00689328,0.862335,0.00205813,-0.0276268,0.0649691,-0.00827387,0.0118726,0.531376,5,0.1,9,2.9,-3.60596,-0.233795,0.584066,-0.286549,-0.0391495,0.0151013,-0.108093,-0.056034,-0.0028871,0.00667474,0.141913,5,0.1
0,3,-3.128,-0.205565,0.595382,-0.19995,0.045611,0.0052318,0.0908375,-0.262156,-0.00137091,0.011526,0.259822,5,0.1,1,3,-2.86959,-0.630787,0.799343,0.866026,0.329798,-0.0158086,0,0.0802875,-0.074178,0.0120794,0.96288,5,0.1,2,3,-0.270823,-3.00171,0.596078,-0.0245921,0.84796,0.00331551,0.0597537,0.361323,-0.00804663,0.0123414,2.28562,5,0.1,3,3,3.30042,2.37704,0.743649,-0.00223517,0.490761,0.00621825,0.0305176,-0.19145,-0.00685453,0.0145594,0.175784,5,0.1,4,3,3.48957,1.42705,0.616145,-0.148165,0.861469,-0.0126228,0.0633001,-0.0911355,0.00536442,0.0289001,1.43039,5,0.1,5,3,0.203159,-1.64651,0.597763,0.538401,-0.00341833,0.0021711,-0.10556,0.0038147,-0.00235438,0.00665913,0.215974,5,0.1,6,3,-3.86683,0.0239219,0.612304,-0.355107,0.177752,0.033161,0.0554323,-0.0309783,0.00369549,0.00584389,0.187956,5,0.1,7,3,3.20216,2.91735,0.5,0.00796318,0.0799656,1.49012e-06,-0.100732,-0.0878572,2.98023e-05,0.0271106,0.822346,5,0.1,8,3,-1.65367,-2.7479,0.748901,0.00454783,0.853837,0.00135601,-0.0196099,-0.243902,-0.00584126,0.0110851,2.29789,5,0.1,9,3,-3.63506,-0.23794,0.585558,-0.294167,-0.0432368,0.0146776,-0.0312328,-0.0249669,-0.00602007,0.00806732,0.176145,5,0.1
0,3.1,-3.14756,-0.202172,0.595899,-0.191218,0.0236385,0.00508642,0.090152,-0.178912,-0.00169501,0.011526,0.259822,5,0.1,1,3.1,-2.783,-0.597448,0.797418,0.86542,0.33623,-0.0224191,-0.0242144,0.0353865,-0.0567697,0.0120794,0.96288,5,0.1,2,3.1,-0.273011,-2.9158,0.596373,-0.0194228,0.864897,0.00261916,0.0445377,0.0451654,-0.00600144,0.0123414,2.28562,5,0.1,3,3.1,3.30028,2.42523,0.744239,-0.00117645,0.473174,0.00560181,-0.0147223,-0.178307,-0.00566617,0.0145594,0.175784,5,0.1,4,3.1,3.47504,1.51171,0.614908,-0.142468,0.822765,-0.0121395,0.0562817,-0.640161,0.00477955,0.0289001,1.43039,5,0.1,5,3.1,0.256483,-1.64699,0.597969,0.527709,-0.00752117,0.00195941,-0.127309,-0.0758842,-0.00194833,0.00665913,0.215974,5,0.1,6,3.1,-3.90205,0.0419272,0.615644,-0.349032,0.185416,0.0336571,0.0782162,0.153589,0.00441074,0.00584389,0.187956,5,0.1,7,3.1,3.20235,2.92478,0.5,-0.00675507,0.0676468,2.8871e-06,-0.244573,-0.151217,3.72529e-06,0.0271106,0.822346,5,0.1,8,3.1,-1.6533,-2.66298,0.74901,0.00290778,0.850482,0.000867713,-0.0134632,0.103116,-0.00401214,0.0110851,2.29789,5,0.1,9,3.1,-3.66493,-0.242396,0.587007,-0.305307,-0.0458609,0.0143804,-0.160053,-0.0245729,-0.00104308,0.00806732,0.176145,5,0.1
0,3.2,-3.16619,-0.200577,0.596397,-0.180858,0.00944622,0.00486672,0.121355,-0.107139,-0.00280142,0.0101706,0.500549,5,0.1,1,3.2,-2.69678,-0.563808,0.794929,0.856346,0.334735,-0.0269622,-0.193834,-0.0737309,-0.0332892,0.0105669,0.678003,5,0.1,2,3.2,-0.27475,-2.82922,0.596607,-0.0155218,0.866026,0.00209361,0.034228,0,-0.00464916,0.0172908,2.27185,5,0.1,3,3.2,3.3,2.47156,0.744772,-0.00537038,0.452071,0.00505149,-0.0654459,-0.255942,-0.00548363,0.0191204,0.123181,5,0.1,4,3.2,3.4611,1.59017,0.61372,-0.135964,0.741085,-0.0115857,0.0777245,-0.959873,0.00661612,0.0314904,1.3271,5,0.1,5,3.2,0.308455,-1.64819,0.598156,0.509772,-0.0168175,0.00177026,-0.244081,-0.102401,-0.00187755,0.0080418,0.147175,5,0.1,6,3.2,-3.93645,0.061334,0.619021,-0.337452,0.203097,0.0337347,0.161529,0.176966,-0.00408292,0.00615102,0.178656,5,0.1,7,3.2,3.2,2.93074,0.500001,-0.0445306,0.0510395,2.98023e-06,-0.495672,-0.175238,-2.98023e-05,0.0231705,0.71299,5,0.1,8,3.2,-1.65307,-2.57733,0.74908,0.00180304,0.862086,0.000539422,-0.00882149,0.0787973,-0.00265241,0.0110705,2.27293,5,0.1,9,3.2,-3.69626,-0.247084,0.58844,-0.320727,-0.0476539,0.0142783,-0.125051,-0.00925362,-0.00184774,0.00962732,0.108784,5,0.1
0,3.3,-3.18367,-0.200181,0.59687,-0.168809,-0.00137105,0.00457829,0.12359,-0.0985619,-0.00306591,0.0101706,0.500549,5,0.1,1,3.3,-2.61198,-0.530711,0.792083,0.839923,0.326875,-0.0297535,-0.171095,-0.0941362,-0.0215173,0.0105669,0.678003,5,0.1,2,3.3,-0.276152,-2.74262,0.596796,-0.0126981,0.866026,0.00170991,0.0231266,0,-0.00314415,0.0172908,2.27185,5,0.1,3,3.3,3.29903,2.51556,0.745252,-0.0147253,0.428275,0.00455948,-0.11307,-0.234798,-0.00451878,0.0191204,0.123181,5,0.1,4,3.3,3.44771,1.65888,0.612592,-0.133258,0.629142,-0.0109766,-0.00910461,-1.20332,0.00595301,0.0314904,1.3271,5,0.1,5,3.3,0.358257,-1.65044,0.598324,0.486307,-0.0286378,0.0016015,-0.240972,-0.126481,-0.00154972,0.0080418,0.147175,5,0.1,6,3.3,-3.96945,0.0827379,0.622386,-0.322926,0.226383,0.0336492,0.141755,0.261816,0.000339001,0.00615102,0.178656,5,0.1,7,3.3,3.1925,2.93493,0.500001,-0.109702,0.0326999,4.65661e-07,-0.755221,-0.186265,-1.86265e-05,0.0231705,0.71299,5,0.1,8,3.3,-1.65292,-2.49088,0.749122,0.00109971,0.865779,0.000328198,-0.00542402,0.00984967,-0.00163168,0.0110705,2.27293,5,0.1,9,3.3,-3.72902,-0.25189,0.589862,-0.334399,-0.0483525,0.0141708,-0.128016,-0.00289083,-0.00102073,0.00962732,0.108784,5,0.1
0,3.4,-3.19991,-0.200729,0.597311,-0.155491,-0.00862293,0.00423789,0.145435,-0.0406876,-0.0038147,0.00784823,1.23915,5,0.1,1,3.4,-2.52905,-0.498598,0.789026,0.815976,0.314142,-0.0311047,-0.332952,-0.167519,-0.00491738,0.0101436,0.465674,5,0.1,2,3.4,-0.277318,-2.65602,0.596953,-0.0107385,0.866026,0.00144392,0.0167787,0,-0.00229478,0.0162948,2.27187,5,0.1,3,3.4,3.29698,2.55715,0.745685,-0.0264764,0.402617,0.00412017,-0.115395,-0.288606,-0.00438094,0.0113932,0.137748,5,0.1,4,3.4,3.4343,1.71586,0.611526,-0.135249,0.512269,-0.010328,-0.0200272,-1.09136,0.00730157,0.0299136,1.19424,5,0.1,5,3.4,0.405583,-1.65393,0.598476,0.458949,-0.0408083,0.00144988,-0.316709,-0.111341,-0.00149012,0.00821799,0.170363,5,0.1,6,3.4,-4.00098,0.106644,0.625747,-0.306952,0.250808,0.0334561,0.18692,0.207092,-0.00560284,0.0123995,3.20429,5,0.1,7,3.4,3.17769,2.93729,0.500001,-0.186366,0.0147164,0,-0.738621,-0.169396,-2.98023e-05,0.0251079,0.576171,5,0.1,8,3.4,-1.65284,-2.40428,0.749148,0.000679493,0.866026,0.000201166,-0.00303984,0,-0.00089407,0.0110283,0.835861,5,0.1,9,3.4,-3.76296,-0.256717,0.591271,-0.342888,-0.0479311,0.0139505,-0.0276566,0.0125021,-0.0038445,0.0070229,0.085329,5,0.1
0,3.5,-3.215,-0.201856,0.597622,-0.148516,-0.0136268,0.00120131,0.0127405,-0.0255564,-0.05107,0.00784823,1.23915,5,0.1,1,3.5,-2.449,-0.467998,0.7859,0.785386,0.297866,-0.0313156,-0.308588,-0.166917,0.001546,0.0101436,0.465674,5,0.1,2,3.5,-0.278322,-2.56942,0.597088,-0.00946727,0.866026,0.00126995,0.00946224,0,-0.0012964,0.0162948,2.27187,5,0.1,3,3.5,3.29357,2.59604,0.746077,-0.0432052,0.375837,0.00372771,-0.202805,-0.259295,-0.00360608,0.0113932,0.137748,5,0.1,4,3.5,3.42059,1.7619,0.610527,-0.139455,0.413364,-0.00965409,-0.0528544,-0.809416,0.00650436,0.0299136,1.19424,5,0.1,5,3.5,0.450205,-1.65867,0.598615,0.435858,-0.054829,0.00133738,-0.173608,-0.157259,-0.000856817,0.00821799,0.170363,5,0.1,6,3.5,-4.02922,0.133851,0.628992,-0.245022,0.302068,0.0308207,0.962526,0.73296,-0.0437312,0.0123995,3.20429,5,0.1,7,3.5,3.1552,2.93793,0.500001,-0.263881,-0.00180304,-1.86265e-06,-0.77191,-0.157088,-1.49012e-05,0.0251079,0.576171,5,0.1,8,3.5,-1.65278,-2.31769,0.749165,0.000496209,0.865398,0.000147801,-0.000834465,-0.0250936,-0.000234693,0.0110283,0.835861,5,0.1,9,3.5,-3.79748,-0.261452,0.592651,-0.347756,-0.0467786,0.0136775,-0.0485927,0.0124928,-0.00236556,0.0070229,0.085329,5,0.1
0,3.6,-3.22988,-0.20312,0.597449,-0.149649,-0.00900887,-0.00493675,-0.0213385,0.131354,-0.0671148,0.00938422,1.13742,5,0.1,1,3.6,-2.37216,-0.439104,0.782793,0.749266,0.279275,-0.0306591,-0.434279,-0.210851,0.0120699,0.011895,0.842156,5,0.1,2,3.6,-0.279228,-2.48281,0.59721,-0.00870153,0.866026,0.00116527,0.0064671,0,-0.000864267,0.0115633,2.27187,5,0.1,3,3.6,3.2882,2.6323,0.746432,-0.0641644,0.348675,0.0033766,-0.204206,-0.292182,-0.00351667,0.0137735,0.177546,5,0.1,4,3.6,3.4064,1.8,0.609595,-0.143886,0.356701,-0.00897199,-0.0275373,-0.338018,0.00736117,0.0295726,1.00524,5,0.1,5,3.6,0.492967,-1.66493,0.598745,0.419304,-0.0702024,0.00126213,-0.178218,-0.141442,-0.000715256,0.00612817,0.407882,5,0.1,6,3.6,-4.04824,0.168013,0.631816,-0.130391,0.382419,0.025326,1.26004,0.809394,-0.0634491,0.0096386,2.62046,5,0.1,7,3.6,3.12517,2.93701,0.500001,-0.333923,-0.0160396,-1.49012e-06,-0.600338,-0.124931,-2.98023e-05,0.0299641,0.439745,5,0.1,8,3.6,-1.65273,-2.23147,0.749179,0.000476837,0.855982,0.000143051,0.000298023,-0.200629,8.9407e-05,0.0105307,0.26306,5,0.1,9,3.6,-3.83239,-0.266055,0.594004,-0.349051,-0.0451088,0.01335,0.0374317,0.0222027,-0.00470877,0.0101846,0.0395785,5,0.1
0,3.7,-3.24507,-0.203184,0.596586,-0.155134,0.0109578,-0.0125554,-0.0739098,0.317352,-0.0808723,0.00938422,1.13742,5,0.1,1,3.7,-2.29897,-0.411873,0.779789,0.717817,0.268216,-0.0293704,-0.23897,-0.0375975,0.0144318,0.011895,0.842156,5,0.1,2,3.7,-0.280076,-2.39621,0.597323,-0.0083169,0.866026,0.00111423,0.00196695,0,-0.00026077,0.0115633,2.27187,5,0.1,3,3.7,3.28061,2.66597,0.746755,-0.0886001,0.32676,0.0031122,-0.266075,-0.167832,-0.00200048,0.0137735,0.177546,5,0.1,4,3.7,3.39184,1.83495,0.608733,-0.147486,0.350444,-0.00829399,-0.0356287,0.147507,0.0064671,0.0295726,1.00524,5,0.1,5,3.7,0.534414,-1.6726,0.598868,0.412752,-0.0823066,0.00118911,0.0101849,-0.0976473,-0.00077486,0.00612817,0.407882,5,0.1,6,3.7,-4.05446,0.210697,0.634007,0.00965297,0.473524,0.018316,1.4745,0.947896,-0.0742935,0.0096386,2.62046,5,0.1,7,3.7,3.08879,2.9348,0.5,-0.392705,-0.0277422,-2.51457e-06,-0.544637,-0.106186,3.72529e-06,0.0299641,0.439745,5,0.1,8,3.7,-1.65268,-2.14707,0.749195,0.000560656,0.829698,0.000168197,0.0012219,-0.340924,0.000372529,0.0105307,0.26306,5,0.1,9,3.7,-3.86707,-0.270451,0.595315,-0.343717,-0.0427394,0.0128556,0.0799149,0.026105,-0.00555813,0.0101846,0.0395785,5,0.1
0,3.8,-3.26094,-0.2,0.594933,-0.161934,0.0574004,-0.020349,-0.0513792,0.591524,-0.0717342,0.00802352,0.975396,5,0.1,1,3.8,-2.22836,-0.385138,0.776933,0.69384,0.266983,-0.0276551,-0.272632,-0.00752509,0.0202954,0.00959965,0.624051,5,0.1,2,3.8,-0.2809,-2.30961,0.597433,-0.00817925,0.866026,0.00109524,0.00135601,0,-0.000149012,0.0142682,2.27187,5,0.1,3,3.8,3.27044,2.69786,0.747058,-0.114191,0.311345,0.00293851,-0.231981,-0.156522,-0.00169873,0.0128915,0.135105,5,0.1,4,3.8,3.37696,1.87109,0.607936,-0.149506,0.374663,-0.00763237,0.0013113,0.286818,0.00694394,0.0268512,0.797675,5,0.1,5,3.8,0.575801,-1.68122,0.598983,0.414908,-0.0892639,0.00110269,0.00563264,-0.0398159,-0.000953674,0.00830965,0.308352,5,0.1,6,3.8,-4.04621,0.262579,0.635466,0.152957,0.560825,0.0109002,1.34206,0.751213,-0.0721514,0.0151855,2.06129,5,0.1,7,3.8,3.04709,2.93155,0.5,-0.437683,-0.036788,-1.49012e-06,-0.333786,-0.0727177,2.98023e-05,0.0243819,0.196542,5,0.1,8,3.8,-1.65262,-2.06614,0.749213,0.000697374,0.785315,0.000210106,0.00137091,-0.555515,0.00038743,0.0118272,2.43503,5,0.1,9,3.8,-3.9009,-0.274581,0.596569,-0.331336,-0.0397407,0.0121757,0.174284,0.0344217,-0.00828505,0.00669957,0.0151762,5,0.1
0,3.9,-3.27745,-0.190678,0.592534,-0.168331,0.133749,-0.0275961,-0.065282,0.875751,-0.0698753,0.00802352,0.975396,5,0.1,1,3.9,-2.16009,-0.358306,0.774267,0.673196,0.270819,-0.0256754,-0.175461,0.063017,0.0199266,0.00959965,0.624051,5,0.1,2,3.9,-0.281717,-2.22301,0.597543,-0.00821264,0.866026,0.00110241,-0.00134669,0,0.000204891,0.0142682,2.27187,5,0.1,3,3.9,3.25816,2.72832,0.747344,-0.128519,0.2984,0.00280403,-0.0617802,-0.116631,-0.00113994,0.0128915,0.135105,5,0.1,4,3.9,3.36214,1.91041,0.607205,-0.145777,0.414599,-0.00699544,0.0715554,0.461832,0.00602379,0.0268512,0.797675,5,0.1,5,3.9,0.617514,-1.69031,0.599088,0.420528,-0.0920886,0.00101076,0.077825,-0.0142083,-0.000912696,0.00830965,0.308352,5,0.1,6,3.9,-4.02416,0.322493,0.636195,0.287249,0.63692,0.00371635,1.29391,0.720642,-0.06973,0.0151855,2.06129,5,0.1,7,3.9,3.00187,2.92768,0.5,-0.464331,-0.038895,9.31323e-07,-0.184909,0.0230074,1.49012e-05,0.0243819,0.196542,5,0.1,8,3.9,-1.65254,-1.98905,0.749236,0.000845082,0.767333,0.000252575,0.00148267,0.0971258,0.000432134,0.0118272,2.43503,5,0.1,9,3.9,-3.9331,-0.27838,0.597744,-0.311931,-0.0361797,0.0113032,0.218183,0.0371356,-0.0093244,0.00669957,0.0151762,5,0.1
0,4,-3.29455,-0.17286,0.58945,-0.173062,0.222095,-0.0337556,-0.0214577,0.846296,-0.0509918,0.00763056,0.781485,5,0.1,1,4,-2.09372,-0.330936,0.771802,0.652736,0.27593,-0.0235662,-0.258684,0.0238717,0.02262,0.0124967,0.471244,5,0.1,2,4,-0.282545,-2.1364,0.597654,-0.00833124,0.866026,0.00112057,-0.000551343,0,5.96046e-05,0.01084,2.27187,5,0.1,3,4,3.24523,2.75754,0.747619,-0.127935,0.28559,0.00268519,0.0667572,-0.149488,-0.0013411,0.0121754,0.1597,5,0.1,4,4,3.34802,1.95413,0.606536,-0.135565,0.458357,-0.00638962,0.130534,0.376761,0.00625849,0.0309315,0.616937,5,0.1,5,4,0.65988,-1.69953,0.599185,0.425515,-0.0917107,0.000917912,0.0012815,0.0232458,-0.00101328,0.00708119,0.225372,5,0.1,6,4,-3.98938,0.389402,0.636234,0.403231,0.696472,-0.00273734,0.990629,0.435622,-0.0580847,0.0119641,1.77097,5,0.1,7,4,2.95485,2.92402,0.5,-0.472391,-0.0335693,2.98023e-06,0.0319481,0.0773668,-2.98023e-05,0.027853,0.124767,5,0.1,8,4,-1.65245,-1.91142,0.749264,0.000977516,0.787413,0.000292063,0.00113249,0.229955,0.000327826,0.0106563,2.31804,5,0.1,9,4,-3.9631,-0.281805,0.598825,-0.287044,-0.032264,0.0102848,0.281692,0.0413209,-0.0110865,0.00778008,0.00737492,5,0.1
0,4.1,-3.31199,-0.146251,0.585825,-0.175636,0.310595,-0.0386374,-0.0210702,0.878456,-0.0440553,0.00763056,0.781485,5,0.1,1,4.1,-2.02958,-0.303578,0.769554,0.630958,0.267946,-0.0214269,-0.205182,-0.172924,0.0207052,0.0124967,0.471244,5,0.1,2,4.1,-0.283385,-2.0498,0.597767,-0.00850204,0.866026,0.00114245,-0.00223517,0,0.000294298,0.01084,2.27187,5,0.1,3,4.1,3.23295,2.78547,0.747882,-0.116235,0.273711,0.00258572,0.160232,-0.102863,-0.000804663,0.0121754,0.1597,5,0.1,4,4.1,3.33524,2.00199,0.605926,-0.119037,0.499312,-0.00581825,0.193819,0.403561,0.00535324,0.0309315,0.616937,5,0.1,5,4.1,0.702531,-1.70857,0.599272,0.427847,-0.0889353,0.000823289,0.0224598,0.034377,-0.00090152,0.00708119,0.225372,5,0.1,6,4.1,-3.94408,0.4612,0.635678,0.50197,0.738217,-0.00825524,0.935927,0.35988,-0.0509322,0.0119641,1.77097,5,0.1,7,4.1,2.90786,2.92112,0.5,-0.466098,-0.0238042,5.58794e-07,0.105932,0.11234,-1.49012e-05,0.027853,0.124767,5,0.1,8,4.1,-1.65235,-1.83109,0.749295,0.00109468,0.821822,0.000326522,0.00112504,0.391625,0.000335276,0.0106563,2.31804,5,0.1,9,4.1,-3.99039,-0.284828,0.599798,-0.258563,-0.0281957,0.00918237,0.291079,0.040289,-0.0110827,0.00778008,0.00737492,5,0.1
0,4.2,-3.3296,-0.111052,0.58177,-0.175768,0.390029,-0.0421345,0.0245571,0.677902,-0.0241101,0.00857381,0.591815,5,0.1,1,4.2,-1.96761,-0.277899,0.767515,0.606894,0.243363,-0.0193357,-0.295699,-0.309214,0.0215173,0.00894602,0.362803,5,0.1,2,4.2,-0.284245,-1.9632,0.597883,-0.00867173,0.866026,0.00116378,-0.000685453,-5.96046e-05,0.000119209,0.0134282,2.16912,5,0.1,3,4.2,3.22223,2.81231,0.748136,-0.0972092,0.262505,0.00249743,0.2141,-0.131607,-0.00104308,0.014793,0.258389,5,0.1,4,4.2,3.32436,2.05373,0.605371,-0.0979304,0.532466,-0.00528544,0.223041,0.2321,0.00542402,0.0316574,0.45763,5,0.1,5,4.2,0.74531,-1.71726,0.599349,0.426124,-0.0844955,0.000734627,-0.0728369,0.0557899,-0.000923872,0.00772625,0.159357,5,0.1,6,4.2,-3.88962,0.536433,0.634619,0.582248,0.76185,-0.0126988,0.635862,0.0861287,-0.0370741,0.0130587,1.2696,5,0.1,7,4.2,2.86198,2.91932,0.5,-0.449264,-0.0120878,0,0.237942,0.11754,-2.98023e-05,0.0209395,0.166822,5,0.1,8,4.2,-1.65223,-1.74712,0.749329,0.00118911,0.854787,0.000353158,0.000715256,0.224769,0.000238419,0.0144588,1.99644,5,0.1,9,4.2,-4.01475,-0.287446,0.60066,-0.228357,-0.0241704,0.0080511,0.314474,0.0403076,-0.0116229,0.00640929,0.00218085,5,0.1
0,4.3,-3.34706,-0.0686809,0.577441,-0.173575,0.456283,-0.0443187,0.026539,0.612278,-0.0175238,0.00857381,0.591815,5,0.1,1,4.3,-1.90828,-0.255299,0.765684,0.580435,0.207032,-0.0173373,-0.256501,-0.405612,0.018917,0.00894602,0.362803,5,0.1,2,4.3,-0.285119,-1.8766,0.598,-0.00882116,0.866025,0.00118585,-0.00173412,1.49012e-05,0.000249594,0.0134282,2.16912,5,0.1,3,4.3,3.21364,2.83786,0.748381,-0.0741996,0.248086,0.00238037,0.238568,-0.160858,-0.00133738,0.014793,0.258389,5,0.1,4,4.3,3.3157,2.10817,0.604868,-0.0753418,0.555937,-0.00479231,0.22468,0.206754,0.00460073,0.0316574,0.45763,5,0.1,5,4.3,0.787615,-1.72544,0.599419,0.420078,-0.0789482,0.000649691,-0.0664778,0.0569969,-0.000789762,0.00772625,0.159357,5,0.1,6,4.3,-3.82829,0.613027,0.633173,0.642506,0.768993,-0.0160922,0.531599,0.0250638,-0.0297613,0.0130587,1.2696,5,0.1,7,4.3,2.8181,2.91856,0.5,-0.429478,-0.00439398,-1.39698e-06,0.177994,0.042066,-3.72529e-06,0.0209395,0.166822,5,0.1,8,4.3,-1.65211,-1.66096,0.749365,0.00126045,0.865323,0.000376627,0.000633299,0.0280961,0.000208616,0.0144588,1.99644,5,0.1,9,4.3,-4.03602,-0.289665,0.601408,-0.19702,-0.0202462,0.00690436,0.312328,0.0381581,-0.0113286,0.00640929,0.00218085,5,0.1
0,4.4,-3.36424,-0.0203339,0.572946,-0.169253,0.506604,-0.045298,0.0647306,0.370257,-0.000715256,0.00666532,0.42401,5,0.1,1,4.4,-1.8516,-0.236702,0.764044,0.551707,0.164375,-0.0154734,-0.333846,-0.437975,0.0186861,0.0100415,0.28758,5,0.1,2,4.4,-0.286008,-1.78999,0.59812,-0.00892207,0.866026,0.00120103,0.00013411,-5.96046e-05,0,0.0161483,1.71948,5,0.1,3,4.4,3.2074,2.86179,0.748611,-0.0507891,0.229692,0.00222176,0.223994,-0.209451,-0.00184774,0.0121175,0.253496,5,0.1,4,4.4,3.30926,2.16455,0.604411,-0.0537038,0.568682,-0.00433922,0.205159,0.0270605,0.00455976,0.0318736,0.328417,5,0.1,5,4.4,0.829178,-1.73303,0.59948,0.409733,-0.0727952,0.000573695,-0.153065,0.0672936,-0.000745058,0.00942008,0.109809,5,0.1,6,4.4,-3.76181,0.68974,0.631434,0.682276,0.761588,-0.0184819,0.238299,-0.194222,-0.0173748,0.0091646,1.0786,5,0.1,7,4.4,2.77607,2.91824,0.5,-0.410223,-0.00262856,-1.49012e-06,0.221491,-0.00214577,0,0.024652,0.496769,5,0.1,8,4.4,-1.65198,-1.57437,0.749404,0.00130534,0.866026,0.000391901,0.000178814,0,5.96046e-05,0.0109046,1.5639,5,0.1,9,4.4,-4.05417,-0.291503,0.602042,-0.165915,-0.016544,0.00578612,0.309229,0.0358224,-0.0110865,0.00771947,0.0011174,5,0.1
0,4.5,-3.38086,0.0321145,0.568416,-0.163158,0.541019,-0.0452484,0.0631064,0.290516,0.00337884,0.00666532,0.42401,5,0.1,1,4.5,-1.79799,-0.222442,0.762584,0.521177,0.121142,-0.0137595,-0.295632,-0.419482,0.0159852,0.0100415,0.28758,5,0.1,2,4.5,-0.286901,-1.70339,0.59824,-0.0089441,0.866025,0.00120541,-0.000124797,1.49012e-05,2.6077e-05,0.0161483,1.71948,5,0.1,3,4.5,3.20342,2.88367,0.748824,-0.029356,0.207505,0.00202265,0.1975,-0.234485,-0.00213832,0.0121175,0.253496,5,0.1,4,4.5,3.30487,2.22157,0.603999,-0.0347104,0.571216,-0.00392608,0.172392,-0.000879169,0.0038296,0.0318736,0.328417,5,0.1,5,4.5,0.869438,-1.73999,0.599534,0.395603,-0.0663782,0.000506081,-0.144515,0.0626519,-0.000625849,0.00942008,0.109809,5,0.1,6,4.5,-3.6923,0.76495,0.629506,0.707687,0.742183,-0.0199865,0.229925,-0.219814,-0.0118949,0.0091646,1.0786,5,0.1,7,4.5,2.73574,2.91783,0.5,-0.399744,-0.00686757,-4.65661e-07,0.0241846,-0.0737458,1.11759e-05,0.024652,0.496769,5,0.1,8,4.5,-1.65185,-1.48777,0.749443,0.00132211,0.865934,0.000397582,0.000104308,-0.00365078,3.35276e-05,0.0109046,1.5639,5,0.1,9,4.5,-4.06924,-0.292983,0.602566,-0.135838,-0.0131247,0.00471482,0.291258,0.0324715,-0.0103079,0.00771947,0.0011174,5,0.1
0,4.6,-3.39682,0.0873534,0.563926,-0.155652,0.560123,-0.0443459,0.0911951,0.0732398,0.0157356,0.00930043,0.291375,5,0.1,1,4.6,-1.74741,-0.212346,0.761286,0.489396,0.0817008,-0.01221,-0.353038,-0.364333,0.0153482,0.00884168,3.21943,5,0.1,2,4.6,-0.287793,-1.61679,0.59836,-0.00887066,0.866026,0.00119507,0.00189245,0,-0.000238419,0.010844,1.32626,5,0.1,3,4.6,3.20138,2.90321,0.749015,-0.0124037,0.182813,0.0017941,0.137448,-0.258684,-0.00241399,0.0110021,0.411518,5,0.1,4,4.6,3.30219,2.27848,0.603625,-0.0195682,0.564408,-0.00354946,0.129223,-0.151753,0.00378489,0.0289495,0.230731,5,0.1,5,4.6,0.90819,-1.74631,0.599581,0.378315,-0.059998,0.000447035,-0.211418,0.0659823,-0.000596046,0.00590285,0.127583,5,0.1,6,4.6,-3.62066,0.837855,0.627463,0.721508,0.71331,-0.020726,0.0189543,-0.374854,-0.00241399,0.00867316,0.754035,5,0.1,7,4.6,2.6958,2.91671,0.5,-0.399101,-0.0157952,1.49012e-06,0.0157356,-0.09799,0,0.0216162,1.14003,5,0.1,8,4.6,-1.65172,-1.40122,0.749483,0.00131428,0.864568,0.000394881,-0.000238419,-0.0292063,-5.96046e-05,0.0155156,2.28083,5,0.1,9,4.6,-4.0814,-0.29414,0.602988,-0.107849,-0.0100657,0.00372976,0.267744,0.0286251,-0.00941753,0.00812356,0.00100182,5,0.1
0,4.7,-3.41195,0.143694,0.559568,-0.147094,0.56573,-0.0427776,0.0848472,0.0167061,0.017006,0.00930043,0.291375,5,0.1,1,4.7,-1.69921,-0.206023,0.760138,0.483088,0.0450436,-0.0107815,0.153162,-0.348371,0.0134818,0.00884168,3.21943,5,0.1,2,4.7,-0.288672,-1.53019,0.598479,-0.00870391,0.865779,0.00117356,0.0018049,-0.00987947,-0.000234693,0.010844,1.32626,5,0.1,3,4.7,3.20082,2.92022,0.749182,0.000451878,0.15754,0.00155689,0.0995845,-0.247478,-0.00233576,0.0110021,0.411518,5,0.1,4,4.7,3.30082,2.33419,0.603287,-0.00851415,0.549706,-0.00320775,0.0886768,-0.162289,0.00316277,0.0289495,0.230731,5,0.1,5,4.7,0.945245,-1.75202,0.599623,0.364892,-0.0545181,0.000399072,-0.0835992,0.0465363,-0.000383705,0.00590285,0.127583,5,0.1,6,4.7,-3.54862,0.907382,0.625381,0.717016,0.677398,-0.020842,-0.125691,-0.364922,0.000771135,0.00867316,0.754035,5,0.1,7,4.7,2.6553,2.91475,0.5,-0.416214,-0.0226211,1.49012e-06,-0.300124,-0.045225,0,0.0216162,1.14003,5,0.1,8,4.7,-1.65136,-1.31477,0.749522,0.00774227,0.865152,0.000378955,0.114411,0.0182316,-0.000249594,0.0155156,2.28083,5,0.1,9,4.7,-4.0909,-0.295009,0.603315,-0.0824675,-0.00739614,0.00284119,0.238776,0.0246894,-0.00831857,0.00812356,0.00100182,5,0.1
0,4.8,-3.42622,0.200109,0.555387,-0.137866,0.559784,-0.0407159,0.102997,-0.150241,0.0251234,0.0083154,0.194987,5,0.1,1,4.8,-1.6498,-0.203102,0.759126,0.50706,0.0152569,-0.00946969,0.270367,-0.235505,0.0129342,0.00805046,3.13011,5,0.1,2,4.8,-0.289531,-1.44374,0.598595,-0.00844896,0.862071,0.00113994,0.00356138,-0.0789762,-0.000476837,0.0107763,0.993548,5,0.1,3,4.8,3.20118,2.93475,0.749326,0.00474453,0.13321,0.0013262,-0.0214577,-0.239253,-0.00229478,0.0139223,0.397365,5,0.1,4,4.8,3.30033,2.3882,0.602982,-0.00221133,0.528616,-0.00289828,0.0370741,-0.27287,0.00306964,0.0274116,0.16038,5,0.1,5,4.8,0.981349,-1.75725,0.599661,0.357005,-0.0501871,0.000365078,-0.0935197,0.0422597,-0.000298023,0.00681443,0.0753145,5,0.1,6,4.8,-3.47789,0.973171,0.623311,0.693697,0.636731,-0.0204623,-0.350714,-0.46283,0.00724196,0.00884875,0.627802,5,0.1,7,4.8,2.61205,2.91231,0.5,-0.449014,-0.0259399,1.49012e-06,-0.312448,-0.02563,0,0.0279536,0.934354,5,0.1,8,4.8,-1.64992,-1.2282,0.749558,0.0216365,0.866026,0.000345707,0.152409,0,-0.000417233,0.0108012,1.46113,5,0.1,9,4.8,-4.098,-0.295633,0.60356,-0.0602484,-0.00514016,0.00206977,0.204325,0.0203848,-0.00706315,0.0111026,0.000802338,5,0.1
0,4.9,-3.43952,0.255344,0.551436,-0.128271,0.544514,-0.0383127,0.0929534,-0.173408,0.0240952,0.0083154,0.194987,5,0.1,1,4.9,-1.59723,-0.202716,0.75824,0.547752,-0.00606519,-0.00829911,0.483014,-0.149939,0.0107326,0.00805046,3.13011,5,0.1,2,4.9,-0.290359,-1.35763,0.598706,-0.00811783,0.861742,0.00109524,0.00335835,0.0217184,-0.000454485,0.0107763,0.993548,5,0.1,3,4.9,3.20139,2.94676,0.749448,-0.00277944,0.106207,0.0011093,-0.156894,-0.291869,-0.00205263,0.0139223,0.397365,5,0.1,4,4.9,3.30022,2.43976,0.602707,-0.000698864,0.502684,-0.00262139,-0.0117719,-0.26232,0.00255927,0.0274116,0.16038,5,0.1,5,4.9,1.01667,-1.76208,0.599697,0.349921,-0.0464812,0.000340398,-0.0654235,0.0337958,-0.000212342,0.00681443,0.0753145,5,0.1,6,4.9,-3.41105,1.03464,0.621301,0.636211,0.593179,-0.0197081,-0.767186,-0.426244,0.00840425,0.00884875,0.627802,5,0.1,7,4.9,2.56531,2.90968,0.5,-0.48728,-0.026077,1.39698e-06,-0.408232,0.00554323,-3.72529e-06,0.0279536,0.934354,5,0.1,8,4.9,-1.64714,-1.1416,0.749591,0.0326764,0.865868,0.000311341,0.0718981,-0.00632554,-0.000286847,0.0108012,1.46113,5,0.1,9,4.9,-4.10306,-0.296051,0.603733,-0.0413962,-0.00329074,0.00142036,0.172049,0.0165738,-0.00591204,0.0111026,0.000802338,5,0.1
0,5,-3.45187,0.308769,0.547731,-0.118595,0.522073,-0.0357047,0.103593,-0.287414,0.0288188,0.00649877,0.128734,5,0.1,1,5,-1.5401,-0.20369,0.757461,0.593194,-0.00914261,-0.00727922,0.381768,0.10328,0.00989437,0.00871053,2.9495,5,0.1,2,5,-0.291153,-1.27152,0.598813,-0.007727,0.85777,0.00104308,0.00466406,-0.136852,-0.000655651,0.0124293,0.715424,5,0.1,3,5,3.2,2.9559,0.749549,-0.0281394,0.0764191,0.000913441,-0.337243,-0.296593,-0.00187755,0.0125612,0.344197,5,0.1,4,5,3.3,2.48862,0.602457,-0.00469089,0.473386,-0.00237077,-0.0644922,-0.33462,0.00247359,0.0268886,0.110728,5,0.1,5,5,1.05127,-1.76656,0.59973,0.340992,-0.0431001,0.000318885,-0.12517,0.0352859,-0.000208616,0.00829454,0.0874034,5,0.1,6,5,-3.35173,1.09176,0.619378,0.546151,0.548455,-0.018689,-1.00708,-0.480533,0.012368,0.0092939,0.549492,5,0.1,7,5,2.51469,2.90705,0.500001,-0.522995,-0.0273466,0,-0.274181,-0.0386238,2.98023e-05,0.0244921,1.20442,5,0.1,8,5,-1.64362,-1.05509,0.749621,0.0366837,0.863498,0.000284612,0.0114441,-0.0506341,-0.000238419,0.012241,1.10522,5,0.1,9,5,-4.1064,-0.296304,0.603848,-0.025928,-0.00182837,0.000889599,0.137091,0.012666,-0.00464916,0.00849918,0.000491526,5,0.1
0,5.1,-3.46324,0.359589,0.544298,-0.10902,0.494426,-0.0329991,0.0913292,-0.280749,0.026267,0.00649877,0.128734,5,0.1,1,5.1,-1.47863,-0.203801,0.756779,0.637295,0.011707,-0.00640256,0.449732,0.381292,0.00787899,0.00871053,2.9495,5,0.1,2,5.1,-0.291903,-1.18627,0.598915,-0.00729207,0.847976,0.00098208,0.00428036,-0.0994727,-0.000599772,0.0124293,0.715424,5,0.1,3,5.1,3.19511,2.96205,0.749631,-0.07268,0.0467177,0.000740122,-0.517502,-0.291035,-0.00159815,0.0125612,0.344197,5,0.1,4,5.1,3.29911,2.53437,0.602231,-0.0139993,0.441993,-0.002148,-0.113055,-0.307038,0.00206381,0.0268886,0.110728,5,0.1,5,5.1,1.08476,-1.77081,0.599761,0.328666,-0.0427814,0.000299886,-0.132255,-0.0209436,-0.000178814,0.00829454,0.0874034,5,0.1,6,5.1,-3.30238,1.14433,0.617569,0.439273,0.503778,-0.0174919,-1.10638,-0.42817,0.012055,0.0092939,0.549492,5,0.1,7,5.1,2.46061,2.90407,0.500001,-0.561093,-0.0332933,1.76951e-06,-0.433132,-0.105575,1.11759e-05,0.0244921,1.20442,5,0.1,8,5.1,-1.63996,-0.968778,0.749648,0.0358224,0.863892,0.000265054,-0.0261217,0.0173338,-0.000171363,0.012241,1.10522,5,0.1,9,5.1,-4.10835,-0.296429,0.603915,-0.0136934,-0.000721309,0.000475347,0.107437,0.00949204,-0.00362843,0.00849918,0.000491526,5,0.1
0,5.2,-3.47368,0.407538,0.541132,-0.0997484,0.463387,-0.0302896,0.0962019,-0.350177,0.02864,0.00733429,0.144625,5,0.1,1,5.2,-1.41288,-0.2,0.756176,0.67451,0.0711005,-0.00566244,0.258744,0.778832,0.00709295,0.00881337,2.67235,5,0.1,2,5.2,-0.29261,-1.10217,0.59901,-0.0068292,0.831032,0.000917912,0.005126,-0.267267,-0.000715256,0.0137484,0.500391,5,0.1,3,5.2,3.1852,2.96532,0.749698,-0.125307,0.0193298,0.000591576,-0.507832,-0.252247,-0.0013411,0.0109856,0.278187,5,0.1,4,5.2,3.29712,2.57699,0.602027,-0.025785,0.409663,-0.00194609,-0.115991,-0.349045,0.00202656,0.0324455,0.240858,5,0.1,5,5.2,1.11688,-1.77523,0.59979,0.312728,-0.0458866,0.000280142,-0.193715,-0.0350475,-0.000208616,0.00812089,0.0966986,5,0.1,6,5.2,-3.26398,1.19255,0.615883,0.329161,0.460255,-0.0161991,-1.07718,-0.452578,0.0141263,0.0108309,0.511798,5,0.1,7,5.2,2.40244,2.9,0.500001,-0.600195,-0.050205,1.49012e-06,-0.309587,-0.22471,-2.98023e-05,0.0196549,0.932886,5,0.1,8,5.2,-1.63656,-0.882456,0.749674,0.0319302,0.860316,0.000248849,-0.0496507,-0.114232,-0.000178814,0.0115357,1.36779,5,0.1,9,5.2,-4.10923,-0.296458,0.603946,-0.00444651,7.45058e-05,0.000162423,0.0777245,0.0064671,-0.0025928,0.00657368,0.000226296,5,0.1
0,5.3,-3.48325,0.452435,0.538224,-0.0922881,0.436953,-0.0280368,0.0589788,-0.2061,0.0181459,0.00733429,0.144625,5,0.1,1,5.3,-1.344,-0.18805,0.755642,0.703373,0.175151,-0.00504619,0.275053,1.21593,0.0054501,0.00881337,2.67235,5,0.1,2,5.3,-0.293269,-1.02029,0.599098,-0.00635334,0.807123,0.000851881,0.00459887,-0.243656,-0.000637025,0.0137484,0.500391,5,0.1,3,5.3,3.17002,2.96602,0.749751,-0.178646,-0.00472367,0.000470039,-0.531614,-0.224113,-0.00109896,0.0109856,0.278187,5,0.1,4,5.3,3.29377,2.61625,0.601797,-0.0426173,0.37572,-0.00301851,-0.203937,-0.338241,-0.0206269,0.0324455,0.240858,5,0.1,5,5.3,1.14725,-1.77994,0.599817,0.295167,-0.047897,0.000261888,-0.169098,-0.00435859,-0.000171363,0.00812089,0.0966986,5,0.1,6,5.3,-3.2363,1.23645,0.614331,0.226318,0.418563,-0.0148668,-0.963315,-0.394031,0.0129305,0.0108309,0.511798,5,0.1,7,5.3,2.34073,2.89357,0.500001,-0.634441,-0.0805192,-9.31323e-07,-0.332728,-0.354767,-1.49012e-05,0.0196549,0.932886,5,0.1,8,5.3,-1.63364,-0.796553,0.749698,0.0262657,0.860759,0.000233948,-0.0618324,0.0678599,-0.00013411,0.0115357,1.36779,5,0.1,9,5.3,-4.10933,-0.296423,0.603951,0.00214875,0.000603637,-5.75557e-05,0.054419,0.00415929,-0.00181794,0.00657368,0.000226296,5,0.1
0,5.4,-3.49221,0.495152,0.535506,-0.0869155,0.417395,-0.0263616,0.0526905,-0.205189,0.0166595,0.00628241,0.0835354,5,0.1,1,5.4,-1.27255,-0.164319,0.755164,0.722152,0.299159,-0.00453293,0.0703931,1.19919,0.00488758,0.00928938,2.08617,5,0.1,2,5.4,-0.293881,-0.940971,0.59918,-0.00587553,0.776792,0.000786781,0.0051111,-0.385314,-0.000715256,0.01348,0.34261,5,0.1,3,5.4,3.14964,2.96451,0.749792,-0.226939,-0.0247061,0.000369549,-0.414729,-0.172257,-0.000923872,0.00981702,0.211977,5,0.1,4,5.4,3.28846,2.65209,0.601374,-0.0636518,0.340629,-0.00556558,-0.203967,-0.369191,-0.0281334,0.0317175,0.177944,5,0.1,5,5.4,1.17589,-1.7847,0.599842,0.276959,-0.0466734,0.000244379,-0.202894,0.0287294,-0.000178814,0.00747417,0.188984,5,0.1,6,5.4,-3.21819,1.27635,0.612909,0.139129,0.379279,-0.0135452,-0.770807,-0.400424,0.0137687,0.00989779,1.97484,5,0.1,7,5.4,2.27587,2.88371,0.500001,-0.659502,-0.116467,-1.49012e-06,-0.138521,-0.344276,0,0.0192205,0.689642,5,0.1,8,5.4,-1.63133,-0.710202,0.749721,0.0198871,0.864618,0.000220537,-0.0643134,-0.028193,-0.000149012,0.012542,2.35868,5,0.1,9,5.4,-4.10888,-0.296345,0.603937,0.00650883,0.000916421,-0.000202656,0.0326633,0.00214577,-0.00110269,0.00675453,7.73165e-05,5,0.1
0,5.5,-3.50067,0.535984,0.532944,-0.0825103,0.399953,-0.0249437,0.039354,-0.161685,0.0128411,0.00628241,0.0835354,5,0.1,1,5.5,-1.19993,-0.12814,0.754733,0.730026,0.425398,-0.00410806,0.0524595,1.26028,0.00378489,0.00928938,2.08617,5,0.1,2,5.5,-0.294444,-0.865099,0.599255,-0.00540391,0.741158,0.000721402,0.0044927,-0.354186,-0.000618398,0.01348,0.34261,5,0.1,3,5.5,3.12489,2.96122,0.749825,-0.267561,-0.0405692,0.000287499,-0.376657,-0.141442,-0.000726432,0.00981702,0.211977,5,0.1,4,5.5,3.28104,2.68445,0.60067,-0.08488,0.3077,-0.00854069,-0.209272,-0.300929,-0.0298731,0.0317175,0.177944,5,0.1,5,5.5,1.20253,-1.78915,0.599865,0.255577,-0.0416102,0.000225846,-0.227526,0.0686571,-0.00019744,0.00747417,0.188984,5,0.1,6,5.5,-3.20802,1.31239,0.61162,0.0668377,0.342667,-0.0122666,-0.625044,-0.342548,0.0121519,0.00989779,1.97484,5,0.1,7,5.5,2.20918,2.87026,0.500001,-0.674024,-0.152851,-1.49012e-06,-0.118136,-0.363022,0,0.0192205,0.689642,5,0.1,8,5.5,-1.62939,-0.623998,0.749742,0.0211695,0.857624,0.000202935,0.0740513,-0.138007,-0.000204891,0.012542,2.35868,5,0.1,9,5.5,-4.10809,-0.296245,0.603912,0.00897273,0.00105635,-0.000285916,0.0170171,0.000709668,-0.000581145,0.00675453,7.73165e-05,5,0.1
0,5.6,-3.50872,0.575122,0.530515,-0.0783741,0.381999,-0.0236005,0.0460148,-0.209957,0.0148416,0.0067057,0.0637329,5,0.1,1,5.6,-1.12692,-0.0796392,0.75434,0.726828,0.540002,-0.00374466,-0.140011,0.984999,0.00357628,0.00899539,1.55231,5,0.1,2,5.6,-0.294962,-0.792881,0.599324,-0.00494793,0.701445,0.000658631,0.00473857,-0.4583,-0.000625849,0.013163,0.231475,5,0.1,3,5.6,3.09645,2.95653,0.74985,-0.298721,-0.0524104,0.000222027,-0.231981,-0.0929832,-0.000596046,0.0103028,0.152362,5,0.1,4,5.6,3.27157,2.71375,0.599674,-0.103569,0.278467,-0.0112846,-0.156522,-0.292063,-0.0238717,0.0293741,0.135141,5,0.1,5,5.6,1.2269,-1.79292,0.599887,0.231043,-0.0336409,0.000204146,-0.264585,0.0875592,-0.000208616,0.00809576,0.274493,5,0.1,6,5.6,-3.20392,1.34497,0.610454,0.0211179,0.30894,-0.0110552,-0.269055,-0.339568,0.0122488,0.0075645,1.8337,5,0.1,7,5.6,2.14144,2.85327,0.5,-0.677443,-0.185585,-1.49012e-06,0.0727177,-0.277162,0,0.0229337,0.890359,5,0.1,8,5.6,-1.62678,-0.539281,0.749761,0.0318646,0.832716,0.000180304,0.127375,-0.376866,-0.000238419,0.0132642,2.80485,5,0.1,9,5.6,-4.10713,-0.296138,0.603882,0.0100017,0.0010699,-0.000321865,0.00405312,-0.000402331,-0.000149012,0.00628908,2.30551e-05,5,0.1
0,5.7,-3.51636,0.612415,0.528219,-0.0746924,0.364814,-0.022389,0.0316948,-0.152487,0.0105724,0.0067057,0.0637329,5,0.1,1,5.7,-1.05489,-0.0207342,0.753982,0.713662,0.636599,-0.00343202,-0.151332,0.896636,0.00282004,0.00899539,1.55231,5,0.1,2,5.7,-0.295434,-0.724899,0.599387,-0.00451324,0.658918,0.000601169,0.00409968,-0.41445,-0.000540167,0.013163,0.231475,5,0.1,3,5.7,3.06546,2.95086,0.74987,-0.320342,-0.0606254,0.000170153,-0.183836,-0.0685155,-0.00045076,0.0103028,0.152362,5,0.1,4,5.7,3.26056,2.74038,0.598467,-0.115174,0.256074,-0.0124865,-0.0749677,-0.173435,-0.0015609,0.0293741,0.135141,5,0.1,5,5.7,1.24871,-1.79584,0.599906,0.205428,-0.0246396,0.000183657,-0.251018,0.0899658,-0.000201166,0.00809576,0.274493,5,0.1,6,5.7,-3.20264,1.37428,0.609406,0.0112999,0.278085,-0.00992976,0.129208,-0.286534,0.0105575,0.0075645,1.8337,5,0.1,7,5.7,2.07371,2.83333,0.5,-0.679515,-0.212837,-1.39698e-06,-0.0671446,-0.252143,3.72529e-06,0.0229337,0.890359,5,0.1,8,5.7,-1.62284,-0.458872,0.749778,0.0478936,0.766757,0.000156928,0.180446,-0.900335,-0.000227243,0.0132642,2.80485,5,0.1,9,5.7,-4.10613,-0.296034,0.603849,0.00994354,0.000991486,-0.000321306,-0.00470877,-0.00111386,0.000141561,0.00628908,2.30551e-05,5,0.1
0,5.8,-3.52367,0.648104,0.526034,-0.0713468,0.348319,-0.0212863,0.038147,-0.190526,0.012368,0.00684048,0.0285084,5,0.1,1,5.8,-0.984484,0.0469251,0.753652,0.69187,0.710844,-0.00315756,-0.303417,0.553719,0.00283122,0.00826823,1.10151,5,0.1,2,5.8,-0.295865,-0.661155,0.599445,-0.00410452,0.614822,0.000548363,0.00420213,-0.482619,-0.000566244,0.0128839,0.155355,5,0.1,3,5.8,3.0327,2.94451,0.749885,-0.332731,-0.0656605,0.00013113,-0.0526905,-0.0303984,-0.000357628,0.00971908,0.177456,5,0.1,4,5.8,3.24881,2.7652,0.597238,-0.118536,0.240707,-0.0118554,0.00751019,-0.146985,0.0129938,0.0283214,0.276808,5,0.1,5,5.8,1.268,-1.79787,0.599924,0.180295,-0.0160694,0.000163913,-0.253618,0.0795722,-0.000238419,0.0114704,1.37892,5,0.1,6,5.8,-3.2,1.40068,0.608465,0.0495315,0.250095,-0.0088945,0.604391,-0.279546,0.0103414,0.00760266,1.5811,5,0.1,7,5.8,2.00551,2.81093,0.5,-0.682798,-0.233358,-1.49012e-06,0.0352859,-0.147581,0,0.0190782,0.653558,5,0.1,8,5.8,-1.61714,-0.387274,0.749793,0.065726,0.660343,0.00013411,0.166714,-1.19296,-0.000238419,0.0149564,3.24844,5,0.1,9,5.8,-4.10517,-0.295941,0.603818,0.00914335,0.000857562,-0.000296533,-0.0107288,-0.00151992,0.000357628,0.00722575,1.21697e-05,5,0.1
0,5.9,-3.53062,0.682001,0.523965,-0.0676394,0.329535,-0.0200886,0.038147,-0.194911,0.0122115,0.00684048,0.0285084,5,0.1,1,5.9,-0.91674,0.120689,0.75335,0.663148,0.762507,-0.00290833,-0.294056,0.43993,0.00227243,0.00826823,1.10151,5,0.1,2,5.9,-0.296256,-0.601949,0.599497,-0.00372143,0.57019,0.000496954,0.00358187,-0.428505,-0.000476837,0.0128839,0.155355,5,0.1,3,5.9,2.99893,2.9378,0.749896,-0.344179,-0.0685558,0.000102539,-0.146523,-0.0240207,-0.000227243,0.00971908,0.177456,5,0.1,4,5.9,3.23718,2.78863,0.596134,-0.112471,0.228772,-0.0100716,0.107065,-0.103399,0.0216775,0.0283214,0.276808,5,0.1,5,5.9,1.28535,-1.79897,0.599997,0.17171,-0.00547506,0.00179242,0.0451952,0.115782,0.0291318,0.0114704,1.37892,5,0.1,6,5.9,-3.19108,1.42439,0.607624,0.136362,0.224822,-0.00795238,1.05201,-0.233427,0.00874698,0.00760266,1.5811,5,0.1,7,5.9,1.93723,2.78688,0.5,-0.683552,-0.247134,-1.02445e-06,-0.0131652,-0.115484,1.11759e-05,0.0190782,0.653558,5,0.1,8,5.9,-1.60969,-0.327696,0.749805,0.0835184,0.527785,0.000112411,0.178486,-1.4006,-0.00019744,0.0149564,3.24844,5,0.1,9,5.9,-4.10431,-0.295864,0.603791,0.0078693,0.00069309,-0.000254251,-0.0143051,-0.00172853,0.000469387,0.00722575,1.21697e-05,5,0.1
0,6,-3.53717,0.713908,0.522021,-0.0633597,0.307736,-0.0187397,0.0487566,-0.247359,0.0151098,0.00684993,0.0108369,5,0.1,1,6,-0.852034,0.198686,0.75307,0.629203,0.792226,-0.00268221,-0.400364,0.128031,0.00229478,0.0107566,0.754037,5,0.1,2,6,-0.296611,-0.547106,0.599544,-0.00336692,0.526004,0.000448525,0.00356138,-0.467926,-0.000447035,0.0119722,0.10409,5,0.1,3,6,2.96382,2.93085,0.749906,-0.356913,-0.0698805,8.49366e-05,-0.0867844,-0.000238419,-0.000119209,0.00961349,0.108526,5,0.1,4,6,3.22658,2.81099,0.595243,-0.0983834,0.218028,-0.00769943,0.16892,-0.119805,0.0249445,0.030152,0.262119,5,0.1,5,6,1.30299,-1.79899,0.600346,0.182828,0.00442564,0.0053376,0.148833,0.0721812,0.0389516,0.0117535,1.28744,5,0.1,6,6,-3.17199,1.44573,0.606872,0.245827,0.202125,-0.00710189,1.07646,-0.225961,0.00840425,0.011888,1.28013,5,0.1,7,6,1.86898,2.76172,0.5,-0.679111,-0.254387,0,0.127971,-0.0212193,0,0.017807,0.463817,5,0.1,8,6,-1.6005,-0.281881,0.749815,0.0995994,0.389952,9.38773e-05,0.135541,-1.31637,-0.000178814,0.0117977,3.52896,5,0.1,9,6,-4.1036,-0.295803,0.603768,0.00636578,0.000520051,-0.000205636,-0.0157356,-0.00169873,0.000536442,0.00690673,1.1565e-05,5,0.1
0,6.1,-3.54326,0.743433,0.520223,-0.0583921,0.282531,-0.0172093,0.0515729,-0.261057,0.0157766,0.00684993,0.0108369,5,0.1,1,6.1,-0.791017,0.278491,0.752812,0.591626,0.802478,-0.00247806,-0.370312,0.0450984,0.001885,0.0107566,0.754037,5,0.1,2,6.1,-0.296931,-0.496707,0.599587,-0.00304356,0.482948,0.000407547,0.00300631,-0.408618,-0.00037998,0.0119722,0.10409,5,0.1,3,6.1,2.92767,2.92397,0.749914,-0.366037,-0.0669923,7.62753e-05,-0.0766516,0.0545233,-6.33299e-05,0.00961349,0.108526,5,0.1,4,6.1,3.21766,2.83223,0.594601,-0.0794768,0.206992,-0.00511967,0.202984,-0.108451,0.0259802,0.030152,0.262119,5,0.1,5,6.1,1.32227,-1.79816,0.601096,0.204702,0.0116263,0.00980943,0.260599,0.040859,0.047721,0.0117535,1.28744,5,0.1,6,6.1,-3.14174,1.4649,0.606201,0.360494,0.181779,-0.00634147,1.15623,-0.187211,0.00701472,0.011888,1.28013,5,0.1,7,6.1,1.8016,2.73619,0.5,-0.6687,-0.25588,0,0.110127,0.00137091,0,0.017807,0.463817,5,0.1,8,6.1,-1.58984,-0.249362,0.749824,0.113451,0.263371,7.82311e-05,0.132248,-1.14369,-0.00013411,0.0117977,3.52896,5,0.1,9,6.1,-4.10305,-0.29576,0.60375,0.00477135,0.000353064,-0.000151619,-0.0158548,-0.00161305,0.000528991,0.00690673,1.1565e-05,5,0.1
0,6.2,-3.54884,0.770331,0.518584,-0.0528932,0.254852,-0.0155389,0.0590086,-0.294983,0.0177622,0.0068365,0.0055365,5,0.1,1,6.2,-0.733783,0.358615,0.752574,0.55193,0.795954,-0.00229031,-0.436544,-0.196562,0.00199676,0.00853213,0.504582,5,0.1,2,6.2,-0.29722,-0.45046,0.599626,-0.00274852,0.441666,0.000369549,0.00296533,-0.427753,-0.00038743,0.0138971,0.1595,5,0.1,3,6.2,2.89082,2.91761,0.749921,-0.369042,-0.0596225,7.00355e-05,0.0296831,0.0898838,0,0.00923498,0.0609458,5,0.1,4,6.2,3.21074,2.85236,0.594216,-0.0588894,0.195074,-0.00261962,0.203967,-0.134945,0.0234544,0.029495,0.254852,5,0.1,5,6.2,1.34404,-1.79703,0.602311,0.230077,0.00831485,0.014402,0.22614,-0.118852,0.0421107,0.00768169,1.15962,5,0.1,6,6.2,-3.10018,1.48216,0.605601,0.466633,0.163612,-0.00566393,0.922799,-0.180662,0.00667572,0.00802577,0.982337,5,0.1,7,6.2,1.73545,2.71071,0.5,-0.652051,-0.25245,0,0.243187,0.074029,0,0.0201663,0.320757,5,0.1,8,6.2,-1.57791,-0.228025,0.749831,0.124481,0.171407,6.55651e-05,0.082016,-0.665262,-8.9407e-05,0.0133407,3.47595,5,0.1,9,6.2,-4.10265,-0.295732,0.603737,0.00325441,0.000201911,-0.000102818,-0.0143051,-0.00135601,0.000506639,0.00775408,9.59355e-06,5,0.1
0,6.3,-3.55383,0.794363,0.517117,-0.0471052,0.225931,-0.0138011,0.0575036,-0.28668,0.0172108,0.0068365,0.0055365,5,0.1,1,6.3,-0.680658,0.437234,0.752354,0.511316,0.775816,-0.00211177,-0.391729,-0.232395,0.0016503,0.00853213,0.504582,5,0.1,2,6.3,-0.297495,-0.408144,0.599661,-0.00287197,0.406958,0.000334438,-0.00446849,-0.289204,-0.0003241,0.0138971,0.1595,5,0.1,3,6.3,2.8541,2.91213,0.749928,-0.364735,-0.0494666,7.0408e-05,0.0682473,0.110209,7.45058e-06,0.00923498,0.0609458,5,0.1,4,6.3,3.20589,2.87115,0.594064,-0.0381943,0.180499,-0.00049416,0.200823,-0.158027,0.0189021,0.029495,0.254852,5,0.1,5,6.3,1.36827,-1.79697,0.603966,0.254782,-0.0103727,0.0186755,0.246324,-0.301495,0.0412576,0.00768169,1.15962,5,0.1,6,6.3,-3.04891,1.49768,0.605065,0.557651,0.147393,-0.00506304,0.850931,-0.148922,0.00551343,0.00802577,0.982337,5,0.1,7,6.3,1.67137,2.68583,0.5,-0.629793,-0.245034,0,0.226252,0.0825375,0,0.0201663,0.320757,5,0.1,8,6.3,-1.56503,-0.213517,0.749837,0.132851,0.12821,5.82077e-05,0.0770986,-0.111084,-6.33299e-05,0.0133407,3.47595,5,0.1,9,6.3,-4.10239,-0.295718,0.603729,0.00189468,7.567e-05,-5.55068e-05,-0.0127256,-0.00115298,0.000432134,0.00775408,9.59355e-06,5,0.1
0,6.4,-3.55825,0.815516,0.515824,-0.0412822,0.197013,-0.0120625,0.0596046,-0.293463,0.0176132,0.00748693,0.00170494,5,0.1,1,6.4,-0.631517,0.513421,0.752151,0.470889,0.745127,-0.00194609,-0.427783,-0.398666,0.00172853,0.00797895,0.333875,5,0.1,2,6.4,-0.29781,-0.368819,0.599693,-0.00347048,0.379874,0.000302494,-0.00676513,-0.26916,-0.000327826,0.0139385,0.226948,5,0.1,3,6.4,2.81811,2.90775,0.749935,-0.353456,-0.0381291,7.00355e-05,0.164747,0.114202,-2.98023e-05,0.0101573,0.157674,5,0.1,4,6.4,3.20301,2.88837,0.594101,-0.0201941,0.163257,0.00113696,0.153542,-0.187278,0.0136197,0.0289225,0.412601,5,0.1,5,6.4,1.39487,-1.8,0.606024,0.275645,-0.0546992,0.0222951,0.155628,-0.565708,0.0296533,0.00926619,0.979324,5,0.1,6,6.4,-2.98932,1.5117,0.604586,0.628936,0.132939,-0.00453293,0.54276,-0.143826,0.00527501,0.00715044,0.711381,5,0.1,7,6.4,1.60966,2.66181,0.5,-0.602719,-0.23458,0,0.3317,0.132203,0,0.0211141,0.218194,5,0.1,8,6.4,-1.55143,-0.2,0.749843,0.138503,0.153954,5.21541e-05,0.0303388,0.586025,-5.96046e-05,0.012359,3.09249,5,0.1,9,6.4,-4.10226,-0.295716,0.603726,0.000739098,-2.5332e-05,-1.78814e-05,-0.0100136,-0.000879169,0.000357628,0.00792849,5.87238e-06,5,0.1
0,6.5,-3.56209,0.833771,0.514704,-0.0354365,0.168289,-0.0103369,0.0574589,-0.281561,0.0169352,0.00748693,0.00170494,5,0.1,1,6.5,-0.586446,0.586007,0.751964,0.431402,0.706706,-0.00179084,-0.375368,-0.391569,0.00144169,0.00797895,0.333875,5,0.1,2,6.5,-0.298186,-0.332213,0.599722,-0.00399025,0.351858,0.000277068,-0.00359491,-0.29251,-0.00019744,0.0139385,0.226948,5,0.1,3,6.5,2.78354,2.9045,0.749942,-0.338025,-0.0270654,6.80797e-05,0.156492,0.105366,-1.86265e-05,0.0101573,0.157674,5,0.1,4,6.5,3.20176,2.90377,0.594277,-0.00546537,0.144868,0.00233268,0.11991,-0.182122,0.0101738,0.0289225,0.412601,5,0.1,5,6.5,1.42323,-1.8089,0.608399,0.291355,-0.127781,0.0251424,0.141598,-0.838697,0.0256598,0.00926619,0.979324,5,0.1,6,6.5,-2.92379,1.52432,0.604157,0.679875,0.120051,-0.00406057,0.439391,-0.118233,0.00432134,0.00715044,0.711381,5,0.1,7,6.5,1.55095,2.63899,0.5,-0.571894,-0.221912,0,0.304773,0.128031,0,0.0211141,0.218194,5,0.1,8,6.5,-1.53741,-0.180255,0.749848,0.1419,0.252243,4.74043e-05,0.0299662,1.26618,-4.09782e-05,0.012359,3.09249,5,0.1,9,6.5,-4.10223,-0.295723,0.603726,-0.000165403,-0.000102026,1.3411e-05,-0.00798702,-0.000646338,0.000268221,0.00792849,5.87238e-06,5,0.1
0,6.6,-3.56535,0.849209,0.513754,-0.0297725,0.140637,-0.0086695,0.0557899,-0.271529,0.0163913,0.00762518,0.00085067,5,0.1,1,6.6,-0.545185,0.654587,0.751793,0.393546,0.663175,-0.00164509,-0.391036,-0.493616,0.00146031,0.00850032,0.220323,5,0.1,2,6.6,-0.298598,-0.298538,0.599749,-0.00418648,0.321129,0.00026077,-0.000342727,-0.323161,-0.000208616,0.0148316,0.191355,5,0.1,3,6.6,2.75059,2.90229,0.749949,-0.320053,-0.017339,6.70552e-05,0.211358,0.0882149,-2.98023e-05,0.00867883,0.135416,5,0.1,4,6.6,3.20163,2.91734,0.594555,0.000840425,0.126582,0.00315458,-0.00226498,-0.184774,0.00622869,0.0351947,0.393949,5,0.1,5,6.6,1.45294,-1.82593,0.611024,0.301102,-0.212413,0.0271529,0.0417829,-0.810981,0.0134408,0.00785464,0.775776,5,0.1,6,6.6,-2.85402,1.53575,0.603772,0.710702,0.108555,-0.00364482,0.152707,-0.114799,0.00411272,0.0113776,0.492407,5,0.1,7,6.6,1.49537,2.61748,0.5,-0.538409,-0.207829,0,0.378489,0.158191,0,0.0182903,0.607742,5,0.1,8,6.6,-1.52312,-0.148347,0.749852,0.143209,0.387198,4.32134e-05,-0.00911951,1.34655,0,0.0107679,2.65893,5,0.1,9,6.6,-4.10229,-0.295736,0.603728,-0.000846386,-0.000154972,3.57628e-05,-0.00548363,-0.000372529,0.000178814,0.00865206,2.69414e-06,5,0.1
0,6.7,-3.56805,0.861949,0.512967,-0.0243865,0.114496,-0.00708867,0.051856,-0.25079,0.0151992,0.00762518,0.00085067,5,0.1,1,6.7,-0.507668,0.718546,0.751635,0.357698,0.616624,-0.00151312,-0.33717,-0.455745,0.00123307,0.00850032,0.220323,5,0.1,2,6.7,-0.299012,-0.268267,0.599774,-0.00405987,0.282757,0.000243913,0.0027027,-0.415843,-0.000137836,0.0148316,0.191355,5,0.1,3,6.7,2.71966,2.90097,0.749955,-0.298407,-0.00958405,6.4075e-05,0.227556,0.0661463,-2.98023e-05,0.00867883,0.135416,5,0.1,4,6.7,3.20154,2.92896,0.594898,-0.00495873,0.104656,0.00367006,-0.141785,-0.245467,0.00398234,0.0351947,0.393949,5,0.1,5,6.7,1.48326,-1.85139,0.613804,0.305061,-0.297235,0.0283711,0.023827,-0.842087,0.0096187,0.00785464,0.775776,5,0.1,6,6.7,-2.78225,1.54608,0.603426,0.723499,0.0982774,-0.00327742,0.0737906,-0.094302,0.00334904,0.0113776,0.492407,5,0.1,7,6.7,1.44285,2.59745,0.5,-0.516611,-0.192953,0,0.10366,0.145108,0,0.0182903,0.607742,5,0.1,8,6.7,-1.50881,-0.102371,0.749857,0.142998,0.53526,4.33065e-05,-0.00240654,1.52516,3.72529e-06,0.0107679,2.65893,5,0.1,9,6.7,-4.10239,-0.295753,0.603733,-0.0013046,-0.000183517,4.98258e-05,-0.00366569,-0.000199303,0.000108033,0.00865206,2.69414e-06,5,0.1
0,6.8,-3.57024,0.872182,0.512332,-0.0194311,0.0905722,-0.00563562,0.0474453,-0.227213,0.0138283,0.00743596,0.00070357,5,0.1,1,6.8,-0.47357,0.77787,0.75149,0.324199,0.56895,-0.00138879,-0.340655,-0.510156,0.0012815,0.0094143,0.145794,5,0.1,2,6.8,-0.299401,-0.242047,0.599797,-0.00367835,0.242313,0.000229478,0.00479817,-0.377923,-0.000119209,0.0102227,0.155743,5,0.1,3,6.8,2.69102,2.9003,0.749962,-0.273585,-0.00419021,6.10948e-05,0.272393,0.0419617,-2.98023e-05,0.0143234,0.249197,5,0.1,4,6.8,3.2,2.93815,0.595281,-0.0290394,0.0789702,0.00393838,-0.326991,-0.261426,0.0012815,0.038943,0.341199,5,0.1,5,6.8,1.51376,-1.88508,0.616674,0.303599,-0.373393,0.0288606,-0.0622272,-0.650048,-0.000655651,0.00937423,0.582723,5,0.1,6,6.8,-2.70985,1.55544,0.603115,0.720578,0.0890821,-0.00295341,-0.151515,-0.0920892,0.00318885,0.00670782,0.330873,5,0.1,7,6.8,1.39157,2.57889,0.5,-0.509617,-0.177836,0,0.0706315,0.161052,0,0.0152639,0.461577,5,0.1,8,6.8,-1.49456,-0.0415296,0.749861,0.14149,0.676785,4.32134e-05,-0.0329018,1.24042,-2.98023e-05,0.00997559,2.37568,5,0.1,9,6.8,-4.10254,-0.295772,0.603738,-0.00157356,-0.00019446,5.66244e-05,-0.00166893,-4.47035e-05,5.96046e-05,0.0100256,8.84413e-07,5,0.1
0,6.9,-3.57195,0.880147,0.511835,-0.0149507,0.0691637,-0.00433009,0.0420362,-0.200327,0.0122488,0.00743596,0.00070357,5,0.1,1,6.9,-0.442744,0.832346,0.751357,0.293154,0.521481,-0.00127302,-0.289658,-0.45469,0.00108406,0.0094143,0.145794,5,0.1,2,6.9,-0.299743,-0.219643,0.59982,-0.00314293,0.207407,0.000218581,0.0057891,-0.283582,-0.000108033,0.0102227,0.155743,5,0.1,3,6.9,2.66506,2.90006,0.749968,-0.245314,-0.000808761,5.75557e-05,0.293523,0.0259429,-4.47035e-05,0.0143234,0.249197,5,0.1,4,6.9,3.19506,2.94472,0.595679,-0.072737,0.0524472,0.00401018,-0.510752,-0.26311,7.07805e-05,0.038943,0.341199,5,0.1,5,6.9,1.54383,-1.92565,0.619555,0.297481,-0.436931,0.0287312,-0.0711754,-0.587262,-0.00299141,0.00937423,0.582723,5,0.1,6,6.9,-2.63855,1.56393,0.602834,0.70479,0.0808382,-0.0026688,-0.188395,-0.0757203,0.00260025,0.00670782,0.330873,5,0.1,7,6.9,1.34067,2.56187,0.5,-0.510152,-0.162876,0,-0.0452101,0.143036,0,0.0152639,0.461577,5,0.1,8,6.9,-1.48054,0.0318139,0.749865,0.13925,0.783871,4.10713e-05,-0.0191405,0.87003,-1.11759e-05,0.00997559,2.37568,5,0.1,9,6.9,-4.1027,-0.295791,0.603744,-0.00167415,-0.00019283,5.9884e-05,-0.00038743,7.26432e-05,3.72529e-06,0.0100256,8.84413e-07,5,0.1
0,7,-3.57325,0.88611,0.511461,-0.0110388,0.0506073,-0.00319332,0.035882,-0.170469,0.0104904,0.00881783,0.000541807,5,0.1,1,7,-0.414856,0.88221,0.751235,0.26466,0.475402,-0.00116527,-0.286862,-0.477523,0.00113249,0.00741807,0.0983392,5,0.1,2,7,-0.300028,-0.2,0.599841,-0.00254363,0.188592,0.000207126,0.00610948,-0.0993684,-0.000149012,0.013967,0.113323,5,0.1,3,7,2.64203,2.90009,0.749973,-0.214851,0.00106096,5.36442e-05,0.315428,0.0118017,-8.9407e-05,0.0102679,0.243315,5,0.1,4,7,3.18518,2.94869,0.596078,-0.124842,0.0273764,0.00394136,-0.504017,-0.23365,-0.00154972,0.0270921,0.276021,5,0.1,5,7,1.57313,-1.97195,0.622403,0.287521,-0.485209,0.0280872,-0.135422,-0.355303,-0.01055,0.00784182,0.415455,5,0.1,6,7,-2.56924,1.57164,0.60258,0.678897,0.0734329,-0.00241548,-0.34523,-0.0744462,0.0025034,0.0079258,0.218809,5,0.1,7,7,1.28948,2.5463,0.5,-0.512448,-0.14841,0,0.025332,0.149608,0,0.0238182,0.340505,5,0.1,8,7,-1.46673,0.11376,0.749869,0.136429,0.846892,3.8743e-05,-0.0423789,0.382676,0,0.00938911,2.27619,5,0.1,9,7,-4.10287,-0.29581,0.60375,-0.00166893,-0.000180304,5.81145e-05,0.00119209,0.000163913,-5.96046e-05,0.00914212,1.82593e-07,5,0.1
0,7.1,-3.57418,0.890365,0.511191,-0.00773109,0.0349442,-0.00222735,0.0301749,-0.142433,0.00880659,0.00881783,0.000541807,5,0.1,1,7.1,-0.389836,0.927499,0.751124,0.235576,0.431409,-0.00106301,-0.295859,-0.415377,0.000953674,0.00741807,0.0983392,5,0.1,2,7.1,-0.300251,-0.181262,0.599861,-0.00193608,0.189197,0.000192877,0.0059586,0.0830535,-0.000145286,0.013967,0.113323,5,0.1,3,7.1,2.6221,2.90031,0.749978,-0.183881,0.00377186,4.52623e-05,0.304163,0.0333339,-7.45058e-05,0.0102679,0.243315,5,0.1,4,7.1,3.17006,2.95029,0.596464,-0.1779,0.00493154,0.00376711,-0.529751,-0.210941,-0.00200793,0.0270921,0.276021,5,0.1,5,7.1,1.60123,-2.02219,0.62516,0.274584,-0.518237,0.0270442,-0.132434,-0.278912,-0.011187,0.00784182,0.415455,5,0.1,6,7.1,-2.50302,1.57864,0.60235,0.645514,0.0667647,-0.00219196,-0.342518,-0.0613481,0.00204891,0.0079258,0.218809,5,0.1,7,7.1,1.23822,2.53217,0.5,-0.513395,-0.134642,0,-0.0157133,0.129849,0,0.0238182,0.340505,5,0.1,8,7.1,-1.45325,0.199621,0.749873,0.1335,0.86483,3.91155e-05,-0.023514,0.0478327,7.45058e-06,0.00938911,2.27619,5,0.1,9,7.1,-4.10303,-0.295827,0.603755,-0.0015229,-0.000160746,5.12227e-05,0.00166893,0.000223517,-8.19564e-05,0.00914212,1.82593e-07,5,0.1
0,7.2,-3.57481,0.893196,0.511009,-0.00500679,0.0221685,-0.00143498,0.0239611,-0.11301,0.00700355,0.00682801,0.000324251,5,0.1,1,7.2,-0.367779,0.968579,0.751022,0.205355,0.390114,-0.000970066,-0.308812,-0.419587,0.000983477,0.00775955,0.130883,5,0.1,2,7.2,-0.300416,-0.161818,0.59988,-0.00136644,0.20022,0.000177324,0.00539422,0.115968,-0.000149012,0.0120749,0.205487,5,0.1,3,7.2,2.60522,2.90083,0.749982,-0.154012,0.00628233,3.72529e-05,0.293255,0.0113249,-5.96046e-05,0.0136515,1.21347,5,0.1,4,7.2,3.14977,2.94979,0.596829,-0.22608,-0.0140786,0.0035271,-0.414371,-0.166297,-0.00280142,0.0295708,0.210666,5,0.1,5,7.2,1.62797,-2.0751,0.627801,0.25951,-0.536597,0.0257045,-0.175178,-0.0706911,-0.0161529,0.00853194,0.284799,5,0.1,6,7.2,-2.44031,1.58501,0.602141,0.607049,0.0607491,-0.0019908,-0.440121,-0.0607371,0.00196695,0.00788787,0.143904,5,0.1,7,7.2,1.18693,2.51935,0.5,-0.510737,-0.121748,0,0.0889301,0.131011,0,0.0227083,0.281418,5,0.1,8,7.2,-1.44004,0.2862,0.749877,0.130478,0.866026,3.8743e-05,-0.0420213,0,0,0.00932505,2.26163,5,0.1,9,7.2,-4.10317,-0.295842,0.60376,-0.00133514,-0.000137091,4.32134e-05,0.00214577,0.000268221,-8.9407e-05,0.00879457,9.50926e-08,5,0.1
0,7.3,-3.5752,0.894889,0.510898,-0.00286289,0.012109,-0.000809412,0.0189096,-0.0881664,0.00550225,0.00682801,0.000324251,5,0.1,1,7.3,-0.348859,1.0058,0.750929,0.172478,0.35691,-0.000896025,-0.34315,-0.267077,0.000562519,0.00775955,0.130883,5,0.1,2,7.3,-0.300527,-0.140826,0.599897,-0.00085691,0.222595,0.000162423,0.00474602,0.295085,-0.000149012,0.0120749,0.205487,5,0.1,3,7.3,2.59014,2.90151,0.749986,-0.157141,0.00700019,3.13856e-05,-0.286639,-0.00967085,-5.58794e-05,0.0136515,1.21347,5,0.1,4,7.3,3.12509,2.94759,0.597168,-0.266715,-0.0294928,0.00325013,-0.377193,-0.138715,-0.00280887,0.0295708,0.210666,5,0.1,5,7.3,1.65309,-2.12908,0.630294,0.243025,-0.542018,0.0241633,-0.162125,-0.0164658,-0.0153966,0.00853194,0.284799,5,0.1,6,7.3,-2.38171,1.59081,0.601951,0.56547,0.0553042,-0.0018144,-0.408337,-0.0501722,0.00162423,0.00788787,0.143904,5,0.1,7,7.3,1.13622,2.50763,0.5,-0.503723,-0.114229,0,0.0742227,0.0326931,0,0.0227083,0.281418,5,0.1,8,7.3,-1.42715,0.372802,0.749881,0.1277,0.866026,3.91155e-05,-0.0208467,-3.57628e-06,7.45058e-06,0.00932505,2.26163,5,0.1,9,7.3,-4.1033,-0.295854,0.603764,-0.0011161,-0.000109989,3.42727e-05,0.00226498,0.000268221,-8.9407e-05,0.00879457,9.50926e-08,5,0.1
0,7.4,-3.5754,0.8957,0.510843,-0.0012219,0.00452101,-0.000333786,0.0138283,-0.063777,0.00402331,0.00661383,0.000147596,5,0.1,1,7.4,-0.333344,1.04026,0.750842,0.137744,0.332767,-0.000846386,-0.346929,-0.232518,0.000476837,0.00800718,0.183777,5,0.1,2,7.4,-0.30059,-0.117041,0.599912,-0.000425428,0.252881,0.000147521,0.0038445,0.283536,-0.000178814,0.0124602,0.133493,5,0.1,3,7.4,2.57251,2.90206,0.749988,-0.19905,0.00264645,2.5332e-05,-0.497699,-0.0818968,-2.98023e-05,0.0124305,1.01025,5,0.1,4,7.4,3.09674,2.94401,0.597479,-0.297964,-0.0412881,0.00295639,-0.233054,-0.095129,-0.00315905,0.0299466,0.151643,5,0.1,5,7.4,1.67655,-2.18313,0.63263,0.225809,-0.536364,0.0225022,-0.187397,0.143647,-0.0182688,0.00777791,0.190441,5,0.1,6,7.4,-2.32726,1.59609,0.601777,0.52256,0.0503749,-0.00165552,-0.46134,-0.0499487,0.00163913,0.00735717,0.0947802,5,0.1,7,7.4,1.08635,2.4963,0.5,-0.492036,-0.112861,0,0.175357,0.00452995,0,0.019071,0.199656,5,0.1,8,7.4,-1.4145,0.459405,0.749885,0.125057,0.866025,3.8743e-05,-0.0373125,1.43051e-05,0,0.00831055,2.26228,5,0.1,9,7.4,-4.1034,-0.295864,0.603767,-0.00089407,-8.34465e-05,2.5332e-05,0.00214577,0.00025332,-5.96046e-05,0.0102701,1.03052e-07,5,0.1
0,7.5,-3.57546,0.895866,0.510827,-3.91155e-05,-0.000886526,9.22009e-06,0.00987947,-0.0446178,0.00284985,0.00661383,0.000147596,5,0.1,1,7.5,-0.321283,1.07253,0.75076,0.103801,0.313883,-0.000797678,-0.327781,-0.161432,0.000510365,0.00800718,0.183777,5,0.1,2,7.5,-0.300615,-0.09026,0.599926,-7.64616e-05,0.282893,0.000130478,0.00310689,0.292976,-0.000160187,0.0124602,0.133493,5,0.1,3,7.5,2.54965,2.90184,0.749991,-0.261395,-0.00829101,2.23517e-05,-0.696838,-0.159174,-2.98023e-05,0.0124305,1.01025,5,0.1,4,7.5,3.06582,2.93944,0.597759,-0.319709,-0.049777,0.0026565,-0.185236,-0.0721365,-0.00289828,0.0299466,0.151643,5,0.1,5,7.5,1.69825,-2.23606,0.634793,0.208368,-0.521762,0.0207888,-0.167802,0.165895,-0.0166073,0.00777791,0.190441,5,0.1,6,7.5,-2.2772,1.6009,0.601619,0.479581,0.0458933,-0.00150837,-0.412434,-0.0413507,0.00135601,0.00735717,0.0947802,5,0.1,7,7.5,1.03795,2.48494,0.5,-0.476056,-0.114973,0,0.162844,-0.0364333,0,0.019071,0.199656,5,0.1,8,7.5,-1.40212,0.546008,0.749889,0.122758,0.866026,3.91155e-05,-0.0159144,-1.93715e-06,7.45058e-06,0.00831055,2.26228,5,0.1,9,7.5,-4.10348,-0.295871,0.603769,-0.000683963,-5.90924e-05,1.93715e-05,0.00202656,0.000232831,-5.96046e-05,0.0102701,1.03052e-07,5,0.1
0,7.6,-3.57542,0.895584,0.510841,0.000762939,-0.00446141,0.000239909,0.00619888,-0.0272095,0.00175834,0.00677536,5.0887e-05,5,0.1,1,7.6,-0.312482,1.10312,0.750683,0.0728965,0.297686,-0.000739098,-0.287354,-0.174165,0.000596046,0.00602851,0.576495,5,0.1,2,7.6,-0.300608,-0.0606497,0.599938,0.00019148,0.30744,0.000114739,0.00223517,0.18132,-0.000178814,0.0112996,0.0784632,5,0.1,3,7.6,2.52005,2.9,0.749993,-0.329292,-0.0305176,1.78814e-05,-0.62263,-0.276327,0,0.0131989,0.81139,5,0.1,4,7.6,3.03311,2.93416,0.59801,-0.332242,-0.0552952,0.00236779,-0.0542402,-0.0369549,-0.00295043,0.0277872,0.177325,5,0.1,5,7.6,1.71823,-2.28725,0.636788,0.191173,-0.500286,0.0190765,-0.180483,0.275135,-0.0180602,0.00678515,0.125774,5,0.1,6,7.6,-2.23131,1.60528,0.601475,0.437677,0.0418216,-0.00137538,-0.435472,-0.0411868,0.0013411,0.00799485,0.107886,5,0.1,7,7.6,0.991264,2.47326,0.5,-0.456345,-0.118357,0,0.244021,-0.0239611,0,0.0164598,0.139721,5,0.1,8,7.6,-1.38994,0.63261,0.749893,0.120628,0.866026,3.8743e-05,-0.0318885,0,0,0.01099,2.26281,5,0.1,9,7.6,-4.10353,-0.295876,0.603771,-0.000500679,-3.7998e-05,1.19209e-05,0.00214577,0.000193715,-2.98023e-05,0.00841202,1.13204e-07,5,0.1
0,7.7,-3.57532,0.895024,0.510872,0.00124425,-0.0065227,0.000375416,0.00348687,-0.0143982,0.000972301,0.00677536,5.0887e-05,5,0.1,1,7.7,-0.306537,1.13241,0.750443,0.0469398,0.291258,-0.00546956,-0.230886,0.0142157,-0.0845529,0.00602851,0.576495,5,0.1,2,7.7,-0.300579,-0.029049,0.599949,0.000384543,0.323691,9.80683e-05,0.00161305,0.128883,-0.000160187,0.0112996,0.0784632,5,0.1,3,7.7,2.48388,2.89529,0.749995,-0.394316,-0.0657283,1.74157e-05,-0.637755,-0.400841,-1.11759e-05,0.0131989,0.81139,5,0.1,4,7.7,2.99938,2.92849,0.598234,-0.343857,-0.0576217,0.00211801,-0.148252,-0.009045,-0.00214577,0.0277872,0.177325,5,0.1,5,7.7,1.7365,-2.33595,0.63861,0.174523,-0.473818,0.017403,-0.157885,0.268817,-0.0159256,0.00678515,0.125774,5,0.1,6,7.7,-2.1894,1.6093,0.601343,0.403308,0.0387549,-0.00127573,-0.276953,-0.0229478,0.000745058,0.00799485,0.107886,5,0.1,7,7.7,0.946778,2.46133,0.5,-0.433682,-0.11992,0,0.224501,-0.00338256,0,0.0164598,0.139721,5,0.1,8,7.7,-1.37799,0.719213,0.749896,0.118825,0.866026,3.8743e-05,-0.0113025,-3.72529e-06,0,0.01099,2.26281,5,0.1,9,7.7,-4.10357,-0.295879,0.603772,-0.000304729,-2.01166e-05,8.56817e-06,0.00175834,0.000160187,-3.72529e-05,0.00841202,1.13204e-07,5,0.1
0,7.8,-3.57518,0.894318,0.510913,0.0014782,-0.00741929,0.000438094,0.00119209,-0.0039041,0.000357628,0.0104101,1.5447e-05,5,0.1,1,7.8,-0.302899,1.16171,0.749405,0.0268206,0.295043,-0.015755,-0.171363,0.038147,-0.112861,0.00581941,0.509686,5,0.1,2,7.8,-0.300533,0.00377917,0.599958,0.0005126,0.330766,8.34465e-05,0.000938773,0.00291586,-0.000149012,0.00945186,0.0563584,5,0.1,3,7.8,2.44151,2.88669,0.749996,-0.450003,-0.105959,1.49012e-05,-0.447392,-0.383377,0,0.0100682,0.61538,5,0.1,4,7.8,2.9643,2.92273,0.598436,-0.356764,-0.0570416,0.00191927,-0.0883341,0.0207424,-0.00190735,0.0312413,0.108561,5,0.1,5,7.8,1.75316,-2.38191,0.640271,0.158688,-0.44409,0.0158042,-0.162542,0.335336,-0.0164509,0.00704866,0.141513,5,0.1,6,7.8,-2.15036,1.61307,0.601219,0.377935,0.0367433,-0.00120997,-0.249028,-0.0193119,0.000596046,0.00681614,0.10757,5,0.1,7,7.8,0.904602,2.44938,0.5,-0.408879,-0.118399,0,0.28199,0.0363588,0,0.0205537,0.135642,5,0.1,8,7.8,-1.36617,0.805815,0.7499,0.117141,0.866026,3.8743e-05,-0.0274181,0,0,0.0108246,2.26324,5,0.1,9,7.8,-4.1036,-0.29588,0.603772,-0.000154972,-5.96046e-06,4.47035e-06,0.00143051,0.00013411,-2.98023e-05,0.00875535,6.8819e-08,5,0.1
0,7.9,-3.57503,0.89357,0.510958,0.00151657,-0.00743205,0.000449363,-0.000342727,0.00323728,-0.000108033,0.0104101,1.5447e-05,5,0.1,1,7.9,-0.301027,1.19158,0.747203,0.0112307,0.303664,-0.0287147,-0.135168,0.109911,-0.138313,0.00581941,0.509686,5,0.1,2,7.9,-0.300478,0.0368948,0.599966,0.000589341,0.331386,7.01286e-05,0.000581145,-0.0061509,-0.000122935,0.00945186,0.0563584,5,0.1,3,7.9,2.39428,2.87411,0.749998,-0.49377,-0.145952,1.44355e-05,-0.396684,-0.395969,-1.11759e-05,0.0100682,0.61538,5,0.1,4,7.9,2.92815,2.9172,0.598619,-0.36604,-0.0528239,0.00175163,-0.0781119,0.0606477,-0.00151992,0.0312413,0.108561,5,0.1,5,7.9,1.76834,-2.42493,0.641781,0.145941,-0.418781,0.014502,-0.101753,0.197321,-0.0105053,0.00704866,0.141513,5,0.1,6,7.9,-2.11367,1.61694,0.6011,0.356832,0.0431193,-0.00116313,-0.189558,0.127308,0.000406057,0.00681614,0.10757,5,0.1,7,7.9,0.864821,2.43787,0.5,-0.389063,-0.110489,0,0.141364,0.116155,0,0.0205537,0.135642,5,0.1,8,7.9,-1.35455,0.892418,0.749904,0.115721,0.866026,3.8743e-05,-0.00798702,-3.72529e-06,0,0.0108246,2.26324,5,0.1,9,7.9,-4.10361,-0.29588,0.603773,-3.05474e-05,5.4948e-06,1.49012e-06,0.00104308,9.68575e-05,-2.98023e-05,0.00875535,6.8819e-08,5,0.1
0,8,-3.57489,0.892851,0.511002,0.00142455,-0.00684708,0.000420213,-0.00143051,0.00807643,-0.000417233,0.0140576,8.2846e-06,5,0.1,1,8,-0.300487,1.22246,0.743652,0.000564754,0.312832,-0.0420228,-0.0756383,0.0559092,-0.121981,0.00938402,0.445326,5,0.1,2,8,-0.300417,0.0698837,0.599972,0.000626594,0.326928,5.81145e-05,0.000163913,-0.0934416,-8.9407e-05,0.0130174,0.0901033,5,0.1,3,8,2.34321,2.85765,0.749999,-0.52408,-0.181639,1.19209e-05,-0.18847,-0.303268,2.98023e-05,0.0191097,0.44367,5,0.1,4,8,2.8913,2.91227,0.598786,-0.369173,-0.0454664,0.00160336,0.0283718,0.0840425,-0.00151992,0.036001,0.0610624,5,0.1,5,8,1.78247,-2.46588,0.643182,0.136715,-0.400048,0.0135466,-0.0895858,0.196338,-0.00926852,0.00896208,0.0817536,5,0.1,6,8,-2.07895,1.622,0.600986,0.337201,0.0587463,-0.00111759,-0.214934,0.170171,0.000476837,0.00950264,0.0930481,5,0.1,7,8,0.826572,2.4275,0.5,-0.375926,-0.0962198,0,0.141233,0.16439,0,0.0203718,0.126431,5,0.1,8,8,-1.34303,0.97902,0.749908,0.114349,0.866027,3.8743e-05,-0.0245571,-2.98023e-05,0,0.0101908,2.26361,5,0.1,9,8,-4.1036,-0.295879,0.603773,5.96046e-05,1.41561e-05,-1.49012e-06,0.000476837,4.47035e-05,0,0.00821058,1.7738e-08,5,0.1
0,8.1,-3.57475,0.892213,0.511041,0.00124499,-0.00587786,0.00036722,-0.00208616,0.0109561,-0.000622123,0.0140576,8.2846e-06,5,0.1,1,8.1,-0.300779,1.2541,0.738829,-0.00573751,0.320286,-0.0544032,-0.0365973,0.074029,-0.119522,0.00938402,0.445326,5,0.1,2,8.1,-0.300354,0.102277,0.599977,0.000627199,0.322083,4.96395e-05,-0.000150874,-0.0244445,-7.82311e-05,0.0130174,0.0901033,5,0.1,3,8.1,2.28989,2.83798,0.750001,-0.541429,-0.21124,1.36904e-05,-0.133634,-0.2729,1.11759e-05,0.0191097,0.44367,5,0.1,4,8.1,2.85456,2.90817,0.59894,-0.364985,-0.0364218,0.00146385,0.0672042,0.0945181,-0.00131875,0.036001,0.0610624,5,0.1,5,8.1,1.79574,-2.50501,0.644496,0.129207,-0.383357,0.0127639,-0.0667349,0.154778,-0.00698492,0.00896208,0.0817536,5,0.1,6,8.1,-2.04615,1.62887,0.600876,0.319758,0.0798285,-0.00108192,-0.151083,0.23365,0.000294298,0.00950264,0.0930481,5,0.1,7,8.1,0.789577,2.41874,0.5,-0.364577,-0.0784267,0,0.103414,0.187114,0,0.0203718,0.126431,5,0.1,8,8.1,-1.33167,1.06562,0.749912,0.113154,0.866026,3.8743e-05,-0.00617653,-3.72529e-06,0,0.0101908,2.26361,5,0.1,9,8.1,-4.1036,-0.295877,0.603773,9.76026e-05,1.75554e-05,-1.86265e-06,0.000327826,2.42144e-05,-7.45058e-06,0.00821058,1.7738e-08,5,0.1
0,8.2,-3.57464,0.891682,0.511075,0.00101924,-0.00471771,0.000299513,-0.00226498,0.0119507,-0.000685453,0.00919856,7.72649e-06,5,0.1,1,8.2,-0.301391,1.2864,0.732836,-0.00491813,0.324383,-0.0648856,0.0575185,-0.00548363,-0.0858605,0.00716798,0.378643,5,0.1,2,8.2,-0.300292,0.134336,0.599982,0.000598282,0.318439,4.17233e-05,-0.000447035,-0.063464,-8.9407e-05,0.0125416,0.164968,5,0.1,3,8.2,2.23533,2.81565,0.750002,-0.546658,-0.233561,1.3411e-05,0.0455379,-0.162482,0,0.0143529,0.631524,5,0.1,4,8.2,2.81854,2.905,0.599079,-0.353795,-0.026983,0.00133216,0.164151,0.0923872,-0.0013411,0.0367293,0.157752,5,0.1,5,8.2,1.80833,-2.54253,0.645737,0.122315,-0.366163,0.0120476,-0.0755787,0.201106,-0.00777841,0.0091577,0.062465,5,0.1,6,8.2,-2.01494,1.63801,0.60077,0.304067,0.102398,-0.00104755,-0.174701,0.204742,0.000447035,0.0116118,0.146796,5,0.1,7,8.2,0.753692,2.41185,0.5,-0.352246,-0.0595689,0,0.155568,0.186563,0,0.0223528,0.226634,5,0.1,8,8.2,-1.3204,1.15223,0.749916,0.111941,0.866026,3.8743e-05,-0.0228286,0,-2.98023e-05,0.0122934,2.26395,5,0.1,9,8.2,-4.10359,-0.295876,0.603772,0.000119209,1.93715e-05,-2.98023e-06,0.000238419,0,0,0.00780451,1.03144e-08,5,0.1
0,8.3,-3.57455,0.891271,0.511101,0.000783056,-0.00350196,0.000228453,-0.00238419,0.0121146,-0.000718981,0.00919856,7.72649e-06,5,0.1,1,8.3,-0.301491,1.31885,0.725925,0.00460604,0.324627,-0.0731302,0.156,-0.00493228,-0.0742823,0.00716798,0.378643,5,0.1,2,8.3,-0.300235,0.166182,0.599986,0.000547012,0.320857,3.33413e-05,-0.000575557,0.0806954,-7.45058e-05,0.0125416,0.164968,5,0.1,3,8.3,2.18059,2.79151,0.750003,-0.550356,-0.248637,1.28523e-05,-0.0795573,-0.12657,-1.49012e-05,0.0143529,0.631524,5,0.1,4,8.3,2.78394,2.90275,0.599207,-0.33842,-0.0182413,0.00121323,0.15603,0.0811815,-0.00108406,0.0367293,0.157752,5,0.1,5,8.3,1.82024,-2.57827,0.646909,0.116264,-0.349701,0.0114193,-0.0518188,0.146091,-0.00540912,0.0091577,0.062465,5,0.1,6,8.3,-1.98544,1.649,0.600667,0.285529,0.114828,-0.000996981,-0.20095,0.0505447,0.00057742,0.0116118,0.146796,5,0.1,7,8.3,0.719218,2.4068,0.5,-0.337241,-0.0417329,0,0.155736,0.167817,0,0.0223528,0.226634,5,0.1,8,8.3,-1.30927,1.23883,0.74992,0.110861,0.866026,3.63216e-05,-0.00541657,0,-1.49012e-05,0.0122934,2.26395,5,0.1,9,8.3,-4.10357,-0.295874,0.603772,0.000133365,1.87661e-05,-3.07336e-06,8.9407e-05,-9.31323e-06,-3.72529e-06,0.00780451,1.03144e-08,5,0.1
0,8.4,-3.57448,0.89098,0.511121,0.000548363,-0.00233948,0.000157952,-0.00214577,0.0109375,-0.000685453,0.0123487,6.28568e-06,5,0.1,1,8.4,-0.3,1.35118,0.718292,0.027553,0.320825,-0.0789464,0.292629,-0.0815988,-0.0388324,0.00781618,0.307117,5,0.1,2,8.4,-0.300183,0.198699,0.599989,0.000484288,0.329176,2.68221e-05,-0.000685453,0.0627935,-5.96046e-05,0.0115312,0.101485,5,0.1,3,8.4,2.12521,2.76615,0.750004,-0.5557,-0.256789,1.19209e-05,0.00143051,-0.0282526,-2.98023e-05,0.0109792,0.462542,5,0.1,4,8.4,2.75095,2.9013,0.599323,-0.320482,-0.0109434,0.00110567,0.21112,0.0638962,-0.00104308,0.0250323,0.256656,5,0.1,5,8.4,1.8316,-2.61249,0.648023,0.110862,-0.333887,0.01086,-0.0607371,0.182509,-0.00616908,0.00728497,0.0279746,5,0.1,6,8.4,-1.95796,1.66053,0.600571,0.263101,0.113791,-0.000928342,-0.250399,-0.0649691,0.00077486,0.00858455,0.198771,5,0.1,7,8.4,0.686347,2.40342,0.5,-0.319231,-0.026381,0,0.211895,0.137687,0,0.0165507,0.203913,5,0.1,8,8.4,-1.29823,1.32543,0.749923,0.109717,0.866026,3.42727e-05,-0.0222325,0,0,0.0105981,2.26429,5,0.1,9,8.4,-4.10356,-0.295872,0.603772,0.000143051,1.78814e-05,-2.98023e-06,-0.000238419,-2.98023e-05,-2.98023e-05,0.00646689,2.79701e-09,5,0.1
0,8.5,-3.57444,0.890799,0.511133,0.000339374,-0.00129901,9.23872e-05,-0.00198185,0.00971556,-0.000618398,0.0123487,6.28568e-06,5,0.1,1,8.5,-0.295473,1.38289,0.710212,0.065313,0.313323,-0.0824647,0.433097,-0.0808239,-0.0277609,0.00781618,0.307117,5,0.1,2,8.5,-0.300138,0.232009,0.599991,0.000414765,0.337303,2.13273e-05,-0.000702217,0.0795257,-4.84288e-05,0.0115312,0.101485,5,0.1,3,8.5,2.0695,2.74035,0.750005,-0.559212,-0.258863,8.9407e-06,-0.0401288,-0.00317395,-2.98023e-05,0.0109792,0.462542,5,0.1,4,8.5,2.72001,2.90049,0.599428,-0.297526,-0.00554249,0.00100164,0.250682,0.044018,-0.00105426,0.0250323,0.256656,5,0.1,5,8.5,1.84239,-2.64498,0.649079,0.104997,-0.315889,0.0102654,-0.0599325,0.186801,-0.00604987,0.00728497,0.0279746,5,0.1,6,8.5,-1.93287,1.67143,0.600482,0.239031,0.10288,-0.000852719,-0.236519,-0.147067,0.000759959,0.00858455,0.198771,5,0.1,7,8.5,0.655474,2.40146,0.5,-0.298148,-0.0128858,0,0.216734,0.124991,0,0.0165507,0.203913,5,0.1,8,8.5,-1.28733,1.41203,0.749927,0.108651,0.866026,3.42727e-05,-0.00557303,0,0,0.0105981,2.26429,5,0.1,9,8.5,-4.10355,-0.29587,0.603771,0.000119209,1.49012e-05,-5.4948e-06,-0.000238419,-2.98023e-05,-1.86265e-05,0.00646689,2.79701e-09,5,0.1
0,8.6,-3.57441,0.890715,0.511139,0.000154972,-0.000421703,3.57628e-05,-0.00154972,0.0077486,-0.000476837,0.00739289,3.83944e-06,5,0.1,1,8.6,-0.286744,1.41374,0.70187,0.109009,0.302589,-0.0838712,0.418678,-0.142395,0.00211596,0.00672797,0.237034,5,0.1,2,8.6,-0.3001,0.266029,0.599993,0.000344962,0.341651,1.78814e-05,-0.000700355,-0.00664592,-5.96046e-05,0.0114288,0.0801722,5,0.1,3,8.6,2.01352,2.71456,0.750006,-0.55837,-0.255746,5.96046e-06,0.0792146,0.0721216,-2.98023e-05,0.00862691,0.327733,5,0.1,4,8.6,2.69159,2.90013,0.599523,-0.269967,-0.00211,0.00089258,0.301719,0.0249147,-0.00113249,0.02582,0.249218,5,0.1,5,8.6,1.85257,-2.67556,0.650074,0.0983119,-0.294995,0.00959486,-0.0758767,0.237107,-0.00753999,0.00644271,0.010651,5,0.1,6,8.6,-1.91016,1.68089,0.600401,0.214884,0.0855476,-0.00077337,-0.249982,-0.194132,0.000864267,0.00596048,0.191735,5,0.1,7,8.6,0.626796,2.40073,0.5,-0.274742,-0.00251532,0,0.255823,0.0784397,0,0.0139735,0.395961,5,0.1,8,8.6,-1.2765,1.49864,0.74993,0.107491,0.866026,3.57628e-05,-0.0221729,-5.96046e-05,-5.96046e-05,0.00855989,2.26462,5,0.1,9,8.6,-4.10354,-0.295869,0.603771,9.53674e-05,1.19209e-05,-5.96046e-06,-0.000238419,-2.98023e-05,-2.98023e-05,0.00874887,3.65094e-09,5,0.1
0,8.7,-3.5744,0.890709,0.511141,1.15484e-05,0.000274833,-7.72998e-06,-0.0012964,0.00610575,-0.000391155,0.00739289,3.83944e-06,5,0.1,1,8.7,-0.273667,1.44332,0.693497,0.152788,0.28924,-0.0834765,0.434546,-0.134744,0.00884384,0.00672797,0.237034,5,0.1,2,8.7,-0.300069,0.300264,0.599995,0.000275346,0.343541,1.28523e-05,-0.000687316,0.0235252,-3.72529e-05,0.0114288,0.0801722,5,0.1,3,8.7,1.958,2.68934,0.750007,-0.55235,-0.248453,3.07336e-06,0.0664368,0.0820309,-2.6077e-05,0.00862691,0.327733,5,0.1,4,8.7,2.66611,2.90003,0.599606,-0.239674,-2.75671e-05,0.00078259,0.305578,0.0165403,-0.00107661,0.02582,0.249218,5,0.1,5,8.7,1.86202,-2.70387,0.650995,0.0906019,-0.270833,0.00883061,-0.0798777,0.250295,-0.00789762,0.00644271,0.010651,5,0.1,6,8.7,-1.8899,1.68842,0.600327,0.19046,0.0647884,-0.000688434,-0.240959,-0.214353,0.000841916,0.00596048,0.191735,5,0.1,7,8.7,0.600584,2.40093,0.5,-0.249563,0.00633486,0,0.252049,0.0697523,0,0.0139735,0.395961,5,0.1,8,8.7,-1.26582,1.58524,0.749933,0.106389,0.866025,3.13856e-05,-0.00618398,1.49012e-05,-3.35276e-05,0.00855989,2.26462,5,0.1,9,8.7,-4.10353,-0.295868,0.60377,7.15256e-05,9.12696e-06,-8.00937e-06,-0.000238419,-2.6077e-05,-7.45058e-06,0.00874887,3.65094e-09,5,0.1
0,8.8,-3.57441,0.890764,0.511138,-0.000101328,0.000789762,-4.02331e-05,-0.000953674,0.00414252,-0.000298023,0.00846698,1.73681e-06,5,0.1,1,8.8,-0.25634,1.47152,0.685225,0.192089,0.273934,-0.0815928,0.335515,-0.178218,0.0307858,0.00696208,0.175202,5,0.1,2,8.8,-0.300045,0.334646,0.599996,0.000208616,0.342815,8.9407e-06,-0.000625849,-0.0524968,-2.98023e-05,0.0132009,0.110703,5,0.1,3,8.8,1.90324,2.66497,0.750007,-0.540823,-0.237966,1.49012e-06,0.181377,0.133276,-5.96046e-05,0.0125611,0.226198,5,0.1,4,8.8,2.64368,2.90009,0.599679,-0.208652,0.00118613,0.000675023,0.315547,0.00751019,-0.00104308,0.0285193,0.243466,5,0.1,5,8.8,1.87067,-2.72965,0.651837,0.0820935,-0.244296,0.00799149,-0.0912547,0.282764,-0.0089705,0.00771615,0.00544927,5,0.1,6,8.8,-1.87206,1.69384,0.600263,0.166297,0.0438362,-0.000603497,-0.243783,-0.199854,0.000864267,0.00762337,0.18956,5,0.1,7,8.8,0.57691,2.40173,0.5,-0.223632,0.00736713,0,0.269264,-0.0612736,0,0.0154059,2.82943,5,0.1,8,8.8,-1.25523,1.67184,0.749936,0.105175,0.866026,2.83122e-05,-0.0224113,0,-2.98023e-05,0.00929178,2.26497,5,0.1,9,8.8,-4.10352,-0.295867,0.603769,5.96046e-05,6.70552e-06,-8.9407e-06,-0.000476837,-1.49012e-05,0,0.00665053,7.87672e-09,5,0.1
0,8.9,-3.57442,0.890861,0.511133,-0.000183657,0.00113165,-6.50994e-05,-0.000670552,0.00268593,-0.00019744,0.00846698,1.73681e-06,5,0.1,1,8.9,-0.235465,1.49807,0.677216,0.224878,0.257286,-0.0785508,0.30304,-0.16316,0.0325851,0.00696208,0.175202,5,0.1,2,8.9,-0.300027,0.368836,0.599996,0.000149943,0.342105,6.42613e-06,-0.000543892,0.0152104,-1.86265e-05,0.0132009,0.110703,5,0.1,3,8.9,1.85,2.64182,0.750007,-0.524263,-0.225162,-3.53903e-06,0.17032,0.129685,-3.72529e-05,0.0125611,0.226198,5,0.1,4,8.9,2.62436,2.90031,0.599742,-0.178096,0.00363663,0.000575464,0.296474,0.0321567,-0.000949949,0.0285193,0.243466,5,0.1,5,8.9,1.87843,-2.75269,0.652592,0.07315,-0.216572,0.00711335,-0.0887886,0.274852,-0.008706,0.00771615,0.00544927,5,0.1,6,8.9,-1.85663,1.69728,0.600207,0.142665,0.0255404,-0.000519305,-0.229768,-0.16243,0.000819564,0.00762337,0.18956,5,0.1,7,8.9,0.554954,2.40211,0.5,-0.223343,-0.0026647,0,-0.203524,-0.230864,0,0.0154059,2.82943,5,0.1,8,8.9,-1.24479,1.75844,0.749939,0.104008,0.866026,2.64496e-05,-0.00704825,0,-1.49012e-05,0.00929178,2.26497,5,0.1,9,8.9,-4.10352,-0.295866,0.603768,1.93715e-05,5.21541e-06,-8.47504e-06,-0.000298023,-1.49012e-05,1.11759e-05,0.00665053,7.87672e-09,5,0.1
0,9,-3.57444,0.890985,0.511125,-0.000232458,0.00132471,-8.04663e-05,-0.000476837,0.00119209,-8.9407e-05,0.00884397,5.78639e-07,5,0.1,1,9,-0.211631,1.52295,0.669544,0.249794,0.239885,-0.0746548,0.183486,-0.190616,0.0470579,0.00670854,0.123892,5,0.1,2,9,-0.300015,0.40308,0.599997,9.98378e-05,0.3419,4.47035e-06,-0.000432134,-0.0357926,0,0.0107719,0.185338,5,0.1,3,9,1.79854,2.61999,0.750006,-0.503317,-0.210869,-5.96046e-06,0.262618,0.160694,-2.98023e-05,0.00905485,0.153378,5,0.1,4,9,2.60801,2.90082,0.599795,-0.149232,0.00612736,0.000482798,0.281453,0.0118017,-0.00089407,0.0294243,1.22122,5,0.1,5,9,1.88529,-2.77296,0.65326,0.0641525,-0.188845,0.00623316,-0.0918508,0.281334,-0.0090003,0.00686939,0.00167607,5,0.1,6,9,-1.84349,1.6991,0.600159,0.120205,0.0118494,-0.000438094,-0.219882,-0.109911,0.00077486,0.00642166,0.320858,5,0.1,7,9,0.531228,2.4,0.5,-0.253718,-0.0463665,0,-0.357687,-0.627398,0,0.012992,1.60969,5,0.1,8,9,-1.23444,1.84505,0.749942,0.102723,0.866026,2.5332e-05,-0.0229478,0,0,0.00713052,2.26534,5,0.1,9,9,-4.10352,-0.295866,0.603767,0,3.72529e-06,-7.45058e-06,-0.000476837,-1.49012e-05,0,0.00666205,1.3877e-08,5,0.1
0,9.1,-3.57447,0.891122,0.511117,-0.000267476,0.00139149,-8.59611e-05,-0.000208616,0.000160187,-2.6077e-05,0.00884397,5.78639e-07,5,0.1,1,9.1,-0.185765,1.54604,0.662305,0.266849,0.222198,-0.0701673,0.14402,-0.170164,0.0448078,0.00670854,0.123892,5,0.1,2,9.1,-0.300007,0.437402,0.599997,6.10482e-05,0.346816,4.47035e-06,-0.000344589,0.10168,0,0.0107719,0.185338,5,0.1,3,9.1,1.74945,2.59967,0.750006,-0.478879,-0.19574,-8.3819e-06,0.242963,0.147685,-1.49012e-05,0.00905485,0.153378,5,0.1,4,9.1,2.59335,2.90149,0.599839,-0.153574,0.00693053,0.000397861,-0.298887,-0.00858307,-0.000804663,0.0294243,1.22122,5,0.1,5,9.1,1.89126,-2.79046,0.653839,0.0551393,-0.161308,0.0053511,-0.0886545,0.269949,-0.0086613,0.00686939,0.00167607,5,0.1,6,9.1,-1.83252,1.69982,0.600119,0.0995785,0.00332333,-0.000363309,-0.19367,-0.0626445,0.000718981,0.00642166,0.320858,5,0.1,7,9.1,0.503835,2.39231,0.5,-0.295576,-0.106272,0,-0.443714,-0.560671,0,0.012992,1.60969,5,0.1,8,9.1,-1.22424,1.93165,0.749944,0.101463,0.866026,2.57976e-05,-0.00815094,0,1.11759e-05,0.00713052,2.26534,5,0.1,9,9.1,-4.10352,-0.295866,0.603767,-3.50177e-05,2.28174e-06,-6.98492e-06,-0.000268221,-1.30385e-05,1.11759e-05,0.00666205,1.3877e-08,5,0.1
0,9.2,-3.5745,0.89126,0.511108,-0.000274181,0.00136197,-8.49366e-05,0,-0.000745058,2.98023e-05,0.00842361,1.59597e-07,5,0.1,1,9.2,-0.158516,1.56739,0.655522,0.276335,0.204664,-0.0653371,0.0366724,-0.18537,0.0531673,0.00614905,0.143878,5,0.1,2,9.2,-0.300002,0.4726,0.599998,3.12924e-05,0.356619,2.98023e-06,-0.00025332,0.0706613,2.98023e-05,0.0104978,0.113277,5,0.1,3,9.2,1.70285,2.58085,0.750005,-0.451896,-0.180352,-8.9407e-06,0.308216,0.163913,0,0.00965422,0.102975,5,0.1,4,9.2,2.57601,2.90203,0.599875,-0.196671,0.00268817,0.000321865,-0.509024,-0.0807047,-0.000715256,0.0264658,1.01694,5,0.1,5,9.2,1.89633,-2.80526,0.654331,0.0463903,-0.134796,0.00449866,-0.0863075,0.260353,-0.00843406,0.00665281,0.000831823,5,0.1,6,9.2,-1.8235,1.69991,0.600086,0.0812918,-0.00106692,-0.000295043,-0.172853,-0.0270605,0.000685453,0.00639756,0.31592,5,0.1,7,9.2,0.472158,2.37906,0.5,-0.336294,-0.156689,0,-0.344723,-0.439644,0,0.0170927,1.74599,5,0.1,8,9.2,-1.21415,2.01825,0.749947,0.100085,0.866026,2.5332e-05,-0.0236034,0,2.98023e-05,0.00717915,2.26572,5,0.1,9,9.2,-4.10352,-0.295866,0.603766,-4.76837e-05,7.45058e-07,-5.96046e-06,-0.000238419,0,0,0.00884048,1.0551e-08,5,0.1
0,9.3,-3.57452,0.891392,0.5111,-0.000265613,0.00125822,-7.98143e-05,0.000163913,-0.00130385,7.07805e-05,0.00842361,1.59597e-07,5,0.1,1,9.3,-0.130509,1.58709,0.64921,0.285098,0.190454,-0.0612581,0.114194,-0.111222,0.0322461,0.00614905,0.143878,5,0.1,2,9.3,-0.3,0.508685,0.599998,1.03377e-05,0.365238,5.40167e-06,-0.000167638,0.0807345,1.49012e-05,0.0104978,0.113277,5,0.1,3,9.3,1.65912,2.5636,0.750004,-0.423244,-0.165117,-8.84756e-06,0.278786,0.145674,3.72529e-06,0.00965422,0.102975,5,0.1,4,9.3,2.55334,2.90182,0.599903,-0.260111,-0.00815727,0.000255648,-0.707224,-0.158474,-0.000607222,0.0264658,1.01694,5,0.1,5,9.3,1.90055,-2.81747,0.65474,0.0380538,-0.109731,0.00368524,-0.0802875,0.24046,-0.00782311,0.00665281,0.000831823,5,0.1,6,9.3,-1.8162,1.69962,0.60006,0.0648748,-0.00492781,-0.000230968,-0.15527,-0.0407547,0.000596046,0.00639756,0.31592,5,0.1,7,9.3,0.436745,2.36176,0.5,-0.371848,-0.184919,0,-0.338655,-0.173047,0,0.0170927,1.74599,5,0.1,8,9.3,-1.20422,2.10485,0.749949,0.0987191,0.866026,2.82191e-05,-0.00940263,0,2.6077e-05,0.00717915,2.26572,5,0.1,9,9.3,-4.10353,-0.295865,0.603765,-6.18398e-05,6.98492e-07,-5.4948e-06,-8.9407e-05,-1.86265e-06,1.11759e-05,0.00884048,1.0551e-08,5,0.1
0,9.4,-3.57455,0.89151,0.511093,-0.000244379,0.00110865,-7.15256e-05,0.000238419,-0.00166893,8.9407e-05,0.00722245,9.16427e-08,5,0.1,1,9.4,-0.101464,1.60562,0.643236,0.294974,0.180271,-0.0582278,0.0657326,-0.101626,0.0312328,0.00715134,0.085842,5,0.1,2,9.4,-0.3,0.545488,0.599999,-3.72529e-06,0.369212,5.96046e-06,-7.45058e-05,-0.0157654,0,0.0119228,0.0628477,5,0.1,3,9.4,1.61823,2.54781,0.750003,-0.393787,-0.150388,-7.45058e-06,0.319898,0.152349,0,0.0109314,0.278549,5,0.1,4,9.4,2.52382,2.9,0.599926,-0.32897,-0.0303388,0.000199676,-0.630975,-0.27597,-0.000536442,0.0247818,0.81674,5,0.1,5,9.4,1.90396,-2.82728,0.65507,0.0303596,-0.0867963,0.00293702,-0.0733733,0.217915,-0.00715256,0.00721461,0.000687392,5,0.1,6,9.4,-1.81046,1.69896,0.600039,0.0502706,-0.0077337,-0.000175834,-0.136614,-0.00995398,0.000506639,0.00773735,0.298294,5,0.1,7,9.4,0.398063,2.34255,0.5,-0.399324,-0.198579,0,-0.191584,-0.124931,0,0.013993,1.51172,5,0.1,8,9.4,-1.19441,2.19146,0.749952,0.097239,0.866026,2.98023e-05,-0.0243187,0,0,0.00792995,1.89975,5,0.1,9,9.4,-4.10354,-0.295865,0.603765,-5.96046e-05,0,-4.47035e-06,-0.000238419,1.49012e-05,2.98023e-05,0.00612674,1.58563e-08,5,0.1
0,9.5,-3.57457,0.891612,0.511086,-0.000215694,0.000931788,-6.14673e-05,0.000312924,-0.00183657,0.000104308,0.00722245,9.16427e-08,5,0.1,1,9.5,-0.0716113,1.6232,0.637552,0.301951,0.171789,-0.0555685,0.0581689,-0.0761747,0.0244603,0.00715134,0.085842,5,0.1,2,9.5,-0.300001,0.58231,0.599999,-9.22009e-06,0.366684,5.86733e-06,-3.72529e-05,-0.047911,-3.72529e-06,0.0119228,0.0628477,5,0.1,3,9.5,1.58005,2.53349,0.750002,-0.373088,-0.136366,-7.35745e-06,0.125475,0.132233,3.72529e-06,0.0109314,0.278549,5,0.1,4,9.5,2.48764,2.89531,0.599943,-0.394775,-0.0655293,0.000151061,-0.644878,-0.400782,-0.000432134,0.0247818,0.81674,5,0.1,5,9.5,1.90665,-2.83491,0.655329,0.0234211,-0.0662662,0.00226181,-0.0651851,0.192106,-0.00633299,0.00721461,0.000687392,5,0.1,6,9.5,-1.80608,1.6981,0.600024,0.0376254,-0.0092987,-0.000129547,-0.116259,0.000953674,0.000420958,0.00773735,0.298294,5,0.1,7,9.5,0.357171,2.32219,0.5,-0.417957,-0.209401,0,-0.159224,-0.167787,0,0.013993,1.51172,5,0.1,8,9.5,-1.18478,2.27806,0.749955,0.0954453,0.866026,2.98023e-05,-0.0163019,0,0,0.00792995,1.89975,5,0.1,9,9.5,-4.10354,-0.295865,0.603765,-7.07805e-05,1.02445e-06,-1.58325e-06,-2.98023e-05,3.72529e-06,2.6077e-05,0.00612674,1.58563e-08,5,0.1
0,9.6,-3.57459,0.891696,0.51108,-0.000184774,0.000746548,-5.06639e-05,0.000476837,-0.00184774,0.000119209,0.00917741,9.76364e-08,5,0.1,1,9.6,-0.0412423,1.63998,0.632123,0.303979,0.163651,-0.0529096,-0.0282514,-0.0923872,0.0304878,0.0091216,0.0654289,5,0.1,2,9.6,-0.300002,0.618599,0.6,-1.19209e-05,0.357464,4.47035e-06,0,-0.145078,2.98023e-05,0.00982952,0.0435298,5,0.1,3,9.6,1.54326,2.52051,0.750001,-0.36321,-0.123239,-5.96046e-06,0.095427,0.133157,-2.98023e-05,0.00741098,0.210537,5,0.1,4,9.6,2.44519,2.88673,0.599957,-0.451082,-0.105762,0.000111759,-0.452757,-0.383615,-0.000357628,0.0273881,0.619338,5,0.1,5,9.6,1.90868,-2.84062,0.655525,0.0173539,-0.0484765,0.0016734,-0.0559092,0.163436,-0.00545382,0.00673449,0.000530215,5,0.1,6,9.6,-1.80287,1.69732,0.600013,0.0270128,-0.00445545,-9.23872e-05,-0.0960231,0.104487,0.000357628,0.00597206,0.259568,5,0.1,7,9.6,0.314779,2.3,0.5,-0.427501,-0.238526,0,-0.0168383,-0.402331,0,0.0120397,1.24801,5,0.1,8,9.6,-1.17534,2.36466,0.749958,0.093174,0.866026,2.98023e-05,-0.0323653,0,0,0.00655234,1.48174,5,0.1,9,9.6,-4.10355,-0.295865,0.603765,-7.15256e-05,1.49012e-06,0,0.000238419,0,2.98023e-05,0.00761806,8.97235e-09,5,0.1
0,9.7,-3.57461,0.891762,0.511076,-0.000138953,0.000564568,-3.88362e-05,0.000432134,-0.00176579,0.000115484,0.00917741,9.76364e-08,5,0.1,1,9.7,-0.0109185,1.65595,0.626964,0.302749,0.156259,-0.0504134,-0.0126637,-0.0638738,0.0220463,0.0091216,0.0654289,5,0.1,2,9.7,-0.300003,0.653674,0.600001,-1.10827e-05,0.344209,6.33299e-06,1.49012e-05,-0.13398,1.49012e-05,0.00982952,0.0435298,5,0.1,3,9.7,1.50721,2.50881,0.750001,-0.359227,-0.111076,-8.00937e-06,0.00885874,0.113577,-7.45058e-06,0.00741098,0.210537,5,0.1,4,9.7,2.39782,2.87416,0.599966,-0.495334,-0.145783,8.028e-05,-0.400916,-0.396311,-0.000275671,0.0273881,0.619338,5,0.1,5,9.7,1.91015,-2.8447,0.655667,0.0121953,-0.0334613,0.00117132,-0.0471249,0.136524,-0.00457838,0.00673449,0.000530215,5,0.1,6,9.7,-1.80062,1.69752,0.600006,0.0183392,0.0104241,-6.06291e-05,-0.0775605,0.224531,0.000279397,0.00597206,0.259568,5,0.1,7,9.7,0.27195,2.27355,0.5,-0.428581,-0.294863,0,0.0124806,-0.665605,0,0.0120397,1.24801,5,0.1,8,9.7,-1.16616,2.45126,0.749961,0.0903573,0.865878,2.98023e-05,-0.0277907,-0.00591576,0,0.00655234,1.48174,5,0.1,9,9.7,-4.10355,-0.295865,0.603765,-4.76837e-05,1.25729e-06,2.51457e-06,0.000238419,-5.58794e-06,1.86265e-05,0.00761806,8.97235e-09,5,0.1
0,9.8,-3.57462,0.89181,0.511073,-0.000101328,0.000397861,-2.68221e-05,0.000476837,-0.00154972,5.96046e-05,0.0104617,8.58366e-08,5,0.1,1,9.8,0.0192101,1.67125,0.622036,0.298702,0.149435,-0.0480592,-0.079425,-0.0784397,0.0269115,0.00776687,0.0295045,5,0.1,2,9.8,-0.300004,0.687351,0.600001,-8.9407e-06,0.328335,5.96046e-06,2.98023e-05,-0.192821,2.98023e-05,0.0112984,0.0804331,5,0.1,3,9.8,1.47135,2.49826,0.75,-0.357205,-0.0999331,-8.9407e-06,0.0493526,0.111699,0,0.00899374,0.154859,5,0.1,4,9.8,2.34658,2.85772,0.599973,-0.525987,-0.181502,5.66244e-05,-0.190973,-0.303626,-0.000238419,0.0334266,0.446421,5,0.1,5,9.8,1.91115,-2.84741,0.655763,0.0079453,-0.0212193,0.000759959,-0.0378489,0.108361,-0.00366569,0.00822307,0.000318507,5,0.1,6,9.8,-1.79914,1.7,0.600001,0.0114709,0.0422269,-3.57628e-05,-0.0599027,0.39798,0.000178814,0.0109549,0.198714,5,0.1,7,9.8,0.229318,2.2407,0.5,-0.422132,-0.361383,0,0.128008,-0.62108,0,0.0250861,0.997602,5,0.1,8,9.8,-1.15729,2.53777,0.749964,0.0869691,0.863665,2.83122e-05,-0.0426173,-0.0473261,0,0.00596151,1.12234,5,0.1,9,9.8,-4.10356,-0.295865,0.603765,-2.38419e-05,7.45058e-07,2.98023e-06,0.000238419,0,2.98023e-05,0.00798559,6.99339e-09,5,0.1
0,9.9,-3.57463,0.891842,0.51107,-5.88596e-05,0.000252016,-2.0396e-05,0.00038743,-0.00134856,7.07805e-05,0.0104617,8.58366e-08,5,0.1,1,9.9,0.0486538,1.68581,0.617362,0.289664,0.141769,-0.0454212,-0.109469,-0.0793189,0.0272095,0.00776687,0.0295045,5,0.1,2,9.9,-0.300005,0.719432,0.600002,-5.96046e-06,0.314874,7.82311e-06,2.98023e-05,-0.097163,1.49012e-05,0.0112984,0.0804331,5,0.1,3,9.9,1.43577,2.48879,0.749999,-0.354966,-0.089794,-8.47504e-06,0.0149086,0.0939816,1.11759e-05,0.00899374,0.154859,5,0.1,4,9.9,2.29306,2.83806,0.599977,-0.543552,-0.211139,3.62284e-05,-0.135347,-0.273272,-0.000175089,0.0334266,0.446421,5,0.1,5,9.9,1.91176,-2.84903,0.655822,0.00455882,-0.0115752,0.000432972,-0.0298545,0.0845194,-0.00287965,0.00822307,0.000318507,5,0.1,6,9.9,-1.79827,1.70656,0.599998,0.00621192,0.0915222,-2.01166e-05,-0.0454485,0.551924,0.00013411,0.0109549,0.198714,5,0.1,7,9.9,0.187589,2.2016,0.5,-0.413412,-0.418479,0,0.0691638,-0.496686,0,0.0250861,0.997602,5,0.1,8,9.9,-1.14879,2.62411,0.749967,0.0830777,0.864062,2.82191e-05,-0.0383258,0.0154972,-3.72529e-06,0.00596151,1.12234,5,0.1,9,9.9,-4.10356,-0.295865,0.603766,-7.45058e-07,5.58794e-07,5.40167e-06,0.000208616,-3.72529e-06,1.49012e-05,0.00798559,6.99339e-09,5,0.1
0,10,-3.57463,0.891861,0.511068,-2.38419e-05,0.00012964,-1.49012e-05,0.000238419,-0.00107288,8.9407e-05,0.00806461,5.29289e-08,5,0.1,1,10,0.0769698,1.69956,0.612966,0.275491,0.132841,-0.0423938,-0.179019,-0.102162,0.0342131,0.0100929,0.0110865,5,0.1,2,10,-0.300005,0.750452,0.600003,-3.72529e-06,0.305317,7.45058e-06,4.47035e-05,-0.109047,0,0.0116329,0.0671725,5,0.1,3,10,1.40043,2.48027,0.749998,-0.350907,-0.0806391,-7.45058e-06,0.0799298,0.0913143,0,0.0100594,0.191034,5,0.1,4,10,2.23828,2.81574,0.59998,-0.548899,-0.233489,2.23517e-05,0.0451803,-0.16284,-0.000119209,0.0256385,0.634313,5,0.1,5,10,1.91208,-2.8498,0.655852,0.00196993,-0.00430346,0.000184774,-0.0218749,0.0610352,-0.00211596,0.00648448,0.000144888,5,0.1,6,10,-1.79785,1.71848,0.599997,0.00233948,0.146326,-8.9407e-06,-0.0322461,0.517249,8.9407e-05,0.00722684,0.134826,5,0.1,7,10,0.146649,2.15764,0.5,-0.404411,-0.456733,0,0.126969,-0.252604,0,0.0140099,2.63418,5,0.1,8,10,-1.14068,2.71044,0.74997,0.0787765,0.860417,2.83122e-05,-0.0497699,-0.112414,-5.96046e-05,0.00879782,0.821925,5,0.1,9,10,-4.10356,-0.295865,0.603766,2.38419e-05,0,5.96046e-06,0,0,0,0.00656518,4.19159e-09,5,0.1
