id,t,px,py,pz,vx,vy,vz,ax,ay,az,planning_time,qp_cost,planning_report,size,id,t,px,py,pz,vx,vy,vz,ax,ay,az,planning_time,qp_cost,planning_report,size,id,t,px,py,pz,vx,vy,vz,ax,ay,az,planning_time,qp_cost,planning_report,size,id,t,px,py,pz,vx,vy,vz,ax,ay,az,planning_time,qp_cost,planning_report,size,id,t,px,py,pz,vx,vy,vz,ax,ay,az,planning_time,qp_cost,planning_report,size,id,t,px,py,pz,vx,vy,vz,ax,ay,az,planning_time,qp_cost,planning_report,size,id,t,px,py,pz,vx,vy,vz,ax,ay,az,planning_time,qp_cost,planning_report,size,id,t,px,py,pz,vx,vy,vz,ax,ay,az,planning_time,qp_cost,planning_report,size,id,t,px,py,pz,vx,vy,vz,ax,ay,az,planning_time,qp_cost,planning_report,size,id,t,px,py,pz,vx,vy,vz,ax,ay,az,planning_time,qp_cost,planning_report,size
0,0,3.5294,2.39667,0.523506,0,0,0,0,0,0,0.0316987,0.570445,5,0.1,1,0,1.69602,0.168577,0.555379,0,0,0,0,0,0,0.0107694,2.29517,5,0.1,2,0,-3.56894,-3.15338,0.643372,0,0,0,0,0,0,0.0207631,2.04969,5,0.1,3,0,1.9834,-1.00822,0.59263,0,0,0,0,0,0,0.00844734,1.07249,5,0.1,4,0,0.634586,3.30216,0.536656,0,0,0,0,0,0,0.00779355,3.51219,5,0.1,5,0,-2.8628,-3.44498,0.532992,0,0,0,0,0,0,0.0308899,3.5122,5,0.1,6,0,-0.115854,-3.63912,0.571123,0,0,0,0,0,0,0.0277584,2.11051,5,0.1,7,0,2.15418,4.27219,0.506091,0,0,0,0,0,0,0.00637999,0.85791,5,0.1,8,0,-3.95182,3.91608,0.54349,0,0,0,0,0,0,0.010869,3.5122,5,0.1,9,0,2.24743,0.819417,0.509123,0,0,0,0,0,0,0.0108618,1.50923,5,0.1
0,0.1,3.52885,2.3973,0.52343,-0.0156876,0.0178792,-0.00217836,-0.278905,0.317842,-0.0387281,0.0316987,0.570445,5,0.1,1,0.1,1.69534,0.170124,0.555425,-0.0191443,0.0439007,0.0013222,-0.340343,0.780457,0.0235103,0.0107694,2.29517,5,0.1,2,0.1,-3.56866,-3.15181,0.643327,0.00797063,0.0445511,-0.00128541,0.14168,0.792012,-0.0228509,0.0207631,2.04969,5,0.1,3,0.1,1.98241,-1.00881,0.592579,-0.0281701,-0.0166435,-0.00145053,-0.500791,-0.295892,-0.0257902,0.00844734,1.07249,5,0.1,4,0.1,0.63667,3.30227,0.536705,0.0591607,0.00328198,0.00140592,1.05174,0.0583529,0.0249892,0.00779355,3.51219,5,0.1,5,0.1,-2.86078,-3.44448,0.533048,0.0575241,0.0141855,0.0015974,1.02265,0.252172,0.0284016,0.0308899,3.5122,5,0.1,6,0.1,-0.116046,-3.63751,0.571153,-0.00545703,0.0456098,0.000855792,-0.0970135,0.810847,0.0152104,0.0277584,2.11051,5,0.1,7,0.1,2.15475,4.27133,0.506038,0.0161745,-0.0243634,-0.00147978,0.287563,-0.433147,-0.0263117,0.00637999,0.85791,5,0.1,8,0.1,-3.94973,3.91617,0.543527,0.0592075,0.00247695,0.00104485,1.05256,0.0440329,0.018578,0.010869,3.5122,5,0.1,9,0.1,2.24618,0.819971,0.509061,-0.0354853,0.0157235,-0.001752,-0.630841,0.279523,-0.0311434,0.0108618,1.50923,5,0.1
0,0.2,3.52566,2.40093,0.522987,-0.0495851,0.0565112,-0.00688434,-0.371814,0.42367,-0.0516474,0.0302475,0.468026,5,0.1,1,0.2,1.69146,0.179041,0.555694,-0.0605047,0.138748,0.00417829,-0.45383,1.04062,0.0313818,0.00701949,2.05387,5,0.1,2,0.2,-3.56704,-3.14276,0.643066,0.0251889,0.14081,-0.00406206,0.188828,1.05584,-0.030458,0.0198702,1.68169,5,0.1,3,0.2,1.97669,-1.01219,0.592284,-0.0890315,-0.0526041,-0.0045836,-0.667751,-0.394464,-0.0344217,0.00770434,0.879926,5,0.1,4,0.2,0.648688,3.30294,0.536991,0.186977,0.0103712,0.00444353,1.40232,0.0777245,0.0333488,0.0146838,2.9258,5,0.1,5,0.2,-2.84909,-3.4416,0.533373,0.181806,0.0448287,0.00505,1.3634,0.336289,0.0378489,0.035254,2.9258,5,0.1,6,0.2,-0.117155,-3.62825,0.571326,-0.0172468,0.144154,0.00270456,-0.12935,1.08111,0.0202954,0.022976,1.73157,5,0.1,7,0.2,2.15804,4.26638,0.505738,0.0511229,-0.0770092,-0.00467896,0.383377,-0.57745,-0.0350475,0.00890027,0.704177,5,0.1,8,0.2,-3.93771,3.91667,0.543739,0.187129,0.00782609,0.0033021,1.40333,0.058651,0.0247955,0.0132272,2.9258,5,0.1,9,0.2,2.23897,0.823165,0.508705,-0.112152,0.0496939,-0.00553727,-0.841022,0.372708,-0.0415444,0.0112689,1.23838,5,0.1
0,0.3,3.51864,2.40894,0.522012,-0.0922386,0.105115,-0.0128082,-0.455007,0.518516,-0.0631921,0.0302475,0.468026,5,0.1,1,0.3,1.68273,0.198692,0.556286,-0.117008,0.258118,0.00777682,-0.634342,1.27337,0.0383817,0.00701949,2.05387,5,0.1,2,0.3,-3.56347,-3.12282,0.64249,0.046853,0.261933,-0.00755619,0.231117,1.29212,-0.0372753,0.0198702,1.68169,5,0.1,3,0.3,1.96408,-1.01964,0.591635,-0.165629,-0.0978552,-0.00853091,-0.817098,-0.482723,-0.0420958,0.00770434,0.879926,5,0.1,4,0.3,0.675184,3.30441,0.537621,0.348256,0.019313,0.00827834,1.72342,0.0955611,0.0409707,0.0146838,2.9258,5,0.1,5,0.3,-2.82333,-3.43524,0.534088,0.338613,0.0835031,0.00940375,1.67567,0.413239,0.0465289,0.035254,2.9258,5,0.1,6,0.3,-0.119598,-3.60784,0.57171,-0.0320847,0.268045,0.00503231,-0.158283,1.3207,0.0248253,0.022976,1.73157,5,0.1,7,0.3,2.16528,4.25548,0.505118,0.0951007,-0.143252,-0.00750292,0.469148,-0.706673,-0.0216141,0.00890027,0.704177,5,0.1,8,0.3,-3.91119,3.91778,0.544207,0.348528,0.0145726,0.00615288,1.72472,0.0721216,0.030458,0.0132272,2.9258,5,0.1,9,0.3,2.22309,0.830203,0.507955,-0.20863,0.0924474,-0.00934871,-1.02922,0.456072,-0.0338741,0.0112689,1.23838,5,0.1
0,0.4,3.50718,2.42199,0.520421,-0.13603,0.15502,-0.0188902,-0.401378,0.457406,-0.0557303,0.0260852,0.370314,5,0.1,1,0.4,1.66784,0.230758,0.557252,-0.180054,0.380665,0.0114694,-0.595272,1.12341,0.0338554,0.0108902,1.62948,5,0.1,2,0.4,-3.55765,-3.09028,0.641552,0.0690997,0.386286,-0.0111446,0.203848,1.14012,-0.032872,0.0193461,1.33058,5,0.1,3,0.4,1.9435,-1.03179,0.590575,-0.244266,-0.144315,-0.0125811,-0.720859,-0.425875,-0.0371337,0.00757783,0.696207,5,0.1,4,0.4,0.71848,3.30681,0.53865,0.514303,0.0285149,0.0122249,1.52385,0.0846386,0.0362098,0.00794402,2.51527,5,0.1,5,0.4,-2.78123,-3.42486,0.535257,0.500065,0.123322,0.0138864,1.48153,0.365257,0.041157,0.0342471,2.51106,5,0.1,6,0.4,-0.123583,-3.57455,0.572335,-0.0473177,0.395089,0.00742078,-0.139643,1.1642,0.0219345,0.0268904,1.59083,5,0.1,7,0.4,2.17709,4.23768,0.50428,0.14025,-0.211263,-0.009045,0.413895,-0.623465,-0.00950694,0.00682567,0.557651,5,0.1,8,0.4,-3.86786,3.91959,0.544972,0.514704,0.0215232,0.00908673,1.52493,0.063777,0.0269413,0.0109494,2.51545,5,0.1,9,0.4,2.19717,0.841688,0.506868,-0.307679,0.13634,-0.0121802,-0.908017,0.402331,-0.0222027,0.0166391,0.980312,5,0.1
0,0.5,3.49153,2.43982,0.518253,-0.176755,0.201431,-0.0244141,-0.393152,0.448033,-0.0522584,0.0260852,0.370314,5,0.1,1,0.5,1.64676,0.274544,0.558571,-0.241845,0.494646,0.014904,-0.608742,1.1003,0.0331476,0.0108902,1.62948,5,0.1,2,0.5,-3.5497,-3.04585,0.64027,0.0897851,0.501962,-0.0144801,0.19969,1.11666,-0.0322051,0.0193461,1.33058,5,0.1,3,0.5,1.9154,-1.04839,0.589128,-0.317404,-0.187525,-0.0163483,-0.706017,-0.417121,-0.0363626,0.00757783,0.696207,5,0.1,4,0.5,0.777515,3.3101,0.540059,0.664486,0.0372227,0.0159509,1.41153,0.0850409,0.0363961,0.00794402,2.51527,5,0.1,5,0.5,-2.72371,-3.41065,0.536857,0.649669,0.16091,0.0181215,1.43747,0.367165,0.0413656,0.0342471,2.51106,5,0.1,6,0.5,-0.129026,-3.53051,0.573188,-0.0614859,0.473464,0.00964524,-0.136769,0.433654,0.0214688,0.0268904,1.59083,5,0.1,7,0.5,2.19322,4.21338,0.503352,0.182244,-0.27452,-0.00931043,0.405401,-0.610679,0.00336766,0.00682567,0.557651,5,0.1,8,0.5,-3.80878,3.92207,0.546019,0.664896,0.0280861,0.0118583,1.41078,0.0641197,0.027068,0.0109494,2.51545,5,0.1,9,0.5,2.16178,0.85737,0.505574,-0.399807,0.177161,-0.0133771,-0.889376,0.394057,-0.00277907,0.0166391,0.980312,5,0.1
0,0.6,3.47204,2.46204,0.515572,-0.211257,0.240755,-0.0289217,-0.282884,0.322223,-0.03618,0.0335936,0.276206,5,0.1,1,0.6,1.61972,0.329095,0.560215,-0.29636,0.591203,0.0178128,-0.458956,0.791519,0.0238419,0.00697386,1.21711,5,0.1,2,0.6,-3.5398,-2.99049,0.638673,0.107306,0.599951,-0.0173062,0.143766,0.803351,-0.0231862,0.0199915,0.990587,5,0.1,3,0.6,1.8804,-1.06907,0.587325,-0.379363,-0.224131,-0.0195384,-0.507832,-0.30005,-0.0261664,0.00703645,0.518309,5,0.1,4,0.6,0.850384,3.31421,0.541823,0.785352,0.0447571,0.0191763,0.961542,0.0625849,0.0267625,0.0089432,2.33319,5,0.1,5,0.6,-2.65211,-3.39285,0.538862,0.775254,0.193459,0.0217885,1.02413,0.26989,0.0303984,0.0328109,2.30707,5,0.1,6,0.6,-0.135807,-3.48199,0.574252,-0.0734881,0.487649,0.011529,-0.0983924,-0.12219,0.0154376,0.0249789,1.15848,5,0.1,7,0.6,2.21332,4.1831,0.502453,0.217819,-0.328112,-0.00852644,0.291586,-0.439167,0.0115931,0.00817899,0.415783,5,0.1,8,0.6,-3.73588,3.92518,0.547331,0.785631,0.033766,0.0142559,0.959754,0.0472069,0.0199378,0.0111812,2.33398,5,0.1,9,0.6,2.11769,0.876908,0.504248,-0.47785,0.211743,-0.0129327,-0.639915,0.28345,0.0107586,0.0097288,0.730425,5,0.1
0,0.7,3.44952,2.4877,0.512566,-0.238415,0.271693,-0.03058,-0.244766,0.278845,0.00105053,0.0335936,0.276206,5,0.1,1,0.7,1.58781,0.392105,0.562113,-0.341041,0.667192,0.0201014,-0.410065,0.684818,0.0206269,0.00697386,1.21711,5,0.1,2,0.7,-3.52837,-2.92655,0.636828,0.121108,0.677075,-0.0195322,0.124395,0.695035,-0.0200607,0.0199915,0.990587,5,0.1,3,0.7,1.83997,-1.09296,0.585243,-0.428117,-0.252938,-0.02205,-0.439391,-0.259623,-0.0226349,0.00703645,0.518309,5,0.1,4,0.7,0.932667,3.31901,0.543876,0.850318,0.051035,0.0218621,0.364665,0.0590086,0.0252575,0.0089432,2.33319,5,0.1,5,0.7,-2.57051,-3.37214,0.541195,0.846811,0.220551,0.0248397,0.424758,0.254869,0.0286996,0.0328109,2.30707,5,0.1,6,0.7,-0.143639,-3.43467,0.575481,-0.082934,0.451417,0.0130108,-0.0851266,-0.565648,0.0133514,0.0249789,1.15848,5,0.1,7,0.7,2.23654,4.14814,0.501667,0.245813,-0.370276,-0.00711773,0.252306,-0.37998,0.0159815,0.00817899,0.415783,5,0.1,8,0.7,-3.65357,3.92879,0.548858,0.850414,0.0385024,0.0162556,0.363022,0.0445247,0.0188015,0.0111812,2.33398,5,0.1,9,0.7,2.06676,0.899475,0.503026,-0.539282,0.238956,-0.011362,-0.553623,0.245251,0.0197403,0.0097288,0.730425,5,0.1
0,0.8,3.42463,2.51607,0.509561,-0.257605,0.293553,-0.0290841,-0.128508,0.146627,0.0271797,0.0290401,0.195635,5,0.1,1,0.8,1.5519,0.461781,0.564213,-0.374234,0.720883,0.021717,-0.236928,0.35961,0.010848,0.00758868,0.861717,5,0.1,2,0.8,-3.51572,-2.85584,0.634789,0.130856,0.73157,-0.0211045,0.0654459,0.365019,-0.01055,0.0310233,0.990341,5,0.1,3,0.8,1.79526,-1.11938,0.58294,-0.462568,-0.27329,-0.023824,-0.23067,-0.136435,-0.0118911,0.00693408,0.365958,5,0.1,4,0.8,1.01879,3.32437,0.546175,0.866026,0.0558972,0.0239402,0,0.0352859,0.0151992,0.0093634,2.26907,5,0.1,5,0.8,-2.48451,-3.34895,0.543807,0.866026,0.241536,0.0272036,0,0.153065,0.0172555,0.0319456,2.23283,5,0.1,6,0.8,-0.1523,-3.39284,0.57684,-0.0896085,0.381255,0.0140578,-0.044696,-0.807047,0.00697374,0.0236377,0.835362,5,0.1,7,0.8,2.26221,4.10947,0.501038,0.265592,-0.400078,-0.00543594,0.132561,-0.199318,0.0171959,0.00974233,0.294307,5,0.1,8,0.8,-3.56745,3.93284,0.550567,0.866026,0.0421703,0.0178024,0,0.0267029,0.0112951,0.00916474,2.27031,5,0.1,9,0.8,2.01044,0.92443,0.501997,-0.582692,0.258183,-0.0091508,-0.290692,0.128806,0.0237525,0.0108549,0.516448,5,0.1
0,0.9,3.39825,2.54613,0.506823,-0.26925,0.30684,-0.0253816,-0.0920445,0.105038,0.0450052,0.0290401,0.195635,5,0.1,1,0.9,1.51334,0.535584,0.566436,-0.396135,0.753469,0.0226997,-0.181638,0.257583,0.0077635,0.00758868,0.861717,5,0.1,2,0.9,-3.50216,-2.78079,0.632628,0.141231,0.769091,-0.0220603,0.1259,0.340477,-0.00755116,0.0310233,0.990341,5,0.1,3,0.9,1.7479,-1.14736,0.580501,-0.483471,-0.285653,-0.0249011,-0.165246,-0.0977218,-0.00851229,0.00693408,0.365958,5,0.1,4,0.9,1.10539,3.33015,0.548648,0.866026,0.0595327,0.0255046,0,0.0336915,0.0144914,0.0093634,2.26907,5,0.1,5,0.9,-2.39791,-3.32422,0.546617,0.866026,0.25092,0.0289832,0,0.0326335,0.0165142,0.0319456,2.23283,5,0.1,6,0.9,-0.161474,-3.35893,0.578279,-0.0936587,0.295594,0.0146897,-0.032017,-0.882521,0.00499561,0.0236377,0.835362,5,0.1,7,0.9,2.2894,4.06851,0.500579,0.277605,-0.418142,-0.00376338,0.0949651,-0.142783,0.0159256,0.00974233,0.294307,5,0.1,8,0.9,-3.48085,3.9372,0.552406,0.866026,0.0449236,0.018966,0,0.0255555,0.010781,0.00916474,2.27031,5,0.1,9,0.9,1.95078,0.950862,0.501201,-0.609033,0.269855,-0.00675106,-0.208214,0.0922717,0.023704,0.0108549,0.516448,5,0.1
0,1,3.37101,2.57717,0.504527,-0.273967,0.312221,-0.0204206,0.00584126,-0.00655651,0.0527203,0.0269655,0.133828,5,0.1,1,1,1.47304,0.61182,0.568733,-0.40732,0.766663,0.0230968,-0.0292063,-0.0165701,-0.000506639,0.00779164,0.587142,5,0.1,2,1,-3.48742,-2.70252,0.630396,0.153238,0.792086,-0.0224486,0.102401,0.0885725,0.000506639,0.0240396,0.706078,5,0.1,3,1,1.69898,-1.17626,0.577981,-0.491935,-0.290662,-0.0253379,0.0106692,0.00625849,0.000596046,0.00675221,0.248868,5,0.1,4,1,1.192,3.33624,0.551259,0.866026,0.0620067,0.0265673,0,0.013113,0.00569224,0.00838387,2.26881,5,0.1,5,1,-2.31131,-3.29918,0.549584,0.866026,0.247854,0.0301972,0,-0.0940561,0.00652671,0.0332951,2.02824,5,0.1,6,1,-0.170951,-3.33375,0.579765,-0.0952985,0.208879,0.0149459,0.00206381,-0.834227,-0.000357628,0.0287976,0.581667,5,0.1,7,1,2.31749,4.0262,0.500278,0.282466,-0.425458,-0.0023067,-0.00596046,0.00917912,0.0130534,0.00845991,0.200951,5,0.1,8,1,-3.39424,3.9418,0.554348,0.866026,0.0468016,0.0197589,0,0.0100136,0.00420213,0.0099057,2.27015,5,0.1,9,1,1.88916,0.978167,0.500641,-0.619698,0.274581,-0.00450015,0.013411,-0.00587106,0.020951,0.0116956,0.352005,5,0.1
0,1.1,3.34365,2.60835,0.502751,-0.272772,0.310868,-0.0151152,0.0280589,-0.0319332,0.0522658,0.0269655,0.133828,5,0.1,1,1.1,1.43218,0.688371,0.571039,-0.409155,0.763301,0.0229946,0.00824034,-0.0787117,-0.00238046,0.00779164,0.587142,5,0.1,2,1.1,-3.47153,-2.62284,0.628154,0.164717,0.800762,-0.0223485,0.114664,0.0490546,0.00232086,0.0240396,0.706078,5,0.1,3,1.1,1.64987,-1.20528,0.575452,-0.489775,-0.289389,-0.0252227,0.0505298,0.0298247,0.00263378,0.00675221,0.248868,5,0.1,4,1.1,1.2786,3.34252,0.553949,0.866026,0.0635743,0.0272447,0,0.0146329,0.00631064,0.00838387,2.26881,5,0.1,5,1.1,-2.2247,-3.27519,0.55264,0.866026,0.229187,0.0309107,0,-0.26612,0.0061281,0.0332951,2.02824,5,0.1,6,1.1,-0.180466,-3.31684,0.581257,-0.0948803,0.131532,0.0148775,0.00978634,-0.701517,-0.00155717,0.0287976,0.581667,5,0.1,7,1.1,2.34569,3.98372,0.500107,0.281239,-0.423595,-0.00119209,-0.0289232,0.0436306,0.00920892,0.00845991,0.200951,5,0.1,8,1.1,-3.30764,3.94654,0.556348,0.866026,0.0480067,0.0202651,0,0.0113398,0.00476465,0.0099057,2.27015,5,0.1,9,1.1,1.82728,1.00558,0.500288,-0.616978,0.273382,-0.00263425,0.0636354,-0.0281483,0.0162311,0.0116956,0.352005,5,0.1
0,1.2,3.31662,2.63916,0.501492,-0.266689,0.303942,-0.0101566,0.100136,-0.114083,0.046134,0.0320198,0.180601,5,0.1,1,1.2,1.39147,0.764019,0.573318,-0.403064,0.74627,0.0224799,0.123918,-0.280291,-0.00843406,0.00978558,0.40171,5,0.1,2,1.2,-3.45455,-2.54282,0.625939,0.174034,0.795889,-0.0218481,0.0629425,-0.170708,0.00819564,0.0184548,0.487248,5,0.1,3,1.2,1.60133,-1.23396,0.572952,-0.478849,-0.282934,-0.024657,0.179946,0.106335,0.00926852,0.00632496,0.165486,5,0.1,4,1.2,1.3652,3.34893,0.556696,0.866026,0.0643253,0.0275686,0,-0.00226498,-0.000953674,0.00827054,2.09688,5,0.1,5,1.2,-2.1381,-3.25379,0.55575,0.866026,0.197047,0.0311494,0,-0.365257,-0.0025034,0.0310939,1.20964,5,0.1,6,1.2,-0.189869,-3.3069,0.582731,-0.0927631,0.0702679,0.0145435,0.0348389,-0.518203,-0.00545382,0.0265701,0.803386,5,0.1,7,1.2,2.37357,3.94174,0.500027,0.274974,-0.414151,-0.000460446,-0.103354,0.155568,0.00545382,0.00689797,0.13446,5,0.1,8,1.2,-3.22104,3.95138,0.558392,0.866026,0.0486016,0.0205144,0,-0.0013113,-0.000566244,0.0100112,2.27014,5,0.1,9,1.2,1.76614,1.03268,0.500098,-0.603211,0.267285,-0.00126809,0.226617,-0.100374,0.0110567,0.0121292,0.238645,5,0.1
0,1.3,3.29071,2.66899,0.500691,-0.249074,0.292662,-0.0060359,0.243306,-0.120953,0.0359789,0.0320198,0.180601,5,0.1,1,1.3,1.35209,0.837275,0.575525,-0.381806,0.71856,0.0216459,0.294559,-0.297081,-0.00894442,0.00978558,0.40171,5,0.1,2,1.3,-3.43682,-2.46405,0.623795,0.18055,0.779308,-0.0210378,0.0575036,-0.190079,0.00868738,0.0184548,0.487248,5,0.1,3,1.3,1.55432,-1.26174,0.570532,-0.461062,-0.272423,-0.0237409,0.190675,0.112683,0.00981987,0.00632496,0.165486,5,0.1,4,1.3,1.4518,3.35536,0.559453,0.866026,0.0643887,0.0275966,0,0.000238419,0.000104308,0.00827054,2.09688,5,0.1,5,1.3,-2.05151,-3.236,0.558855,0.865665,0.158035,0.0309303,-0.0144467,-0.405505,-0.0031814,0.0310939,1.20964,5,0.1,6,1.3,-0.198975,-3.30226,0.584159,-0.089319,0.0251409,0.0140044,0.0369269,-0.360861,-0.00578538,0.0265701,0.803386,5,0.1,7,1.3,2.40056,3.90108,0.500003,0.264758,-0.398774,-6.67758e-05,-0.109509,0.164837,0.00259653,0.00689797,0.13446,5,0.1,8,1.3,-3.13444,3.95625,0.560446,0.866026,0.0487812,0.0205885,0,0.00220537,0.000912696,0.0100112,2.27014,5,0.1,9,1.3,1.7071,1.05896,0.500018,-0.575758,0.258564,-0.000414439,0.329964,-0.0850335,0.00617653,0.0121292,0.238645,5,0.1
0,1.4,3.2672,2.69758,0.500249,-0.219703,0.278181,-0.00299364,0.336409,-0.17488,0.0247955,0.0256022,0.143334,5,0.1,1,1.4,1.31561,0.907464,0.577639,-0.345492,0.683001,0.020574,0.4251,-0.429481,-0.0129342,0.00932946,0.293203,5,0.1,2,1.4,-3.41855,-2.38729,0.62174,0.183874,0.752997,-0.0199959,0.00214577,-0.355721,0.0125468,0.019771,0.557364,5,0.1,3,1.4,1.50928,-1.28835,0.568213,-0.438243,-0.258937,-0.0225648,0.275612,0.16278,0.0141561,0.00623322,0.10893,5,0.1,4,1.4,1.53841,3.36178,0.562206,0.866026,0.0638187,0.0273526,0,-0.0139475,-0.00599027,0.00981187,1.65502,5,0.1,5,1.4,-1.96513,-3.22223,0.561922,0.86025,0.117624,0.0302956,-0.115573,-0.395417,-0.0104308,0.0316617,0.637585,5,0.1,6,1.4,-0.2077,-3.30116,0.585527,-0.084899,0.00114441,0.0133127,0.0533834,-0.111938,-0.00840425,0.0291361,1.67963,5,0.1,7,1.4,2.42642,3.86213,0.500006,0.251651,-0.379038,9.23872e-05,-0.15831,0.23818,0.000745058,0.00758046,0.152929,5,0.1,8,1.4,-3.04783,3.96112,0.562504,0.866026,0.0485837,0.020504,0,-0.00810623,-0.00342727,0.00929329,2.2702,5,0.1,9,1.4,1.6514,1.08434,0.5,-0.536099,0.248423,7.45058e-06,0.466883,-0.125289,0.0025034,0.00740512,0.751257,5,0.1
0,1.5,3.24703,2.7247,0.500055,-0.182692,0.265638,-0.00106338,0.394702,-0.0932068,0.0141039,0.0256022,0.143334,5,0.1,1,1.5,1.28343,0.973699,0.579634,-0.296086,0.642034,0.01934,0.548571,-0.40926,-0.0123307,0.00932946,0.293203,5,0.1,2,1.5,-3.39999,-2.31354,0.619801,0.188574,0.72356,-0.0187986,0.0740439,-0.266969,0.0119656,0.019771,0.557364,5,0.1,3,1.5,1.46679,-1.31346,0.566024,-0.411955,-0.24341,-0.021214,0.262603,0.155129,0.0135005,0.00623322,0.10893,5,0.1,4,1.5,1.62501,3.3681,0.564915,0.865988,0.062605,0.0268308,-0.00149012,-0.012964,-0.00557303,0.00981187,1.65502,5,0.1,5,1.5,-1.87959,-3.21237,0.564902,0.850349,0.0804238,0.0293077,-0.11871,-0.344634,-0.0103898,0.0316617,0.637585,5,0.1,6,1.5,-0.215933,-3.30139,0.586818,-0.0798069,-0.00129715,0.0125118,0.0508707,0.146478,-0.00799447,0.0291361,1.67963,5,0.1,7,1.5,2.45096,3.82517,0.500017,0.240297,-0.361961,0.000110082,-0.0843704,0.126883,-0.000275671,0.00758046,0.152929,5,0.1,8,1.5,-2.96123,3.96596,0.564544,0.866026,0.0481576,0.0203231,0,-0.00306964,-0.00130385,0.00929329,2.2702,5,0.1,9,1.5,1.60156,1.10861,0.500009,-0.448446,0.237391,0.000139419,1.20218,-0.105239,0.000346452,0.00740512,0.751257,5,0.1
0,1.6,3.23077,2.75082,0.500004,-0.142395,0.256556,-9.53674e-05,0.404,-0.100732,0.00569224,0.0262157,0.176243,5,0.1,1,1.6,1.25667,1.03576,0.581504,-0.23841,0.597906,0.018011,0.593245,-0.486255,-0.0146627,0.00908703,0.156727,5,0.1,2,1.6,-3.38076,-2.2426,0.617983,0.195599,0.693816,-0.0175089,0.0534058,-0.351667,0.0142455,0.0199577,0.662248,5,0.1,3,1.6,1.42696,-1.33699,0.563973,-0.383642,-0.226682,-0.0197574,0.31203,0.184357,0.0160635,0.00634404,0.122408,5,0.1,4,1.6,1.71159,3.37428,0.567563,0.86543,0.0607789,0.0260472,-0.0118613,-0.0253916,-0.0109076,0.012431,1.27005,5,0.1,5,1.6,-1.7954,-3.20594,0.567774,0.830415,0.0493228,0.0280395,-0.304639,-0.275254,-0.0157356,0.0322951,2.33314,5,0.1,6,1.6,-0.223648,-3.3,0.588027,-0.0743218,0.0367284,0.0116497,0.0604391,0.593781,-0.00947714,0.0267772,3.29226,5,0.1,7,1.6,2.47458,3.78959,0.500026,0.232083,-0.349599,5.66244e-05,-0.0914335,0.137329,-0.000685453,0.00767251,0.091321,5,0.1,8,1.6,-2.87463,3.97075,0.566565,0.866026,0.0475168,0.020054,0,-0.0114441,-0.00491738,0.00985809,2.27031,5,0.1,9,1.6,1.56336,1.13179,0.500023,-0.310713,0.225705,0.000113249,1.48582,-0.135303,-0.000715256,0.00706021,0.468608,5,0.1
0,1.7,3.21851,2.77613,0.500013,-0.103173,0.250636,0.000189338,0.374913,-0.0353158,0.000584871,0.0262157,0.176243,5,0.1,1,1.7,1.23579,1.09324,0.583235,-0.179634,0.552322,0.0166366,0.573374,-0.44176,-0.0133216,0.00908703,0.156727,5,0.1,2,1.7,-3.36071,-2.17465,0.6163,0.207147,0.667389,-0.0161733,0.153765,-0.214249,0.0129454,0.0199577,0.662248,5,0.1,3,1.7,1.3899,-1.35889,0.562065,-0.359706,-0.212539,-0.0185248,0.18917,0.111789,0.00974163,0.00634404,0.122408,5,0.1,4,1.7,1.79812,3.38024,0.570117,0.865414,0.0584267,0.0250367,-0.00365824,-0.0238121,-0.0102334,0.012431,1.27005,5,0.1,5,1.7,-1.71332,-3.20237,0.570503,0.81525,0.0226427,0.0265582,-0.057891,-0.244394,-0.0147745,0.0322951,2.33314,5,0.1,6,1.7,-0.230783,-3.29176,0.589146,-0.0684033,0.141019,0.0107219,0.0594007,1.37155,-0.0093095,0.0267772,3.29226,5,0.1,7,1.7,2.49732,3.75523,0.500028,0.222406,-0.338027,-2.8871e-06,-0.107884,0.109419,-0.000502914,0.00767251,0.091321,5,0.1,8,1.7,-2.78803,3.97546,0.568553,0.866026,0.0467934,0.019741,0,-0.00560284,-0.00242516,0.00985809,2.27031,5,0.1,9,1.7,1.53998,1.15364,0.500031,-0.155609,0.210738,4.10713e-05,1.5666,-0.166044,-0.000696629,0.00706021,0.468608,5,0.1
0,1.8,3.20998,2.801,0.50003,-0.0683427,0.246477,0.00012368,0.31817,-0.0604391,-0.00146031,0.0265175,0.268298,5,0.1,1,1.8,1.2206,1.14622,0.584831,-0.125259,0.506809,0.0152647,0.507772,-0.479698,-0.0144541,0.0117224,0.17986,5,0.1,2,1.8,-3.33922,-2.10901,0.614749,0.222224,0.644547,-0.0148401,0.130415,-0.269294,0.0140369,0.0170439,0.492559,5,0.1,3,1.8,1.35482,-1.37961,0.560258,-0.341916,-0.202027,-0.0176087,0.183105,0.108242,0.00944734,0.00627381,0.0706027,5,0.1,4,1.8,1.88454,3.38595,0.572564,0.861588,0.0556469,0.0238448,-0.0886917,-0.033021,-0.0142157,0.00925641,0.968835,5,0.1,5,1.8,-1.63208,-3.20119,0.573081,0.808603,0.00261068,0.0249371,-0.118017,-0.148654,-0.018239,0.0313191,3.50611,5,0.1,6,1.8,-0.237319,-3.27033,0.59017,-0.0622001,0.289762,0.00974983,0.0656098,1.51122,-0.0102818,0.0266259,2.77856,5,0.1,7,1.8,2.51895,3.72203,0.500026,0.209558,-0.325125,-4.32134e-05,-0.152349,0.159025,-0.000298023,0.00676133,0.0869207,5,0.1,8,1.8,-2.70142,3.9801,0.570512,0.866026,0.0459552,0.0193834,0,-0.0129938,-0.00551343,0.0084665,2.13922,5,0.1,9,1.8,1.53205,1.17382,0.500031,-0.00602007,0.192207,-2.23517e-05,1.38855,-0.205398,-0.000536442,0.0110489,0.655212,5,0.1
0,1.9,3.20461,2.82531,0.500036,-0.0403177,0.238978,6.42613e-06,0.241712,-0.0948459,-0.000905246,0.0265175,0.268298,5,0.1,1,1.9,1.21046,1.19464,0.586289,-0.0791434,0.462367,0.0139257,0.411019,-0.422925,-0.0127479,0.0117224,0.17986,5,0.1,2,1.9,-3.31649,-2.0457,0.613331,0.230754,0.622739,-0.0135396,0.0366271,-0.19677,0.0123829,0.0170439,0.492559,5,0.1,3,1.9,1.32144,-1.39934,0.558539,-0.326324,-0.192809,-0.0168041,0.143453,0.0848025,0.00740215,0.00627381,0.0706027,5,0.1,4,1.9,1.97014,3.39115,0.574906,0.848493,0.0464447,0.0232193,-0.197344,-0.139207,-0.000607222,0.00925641,0.968835,5,0.1,5,1.9,-1.55214,-3.20182,0.575475,0.786605,-0.0152379,0.0228795,-0.329621,-0.143766,-0.0228621,0.0313191,3.50611,5,0.1,6,1.9,-0.243207,-3.23324,0.591093,-0.0555202,0.455289,0.00870312,0.0682352,1.70639,-0.0106953,0.0266259,2.77856,5,0.1,7,1.9,2.53897,3.6902,0.50002,0.18919,-0.312163,-6.37025e-05,-0.248298,0.116169,-0.000111759,0.00676133,0.0869207,5,0.1,8,1.9,-2.61482,3.98465,0.572429,0.866026,0.0450384,0.0189945,0,-0.0077039,-0.0032708,0.0084665,2.13922,5,0.1,9,1.9,1.5364,1.19215,0.500027,0.0753753,0.175331,-5.96046e-05,0.323042,-0.141837,-0.000223517,0.0110489,0.655212,5,0.1
0,2,3.20166,2.84864,0.500033,-0.0200093,0.226665,-6.10948e-05,0.164866,-0.154495,-0.000447035,0.0257632,0.255071,5,0.1,1,2,1.20442,1.23876,0.587618,-0.0435293,0.419894,0.0126466,0.30005,-0.436127,-0.0131726,0.00895165,0.416473,5,0.1,2,2,-3.29341,-1.98449,0.612039,0.229043,0.6001,-0.0122964,-0.0722408,-0.277042,0.0127852,0.0188827,0.381214,5,0.1,3,2,1.28956,-1.41817,0.556898,-0.310722,-0.183588,-0.0159994,0.178814,0.105739,0.00920892,0.00666242,0.0539684,5,0.1,4,2,2.05366,3.395,0.577232,0.818193,0.0299275,0.0233173,-0.423789,-0.181794,0.000864267,0.0108314,0.795336,5,0.1,5,2,-1.47552,-3.20367,0.577642,0.741646,-0.0169694,0.0203818,-0.572145,0.136733,-0.0269711,0.0287247,3.32352,5,0.1,6,2,-0.248412,-3.17949,0.591909,-0.0485219,0.614983,0.00760704,0.0717789,1.41978,-0.0112653,0.0242205,2.43238,5,0.1,7,2,2.55654,3.6596,0.500014,0.161183,-0.299197,-6.55651e-05,-0.306129,0.154257,2.98023e-05,0.00990582,0.146778,5,0.1,8,2,-2.52822,3.9891,0.574309,0.866026,0.0440121,0.0185594,0,-0.0146627,-0.00613928,0.00765371,1.69276,5,0.1,9,2,1.54437,1.20901,0.50002,0.0737607,0.162154,-7.15256e-05,-0.287235,-0.128925,0,0.0125971,0.581878,5,0.1
0,2.1,3.20043,2.87051,0.500025,-0.00533201,0.210518,-8.58679e-05,0.123218,-0.171512,-7.45058e-05,0.0257632,0.255071,5,0.1,1,2.1,1.20142,1.2787,0.588821,-0.0179363,0.379853,0.0114376,0.209205,-0.376306,-0.0113547,0.00895165,0.416473,5,0.1,2,2.1,-3.27117,-1.92573,0.610869,0.213111,0.575897,-0.0111225,-0.234395,-0.231206,0.0110306,0.0188827,0.381214,5,0.1,3,2.1,1.25926,-1.43607,0.555337,-0.29608,-0.174929,-0.015245,0.129335,0.0764802,0.00666082,0.00666242,0.0539684,5,0.1,4,2.1,2.13308,3.39676,0.579626,0.767359,0.00280216,0.025038,-0.595018,-0.33626,0.0289008,0.0108314,0.795336,5,0.1,5,2.1,-1.4042,-3.20433,0.579548,0.684565,0.00980534,0.017764,-0.58265,0.485823,-0.0255555,0.0287247,3.32352,5,0.1,6,2.1,-0.25292,-3.11131,0.592616,-0.0417691,0.743309,0.00654748,0.0639595,1.10309,-0.0100322,0.0242205,2.43238,5,0.1,7,2.1,2.57106,3.6305,0.500007,0.12867,-0.28221,-5.30854e-05,-0.336409,0.189736,0.000186265,0.00990582,0.146778,5,0.1,8,2.1,-2.44162,3.99344,0.576138,0.866013,0.0427805,0.0180441,-0.000521541,-0.0118613,-0.00497326,0.00765371,1.69276,5,0.1,9,2.1,1.54958,1.22458,0.500014,0.0245057,0.149265,-6.49132e-05,-0.646099,-0.131562,0.000115484,0.0125971,0.581878,5,0.1
0,2.2,3.20041,2.89066,0.500017,0.0038445,0.191885,-8.19564e-05,0.0578165,-0.203133,0.000149012,0.0264216,0.411563,5,0.1,1,2.2,1.20051,1.31482,0.589908,-0.00196695,0.342658,0.0103146,0.110149,-0.375748,-0.0112951,0.00664744,0.652417,5,0.1,2,2.2,-3.25121,-1.86938,0.609812,0.184381,0.54976,-0.010033,-0.329852,-0.308216,0.0110269,0.0190732,0.29981,5,0.1,3,2.2,1.23032,-1.45317,0.553847,-0.282255,-0.166756,-0.0145331,0.157833,0.0932813,0.00816584,0.0065269,0.0241663,5,0.1,4,2.2,2.20655,3.39527,0.582289,0.699091,-0.0329971,0.0282824,-0.769377,-0.360966,0.0325143,0.0076599,0.691105,5,0.1,5,2.2,-1.33876,-3.2,0.581198,0.622976,0.0854254,0.0152439,-0.65732,0.991583,-0.0249147,0.0284628,2.95177,5,0.1,6,2.2,-0.256785,-3.03225,0.593222,-0.0356145,0.829262,0.00558197,0.0595897,0.596166,-0.00932813,0.0289375,2.30223,5,0.1,7,2.2,2.58224,3.60331,0.500003,0.0952661,-0.260586,-3.27826e-05,-0.325799,0.244737,0.000238419,0.00925016,0.206013,5,0.1,8,2.2,-2.35502,3.99765,0.577914,0.865811,0.041312,0.0174284,-0.00405312,-0.0187159,-0.00789762,0.00963354,1.30288,5,0.1,9,2.2,1.54856,1.23883,0.500008,-0.046289,0.135407,-5.06639e-05,-0.729799,-0.147343,0.000208616,0.0114029,0.483895,5,0.1
0,2.3,3.20107,2.90881,0.50001,0.00866689,0.170958,-6.23986e-05,0.021562,-0.21562,0.000223517,0.0264216,0.411563,5,0.1,1,2.3,1.20083,1.34749,0.590887,0.00757817,0.312856,0.00928501,0.0604764,-0.239916,-0.00959262,0.00664744,0.652417,5,0.1,2,2.3,-3.23452,-1.81583,0.60886,0.148788,0.521853,-0.00902824,-0.372857,-0.269674,0.00935793,0.0190732,0.29981,5,0.1,3,2.3,1.20287,-1.46939,0.552434,-0.266778,-0.157609,-0.013733,0.159703,0.0943691,0.00824407,0.0065269,0.0241663,5,0.1,4,2.3,2.27278,3.38998,0.585475,0.626742,-0.0740539,0.0370186,-0.692502,-0.436142,0.127785,0.0076599,0.691105,5,0.1,5,2.3,-1.27955,-3.18536,0.582605,0.562981,0.216009,0.0129659,-0.560455,1.5147,-0.0209659,0.0284628,2.95177,5,0.1,6,2.3,-0.26007,-2.9473,0.593736,-0.0302546,0.861989,0.00474285,0.0485238,0.12669,-0.00759959,0.0289375,2.30223,5,0.1,7,2.3,2.5902,3.57854,0.500001,0.0645399,-0.234158,-1.35042e-05,-0.284672,0.282943,0.000145286,0.00925016,0.206013,5,0.1,8,2.3,-2.26845,4.0017,0.579621,0.865648,0.0396241,0.0167164,-0.00779331,-0.016585,-0.00699237,0.00963354,1.30288,5,0.1,9,2.3,1.54021,1.25156,0.500004,-0.120645,0.118632,-3.1013e-05,-0.728786,-0.184588,0.000175089,0.0114029,0.483895,5,0.1
0,2.4,3.20188,2.92481,0.500004,0.00587106,0.148767,-3.8743e-05,-0.0834465,-0.227809,0.000208616,0.02715,0.395332,5,0.1,1,2.4,1.20169,1.37766,0.591768,0.00739992,0.291255,0.00834614,-0.0709891,-0.206769,-0.00935793,0.00707847,0.585202,5,0.1,2,2.4,-3.22151,-1.76506,0.608003,0.111425,0.492486,-0.00811368,-0.367165,-0.331223,0.00917912,0.0210645,3.18536,5,0.1,3,2.4,1.17704,-1.48465,0.551105,-0.248998,-0.147104,-0.0128165,0.200927,0.118732,0.0103712,0.00819074,0.0144283,5,0.1,4,2.4,2.33202,3.38044,0.589875,0.558072,-0.116044,0.0512913,-0.691056,-0.38588,0.146717,0.00623886,0.700179,5,0.1,5,2.4,-1.22601,-3.15604,0.583801,0.507841,0.369889,0.0109971,-0.554979,1.48344,-0.0186563,0.0280465,2.56811,5,0.1,6,2.4,-0.262865,-2.8608,0.594175,-0.02575,0.866026,0.00403672,0.0422597,0,-0.00658631,0.0259666,2.2717,5,0.1,7,2.4,2.59532,3.5566,0.5,0.0389636,-0.204217,-2.98023e-06,-0.22471,0.314236,5.96046e-05,0.00933863,0.326125,5,0.1,8,2.4,-2.18201,4.00557,0.581255,0.861865,0.0377417,0.0159189,-0.0833273,-0.0224113,-0.00941753,0.0130592,0.973868,5,0.1,9,2.4,1.5247,1.26247,0.500001,-0.187156,0.0991493,-1.63913e-05,-0.581205,-0.201941,0.000149012,0.0101311,0.818484,5,0.1
0,2.5,3.20194,2.93841,0.500002,-0.00666343,0.122292,-1.96509e-05,-0.195608,-0.29245,0.000160187,0.02715,0.395332,5,0.1,1,2.5,1.20192,1.40592,0.592559,-0.00511743,0.275062,0.00749789,-0.211522,-0.132687,-0.00785291,0.00707847,0.585202,5,0.1,2,2.5,-3.21231,-1.71646,0.607235,0.0721801,0.487866,-0.00725584,-0.393078,0.165366,0.00816211,0.0210645,3.18536,5,0.1,3,2.5,1.15313,-1.49878,0.549874,-0.229407,-0.135528,-0.011806,0.19712,0.116467,0.0101626,0.00819074,0.0144283,5,0.1,4,2.5,2.38313,3.36693,0.595779,0.453813,-0.153435,0.0669504,-1.31679,-0.347108,0.157297,0.00623886,0.700179,5,0.1,5,2.5,-1.17776,-3.11126,0.584815,0.4592,0.527417,0.0093529,-0.436626,1.58329,-0.0145808,0.0280465,2.56811,5,0.1,6,2.5,-0.265248,-2.77419,0.594549,-0.022098,0.866026,0.00346731,0.0317823,0,-0.00495464,0.0259666,2.2717,5,0.1,7,2.5,2.59814,3.53774,0.5,0.0179451,-0.173109,8.3819e-07,-0.187173,0.307187,1.86265e-05,0.00933863,0.326125,5,0.1,8,2.5,-2.09595,4.00924,0.582803,0.860855,0.0356831,0.0150532,0.0131577,-0.020057,-0.00843406,0.0130592,0.973868,5,0.1,9,2.5,1.50295,1.27119,0.5,-0.248232,0.0737904,-5.30854e-06,-0.607133,-0.291444,7.82311e-05,0.0101311,0.818484,5,0.1
0,2.6,3.2,2.94914,0.5,-0.0348687,0.0919402,-5.96046e-06,-0.356197,-0.307202,8.9407e-05,0.0271553,0.342294,5,0.1,1,2.6,1.2,1.43278,0.59327,-0.0366777,0.262028,0.00673383,-0.405192,-0.139296,-0.00762939,0.00611898,0.494746,5,0.1,2,2.6,-3.20694,-1.66652,0.60655,0.0367939,0.512645,-0.0064522,-0.299573,0.274479,0.00804663,0.0204292,3.11146,5,0.1,3,2.6,1.1312,-1.51173,0.548746,-0.208578,-0.123221,-0.0107318,0.223279,0.131905,0.0114739,0.00731835,0.00453672,5,0.1,4,2.6,2.42143,3.35002,0.603216,0.308543,-0.182968,0.0811785,-1.52755,-0.23365,0.12067,0.00586226,0.369101,5,0.1,5,2.6,-1.13395,-3.051,0.585682,0.417274,0.672138,0.00801831,-0.415504,1.25086,-0.012368,0.0274497,2.3104,5,0.1,6,2.6,-0.26731,-2.68759,0.594872,-0.019218,0.866026,0.00301749,0.0265688,0,-0.00414252,0.025794,2.27176,5,0.1,7,2.6,2.59911,3.52195,0.5,0.00280738,-0.142944,1.49012e-06,-0.111103,0.295281,0,0.00877527,0.295982,5,0.1,8,2.6,-2.00998,4.0127,0.584264,0.855976,0.0335217,0.0141412,-0.145972,-0.0243187,-0.0101626,0.0112584,0.70007,5,0.1,9,2.6,1.47527,1.27706,0.5,-0.302893,0.0433117,0,-0.462353,-0.307322,2.98023e-05,0.0097858,0.661431,5,0.1
0,2.7,3.19436,2.95678,0.5,-0.0806108,0.0609417,3.72529e-07,-0.52321,-0.306144,3.72529e-05,0.0271553,0.342294,5,0.1,1,2.7,1.19387,1.45838,0.593908,-0.0891531,0.250752,0.00604577,-0.603132,-0.0986978,-0.00633299,0.00611898,0.494746,5,0.1,2,2.7,-3.20473,-1.61338,0.605943,0.00894032,0.553604,-0.00572251,-0.214711,0.484198,0.00672415,0.0204292,3.11146,5,0.1,3,2.7,1.11146,-1.52339,0.54773,-0.186186,-0.109993,-0.00958098,0.226572,0.13385,0.011649,0.00731835,0.00453672,5,0.1,4,2.7,2.44466,3.33048,0.612047,0.157255,-0.207875,0.09618,-1.46501,-0.245616,0.165407,0.00586226,0.369101,5,0.1,5,2.7,-1.09406,-2.97804,0.586429,0.382405,0.780908,0.00697188,-0.300959,0.891313,-0.00891834,0.0274497,2.3104,5,0.1,6,2.7,-0.269115,-2.60099,0.595156,-0.0170297,0.866026,0.00267597,0.0181962,0,-0.0028424,0.025794,2.27176,5,0.1,7,2.7,2.59892,3.50905,0.5,-0.00542812,-0.115767,1.39698e-06,-0.0428706,0.250027,-3.72529e-06,0.00877527,0.295982,5,0.1,8,2.7,-1.92495,4.01594,0.58563,0.845201,0.031282,0.0132039,-0.109464,-0.0215173,-0.0090301,0.0112584,0.70007,5,0.1,9,2.7,1.44252,1.28006,0.5,-0.352589,0.0187019,1.76951e-06,-0.496194,-0.1904,1.11759e-05,0.0097858,0.661431,5,0.1
0,2.8,3.18365,2.96139,0.5,-0.1333,0.0318587,1.49012e-06,-0.504017,-0.270367,2.98023e-05,0.0395702,0.276523,5,0.1,1,2.8,1.18189,1.48295,0.594482,-0.150093,0.240159,0.00543147,-0.584602,-0.12213,-0.00610948,0.0132391,0.393312,5,0.1,2,2.8,-3.20451,-1.55567,0.605403,-0.00026226,0.599015,-0.00507683,0.04673,0.379801,0.00634789,0.0201922,2.94136,5,0.1,3,2.8,1.094,-1.53371,0.546831,-0.162968,-0.0962794,-0.00838786,0.238657,0.141084,0.0123084,0.00692351,0.0013906,5,0.1,4,2.8,2.45339,3.30857,0.622472,0.0212431,-0.228876,0.111845,-1.23155,-0.161171,0.137657,0.00623874,0.247117,5,0.1,5,2.8,-1.05726,-2.89629,0.587085,0.353783,0.846016,0.00617057,-0.285327,0.400186,-0.00739098,0.02708,2.22378,5,0.1,6,2.8,-0.270734,-2.51439,0.59541,-0.0154041,0.866026,0.00242144,0.0150651,0,-0.00235438,0.032331,2.27179,5,0.1,7,2.8,2.59834,3.49866,0.5,-0.00445843,-0.0926316,1.49012e-06,0.0647306,0.2141,-2.98023e-05,0.00844049,0.504553,5,0.1,8,2.8,-1.84118,4.01896,0.586904,0.827333,0.0290275,0.0122607,-0.275493,-0.0238419,-0.0101328,0.00732612,1.90552,5,0.1,9,2.8,1.40497,1.28113,0.5,-0.396082,0.00419617,1.49012e-06,-0.348449,-0.104427,0,0.0108006,1.15415,5,0.1
0,2.9,3.1677,2.96326,0.5,-0.185951,0.00596121,2.8871e-06,-0.522122,-0.24274,3.72529e-06,0.0395702,0.276523,5,0.1,1,2.9,1.16384,1.50642,0.594997,-0.211265,0.229681,0.00488274,-0.607632,-0.0974983,-0.00503659,0.0132391,0.393312,5,0.1,2,2.9,-3.204,-1.49362,0.604924,0.0156138,0.642944,-0.00451375,0.338122,0.448026,0.0050813,0.0201922,2.94136,5,0.1,3,2.9,1.07888,-1.54264,0.546053,-0.139358,-0.0823243,-0.00717072,0.233516,0.138007,0.012029,0.00692351,0.0013906,5,0.1,4,2.9,2.4498,3.28478,0.634449,-0.088542,-0.247478,0.128352,-0.954926,-0.190288,0.177089,0.00623874,0.247117,5,0.1,5,2.9,-1.0231,-2.81046,0.58767,0.331221,0.864775,0.0055817,-0.184946,0.0500232,-0.00474229,0.02708,2.22378,5,0.1,6,2.9,-0.272212,-2.42778,0.595643,-0.0142512,0.866026,0.00224104,0.00894256,0,-0.00140443,0.032331,2.27179,5,0.1,7,2.9,2.59828,3.49033,0.500041,0.0050921,-0.0752274,0.00115084,0.169978,0.139907,0.020463,0.00844049,0.504553,5,0.1,8,2.9,-1.75892,4.02175,0.588083,0.824836,0.0268318,0.011328,0.143826,-0.020951,-0.00889227,0.00732612,1.90552,5,0.1,9,2.9,1.36441,1.28117,0.500001,-0.407843,-0.00214316,1.39698e-06,0.0898838,-0.0282973,-3.72529e-06,0.0108006,1.15415,5,0.1
0,3,3.14665,2.96272,0.500001,-0.23312,-0.0158787,2.98023e-06,-0.402212,-0.190616,-2.98023e-05,0.0265027,0.210636,5,0.1,1,3,1.13985,1.52888,0.595461,-0.266269,0.218952,0.00439435,-0.470161,-0.124156,-0.00482798,0.00772515,0.296643,5,0.1,2,3,-3.2,-1.42732,0.604498,0.071317,0.679952,-0.00403076,0.747919,0.256062,0.00467896,0.0192897,2.67101,5,0.1,3,3,1.06611,-1.55019,0.545396,-0.116298,-0.0686973,-0.00598282,0.227392,0.134349,0.0116825,0.00661626,0.000791766,5,0.1,4,3,2.43668,3.25917,0.648131,-0.168371,-0.263423,0.144611,-0.637054,-0.113845,0.137001,0.00799042,1.14895,5,0.1,5,3,-0.990861,-2.72388,0.588206,0.31351,0.866026,0.00516027,-0.183105,0,-0.00399351,0.0270994,2.21561,5,0.1,6,3,-0.273596,-2.34118,0.59586,-0.0134505,0.866026,0.00211447,0.00780821,0,-0.0012219,0.0255955,2.27181,5,0.1,7,3,2.6,3.48342,0.500275,0.0328243,-0.0635922,0.00363737,0.373721,0.097394,0.0272989,0.00934559,0.436943,5,0.1,8,3,-1.67558,4.02433,0.589171,0.841877,0.0246882,0.0104204,0.136495,-0.0224113,-0.00953674,0.00828075,1.461,5,0.1,9,3,1.32463,1.2809,0.500001,-0.38251,-0.00253916,0,0.396073,0.0156164,2.98023e-05,0.00886086,1.12308,5,0.1
0,3.1,3.12134,2.96022,0.500001,-0.272406,-0.0335086,4.65661e-07,-0.362799,-0.158355,-1.86265e-05,0.0265027,0.210636,5,0.1,1,3.1,1.11089,1.5502,0.595878,-0.312233,0.207862,0.00396157,-0.425071,-0.105843,-0.00396743,0.00772515,0.296643,5,0.1,2,3.1,-3.18817,-1.3579,0.604116,0.172736,0.708639,-0.00362322,1.19421,0.273868,0.00362098,0.0192897,2.67101,5,0.1,3,3.1,1.05559,-1.5564,0.544855,-0.0943093,-0.0557069,-0.00485284,0.211649,0.125021,0.0108741,0.00661626,0.000791766,5,0.1,4,3.1,2.41828,3.23309,0.662914,-0.185607,-0.250984,0.147752,0.216722,0.324473,-0.0612438,0.00799042,1.14895,5,0.1,5,3.1,-0.96024,-2.63728,0.588707,0.300278,0.866026,0.00487436,-0.100162,0,-0.00206381,0.0270994,2.21561,5,0.1,6,3.1,-0.274912,-2.25458,0.596067,-0.0129298,0.866026,0.00203289,0.00349991,0,-0.000551343,0.0255955,2.27181,5,0.1,7,3.1,2.6056,3.47747,0.50079,0.0827592,-0.0561442,0.00676923,0.583634,0.0561923,0.0334084,0.00934559,0.436943,5,0.1,8,3.1,-1.5906,4.02669,0.590168,0.857825,0.0226326,0.00954615,0.146993,-0.0194609,-0.00825152,0.00828075,1.461,5,0.1,9,3.1,1.28877,1.28079,0.500001,-0.331248,0.000843592,1.67638e-06,0.606343,0.0476018,7.45058e-06,0.00886086,1.12308,5,0.1
0,3.2,3.09249,2.95616,0.500001,-0.302184,-0.0469506,0,-0.218511,-0.108242,-2.98023e-05,0.0293271,0.151685,5,0.1,1,3.2,1.07778,1.57043,0.596254,-0.34723,0.196397,0.00357628,-0.258386,-0.129104,-0.0038147,0.00637673,0.212242,5,0.1,2,3.2,-3.16477,-1.28593,0.603771,0.295013,0.727299,-0.00328124,1.18613,0.0688434,0.00339746,0.0191095,2.10701,5,0.1,3,3.2,1.04718,-1.56136,0.544422,-0.0740975,-0.0437677,-0.0038147,0.191927,0.113368,0.00989437,0.00670548,0.000707118,5,0.1,4,3.2,2.40169,3.21007,0.677145,-0.138688,-0.205451,0.134759,0.660539,0.555038,-0.187606,0.00811209,0.919671,5,0.1,5,3.2,-0.930701,-2.55068,0.589185,0.290266,0.866026,0.00468791,-0.113577,0,-0.00190735,0.020414,2.22041,5,0.1,6,3.2,-0.276188,-2.16798,0.596268,-0.012596,0.866026,0.00197887,0.0038445,0,-0.000566244,0.0338828,2.27182,5,0.1,7,3.2,2.61687,3.4721,0.501631,0.1423,-0.0515401,0.00998378,0.576019,0.0396967,0.0295043,0.00782254,0.35281,5,0.1,8,3.2,-1.50428,4.02886,0.591081,0.866026,0.0206828,0.00871569,0,-0.020504,-0.00852346,0.00848089,1.12675,5,0.1,9,3.2,1.25887,1.28114,0.500001,-0.265369,0.00619292,1.49012e-06,0.692725,0.0559688,0,0.0112035,0.824386,5,0.1
0,3.3,3.06122,2.95096,0.500001,-0.32248,-0.0565868,-1.86265e-06,-0.171095,-0.0816435,-1.49012e-05,0.0293271,0.151685,5,0.1,1,3.3,1.04181,1.58947,0.596594,-0.371257,0.184653,0.00323458,-0.203207,-0.112519,-0.00313297,0.00637673,0.212242,5,0.1,2,3.3,-3.12906,-1.21279,0.603458,0.420418,0.735227,-0.00298573,1.2562,0.0544637,0.00264123,0.0191095,2.10701,5,0.1,3,3.3,1.0407,-1.56519,0.544088,-0.0559928,-0.0330742,-0.00288188,0.169463,0.100091,0.00873208,0.00670548,0.000707118,5,0.1,4,3.3,2.39179,3.19261,0.689697,-0.0542566,-0.141512,0.116415,0.971824,0.69581,-0.179835,0.00811209,0.919671,5,0.1,5,3.3,-0.902086,-2.46408,0.589647,0.283145,0.866026,0.00458127,-0.0468567,0,-0.000547618,0.020414,2.22041,5,0.1,6,3.3,-0.277436,-2.08137,0.596464,-0.0124057,0.866026,0.00195168,0.000799075,0,-0.000104308,0.0338828,2.27182,5,0.1,7,3.3,2.6341,3.4671,0.50278,0.202936,-0.0488035,0.0129769,0.605389,0.0186563,0.0288859,0.00782254,0.35281,5,0.1,8,3.3,-1.41789,4.03083,0.591913,0.859095,0.0188127,0.00793738,-0.159778,-0.0175238,-0.00730529,0.00848089,1.12675,5,0.1,9,3.3,1.23581,1.28206,0.500001,-0.196056,0.0123635,1.02445e-06,0.679754,0.0641048,-1.11759e-05,0.0112035,0.824386,5,0.1
0,3.4,3.0283,2.94495,0.500001,-0.333679,-0.0628173,-1.49012e-06,-0.0419617,-0.0414848,-2.98023e-05,0.0288319,0.178336,5,0.1,1,3.4,1.00388,1.60736,0.596903,-0.384712,0.172758,0.00292957,-0.0531971,-0.129998,-0.00306964,0.00816302,0.145899,5,0.1,2,3.4,-3.08106,-1.13926,0.603172,0.534958,0.732267,-0.00273138,0.987172,-0.137806,0.002563,0.0153507,1.56997,5,0.1,3,3.4,1.03591,-1.56803,0.543842,-0.0403196,-0.023815,-0.00207424,0.143647,0.0848174,0.00739098,0.00861174,0.000544537,5,0.1,4,3.4,2.39135,3.18198,0.700449,0.0457585,-0.0712335,0.0987068,0.985622,0.688553,-0.174552,0.0086586,0.763661,5,0.1,5,3.4,-0.874017,-2.37747,0.590102,0.277796,0.866026,0.0045225,-0.0730455,0,-0.000864267,0.0283617,2.22321,5,0.1,6,3.4,-0.278672,-1.99477,0.596658,-0.0122912,0.866026,0.00193566,0.00210106,-5.96046e-05,-0.000357628,0.0254772,2.25737,5,0.1,7,3.4,2.65726,3.4623,0.504211,0.257999,-0.0471771,0.0155121,0.473499,0.0166893,0.0207722,0.00752315,0.269294,5,0.1,8,3.4,-1.33318,4.03262,0.59267,0.830692,0.0170827,0.00721216,-0.420868,-0.017643,-0.00739098,0.00933937,1.39508,5,0.1,9,3.4,1.21949,1.2836,0.500001,-0.131756,0.0184357,0,0.596642,0.0548959,0,0.0149276,0.57491,5,0.1
0,3.5,2.99449,2.93846,0.5,-0.344021,-0.0669185,-2.42144e-06,-0.135511,-0.0366122,7.45058e-06,0.0288319,0.178336,5,0.1,1,3.5,0.965172,1.62403,0.597181,-0.388831,0.160861,0.00265473,-0.0138991,-0.113502,-0.00252202,0.00816302,0.145899,5,0.1,2,3.5,-3.02264,-1.06666,0.602911,0.631983,0.719407,-0.00250703,0.902727,-0.147913,0.00202283,0.0153507,1.56997,5,0.1,3,3.5,1.03255,-1.57001,0.543669,-0.0271358,-0.0160309,-0.00139587,0.119641,0.070639,0.00615418,0.00861174,0.000544537,5,0.1,4,3.5,2.40102,3.17834,0.70948,0.148128,-0.00172406,0.082241,1.01961,0.681013,-0.155501,0.0086586,0.763661,5,0.1,5,3.5,-0.846468,-2.29087,0.590553,0.274076,0.866026,0.00450099,-0.0187084,0,0.000122935,0.0283617,2.22321,5,0.1,6,3.5,-0.279896,-1.90817,0.596851,-0.0122319,0.866025,0.00192374,-0.000130385,1.49012e-05,-7.45058e-06,0.0254772,2.25737,5,0.1,7,3.5,2.68542,3.45764,0.505864,0.304431,-0.0461444,0.0175063,0.431061,0.00685453,0.0179708,0.00752315,0.269294,5,0.1,8,3.5,-1.25317,4.03409,0.593357,0.761241,0.0110343,0.00654003,-0.927225,-0.0939369,-0.00626221,0.00933937,1.39508,5,0.1,9,3.5,1.20908,1.28572,0.500001,-0.0786463,0.0239249,-9.31323e-08,0.462927,0.0523478,-3.72529e-06,0.0149276,0.57491,5,0.1
0,3.6,2.95946,2.93162,0.5,-0.355726,-0.0694752,-1.49012e-06,-0.0773668,-0.0119209,0,0.0279334,0.110877,5,0.1,1,3.6,0.926386,1.63953,0.597434,-0.384957,0.149119,0.00240952,0.101477,-0.125229,-0.0025034,0.00895077,0.171414,5,0.1,2,3.6,-2.95541,-0.99567,0.60267,0.706953,0.697908,-0.00230819,0.561953,-0.301272,0.00202656,0.0153132,1.11553,5,0.1,3,3.6,1.03039,-1.57128,0.543558,-0.0164419,-0.00971556,-0.000846386,0.0940561,0.0555515,0.00482798,0.00693017,0.000318618,5,0.1,4,3.6,2.4207,3.18142,0.716954,0.24243,0.0614226,0.0674799,0.835896,0.567079,-0.14028,0.0080672,0.600446,5,0.1,5,3.6,-0.819181,-2.20427,0.591003,0.271079,0.866026,0.00449419,-0.0536144,0,-0.000447035,0.0285373,2.22511,5,0.1,6,3.6,-0.281118,-1.82157,0.597043,-0.0121824,0.866026,0.00191331,0.00168383,-5.96046e-05,-0.000268221,0.0259243,1.79724,5,0.1,7,3.6,2.71778,3.45307,0.507692,0.34014,-0.0453234,0.018914,0.266552,0.0119209,0.00947714,0.00679829,0.194073,5,0.1,8,3.6,-1.18223,4.03466,0.59398,0.65276,-3.57628e-05,0.00592172,-1.20831,-0.120163,-0.00622869,0.00682318,1.34182,5,0.1,9,3.6,1.20329,1.28836,0.500001,-0.0394344,0.0284702,-1.49012e-06,0.321269,0.0368357,2.98023e-05,0.00918375,0.565993,5,0.1
0,3.7,2.92346,2.92472,0.5,-0.363963,-0.0675444,-4.65661e-07,-0.0685602,0.0469834,1.11759e-05,0.0279334,0.110877,5,0.1,1,3.7,0.888153,1.65373,0.597665,-0.381424,0.134006,0.00222223,-0.0028871,-0.173651,-0.00140443,0.00895077,0.171414,5,0.1,2,3.7,-2.88199,-0.927311,0.602448,0.759498,0.669427,-0.00212947,0.449136,-0.291765,0.0016354,0.0153132,1.11553,5,0.1,3,3.7,1.02919,-1.572,0.543496,-0.00810027,-0.00478905,-0.000418164,0.0727326,0.0429675,0.00373274,0.00693017,0.000318618,5,0.1,4,3.7,2.44889,3.19021,0.723072,0.318545,0.112524,0.0555276,0.665843,0.446558,-0.101704,0.0080672,0.600446,5,0.1,5,3.7,-0.792222,-2.11766,0.591452,0.26885,0.866026,0.00450211,-0.00765175,0,0.000309199,0.0285373,2.22511,5,0.1,6,3.7,-0.282331,-1.73496,0.597234,-0.0120881,0.866025,0.00189794,0.000825152,1.49012e-05,-0.000137836,0.0259243,1.79724,5,0.1,7,3.7,2.75309,3.44858,0.509629,0.365011,-0.044471,0.0197724,0.211895,0.00739098,0.00678375,0.00679829,0.194073,5,0.1,8,3.7,-1.12339,4.03401,0.594543,0.52131,-0.013461,0.00535753,-1.37354,-0.141293,-0.00523776,0.00682318,1.34182,5,0.1,9,3.7,1.20078,1.29138,0.500001,-0.0125436,0.0319704,2.79397e-07,0.213854,0.0311881,1.11759e-05,0.00918375,0.565993,5,0.1
0,3.8,2.88687,2.91828,0.5,-0.366271,-0.0607491,1.49012e-06,0.0351667,0.0857115,-2.98023e-05,0.0272451,0.0644319,5,0.1,1,3.8,0.850012,1.66621,0.597881,-0.380725,0.115034,0.00209957,0.0371039,-0.202775,-0.00113249,0.00700822,0.109163,5,0.1,2,3.8,-2.80425,-0.861967,0.602244,0.790131,0.635636,-0.00196546,0.136852,-0.399858,0.00163913,0.0170408,0.764454,5,0.1,3,3.8,1.0287,-1.57228,0.543471,-0.00188649,-0.00112057,-9.98378e-05,0.0517368,0.0305772,0.00268221,0.00695364,0.000140757,5,0.1,4,3.8,2.48366,3.20344,0.72816,0.372237,0.149387,0.0466138,0.39506,0.285864,-0.0788271,0.00720313,0.455363,5,0.1,5,3.8,-0.765412,-2.03106,0.591903,0.266692,0.866026,0.00450611,-0.0473559,-5.96046e-05,-0.000417233,0.0204446,2.22678,5,0.1,6,3.8,-0.283533,-1.64836,0.597422,-0.0119112,0.866026,0.00186861,0.00315905,0,-0.000476837,0.0307448,1.39386,5,0.1,7,3.8,2.79043,3.44418,0.51163,0.379354,-0.0434518,0.020121,0.0622272,0.0145435,-0.000447035,0.00708072,0.133861,5,0.1,8,3.8,-1.07809,4.03197,0.595053,0.386083,-0.0270963,0.00484437,-1.29789,-0.125647,-0.0051856,0.00866548,1.30365,5,0.1,9,3.8,1.20041,1.29471,0.500001,0.00308156,0.034377,0,0.0989437,0.0156164,0,0.0107638,0.784977,5,0.1
0,3.9,2.85045,2.91268,0.5,-0.361485,-0.0508551,0,0.0721961,0.109002,-7.45058e-06,0.0272451,0.0644319,5,0.1,1,3.9,0.812065,1.67666,0.598086,-0.378334,0.0937013,0.00201073,0.0287108,-0.219844,-0.000752509,0.00700822,0.109163,5,0.1,2,3.9,-2.72461,-0.800304,0.602055,0.801252,0.598117,-0.00181906,0.0534803,-0.369947,0.00135601,0.0170408,0.764454,5,0.1,3,3.9,1.02875,-1.57226,0.543473,0.00245851,0.00144709,0.00012517,0.0353828,0.0208989,0.00183284,0.00695364,0.000140757,5,0.1,4,3.9,2.52258,3.21966,0.732496,0.403109,0.173173,0.0407047,0.213102,0.184998,-0.0431649,0.00720313,0.455363,5,0.1,5,3.9,-0.738871,-1.94446,0.592354,0.264792,0.866025,0.00451077,-0.00667945,1.49012e-05,0.000230968,0.0204446,2.22678,5,0.1,6,3.9,-0.28471,-1.56176,0.597607,-0.0116412,0.865824,0.00182763,0.0027474,-0.00805408,-0.000424683,0.0307448,1.39386,5,0.1,7,3.9,2.82865,3.4399,0.513639,0.384347,-0.0422109,0.0200316,0.0223517,0.0121146,-0.00207871,0.00708072,0.133861,5,0.1,8,3.9,-1.04579,4.02867,0.595514,0.262945,-0.0384465,0.00437628,-1.11838,-0.0988841,-0.00432879,0.00866548,1.30365,5,0.1,9,3.9,1.20118,1.29823,0.500001,0.011462,0.0357699,-9.31323e-08,0.0448376,0.0106543,-3.72529e-06,0.0107638,0.784977,5,0.1
0,4,2.8148,2.90815,0.5,-0.349921,-0.0395238,0,0.166655,0.115156,0,0.0271478,0.164152,5,0.1,1,4,0.774482,1.68493,0.598283,-0.371949,0.0717878,0.00193119,0.111282,-0.215173,-0.000923872,0.00808741,0.173052,5,0.1,2,4,-2.64457,-0.742421,0.601879,0.795507,0.558384,-0.00168234,-0.189304,-0.437886,0.00143051,0.0128836,0.51194,5,0.1,3,4,1.02914,-1.57202,0.543493,0.00523925,0.00309348,0.000269711,0.0205636,0.0120401,0.00104308,0.00645804,4.67596e-05,5,0.1,4,4,2.56359,3.2377,0.736384,0.413465,0.185657,0.0373051,-0.0107288,0.062108,-0.027746,0.00721668,0.344788,5,0.1,5,4,-0.712466,-1.85786,0.592805,0.262614,0.866026,0.00450462,-0.0482798,-5.96046e-05,-0.000566244,0.0214314,1.97243,5,0.1,6,4,-0.285858,-1.47529,0.597787,-0.0112772,0.862804,0.00177175,0.00487268,-0.064373,-0.000804663,0.0293443,1.04967,5,0.1,7,4,2.86703,3.43574,0.515624,0.381291,-0.0407159,0.0195831,-0.0936985,0.0190735,-0.00736117,0.00809165,0.152185,5,0.1,8,4,-1.02451,4.02439,0.59593,0.169042,-0.0464678,0.00395477,-0.739932,-0.0598431,-0.00426173,0.00679001,0.919359,5,0.1,9,4,1.20232,1.30184,0.500001,0.00884831,0.0362456,-1.49012e-06,-0.105202,-0.00214577,2.98023e-05,0.0081909,0.994464,5,0.1
0,4.1,2.78059,2.90477,0.5,-0.334333,-0.0282936,0,0.15761,0.107646,0,0.0271478,0.164152,5,0.1,1,4.1,0.737849,1.69106,0.598472,-0.360368,0.0511615,0.00184635,0.131581,-0.194721,-0.000845641,0.00808741,0.173052,5,0.1,2,4.1,-2.56596,-0.688657,0.601718,0.776053,0.517644,-0.00155363,-0.22611,-0.393152,0.00119954,0.0128836,0.51194,5,0.1,3,4.1,1.02975,-1.57166,0.543524,0.00673868,0.0039706,0.000345614,0.00976026,0.0057146,0.000488013,0.00645804,4.67596e-05,5,0.1,4,4.1,2.60477,3.25654,0.740012,0.408631,0.190584,0.0355419,-0.0947267,0.0294298,-0.0104457,0.00721668,0.344788,5,0.1,5,4.1,-0.686529,-1.77126,0.593253,0.255184,0.865859,0.00446653,-0.104066,-0.00663847,-0.000413507,0.0214314,1.97243,5,0.1,6,4.1,-0.286963,-1.38906,0.597961,-0.0108308,0.86319,0.00169827,0.00446476,0.0249445,-0.000726432,0.0293443,1.04967,5,0.1,7,4.1,2.90493,3.43173,0.517558,0.378486,-0.0397347,0.0191828,0.00968575,0.00375509,-0.00199676,0.00809165,0.152185,5,0.1,8,4.1,-1.01067,4.01956,0.596306,0.114718,-0.0490822,0.00357125,-0.316486,0.00396371,-0.00353158,0.00679001,0.919359,5,0.1,9,4.1,1.20255,1.30545,0.500001,-0.00707824,0.0359522,2.79397e-07,-0.268824,-0.00501424,1.11759e-05,0.0081909,0.994464,5,0.1
0,4.2,2.74801,2.90245,0.5,-0.316316,-0.0182986,0,0.210881,0.0911951,0,0.0237811,0.142506,5,0.1,1,4.2,0.702578,1.69525,0.598652,-0.343779,0.0332743,0.00175089,0.207514,-0.161409,-0.00113249,0.00556196,0.148411,5,0.1,2,4.2,-2.48972,-0.638892,0.601569,0.745922,0.477016,-0.00143349,-0.394106,-0.430495,0.0012815,0.0144441,0.338895,5,0.1,3,4.2,1.03046,-1.57125,0.543561,0.00726283,0.00427365,0.000371039,0.000953674,0.000655651,5.96046e-05,0.00969918,1.43413e-05,5,0.1,4,4.2,2.64496,3.27565,0.743523,0.393146,0.190401,0.0347063,-0.22006,-0.0376701,-0.00846386,0.00671048,0.262245,5,0.1,5,4.2,-0.661647,-1.68476,0.593697,0.241239,0.863364,0.0043869,-0.176668,-0.0531673,-0.0013411,0.0190225,1.55075,5,0.1,6,4.2,-0.288022,-1.30278,0.598127,-0.0103146,0.859901,0.00161529,0.00610948,-0.122547,-0.000983477,0.0275807,0.761411,5,0.1,7,4.2,2.94281,3.42778,0.519466,0.378418,-0.0394166,0.0189513,-0.0312328,0.00500679,-0.00357628,0.00909074,0.0896847,5,0.1,8,4.2,-1,4.01475,0.596646,0.10611,-0.0463486,0.00322759,0.117898,0.0474453,-0.00345707,0.0073942,0.777199,5,0.1,9,4.2,1.2,1.30901,0.500001,-0.0487566,0.0350326,0,-0.547647,-0.0143051,0,0.0093129,1.13977,5,0.1
0,4.3,2.71745,2.90104,0.5,-0.294756,-0.0102229,0,0.226244,0.0693798,0,0.0237811,0.142506,5,0.1,1,4.3,0.669247,1.69785,0.598822,-0.322557,0.0192845,0.00164015,0.223778,-0.11877,-0.00112131,0.00556196,0.148411,5,0.1,2,4.3,-2.41703,-0.593221,0.601431,0.707919,0.437273,-0.00131782,-0.387877,-0.37799,0.00108033,0.0144441,0.338895,5,0.1,3,4.3,1.03118,-1.57082,0.543598,0.00704918,0.00415519,0.000360794,-0.00488013,-0.00281632,-0.000245869,0.00969918,1.43413e-05,5,0.1,4,4.3,2.68333,3.29456,0.746933,0.37537,0.188375,0.0333171,-0.154391,-0.0135303,-0.0193045,0.00671048,0.262245,5,0.1,5,4.3,-0.638494,-1.59848,0.594129,0.220976,0.863139,0.00426071,-0.227317,0.0026077,-0.00133738,0.0190225,1.55075,5,0.1,6,4.3,-0.289025,-1.21722,0.598284,-0.00974815,0.852066,0.0015243,0.00555441,-0.0763386,-0.000890344,0.0275807,0.761411,5,0.1,7,4.3,2.98056,3.42385,0.521347,0.376566,-0.0391647,0.0186729,-0.0237823,0.00211596,-0.0028573,0.00909074,0.0896847,5,0.1,8,4.3,-0.987998,4.01042,0.596952,0.140459,-0.0395939,0.00291727,0.510678,0.0836253,-0.00285357,0.0073942,0.777199,5,0.1,9,4.3,1.1916,1.31244,0.500001,-0.125237,0.0336239,0,-0.914007,-0.0149384,0,0.0093129,1.13977,5,0.1
0,4.4,2.68917,2.90033,0.5,-0.270122,-0.00452399,0,0.270009,0.0443459,0,0.0229393,0.254088,5,0.1,1,4.4,0.638182,1.69925,0.59898,-0.29791,0.00941157,0.00151843,0.273407,-0.079453,-0.0013411,0.00604199,0.307511,5,0.1,2,4.4,-2.34832,-0.551388,0.601305,0.664693,0.399114,-0.00121146,-0.491261,-0.394642,0.00116229,0.0173044,0.223688,5,0.1,3,4.4,1.03185,-1.57043,0.543632,0.00635386,0.00375211,0.000326335,-0.00870228,-0.0051856,-0.000476837,0.00658929,8.5718e-06,5,0.1,4,4.4,2.72008,3.3133,0.750151,0.359035,0.185871,0.0308618,-0.185728,-0.0441074,-0.0296831,0.00678784,0.19837,5,0.1,5,4.4,-0.617607,-1.51237,0.594548,0.196072,0.856072,0.00409186,-0.269145,-0.176132,-0.00214577,0.0194104,1.19929,5,0.1,6,4.4,-0.28997,-1.1326,0.598431,-0.00914633,0.83749,0.00142902,0.00670552,-0.244439,-0.00104308,0.0276138,0.535372,5,0.1,7,4.4,3.01799,3.41995,0.523195,0.370628,-0.0386417,0.0182316,-0.107169,0.00977516,-0.00652671,0.00733796,0.0677951,5,0.1,8,4.4,-0.971146,4.00691,0.59723,0.197935,-0.0303507,0.002639,0.594109,0.0977516,-0.00277162,0.00823927,0.43258,5,0.1,9,4.4,1.17437,1.31572,0.500001,-0.219616,0.0318676,0,-0.922203,-0.0208616,0,0.0149607,0.92362,5,0.1
0,4.5,2.66354,2.90007,0.5,-0.242124,-0.000954792,0,0.290453,0.0273436,0,0.0229393,0.254088,5,0.1,1,4.5,0.609801,1.69979,0.599125,-0.26926,0.00146832,0.00137826,0.300452,-0.0727996,-0.00147149,0.00604199,0.307511,5,0.1,2,4.5,-2.28419,-0.51333,0.601189,0.618348,0.362929,-0.00110706,-0.454068,-0.340488,0.00096485,0.0173044,0.223688,5,0.1,3,4.5,1.03244,-1.57008,0.543662,0.00536051,0.00316184,0.000272971,-0.0108555,-0.00644475,-0.00057742,0.00658929,8.5718e-06,5,0.1,4,4.5,2.75527,3.33173,0.753064,0.346263,0.182945,0.0272049,-0.0917912,-0.0241399,-0.0422746,0.00678784,0.19837,5,0.1,5,4.5,-0.599318,-1.42749,0.594947,0.169939,0.841903,0.00389349,-0.254877,-0.145368,-0.0019595,0.0194104,1.19929,5,0.1,6,4.5,-0.290853,-1.04995,0.598569,-0.00852537,0.815998,0.00133235,0.00599213,-0.219431,-0.000938773,0.0276138,0.535372,5,0.1,7,4.5,3.05461,3.41612,0.524991,0.362438,-0.0379924,0.0177148,-0.075385,0.00537932,-0.00471994,0.00733796,0.0677951,5,0.1,8,4.5,-0.948249,4.00439,0.597481,0.26045,-0.0200987,0.00239033,0.621784,0.104368,-0.00228733,0.00823927,0.43258,5,0.1,9,4.5,1.14756,1.31881,0.500001,-0.317436,0.0298811,0,-0.982746,-0.0197664,0,0.0149607,0.92362,5,0.1
0,4.6,2.64081,2.90008,0.5,-0.212002,0.00101924,0,0.311971,0.012517,0,0.0253577,1.23968,5,0.1,1,4.6,0.584426,1.69962,0.599255,-0.237741,-0.00412166,0.00122339,0.329971,-0.0352859,-0.00160933,0.00926031,0.475551,5,0.1,2,4.6,-2.22469,-0.478727,0.601083,0.570798,0.329075,-0.00101179,-0.50962,-0.344545,0.000983477,0.010788,0.148032,5,0.1,3,4.6,1.03292,-1.5698,0.543686,0.00423491,0.00249445,0.000214577,-0.0113845,-0.00667572,-0.000625849,0.00713387,8.21321e-06,5,0.1,4,4.6,2.78944,3.34987,0.755561,0.336868,0.179386,0.0226259,-0.111818,-0.0538826,-0.0483394,0.00622251,0.144919,5,0.1,5,4.6,-0.583584,-1.34423,0.595326,0.144887,0.820562,0.00367612,-0.246942,-0.307679,-0.00247359,0.0201251,0.920088,5,0.1,6,4.6,-0.291675,-0.969629,0.598698,-0.0079006,0.787869,0.00123531,0.00672042,-0.366449,-0.00104308,0.0267836,0.367937,5,0.1,7,4.6,3.09041,3.41236,0.526736,0.352383,-0.0372052,0.0171348,-0.13864,0.0118017,-0.00751019,0.00945017,0.0302855,5,0.1,8,4.6,-0.919282,4.00289,0.597709,0.316396,-0.00998974,0.00216663,0.472635,0.0958443,-0.00220537,0.00891578,0.160695,5,0.1,9,4.6,1.11115,1.32169,0.500001,-0.407326,0.0277638,0,-0.778079,-0.0231862,0,0.00879165,0.182764,5,0.1
0,4.7,2.62007,2.90029,0.5,-0.212232,0.00328794,0,-0.247851,0.0260472,0,0.0253577,1.23968,5,0.1,1,4.7,0.562271,1.69899,0.59937,-0.205632,-0.00827946,0.00106664,0.313576,-0.0257343,-0.00153109,0.00926031,0.475551,5,0.1,2,4.7,-2.17003,-0.447432,0.600986,0.523368,0.297669,-0.000923313,-0.4545,-0.293136,0.000819564,0.010788,0.148032,5,0.1,3,4.7,1.03329,-1.56958,0.543705,0.00309218,0.00182372,0.00015283,-0.0112578,-0.00660866,-0.000599772,0.00713387,8.21321e-06,5,0.1,4,4.7,2.82269,3.36757,0.757578,0.328793,0.174886,0.0176962,-0.0672042,-0.0439435,-0.0494421,0.00622251,0.144919,5,0.1,5,4.7,-0.570231,-1.26354,0.595682,0.123042,0.794286,0.00345157,-0.194442,-0.25256,-0.00214204,0.0201251,0.920088,5,0.1,6,4.7,-0.292434,-0.892555,0.598816,-0.00728122,0.754092,0.0011391,0.00590272,-0.33693,-0.000912696,0.0267836,0.367937,5,0.1,7,4.7,3.12494,3.4087,0.528411,0.337832,-0.0359558,0.0163617,-0.161856,0.0143051,-0.00841916,0.00945017,0.0302855,5,0.1,8,4.7,-0.885376,4.0024,0.597917,0.360219,0.00038147,0.00200095,0.382639,0.107169,-0.00124797,0.00891578,0.160695,5,0.1,9,4.7,1.06696,1.32437,0.500001,-0.471849,0.0259738,0,-0.49942,-0.0142306,0,0.00879165,0.182764,5,0.1
0,4.8,2.59715,2.90073,0.5,-0.249374,0.00514984,0,-0.44179,0.00727177,0,0.0249216,1.0397,5,0.1,1,4.8,0.543258,1.69818,0.599469,-0.174811,-0.0061661,0.000914931,0.303566,0.0768304,-0.00149012,0.00536768,0.652579,5,0.1,2,4.8,-2.11998,-0.419109,0.600898,0.477278,0.268816,-0.000843406,-0.478029,-0.290662,0.000864267,0.0105988,0.0985161,5,0.1,3,4.8,1.03354,-1.56943,0.543717,0.0020206,0.00119507,9.68575e-05,-0.0100136,-0.00590086,-0.000506639,0.00732696,6.52769e-06,5,0.1,4,4.8,2.85519,3.38481,0.759104,0.320435,0.169277,0.0128821,-0.112295,-0.0735521,-0.0462234,0.0103443,0.158859,5,0.1,5,4.8,-0.558842,-1.18551,0.596016,0.10521,0.764176,0.0032261,-0.165641,-0.373721,-0.00244379,0.016601,0.701852,5,0.1,6,4.8,-0.293132,-0.818967,0.598926,-0.00668094,0.715804,0.00104457,0.00627339,-0.44778,-0.000953674,0.0232649,0.249151,5,0.1,7,4.8,3.15781,3.40519,0.530001,0.318474,-0.0341654,0.015378,-0.231385,0.0221729,-0.0115931,0.00554305,0.272704,5,0.1,8,4.8,-0.847731,4.00296,0.598111,0.389412,0.0106573,0.00189096,0.187248,0.0953674,-0.00104308,0.00936279,0.129819,5,0.1,9,4.8,1.01783,1.3269,0.500001,-0.505264,0.0246376,-1.49012e-06,-0.162482,-0.0135899,2.98023e-05,0.0086501,0.540289,5,0.1
0,4.9,2.56954,2.9013,0.5,-0.305904,0.00619516,0,-0.636578,-0.00104308,0,0.0249216,1.0397,5,0.1,1,4.9,0.527233,1.69804,0.599553,-0.146251,0.0053972,0.000774488,0.269238,0.202551,-0.0013262,0.00536768,0.652579,5,0.1,2,4.9,-2.0745,-0.393584,0.600818,0.43323,0.242455,-0.00076592,-0.416011,-0.244552,0.000707805,0.0105988,0.0985161,5,0.1,3,4.9,1.03369,-1.56934,0.543724,0.00107531,0.000638142,4.95464e-05,-0.00875443,-0.0051707,-0.000432134,0.00732696,6.52769e-06,5,0.1,4,4.9,2.88674,3.40155,0.760166,0.311078,0.167076,0.0084308,-0.0889152,0.0132769,-0.0422336,0.0103443,0.158859,5,0.1,5,4.9,-0.549043,-1.11077,0.596327,0.0916929,0.731761,0.00300575,-0.11057,-0.305817,-0.00207126,0.016601,0.701852,5,0.1,6,4.9,-0.293771,-0.749498,0.599026,-0.00610584,0.67426,0.000956934,0.00542775,-0.406075,-0.00083074,0.0232649,0.249151,5,0.1,7,4.9,3.18883,3.40198,0.53115,0.304455,-0.0292033,0.00482742,-0.0754446,0.0716448,-0.178538,0.00554305,0.272704,5,0.1,8,4.9,-0.807991,4.00447,0.598295,0.403675,0.0190847,0.00178413,0.0854433,0.0720918,-0.00113621,0.00936279,0.129819,5,0.1,9,4.9,0.966286,1.3293,0.500001,-0.526552,0.0231998,2.79397e-07,-0.22551,-0.0155941,1.11759e-05,0.0086501,0.540289,5,0.1
0,5,2.5358,2.90181,0.5,-0.367618,0.00290871,0,-0.55933,-0.0703335,0,0.0327605,0.848037,5,0.1,1,5,0.513908,1.7,0.599624,-0.120692,0.0378579,0.000648201,0.243068,0.433743,-0.0012219,0.00601911,1.41318,5,0.1,2,5,-2.03324,-0.370538,0.600745,0.391853,0.218539,-0.000695884,-0.420809,-0.239432,0.000685453,0.0108012,0.114004,5,0.1,3,5,1.03376,-1.5693,0.543727,0.000292063,0.000172853,1.04308e-05,-0.00691414,-0.00399351,-0.000357628,0.00657991,3.85708e-06,5,0.1,4,5,2.91735,3.41836,0.760809,0.300264,0.16911,0.00452995,-0.136971,0.0152588,-0.0353456,0.00687575,0.231195,5,0.1,5,5,-0.540375,-1.03922,0.596617,0.0820607,0.697717,0.00279248,-0.0865459,-0.396848,-0.00226498,0.0175113,0.751642,5,0.1,6,5,-0.294354,-0.684186,0.599117,-0.0055626,0.630721,0.000871718,0.00557303,-0.480354,-0.000834465,0.0220772,0.167398,5,0.1,7,5,3.21898,3.39946,0.530606,0.298774,-0.020802,-0.0166208,-0.0579357,0.0919104,-0.234216,0.00593049,0.263005,5,0.1,8,5,-0.767447,4.00669,0.598467,0.404483,0.0249147,0.00165701,-0.07689,0.0441074,-0.00140071,0.00751746,0.173151,5,0.1,9,5,0.912653,1.33153,0.500001,-0.543913,0.0214517,0,-0.0949204,-0.0196099,0,0.0110086,0.808636,5,0.1
0,5.1,2.49611,2.90168,0.5,-0.426497,-0.0070177,0,-0.578165,-0.150889,0,0.0327605,0.848037,5,0.1,1,5.1,0.502988,1.70623,0.599683,-0.09833,0.088702,0.00053579,0.205759,0.556059,-0.00103936,0.00601911,1.41318,5,0.1,2,5.1,-1.99585,-0.349691,0.600678,0.358558,0.199964,-0.000644848,-0.267796,-0.14561,0.00037998,0.0108012,0.114004,5,0.1,3,5.1,1.03376,-1.5693,0.543727,-0.000324659,-0.000184216,-2.08616e-05,-0.00535697,-0.00312179,-0.000268221,0.00657991,3.85708e-06,5,0.1,4,5.1,2.94695,3.43515,0.761085,0.293659,0.16483,0.00100546,-0.0193566,-0.0958592,-0.0342131,0.00687575,0.231195,5,0.1,5,5.1,-0.532594,-0.971209,0.596886,0.0735934,0.664001,0.00258433,-0.0838898,-0.307404,-0.00197813,0.0175113,0.751642,5,0.1,6,5.1,-0.294884,-0.62338,0.5992,-0.00505405,0.586269,0.000794977,0.00475906,-0.427816,-0.000722706,0.0220772,0.167398,5,0.1,7,5.1,3.24879,3.39776,0.527906,0.299064,-0.0139393,-0.0360589,0.0392497,0.0484586,-0.154868,0.00593049,0.263005,5,0.1,8,5.1,-0.727278,4.00938,0.598626,0.399423,0.0285938,0.00152141,-0.0447445,0.0286698,-0.00134856,0.00751746,0.173151,5,0.1,9,5.1,0.857391,1.33358,0.500001,-0.564015,0.019541,0,-0.257507,-0.018999,0,0.0110086,0.808636,5,0.1
0,5.2,2.45081,2.9,0.5,-0.476414,-0.0286341,0,-0.391722,-0.272512,0,0.025596,1.09369,5,0.1,1,5.2,0.494132,1.71789,0.599732,-0.0792578,0.144216,0.000438094,0.176907,0.532568,-0.000864267,0.0085108,2.49503,5,0.1,2,5.2,-1.96123,-0.330359,0.600615,0.334346,0.187054,-0.000610948,-0.233352,-0.122681,0.000327826,0.0105256,0.604709,5,0.1,3,5.2,1.0337,-1.56933,0.543724,-0.00077188,-0.000447035,-4.32134e-05,-0.00351667,-0.00202656,-0.000149012,0.00738413,1.65862e-06,5,0.1,4,5.2,2.97625,3.45101,0.761022,0.292194,0.150913,-0.00215322,-0.0277758,-0.177741,-0.0282526,0.00798921,0.0831205,5,0.1,5,5.2,-0.525657,-0.906398,0.597134,0.0651047,0.631136,0.00238121,-0.0865161,-0.37095,-0.00214577,0.0185555,0.594807,5,0.1,6,5.2,-0.295366,-0.566932,0.599276,-0.00458211,0.541934,0.000722706,0.00476837,-0.472009,-0.000745058,0.0271241,0.112182,5,0.1,7,5.2,3.27888,3.39656,0.523654,0.302392,-0.0105441,-0.0477165,0.00977516,0.0218153,-0.0791848,0.00612302,0.268883,5,0.1,8,5.2,-0.687644,4.01235,0.598771,0.392063,0.0305176,0.00138283,-0.116765,0.00905991,-0.00149012,0.0102679,0.400624,5,0.1,9,5.2,0.799768,1.33544,0.500001,-0.58686,0.0175864,0,-0.163436,-0.020206,0,0.00864789,1.10489,5,0.1
0,5.3,2.40089,2.89549,0.5,-0.523844,-0.0636257,0,-0.505805,-0.400126,0,0.025596,1.09369,5,0.1,1,5.3,0.487033,1.73437,0.599771,-0.0632795,0.180839,0.000359397,0.144109,0.257432,-0.000718981,0.0085108,2.49503,5,0.1,2,5.3,-1.92849,-0.311963,0.600556,0.324264,0.183313,-0.000577234,-0.00434369,0.0249818,0.000357628,0.0105256,0.604709,5,0.1,3,5.3,1.03361,-1.56939,0.543719,-0.00105854,-0.00061281,-5.52274e-05,-0.00219792,-0.0012815,-8.56817e-05,0.00738413,1.65862e-06,5,0.1,4,5.3,3.0054,3.46508,0.760672,0.291295,0.129418,-0.00478337,-0.00597537,-0.244498,-0.0237711,0.00798921,0.0831205,5,0.1,5,5.3,-0.51956,-0.844954,0.597362,0.0569976,0.598937,0.00218619,-0.0767969,-0.298604,-0.00182539,0.0185555,0.594807,5,0.1,6,5.3,-0.295802,-0.514961,0.599345,-0.00414876,0.498464,0.000654627,0.00403449,-0.413366,-0.000637025,0.0271241,0.112182,5,0.1,7,5.3,3.30932,3.39548,0.518634,0.307285,-0.0119921,-0.0513261,0.0661165,-0.0429004,0.00220537,0.00612302,0.268883,5,0.1,8,5.3,-0.648639,4.01528,0.598903,0.390929,0.0265919,0.00124322,0.0578687,-0.0784099,-0.00133738,0.0102679,0.400624,5,0.1,9,5.3,0.739786,1.3371,0.500001,-0.616048,0.0156781,0,-0.361729,-0.0182912,0,0.00864789,1.10489,5,0.1
0,5.4,2.34613,2.8871,0.5,-0.568789,-0.103897,0,-0.356317,-0.384927,0,0.0259666,0.833274,5,0.1,1,5.4,0.481381,1.75364,0.599804,-0.050173,0.204256,0.000293553,0.119165,0.238895,-0.000625849,0.00622101,3.20232,5,0.1,2,5.4,-1.89595,-0.293418,0.6005,0.327164,0.188036,-0.000537932,0.0353456,0.0522137,0.000476837,0.0116936,0.516099,5,0.1,3,5.4,1.03349,-1.56945,0.543713,-0.00121295,-0.000706315,-6.10948e-05,-0.00089407,-0.000476837,-2.98023e-05,0.0103234,5.23274e-07,5,0.1,4,5.4,3.03444,3.47674,0.760086,0.288326,0.103402,-0.0068143,-0.0644922,-0.269651,-0.0164509,0.00868615,0.160072,5,0.1,5,5.4,-0.514236,-0.786605,0.597572,0.0495464,0.567067,0.00200272,-0.0730157,-0.356734,-0.00190735,0.0151107,0.473347,5,0.1,6,5.4,-0.296197,-0.467191,0.599407,-0.00375137,0.45656,0.000591576,0.00397861,-0.43577,-0.000625849,0.0279328,0.167505,5,0.1,7,5.4,3.34033,3.39402,0.513614,0.311846,-0.0177324,-0.0481695,0.00941753,-0.0656843,0.0567436,0.0111575,0.077091,5,0.1,8,5.4,-0.609212,4.01747,0.59902,0.397345,0.0164866,0.00111014,0.0438094,-0.116825,-0.0013411,0.00797027,0.52455,5,0.1,9,5.4,0.67644,1.33858,0.500001,-0.649089,0.013867,0,-0.256509,-0.0180602,0,0.00899914,0.610625,5,0.1
0,5.5,2.28737,2.87471,0.5,-0.606382,-0.144112,0,-0.355691,-0.39874,0,0.0259666,0.833274,5,0.1,1,5.5,0.476914,1.77507,0.599831,-0.0395966,0.22592,0.000237487,0.0936203,0.323214,-0.000499189,0.00622101,3.20232,5,0.1,2,5.5,-1.86284,-0.274608,0.600448,0.336556,0.185797,-0.000492204,0.124522,-0.0900328,0.00044331,0.0116936,0.516099,5,0.1,3,5.5,1.03337,-1.56952,0.543707,-0.00125598,-0.000728667,-6.1933e-05,7.45058e-06,1.49012e-05,1.11759e-05,0.0103234,5.23274e-07,5,0.1,4,5.5,3.06295,3.48573,0.759329,0.281757,0.0765812,-0.00823773,-0.0768155,-0.261918,-0.01169,0.00868615,0.160072,5,0.1,5,5.5,-0.509632,-0.731528,0.597763,0.0426792,0.535457,0.00183024,-0.0650287,-0.296939,-0.00160187,0.0151107,0.473347,5,0.1,6,5.5,-0.296554,-0.423424,0.599464,-0.00339099,0.42108,0.000534672,0.00333972,-0.297056,-0.000525266,0.0279328,0.167505,5,0.1,7,5.5,3.37084,3.39198,0.509217,0.292066,-0.0222515,-0.0386339,-0.370428,-0.0264198,0.124894,0.0111575,0.077091,5,0.1,8,5.5,-0.568926,4.01845,0.599125,0.410716,0.00268146,0.000986177,0.185445,-0.151485,-0.00116602,0.00797027,0.52455,5,0.1,9,5.5,0.610216,1.33988,0.500001,-0.674821,0.0121934,0,-0.222296,-0.0157133,0,0.00899914,0.610625,5,0.1
0,5.6,2.22523,2.85843,0.5,-0.633168,-0.180113,0,-0.152588,-0.306606,0,0.0225871,0.605855,5,0.1,1,5.6,0.473388,1.8,0.599852,-0.0312217,0.279927,0.000192225,0.0749081,0.738382,-0.00038743,0.00725894,2.89598,5,0.1,2,5.6,-1.8286,-0.256665,0.600401,0.347248,0.171361,-0.000445545,0.0691414,-0.192322,0.000476837,0.0126917,1.15212,5,0.1,3,5.6,1.03325,-1.5696,0.5437,-0.00121593,-0.000706315,-5.81145e-05,0.00077486,0.000476837,2.98023e-05,0.00919105,1.45758e-07,5,0.1,4,5.6,3.09065,3.49213,0.758457,0.271308,0.0518441,-0.00910014,-0.13864,-0.229359,-0.00539422,0.00813383,0.212216,5,0.1,5,5.6,-0.50568,-0.679512,0.597938,0.0364199,0.504033,0.00167191,-0.0606179,-0.346512,-0.00163913,0.0162328,0.377415,5,0.1,6,5.6,-0.296876,-0.382728,0.599515,-0.00306293,0.393125,0.000482798,0.00326335,-0.279039,-0.000536442,0.0267911,0.130051,5,0.1,7,5.6,3.3978,3.38968,0.506029,0.243974,-0.0233412,-0.0247881,-0.563979,0.00321865,0.145167,0.0102533,0.0561878,5,0.1,8,5.6,-0.526951,4.01796,0.599218,0.427835,-0.0124574,0.000874698,0.129133,-0.144958,-0.00116229,0.00781023,2.02088,5,0.1,9,5.6,0.541918,1.34102,0.500001,-0.687519,0.0106752,0,-0.00724196,-0.0149012,0,0.0123099,0.277217,5,0.1
0,5.7,2.16112,2.83889,0.5,-0.648423,-0.210064,0,-0.120848,-0.276491,0,0.0225871,0.605855,5,0.1,1,5.7,0.470609,1.83282,0.599869,-0.0246624,0.385192,0.000157766,0.0572521,1.26146,-0.000305474,0.00725894,2.89598,5,0.1,2,5.7,-1.79313,-0.240668,0.600359,0.365327,0.14708,-0.000401028,0.250749,-0.28213,0.000424683,0.0126917,1.15212,5,0.1,3,5.7,1.03313,-1.56966,0.543695,-0.00111349,-0.000645593,-5.3551e-05,0.0012517,0.000730157,5.58794e-05,0.00919105,1.45758e-07,5,0.1,4,5.7,3.11715,3.49624,0.757523,0.258795,0.0312239,-0.00954,-0.12219,-0.181019,-0.00304356,0.00813383,0.212216,5,0.1,5,5.7,-0.502295,-0.630672,0.598098,0.0316784,0.473932,0.00152625,-0.0367314,-0.275739,-0.00133365,0.0162328,0.377415,5,0.1,6,5.7,-0.297183,-0.344908,0.59956,-0.0032098,0.362291,0.000434369,-0.00510737,-0.338435,-0.000447035,0.0267911,0.130051,5,0.1,7,5.7,3.41914,3.3874,0.504306,0.180923,-0.0219636,-0.0095401,-0.672296,0.0227988,0.153929,0.0102533,0.0561878,5,0.1,8,5.7,-0.482756,4.01612,0.5993,0.461943,-0.0231445,0.000769179,0.483716,-0.0730157,-0.000972301,0.00781023,2.02088,5,0.1,9,5.7,0.473269,1.34202,0.500001,-0.683599,0.00931378,0,0.104571,-0.012584,0,0.0123099,0.277217,5,0.1
0,5.8,2.09594,2.81666,0.5,-0.652033,-0.232732,0,0.0703335,-0.166059,0,0.0204117,0.595021,5,0.1,1,5.8,0.468406,1.8778,0.599884,-0.0195943,0.513762,0.00012964,0.0448525,1.23078,-0.000238419,0.00701192,1.16001,5,0.1,2,5.8,-1.75532,-0.227443,0.600321,0.390157,0.11693,-0.000357628,0.214994,-0.312097,0.00038743,0.0142144,3.25686,5,0.1,3,5.8,1.03302,-1.56972,0.54369,-0.000971556,-0.000563264,-4.61936e-05,0.00154972,0.000834465,2.98023e-05,0.00686361,9.4562e-08,5,0.1,4,5.8,3.14237,3.49855,0.75656,0.245106,0.0158966,-0.00965148,-0.158787,-0.12517,0.00107288,0.00618632,0.412221,5,0.1,5,5.8,-0.499288,-0.584676,0.598244,0.0286289,0.445436,0.00139624,-0.0261962,-0.308454,-0.0013411,0.0151733,0.307533,5,0.1,6,5.8,-0.297536,-0.310472,0.599602,-0.00389218,0.325399,0.000391901,-0.0076741,-0.398993,-0.000447035,0.023626,0.236844,5,0.1,7,5.8,3.43385,3.38534,0.504097,0.113809,-0.0190556,0.00499934,-0.651598,0.0338554,0.132769,0.0140996,0.0419738,5,0.1,8,5.8,-0.434027,4.01353,0.599372,0.512472,-0.0278234,0.000676513,0.475138,-0.0238419,-0.000923872,0.00934912,3.02899,5,0.1,9,5.8,0.405741,1.34289,0.500001,-0.663544,0.00811517,0,0.3082,-0.0115633,0,0.0101508,0.912048,5,0.1
0,5.9,2.0309,2.79258,0.5,-0.649587,-0.248156,0,0.0140369,-0.129849,0,0.0204117,0.595021,5,0.1,1,5.9,0.466648,1.93516,0.599896,-0.0157785,0.630564,0.000109058,0.0323337,1.05786,-0.000182539,0.00701192,1.16001,5,0.1,2,5.9,-1.71457,-0.217473,0.600287,0.429897,0.0815493,-0.000317208,0.515871,-0.36846,0.000417233,0.0142144,3.25686,5,0.1,3,5.9,1.03294,-1.56978,0.543685,-0.000808574,-0.000474416,-4.16301e-05,0.00169128,0.000916421,5.58794e-05,0.00686361,9.4562e-08,5,0.1,4,5.9,3.16621,3.49953,0.755641,0.232536,0.00418834,-0.00838665,-0.105232,-0.102505,0.0220276,0.00618632,0.412221,5,0.1,5,5.9,-0.496588,-0.54158,0.598378,0.0251114,0.417044,0.00127517,-0.0425205,-0.273701,-0.00112504,0.0151733,0.307533,5,0.1,6,5.9,-0.297958,-0.280181,0.599639,-0.00448315,0.27842,0.000357348,-0.00410341,-0.519713,-0.000271946,0.023626,0.236844,5,0.1,7,5.9,3.442,3.38362,0.505237,0.0498135,-0.0153046,0.0175065,-0.612929,0.0399798,0.114139,0.0140996,0.0419738,5,0.1,8,5.9,-0.379926,4.01085,0.599338,0.57265,-0.0240013,-0.00217259,0.66334,0.077486,-0.0499263,0.00934912,3.02899,5,0.1,9,5.9,0.340317,1.34365,0.500001,-0.649625,0.00707023,0,0.0258331,-0.00955164,0,0.0101508,0.912048,5,0.1
0,6,1.96616,2.76726,0.5,-0.643197,-0.256616,0,0.1387,-0.0308752,0,0.022262,0.602154,5,0.1,1,6,0.465217,2.0029,0.599906,-0.0129715,0.717407,9.08971e-05,0.0244826,0.647187,-0.000119209,0.00890762,1.3662,5,0.1,2,6,-1.66893,-0.211077,0.600258,0.482184,0.0476405,-0.000274181,0.48238,-0.292748,0.000447035,0.017965,3.16346,5,0.1,3,6,1.03286,-1.56982,0.543682,-0.00064075,-0.00038147,-3.42727e-05,0.00166893,0.000953674,5.96046e-05,0.00978173,1.01222e-07,5,0.1,4,6,3.18894,3.49952,0.754932,0.221902,-0.003618,-0.00564009,-0.116587,-0.0503063,0.0310838,0.0101883,0.871933,5,0.1,5,6,-0.494305,-0.501282,0.5985,0.0204213,0.388281,0.00116378,-0.0499338,-0.311464,-0.00113249,0.0231647,0.415571,5,0.1,6,6,-0.29842,-0.254998,0.599673,-0.00470951,0.225035,0.000333786,-0.000432134,-0.533082,-0.000208616,0.0238244,0.219268,5,0.1,7,6,3.44409,3.38229,0.507507,-0.00620484,-0.0112653,0.0273004,-0.497222,0.0398159,0.079751,0.00523112,0.498331,5,0.1,8,6,-0.319473,4.00886,0.598832,0.633901,-0.0160575,-0.00822097,0.514388,0.0667572,-0.0662506,0.00803541,2.91728,5,0.1,9,6,0.275392,1.34431,0.500001,-0.648712,0.00616908,0,0.0334299,-0.00870228,0,0.00962157,2.58737,5,0.1
0,6.1,1.90226,2.74146,0.5,-0.636359,-0.258937,0,0.0363588,-0.00542402,0,0.022262,0.602154,5,0.1,1,6.1,0.464028,2.07802,0.599914,-0.0109445,0.784843,8.05594e-05,0.0167545,0.644341,-9.31323e-05,0.00890762,1.3662,5,0.1,2,6.1,-1.618,-0.207776,0.600232,0.538295,0.0196297,-0.000231713,0.58645,-0.221315,0.000402331,0.017965,3.16346,5,0.1,3,6.1,1.03281,-1.56985,0.543678,-0.000477396,-0.000287592,-2.77534e-05,0.00157207,0.000908971,7.45058e-05,0.00978173,1.01222e-07,5,0.1,4,6.1,3.21059,3.49881,0.75445,0.211221,-0.010648,-0.00464814,-0.104025,-0.0543445,-0.00767037,0.0101883,0.871933,5,0.1,5,6.1,-0.492662,-0.463828,0.598611,0.0112016,0.36219,0.0010578,-0.124319,-0.227945,-0.00102073,0.0231647,0.415571,5,0.1,6,6.1,-0.298887,-0.2352,0.599706,-0.00457093,0.171294,0.000317022,0.00301376,-0.512964,-0.000149012,0.0238244,0.219268,5,0.1,7,6.1,3.44202,3.38106,0.510309,-0.0260357,-0.0158519,0.0259346,0.0501424,-0.113189,-0.0896938,0.00523112,0.498331,5,0.1,8,6.1,-0.253292,4.0077,0.597639,0.690506,-0.00722632,-0.015922,0.562882,0.0660121,-0.0828914,0.00803541,2.91728,5,0.1,9,6.1,0.209658,1.34559,0.500001,-0.673988,0.0254948,0,-0.449036,0.350356,0,0.00962157,2.58737,5,0.1
0,6.2,1.8389,2.71565,0.5,-0.629365,-0.25602,0,0.130653,0.0704527,0,0.0192973,0.433794,5,0.1,1,6.2,0.463009,2.15933,0.599922,-0.00949726,0.836569,7.15256e-05,0.0127107,0.350475,-8.9407e-05,0.00676109,2.2866,5,0.1,2,6.2,-1.56142,-0.206527,0.600211,0.590301,0.00977628,-0.000192225,0.415385,0.0420809,0.000357628,0.0162744,2.97365,5,0.1,3,6.2,1.03277,-1.56988,0.543676,-0.000330806,-0.000202656,-2.08616e-05,0.00143051,0.00077486,8.9407e-05,0.00809084,8.64452e-08,5,0.1,4,6.2,3.23116,3.49768,0.753907,0.199908,-0.00938773,-0.00652373,-0.127316,0.0946522,-0.0269413,0.00700003,0.790512,5,0.1,5,6.2,-0.492217,-0.428728,0.598711,-0.00264272,0.339668,0.000956655,-0.14469,-0.235155,-0.00107288,0.0172824,0.355419,5,0.1,6,6.2,-0.299325,-0.220425,0.599737,-0.00414252,0.12668,0.000302494,0.00534952,-0.365712,-0.000178814,0.0243987,0.190656,5,0.1,7,6.2,3.44023,3.37878,0.512293,-0.00525117,-0.0306427,0.0124723,0.325084,-0.168085,-0.16582,0.0069192,0.401216,5,0.1,8,6.2,-0.181715,4.00704,0.595637,0.737128,-0.00902414,-0.0239536,0.3309,-0.12064,-0.0740886,0.00951939,2.48065,5,0.1,9,6.2,0.139825,1.35018,0.500001,-0.722816,0.0682652,0,-0.460401,0.470221,0,0.0111796,2.38045,5,0.1
0,6.3,1.77647,2.6904,0.5,-0.619981,-0.248879,0,0.0875816,0.0806749,0,0.0192973,0.433794,5,0.1,1,6.3,0.462207,2.24438,0.599827,-0.00582929,0.860648,-0.00282889,0.055315,0.133276,-0.0514947,0.00676109,2.2866,5,0.1,2,6.3,-1.50015,-0.205022,0.600194,0.635478,0.0254821,-0.000159722,0.441775,0.341518,0.000301749,0.0162744,2.97365,5,0.1,3,6.3,1.03274,-1.56989,0.543674,-0.000197999,-0.000129826,-1.23866e-05,0.00121444,0.000678003,7.82311e-05,0.00809084,8.64452e-08,5,0.1,4,6.3,3.25078,3.49744,0.752987,0.194504,0.00780076,-0.0129669,-0.00138581,0.276983,-0.0924431,0.00700003,0.790512,5,0.1,5,6.3,-0.493231,-0.395705,0.598802,-0.017733,0.322575,0.000860356,-0.150958,-0.127744,-0.000879169,0.0172824,0.355419,5,0.1,6,6.3,-0.29971,-0.209347,0.599766,-0.00354368,0.0980847,0.000286102,0.00648946,-0.177192,-0.000156462,0.0243987,0.190656,5,0.1,7,6.3,3.44165,3.37474,0.512753,0.0361074,-0.0510555,-0.00277543,0.471935,-0.22532,-0.136923,0.0069192,0.401216,5,0.1,8,6.3,-0.106291,4.00532,0.592864,0.770821,-0.0294358,-0.031502,0.299832,-0.349939,-0.0731647,0.00951939,2.48065,5,0.1,9,6.3,0.064783,1.35967,0.500001,-0.78075,0.123631,0,-0.626188,0.600524,0,0.0111796,2.38045,5,0.1
0,6.4,1.71504,2.66599,0.5,-0.606671,-0.238502,0,0.199914,0.132442,0,0.0203267,1.55554,5,0.1,1,6.4,0.461935,2.33083,0.599245,0.000616163,0.866026,-0.00908673,0.0694096,0,-0.0686049,0.00744927,1.84389,5,0.1,2,6.4,-1.43467,-0.2,0.600179,0.670764,0.0821482,-0.00013262,0.231266,0.763014,0.000268221,0.0136125,2.68148,5,0.1,3,6.4,1.03273,-1.5699,0.543674,-8.9407e-05,-6.55651e-05,-5.96046e-06,0.000953674,0.000476837,8.9407e-05,0.00879663,5.09522e-08,5,0.1,4,6.4,3.27029,3.5,0.751184,0.196022,0.046891,-0.0233382,0.0164509,0.485659,-0.107676,0.0076325,0.669682,5,0.1,5,6.4,-0.495728,-0.364051,0.598884,-0.0317737,0.310479,0.00077486,-0.125408,-0.129566,-0.000834465,0.0146242,0.298088,5,0.1,6,6.4,-0.300031,-0.2,0.599794,-0.00287071,0.0928994,0.000269711,0.00686944,0.0610724,-0.000208616,0.0237088,0.14341,5,0.1,7,6.4,3.44766,3.36852,0.511854,0.0838518,-0.0731289,-0.0145599,0.460148,-0.204921,-0.0974238,0.00712513,0.365789,5,0.1,8,6.4,-0.0280495,4,0.589374,0.789829,-0.0828207,-0.0379547,0.0507975,-0.69356,-0.0532866,0.00927631,2.00542,5,0.1,9,6.4,-0.0162143,1.375,0.500001,-0.835792,0.182003,0,-0.424104,0.53978,0,0.0115651,2.05394,5,0.1
0,6.5,1.65448,2.64262,0.5,-0.611374,-0.230217,0,-0.219934,0.0500679,0,0.0203267,1.55554,5,0.1,1,6.5,0.462373,2.41743,0.597955,0.00834796,0.866026,-0.0169713,0.0812057,0,-0.0842214,0.00744927,1.84389,5,0.1,2,6.5,-1.3663,-0.187003,0.600167,0.696732,0.185226,-0.000109151,0.245996,1.21098,0.000208616,0.0136125,2.68148,5,0.1,3,6.5,1.03272,-1.56991,0.543673,-5.02914e-06,-2.16067e-05,1.67638e-06,0.000722706,0.000402331,6.70552e-05,0.00879663,5.09522e-08,5,0.1,4,6.5,3.2901,3.50759,0.748265,0.200915,0.10846,-0.0353207,0.0653863,0.699207,-0.124823,0.0076325,0.669682,5,0.1,5,6.5,-0.49945,-0.333435,0.598957,-0.0418623,0.30343,0.000703055,-0.0764281,-0.0334866,-0.000637025,0.0146242,0.298088,5,0.1,6,6.5,-0.300284,-0.189977,0.59982,-0.00218693,0.110987,0.000249874,0.00671297,0.267909,-0.00019744,0.0237088,0.14341,5,0.1,7,6.5,3.45832,3.3601,0.51001,0.128936,-0.095515,-0.021383,0.425085,-0.228763,-0.0415295,0.00712513,0.365789,5,0.1,8,6.5,0.0512106,3.98747,0.585317,0.794715,-0.173709,-0.0430844,0.0123689,-1.0505,-0.0464283,0.00927631,2.00542,5,0.1,9,6.5,-0.101352,1.396,0.500001,-0.861879,0.238084,0,-0.120728,0.552095,0,0.0115651,2.05394,5,0.1
0,6.6,1.59206,2.61982,0.5,-0.637719,-0.225574,0,-0.251591,0.0553131,0,0.0209565,1.20468,5,0.1,1,6.6,0.463606,2.50403,0.595844,0.0161581,0.866026,-0.0250846,0.0720471,0,-0.0744164,0.00657867,1.43364,5,0.1,2,6.6,-1.29566,-0.16228,0.600157,0.712833,0.308985,-9.08971e-05,0.0466704,1.19817,0.000178814,0.0113202,2.39058,5,0.1,3,6.6,1.03273,-1.56991,0.543674,5.66244e-05,1.19209e-05,7.45058e-06,0.000536442,0.000298023,2.98023e-05,0.0105879,2.47534e-08,5,0.1,4,6.6,3.31049,3.52197,0.744129,0.206339,0.178587,-0.0470638,0.0315905,0.668526,-0.104874,0.00679523,0.533096,5,0.1,5,6.6,-0.503939,-0.303249,0.599025,-0.0471145,0.299969,0.00064373,-0.0290275,-0.0517964,-0.000625849,0.014394,0.245274,5,0.1,6,6.6,-0.30047,-0.17742,0.599844,-0.00154525,0.140718,0.000230968,0.00607967,0.301838,-0.000238419,0.0223821,0.24328,5,0.1,7,6.6,3.47318,3.34946,0.507739,0.166082,-0.116473,-0.0233427,0.306487,-0.180244,8.9407e-05,0.00605365,0.340468,5,0.1,8,6.6,0.13045,3.96476,0.580807,0.786522,-0.280011,-0.0467584,-0.199482,-1.02019,-0.0250638,0.0132221,1.54099,5,0.1,9,6.6,-0.187849,1.42238,0.500001,-0.866025,0.287333,0,-7.15256e-06,0.411689,0,0.00797501,1.56901,5,0.1
0,6.7,1.52664,2.59745,0.5,-0.672905,-0.22253,0,-0.394829,0.0188053,0,0.0209565,1.20468,5,0.1,1,6.7,0.465586,2.59063,0.592957,0.023382,0.865845,-0.03264,0.0693854,-0.00724196,-0.0729822,0.00657867,1.43364,5,0.1,2,6.7,-1.22398,-0.12504,0.600149,0.721227,0.437493,-7.57165e-05,0.0813156,1.30104,0.000122935,0.0113202,2.39058,5,0.1,3,6.7,1.03273,-1.56991,0.543675,0.000100397,3.74392e-05,9.87202e-06,0.000335276,0.000216067,1.49012e-05,0.0105879,2.47534e-08,5,0.1,4,6.7,3.33133,3.54329,0.738892,0.210789,0.248228,-0.0576016,0.0447929,0.688985,-0.100404,0.00679523,0.533096,5,0.1,5,6.7,-0.508699,-0.273364,0.599086,-0.0472233,0.298706,0.000591576,0.0235662,0.00682287,-0.000447035,0.014394,0.245274,5,0.1,6,6.7,-0.300595,-0.161456,0.599866,-0.000970624,0.181387,0.000208337,0.00535324,0.47225,-0.000219792,0.0223821,0.24328,5,0.1,7,6.7,3.49121,3.3368,0.505465,0.193384,-0.137554,-0.0216106,0.229955,-0.223711,0.0315681,0.00605365,0.340468,5,0.1,8,6.7,0.20815,3.93144,0.576011,0.767198,-0.387061,-0.0490407,-0.215166,-1.06496,-0.0182949,0.0132221,1.54099,5,0.1,9,6.7,-0.274446,1.45316,0.500001,-0.865772,0.327441,0,0.0101522,0.367425,0,0.00797501,1.56901,5,0.1
0,6.8,1.45753,2.57532,0.5,-0.706834,-0.219542,0,-0.242531,0.0505447,0,0.0209622,0.44703,5,0.1,1,6.8,0.468246,2.67712,0.589355,0.029517,0.863129,-0.03905,0.0511557,-0.0578165,-0.0525713,0.00752661,1.08207,5,0.1,2,6.8,-1.15166,-0.0750951,0.600142,0.722334,0.55698,-6.4075e-05,-0.0869036,1.03752,5.96046e-05,0.0121841,2.18194,5,0.1,3,6.8,1.03274,-1.5699,0.543676,0.00012517,5.36442e-05,1.04308e-05,0.000119209,0.000178814,2.98023e-05,0.00982179,8.34378e-09,5,0.1,4,6.8,3.35258,3.57136,0.732674,0.213158,0.310344,-0.0662133,-0.00631809,0.528097,-0.0680685,0.00789586,0.401474,5,0.1,5,6.8,-0.51324,-0.243495,0.599143,-0.0430122,0.297954,0.000549853,0.0578165,-0.0359643,-0.000447035,0.0168602,0.199135,5,0.1,6,6.8,-0.300667,-0.14094,0.599886,-0.000483543,0.228321,0.000186265,0.00433624,0.437252,-0.000208616,0.0214294,0.0756813,5,0.1,7,6.8,3.51151,3.32197,0.503494,0.210524,-0.158167,-0.017567,0.106812,-0.175834,0.0469685,0.00776185,0.306556,5,0.1,8,6.8,0.28358,3.88771,0.571042,0.738786,-0.483423,-0.0500396,-0.371917,-0.822067,-0.000119209,0.00948007,1.13478,5,0.1,9,6.8,-0.360892,1.48751,0.500001,-0.861965,0.356942,0,0.0811815,0.206888,0,0.0106691,1.17581,5,0.1
0,6.9,1.3858,2.55372,0.5,-0.725472,-0.211369,0,-0.105068,0.113636,0,0.0209622,0.44703,5,0.1,1,6.9,0.471447,2.76339,0.585192,0.0343908,0.863522,-0.0440998,0.0439622,0.0213534,-0.0455379,0.00752661,1.08207,5,0.1,2,6.9,-1.07966,-0.0140832,0.600239,0.718778,0.662928,0.00286903,-0.0233352,1.01962,0.0520945,0.0121841,2.18194,5,0.1,3,6.9,1.03276,-1.5699,0.543677,0.000131689,6.70552e-05,1.22935e-05,7.45058e-06,8.9407e-05,1.49012e-05,0.00982179,8.34378e-09,5,0.1,4,6.9,3.37389,3.60501,0.72572,0.21309,0.36185,-0.072701,-0.00506639,0.474796,-0.0574104,0.00789586,0.401474,5,0.1,5,6.9,-0.517188,-0.213812,0.599196,-0.0354149,0.295971,0.000513438,0.0900514,-0.0187141,-0.000309199,0.0168602,0.199135,5,0.1,6,6.9,-0.300695,-0.116053,0.599903,-7.90227e-05,0.267712,0.000166986,0.00369363,0.335556,-0.000182539,0.0214294,0.0756813,5,0.1,7,6.9,3.53301,3.30509,0.501981,0.218501,-0.180638,-0.012643,0.0463128,-0.25019,0.0497289,0.00776185,0.306556,5,0.1,8,6.9,0.35568,3.83528,0.56604,0.703427,-0.563924,-0.0499331,-0.358554,-0.744835,0.00410154,0.00948007,1.13478,5,0.1,9,6.9,-0.446975,1.52391,0.500001,-0.86133,0.367782,0,-0.0180696,0.0100434,0,0.0106691,1.17581,5,0.1
0,7,1.31312,2.53326,0.5,-0.723737,-0.196773,0,0.155687,0.177979,0,0.0235071,0.288862,5,0.1,1,7,0.475078,2.84969,0.580585,0.0379153,0.860095,-0.0476748,0.0249296,-0.118613,-0.0239909,0.00793294,0.826729,5,0.1,2,7,-1.00806,0.0568619,0.600828,0.711018,0.750389,0.00919849,-0.159293,0.686302,0.0694692,0.0108932,2.04671,5,0.1,3,7,1.03277,-1.56989,0.543678,0.00012815,7.15256e-05,1.19209e-05,-0.000119209,5.96046e-05,0,0.01079,3.02987e-09,5,0.1,4,7,3.39511,3.6433,0.718209,0.210446,0.400722,-0.0769794,-0.0544786,0.284076,-0.0252426,0.0067547,0.286629,5,0.1,5,7,-0.520254,-0.184381,0.599246,-0.0257358,0.291668,0.000482798,0.100374,-0.0777614,-0.000327826,0.0140703,0.430679,5,0.1,6,7,-0.300686,-0.0878721,0.599919,0.000245869,0.292989,0.000149012,0.00277162,0.160578,-0.000178814,0.0227808,0.100257,5,0.1,7,7,3.55495,3.28581,0.500958,0.218767,-0.204158,-0.00791848,-0.0445843,-0.203133,0.0436008,0.00803411,0.347202,5,0.1,8,7,0.424098,3.77558,0.561086,0.663183,-0.625122,-0.0489131,-0.46198,-0.449538,0.0175536,0.0102795,0.800469,5,0.1,9,7,-0.533024,1.56042,0.500001,-0.856982,0.359187,0,0.140548,-0.179887,0,0.0131369,0.885183,5,0.1
0,7.1,1.24157,2.51449,0.5,-0.706101,-0.178319,0,0.217997,0.192195,0,0.0235071,0.288862,5,0.1,1,7.1,0.478615,2.93484,0.575711,0.0295658,0.840018,-0.0496165,-0.170231,-0.297174,-0.013072,0.00793294,0.826729,5,0.1,2,7.1,-0.9375,0.135222,0.60203,0.701602,0.814607,0.0142427,-0.0683926,0.55558,0.033021,0.0108932,2.04671,5,0.1,3,7.1,1.03278,-1.56988,0.543679,0.000113994,7.3947e-05,1.14553e-05,-0.000149012,-7.45058e-06,-1.11759e-05,0.01079,3.02987e-09,5,0.1,4,7.1,3.4159,3.68474,0.710391,0.205453,0.427064,-0.0792147,-0.053525,0.221297,-0.0160374,0.0067547,0.286629,5,0.1,5,7.1,-0.522438,-0.155307,0.599293,-0.018946,0.292042,0.000453461,0.0404902,0.0573248,-0.000271946,0.0140703,0.430679,5,0.1,6,7.1,-0.300649,-0.0577262,0.599933,0.000481075,0.309866,0.000131503,0.00192784,0.157395,-0.000171363,0.0227808,0.100257,5,0.1,7,7.1,3.57564,3.26524,0.500459,0.186782,-0.199825,-0.00145687,-0.539973,0.249028,0.0796728,0.00803411,0.347202,5,0.1,8,7.1,0.488218,3.71089,0.556281,0.619824,-0.666976,-0.0471722,-0.424625,-0.35356,0.0187978,0.0102795,0.800469,5,0.1,9,7.1,-0.618183,1.595,0.500001,-0.846797,0.328478,0,0.103403,-0.415392,0,0.0131369,0.885183,5,0.1
0,7.2,1.17229,2.49765,0.5,-0.676703,-0.158185,0,0.383437,0.211,0,0.020901,0.215273,5,0.1,1,7.2,0.480546,3.01697,0.570714,0.00774786,0.798488,-0.0500008,-0.249043,-0.540972,0.0064671,0.00625876,0.601093,5,0.1,2,7.2,-0.867795,0.218971,0.603571,0.690621,0.854816,0.0161067,-0.178963,0.224187,0.00569224,0.00927087,2.00992,5,0.1,3,7.2,1.03279,-1.56987,0.54368,9.53674e-05,6.85453e-05,8.9407e-06,-0.000119209,0,0,0.00895179,3.01362e-09,5,0.1,4,7.2,3.43612,3.72831,0.702428,0.198376,0.441396,-0.0796184,-0.0935793,0.05126,0.0101924,0.00953793,0.196635,5,0.1,5,7.2,-0.524195,-0.125782,0.599337,-0.0167251,0.298282,0.000424683,0.00795722,0.0468642,-0.000298023,0.0143197,0.356387,5,0.1,6,7.2,-0.300592,-0.026089,0.599945,0.000631064,0.321162,0.000114739,0.00105798,0.0550276,-0.000178814,0.023993,0.0788777,5,0.1,7,7.2,3.59118,3.24697,0.500731,0.12061,-0.161707,0.00696778,-0.74017,0.480652,0.0843406,0.00686227,0.232173,5,0.1,8,7.2,0.548009,3.64281,0.55167,0.574997,-0.690174,-0.0448987,-0.485122,-0.0874996,0.0276864,0.011844,0.546436,5,0.1,9,7.2,-0.702138,1.62551,0.500001,-0.829494,0.279588,0,0.270456,-0.546575,0,0.00786367,0.66436,5,0.1
0,7.3,1.1065,2.48271,0.5,-0.639022,-0.142181,0,0.387885,0.120282,0,0.020901,0.215273,5,0.1,1,7.3,0.480301,3.09453,0.565743,-0.0105528,0.755812,-0.0493903,-0.123905,-0.354201,0.00772625,0.00625876,0.601093,5,0.1,2,7.3,-0.799348,0.305137,0.605179,0.680087,0.865208,0.0157837,-0.0714622,0.0233316,-0.0110343,0.00927087,2.00992,5,0.1,3,7.3,1.0328,-1.56987,0.543681,8.15839e-05,6.51926e-05,8.47504e-06,-0.000163913,-5.96046e-05,-1.11759e-05,0.00895179,3.01362e-09,5,0.1,4,7.3,3.45552,3.77268,0.694518,0.189613,0.445195,-0.07849,-0.088349,0.00737607,0.0151694,0.00953793,0.196635,5,0.1,5,7.3,-0.525829,-0.0955492,0.599378,-0.0159509,0.307451,0.000399072,0.008028,0.11245,-0.000234693,0.0143197,0.356387,5,0.1,6,7.3,-0.300525,0.00637835,0.599956,0.000713533,0.328423,9.80683e-05,0.000583008,0.0699186,-0.000160187,0.023993,0.0788777,5,0.1,7,7.3,3.59928,3.23349,0.501859,0.0396542,-0.105651,0.0155966,-0.843316,0.613004,0.08462,0.00686227,0.232173,5,0.1,8,7.3,0.603212,3.5734,0.547313,0.529925,-0.696878,-0.0422548,-0.432622,-0.0191629,0.0264756,0.011844,0.546436,5,0.1,9,7.3,-0.783857,1.65063,0.500001,-0.805273,0.221983,0,0.246555,-0.592366,0,0.00786367,0.66436,5,0.1
0,7.4,1.04467,2.46902,0.5,-0.596198,-0.132155,0,0.480175,0.0884533,0,0.0194525,0.143766,5,0.1,1,7.4,0.478786,3.16837,0.560858,-0.0183187,0.720483,-0.0481248,-0.0373572,-0.382662,0.0189543,0.0094553,1.0516,5,0.1,2,7.4,-0.731786,0.391653,0.606682,0.669529,0.86415,0.0141069,-0.167996,-0.0375068,-0.0215471,0.00827977,1.69299,5,0.1,3,7.4,1.03281,-1.56986,0.543682,6.85453e-05,5.66244e-05,5.96046e-06,-0.000238419,-5.96046e-05,0,0.00742203,3.05292e-09,5,0.1,4,7.4,3.474,3.81704,0.686771,0.179583,0.43999,-0.0761226,-0.116706,-0.122666,0.0340044,0.00635288,0.131545,5,0.1,5,7.4,-0.52738,-0.0642955,0.599417,-0.0150368,0.316637,0.000375509,0.01055,0.0539798,-0.000268221,0.017116,0.289842,5,0.1,6,7.4,-0.300451,0.0394595,0.599965,0.000745803,0.331729,8.19564e-05,8.9407e-05,-0.0177097,-0.000119209,0.0255772,0.109455,5,0.1,7,7.4,3.59909,3.22602,0.503818,-0.0418723,-0.0439107,0.0232756,-0.761032,0.600815,0.0664592,0.00598643,0.152632,5,0.1,8,7.4,0.65402,3.50391,0.543226,0.485726,-0.689459,-0.0393912,-0.462592,0.18549,0.0317097,0.00817405,0.365419,5,0.1,9,7.4,-0.862974,1.66988,0.500001,-0.774698,0.163436,0,0.387162,-0.568449,0,0.0107109,0.649159,5,0.1
0,7.5,0.987354,2.45623,0.5,-0.550585,-0.123796,0,0.447139,0.0825226,0,0.0194525,0.143766,5,0.1,1,7.5,0.476402,3.23664,0.556259,-0.0323691,0.628812,-0.0428403,-0.218568,-1.34954,0.0805855,0.0094553,1.0516,5,0.1,2,7.5,-0.665459,0.478049,0.607973,0.658245,0.864567,0.0116127,-0.092797,0.0116193,-0.0274852,0.00827977,1.69299,5,0.1,3,7.5,1.03282,-1.56986,0.543683,4.60073e-05,4.84288e-05,5.4948e-06,-0.000201166,-8.9407e-05,-1.11759e-05,0.00742203,3.05292e-09,5,0.1,4,7.5,3.49141,3.86044,0.679324,0.168685,0.427559,-0.0728103,-0.106767,-0.140205,0.0345595,0.00635288,0.131545,5,0.1,5,7.5,-0.528804,-0.0322713,0.599453,-0.0132156,0.324238,0.000352878,0.024464,0.0780407,-0.000204891,0.017116,0.289842,5,0.1,6,7.5,-0.300377,0.072699,0.599973,0.000736024,0.334032,7.01286e-05,-0.000279397,0.0410834,-0.000115484,0.0255772,0.109455,5,0.1,7,7.5,3.59119,3.22462,0.50646,-0.114875,0.0153825,0.0293242,-0.678554,0.568509,0.0526011,0.00598643,0.152632,5,0.1,8,7.5,0.700413,3.43589,0.539438,0.443103,-0.670639,-0.036417,-0.403542,0.213429,0.0288524,0.00817405,0.365419,5,0.1,9,7.5,-0.938628,1.68345,0.500001,-0.738892,0.10907,0,0.355668,-0.507899,0,0.0107109,0.649159,5,0.1
0,7.6,0.934576,2.44427,0.5,-0.504255,-0.115007,0,0.489593,0.0957251,0,0.0184183,0.135727,5,0.1,1,7.6,0.471943,3.29187,0.552437,-0.0575937,0.468791,-0.0331163,-0.266656,-1.76978,0.108927,0.00860061,0.616135,5,0.1,2,7.6,-0.60021,0.564432,0.608993,0.644988,0.861295,0.00876337,-0.197053,-0.0946224,-0.0288188,0.0120048,1.29013,5,0.1,3,7.6,1.03282,-1.56985,0.543683,2.68221e-05,3.8743e-05,4.47035e-06,-0.000119209,-0.000119209,-2.98023e-05,0.00720314,2.1984e-09,5,0.1,4,7.6,3.50772,3.90237,0.672232,0.157303,0.409585,-0.0688255,-0.124931,-0.228763,0.0466704,0.00644187,0.147994,5,0.1,5,7.6,-0.52999,0.000448174,0.599487,-0.010398,0.328841,0.000332296,0.0307262,-7.15256e-06,-0.000238419,0.016248,0.232522,5,0.1,6,7.6,-0.300305,0.106252,0.599979,0.000692159,0.336058,5.81145e-05,-0.000610948,-0.0167263,-8.9407e-05,0.0235892,0.183697,5,0.1,7,7.6,3.57658,3.22884,0.50962,-0.174165,0.0669837,0.0334844,-0.493526,0.452161,0.0293851,0.00829629,0.0837193,5,0.1,8,7.6,0.742712,3.37009,0.535943,0.402698,-0.643033,-0.0334397,-0.414073,0.353694,0.0314415,0.00700817,0.241956,5,0.1,9,7.6,-1.01061,1.69199,0.500001,-0.699076,0.0635922,0,0.458837,-0.395179,0,0.00918308,0.713464,5,0.1
0,7.7,0.886254,2.43335,0.5,-0.464937,-0.102757,0,0.32394,0.145093,0,0.0184183,0.135727,5,0.1,1,7.7,0.4652,3.33141,0.549587,-0.0740576,0.335653,-0.0246434,-0.0742655,-0.953153,0.0637993,0.00860061,0.616135,5,0.1,2,7.7,-0.537233,0.650336,0.609724,0.609542,0.858046,0.00585848,-0.49776,-0.0174753,-0.0286736,0.0120048,1.29013,5,0.1,3,7.7,1.03282,-1.56985,0.543683,1.58325e-05,2.68221e-05,1.58325e-06,-9.68575e-05,-0.000119209,-2.6077e-05,0.00720314,2.1984e-09,5,0.1,4,7.7,3.52294,3.94244,0.665538,0.148018,0.393887,-0.0654065,-0.0705719,-0.111312,0.0259243,0.00644187,0.147994,5,0.1,5,7.7,-0.530849,0.0333779,0.599519,-0.00656191,0.329797,0.000312086,0.0437498,0.00311732,-0.000175089,0.016248,0.232522,5,0.1,6,7.7,-0.300239,0.140075,0.599985,0.00062394,0.342586,4.91738e-05,-0.000746921,0.115122,-8.9407e-05,0.0235892,0.183697,5,0.1,7,7.7,3.5569,3.23767,0.513091,-0.217173,0.107973,0.0356906,-0.356764,0.359088,0.0139363,0.00829629,0.0837193,5,0.1,8,7.7,0.781039,3.30749,0.532748,0.364812,-0.609026,-0.0305256,-0.355124,0.345215,0.0277534,0.00700817,0.241956,5,0.1,9,7.7,-1.07836,1.69649,0.500001,-0.656504,0.0281282,0,0.414699,-0.293314,0,0.00918308,0.713464,5,0.1
0,7.8,0.841289,2.42385,0.5,-0.434759,-0.0867605,0,0.299603,0.171304,0,0.0181966,0.124603,5,0.1,1,7.8,0.457661,3.36115,0.547389,-0.0746027,0.267273,-0.0197664,0.0534654,-0.463009,0.0363588,0.00705913,0.458451,5,0.1,2,7.8,-0.479165,0.735865,0.610171,0.548184,0.849782,0.0031352,-0.716031,-0.180781,-0.025332,0.0111059,0.666473,5,0.1,3,7.8,1.03282,-1.56985,0.543683,5.96046e-06,1.49012e-05,0,-0.000119209,-0.000119209,-2.98023e-05,0.00992711,1.91797e-09,5,0.1,4,7.8,3.53742,3.98129,0.659121,0.14149,0.382823,-0.0629142,-0.0674725,-0.128865,0.0270307,0.00692066,0.0860053,5,0.1,5,7.8,-0.53128,0.0662713,0.59955,-0.00204593,0.326764,0.000293553,0.0448525,-0.0747633,-0.000178814,0.0138222,0.472188,5,0.1,6,7.8,-0.300181,0.174911,0.599989,0.000543892,0.35352,4.02331e-05,-0.000849366,0.0800866,-5.96046e-05,0.0229528,0.112248,5,0.1,7,7.8,3.53369,3.25005,0.516699,-0.243974,0.137424,0.0361532,-0.173688,0.224829,-0.005126,0.00652117,0.03635,5,0.1,8,7.8,0.815765,3.24842,0.529834,0.329718,-0.570852,-0.0277355,-0.354826,0.430584,0.0286996,0.0118858,0.159901,5,0.1,9,7.8,-1.14186,1.69813,0.500001,-0.61242,0.00772774,0,0.482202,-0.107467,0,0.0102192,0.605197,5,0.1
0,7.9,0.79916,2.41605,0.5,-0.408857,-0.0690892,0,0.236325,0.178963,0,0.0181966,0.124603,5,0.1,1,7.9,0.450625,3.38635,0.545549,-0.0647757,0.243333,-0.0174141,0.134544,-0.0618398,0.0131987,0.00705913,0.458451,5,0.1,2,7.9,-0.428293,0.819931,0.610361,0.466188,0.830735,0.000710227,-0.900798,-0.228066,-0.0227243,0.0111059,0.666473,5,0.1,3,7.9,1.03282,-1.56984,0.543683,-4.09782e-06,3.91155e-06,-2.51457e-06,-7.45058e-05,-9.68575e-05,-1.86265e-05,0.00992711,1.91797e-09,5,0.1,4,7.9,3.55127,4.01902,0.652948,0.135903,0.372075,-0.0606307,-0.0506788,-0.103012,0.0213869,0.00692066,0.0860053,5,0.1,5,7.9,-0.531355,0.098835,0.599578,-0.000266731,0.326422,0.000277068,-0.00461936,0.0406806,-0.000160187,0.0138222,0.472188,5,0.1,6,7.9,-0.300131,0.210727,0.599993,0.000454811,0.362908,3.41795e-05,-0.000918284,0.086895,-6.33299e-05,0.0229528,0.112248,5,0.1,7,7.9,3.50862,3.26477,0.520271,-0.255476,0.155383,0.0350885,-0.0530779,0.131011,-0.0163391,0.00652117,0.03635,5,0.1,8,7.9,0.847078,3.19339,0.527196,0.297445,-0.530292,-0.0250998,-0.300255,0.396386,0.0247844,0.0118858,0.159901,5,0.1,9,7.9,-1.20083,1.69862,0.500001,-0.567834,0.00532381,0,0.427924,0.0865757,0,0.0102192,0.605197,5,0.1
0,8,0.759471,2.41003,0.5,-0.384444,-0.0515282,0,0.264555,0.169992,0,0.0219597,0.225019,5,0.1,1,8,0.444895,3.41072,0.543853,-0.0492312,0.246727,-0.0166804,0.169486,0.0942945,0.00342727,0.00606909,0.364114,5,0.1,2,8,-0.386324,0.901601,0.610326,0.372213,0.799547,-0.00133514,-0.959903,-0.414044,-0.0178814,0.00796502,0.277193,5,0.1,3,8,1.03282,-1.56984,0.543683,-1.19209e-05,-2.98023e-06,-2.98023e-06,0,-0.000119209,-5.96046e-05,0.00896272,1.38469e-09,5,0.1,4,8,3.56459,4.05564,0.647001,0.13026,0.359356,-0.0581712,-0.0668764,-0.163078,0.0296831,0.00953458,0.0652794,5,0.1,5,8,-0.531454,0.131688,0.599605,-0.00213236,0.330186,0.00026077,-0.0289679,0.0146997,-0.000208616,0.0141132,0.389582,5,0.1,6,8,-0.30009,0.247324,0.599996,0.000362843,0.367386,2.83122e-05,-0.000908971,-0.0117123,-8.9407e-05,0.0208625,0.0621761,5,0.1,7,8,3.48302,3.28078,0.523678,-0.254172,0.163156,0.032872,0.0803471,0.0231266,-0.0279844,0.00790309,0.0121644,5,0.1,8,8,0.875347,3.14239,0.524808,0.268024,-0.488925,-0.0226483,-0.294954,0.441551,0.0247657,0.0132992,0.106003,5,0.1,9,8,-1.25544,1.7,0.500001,-0.523731,0.0262052,0,0.466764,0.315487,0,0.00718726,0.493843,5,0.1
0,8.1,0.722284,2.40569,0.5,-0.359644,-0.035559,0,0.242949,0.147894,0,0.0219597,0.225019,5,0.1,1,8.1,0.440868,3.43622,0.54218,-0.0310011,0.265963,-0.0169418,0.188883,0.255153,-0.00672415,0.00606909,0.364114,5,0.1,2,8.1,-0.353865,0.979391,0.610107,0.277692,0.754976,-0.00298815,-0.916665,-0.490759,-0.0148453,0.00796502,0.277193,5,0.1,3,8.1,1.03282,-1.56985,0.543682,-1.19209e-05,-1.28523e-05,-7.35745e-06,0,-6.70552e-05,-3.35276e-05,0.00896272,1.38469e-09,5,0.1,4,8.1,3.57734,4.09088,0.641312,0.12493,0.346135,-0.0557502,-0.0463873,-0.11903,0.0215881,0.00953458,0.0652794,5,0.1,5,8.1,-0.5318,0.164951,0.59963,-0.00464432,0.336151,0.00024261,-0.0211,0.0801915,-0.000167638,0.0141132,0.389582,5,0.1,6,8.1,-0.300058,0.283981,0.599998,0.000274694,0.365171,1.99303e-05,-0.000847504,-0.0455528,-7.45058e-05,0.0208625,0.0621761,5,0.1,7,8.1,3.45814,3.2971,0.526816,-0.242285,0.16212,0.0297924,0.157148,-0.0441968,-0.0334792,0.00790309,0.0121644,5,0.1,8,8.1,0.900775,3.0956,0.52266,0.241329,-0.447869,-0.0203905,-0.246983,0.392869,0.0210367,0.0132992,0.106003,5,0.1,9,8.1,-1.30561,1.70466,0.500001,-0.480789,0.0706023,0,0.407442,0.532635,0,0.00718726,0.493843,5,0.1
0,8.2,0.687575,2.40283,0.5,-0.333923,-0.0221908,0,0.279248,0.118494,0,0.019165,0.202986,5,0.1,1,8.2,0.438702,3.46412,0.540449,-0.012546,0.291628,-0.0176862,0.175536,0.231981,-0.00676513,0.00858039,0.283178,5,0.1,2,8.2,-0.330514,1.05222,0.609741,0.191243,0.699279,-0.00424981,-0.802577,-0.630915,-0.0101924,0.00721015,0.414819,5,0.1,3,8.2,1.03282,-1.56985,0.543682,-1.19209e-05,-2.08616e-05,-8.9407e-06,0,0,-2.98023e-05,0.00819866,7.99167e-10,5,0.1,4,8.2,3.58959,4.12485,0.63585,0.119841,0.332558,-0.0533685,-0.0599623,-0.164509,0.028044,0.00978558,0.0291356,5,0.1,5,8.2,-0.532356,0.198911,0.599654,-0.00633001,0.342036,0.000226498,-0.0125766,0.0200349,-0.000178814,0.0156506,0.316253,5,0.1,6,8.2,-0.300035,0.320128,0.6,0.000195205,0.356136,1.49012e-05,-0.000730157,-0.143588,-8.9407e-05,0.0233304,0.0429316,5,0.1,7,8.2,3.43482,3.31298,0.52962,-0.22288,0.154334,0.0262067,0.229597,-0.110984,-0.0380278,0.00830097,0.00451967,5,0.1,8,8.2,0.923699,3.05278,0.520724,0.217251,-0.408107,-0.0183314,-0.240237,0.41151,0.0206232,0.00883227,0.121816,5,0.1,9,8.2,-1.35165,1.71447,0.500001,-0.439638,0.125733,0,0.426233,0.539839,0,0.0101721,0.386405,5,0.1
0,8.3,0.655541,2.40121,0.5,-0.306945,-0.01036,0,0.267595,0.110775,0,0.019165,0.202986,5,0.1,1,8.3,0.438321,3.49458,0.538637,0.00477191,0.318171,-0.0186042,0.166222,0.271648,-0.0100918,0.00858039,0.283178,5,0.1,2,8.3,-0.315145,1.11921,0.609269,0.118838,0.641952,-0.00515711,-0.640737,-0.537641,-0.007689,0.00721015,0.414819,5,0.1,3,8.3,1.03282,-1.56985,0.543681,-1.19209e-05,-2.06754e-05,-1.07102e-05,0,7.45058e-06,-1.11759e-05,0.00819866,7.99167e-10,5,0.1,4,8.3,3.60128,4.15729,0.630652,0.113914,0.315998,-0.0505814,-0.0620633,-0.175714,0.0291765,0.00978558,0.0291356,5,0.1,5,8.3,-0.533018,0.233321,0.599676,-0.00661183,0.346706,0.000211317,0.00543892,0.0523636,-0.000137836,0.0156506,0.316253,5,0.1,6,8.3,-0.300018,0.355075,0.600001,0.000128895,0.342968,7.26432e-06,-0.000596046,-0.133581,-6.70552e-05,0.0233304,0.0429316,5,0.1,7,8.3,3.41372,3.32781,0.53205,-0.198595,0.141747,0.0223873,0.25554,-0.140756,-0.0382289,0.00830097,0.00451967,5,0.1,8,8.3,0.944415,3.01372,0.518978,0.198641,-0.375607,-0.0167095,-0.145543,0.261858,0.0129081,0.00883227,0.121816,5,0.1,9,8.3,-1.39362,1.72988,0.500001,-0.400628,0.183058,0,0.366829,0.576533,0,0.0101721,0.386405,5,0.1
0,8.4,0.626214,2.40066,0.5,-0.279199,-0.00119209,0,0.292182,0.0684261,0,0.0174233,0.395458,5,0.1,1,8.4,0.439583,3.52764,0.536731,0.0199132,0.341302,-0.0194475,0.133365,0.171661,-0.00569224,0.00922624,0.210214,5,0.1,2,8.4,-0.306168,1.18072,0.60872,0.0637099,0.588009,-0.00574589,-0.460491,-0.556588,-0.00393391,0.00945205,1.6405,5,0.1,3,8.4,1.03282,-1.56985,0.543679,-8.9407e-06,-1.78814e-05,-1.04308e-05,-5.96046e-05,0,2.98023e-05,0.00732935,7.67955e-10,5,0.1,4,8.4,3.61233,4.18793,0.625751,0.106853,0.295937,-0.0472918,-0.0813007,-0.231266,0.0375807,0.00663771,0.0109845,5,0.1,5,8.4,-0.533632,0.268166,0.599696,-0.00551194,0.348929,0.000196695,0.0152886,-0.0226796,-0.000119209,0.0150949,0.253353,5,0.1,6,8.4,-0.300008,0.388629,0.600001,7.59959e-05,0.327114,1.49012e-06,-0.000461936,-0.192732,-2.98023e-05,0.0225169,0.0799039,5,0.1,7,8.4,3.39518,3.34123,0.534098,-0.171936,0.126249,0.0185877,0.276446,-0.168562,-0.0375509,0.00859534,0.00170453,5,0.1,8,8.4,0.963616,2.97738,0.517366,0.185776,-0.351661,-0.0155598,-0.121862,0.234008,0.0109673,0.00792539,0.0706045,5,0.1,9,8.4,-1.43186,1.75093,0.500001,-0.364089,0.235862,0,0.373006,0.457764,0,0.00877864,0.29051,5,0.1
0,8.5,0.599718,2.40095,0.5,-0.25096,0.00684932,0,0.277188,0.0633895,0,0.0174233,0.395458,5,0.1,1,8.5,0.442219,3.56266,0.534754,0.0325036,0.3591,-0.0200956,0.114961,0.162944,-0.00609085,0.00922624,0.210214,5,0.1,2,8.5,-0.30196,1.23755,0.608128,0.0225508,0.555255,-0.00606729,-0.33606,-0.156276,-0.0022836,0.00945205,1.6405,5,0.1,3,8.5,1.03282,-1.56985,0.543679,-1.30385e-05,-1.71363e-05,-7.45058e-06,-1.49012e-05,1.49012e-05,2.98023e-05,0.00732935,7.67955e-10,5,0.1,4,8.5,3.6226,4.21635,0.621212,0.0985146,0.272156,-0.0434485,-0.0870228,-0.248283,0.0399314,0.00663771,0.0109845,5,0.1,5,8.5,-0.534079,0.303021,0.599715,-0.00320729,0.348469,0.000186358,0.0288188,-0.00452995,-9.31323e-05,0.0150949,0.253353,5,0.1,6,8.5,-0.300003,0.420589,0.600001,3.69735e-05,0.313659,-1.02445e-06,-0.0003241,-0.0970867,-1.86265e-05,0.0225169,0.0799039,5,0.1,7,8.5,3.37937,3.353,0.535772,-0.144223,0.108861,0.014937,0.276044,-0.177994,-0.0352599,0.00859534,0.00170453,5,0.1,8,8.5,0.981667,2.94325,0.515858,0.175843,-0.331856,-0.0146515,-0.0858009,0.177532,0.00792369,0.00792539,0.0706045,5,0.1,9,8.5,-1.46652,1.7768,0.500001,-0.330117,0.280946,0,0.317186,0.420742,0,0.00877864,0.29051,5,0.1
0,8.6,0.576013,2.40177,0.5,-0.223003,0.00738502,0,0.28494,-0.0648499,0,0.0188169,0.509632,5,0.1,1,8.6,0.44599,3.59923,0.532721,0.042326,0.370282,-0.0204653,0.0791401,0.046134,-0.000506639,0.00616349,0.149314,5,0.1,2,8.6,-0.301023,1.29257,0.607514,8.34465e-05,0.546616,-0.00616908,-0.104085,-0.0600219,0.00038743,0.00751129,1.39323,5,0.1,3,8.6,1.03281,-1.56985,0.543678,-1.49012e-05,-1.49012e-05,-4.47035e-06,0,0,2.98023e-05,0.0100893,6.96689e-10,5,0.1,4,8.6,3.632,4.24227,0.617075,0.0892043,0.245678,-0.0392035,-0.0998974,-0.283241,0.0452697,0.00868016,0.00552972,5,0.1,5,8.6,-0.534247,0.337755,0.599733,-9.98378e-05,0.344969,0.000175834,0.0317991,-0.0779778,-8.9407e-05,0.0134182,0.201731,5,0.1,6,8.6,-0.300001,0.451488,0.600001,1.04308e-05,0.304122,-1.49012e-06,-0.000208616,-0.108689,-2.98023e-05,0.0207039,0.0667497,5,0.1,7,8.6,3.36632,3.36299,0.537095,-0.117058,0.0908852,0.0115693,0.265837,-0.180483,-0.0318885,0.00774716,0.00153768,5,0.1,8,8.6,0.998822,2.91096,0.514433,0.167072,-0.313509,-0.0138491,-0.0960827,0.200033,0.00861287,0.010616,0.0550914,5,0.1,9,8.6,-1.49797,1.80678,0.500001,-0.298819,0.316101,0,0.316322,0.266314,0,0.00828146,0.208683,5,0.1
0,8.7,0.555127,2.402,0.5,-0.194813,-0.00546314,0,0.279784,-0.219986,0,0.0188169,0.509632,5,0.1,1,8.7,0.450596,3.6365,0.53067,0.0495085,0.374858,-0.0205437,0.061797,0.0283569,-0.000119209,0.00616349,0.149314,5,0.1,2,8.7,-0.301223,1.34732,0.6069,5.18747e-05,0.551316,-0.00609728,0.138499,0.109091,0.00122562,0.00751129,1.39323,5,0.1,3,8.7,1.03281,-1.56986,0.543678,-1.39698e-05,-1.41561e-05,-1.58325e-06,2.23517e-05,1.49012e-05,2.6077e-05,0.0100893,6.96689e-10,5,0.1,4,8.7,3.64043,4.26544,0.613378,0.0793774,0.217804,-0.0347578,-0.0978261,-0.277132,0.0441335,0.00868016,0.00552972,5,0.1,5,8.7,-0.53408,0.371914,0.599751,0.00357516,0.338357,0.000167917,0.0395849,-0.0689384,-7.82311e-05,0.0134182,0.201731,5,0.1,6,8.7,-0.3,0.481537,0.600001,-6.00703e-06,0.298134,-3.91155e-06,-0.000121072,-0.0322331,-1.49012e-05,0.0207039,0.0667497,5,0.1,7,8.7,3.35591,3.37118,0.538098,-0.0913806,0.0731401,0.00855941,0.245988,-0.173062,-0.0281483,0.00774716,0.00153768,5,0.1,8,8.7,1.01513,2.88047,0.513084,0.159665,-0.2973,-0.0131723,-0.0613481,0.140145,0.00568107,0.010616,0.0550914,5,0.1,9,8.7,-1.52637,1.83968,0.500001,-0.270134,0.34106,0,0.266351,0.214651,0,0.00828146,0.208683,5,0.1
0,8.8,0.537041,2.4,0.5,-0.166923,-0.0378251,0,0.278413,-0.41151,0,0.0267558,1.19283,5,0.1,1,8.8,0.45581,3.67399,0.528622,0.0542402,0.373101,-0.0203311,0.0310838,-0.0749826,0.00503659,0.00875665,0.175032,5,0.1,2,8.8,-0.3,1.40298,0.606299,0.0292972,0.560677,-0.0058949,0.426501,0.0454783,0.00289083,0.0072254,1.13489,5,0.1,3,8.8,1.03281,-1.56986,0.543678,-1.19209e-05,-1.19209e-05,0,0,0,2.98023e-05,0.00715153,6.05743e-10,5,0.1,4,8.8,3.64787,4.28583,0.610124,0.0694633,0.189805,-0.030303,-0.101209,-0.284672,0.0452399,0.00712622,0.00170858,5,0.1,5,8.8,-0.533526,0.405322,0.599767,0.00744611,0.328705,0.000160933,0.0362396,-0.134155,-0.000149012,0.016595,0.621386,5,0.1,6,8.8,-0.300001,0.511174,0.600001,-1.49012e-05,0.294055,-4.47035e-06,-5.96046e-05,-0.0644624,0,0.024984,0.105859,5,0.1,7,8.8,3.34796,3.37765,0.538821,-0.068152,0.0565171,0.00596493,0.217199,-0.158548,-0.023663,0.00679493,0.00144193,5,0.1,8,8.8,1.03079,2.85145,0.511795,0.15322,-0.282758,-0.0125855,-0.0742078,0.161886,0.00661612,0.00883395,0.0250889,5,0.1,9,8.8,-1.55208,1.87465,0.500001,-0.244015,0.355992,0,0.26238,0.0719428,0,0.00932193,0.144692,5,0.1
0,8.9,0.520753,2.39378,0.5,-0.167162,-0.0894975,0,-0.22272,-0.584021,0,0.0267558,1.19283,5,0.1,1,8.9,0.461419,3.7112,0.526599,0.0581103,0.373087,-0.0202543,0.0412855,0.04448,-0.00184402,0.00875665,0.175032,5,0.1,2,8.9,-0.294352,1.45921,0.605724,0.0882068,0.562962,-0.00560228,0.700582,-0.0181571,0.00311434,0.0072254,1.13489,5,0.1,3,8.9,1.03281,-1.56986,0.543678,-1.09896e-05,-1.09896e-05,2.51457e-06,2.23517e-05,2.23517e-05,1.86265e-05,0.00715153,6.05743e-10,5,0.1,4,8.9,3.65432,4.30341,0.607317,0.0595275,0.161911,-0.0258724,-0.0976771,-0.273615,0.0434481,0.00712622,0.00170858,5,0.1,5,8.9,-0.53276,0.437967,0.599782,0.0065065,0.327698,0.000147521,-0.0463761,0.0768751,-0.00012666,0.016595,0.621386,5,0.1,6,8.9,-0.300003,0.54048,0.6,-1.8673e-05,0.293671,-4.37722e-06,-1.67638e-05,0.032749,3.72529e-06,0.024984,0.105859,5,0.1,7,8.9,3.34218,3.38254,0.539306,-0.0478365,0.0414766,0.00379961,0.187963,-0.141263,-0.0195652,0.00679493,0.00144193,5,0.1,8,8.9,1.04575,2.82396,0.510569,0.146065,-0.267133,-0.0119514,-0.0738353,0.1591,0.00647083,0.00883395,0.0250889,5,0.1,9,8.9,-1.57526,1.91059,0.500001,-0.22031,0.361967,0,0.219218,0.0329241,0,0.00932193,0.144692,5,0.1
0,9,0.502507,2.38188,0.5,-0.200726,-0.147986,0,-0.401691,-0.557184,0,0.0259409,1.64441,5,0.1,1,9,0.467419,3.74872,0.524564,0.0616349,0.376779,-0.0204131,0.02563,0.00727177,-8.9407e-05,0.00910434,0.10473,5,0.1,2,9,-0.281923,1.51519,0.605181,0.160434,0.553983,-0.00524819,0.705302,-0.173628,0.00405312,0.00758768,0.925872,5,0.1,3,9,1.03281,-1.56986,0.543678,-8.9407e-06,-1.19209e-05,2.98023e-06,0,0.000119209,5.96046e-05,0.00704064,1.26458e-09,5,0.1,4,9,3.65979,4.31824,0.604944,0.049901,0.135052,-0.0216067,-0.0946522,-0.263691,0.0419319,0.00718295,0.000885899,5,0.1,5,9,-0.532418,0.471219,0.599796,-0.000278652,0.337596,0.00013411,-0.0824332,0.0933707,-0.000119209,0.0158728,0.60366,5,0.1,6,9,-0.300005,0.570009,0.6,-1.86265e-05,0.296457,-4.47035e-06,1.49012e-05,0.00551343,2.98023e-05,0.021368,0.0907813,5,0.1,7,9,3.33828,3.38601,0.539595,-0.0307441,0.0284374,0.0020653,0.153303,-0.118971,-0.0151694,0.0062344,0.00101159,5,0.1,8,9,1.05995,2.79809,0.509408,0.137633,-0.249541,-0.011225,-0.0980496,0.198245,0.00834465,0.0104817,0.0152899,5,0.1,9,9,-1.59621,1.94678,0.500001,-0.198895,0.360146,0,0.214398,-0.0789165,0,0.0105672,0.167791,5,0.1
0,9.1,0.480176,2.36487,0.500418,-0.247458,-0.187628,0.0118535,-0.496948,-0.275716,0.210732,0.0259409,1.64441,5,0.1,1,9.1,0.473709,3.7865,0.522518,0.0640749,0.378936,-0.0205112,0.0199787,0.0163615,-0.000793487,0.00910434,0.10473,5,0.1,2,9.1,-0.262183,1.56912,0.604676,0.235087,0.519629,-0.00485871,0.749104,-0.473283,0.0038594,0.00758768,0.925872,5,0.1,3,9.1,1.03281,-1.56986,0.543679,-8.00937e-06,-1.86265e-06,7.35745e-06,2.23517e-05,7.45058e-05,3.35276e-05,0.00704064,1.26458e-09,5,0.1,4,9.1,3.66432,4.33046,0.602988,0.0407647,0.10967,-0.0175701,-0.0879019,-0.243425,0.0387132,0.00718295,0.000885899,5,0.1,5,9.1,-0.5328,0.505683,0.599809,-0.00679344,0.353272,0.000123307,-0.0490397,0.188801,-0.000104308,0.0158728,0.60366,5,0.1,6,9.1,-0.300007,0.599863,0.599999,-1.60653e-05,0.30179,-1.95578e-06,3.53903e-05,0.0766851,1.86265e-05,0.021368,0.0907813,5,0.1,7,9.1,3.33593,3.3883,0.539732,-0.0168942,0.0175294,0.000730902,0.123203,-0.0986606,-0.0115111,0.0062344,0.00101159,5,0.1,8,9.1,1.07324,2.7741,0.508326,0.128089,-0.23033,-0.0104167,-0.0967085,0.192598,0.00813603,0.0104817,0.0152899,5,0.1,9,9.1,-1.61521,1.98263,0.500001,-0.182421,0.358466,-9.31323e-08,0.127696,0.018619,-3.72529e-06,0.0105672,0.167791,5,0.1
0,9.2,0.453032,2.34494,0.502825,-0.293893,-0.209236,0.037463,-0.40555,-0.177264,0.280976,0.0156464,1.59919,5,0.1,1,9.2,0.480186,3.82436,0.520469,0.065098,0.376755,-0.0203907,-0.00165403,-0.0734329,0.00393391,0.00668949,0.0569095,5,0.1,2,9.2,-0.235117,1.61848,0.60421,0.303609,0.465819,-0.00445396,0.593543,-0.578165,0.00429153,0.00877238,0.734767,5,0.1,3,9.2,1.03281,-1.56986,0.54368,-5.96046e-06,2.98023e-06,8.9407e-06,0,5.96046e-05,2.98023e-05,0.00976531,1.11421e-09,5,0.1,4,9.2,3.66797,4.34025,0.601419,0.0323594,0.0864744,-0.0138804,-0.0799894,-0.220299,0.0350773,0.0072477,0.000745866,5,0.1,5,9.2,-0.533677,0.541901,0.599821,-0.0103116,0.369953,0.000113249,-0.0225008,0.12216,-0.000119209,0.0128711,0.500545,5,0.1,6,9.2,-0.300008,0.630379,0.599999,-1.19209e-05,0.307614,0,4.47035e-05,0.022471,0,0.0185553,0.0453259,5,0.1,7,9.2,3.3348,3.38959,0.539753,-0.00616312,0.00878572,-0.000238419,0.0913143,-0.0759363,-0.00786781,0.00914172,0.000526088,5,0.1,8,9.2,1.08554,2.75206,0.507327,0.117669,-0.209957,-0.00954717,-0.114143,0.218987,0.00944734,0.0103108,0.00489863,5,0.1,9,9.2,-1.63287,2.01856,0.500001,-0.171149,0.359273,0,0.10699,-0.0219345,-2.98023e-05,0.00697168,0.179894,5,0.1
0,9.3,0.421557,2.32338,0.507662,-0.335473,-0.221864,0.0563589,-0.398293,-0.162706,0.106748,0.0156464,1.59919,5,0.1,1,9.3,0.486678,3.86166,0.51845,0.064586,0.368742,-0.0199658,-0.0105314,-0.0990033,0.00524148,0.00668949,0.0569095,5,0.1,2,9.3,-0.201796,1.66203,0.603785,0.361969,0.405364,-0.00405107,0.543914,-0.572219,0.0038743,0.00877238,0.734767,5,0.1,3,9.3,1.03281,-1.56986,0.543681,-5.02914e-06,7.82311e-06,1.07102e-05,2.23517e-05,2.98023e-05,1.11759e-05,0.00976531,1.11421e-09,5,0.1,4,9.3,3.67082,4.34784,0.600199,0.0248056,0.065735,-0.0105774,-0.070855,-0.193834,0.0308901,0.0072477,0.000745866,5,0.1,5,9.3,-0.534737,0.579645,0.599832,-0.0101402,0.3856,0.000102911,0.0217035,0.163615,-9.31323e-05,0.0128711,0.500545,5,0.1,6,9.3,-0.300009,0.661244,0.599999,-7.26432e-06,0.309267,0,4.84288e-05,-0.00254065,0,0.0185553,0.0453259,5,0.1,7,9.3,3.3346,3.39012,0.539695,0.00170022,0.00210926,-0.000885967,0.0660121,-0.0574887,-0.00512227,0.00914172,0.000526088,5,0.1,8,9.3,1.09673,2.73216,0.50642,0.106118,-0.187996,-0.0085948,-0.118196,0.222474,0.00970811,0.0103108,0.00489863,5,0.1,9,9.3,-1.6498,2.05443,0.500001,-0.170382,0.358228,-1.86265e-06,-0.0656098,-0.0161529,-1.49012e-05,0.00697168,0.179894,5,0.1
0,9.4,0.386216,2.3,0.513611,-0.368838,-0.249678,0.0606373,-0.249654,-0.385284,-0.0127554,0.0193901,1.36826,5,0.1,1,9.4,0.493056,3.89791,0.516486,0.0626743,0.354934,-0.0192329,-0.0289381,-0.184774,0.00989437,0.00680968,0.0388222,5,0.1,2,9.4,-0.163161,1.7,0.603399,0.407373,0.357273,-0.00365973,0.343718,-0.389218,0.00399351,0.00784916,0.575045,5,0.1,3,9.4,1.03281,-1.56986,0.543682,-5.96046e-06,8.9407e-06,1.04308e-05,5.96046e-05,0,-2.98023e-05,0.00813176,7.1401e-10,5,0.1,4,9.4,3.67296,4.35349,0.599288,0.0182331,0.0478029,-0.0077188,-0.0606775,-0.16427,0.0262558,0.00785524,0.000570148,5,0.1,5,9.4,-0.535598,0.618909,0.599842,-0.00673085,0.398034,9.38773e-05,0.043124,0.0658333,-5.96046e-05,0.0155593,0.405532,5,0.1,6,9.4,-0.30001,0.69203,0.599999,-2.23517e-06,0.304933,0,2.98023e-05,-0.092715,2.98023e-05,0.0170366,0.0808369,5,0.1,7,9.4,3.33506,3.39008,0.539585,0.00706315,-0.00271201,-0.00127256,0.0417233,-0.038743,-0.0026226,0.00767076,0.000203335,5,0.1,8,9.4,1.10674,2.7145,0.50561,0.0938326,-0.165129,-0.00758916,-0.12809,0.236034,0.0104606,0.0106453,0.00146602,5,0.1,9,9.4,-1.66728,2.09006,0.500001,-0.179696,0.353152,-1.49012e-06,-0.10097,-0.097394,-2.98023e-05,0.00906336,0.10953,5,0.1
0,9.5,0.34843,2.27305,0.519428,-0.383404,-0.28923,0.0541199,-0.0411514,-0.380516,-0.108093,0.0193901,1.36826,5,0.1,1,9.5,0.499185,3.93254,0.514609,0.0599025,0.337929,-0.0183268,-0.0285991,-0.168324,0.00894815,0.00680968,0.0388222,5,0.1,2,9.5,-0.12092,1.73398,0.603069,0.434954,0.323994,-0.00279536,0.19472,-0.291437,0.0122823,0.00784916,0.575045,5,0.1,3,9.5,1.03281,-1.56986,0.543683,-9.31323e-07,8.19564e-06,7.45058e-06,3.72529e-05,-1.49012e-05,-2.98023e-05,0.00813176,7.1401e-10,5,0.1,4,9.5,3.6745,4.3575,0.598641,0.0126481,0.0327267,-0.00530817,-0.0508726,-0.136882,0.0218973,0.00785524,0.000570148,5,0.1,5,9.5,-0.535962,0.659152,0.599851,0.000213552,0.407291,8.89413e-05,0.0888072,0.0944547,-4.84288e-05,0.0155593,0.405532,5,0.1,6,9.5,-0.30001,0.722227,0.599999,6.98492e-07,0.300168,2.42144e-06,2.79397e-05,-0.0226721,1.49012e-05,0.0170366,0.0808369,5,0.1,7,9.5,3.33594,3.38963,0.539448,0.0103116,-0.00587851,-0.00144457,0.0236034,-0.0247657,-0.000875443,0.00767076,0.000203335,5,0.1,8,9.5,1.11548,2.69916,0.504903,0.0810565,-0.141742,-0.00654822,-0.127487,0.231773,0.0103675,0.0106453,0.00146602,5,0.1,9,9.5,-1.68582,2.12488,0.5,-0.191361,0.342887,-2.42144e-06,-0.117838,-0.118628,7.45058e-06,0.00906336,0.10953,5,0.1
0,9.6,0.310229,2.2424,0.524207,-0.377198,-0.321496,0.0407323,0.163481,-0.247002,-0.152051,0.0219279,3.21406,5,0.1,1,9.6,0.505019,3.96544,0.512824,0.0566036,0.319093,-0.0173241,-0.0387132,-0.21708,0.0116229,0.00674667,0.0159254,5,0.1,2,9.6,-0.0767844,1.76498,0.602858,0.44423,0.296372,-0.00138283,-0.0168771,-0.271857,0.0151992,0.00815895,0.496577,5,0.1,3,9.6,1.03281,-1.56986,0.543683,5.96046e-06,5.96046e-06,4.47035e-06,-5.96046e-05,0,-2.98023e-05,0.0117405,7.7293e-10,5,0.1,4,9.6,3.67552,4.36013,0.598212,0.00807643,0.0204682,-0.00334531,-0.0405312,-0.108004,0.0173151,0.0071032,0.000336939,5,0.1,5,9.6,-0.535468,0.700233,0.59986,0.00980049,0.412694,8.49366e-05,0.0976324,-0.0038147,-8.9407e-05,0.0127645,0.324352,5,0.1,6,9.6,-0.30001,0.752111,0.6,2.98023e-06,0.296949,4.47035e-06,2.98023e-05,-0.0561774,-2.98023e-05,0.0216811,0.0669503,5,0.1,7,9.6,3.33706,3.38894,0.539301,0.0118613,-0.00770688,-0.00146031,0.00798702,-0.0120401,0.000536442,0.00763071,6.10384e-05,5,0.1,8,9.6,1.12295,2.68613,0.5043,0.0683457,-0.118786,-0.00551492,-0.126481,0.226974,0.0102222,0.0130416,0.000769999,5,0.1,9,9.6,-1.70547,2.15847,0.5,-0.200796,0.327653,-1.49012e-06,-0.0606775,-0.192761,0,0.00681826,0.0785944,5,0.1
0,9.7,0.273368,2.20969,0.527328,-0.359438,-0.326673,0.0201446,0.199245,0.121608,-0.244562,0.0219279,3.21406,5,0.1,1,9.7,0.510483,3.99626,0.51115,0.0526252,0.297104,-0.0161469,-0.0418238,-0.228956,0.0122637,0.00674667,0.0159254,5,0.1,2,9.7,-0.0325461,1.79298,0.602851,0.439251,0.261103,0.00170236,-0.0936093,-0.419319,0.0425987,0.00815895,0.496577,5,0.1,3,9.7,1.03281,-1.56986,0.543683,1.11759e-06,5.7742e-06,1.58325e-06,-2.98023e-05,-7.45058e-06,-2.6077e-05,0.0117405,7.7293e-10,5,0.1,4,9.7,3.67614,4.36168,0.597957,0.0044629,0.0108697,-0.00180528,-0.0317395,-0.0839531,0.0134781,0.0071032,0.000336939,5,0.1,5,9.7,-0.533965,0.741561,0.599868,0.0204597,0.414084,7.75792e-05,0.11,0.0103749,-6.33299e-05,0.0127645,0.324352,5,0.1,6,9.7,-0.300009,0.781676,0.6,5.72763e-06,0.295326,1.95578e-06,2.42144e-05,0.00313669,-1.86265e-05,0.0216811,0.0669503,5,0.1,7,9.7,3.33827,3.38813,0.53916,0.0120953,-0.0084471,-0.00135945,-0.00280142,-0.00305474,0.00141934,0.00763071,6.10384e-05,5,0.1,8,9.7,1.12917,2.67537,0.503799,0.0560327,-0.0967953,-0.00452036,-0.119351,0.212148,0.00963733,0.0130416,0.000769999,5,0.1,9,9.7,-1.72554,2.19026,0.5,-0.197575,0.307854,-4.65661e-07,0.115044,-0.209779,1.11759e-05,0.00681826,0.0785944,5,0.1
0,9.8,0.238528,2.17809,0.52807,-0.336143,-0.30126,-0.005503,0.271171,0.367761,-0.256807,0.0219937,3.25149,5,0.1,1,9.8,0.515525,4.02476,0.5096,0.0480831,0.272286,-0.0148147,-0.0495315,-0.271082,0.0145733,0.00619953,0.00869429,5,0.1,2,9.8,0.0107126,1.81685,0.603253,0.423765,0.215104,0.00644326,-0.222653,-0.488818,0.0492632,0.00760448,0.398152,5,0.1,3,9.8,1.03281,-1.56986,0.543683,0,2.98023e-06,0,0,5.96046e-05,-2.98023e-05,0.011288,8.98922e-10,5,0.1,4,9.8,3.67645,4.36239,0.597838,0.00172257,0.00365973,-0.00064671,-0.0230074,-0.0600815,0.00974536,0.0095696,0.000150605,5,0.1,5,9.8,-0.531386,0.782903,0.599875,0.0308394,0.411174,7.15256e-05,0.0935793,-0.0831783,-5.96046e-05,0.0138723,0.258068,5,0.1,6,9.8,-0.300008,0.811185,0.6,7.45058e-06,0.294068,0,2.98023e-05,-0.0428259,0,0.0189381,0.106734,5,0.1,7,9.8,3.33945,3.38728,0.539032,0.0113964,-0.00838637,-0.00118762,-0.010848,0.00417233,0.00196695,0.00637482,2.28545e-05,5,0.1,8,9.8,1.13419,2.66672,0.503394,0.0445575,-0.0764787,-0.00359416,-0.109971,0.193357,0.00888109,0.0100427,0.000684547,5,0.1,9,9.8,-1.7445,2.21993,0.5,-0.179678,0.284642,1.49012e-06,0.233948,-0.258446,-2.98023e-05,0.00651498,0.0907816,5,0.1
0,9.9,0.205314,2.14967,0.52636,-0.335995,-0.268316,-0.0274153,-0.201966,0.29707,-0.180893,0.0219937,3.25149,5,0.1,1,9.9,0.520088,4.05066,0.50819,0.0431986,0.245681,-0.013384,-0.0488944,-0.265837,0.0143051,0.00619953,0.00869429,5,0.1,2,9.9,0.0522153,1.83622,0.604136,0.408028,0.175121,0.0111004,-0.117649,-0.322439,0.0424385,0.00760448,0.398152,5,0.1,3,9.9,1.03281,-1.56986,0.543683,1.86265e-07,7.07805e-06,-2.51457e-06,7.45058e-06,1.49012e-05,-1.86265e-05,0.011288,8.98922e-10,5,0.1,4,9.9,3.67651,4.36248,0.597817,-0.000233948,-0.00141785,0.000177976,-0.0161827,-0.0416934,0.0067912,0.0095696,0.000150605,5,0.1,5,9.9,-0.527832,0.82368,0.599882,0.0401777,0.404657,6.66827e-05,0.0889115,-0.0658371,-4.47035e-05,0.0138723,0.258068,5,0.1,6,9.9,-0.300008,0.840469,0.6,1.0198e-05,0.292118,3.63216e-06,2.42144e-05,-0.0126213,6.33299e-05,0.0189381,0.106734,5,0.1,7,9.9,3.34053,3.38647,0.538923,0.0100512,-0.00772811,-0.000975095,-0.0155717,0.00865757,0.00222772,0.00637482,2.28545e-05,5,0.1,8,9.9,1.13811,2.66,0.503077,0.0341261,-0.0581987,-0.00275215,-0.098221,0.171512,0.00792369,0.0100427,0.000684547,5,0.1,9,9.9,-1.76116,2.24715,0.5,-0.152248,0.26019,0,0.306167,-0.237793,-7.45058e-06,0.00651498,0.0907816,5,0.1
0,10,0.170372,2.12424,0.522843,-0.364874,-0.240743,-0.0416547,-0.325217,0.25928,-0.104249,0.00901863,0.745087,5,0.1,1,10,0.52416,4.07387,0.506925,0.0381887,0.218368,-0.0119105,-0.0517368,-0.28348,0.0152886,0.00700332,0.00260091,5,0.1,2,10,0.0924316,1.85232,0.605438,0.395837,0.148493,0.014694,-0.144579,-0.219703,0.0285208,0.00861208,0.316936,5,0.1,3,10,1.03281,-1.56985,0.543683,0,8.9407e-06,-2.98023e-06,5.96046e-05,0,-5.96046e-05,0.0096941,1.04494e-09,5,0.1,4,10,3.67642,4.36216,0.597864,-0.0015378,-0.00474453,0.000719726,-0.0100136,-0.025034,0.00411272,0.00727418,5.13258e-05,5,0.1,5,10,-0.523406,0.86372,0.599888,0.0478968,0.394848,6.25849e-05,0.0624955,-0.1432,-5.96046e-05,0.0127427,0.20654,5,0.1,6,10,-0.300006,0.869558,0.600001,1.19209e-05,0.288747,1.19209e-05,1.49012e-05,-0.0662804,8.9407e-05,0.0182296,0.260913,5,0.1,7,10,3.34145,3.38575,0.538837,0.00836253,-0.00671148,-0.000751019,-0.0177622,0.0113249,0.00223517,0.00637998,1.9725e-05,5,0.1,8,10,1.14106,2.655,0.50284,0.0249863,-0.0422895,-0.00201464,-0.084281,0.146151,0.00679493,0.00987359,0.000541864,5,0.1,9,10,-1.77479,2.27197,0.5,-0.120002,0.235885,0,0.331759,-0.252962,0,0.00603442,0.190706,5,0.1
0,10.1,0.133445,2.10257,0.518316,-0.363085,-0.183526,-0.0474022,0.310347,0.816852,-0.0158735,0.00901863,0.745087,5,0.1,1,10.1,0.527722,4.0943,0.50581,0.0330779,0.19033,-0.0103966,-0.0506304,-0.278473,0.0150539,0.00700332,0.00260091,5,0.1,2,10.1,0.131345,1.86658,0.607002,0.382576,0.141112,0.0161434,-0.135357,0.0404641,0.00204891,0.00861208,0.316936,5,0.1,3,10.1,1.03281,-1.56985,0.543682,5.02914e-06,8.00937e-06,-7.35745e-06,3.72529e-05,-2.23517e-05,-3.35276e-05,0.0096941,1.04494e-09,5,0.1,4,10.1,3.67622,4.36158,0.597953,-0.00230148,-0.0066191,0.0010293,-0.00539422,-0.012815,0.00213832,0.00727418,5.13258e-05,5,0.1,5,10.1,-0.518317,0.902572,0.599894,0.0536775,0.382586,5.76489e-05,0.0501201,-0.118658,-4.84288e-05,0.0127427,0.20654,5,0.1,6,10.1,-0.300005,0.897772,0.600003,1.25729e-05,0.272536,3.29688e-05,0,-0.247084,0.000298023,0.0182296,0.260913,5,0.1,7,10.1,3.34219,3.38514,0.538773,0.00653416,-0.00550039,-0.000531133,-0.0184476,0.0126213,0.00212714,0.00637998,1.9725e-05,5,0.1,8,10.1,1.14316,2.65146,0.50267,0.0172067,-0.0288412,-0.00138748,-0.0710338,0.122398,0.00572205,0.00987359,0.000541864,5,0.1,9,10.1,-1.78513,2.29429,0.5,-0.0869377,0.210462,0,0.322573,-0.257045,0,0.00603442,0.190706,5,0.1
