id,t,px,py,pz,vx,vy,vz,ax,ay,az,planning_time,qp_cost,planning_report,size,id,t,px,py,pz,vx,vy,vz,ax,ay,az,planning_time,qp_cost,planning_report,size,id,t,px,py,pz,vx,vy,vz,ax,ay,az,planning_time,qp_cost,planning_report,size,id,t,px,py,pz,vx,vy,vz,ax,ay,az,planning_time,qp_cost,planning_report,size,id,t,px,py,pz,vx,vy,vz,ax,ay,az,planning_time,qp_cost,planning_report,size,id,t,px,py,pz,vx,vy,vz,ax,ay,az,planning_time,qp_cost,planning_report,size,id,t,px,py,pz,vx,vy,vz,ax,ay,az,planning_time,qp_cost,planning_report,size,id,t,px,py,pz,vx,vy,vz,ax,ay,az,planning_time,qp_cost,planning_report,size,id,t,px,py,pz,vx,vy,vz,ax,ay,az,planning_time,qp_cost,planning_report,size,id,t,px,py,pz,vx,vy,vz,ax,ay,az,planning_time,qp_cost,planning_report,size
0,0,-3.4145,2.95732,0.636223,0,0,0,0,0,0,0.011999,3.51219,5,0.1,1,0,-3.61326,-2.58303,0.668128,0,0,0,0,0,0,0.00772099,0.643874,5,0.1,2,0,-1.45237,1.29634,0.683948,0,0,0,0,0,0,0.00928078,2.27566,5,0.1,3,0,1.36348,-1.16728,0.63773,0,0,0,0,0,0,0.00784222,1.98511,5,0.1,4,0,-0.243617,-1.55102,0.587177,0,0,0,0,0,0,0.0058971,3.36251,5,0.1,5,0,-4.18461,-1.85602,0.545781,0,0,0,0,0,0,0.0180263,3.5122,5,0.1,6,0,0.151274,2.1572,0.573229,0,0,0,0,0,0,0.0128819,1.25583,5,0.1,7,0,-1.76897,-1.24923,0.565791,0,0,0,0,0,0,0.00986488,1.73255,5,0.1,8,0,1.24464,2.75251,0.653958,0,0,0,0,0,0,0.00915575,0.9481,5,0.1,9,0,3.4587,-1.07392,0.644064,0,0,0,0,0,0,0.0133423,3.5122,5,0.1
0,0.1,-3.41258,2.95815,0.636195,0.0543527,0.0236191,-0.000782777,0.966281,0.419915,-0.0139214,0.011999,3.51219,5,0.1,1,0.1,-3.61278,-2.58378,0.668057,0.0137284,-0.0212468,-0.00201873,0.244051,-0.377715,-0.0358894,0.00772099,0.643874,5,0.1,2,0.1,-1.45258,1.29467,0.684017,-0.00585634,-0.047306,0.00195745,-0.104122,-0.841007,0.0348017,0.00928078,2.27566,5,0.1,3,0.1,1.36205,-1.16794,0.63769,-0.0404058,-0.0187501,-0.00111824,-0.718318,-0.333339,-0.0198744,0.00784222,1.98511,5,0.1,4,0.1,-0.244199,-1.55298,0.587166,-0.0165433,-0.0555811,-0.000313111,-0.294103,-0.988103,-0.00556558,0.0058971,3.36251,5,0.1,5,0.1,-4.18402,-1.85402,0.545812,0.016772,0.0568386,0.000878982,0.298172,1.01046,0.0156313,0.0180263,3.5122,5,0.1,6,0.1,0.150803,2.15604,0.573257,-0.0133731,-0.0328109,0.000793301,-0.237744,-0.583291,0.0141039,0.0128819,1.25583,5,0.1,7,0.1,-1.76885,-1.24777,0.565826,0.00352543,0.0414653,0.00101384,0.0626668,0.737168,0.018023,0.00986488,1.73255,5,0.1,8,0.1,1.24377,2.75313,0.653803,-0.0248061,0.0177067,-0.00439994,-0.440992,0.314787,-0.0782236,0.00915575,0.9481,5,0.1,9,0.1,3.4587,-1.07183,0.644037,-0.000149012,0.0592638,-0.000751764,-0.0026226,1.05357,-0.0133663,0.0133423,3.5122,5,0.1
0,0.2,-3.40154,2.96295,0.636036,0.171787,0.0746489,-0.00247508,1.28829,0.559807,-0.018537,0.0147147,2.9258,5,0.1,1,0.2,-3.60999,-2.58809,0.667647,0.0433862,-0.0671506,-0.00638217,0.325441,-0.503659,-0.0478029,0.00685674,0.528265,5,0.1,2,0.2,-1.45377,1.28506,0.684414,-0.0185102,-0.149509,0.00618547,-0.138819,-1.12134,0.046432,0.00824647,1.86706,5,0.1,3,0.2,1.35385,-1.17175,0.637463,-0.1277,-0.0592589,-0.00353456,-0.957787,-0.444472,-0.0264645,0.00662386,1.62868,5,0.1,4,0.2,-0.24756,-1.56427,0.587102,-0.0522852,-0.175664,-0.000989437,-0.392132,-1.31744,-0.00742078,0.00983587,2.96261,5,0.1,5,0.2,-4.18061,-1.84247,0.545991,0.0530124,0.179639,0.00277758,0.397444,1.34724,0.0208616,0.0138288,2.9258,5,0.1,6,0.2,0.148087,2.14938,0.573418,-0.0422657,-0.1037,0.00250787,-0.316992,-0.777721,0.0188053,0.0118745,1.03035,5,0.1,7,0.2,-1.76813,-1.23935,0.566032,0.0111431,0.13105,0.00320375,0.0835657,0.982881,0.0240505,0.00921283,1.42147,5,0.1,8,0.2,1.23873,2.75673,0.652909,-0.078398,0.0559628,-0.0139073,-0.588,0.419855,-0.104249,0.0079433,0.777865,5,0.1,9,0.2,3.45867,-1.05979,0.643885,-0.000470877,0.187299,-0.00237525,-0.00345707,1.40482,-0.0178516,0.0186981,2.92579,5,0.1
0,0.3,-3.3772,2.97353,0.635686,0.319955,0.139033,-0.0046079,1.58334,0.688016,-0.0227951,0.0147147,2.9258,5,0.1,1,0.3,-3.60384,-2.5976,0.666743,0.0807174,-0.124925,-0.0118675,0.398219,-0.616297,-0.0585318,0.00685674,0.528265,5,0.1,2,0.3,-1.45639,1.26389,0.68529,-0.0344345,-0.278139,0.0115104,-0.169881,-1.37217,0.0567958,0.00824647,1.86706,5,0.1,3,0.3,1.33576,-1.18015,0.636963,-0.237568,-0.110244,-0.00657169,-1.17201,-0.54387,-0.0324063,0.00662386,1.62868,5,0.1,4,0.3,-0.254965,-1.58776,0.586962,-0.0972672,-0.287281,-0.00184076,-0.479847,-0.911199,-0.00907853,0.00983587,2.96261,5,0.1,5,0.3,-4.1731,-1.81702,0.546385,0.0987269,0.334586,0.00517573,0.48849,1.65576,0.0256225,0.0138288,2.9258,5,0.1,6,0.3,0.142101,2.13469,0.573774,-0.0786282,-0.192914,0.00466509,-0.387898,-0.951678,0.0230111,0.0118745,1.03035,5,0.1,7,0.3,-1.76655,-1.22079,0.566486,0.0207294,0.243797,0.00596195,0.102252,1.20272,0.0294149,0.00921283,1.42147,5,0.1,8,0.3,1.22763,2.76466,0.65094,-0.145848,0.10412,-0.0258676,-0.719517,0.513688,-0.127595,0.0079433,0.777865,5,0.1,9,0.3,3.4586,-1.03325,0.643548,-0.000870973,0.348863,-0.00442732,-0.00429153,1.72645,-0.0219196,0.0186981,2.92579,5,0.1
0,0.4,-3.33742,2.99081,0.635113,0.472504,0.205326,-0.00680536,1.39999,0.608325,-0.0201166,0.0127382,2.51009,5,0.1,1,0.4,-3.59382,-2.61312,0.665269,0.119042,-0.184238,-0.0174999,0.35131,-0.543714,-0.0516772,0.00759922,0.53124,5,0.1,2,0.4,-1.46066,1.22934,0.68672,-0.0507832,-0.410193,0.0169754,-0.149846,-1.21057,0.0501275,0.0100383,1.47724,5,0.1,3,0.4,1.30625,-1.19384,0.636146,-0.350359,-0.162584,-0.00969172,-1.03402,-0.479877,-0.0285804,0.00652855,1.28863,5,0.1,4,0.4,-0.267048,-1.62035,0.586733,-0.143448,-0.35758,-0.00271499,-0.423327,-0.495255,-0.00798702,0.00622647,2.78742,5,0.1,5,0.4,-4.16083,-1.77542,0.547028,0.145805,0.494117,0.0076443,0.431776,1.46395,0.0226498,0.0144816,2.51028,5,0.1,6,0.4,0.132333,2.11072,0.574353,-0.115959,-0.284505,0.00687987,-0.342213,-0.839591,0.0202954,0.0142863,0.815222,5,0.1,7,0.4,-1.76398,-1.1905,0.567227,0.0305712,0.359544,0.00879318,0.0902414,1.06114,0.025928,0.0167482,1.12468,5,0.1,8,0.4,1.20951,2.77759,0.647726,-0.215092,0.153553,-0.0381485,-0.634789,0.453234,-0.112563,0.00725047,0.615452,5,0.1,9,0.4,3.45849,-0.989875,0.642997,-0.00128746,0.515203,-0.00653714,-0.00369549,1.52647,-0.0194013,0.0148892,2.51564,5,0.1
0,0.5,-3.28297,3.01447,0.634329,0.616568,0.267926,-0.00887681,1.40719,0.611469,-0.0202432,0.0127382,2.51009,5,0.1,1,0.5,-3.57997,-2.63431,0.663256,0.159131,-0.239403,-0.022743,0.423118,-0.532523,-0.0506155,0.00759922,0.53124,5,0.1,2,0.5,-1.46651,1.18215,0.688673,-0.0659868,-0.533017,0.0220603,-0.146776,-1.18566,0.0490807,0.0100383,1.47724,5,0.1,3,0.5,1.26595,-1.21254,0.635032,-0.45527,-0.21127,-0.0125923,-1.01273,-0.469975,-0.028003,0.00652855,1.28863,5,0.1,4,0.5,-0.283548,-1.6575,0.586421,-0.186399,-0.375974,-0.00352589,-0.414621,0.0743866,-0.00782683,0.00622647,2.78742,5,0.1,5,0.5,-4.14403,-1.71852,0.547909,0.190243,0.643485,0.00997474,0.434101,1.44833,0.0227578,0.0144816,2.51028,5,0.1,6,0.5,0.118994,2.078,0.575144,-0.15068,-0.36969,0.00893921,-0.335172,-0.822335,0.0198781,0.0142863,0.815222,5,0.1,7,0.5,-1.76046,-1.14915,0.568238,0.0397265,0.467206,0.011424,0.0883788,1.0393,0.025399,0.0167482,1.12468,5,0.1,8,0.5,1.18477,2.79525,0.643338,-0.279498,0.199535,-0.0495699,-0.621721,0.443831,-0.110265,0.00725047,0.615452,5,0.1,9,0.5,3.45835,-0.930745,0.642244,-0.00167079,0.665419,-0.00853259,-0.00376999,1.40988,-0.0194833,0.0148892,2.51564,5,0.1
0,0.6,-3.21477,3.04411,0.633347,0.741291,0.322127,-0.0106722,1.03486,0.449538,-0.0148714,0.0134655,2.25593,5,0.1,1,0.6,-3.562,-2.66072,0.660748,0.198925,-0.286132,-0.0271857,0.352979,-0.383139,-0.0363886,0.00628691,0.402978,5,0.1,2,0.6,-1.47378,1.12337,0.691106,-0.0788659,-0.637063,0.0263661,-0.105619,-0.852942,0.0353158,0.00809183,1.09977,5,0.1,3,0.6,1.21574,-1.23584,0.633643,-0.54414,-0.252512,-0.0150502,-0.728548,-0.338078,-0.0201762,0.00820462,0.959345,5,0.1,4,0.6,-0.304105,-1.69414,0.586032,-0.222784,-0.351936,-0.00421405,-0.298277,0.367045,-0.00563264,0.00937386,2.58707,5,0.1,5,0.6,-4.12298,-1.64746,0.549012,0.228715,0.771037,0.0119925,0.319481,1.05029,0.0167191,0.0137397,2.29706,5,0.1,6,0.6,0.102377,2.03723,0.57613,-0.180093,-0.441855,0.0106841,-0.241112,-0.591516,0.0143051,0.0117151,0.606914,5,0.1,7,0.6,-1.75608,-1.09762,0.569498,0.0474811,0.558406,0.0136524,0.0635982,0.747681,0.0182688,0.00937108,0.837294,5,0.1,8,0.6,1.15394,2.81726,0.637871,-0.334057,0.238484,-0.059247,-0.447273,0.319242,-0.079304,0.0104987,0.458184,5,0.1,9,0.6,3.45816,-0.857796,0.6413,-0.00200868,0.785989,-0.010258,-0.00274181,0.957578,-0.0143349,0.0188331,2.33493,5,0.1
0,0.7,-3.13618,3.0786,0.632204,0.823072,0.367257,-0.0121662,0.589505,0.424564,-0.0140592,0.0134655,2.25593,5,0.1,1,0.7,-3.54031,-2.69121,0.65785,0.234782,-0.322913,-0.0306794,0.343159,-0.331447,-0.0314862,0.00628691,0.402978,5,0.1,2,0.7,-1.48219,1.05547,0.693916,-0.0890058,-0.718948,0.0297558,-0.0913739,-0.73795,0.0305437,0.00809183,1.09977,5,0.1,3,0.7,1.15774,-1.26276,0.632039,-0.614082,-0.284968,-0.016987,-0.630319,-0.292487,-0.0174604,0.00820462,0.959345,5,0.1,4,0.7,-0.327849,-1.72696,0.585583,-0.251419,-0.30134,-0.00475515,-0.258069,0.56652,-0.00488013,0.00937386,2.58707,5,0.1,5,0.7,-4.09849,-1.56614,0.550296,0.260781,0.845348,0.0136709,0.301659,0.449829,0.0157878,0.0137397,2.29706,5,0.1,6,0.7,0.0831829,1.99014,0.577269,-0.203241,-0.498644,0.0120574,-0.208609,-0.511803,0.0123791,0.0117151,0.606914,5,0.1,7,0.7,-1.75102,-1.03811,0.570953,0.0535857,0.630185,0.0154064,0.0550151,0.646867,0.0158064,0.00937108,0.837294,5,0.1,8,0.7,1.11834,2.84268,0.631557,-0.376997,0.269132,-0.0668614,-0.386983,0.276193,-0.068631,0.0104987,0.458184,5,0.1,9,0.7,3.45795,-0.77547,0.640202,-0.00228658,0.850538,-0.0116958,-0.0026226,0.360876,-0.0135116,0.0188331,2.33493,5,0.1
0,0.8,-3.0517,3.11722,0.630925,0.859046,0.402218,-0.0133246,0.139594,0.255108,-0.00846386,0.0113111,2.15576,5,0.1,1,0.8,-3.51527,-2.72493,0.654646,0.263983,-0.348902,-0.0331491,0.226259,-0.174046,-0.0165105,0.00737491,0.289588,5,0.1,2,0.8,-1.49148,0.980391,0.697024,-0.0961691,-0.776806,0.0321507,-0.0479817,-0.38749,0.0160038,0.0108958,0.776495,5,0.1,3,0.8,1.09361,-1.29251,0.630265,-0.663501,-0.3079,-0.0183567,-0.330925,-0.153601,-0.00914931,0.00876686,0.677343,5,0.1,4,0.8,-0.354105,-1.75442,0.585087,-0.271653,-0.250497,-0.00513643,-0.135511,0.41008,-0.0025928,0.00668358,2.35397,5,0.1,5,0.8,-4.07107,-1.4802,0.551734,0.285625,0.866026,0.0149712,0.181198,0,0.00947714,0.0141347,2.21027,5,0.1,6,0.8,0.0619581,1.93806,0.578528,-0.219596,-0.538769,0.0130266,-0.109544,-0.268817,0.00652671,0.0131686,0.428519,5,0.1,7,0.8,-1.74542,-0.972295,0.572562,0.0579,0.680901,0.0166461,0.0288486,0.339627,0.00828505,0.0137435,0.591169,5,0.1,8,0.8,1.07897,2.87078,0.624575,-0.407335,0.290781,-0.0722423,-0.203252,0.145078,-0.036031,0.0120117,0.323501,5,0.1,9,0.8,3.45771,-0.689339,0.638972,-0.0025034,0.866026,-0.012809,-0.00154972,0,-0.00807643,0.0146308,2.27179,5,0.1
0,0.9,-2.96536,3.15877,0.629549,0.865589,0.428602,-0.0142001,0.0174493,0.245407,-0.00815094,0.0113111,2.15576,5,0.1,1,0.9,-3.48776,-2.76065,0.651253,0.285718,-0.364672,-0.0346459,0.192001,-0.124648,-0.0118352,0.00737491,0.289588,5,0.1,2,0.9,-1.50133,0.900862,0.700315,-0.100517,-0.811919,0.0336007,-0.0343695,-0.277556,0.0114627,0.0108958,0.776495,5,0.1,3,0.9,1.02569,-1.32404,0.628385,-0.693488,-0.321818,-0.0191862,-0.237036,-0.110015,-0.00656396,0.00876686,0.677343,5,0.1,4,0.9,-0.381917,-1.77769,0.584561,-0.283932,-0.21998,-0.00537112,-0.0970662,0.111341,-0.00185519,0.00668358,2.35397,5,0.1,5,0.9,-4.04157,-1.39359,0.55328,0.304353,0.866026,0.0159511,0.174105,0,0.00911206,0.0141347,2.21027,5,0.1,6,0.9,0.039476,1.8829,0.579862,-0.229523,-0.563128,0.0136177,-0.0784668,-0.192545,0.00466779,0.0131686,0.428519,5,0.1,7,0.9,-1.7395,-0.902585,0.574266,0.060514,0.711676,0.0173971,0.020653,0.243269,0.00593811,0.0137435,0.591169,5,0.1,8,0.9,1.03727,2.90055,0.617178,-0.425752,0.303926,-0.075508,-0.145584,0.103921,-0.02582,0.0120117,0.323501,5,0.1,9,0.9,3.45745,-0.602737,0.637649,-0.00266582,0.866026,-0.0136426,-0.00151992,-3.72529e-06,-0.0077337,0.0146308,2.27179,5,0.1
0,1,-2.87877,3.20266,0.628094,0.866026,0.446713,-0.0148013,0,0.09799,-0.00327826,0.0111616,2.14025,5,0.1,1,1,-3.4584,-2.79755,0.647747,0.299621,-0.371057,-0.0352517,0.0749826,0.00798702,0.00077486,0.00668014,0.199629,5,0.1,2,1,-1.5115,0.818713,0.703715,-0.102279,-0.826135,0.0341862,0.00220537,0.0178516,-0.000745058,0.00659152,0.528046,5,0.1,3,1,0.955518,-1.3566,0.626444,-0.705628,-0.327453,-0.019522,0.0152886,0.00709295,0.000417233,0.00779842,0.460617,5,0.1,4,1,-0.410645,-1.8,0.584017,-0.288904,-0.234666,-0.00546724,0.00624359,-0.380397,0.000119209,0.00955029,2.00357,5,0.1,5,1,-4.0104,-1.30699,0.554914,0.317198,0.866026,0.0166222,0.0693798,-5.96046e-05,0.00363588,0.0138385,2.20376,5,0.1,6,1,0.0162529,1.82593,0.58124,-0.233542,-0.572994,0.0138581,0.00504375,0.0123978,-0.000298023,0.0113798,0.291408,5,0.1,7,1,-1.73337,-0.830578,0.576026,0.0615716,0.724135,0.0177011,-0.0013113,-0.015676,-0.00038743,0.0136978,0.402016,5,0.1,8,1,0.994189,2.9313,0.609538,-0.43321,0.309247,-0.0768319,0.00932813,-0.00679493,0.00166893,0.00929774,0.219989,5,0.1,9,1,3.45718,-0.516134,0.636253,-0.00278354,0.866026,-0.0142112,-0.000476837,0,-0.00301003,0.0176756,2.27178,5,0.1
0,1.1,-2.79217,3.24791,0.626595,0.866026,0.45861,-0.0151986,0,0.113264,-0.00377744,0.0111616,2.14025,5,0.1,1,1.1,-3.42808,-2.8346,0.644228,0.306264,-0.369431,-0.0350965,0.0447184,0.0380725,0.00362098,0.00668014,0.199629,5,0.1,2,1.1,-1.52171,0.736223,0.707128,-0.101831,-0.822513,0.0340356,0.0104979,0.0848211,-0.0035204,0.00659152,0.528046,5,0.1,3,1.1,0.885062,-1.38929,0.624495,-0.702531,-0.326015,-0.0194369,0.0724792,0.0336468,0.00199676,0.00779842,0.460617,5,0.1,4,1.1,-0.439492,-1.82644,0.583471,-0.287638,-0.302695,-0.00544321,0.0296626,-0.89135,0.000558794,0.00955029,2.00357,5,0.1,5,1.1,-3.97827,-1.22039,0.556597,0.325622,0.866025,0.0170638,0.0801682,1.49012e-05,0.0041984,0.0138385,2.20376,5,0.1,6,1.1,-0.00706616,1.76871,0.582623,-0.232518,-0.570481,0.0137973,0.023976,0.0588372,-0.00142679,0.0113798,0.291408,5,0.1,7,1.1,-1.72722,-0.758273,0.577794,0.0613032,0.720958,0.0176232,-0.00631064,-0.074368,-0.00181794,0.0136978,0.402016,5,0.1,8,1.1,0.950934,2.96218,0.601867,-0.431312,0.307881,-0.0764948,0.0444613,-0.0318438,0.00787899,0.00929774,0.219989,5,0.1,9,1.1,3.45689,-0.429531,0.634813,-0.00284761,0.866026,-0.014576,-0.000625849,-3.57628e-06,-0.00344589,0.0176756,2.27178,5,0.1
0,1.2,-2.70556,3.29419,0.625061,0.866026,0.464845,-0.0154078,0,-0.00715256,0.000208616,0.010102,2.02437,5,0.1,1,1.2,-3.39736,-2.87121,0.640749,0.306374,-0.361186,-0.0343129,-0.05126,0.13566,0.0128746,0.00817642,0.13395,5,0.1,2,1.2,-1.5318,0.654708,0.710501,-0.0995576,-0.804162,0.0332758,0.0373721,0.302106,-0.012517,0.0106896,0.351123,5,0.1,3,1.2,0.815437,-1.4216,0.622568,-0.686854,-0.318742,-0.0190049,0.258058,0.119805,0.00715256,0.00703241,0.306287,5,0.1,4,1.2,-0.467999,-1.86141,0.582932,-0.28122,-0.397339,-0.0053212,0.105634,-0.934303,0.00196695,0.00660544,1.59876,5,0.1,5,1.2,-3.94541,-1.13379,0.558319,0.330019,0.866026,0.0172943,-0.00524521,-5.96046e-05,-0.000298023,0.0176952,2.20241,5,0.1,6,1.2,-0.03011,1.71218,0.583991,-0.22733,-0.557753,0.0134885,0.085395,0.20957,-0.00506639,0.0169855,0.193772,5,0.1,7,1.2,-1.72115,-0.686823,0.57954,0.0599355,0.70487,0.0172302,-0.0225306,-0.264794,-0.00649691,0.0164509,2.51361,5,0.1,8,1.2,0.908188,2.99269,0.594286,-0.421689,0.301003,-0.0747874,0.158399,-0.11313,0.028044,0.00593261,0.14628,5,0.1,9,1.2,3.45661,-0.342929,0.633344,-0.00288486,0.866025,-0.0147581,0.000119209,1.43051e-05,0.00038743,0.0145393,2.27178,5,0.1
0,1.3,-2.61896,3.34074,0.623518,0.866026,0.466778,-0.0154742,0,0.0205487,-0.00070408,0.010102,2.02437,5,0.1,1,1.3,-3.36698,-2.90667,0.637381,0.301006,-0.347774,-0.0330402,-0.0668317,0.143796,0.013642,0.00817642,0.13395,5,0.1,2,1.3,-1.54158,0.575769,0.713768,-0.0958623,-0.774297,0.0320385,0.0396147,0.32017,-0.0132658,0.0106896,0.351123,5,0.1,3,1.3,0.748014,-1.45289,0.620703,-0.661344,-0.306899,-0.0182983,0.273481,0.126943,0.00757724,0.00703241,0.306287,5,0.1,4,1.3,-0.495604,-1.90619,0.582409,-0.270777,-0.500081,-0.00512619,0.111954,-1.05295,0.00210106,0.00660544,1.59876,5,0.1,5,1.3,-3.91235,-1.04718,0.560052,0.331758,0.866025,0.0173838,0.0212342,1.11759e-05,0.00109896,0.0176952,2.20241,5,0.1,6,1.3,-0.0524254,1.65743,0.585315,-0.218889,-0.537037,0.0129877,0.0905041,0.222072,-0.00537187,0.0169855,0.193772,5,0.1,7,1.3,-1.71538,-0.61682,0.581474,0.054343,0.701703,0.0234826,-0.0837147,0.128429,0.115693,0.0164509,2.51361,5,0.1,8,1.3,0.866794,3.02224,0.586944,-0.40603,0.28982,-0.0720147,0.167891,-0.11988,0.0297353,0.00593261,0.14628,5,0.1,9,1.3,3.45632,-0.256326,0.631866,-0.00289418,0.866025,-0.0148163,-0.000163913,0,-0.000726432,0.0145393,2.27178,5,0.1
0,1.4,-2.53236,3.3874,0.621971,0.866026,0.46466,-0.0154063,0,-0.0804663,0.00265241,0.0115949,1.54883,5,0.1,1,1.4,-3.33731,-2.94064,0.634153,0.291216,-0.330567,-0.0314057,-0.135899,0.20802,0.0196993,0.00608332,0.174983,5,0.1,2,1.4,-1.55094,0.500136,0.716897,-0.0911206,-0.735976,0.030452,0.0573397,0.4628,-0.0191629,0.00727227,0.266224,5,0.1,3,1.4,0.683414,-1.48287,0.618916,-0.628613,-0.291705,-0.0173926,0.395328,0.183403,0.0109375,0.00811694,0.492442,5,0.1,4,1.4,-0.522053,-1.9612,0.581908,-0.257376,-0.5963,-0.00487417,0.161797,-0.822723,0.00306964,0.00952341,1.21632,5,0.1,5,1.4,-3.87915,-0.960582,0.561791,0.331068,0.866026,0.0173464,-0.0481606,0,-0.0025332,0.0129174,2.20396,5,0.1,6,1.4,-0.0738064,1.60497,0.586584,-0.208056,-0.510457,0.0123441,0.130829,0.321031,-0.0077486,0.0117568,0.127547,5,0.1,7,1.4,-1.71043,-0.545851,0.584495,0.0442147,0.717826,0.0375554,-0.114262,0.139757,0.153512,0.010887,2.79823,5,0.1,8,1.4,0.827133,3.05055,0.57991,-0.385934,0.275475,-0.068453,0.242651,-0.17333,0.0429749,0.00793566,0.096284,5,0.1,9,1.4,3.45603,-0.169724,0.630384,-0.00288486,0.866025,-0.0147626,0.000357628,0,0.00238419,0.0185258,2.27178,5,0.1
0,1.5,-2.44576,3.43353,0.620441,0.865801,0.458081,-0.0151895,-0.0089854,-0.0713915,0.00235438,0.0115949,1.54883,5,0.1,1,1.5,-3.30903,-2.9727,0.631108,0.27279,-0.310727,-0.0295262,-0.229776,0.198171,0.0187866,0.00608332,0.174983,5,0.1,2,1.5,-1.55993,0.428763,0.71985,-0.0900967,-0.691831,0.0286242,-0.0243858,0.441006,-0.0182539,0.00727227,0.266224,5,0.1,3,1.5,0.62214,-1.51116,0.617229,-0.599795,-0.27421,-0.0163496,0.218641,0.174783,0.0104234,0.00811694,0.492442,5,0.1,4,1.5,-0.547013,-2.02499,0.581436,-0.241942,-0.678803,-0.00458118,0.154193,-0.775136,0.00292808,0.00952341,1.21632,5,0.1,5,1.5,-3.84617,-0.873979,0.563519,0.329053,0.866026,0.0172401,-0.0107884,-3.72529e-06,-0.000573695,0.0129174,2.20396,5,0.1,6,1.5,-0.0939831,1.55546,0.587781,-0.195576,-0.479836,0.0116046,0.124668,0.305898,-0.0073947,0.0117568,0.127547,5,0.1,7,1.5,-1.70643,-0.474372,0.588861,0.0371829,0.702562,0.0482854,-0.0343174,-0.412878,0.0648201,0.010887,2.79823,5,0.1,8,1.5,0.789706,3.07726,0.573271,-0.362787,0.258943,-0.0643528,0.231244,-0.16512,0.040967,0.00793566,0.096284,5,0.1,9,1.5,3.45574,-0.0831213,0.628915,-0.00287257,0.866025,-0.0146439,7.45058e-05,1.49012e-07,0.000804663,0.0185258,2.27178,5,0.1
0,1.6,-2.3593,3.47886,0.618938,0.862437,0.446957,-0.0148207,-0.0718832,-0.164747,0.00545382,0.0093521,1.15196,5,0.1,1,1.6,-3.28304,-3.00273,0.628253,0.245863,-0.289363,-0.0275001,-0.305653,0.235438,0.0223517,0.015451,0.156371,5,0.1,2,1.6,-1.56912,0.361888,0.722617,-0.0938118,-0.644283,0.0266567,-0.0404716,0.524,-0.0216961,0.0102695,0.182569,5,0.1,3,1.6,0.563215,-1.53767,0.615649,-0.578387,-0.255364,-0.0152275,0.236779,0.207663,0.0124276,0.00686832,0.359047,5,0.1,4,1.6,-0.5704,-2.09632,0.580993,-0.225316,-0.742495,-0.0042662,0.183254,-0.462651,0.00348687,0.00655117,0.878155,5,0.1,5,1.6,-3.81338,-0.787377,0.565237,0.325727,0.866026,0.0170663,-0.0686646,0,-0.00360608,0.0152642,2.20687,5,0.1,6,1.6,-0.112888,1.50908,0.588902,-0.182135,-0.446856,0.0108078,0.148129,0.36341,-0.00879169,0.0149361,0.158701,5,0.1,7,1.6,-1.7028,-0.406871,0.593893,0.0359297,0.641267,0.0512362,0.00303984,-0.785009,-0.00244379,0.0121318,3.17275,5,0.1,8,1.6,0.754637,3.10229,0.56705,-0.337856,0.241143,-0.059934,0.274807,-0.196218,0.0487268,0.00651834,0.108196,5,0.1,9,1.6,3.45545,0.00348123,0.627458,-0.0028491,0.866025,-0.0144646,0.000596046,-1.19209e-06,0.00339746,0.0147582,2.27179,5,0.1
0,1.7,-2.27312,3.52279,0.617481,0.862813,0.431808,-0.0143191,0.0290126,-0.154763,0.005126,0.0093521,1.15196,5,0.1,1,1.7,-3.26014,-3.03055,0.62561,0.210716,-0.267293,-0.0254046,-0.387654,0.213847,0.0203103,0.015451,0.156371,5,0.1,2,1.7,-1.57874,0.300107,0.725194,-0.0988832,-0.590842,0.0250421,-0.0534132,0.552824,-0.0122525,0.0102695,0.182569,5,0.1,3,1.7,0.506338,-1.56221,0.614185,-0.560608,-0.235896,-0.0140632,0.148693,0.188671,0.0112727,0.00686832,0.359047,5,0.1,4,1.7,-0.592059,-2.17284,0.580583,-0.208137,-0.786458,-0.00393949,0.166483,-0.375465,0.00315905,0.00655117,0.878155,5,0.1,5,1.7,-3.78104,-0.700774,0.566932,0.321953,0.866026,0.0168679,-0.0252575,-3.72529e-06,-0.0013262,0.0152642,2.20687,5,0.1,6,1.7,-0.130485,1.46626,0.589947,-0.170771,-0.409019,0.0101331,0.0898209,0.397421,-0.00533834,0.0149361,0.158701,5,0.1,7,1.7,-1.69911,-0.347399,0.598935,0.0384903,0.542434,0.0489666,0.0415519,-1.13079,-0.0405274,0.0121318,3.17275,5,0.1,8,1.7,0.721996,3.12559,0.56126,-0.316773,0.22609,-0.0561956,0.166651,-0.118971,0.029549,0.00651834,0.108196,5,0.1,9,1.7,3.45517,0.0900838,0.626023,-0.0028152,0.866025,-0.0142576,0.00025332,7.45058e-07,0.00154227,0.0147582,2.27179,5,0.1
0,1.8,-2.18686,3.56511,0.616078,0.859678,0.413233,-0.0137031,-0.126958,-0.227928,0.00753999,0.0101411,0.826129,5,0.1,1,1.8,-3.24108,-3.05619,0.623172,0.170094,-0.245261,-0.0233114,-0.416994,0.2321,0.0220537,0.00722642,0.173064,5,0.1,2,1.8,-1.58887,0.243886,0.727641,-0.103205,-0.532465,0.0239179,-0.027597,0.619247,-0.0114739,0.0065871,0.146581,5,0.1,3,1.8,0.451075,-1.58484,0.612836,-0.543538,-0.216457,-0.0129029,0.213966,0.204861,0.012219,0.00734195,0.255869,5,0.1,4,1.8,-0.612027,-2.25295,0.580205,-0.190985,-0.810707,-0.00361353,0.180781,-0.0817776,0.00342727,0.0110756,0.608288,5,0.1,5,1.8,-3.74902,-0.614172,0.568609,0.317532,0.866026,0.0166357,-0.0760555,0,-0.00396371,0.0125803,2.21027,5,0.1,6,1.8,-0.147138,1.42743,0.590935,-0.162324,-0.366765,0.00963062,0.0869259,0.449538,-0.0051558,0.012095,0.143185,5,0.1,7,1.8,-1.69504,-0.298975,0.603583,0.0430763,0.425499,0.0435829,0.0451803,-1.16484,-0.0650883,0.00970276,3.47121,5,0.1,8,1.8,0.691106,3.14764,0.55578,-0.3011,0.214905,-0.0534177,0.16129,-0.115156,0.02864,0.0083061,0.0624045,5,0.1,9,1.8,3.45489,0.176686,0.624607,-0.00277758,0.866025,-0.0140205,0.000834465,0,0.00375509,0.0157593,2.27362,5,0.1
0,1.9,-2.10136,3.60535,0.614744,0.851034,0.39201,-0.0130007,-0.087142,-0.210136,0.00695884,0.0101411,0.826129,5,0.1,1,1.9,-3.22614,-3.07983,0.620926,0.128862,-0.229746,-0.0218371,-0.402004,0.099048,0.00941753,0.00722642,0.173064,5,0.1,2,1.9,-1.59932,0.193895,0.730024,-0.105583,-0.465956,0.0241329,-0.0155717,0.703284,0.0121035,0.0065871,0.146581,5,0.1,3,1.9,0.397651,-1.60552,0.611603,-0.52572,-0.197477,-0.0117713,0.166405,0.180624,0.0107624,0.00734195,0.255869,5,0.1,4,1.9,-0.630271,-2.3344,0.57986,-0.174237,-0.817197,-0.00329614,0.159379,-0.0149012,0.00301749,0.0110756,0.608288,5,0.1,5,1.9,-3.71752,-0.527569,0.570259,0.313121,0.866026,0.0164063,-0.0302196,-3.57628e-06,-0.00156835,0.0125803,2.21027,5,0.1,6,1.9,-0.162985,1.39322,0.591875,-0.154921,-0.315409,0.00919122,0.0681132,0.563934,-0.00404567,0.012095,0.143185,5,0.1,7,1.9,-1.6905,-0.262078,0.607459,0.0476021,0.315026,0.032623,0.0420511,-1.0123,-0.143964,0.00970276,3.47121,5,0.1,8,1.9,0.661712,3.16862,0.550565,-0.287365,0.2051,-0.0509787,0.12638,-0.0902116,0.0224411,0.0083061,0.0624045,5,0.1,9,1.9,3.45451,0.263289,0.623224,-0.00583977,0.866025,-0.0136411,-0.0550151,-8.9407e-07,0.00429899,0.0157593,2.27362,5,0.1
0,2,-2.0169,3.64344,0.61348,0.835282,0.368923,-0.0122353,-0.256538,-0.26083,0.00864267,0.00951983,0.576406,5,0.1,1,2,-3.2152,-3.10239,0.618781,0.0906587,-0.221837,-0.0210851,-0.357747,0.0747442,0.00709295,0.00710314,0.26556,5,0.1,2,2,-1.6099,0.150901,0.732512,-0.10559,-0.393269,0.0256956,0.0184178,0.743493,0.0163615,0.0084923,0.261838,5,0.1,3,2,0.345994,-1.62437,0.61048,-0.506184,-0.179335,-0.0106901,0.241071,0.186205,0.0110865,0.0110004,0.224996,5,0.1,4,2,-0.646898,-2.41586,0.579545,-0.158229,-0.808179,-0.00299215,0.16433,0.217199,0.00309944,0.00639381,0.409916,5,0.1,5,2,-3.68641,-0.440967,0.57189,0.3084,0.866025,0.0161603,-0.07689,1.43051e-05,-0.00399351,0.0133935,2.21375,5,0.1,6,2,-0.178121,1.3646,0.592773,-0.147514,-0.256455,0.00875145,0.0849292,0.603974,-0.00503659,0.0126099,0.326554,5,0.1,7,2,-1.68556,-0.235189,0.60994,0.0509292,0.227607,0.0165999,0.0222325,-0.722699,-0.168592,0.0124287,3.66716,5,0.1,8,2,0.633636,3.18866,0.545584,-0.273621,0.195289,-0.048539,0.157565,-0.112295,0.0279546,0.00913863,0.047701,5,0.1,9,2,3.4536,0.349891,0.621885,-0.012517,0.866025,-0.0130847,-0.0731945,1.43051e-05,0.00715256,0.0143345,2.27209,5,0.1
0,2.1,-1.93453,3.6791,0.612298,0.81247,0.344692,-0.0114323,-0.233017,-0.235066,0.00778958,0.00951983,0.576406,5,0.1,1,2.1,-3.20782,-3.12421,0.616707,0.0579856,-0.214502,-0.0203889,-0.293016,0.079304,0.00753254,0.00710314,0.26556,5,0.1,2,2.1,-1.62052,0.115318,0.735272,-0.10783,-0.318335,0.0303787,-0.0501722,0.746628,0.0688769,0.0084923,0.261838,5,0.1,3,2.1,0.296476,-1.64158,0.609463,-0.484722,-0.166684,-0.00967234,0.207637,0.0816658,0.00956655,0.0110004,0.224996,5,0.1,4,2.1,-0.661948,-2.49562,0.579261,-0.143142,-0.786472,-0.00270735,0.141792,0.244126,0.00267476,0.00639381,0.409916,5,0.1,5,2.1,-3.65583,-0.354364,0.573492,0.303883,0.866025,0.0159263,-0.031054,-1.78814e-06,-0.0016056,0.0133935,2.21375,5,0.1,6,2.1,-0.192465,1.34205,0.593624,-0.139434,-0.194067,0.0082721,0.0811173,0.62377,-0.0048168,0.0126099,0.326554,5,0.1,7,2.1,-1.68025,-0.215492,0.61052,0.056049,0.171269,-0.00687111,0.0708625,-0.425792,-0.281401,0.0124287,3.66716,5,0.1,8,2.1,0.606955,3.2077,0.540851,-0.260718,0.186094,-0.04625,0.113975,-0.0812113,0.0202209,0.00913863,0.047701,5,0.1,9,2.1,3.45194,0.436494,0.620609,-0.0211582,0.866025,-0.0124515,-0.0938177,-3.57628e-06,0.00601634,0.0143345,2.27209,5,0.1
0,2.2,-1.85463,3.71236,0.611194,0.783068,0.320005,-0.0106141,-0.377715,-0.266433,0.00885129,0.0127589,0.39421,5,0.1,1,2.2,-3.20337,-3.14521,0.614711,0.032419,-0.20476,-0.0194624,-0.216961,0.12064,0.0114441,0.00965802,0.252691,5,0.1,2,2.2,-1.63158,0.0871631,0.738684,-0.113353,-0.245477,0.0379905,-0.0504851,0.703752,0.0769794,0.00632735,0.342259,5,0.1,3,2.2,0.249116,-1.65791,0.608543,-0.461363,-0.160405,-0.00872761,0.272975,0.0551343,0.00959635,0.00758408,0.158941,5,0.1,4,2.2,-0.675562,-2.57282,0.579003,-0.129126,-0.754839,-0.0024423,0.141561,0.406504,0.00265241,0.00654328,0.27211,5,0.1,5,2.2,-3.62564,-0.267761,0.575074,0.299186,0.866025,0.015682,-0.0753403,0,-0.00393391,0.0154746,2.15103,5,0.1,6,2.2,-0.205979,1.32567,0.594426,-0.130545,-0.135028,0.00774413,0.0996441,0.543892,-0.00593066,0.0108451,0.308738,5,0.1,7,2.2,-1.67427,-0.200151,0.608372,0.063476,0.138527,-0.0362575,0.0706315,-0.246547,-0.291526,0.00517436,0.461633,5,0.1,8,2.2,0.581471,3.22589,0.536331,-0.248538,0.177413,-0.0440881,0.139087,-0.0993013,0.0246465,0.00679538,0.0213596,5,0.1,9,2.2,3.44936,0.523096,0.619396,-0.0302672,0.866026,-0.0117958,-0.0839233,0,0.00745058,0.0157146,2.27077,5,0.1
0,2.3,-1.7781,3.74311,0.610175,0.748167,0.295387,-0.00979621,-0.347584,-0.235364,0.00781566,0.0127589,0.39421,5,0.1,1,2.3,-3.20114,-3.16508,0.612822,0.0130534,-0.192576,-0.018306,-0.164837,0.127569,0.0121184,0.00965802,0.252691,5,0.1,2,2.3,-1.64311,0.0658975,0.742918,-0.116584,-0.182136,0.0470075,-0.0112057,0.565647,0.0960715,0.00632735,0.342259,5,0.1,3,2.3,0.204252,-1.67379,0.607715,-0.436445,-0.157863,-0.00785356,0.241365,0.00730902,0.00813231,0.00758408,0.158941,5,0.1,4,2.3,-0.687811,-2.64635,0.578771,-0.116223,-0.715897,-0.00220025,0.120163,0.394896,0.00226125,0.00654328,0.27211,5,0.1,5,2.3,-3.59599,-0.181159,0.576629,0.294555,0.866025,0.0154404,-0.0339597,5.96046e-07,-0.00177324,0.0154746,2.15103,5,0.1,6,2.3,-0.218545,1.31478,0.595171,-0.120789,-0.0845257,0.00716383,0.0982769,0.441134,-0.00584498,0.0108451,0.308738,5,0.1,7,2.3,-1.66787,-0.188432,0.603208,0.0619223,0.0883556,-0.0674255,-0.0874326,-0.697665,-0.316292,0.00517436,0.461633,5,0.1,8,2.3,0.557298,3.24315,0.532042,-0.2349,0.167678,-0.041671,0.140693,-0.100434,0.0249408,0.00679538,0.0213596,5,0.1,9,2.3,3.44589,0.609699,0.618249,-0.039129,0.866026,-0.0111688,-0.0882745,-3.72529e-06,0.00561029,0.0157146,2.27077,5,0.1
0,2.4,-1.70515,3.77146,0.609235,0.70897,0.271332,-0.00899732,-0.455022,-0.251889,0.00837445,0.0120398,0.266266,5,0.1,1,2.4,-3.20053,-3.18366,0.611056,0.000238419,-0.178498,-0.0169694,-0.0891685,0.15676,0.014931,0.0109586,0.620783,5,0.1,2,2.4,-1.65474,0.0503015,0.748082,-0.11515,-0.131821,0.0559509,0.0415444,0.443336,0.0775754,0.00641422,0.191551,5,0.1,3,2.4,0.161868,-1.68954,0.60697,-0.410396,-0.156942,-0.00705868,0.290602,0.0196099,0.00798702,0.00853028,0.110778,5,0.1,4,2.4,-0.698844,-2.71583,0.578562,-0.104465,-0.67209,-0.00197887,0.1176,0.496268,0.00220537,0.00801984,0.179651,5,0.1,5,2.4,-3.56675,-0.0945564,0.578162,0.289553,0.866026,0.0151783,-0.0779629,-5.96046e-06,-0.00408292,0.015154,1.68677,5,0.1,6,2.4,-0.230116,1.30821,0.595857,-0.11043,-0.0502557,0.00654757,0.110723,0.234663,-0.00655651,0.0105489,0.26935,5,0.1,7,2.4,-1.66228,-0.183427,0.594948,0.0485688,0.00951812,-0.0968382,-0.168025,-0.833064,-0.260681,0.00578447,0.303428,5,0.1,8,2.4,0.53456,3.25938,0.528009,-0.219241,0.156498,-0.0388935,0.177026,-0.126362,0.0313818,0.00802623,0.0127541,5,0.1,9,2.4,3.44156,0.696302,0.61716,-0.0470638,0.866026,-0.0105858,-0.0668764,0,0.0064671,0.0172501,2.26972,5,0.1
0,2.5,-1.6364,3.79741,0.608374,0.666741,0.248189,-0.00822805,-0.412099,-0.218883,0.00727177,0.0120398,0.266266,5,0.1,1,2.5,-3.20096,-3.2007,0.609437,-0.00814237,-0.161993,-0.0153978,-0.0549406,0.173986,0.0165589,0.0109586,0.620783,5,0.1,2,2.5,-1.66589,0.0386451,0.753917,-0.106497,-0.107307,0.0593813,0.12514,0.0825465,-0.00418723,0.00641422,0.191551,5,0.1,3,2.5,0.122192,-1.70519,0.606301,-0.383689,-0.156401,-0.00633588,0.256713,0.000357628,0.00667945,0.00853028,0.110778,5,0.1,4,2.5,-0.708742,-2.78067,0.578375,-0.0938095,-0.625404,-0.00177883,0.0985786,0.456393,0.00185519,0.00801984,0.179651,5,0.1,5,2.5,-3.53811,-0.00795512,0.579663,0.283383,0.865964,0.0148549,-0.0587553,-0.00247523,-0.00308827,0.015154,1.68677,5,0.1,6,2.5,-0.240617,1.30406,0.59648,-0.0996421,-0.0365319,0.00590859,0.10678,0.0117943,-0.00632182,0.0105489,0.26935,5,0.1,7,2.5,-1.65825,-0.186773,0.584002,0.032346,-0.0768891,-0.121441,-0.154331,-0.861449,-0.221945,0.00578447,0.303428,5,0.1,8,2.5,0.513501,3.27441,0.524273,-0.201982,0.14418,-0.0358337,0.173619,-0.123933,0.0307895,0.00802623,0.0127541,5,0.1,9,2.5,3.43651,0.782904,0.61613,-0.0539359,0.866026,-0.0100653,-0.066027,-3.72529e-06,0.00445917,0.0172501,2.26972,5,0.1
0,2.6,-1.57186,3.82113,0.607588,0.622755,0.226218,-0.00749826,-0.483036,-0.225902,0.00748038,0.0120175,0.304072,5,0.1,1,2.6,-3.20185,-3.216,0.607983,-0.00751019,-0.143629,-0.013651,0.0761747,0.193357,0.018388,0.00635643,2.64081,5,0.1,2,2.6,-1.67582,0.0279733,0.759732,-0.0912994,-0.10895,0.056006,0.17345,-0.0873822,-0.0592172,0.00753147,0.243102,5,0.1,3,2.6,0.0851385,-1.7208,0.6057,-0.356825,-0.155309,-0.00568628,0.289665,0.0280142,0.0064373,0.00902084,0.139304,5,0.1,4,2.6,-0.717641,-2.84087,0.578206,-0.0842229,-0.577641,-0.0015974,0.0953674,0.511765,0.00178814,0.00920677,0.118729,5,0.1,5,2.6,-3.51013,0.0786091,0.58113,0.27554,0.865035,0.0144437,-0.107288,-0.0198007,-0.00563264,0.0108202,1.28606,5,0.1,6,2.6,-0.250042,1.3,0.597039,-0.0887878,-0.0490367,0.00526458,0.111401,-0.245273,-0.00658631,0.0112385,0.208994,5,0.1,7,2.6,-1.65575,-0.198588,0.570875,0.0180542,-0.156981,-0.139658,-0.129879,-0.71612,-0.136107,0.00671999,0.265607,5,0.1,8,2.6,0.494201,3.28819,0.520849,-0.183637,0.131088,-0.0325799,0.196606,-0.140429,0.0348687,0.0090624,0.00401086,5,0.1,9,2.6,3.43082,0.869507,0.615146,-0.0594914,0.866026,-0.00960529,-0.0419617,0,0.0051558,0.0168181,2.26904,5,0.1
0,2.7,-1.51171,3.8427,0.606873,0.582513,0.205574,-0.00681467,-0.350453,-0.193566,0.0064075,0.0120175,0.304072,5,0.1,1,2.7,-3.20229,-3.22941,0.606708,0.00175945,-0.124785,-0.011859,0.2435,0.184447,0.0175349,0.00635643,2.64081,5,0.1,2,2.7,-1.68404,0.0163059,0.76496,-0.0726972,-0.127025,0.0479205,0.193715,-0.245732,-0.0981092,0.00753147,0.243102,5,0.1,3,2.7,0.0506272,-1.7361,0.605159,-0.335581,-0.149777,-0.00518523,0.158304,0.0823736,0.00394136,0.00902084,0.139304,5,0.1,4,2.7,-0.72562,-2.89621,0.578055,-0.0756234,-0.530076,-0.00143591,0.0791848,0.455454,0.00149012,0.00920677,0.118729,5,0.1,5,2.7,-3.48306,0.165103,0.582548,0.265989,0.865174,0.0139422,-0.094533,0.000587255,-0.00496581,0.0108202,1.28606,5,0.1,6,2.7,-0.258379,1.29359,0.597533,-0.0780703,-0.0811921,0.00463035,0.104062,-0.370599,-0.00616163,0.0112385,0.208994,5,0.1,7,2.7,-1.65446,-0.217716,0.556528,0.0089068,-0.223569,-0.144505,-0.0582039,-0.596879,0.0302382,0.00671999,0.265607,5,0.1,8,2.7,0.476821,3.30059,0.517765,-0.163922,0.117009,-0.029083,0.199484,-0.142425,0.0353903,0.0090624,0.00401086,5,0.1,9,2.7,3.42465,0.956109,0.614206,-0.063872,0.866026,-0.00920966,-0.0413805,0,0.00326335,0.0168181,2.26904,5,0.1
0,2.8,-1.45518,3.8623,0.606223,0.547743,0.186378,-0.00617951,-0.365615,-0.194788,0.0064671,0.0106091,0.216667,5,0.1,1,2.8,-3.2,-3.24097,0.605609,0.053066,-0.106591,-0.0101283,0.766993,0.179768,0.0170767,0.00688346,3.22251,5,0.1,2,2.8,-1.69034,0.00230551,0.769228,-0.0534147,-0.153123,0.0371724,0.188172,-0.25488,-0.113308,0.00829632,0.204009,5,0.1,3,2.8,0.0177991,-1.75058,0.604658,-0.321158,-0.138944,-0.00483692,0.147109,0.133276,0.00327826,0.0110461,0.100067,5,0.1,4,2.8,-0.732796,-2.94693,0.577918,-0.0679463,-0.483859,-0.00129044,0.0762343,0.479698,0.00143051,0.00663068,0.135636,5,0.1,5,2.8,-3.45699,0.251507,0.583915,0.254816,0.86131,0.0133559,-0.136375,-0.09431,-0.00715256,0.0115149,1.02205,5,0.1,6,2.8,-0.265671,1.2836,0.597966,-0.0677936,-0.118396,0.00402182,0.102192,-0.353158,-0.00604987,0.0115754,0.192911,5,0.1,7,2.8,-1.65377,-0.242734,0.542442,0.00547767,-0.273259,-0.135297,-0.0145435,-0.384673,0.146002,0.00878163,0.269941,5,0.1,8,2.8,0.461442,3.31157,0.515036,-0.14348,0.102413,-0.0254557,0.210136,-0.149965,0.0372529,0.00935356,0.0012293,5,0.1,9,2.8,3.41809,1.04271,0.613302,-0.0670433,0.866026,-0.00886619,-0.0189543,0,0.00399351,0.01682,2.15955,5,0.1
0,2.9,-1.40204,3.88002,0.605636,0.516476,0.168664,-0.00559147,-0.282831,-0.16503,0.00547618,0.0106091,0.216667,5,0.1,1,2.9,-3.18941,-3.25087,0.604674,0.170113,-0.0925422,-0.0086383,1.45733,0.108629,0.0130795,0.00688346,3.22251,5,0.1,2,2.9,-1.69477,-0.0143533,0.772363,-0.0356948,-0.180296,0.0254597,0.163712,-0.269988,-0.117999,0.00829632,0.204009,5,0.1,3,2.9,-0.0136869,-1.76368,0.604189,-0.309228,-0.122189,-0.00456898,0.106634,0.195913,0.00231341,0.0110461,0.100067,5,0.1,4,2.9,-0.739271,-2.99328,0.577795,-0.0620604,-0.446146,-0.00117961,0.0457875,0.302568,0.000864267,0.00663068,0.135636,5,0.1,5,2.9,-3.43198,0.337427,0.585217,0.246738,0.858468,0.012699,-0.0438988,-0.0104982,-0.00644475,0.0115149,1.02205,5,0.1,6,2.9,-0.271957,1.27036,0.598339,-0.0580958,-0.142748,0.00344738,0.0925008,-0.141554,-0.00548363,0.0115754,0.192911,5,0.1,7,2.9,-1.6532,-0.271844,0.529792,0.00693277,-0.307169,-0.116414,0.0373721,-0.279548,0.223059,0.00878163,0.269941,5,0.1,8,2.9,0.448137,3.32107,0.512676,-0.122693,0.0875775,-0.0217697,0.205597,-0.146702,0.0364631,0.00935356,0.0012293,5,0.1,9,2.9,3.41128,1.12931,0.612432,-0.0691611,0.866026,-0.00856696,-0.0194758,0,0.00245497,0.01682,2.15955,5,0.1
0,3,-1.35183,3.89608,0.605103,0.487226,0.152433,-0.00505298,-0.318408,-0.163436,0.00542402,0.0088121,0.152104,5,0.1,1,3,-3.16477,-3.25965,0.603871,0.323987,-0.0835478,-0.0074476,1.53172,0.0770092,0.0109971,0.00732103,2.72954,5,0.1,2,3,-1.69758,-0.0336326,0.774332,-0.0210643,-0.203944,0.014089,0.127494,-0.189789,-0.107199,0.0102079,0.173062,5,0.1,3,3,-0.0440421,-1.77486,0.603743,-0.297253,-0.100848,-0.00433326,0.143515,0.225902,0.0025332,0.00849763,0.210094,5,0.1,4,3,-0.745269,-3.03649,0.577681,-0.058037,-0.418478,-0.00110269,0.0379384,0.271201,0.000715256,0.00620714,0.0784367,5,0.1,5,3,-3.4075,0.423038,0.586453,0.242794,0.851045,0.011988,-0.0487566,-0.171676,-0.00807643,0.0105942,0.734596,5,0.1,6,3,-0.277315,1.25568,0.598657,-0.0491701,-0.14821,0.00291765,0.0864863,0.025034,-0.005126,0.0123597,0.1843,5,0.1,7,3,-1.65227,-0.303692,0.519334,0.0118375,-0.326896,-0.0922352,0.0558496,-0.10623,0.253558,0.00964396,0.286594,5,0.1,8,3,0.436887,3.3291,0.51068,-0.10239,0.0730872,-0.0181675,0.200182,-0.142813,0.0354946,0.00844323,0.000699298,5,0.1,9,3,3.40429,1.21592,0.611588,-0.0702679,0.866026,-0.00829399,0,0,0.00330806,0.0157598,1.70991,5,0.1
0,3.1,-1.30455,3.91056,0.604623,0.459195,0.137633,-0.0045619,-0.261009,-0.137165,0.00454858,0.0088121,0.152104,5,0.1,1,3.1,-3.12422,-3.26771,0.603175,0.489505,-0.0783335,-0.00652783,1.68815,0.0338405,0.0077635,0.00732103,2.72954,5,0.1,2,3.1,-1.69912,-0.0549379,0.775218,-0.0103913,-0.221482,0.00382569,0.0860691,-0.149319,-0.0962019,0.0102079,0.173062,5,0.1,3,3.1,-0.0730826,-1.7838,0.603322,-0.283636,-0.0778029,-0.00410145,0.138489,0.230543,0.0022538,0.00849763,0.210094,5,0.1,4,3.1,-0.75091,-3.07714,0.577574,-0.0549669,-0.395573,-0.00104439,0.0263266,0.205368,0.000499189,0.00620714,0.0784367,5,0.1,5,3.1,-3.38336,0.507437,0.587614,0.240645,0.837484,0.011242,-0.0089705,-0.13796,-0.00722706,0.0105942,0.734596,5,0.1,6,3.1,-0.28186,1.24126,0.598924,-0.0422335,-0.137723,0.00243736,0.0553839,0.171967,-0.00451133,0.0123597,0.1843,5,0.1,7,3.1,-1.65077,-0.336886,0.511384,0.0186671,-0.336348,-0.0668557,0.0756383,-0.0680145,0.24841,0.00964396,0.286594,5,0.1,8,3.1,0.427627,3.33571,0.509037,-0.0830332,0.0592764,-0.0147346,0.186324,-0.132933,0.0330508,0.00844323,0.000699298,5,0.1,9,3.1,3.39726,1.30252,0.610773,-0.0703495,0.866021,-0.00802241,0.00150502,-0.000186265,0.0025034,0.0157598,1.70991,5,0.1
0,3.2,-1.25997,3.92365,0.60419,0.431833,0.124216,-0.00411719,-0.299335,-0.134587,0.00447035,0.00945556,1.0503,5,0.1,1,3.2,-3.06718,-3.2754,0.602558,0.646025,-0.0756323,-0.0058338,1.37651,0.0252724,0.0064373,0.00844242,2.4077,5,0.1,2,3.2,-1.69979,-0.077688,0.77515,-0.00374019,-0.231872,-0.0048399,0.0478029,-0.0507942,-0.0757873,0.00772009,0.222765,5,0.1,3,3.2,-0.100698,-1.79045,0.602924,-0.267941,-0.0555187,-0.00385791,0.181898,0.211954,0.00274181,0.00634265,0.195349,5,0.1,4,3.2,-0.756275,-3.11565,0.577472,-0.0522807,-0.374252,-0.000992417,0.0294447,0.234246,0.000566244,0.00751113,0.0609016,5,0.1,5,3.2,-3.35938,0.590295,0.588701,0.238484,0.816964,0.0104785,-0.0450611,-0.298947,-0.00834465,0.0131456,0.513658,5,0.1,6,3.2,-0.285836,1.2285,0.599146,-0.0375383,-0.116137,0.00201166,0.0409335,0.249445,-0.00408292,0.0131207,0.269391,5,0.1,7,3.2,-1.64852,-0.3707,0.505894,0.0260741,-0.338046,-0.0434995,0.0687838,0.043869,0.214875,0.0086397,4.324,5,0.1,8,3.2,0.420228,3.34099,0.507724,-0.0652418,0.046581,-0.0115782,0.168994,-0.120521,0.0300109,0.007703,0.000624576,5,0.1,9,3.2,3.39025,1.38912,0.609984,-0.0694335,0.865951,-0.00773072,0.0187159,-0.00143051,0.00360608,0.0199647,1.52156,5,0.1
0,3.3,-1.21791,3.93544,0.603799,0.412262,0.112072,-0.00371393,-0.123709,-0.112116,0.00372529,0.00945556,1.0503,5,0.1,1,3.3,-2.99623,-3.28289,0.602002,0.766809,-0.0746984,-0.00532838,1.00274,-0.000670552,0.00401214,0.00844242,2.4077,5,0.1,2,3.3,-1.69998,-0.101142,0.774298,-0.000538863,-0.237022,-0.0120373,0.0180081,-0.0399654,-0.0662543,0.00772009,0.222765,5,0.1,3,3.3,-0.126595,-1.795,0.602551,-0.249984,-0.0360446,-0.00359295,0.18328,0.175871,0.00265613,0.00634265,0.195349,5,0.1,4,3.3,-0.761381,-3.15207,0.577375,-0.0500348,-0.355311,-0.000948552,0.0184216,0.163674,0.000361353,0.00751113,0.0609016,5,0.1,5,3.3,-3.3357,0.670618,0.589709,0.235384,0.789911,0.00970941,-0.0286996,-0.273291,-0.00736117,0.0131456,0.513658,5,0.1,6,3.3,-0.289378,1.21825,0.599328,-0.0332259,-0.0880925,0.00163903,0.0451226,0.296213,-0.00340864,0.0131207,0.269391,5,0.1,7,3.3,-1.64549,-0.403013,0.502536,0.03522,-0.297248,-0.0245427,0.105783,0.704031,0.162687,0.0086397,4.324,5,0.1,8,3.3,0.414518,3.34507,0.50671,-0.049301,0.0352107,-0.00874754,0.149203,-0.106454,0.0264943,0.007703,0.000624576,5,0.1,9,3.3,3.3834,1.4747,0.609227,-0.0676654,0.836408,-0.0074124,0.0192225,-0.559166,0.00306964,0.0199647,1.52156,5,0.1
0,3.4,-1.17723,3.9461,0.603445,0.401598,0.101137,-0.00335127,-0.112951,-0.109196,0.00360608,0.0100432,1.01967,5,0.1,1,3.4,-2.91537,-3.29037,0.601488,0.841653,-0.0747442,-0.00497103,0.481606,0.00417233,0.00342727,0.00876413,2.29135,5,0.1,2,3.4,-1.69998,-0.124945,0.772792,0.000309944,-0.237823,-0.0177771,0.00160933,0.0321567,-0.0472069,0.00861591,0.331837,5,0.1,3,3.4,-0.150635,-1.79779,0.602206,-0.230291,-0.0205874,-0.00330955,0.214458,0.132501,0.00301003,0.00867832,0.308482,5,0.1,4,3.4,-0.766291,-3.18677,0.577282,-0.048092,-0.33825,-0.000911951,0.0225008,0.190854,0.000476837,0.00966176,0.0276131,5,0.1,5,3.4,-3.31236,0.748077,0.590643,0.230753,0.757061,0.00895411,-0.0718832,-0.405043,-0.00798702,0.0141499,0.355799,5,0.1,6,3.4,-0.29247,1.2109,0.599476,-0.0285566,-0.0594378,0.00132471,0.0480413,0.266731,-0.00292063,0.0117274,0.256155,5,0.1,7,3.4,-1.64143,-0.428593,0.5008,0.0457734,-0.209479,-0.0111163,0.0990033,0.997052,0.105828,0.00924004,3.86512,5,0.1,8,3.4,0.410296,3.34808,0.505961,-0.0354998,0.0253618,-0.00629723,0.126421,-0.0901222,0.022471,0.00932582,0.00048061,5,0.1,9,3.4,3.37675,1.55484,0.608503,-0.0651658,0.759852,-0.00706613,0.0325441,-0.945032,0.00405312,0.0195401,1.43317,5,0.1
0,3.5,-1.13806,3.95571,0.603127,0.377763,0.0913098,-0.0030268,-0.349201,-0.0905097,0.00298768,0.0100432,1.01967,5,0.1,1,3.5,-2.82972,-3.29787,0.601004,0.864429,-0.0754468,-0.00473289,0.0623912,-0.0127256,0.00167266,0.00876413,2.29135,5,0.1,2,3.5,-1.69993,-0.148472,0.770807,0.000691786,-0.2317,-0.0216343,0.00502169,0.0928938,-0.0295751,0.00861591,0.331837,5,0.1,3,3.5,-0.172732,-1.79921,0.601935,-0.212735,-0.00818279,-0.00173021,0.14812,0.109889,0.025779,0.00867832,0.308482,5,0.1,4,3.5,-0.770992,-3.21967,0.577193,-0.0459222,-0.319794,-0.000866596,0.0224635,0.188366,0.000465661,0.00966176,0.0276131,5,0.1,5,3.5,-3.28979,0.82188,0.591501,0.21919,0.719565,0.00822078,-0.157073,-0.370473,-0.00694394,0.0141499,0.355799,5,0.1,6,3.5,-0.295083,1.2063,0.599594,-0.0236899,-0.0331968,0.0010591,0.0488013,0.2314,-0.00241399,0.0117274,0.256155,5,0.1,7,3.5,-1.63598,-0.444247,0.500127,0.066277,-0.101605,-0.00320096,0.282377,1.11899,0.0553429,0.00924004,3.86512,5,0.1,8,3.5,0.407344,3.35019,0.505438,-0.0238965,0.0170868,-0.00423547,0.105305,-0.0751168,0.0187084,0.00932582,0.00048061,5,0.1,9,3.5,3.37038,1.62538,0.607815,-0.0620946,0.645335,-0.00669733,0.0309944,-1.28964,0.00356883,0.0195401,1.43317,5,0.1
0,3.6,-1.10232,3.9644,0.602839,0.334498,0.0824869,-0.00273436,-0.503182,-0.0880957,0.00289083,0.0104108,0.731801,5,0.1,1,3.6,-2.74315,-3.30546,0.600538,0.866026,-0.0763357,-0.00457913,0,-0.0013113,0.00160933,0.00732196,2.26781,5,0.1,2,3.6,-1.69984,-0.171061,0.768527,0.00115037,-0.218882,-0.0236467,0.00345707,0.164472,-0.0105798,0.0133902,0.303449,5,0.1,3,3.6,-0.193297,-1.79955,0.601909,-0.198685,0.000527501,0.00134856,0.141241,0.0613332,0.0335872,0.00984552,0.288809,5,0.1,4,3.6,-0.775461,-3.25065,0.577109,-0.0433385,-0.298899,-0.000815094,0.0302792,0.236034,0.000596046,0.00971475,0.0107034,5,0.1,5,3.6,-3.26878,0.891871,0.592288,0.199836,0.678663,0.00751913,-0.227571,-0.465065,-0.00724196,0.00932681,0.252365,5,0.1,6,3.6,-0.29721,1.20392,0.599689,-0.018885,-0.0169277,0.000837445,0.0468642,0.0830293,-0.00199676,0.013509,0.219512,5,0.1,7,3.6,-1.62783,-0.448893,0.50002,0.0971913,0.00708103,0.000494719,0.314116,1.02378,0.0211,0.00790556,0.593771,5,0.1,8,3.6,0.405444,3.35155,0.505101,-0.0144847,0.0103712,-0.002563,0.0828356,-0.0591278,0.0146925,0.0119505,0.000281751,5,0.1,9,3.6,3.36434,1.68327,0.607164,-0.0586152,0.511551,-0.00630915,0.0400543,-1.3454,0.00435114,0.0590696,1.37423,5,0.1
0,3.7,-1.07161,3.97224,0.602579,0.277904,0.0745736,-0.00247424,-0.611529,-0.0728071,0.00239536,0.0104108,0.731801,5,0.1,1,3.7,-2.65655,-3.31314,0.600085,0.866026,-0.0773583,-0.0044967,0,-0.013873,0.000353903,0.00732196,2.26781,5,0.1,2,3.7,-1.69965,-0.192059,0.766132,0.00305623,-0.200415,-0.0240139,0.0264794,0.204319,0.00303611,0.0133902,0.303449,5,0.1,3,3.7,-0.212548,-1.79921,0.602228,-0.186968,0.00576023,0.00513848,0.10229,0.0296012,0.0401139,0.00984552,0.288809,5,0.1,4,3.7,-0.779642,-3.27935,0.577031,-0.0402287,-0.274962,-0.000754558,0.032641,0.247344,0.000625849,0.00971475,0.0107034,5,0.1,5,3.7,-3.25008,0.957544,0.593006,0.172849,0.635549,0.00685705,-0.303879,-0.418421,-0.00621751,0.00932681,0.252365,5,0.1,6,3.7,-0.298869,1.20244,0.599763,-0.0143724,-0.0156857,0.000656582,0.0430476,-0.0911504,-0.00163168,0.013509,0.219512,5,0.1,7,3.7,-1.61681,-0.444549,0.500138,0.120837,0.0665737,0.00154851,0.161804,0.228452,0.00180677,0.00790556,0.593771,5,0.1,8,3.7,0.404379,3.35232,0.504913,-0.00713831,0.00512563,-0.00126017,0.0640564,-0.0457615,0.0113584,0.0119505,0.000281751,5,0.1,9,3.7,3.35867,1.72768,0.606553,-0.0548664,0.378023,-0.00590952,0.0366718,-1.26648,0.00384822,0.0590696,1.37423,5,0.1
0,3.8,-1.04694,3.97934,0.602343,0.21525,0.0674725,-0.00223964,-0.628054,-0.0710487,0.00232458,0.0151516,0.725819,5,0.1,1,3.8,-2.56995,-3.32093,0.599638,0.866026,-0.0782132,-0.00445396,0,0.000476837,0.000745058,0.0258662,2.26772,5,0.1,2,3.8,-1.69922,-0.211018,0.763767,0.00513196,-0.178176,-0.0230864,0.0100732,0.239432,0.0151992,0.0123305,3.66189,5,0.1,3,3.8,-0.230736,-1.79862,0.602939,-0.176651,0.00460446,0.00900626,0.110626,-0.0573993,0.0357032,0.00660907,0.261359,5,0.1,4,3.8,-0.783493,-3.30556,0.576959,-0.0366971,-0.248706,-0.000686944,0.0384748,0.28038,0.000715256,0.00645306,0.00557526,5,0.1,5,3.8,-3.23438,1.01894,0.593661,0.140572,0.591409,0.00623614,-0.334859,-0.478983,-0.00631809,0.0100142,0.145072,5,0.1,6,3.8,-0.3001,1.2,0.599821,-0.010334,-0.0369012,0.00050813,0.0374764,-0.317633,-0.0013113,0.0147335,0.156785,5,0.1,7,3.8,-1.60414,-0.437637,0.500282,0.1302,0.0640832,0.00118166,0.0290275,-0.227526,-0.0077188,0.00768252,0.447047,5,0.1,8,3.8,0.403954,3.35262,0.504838,-0.0016652,0.00121593,-0.000289083,0.045523,-0.0326633,0.00804663,0.0104991,0.00012457,5,0.1,9,3.8,3.35337,1.75964,0.605982,-0.0509858,0.266951,-0.00550598,0.0422001,-0.926614,0.00438094,0.0174404,1.2779,5,0.1
0,3.9,-1.02857,3.98576,0.60213,0.152575,0.0610985,-0.00203075,-0.606798,-0.0586212,0.00192598,0.0151516,0.725819,5,0.1,1,3.9,-2.48334,-3.32878,0.599194,0.866026,-0.0789627,-0.00444157,0,-0.010401,-0.00019744,0.0258662,2.26772,5,0.1,2,3.9,-1.69828,-0.228344,0.761445,0.0153441,-0.174287,-0.0240955,0.115424,-0.117539,-0.0293665,0.0123305,3.66189,5,0.1,3,3.9,-0.247907,-1.79854,0.60402,-0.167172,-0.00466257,0.0126041,0.086369,-0.150293,0.0346601,0.00660907,0.261359,5,0.1,4,3.9,-0.786973,-3.32905,0.576893,-0.0329065,-0.221253,-0.000616442,0.0378899,0.272185,0.00070408,0.00645306,0.00557526,5,0.1,5,3.9,-3.222,1.07583,0.594255,0.107165,0.547173,0.00566076,-0.328109,-0.423409,-0.00537187,0.0100142,0.145072,5,0.1,6,3.9,-0.300955,1.19432,0.599866,-0.00685668,-0.0797866,0.000390131,0.0318885,-0.502057,-0.00105426,0.0147335,0.156785,5,0.1,7,3.9,-1.591,-0.432889,0.500361,0.132325,0.0266043,0.000397023,0.00870973,-0.484426,-0.00765547,0.00768252,0.447047,5,0.1,8,3.9,0.40399,3.3526,0.504845,0.00215829,-0.00152849,0.000386778,0.0311378,-0.0223666,0.00550225,0.0104991,0.00012457,5,0.1,9,3.9,3.34847,1.78227,0.605452,-0.0470705,0.192933,-0.00510337,0.0375807,-0.498168,0.00384077,0.0174404,1.2779,5,0.1
0,4,-1.01618,3.99158,0.601936,0.0969201,0.0553727,-0.00184178,-0.494599,-0.0573397,0.00190735,0.0089049,0.706751,5,0.1,1,4,-2.39674,-3.33671,0.598749,0.866026,-0.0794291,-0.00444055,0,0.00464916,0.000417233,0.00642011,2.26771,5,0.1,2,4,-1.69648,-0.24665,0.758856,0.0166804,-0.19386,-0.0278965,-0.125468,-0.239812,-0.0419617,0.00986616,3.38527,5,0.1,3,4,-0.264183,-1.8,0.605442,-0.158113,-0.0267059,0.0156671,0.100017,-0.280857,0.025481,0.00841317,0.222193,5,0.1,4,4,-0.790071,-3.34981,0.576835,-0.0290334,-0.193727,-0.000543892,0.0398755,0.280261,0.000745058,0.0103969,0.00169395,5,0.1,5,4,-3.21288,1.1284,0.594794,0.075835,0.50374,0.00512898,-0.294685,-0.457406,-0.00533462,0.00975284,0.21846,5,0.1,6,4,-0.301492,1.18378,0.5999,-0.00398457,-0.130686,0.000296533,0.0254363,-0.487626,-0.00089407,0.0129744,0.0958778,5,0.1,7,4,-1.57779,-0.432819,0.500365,0.131163,-0.0261411,-0.000296533,-0.0349879,-0.541538,-0.00596046,0.00745155,0.397778,5,0.1,8,4,0.40434,3.35235,0.504907,0.00460595,-0.00328422,0.000819564,0.0180751,-0.013113,0.00318885,0.0108118,4.16284e-05,5,0.1,9,4,3.34396,1.8,0.604961,-0.0432193,0.170389,-0.00471026,0.0402927,0.022471,0.00420213,0.0201614,1.0922,5,0.1
0,4.1,-1.00882,3.99685,0.601761,0.0523444,0.0502307,-0.00167061,-0.372201,-0.0473112,0.00157952,0.0089049,0.706751,5,0.1,1,4.1,-2.31014,-3.34466,0.598305,0.866026,-0.0797354,-0.00445116,0,-0.00587106,-0.000342727,0.00642011,2.26771,5,0.1,2,4.1,-1.69583,-0.267788,0.755733,-0.00965651,-0.233131,-0.0355472,-0.472836,-0.495727,-0.100847,0.00986616,3.38527,5,0.1,3,4.1,-0.279538,-1.80437,0.607133,-0.14927,-0.0629291,0.0181027,0.0828747,-0.41534,0.0220016,0.00841317,0.222193,5,0.1,4,4.1,-0.792777,-3.3678,0.576785,-0.0250995,-0.166255,-0.000470504,0.0389144,0.269875,0.000730157,0.0103969,0.00169395,5,0.1,5,4.1,-3.20669,1.17662,0.595282,0.0488553,0.461708,0.00464469,-0.242695,-0.397995,-0.00450015,0.00975284,0.21846,5,0.1,6,4.1,-0.301772,1.16826,0.599926,-0.00171186,-0.179435,0.00021765,0.0199601,-0.465035,-0.000689179,0.0129744,0.0958778,5,0.1,7,4.1,-1.56474,-0.43817,0.500312,0.130573,-0.0806679,-0.000705756,0.012219,-0.529435,-0.00242889,0.00745155,0.397778,5,0.1,8,4.1,0.404874,3.35197,0.505002,0.00592414,-0.00424162,0.00105202,0.00859052,-0.00625849,0.00151247,0.0108118,4.16284e-05,5,0.1,9,4.1,3.33983,1.81814,0.60451,-0.0395074,0.200419,-0.00432562,0.0351667,0.50848,0.00363588,0.0201614,1.0922,5,0.1
0,4.2,-1.0051,4.00164,0.601602,0.0258029,0.0455976,-0.00151545,-0.150263,-0.0464916,0.00154972,0.00743054,0.911431,5,0.1,1,4.2,-2.22354,-3.35265,0.597859,0.866026,-0.0797629,-0.00445843,0,0.00882149,0.000417233,0.00764587,2.26776,5,0.1,2,4.2,-1.7,-0.293664,0.751646,-0.0815809,-0.284275,-0.0462726,-0.931084,-0.489742,-0.105977,0.0130625,2.96033,5,0.1,3,4.2,-0.294038,-1.81277,0.609039,-0.140514,-0.104824,0.0198603,0.0964403,-0.401318,0.0123382,0.00676744,0.177211,5,0.1,4,4.2,-0.795094,-3.38309,0.576741,-0.0212386,-0.13966,-0.000399351,0.0384152,0.262022,0.000745058,0.0071797,0.0007845,5,0.1,5,4.2,-3.20292,1.2208,0.595725,0.0276089,0.421634,0.00420064,-0.181079,-0.413656,-0.00444055,0.00966943,0.312503,5,0.1,6,4.2,-0.301853,1.14818,0.599944,1.49012e-06,-0.219929,0.000156462,0.0142902,-0.329435,-0.000506639,0.0146297,0.127569,5,0.1,7,4.2,-1.55162,-0.448732,0.500234,0.131708,-0.128686,-0.000821054,0.002563,-0.417098,-5.96046e-05,0.00648119,0.375848,5,0.1,8,4.2,0.405496,3.35152,0.505113,0.00638366,-0.00457764,0.00113249,0.00089407,-0.000715256,0.000149012,0.00929295,1.27829e-05,5,0.1,9,4.2,3.33605,1.84105,0.604095,-0.0359774,0.259778,-0.00395924,0.036478,0.625491,0.00378489,0.0190479,0.881708,5,0.1
0,4.3,-1.00301,4.00599,0.601457,0.0200141,0.0414267,-0.00137622,0.0846088,-0.038445,0.00127777,0.00743054,0.911431,5,0.1,1,4.3,-2.13693,-3.36061,0.597413,0.866026,-0.079656,-0.00446448,0,-0.00189245,-0.000257045,0.00764587,2.26776,5,0.1,2,4.3,-1.71385,-0.324742,0.746443,-0.203311,-0.338287,-0.0580229,-1.40645,-0.55152,-0.121102,0.0130625,2.96033,5,0.1,3,4.3,-0.307644,-1.82534,0.611084,-0.131821,-0.146783,0.0209776,0.0823699,-0.416458,0.00903383,0.00676744,0.177211,5,0.1,4,4.3,-0.797029,-3.39577,0.576705,-0.0175139,-0.114375,-0.000327639,0.0360087,0.243247,0.000685453,0.0071797,0.0007845,5,0.1,5,4.3,-3.201,1.26103,0.596124,0.0114806,0.383816,0.00379868,-0.13724,-0.355065,-0.00372529,0.00966943,0.312503,5,0.1,6,4.3,-0.301789,1.12447,0.599958,0.00119461,-0.254251,0.000111945,0.0096336,-0.333801,-0.00038743,0.0146297,0.127569,5,0.1,7,4.3,-1.53827,-0.463549,0.500154,0.136595,-0.166051,-0.000743382,0.0790879,-0.320869,0.00143796,0.00648119,0.375848,5,0.1,8,4.3,0.406129,3.35107,0.505225,0.0062,-0.00445098,0.00109905,-0.00425428,0.00301003,-0.000763685,0.00929295,1.27829e-05,5,0.1,9,4.3,3.33262,1.87053,0.603717,-0.0326402,0.332119,-0.003614,0.0312924,0.768445,0.00324473,0.0190479,0.881708,5,0.1
0,4.4,-1,4.00994,0.601326,0.0458777,0.0376701,-0.00125021,0.414133,-0.038147,0.0012517,0.00864654,1.05807,5,0.1,1,4.4,-2.05033,-3.36857,0.596966,0.866026,-0.0793099,-0.00446141,-5.96046e-05,0.0119209,0.000506639,0.00916575,2.26787,5,0.1,2,4.4,-1.74134,-0.361167,0.740064,-0.345862,-0.387884,-0.0691265,-1.37156,-0.412479,-0.095278,0.00770954,2.37359,5,0.1,3,4.4,-0.320404,-1.84198,0.613215,-0.123203,-0.184441,0.0215054,0.0933856,-0.321507,0.000834465,0.0065163,0.229906,5,0.1,4,4.4,-0.798605,-3.40603,0.576675,-0.0140503,-0.0910938,-0.00026077,0.0331998,0.221968,0.000596046,0.00736298,0.000636559,5,0.1,5,4.4,-3.20044,1.29765,0.596486,0.000762939,0.348517,0.00343323,-0.0754595,-0.359535,-0.00366569,0.0142909,1.93923,5,0.1,6,4.4,-0.301629,1.09752,0.599967,0.00194311,-0.282747,7.89762e-05,0.00540912,-0.219822,-0.000298023,0.01216,0.201214,5,0.1,7,4.4,-1.52419,-0.481538,0.500088,0.144735,-0.191353,-0.000563264,0.071764,-0.179455,0.00202656,0.00938812,3.95123,5,0.1,8,4.4,0.406722,3.35064,0.50533,0.00559166,-0.00401735,0.000990927,-0.00762939,0.00536442,-0.0013411,0.0122596,7.68944e-06,5,0.1,9,4.4,3.32951,1.90746,0.603372,-0.029546,0.404322,-0.00329018,0.0314713,0.637054,0.00327826,0.0149832,0.158174,5,0.1
0,4.5,-0.99251,4.01353,0.601207,0.110515,0.0342481,-0.0011377,0.811711,-0.0315011,0.00104308,0.00864654,1.05807,5,0.1,1,4.5,-1.96373,-3.37647,0.596521,0.866025,-0.0788987,-0.00445619,1.49012e-05,0.00101328,-0.00013411,0.00916575,2.26787,5,0.1,2,4.5,-1.78307,-0.402055,0.732667,-0.489762,-0.429456,-0.0787275,-1.43266,-0.38857,-0.0905916,0.00770954,2.37359,5,0.1,3,4.5,-0.332359,-1.86231,0.615384,-0.116686,-0.224105,0.0219601,0.0454951,-0.436634,0.00648573,0.0065163,0.229906,5,0.1,4,4.5,-0.79985,-3.41407,0.576652,-0.0109014,-0.0701252,-0.00020396,0.0296794,0.1968,0.000536442,0.00736298,0.000636559,5,0.1,5,4.5,-3.20093,1.33082,0.596812,-0.0111986,0.315802,0.00310242,-0.110194,-0.305094,-0.00305474,0.0142909,1.93923,5,0.1,6,4.5,-0.301412,1.06793,0.599974,0.00233846,-0.310495,5.3551e-05,0.002563,-0.30303,-0.000212342,0.01216,0.201214,5,0.1,7,4.5,-1.50979,-0.499077,0.500042,0.139493,-0.138175,-0.000361446,-0.157423,1.09882,0.00194088,0.00938812,3.95123,5,0.1,8,4.5,0.407239,3.35027,0.505422,0.00471962,-0.00340007,0.000837259,-0.00954233,0.00680983,-0.00168383,0.0122596,7.68944e-06,5,0.1,9,4.5,3.32669,1.95073,0.603057,-0.0270881,0.457215,-0.00303844,0.0194609,0.407018,0.00196323,0.0149832,0.158174,5,0.1
0,4.6,-0.977198,4.0168,0.601098,0.196442,0.0311613,-0.00103563,0.855953,-0.0314713,0.00104308,0.010742,1.13178,5,0.1,1,4.6,-1.87713,-3.38434,0.596076,0.866026,-0.0783026,-0.00444055,-5.96046e-05,0.0140667,0.000655651,0.00737965,2.26801,5,0.1,2,4.6,-1.83881,-0.4467,0.724391,-0.619733,-0.460459,-0.0862017,-1.11401,-0.210524,-0.0546873,0.00790897,1.79093,5,0.1,3,4.6,-0.343821,-1.88686,0.617609,-0.112623,-0.265682,0.0224978,0.0420511,-0.369132,0.00295043,0.00731539,0.146827,5,0.1,4,4.6,-0.800798,-3.42014,0.576634,-0.00813156,-0.0518382,-0.000153482,0.0256598,0.168681,0.000476837,0.0116323,0.000502019,5,0.1,5,4.6,-3.20234,1.3609,0.597107,-0.0135303,0.285736,0.0028044,0.0876188,-0.303447,-0.00301003,0.00859611,1.7967,5,0.1,6,4.6,-0.30117,1.03544,0.599978,0.00246987,-0.337824,3.57628e-05,0.000149012,-0.220358,-0.000149012,0.0113511,0.123335,5,0.1,7,4.6,-1.49688,-0.506272,0.500015,0.116739,0.00265241,-0.000186265,-0.28193,1.60432,0.00149012,0.0100741,3.18546,5,0.1,8,4.6,0.407662,3.34996,0.505497,0.00373051,-0.00269413,0.000661612,-0.0100285,0.00727177,-0.00175834,0.0120595,7.34026e-06,5,0.1,9,4.6,3.32407,1.99802,0.602762,-0.0253439,0.483602,-0.00286102,0.0168085,0.113368,0.00169873,0.0173901,0.530213,5,0.1
0,4.7,-0.952854,4.01977,0.600999,0.293098,0.0283398,-0.000941753,1.01672,-0.0259578,0.000864267,0.010742,1.13178,5,0.1,1,4.7,-1.79052,-3.39213,0.595633,0.866025,-0.077679,-0.00441978,1.49012e-05,0.00301003,2.6077e-05,0.00737965,2.26801,5,0.1,2,4.7,-1.90633,-0.493786,0.715501,-0.728793,-0.480529,-0.0914194,-1.01032,-0.16683,-0.0448227,0.00790897,1.79093,5,0.1,3,4.7,-0.35491,-1.91528,0.619876,-0.109381,-0.302235,0.0228296,0.0283848,-0.339396,0.00255182,0.00731539,0.146827,5,0.1,4,4.7,-0.801489,-3.42453,0.576621,-0.00575799,-0.0362929,-0.000109337,0.0217482,0.141844,0.000409782,0.0116323,0.000502019,5,0.1,5,4.7,-3.20298,1.38805,0.597374,0.00523999,0.258239,0.00253385,0.352561,-0.255108,-0.00249222,0.00859611,1.7967,5,0.1,6,4.7,-0.300925,1.00056,0.599981,0.00239392,-0.359362,2.34693e-05,-0.00157394,-0.189926,-9.68575e-05,0.0113511,0.123335,5,0.1,7,4.7,-1.48676,-0.497438,0.500003,0.0844959,0.177358,-6.61239e-05,-0.349775,1.80665,0.000916421,0.0100741,3.18546,5,0.1,8,4.7,0.407984,3.34973,0.505554,0.00272389,-0.00196509,0.000484753,-0.00991113,0.00716746,-0.00174716,0.0120595,7.34026e-06,5,0.1,9,4.7,3.32162,2.04719,0.602484,-0.0236526,0.501491,-0.00268715,0.0175238,0.20577,0.00183657,0.0173901,0.530213,5,0.1
0,4.8,-0.918604,4.02248,0.60091,0.389314,0.025785,-0.000856817,0.863403,-0.0257492,0.000834465,0.00709607,0.309886,5,0.1,1,4.8,-1.70392,-3.39987,0.595192,0.866026,-0.0769198,-0.00438988,-5.96046e-05,0.0154972,0.000745058,0.00658727,2.28232,5,0.1,2,4.8,-1.98371,-0.54244,0.706184,-0.812212,-0.489804,-0.0943556,-0.619113,-0.00244379,-0.0106394,0.0084218,1.29171,5,0.1,3,4.8,-0.365692,-1.947,0.622164,-0.105994,-0.329757,0.0228167,0.0432879,-0.195682,-0.00360608,0.00943722,0.0836739,5,0.1,4,4.8,-0.801963,-3.4275,0.576612,-0.00379235,-0.023526,-7.30157e-05,0.0175536,0.113606,0.000327826,0.00961863,0.000310011,5,0.1,5,4.8,-3.2,1.41262,0.597615,0.0608563,0.233242,0.00229031,0.733733,-0.250876,-0.00244379,0.00861112,1.55019,5,0.1,6,4.8,-0.300696,0.963861,0.599983,0.00217259,-0.372377,1.63913e-05,-0.00277162,-0.0564456,-8.9407e-05,0.011994,0.0674816,5,0.1,7,4.8,-1.48008,-0.470899,0.5,0.0491142,0.349547,-1.49012e-06,-0.347853,1.57592,0.000417233,0.0146763,3.00147,5,0.1,8,4.8,0.408209,3.34957,0.505594,0.00177994,-0.0012815,0.000317395,-0.00879169,0.0064373,-0.00151992,0.00908883,5.82785e-06,5,0.1,9,4.8,3.31935,2.09826,0.602225,-0.0217557,0.518131,-0.00248402,0.0207424,0.0994205,0.00226498,0.0152867,0.415315,5,0.1
0,4.9,-0.875755,4.02494,0.600828,0.463225,0.0234745,-0.000781659,0.598181,-0.0213087,0.000696629,0.00709607,0.309886,5,0.1,1,4.9,-1.61732,-3.40752,0.594759,0.865675,-0.0762343,-0.00424618,-0.0139847,0.00289083,0.00214204,0.00658727,2.28232,5,0.1,2,4.9,-2.06738,-0.591429,0.696698,-0.854981,-0.48944,-0.0952256,-0.248827,0.0291355,-0.00286475,0.0084218,1.29171,5,0.1,3,4.9,-0.376084,-1.98087,0.624426,-0.101864,-0.346374,0.0223885,0.0428688,-0.122845,-0.00565872,0.00943722,0.0836739,5,0.1,4,4.9,-0.802261,-3.42932,0.576607,-0.0022172,-0.0133753,-4.34928e-05,0.0139363,0.0893474,0.000257045,0.00961863,0.000310011,5,0.1,5,4.9,-3.18941,1.43478,0.597833,0.157359,0.210588,0.00207117,1.11869,-0.209361,-0.00201538,0.00861112,1.55019,5,0.1,6,4.9,-0.300494,0.926407,0.599984,0.00184784,-0.375706,9.59262e-06,-0.00362098,0.00240281,-4.84288e-05,0.011994,0.0674816,5,0.1,7,4.9,-1.47692,-0.42955,0.500001,0.014255,0.463711,2.41213e-05,-0.340037,0.751924,0.000115484,0.0146763,3.00147,5,0.1,8,4.9,0.408344,3.34947,0.505618,0.000949809,-0.000675023,0.000172947,-0.00769831,0.00560284,-0.00134483,0.00908883,5.82785e-06,5,0.1,9,4.9,3.31719,2.15068,0.601988,-0.0220656,0.530476,-0.00226581,-0.0214875,0.117049,0.00214949,0.0152867,0.415315,5,0.1
0,5,-0.82699,4.02718,0.600753,0.506356,0.0213742,-0.000712276,0.255167,-0.0212193,0.000715256,0.00961184,0.482446,5,0.1,1,5,-1.53094,-3.41512,0.594347,0.860423,-0.0755429,-0.00396222,-0.111938,0.0141859,0.00351667,0.00845109,2.46227,5,0.1,2,5,-2.15363,-0.640046,0.6872,-0.86602,-0.480744,-0.0942811,-0.000119209,0.157624,0.0243783,0.0107181,0.905203,5,0.1,3,5,-0.386034,-2.01591,0.626628,-0.0968255,-0.352055,0.0215694,0.0602752,0.0178814,-0.0112057,0.00798046,0.0577126,5,0.1,4,5,-0.802419,-3.43025,0.576603,-0.00100583,-0.00564456,-2.08616e-05,0.0103116,0.0653267,0.000208616,0.00664314,0.000144872,5,0.1,5,5,-3.16797,1.45481,0.59803,0.270993,0.190139,0.00187457,1.09541,-0.204623,-0.00196695,0.00836054,1.24933,5,0.1,6,5,-0.300328,0.889029,0.599985,0.00146776,-0.369847,5.96046e-06,-0.0039041,0.122666,-2.98023e-05,0.0138556,0.0451457,5,0.1,7,5,-1.47712,-0.380481,0.500004,-0.0172943,0.50794,2.5332e-05,-0.284314,0.168204,-5.96046e-05,0.0130276,2.98235,5,0.1,8,5,0.408403,3.34943,0.505629,0.00025928,-0.000172853,5.21541e-05,-0.00604987,0.00429153,-0.00107288,0.0103616,3.42212e-06,5,0.1,9,5,3.31485,2.20414,0.601772,-0.0250816,0.536388,-0.00204593,-0.0345707,-0.0200272,0.00229478,0.0144213,0.301179,5,0.1
0,5.1,-0.77499,4.02922,0.600685,0.533666,0.0194691,-0.000647921,0.257447,-0.0175536,0.000592321,0.00961184,0.482446,5,0.1,1,5.1,-1.44589,-3.42271,0.59398,0.836217,-0.0769686,-0.00328273,-0.375986,-0.0336319,0.00940263,0.00845109,2.46227,5,0.1,2,5.1,-2.24022,-0.687357,0.677891,-0.865185,-0.465305,-0.0918417,0.031352,0.16709,0.0276007,0.0107181,0.905203,5,0.1,3,5.1,-0.395439,-2.05103,0.628732,-0.09144,-0.350104,0.0205236,0.0512023,0.0358969,-0.0104681,0.00798046,0.0577126,5,0.1,4,5.1,-0.802473,-3.43052,0.576602,-0.000120234,-6.89179e-05,-2.79397e-06,0.0074245,0.0463873,0.000149012,0.00664314,0.000144872,5,0.1,5,5.1,-3.13516,1.47288,0.598208,0.385952,0.171713,0.00169827,1.14499,-0.169851,-0.0016205,0.00836054,1.24933,5,0.1,6,5.1,-0.300201,0.85263,0.599985,0.00108494,-0.358054,4.56348e-06,-0.00370108,0.126671,-3.72529e-06,0.0138556,0.0451457,5,0.1,7,5.1,-1.48023,-0.330012,0.500006,-0.0445159,0.49247,1.68569e-05,-0.252925,-0.375319,-0.000108033,0.0130276,2.98235,5,0.1,8,5.1,0.408401,3.34943,0.50563,-0.000280794,0.000210479,-4.4331e-05,-0.00470132,0.00335276,-0.000841916,0.0103616,3.42212e-06,5,0.1,9,5.1,3.31222,2.25773,0.601579,-0.0271216,0.535434,-0.00183051,-0.00834465,-0.0233948,0.00205263,0.0144213,0.301179,5,0.1
0,5.2,-0.720557,4.03108,0.600623,0.552155,0.0177383,-0.000590086,0.0890791,-0.017643,0.000625849,0.0102101,0.519936,5,0.1,1,5.2,-1.3646,-3.43059,0.593704,0.784907,-0.0806928,-0.00220239,-0.649631,-0.0340939,0.0116527,0.00799478,2.79992,5,0.1,2,5.2,-2.32636,-0.732931,0.668872,-0.854373,-0.444672,-0.0882298,0.224113,0.256211,0.04673,0.00701552,0.625315,5,0.1,3,5.2,-0.404317,-2.08573,0.630728,-0.0859506,-0.342429,0.0193492,0.0611693,0.127316,-0.0135303,0.00689621,0.0242094,5,0.1,4,5.2,-0.802452,-3.43033,0.576603,0.000485778,0.00368953,8.9407e-06,0.00473857,0.0289679,8.9407e-05,0.00735382,5.11098e-05,5,0.1,5,5.2,-3.09116,1.48922,0.59837,0.489902,0.155145,0.00154078,0.892043,-0.165701,-0.00160933,0.0130702,0.951583,5,0.1,6,5.2,-0.30011,0.817554,0.599986,0.000737607,-0.342277,4.47035e-06,-0.00323355,0.197709,0,0.0123237,0.0800101,5,0.1,7,5.2,-1.48585,-0.282895,0.500007,-0.0666648,0.448887,5.96046e-06,-0.185311,-0.438526,-8.9407e-05,0.00831164,2.98627,5,0.1,8,5.2,0.408352,3.34947,0.505621,-0.000673532,0.000488758,-0.000114739,-0.00312924,0.00226498,-0.000566244,0.00967341,1.50043e-06,5,0.1,9,5.2,3.30949,2.31099,0.601406,-0.0271082,0.52762,-0.00162721,0.00715256,-0.149608,0.00202656,0.0163396,0.213683,5,0.1
0,5.3,-0.664709,4.03277,0.600567,0.565752,0.0161543,-0.0005343,0.146262,-0.0146627,0.000510365,0.0102101,0.519936,5,0.1,1,5.3,-1.2897,-3.43909,0.593557,0.709897,-0.0914346,-0.000616442,-0.840455,-0.159934,0.0188462,0.00799478,2.79992,5,0.1,2,5.3,-2.41076,-0.776169,0.660274,-0.833854,-0.420283,-0.083751,0.219315,0.244826,0.0454932,0.00701552,0.625315,5,0.1,3,5.3,-0.41261,-2.11928,0.632595,-0.0798807,-0.32788,0.017976,0.0621118,0.170469,-0.0142977,0.00689621,0.0242094,5,0.1,4,5.3,-0.802383,-3.42983,0.576604,0.000857469,0.00592694,1.58325e-05,0.00274554,0.0161529,5.21541e-05,0.00735382,5.11098e-05,5,0.1,5,5.3,-3.03773,1.50396,0.598517,0.577241,0.140254,0.0013967,0.809431,-0.137061,-0.00132248,0.0130702,0.951583,5,0.1,6,5.3,-0.300051,0.784116,0.599986,0.000448385,-0.327945,4.93601e-06,-0.00254624,0.109285,1.11759e-05,0.0123237,0.0800101,5,0.1,7,5.3,-1.49341,-0.24025,0.500008,-0.0840077,0.407103,-2.32831e-06,-0.155412,-0.267528,-7.07805e-05,0.00831164,2.98627,5,0.1,8,5.3,0.408271,3.34953,0.505607,-0.000928575,0.000672787,-0.000161398,-0.00196509,0.00143051,-0.000361353,0.00967341,1.50043e-06,5,0.1,9,5.3,3.30686,2.36306,0.601253,-0.0251494,0.513698,-0.00144001,0.0258386,-0.148594,0.00175834,0.0163396,0.213683,5,0.1
0,5.4,-0.607554,4.03432,0.600516,0.575164,0.0147223,-0.000484288,0.0161827,-0.014782,0.000506639,0.0118603,2.6308,5,0.1,1,5.4,-1.22316,-3.4491,0.593593,0.618818,-0.109023,0.00135303,-0.971198,-0.176191,0.0195801,0.00660418,3.11526,5,0.1,2,5.4,-2.49284,-0.816904,0.652142,-0.804967,-0.39349,-0.0786886,0.381112,0.299931,0.0575483,0.00807218,0.423698,5,0.1,3,5.4,-0.420273,-2.1511,0.634318,-0.0732221,-0.307262,0.0164315,0.0722408,0.24581,-0.0167787,0.00736716,0.0128901,5,0.1,4,5.4,-0.802287,-3.42918,0.576606,0.00104457,0.00699162,1.93715e-05,0.00107288,0.00536442,0,0.0124661,1.51811e-05,5,0.1,5,5.4,-2.9764,1.51732,0.59865,0.644159,0.126889,0.00126809,0.497818,-0.133872,-0.0013113,0.0118142,0.684601,5,0.1,6,5.4,-0.300018,0.751859,0.599987,0.000228733,-0.316915,5.96046e-06,-0.00184774,0.125974,0,0.0158812,0.155216,5,0.1,7,5.4,-1.5025,-0.2,0.500007,-0.0967234,0.406609,-8.9407e-06,-0.0948906,0.240319,-2.98023e-05,0.0115122,2.79613,5,0.1,8,5.4,0.40817,3.3496,0.50559,-0.00106692,0.0007689,-0.000186265,-0.000789762,0.000715256,-0.000178814,0.0088227,4.93749e-07,5,0.1,9,5.4,3.30447,2.41355,0.601117,-0.0228643,0.494593,-0.00127107,0.0168085,-0.247121,0.00172853,0.0188701,0.149642,5,0.1
0,5.5,-0.548759,4.03534,0.60047,0.610173,0.00270158,-0.000432972,0.584984,-0.202358,0.000525266,0.0118603,2.6308,5,0.1,1,5.5,-1.1659,-3.46136,0.593838,0.528514,-0.139992,0.00361176,-0.844866,-0.403255,0.0242405,0.00660418,3.11526,5,0.1,2,5.5,-2.57154,-0.854825,0.644547,-0.769302,-0.365371,-0.0732731,0.359356,0.27357,0.0529811,0.00807218,0.423698,5,0.1,3,5.5,-0.427242,-2.18059,0.635878,-0.0661905,-0.282216,0.0147841,0.0698473,0.260234,-0.0164397,0.00736716,0.0128901,5,0.1,4,5.5,-0.802179,-3.42847,0.576608,0.00109067,0.00714585,1.88127e-05,-9.31323e-05,-0.00190735,-1.49012e-05,0.0124661,1.51811e-05,5,0.1,5,5.5,-2.90958,1.52939,0.598771,0.690534,0.114875,0.00115065,0.394002,-0.1105,-0.00107661,0.0118142,0.684601,5,0.1,6,5.5,-0.300003,0.720451,0.599988,7.55768e-05,-0.313896,6.33299e-06,-0.00123493,-0.0347421,7.45058e-06,0.0158812,0.155216,5,0.1,7,5.5,-1.51263,-0.156833,0.500006,-0.10552,0.467079,-1.13621e-05,-0.0754297,0.863181,-1.49012e-05,0.0115122,2.79613,5,0.1,8,5.5,0.408061,3.34968,0.505571,-0.00110548,0.00080727,-0.000196323,0,7.45058e-05,-2.98023e-05,0.0088227,4.93749e-07,5,0.1,9,5.5,3.30226,2.46184,0.600998,-0.0217434,0.471389,-0.00111423,-0.00275671,-0.233233,0.00144541,0.0188701,0.149642,5,0.1
0,5.6,-0.484548,4.03445,0.60043,0.674818,-0.0216007,-0.00037998,0.633508,-0.265837,0.000566244,0.00850795,2.41203,5,0.1,1,5.6,-1.11713,-3.47748,0.594319,0.448129,-0.182658,0.00596493,-0.770032,-0.419855,0.0218153,0.00821142,3.19475,5,0.1,2,5.6,-2.64652,-0.889964,0.637492,-0.728548,-0.336909,-0.0677183,0.474215,0.303239,0.0595748,0.00867133,0.284077,5,0.1,3,5.6,-0.433506,-2.20745,0.637273,-0.0590205,-0.254434,0.0130996,0.0744164,0.298262,-0.0174046,0.0063939,0.00376321,5,0.1,4,5.6,-0.802072,-3.42777,0.576609,0.00103563,0.00668764,1.78814e-05,-0.00089407,-0.00703335,-5.96046e-05,0.00608502,0.394806,5,0.1,5,5.6,-2.83896,1.54033,0.598881,0.71702,0.104085,0.00104606,0.111818,-0.108123,-0.00107288,0.00978566,0.471626,5,0.1,6,5.6,-0.300001,0.688831,0.599988,-2.23517e-05,-0.318494,7.45058e-06,-0.000730157,-0.0344217,0,0.0149776,0.0958483,5,0.1,7,5.6,-1.52348,-0.105498,0.500005,-0.110877,0.560656,-1.19209e-05,-0.0280738,0.928357,0,0.0101198,2.49496,5,0.1,8,5.6,0.407952,3.34976,0.505551,-0.0010699,0.000786781,-0.000192225,0.000670552,-0.000476837,8.9407e-05,0.00762183,1.41013e-07,5,0.1,9,5.6,3.3,2.50773,0.600894,-0.0240505,0.445217,-0.000976026,-0.0412464,-0.301242,0.0013411,0.0143789,0.158957,5,0.1
0,5.7,-0.41343,4.0311,0.600394,0.750259,-0.0439517,-0.00032708,0.799084,-0.183254,0.000499189,0.00850795,2.41203,5,0.1,1,5.7,-1.07541,-3.49833,0.595025,0.39301,-0.23773,0.00815261,-0.366315,-0.624359,0.0207201,0.00821142,3.19475,5,0.1,2,5.7,-2.71713,-0.922221,0.631002,-0.684287,-0.308788,-0.0621791,0.433475,0.268545,0.0530742,0.00867133,0.284077,5,0.1,3,5.7,-0.43904,-2.2314,0.638497,-0.0516689,-0.224281,0.0113809,0.0730399,0.305712,-0.017032,0.0063939,0.00376321,5,0.1,4,5.7,-0.801059,-3.427,0.576559,0.0268854,0.00988431,-0.00144765,0.459813,0.0621825,-0.0259876,0.00608502,0.394806,5,0.1,5,5.7,-2.76676,1.55024,0.59898,0.725889,0.0943869,0.000950322,0.0368357,-0.0892282,-0.000879169,0.00978566,0.471626,5,0.1,6,5.7,-0.300006,0.656711,0.599989,-7.70204e-05,-0.324368,7.54371e-06,-0.00037998,-0.0628941,3.72529e-06,0.0149776,0.0958483,5,0.1,7,5.7,-1.53471,-0.0442129,0.500004,-0.11359,0.668582,-1.13621e-05,-0.0208095,1.14304,1.49012e-05,0.0101198,2.49496,5,0.1,8,5.7,0.407849,3.34984,0.505532,-0.00098059,0.000721961,-0.000178814,0.00109151,-0.000804663,0.000178814,0.00762183,1.41013e-07,5,0.1,9,5.7,3.29714,2.55082,0.600802,-0.03515,0.417086,-0.000855234,-0.162914,-0.274897,0.00109896,0.0143789,0.158957,5,0.1
0,5.8,-0.334644,4.02591,0.600364,0.821716,-0.0586152,-0.000280142,0.577092,-0.11158,0.000476837,0.0103052,2.30918,5,0.1,1,5.8,-1.03751,-3.52518,0.595934,0.368586,-0.297737,0.00990778,-0.150919,-0.53525,0.0136197,0.0102003,3.01212,5,0.1,2,5.8,-2.78331,-0.951752,0.625052,-0.638068,-0.281622,-0.0567868,0.506282,0.281245,0.0559986,0.0064236,0.1897,5,0.1,3,5.8,-0.443841,-2.25228,0.63955,-0.0443526,-0.193191,0.00968426,0.0734925,0.315905,-0.0169575,0.00716821,0.00139469,5,0.1,4,5.8,-0.795705,-3.42565,0.576264,0.0826865,0.0175655,-0.0045985,0.611126,0.0847578,-0.0344813,0.00562648,0.288776,5,0.1,5,5.8,-2.6943,1.55924,0.599071,0.719619,0.0856608,0.000864267,-0.181079,-0.0876784,-0.000864267,0.00979816,0.315985,5,0.1,6,5.8,-0.300015,0.624048,0.59999,-0.000102073,-0.327645,7.45058e-06,-0.000104308,0.0114739,2.98023e-05,0.0133242,0.0766739,5,0.1,7,5.8,-1.54613,0.0281267,0.500003,-0.114137,0.774232,-1.04308e-05,0.013411,0.90675,2.98023e-05,0.00814253,2.32268,5,0.1,8,5.8,0.407757,3.34991,0.505516,-0.000856817,0.000625849,-0.000157952,0.00135601,-0.000834465,0.000238419,0.00714032,9.78632e-08,5,0.1,9,5.8,3.29273,2.59111,0.600722,-0.0534773,0.387961,-0.000752509,-0.19002,-0.316739,0.00104308,0.0149857,0.203002,5,0.1
0,5.9,-0.250288,4.01969,0.600338,0.858875,-0.0644065,-0.00023786,0.188045,-0.0201166,0.00037998,0.0103052,2.30918,5,0.1,1,5.9,-0.999875,-3.55709,0.596964,0.396559,-0.335059,0.0104235,0.603974,-0.217363,-0.0022836,0.0102003,3.01212,5,0.1,2,5.9,-2.84473,-0.97859,0.619637,-0.59111,-0.255763,-0.0516281,0.451654,0.243783,0.0487491,0.0064236,0.1897,5,0.1,3,5.9,-0.447915,-2.27003,0.640435,-0.0371845,-0.162052,0.00803648,0.0698231,0.305995,-0.0159703,0.00716821,0.00139469,5,0.1,4,5.9,-0.784165,-3.42321,0.575598,0.149349,0.03311,-0.00896854,0.686292,0.206783,-0.0495426,0.00562648,0.288776,5,0.1,5,5.9,-2.62323,1.5674,0.599153,0.701088,0.0777971,0.000786781,-0.213131,-0.0723898,-0.000707805,0.00979816,0.315985,5,0.1,6,5.9,-0.300026,0.591228,0.599991,-0.000102539,-0.32934,9.96515e-06,8.19564e-05,-0.0245571,1.86265e-05,0.0133242,0.0766739,5,0.1,7,5.9,-1.5575,0.109324,0.500002,-0.113241,0.841968,-7.54371e-06,0.00988692,0.444037,2.6077e-05,0.00814253,2.32268,5,0.1,8,5.9,0.407678,3.34996,0.505501,-0.000713998,0.000532344,-0.000132527,0.00147335,-0.00102818,0.000264496,0.00714032,9.78632e-08,5,0.1,9,5.9,3.28617,2.62861,0.600651,-0.0797521,0.364206,-0.000669993,-0.310704,-0.182346,0.000655651,0.0149857,0.203002,5,0.1
0,6,-0.163885,4.0132,0.600316,0.866025,-0.0651002,-0.000202656,4.76837e-06,-0.00190735,0.000327826,0.0111655,2.28067,5,0.1,1,6,-0.956675,-3.5912,0.597976,0.470595,-0.342566,0.00964105,0.795335,0.0599623,-0.012517,0.0092575,2.67096,5,0.1,2,6,-2.90154,-1.00296,0.614716,-0.544572,-0.231528,-0.0467688,0.492215,0.246346,0.0495017,0.00815619,0.126739,5,0.1,3,6,-0.451291,-2.28473,0.641161,-0.0304021,-0.132167,0.00649393,0.0657439,0.290632,-0.0148416,0.00704451,0.00110529,5,0.1,4,6,-0.765917,-3.4188,0.574452,0.213757,0.0555217,-0.0139162,0.575751,0.226617,-0.0468791,0.00544993,0.244617,5,0.1,5,6,-2.5544,1.57483,0.599229,0.673074,0.070703,0.000716746,-0.362754,-0.0715256,-0.000715256,0.00947406,0.208668,5,0.1,6,6,-0.300035,0.558251,0.599992,-8.86619e-05,-0.329033,1.19209e-05,0.000178814,0.0451803,0,0.0137459,0.109257,5,0.1,7,6,-1.56874,0.195001,0.500001,-0.111252,0.864607,-5.96046e-06,0.033617,0.0283718,2.98023e-05,0.00861684,2.26542,5,0.1,8,6,0.407614,3.35001,0.505489,-0.000566244,0.000429153,-0.000105798,0.00146031,-0.000953674,0.000268221,0.00707479,1.04358e-07,5,0.1,9,6,3.27661,2.66418,0.600587,-0.111288,0.34734,-0.000612438,-0.3016,-0.172615,0.000506639,0.0142304,0.148214,5,0.1
0,6.1,-0.0772821,4.00672,0.600298,0.866026,-0.0648588,-0.000174809,-1.04308e-06,-0.0180602,0.000242144,0.0111655,2.28067,5,0.1,1,6.1,-0.904823,-3.62468,0.598859,0.572168,-0.322672,0.00786586,1.14166,0.319585,-0.0218265,0.0092575,2.67096,5,0.1,2,6.1,-2.95368,-1.02496,0.610272,-0.499219,-0.209038,-0.0422429,0.430569,0.210054,0.0423342,0.00815619,0.126739,5,0.1,3,6.1,-0.454012,-2.29653,0.641739,-0.0241206,-0.104273,0.00508223,0.0596978,0.26603,-0.013344,0.00704451,0.00110529,5,0.1,4,6.1,-0.741834,-3.41178,0.572804,0.265783,0.087475,-0.0191563,0.449333,0.381917,-0.0545718,0.00544993,0.244617,5,0.1,5,6.1,-2.48885,1.58157,0.599297,0.638123,0.0642864,0.000652764,-0.355944,-0.0591204,-0.000592321,0.00947406,0.208668,5,0.1,6,6.1,-0.300043,0.525396,0.599993,-6.82194e-05,-0.329255,1.18278e-05,0.000221655,-0.0264514,-3.72529e-06,0.0137459,0.109257,5,0.1,7,6.1,-1.57973,0.281549,0.500001,-0.108718,0.865937,-3.44589e-06,0.0225231,0.0035429,1.86265e-05,0.00861684,2.26542,5,0.1,8,6.1,0.407565,3.35005,0.50548,-0.0004231,0.000331178,-7.95349e-05,0.00138581,-0.000968575,0.00025332,0.00707479,1.04358e-07,5,0.1,9,6.1,3.2643,2.69816,0.600528,-0.131778,0.332986,-0.000571273,-0.115067,-0.130177,0.000350177,0.0142304,0.148214,5,0.1
0,6.2,0.00932047,4,0.600281,0.866025,-0.0708699,-0.000151992,-1.19209e-06,-0.0990629,0.000178814,0.010594,2.2724,5,0.1,1,6.2,-0.841965,-3.65504,0.599529,0.682516,-0.282055,0.00548363,0.995725,0.477195,-0.0249445,0.011496,2.09744,5,0.1,2,6.2,-3.00145,-1.04482,0.606256,-0.455791,-0.188389,-0.0380754,0.448823,0.207484,0.0419617,0.00634245,0.146573,5,0.1,3,6.2,-0.456137,-2.30568,0.642183,-0.0184946,-0.0791728,0.00383258,0.0527054,0.234962,-0.0116229,0.00786847,0.000980749,5,0.1,4,6.2,-0.713321,-3.40107,0.570626,0.301108,0.126559,-0.0242516,0.247449,0.376701,-0.0448823,0.0065655,0.236677,5,0.1,5,6.2,-2.42693,1.5877,0.599359,0.598609,0.0584841,0.000594556,-0.447512,-0.058651,-0.000566244,0.0109393,0.137193,5,0.1,6,6.2,-0.300049,0.492375,0.599994,-4.54485e-05,-0.330344,1.19209e-05,0.000208616,0.0213087,-2.98023e-05,0.012465,0.184997,5,0.1,7,6.2,-1.59047,0.36815,0.5,-0.105822,0.866025,-1.49012e-06,0.0392795,1.43051e-05,2.98023e-05,0.00935702,2.26587,5,0.1,8,6.2,0.407529,3.35008,0.505473,-0.000292808,0.000238419,-5.51343e-05,0.0012219,-0.000953674,0.000238419,0.00865144,9.01825e-08,5,0.1,9,6.2,3.25081,2.73077,0.600473,-0.135642,0.318629,-0.000537932,0.0312328,-0.167847,0.000327826,0.0169678,0.114871,5,0.1
0,6.3,0.095923,3.99218,0.600267,0.866025,-0.0874847,-0.00013737,-1.49012e-07,-0.212133,0.000122935,0.010594,2.2724,5,0.1,1,6.3,-0.768882,-3.68071,0.599948,0.776374,-0.230094,0.00286419,0.831887,0.549138,-0.0265986,0.011496,2.09744,5,0.1,2,6.3,-3.04514,-1.06278,0.602626,-0.420973,-0.172107,-0.0347754,0.274897,0.129461,0.026308,0.00634245,0.146573,5,0.1,3,6.3,-0.457735,-2.31247,0.642511,-0.0135773,-0.0572234,0.00275373,0.0454895,0.203133,-0.00992417,0.00786847,0.000980749,5,0.1,4,6.3,-0.682316,-3.38624,0.567964,0.315614,0.171962,-0.0290395,0.044696,0.496387,-0.0477098,0.0065655,0.236677,5,0.1,5,6.3,-2.36921,1.59328,0.599416,0.556415,0.0532202,0.00054352,-0.412926,-0.0485331,-0.000469387,0.0109393,0.137193,5,0.1,6,6.3,-0.300052,0.459135,0.599995,-2.44007e-05,-0.336757,9.40636e-06,0.000204891,-0.117045,-1.86265e-05,0.012465,0.184997,5,0.1,7,6.3,-1.60089,0.454752,0.5,-0.102909,0.866025,3.72529e-07,0.0244305,-1.78814e-06,1.49012e-05,0.00935702,2.26587,5,0.1,8,6.3,0.407506,3.3501,0.505469,-0.000178628,0.000147521,-3.3062e-05,0.00105053,-0.000834465,0.000204891,0.00865144,9.01825e-08,5,0.1,9,6.3,3.23763,2.76183,0.600421,-0.125865,0.302688,-0.000508502,0.154316,-0.161007,0.000275671,0.0169678,0.114871,5,0.1
0,6.4,0.182526,3.98232,0.600254,0.866025,-0.109601,-0.00012815,0,-0.214338,0.000149012,0.00966536,2.25944,5,0.1,1,6.4,-0.687673,-3.70095,0.600104,0.841178,-0.17454,0.000312924,0.436574,0.55182,-0.0238121,0.00891872,1.62793,5,0.1,2,6.4,-3.08597,-1.0794,0.59927,-0.396049,-0.16053,-0.032419,0.243664,0.110388,0.0225008,0.00668356,0.0852867,5,0.1,3,6.4,-0.458878,-2.31724,0.64274,-0.00941977,-0.0386894,0.0018537,0.0375807,0.167012,-0.00807643,0.00698501,0.000677368,5,0.1,4,6.4,-0.65085,-3.3666,0.564838,0.310597,0.219768,-0.0332519,-0.141591,0.434041,-0.0343323,0.00664619,0.239794,5,0.1,5,6.4,-2.31569,1.59836,0.599468,0.51325,0.0484467,0.000497699,-0.461578,-0.0482202,-0.000506639,0.0115856,0.154915,5,0.1,6,6.4,-0.300054,0.424865,0.599996,-4.47035e-06,-0.348119,5.96046e-06,0.000163913,-0.0863969,2.98023e-05,0.0100946,0.113545,5,0.1,7,6.4,-1.61105,0.541355,0.5,-0.100002,0.866026,0,0.0374913,0,2.98023e-05,0.00874956,2.26653,5,0.1,8,6.4,0.407493,3.35011,0.505466,-8.41916e-05,7.15256e-05,-1.49012e-05,0.000834465,-0.000715256,0.000149012,0.00827898,5.73211e-08,5,0.1,9,6.4,3.22595,2.79124,0.600371,-0.106609,0.284749,-0.000478327,0.222445,-0.204325,0.000327826,0.017749,0.261846,5,0.1
0,6.5,0.269128,3.97018,0.600241,0.866025,-0.134002,-0.000116881,-8.9407e-07,-0.255525,8.56817e-05,0.00966536,2.25944,5,0.1,1,6.5,-0.602132,-3.71565,0.600018,0.863718,-0.119961,-0.00201315,0.0772104,0.530675,-0.0220761,0.00891872,1.62793,5,0.1,2,6.5,-3.12451,-1.09497,0.596126,-0.375745,-0.151379,-0.0305491,0.180483,0.080131,0.0163987,0.00668356,0.0852867,5,0.1,3,6.5,-0.459643,-2.32032,0.642887,-0.00601006,-0.0235558,0.0011256,0.030553,0.135273,-0.00647455,0.00698501,0.000677368,5,0.1,4,6.5,-0.620866,-3.3423,0.561334,0.28579,0.267181,-0.0368296,-0.339363,0.481755,-0.0343658,0.00664619,0.239794,5,0.1,5,6.5,-2.26631,1.60301,0.599516,0.477231,0.044846,0.000459794,-0.288367,-0.0270233,-0.000279397,0.0115856,0.154915,5,0.1,6,6.5,-0.300054,0.389552,0.599997,1.1269e-05,-0.358272,8.3819e-06,0.000145286,-0.0955984,1.49012e-05,0.0100946,0.113545,5,0.1,7,6.5,-1.6209,0.627957,0.500001,-0.0973165,0.866026,1.76951e-06,0.0215918,-3.72529e-06,1.11759e-05,0.00874956,2.26653,5,0.1,8,6.5,0.407488,3.35011,0.505466,-9.82545e-06,7.07805e-06,-1.67638e-06,0.000650063,-0.000581145,0.000119209,0.00827898,5.73211e-08,5,0.1,9,6.5,3.21646,2.81871,0.600325,-0.082837,0.264661,-0.000446849,0.246167,-0.203714,0.000312924,0.017749,0.261846,5,0.1
0,6.6,0.355731,3.95555,0.60023,0.866025,-0.157589,-0.000108778,1.43051e-05,-0.202775,2.98023e-05,0.0112725,2.24831,5,0.1,1,6.6,-0.515583,-3.72509,0.599713,0.866026,-0.0699699,-0.003995,0,0.462413,-0.0171661,0.00626968,1.23312,5,0.1,2,6.6,-3.16116,-1.10971,0.593154,-0.356859,-0.143224,-0.0288814,0.209689,0.0883341,0.0180006,0.00641963,0.0666408,5,0.1,3,6.6,-0.460104,-2.32206,0.64297,-0.00331476,-0.0116825,0.000560284,0.0233501,0.102282,-0.00488758,0.00911559,0.000352297,5,0.1,4,6.6,-0.594206,-3.31331,0.557498,0.245529,0.310546,-0.0396401,-0.453025,0.362396,-0.0198483,0.0114807,0.419902,5,0.1,5,6.6,-2.21994,1.60737,0.599561,0.450444,0.0424802,0.000435114,-0.268936,-0.022769,-0.000238419,0.0135386,0.0893188,5,0.1,6,6.6,-0.300052,0.353373,0.599998,2.38419e-05,-0.363676,8.9407e-06,0.000119209,0.00210106,0,0.0143486,0.063224,5,0.1,7,6.6,-1.63052,0.71456,0.500001,-0.0947624,0.866026,1.49012e-06,0.033319,0,0,0.00898918,2.26711,5,0.1,8,6.6,0.40749,3.35011,0.505466,4.54485e-05,-4.17233e-05,7.45058e-06,0.000432134,-0.000357628,8.9407e-05,0.0091804,2.54394e-08,5,0.1,9,6.6,3.2094,2.84412,0.600282,-0.0585675,0.242972,-0.000414252,0.234127,-0.234127,0.00038743,0.0232085,0.251223,5,0.1
0,6.7,0.442333,3.93872,0.600219,0.866025,-0.179259,-0.000107381,-3.57628e-06,-0.214368,3.72529e-06,0.0112725,2.24831,5,0.1,1,6.7,-0.428987,-3.72985,0.599231,0.865696,-0.0261754,-0.0056033,-0.0132003,0.406981,-0.0145175,0.00626968,1.23312,5,0.1,2,6.7,-3.19596,-1.12366,0.590342,-0.340159,-0.136263,-0.0274585,0.142992,0.0586063,0.0120066,0.00641963,0.0666408,5,0.1,3,6.7,-0.460328,-2.32276,0.643004,-0.00127451,-0.00279099,0.000137743,0.0174791,0.0756383,-0.00357255,0.00911559,0.000352297,5,0.1,4,6.7,-0.572586,-3.2817,0.553584,0.181417,0.310617,-0.0373266,-0.781532,-0.30379,0.0586547,0.0114807,0.419902,5,0.1,5,6.7,-2.17609,1.61153,0.599603,0.427553,0.0406796,0.000416301,-0.208318,-0.0153854,-0.000156462,0.0135386,0.0893188,5,0.1,6,6.7,-0.300049,0.317039,0.599998,3.43658e-05,-0.362435,8.56817e-06,8.9407e-05,0.0358578,-7.45058e-06,0.0143486,0.063224,5,0.1,7,6.7,-1.63987,0.801162,0.500001,-0.0924705,0.866026,1.02445e-06,0.0177547,-3.72529e-06,-1.11759e-05,0.00898918,2.26711,5,0.1,8,6.7,0.407496,3.3501,0.505467,8.13045e-05,-7.1153e-05,1.47149e-05,0.000286847,-0.00025332,5.96046e-05,0.0091804,2.54394e-08,5,0.1,9,6.7,3.20472,2.86727,0.600242,-0.0352863,0.220076,-0.000376999,0.221238,-0.22769,0.000365078,0.0232085,0.251223,5,0.1
0,6.8,0.528936,3.91981,0.600209,0.866026,-0.197679,-0.000107288,0,-0.142574,2.98023e-05,0.00803132,2.24026,5,0.1,1,6.8,-0.342589,-3.73057,0.598606,0.860748,0.0103414,-0.00681728,-0.105574,0.319004,-0.00950694,0.0083848,0.914476,5,0.1,2,6.8,-3.22924,-1.13699,0.587656,-0.325078,-0.130183,-0.0262156,0.1719,0.0684261,0.0139773,0.0112768,0.0303973,5,0.1,3,6.8,-0.460378,-2.3227,0.643002,0.000190735,0.00348091,-0.000156462,0.0118762,0.0499487,-0.00232458,0.00641047,0.000136474,5,0.1,4,6.8,-0.55857,-3.25286,0.550224,0.0976577,0.260121,-0.0292495,-0.856966,-0.659823,0.0968874,0.00661834,0.281351,5,0.1,5,6.8,-2.1344,1.61552,0.599644,0.405473,0.0390381,0.000400841,-0.247002,-0.0190139,-0.000238419,0.00891204,0.0915894,5,0.1,6,6.8,-0.300045,0.281118,0.599999,4.17233e-05,-0.354333,7.45058e-06,4.47035e-05,0.134781,-2.98023e-05,0.0114792,0.0438724,5,0.1,7,6.8,-1.64902,0.887765,0.500001,-0.0903159,0.866026,1.49012e-06,0.0291467,0,-5.96046e-05,0.0100109,0.62793,5,0.1,8,6.8,0.407506,3.3501,0.505469,0.000102818,-8.9407e-05,1.93715e-05,0.00013411,-0.000119209,2.98023e-05,0.007188,9.24226e-09,5,0.1,9,6.8,3.20221,2.88812,0.600206,-0.0159502,0.196791,-0.000339746,0.15974,-0.240326,0.000417233,0.017099,0.411928,5,0.1
0,6.9,0.615538,3.89929,0.600198,0.866026,-0.212947,-0.000105891,-3.72529e-06,-0.147581,3.72529e-06,0.00803132,2.24026,5,0.1,1,6.9,-0.256784,-3.72803,0.597879,0.856693,0.0395983,-0.00767037,-0.0229079,0.261277,-0.00717491,0.0083848,0.914476,5,0.1,2,6.9,-3.26092,-1.14968,0.585102,-0.308393,-0.123606,-0.0248734,0.171706,0.067234,0.0136942,0.0112768,0.0303973,5,0.1,3,6.9,-0.460307,-2.32214,0.642976,0.00116131,0.00749826,-0.000341889,0.00761636,0.030756,-0.00140443,0.00641047,0.000136474,5,0.1,4,6.9,-0.553189,-3.23059,0.547831,0.00971667,0.181891,-0.0182556,-0.872061,-0.865862,0.11801,0.00661834,0.281351,5,0.1,5,6.9,-2.09503,1.61961,0.599683,0.382192,0.0451835,0.000379514,-0.231028,0.122868,-0.000204891,0.00891204,0.0915894,5,0.1,6,6.9,-0.300041,0.246307,0.6,4.56814e-05,-0.34203,4.84288e-06,3.1665e-05,0.125276,-2.23517e-05,0.0114792,0.0438724,5,0.1,7,6.9,-1.65779,0.974313,0.500001,-0.0841891,0.863807,-2.32831e-06,0.0891313,-0.0676066,-1.86265e-05,0.0100109,0.62793,5,0.1,8,6.9,0.407517,3.35009,0.505471,0.0001112,-9.76026e-05,2.1141e-05,3.72529e-05,-2.98023e-05,1.11759e-05,0.007188,9.24226e-09,5,0.1,9,6.9,3.20137,2.9066,0.600175,-0.00170991,0.172807,-0.000298489,0.106752,-0.239998,0.000406057,0.017099,0.411928,5,0.1
0,7,0.702141,3.87735,0.600187,0.866026,-0.22462,-0.000104308,0,-0.0751019,0,0.00838075,2.23572,5,0.1,1,7,-0.171411,-3.72289,0.597083,0.8481,0.061816,-0.00818968,-0.18223,0.180006,-0.00301003,0.00829862,0.652823,5,0.1,2,7,-3.29083,-1.16168,0.582688,-0.289106,-0.116056,-0.0233397,0.220418,0.0864863,0.017494,0.00916838,0.0118354,5,0.1,3,7,-0.460159,-2.32126,0.642936,0.00173226,0.00971556,-0.000442564,0.0039041,0.0140667,-0.000596046,0.00642145,4.13674e-05,5,0.1,4,7,-0.556401,-3.21681,0.546597,-0.0716433,0.0937939,-0.00651777,-0.733852,-0.866652,0.11301,0.00640357,0.18618,5,0.1,5,7,-2.05803,1.62485,0.59972,0.357181,0.0602394,0.000359118,-0.277638,0.163615,-0.000268221,0.011516,0.0768245,5,0.1,6,7,-0.300036,0.212808,0.6,4.76837e-05,-0.326942,2.98023e-06,1.49012e-05,0.185847,-2.98023e-05,0.0119305,0.0807128,5,0.1,7,7,-1.66569,1.06006,0.500001,-0.0732809,0.847435,-4.47035e-06,0.125289,-0.287294,2.98023e-05,0.00767728,2.43667,5,0.1,8,7,0.407528,3.35008,0.505473,0.000111014,-9.53674e-05,2.23517e-05,-5.96046e-05,0,-5.96046e-05,0.00754998,3.88819e-09,5,0.1,9,7,3.20154,2.92268,0.600147,0.00292063,0.148702,-0.00025779,-0.0206232,-0.242352,0.000417233,0.015732,0.395716,5,0.1
0,7.1,0.788743,3.85446,0.600177,0.866026,-0.233298,-0.000105333,-3.72529e-06,-0.0839531,-1.11759e-05,0.00838075,2.23572,5,0.1,1,7.1,-0.0873588,-3.71587,0.596251,0.833494,0.0777252,-0.00842856,-0.147857,0.134438,-0.00146404,0.00829862,0.652823,5,0.1,2,7.1,-3.31863,-1.17285,0.580442,-0.266639,-0.107249,-0.0215594,0.233412,0.0915527,0.0184923,0.00916838,0.0118354,5,0.1,3,7.1,-0.459971,-2.32024,0.64289,0.00198474,0.0105102,-0.000473764,0.0012517,0.00230968,-5.58794e-05,0.00642145,4.13674e-05,5,0.1,4,7.1,-0.567079,-3.21176,0.546504,-0.139935,0.00772998,0.00453824,-0.615686,-0.830889,0.105146,0.00640357,0.18618,5,0.1,5,7.1,-2.02359,1.63182,0.599755,0.332286,0.0800034,0.000336487,-0.233456,0.215478,-0.000204891,0.011516,0.0768245,5,0.1,6,7.1,-0.300031,0.180833,0.6,4.81028e-05,-0.314099,4.65661e-07,-5.58794e-06,0.0917605,-1.86265e-05,0.0119305,0.0807128,5,0.1,7,7.1,-1.67194,1.14361,0.5,-0.047935,0.825077,-1.95578e-06,0.352196,-0.20054,1.86265e-05,0.00767728,2.43667,5,0.1,8,7.1,0.407538,3.35007,0.505475,0.000102539,-9.31323e-05,1.69501e-05,-0.000104308,5.96046e-05,-4.47035e-05,0.00754998,3.88819e-09,5,0.1,9,7.1,3.20157,2.93622,0.600123,-0.00458471,0.121149,-0.000218302,-0.156835,-0.299782,0.000372529,0.015732,0.395716,5,0.1
0,7.2,0.875346,3.83079,0.600166,0.866026,-0.238949,-0.000105798,0,-0.0189543,0,0.00801973,1.87142,5,0.1,1,7.2,-0.00494569,-3.70753,0.595405,0.812114,0.0881016,-0.00843257,-0.305929,0.0706911,0.00157952,0.00763776,0.453447,5,0.1,2,7.2,-3.34408,-1.18309,0.578383,-0.241715,-0.0974447,-0.0195816,0.267625,0.105679,0.0213087,0.00914899,0.00616189,5,0.1,3,7.2,-0.45977,-2.3192,0.642843,0.00200421,0.0102758,-0.000458956,-0.000804663,-0.00667572,0.000357628,0.00686765,1.52655e-05,5,0.1,4,7.2,-0.583847,-3.21493,0.547451,-0.192106,-0.0683486,0.0140101,-0.417352,-0.674009,0.0822544,0.00741779,0.103084,5,0.1,5,7.2,-1.99154,1.64087,0.599787,0.308263,0.100541,0.000315905,-0.256002,0.183642,-0.000238419,0.0116642,0.140607,5,0.1,6,7.2,-0.300026,0.149866,0.6,4.61936e-05,-0.305008,0,-1.49012e-05,0.105128,-2.98023e-05,0.0115919,0.190434,5,0.1,7,7.2,-1.6748,1.22499,0.5,-0.00807345,0.800407,0,0.422001,-0.321388,2.98023e-05,0.00714272,2.36354,5,0.1,8,7.2,0.407548,3.35006,0.505476,9.0152e-05,-8.34465e-05,1.19209e-05,-0.000149012,0.000119209,-2.98023e-05,0.00674178,2.43507e-09,5,0.1,9,7.2,3.2,2.9468,0.600103,-0.0298798,0.0903368,-0.000181794,-0.33617,-0.309467,0.000327826,0.0146903,0.342705,5,0.1
0,7.3,0.961948,3.80677,0.600156,0.866026,-0.241492,-0.000106171,0,-0.019744,-7.45058e-06,0.00801973,1.87142,5,0.1,1,7.3,0.0748586,-3.69841,0.59457,0.784402,0.0938464,-0.00825105,-0.279143,0.0411719,0.00230595,0.00763776,0.453447,5,0.1,2,7.3,-3.36693,-1.19232,0.57653,-0.215449,-0.0870731,-0.017491,0.261098,0.103205,0.0207871,0.00914899,0.00616189,5,0.1,3,7.3,-0.459576,-2.31821,0.6428,0.00185343,0.00930652,-0.000410154,-0.00211224,-0.0122488,0.000596046,0.00686765,1.52655e-05,5,0.1,4,7.3,-0.604926,-3.22495,0.549237,-0.22709,-0.129939,0.0214098,-0.27518,-0.545338,0.0642315,0.00741779,0.103084,5,0.1,5,7.3,-1.96201,1.65158,0.599818,0.282033,0.111271,0.000291783,-0.272021,0.0374988,-0.000249594,0.0116642,0.140607,5,0.1,6,7.3,-0.300022,0.119637,0.6,4.38187e-05,-0.301469,-2.42144e-06,-3.1665e-05,-0.00936404,-1.49012e-05,0.0115919,0.190434,5,0.1,7,7.3,-1.67335,1.30383,0.5,0.0381559,0.779289,1.76951e-06,0.480369,-0.148661,1.11759e-05,0.00714272,2.36354,5,0.1,8,7.3,0.407556,3.35005,0.505477,7.46921e-05,-7.1153e-05,9.31323e-06,-0.000156462,0.00013411,-2.23517e-05,0.00674178,2.43507e-09,5,0.1,9,7.3,3.19494,2.95428,0.600086,-0.0742629,0.0592977,-0.000151247,-0.515461,-0.304967,0.000283122,0.0146903,0.342705,5,0.1
0,7.4,1.04855,3.7826,0.600145,0.866026,-0.24085,-0.000104308,-5.96046e-05,0.0408888,0,0.0102535,1.4471,5,0.1,1,7.4,0.151742,-3.68888,0.593759,0.751097,0.0958383,-0.00792891,-0.408015,-0.00286102,0.00423193,0.00759534,0.308992,5,0.1,2,7.4,-3.38716,-1.2005,0.574885,-0.188965,-0.07658,-0.015378,0.270367,0.107527,0.0216365,0.0122224,0.00186188,5,0.1,3,7.4,-0.459402,-2.31735,0.642762,0.00160113,0.00790954,-0.000342727,-0.00287592,-0.0151396,0.000685453,0.00762631,1.27533e-05,5,0.1,4,7.4,-0.628729,-3.24037,0.551659,-0.246064,-0.175399,0.0266179,-0.100762,-0.356317,0.0389814,0.00644973,0.045374,5,0.1,5,7.4,-1.93522,1.6627,0.599845,0.253332,0.109294,0.000265241,-0.303864,-0.0709891,-0.000268221,0.0114776,0.194923,5,0.1,6,7.4,-0.300018,0.089423,0.6,4.02331e-05,-0.302551,-4.47035e-06,-5.96046e-05,0.00604987,2.98023e-05,0.0144638,3.05099,5,0.1,7,7.4,-1.66718,1.38098,0.5,0.0841439,0.762472,1.49012e-06,0.422955,-0.221968,0,0.00829115,2.17453,5,0.1,8,7.4,0.407563,3.35004,0.505478,5.88596e-05,-5.96046e-05,7.45058e-06,-0.000149012,0.000238419,-2.98023e-05,0.0108426,3.10985e-09,5,0.1,9,7.4,3.18489,2.95873,0.600073,-0.12666,0.030452,-0.00012368,-0.505209,-0.267386,0.000208616,0.0136461,0.277022,5,0.1
0,7.5,1.13515,3.7587,0.600135,0.865828,-0.237184,-0.000104122,-0.00786036,0.042215,7.45058e-06,0.0102535,1.4471,5,0.1,1,7.5,0.224935,-3.67933,0.592987,0.713337,0.0949234,-0.00751186,-0.372501,-0.0180006,0.00432134,0.00759534,0.308992,5,0.1,2,7.5,-3.40472,-1.20763,0.573455,-0.162414,-0.0660071,-0.0132514,0.261307,0.104226,0.0209585,0.0122224,0.00186188,5,0.1,3,7.5,-0.459257,-2.31664,0.642731,0.00129123,0.00630952,-0.000270084,-0.00323914,-0.0164956,0.000745058,0.00762631,1.27533e-05,5,0.1,4,7.5,-0.653657,-3.25948,0.554488,-0.250631,-0.204566,0.0296715,0.0111572,-0.222012,0.0215285,0.00644973,0.045374,5,0.1,5,7.5,-1.91136,1.67313,0.599871,0.224225,0.0981169,0.000239536,-0.28225,-0.146665,-0.00025332,0.0114776,0.194923,5,0.1,6,7.5,-0.300787,0.0576995,0.6,-0.0218969,-0.344183,-1.95578e-06,-0.389945,-0.732253,1.86265e-05,0.0144638,3.05099,5,0.1,7,7.5,-1.65729,1.45523,0.500001,0.107812,0.714778,1.11759e-06,0.0745356,-0.687614,-7.45058e-06,0.00829115,2.17453,5,0.1,8,7.5,0.407568,3.35004,0.505479,4.42378e-05,-3.7998e-05,4.93601e-06,-0.000141561,0.000178814,-1.86265e-05,0.0108426,3.10985e-09,5,0.1,9,7.5,3.16959,2.96048,0.600061,-0.179725,0.00492819,-0.000104122,-0.528827,-0.238463,0.000186265,0.0136461,0.277022,5,0.1
0,7.6,1.22163,3.73526,0.600124,0.862879,-0.230759,-0.000102818,-0.0630021,0.092864,5.96046e-05,0.00860512,1.08704,5,0.1,1,7.6,0.294296,-3.66997,0.592259,0.672337,0.0918269,-0.00703037,-0.464767,-0.0455379,0.00548363,0.00829276,0.208186,5,0.1,2,7.6,-3.41967,-1.21371,0.572233,-0.13662,-0.0556946,-0.0111774,0.25475,0.102043,0.0204742,0.00692033,0.000852341,5,0.1,3,7.6,-0.459145,-2.31609,0.642708,0.00096634,0.004673,-0.000195205,-0.00317395,-0.0158548,0.000685453,0.00652151,1.17513e-05,5,0.1,4,7.6,-0.67847,-3.2808,0.557531,-0.24367,-0.219089,0.0308439,0.127971,-0.0661612,0.00178814,0.0067522,0.0155315,5,0.1,5,7.6,-1.89034,1.68213,0.599893,0.196221,0.0810683,0.000213087,-0.28038,-0.189066,-0.000238419,0.00736863,0.510203,5,0.1,6,7.6,-0.305238,0.0191232,0.599999,-0.0692844,-0.430212,0,-0.519916,-0.906872,0,0.0118269,2.66032,5,0.1,7,7.6,-1.64655,1.5228,0.500001,0.103474,0.632724,0,-0.141263,-0.919998,0,0.00850913,2.55171,5,0.1,8,7.6,0.407572,3.35004,0.505479,3.05474e-05,-2.38419e-05,2.98023e-06,-0.000119209,0.000238419,-2.98023e-05,0.00695136,3.88392e-09,5,0.1,9,7.6,3.14911,2.95986,0.600052,-0.227743,-0.0164628,-8.64267e-05,-0.411987,-0.186205,0.000149012,0.0140597,0.211096,5,0.1
0,7.7,1.30787,3.71262,0.600114,0.863263,-0.22204,-9.73232e-05,0.0241473,0.0895262,4.84288e-05,0.00860512,1.08704,5,0.1,1,7.7,0.359337,-3.66102,0.591583,0.629269,0.0871718,-0.00650901,-0.417586,-0.0497401,0.005126,0.00829276,0.208186,5,0.1,2,7.7,-3.43208,-1.21878,0.571216,-0.112009,-0.0458205,-0.00919607,0.237033,0.0952706,0.0191182,0.00692033,0.000852341,5,0.1,3,7.7,-0.459064,-2.3157,0.642692,0.000654813,0.00312887,-0.000127964,-0.00300258,-0.0147969,0.000648201,0.00652151,1.17513e-05,5,0.1,4,7.7,-0.702087,-3.30287,0.560604,-0.227604,-0.220785,0.0304125,0.19237,0.0329167,-0.0104457,0.0067522,0.0155315,5,0.1,5,7.7,-1.873,1.68924,0.600214,0.143247,0.0609249,0.00872789,-0.72255,-0.207111,0.151422,0.00736863,0.510203,5,0.1,6,7.7,-0.315069,-0.0290734,0.599999,-0.129403,-0.53794,0,-0.644712,-1.16243,0,0.0118269,2.66032,5,0.1,7,7.7,-1.63718,1.58095,0.500001,0.0815412,0.527344,-4.65661e-07,-0.28149,-1.10301,-1.11759e-05,0.00850913,2.55171,5,0.1,8,7.7,0.407574,3.35003,0.505479,1.91852e-05,-4.84288e-06,5.58794e-07,-0.000104308,0.000163913,-1.49012e-05,0.00695136,3.88392e-09,5,0.1,9,7.7,3.12429,2.95732,0.600044,-0.268099,-0.033636,-7.26432e-05,-0.374123,-0.153765,0.00013411,0.0140597,0.211096,5,0.1
0,7.8,1.39415,3.69091,0.600105,0.859943,-0.211507,-9.08971e-05,-0.121653,0.126362,2.98023e-05,0.00983753,1.04065,5,0.1,1,7.8,0.420115,-3.65257,0.590958,0.585284,0.0815213,-0.00597537,-0.476465,-0.0647306,0.00566244,0.00850729,0.139562,5,0.1,2,7.8,-3.44213,-1.2229,0.570389,-0.0893056,-0.0366747,-0.00735968,0.216722,0.0874996,0.0175238,0.0100833,0.000693569,5,0.1,3,7.8,-0.459013,-2.31546,0.642682,0.000374019,0.00175238,-6.85453e-05,-0.0025332,-0.0122786,0.000566244,0.00852712,8.20254e-06,5,0.1,4,7.8,-0.723787,-3.32462,0.563573,-0.205451,-0.212497,0.0287637,0.249118,0.132084,-0.0224113,0.00742321,0.00589005,5,0.1,5,7.8,-1.86263,1.69432,0.601965,0.0617802,0.0407934,0.0271037,-0.862598,-0.190735,0.201225,0.00563591,0.355952,5,0.1,6,7.8,-0.331184,-0.0885251,0.599999,-0.191665,-0.647934,0,-0.572637,-0.975077,0,0.0129017,2.36405,5,0.1,7,7.8,-1.63056,1.6284,0.500001,0.0500679,0.425032,-1.49012e-06,-0.334978,-0.898719,0,0.010771,2.33316,5,0.1,8,7.8,0.407576,3.35003,0.505479,9.68575e-06,1.19209e-05,-1.49012e-06,-7.45058e-05,0,0,0.00818966,1.00933e-09,5,0.1,9,7.8,3.09581,2.95327,0.600037,-0.299025,-0.0466466,-6.10948e-05,-0.229955,-0.104427,0.000149012,0.015533,0.151723,5,0.1
0,7.9,1.47988,3.67036,0.600096,0.856712,-0.199667,-8.78237e-05,0.00479817,0.117064,3.35276e-05,0.00983753,1.04065,5,0.1,1,7.9,0.476398,-3.64474,0.590387,0.541296,0.075284,-0.00544656,-0.420788,-0.0618845,0.00506639,0.00850729,0.139562,5,0.1,2,7.9,-3.45002,-1.22615,0.569738,-0.0688158,-0.028388,-0.00569951,0.192463,0.0779703,0.0156313,0.0100833,0.000693569,5,0.1,3,7.9,-0.458987,-2.31534,0.642678,0.000138674,0.000616908,-1.65775e-05,-0.00214204,-0.0103116,0.000469387,0.00852712,8.20254e-06,5,0.1,4,7.9,-0.743056,-3.34513,0.566328,-0.179646,-0.196981,0.0262602,0.265889,0.178337,-0.027623,0.00742321,0.00589005,5,0.1,5,7.9,-1.86102,1.6975,0.605832,-0.0310356,0.0236077,0.0513167,-0.953622,-0.150584,0.266176,0.00563591,0.355952,5,0.1,6,7.9,-0.353307,-0.158279,0.599999,-0.250942,-0.746392,0,-0.581894,-0.932559,0,0.0129017,2.36405,5,0.1,7,7.9,-1.62755,1.66678,0.5,0.00770669,0.348995,-1.49012e-06,-0.483863,-0.533164,0,0.010771,2.33316,5,0.1,8,7.9,0.407576,3.35004,0.505479,2.7474e-06,1.15484e-05,-1.39698e-06,-6.14673e-05,-1.49012e-05,3.72529e-06,0.00818966,1.00933e-09,5,0.1,9,7.9,3.0648,2.94812,0.600032,-0.320454,-0.0559099,-4.787e-05,-0.182107,-0.0781417,0.000119209,0.015533,0.151723,5,0.1
0,8,1.56543,3.65101,0.600087,0.851968,-0.18698,-8.34465e-05,-0.136673,0.141144,5.96046e-05,0.00817393,0.752751,5,0.1,1,8,0.528399,-3.63752,0.589868,0.498171,0.0688314,-0.00493675,-0.45377,-0.0684261,0.00524521,0.00773601,0.161094,5,0.1,2,8,-3.45598,-1.22861,0.569243,-0.0509143,-0.0211239,-0.00424236,0.164986,0.067234,0.0135005,0.00813766,0.000550394,5,0.1,3,8,-0.458983,-2.31533,0.642678,-4.99189e-05,-0.000280142,2.5332e-05,-0.00159442,-0.0077486,0.000327826,0.00656352,4.35247e-06,5,0.1,4,8,-0.759672,-3.36386,0.568808,-0.152513,-0.176901,0.0232548,0.275433,0.222445,-0.0323653,0.00725778,0.00223829,5,0.1,5,8,-1.86877,1.69919,0.612288,-0.12199,0.0109822,0.0774026,-0.835955,-0.101268,0.243038,0.00607797,0.250907,5,0.1,6,8,-0.381117,-0.237104,0.599999,-0.302741,-0.824282,0,-0.432089,-0.585109,0,0.0140457,2.21737,5,0.1,7,8,-1.62925,1.7,0.5,-0.0417143,0.324878,0,-0.482976,0.0267625,-2.98023e-05,0.00739749,2.50998,5,0.1,8,8,0.407576,3.35004,0.505479,-2.23517e-06,1.19209e-05,-1.49012e-06,-5.96046e-05,-0.000119209,2.98023e-05,0.00706096,2.40723e-09,5,0.1,9,8,3.03203,2.9422,0.600027,-0.332683,-0.0618339,-3.72529e-05,-0.0513792,-0.038743,8.9407e-05,0.0161496,0.176737,5,0.1
0,8.1,1.65013,3.63298,0.600079,0.842823,-0.173846,-7.78586e-05,-0.0878423,0.127032,5.21541e-05,0.00817393,0.752751,5,0.1,1,8.1,0.576332,-3.63094,0.589397,0.463564,0.0632193,-0.00451524,-0.26897,-0.0472814,0.00345707,0.00773601,0.161094,5,0.1,2,8.1,-3.46029,-1.23041,0.568883,-0.0356965,-0.0149127,-0.00299504,0.138968,0.0568181,0.0114106,0.00813766,0.000550394,5,0.1,3,8.1,-0.458996,-2.31539,0.642682,-0.000189245,-0.000951812,5.36442e-05,-0.00118092,-0.00564754,0.000238419,0.00656352,4.35247e-06,5,0.1,4,8.1,-0.773555,-3.38041,0.570969,-0.125264,-0.153712,0.0199357,0.267763,0.23967,-0.0337884,0.00725778,0.00223829,5,0.1,5,8.1,-1.88509,1.69984,0.621299,-0.203322,0.00254288,0.103024,-0.763364,-0.0684708,0.255231,0.00607797,0.250907,5,0.1,6,8.1,-0.41359,-0.321683,0.599999,-0.346394,-0.860294,0,-0.413289,-0.1668,0,0.0140457,2.21737,5,0.1,7,8.1,-1.63607,1.73395,0.5,-0.096252,0.364929,-1.30385e-06,-0.576593,0.676632,0,0.00739749,2.50998,5,0.1,8,8.1,0.407576,3.35004,0.505479,-7.31088e-06,1.86265e-06,1.02445e-06,-4.28408e-05,-7.45058e-05,1.86265e-05,0.00706096,2.40723e-09,5,0.1,9,8.1,2.99828,2.93584,0.600024,-0.343997,-0.0652459,-2.98955e-05,-0.145212,-0.0266284,6.33299e-05,0.0161496,0.176737,5,0.1
0,8.2,1.73378,3.61624,0.600072,0.827348,-0.16064,-7.15256e-05,-0.250459,0.140905,5.96046e-05,0.00855636,0.52885,5,0.1,1,8.2,0.621443,-3.62484,0.588962,0.439063,0.0587702,-0.00419766,-0.243574,-0.0439882,0.00306964,0.00817792,0.0938782,5,0.1,2,8.2,-3.46321,-1.23163,0.568636,-0.0231743,-0.0097841,-0.00196397,0.111222,0.0457764,0.00917912,0.00793109,0.000341549,5,0.1,3,8.2,-0.45902,-2.31551,0.642689,-0.000283867,-0.00140071,7.15256e-05,-0.000730157,-0.00345707,0.000149012,0.0106865,1.70334e-06,5,0.1,4,8.2,-0.784768,-3.39456,0.572793,-0.0992879,-0.1293,0.0165433,0.25031,0.247002,-0.0338554,0.00637711,0.00192802,5,0.1,5,8.2,-1.90894,1.6998,0.632802,-0.270051,-0.00289977,0.126024,-0.552416,-0.0412464,0.194699,0.00480239,0.200136,5,0.1,6,8.2,-0.450079,-0.408139,0.599999,-0.380706,-0.866025,0,-0.253707,-1.43051e-05,0,0.0110976,2.16379,5,0.1,7,8.2,-1.64852,1.77424,0.5,-0.151613,0.442997,-1.49012e-06,-0.507593,0.810266,2.98023e-05,0.00903848,1.5587,5,0.1,8,8.2,0.407575,3.35004,0.505479,-1.04308e-05,0,1.49012e-06,-1.49012e-05,-0.000119209,2.98023e-05,0.0106243,2.62128e-09,5,0.1,9,8.2,2.9632,2.92922,0.600021,-0.356615,-0.0666797,-2.5332e-05,-0.0857115,-0.000238419,5.96046e-05,0.0162347,0.108107,5,0.1
0,8.3,1.81539,3.60084,0.600065,0.805333,-0.147624,-6.59376e-05,-0.223443,0.124067,5.21541e-05,0.00855636,0.52885,5,0.1,1,8.3,0.664288,-3.61916,0.588556,0.418871,0.0549082,-0.00393493,-0.18039,-0.0355095,0.00235811,0.00817792,0.0938782,5,0.1,2,8.3,-3.46501,-1.2324,0.568483,-0.0132252,-0.00568219,-0.00114106,0.0876933,0.0362247,0.00727177,0.00793109,0.000341549,5,0.1,3,8.3,-0.459051,-2.31566,0.642696,-0.000339886,-0.00166148,8.25152e-05,-0.000389293,-0.00178814,7.45058e-05,0.0106865,1.70334e-06,5,0.1,4,8.3,-0.79348,-3.40627,0.57428,-0.0753644,-0.104876,0.0132265,0.226621,0.239536,-0.0322312,0.00637711,0.00192802,5,0.1,5,8.3,-1.93856,1.69911,0.646396,-0.320518,-0.0124041,0.145721,-0.438109,-0.135332,0.187032,0.00480239,0.200136,5,0.1,6,8.3,-0.489473,-0.494742,0.599999,-0.407043,-0.866026,0,-0.246642,1.93715e-06,0,0.0110976,2.16379,5,0.1,7,8.3,-1.66604,1.82294,0.5,-0.196593,0.532874,9.31323e-07,-0.382088,0.922799,1.49012e-05,0.00903848,1.5587,5,0.1,8,8.3,0.407574,3.35004,0.50548,-1.14553e-05,-9.68575e-06,3.91155e-06,-3.72529e-06,-5.96046e-05,1.49012e-05,0.0106243,2.62128e-09,5,0.1,9,8.3,2.92707,2.92264,0.600019,-0.365639,-0.0638727,-2.05822e-05,-0.0757873,0.0529736,4.09782e-05,0.0162347,0.108107,5,0.1
0,8.4,1.89462,3.5867,0.600059,0.777,-0.135046,-6.10948e-05,-0.366271,0.130773,8.9407e-05,0.00651723,0.363408,5,0.1,1,8.4,0.705243,-3.61385,0.588174,0.399551,0.0512719,-0.00369549,-0.220269,-0.0385046,0.0025928,0.00697446,0.0729859,5,0.1,2,8.4,-3.46594,-1.2328,0.568402,-0.00562668,-0.00253916,-0.00051111,0.0641346,0.0267625,0.00539422,0.00722907,0.000160784,5,0.1,3,8.4,-0.459086,-2.31584,0.642705,-0.000362098,-0.00175834,8.49366e-05,-7.45058e-05,-0.000238419,2.98023e-05,0.0107459,4.95047e-07,5,0.1,4,8.4,-0.799933,-3.41558,0.575446,-0.0542223,-0.0817418,0.0101402,0.195175,0.22161,-0.0292361,0.00647715,0.00178024,5,0.1,5,8.4,-1.97249,1.69713,0.661809,-0.354579,-0.0275791,0.161362,-0.230908,-0.157773,0.117242,0.0081562,0.577166,5,0.1,6,8.4,-0.531221,-0.581344,0.599999,-0.425568,-0.866026,0,-0.10556,0,0,0.00950112,2.15059,5,0.1,7,8.4,-1.68733,1.88059,0.5,-0.226447,0.61647,2.98023e-06,-0.209093,0.702739,-2.98023e-05,0.00949506,1.19863,5,0.1,8,8.4,0.407573,3.35004,0.50548,-1.11759e-05,-1.19209e-05,4.47035e-06,0,-0.000119209,0,0.0101167,2.85416e-09,5,0.1,9,8.4,2.89028,2.91659,0.600017,-0.368565,-0.0567257,-1.63913e-05,0.0300407,0.0870228,0,0.0199271,0.060725,5,0.1
0,8.5,1.97061,3.57381,0.600053,0.74328,-0.123045,-5.32717e-05,-0.335589,0.11313,7.45058e-05,0.00651723,0.363408,5,0.1,1,8.5,0.744266,-3.6089,0.587816,0.382062,0.048019,-0.00348315,-0.150364,-0.0289083,0.00184029,0.00697446,0.0729859,5,0.1,2,8.5,-3.46621,-1.23293,0.568375,-0.000143796,-0.000245869,-4.88013e-05,0.0457168,0.0191778,0.00386685,0.00722907,0.000160784,5,0.1,3,8.5,-0.459123,-2.31601,0.642713,-0.000358187,-0.00172704,8.45641e-05,0.000145286,0.000804663,-2.98023e-05,0.0107459,4.95047e-07,5,0.1,4,8.5,-0.804428,-3.42268,0.576319,-0.0361586,-0.0606272,0.00737356,0.165179,0.199184,-0.0259094,0.00647715,0.00178024,5,0.1,5,8.5,-2.00772,1.69401,0.677931,-0.337807,-0.0310645,0.155827,0.498168,0.0651628,-0.199366,0.0081562,0.577166,5,0.1,6,8.5,-0.574397,-0.667947,0.599999,-0.438191,-0.866026,0,-0.120934,3.72529e-06,0,0.00950112,2.15059,5,0.1,7,8.5,-1.71052,1.94581,0.5,-0.232674,0.687324,5.58794e-07,0.068225,0.664368,-1.49012e-05,0.00949506,1.19863,5,0.1,8,8.5,0.407572,3.35003,0.505481,-1.08965e-05,-2.01166e-05,4.09782e-06,7.45058e-06,-2.98023e-05,-7.45058e-06,0.0101167,2.85416e-09,5,0.1,9,8.5,2.8536,2.91139,0.600016,-0.364227,-0.0469178,-1.63913e-05,0.0684708,0.106215,0,0.0199271,0.060725,5,0.1
0,8.6,2.04313,3.56207,0.600048,0.70526,-0.111765,-4.76837e-05,-0.443459,0.115275,8.9407e-05,0.00682002,0.246156,5,0.1,1,8.6,0.781696,-3.60424,0.587476,0.365926,0.045085,-0.00329614,-0.18698,-0.031352,0.00205636,0.00689337,0.0331682,5,0.1,2,8.6,-3.46602,-1.23287,0.568387,0.00356436,0.00131726,0.000265241,0.0287294,0.0121593,0.00247359,0.00738158,5.73682e-05,5,0.1,3,8.6,-0.459157,-2.31618,0.642722,-0.000334531,-0.0015974,7.89762e-05,0.000327826,0.00154972,-5.96046e-05,0.00975727,1.84916e-07,5,0.1,4,8.6,-0.807273,-3.4278,0.576933,-0.0213251,-0.0421584,0.00498742,0.131071,0.169277,-0.0216663,0.00629283,0.0012513,5,0.1,5,8.6,-2.03827,1.69145,0.69219,-0.267214,-0.0186086,0.126643,0.859141,0.166178,-0.361353,0.00911682,0.249797,5,0.1,6,8.6,-0.618672,-0.75455,0.599999,-0.445352,-0.866026,0,-0.00420213,0,0,0.0110686,2.14673,5,0.1,7,8.6,-1.7331,2.01747,0.5,-0.215849,0.740892,0,0.253975,0.372529,-2.98023e-05,0.00696562,0.603284,5,0.1,8,8.6,0.407571,3.35003,0.505481,-9.68575e-06,-2.38419e-05,2.98023e-06,0,0.000119209,0,0.0078764,2.16387e-09,5,0.1,9,8.6,2.81766,2.90724,0.600014,-0.352937,-0.0360131,-1.63913e-05,0.164747,0.109553,0,0.0217401,0.157521,5,0.1
0,8.7,2.11157,3.55144,0.600044,0.66415,-0.101247,-3.99537e-05,-0.401452,0.0983179,7.07805e-05,0.00682002,0.246156,5,0.1,1,8.7,0.817377,-3.59988,0.587157,0.347635,0.042076,-0.00309972,-0.189822,-0.0300556,0.00197068,0.00689337,0.0331682,5,0.1,2,8.7,-3.46555,-1.23269,0.568424,0.00579134,0.00226628,0.000458397,0.0161529,0.00696629,0.00142306,0.00738158,5.73682e-05,5,0.1,3,8.7,-0.459189,-2.31633,0.642729,-0.000296347,-0.00141412,7.09668e-05,0.000424683,0.00205636,-9.68575e-05,0.00975727,1.84916e-07,5,0.1,4,8.7,-0.808797,-3.43121,0.57733,-0.00963705,-0.0265758,0.00300622,0.102405,0.141546,-0.0178628,0.00629283,0.0012513,5,0.1,5,8.7,-2.06024,1.69038,0.703221,-0.168938,-0.00313874,0.0955915,1.06078,0.140466,-0.264831,0.00911682,0.249797,5,0.1,6,8.7,-0.663354,-0.841152,0.599999,-0.44887,-0.866026,0,-0.0403263,3.72529e-06,0,0.0110686,2.14673,5,0.1,7,8.7,-1.7532,2.09324,0.5,-0.184215,0.771986,-1.39698e-06,0.365585,0.219747,-3.72529e-06,0.00696562,0.603284,5,0.1,8,8.7,0.40757,3.35003,0.505481,-9.22009e-06,-1.22935e-05,2.6077e-06,1.11759e-05,0.000104308,-7.45058e-06,0.0078764,2.16387e-09,5,0.1,9,8.7,2.78315,2.90418,0.600012,-0.337508,-0.0254225,-1.63913e-05,0.156462,0.100628,0,0.0217401,0.157521,5,0.1
0,8.8,2.17589,3.5418,0.60004,0.621152,-0.0915527,-3.42727e-05,-0.473857,0.0981092,2.98023e-05,0.0084238,2.0713,5,0.1,1,8.8,0.851114,-3.59583,0.586857,0.326152,0.0388682,-0.00288486,-0.246912,-0.0349283,0.00235438,0.00813063,0.0128294,5,0.1,2,8.8,-3.4649,-1.23244,0.568476,0.00686049,0.00273883,0.000554323,0.00572205,0.002563,0.000506639,0.00876925,1.72774e-05,5,0.1,3,8.8,-0.459216,-2.31646,0.642736,-0.00025034,-0.00119209,6.10948e-05,0.000461936,0.00226498,-0.000149012,0.0103951,1.68328e-07,5,0.1,4,8.8,-0.809298,-3.43321,0.577548,-0.000871718,-0.0139713,0.00142753,0.0728965,0.110149,-0.0136495,0.00617499,0.000657606,5,0.1,5,8.8,-2.07181,1.69071,0.711581,-0.0630438,0.009045,0.0727415,1.02305,0.101566,-0.196338,0.00954568,0.179789,5,0.1,6,8.8,-0.708329,-0.927755,0.599999,-0.449026,-0.866026,0,0.0553131,0,0,0.0110763,2.14832,5,0.1,7,8.8,-1.7697,2.17109,0.5,-0.145099,0.779992,-1.49012e-06,0.406206,-0.0785589,0,0.00965103,0.405219,5,0.1,8,8.8,0.407569,3.35003,0.505481,-8.19564e-06,-5.96046e-06,1.49012e-06,0,0.000119209,0,0.0100306,1.59485e-09,5,0.1,9,8.8,2.75025,2.90211,0.600011,-0.319546,-0.0161588,-1.49012e-05,0.211239,0.0835657,-2.98023e-05,0.0159471,0.256623,5,0.1
0,8.9,2.23666,3.53257,0.600055,0.602561,-0.0975609,0.000482239,0.0270903,-0.18242,0.00915676,0.0084238,2.0713,5,0.1,1,8.9,0.88248,-3.59212,0.58658,0.3009,0.0353821,-0.00264775,-0.263065,-0.0353754,0.00242889,0.00813063,0.0128294,5,0.1,2,8.9,-3.4642,-1.23215,0.568533,0.00705086,0.00283774,0.000573322,-0.00153482,-0.000424683,-8.9407e-05,0.00876925,1.72774e-05,5,0.1,3,8.9,-0.459239,-2.31657,0.642741,-0.000202842,-0.000959635,4.66593e-05,0.000480562,0.00235438,-0.000137836,0.0103951,1.68328e-07,5,0.1,4,8.9,-0.809059,-3.4341,0.577628,0.0052684,-0.00423864,0.000231992,0.0500716,0.084281,-0.0102483,0.00617499,0.000657606,5,0.1,5,8.9,-2.07304,1.69203,0.717977,0.0372995,0.0164837,0.0561212,0.95655,0.0490099,-0.13962,0.00954568,0.179789,5,0.1,6,8.9,-0.753105,-1.01436,0.599999,-0.447323,-0.866025,0,0.00442937,0,0,0.0110763,2.14832,5,0.1,7,8.9,-1.78218,2.24863,0.5,-0.104793,0.769436,-4.65661e-07,0.391714,-0.156969,1.11759e-05,0.00965103,0.405219,5,0.1,8,8.9,0.407568,3.35003,0.505482,-7.72998e-06,4.09782e-06,1.39698e-06,1.11759e-05,7.45058e-05,-3.72529e-06,0.0100306,1.59485e-09,5,0.1,9,8.9,2.71941,2.90088,0.600009,-0.296596,-0.00884645,-1.69501e-05,0.250459,0.0620037,-7.45058e-06,0.0159471,0.256623,5,0.1
0,9,2.29738,3.52169,0.600156,0.613415,-0.121683,0.00159442,0.133514,-0.272155,0.012219,0.00754794,1.8755,5,0.1,1,9,0.911197,-3.58876,0.586328,0.272764,0.0317037,-0.00239164,-0.302523,-0.0385046,0.00274181,0.0101173,0.00662583,5,0.1,2,9,-3.46351,-1.23188,0.568589,0.00662208,0.00268221,0.000540912,-0.00655651,-0.0025034,-0.000506639,0.00649025,8.31447e-06,5,0.1,3,9,-0.459257,-2.31665,0.642745,-0.000155717,-0.000727177,3.27826e-05,0.000461936,0.00226498,-0.000119209,0.00735228,1.68354e-07,5,0.1,4,9,-0.808319,-3.43415,0.577606,0.00919253,0.00286698,-0.000619888,0.0286996,0.0580549,-0.00688434,0.00669011,0.000259603,5,0.1,5,9,-2.06482,1.69385,0.72296,0.123656,0.0192136,0.0441775,0.751853,0.00739098,-0.102103,0.0116423,0.115961,5,0.1,6,9,-0.797727,-1.10096,0.599999,-0.443761,-0.866026,0,0.084877,0,0,0.0130587,2.15258,5,0.1,7,9,-1.79078,2.32449,0.5,-0.0681251,0.744587,1.49012e-06,0.336111,-0.355721,0,0.00620006,1.89207,5,0.1,8,9,0.407567,3.35003,0.505482,-6.70552e-06,5.96046e-06,1.49012e-06,1.49012e-05,0.000238419,-2.98023e-05,0.00725114,4.40565e-09,5,0.1,9,9,2.69108,2.90026,0.600007,-0.269079,-0.0038147,-1.78814e-05,0.301123,0.0386238,2.98023e-05,0.0180646,0.249215,5,0.1
0,9.1,2.35858,3.50793,0.600383,0.603203,-0.154882,0.00299504,-0.314116,-0.364617,0.0149347,0.00754794,1.8755,5,0.1,1,9.1,0.936981,-3.58578,0.586103,0.243036,0.0279654,-0.00212416,-0.295773,-0.0367016,0.00264496,0.0101173,0.00662583,5,0.1,2,9.1,-3.46289,-1.23162,0.56864,0.00579283,0.00235867,0.000475626,-0.00971556,-0.00382215,-0.000771135,0.00649025,8.31447e-06,5,0.1,3,9.1,-0.45927,-2.31671,0.642748,-0.00011106,-0.000508875,2.14204e-05,0.000426546,0.00208616,-0.000104308,0.00735228,1.68354e-07,5,0.1,4,9.1,-0.807283,-3.4336,0.577514,0.0112708,0.00765696,-0.00117747,0.0132881,0.0379682,-0.00430271,0.00669011,0.000259603,5,0.1,5,9.1,-2.04893,1.69574,0.726925,0.191446,0.0181302,0.0356389,0.590026,-0.025928,-0.0710413,0.0116423,0.115961,5,0.1,6,9.1,-0.841842,-1.18756,0.599999,-0.439513,-0.866026,0,0.0254996,0,0,0.0130587,2.15258,5,0.1,7,9.1,-1.79597,2.39786,0.500157,-0.036479,0.728025,0.0044548,0.28611,-0.0377595,0.0791661,0.00620006,1.89207,5,0.1,8,9.1,0.407567,3.35003,0.505482,-5.02914e-06,2.34693e-05,-1.02445e-06,1.86265e-05,0.00013411,-1.86265e-05,0.00725114,4.40565e-09,5,0.1,9,9.1,2.66568,2.90005,0.600006,-0.238853,-0.000682101,-1.49012e-05,0.304848,0.0241846,2.98023e-05,0.0180646,0.249215,5,0.1
0,9.2,2.41675,3.49065,0.600756,0.555068,-0.189883,0.00443161,-0.627637,-0.315547,0.0132024,0.00702503,1.76171,5,0.1,1,9.2,0.959794,-3.58317,0.585903,0.21303,0.0242949,-0.00185817,-0.306338,-0.0368357,0.00268221,0.0102665,0.00200687,5,0.1,2,9.2,-3.46236,-1.23141,0.568683,0.00474453,0.00194311,0.000391901,-0.0110865,-0.00447035,-0.00089407,0.00746047,7.56748e-06,5,0.1,3,9.2,-0.459279,-2.31675,0.64275,-7.15256e-05,-0.000315905,1.19209e-05,0.000357628,0.00166893,-5.96046e-05,0.00763295,1.19518e-07,5,0.1,4,9.2,-0.806112,-3.43268,0.577378,0.0119358,0.0105023,-0.00148863,0.000476837,0.0195503,-0.00196695,0.0066625,8.07247e-05,5,0.1,5,9.2,-2.0272,1.69739,0.730169,0.239432,0.0145942,0.0295475,0.361323,-0.0422597,-0.0526309,0.0113442,0.226695,5,0.1,6,9.2,-0.885593,-1.27416,0.599999,-0.434318,-0.866026,0,0.0963509,0,0,0.0115852,2.15791,5,0.1,7,9.2,-1.79833,2.47058,0.501062,-0.0125408,0.726229,0.0140756,0.18692,-0.0439882,0.10556,0.00672333,1.59071,5,0.1,8,9.2,0.407566,3.35003,0.505482,-3.72529e-06,2.98023e-05,-1.49012e-06,2.98023e-05,0.000119209,-2.98023e-05,0.00680195,3.74975e-09,5,0.1,9,9.2,2.64334,2.90008,0.600004,-0.207913,0.00107288,-1.3411e-05,0.314593,0.0109673,5.96046e-05,0.01832,0.243436,5,0.1
0,9.3,2.4685,3.47003,0.601267,0.475003,-0.222649,0.00577038,-0.925735,-0.31893,0.0129156,0.00702503,1.76171,5,0.1,1,9.3,0.979584,-3.58092,0.585731,0.182941,0.0207081,-0.00159545,-0.29612,-0.0349879,0.00258163,0.0102665,0.00200687,5,0.1,2,9.3,-3.46195,-1.23124,0.568718,0.00360347,0.00148267,0.000299606,-0.011459,-0.00464916,-0.000935048,0.00746047,7.56748e-06,5,0.1,3,9.3,-0.459285,-2.31678,0.64275,-3.83705e-05,-0.00016056,6.0536e-06,0.000301749,0.00141561,-5.58794e-05,0.00763295,1.19518e-07,5,0.1,4,9.3,-0.804931,-3.43155,0.577222,0.0115333,0.0117771,-0.00160122,-0.00803918,0.0063777,-0.000339001,0.0066625,8.07247e-05,5,0.1,5,9.3,-2.0017,1.69863,0.732891,0.267898,0.0100749,0.025142,0.202715,-0.045903,-0.0369996,0.0113442,0.226695,5,0.1,6,9.3,-0.928711,-1.36077,0.599999,-0.429079,-0.866026,0,0.0334345,0,0,0.0115852,2.15791,5,0.1,7,9.3,-1.79872,2.54332,0.503055,0.00346731,0.730604,0.0261844,0.110798,0.0827312,0.129167,0.00672333,1.59071,5,0.1,8,9.3,0.407566,3.35004,0.505481,-1.02445e-06,3.68804e-05,-3.91155e-06,2.23517e-05,4.47035e-05,-1.49012e-05,0.00680195,3.74975e-09,5,0.1,9,9.3,2.62409,2.9003,0.600003,-0.177452,0.00373758,-8.3819e-06,0.29552,0.0331849,3.72529e-05,0.01832,0.243436,5,0.1
0,9.4,2.5112,3.44631,0.601903,0.378156,-0.250107,0.00690371,-0.97692,-0.21553,0.00926852,0.00728355,1.65606,5,0.1,1,9.4,0.99641,-3.57902,0.585584,0.153726,0.0172853,-0.0013411,-0.288367,-0.0334978,0.0025034,0.00879836,0.000943164,5,0.1,2,9.4,-3.46164,-1.23111,0.568743,0.00249147,0.00103116,0.000208616,-0.0106096,-0.00423193,-0.000834465,0.00767032,6.38912e-06,5,0.1,3,9.4,-0.459287,-2.31679,0.642751,-1.19209e-05,-3.57628e-05,1.49012e-06,0.000238419,0.000953674,-5.96046e-05,0.00663579,6.15971e-08,5,0.1,4,9.4,-0.803829,-3.43036,0.577063,0.0104204,0.0118613,-0.00156909,-0.0138581,-0.00429153,0.000953674,0.00794933,3.06869e-05,5,0.1,5,9.4,-1.97419,1.69942,0.735236,0.279245,0.00577569,0.0218824,0.0221133,-0.0386834,-0.0293553,0.0121161,0.20129,5,0.1,6,9.4,-0.971388,-1.44737,0.599999,-0.423358,-0.866026,0,0.0987053,0,0,0.0112584,2.09048,5,0.1,7,9.4,-1.79808,2.61667,0.506308,0.00663996,0.734425,0.0386149,-0.0547767,-0.0411272,0.113994,0.00630822,1.30575,5,0.1,8,9.4,0.407566,3.35004,0.505481,7.45058e-07,3.57628e-05,-4.47035e-06,1.49012e-05,0,0,0.00723661,2.7008e-09,5,0.1,9,9.4,2.60779,2.90082,0.600003,-0.148678,0.00624657,-4.47035e-06,0.28038,0.0116825,2.98023e-05,0.0139892,1.22113,5,0.1
0,9.5,2.54407,3.42022,0.602639,0.280027,-0.271127,0.00779359,-0.929594,-0.188559,0.00802055,0.00728355,1.65606,5,0.1,1,9.5,1.01037,-3.57745,0.585462,0.125875,0.0140686,-0.00109943,-0.268124,-0.0307709,0.00232831,0.00879836,0.000943164,5,0.1,2,9.5,-3.46144,-1.23103,0.56876,0.00147596,0.000623986,0.000127871,-0.00953674,-0.0038445,-0.000771135,0.00767032,6.38912e-06,5,0.1,3,9.5,-0.459287,-2.31679,0.642751,8.84756e-06,4.99189e-05,-3.81842e-06,0.000178814,0.000745058,-4.09782e-05,0.00663579,6.15971e-08,5,0.1,4,9.5,-0.802862,-3.42921,0.576912,0.00885418,0.0110671,-0.00143098,-0.0170358,-0.0111461,0.00174716,0.00794933,3.06869e-05,5,0.1,5,9.5,-1.94634,1.69982,0.737291,0.275889,0.00253879,0.0193517,-0.0896454,-0.0255704,-0.0221767,0.0121161,0.20129,5,0.1,6,9.5,-1.01339,-1.53397,0.599999,-0.417591,-0.866026,0,0.0404678,0,0,0.0112584,2.09048,5,0.1,7,9.5,-1.79788,2.69008,0.51075,-0.00564568,0.734343,0.0501798,-0.226945,0.000864267,0.111632,0.00630822,1.30575,5,0.1,8,9.5,0.407566,3.35005,0.50548,2.00234e-06,3.35276e-05,-4.37722e-06,9.31323e-06,-5.96046e-05,3.72529e-06,0.00723661,2.7008e-09,5,0.1,9,9.5,2.59318,2.9015,0.600002,-0.153122,0.00699982,-1.95578e-06,-0.299826,-0.00932813,1.86265e-05,0.0139892,1.22113,5,0.1
0,9.6,2.56785,3.39232,0.603453,0.200468,-0.285077,0.00842214,-0.635147,-0.0792742,0.00423193,0.0106501,1.51098,5,0.1,1,9.6,1.02166,-3.5762,0.585364,0.100201,0.0111341,-0.000876188,-0.244796,-0.0276566,0.00208616,0.00843775,0.000775021,5,0.1,2,9.6,-3.46134,-1.23098,0.568769,0.000607967,0.000271201,5.81145e-05,-0.0077486,-0.00309944,-0.000655651,0.011629,4.05393e-06,5,0.1,3,9.6,-0.459286,-2.31678,0.64275,2.38419e-05,0.000113249,-7.45058e-06,0.000104308,0.000476837,-2.98023e-05,0.0111444,2.66301e-08,5,0.1,4,9.6,-0.802064,-3.42817,0.576779,0.00708848,0.00972152,-0.00123084,-0.0178814,-0.0154972,0.00220537,0.0100013,2.50617e-05,5,0.1,5,9.6,-1.91938,1.69997,0.739121,0.261384,0.000679493,0.0172868,-0.199497,-0.0118613,-0.0197291,0.0126598,0.19136,5,0.1,6,9.6,-1.05488,-1.62058,0.599999,-0.411195,-0.866026,0,0.104129,0,0,0.0081186,1.61681,5,0.1,7,9.6,-1.8,2.76333,0.516284,-0.0406504,0.728047,0.0599757,-0.456095,-0.153661,0.0802875,0.0091948,1.02887,5,0.1,8,9.6,0.407566,3.35005,0.50548,2.23517e-06,2.98023e-05,-2.98023e-06,1.49012e-05,-0.000238419,-2.98023e-05,0.0099069,3.70592e-09,5,0.1,9,9.6,2.57589,2.90205,0.600002,-0.196308,0.00267029,0,-0.509858,-0.0815392,0,0.0124363,1.01688,5,0.1
0,9.7,2.58519,3.36343,0.604316,0.152685,-0.2923,0.00880565,-0.261232,-0.0521541,0.00303239,0.0106501,1.51098,5,0.1,1,9.7,1.0305,-3.57521,0.585286,0.0770664,0.00852868,-0.000678282,-0.217177,-0.0243783,0.00185892,0.00843775,0.000775021,5,0.1,2,9.7,-3.46132,-1.23097,0.568772,-9.38773e-05,-1.13621e-05,-1.39698e-06,-0.00619888,-0.00251085,-0.000525266,0.011629,4.05393e-06,5,0.1,3,9.7,-0.459283,-2.31677,0.642749,3.20841e-05,0.000151992,-9.87202e-06,6.14673e-05,0.000298023,-1.49012e-05,0.0111444,2.66301e-08,5,0.1,4,9.7,-0.801445,-3.42728,0.576667,0.00529476,0.00804625,-0.000997819,-0.0176728,-0.0175983,0.00240654,0.0100013,2.50617e-05,5,0.1,5,9.7,-1.89434,1.69999,0.740758,0.238537,-2.42144e-05,0.0154933,-0.255719,-0.00314415,-0.0166595,0.0126598,0.19136,5,0.1,6,9.7,-1.09557,-1.70717,0.599999,-0.403047,-0.865869,0,0.0778586,0.00625104,0,0.0081186,1.61681,5,0.1,7,9.7,-1.80685,2.83547,0.522676,-0.100203,0.715056,0.0676834,-0.687547,-0.13724,0.0694655,0.0091948,1.02887,5,0.1,8,9.7,0.407567,3.35005,0.50548,3.44589e-06,8.19564e-06,-5.02914e-06,7.45058e-06,-0.000178814,-7.45058e-06,0.0099069,3.70592e-09,5,0.1,9,9.7,2.55324,2.90184,0.600002,-0.259825,-0.00824593,0,-0.707909,-0.15907,0,0.0124363,1.01688,5,0.1
0,9.8,2.6,3.33407,0.605207,0.151658,-0.293332,0.00896156,0.215769,0.0400543,-0.000208616,0.00628712,1.28168,5,0.1,1,9.8,1.03717,-3.57448,0.585227,0.0568807,0.00627041,-0.000503659,-0.186026,-0.0207424,0.00157952,0.0102301,0.00061166,5,0.1,2,9.8,-3.46135,-1.23098,0.568769,-0.000619888,-0.000226498,-4.61936e-05,-0.00429153,-0.00178814,-0.000357628,0.00731824,1.8939e-06,5,0.1,3,9.8,-0.459279,-2.31675,0.642748,3.65078e-05,0.000172853,-1.04308e-05,1.49012e-05,0.000119209,-2.98023e-05,0.00697206,9.29182e-09,5,0.1,4,9.8,-0.801002,-3.42656,0.57658,0.00360757,0.00626445,-0.000758469,-0.0158548,-0.0175238,0.00232458,0.00690667,2.2836e-05,5,0.1,5,9.8,-1.87185,1.69998,0.742225,0.210625,-0.000110269,0.013867,-0.300407,0.000655651,-0.0162423,0.0101468,0.18895,5,0.1,6,9.8,-1.1354,-1.79368,0.599999,-0.392398,-0.863525,0,0.148416,0.0500083,0,0.0108951,1.21515,5,0.1,7,9.8,-1.82037,2.90611,0.529744,-0.169852,0.695372,0.0731289,-0.669837,-0.277877,0.036478,0.00785811,0.77715,5,0.1,8,9.8,0.407567,3.35005,0.505479,3.72529e-06,-5.96046e-06,-5.96046e-06,0,-0.000119209,0,0.00718173,2.42406e-09,5,0.1,9,9.8,2.52375,2.9,0.600002,-0.328749,-0.0304639,-1.49012e-06,-0.631571,-0.276446,2.98023e-05,0.0143689,0.816681,5,0.1
0,9.9,2.61719,3.30493,0.606101,0.199703,-0.289105,0.00892105,0.672951,0.0551194,-0.000927597,0.00628712,1.28168,5,0.1,1,9.9,1.04198,-3.57395,0.585184,0.0397341,0.00436381,-0.000357069,-0.156455,-0.017345,0.00134856,0.0102301,0.00061166,5,0.1,2,9.9,-3.46143,-1.23102,0.568763,-0.000979006,-0.000377372,-7.64616e-05,-0.00289083,-0.0012219,-0.000242144,0.00731824,1.8939e-06,5,0.1,3,9.9,-0.459276,-2.31673,0.642747,3.66941e-05,0.000178069,-1.22935e-05,-1.11759e-05,0,-1.49012e-05,0.00697206,9.29182e-09,5,0.1,4,9.9,-0.800717,-3.42602,0.576515,0.00210805,0.00453331,-0.000531226,-0.0139438,-0.0168234,0.00219047,0.00690667,2.2836e-05,5,0.1,5,9.9,-1.85231,1.69998,0.743534,0.179952,-3.81842e-05,0.0123295,-0.310853,0.000752509,-0.0147782,0.0101468,0.18895,5,0.1,6,9.9,-1.17397,-1.88,0.599999,-0.379191,-0.863922,0,0.131145,-0.0170097,0,0.0108951,1.21515,5,0.1,7,9.9,-1.84084,2.97435,0.537231,-0.240054,0.669795,0.0764342,-0.698291,-0.258982,0.0261217,0.00785811,0.77715,5,0.1,8,9.9,0.407567,3.35005,0.505478,3.53903e-06,-1.60187e-05,-5.4948e-06,-3.72529e-06,-7.45058e-05,1.11759e-05,0.00718173,2.42406e-09,5,0.1,9,9.9,2.48759,2.8953,0.600002,-0.394608,-0.0656866,9.31323e-07,-0.645384,-0.40096,1.49012e-05,0.0143689,0.816681,5,0.1
