id,t,px,py,pz,vx,vy,vz,ax,ay,az,planning_time,qp_cost,planning_report,size,id,t,px,py,pz,vx,vy,vz,ax,ay,az,planning_time,qp_cost,planning_report,size,id,t,px,py,pz,vx,vy,vz,ax,ay,az,planning_time,qp_cost,planning_report,size,id,t,px,py,pz,vx,vy,vz,ax,ay,az,planning_time,qp_cost,planning_report,size,id,t,px,py,pz,vx,vy,vz,ax,ay,az,planning_time,qp_cost,planning_report,size,id,t,px,py,pz,vx,vy,vz,ax,ay,az,planning_time,qp_cost,planning_report,size,id,t,px,py,pz,vx,vy,vz,ax,ay,az,planning_time,qp_cost,planning_report,size,id,t,px,py,pz,vx,vy,vz,ax,ay,az,planning_time,qp_cost,planning_report,size,id,t,px,py,pz,vx,vy,vz,ax,ay,az,planning_time,qp_cost,planning_report,size,id,t,px,py,pz,vx,vy,vz,ax,ay,az,planning_time,qp_cost,planning_report,size
0,0,1.42096,-3.21142,0.594241,0,0,0,0,0,0,0.00868482,2.57621,5,0.1,1,0,-1.22159,1.53453,0.582756,0,0,0,0,0,0,0.0078854,3.51602,5,0.1,2,0,-1.97985,2.93652,0.560658,0,0,0,0,0,0,0.0143472,0.443588,5,0.1,3,0,1.10291,-1.39788,0.651148,0,0,0,0,0,0,0.0104849,3.51219,5,0.1,4,0,0.979056,-4.11981,0.593834,0,0,0,0,0,0,0.0223366,3.5122,5,0.1,5,0,1.83023,3.03827,0.641596,0,0,0,0,0,0,0.00784552,3.51219,5,0.1,6,0,2.32444,3.5243,0.691374,0,0,0,0,0,0,0.0133748,3.51219,5,0.1,7,0,-3.42022,3.55303,0.651257,0,0,0,0,0,0,0.0077532,0.810351,5,0.1,8,0,4.14665,-4.03722,0.502728,0,0,0,0,0,0,0.025372,3.5122,5,0.1,9,0,4.04637,-2.18933,0.533987,0,0,0,0,0,0,0.0137966,3.51219,5,0.1
0,0.1,1.42088,-3.20963,0.594247,-0.00210255,0.0507168,0.000170432,-0.0373721,0.901639,0.00303239,0.00868482,2.57621,5,0.1,1,0.1,-1.2197,1.53437,0.582771,0.0538472,-0.00450313,0.000420678,0.95728,-0.080049,0.00748411,0.0078854,3.51602,5,0.1,2,0.1,-1.97966,2.9358,0.560699,0.0053294,-0.0203438,0.00116574,0.0947416,-0.361681,0.0207238,0.0143472,0.443588,5,0.1,3,0.1,1.10088,-1.39737,0.651124,-0.0575036,0.014339,-0.000667851,-1.02228,0.254914,-0.0118725,0.0104849,3.51219,5,0.1,4,0.1,0.979574,-4.11779,0.593839,0.0147044,0.0574157,0.000135228,0.261407,1.02073,0.00239909,0.0223366,3.5122,5,0.1,5,0.1,1.82832,3.03911,0.641562,-0.0541676,0.0240345,-0.000988226,-0.962988,0.427261,-0.0175647,0.00784552,3.51219,5,0.1,6,0.1,2.32271,3.52313,0.691411,-0.0491042,-0.033173,0.00103768,-0.872985,-0.589728,0.0184476,0.0133748,3.51219,5,0.1,7,0.1,-3.42048,3.55206,0.651154,-0.00727661,-0.027366,-0.00294372,-0.129357,-0.486493,-0.0523329,0.0077532,0.810351,5,0.1,8,0.1,4.14643,-4.03515,0.502711,-0.00637621,0.0589229,-0.000482611,-0.113368,1.04752,-0.00857562,0.025372,3.5122,5,0.1,9,0.1,4.04608,-2.18727,0.534013,-0.00843853,0.0586599,0.000746083,-0.149965,1.04284,0.0132658,0.0137966,3.51219,5,0.1
0,0.2,1.42046,-3.19933,0.594282,-0.00664592,0.160289,0.000539422,-0.0498891,1.20211,0.00405312,0.00861491,2.11366,5,0.1,1,0.2,-1.20876,1.53346,0.582856,0.170183,-0.0142336,0.00132918,1.27637,-0.106692,0.0100136,0.00988949,3.28224,5,0.1,2,0.2,-1.97858,2.93167,0.560936,0.0168443,-0.0642955,0.00368506,0.126362,-0.482321,0.0276268,0.0142256,0.363939,5,0.1,3,0.2,1.0892,-1.39446,0.650988,-0.181741,0.0453174,-0.00211149,-1.3631,0.339866,-0.015825,0.010564,2.92579,5,0.1,4,0.2,0.982561,-4.10612,0.593866,0.0464723,0.18146,0.000427663,0.348568,1.36089,0.00318885,0.0208773,0.916332,5,0.1,5,0.2,1.81732,3.044,0.641361,-0.171196,0.0759602,-0.00312328,-1.28394,0.569701,-0.0234246,0.0094125,2.9258,5,0.1,6,0.2,2.31273,3.5164,0.691621,-0.155193,-0.104845,0.00327975,-1.16396,-0.786185,0.0245869,0.0154576,2.92663,5,0.1,7,0.2,-3.42195,3.54651,0.650556,-0.0229955,-0.0864863,-0.00930429,-0.172496,-0.648737,-0.0697672,0.00566679,0.664849,5,0.1,8,0.2,4.14513,-4.02318,0.502613,-0.0201583,0.186229,-0.00152588,-0.151157,1.39642,-0.0114143,0.0270555,2.92582,5,0.1,9,0.2,4.04436,-2.17535,0.534165,-0.0266671,0.185394,0.00235885,-0.200033,1.39046,0.0176728,0.0113836,2.92579,5,0.1
0,0.3,1.41952,-3.17663,0.594358,-0.0123676,0.298186,0.00100397,-0.0610203,1.47103,0.00495464,0.00861491,2.11366,5,0.1,1,0.3,-1.18619,1.53144,0.583045,0.272953,-0.0265036,0.00247927,0.787772,-0.131115,0.0122823,0.00988949,3.28224,5,0.1,2,0.3,-1.97619,2.92256,0.561458,0.0313384,-0.119621,0.00685453,0.154607,-0.590146,0.0338107,0.0142256,0.363939,5,0.1,3,0.3,1.06345,-1.38804,0.650689,-0.338508,0.0844054,-0.00393167,-1.6752,0.417694,-0.0194535,0.010564,2.92579,5,0.1,4,0.3,0.989012,-4.08128,0.593928,0.0827446,0.313342,0.00084145,0.360537,1.23456,0.0047572,0.0208773,0.916332,5,0.1,5,0.3,1.79306,3.05476,0.640918,-0.318863,0.141481,-0.00581732,-1.57796,0.700146,-0.0287853,0.0094125,2.9258,5,0.1,6,0.3,2.29082,3.50158,0.692088,-0.286863,-0.194199,0.00616964,-1.39146,-0.947297,0.0313222,0.0154576,2.92663,5,0.1,7,0.3,-3.42521,3.53426,0.649238,-0.042782,-0.1609,-0.0173078,-0.21106,-0.7938,-0.0853799,0.00566679,0.664849,5,0.1,8,0.3,4.14227,-3.99679,0.502404,-0.0375427,0.346839,-0.00262605,-0.185758,1.71635,-0.0102483,0.0270555,2.92582,5,0.1,9,0.3,4.04058,-2.14908,0.534499,-0.0496708,0.345309,0.00439202,-0.24578,1.70884,0.0217296,0.0113836,2.92579,5,0.1
0,0.4,1.41798,-3.13958,0.594483,-0.018236,0.439757,0.00148118,-0.0538826,1.29771,0.00435114,0.00912104,1.67235,5,0.1,1,0.4,-1.15571,1.52815,0.583353,0.329605,-0.0391364,0.00366122,0.355184,-0.115871,0.010848,0.00799888,3.34599,5,0.1,2,0.4,-1.9723,2.9077,0.56231,0.0462174,-0.176418,0.0101089,0.136375,-0.520468,0.0298321,0.0122685,0.287952,5,0.1,3,0.4,1.02137,-1.37754,0.6502,-0.499907,0.124648,-0.00580698,-1.48112,0.36937,-0.0171661,0.0144629,2.51101,5,0.1,4,0.4,0.998999,-4.04426,0.594037,0.115773,0.421262,0.00132173,0.288308,0.895023,0.00455976,0.0173642,0.677014,5,0.1,5,0.4,1.75342,3.07235,0.640195,-0.470895,0.208938,-0.00859052,-1.39517,0.619054,-0.0254512,0.00848711,2.51008,5,0.1,6,0.4,2.25533,3.47752,0.69286,-0.419945,-0.284994,0.00921488,-1.2126,-0.828981,0.028193,0.0158021,2.52746,5,0.1,7,0.4,-3.43053,3.51427,0.647088,-0.0630975,-0.237298,-0.0255242,-0.186205,-0.700116,-0.0753403,0.00672657,0.526035,5,0.1,8,0.4,4.13761,-3.95367,0.502094,-0.0554442,0.512207,-0.00351816,-0.164032,1.51753,-0.00736117,0.028651,2.51452,5,0.1,9,0.4,4.03441,-2.10615,0.535045,-0.0733495,0.509953,0.00648499,-0.217438,1.51086,0.0192523,0.0130922,2.51362,5,0.1
0,0.5,1.41588,-3.089,0.594653,-0.0237014,0.571425,0.00192281,-0.0527352,1.27107,0.00426918,0.00912104,1.67235,5,0.1,1,0.5,-1.12199,1.52364,0.583775,0.335926,-0.051029,0.00477415,-0.172384,-0.115916,0.0108406,0.00799888,3.34599,5,0.1,2,0.5,-1.96698,2.88741,0.563472,0.0600539,-0.229228,0.0131359,0.133559,-0.509799,0.0292212,0.0122685,0.287952,5,0.1,3,0.5,0.963856,-1.36318,0.649531,-0.649508,0.162657,-0.00757435,-1.43776,0.371255,-0.0172742,0.0144629,2.51101,5,0.1,4,0.5,1.012,-3.99785,0.594193,0.143858,0.504457,0.00179978,0.260882,0.736281,0.00474975,0.0173642,0.677014,5,0.1,5,0.5,1.69915,3.09643,0.639205,-0.614463,0.272641,-0.0112097,-1.40236,0.622243,-0.0255816,0.00848711,2.51008,5,0.1,6,0.5,2.20726,3.44475,0.693932,-0.539979,-0.370331,0.0122615,-1.13402,-0.833586,0.0309385,0.0158021,2.52746,5,0.1,7,0.5,-3.43778,3.48697,0.644152,-0.0819903,-0.308335,-0.0331678,-0.182375,-0.685781,-0.0737868,0.00672657,0.526035,5,0.1,8,0.5,4.13122,-3.89486,0.501716,-0.072328,0.662299,-0.00394834,-0.164956,1.41534,-0.00153109,0.028651,2.51452,5,0.1,9,0.5,4.02596,-2.04757,0.535793,-0.0957206,0.659956,0.00846563,-0.218511,1.41945,0.019338,0.0130922,2.51362,5,0.1
0,0.6,1.41327,-3.02598,0.594865,-0.0283301,0.682968,0.00229776,-0.0379086,0.914454,0.00306964,0.00966603,1.24504,5,0.1,1,0.6,-1.08976,1.518,0.584303,0.30486,-0.0612885,0.00573248,-0.408053,-0.0848174,0.00792742,0.00850953,3.41846,5,0.1,2,0.6,-1.96036,2.86213,0.564921,0.0717759,-0.273967,0.0156999,0.0960827,-0.366688,0.0210106,0.0153003,0.214376,5,0.1,3,0.6,0.892278,-1.34518,0.648694,-0.775142,0.19556,-0.0091061,-1.02487,0.273049,-0.0126958,0.0101853,2.30677,5,0.1,4,0.6,1.02756,-3.9442,0.594395,0.165841,0.563109,0.00222921,0.170052,0.415087,0.00363588,0.01896,0.471785,5,0.1,5,0.6,1.63118,3.12659,0.637965,-0.738758,0.32779,-0.0134766,-1.03128,0.457644,-0.0188351,0.0118653,2.25329,5,0.1,6,0.6,2.14809,3.40384,0.695305,-0.637585,-0.444168,0.0150934,-0.780821,-0.61214,0.0243485,0.0182019,2.25702,5,0.1,7,0.6,-3.44683,3.45297,0.640494,-0.09799,-0.368518,-0.0396445,-0.131249,-0.493169,-0.0530481,0.00861462,0.391625,5,0.1,8,0.6,4.12322,-3.82218,0.501321,-0.0869513,0.783861,-0.00388175,-0.121355,0.970721,0.00265241,0.0309434,2.32928,5,0.1,9,0.6,4.01537,-1.9751,0.536729,-0.115085,0.782263,0.010179,-0.160694,0.980675,0.0142157,0.0128557,2.32487,5,0.1
0,0.7,1.41025,-2.95319,0.59511,-0.0319688,0.77076,0.00259271,-0.03279,0.791192,0.00265613,0.00966603,1.24504,5,0.1,1,0.7,-1.06177,1.51144,0.584916,0.25236,-0.0696618,0.00651469,-0.557788,-0.0775754,0.00724569,0.00850953,3.41846,5,0.1,2,0.7,-1.95271,2.83293,0.566594,0.0810001,-0.309172,0.017717,0.0831187,-0.317276,0.0181831,0.0153003,0.214376,5,0.1,3,0.7,0.810681,-1.32425,0.647719,-0.846774,0.222966,-0.010381,-0.425406,0.257783,-0.0119992,0.0101853,2.30677,5,0.1,4,0.7,1.04497,-3.88596,0.594636,0.181649,0.599576,0.00258535,0.136301,0.288308,0.00329316,0.01896,0.471785,5,0.1,5,0.7,1.55283,3.16168,0.636522,-0.821028,0.373728,-0.0153667,-0.600815,0.432163,-0.0177808,0.0118653,2.25329,5,0.1,6,0.7,2.0802,3.3563,0.696933,-0.720719,-0.506377,0.0173932,-0.818565,-0.591353,0.0205263,0.0182019,2.25702,5,0.1,7,0.7,-3.45727,3.41369,0.636269,-0.11059,-0.415868,-0.0447378,-0.113562,-0.426769,-0.0459068,0.00861462,0.391625,5,0.1,8,0.7,4.11391,-3.74,0.500952,-0.0991337,0.849799,-0.00345791,-0.11459,0.373557,0.00554696,0.0309434,2.32928,5,0.1,9,0.7,4.00304,-1.89302,0.537819,-0.131211,0.849245,0.0116057,-0.151694,0.383049,0.0134148,0.0128557,2.32487,5,0.1
0,0.8,1.40691,-2.8727,0.595381,-0.0345409,0.83279,0.00280142,-0.0171661,0.415444,0.00140071,0.010116,1.1827,5,0.1,1,0.8,-1.03906,1.50414,0.585599,0.205854,-0.0759453,0.00710189,-0.330925,-0.0445843,0.00414252,0.00681694,3.33788,5,0.1,2,0.8,-1.94425,2.80064,0.568445,0.0875205,-0.334054,0.019142,0.043571,-0.166535,0.00956655,0.0131967,0.151365,5,0.1,3,0.8,0.724684,-1.3008,0.646627,-0.866026,0.244194,-0.0113696,0,0.154793,-0.00721216,0.0150014,2.22655,5,0.1,4,0.8,1.06369,-3.82494,0.594909,0.191465,0.616497,0.00285506,0.053525,0.0334978,0.00196695,0.0200164,0.316189,5,0.1,5,0.8,1.46849,3.20098,0.634906,-0.858358,0.409311,-0.0168309,-0.153363,0.259638,-0.0106692,0.00944641,2.15219,5,0.1,6,0.8,2.0044,3.30301,0.698761,-0.790501,-0.555539,0.0190109,-0.532329,-0.363588,0.0110865,0.0155401,2.09005,5,0.1,7,0.8,-3.46882,3.37027,0.631597,-0.119489,-0.449324,-0.0483364,-0.0597239,-0.224233,-0.0241101,0.00684535,0.276521,5,0.1,8,0.8,4.10349,-3.65389,0.500637,-0.108576,0.866026,-0.00282228,-0.0686646,0,0.00691414,0.0243848,2.26289,5,0.1,9,0.8,3.98925,-1.80694,0.539039,-0.143701,0.866026,0.0127092,-0.0910759,0,0.00807643,0.0157448,2.25593,5,0.1
0,0.9,1.40322,-2.78782,0.595668,-0.040542,0.860196,0.00292826,-0.0913143,0.141561,0.000998378,0.010116,1.1827,5,0.1,1,0.9,-1.01979,1.49632,0.58633,0.185804,-0.0802649,0.00750329,0.0338629,-0.037469,0.00347942,0.00681694,3.33788,5,0.1,2,0.9,-1.93529,2.76644,0.570404,0.0914695,-0.349147,0.0200087,0.0312254,-0.119299,0.00685453,0.0131967,0.151365,5,0.1,3,0.9,0.638082,-1.27558,0.645453,-0.866026,0.260196,-0.0121154,3.72529e-06,0.148781,-0.00693649,0.0150014,2.22655,5,0.1,4,0.9,1.08308,-3.76319,0.595204,0.195955,0.617177,0.00303797,0.0283793,-0.0410527,0.00154227,0.0200164,0.316189,5,0.1,5,0.9,1.38218,3.24326,0.633168,-0.865546,0.436157,-0.0179341,-0.0191703,0.249684,-0.0102594,0.00944641,2.15219,5,0.1,6,0.9,1.92284,3.24555,0.700717,-0.838171,-0.593408,0.0200937,-0.385165,-0.355259,0.00946224,0.0155401,2.09005,5,0.1,7,0.9,-3.48105,3.32426,0.626648,-0.1249,-0.469644,-0.0505212,-0.0427514,-0.160635,-0.0172742,0.00684535,0.276521,5,0.1,8,0.9,4.09227,-3.56729,0.50039,-0.11568,0.866026,-0.00211336,-0.0661314,0,0.00709295,0.0243848,2.26289,5,0.1,9,0.9,3.9744,-1.72033,0.540352,-0.153112,0.866026,0.0135434,-0.0874549,0,0.00775233,0.0157448,2.25593,5,0.1
0,1,1.39866,-2.70144,0.595964,-0.0507742,0.864482,0.00298023,-0.104487,-0.0306368,-5.96046e-05,0.00741648,0.857747,5,0.1,1,1,-1,1.48815,0.587094,0.219898,-0.0827134,0.00773072,0.616819,-0.00858307,0.00077486,0.00858708,2.99992,5,0.1,2,1,-1.92604,2.73112,0.572429,0.0930667,-0.355256,0.0203595,-0.00202656,0.00762939,-0.000417233,0.0146845,0.202807,5,0.1,3,1,0.551479,-1.24893,0.644212,-0.866026,0.271168,-0.0126272,0,0.059247,-0.00280142,0.0118729,2.22175,5,0.1,4,1,1.10273,-3.70195,0.595514,0.195834,0.604802,0.00313818,-0.0359416,-0.22018,0.000327826,0.0276179,0.964122,5,0.1,5,1,1.29559,3.28793,0.631331,-0.866026,0.454575,-0.0186905,0,0.0997782,-0.00411272,0.0165128,1.88778,5,0.1,6,1,1.83757,3.18471,0.702764,-0.862169,-0.620073,0.0207201,-0.0771284,-0.151157,0.00226498,0.0175018,2.03031,5,0.1,7,1,-3.49369,3.27674,0.621537,-0.127095,-0.477874,-0.051406,0.00286102,0.010252,0.00110269,0.00625775,0.188045,5,0.1,8,1,4.08043,-3.48069,0.500213,-0.120556,0.866026,-0.00143498,-0.026226,0,0.0064075,0.0256651,2.26195,5,0.1,9,1,3.95873,-1.63373,0.541739,-0.159556,0.866026,0.0141144,-0.0348091,-5.96046e-05,0.00306964,0.0114915,2.25426,5,0.1
0,1.1,1.39301,-2.61501,0.596262,-0.0626931,0.864485,0.00296747,-0.125103,-0.00669062,-0.000301749,0.00741648,0.857747,5,0.1,1,1.1,-0.973616,1.47983,0.587871,0.318072,-0.0835603,0.00780765,1.23641,-0.00461191,0.000409782,0.00858708,2.99992,5,0.1,2,1.1,-1.91674,2.69549,0.574462,0.0926582,-0.358148,0.0202721,-0.00955909,-0.0426024,-0.00207871,0.0146845,0.202807,5,0.1,3,1.1,0.464877,-1.22146,0.642933,-0.866026,0.278389,-0.0129672,3.57628e-06,0.0689104,-0.003241,0.0118729,2.22175,5,0.1,4,1.1,1.12213,-3.64199,0.595829,0.191954,0.598681,0.00316231,-0.0481233,0.0439882,3.35276e-05,0.0276179,0.964122,5,0.1,5,1.1,1.20899,3.33394,0.629439,-0.865965,0.46553,-0.0191419,0.00241399,0.0947416,-0.00390038,0.0165128,1.88778,5,0.1,6,1.1,1.75112,3.12181,0.704851,-0.865625,-0.638409,0.0210267,-0.003241,-0.177339,0.00274554,0.0175018,2.03031,5,0.1,7,1.1,-3.50638,3.22903,0.616404,-0.126528,-0.475785,-0.0511813,0.0131279,0.048995,0.00527129,0.00625775,0.188045,5,0.1,8,1.1,4.06821,-3.39408,0.500099,-0.123772,0.866026,-0.000859238,-0.0308156,0,0.00505149,0.0256651,2.26195,5,0.1,9,1.1,3.94256,-1.54713,0.543169,-0.163798,0.866025,0.0144889,-0.0405014,1.49012e-05,0.00357255,0.0114915,2.25426,5,0.1
0,1.2,1.38614,-2.52883,0.596556,-0.0742823,0.856102,0.00290126,-0.100255,-0.194311,-0.00107288,0.00991966,0.605332,5,0.1,1,1.2,-0.935351,1.47148,0.588651,0.447814,-0.0830084,0.00775456,1.27506,0.0181794,-0.00169873,0.00667554,2.60185,5,0.1,2,1.2,-1.90756,2.65953,0.576471,0.0905901,-0.359869,0.0198215,-0.0340343,0.0245571,-0.00745058,0.0117039,0.146985,5,0.1,3,1.2,0.378274,-1.19337,0.641624,-0.866025,0.282198,-0.0131473,-1.43051e-05,-0.00405312,0.000149012,0.0131414,2.22064,5,0.1,4,1.2,1.14102,-3.58183,0.596144,0.185135,0.60426,0.00312477,-0.0925064,0.0280142,-0.00089407,0.0175769,0.26385,5,0.1,5,1.2,1.12242,3.38079,0.627513,-0.865057,0.469381,-0.0193,0.0192523,-0.0346899,0.00143051,0.00727039,1.42784,5,0.1,6,1.2,1.66462,3.05729,0.706961,-0.863463,-0.649065,0.0210792,0.0511408,-0.0089407,-0.0025034,0.0133845,2.0213,5,0.1,7,1.2,-3.51892,3.18187,0.611331,-0.123698,-0.465178,-0.0500411,0.0466108,0.174761,0.0188053,0.00886255,0.125042,5,0.1,8,1.2,4.05572,-3.30748,0.500036,-0.125492,0.866026,-0.000429153,0.00143051,0,0.00348687,0.0265212,2.26172,5,0.1,9,1.2,3.92604,-1.46053,0.544631,-0.166035,0.866026,0.0146866,0.00238419,-5.96046e-05,-0.000238419,0.0122179,2.25388,5,0.1
0,1.3,1.3782,-2.44408,0.596841,-0.0844907,0.83912,0.0027949,-0.0971407,-0.180662,-0.00114739,0.00991966,0.605332,5,0.1,1,1.3,-0.883698,1.46326,0.589419,0.587943,-0.0813928,0.00760378,1.43947,0.0175089,-0.0016354,0.00667554,2.60185,5,0.1,2,1.3,-1.89867,2.62359,0.578417,0.0872262,-0.359114,0.019085,-0.0360608,0.00873208,-0.00789762,0.0117039,0.146985,5,0.1,3,1.3,0.291672,-1.16509,0.640306,-0.866025,0.283784,-0.0132242,1.78814e-06,0.0195652,-0.000938773,0.0131414,2.22064,5,0.1,4,1.3,1.15908,-3.52204,0.596452,0.176136,0.584412,0.00303499,-0.0928566,-0.400424,-0.00100583,0.0175769,0.26385,5,0.1,5,1.3,1.03593,3.42759,0.625589,-0.865189,0.46639,-0.0191767,-0.000327826,-0.0448972,0.00184774,0.00727039,1.42784,5,0.1,6,1.3,1.57831,2.99215,0.709062,-0.863923,-0.654808,0.0209842,-0.0271201,-0.0674427,-0.000551343,0.0133845,2.0213,5,0.1,7,1.3,-3.53106,3.13621,0.606419,-0.119093,-0.447903,-0.0481823,0.0493377,0.185207,0.0199229,0.00886255,0.125042,5,0.1,8,1.3,4.04314,-3.22088,0.500008,-0.126262,0.866026,-0.000156555,-0.00953674,0,0.00201538,0.0265212,2.26172,5,0.1,9,1.3,3.9094,-1.37392,0.546102,-0.166975,0.866025,0.0147677,-0.0116229,1.49012e-05,0.00100955,0.0122179,2.25388,5,0.1
0,1.4,1.36931,-2.36128,0.597114,-0.0925601,0.814027,0.00265688,-0.0596046,-0.34523,-0.00163913,0.00932602,0.416501,5,0.1,1,1.4,-0.81803,1.45523,0.590169,0.72054,-0.0789434,0.00737458,1.14876,0.0338554,-0.00315905,0.00757603,2.41049,5,0.1,2,1.4,-1.89015,2.58782,0.580281,0.0829101,-0.355041,0.0181392,-0.0520945,0.0851154,-0.0113845,0.0114843,0.201102,5,0.1,3,1.4,0.205069,-1.13669,0.638983,-0.866025,0.283355,-0.0132054,0,-0.0395179,0.00181794,0.0129503,2.22155,5,0.1,4,1.4,1.1762,-3.46614,0.59675,0.165665,0.5288,0.00290722,-0.120163,-0.690103,-0.00160933,0.066294,0.22174,5,0.1,5,1.4,0.949521,3.47385,0.623686,-0.861327,0.45709,-0.0187933,0.0939667,-0.154376,0.00634789,0.0132013,1.04912,5,0.1,6,1.4,1.49186,2.92649,0.711153,-0.864074,-0.656009,0.0207722,0.039041,0.0705719,-0.00450015,0.0248611,2.02078,5,0.1,7,1.4,-3.54269,3.09246,0.601713,-0.113195,-0.425738,-0.0457972,0.0712872,0.267744,0.028789,0.00777105,0.140178,5,0.1,8,1.4,4.0305,-3.13428,0.500001,-0.126159,0.866026,-1.49012e-05,0.0166893,0,0.00089407,0.0256851,2.26186,5,0.1,9,1.4,3.89268,-1.28732,0.547581,-0.166738,0.866026,0.0147447,0.0230074,-5.96046e-05,-0.00202656,0.0117058,2.25418,5,0.1
0,1.5,1.35976,-2.2815,0.597372,-0.0982948,0.782029,0.00249995,-0.0497699,-0.323564,-0.0015758,0.00932602,0.416501,5,0.1,1,1.5,-0.741048,1.44749,0.590892,0.810629,-0.0759907,0.00709929,0.641704,0.0284016,-0.00265241,0.00757603,2.41049,5,0.1,2,1.5,-1.88206,2.55287,0.58205,0.0791747,-0.342717,0.0173229,-0.0277609,0.165448,-0.0060685,0.0114843,0.201102,5,0.1,3,1.5,0.118467,-1.10845,0.637667,-0.866025,0.281879,-0.0131384,-1.49012e-07,-0.00618398,0.000279397,0.0129503,2.22155,5,0.1,4,1.5,1.19219,-3.41716,0.597033,0.154286,0.446995,0.0027528,-0.111952,-0.911772,-0.00156462,0.066294,0.22174,5,0.1,5,1.5,0.863596,3.51883,0.621837,-0.858542,0.442469,-0.0181921,0.00977144,-0.154197,0.00634044,0.0132013,1.04912,5,0.1,6,1.5,1.40547,2.86101,0.713216,-0.864534,-0.65493,0.0205201,-0.0192523,-0.0102967,-0.00171736,0.0248611,2.02078,5,0.1,7,1.5,-3.55373,3.05095,0.597247,-0.108083,-0.406537,-0.0437327,0.0379682,0.142694,0.0153407,0.00777105,0.140178,5,0.1,8,1.5,4.01792,-3.04767,0.500002,-0.12563,0.866026,4.14439e-05,0.0012517,0,0.000279397,0.0256851,2.26186,5,0.1,9,1.5,3.87607,-1.20072,0.54905,-0.165907,0.866025,0.0146721,0.00315905,1.49012e-05,-0.000275671,0.0117058,2.25418,5,0.1
0,1.6,1.34973,-2.20507,0.597613,-0.101623,0.744468,0.00232905,-0.013113,-0.447273,-0.00187755,0.00776337,0.158624,5,0.1,1,1.6,-0.657686,1.44004,0.591588,0.847417,-0.0727236,0.00679344,0.0907779,0.0392795,-0.00363588,0.00658226,2.24371,5,0.1,2,1.6,-1.87428,2.51958,0.583753,0.0764728,-0.32137,0.016731,-0.0301003,0.263214,-0.00655651,0.0121447,0.190961,5,0.1,3,1.6,0.031864,-1.08035,0.636357,-0.866025,0.279355,-0.0130206,0,-0.0556707,0.002563,0.0130861,2.22337,5,0.1,4,1.6,1.20704,-3.37716,0.5973,0.142512,0.352424,0.00257939,-0.126541,-0.953794,-0.00193715,0.0185512,0.550525,5,0.1,5,1.6,0.777974,3.5622,0.620054,-0.851198,0.423551,-0.017415,0.170916,-0.234962,0.00968575,0.00786935,0.979729,5,0.1,6,1.6,1.319,2.79559,0.715256,-0.863969,-0.651461,0.0202298,0.0411272,0.10705,-0.00494719,0.0119995,2.02774,5,0.1,7,1.6,-3.56436,3.01098,0.592948,-0.104386,-0.392646,-0.0422388,0.041008,0.154495,0.0165999,0.00684213,0.0812274,5,0.1,8,1.6,4.00539,-2.96107,0.500007,-0.124669,0.866026,4.91738e-05,0.023365,0,-8.9407e-05,0.0257506,2.26216,5,0.1,9,1.6,3.85952,-1.11412,0.550513,-0.164473,0.866026,0.0145465,0.0323057,-5.96046e-05,-0.00286102,0.0150902,2.25479,5,0.1
0,1.7,1.33967,-2.13289,0.597837,-0.0982935,0.698362,0.00215266,0.074096,-0.488803,-0.00171363,0.00776337,0.158624,5,0.1,1,1.7,-0.573958,1.43295,0.59225,0.814261,-0.0691937,0.00646636,-0.683786,0.0340119,-0.0031516,0.00658226,2.24371,5,0.1,2,1.7,-1.86676,2.48905,0.585397,0.0739366,-0.286658,0.0161782,-0.023976,0.417784,-0.00523031,0.0121447,0.190961,5,0.1,3,1.7,-0.0547385,-1.05259,0.635063,-0.866025,0.276536,-0.0128915,0,-0.0168011,0.000771135,0.0130861,2.22337,5,0.1,4,1.7,1.22069,-3.34673,0.597548,0.130709,0.256811,0.00239685,-0.113346,-0.915855,-0.00178069,0.0185512,0.550525,5,0.1,5,1.7,0.693399,3.60344,0.618359,-0.842165,0.40142,-0.016503,0.0580773,-0.220999,0.00910461,0.00786935,0.979729,5,0.1,6,1.7,1.23263,2.73086,0.717262,-0.864432,-0.643693,0.0199521,-0.0211149,0.0789016,-0.00178814,0.0119995,2.02774,5,0.1,7,1.7,-3.57461,2.97239,0.588796,-0.10093,-0.379628,-0.0408399,0.0326484,0.123039,0.0132285,0.00684213,0.0812274,5,0.1,8,1.7,3.99299,-2.87447,0.500012,-0.123604,0.866026,3.45521e-05,0.00527501,0,-0.00018999,0.0257506,2.26216,5,0.1,9,1.7,3.84317,-1.02751,0.551959,-0.16288,0.866025,0.0144054,0.00910461,1.11759e-05,-0.000800937,0.0150902,2.25479,5,0.1
0,1.8,1.33031,-2.06566,0.598044,-0.0878483,0.644451,0.00197589,0.130057,-0.597715,-0.00187755,0.00777303,0.200697,5,0.1,1,1.8,-0.496758,1.42621,0.59288,0.723059,-0.0654668,0.00611842,-1.08634,0.0423789,-0.0039041,0.00614694,2.04773,5,0.1,2,1.8,-1.8595,2.46264,0.586986,0.0711113,-0.240272,0.0155613,-0.0348091,0.49901,-0.00762939,0.0118055,0.186118,5,0.1,3,1.8,-0.141341,-1.02506,0.633779,-0.866026,0.273243,-0.012739,7.15256e-06,-0.0605583,0.00283122,0.0111791,2.22545,5,0.1,4,1.8,1.23319,-3.3253,0.597779,0.119197,0.175661,0.00220984,-0.119567,-0.685811,-0.00196695,0.0165498,0.51252,5,0.1,5,1.8,0.60961,3.64241,0.616756,-0.831327,0.377107,-0.0155032,0.192821,-0.273943,0.0112951,0.00707977,0.700429,5,0.1,6,1.8,1.14615,2.66704,0.719246,-0.864187,-0.63051,0.019671,0.0366569,0.205755,-0.00464916,0.0102141,1.88816,5,0.1,7,1.8,-3.58453,2.93511,0.584785,-0.0970781,-0.365132,-0.0392824,0.0473261,0.178814,0.0192821,0.00956203,0.0616209,5,0.1,8,1.8,3.98068,-2.78786,0.500014,-0.122356,0.866026,1.3411e-05,0.0247955,0,-0.000208616,0.0314202,2.26161,5,0.1,9,1.8,3.82696,-0.94091,0.553393,-0.161028,0.866026,0.014241,0.0349283,0,-0.00309944,0.0109932,2.25547,5,0.1
0,1.9,1.3222,-2.00397,0.598232,-0.0741797,0.591127,0.00180202,0.14136,-0.491053,-0.00165775,0.00777303,0.200697,5,0.1,1,1.9,-0.430503,1.41986,0.593474,0.598235,-0.0615943,0.00576107,-1.31848,0.0372827,-0.00345334,0.00614694,2.04773,5,0.1,2,1.9,-1.85256,2.44117,0.588505,0.0677262,-0.18862,0.0148191,-0.0350177,0.523478,-0.00767782,0.0118055,0.186118,5,0.1,3,1.9,-0.227944,-0.997929,0.632514,-0.866025,0.270047,-0.0125891,0,-0.019297,0.000908971,0.0111791,2.22545,5,0.1,4,1.9,1.24455,-3.31075,0.597991,0.108166,0.120413,0.00202656,-0.104308,-0.38439,-0.00175834,0.0165498,0.51252,5,0.1,5,1.9,0.527262,3.67882,0.61526,-0.816435,0.351526,-0.014449,0.143655,-0.24879,0.0102483,0.00707977,0.700429,5,0.1,6,1.9,1.05975,2.60575,0.721196,-0.864621,-0.588639,0.019375,-0.0133067,0.604317,-0.00232458,0.0102141,1.88816,5,0.1,7,1.9,-3.59403,2.89936,0.58094,-0.0932209,-0.350559,-0.0377108,0.0345707,0.130534,0.0140704,0.00956203,0.0616209,5,0.1,8,1.9,3.96848,-2.70126,0.500014,-0.122093,0.866026,-4.74975e-06,-0.0102222,0,-0.000152737,0.0314202,2.26161,5,0.1,9,1.9,3.81096,-0.854308,0.554807,-0.159245,0.866026,0.0140825,0.0102073,-3.72529e-06,-0.000908971,0.0109932,2.25547,5,0.1
0,2,1.31549,-1.94728,0.598404,-0.0599355,0.542435,0.00163615,0.141978,-0.498593,-0.00172853,0.00983929,0.902396,5,0.1,1,2,-0.377078,1.4139,0.594032,0.473569,-0.0576377,0.00539273,-1.12449,0.0433922,-0.00402331,0.00716484,1.87954,5,0.1,2,2,-1.84598,2.4249,0.589946,0.0637591,-0.13743,0.013949,-0.045836,0.492215,-0.0100136,0.0120703,0.275406,5,0.1,3,2,-0.314546,-0.97106,0.631262,-0.866025,0.266656,-0.0124291,-1.43051e-05,-0.0598133,0.00277162,0.0111861,2.22751,5,0.1,4,2,1.25484,-3.3,0.598185,0.0977874,0.100631,0.00184774,-0.1055,-0.0276566,-0.00184774,0.0168729,0.660104,5,0.1,5,2,0.446514,3.7127,0.613867,-0.796052,0.325471,-0.0133768,0.290767,-0.279665,0.0115335,0.00896125,0.488374,5,0.1,6,2,0.973331,2.55038,0.723119,-0.862165,-0.51474,0.0190258,0.077188,0.850081,-0.00539422,0.0102836,1.09193,5,0.1,7,2,-3.60317,2.865,0.577244,-0.0893593,-0.335991,-0.0361413,0.0460148,0.173211,0.0186563,0.00926877,0.0274712,5,0.1,8,2,3.95623,-2.61466,0.500013,-0.122797,0.866026,-1.63913e-05,0.00274181,0,-0.000119209,0.0279951,2.26134,5,0.1,9,2,3.79511,-0.767705,0.556209,-0.157368,0.866026,0.0139162,0.0340939,0,-0.00301003,0.0109043,2.25614,5,0.1
0,2.1,1.31022,-1.89487,0.59856,-0.0456192,0.51109,0.00147764,0.141412,-0.176288,-0.00149012,0.00983929,0.902396,5,0.1,1,2.1,-0.334931,1.40834,0.594553,0.375997,-0.0536555,0.00502272,-0.738343,0.0380799,-0.0035502,0.00716484,1.87954,5,0.1,2,2.1,-1.83982,2.41351,0.591294,0.0595905,-0.0915121,0.0130378,-0.0397861,0.420764,-0.00870228,0.0120703,0.275406,5,0.1,3,2.1,-0.401149,-0.944584,0.630028,-0.866025,0.263539,-0.0122847,1.78814e-06,-0.0182278,0.000841916,0.0111861,2.22751,5,0.1,4,2.1,1.26413,-3.28969,0.598361,0.088135,0.108818,0.0016775,-0.0902638,0.164136,-0.00160933,0.0168729,0.660104,5,0.1,5,2.1,0.36823,3.74392,0.612584,-0.770146,0.299569,-0.0123092,0.258643,-0.247687,0.0102036,0.00896125,0.488374,5,0.1,6,2.1,0.887384,2.50344,0.724998,-0.856922,-0.421869,0.0185843,0.0670888,0.983253,-0.00428781,0.0102836,1.09193,5,0.1,7,2.1,-3.61188,2.83226,0.573722,-0.0847626,-0.318696,-0.0342792,0.0483543,0.181913,0.0195801,0.00926877,0.0274712,5,0.1,8,2.1,3.9439,-2.52806,0.500011,-0.124205,0.866026,-2.44007e-05,-0.0220388,0,-4.47035e-05,0.0279951,2.26134,5,0.1,9,2.1,3.77948,-0.681103,0.557592,-0.155674,0.866026,0.0137669,0.00913441,-3.72529e-06,-0.000808388,0.0109043,2.25614,5,0.1
0,2.2,1.30634,-1.84444,0.5987,-0.0321567,0.498778,0.00133067,0.125825,-0.105917,-0.00146031,0.00788916,3.17268,5,0.1,1,2.2,-0.3,1.40317,0.595037,0.332575,-0.0497133,0.00465512,-0.151947,0.0420213,-0.00393391,0.00546786,1.60081,5,0.1,2,2.2,-1.83406,2.40631,0.592553,0.0554204,-0.0540912,0.0121251,-0.0450611,0.324845,-0.00986457,0.0108256,0.273317,5,0.1,3,2.2,-0.487751,-0.918358,0.628805,-0.866025,0.260325,-0.0121355,-1.43051e-05,-0.0572205,0.00268221,0.0128905,2.22945,5,0.1,4,2.2,1.2725,-3.27785,0.59852,0.0792682,0.128645,0.00151694,-0.0889301,0.211358,-0.00163913,0.0179839,0.882541,5,0.1,5,2.2,0.292665,3.77263,0.611405,-0.73905,0.27436,-0.0112727,0.384703,-0.263095,0.010848,0.00776681,0.334259,5,0.1,6,2.2,0.802274,2.46622,0.726832,-0.842106,-0.32239,0.0180244,0.25624,0.98753,-0.00745058,0.00927766,0.713498,5,0.1,7,2.2,-3.62009,2.80137,0.5704,-0.0792861,-0.298095,-0.0320628,0.0628233,0.235915,0.0253916,0.0092093,0.0103625,5,0.1,8,2.2,3.93139,-2.44145,0.500009,-0.125694,0.866026,-2.68221e-05,-0.00119209,0,2.98023e-05,0.0269891,2.26101,5,0.1,9,2.2,3.76398,-0.5945,0.558962,-0.153935,0.866026,0.0136137,0.0321865,0,-0.00283122,0.0104961,2.25676,5,0.1
0,2.3,1.30389,-1.79423,0.598826,-0.0162376,0.512115,0.00119209,0.170924,0.30186,-0.0013411,0.00788916,3.17268,5,0.1,1,2.3,-0.266315,1.39839,0.595484,0.350853,-0.0458602,0.00429386,0.433992,0.0365674,-0.00343099,0.00546786,1.60081,5,0.1,2,2.3,-1.82874,2.40235,0.593717,0.0509854,-0.0268847,0.0111543,-0.0447482,0.219375,-0.00979751,0.0108256,0.273317,5,0.1,3,2.3,-0.574354,-0.892505,0.6276,-0.866026,0.257412,-0.0119982,1.93715e-06,-0.0164211,0.000782311,0.0128905,2.22945,5,0.1,4,2.3,1.28001,-3.26424,0.598664,0.0711869,0.140954,0.00136709,-0.0749677,0.0495911,-0.00139698,0.0179839,0.882541,5,0.1,5,2.3,0.220559,3.79883,0.610328,-0.703648,0.250171,-0.0102761,0.348955,-0.228494,0.00940636,0.00776681,0.334259,5,0.1,6,2.3,0.719246,2.43881,0.7286,-0.818592,-0.227396,0.0173544,0.246033,0.897676,-0.00664219,0.00927766,0.713498,5,0.1,7,2.3,-3.6277,2.77276,0.567322,-0.0728495,-0.273922,-0.0294617,0.0669658,0.251547,0.0270642,0.0092093,0.0103625,5,0.1,8,2.3,3.91876,-2.35485,0.500006,-0.127237,0.866026,-2.32831e-05,-0.0211596,0,4.47035e-05,0.0269891,2.26101,5,0.1,9,2.3,3.74868,-0.507897,0.560315,-0.152403,0.866026,0.0134797,0.0076592,-3.57628e-06,-0.000666827,0.0104961,2.25676,5,0.1
0,2.4,1.30305,-1.74132,0.598939,-0.00144541,0.546756,0.00105798,0.111818,0.337899,-0.0013113,0.0105662,3.07119,5,0.1,1,2.4,-0.228659,1.39399,0.595896,0.404637,-0.0421435,0.00394583,0.577845,0.0388026,-0.00366569,0.00689649,1.28059,5,0.1,2,2.4,-1.82387,2.40059,0.594782,0.046289,-0.0099659,0.0101253,-0.0498891,0.121355,-0.0109375,0.0109314,0.271059,5,0.1,3,2.4,-0.660956,-0.866882,0.626406,-0.866026,0.254408,-0.0118569,0,-0.0546277,0.002563,0.0106935,2.2313,5,0.1,4,2.4,1.28676,-3.25007,0.598794,0.0638813,0.141066,0.00122935,-0.0727177,-0.0370741,-0.00137091,0.0198487,0.836372,5,0.1,5,2.4,0.15205,3.82271,0.609348,-0.664946,0.227338,-0.00933707,0.442605,-0.233889,0.00962615,0.00704944,0.764642,5,0.1,6,2.4,0.638814,2.42031,0.730299,-0.787531,-0.145233,0.016579,0.396907,0.736475,-0.00926852,0.00871285,1.07275,5,0.1,7,2.4,-3.63464,2.74668,0.564517,-0.065726,-0.247163,-0.0265837,0.0760555,0.285864,0.030756,0.00812392,0.00523442,5,0.1,8,2.4,3.90595,-2.26825,0.500004,-0.128466,0.866026,-1.78814e-05,0.0025034,0,2.98023e-05,0.0294264,2.2608,5,0.1,9,2.4,3.7335,-0.421295,0.561658,-0.15083,0.866025,0.013341,0.0305176,1.43051e-05,-0.00271201,0.00996713,2.25733,5,0.1
0,2.5,1.30351,-1.68453,0.599038,0.00992417,0.591636,0.000937469,0.0728071,0.501074,-0.00112504,0.0105662,3.07119,5,0.1,1,2.5,-0.184831,1.38996,0.596273,0.475027,-0.0385953,0.00361083,0.766241,0.0334308,-0.00315532,0.00689649,1.28059,5,0.1,2,2.5,-1.81946,2.40006,0.59574,0.0423109,-0.00179447,0.00904016,-0.0323132,0.0473112,-0.0108704,0.0109314,0.271059,5,0.1,3,2.5,-0.747559,-0.841611,0.625228,-0.866026,0.251671,-0.0117275,3.72529e-06,-0.0151359,0.000718981,0.0106935,2.2313,5,0.1,4,2.5,1.29281,-3.23641,0.598911,0.0573095,0.130418,0.00110483,-0.0606179,-0.13797,-0.00115111,0.0198487,0.836372,5,0.1,5,2.5,0.0871703,3.84435,0.608459,-0.637339,0.205973,-0.00845827,0.160362,-0.199974,0.00822544,0.00704944,0.764642,5,0.1,6,2.5,0.561778,2.40926,0.731913,-0.754908,-0.0783533,0.0157252,0.291718,0.576228,-0.00837445,0.00871285,1.07275,5,0.1,7,2.5,-3.64084,2.72337,0.56201,-0.0582531,-0.219074,-0.0235621,0.0742078,0.278905,0.029996,0.00812392,0.00523442,5,0.1,8,2.5,3.89307,-2.18165,0.500002,-0.129541,0.866026,-1.4063e-05,-0.0157058,0,4.84288e-05,0.0294264,2.2608,5,0.1,9,2.5,3.71851,-0.334692,0.562984,-0.149424,0.866025,0.0132158,0.00664592,-1.78814e-06,-0.000596046,0.00996713,2.25733,5,0.1
0,2.6,1.30455,-1.62299,0.599127,0.00718236,0.636867,0.000829995,-0.144243,0.361264,-0.00110269,0.00986945,2.95325,5,0.1,1,2.6,-0.133617,1.38626,0.596619,0.546866,-0.0352442,0.00329316,0.624061,0.0345707,-0.00321865,0.00765539,0.98535,5,0.1,2,2.6,-1.81538,2.40004,0.596589,0.0393629,0.000607967,0.00793487,-0.028491,0.00667572,-0.0112653,0.0104076,0.267767,5,0.1,3,2.6,-0.834161,-0.816555,0.624061,-0.866026,0.248808,-0.0115931,0,-0.0528395,0.00247359,0.00847859,2.23308,5,0.1,4,2.6,1.29824,-3.22399,0.599016,0.0514269,0.119114,0.000990927,-0.0582933,-0.0696182,-0.00110269,0.0210178,1.03978,5,0.1,5,2.6,0.0241147,3.86396,0.607654,-0.624036,0.186223,-0.00764728,0.143249,-0.199556,0.00819564,0.00647868,0.574743,5,0.1,6,2.6,0.487815,2.4039,0.733442,-0.723019,-0.0333667,0.0148103,0.371575,0.314593,-0.0103414,0.0091017,0.885389,5,0.1,7,2.6,-3.64629,2.70286,0.559805,-0.0507653,-0.190914,-0.0205338,0.0761747,0.285745,0.0307262,0.00906297,0.0016185,5,0.1,8,2.6,3.88006,-2.09504,0.500001,-0.130188,0.866026,-8.9407e-06,0.00846386,0,2.98023e-05,0.0274189,2.26074,5,0.1,9,2.6,3.70362,-0.24809,0.564301,-0.147957,0.866025,0.0130862,0.0290871,0,-0.0026226,0.00880913,2.25787,5,0.1
0,2.7,1.30432,-1.55737,0.599205,-0.0160595,0.675672,0.000732578,-0.397347,0.370368,-0.000871718,0.00986945,2.95325,5,0.1,1,2.7,-0.0756773,1.3829,0.596933,0.61198,-0.0320951,0.00299942,0.628988,0.029467,-0.00274926,0.00765539,0.98535,5,0.1,2,2.7,-1.8116,2.40019,0.597327,0.0358552,0.00282302,0.00683302,-0.0409335,0.0294149,-0.0108071,0.0104076,0.267767,5,0.1,3,2.7,-0.920764,-0.791838,0.622909,-0.866026,0.246156,-0.0114686,3.72529e-06,-0.0148416,0.00070408,0.00847859,2.23308,5,0.1,4,2.7,1.30312,-3.21238,0.599109,0.0461807,0.115422,0.000891089,-0.0482276,0.0637174,-0.000923872,0.0210178,1.03978,5,0.1,5,2.7,-0.0378798,3.88165,0.606927,-0.617898,0.168091,-0.00690296,0.019443,-0.168577,0.00692159,0.00647868,0.574743,5,0.1,6,2.7,0.417185,2.40175,0.734874,-0.690672,-0.0142124,0.0138547,0.304595,0.0417978,-0.00923872,0.0091017,0.885389,5,0.1,7,2.7,-3.65099,2.68518,0.557903,-0.043308,-0.162926,-0.0175243,0.0731051,0.274464,0.0295117,0.00906297,0.0016185,5,0.1,8,2.7,3.86703,-2.00844,0.5,-0.130653,0.866026,-5.4948e-06,-0.00962615,0,4.09782e-05,0.0274189,2.26074,5,0.1,9,2.7,3.68891,-0.161487,0.565602,-0.146646,0.866025,0.0129663,0.00599027,1.19209e-06,-0.000555068,0.00880913,2.25787,5,0.1
0,2.8,1.3,-1.48823,0.599274,-0.0773281,0.703394,0.000651181,-0.801802,0.153124,-0.00077486,0.0083891,2.66415,5,0.1,1,2.8,-0.0116571,1.37984,0.597219,0.664297,-0.0291705,0.00272691,0.38289,0.0298023,-0.00280142,0.00639109,0.720468,5,0.1,2,2.8,-1.80824,2.4006,0.597957,0.0313133,0.00516772,0.00577122,-0.0491738,0.0126362,-0.0104904,0.0144377,0.252627,5,0.1,3,2.8,-1.00737,-0.767332,0.621768,-0.866026,0.243334,-0.0113368,0,-0.0520349,0.00244379,0.00872196,2.23486,5,0.1,4,2.8,1.3075,-3.2,0.599194,0.0415117,0.137293,0.000801682,-0.0463128,0.360012,-0.00089407,0.0217862,0.894441,5,0.1,5,2.8,-0.0995085,3.89763,0.606271,-0.613295,0.151575,-0.00622571,0.101205,-0.165701,0.00679493,0.00592421,0.468664,5,0.1,6,2.8,0.349726,2.4,0.736212,-0.657139,-0.0258148,0.0128835,0.386431,-0.255346,-0.0104606,0.00962635,0.703241,5,0.1,7,2.8,-3.65496,2.67025,0.556296,-0.0361323,-0.13597,-0.014627,0.0703335,0.264406,0.0284612,0.00729357,0.000834305,5,0.1,8,2.8,3.85394,-1.92184,0.5,-0.130725,0.866026,-2.98023e-06,0.0140667,0,5.96046e-05,0.0270667,2.26083,5,0.1,9,2.8,3.6743,-0.0748847,0.566894,-0.145245,0.866026,0.0128403,0.028491,-5.96046e-06,-0.0025332,0.0110691,2.25839,5,0.1
0,2.9,1.28729,-1.41703,0.599335,-0.184398,0.720514,0.000583939,-1.25074,0.150628,-0.000596046,0.0083891,2.66415,5,0.1,1,2.9,0.056695,1.37706,0.597479,0.701828,-0.0264654,0.00247238,0.329042,0.0251904,-0.00236556,0.00639109,0.720468,5,0.1,2,2.9,-1.80536,2.40126,0.598483,0.0262402,0.00796393,0.00476567,-0.0516772,0.0186265,-0.00962988,0.0144377,0.252627,5,0.1,3,2.9,-1.09397,-0.743162,0.620642,-0.866026,0.240667,-0.0112108,0,-0.0155531,0.000741333,0.00872196,2.23486,5,0.1,4,2.9,1.31144,-3.18379,0.59927,0.0373568,0.192285,0.000721123,-0.0381023,0.680208,-0.000741333,0.0217862,0.894441,5,0.1,5,2.9,-0.159834,3.91201,0.60568,-0.588479,0.136587,-0.0056114,0.385101,-0.138626,0.00567734,0.00592421,0.468664,5,0.1,6,2.9,0.285795,2.39558,0.737451,-0.622355,-0.0669878,0.0119191,0.333121,-0.524059,-0.00921637,0.00962635,0.703241,5,0.1,7,2.9,-3.65823,2.65794,0.554972,-0.0293635,-0.110514,-0.0118873,0.0649095,0.244185,0.0262745,0.00729357,0.000834305,5,0.1,8,2.9,3.84089,-1.83524,0.5,-0.130651,0.866026,9.31323e-07,-0.00457466,0,2.23517e-05,0.0270667,2.26083,5,0.1,9,2.9,3.65986,0.0117178,0.56817,-0.143949,0.866025,0.012725,0.00609457,-1.49012e-07,-0.000543892,0.0110691,2.25839,5,0.1
0,3,1.26245,-1.34449,0.599391,-0.31189,0.726995,0.000527501,-1.23215,-0.0476241,-0.000536442,0.00820099,2.08249,5,0.1,1,3,0.128175,1.37454,0.597714,0.723605,-0.0239849,0.00223964,0.0801837,0.0251532,-0.00235438,0.00603487,0.504624,5,0.1,2,3,-1.80299,2.40201,0.598913,0.0210941,0.00541806,0.00384599,-0.0507832,-0.0796318,-0.00879169,0.0136547,0.214356,5,0.1,3,3,-1.18057,-0.719209,0.619526,-0.866026,0.23779,-0.011076,0,-0.0520647,0.00244379,0.00985411,2.23668,5,0.1,4,3,1.31499,-3.16103,0.599339,0.0336647,0.26288,0.000648201,-0.0366569,0.686765,-0.000685453,0.0187691,0.71747,5,0.1,5,3,-0.216359,3.92499,0.605147,-0.538308,0.123072,-0.00505745,0.608041,-0.135183,0.00554323,0.00748847,0.446992,5,0.1,6,3,0.225296,2.38612,0.738596,-0.586477,-0.122851,0.0109747,0.400938,-0.559926,-0.00995398,0.00990931,0.540029,5,0.1,7,3,-3.66085,2.64807,0.553911,-0.0231743,-0.0872374,-0.00938326,0.0587702,0.221014,0.0237823,0.00792667,0.000699545,5,0.1,8,3,3.82782,-1.74863,0.5,-0.130266,0.866026,1.49012e-06,0.0180006,-5.96046e-05,2.98023e-05,0.0257633,2.26103,5,0.1,9,3,3.64551,0.0983203,0.569438,-0.14255,0.866025,0.0126004,0.0282526,0,-0.00247359,0.00974312,2.25892,5,0.1
0,3.1,1.22483,-1.27198,0.599441,-0.441599,0.723079,0.000480749,-1.29472,-0.0617281,-0.000417233,0.00820099,2.08249,5,0.1,1,3.1,0.200932,1.37226,0.597927,0.730682,-0.0217097,0.00202665,0.0303109,0.0210777,-0.00197068,0.00603487,0.504624,5,0.1,2,3.1,-1.80113,2.40204,0.599255,0.0161625,-0.00692531,0.00302047,-0.0474006,-0.201702,-0.0077188,0.0136547,0.214356,5,0.1,3,3.1,-1.26717,-0.695597,0.618426,-0.866026,0.235019,-0.0109455,0,-0.0171214,0.000812113,0.00985411,2.23668,5,0.1,4,3.1,1.31818,-3.13109,0.5994,0.0303824,0.336999,0.000586361,-0.0300854,0.750303,-0.000573695,0.0187691,0.71747,5,0.1,5,3.1,-0.266729,3.93667,0.604667,-0.465493,0.110891,-0.00455799,0.824678,-0.112236,0.00460073,0.00748847,0.446992,5,0.1,6,3.1,0.168519,2.37086,0.739647,-0.549892,-0.183376,0.0100612,0.350406,-0.617281,-0.00863895,0.00990931,0.540029,5,0.1,7,3.1,-3.66289,2.64041,0.553087,-0.0176404,-0.0664223,-0.0071439,0.0517219,0.194654,0.0209399,0.00792667,0.000699545,5,0.1,8,3.1,3.81484,-1.66203,0.5,-0.129823,0.866025,2.8871e-06,-0.00119209,1.49012e-05,3.72529e-06,0.0257633,2.26103,5,0.1,9,3.1,3.63134,0.184923,0.570691,-0.141235,0.866025,0.0124864,0.00649691,8.9407e-07,-0.000558794,0.00974312,2.25892,5,0.1
0,3.2,1.17455,-1.20021,0.599487,-0.559285,0.709444,0.000441074,-1.01066,-0.231981,-0.000417233,0.00886442,1.55231,5,0.1,1,3.2,0.273862,1.37019,0.59812,0.724487,-0.0196427,0.00183284,-0.17494,0.020802,-0.00193715,0.0060245,0.342967,5,0.1,2,3.2,-1.79975,2.4,0.599521,0.0116885,-0.0369728,0.00230223,-0.0417233,-0.385284,-0.00661612,0.0109959,0.152902,5,0.1,3,3.2,-1.35378,-0.672215,0.617337,-0.866026,0.23201,-0.0108048,0,-0.0527799,0.00247359,0.0103323,2.23377,5,0.1,4,3.2,1.32107,-3.09384,0.599456,0.0274599,0.405151,0.000530481,-0.0290871,0.580072,-0.000566244,0.017899,0.137001,5,0.1,5,3.2,-0.30896,3.94721,0.604233,-0.377667,0.0999689,-0.00410974,0.912473,-0.108957,0.00444055,0.00707686,0.439512,5,0.1,6,3.2,0.11533,2.34956,0.74061,-0.513076,-0.24057,0.00919104,0.399477,-0.502229,-0.0090003,0.0111637,0.401292,5,0.1,7,3.2,-3.66441,2.63469,0.552472,-0.0128567,-0.0484109,-0.00520647,0.0439882,0.165343,0.0177622,0.00831258,0.000535885,5,0.1,8,3.2,3.80187,-1.57543,0.500001,-0.129145,0.866026,2.98023e-06,0.0202656,-5.96046e-05,-2.98023e-05,0.027457,2.26128,5,0.1,9,3.2,3.61727,0.271525,0.571935,-0.139803,0.866025,0.012362,0.0282526,1.43051e-05,-0.0025034,0.00858891,2.25946,5,0.1
0,3.3,1.11359,-1.13036,0.59953,-0.658403,0.687527,0.000404567,-0.919841,-0.231683,-0.000327826,0.00886442,1.55231,5,0.1,1,3.3,0.345464,1.36832,0.598295,0.707174,-0.0177661,0.00165794,-0.196678,0.0173375,-0.00161678,0.0060245,0.342967,5,0.1,2,3.3,-1.79878,2.39403,0.59972,0.00779554,-0.0849601,0.0016937,-0.035882,-0.537977,-0.00555813,0.0109959,0.152902,5,0.1,3,3.3,-1.44038,-0.649077,0.616266,-0.866026,0.232258,-0.0106236,0,0.0373609,0.00167638,0.0103323,2.23377,5,0.1,4,3.3,1.32369,-3.05088,0.599506,0.024857,0.449473,0.000479445,-0.0238717,0.300974,-0.000469387,0.017899,0.137001,5,0.1,5,3.3,-0.342153,3.9567,0.603843,-0.286457,0.0901788,-0.00371039,0.896571,-0.0900328,0.00367314,0.00707686,0.439512,5,0.1,6,3.3,0.0658933,2.32298,0.741487,-0.476489,-0.29044,0.00836905,0.348513,-0.46964,-0.00771135,0.0111637,0.401292,5,0.1,7,3.3,-3.66548,2.63063,0.552035,-0.00881962,-0.0332318,-0.00357563,0.036642,0.137895,0.0148155,0.00831258,0.000535885,5,0.1,8,3.3,3.789,-1.48883,0.500001,-0.128486,0.866025,4.65661e-07,0.000759959,1.49012e-05,-1.86265e-05,0.027457,2.26128,5,0.1,9,3.3,3.60338,0.358128,0.573164,-0.138444,0.866025,0.0122418,0.00718236,-1.78814e-06,-0.000629574,0.00858891,2.25946,5,0.1
0,3.4,1.04365,-1.06293,0.599568,-0.734508,0.658867,0.000372529,-0.566721,-0.358522,-0.000327826,0.0126181,1.10302,5,0.1,1,3.4,0.414994,1.36663,0.598453,0.680926,-0.0160724,0.00150055,-0.345125,0.0170469,-0.00160933,0.00656603,0.228999,5,0.1,2,3.4,-1.79816,2.38284,0.599863,0.00455081,-0.138229,0.0011906,-0.0289083,-0.50056,-0.00450015,0.0118411,0.092736,5,0.1,3,3.4,-1.52698,-0.625653,0.615215,-0.866026,0.235951,-0.0103801,0,0.0215769,0.00351667,0.00819345,2.1782,5,0.1,4,3.4,1.32605,-3.00492,0.599552,0.0225306,0.464702,0.000433624,-0.0232458,0.00238419,-0.000447035,0.0205638,0.105964,5,0.1,5,3.4,-0.366445,3.96528,0.60349,-0.200965,0.0814199,-0.00335276,0.802323,-0.0872612,0.00357628,0.00654185,0.437049,5,0.1,6,3.4,0.0200111,2.29182,0.742286,-0.440622,-0.330168,0.00760257,0.380093,-0.307322,-0.00780821,0.00855682,0.286245,5,0.1,7,3.4,-3.6662,2.62795,0.551747,-0.00553727,-0.0208795,-0.00224859,0.0289679,0.109196,0.0117421,0.00875802,0.000318012,5,0.1,8,3.4,3.77618,-1.40222,0.500001,-0.127655,0.866026,0,0.0214577,0,-2.98023e-05,0.0290618,2.26157,5,0.1,9,3.4,3.58959,0.44473,0.574383,-0.136954,0.866025,0.0121102,0.0283718,1.43051e-05,-0.0025034,0.00802136,2.26,5,0.1
0,3.5,0.967452,-0.99875,0.599604,-0.787381,0.62511,0.000343379,-0.449911,-0.337534,-0.000264496,0.0126181,1.10302,5,0.1,1,3.5,0.481429,1.3651,0.598595,0.647931,-0.0145379,0.00135591,-0.335779,0.0141412,-0.00133738,0.00656603,0.228999,5,0.1,2,3.5,-1.79784,2.36652,0.599961,0.00195652,-0.187419,0.000786781,-0.0228882,-0.46213,-0.00358373,0.0118411,0.092736,5,0.1,3,3.5,-1.61358,-0.601816,0.614191,-0.866026,0.241638,-0.0101104,0,0.0736676,0.00238419,0.00819345,2.1782,5,0.1,4,3.5,1.32821,-2.95846,0.599593,0.0207899,0.463683,0.000399444,-0.0130907,-0.0398457,-0.000264496,0.0205638,0.105964,5,0.1,5,3.5,-0.382767,3.97302,0.603171,-0.127988,0.073592,-0.00303192,0.651829,-0.0719279,0.00295416,0.00654185,0.437049,5,0.1,6,3.5,-0.0222697,2.2573,0.743009,-0.405835,-0.359185,0.00689253,0.329159,-0.252977,-0.00662357,0.00855682,0.286245,5,0.1,7,3.5,-3.66662,2.62637,0.551576,-0.00296384,-0.0111736,-0.00120485,0.0225008,0.0849068,0.00913069,0.00875802,0.000318012,5,0.1,8,3.5,3.76347,-1.31562,0.500001,-0.126878,0.866026,-1.86265e-06,0.00183284,0,-1.49012e-05,0.0290618,2.26157,5,0.1,9,3.5,3.57598,0.531333,0.575586,-0.135536,0.866026,0.0119854,0.00800192,-1.93715e-06,-0.000700355,0.00802136,2.26,5,0.1
0,3.6,0.88693,-0.938031,0.599637,-0.817685,0.587852,0.000317395,-0.128865,-0.421733,-0.000268221,0.00896316,0.755681,5,0.1,1,3.6,0.544419,1.36372,0.598724,0.610264,-0.0131577,0.00122637,-0.431687,0.0138879,-0.0013113,0.00792583,0.151712,5,0.1,2,3.6,-1.79775,2.34568,0.600023,-1.49012e-05,-0.2271,0.000470877,-0.0165105,-0.317335,-0.00271201,0.0101847,0.123435,5,0.1,3,3.6,-1.70019,-0.577323,0.613193,-0.866026,0.247505,-0.00981688,0,0.0303686,0.0038445,0.00816652,1.71118,5,0.1,4,3.6,1.33023,-2.91248,0.599632,0.0196487,0.453907,0.000376999,-0.0107884,-0.167012,-0.000238419,0.0224551,0.727209,5,0.1,5,3.6,-0.392588,3.98003,0.602883,-0.0713252,0.0665843,-0.00274479,0.479579,-0.0699759,0.00289083,0.00657905,0.428074,5,0.1,6,3.6,-0.0612015,2.22034,0.743666,-0.372498,-0.377423,0.00623912,0.346976,-0.0981092,-0.00655651,0.00884489,0.197396,5,0.1,7,3.6,-3.66681,2.62564,0.551497,-0.0010252,-0.00388026,-0.000421703,0.0160933,0.0611544,0.00661612,0.00757168,0.000142972,5,0.1,8,3.6,3.75081,-1.22902,0.500001,-0.125962,0.866026,-1.49012e-06,0.0219345,0,-2.98023e-05,0.0286473,2.26187,5,0.1,9,3.6,3.56249,0.617936,0.576779,-0.133979,0.866026,0.0118494,0.0288486,0,-0.002563,0.00895374,2.26057,5,0.1
0,3.7,0.804576,-0.881246,0.599668,-0.827967,0.548471,0.000293646,-0.0438951,-0.383332,-0.000219792,0.00896316,0.755681,5,0.1,1,3.7,0.603388,1.36247,0.598841,0.569661,-0.0119101,0.00110883,-0.397928,0.0114888,-0.00108033,0.00792583,0.151712,5,0.1,2,3.7,-1.79783,2.32132,0.600058,-0.00139847,-0.259974,0.000236183,-0.0112206,-0.317574,-0.00199676,0.0101847,0.123435,5,0.1,3,3.7,-1.78679,-0.552361,0.612229,-0.865971,0.251956,-0.00948561,0.00217557,0.0440739,0.00318512,0.00816652,1.71118,5,0.1,4,3.7,1.33214,-2.86731,0.599669,0.0185456,0.454323,0.000352971,-0.0116974,0.123516,-0.000245869,0.0224551,0.727209,5,0.1,5,3.7,-0.397589,3.98636,0.602621,-0.0313344,0.0603117,-0.0024857,0.320749,-0.0576377,0.00238419,0.00657905,0.428074,5,0.1,6,3.7,-0.0968268,2.18214,0.744259,-0.340822,-0.385868,0.00564475,0.297801,-0.0547469,-0.00551343,0.00884489,0.197396,5,0.1,7,3.7,-3.66684,2.62552,0.551485,0.000336021,0.00129044,0.00013737,0.0111759,0.0424981,0.00459328,0.00757168,0.000142972,5,0.1,8,3.7,3.73827,-1.14242,0.5,-0.125128,0.866026,-2.79397e-06,0.00239909,0,0,0.0286473,2.26187,5,0.1,9,3.7,3.54918,0.704538,0.577956,-0.132468,0.866026,0.0117152,0.00914931,-3.72529e-06,-0.000815839,0.00895374,2.26057,5,0.1
0,3.8,0.721919,-0.828368,0.599696,-0.821009,0.508255,0.000271201,0.204712,-0.432909,-0.000238419,0.00726591,0.505851,5,0.1,1,3.8,0.658304,1.36133,0.598946,0.527732,-0.0107884,0.00100285,-0.452548,0.0112653,-0.00104308,0.00675669,0.100424,5,0.1,2,3.8,-1.79802,2.29389,0.600073,-0.00227094,-0.286782,7.00355e-05,-0.0064373,-0.202775,-0.00140071,0.0153541,0.196197,5,0.1,3,3.8,-1.87336,-0.52702,0.611298,-0.865158,0.253847,-0.00911057,0.0174046,-0.0164211,0.00464916,0.00738578,1.3063,5,0.1,4,3.8,1.33393,-2.82113,0.599703,0.0172406,0.469565,0.000326335,-0.0147223,0.142574,-0.000327826,0.0174139,0.562034,5,0.1,5,3.8,-0.399374,3.99211,0.602385,-0.00686347,0.0546813,-0.00225306,0.171289,-0.056386,0.00232458,0.00950783,0.410729,5,0.1,6,3.8,-0.129426,2.14346,0.744797,-0.311024,-0.385708,0.00510216,0.30604,0.0686646,-0.00542402,0.00792325,0.133085,5,0.1,7,3.8,-3.66676,2.62583,0.551518,0.00122786,0.00467896,0.000503659,0.00679493,0.02563,0.00277162,0.00673116,4.87853e-05,5,0.1,8,3.8,3.72579,-1.05581,0.5,-0.124186,0.866026,-1.49012e-06,0.0221729,-2.98023e-05,1.49012e-05,0.0271977,2.26218,5,0.1,9,3.8,3.536,0.791141,0.579122,-0.13082,0.866026,0.0115693,0.0293255,0,-0.0025928,0.00880668,2.26116,5,0.1
0,3.9,0.640834,-0.779588,0.599722,-0.800064,0.468154,0.000249967,0.241213,-0.383705,-0.000201166,0.00726591,0.505851,5,0.1,1,3.9,0.708933,1.3603,0.599042,0.48565,-0.0097774,0.000909064,-0.40384,0.00929832,-0.000860542,0.00675669,0.100424,5,0.1,2,3.9,-1.79827,2.26398,0.600074,-0.00274591,-0.312814,-4.5076e-05,-0.00312924,-0.286162,-0.000916421,0.0153541,0.196197,5,0.1,3,3.9,-1.95986,-0.501685,0.610408,-0.865248,0.252861,-0.00869008,0.000722706,-0.0149459,0.00409409,0.00738578,1.3063,5,0.1,4,3.9,1.33559,-2.77319,0.599734,0.0158222,0.490917,0.000295509,-0.0140145,0.24426,-0.000294298,0.0174139,0.562034,5,0.1,5,3.9,-0.399331,3.99732,0.60217,0.00613243,0.0496268,-0.00204463,0.0764523,-0.0464916,0.0019148,0.00950783,0.410729,5,0.1,6,3.9,-0.159098,2.10524,0.745282,-0.283173,-0.378424,0.00461182,0.260362,0.0901669,-0.00454113,0.00792325,0.133085,5,0.1,7,3.9,-3.66661,2.62641,0.55158,0.00173785,0.0066027,0.000711437,0.00350177,0.0132322,0.00142679,0.00673116,4.87853e-05,5,0.1,8,3.9,3.71343,-0.969211,0.5,-0.123315,0.866025,3.72529e-07,0.00277162,3.72529e-06,1.49012e-05,0.0271977,2.26218,5,0.1,9,3.9,3.52302,0.877743,0.58027,-0.129211,0.866026,0.0114271,0.0103563,-3.72529e-06,-0.000908971,0.00880668,2.26116,5,0.1
0,4,0.562274,-0.734707,0.599746,-0.768283,0.429048,0.000230968,0.412226,-0.408471,-0.000238419,0.0104945,0.334715,5,0.1,1,4,0.755461,1.35937,0.599128,0.444475,-0.00886917,0.000825524,-0.429779,0.00917912,-0.000864267,0.00578628,0.114724,5,0.1,2,4,-1.79855,2.23134,0.600065,-0.00291169,-0.338554,-0.000114739,-0.000357628,-0.205755,-0.000536442,0.0109756,0.120004,5,0.1,3,4,-2.04627,-0.476549,0.609561,-0.861394,0.248897,-0.00823587,0.0925064,-0.0723153,0.00521541,0.0100449,0.967922,5,0.1,4,4,1.3371,-2.72298,0.599762,0.0143737,0.511515,0.000265241,-0.0151396,0.138879,-0.000298023,0.0186928,0.610656,5,0.1,5,4,-0.398559,4.00205,0.601975,0.00698194,0.045073,-0.00185817,-0.0617504,-0.0455379,0.00190735,0.00864573,0.379671,5,0.1,6,4,-0.186127,2.06797,0.745721,-0.257352,-0.365496,0.00416934,0.262655,0.177026,-0.00450015,0.0104182,0.151456,5,0.1,7,4,-3.66642,2.62712,0.551656,0.00195503,0.0074029,0.000797212,0.000715256,0.00309944,0.000357628,0.00637758,1.48602e-05,5,0.1,8,4,3.70113,-0.882609,0.5,-0.122344,0.866026,1.49012e-06,0.0219345,0,0,0.0273182,2.26249,5,0.1,9,4,3.51016,0.964346,0.581407,-0.127465,0.866026,0.0112727,0.0299215,0,-0.00265241,0.00750867,2.26178,5,0.1
0,4.1,0.487437,-0.693725,0.599768,-0.728568,0.391482,0.00020992,0.404583,-0.355087,-0.000193715,0.0104945,0.334715,5,0.1,1,4.1,0.798094,1.35852,0.599207,0.410871,-0.00817869,0.000760332,-0.268266,0.00522286,-0.000491738,0.00578628,0.114724,5,0.1,2,4.1,-1.79884,2.19645,0.600052,-0.0028491,-0.358717,-0.000153109,0.00151992,-0.177279,-0.000238419,0.0109756,0.120004,5,0.1,3,4.1,-2.13221,-0.451994,0.608762,-0.858846,0.242238,-0.00775699,0.00676513,-0.0703149,0.00463426,0.0100449,0.967922,5,0.1,4,4.1,1.33846,-2.67087,0.599787,0.0129513,0.532317,0.000237487,-0.0136197,0.235707,-0.00026077,0.0186928,0.610656,5,0.1,5,4.1,-0.398315,4.00635,0.601798,-0.0043002,0.0409879,-0.00168737,-0.189714,-0.0376403,0.00157207,0.00864573,0.379671,5,0.1,6,4.1,-0.210765,2.03207,0.746119,-0.237178,-0.354147,0.00382401,0.1569,0.0739917,-0.00266731,0.0104182,0.151456,5,0.1,7,4.1,-3.66622,2.62786,0.551736,0.00193268,0.00735074,0.000793114,-0.00104308,-0.00375509,-0.000394881,0.00637758,1.48602e-05,5,0.1,8,4.1,3.68896,-0.796006,0.5,-0.121475,0.866026,1.39698e-06,0.00287592,-3.72529e-06,-3.72529e-06,0.0273182,2.26249,5,0.1,9,4.1,3.49752,1.05095,0.582525,-0.125743,0.866026,0.0111201,0.0117421,0,-0.00103936,0.00750867,2.26178,5,0.1
0,4.2,0.41674,-0.656346,0.599788,-0.683615,0.355953,0.000190735,0.50947,-0.364035,-0.000178814,0.00865552,0.295569,5,0.1,1,4.2,0.837932,1.35773,0.599281,0.386313,-0.00772476,0.000718236,-0.242025,0.00441074,-0.000447035,0.00829022,0.104074,5,0.1,2,4.2,-1.79912,2.15988,0.600035,-0.0026226,-0.370622,-0.000165403,0.00286102,-0.0469685,-2.98023e-05,0.0101168,0.183016,5,0.1,3,4.2,-2.21788,-0.428181,0.60801,-0.851828,0.233249,-0.00726283,0.167727,-0.115901,0.00545382,0.00780968,0.691298,5,0.1,4,4.2,1.33969,-2.61657,0.599809,0.0115931,0.551552,0.000211596,-0.0137091,0.119209,-0.000238419,0.0216282,0.651144,5,0.1,5,4.2,-0.4,4.01026,0.601637,-0.0322305,0.0372887,-0.00153333,-0.35578,-0.0371933,0.00151992,0.00617713,0.327712,5,0.1,6,4.2,-0.233765,1.99702,0.746489,-0.223174,-0.346547,0.0035882,0.135079,0.0954866,-0.00223517,0.0079905,0.088413,5,0.1,7,4.2,-3.66604,2.62857,0.551813,0.0017643,0.00672936,0.000727177,-0.00214577,-0.00834465,-0.000923872,0.00838178,8.32714e-06,5,0.1,8,4.2,3.67684,-0.709404,0.5,-0.120503,0.866026,1.49012e-06,0.0218153,0,-2.98023e-05,0.0260565,2.26281,5,0.1,9,4.2,3.48502,1.13755,0.58363,-0.123882,0.866026,0.0109553,0.030756,-5.96046e-05,-0.00268221,0.00900019,1.91589,5,0.1
0,4.3,0.350812,-0.622301,0.599806,-0.635576,0.327129,0.000174809,0.470225,-0.232577,-0.000145286,0.00865552,0.295569,5,0.1,1,4.3,0.875494,1.3567,0.599351,0.365909,-0.0152759,0.000682846,-0.183161,-0.137359,-0.000298023,0.00829022,0.104074,5,0.1,2,4.3,-1.79936,2.12236,0.600019,-0.00227019,-0.38101,-0.000160653,0.00405312,-0.130713,0.000115484,0.0101168,0.183016,5,0.1,3,4.3,-2.30238,-0.405404,0.60731,-0.838696,0.222403,-0.00676075,0.133559,-0.108773,0.00480935,0.00780968,0.691298,5,0.1,4,4.3,1.34079,-2.56056,0.599829,0.0103258,0.570386,0.000189431,-0.0119209,0.214964,-0.000208616,0.0216282,0.651144,5,0.1,5,4.3,-0.405374,4.01382,0.601491,-0.0780523,0.0339501,-0.00139689,-0.525069,-0.0308454,0.00125542,0.00617713,0.327712,5,0.1,6,4.3,-0.255498,1.96277,0.746838,-0.212123,-0.33874,0.00340743,0.0965772,0.0762492,-0.0015609,0.0079905,0.088413,5,0.1,7,4.3,-3.66587,2.62919,0.55188,0.00150874,0.00574328,0.000618771,-0.00286102,-0.0110418,-0.00120699,0.00838178,8.32714e-06,5,0.1,8,4.3,3.66485,-0.622801,0.5,-0.11962,0.866026,-5.58794e-07,0.00309944,-3.72529e-06,-7.45058e-06,0.0260565,2.26281,5,0.1,9,4.3,3.47275,1.22415,0.584715,-0.121645,0.866025,0.0107607,0.0200719,1.49012e-05,-0.00175089,0.00900019,1.91589,5,0.1
0,4.4,0.289667,-0.590669,0.599823,-0.586399,0.305933,0.000160933,0.526116,-0.206232,-0.000149012,0.00671845,0.203984,5,0.1,1,4.4,0.911152,1.35437,0.599418,0.34676,-0.0319928,0.000652671,-0.211924,-0.182867,-0.000327826,0.00633692,0.0902738,5,0.1,2,4.4,-1.79957,2.08367,0.600004,-0.00183582,-0.391603,-0.000144541,0.00452995,-0.0594854,0.000238419,0.0146152,0.108412,5,0.1,3,4.4,-2.38538,-0.383748,0.606658,-0.818586,0.210191,-0.00626147,0.295281,-0.140741,0.00530481,0.0101057,0.480683,5,0.1,4,4.4,1.34176,-2.50257,0.599847,0.00916421,0.587267,0.000168383,-0.0116229,0.092268,-0.000208616,0.0176225,1.21199,5,0.1,5,4.4,-0.415842,4.01706,0.601357,-0.13101,0.0309229,-0.00127256,-0.50734,-0.0309944,0.0012517,0.00873433,0.264004,5,0.1,6,4.4,-0.27622,1.92935,0.747171,-0.202041,-0.328663,0.00324696,0.112623,0.135958,-0.00178814,0.00728845,0.125385,5,0.1,7,4.4,-3.66574,2.62971,0.551936,0.00120997,0.0045836,0.000491738,-0.00321865,-0.0119209,-0.0013113,0.00667163,7.80584e-06,5,0.1,8,4.4,3.65292,-0.536199,0.5,-0.118637,0.866026,-1.49012e-06,0.0216961,0,0,0.0266062,2.26313,5,0.1,9,4.4,3.46071,1.31076,0.585781,-0.118828,0.866026,0.0105143,0.0405312,0,-0.00360608,0.00951559,1.54816,5,0.1
0,4.5,0.233521,-0.560947,0.599838,-0.53745,0.289697,0.000147615,0.468824,-0.134505,-0.000122935,0.00671845,0.203984,5,0.1,1,4.5,0.94492,1.35019,0.599482,0.32965,-0.0520825,0.000628643,-0.148017,-0.206888,-0.000193715,0.00633692,0.0902738,5,0.1,2,4.5,-1.79973,2.04419,0.599991,-0.00138469,-0.397801,-0.00011865,0.00442564,-0.0452846,0.000275671,0.0146152,0.108412,5,0.1,3,4.5,-2.46589,-0.363395,0.606057,-0.791897,0.197066,-0.00577392,0.26986,-0.128213,0.00463054,0.0101057,0.480683,5,0.1,4,4.5,1.34262,-2.4428,0.599863,0.00810307,0.612413,0.000149198,-0.00982732,0.34751,-0.000178814,0.0176225,1.21199,5,0.1,5,4.5,-0.43158,4.02001,0.601236,-0.184035,0.0281416,-0.00116006,-0.52619,-0.0256598,0.00104308,0.00873433,0.264004,5,0.1,6,4.5,-0.296023,1.89715,0.747487,-0.195264,-0.315156,0.00308305,0.0380054,0.143982,-0.00160187,0.00728845,0.125385,5,0.1,7,4.5,-3.66563,2.63011,0.551979,0.000885502,0.00337623,0.000359491,-0.00320375,-0.0119656,-0.00130385,0.00667163,7.80584e-06,5,0.1,8,4.5,3.64112,-0.449596,0.5,-0.117739,0.866026,-1.11759e-06,0.00341237,-3.57628e-06,7.45058e-06,0.0266062,2.26313,5,0.1,9,4.5,3.44901,1.39708,0.586816,-0.115319,0.857283,0.0102022,0.0345558,-0.191212,-0.00307336,0.00951559,1.54816,5,0.1
0,4.6,0.182132,-0.532639,0.599853,-0.489944,0.276273,0.000135601,0.492253,-0.145525,-0.000149012,0.00954027,0.140513,5,0.1,1,4.6,0.977132,1.34399,0.599544,0.314137,-0.071308,0.000606477,-0.174731,-0.169039,-0.000208616,0.00633114,0.0576757,5,0.1,2,4.6,-1.79985,2.00434,0.59998,-0.000962615,-0.397435,-9.08971e-05,0.00393391,0.0655055,0.000268221,0.0106803,0.54436,5,0.1,3,4.6,-2.54356,-0.344352,0.605503,-0.759339,0.183464,-0.00530332,0.402689,-0.148192,0.00491738,0.00912703,0.545331,5,0.1,4,4.6,1.34338,-2.37982,0.599877,0.00715554,0.645822,0.00013262,-0.00923872,0.274539,-0.000178814,0.0186788,2.47703,5,0.1,5,4.6,-0.452463,4.0227,0.601125,-0.231624,0.0256181,-0.00105649,-0.40634,-0.0255108,0.00101328,0.00595922,0.200726,5,0.1,6,4.6,-0.315382,1.86643,0.747787,-0.191829,-0.298244,0.00290722,0.0417233,0.200689,-0.00199676,0.00880437,0.266009,5,0.1,7,4.6,-3.66556,2.63039,0.552008,0.000578165,0.00222921,0.000233948,-0.00274181,-0.0107288,-0.00113249,0.00830823,6.25255e-06,5,0.1,8,4.6,3.62938,-0.362994,0.5,-0.116736,0.866025,0,0.0216961,1.43051e-05,0,0.0288569,2.26346,5,0.1,9,4.6,3.43767,1.48143,0.587819,-0.111085,0.825244,0.00982732,0.0534058,-0.458658,-0.00476837,0.00770362,1.42178,5,0.1
0,4.7,0.135458,-0.50564,0.599865,-0.444597,0.264355,0.000122376,0.428135,-0.105673,-0.000119209,0.00954027,0.140513,5,0.1,1,4.7,1.0077,1.33622,0.599603,0.297197,-0.0821248,0.000585336,-0.173435,-0.0516325,-0.000234693,0.00633114,0.0576757,5,0.1,2,4.7,-1.79977,1.96446,0.599972,0.00382811,-0.403555,-6.51926e-05,0.0820309,-0.14507,0.000238419,0.0106803,0.54436,5,0.1,3,4.7,-2.61776,-0.326549,0.604995,-0.726511,0.174175,-0.00485303,0.28953,-0.0528358,0.00424311,0.00912703,0.545331,5,0.1,4,4.7,1.34405,-2.31293,0.59989,0.0062786,0.698999,0.000115857,-0.00840425,0.695705,-0.000163913,0.0186788,2.47703,5,0.1,5,4.7,-0.477644,4.02514,0.601024,-0.271324,0.023327,-0.000965036,-0.366865,-0.0211895,0.000849366,0.00595922,0.200726,5,0.1,6,4.7,-0.334145,1.83761,0.748068,-0.181508,-0.278108,0.00271332,0.15815,0.208087,-0.00195205,0.00880437,0.266009,5,0.1,7,4.7,-3.66552,2.63056,0.552026,0.00031665,0.00121072,0.000126194,-0.00244379,-0.00947714,-0.00100955,0.00830823,6.25255e-06,5,0.1,8,4.7,3.61777,-0.276391,0.5,-0.115811,0.866025,0,0.0037998,-1.78814e-06,0,0.0288569,2.26346,5,0.1,9,4.7,3.42681,1.56073,0.588779,-0.106215,0.752609,0.00939313,0.0480115,-0.942901,-0.00426918,0.00770362,1.42178,5,0.1
0,4.8,0.0931223,-0.479753,0.599877,-0.402035,0.252949,0.000110269,0.432464,-0.131518,-8.9407e-05,0.00762853,0.166825,5,0.1,1,4.8,1.03649,1.32791,0.599661,0.277904,-0.0824928,0.000555813,-0.21857,0.0399351,-0.000327826,0.0100539,0.197986,5,0.1,2,4.8,-1.79892,1.92332,0.599967,0.0136912,-0.419,-4.32134e-05,0.107527,-0.132084,0.000208616,0.00951963,0.418822,5,0.1,3,4.8,-2.68891,-0.309341,0.604531,-0.695354,0.170232,-0.00442713,0.35882,-0.0374317,0.00435114,0.00670545,0.390484,5,0.1,4,4.8,1.34464,-2.23949,0.5999,0.00545382,0.768727,9.98378e-05,-0.00804663,0.629902,-0.000119209,0.0230877,0.324792,5,0.1,5,4.8,-0.506406,4.02737,0.600932,-0.301492,0.0212431,-0.000880659,-0.222266,-0.0209808,0.000864267,0.00588603,0.144142,5,0.1,6,4.8,-0.351359,1.81089,0.74833,-0.161446,-0.255641,0.0025034,0.237137,0.245035,-0.00223517,0.00840738,0.254291,5,0.1,7,4.8,-3.6655,2.63064,0.552034,9.53674e-05,0.000357628,3.57628e-05,-0.00190735,-0.00762939,-0.000804663,0.00784346,3.79604e-06,5,0.1,8,4.8,3.60622,-0.189788,0.5,-0.114775,0.866025,0,0.0216961,0,0,0.0299324,2.2638,5,0.1,9,4.8,3.41645,1.63082,0.589696,-0.100803,0.645661,0.00891238,0.0628233,-1.15722,-0.00557303,0.00927887,1.31729,5,0.1
0,4.9,0.0547603,-0.454873,0.599888,-0.367815,0.246538,0.000104029,0.275226,-0.0183135,-4.84288e-05,0.00762853,0.166825,5,0.1,1,4.9,1.06318,1.31999,0.599715,0.255709,-0.0747763,0.000520516,-0.229582,0.108972,-0.000383705,0.0100539,0.197986,5,0.1,2,4.9,-1.79695,1.88056,0.599964,0.0259621,-0.437312,-2.41213e-05,0.130482,-0.200875,0.000175089,0.00951963,0.418822,5,0.1,3,4.9,-2.75684,-0.292409,0.604109,-0.664402,0.169078,-0.00403002,0.288963,0.00261888,0.00371784,0.00670545,0.390484,5,0.1,4,4.9,1.34515,-2.16013,0.59991,0.00474676,0.811639,8.91276e-05,-0.00627339,0.22018,-0.000100583,0.0230877,0.324792,5,0.1,5,4.9,-0.537628,4.0294,0.600847,-0.322147,0.0193574,-0.000802614,-0.174426,-0.0174344,0.000722706,0.00588603,0.144142,5,0.1,6,4.9,-0.366209,1.78654,0.748569,-0.134672,-0.231486,0.00228444,0.290705,0.241779,-0.00218675,0.00840738,0.254291,5,0.1,7,4.9,-3.6655,2.63064,0.552034,-7.6741e-05,-0.00032559,-3.63216e-05,-0.00151992,-0.00596046,-0.000625849,0.00784346,3.79604e-06,5,0.1,8,4.9,3.59481,-0.103186,0.5,-0.11382,0.866025,0,0.00424683,0,0,0.0299324,2.2638,5,0.1,9,4.9,3.40667,1.68925,0.590561,-0.0950053,0.521436,0.00839867,0.0564456,-1.25808,-0.00499934,0.00927887,1.31729,5,0.1
0,5,0.0192519,-0.430269,0.599898,-0.342937,0.245534,9.98378e-05,0.239591,-0.0176877,-2.98023e-05,0.00659165,0.121807,5,0.1,1,5,1.08756,1.31313,0.599764,0.231317,-0.0617176,0.000478327,-0.260711,0.147521,-0.000506639,0.00655539,0.191112,5,0.1,2,5,-1.79372,1.83594,0.599962,0.0384986,-0.453472,-7.45058e-06,0.114739,-0.0985861,8.9407e-05,0.0126921,0.309821,5,0.1,3,5,-2.82176,-0.275501,0.603724,-0.632679,0.168737,-0.00366122,0.365615,-0.0178963,0.00378489,0.00983091,0.28195,5,0.1,4,5,1.34559,-2.07859,0.599918,0.00416636,0.811797,7.89762e-05,-0.00548363,-0.218391,-5.96046e-05,0.017814,2.34234,5,0.1,5,5,-0.570526,4.03125,0.600771,-0.333646,0.017643,-0.000731647,-0.0446141,-0.017643,0.000745058,0.00860371,0.167921,5,0.1,6,5,-0.378187,1.76462,0.748786,-0.104682,-0.206682,0.00205934,0.30297,0.256479,-0.00238419,0.0087781,0.249666,5,0.1,7,5,-3.66551,2.63058,0.552027,-0.000202656,-0.000822544,-8.9407e-05,-0.00107288,-0.00393391,-0.000417233,0.00686209,1.66235e-06,5,0.1,8,5,3.58346,-0.0165834,0.5,-0.112754,0.866025,0,0.0219345,-1.19209e-06,0,0.0239901,2.26415,5,0.1,9,5,3.39746,1.73537,0.591375,-0.088954,0.404671,0.00786334,0.0667572,-1.04016,-0.00590086,0.00797542,1.58359,5,0.1
0,5.1,-0.0138469,-0.405703,0.599908,-0.318899,0.246383,9.62988e-05,0.247753,0.0190474,-4.47035e-05,0.00659165,0.121807,5,0.1,1,5.1,1.10939,1.30774,0.59981,0.205225,-0.0458909,0.000427105,-0.262611,0.163205,-0.000521541,0.00655539,0.191112,5,0.1,2,5.1,-1.78928,1.79002,0.599962,0.0501197,-0.465088,1.02445e-06,0.112027,-0.107512,7.82311e-05,0.0126921,0.309821,5,0.1,3,5.1,-2.88335,-0.258928,0.603376,-0.599941,0.16077,-0.00331774,0.312597,-0.13426,0.0031963,0.00983091,0.28195,5,0.1,4,5.1,1.34599,-1.99749,0.599926,0.00365451,0.818001,7.26432e-05,-0.00482798,0.252761,-6.70552e-05,0.017814,2.34234,5,0.1,5,5.1,-0.604344,4.03294,0.600701,-0.344255,0.0163227,-0.000675675,-0.138123,-0.00995398,0.000428408,0.00860371,0.167921,5,0.1,6,5.1,-0.387162,1.7452,0.74898,-0.0751496,-0.181863,0.00182884,0.283001,0.242233,-0.0022538,0.0087781,0.249666,5,0.1,7,5.1,-3.66553,2.63048,0.552017,-0.00029169,-0.00114441,-0.000123773,-0.000700355,-0.0025034,-0.000264496,0.00686209,1.66235e-06,5,0.1,8,5.1,3.57225,0.0700192,0.5,-0.111748,0.866025,0,0.00488758,4.47035e-07,0,0.0239901,2.26415,5,0.1,9,5.1,3.38872,1.77102,0.592133,-0.0872355,0.314335,0.00731889,-0.0197738,-0.682414,-0.00523031,0.00797542,1.58359,5,0.1
0,5.2,-0.0444414,-0.381014,0.599917,-0.292315,0.246672,9.08971e-05,0.288052,-0.0243187,-8.9407e-05,0.00968702,0.14618,5,0.1,1,5.2,1.12858,1.30395,0.59985,0.178584,-0.0300676,0.000372529,-0.270903,0.14919,-0.000506639,0.00601621,0.189119,5,0.1,2,5.2,-1.78375,1.74313,0.599962,0.0599414,-0.470534,7.45058e-06,0.0805259,0.0167489,5.96046e-05,0.00947593,0.220375,5,0.1,3,5.2,-2.94171,-0.243665,0.60306,-0.566196,0.143233,-0.00300258,0.378489,-0.210203,0.00315905,0.00733417,0.130677,5,0.1,4,5.2,1.34633,-1.91425,0.599933,0.00318587,0.846773,6.55651e-05,-0.00452995,0.256777,-8.9407e-05,0.0223849,2.28011,5,0.1,5,5.2,-0.639416,4.03453,0.600635,-0.356199,0.0154495,-0.00063777,-0.0795126,-0.00834465,0.000357628,0.00681864,0.100839,5,0.1,6,5.2,-0.393326,1.72822,0.749152,-0.0488639,-0.157857,0.00160486,0.239566,0.239372,-0.00226498,0.00862264,0.422228,5,0.1,7,5.2,-3.66557,2.63035,0.552003,-0.000339746,-0.00132322,-0.000143051,-0.000357628,-0.00107288,-0.000119209,0.00877459,5.44559e-07,5,0.1,8,5.2,3.56112,0.156622,0.5,-0.110638,0.866026,0,0.0222921,-7.15256e-06,0,0.0273373,2.26452,5,0.1,9,5.2,3.37984,1.8,0.592839,-0.0906944,0.274685,0.00677556,-0.0395775,-0.129819,-0.00578165,0.00675089,1.35012,5,0.1
0,5.3,-0.0723887,-0.356204,0.599926,-0.267862,0.25152,8.35396e-05,0.213845,0.0952389,-6.33299e-05,0.00968702,0.14618,5,0.1,1,5.3,1.14511,1.30164,0.599885,0.152097,-0.0166915,0.000321865,-0.259057,0.115991,-0.000506639,0.00601621,0.189119,5,0.1,2,5.3,-1.77736,1.69612,0.599963,0.0676621,-0.469612,1.29454e-05,0.069499,0.0226945,4.84288e-05,0.00947593,0.220375,5,0.1,3,5.3,-2.99662,-0.230485,0.602773,-0.533291,0.119614,-0.00275904,0.302508,-0.255628,0.00189617,0.00733417,0.130677,5,0.1,4,5.3,1.34654,-1.8286,0.599939,0.000262633,0.863219,5.67175e-05,-0.0484437,0.080198,-8.56817e-05,0.0223849,2.28011,5,0.1,5,5.3,-0.675466,4.03604,0.600573,-0.364634,0.0147864,-0.000609271,-0.0703111,-0.00566244,0.000245869,0.00681864,0.100839,5,0.1,6,5.3,-0.397049,1.7136,0.749301,-0.0261473,-0.134618,0.00138339,0.206474,0.225909,-0.00217557,0.00862264,0.422228,5,0.1,7,5.3,-3.6656,2.63022,0.551988,-0.000360236,-0.00137947,-0.000149384,-7.45058e-05,-7.45058e-05,-1.49012e-05,0.00877459,5.44559e-07,5,0.1,8,5.3,3.55012,0.243224,0.5,-0.10957,0.866025,0,0.00560284,-1.78814e-06,0,0.0273373,2.26452,5,0.1,9,5.3,3.3705,1.82792,0.593489,-0.0967309,0.292735,0.0062434,-0.0714064,0.414453,-0.00505894,0.00675089,1.35012,5,0.1
0,5.4,-0.0981422,-0.330554,0.599934,-0.247331,0.261202,7.7486e-05,0.206087,0.0792891,-5.96046e-05,0.00706686,0.109431,5,0.1,1,5.4,1.15904,1.30048,0.599914,0.126758,-0.0071615,0.000271201,-0.247717,0.0739694,-0.000506639,0.0077997,0.320715,5,0.1,2,5.4,-1.7703,1.64942,0.599965,0.0731051,-0.462469,1.63913e-05,0.036478,0.134528,5.96046e-05,0.0149969,0.430947,5,0.1,3,5.4,-3.04841,-0.219832,0.602506,-0.501794,0.0932842,-0.00258982,0.34368,-0.265732,0.00163913,0.00772228,0.613121,5,0.1,4,5.4,1.34629,-1.74207,0.599944,-0.00552237,0.866026,4.76837e-05,-0.0630021,-5.96046e-05,-5.96046e-05,0.0225611,2.27356,5,0.1,5,5.4,-0.71214,4.03749,0.600513,-0.367089,0.0141859,-0.000582635,0.0340939,-0.00691414,0.000268221,0.00658119,0.0873573,5,0.1,6,5.4,-0.398739,1.70125,0.749429,-0.00884458,-0.112599,0.00117123,0.135094,0.214577,-0.00214577,0.0078935,0.874165,5,0.1,7,5.4,-3.66564,2.63008,0.551974,-0.000357628,-0.0013411,-0.000144541,0.000238419,0.000834465,5.96046e-05,0.00895279,1.46981e-07,5,0.1,8,5.4,3.53921,0.329827,0.5,-0.108397,0.866025,0,0.0224113,1.43051e-05,0,0.0238929,2.26491,5,0.1,9,5.4,3.36048,1.85965,0.594088,-0.103301,0.344089,0.0057295,-0.0528097,0.554204,-0.00536442,0.00987689,1.08336,5,0.1
0,5.5,-0.12192,-0.304386,0.599941,-0.22877,0.258884,7.19912e-05,0.173566,-0.116685,-4.84288e-05,0.00706686,0.109431,5,0.1,1,5.5,1.17051,1.30008,0.599939,0.103059,-0.00140909,0.000222307,-0.226006,0.0422373,-0.000473112,0.0077997,0.320715,5,0.1,2,5.5,-1.76281,1.60349,0.599967,0.0764046,-0.458757,2.14204e-05,0.0260174,-0.023447,3.72529e-05,0.0149969,0.430947,5,0.1,3,5.5,-3.09727,-0.211811,0.602255,-0.478554,0.0674343,-0.00242433,0.155941,-0.247543,0.00172481,0.00772228,0.613121,5,0.1,4,5.5,1.34538,-1.65547,0.600041,-0.0127843,0.866025,0.0026579,-0.0778362,1.49012e-05,0.0464506,0.0225611,2.27356,5,0.1,5,5.5,-0.748645,4.03859,0.600456,-0.362393,0.0056468,-0.000557676,0.0714958,-0.146717,0.00025332,0.00658119,0.0873573,5,0.1,6,5.5,-0.398919,1.69102,0.749536,0.00471394,-0.0924461,0.000969414,0.105212,0.189215,-0.00189617,0.0078935,0.874165,5,0.1,7,5.5,-3.66567,2.62995,0.55196,-0.00032708,-0.00123009,-0.000134856,0.000357628,0.00137091,0.00012666,0.00895279,1.46981e-07,5,0.1,8,5.5,3.52844,0.416429,0.5,-0.107283,0.866025,0,0.00621378,-3.57628e-06,0,0.0238929,2.26491,5,0.1,9,5.5,3.34998,1.89726,0.594636,-0.105762,0.411117,0.00523804,0.00339746,0.728168,-0.00463054,0.00987689,1.08336,5,0.1
0,5.6,-0.143927,-0.279342,0.599948,-0.211184,0.2396,6.85453e-05,0.184044,-0.260606,-8.9407e-05,0.00714802,0.138503,5,0.1,1,5.6,1.17973,1.30011,0.599959,0.0815988,0.00151098,0.000175834,-0.202894,0.0174642,-0.00038743,0.00606063,0.316109,5,0.1,2,5.6,-1.75508,1.55748,0.599969,0.0777304,-0.460783,2.38419e-05,-0.00184774,0.00971556,2.98023e-05,0.0115244,0.334154,5,0.1,3,5.6,-3.14442,-0.20625,0.602021,-0.464559,0.0444017,-0.00223815,0.149608,-0.210568,0.00211596,0.011047,1.25811,5,0.1,4,5.6,1.34372,-1.56887,0.600576,-0.0203252,0.866026,0.00830293,-0.0696778,-5.96046e-05,0.0619888,0.0180927,2.27172,5,0.1,5,5.6,-0.784388,4.03831,0.600402,-0.350873,-0.0120997,-0.000527501,0.166416,-0.19455,0.000298023,0.00691814,0.0723404,5,0.1,6,5.6,-0.398155,1.68269,0.749624,0.00787303,-0.074625,0.000789762,-0.0544488,0.167787,-0.00169873,0.00936079,2.1892,5,0.1,7,5.6,-3.6657,2.62984,0.551947,-0.000286102,-0.00107884,-0.000119209,0.000476837,0.00178814,0.000178814,0.00665044,8.71031e-08,5,0.1,8,5.6,3.51776,0.503032,0.5,-0.106066,0.866026,0,0.022769,0,0,0.0255365,2.26531,5,0.1,9,5.6,3.33951,1.94191,0.595136,-0.102723,0.479653,0.00477433,0.0568628,0.600159,-0.00476837,0.00723882,0.434557,5,0.1
0,5.7,-0.164214,-0.256881,0.599955,-0.195212,0.207898,6.11879e-05,0.14422,-0.363743,-6.33299e-05,0.00714802,0.138503,5,0.1,1,5.7,1.18692,1.3004,0.599975,0.0626922,0.00475813,0.00013886,-0.175208,0.0375435,-0.000353903,0.00606063,0.316109,5,0.1,2,5.7,-1.74732,1.51161,0.599971,0.0773709,-0.45488,2.62633e-05,-0.00818074,0.116177,1.49012e-05,0.0115244,0.334154,5,0.1,3,5.7,-3.19071,-0.202862,0.601873,-0.465602,0.0236522,-0.000191201,-0.120103,-0.193972,0.0347756,0.011047,1.25811,5,0.1,4,5.7,1.34133,-1.48227,0.601659,-0.0275701,0.866025,0.012805,-0.0715107,1.49012e-05,0.0294708,0.0180927,2.27172,5,0.1,5,5.7,-0.81869,4.03611,0.60035,-0.335301,-0.031957,-0.000500586,0.15755,-0.194192,0.000257045,0.00691814,0.0723404,5,0.1,6,5.7,-0.397693,1.67601,0.749695,-0.00217622,-0.0592217,0.000633765,-0.254545,0.141069,-0.00143424,0.00936079,2.1892,5,0.1,7,5.7,-3.66573,2.62974,0.551936,-0.000236928,-0.000893697,-0.000100117,0.000506639,0.00189245,0.00019744,0.00665044,8.71031e-08,5,0.1,8,5.7,3.50722,0.589634,0.5,-0.104885,0.866026,0,0.00704825,-3.72529e-06,0,0.0255365,2.26531,5,0.1,9,5.7,3.32975,1.99268,0.595591,-0.0905849,0.533157,0.00433978,0.174075,0.444807,-0.00406802,0.00723882,0.434557,5,0.1
0,5.8,-0.183021,-0.238013,0.599961,-0.180839,0.168658,5.66244e-05,0.149444,-0.412688,-8.9407e-05,0.0109155,0.128998,5,0.1,1,5.8,1.19236,1.30104,0.599987,0.0465512,0.00744462,0.000105798,-0.1477,0.0103116,-0.000327826,0.0083066,0.29848,5,0.1,2,5.8,-1.73965,1.46693,0.599974,0.0756264,-0.436348,2.68221e-05,-0.0285506,0.258684,-2.98023e-05,0.00929179,0.709803,5,0.1,3,5.8,-3.23797,-0.201372,0.602054,-0.479805,0.00724606,0.00399351,-0.126481,-0.128195,0.045836,0.00859176,1.07977,5,0.1,4,5.8,1.33823,-1.39566,0.603043,-0.0339895,0.866026,0.0144675,-0.0541806,-5.96046e-05,0.00506639,0.0218887,2.27089,5,0.1,5,5.8,-0.851364,4.032,0.600302,-0.317277,-0.0494957,-0.000472367,0.211239,-0.151157,0.000327826,0.00598211,0.206075,5,0.1,6,5.8,-0.4,1.67076,0.749751,-0.0519894,-0.0462621,0.000500679,-0.723258,0.118732,-0.00119209,0.00709746,1.90721,5,0.1,7,5.8,-3.66575,2.62966,0.551927,-0.000184774,-0.000709295,-8.04663e-05,0.000476837,0.00190735,0.000208616,0.00665791,9.58156e-08,5,0.1,8,5.8,3.49678,0.676237,0.5,-0.103599,0.866026,0,0.0228882,0,0,0.0296245,2.26574,5,0.1,9,5.8,3.32167,2.0478,0.596005,-0.0700474,0.564492,0.0039354,0.227213,0.165939,-0.00405312,0.00858101,0.644573,5,0.1
0,5.9,-0.200385,-0.223254,0.599966,-0.166599,0.126333,4.9267e-05,0.14,-0.423579,-6.33299e-05,0.0109155,0.128998,5,0.1,1,5.9,1.19632,1.30188,0.599996,0.0331087,0.00912938,7.57165e-05,-0.121303,0.000827014,-0.000271946,0.0083066,0.29848,5,0.1,2,5.9,-1.73223,1.42511,0.599977,0.0728032,-0.395679,2.3935e-05,-0.0302568,0.523821,-2.6077e-05,0.00929179,0.709803,5,0.1,3,5.9,-3.28684,-0.201255,0.602706,-0.499107,-0.00404506,0.00920594,-0.220403,-0.0771638,0.0553727,0.00859176,1.07977,5,0.1,4,5.9,1.33456,-1.30906,0.604488,-0.0394765,0.866025,0.0141867,-0.0522137,1.49012e-05,-0.00971183,0.0218887,2.27089,5,0.1,5,5.9,-0.882024,4.02644,0.600256,-0.295674,-0.0601575,-0.000439584,0.226762,-0.0633597,0.000342727,0.00598211,0.206075,5,0.1,6,5.9,-0.40983,1.66669,0.749796,-0.152494,-0.0355724,0.000393111,-1.19872,0.0958145,-0.000972301,0.00709746,1.90721,5,0.1,7,5.9,-3.66577,2.6296,0.55192,-0.000138953,-0.000524893,-6.01634e-05,0.000432134,0.00174344,0.000193715,0.00665791,9.58156e-08,5,0.1,8,5.9,3.4865,0.762839,0.5,-0.102365,0.866026,0,0.0077635,-3.72529e-06,0,0.0296245,2.26574,5,0.1,9,5.9,3.31568,2.10527,0.59638,-0.0510287,0.586016,0.00356706,0.156924,0.224426,-0.00343099,0.00858101,0.644573,5,0.1
0,6,-0.21633,-0.212688,0.599971,-0.152067,0.0856977,4.32134e-05,0.153713,-0.381835,-2.98023e-05,0.00937568,0.0150585,5,0.1,1,6,1.19907,1.30264,0.600002,0.0222504,0.00448227,5.06639e-05,-0.0960827,-0.102639,-0.000208616,0.00764394,0.259768,5,0.1,2,6,-1.72512,1.38839,0.599979,0.0691831,-0.336954,2.23517e-05,-0.043571,0.627637,-5.96046e-05,0.0141427,1.23699,5,0.1,3,6,-3.33774,-0.201842,0.603899,-0.517172,-0.00542365,0.0145391,-0.11301,0.0567585,0.0490248,0.00837534,0.900881,5,0.1,4,6,1.33038,-1.22246,0.60584,-0.043869,0.866026,0.0127077,-0.033319,-5.96046e-05,-0.0190437,0.0202899,2.27044,5,0.1,5,6,-0.910394,4.02024,0.600214,-0.270978,-0.0625014,-0.000403821,0.270754,0.0145435,0.000417233,0.00654769,0.193824,5,0.1,6,6,-0.43126,1.66358,0.749831,-0.27625,-0.0269592,0.000305474,-1.20972,0.077188,-0.000804663,0.00755702,1.54607,5,0.1,7,6,-3.66578,2.62955,0.551915,-9.53674e-05,-0.000357628,-4.02331e-05,0.000357628,0.00143051,0.000149012,0.00876022,7.47744e-08,5,0.1,8,6,3.47632,0.849442,0.5,-0.101024,0.866026,0,0.023365,0,0,0.025695,2.2662,5,0.1,9,6,3.31127,2.16482,0.59672,-0.0379741,0.602525,0.00322908,0.107169,0.077486,-0.00342727,0.00834747,0.474612,5,0.1
0,6.1,-0.230545,-0.2059,0.599975,-0.13037,0.0513493,3.80911e-05,0.266445,-0.304604,-7.07805e-05,0.00937568,0.0150585,5,0.1,1,6.1,1.20085,1.30246,0.600006,0.0137279,-0.0102349,3.19444e-05,-0.0746176,-0.223204,-0.000167638,0.00764394,0.259768,5,0.1,2,6.1,-1.71841,1.3581,0.599981,0.0650253,-0.267874,1.73226e-05,-0.0415444,0.6973,-3.72529e-05,0.0141427,1.23699,5,0.1,3,6.1,-3.39013,-0.201944,0.605601,-0.530858,0.00583944,0.0194957,-0.129938,0.200354,0.0477992,0.00837534,0.900881,5,0.1,4,6.1,1.32582,-1.13586,0.607007,-0.0472944,0.866025,0.0105478,-0.0320673,1.49012e-05,-0.0235066,0.0202899,2.27044,5,0.1,5,6.1,-0.936129,4.0142,0.600175,-0.243585,-0.0571139,-0.000362378,0.279326,0.0868142,0.000413507,0.00654769,0.193824,5,0.1,6,6.1,-0.465231,1.66123,0.749857,-0.404429,-0.0201458,0.000234228,-1.28719,0.0597462,-0.000622123,0.00755702,1.54607,5,0.1,7,6.1,-3.66579,2.62952,0.551911,-6.14673e-05,-0.00022389,-2.58908e-05,0.000312924,0.0012368,0.00013411,0.00876022,7.47744e-08,5,0.1,8,6.1,3.46629,0.936045,0.5,-0.0997055,0.866026,0,0.00877678,0,0,0.025695,2.2662,5,0.1,9,6.1,3.30797,2.22555,0.597027,-0.0282969,0.612006,0.00291886,0.0856966,0.0803471,-0.0028722,0.00834747,0.474612,5,0.1
0,6.2,-0.242157,-0.202157,0.599978,-0.1012,0.0248034,3.12924e-05,0.306487,-0.22658,-0.000119209,0.00842236,0.301264,5,0.1,1,6.2,1.20188,1.3,0.600008,0.00727177,-0.0419438,1.63913e-05,-0.0548959,-0.397325,-8.9407e-05,0.00619797,0.198887,5,0.1,2,6.2,-1.71213,1.33456,0.599983,0.0605464,-0.206023,1.3411e-05,-0.049293,0.511229,-2.98023e-05,0.0110445,1.14507,5,0.1,3,6.2,-3.44369,-0.2,0.607772,-0.537944,0.0363883,0.0237033,0.00977516,0.396192,0.0347495,0.0117692,0.717666,5,0.1,4,6.2,1.32095,-1.04925,0.607941,-0.049749,0.866026,0.00812113,-0.0149012,-2.98023e-05,-0.0244677,0.0163149,2.27021,5,0.1,5,6.2,-0.959063,4.009,0.600141,-0.214784,-0.0463128,-0.000320375,0.297725,0.123739,0.000447035,0.00870861,0.437215,5,0.1,6,6.2,-0.511787,1.65949,0.749878,-0.522229,-0.0148863,0.000177324,-1.02091,0.0459552,-0.000447035,0.0117729,1.18554,5,0.1,7,6.2,-3.66579,2.62951,0.551909,-3.57628e-05,-0.000107288,-1.3411e-05,0.000357628,0.000834465,8.9407e-05,0.00749693,4.35608e-08,5,0.1,8,6.2,3.45638,1.02265,0.5,-0.0982821,0.866026,0,0.0238419,0,0,0.0269802,2.22215,5,0.1,9,6.2,3.30553,2.28694,0.597304,-0.0209093,0.61323,0.00263751,0.062108,-0.0777245,-0.00283122,0.0073974,0.572126,5,0.1
0,6.3,-0.251184,-0.200604,0.599981,-0.0831695,0.00813915,2.15136e-05,0.0767158,-0.114098,-7.82311e-05,0.00842236,0.301264,5,0.1,1,6.3,1.20236,1.29347,0.60001,0.00257045,-0.0912042,8.00937e-06,-0.0394285,-0.551842,-7.45058e-05,0.00619797,0.198887,5,0.1,2,6.3,-1.70631,1.31619,0.599984,0.0559244,-0.166131,1.08965e-05,-0.0448078,0.227004,-1.86265e-05,0.0110445,1.14507,5,0.1,3,6.3,-3.49749,-0.193945,0.610313,-0.537958,0.0880057,0.0270316,0.0145435,0.595191,0.0300258,0.0117692,0.717666,5,0.1,4,6.3,1.31589,-0.962652,0.60863,-0.051442,0.866025,0.00567781,-0.0159368,3.72529e-06,-0.0239648,0.0163149,2.27021,5,0.1,5,6.3,-0.979314,4.00508,0.600049,-0.192437,-0.0314318,-0.0020463,0.165194,0.160784,-0.0310317,0.00870861,0.437215,5,0.1,6,6.3,-0.569103,1.65821,0.749894,-0.622661,-0.0109216,0.000138208,-0.936478,0.0338927,-0.000342727,0.0117729,1.18554,5,0.1,7,6.3,-3.66579,2.6295,0.551909,-4.84288e-06,-3.09199e-05,-4.93601e-06,0.000283122,0.000700355,7.82311e-05,0.00749693,4.35608e-08,5,0.1,8,6.3,3.44663,1.10925,0.5,-0.0968363,0.866026,0,0.0105649,0,0,0.0269802,2.22215,5,0.1,9,6.3,3.30378,2.34809,0.597555,-0.0142481,0.610891,0.00238214,0.0603348,-0.00451505,-0.00235438,0.0073974,0.572126,5,0.1
0,6.4,-0.259344,-0.200225,0.599983,-0.0818215,0.000638142,1.63913e-05,-0.0320077,-0.0419691,-5.96046e-05,0.0105971,0.302418,5,0.1,1,6.4,1.20244,1.28158,0.60001,-0.000673532,-0.146019,2.98023e-06,-0.0258088,-0.517607,-8.9407e-05,0.00603891,0.134968,5,0.1,2,6.4,-1.70094,1.3,0.599985,0.0513077,-0.164616,1.04308e-05,-0.0486374,-0.177085,-2.98023e-05,0.0105176,0.984496,5,0.1,3,6.4,-3.55104,-0.182118,0.613147,-0.530899,0.148248,0.0294074,0.143409,0.578836,0.0162721,0.0071992,0.545721,5,0.1,4,6.4,1.31069,-0.876049,0.609082,-0.0524223,0.866026,0.00340492,-0.00149012,0,-0.0211895,0.020709,2.27015,5,0.1,5,6.4,-0.997843,4.00272,0.599664,-0.178936,-0.0162959,-0.00582635,0.117004,0.133276,-0.0415742,0.00680659,0.41162,5,0.1,6,6.4,-0.635568,1.65728,0.749906,-0.700872,-0.00800788,0.000108778,-0.592411,0.0249147,-0.000298023,0.00907093,2.38392,5,0.1,7,6.4,-3.66579,2.6295,0.551908,1.19209e-05,2.98023e-05,1.49012e-06,0.000357628,0.000476837,5.96046e-05,0.00702713,2.66026e-08,5,0.1,8,6.4,3.43702,1.19585,0.5,-0.0952423,0.866026,0,0.0253916,0,0,0.0312455,1.76466,5,0.1,9,6.4,3.30259,2.40904,0.597782,-0.0103831,0.606281,0.00215173,0.0121593,-0.112891,-0.00229478,0.00569905,0.429711,5,0.1
0,6.5,-0.267834,-0.200329,0.599984,-0.0891059,-0.0023311,2.57045e-05,-0.100121,-0.0182893,0.000216067,0.0105971,0.302418,5,0.1,1,6.5,1.20227,1.26437,0.60001,-0.00273436,-0.197896,-4.37722e-06,-0.0157058,-0.496604,-6.33299e-05,0.00603891,0.134968,5,0.1,2,6.5,-1.69604,1.28202,0.599986,0.0468008,-0.200032,8.00937e-06,-0.0428855,-0.484027,-1.49012e-05,0.0105176,0.984496,5,0.1,3,6.5,-3.60346,-0.164281,0.616165,-0.517539,0.208889,0.0308815,0.143752,0.602948,0.0117794,0.0071992,0.545721,5,0.1,4,6.5,1.30542,-0.789446,0.60932,-0.0528894,0.866026,0.00138218,-0.00487268,-3.72529e-06,-0.0189357,0.020709,2.27015,5,0.1,5,6.5,-1.01529,4.00175,0.598851,-0.171167,-0.00373572,-0.0106024,0.0508949,0.0990033,-0.0509843,0.00680659,0.41162,5,0.1,6,6.5,-0.708999,1.65635,0.749915,-0.769751,-0.0124985,8.27946e-05,-0.71428,-0.0996813,-0.000227243,0.00907093,2.38392,5,0.1,7,6.5,-3.66579,2.62951,0.551909,3.94881e-05,7.07805e-05,6.89179e-06,0.000208616,0.000357628,4.47035e-05,0.00702713,2.66026e-08,5,0.1,8,6.5,3.4276,1.28245,0.5,-0.0932302,0.866026,0,0.0192374,0,0,0.0312455,1.76466,5,0.1,9,6.5,3.30154,2.46922,0.597986,-0.0114866,0.597859,0.00194516,-0.0481009,-0.0838786,-0.0018999,0.00569905,0.429711,5,0.1
0,6.6,-0.277266,-0.200621,0.599988,-0.0994779,-0.00319704,5.36442e-05,-0.0972152,5.96046e-05,0.000298023,0.0067737,0.289099,5,0.1,1,6.6,1.20193,1.24229,0.600009,-0.0038743,-0.241378,-8.9407e-06,-0.00739098,-0.356734,-5.96046e-05,0.00725246,0.112667,5,0.1,2,6.6,-1.69158,1.25942,0.599986,0.0424951,-0.252941,5.96046e-06,-0.0442266,-0.536561,0,0.0118486,1.78438,5,0.1,3,6.6,-3.65436,-0.140547,0.619295,-0.498801,0.263515,0.0315264,0.244617,0.467352,0.000208616,0.00687769,0.39881,5,0.1,4,6.6,1.30012,-0.702844,0.609369,-0.0528961,0.866026,-0.000329316,0.00691414,0,-0.0150204,0.0170931,2.36454,5,0.1,5,6.6,-1.03218,4.0017,0.59754,-0.166583,0.000870228,-0.0155091,0.0499487,-0.0143051,-0.0449419,0.00917826,0.374099,5,0.1,6,6.6,-0.789278,1.6545,0.749923,-0.831904,-0.0252634,6.4075e-05,-0.481427,-0.144005,-0.000208616,0.00790109,2.29283,5,0.1,7,6.6,-3.66578,2.62951,0.55191,5.36442e-05,9.53674e-05,1.04308e-05,0,0.000357628,2.98023e-05,0.00655261,1.53638e-08,5,0.1,8,6.6,3.41839,1.36906,0.5,-0.0906587,0.866026,0,0.0352859,0,0,0.0278341,1.52203,5,0.1,9,6.6,3.3,2.52845,0.598171,-0.0208378,0.584716,0.00175983,-0.133395,-0.198722,-0.00187755,0.00820289,0.31365,5,0.1
0,6.7,-0.287755,-0.200977,0.599995,-0.110596,-0.00413598,8.92207e-05,-0.114709,-0.0125552,0.00038743,0.0067737,0.289099,5,0.1,1,6.7,1.20152,1.21633,0.600008,-0.00421312,-0.277509,-1.35973e-05,0.00012666,-0.341974,-3.72529e-05,0.00725246,0.112667,5,0.1,2,6.7,-1.68753,1.2319,0.599987,0.0384344,-0.295567,6.0536e-06,-0.0381544,-0.415474,3.72529e-06,0.0118486,1.78438,5,0.1,3,6.7,-3.70308,-0.111872,0.622447,-0.475806,0.309234,0.0314659,0.231728,0.423101,-0.0025779,0.00687769,0.39881,5,0.1,4,6.7,1.29485,-0.616466,0.609264,-0.052608,0.858746,-0.00173058,0.00175089,-0.165984,-0.012733,0.0170931,2.36454,5,0.1,5,6.7,-1.04866,4.00157,0.59576,-0.163591,-0.0055775,-0.0200721,0.0197664,-0.141084,-0.0440627,0.00917826,0.374099,5,0.1,6,6.7,-0.874232,1.65115,0.749928,-0.86138,-0.0426261,4.69387e-05,-0.135556,-0.190966,-0.000141561,0.00790109,2.29283,5,0.1,7,6.7,-3.66578,2.62952,0.551911,5.17815e-05,0.00012219,1.28523e-05,-4.47035e-05,0.000178814,1.49012e-05,0.00655261,1.53638e-08,5,0.1,8,6.7,3.40949,1.45484,0.5,-0.0875141,0.841862,0,0.0311583,-0.464849,0,0.0278341,1.52203,5,0.1,9,6.7,3.29706,2.58601,0.598339,-0.0393115,0.566938,0.00159107,-0.219494,-0.179768,-0.00154972,0.00820289,0.31365,5,0.1
0,6.8,-0.299347,-0.201434,0.600006,-0.120631,-0.00471659,0.00012666,-0.0785142,0.00456721,0.00038743,0.00985262,0.271187,5,0.1,1,6.8,1.20111,1.18705,0.600007,-0.00393987,-0.305745,-1.63913e-05,0.00500679,-0.206411,0,0.00673219,0.0559611,5,0.1,2,6.8,-1.68388,1.2,0.599988,0.0346631,-0.345132,5.96046e-06,-0.0380874,-0.567257,0,0.00938037,1.49,5,0.1,3,6.8,-3.74942,-0.0790666,0.625568,-0.449699,0.344102,0.0308201,0.301361,0.257865,-0.0111163,0.00811461,0.280096,5,0.1,4,6.8,1.28961,-0.53183,0.609033,-0.0520498,0.829589,-0.00282973,0.0114441,-0.429153,-0.00911951,0.0174861,2.83162,5,0.1,5,6.8,-1.06491,4,0.593549,-0.160939,-0.028789,-0.0239372,0.0404119,-0.311375,-0.0316501,0.00667925,0.318454,5,0.1,6,6.8,-0.960716,1.64593,0.749932,-0.866026,-0.0613153,3.57628e-05,2.98023e-05,-0.173628,-0.000119209,0.0072836,2.26753,5,0.1,7,6.8,-3.66577,2.62954,0.551912,4.17233e-05,0.000137091,1.49012e-05,0,-0.000119209,-2.98023e-05,0.0068042,5.05455e-09,5,0.1,8,6.8,3.40091,1.53606,0.5,-0.0838339,0.776684,0,0.0450611,-0.820935,0,0.0310091,1.43015,5,0.1,9,6.8,3.29201,2.64169,0.59849,-0.0618279,0.544906,0.00143945,-0.218272,-0.276804,-0.00149012,0.00705754,0.434635,5,0.1
0,6.9,-0.311817,-0.201914,0.600021,-0.12872,-0.0047917,0.000165589,-0.0751205,0.00871904,0.000372529,0.00985262,0.271187,5,0.1,1,6.9,1.20074,1.15556,0.600005,-0.00330135,-0.322631,-1.59256e-05,0.00745058,-0.119299,1.11759e-05,0.00673219,0.0559611,5,0.1,2,6.9,-1.68059,1.16201,0.599988,0.0311919,-0.419352,5.96046e-06,-0.0323206,-0.845425,0,0.00938037,1.49,5,0.1,3,6.9,-3.79296,-0.0434105,0.628596,-0.421533,0.368098,0.0297144,0.275597,0.203186,-0.0119507,0.00811461,0.280096,5,0.1,4,6.9,1.28445,-0.451974,0.608707,-0.0513544,0.759022,-0.00366988,0.00528246,-0.939738,-0.00743195,0.0174861,2.83162,5,0.1,5,6.9,-1.08084,3.9952,0.591,-0.157967,-0.0701286,-0.0269772,0.0268891,-0.481486,-0.0273958,0.00667925,0.318454,5,0.1,6,6.9,-1.04732,1.63889,0.749935,-0.866025,-0.0797639,2.64496e-05,-7.45058e-06,-0.184737,-6.70552e-05,0.0072836,2.26753,5,0.1,7,6.9,-3.66577,2.62955,0.551914,3.98606e-05,0.000123307,1.23866e-05,-4.47035e-05,-0.000163913,-1.86265e-05,0.0068042,5.05455e-09,5,0.1,8,6.9,3.39274,1.60886,0.5,-0.0796959,0.672841,0,0.0405908,-1.2014,0,0.0310091,1.43015,5,0.1,9,6.9,3.28456,2.69504,0.598627,-0.0882018,0.52379,0.00130562,-0.289455,-0.17418,-0.00123307,0.00705754,0.434635,5,0.1
0,7,-0.325005,-0.202255,0.600039,-0.134277,-0.000919402,0.000198185,-0.0303686,0.0744611,0.000298023,0.00961233,0.24506,5,0.1,1,7,1.20045,1.12292,0.600004,-0.00250638,-0.32768,-1.3411e-05,0.00816584,0.0256896,0,0.0100391,0.0833823,5,0.1,2,7,-1.67763,1.11587,0.599989,0.0280321,-0.501746,7.45058e-06,-0.0316501,-0.749409,-2.98023e-05,0.00910889,0.207187,5,0.1,3,7,-3.83369,-0.00580114,0.6315,-0.392282,0.381597,0.0282705,0.318646,0.0542414,-0.0175238,0.00640889,0.190879,5,0.1,4,7,1.27935,-0.381322,0.608307,-0.050512,0.649407,-0.00427365,0.0136495,-1.21735,-0.00450015,0.0167094,3.28647,5,0.1,5,7,-1.09647,3.98572,0.588184,-0.154227,-0.119138,-0.0291228,0.0534654,-0.473261,-0.0143051,0.00888322,0.254407,5,0.1,6,7,-1.13392,1.63004,0.749938,-0.866026,-0.0964463,2.23517e-05,0,-0.141323,-5.96046e-05,0.00705458,2.26287,5,0.1,7,7,-3.66577,2.62956,0.551915,2.98023e-05,0.000107288,1.04308e-05,0,-0.000119209,-2.98023e-05,0.00706292,4.62649e-09,5,0.1,8,7,3.38498,1.66987,0.5,-0.0752211,0.545874,0,0.0507832,-1.29771,0,0.030883,1.36102,5,0.1,9,7,3.27431,2.74652,0.598752,-0.116283,0.505149,0.00118464,-0.25773,-0.218987,-0.0012219,0.0113297,0.784556,5,0.1
0,7.1,-0.338587,-0.201906,0.60006,-0.137241,0.00925476,0.000226125,-0.0224225,0.152095,0.000245869,0.00961233,0.24506,5,0.1,1,7.1,1.20024,1.09018,0.600002,-0.00171158,-0.327609,-1.29454e-05,0.00757724,-0.00555068,1.11759e-05,0.0100391,0.0833823,5,0.1,2,7.1,-1.67498,1.06254,0.599989,0.0251653,-0.558846,5.02914e-06,-0.0265017,-0.386916,-1.49012e-05,0.00910889,0.207187,5,0.1,3,7.1,-3.87141,0.032603,0.634242,-0.36272,0.385825,0.0265952,0.284001,0.0151202,-0.0167787,0.00640889,0.190879,5,0.1,4,7.1,1.27435,-0.322928,0.607858,-0.0495907,0.515347,-0.00468623,0.00746548,-1.40694,-0.00350922,0.0167094,3.28647,5,0.1,5,7.1,-1.11166,3.97134,0.585203,-0.149583,-0.168899,-0.0304198,0.0457689,-0.496268,-0.0102371,0.00888322,0.254407,5,0.1,6,7.1,-1.22052,1.61967,0.74994,-0.866026,-0.111014,1.84402e-05,0,-0.140443,-2.23517e-05,0.00705458,2.26287,5,0.1,7,7.1,-3.66576,2.62957,0.551916,2.79397e-05,9.35048e-05,7.91624e-06,-4.47035e-05,-0.000163913,-1.86265e-05,0.00706292,4.62649e-09,5,0.1,8,7.1,3.3777,1.71787,0.5,-0.0705302,0.414686,0,0.0454187,-1.26468,0,0.030883,1.36102,5,0.1,9,7.1,3.26173,2.79625,0.598864,-0.132323,0.491615,0.00107493,-0.0722259,-0.0845492,-0.00100583,0.0113297,0.784556,5,0.1
0,7.2,-0.352367,-0.2,0.600084,-0.137676,0.030918,0.000244379,0.0181198,0.272281,0.000149012,0.00878624,0.207885,5,0.1,1,7.2,1.20011,1.05747,0.600001,-0.00101626,-0.325599,-1.04308e-05,0.00631809,0.0587702,-2.98023e-05,0.00619154,0.264925,5,0.1,2,7.2,-1.67259,1.00535,0.59999,0.0225872,-0.578509,2.98023e-06,-0.02563,-0.00572205,2.98023e-05,0.0108443,0.19241,5,0.1,3,7.2,-3.90624,0.0710954,0.636814,-0.33356,0.3821,0.0247791,0.307202,-0.0996327,-0.0199974,0.00856314,0.127664,5,0.1,4,7.2,1.26943,-0.278363,0.607375,-0.0485659,0.377607,-0.00493526,0.0150204,-1.30889,-0.0013113,0.0140747,3.31057,5,0.1,5,7.2,-1.12636,3.95211,0.582126,-0.144002,-0.213981,-0.0309393,0.0702739,-0.386953,0.000804663,0.00637223,0.192668,5,0.1,6,7.2,-1.30713,1.60793,0.749941,-0.866026,-0.122902,1.78814e-05,0,-0.0906587,-2.98023e-05,0.007396,2.35054,5,0.1,7,7.2,-3.66576,2.62958,0.551916,1.78814e-05,7.7486e-05,5.96046e-06,0.000119209,-0.000119209,0,0.00742551,6.13505e-09,5,0.1,8,7.2,3.37088,1.75345,0.5,-0.065732,0.30213,0,0.0522137,-0.955999,0,0.0351029,1.26327,5,0.1,9,7.2,3.24838,2.84499,0.598967,-0.132447,0.482577,0.000976026,0.061512,-0.120282,-0.00101328,0.00798477,0.679318,5,0.1
0,7.3,-0.366049,-0.195266,0.600109,-0.135875,0.0658705,0.000257418,0.0231434,0.399523,9.68575e-05,0.00878624,0.207885,5,0.1,1,7.3,1.20025,1.02496,0.599967,0.00579655,-0.326358,-0.000931881,0.116035,-0.0473447,-0.0163615,0.00619154,0.264925,5,0.1,2,7.3,-1.67045,0.947592,0.59999,0.0202766,-0.575091,5.4948e-06,-0.0212714,0.0898279,1.86265e-05,0.0108443,0.19241,5,0.1,3,7.3,-3.93815,0.108812,0.639197,-0.305261,0.371944,0.0229016,0.26834,-0.11598,-0.0182241,0.00856314,0.127664,5,0.1,4,7.3,1.26464,-0.247006,0.606876,-0.0473643,0.252731,-0.00504553,0.0112429,-1.12087,-0.000685453,0.0140747,3.31057,5,0.1,5,7.3,-1.14043,3.92878,0.579038,-0.13759,-0.251906,-0.0307922,0.0631586,-0.351757,0.00326708,0.00637223,0.192668,5,0.1,6,7.3,-1.39348,1.59517,0.749943,-0.857995,-0.132366,1.64844e-05,0.178248,-0.0896305,-3.72529e-06,0.007396,2.35054,5,0.1,7,7.3,-3.66576,2.62959,0.551917,2.49594e-05,6.4075e-05,5.96046e-06,4.47035e-05,-0.000149012,0,0.00742551,6.13505e-09,5,0.1,8,7.3,3.36455,1.77941,0.5,-0.0609178,0.224089,0,0.0460893,-0.546202,0,0.0351029,1.26327,5,0.1,9,7.3,3.23571,2.89281,0.59906,-0.118672,0.474842,0.000885222,0.194594,-0.060454,-0.00083074,0.00798477,0.679318,5,0.1
0,7.4,-0.379478,-0.186656,0.600135,-0.13217,0.106053,0.00026226,0.0544786,0.383697,0,0.0106455,0.288685,5,0.1,1,7.4,1.2015,0.992091,0.599779,0.0197202,-0.330472,-0.00291765,0.151753,-0.015527,-0.0218153,0.005959,0.201513,5,0.1,2,7.4,-1.66853,0.890793,0.599991,0.0182152,-0.558002,7.45058e-06,-0.0204444,0.261575,0,0.00882533,0.120417,5,0.1,3,7.4,-3.96734,0.145316,0.641394,-0.27827,0.356831,0.0210196,0.278115,-0.194535,-0.0198185,0.00657223,0.144607,5,0.1,4,7.4,1.25997,-0.226618,0.60637,-0.0459373,0.16303,-0.00503957,0.0188351,-0.644974,0.000953674,0.0199411,3.08135,5,0.1,5,7.4,-1.15385,3.90202,0.575986,-0.130498,-0.280994,-0.0300974,0.0821948,-0.216484,0.0113547,0.00688823,0.138202,5,0.1,6,7.4,-1.47797,1.58154,0.749945,-0.827599,-0.139305,1.78814e-05,0.439823,-0.0428557,0,0.00752538,2.22494,5,0.1,7,7.4,-3.66576,2.62959,0.551918,2.38419e-05,4.76837e-05,4.47035e-06,0,-0.000119209,2.98023e-05,0.00711487,5.71545e-09,5,0.1,8,7.4,3.35869,1.8,0.5,-0.0561833,0.196409,0,0.0500679,-0.030756,0,0.0335401,1.10744,5,0.1,9,7.4,3.22491,2.93992,0.599144,-0.0968337,0.466049,0.000803173,0.228405,-0.133991,-0.000804663,0.00861829,0.589369,5,0.1
0,7.5,-0.392513,-0.173727,0.600162,-0.129216,0.155498,0.000266265,0.0140648,0.56341,5.58794e-05,0.0106455,0.288685,5,0.1,1,7.5,1.20431,0.958852,0.599367,0.0370244,-0.334919,-0.0054189,0.183888,-0.052534,-0.0266768,0.005959,0.201513,5,0.1,2,7.5,-1.6668,0.836315,0.599992,0.0163786,-0.531076,7.45058e-06,-0.0168532,0.290368,0,0.00882533,0.120417,5,0.1,3,7.5,-3.99399,0.180254,0.643412,-0.256628,0.343619,0.0194605,0.171363,-0.0925632,-0.012558,0.00657223,0.144607,5,0.1,4,7.5,1.25546,-0.212843,0.605871,-0.0442684,0.121707,-0.00493778,0.0163615,-0.103088,0.00124797,0.0199411,3.08135,5,0.1,5,7.5,-1.16652,3.87288,0.573032,-0.122913,-0.30118,-0.028976,0.0737756,-0.171646,0.0120141,0.00688823,0.138202,5,0.1,6,7.5,-1.55756,1.56739,0.749947,-0.755763,-0.143568,1.89058e-05,0.941612,-0.0351891,1.11759e-05,0.00752538,2.22494,5,0.1,7,7.5,-3.66575,2.6296,0.551918,2.16067e-05,3.57628e-05,6.51926e-06,-5.96046e-05,-0.000119209,7.45058e-06,0.00711487,5.71545e-09,5,0.1,8,7.5,3.35315,1.82047,0.5,-0.056031,0.221146,0,-0.0354499,0.45637,0,0.0335401,1.10744,5,0.1,9,7.5,3.21644,2.98595,0.599221,-0.0725057,0.455132,0.000730995,0.232205,-0.105217,-0.000666827,0.00861829,0.589369,5,0.1
0,7.6,-0.405368,-0.155347,0.600188,-0.127727,0.211446,0.000271201,0.0225902,0.524446,0,0.00986671,0.191606,5,0.1,1,7.6,1.20891,0.925176,0.598694,0.0546813,-0.337416,-0.00798404,0.161469,0.0173151,-0.0235438,0.00796069,0.147984,5,0.1,2,7.6,-1.66524,0.784795,0.599992,0.0147462,-0.497733,7.45058e-06,-0.0162721,0.385076,-2.98023e-05,0.0101119,0.166172,5,0.1,3,7.6,-4.01886,0.214168,0.645299,-0.241101,0.334373,0.0182986,0.151396,-0.10895,-0.0115037,0.0064769,0.0840638,5,0.1,4,7.6,1.25112,-0.2,0.605385,-0.042361,0.146334,-0.00476092,0.0230074,0.556454,0.00235438,0.0152641,2.65506,5,0.1,5,7.6,-1.17842,3.84208,0.570202,-0.115025,-0.312722,-0.0275403,0.0869632,-0.0488758,0.017345,0.0106833,0.161251,5,0.1,6,7.6,-1.62797,1.55292,0.749948,-0.64894,-0.145128,2.08616e-05,1.15359,0.00876188,0,0.00729941,2.08096,5,0.1,7,7.6,-3.66575,2.6296,0.551919,1.78814e-05,2.38419e-05,7.45058e-06,-0.000119209,-0.000119209,0,0.00650109,4.589e-09,5,0.1,8,7.6,3.34731,1.8452,0.5,-0.0612378,0.275478,0,-0.0598431,0.57739,0,0.0280228,0.8929,5,0.1,9,7.6,3.2102,3.03085,0.599291,-0.0541747,0.441474,0.000666082,0.122666,-0.182509,-0.000685453,0.0109071,0.503994,5,0.1
0,7.7,-0.418054,-0.131542,0.600216,-0.126094,0.264327,0.000271946,0.0161882,0.506101,0,0.00986671,0.191606,5,0.1,1,7.7,1.2152,0.891463,0.597775,0.071032,-0.337004,-0.0103718,0.15758,0.00754744,-0.0230446,0.00796069,0.147984,5,0.1,2,7.7,-1.66384,0.736737,0.599993,0.0132885,-0.464993,4.93601e-06,-0.0133514,0.291146,-1.86265e-05,0.0101119,0.166172,5,0.1,3,7.7,-4.04231,0.247134,0.647078,-0.228471,0.325313,0.0173187,0.112146,-0.0870815,-0.00888109,0.0064769,0.0840638,5,0.1,4,7.7,1.24699,-0.181274,0.604921,-0.0402555,0.23859,-0.00453172,0.0205785,1.1832,0.00237301,0.0152641,2.65506,5,0.1,5,7.7,-1.18958,3.81034,0.567517,-0.108758,-0.323423,-0.0262965,0.045903,-0.137195,0.00923872,0.0106833,0.161251,5,0.1,6,7.7,-1.68672,1.53845,0.749951,-0.524417,-0.14424,2.13273e-05,1.25825,0.0148267,1.11759e-05,0.00729941,2.08096,5,0.1,7,7.7,-3.66575,2.6296,0.55192,6.33299e-06,1.22935e-05,6.98492e-06,-0.000104308,-0.000104308,-1.11759e-05,0.00650109,4.589e-09,5,0.1,8,7.7,3.34088,1.87602,0.5,-0.0672143,0.343247,0,-0.0552088,0.725463,0,0.0280228,0.8929,5,0.1,9,7.7,3.20523,3.07416,0.599354,-0.0475988,0.425105,0.000604801,-0.0220537,-0.161812,-0.000558794,0.0109071,0.503994,5,0.1
0,7.8,-0.430552,-0.102791,0.600243,-0.123455,0.308074,0.000268221,0.0407994,0.349976,-2.98023e-05,0.00977262,0.113793,5,0.1,1,7.8,1.22303,0.857895,0.596632,0.0848413,-0.333098,-0.0123933,0.11301,0.082016,-0.0165701,0.0066584,0.180036,5,0.1,2,7.8,-1.66258,0.691681,0.599993,0.0119954,-0.435829,4.47035e-06,-0.0129342,0.307381,-2.98023e-05,0.0106428,1.38115,5,0.1,3,7.8,-4.06459,0.279167,0.648764,-0.216794,0.314447,0.0163868,0.129223,-0.140473,-0.010252,0.00970801,0.0642832,5,0.1,4,7.8,1.24308,-0.15118,0.60448,-0.037995,0.364414,-0.00426471,0.02563,1.25314,0.00309944,0.0137571,2.14835,5,0.1,5,7.8,-1.20024,3.77736,0.564931,-0.104544,-0.335348,-0.025399,0.0439286,-0.0813007,0.0100136,0.00673263,0.0968079,5,0.1,6,7.8,-1.73319,1.52415,0.749953,-0.409243,-0.141191,2.23517e-05,1.00434,0.0500679,2.98023e-05,0.00737162,1.91371,5,0.1,7,7.8,-3.66575,2.6296,0.55192,-5.96046e-06,0,7.45058e-06,0,0,-5.96046e-05,0.00701387,4.48163e-09,5,0.1,8,7.8,3.33392,1.91386,0.5,-0.0715137,0.411484,0,-0.027895,0.600934,0,0.0318504,0.194949,5,0.1,9,7.8,3.2,3.11578,0.599412,-0.0604808,0.406259,0.000548363,-0.223756,-0.226855,-0.000506639,0.00711599,0.411162,5,0.1
0,7.9,-0.442695,-0.0703361,0.600269,-0.119331,0.339577,0.000263937,0.0455286,0.263379,-6.70552e-05,0.00977262,0.113793,5,0.1,1,7.9,1.23219,0.824715,0.595295,0.0988534,-0.332592,-0.0144494,0.153862,-0.0431314,-0.0225939,0.0066584,0.180036,5,0.1,2,7.9,-1.66144,0.648548,0.599994,0.0108389,-0.435752,2.04891e-06,-0.0105873,-0.22921,-1.49012e-05,0.0106428,1.38115,5,0.1,3,7.9,-4.08572,0.310012,0.650359,-0.206496,0.303074,0.0155488,0.0880957,-0.102457,-0.00732392,0.00970801,0.0642832,5,0.1,4,7.9,1.2394,-0.108042,0.604069,-0.0356318,0.500596,-0.00397135,0.0228509,1.3906,0.00288337,0.0137571,2.14835,5,0.1,5,7.9,-1.21051,3.74339,0.562435,-0.100994,-0.343901,-0.0245557,0.0319853,-0.0718832,0.00796095,0.00673263,0.0968079,5,0.1,6,7.9,-1.76955,1.51027,0.749955,-0.32471,-0.136375,2.52388e-05,0.604555,0.0510365,2.6077e-05,0.00737162,1.91371,5,0.1,7,7.9,-3.66575,2.6296,0.551921,-7.45058e-06,-3.72529e-07,2.42144e-06,-2.98023e-05,-1.49012e-05,-3.72529e-05,0.00701387,4.48163e-09,5,0.1,8,7.9,3.32675,1.95763,0.5,-0.0707608,0.459908,0,0.0389963,0.356741,0,0.0318504,0.194949,5,0.1,9,7.9,3.19241,3.15535,0.599464,-0.0947248,0.385398,0.000502449,-0.424996,-0.204265,-0.000428408,0.00711599,0.411162,5,0.1
0,8,-0.454367,-0.0353159,0.600295,-0.113713,0.357999,0.00025481,0.0693202,0.0942552,-0.000149012,0.0102034,0.0591915,5,0.1,1,8,1.24282,0.791227,0.59374,0.113305,-0.336745,-0.0165731,0.125349,-0.0189245,-0.0184476,0.00953496,0.109837,5,0.1,2,8,-1.66041,0.60346,0.599994,0.00980794,-0.468174,0,-0.010252,-0.360847,2.98023e-05,0.00927464,1.0937,5,0.1,3,8,-4.10592,0.339767,0.651876,-0.197232,0.291338,0.014782,0.104904,-0.142947,-0.00852346,0.00648189,0.0288563,5,0.1,4,8,1.23595,-0.0513425,0.603686,-0.0332177,0.628766,-0.00366867,0.026226,1.11504,0.00324845,0.0177952,1.19468,5,0.1,5,8,-1.22044,3.70877,0.560024,-0.0973105,-0.346708,-0.0236183,0.0451207,0.027895,0.0115633,0.00687744,0.0736214,5,0.1,6,8,-1.8,1.49692,0.749958,-0.29408,-0.130188,2.68221e-05,0.0322461,0.0758767,0,0.00637043,1.63084,5,0.1,7,8,-3.66575,2.6296,0.551921,-1.19209e-05,-5.96046e-06,0,0,0.000119209,-5.96046e-05,0.00660487,5.33329e-09,5,0.1,8,8,3.31996,2.00493,0.5,-0.0644565,0.48123,0,0.0838041,0.064373,0,0.0276132,0.527207,5,0.1,9,8,3.18072,3.19281,0.599513,-0.139135,0.36307,0.000458956,-0.435591,-0.252008,-0.000417233,0.00751981,0.319863,5,0.1
0,8.1,-0.465391,0.000837636,0.60032,-0.106675,0.363638,0.000239257,0.0737961,0.00866994,-0.000167638,0.0102034,0.0591915,5,0.1,1,8.1,1.25478,0.757387,0.59199,0.12568,-0.34027,-0.0183946,0.113592,-0.0329241,-0.0167303,0.00953496,0.109837,5,0.1,2,8.1,-1.65947,0.554377,0.599994,0.00889115,-0.516574,2.51457e-06,-0.00840425,-0.548396,1.86265e-05,0.00927464,1.0937,5,0.1,3,8.1,-4.12513,0.368189,0.653313,-0.187065,0.27693,0.0139543,0.104487,-0.153139,-0.00846013,0.00648189,0.0288563,5,0.1,4,8.1,1.23286,0.0160278,0.603346,-0.0278058,0.708045,-0.00304738,0.076361,0.479663,0.00857189,0.0177952,1.19468,5,0.1,5,8.1,-1.22998,3.67417,0.557711,-0.0937885,-0.34571,-0.0226766,0.0304207,0.0107735,0.00843406,0.00687744,0.0736214,5,0.1,6,8.1,-1.8304,1.48426,0.74996,-0.323408,-0.123009,2.68221e-05,-0.535086,0.0716597,0,0.00637043,1.63084,5,0.1,7,8.1,-3.66575,2.6296,0.55192,-1.22935e-05,2.23517e-06,-4.37722e-06,-1.49012e-05,2.98023e-05,-3.35276e-05,0.00660487,5.33329e-09,5,0.1,8,8.1,3.31398,2.05366,0.5,-0.0545543,0.495168,0,0.11085,0.175312,0,0.0276132,0.527207,5,0.1,9,8.1,3.16449,3.22793,0.599557,-0.186076,0.339801,0.000420865,-0.475809,-0.224873,-0.000353903,0.00751981,0.319863,5,0.1
0,8.2,-0.475666,0.0370386,0.600343,-0.0985697,0.358162,0.000220537,0.0897944,-0.124052,-0.000208616,0.00797818,0.0367557,5,0.1,1,8.2,1.26784,0.723297,0.590078,0.134581,-0.340176,-0.0197083,0.0587106,0.0477135,-0.00864267,0.00765415,0.066465,5,0.1,2,8.2,-1.65863,0.500065,0.599994,0.00807047,-0.567695,4.47035e-06,-0.00822544,-0.431194,0,0.009308,1.40453,5,0.1,3,8.2,-4.14328,0.395047,0.654664,-0.175333,0.259414,0.0130177,0.133514,-0.202239,-0.0104904,0.00769708,0.0109743,5,0.1,4,8.2,1.2305,0.0882485,0.603089,-0.0189573,0.72685,-0.00206381,0.0961423,-0.0911736,0.0106096,0.014428,1.63345,5,0.1,5,8.2,-1.2392,3.63974,0.555489,-0.0903606,-0.341403,-0.0217363,0.0417829,0.0878572,0.0112057,0.00734066,0.0331998,5,0.1,6,8.2,-1.86579,1.47234,0.749963,-0.386336,-0.115192,2.68221e-05,-0.659585,0.0873208,0,0.00602388,1.30636,5,0.1,7,8.2,-3.66575,2.6296,0.55192,-1.19209e-05,5.96046e-06,-5.96046e-06,0,0,-2.98023e-05,0.00755792,3.84659e-09,5,0.1,8,8.2,3.3091,2.10398,0.5,-0.0428915,0.509578,0,0.119448,0.084877,0,0.0275004,0.414998,5,0.1,9,8.2,3.14363,3.26076,0.599597,-0.229579,0.316155,0.00038445,-0.374556,-0.255942,-0.000357628,0.00885977,0.239096,5,0.1
0,8.3,-0.485094,0.0722296,0.600364,-0.0901171,0.34533,0.0002007,0.0818428,-0.143405,-0.00019744,0.00797818,0.0367557,5,0.1,1,8.3,1.28166,0.689717,0.588063,0.142188,-0.329461,-0.0205725,0.0819415,0.166357,-0.00752136,0.00765415,0.066465,5,0.1,2,8.3,-1.65786,0.440671,0.599995,0.00733491,-0.623185,4.47035e-06,-0.00675768,-0.613248,0,0.009308,1.40453,5,0.1,3,8.3,-4.16014,0.419961,0.655913,-0.161722,0.238605,0.0119541,0.141382,-0.217333,-0.0109747,0.00769708,0.0109743,5,0.1,4,8.3,1.2288,0.159546,0.602973,-0.0176951,0.690612,6.06291e-05,-0.0546277,-0.601065,0.0292547,0.014428,1.63345,5,0.1,5,8.3,-1.24803,3.60608,0.55337,-0.0861961,-0.331329,-0.0206179,0.044167,0.122949,0.0117607,0.00734066,0.0331998,5,0.1,6,8.3,-1.90817,1.46124,0.749966,-0.464094,-0.107028,2.68221e-05,-0.831783,0.0792667,0,0.00602388,1.30636,5,0.1,7,8.3,-3.66576,2.6296,0.551919,-1.19209e-05,4.47035e-06,-7.72998e-06,0,-2.98023e-05,-1.11759e-05,0.00755792,3.84659e-09,5,0.1,8,8.3,3.30541,2.15548,0.5,-0.0311159,0.520978,0,0.113994,0.112414,0,0.0275004,0.414998,5,0.1,9,8.3,3.11879,3.29117,0.599634,-0.266755,0.292572,0.000351854,-0.347838,-0.225276,-0.000305474,0.00885977,0.239096,5,0.1
0,8.4,-0.493693,0.105942,0.600383,-0.0817709,0.327706,0.000181794,0.0868142,-0.215997,-0.000208616,0.00681799,0.0141607,5,0.1,1,8.4,1.29624,0.657795,0.585978,0.149003,-0.307091,-0.0210255,0.0461936,0.279456,-0.000745058,0.0077794,0.0493246,5,0.1,2,8.4,-1.65716,0.375427,0.599995,0.00667274,-0.679074,4.47035e-06,-0.00673532,-0.457183,0,0.0148293,2.50079,5,0.1,3,8.4,-4.17557,0.442688,0.657051,-0.146627,0.21542,0.0107914,0.162363,-0.248268,-0.012368,0.0078088,0.00557589,5,0.1,4,8.4,1.22662,0.224985,0.603138,-0.026983,0.61272,0.00332445,-0.118256,-0.928447,0.0340044,0.0135992,0.969574,5,0.1,5,8.4,-1.2564,3.57368,0.551372,-0.0810921,-0.315309,-0.0192866,0.0596642,0.203371,0.0152886,0.00931461,0.0124167,5,0.1,6,8.4,-1.95859,1.45094,0.749968,-0.541669,-0.0987798,2.5332e-05,-0.673413,0.0879169,0,0.00716507,1.00422,5,0.1,7,8.4,-3.66576,2.6296,0.551918,-1.78814e-05,0,-8.9407e-06,0.000119209,0,2.98023e-05,0.00671805,3.96744e-09,5,0.1,8,8.4,3.30284,2.20798,0.5,-0.0204444,0.526839,0,0.09799,-0.0165701,0,0.0250351,0.303993,5,0.1,9,8.4,3.09056,3.31928,0.599667,-0.295568,0.269479,0.000320375,-0.213981,-0.243187,-0.000298023,0.00732301,0.170825,5,0.1
0,8.5,-0.501444,0.137599,0.6004,-0.073312,0.304956,0.000161398,0.0835899,-0.243696,-0.00019744,0.00681799,0.0141607,5,0.1,1,8.5,1.31138,0.628344,0.583871,0.153542,-0.282977,-0.0210786,0.0366941,0.216033,0.000596046,0.0077794,0.0493246,5,0.1,2,8.5,-1.65576,0.304624,0.599996,0.0275835,-0.741044,4.37722e-06,0.37691,-0.702694,-3.72529e-06,0.0148293,2.50079,5,0.1,3,8.5,-4.18943,0.463004,0.658069,-0.130696,0.190985,0.00958089,0.15834,-0.242997,-0.011988,0.0078088,0.00557589,5,0.1,4,8.5,1.22339,0.281355,0.603677,-0.0368789,0.512582,0.00771228,-0.0787228,-1.05383,0.0503138,0.0135992,0.969574,5,0.1,5,8.5,-1.26421,3.54321,0.549521,-0.0749374,-0.293466,-0.017721,0.064604,0.237226,0.016287,0.00931461,0.0124167,5,0.1,6,8.5,-2.01624,1.44147,0.749971,-0.611112,-0.0906376,2.52388e-05,-0.666201,0.0777021,-3.72529e-06,0.00716507,1.00422,5,0.1,7,8.5,-3.66576,2.6296,0.551918,-8.19564e-06,-1.49012e-06,-5.96046e-06,5.96046e-05,-2.98023e-05,2.98023e-05,0.00671805,3.96744e-09,5,0.1,8,8.5,3.30126,2.26065,0.5,-0.0115294,0.526452,0,0.0787526,-0.0157207,0,0.0250351,0.303993,5,0.1,9,8.5,3.05996,3.34509,0.599698,-0.315735,0.247161,0.00029318,-0.172734,-0.211149,-0.00026077,0.00732301,0.170825,5,0.1
0,8.6,-0.508355,0.1668,0.600415,-0.0648528,0.278241,0.000141561,0.0863373,-0.293151,-0.000208616,0.0108647,0.00714976,5,0.1,1,8.6,1.32685,0.60111,0.581775,0.15502,-0.26163,-0.0207558,-0.0124574,0.22015,0.0064671,0.00768557,0.0236649,5,0.1,2,8.6,-1.65081,0.227137,0.599996,0.0735193,-0.80588,4.47035e-06,0.504494,-0.536218,0,0.00917453,0.4081,5,0.1,3,8.6,-4.20171,0.48088,0.658967,-0.114632,0.166432,0.00836998,0.163794,-0.249445,-0.0122786,0.00732333,0.00171203,5,0.1,4,8.6,1.21938,0.327278,0.604703,-0.0426054,0.405657,0.0127837,-0.0355244,-1.06815,0.048548,0.00530059,0.597134,5,0.1,5,8.6,-1.27136,3.51513,0.547834,-0.067988,-0.267303,-0.0159889,0.0750422,0.28801,0.0184774,0.00984982,0.00601206,5,0.1,6,8.6,-2.08033,1.4328,0.749973,-0.666547,-0.082767,2.5332e-05,-0.408053,0.0815988,-2.98023e-05,0.00643034,0.732891,5,0.1,7,8.6,-3.66576,2.6296,0.551917,-5.96046e-06,-5.96046e-06,-2.98023e-06,0.000119209,0.000119209,0,0.00688083,5.58551e-09,5,0.1,8,8.6,3.30046,2.31305,0.5,-0.00492334,0.519562,0,0.0526905,-0.13864,0,0.0246123,0.217943,5,0.1,9,8.6,3.0277,3.36875,0.599726,-0.327331,0.225896,0.000268221,-0.0481606,-0.219822,-0.000298023,0.0109457,0.117721,5,0.1
0,8.7,-0.514421,0.193167,0.600429,-0.0565899,0.2491,0.000121817,0.0798814,-0.293177,-0.000193715,0.0108647,0.00714976,5,0.1,1,8.7,1.3422,0.575954,0.579737,0.151188,-0.242152,-0.0199223,-0.0648573,0.179425,0.0104904,0.00768557,0.0236649,5,0.1,2,8.7,-1.64141,0.144425,0.599997,0.110013,-0.84244,4.47035e-06,0.237048,-0.181604,0,0.00917453,0.4081,5,0.1,3,8.7,-4.21236,0.496293,0.659744,-0.0985451,0.141985,0.00716755,0.15834,-0.239832,-0.011798,0.00732333,0.00171203,5,0.1,4,8.7,1.21504,0.361731,0.606234,-0.0432154,0.277355,0.0178602,0.0198707,-1.43236,0.0503585,0.00530059,0.597134,5,0.1,5,8.7,-1.27779,3.48984,0.546326,-0.0605891,-0.238507,-0.0141736,0.0738278,0.290647,0.018023,0.00984982,0.00601206,5,0.1,6,8.7,-2.14902,1.42491,0.749976,-0.706196,-0.0752691,2.27243e-05,-0.346184,0.0706911,-2.23517e-05,0.00643034,0.732891,5,0.1,7,8.7,-3.66576,2.6296,0.551917,2.23517e-06,2.23517e-06,-2.51457e-06,2.98023e-05,2.98023e-05,1.11759e-05,0.00688083,5.58551e-09,5,0.1,8,8.7,3.30021,2.36437,0.5,-0.000510737,0.506785,0,0.0320226,-0.136778,0,0.0246123,0.217943,5,0.1,9,8.7,2.99475,3.39031,0.599751,-0.331254,0.205814,0.000241585,-0.0168979,-0.1885,-0.000245869,0.0109457,0.117721,5,0.1
0,8.8,-0.519686,0.216589,0.60044,-0.0487223,0.219075,0.000104308,0.0780523,-0.309139,-0.000208616,0.00827774,0.00214741,5,0.1,1,8.8,1.35691,0.552636,0.577806,0.142002,-0.224046,-0.018616,-0.118732,0.189692,0.0157952,0.00613575,0.470244,5,0.1,2,8.8,-1.62959,0.0599442,0.599997,0.123143,-0.840297,2.98023e-06,0.0361204,0.230106,2.98023e-05,0.0100829,2.33727,5,0.1,3,8.8,-4.22143,0.509307,0.660402,-0.0829101,0.118433,0.00600666,0.154257,-0.231177,-0.0114143,0.00963984,0.000858829,5,0.1,4,8.8,1.21089,0.38215,0.608257,-0.0392765,0.130763,0.0224069,0.0558496,-1.44918,0.0387132,0.0139697,0.369165,5,0.1,5,8.8,-1.28348,3.46746,0.544999,-0.0530869,-0.208771,-0.0123531,0.0766516,0.305414,0.0184476,0.00669657,0.00183704,5,0.1,6,8.8,-2.22101,1.41773,0.749978,-0.729293,-0.0682294,2.08616e-05,-0.089407,0.0716448,-2.98023e-05,0.00697219,0.512276,5,0.1,7,8.8,-3.66576,2.6296,0.551917,5.96046e-06,5.96046e-06,-1.49012e-06,0,0,0,0.00890402,4.24357e-09,5,0.1,8,8.8,3.30026,2.41423,0.5,0.00103116,0.488871,0,-0.00214577,-0.234962,0,0.0288499,0.154325,5,0.1,9,8.8,2.96168,3.40996,0.599774,-0.328493,0.187063,0.000217557,0.0811815,-0.191331,-0.000238419,0.00633304,0.136103,5,0.1
0,8.9,-0.524177,0.236963,0.600449,-0.0412088,0.188523,8.51229e-05,0.0724867,-0.302326,-0.000178814,0.00827774,0.00214741,5,0.1,1,8.9,1.37094,0.532146,0.575921,0.142186,-0.17755,-0.0199371,0.0932217,0.682015,-0.0354461,0.00613575,0.470244,5,0.1,2,8.9,-1.61649,-0.0237897,0.599997,0.143729,-0.840862,5.40167e-06,0.331528,-0.160948,1.49012e-05,0.0100829,2.33727,5,0.1,3,8.9,-4.22897,0.520023,0.660947,-0.0680007,0.096176,0.00490658,0.143617,-0.213467,-0.0105724,0.00963984,0.000858829,5,0.1,4,8.9,1.20728,0.389136,0.61064,-0.0324829,0.0196487,0.0247667,0.0769868,-0.807052,0.00964105,0.0139697,0.369165,5,0.1,5,8.9,-1.28841,3.4481,0.543855,-0.0455493,-0.178592,-0.0105455,0.0742301,0.298217,0.0177287,0.00669657,0.00183704,5,0.1,6,8.9,-2.29438,1.41125,0.74998,-0.737062,-0.0616893,1.83471e-05,-0.0349283,0.0611246,-1.86265e-05,0.00697219,0.512276,5,0.1,7,8.9,-3.66576,2.6296,0.551917,4.47035e-06,4.09782e-06,-1.02445e-06,-2.98023e-05,-4.47035e-05,1.11759e-05,0.00890402,4.24357e-09,5,0.1,8,8.9,3.30031,2.46201,0.5,-0.000566617,0.466846,0,-0.0357479,-0.221878,0,0.0288499,0.154325,5,0.1,9,8.9,2.92902,3.42776,0.599795,-0.326166,0.169451,0.000199396,-0.0102818,-0.166148,-0.000137836,0.00633304,0.136103,5,0.1
0,9,-0.527944,0.254314,0.600457,-0.0341848,0.158574,6.70552e-05,0.0681579,-0.296563,-0.000119209,0.00911052,0.0010439,5,0.1,1,9,1.38578,0.518218,0.573711,0.1555,-0.0980407,-0.0245079,0.150859,0.86239,-0.0507236,0.00685845,0.299534,5,0.1,2,9,-1.60027,-0.108783,0.599998,0.181672,-0.858507,5.96046e-06,0.393689,-0.132575,0,0.0138607,2.24807,5,0.1,3,9,-4.23507,0.528606,0.661386,-0.0542402,0.075829,0.00389665,0.131369,-0.193,-0.00962615,0.00774027,0.000716616,5,0.1,4,9,1.20443,0.387893,0.613125,-0.024417,-0.0369482,0.0245586,0.0818968,-0.353917,-0.0126958,0.0119948,0.273609,5,0.1,5,9,-1.29259,3.43172,0.542888,-0.0382245,-0.149155,-0.00880361,0.0723004,0.290394,0.0171065,0.00919474,0.00101162,5,0.1,6,9,-2.36796,1.40538,0.749982,-0.731099,-0.0556707,1.49012e-05,0.174999,0.0606179,2.98023e-05,0.0061544,0.347528,5,0.1,7,9,-3.66576,2.62961,0.551917,0,5.96046e-06,-1.49012e-06,0,-0.000119209,2.98023e-05,0.00697979,3.56957e-09,5,0.1,8,9,3.3,2.5075,0.5,-0.00640154,0.441754,0,-0.0778437,-0.290871,0,0.0267286,0.165055,5,0.1,9,9,2.89636,3.44388,0.599814,-0.326359,0.152951,0.000187755,0.0240803,-0.167489,-0.000119209,0.00741662,0.0881058,5,0.1
0,9.1,-0.531032,0.268718,0.600463,-0.0276907,0.129843,5.56e-05,0.061702,-0.277326,-0.000108033,0.00911052,0.0010439,5,0.1,1,9.1,1.40241,0.512757,0.570932,0.179707,-0.0114773,-0.0316473,0.301324,0.844281,-0.0847429,0.00685845,0.299534,5,0.1,2,9.1,-1.57986,-0.195066,0.599999,0.228409,-0.865333,5.86733e-06,0.504307,-0.023247,-3.72529e-06,0.0138607,2.24807,5,0.1,3,9.1,-4.23986,0.535261,0.66173,-0.0418171,0.0576549,0.00298871,0.116765,-0.169922,-0.00850484,0.00774027,0.000716616,5,0.1,4,9.1,1.20239,0.383451,0.615457,-0.0166127,-0.0430092,0.0215641,0.0731573,0.18014,-0.0439696,0.0119948,0.273609,5,0.1,5,9.1,-1.29606,3.41823,0.542091,-0.0312408,-0.121085,-0.00715647,0.0672266,0.270128,0.0158027,0.00919474,0.00101162,5,0.1,6,9.1,-2.44022,1.40009,0.749983,-0.713672,-0.0501674,1.73226e-05,0.198916,0.0510812,1.49012e-05,0.0061544,0.347528,5,0.1,7,9.1,-3.66576,2.62961,0.551917,-3.72529e-07,-4.09782e-06,1.02445e-06,-1.49012e-05,-7.45058e-05,1.86265e-05,0.00697979,3.56957e-09,5,0.1,8,9.1,3.29872,2.55029,0.5,-0.0211306,0.414592,0,-0.198543,-0.265911,0,0.0267286,0.165055,5,0.1,9,9.1,2.8638,3.45825,0.599833,-0.325085,0.133641,0.000178441,0.0170916,-0.214189,-8.19564e-05,0.00741662,0.0881058,5,0.1
0,9.2,-0.533503,0.280354,0.600468,-0.0218481,0.103248,4.47035e-05,0.0551343,-0.253916,-0.000119209,0.0108441,0.000887545,5,0.1,1,9.2,1.42192,0.515635,0.567337,0.210193,0.0665978,-0.0401765,0.284672,0.699639,-0.0804663,0.00582807,0.227362,5,0.1,2,9.2,-1.55456,-0.281652,0.599999,0.276172,-0.866026,5.96046e-06,0.424147,1.43051e-05,-2.98023e-05,0.0115687,2.20093,5,0.1,3,9.2,-4.24348,0.540219,0.661988,-0.0309587,0.0419348,0.00219941,0.100136,-0.144154,-0.00727177,0.0080247,0.000554096,5,0.1,4,9.2,1.20107,0.380575,0.617364,-0.00995696,-0.0103511,0.0163451,0.0594854,0.431299,-0.0577867,0.0188667,0.189965,5,0.1,5,9.2,-1.29886,3.40743,0.541452,-0.0248104,-0.0952899,-0.00565052,0.0613332,0.245214,0.0143051,0.00970632,0.000892674,5,0.1,6,9.2,-2.51039,1.39533,0.749985,-0.687087,-0.0451773,1.78814e-05,0.34976,0.0500083,0,0.00615428,0.231707,5,0.1,7,9.2,-3.66576,2.6296,0.551917,0,-1.19209e-05,2.98023e-06,-0.000119209,-0.000119209,2.98023e-05,0.0093286,3.93402e-09,5,0.1,8,9.2,3.29554,2.59037,0.5,-0.0428915,0.386286,0,-0.222564,-0.309229,0,0.0322309,0.213367,5,0.1,9,9.2,2.83147,3.4705,0.59985,-0.320297,0.110954,0.000169873,0.089407,-0.235796,-8.9407e-05,0.00739728,0.0816,5,0.1
0,9.3,-0.535424,0.289453,0.600472,-0.0166863,0.0792177,3.37139e-05,0.048019,-0.225827,-9.68575e-05,0.0108441,0.000887545,5,0.1,1,9.3,1.44452,0.525588,0.56288,0.242697,0.130123,-0.0491674,0.338137,0.559676,-0.092905,0.00582807,0.227362,5,0.1,2,9.3,-1.52469,-0.368255,0.6,0.321676,-0.866025,3.44589e-06,0.453733,0,-1.86265e-05,0.0115687,2.20093,5,0.1,3,9.3,-4.2461,0.543731,0.662174,-0.0217192,0.028704,0.00153044,0.08443,-0.120144,-0.00609085,0.0080247,0.000554096,5,0.1,4,9.3,1.20035,0.382059,0.618693,-0.00484027,0.0427354,0.0101149,0.0430197,0.59456,-0.0646263,0.0188667,0.189965,5,0.1,5,9.3,-1.30105,3.39908,0.540956,-0.0190176,-0.0721589,-0.00430308,0.0543445,0.216544,0.0125989,0.00970632,0.000892674,5,0.1,6,9.3,-2.57741,1.39104,0.749987,-0.653601,-0.0406591,1.75089e-05,0.341028,0.0417307,-7.45058e-06,0.00615428,0.231707,5,0.1,7,9.3,-3.66576,2.6296,0.551917,-1.00583e-05,-2.16067e-05,5.40167e-06,-7.45058e-05,-5.96046e-05,1.49012e-05,0.0093286,3.93402e-09,5,0.1,8,9.3,3.28985,2.62774,0.5,-0.0731997,0.363237,0,-0.356525,-0.175819,0,0.0322309,0.213367,5,0.1,9,9.3,2.7998,3.48041,0.599867,-0.313555,0.0871789,0.000162981,0.0617802,-0.236467,-5.21541e-05,0.00739728,0.0816,5,0.1
0,9.4,-0.536865,0.296298,0.600475,-0.0122562,0.0582226,2.5332e-05,0.0405908,-0.193521,-0.000119209,0.00905557,0.000705131,5,0.1,1,9.4,1.47039,0.541092,0.557522,0.273138,0.176734,-0.0576481,0.251055,0.365704,-0.0721216,0.00716893,0.184378,5,0.1,2,9.4,-1.49042,-0.454857,0.6,0.361413,-0.866025,1.49012e-06,0.31811,-2.86102e-05,-2.98023e-05,0.0100188,2.16694,5,0.1,3,9.4,-4.24788,0.546042,0.662298,-0.0141144,0.0179455,0.000983477,0.0677109,-0.0949502,-0.00485778,0.00753993,0.000332843,5,0.1,4,9.4,1.20005,0.389331,0.619385,-0.00129938,0.102282,0.00380427,0.0280738,0.569478,-0.0599623,0.0168204,0.131477,5,0.1,5,9.4,-1.30269,3.39289,0.540585,-0.0139743,-0.0521243,-0.00313669,0.0464916,0.183702,0.010699,0.00666692,0.000689403,5,0.1,6,9.4,-2.64094,1.38718,0.749989,-0.615364,-0.0365973,1.63913e-05,0.437617,0.0404119,-2.98023e-05,0.00611852,0.178965,5,0.1,7,9.4,-3.66576,2.6296,0.551918,-1.19209e-05,-2.38419e-05,5.96046e-06,-0.000119209,-0.000119209,2.98023e-05,0.00747952,5.01809e-09,5,0.1,8,9.4,3.28071,2.66324,0.5,-0.109452,0.346959,0,-0.34821,-0.16737,0,0.0253519,0.155442,5,0.1,9,9.4,2.76881,3.48796,0.599883,-0.305182,0.0642419,0.000157952,0.116944,-0.219703,-8.9407e-05,0.00769035,0.214894,5,0.1
0,9.5,-0.537899,0.301203,0.600477,-0.00854135,0.0403793,1.50874e-05,0.0336692,-0.162819,-8.9407e-05,0.00905557,0.000705131,5,0.1,1,9.5,1.49904,0.560419,0.55138,0.300118,0.207845,-0.0652097,0.264525,0.2493,-0.0735223,0.00716893,0.184378,5,0.1,2,9.5,-1.4526,-0.54146,0.6,0.39513,-0.866026,-1.02445e-06,0.326484,5.51343e-06,-1.86265e-05,0.0100188,2.16694,5,0.1,3,9.5,-4.24898,0.547397,0.662374,-0.00805855,0.00950918,0.000550132,0.0534058,-0.0737607,-0.00380352,0.00753993,0.000332843,5,0.1,4,9.5,1.20004,0.402433,0.61947,0.000920705,0.159402,-0.00201995,0.0167862,0.549659,-0.0551157,0.0168204,0.131477,5,0.1,5,9.5,-1.30387,3.38855,0.540322,-0.0096947,-0.035258,-0.00215434,0.0389963,0.153139,0.0089258,0.00666692,0.000689403,5,0.1,6,9.5,-2.70039,1.38355,0.74999,-0.574181,-0.0374038,1.37836e-05,0.403658,-0.045523,-2.23517e-05,0.00611852,0.178965,5,0.1,7,9.5,-3.66576,2.6296,0.551918,-2.16067e-05,-3.20375e-05,8.00937e-06,-5.96046e-05,-2.98023e-05,7.45058e-06,0.00747952,5.01809e-09,5,0.1,8,9.5,3.26837,2.69721,0.5,-0.134045,0.333077,0,-0.150308,-0.126034,0,0.0253519,0.155442,5,0.1,9,9.5,2.73867,3.49333,0.599898,-0.299116,0.0435587,0.000148825,0.0261664,-0.191376,-9.68575e-05,0.00769035,0.214894,5,0.1
0,9.6,-0.538597,0.304481,0.600478,-0.00552535,0.0257321,7.45058e-06,0.0266433,-0.129953,-5.96046e-05,0.00857389,0.000432331,5,0.1,1,9.6,1.53024,0.58221,0.544526,0.321954,0.225474,-0.0714019,0.15533,0.0992417,-0.046432,0.00682406,0.417683,5,0.1,2,9.6,-1.41164,-0.628062,0.6,0.421652,-0.866026,-1.49012e-06,0.183225,0,-2.98023e-05,0.00999493,2.14552,5,0.1,3,9.6,-4.24954,0.548014,0.662412,-0.00343323,0.00317842,0.000222027,0.0393391,-0.0529587,-0.00277162,0.00906434,0.00015196,5,0.1,4,9.6,1.2002,0.420932,0.61901,0.00214577,0.208253,-0.00698268,0.00804663,0.411019,-0.0431538,0.0150359,0.207844,5,0.1,5,9.6,-1.30465,3.38573,0.540148,-0.00618696,-0.021559,-0.00135452,0.0309944,0.12064,0.00706315,0.0066134,0.000406205,5,0.1,6,9.6,-2.75573,1.37952,0.749991,-0.531679,-0.0437528,1.19209e-05,0.458479,-0.0728965,-2.98023e-05,0.0078533,0.122106,5,0.1,7,9.6,-3.66576,2.62959,0.551919,-2.38419e-05,-3.57628e-05,8.9407e-06,0,0.000119209,-2.98023e-05,0.00791881,2.62456e-09,5,0.1,8,9.6,3.25449,2.72985,0.5,-0.140834,0.319076,0,0.00798702,-0.164986,0,0.0270903,0.120852,5,0.1,9,9.6,2.70889,3.49679,0.599912,-0.296181,0.0263751,0.000137091,0.0482798,-0.1508,-8.9407e-05,0.00738861,0.256411,5,0.1
0,9.7,-0.539026,0.306451,0.600478,-0.00315839,0.0141277,2.70084e-06,0.0207238,-0.102038,-4.09782e-05,0.00857389,0.000432331,5,0.1,1,9.7,1.56209,0.604245,0.537408,0.305322,0.206493,-0.0687468,-0.433527,-0.425715,0.087481,0.00682406,0.417683,5,0.1,2,9.7,-1.36847,-0.714665,0.599999,0.442177,-0.866026,-3.91155e-06,0.198677,3.72529e-06,-1.49012e-05,0.00999493,2.14552,5,0.1,3,9.7,-4.24971,0.548095,0.662422,-7.30157e-05,-0.0012951,-1.35973e-05,0.0280142,-0.0367314,-0.00195205,0.00906434,0.00015196,5,0.1,4,9.7,1.20045,0.443985,0.618108,0.00263546,0.253723,-0.0109144,0.00210851,0.466343,-0.034634,0.0150359,0.207844,5,0.1,5,9.7,-1.30513,3.38414,0.540045,-0.00342149,-0.010851,-0.000726432,0.0242963,0.0934899,0.00549853,0.0066134,0.000406205,5,0.1,6,9.7,-2.80673,1.37471,0.749992,-0.489039,-0.0529239,9.40636e-06,0.409126,-0.10214,-1.86265e-05,0.0078533,0.122106,5,0.1,7,9.7,-3.66577,2.62959,0.55192,-2.23517e-05,-2.42144e-05,6.0536e-06,2.98023e-05,0.000104308,-2.6077e-05,0.00791881,2.62456e-09,5,0.1,8,9.7,3.24071,2.76097,0.5,-0.132637,0.303378,0,0.145316,-0.15901,0,0.0270903,0.120852,5,0.1,9,9.7,2.67944,3.49876,0.599926,-0.293307,0.0137243,0.000126846,0.0244826,-0.103429,-0.000111759,0.00738861,0.256411,5,0.1
0,9.8,-0.539248,0.3074,0.600479,-0.00137389,0.00532046,-1.49012e-06,0.0150502,-0.0742078,0,0.00841074,0.000200412,5,0.1,1,9.8,1.58985,0.622261,0.531109,0.245059,0.149854,-0.056079,-0.728011,-0.664949,0.156164,0.00847843,0.280098,5,0.1,2,9.8,-1.32342,-0.801267,0.599999,0.45653,-0.866026,-4.47035e-06,0.0684261,0,-2.98023e-05,0.0126106,2.13501,5,0.1,3,9.8,-4.24959,0.547807,0.662412,0.00219345,-0.00421852,-0.000171363,0.017643,-0.0220537,-0.0012219,0.00712491,5.25886e-05,5,0.1,4,9.8,1.20071,0.471564,0.616863,0.00263155,0.296019,-0.0137746,-0.00184774,0.356555,-0.0219643,0.0140559,0.129247,5,0.1,5,9.8,-1.30536,3.38347,0.539998,-0.00132322,-0.00285506,-0.00025481,0.0175834,0.066638,0.00399351,0.00927576,0.000180514,5,0.1,6,9.8,-2.85357,1.36891,0.749993,-0.447357,-0.0627309,7.45058e-06,0.434756,-0.087738,-2.98023e-05,0.00763958,0.143905,5,0.1,7,9.8,-3.66577,2.62959,0.551921,-1.78814e-05,-1.78814e-05,2.98023e-06,0,0.000119209,0,0.00753722,3.45671e-09,5,0.1,8,9.8,3.22832,2.79045,0.5,-0.11372,0.285602,0,0.223994,-0.20349,0,0.023951,0.267138,5,0.1,9,9.8,2.65029,3.49968,0.599938,-0.288683,0.00543594,0.000113249,0.0786781,-0.0636578,-0.000119209,0.00679609,1.09341,5,0.1
0,9.9,-0.539318,0.307598,0.600478,-9.69507e-05,-0.000994792,-1.49012e-06,0.0105612,-0.0523347,0,0.00841074,0.000200412,5,0.1,1,9.9,1.61036,0.633614,0.526367,0.16231,0.075054,-0.0381345,-0.890374,-0.796109,0.194587,0.00847843,0.280098,5,0.1,2,9.9,-1.2773,-0.88787,0.599998,0.466362,-0.866026,-6.51926e-06,0.100099,3.72529e-06,-7.45058e-06,0.0126106,2.13501,5,0.1,3,9.9,-4.2493,0.547294,0.662389,0.00355914,-0.00586789,-0.000264868,0.00992417,-0.0112727,-0.000670552,0.00712491,5.25886e-05,5,0.1,4,9.9,1.20096,0.502907,0.615387,0.00230949,0.329894,-0.015601,-0.00432879,0.300691,-0.014089,0.0140559,0.129247,5,0.1,5,9.9,-1.30541,3.38349,0.53999,0.00017304,0.00275262,8.26083e-05,0.0124052,0.0457913,0.00276789,0.00927576,0.000180514,5,0.1,6,9.9,-2.89647,1.36207,0.749994,-0.413315,-0.0749579,5.02914e-06,0.27214,-0.14355,-1.49012e-05,0.00763958,0.143905,5,0.1,7,9.9,-3.66577,2.62959,0.551921,-1.63913e-05,-7.82311e-06,2.8871e-06,2.98023e-05,7.45058e-05,-3.72529e-06,0.00753722,3.45671e-09,5,0.1,8,9.9,3.21814,2.81801,0.5,-0.089347,0.265572,0,0.255868,-0.203371,0,0.023951,0.267138,5,0.1,9,9.9,2.62129,3.49986,0.599854,-0.29537,-0.0019215,-0.00256915,-0.170425,-0.0729561,-0.0475943,0.00679609,1.09341,5,0.1
0,10,-0.539281,0.307271,0.600478,0.000753999,-0.00520498,0,0.00655651,-0.0321865,-2.98023e-05,0.0101219,6.99817e-05,5,0.1,1,10,1.62212,0.637159,0.523534,0.0733972,-0.00328273,-0.0185907,-0.860453,-0.744671,0.190198,0.00866447,0.190391,5,0.1,2,10,-1.2303,-0.974473,0.599998,0.471768,-0.866026,-7.45058e-06,-0.0116825,0,0,0.00770887,2.13219,5,0.1,3,10,-4.2489,0.546666,0.66236,0.00420809,-0.00653863,-0.000306964,0.00357628,-0.0025034,-0.000238419,0.00797403,1.61666e-05,5,0.1,4,10,1.20117,0.537172,0.613773,0.00181198,0.352776,-0.0165194,-0.00548363,0.143319,-0.00399351,0.0157046,0.0709682,5,0.1,5,10,-1.30534,3.38396,0.54001,0.00117123,0.00636578,0.000303984,0.007689,0.0268221,0.00166893,0.00635241,6.05698e-05,5,0.1,6,10,-2.93653,1.35386,0.749994,-0.388402,-0.0891328,2.98023e-06,0.245333,-0.130117,0,0.0063638,0.0899959,5,0.1,7,10,-3.66577,2.62959,0.551921,-1.19209e-05,0,1.49012e-06,0,0.000119209,2.98023e-05,0.0069706,3.01495e-09,5,0.1,8,10,3.21049,2.84351,0.5,-0.0638783,0.243896,0,0.247836,-0.234365,0,0.0259515,0.257507,5,0.1,9,10,2.59078,3.49936,0.599321,-0.31541,-0.00748038,-0.00835061,-0.198841,-0.0324249,-0.0634491,0.0085694,0.974172,5,0.1
