id,t,px,py,pz,vx,vy,vz,ax,ay,az,planning_time,qp_cost,planning_report,size,id,t,px,py,pz,vx,vy,vz,ax,ay,az,planning_time,qp_cost,planning_report,size,id,t,px,py,pz,vx,vy,vz,ax,ay,az,planning_time,qp_cost,planning_report,size,id,t,px,py,pz,vx,vy,vz,ax,ay,az,planning_time,qp_cost,planning_report,size,id,t,px,py,pz,vx,vy,vz,ax,ay,az,planning_time,qp_cost,planning_report,size,id,t,px,py,pz,vx,vy,vz,ax,ay,az,planning_time,qp_cost,planning_report,size,id,t,px,py,pz,vx,vy,vz,ax,ay,az,planning_time,qp_cost,planning_report,size,id,t,px,py,pz,vx,vy,vz,ax,ay,az,planning_time,qp_cost,planning_report,size,id,t,px,py,pz,vx,vy,vz,ax,ay,az,planning_time,qp_cost,planning_report,size,id,t,px,py,pz,vx,vy,vz,ax,ay,az,planning_time,qp_cost,planning_report,size,id,t,px,py,pz,vx,vy,vz,ax,ay,az,planning_time,qp_cost,planning_report,size,id,t,px,py,pz,vx,vy,vz,ax,ay,az,planning_time,qp_cost,planning_report,size,id,t,px,py,pz,vx,vy,vz,ax,ay,az,planning_time,qp_cost,planning_report,size,id,t,px,py,pz,vx,vy,vz,ax,ay,az,planning_time,qp_cost,planning_report,size,id,t,px,py,pz,vx,vy,vz,ax,ay,az,planning_time,qp_cost,planning_report,size,id,t,px,py,pz,vx,vy,vz,ax,ay,az,planning_time,qp_cost,planning_report,size,id,t,px,py,pz,vx,vy,vz,ax,ay,az,planning_time,qp_cost,planning_report,size,id,t,px,py,pz,vx,vy,vz,ax,ay,az,planning_time,qp_cost,planning_report,size,id,t,px,py,pz,vx,vy,vz,ax,ay,az,planning_time,qp_cost,planning_report,size,id,t,px,py,pz,vx,vy,vz,ax,ay,az,planning_time,qp_cost,planning_report,size,id,t,px,py,pz,vx,vy,vz,ax,ay,az,planning_time,qp_cost,planning_report,size,id,t,px,py,pz,vx,vy,vz,ax,ay,az,planning_time,qp_cost,planning_report,size,id,t,px,py,pz,vx,vy,vz,ax,ay,az,planning_time,qp_cost,planning_report,size,id,t,px,py,pz,vx,vy,vz,ax,ay,az,planning_time,qp_cost,planning_report,size,id,t,px,py,pz,vx,vy,vz,ax,ay,az,planning_time,qp_cost,planning_report,size,id,t,px,py,pz,vx,vy,vz,ax,ay,az,planning_time,qp_cost,planning_report,size,id,t,px,py,pz,vx,vy,vz,ax,ay,az,planning_time,qp_cost,planning_report,size,id,t,px,py,pz,vx,vy,vz,ax,ay,az,planning_time,qp_cost,planning_report,size,id,t,px,py,pz,vx,vy,vz,ax,ay,az,planning_time,qp_cost,planning_report,size,id,t,px,py,pz,vx,vy,vz,ax,ay,az,planning_time,qp_cost,planning_report,size
0,0,-0.619735,-2.79681,0.541645,0,0,0,0,0,0,0.00995166,3.5122,5,0.1,1,0,-2.17364,3.5394,0.607011,0,0,0,0,0,0,0.00969213,1.58243,5,0.1,2,0,3.87944,1.31334,0.567621,0,0,0,0,0,0,0.0256327,2.96602,5,0.1,3,0,-3.66725,0.385585,0.626003,0,0,0,0,0,0,0.01052,1.99082,5,0.1,4,0,-4.17512,1.04184,0.502834,0,0,0,0,0,0,0.00800617,3.51219,5,0.1,5,0,1.70853,2.95203,0.665148,0,0,0,0,0,0,0.0122601,1.82722,5,0.1,6,0,-3.96915,3.25396,0.652591,0,0,0,0,0,0,0.00868231,3.51219,5,0.1,7,0,3.67009,-2.65251,0.62666,0,0,0,0,0,0,0.0114725,3.51219,5,0.1,8,0,0.887364,2.96011,0.604378,0,0,0,0,0,0,0.00881111,0.610743,5,0.1,9,0,1.57612,-2.83121,0.534653,0,0,0,0,0,0,0.0255673,0.982356,5,0.1,10,0,1.97344,-0.507889,0.649651,0,0,0,0,0,0,0.0167393,3.51223,5,0.1,11,0,-1.05598,1.17232,0.510406,0,0,0,0,0,0,0.0237893,1.30796,5,0.1,12,0,0.388719,-4.1243,0.635228,0,0,0,0,0,0,0.0113441,1.64596,5,0.1,13,0,-0.902935,-2.2577,0.53853,0,0,0,0,0,0,0.00904637,3.51219,5,0.1,14,0,-1.04914,-0.779078,0.554512,0,0,0,0,0,0,0.00857317,3.28269,5,0.1,15,0,1.48887,0.57143,0.688938,0,0,0,0,0,0,0.0171106,0.608789,5,0.1,16,0,0.244049,2.87851,0.583273,0,0,0,0,0,0,0.0174628,3.19585,5,0.1,17,0,1.13853,-3.82617,0.662525,0,0,0,0,0,0,0.0180245,2.65898,5,0.1,18,0,3.47681,0.797215,0.696719,0,0,0,0,0,0,0.0199192,3.5122,5,0.1,19,0,2.2334,1.31466,0.689299,0,0,0,0,0,0,0.0109447,3.2301,5,0.1,20,0,1.51595,3.66602,0.611063,0,0,0,0,0,0,0.0212296,2.75838,5,0.1,21,0,-1.41464,-4.29429,0.66224,0,0,0,0,0,0,0.0242497,3.5147,5,0.1,22,0,-1.4978,-3.68905,0.53586,0,0,0,0,0,0,0.0127931,3.15729,5,0.1,23,0,-2.8439,-4.05762,0.621294,0,0,0,0,0,0,0.0202983,1.97527,5,0.1,24,0,1.53089,-0.0346284,0.503798,0,0,0,0,0,0,0.0105347,3.5122,5,0.1,25,0,-3.26762,4.22697,0.668538,0,0,0,0,0,0,0.00988215,3.51219,5,0.1,26,0,-4.05725,-2.13096,0.646403,0,0,0,0,0,0,0.0298084,0.927725,5,0.1,27,0,-1.47844,-1.92591,0.566071,0,0,0,0,0,0,0.0323029,3.5122,5,0.1,28,0,0.979048,-1.41135,0.563198,0,0,0,0,0,0,0.00832889,1.79306,5,0.1,29,0,4.36385,-0.0740542,0.54401,0,0,0,0,0,0,0.00970958,1.38261,5,0.1
0,0.1,-0.619545,-2.79473,0.541683,0.00537829,0.0589557,0.00108797,0.0956096,1.04809,0.0193417,0.00995166,3.5122,5,0.1,1,0.1,-2.17325,3.53806,0.607004,0.0110719,-0.0382099,-0.000207778,0.196829,-0.679299,-0.00369176,0.00969213,1.58243,5,0.1,2,0.1,3.87868,1.3151,0.567654,-0.0216171,0.0499828,0.000959542,-0.384301,0.888579,0.0170581,0.0256327,2.96602,5,0.1,3,0.1,-3.6664,0.386905,0.625976,0.0242181,0.0374699,-0.000770669,0.430554,0.666132,-0.0136979,0.01052,1.99082,5,0.1,4,0.1,-4.17486,1.03977,0.502912,0.00748858,-0.0587512,0.00223005,0.133127,-1.04447,0.0396408,0.00800617,3.51219,5,0.1,5,0.1,1.70722,2.9513,0.66508,-0.0372954,-0.0208039,-0.00193063,-0.663027,-0.369832,-0.0343248,0.0122601,1.82722,5,0.1,6,0.1,-3.96707,3.25419,0.652559,0.0588749,0.00676252,-0.000915956,1.04664,0.120208,-0.0162832,0.00868231,3.51219,5,0.1,7,0.1,3.67,-2.65042,0.626649,-0.00257939,0.0592113,-0.000312552,-0.0458658,1.05265,-0.00555068,0.0114725,3.51219,5,0.1,8,0.1,0.886908,2.95937,0.604374,-0.012961,-0.0210442,-0.000129919,-0.230417,-0.374109,-0.00230595,0.00881111,0.610743,5,0.1,9,0.1,1.57589,-2.83013,0.534721,-0.00670105,0.0305593,0.00193669,-0.11912,0.543267,0.0344254,0.0255673,0.982356,5,0.1,10,0.1,1.97264,-0.505983,0.649607,-0.0229621,0.0541016,-0.0012246,-0.408225,0.961809,-0.0217743,0.0167393,3.51223,5,0.1,11,0.1,-1.05472,1.1725,0.510343,0.0357382,0.00526533,-0.00179019,0.635341,0.0936091,-0.0318214,0.0237893,1.30796,5,0.1,12,0.1,0.389723,-4.12328,0.635191,0.0284868,0.0288725,-0.00104392,0.506429,0.513315,-0.0185557,0.0113441,1.64596,5,0.1,13,0.1,-0.903342,-2.25566,0.538563,-0.0115552,0.0581231,0.00095088,-0.205431,1.03329,0.0169054,0.00904637,3.51219,5,0.1,14,0.1,-1.05114,-0.77879,0.554511,-0.0567095,0.00819825,-5.06639e-05,-1.00818,0.145748,-0.00090152,0.00857317,3.28269,5,0.1,15,0.1,1.48856,0.572243,0.689002,-0.00856034,0.0230722,0.00180937,-0.152186,0.410169,0.0321716,0.0171106,0.608789,5,0.1,16,0.1,0.243481,2.8766,0.583291,-0.0161224,-0.0541866,0.000495743,-0.286621,-0.96333,0.00881031,0.0174628,3.19585,5,0.1,17,0.1,1.13875,-3.82437,0.66246,0.00626668,0.0511535,-0.00185296,0.111401,0.909418,-0.0329465,0.0180245,2.65898,5,0.1,18,0.1,3.47664,0.799296,0.696769,-0.00474118,0.059061,0.00142865,-0.0842661,1.04997,0.025399,0.0199192,3.5122,5,0.1,19,0.1,2.23232,1.31298,0.689362,-0.0306237,-0.0478489,0.00179885,-0.544414,-0.850655,0.0319742,0.0109447,3.2301,5,0.1,20,0.1,1.51484,3.66454,0.611051,-0.0315888,-0.0419624,-0.000327919,-0.561573,-0.746012,-0.00583008,0.0212296,2.75838,5,0.1,21,0.1,-1.41409,-4.29241,0.662218,0.0154659,0.0531599,-0.000611879,0.274956,0.945091,-0.0108778,0.0242497,3.5147,5,0.1,22,0.1,-1.49796,-3.68708,0.535927,-0.0045104,0.0559803,0.00190064,-0.0801757,0.995204,0.0337884,0.0127931,3.15729,5,0.1,23,0.1,-2.84265,-4.05667,0.621272,0.0353795,0.0268973,-0.000631064,0.628993,0.478178,-0.0112131,0.0202983,1.97527,5,0.1,24,0.1,1.53145,-0.0366403,0.503826,0.0158112,-0.0571146,0.000811554,0.281081,-1.01537,0.0144318,0.0105347,3.5122,5,0.1,25,0.1,-3.26609,4.22555,0.668402,0.0432543,-0.0403345,-0.00386126,0.76896,-0.717044,-0.0686422,0.00988215,3.51219,5,0.1,26,0.1,-4.0563,-2.13046,0.646355,0.0268847,0.0142533,-0.0013751,0.47797,0.253394,-0.0244416,0.0298084,0.927725,5,0.1,27,0.1,-1.47746,-1.92406,0.566099,0.027729,0.0523753,0.00079833,0.492953,0.931129,0.0141934,0.0323029,3.5122,5,0.1,28,0.1,0.979278,-1.40988,0.563236,0.00654776,0.0418246,0.00109049,0.1164,0.743538,0.0193901,0.00832889,1.79306,5,0.1,29,0.1,4.36294,-0.0749985,0.544019,-0.0257723,-0.0268058,0.000252947,-0.458211,-0.476548,0.0044927,0.00970958,1.38261,5,0.1
0,0.2,-0.618453,-2.78276,0.541904,0.0169978,0.18633,0.0034377,0.127494,1.39749,0.0258088,0.0112491,2.92621,5,0.1,1,0.2,-2.171,3.53029,0.606961,0.0349939,-0.120765,-0.000655651,0.262499,-0.905633,-0.00494719,0.0077787,1.29831,5,0.1,2,0.2,3.87429,1.32525,0.567849,-0.0683129,0.15797,0.00303239,-0.5126,1.18476,0.022769,0.0275746,2.43347,5,0.1,3,0.2,-3.66148,0.394516,0.62582,0.0765443,0.118423,-0.00243485,0.573993,0.888169,-0.0182688,0.00990594,1.63337,5,0.1,4,0.2,-4.17334,1.02784,0.503365,0.023663,-0.185683,0.00704825,0.177383,-1.3926,0.0528395,0.00966737,2.9258,5,0.1,5,0.2,1.69964,2.94707,0.664688,-0.117871,-0.0657558,-0.00610203,-0.884116,-0.49293,-0.0457466,0.0122566,1.49914,5,0.1,6,0.2,-3.95512,3.25557,0.652372,0.186074,0.0213742,-0.00289381,1.39546,0.160217,-0.0217259,0.00772429,2.9258,5,0.1,7,0.2,3.66948,-2.6384,0.626585,-0.00814795,0.187141,-0.000987947,-0.0612736,1.40345,-0.00739098,0.0169044,2.9258,5,0.1,8,0.2,0.884275,2.9551,0.604347,-0.0409618,-0.0665069,-0.000409782,-0.307262,-0.498891,-0.00306964,0.0151539,0.50108,5,0.1,9,0.2,1.57452,-2.82393,0.535115,-0.0211775,0.0965774,0.00611991,-0.158906,0.724435,0.0459254,0.0279637,0.805971,5,0.1,10,0.2,1.96797,-0.494993,0.649359,-0.0725716,0.170988,-0.00386983,-0.54425,1.28241,-0.0290275,0.0132552,2.94354,5,0.1,11,0.2,-1.04747,1.17357,0.509979,0.112951,0.0166416,-0.00565797,0.847161,0.124812,-0.0424385,0.0509324,1.07318,5,0.1,12,0.2,0.395509,-4.11742,0.634979,0.0900321,0.0912547,-0.00329912,0.675246,0.684261,-0.0247359,0.0178711,1.35043,5,0.1,13,0.2,-0.905689,-2.24385,0.538757,-0.0365213,0.183702,0.00300556,-0.273883,1.37758,0.0225306,0.00999174,2.92581,5,0.1,14,0.2,-1.06266,-0.777124,0.5545,-0.179231,0.0259101,-0.000159442,-1.3442,0.194311,-0.0012219,0.00960345,2.69328,5,0.1,15,0.2,1.48683,0.57693,0.689369,-0.0270545,0.0729203,0.00571907,-0.202894,0.546873,0.0428855,0.0150331,0.499482,5,0.1,16,0.2,0.240206,2.8656,0.583392,-0.0509549,-0.171256,0.00156611,-0.382155,-1.28436,0.0117719,0.0226147,2.62204,5,0.1,17,0.2,1.14002,-3.81398,0.662084,0.0198066,0.161666,-0.00585467,0.148535,1.21272,-0.0439584,0.0149117,2.18155,5,0.1,18,0.2,3.47568,0.811293,0.69706,-0.0149846,0.186662,0.00451505,-0.112295,1.39996,0.0338554,0.0209089,2.92579,5,0.1,19,0.2,2.2261,1.30326,0.689728,-0.096786,-0.151229,0.00568628,-0.725865,-1.13416,0.0426173,0.0110362,2.65014,5,0.1,20,0.2,1.50842,3.65602,0.610985,-0.0998348,-0.132626,-0.00103563,-0.748754,-0.994563,-0.00777841,0.0328076,2.26312,5,0.1,21,0.2,-1.41095,-4.28162,0.662094,0.0488818,0.168002,-0.00193566,0.366628,1.26028,-0.0144541,0.0232046,2.95522,5,0.1,22,0.2,-1.49887,-3.67571,0.536313,-0.0142545,0.17693,0.00600666,-0.106931,1.3268,0.0450611,0.0101272,2.59041,5,0.1,23,0.2,-2.83546,-4.05121,0.621144,0.111818,0.0849962,-0.00199527,0.838637,0.63777,-0.014931,0.0199633,1.6206,5,0.1,24,0.2,1.53466,-0.0482419,0.503991,0.0499696,-0.18051,0.00256449,0.374854,-1.35383,0.0192523,0.0106627,2.92807,5,0.1,25,0.2,-3.25731,4.21736,0.667617,0.136703,-0.12747,-0.0122041,1.02544,-0.956297,-0.0915229,0.011531,2.92577,5,0.1,26,0.2,-4.05084,-2.12757,0.646075,0.0849724,0.0450492,-0.00434667,0.637293,0.33772,-0.0325739,0.032884,0.761154,5,0.1,27,0.2,-1.47183,-1.91343,0.566261,0.0876367,0.165534,0.00252277,0.65732,1.24145,0.0189245,0.032812,2.92579,5,0.1,28,0.2,0.980608,-1.40139,0.563458,0.0206932,0.132185,0.00344664,0.15524,0.991404,0.0258684,0.00822832,1.47111,5,0.1,29,0.2,4.35771,-0.0804435,0.54407,-0.0814438,-0.0847196,0.000798702,-0.611067,-0.635393,0.00599027,0.00835686,1.13436,5,0.1
0,0.3,-0.616045,-2.75635,0.542391,0.0316281,0.347115,0.00640498,0.156105,1.71857,0.0317059,0.0112491,2.92621,5,0.1,1,0.3,-2.16604,3.51319,0.606868,0.0651035,-0.224654,-0.00122236,0.321195,-1.10826,-0.0060387,0.0077787,1.29831,5,0.1,2,0.3,3.86461,1.34762,0.568279,-0.127107,0.293876,0.00564335,-0.627145,1.44978,0.0278465,0.0275746,2.43347,5,0.1,3,0.3,-3.65064,0.411288,0.625475,0.14239,0.220306,-0.00453051,0.702441,1.08684,-0.0223517,0.00990594,1.63337,5,0.1,4,0.3,-4.16999,1.00153,0.504364,0.0440672,-0.345846,0.0131261,0.218093,-1.71149,0.0649467,0.00966737,2.9258,5,0.1,5,0.3,1.68295,2.93776,0.663823,-0.219286,-0.122308,-0.0113502,-1.08183,-0.603333,-0.0559911,0.0122566,1.49914,5,0.1,6,0.3,-3.92875,3.2586,0.651962,0.346568,0.0398029,-0.00539199,1.71505,0.196949,-0.0266954,0.00772429,2.9258,5,0.1,7,0.3,3.66832,-2.61188,0.626446,-0.0151906,0.348553,-0.00183852,-0.075236,1.72487,-0.00909343,0.0169044,2.9258,5,0.1,8,0.3,0.878473,2.94568,0.604289,-0.0762068,-0.123732,-0.000762288,-0.375964,-0.610426,-0.00375882,0.0151539,0.50108,5,0.1,9,0.3,1.57152,-2.81025,0.535981,-0.039403,0.179675,0.0113871,-0.194408,0.88641,0.0561848,0.0279637,0.805971,5,0.1,10,0.3,1.95803,-0.470769,0.648852,-0.125491,0.318299,-0.0060196,-0.496894,1.57289,-0.0145398,0.0132552,2.94354,5,0.1,11,0.3,-1.03147,1.17593,0.509203,0.210128,0.030959,-0.0098153,1.03663,0.152722,-0.0392981,0.0509324,1.07318,5,0.1,12,0.3,0.40826,-4.1045,0.634512,0.16749,0.169751,-0.00613704,0.826281,0.837386,-0.0302792,0.0178711,1.35043,5,0.1,13,0.3,-0.910865,-2.21782,0.539182,-0.068021,0.342141,0.00559706,-0.33661,1.69311,0.0276938,0.00999174,2.92581,5,0.1,14,0.3,-1.08805,-0.773455,0.554478,-0.333427,0.0482002,-0.000298955,-1.64489,0.237778,-0.00148267,0.00960345,2.69328,5,0.1,15,0.3,1.48299,0.587257,0.690179,-0.0503296,0.135654,0.0106388,-0.248291,0.669211,0.0524782,0.0150331,0.499482,5,0.1,16,0.3,0.23299,2.84134,0.583613,-0.0947926,-0.318589,0.00291588,-0.467638,-1.5717,0.0143908,0.0226147,2.62204,5,0.1,17,0.3,1.14282,-3.79108,0.661254,0.0368455,0.300771,-0.0108957,0.181757,1.48386,-0.0537708,0.0149117,2.18155,5,0.1,18,0.3,3.47356,0.837745,0.697699,-0.0279021,0.347671,0.008409,-0.138059,1.72053,0.0416152,0.0209089,2.92579,5,0.1,19,0.3,2.21239,1.28184,0.690533,-0.180053,-0.281331,0.0105756,-0.888243,-1.38786,0.0521652,0.0110362,2.65014,5,0.1,20,0.3,1.49428,3.63724,0.610838,-0.185725,-0.246717,-0.00192774,-0.916243,-1.21708,-0.00951812,0.0328076,2.26312,5,0.1,21,0.3,-1.40405,-4.25766,0.661812,0.0904644,0.317142,-0.00381991,0.440218,1.62348,-0.0217035,0.0232046,2.95522,5,0.1,22,0.3,-1.50089,-3.65065,0.537164,-0.0265203,0.329134,0.0111753,-0.130832,1.62368,0.0551343,0.0101272,2.59041,5,0.1,23,0.3,-2.81963,-4.03917,0.620861,0.20802,0.158148,-0.00370899,1.02623,0.780314,-0.0182875,0.0199633,1.6206,5,0.1,24,0.3,1.5416,-0.073814,0.504338,0.0890637,-0.335992,0.0042906,0.38927,-1.65989,0.0149831,0.0106627,2.92807,5,0.1,25,0.3,-3.23794,4.19929,0.665888,0.254633,-0.237446,-0.0227301,1.26015,-1.17514,-0.112485,0.011531,2.92577,5,0.1,26,0.3,-4.0388,-2.12119,0.64546,0.158077,0.0837933,-0.00808388,0.779867,0.413343,-0.0398755,0.032884,0.761154,5,0.1,27,0.3,-1.45941,-1.88997,0.566618,0.163233,0.308313,0.00469927,0.807799,1.52574,0.0232607,0.032812,2.92579,5,0.1,28,0.3,0.983539,-1.38266,0.563946,0.0384997,0.24591,0.00641346,0.189941,1.21316,0.0316426,0.00822832,1.47111,5,0.1,29,0.3,4.34617,-0.0924423,0.544183,-0.151534,-0.157606,0.00148593,-0.747651,-0.777518,0.00732765,0.00835686,1.13436,5,0.1
0,0.4,-0.612116,-2.71319,0.543188,0.046654,0.512719,0.00945926,0.137776,1.51992,0.028044,0.0109686,2.51507,5,0.1,1,0.4,-2.15795,3.48528,0.606716,0.0960171,-0.331312,-0.00180304,0.283241,-0.977874,-0.00533462,0.0078906,1.02724,5,0.1,2,0.4,3.84882,1.38413,0.56898,-0.187457,0.4334,0.0083223,-0.55325,1.27906,0.0245869,0.036541,1.92538,5,0.1,3,0.4,-3.63295,0.438657,0.624912,0.209993,0.324902,-0.00668168,0.619769,0.958845,-0.0197291,0.0115642,1.29234,5,0.1,4,0.4,-4.16451,0.95853,0.505996,0.0650764,-0.510743,0.0193849,0.192881,-1.51327,0.0573993,0.0129932,2.5139,5,0.1,5,0.4,1.65571,2.92256,0.662413,-0.3234,-0.180376,-0.0167385,-0.95439,-0.53215,-0.0494123,0.0140669,1.18614,5,0.1,6,0.4,-3.88566,3.26354,0.651292,0.511807,0.0587821,-0.00796318,1.51634,0.174046,-0.0236034,0.0116056,2.5143,5,0.1,7,0.4,3.66643,-2.56854,0.626217,-0.0224352,0.51474,-0.00271499,-0.0665188,1.52504,-0.00801682,0.0166823,2.51546,5,0.1,8,0.4,0.869006,2.93031,0.604195,-0.112388,-0.18248,-0.00112355,-0.3317,-0.538468,-0.00333786,0.0167508,0.396458,5,0.1,9,0.4,1.56663,-2.78793,0.537396,-0.0581115,0.264984,0.0167936,-0.171542,0.782013,0.0495613,0.0430733,0.637689,5,0.1,10,0.4,1.94319,-0.431211,0.648197,-0.169036,0.469764,-0.00688881,-0.362098,1.38931,-0.00336766,0.0206261,2.53915,5,0.1,11,0.4,-1.00536,1.17978,0.50804,0.309893,0.0456572,-0.0132769,0.914514,0.134766,-0.0289679,0.0315147,0.849582,5,0.1,12,0.4,0.429067,-4.08341,0.63375,0.24701,0.25034,-0.00904948,0.72898,0.738859,-0.0267625,0.0103364,1.06848,5,0.1,13,0.4,-0.919321,-2.17528,0.539878,-0.100453,0.505269,0.00826418,-0.297636,1.49715,0.0245273,0.0084608,2.56909,5,0.1,14,0.4,-1.12947,-0.767467,0.55444,-0.491729,0.071086,-0.000441074,-1.45113,0.209749,-0.0013113,0.00882042,2.13096,5,0.1,15,0.4,1.47674,0.604109,0.691501,-0.0742257,0.200059,0.0156894,-0.218987,0.590384,0.0463128,0.0164382,0.395197,5,0.1,16,0.4,0.221214,2.80176,0.583976,-0.139797,-0.469846,0.00430048,-0.412568,-1.38652,0.012666,0.0182906,2.08157,5,0.1,17,0.4,1.1474,-3.75371,0.6599,0.0543416,0.443572,-0.0160694,0.160277,1.30916,-0.0474453,0.0144589,1.4007,5,0.1,18,0.4,3.47009,0.880968,0.698745,-0.0412047,0.51344,0.0124186,-0.12207,1.52123,0.0367761,0.0220887,2.51492,5,0.1,19,0.4,2.19002,1.24689,0.691847,-0.265539,-0.414899,0.0155956,-0.783563,-1.22446,0.0460148,0.00983572,2.09682,5,0.1,20,0.4,1.47121,3.60659,0.610598,-0.273904,-0.363851,-0.00284314,-0.808299,-1.07384,-0.00837445,0.0177858,1.79061,5,0.1,21,0.4,-1.39284,-4.2179,0.66132,0.132614,0.475442,-0.00601113,0.384629,1.46866,-0.0209212,0.0221564,2.53486,5,0.1,22,0.4,-1.50419,-3.60976,0.538552,-0.0391126,0.485396,0.0164822,-0.115395,1.43254,0.0486076,0.0109954,2.16468,5,0.1,23,0.4,-2.79379,-4.01952,0.620401,0.306785,0.233245,-0.00547022,0.905275,0.688076,-0.0160933,0.0189512,1.28224,5,0.1,24,0.4,1.55236,-0.115568,0.504833,0.12477,-0.495819,0.00551641,0.31209,-1.46587,0.00932813,0.00987503,2.5173,5,0.1,25,0.4,-3.20628,4.16977,0.663062,0.37604,-0.350654,-0.0335678,1.11425,-1.03927,-0.0994205,0.0115898,2.51004,5,0.1,26,0.4,-4.01917,-2.11078,0.644456,0.233126,0.123572,-0.0119209,0.687957,0.36478,-0.0351965,0.0288701,0.602236,5,0.1,27,0.4,-1.43912,-1.85164,0.567203,0.241062,0.455317,0.00694096,0.714242,1.34897,0.0205338,0.0331106,2.51008,5,0.1,28,0.4,0.988322,-1.35211,0.564743,0.0567794,0.362661,0.00945926,0.167549,1.07026,0.027895,0.00832828,1.16396,5,0.1,29,0.4,4.32734,-0.112022,0.544368,-0.223482,-0.232434,0.00219047,-0.659704,-0.68596,0.00649691,0.00878093,0.897511,5,0.1
0,0.5,-0.606742,-2.65432,0.544278,0.0608218,0.662884,0.0123443,0.138301,1.41458,0.0281781,0.0109686,2.51507,5,0.1,1,0.5,-2.14691,3.44717,0.606509,0.124757,-0.430526,-0.00234377,0.277445,-0.957742,-0.00521541,0.0078906,1.02724,5,0.1,2,0.5,3.82726,1.43398,0.569937,-0.243586,0.563173,0.0108159,-0.541806,1.25273,0.0240691,0.036541,1.92538,5,0.1,3,0.5,-3.60879,0.476029,0.624143,0.272874,0.422186,-0.00868328,0.606999,0.93912,-0.0193194,0.0115642,1.29234,5,0.1,4,0.5,-4.15701,0.899873,0.508229,0.0849247,-0.660781,0.0252925,0.193834,-1.41802,0.0577122,0.0129932,2.5139,5,0.1,5,0.5,1.61851,2.90182,0.660488,-0.420232,-0.234374,-0.0217518,-0.934742,-0.521302,-0.048399,0.0140669,1.18614,5,0.1,6,0.5,-3.82689,3.27032,0.650374,0.661883,0.0766959,-0.0103917,1.41607,0.174984,-0.0237226,0.0116056,2.5143,5,0.1,7,0.5,3.66385,-2.50946,0.625904,-0.0292774,0.664934,-0.00354061,-0.0668317,1.41071,-0.0080727,0.0166823,2.51546,5,0.1,8,0.5,0.856079,2.90932,0.604065,-0.146041,-0.237113,-0.0014618,-0.324856,-0.527397,-0.00326335,0.0167508,0.396458,5,0.1,9,0.5,1.55995,-2.75745,0.539328,-0.0755144,0.344326,0.0218219,-0.167973,0.76592,0.0485368,0.0430733,0.637689,5,0.1,10,0.5,1.92416,-0.377074,0.64746,-0.213603,0.613205,-0.00811918,-0.491865,1.40489,-0.0188537,0.0206261,2.53915,5,0.1,11,0.5,-0.969718,1.18503,0.506607,0.40268,0.0593297,-0.0150056,0.895705,0.13198,-0.0067018,0.0315147,0.849582,5,0.1,12,0.5,0.45748,-4.05461,0.632708,0.320972,0.325303,-0.0117639,0.713974,0.72366,-0.0261962,0.0103364,1.06848,5,0.1,13,0.5,-0.93039,-2.11758,0.540819,-0.116688,0.644579,0.0104502,-0.0432841,1.24261,0.0186414,0.0084608,2.56909,5,0.1,14,0.5,-1.18603,-0.75929,0.55439,-0.638962,0.0923678,-0.000573695,-1.4213,0.20545,-0.00127405,0.00882042,2.13096,5,0.1,15,0.5,1.4682,0.627121,0.693305,-0.0964457,0.259959,0.0203883,-0.21451,0.578251,0.0453591,0.0164382,0.395197,5,0.1,16,0.5,0.205133,2.74801,0.58447,-0.181657,-0.602288,0.00558598,-0.40408,-1.2137,0.0124089,0.0182906,2.08157,5,0.1,17,0.5,1.15365,-3.70302,0.658052,0.0706052,0.567041,-0.0208823,0.157006,1.11584,-0.0464544,0.0144589,1.4007,5,0.1,18,0.5,3.46534,0.939912,0.700176,-0.0537671,0.663585,0.0162035,-0.122726,1.41309,0.0369698,0.0220887,2.51492,5,0.1,19,0.5,2.15948,1.19917,0.693641,-0.345041,-0.539132,0.0202646,-0.767469,-1.19927,0.0450797,0.00983572,2.09682,5,0.1,20,0.5,1.4397,3.56474,0.610271,-0.355915,-0.472802,-0.00369307,-0.791684,-1.05172,-0.00820309,0.0177858,1.79061,5,0.1,21,0.5,-1.37761,-4.16277,0.660609,0.172005,0.627641,-0.00823084,0.383139,1.49602,-0.0222623,0.0221564,2.53486,5,0.1,22,0.5,-1.50869,-3.55498,0.540448,-0.0508212,0.601051,0.0214144,-0.113025,0.876322,0.0476204,0.0109954,2.16468,5,0.1,23,0.5,-2.7585,-3.99269,0.619772,0.398636,0.30306,-0.00710441,0.886664,0.67398,-0.0157841,0.0189512,1.28224,5,0.1,24,0.5,1.56654,-0.172633,0.505445,0.159767,-0.645075,0.00682669,0.364095,-1.44453,0.0155084,0.00987503,2.5173,5,0.1,25,0.5,-3.16294,4.12936,0.659194,0.490696,-0.457588,-0.0437994,1.11993,-1.04445,-0.0999495,0.0115898,2.51004,5,0.1,26,0.5,-3.99235,-2.09656,0.643084,0.302927,0.160583,-0.015492,0.673816,0.357255,-0.0344738,0.0288701,0.602236,5,0.1,27,0.5,-1.41134,-1.79917,0.568002,0.314559,0.594133,0.00905478,0.717893,1.35594,0.0206567,0.0331106,2.51008,5,0.1,28,0.5,0.994853,-1.3104,0.565831,0.0737787,0.47125,0.0122896,0.164103,1.04824,0.027325,0.00832828,1.16396,5,0.1,29,0.5,4.30164,-0.138757,0.54462,-0.290412,-0.302031,0.00284892,-0.646055,-0.671844,0.00635535,0.00878093,0.897511,5,0.1
0,0.6,-0.600017,-2.58159,0.545643,0.0730723,0.784272,0.0148416,0.101566,0.968218,0.0207126,0.00952261,2.33088,5,0.1,1,0.6,-2.13315,3.39969,0.606251,0.149101,-0.514573,-0.00280142,0.199676,-0.68891,-0.00375509,0.0069604,0.764751,5,0.1,2,0.6,3.8004,1.49609,0.57113,-0.291133,0.673106,0.0129268,-0.389695,0.901222,0.017345,0.0318604,1.43339,5,0.1,3,0.6,-3.5787,0.522589,0.623186,0.326145,0.504598,-0.0103787,0.436664,0.675589,-0.0138879,0.0177613,0.962115,5,0.1,4,0.6,-4.14761,0.827323,0.511027,0.102115,-0.782828,0.0304073,0.142336,-0.977159,0.0424683,0.0104744,2.32636,5,0.1,5,0.6,1.57216,2.87597,0.658089,-0.502262,-0.280124,-0.0259981,-0.67234,-0.375032,-0.0348389,0.0132885,0.883059,5,0.1,6,0.6,-3.75425,3.2788,0.649225,0.783581,0.0922084,-0.0124946,0.97239,0.128746,-0.0174046,0.00875776,2.32839,5,0.1,7,0.6,3.66061,-2.43655,0.625513,-0.0351965,0.785655,-0.00425577,-0.0492334,0.959635,-0.00596046,0.0160935,2.33405,5,0.1,8,0.6,0.839973,2.88317,0.603904,-0.174549,-0.28339,-0.00174791,-0.23368,-0.379562,-0.00235438,0.0105482,0.436038,5,0.1,9,0.6,1.55162,-2.71947,0.541734,-0.0902563,0.41154,0.02608,-0.120759,0.550866,0.0349581,0.0259349,0.474741,5,0.1,10,0.6,1.90038,-0.309206,0.646544,-0.260922,0.737993,-0.0102401,-0.426888,1.03799,-0.0217557,0.00878046,1.3632,5,0.1,11,0.6,-0.92531,1.19157,0.505102,0.481282,0.0709116,-0.0148267,0.644356,0.0949502,0.00929832,0.0249717,0.633082,5,0.1,12,0.6,0.492878,-4.01874,0.631411,0.383627,0.388813,-0.0140622,0.513628,0.520468,-0.0188351,0.0134162,0.795458,5,0.1,13,0.6,-0.941967,-2.04764,0.541944,-0.112107,0.746089,0.011906,0.121146,0.756979,0.010103,0.0136327,2.47724,5,0.1,14,0.6,-1.2565,-0.749104,0.554326,-0.763687,0.110398,-0.000686944,-1.02252,0.14779,-0.00089407,0.011742,1.62277,5,0.1,15,0.6,1.45757,0.65579,0.695554,-0.115269,0.310704,0.0243679,-0.154376,0.416011,0.0326633,0.0186944,0.294217,5,0.1,16,0.6,0.1851,2.68233,0.585086,-0.217117,-0.704396,0.00667572,-0.290692,-0.795007,0.00891089,0.021991,1.69671,5,0.1,17,0.6,1.16144,-3.64135,0.655749,0.0843853,0.659347,-0.024958,0.112951,0.700593,-0.0334382,0.0173911,0.359802,5,0.1,18,0.6,3.45939,1.0127,0.701968,-0.0646472,0.784737,0.0194803,-0.0902414,0.965357,0.0272095,0.0239278,2.31526,5,0.1,19,0.6,2.12143,1.13971,0.695876,-0.412393,-0.644374,0.0242203,-0.552177,-0.862718,0.0324249,0.011871,1.56104,5,0.1,20,0.6,1.40045,3.51259,0.609864,-0.425389,-0.5651,-0.00441372,-0.569582,-0.756502,-0.00590086,0.0221707,1.33307,5,0.1,21,0.6,-1.35863,-4.09301,0.659681,0.205818,0.761092,-0.010255,0.279069,1.11675,-0.017345,0.0301226,2.31492,5,0.1,22,0.6,-1.51429,-3.49144,0.54281,-0.0607401,0.660414,0.0255942,-0.0813007,0.312686,0.0342429,0.0128637,1.96879,5,0.1,23,0.6,-2.71453,-3.95927,0.618988,0.47645,0.362206,-0.00848919,0.63777,0.484943,-0.0113845,0.0304048,0.954603,5,0.1,24,0.6,1.58427,-0.243826,0.506206,0.193492,-0.772071,0.00837743,0.293314,-1.04355,0.0145435,0.00992797,2.30755,5,0.1,25,0.6,-3.10866,4.07874,0.654349,0.589955,-0.550151,-0.0526577,0.823498,-0.768185,-0.0735223,0.0117773,2.21909,5,0.1,26,0.6,-3.95894,-2.07885,0.641376,0.362056,0.191933,-0.0185177,0.484705,0.257134,-0.0247657,0.0321264,0.448352,5,0.1,27,0.6,-1.37654,-1.73345,0.569004,0.378188,0.714314,0.0108853,0.527918,0.997186,0.0151694,0.0390804,2.23324,5,0.1,28,0.6,1.00299,-1.25843,0.567186,0.0881791,0.56324,0.0146866,0.118017,0.754058,0.0196993,0.0104985,0.86654,5,0.1,29,0.6,4.26961,-0.172066,0.544934,-0.347102,-0.360988,0.00340641,-0.464678,-0.483311,0.00455976,0.00881388,0.668164,5,0.1
0,0.7,-0.592195,-2.49938,0.547232,0.0832639,0.849943,0.0169202,0.0958256,0.371099,0.019554,0.00952261,2.33088,5,0.1,1,0.7,-2.11726,3.34485,0.605952,0.168271,-0.580711,-0.00316147,0.172764,-0.596046,-0.003241,0.0069604,0.764751,5,0.1,2,0.7,3.76937,1.56783,0.572508,-0.328544,0.759626,0.0145909,-0.337154,0.779718,0.0149943,0.0318604,1.43339,5,0.1,3,0.7,-3.54394,0.576368,0.62208,0.368066,0.569457,-0.0117118,0.377819,0.584513,-0.0120141,0.0177613,0.962115,5,0.1,4,0.7,-4.13668,0.74521,0.514283,0.116405,-0.849441,0.0346694,0.134408,-0.379693,0.0400916,0.0104744,2.32636,5,0.1,5,0.7,1.51863,2.84611,0.655318,-0.56681,-0.316132,-0.0293423,-0.581726,-0.324517,-0.0301339,0.0132885,0.883059,5,0.1,6,0.7,-3.67208,3.28868,0.647887,0.849698,0.105129,-0.0142418,0.375241,0.121534,-0.016436,0.00875776,2.32839,5,0.1,7,0.7,3.65684,-2.35425,0.625057,-0.0401344,0.850422,-0.00485396,-0.0464171,0.362873,-0.00562891,0.0160935,2.33405,5,0.1,8,0.7,0.82137,2.85281,0.603718,-0.196983,-0.324272,-0.00197357,-0.202172,-0.407353,-0.00203028,0.0105482,0.436038,5,0.1,9,0.7,1.542,-2.67561,0.544514,-0.10185,0.464426,0.0294352,-0.104487,0.476643,0.030227,0.0259349,0.474741,5,0.1,10,0.7,1.87382,-0.232595,0.645818,-0.255872,0.772723,-0.000853557,0.446081,-0.254069,0.184756,0.00878046,1.3632,5,0.1,11,0.7,-0.874015,1.19913,0.503688,0.543143,0.0800269,-0.013273,0.55749,0.0821427,0.0207052,0.0249717,0.633082,5,0.1,12,0.7,0.533764,-3.9773,0.629912,0.432937,0.438782,-0.01587,0.444381,0.450343,-0.0162907,0.0134162,0.795458,5,0.1,13,0.7,-0.952274,-1.96991,0.543171,-0.0915133,0.801389,0.012512,0.272717,0.338458,0.00208244,0.0136327,2.47724,5,0.1,14,0.7,-1.33711,-0.737338,0.554253,-0.839868,0.124587,-0.000772998,-0.499062,0.127878,-0.00077486,0.011742,1.62277,5,0.1,15,0.7,1.44528,0.688905,0.698151,-0.13009,0.350643,0.027503,-0.133567,0.35993,0.0282489,0.0186944,0.294217,5,0.1,16,0.7,0.161959,2.60934,0.585798,-0.245024,-0.742983,0.00753151,-0.251505,-0.0489205,0.00771508,0.021991,1.69671,5,0.1,17,0.7,1.17043,-3.57338,0.653089,0.0952298,0.686578,-0.0281672,0.0977442,-0.110358,-0.0289194,0.0173911,0.359802,5,0.1,18,0.7,3.45247,1.09494,0.704054,-0.0736892,0.850102,0.0222065,-0.0849366,0.368327,0.0256002,0.0239278,2.31526,5,0.1,19,0.7,2.07747,1.07103,0.698457,-0.465403,-0.727198,0.0273334,-0.477761,-0.746425,0.0280589,0.011871,1.56104,5,0.1,20,0.7,1.35511,3.45237,0.609394,-0.480071,-0.637728,-0.00498034,-0.492796,-0.654534,-0.0051111,0.0221707,1.33307,5,0.1,21,0.7,-1.33664,-4.01236,0.658567,0.23376,0.841618,-0.0120147,0.262022,0.502497,-0.0167973,0.0301226,2.31492,5,0.1,22,0.7,-1.52076,-3.42521,0.545537,-0.0685453,0.651803,0.0288824,-0.0703484,-0.420287,0.0296384,0.0128637,1.96879,5,0.1,23,0.7,-2.66376,-3.92067,0.618083,0.53768,0.408761,-0.00958256,0.55185,0.419557,-0.00985712,0.0304048,0.954603,5,0.1,24,0.7,1.60514,-0.325216,0.507122,0.224147,-0.8457,0.0099849,0.299245,-0.443776,0.0164434,0.00992797,2.30755,5,0.1,25,0.7,-3.0455,4.01984,0.648711,0.672619,-0.627255,-0.0600383,0.777647,-0.725269,-0.069432,0.0117773,2.21909,5,0.1,26,0.7,-3.92036,-2.0584,0.639402,0.408591,0.216616,-0.0208959,0.419378,0.222445,-0.0214353,0.0321264,0.448352,5,0.1,27,0.7,-1.33605,-1.65742,0.570169,0.431182,0.801316,0.0124087,0.498526,0.709996,0.0143386,0.0390804,2.23324,5,0.1,28,0.7,1.01239,-1.1984,0.568752,0.0995096,0.635633,0.0165771,0.102118,0.652418,0.0170283,0.0104985,0.86654,5,0.1,29,0.7,4.23262,-0.21054,0.545297,-0.391711,-0.407388,0.00384385,-0.402033,-0.418155,0.00393763,0.00881388,0.668164,5,0.1
0,0.8,-0.583442,-2.41327,0.549012,0.0911474,0.866026,0.0185296,0.0574589,0,0.0117421,0.0100959,2.26525,5,0.1,1,0.8,-2.09969,3.2842,0.605622,0.181812,-0.627446,-0.00341684,0.0908375,-0.312924,-0.00166893,0.00871331,0.539956,5,0.1,2,0.8,3.73506,1.64716,0.574032,-0.354975,0.820759,0.0157654,-0.177026,0.409424,0.00786781,0.0347597,1.01284,5,0.1,3,0.8,-3.5055,0.635838,0.620857,0.397682,0.615284,-0.0126541,0.198483,0.306934,-0.00631809,0.00959782,0.679307,5,0.1,4,0.8,-4.12444,0.659118,0.517929,0.12747,-0.866024,0.0379711,0.0810623,-2.98023e-05,0.0240803,0.0106975,2.25832,5,0.1,5,0.8,1.45944,2.8131,0.652254,-0.61242,-0.341576,-0.0317052,-0.305414,-0.170469,-0.015825,0.0135826,0.623499,5,0.1,6,0.8,-3.58598,3.29973,0.64639,0.866026,0.115132,-0.0155956,0,0.0730753,-0.00986457,0.00831931,2.26155,5,0.1,7,0.8,3.65262,-2.26812,0.624546,-0.0439525,0.866026,-0.00531673,-0.027895,0,-0.00339746,0.0146275,2.27041,5,0.1,8,0.8,0.800799,2.8185,0.603512,-0.212835,-0.359619,-0.00213236,-0.106126,-0.277758,-0.00107288,0.0105608,0.321283,5,0.1,9,0.8,1.53136,-2.62711,0.547588,-0.110042,0.501794,0.0318065,-0.0548363,0.25034,0.015825,0.0264699,0.335198,5,0.1,10,0.8,1.85134,-0.158114,0.646829,-0.186452,0.703609,0.0223085,0.876725,-1.05326,0.259221,0.013324,2.72353,5,0.1,11,0.8,-0.817294,1.20749,0.502475,0.586851,0.0864685,-0.0108793,0.292748,0.0430942,0.026226,0.027792,0.447717,5,0.1,12,0.8,0.578977,-3.93147,0.628255,0.467777,0.474089,-0.0171468,0.233352,0.236511,-0.00855327,0.0128327,0.561643,5,0.1,13,0.8,-0.959934,-1.88884,0.54442,-0.0607893,0.812402,0.0123426,0.327557,-0.121415,-0.00533462,0.0112912,2.55164,5,0.1,14,0.8,-1.42275,-0.724327,0.554173,-0.864998,0.134613,-0.000834465,-0.0205636,0.0671744,-0.00038743,0.011104,1.19281,5,0.1,15,0.8,1.4317,0.725523,0.701023,-0.14056,0.378862,0.0297174,-0.0702143,0.189006,0.0148416,0.0187385,0.207734,5,0.1,16,0.8,0.136371,2.53557,0.586584,-0.264743,-0.725949,0.00813603,-0.132065,0.344276,0.00408292,0.0211186,1.3483,5,0.1,17,0.8,1.18038,-3.5063,0.650147,0.102895,0.64581,-0.0304341,0.05126,-0.665426,-0.0151694,0.0196506,0.245026,5,0.1,18,0.8,3.44472,1.18106,0.706388,-0.0806749,0.866026,0.0243112,-0.0506639,0,0.0152886,0.0227828,1.80252,5,0.1,19,0.8,2.02887,0.99509,0.701311,-0.502861,-0.785719,0.0295341,-0.250816,-0.39196,0.0147223,0.0110933,1.26854,5,0.1,20,0.8,1.30498,3.38577,0.608874,-0.518706,-0.689048,-0.00538081,-0.258803,-0.34368,-0.00268221,0.0196426,0.941225,5,0.1,21,0.8,-1.3121,-3.92659,0.657289,0.255215,0.865597,-0.0134379,0.154912,0.00858307,-0.0108778,0.0239296,2.22289,5,0.1,22,0.8,-1.52792,-3.36291,0.548554,-0.0740618,0.587767,0.031206,-0.0368953,-0.810623,0.0155568,0.0100744,1.79689,5,0.1,23,0.8,-2.60761,-3.87798,0.617083,0.580949,0.441658,-0.0103563,0.289679,0.220299,-0.0051558,0.0185702,0.674011,5,0.1,24,0.8,1.62893,-0.411174,0.508198,0.249833,-0.866025,0.0114664,0.200093,-1.43051e-05,0.012368,0.0080077,2.2213,5,0.1,25,0.8,-2.97477,3.95388,0.642398,0.73666,-0.686979,-0.0657558,0.467062,-0.435591,-0.0417233,0.00986341,2.04185,5,0.1,26,0.8,-3.87769,-2.03577,0.63722,0.441468,0.234056,-0.0225767,0.220299,0.116825,-0.0112355,0.0282514,0.465021,5,0.1,27,0.8,-1.29071,-1.57442,0.571474,0.472236,0.851741,0.0135899,0.299454,0.285685,0.00864267,0.0311686,2.12111,5,0.1,28,0.8,1.02278,-1.13202,0.570483,0.107518,0.686786,0.0179127,0.0535846,0.342548,0.0089407,0.00984488,0.611826,5,0.1,29,0.8,4.19171,-0.253084,0.545699,-0.423217,-0.440172,0.00415295,-0.211477,-0.219584,0.00205636,0.00867646,0.471757,5,0.1
0,0.9,-0.574028,-2.32667,0.550926,0.0970889,0.866026,0.0197434,0.0552386,0,0.0112839,0.0100959,2.26525,5,0.1,1,0.9,-2.08107,3.21997,0.605272,0.190042,-0.655803,-0.00356808,0.0650585,-0.224158,-0.00119209,0.00871331,0.539956,5,0.1,2,0.9,3.69872,1.73105,0.575646,-0.371015,0.853963,0.0164778,-0.126794,0.230901,0.00562891,0.0347597,1.01284,5,0.1,3,0.9,-3.46479,0.69883,0.619561,0.415667,0.643097,-0.0132265,0.142142,0.219859,-0.0045225,0.00959782,0.679307,5,0.1,4,0.9,-4.11127,0.572515,0.521851,0.135837,-0.866026,0.0404576,0.0777245,-1.93715e-06,0.0230968,0.0106975,2.25832,5,0.1,5,0.9,1.39674,2.77813,0.649008,-0.640096,-0.357025,-0.0331389,-0.218771,-0.12213,-0.0113323,0.0135826,0.623499,5,0.1,6,0.9,-3.49938,3.31162,0.644779,0.866026,0.122657,-0.0166121,0,0.0697374,-0.00942126,0.00831931,2.26155,5,0.1,7,0.9,3.64808,-2.18152,0.623997,-0.0468317,0.866026,-0.00566728,-0.0267178,0,-0.0032559,0.0146275,2.27041,5,0.1,8,0.9,0.779009,2.78113,0.603293,-0.222452,-0.387326,-0.00222921,-0.0760183,-0.252381,-0.00076741,0.0105608,0.321283,5,0.1,9,0.9,1.5201,-2.57574,0.550844,-0.115012,0.524478,0.0332405,-0.0392795,0.179306,0.0113361,0.0264699,0.335198,5,0.1,10,0.9,1.83597,-0.0920956,0.650076,-0.130752,0.624602,0.0400553,0.28795,-0.581132,0.104588,0.013324,2.72353,5,0.1,11,0.9,-0.757212,1.21634,0.501522,0.613378,0.0903735,-0.00817934,0.209689,0.0308678,0.0271015,0.027792,0.447717,5,0.1,12,0.9,0.626867,-3.88294,0.626499,0.488922,0.495521,-0.0179215,0.167146,0.169441,-0.00612065,0.0128327,0.561643,5,0.1,13,0.9,-0.964603,-1.80855,0.545623,-0.0347035,0.789752,0.0116629,0.200994,-0.338636,-0.00828132,0.0112912,2.55164,5,0.1,14,0.9,-1.50931,-0.710545,0.554087,-0.865609,0.1407,-0.000869576,0.0115111,0.0481196,-0.000279397,0.011104,1.19281,5,0.1,15,0.9,1.41731,0.764311,0.704066,-0.146922,0.395989,0.0310619,-0.050284,0.135385,0.0106208,0.0187385,0.207734,5,0.1,16,0.9,0.109267,2.4653,0.587417,-0.27671,-0.676474,0.00850605,-0.0945977,0.52692,0.00292435,0.0211186,1.3483,5,0.1,17,0.9,1.19091,-3.44583,0.647032,0.107542,0.557185,-0.0318085,0.0367463,-1.0567,-0.0108592,0.0196506,0.245026,5,0.1,18,0.9,3.43637,1.26766,0.708902,-0.0865303,0.865928,0.0259863,-0.0596344,-0.00389665,0.0163689,0.0227828,1.80252,5,0.1,19,0.9,1.97723,0.914648,0.704335,-0.530034,-0.821236,0.0308685,-0.258692,-0.28076,0.01055,0.0110933,1.26854,5,0.1,20,0.9,1.25187,3.31522,0.608323,-0.542157,-0.720191,-0.00562398,-0.185378,-0.246182,-0.00192598,0.0196426,0.941225,5,0.1,21,0.9,-1.28577,-3.84,0.655889,0.271244,0.865999,-0.0145541,0.148714,0.00107288,-0.0104643,0.0239296,2.22289,5,0.1,22,0.9,-1.5355,-3.30879,0.551748,-0.0774059,0.490837,0.032616,-0.0264347,-1.04403,0.0111535,0.0100744,1.79689,5,0.1,23,0.9,-2.54813,-3.83276,0.616022,0.607201,0.461621,-0.0108241,0.207528,0.157818,-0.00369921,0.0185702,0.674011,5,0.1,24,0.9,1.65496,-0.497777,0.50941,0.2708,-0.866025,0.0127807,0.20013,-1.78814e-06,0.0128672,0.0080077,2.2213,5,0.1,25,0.9,-2.89867,3.88291,0.635605,0.785052,-0.732106,-0.0700783,0.450864,-0.420406,-0.0402704,0.00986341,2.04185,5,0.1,26,0.9,-3.83233,-2.01181,0.634909,0.465875,0.24464,-0.0235953,0.236824,0.08367,-0.00805035,0.0282514,0.465021,5,0.1,27,0.9,-1.24193,-1.48837,0.572878,0.503225,0.865133,0.014484,0.288434,0.0357106,0.00831857,0.0311686,2.12111,5,0.1,28,0.9,1.03379,-1.06171,0.572317,0.112374,0.717826,0.0187225,0.0383779,0.24537,0.00639632,0.00984488,0.611826,5,0.1,29,0.9,4.14838,-0.298149,0.546124,-0.442375,-0.46007,0.00433931,-0.151396,-0.157284,0.00147149,0.00867646,0.471757,5,0.1
0,1,-0.564088,-2.24007,0.552947,0.101157,0.866026,0.0205755,0.0219047,0,0.00450015,0.00878541,2.26456,5,0.1,1,1,-2.06184,3.15361,0.604911,0.193375,-0.667286,-0.00362992,-0.00405312,0.0145435,0.000149012,0.00750855,0.367192,5,0.1,2,1,3.66118,1.81716,0.577313,-0.377506,0.863531,0.0167653,0.00810623,-0.0499487,-0.00038743,0.0269509,0.693848,5,0.1,3,1,-3.42273,0.763899,0.618223,0.422955,0.654358,-0.0134587,-0.00917912,-0.0141263,0.000298023,0.00912982,0.470417,5,0.1,4,1,-4.09736,0.485913,0.525993,0.141561,-0.866025,0.0421599,0.030756,-1.43051e-05,0.00914931,0.00879166,2.25693,5,0.1,5,1,1.33198,2.74201,0.645655,-0.6513,-0.363284,-0.0337183,0.0140667,0.0077486,0.000715256,0.0106053,0.425843,5,0.1,6,1,-3.41278,3.32418,0.643078,0.866026,0.12778,-0.0173047,0,0.0272989,-0.00366569,0.00866965,2.26059,5,0.1,7,1,3.64329,-2.09492,0.623417,-0.0487983,0.866026,-0.00590682,-0.0106096,0,-0.0013113,0.0126479,2.27025,5,0.1,8,1,0.756501,2.74134,0.603068,-0.226344,-0.406057,-0.00226796,0.00491738,-0.105858,2.98023e-05,0.0086054,0.226338,5,0.1,9,1,1.50846,-2.52267,0.554207,-0.117022,0.533664,0.0338212,0.002563,-0.0114441,-0.00077486,0.023975,0.227947,5,0.1,10,1,1.82371,-0.032128,0.65441,-0.11974,0.577815,0.0448719,-0.0272393,-0.396012,-0.000715256,0.0127246,2.48201,5,0.1,11,1,-0.695151,1.22548,0.500836,0.624119,0.0919521,-0.00557303,-0.0134706,-0.00196695,0.0245273,0.0281429,0.305267,5,0.1,12,1,0.676337,-3.8328,0.624686,0.497483,0.504202,-0.0182346,-0.0107288,-0.010848,0.00038743,0.0103654,0.381941,5,0.1,13,1,-0.967231,-1.73167,0.546743,-0.0193298,0.743762,0.0106856,0.112236,-0.58341,-0.0112057,0.0103085,2.6332,5,0.1,14,1,-1.59569,-0.696309,0.553999,-0.860393,0.143166,-0.000885129,0.112593,-0.00309944,5.96046e-05,0.00868534,0.879579,5,0.1,15,1,1.40244,0.804377,0.707209,-0.1495,0.402923,0.0316069,0.00321865,-0.00867248,-0.000715256,0.015626,0.141266,5,0.1,16,1,0.0812695,2.4,0.588278,-0.281555,-0.632888,0.00865608,0.00608504,0.339866,-0.000178814,0.0189286,1.07731,5,0.1,17,1,1.20179,-3.3957,0.643813,0.109425,0.443345,-0.0323638,-0.00244379,-1.1816,0.000715256,0.0132689,0.217509,5,0.1,18,1,3.42745,1.3542,0.711572,-0.0914454,0.864467,0.0272706,-0.0337362,-0.0311136,0.00804663,0.0205301,1.51942,5,0.1,19,1,1.92315,0.831555,0.707458,-0.54884,-0.835618,0.0314102,-0.0938177,0.01809,-0.000715256,0.00771783,0.919046,5,0.1,20,1,1.19702,3.24235,0.607754,-0.551653,-0.732803,-0.00572354,0.0118613,0.0158548,0.000149012,0.0164734,0.642385,5,0.1,21,1,-1.25803,-3.7534,0.654389,0.282091,0.866026,-0.0153646,0.0564456,0,-0.00506639,0.0227546,2.21797,5,0.1,22,1,-1.54334,-3.26478,0.555049,-0.0787586,0.391954,0.0331879,0.00166893,-0.887752,-0.000745058,0.00884887,1.64787,5,0.1,23,1,-2.48669,-3.78606,0.614927,0.617832,0.469702,-0.0110134,-0.0133514,-0.0101328,0.000208616,0.0180401,0.458364,5,0.1,24,1,1.68291,-0.584379,0.510746,0.286612,-0.866026,0.0138596,0.102878,0,0.00795722,0.00925689,2.21326,5,0.1,25,1,-2.81827,3.80794,0.628428,0.818396,-0.763196,-0.0730559,0.181437,-0.169158,-0.0162423,0.0117045,1.52224,5,0.1,26,1,-3.78474,-1.98706,0.632522,0.483561,0.248927,-0.0240073,0.0953674,-0.00542402,0.000506639,0.0259781,0.332857,5,0.1,27,1,-1.1904,-1.40178,0.574361,0.524524,0.866026,0.0150993,0.115573,-5.96046e-05,0.00333786,0.0083766,0.610673,5,0.1,28,1,1.04516,-0.989077,0.574211,0.11434,0.730394,0.0190511,-0.00244379,-0.0157654,-0.000447035,0.00872715,0.416069,5,0.1,29,1,4.10362,-0.344699,0.546563,-0.450134,-0.468126,0.00441521,0.00977516,0.010103,-0.000149012,0.00921163,0.320795,5,0.1
0,1.1,-0.553841,-2.15346,0.555032,0.103842,0.866026,0.021126,0.0257343,0,0.00527874,0.00878541,2.26456,5,0.1,1,1.1,-2.04254,3.08699,0.604549,0.192537,-0.664351,-0.00360822,-0.0197738,0.06859,0.000413507,0.00750855,0.367192,5,0.1,2,1.1,3.62348,1.90326,0.578987,-0.375855,0.857687,0.0166893,0.038743,-0.0998899,-0.00174344,0.0269509,0.693848,5,0.1,3,1.1,-3.38077,0.829236,0.616879,0.413289,0.651489,-0.0133992,-0.182286,-0.0671707,0.00138953,0.00912982,0.470417,5,0.1,4,1.1,-4.08302,0.39931,0.530264,0.145293,-0.866025,0.0432703,0.0354946,1.78814e-06,0.0105537,0.00879166,2.25693,5,0.1,5,1.1,1.26707,2.70574,0.64229,-0.644825,-0.361427,-0.0335044,0.131205,0.042066,0.00464544,0.0106053,0.425843,5,0.1,6,1.1,-3.32617,3.33712,0.641326,0.866026,0.131039,-0.0177437,0,0.0304133,-0.00410154,0.00866965,2.26059,5,0.1,7,1.1,3.63834,-2.00832,0.622818,-0.0500884,0.866026,-0.00606524,-0.0122637,0,-0.00150874,0.0126479,2.27025,5,0.1,8,1.1,0.733901,2.70021,0.602841,-0.225349,-0.415989,-0.00225948,0.023257,-0.0736862,0.000227243,0.0086054,0.226338,5,0.1,9,1.1,1.49678,-2.46938,0.557584,-0.116506,0.531331,0.0336694,0.0120401,-0.054732,-0.00350177,0.023975,0.227947,5,0.1,10,1.1,1.8114,0.0235129,0.6587,-0.127971,0.53337,0.0392674,-0.119232,-0.493758,-0.100955,0.0127246,2.48201,5,0.1,11,1.1,-0.632833,1.23467,0.500394,0.621383,0.0915505,-0.00336049,-0.0640713,-0.00943244,0.0195093,0.0281429,0.305267,5,0.1,12,1.1,0.72601,-3.78246,0.622865,0.495303,0.501996,-0.018155,-0.05107,-0.0517368,0.0018701,0.0103654,0.381941,5,0.1,13,1.1,-0.969228,-1.65981,0.547765,-0.0259293,0.696583,0.00983439,-0.207424,-0.397585,-0.00650436,0.0103085,2.6332,5,0.1,14,1.1,-1.68141,-0.682014,0.553911,-0.855224,0.142538,-0.000877958,0.037007,-0.0146963,0.000115484,0.00868534,0.879579,5,0.1,15,1.1,1.38751,0.844609,0.710365,-0.148845,0.401159,0.0314655,0.0153482,-0.041347,-0.0032708,0.015626,0.141266,5,0.1,16,1.1,0.0531564,2.33769,0.589142,-0.280321,-0.619106,0.00861883,0.0289082,-0.00354648,-0.000886619,0.0189286,1.07731,5,0.1,17,1.1,1.21272,-3.35728,0.640582,0.10894,0.325726,-0.0322202,-0.0112578,-1.13346,0.00333786,0.0132689,0.217509,5,0.1,18,1.1,3.41816,1.43986,0.714334,-0.0939559,0.842626,0.0278736,-0.0134259,-0.398435,0.00304729,0.0205301,1.51942,5,0.1,19,1.1,1.86759,0.748675,0.710624,-0.563384,-0.816181,0.0320959,-0.159413,0.366174,0.0114478,0.00771783,0.919046,5,0.1,20,1.1,1.14193,3.16933,0.60718,-0.549432,-0.725513,-0.00575613,0.0531822,0.147715,-0.000454485,0.0164734,0.642385,5,0.1,21,1.1,-1.22948,-3.6668,0.652824,0.289101,0.866026,-0.0159365,0.0670031,0,-0.0054203,0.0227546,2.21797,5,0.1,22,1.1,-1.5512,-3.22969,0.558362,-0.0784161,0.31564,0.0330405,0.00806898,-0.556111,-0.00341237,0.00884887,1.64787,5,0.1,23,1.1,-2.425,-3.73916,0.613827,0.615125,0.467645,-0.010968,-0.0634044,-0.0482202,0.00111014,0.0180401,0.458364,5,0.1,24,1.1,1.71215,-0.670982,0.512175,0.298234,-0.866026,0.0147251,0.111192,3.72529e-06,0.00835955,0.00925689,2.21326,5,0.1,25,1.1,-2.73548,3.73073,0.621037,0.83685,-0.780398,-0.074707,0.146553,-0.136569,-0.013113,0.0117045,1.52224,5,0.1,26,1.1,-3.73587,-1.9622,0.630124,0.493599,0.247831,-0.0239032,0.0808239,-0.0255927,0.00245497,0.0259781,0.332857,5,0.1,27,1.1,-1.13896,-1.31603,0.575921,0.490261,0.840888,0.0163594,-0.72442,-0.483394,0.0190362,0.0083766,0.610673,5,0.1,28,1.1,1.05657,-0.916147,0.576113,0.113841,0.727193,0.0189645,-0.0117198,-0.0749752,-0.00198185,0.00872715,0.416069,5,0.1,29,1.1,4.05867,-0.391441,0.547003,-0.448154,-0.466074,0.00439147,0.0463128,0.0480581,-0.000488013,0.00921163,0.320795,5,0.1
0,1.2,-0.543363,-2.06686,0.557164,0.105274,0.866026,0.0214189,-0.00137091,-5.96046e-05,-0.000208616,0.00978968,2.26437,5,0.1,1,1.2,-2.02345,3.02115,0.604192,0.188243,-0.649524,-0.00352412,-0.0705719,0.244021,0.0013411,0.00776074,0.244167,5,0.1,2,1.2,3.58623,1.98823,0.580641,-0.367469,0.838065,0.0163153,0.138044,-0.314474,-0.00616908,0.0289147,0.465208,5,0.1,3,1.2,-3.34063,0.893802,0.615551,0.387025,0.636955,-0.0130996,-0.339866,-0.239283,0.00491738,0.00850844,0.350343,5,0.1,4,1.2,-4.06837,0.312708,0.534629,0.147223,-0.866025,0.0438452,-0.00286102,-1.43051e-05,-0.000804663,0.00904243,2.25666,5,0.1,5,1.2,1.20354,2.66995,0.638977,-0.622538,-0.352776,-0.0326112,0.323892,0.139236,0.0139177,0.0105477,0.294608,5,0.1,6,1.2,-3.23957,3.35033,0.639537,0.866026,0.132596,-0.0179544,0,-0.00417233,0.000596046,0.00889025,2.02714,5,0.1,7,1.2,3.63329,-1.92171,0.622206,-0.0507593,0.866026,-0.00614822,0.000715256,0,8.9407e-05,0.0133853,2.27022,5,0.1,8,1.2,0.711568,2.65843,0.602617,-0.220321,-0.417602,-0.00220984,0.0827909,0.0542402,0.000834465,0.00831143,0.154368,5,0.1,9,1.2,1.48523,-2.41673,0.560921,-0.113904,0.519478,0.0329152,0.0427961,-0.195026,-0.012368,0.0250561,0.151571,5,0.1,10,1.2,1.79798,0.0742166,0.662028,-0.140411,0.479077,0.0265539,-0.11611,-0.591095,-0.144958,0.0103586,2.58095,5,0.1,11,1.2,-0.57125,1.24374,0.500146,0.607519,0.0895083,-0.00169873,-0.228196,-0.033617,0.0136793,0.0244601,1.92748,5,0.1,12,1.2,0.775097,-3.7327,0.621066,0.484253,0.490797,-0.0177503,-0.181943,-0.184298,0.00667572,0.0105269,0.254128,5,0.1,13,1.2,-0.973136,-1.59208,0.548719,-0.0542536,0.657797,0.00926256,-0.330299,-0.405192,-0.00539422,0.010744,2.75807,5,0.1,14,1.2,-1.76657,-0.667888,0.553824,-0.845128,0.139357,-0.000856817,0.197291,-0.0523329,0.000327826,0.0075531,0.625775,5,0.1,15,1.2,1.37276,0.884366,0.713483,-0.145525,0.392209,0.030762,0.0546575,-0.147283,-0.0115931,0.0144211,0.159402,5,0.1,16,1.2,0.025375,2.2756,0.589996,-0.274066,-0.623018,0.00842661,0.102953,-0.0296831,-0.00315905,0.0166338,0.81867,5,0.1,17,1.2,1.22351,-3.33006,0.637389,0.106508,0.222409,-0.0315011,-0.0399947,-0.912666,0.0118911,0.0125745,0.528784,5,0.1,18,1.2,3.40875,1.52158,0.717122,-0.0936449,0.786415,0.0277236,0.0215769,-0.716507,-0.00664592,0.0190535,1.42301,5,0.1,19,1.2,1.8106,0.669428,0.71389,-0.574288,-0.763546,0.0331834,-0.0320673,0.679374,0.00804663,0.00913098,0.627792,5,0.1,20,1.2,1.08746,3.09785,0.606604,-0.537595,-0.700432,-0.00575632,0.197113,0.364542,0.000685453,0.0169659,0.436883,5,0.1,21,1.2,-1.20033,-3.58019,0.651209,0.29265,0.866026,-0.0162855,-0.007689,0,-0.00089407,0.0238502,2.21698,5,0.1,22,1.2,-1.55897,-3.2,0.561637,-0.0766695,0.286955,0.0323027,0.028789,-0.0377893,-0.0121593,0.0103965,1.4056,5,0.1,23,1.2,-2.36404,-3.69281,0.61274,0.601405,0.457215,-0.0107259,-0.225902,-0.1719,0.00402331,0.0170275,0.304794,5,0.1,24,1.2,1.74242,-0.757584,0.513684,0.30573,-0.866026,0.0153616,0.0260472,0,0.00369549,0.0107319,2.21037,5,0.1,25,1.2,-2.6514,3.65232,0.61353,0.840807,-0.784081,-0.0750631,-0.0954866,0.0891685,0.00852346,0.00929821,1.05692,5,0.1,26,1.2,-3.68629,-1.93764,0.627755,0.495589,0.242299,-0.0233725,-0.0580549,-0.0910759,0.00879169,0.0286794,0.230364,5,0.1,27,1.2,-1.09442,-1.23502,0.577659,0.393474,0.773162,0.0184134,-1.14954,-0.852287,0.0198781,0.00766514,0.187982,5,0.1,28,1.2,1.06786,-0.844078,0.577992,0.111303,0.71097,0.01854,-0.0418425,-0.267059,-0.00700355,0.0100395,0.276664,5,0.1,29,1.2,4.01426,-0.437631,0.547438,-0.438148,-0.455676,0.00429004,0.164628,0.17117,-0.00160933,0.00927601,0.213305,5,0.1
0,1.3,-0.532811,-1.98026,0.559311,0.105905,0.866025,0.0215532,0.00789016,1.49012e-05,0.00165403,0.00978968,2.26437,5,0.1,1,1.3,-2.00497,2.95739,0.603846,0.181263,-0.625402,-0.00339206,-0.0748932,0.258595,0.00140816,0.00776074,0.244167,5,0.1,2,1.3,3.55016,2.07051,0.582242,-0.353821,0.807469,0.0157058,0.146315,-0.324592,-0.00652671,0.0289147,0.465208,5,0.1,3,1.3,-3.30398,0.956327,0.614265,0.34269,0.6133,-0.0126134,-0.529215,-0.253592,0.00521168,0.00850844,0.350343,5,0.1,4,1.3,-4.05362,0.226105,0.539022,0.147952,-0.866025,0.044066,0.00905991,0,0.00272319,0.00904243,2.25666,5,0.1,5,1.3,1.14305,2.63538,0.635787,-0.585658,-0.338178,-0.0311497,0.419565,0.161618,0.0160895,0.0105477,0.294608,5,0.1,6,1.3,-3.15297,3.36359,0.637742,0.866026,0.132697,-0.0179659,0,-0.000432134,7.07805e-05,0.00889025,2.02714,5,0.1,7,1.3,3.6282,-1.83511,0.62159,-0.0510409,0.866026,-0.00618212,-0.00345707,0,-0.000417233,0.0133853,2.27022,5,0.1,8,1.3,0.689941,2.61693,0.6024,-0.212137,-0.412011,-0.00212733,0.0877306,0.0730902,0.000886619,0.00831143,0.154368,5,0.1,9,1.3,1.47405,-2.36573,0.564152,-0.109674,0.500196,0.0316928,0.0453517,-0.206739,-0.0131018,0.0250561,0.151571,5,0.1,10,1.3,1.78392,0.119475,0.663838,-0.135881,0.428619,0.00871634,0.180498,-0.438481,-0.200812,0.0103586,2.58095,5,0.1,11,1.3,-0.512188,1.25362,0.500034,0.568712,0.117301,-0.000629947,-0.529628,0.51754,0.00791252,0.0244601,1.92748,5,0.1,12,1.3,0.822604,-3.68455,0.619323,0.465464,0.471883,-0.0170976,-0.207108,-0.207692,0.00694394,0.0105269,0.254128,5,0.1,13,1.3,-0.980426,-1.52827,0.54961,-0.0930166,0.618629,0.00847308,-0.419289,-0.395887,-0.010062,0.010744,2.75807,5,0.1,14,1.3,-1.85024,-0.654208,0.55374,-0.828898,0.134184,-0.000824686,0.164397,-0.0554696,0.000346452,0.0075531,0.625775,5,0.1,15,1.3,1.35839,0.923098,0.71652,-0.142554,0.384205,0.030131,0.014782,-0.0397898,-0.00314787,0.0144211,0.159402,5,0.1,16,1.3,-0.0015281,2.21281,0.590824,-0.263889,-0.634992,0.00811415,0.109112,-0.162557,-0.00334904,0.0166338,0.81867,5,0.1,17,1.3,1.23397,-3.31203,0.634297,0.102555,0.143471,-0.0303264,-0.0423789,-0.611916,0.0125803,0.0125745,0.528784,5,0.1,18,1.3,3.39951,1.59583,0.719859,-0.0911634,0.691943,0.026989,0.0305921,-1.12009,-0.00885129,0.0190535,1.42301,5,0.1,19,1.3,1.75305,0.596125,0.717236,-0.575841,-0.705163,0.0335769,0.0228882,0.519596,-0.0009574,0.00913098,0.627792,5,0.1,20,1.3,1.03466,3.02972,0.60603,-0.518167,-0.661066,-0.00572763,0.208434,0.434145,0.000201166,0.0169659,0.436883,5,0.1,21,1.3,-1.17102,-3.49359,0.649572,0.293969,0.866026,-0.0164804,0.0173151,0,-0.00205263,0.0238502,2.21698,5,0.1,22,1.3,-1.5665,-3.17043,0.564808,-0.0738235,0.313188,0.0311016,0.0305101,0.484869,-0.0128634,0.0103965,1.4056,5,0.1,23,1.3,-2.305,-3.64793,0.611687,0.579075,0.440225,-0.0103282,-0.239402,-0.182137,0.00426173,0.0170275,0.304794,5,0.1,24,1.3,1.7732,-0.844187,0.515242,0.310196,-0.866026,0.015818,0.0453889,3.72529e-06,0.00447035,0.0107319,2.21037,5,0.1,25,1.3,-2.56775,3.57432,0.606063,0.831608,-0.775491,-0.074242,-0.121683,0.113577,0.0108592,0.00929821,1.05692,5,0.1,26,1.3,-3.637,-1.91386,0.625461,0.490148,0.233296,-0.0225038,-0.0706315,-0.0965074,0.0093095,0.0286794,0.230364,5,0.1,27,1.3,-1.06094,-1.16186,0.579621,0.275588,0.690815,0.0209558,-1.18103,-0.806361,0.0282936,0.00766514,0.187982,5,0.1,28,1.3,1.07878,-0.774287,0.579812,0.107167,0.68457,0.0178484,-0.044331,-0.283044,-0.00740588,0.0100395,0.276664,5,0.1,29,1.3,3.97125,-0.482362,0.547859,-0.421872,-0.438755,0.00413088,0.174507,0.181414,-0.00170246,0.00927601,0.213305,5,0.1
0,1.4,-0.522207,-1.89366,0.561469,0.105812,0.866026,0.0215381,-0.0140071,-5.96046e-05,-0.00283122,0.0151906,2.26447,5,0.1,1,1.4,-1.98727,2.8963,0.603515,0.172296,-0.594455,-0.00322461,-0.108302,0.37396,0.00202656,0.00800898,0.160718,5,0.1,2,1.4,3.5156,2.14944,0.583776,-0.336307,0.768626,0.0149265,0.211477,-0.4704,-0.00941753,0.0263984,0.308214,5,0.1,3,1.4,-3.27255,1.01623,0.613033,0.28441,0.582945,-0.0119895,-0.621915,-0.366509,0.00753999,0.00832109,0.189167,5,0.1,4,1.4,-4.03881,0.139503,0.543431,0.147605,-0.866025,0.0439659,-0.0216961,0,-0.0064671,0.00859924,2.25702,5,0.1,5,1.4,1.08678,2.60247,0.632761,-0.537783,-0.318998,-0.0292674,0.540376,0.227928,0.0220239,0.010071,0.214571,5,0.1,6,1.4,-3.06637,3.37682,0.635951,0.866026,0.131392,-0.017789,0,-0.03016,0.00411272,0.00915136,1.59135,5,0.1,7,1.4,3.62309,-1.74851,0.620971,-0.050956,0.866026,-0.00617206,0.00727177,-5.96046e-05,0.00089407,0.0137325,2.27025,5,0.1,8,1.4,0.669219,2.57623,0.602192,-0.201637,-0.4004,-0.0020206,0.126779,0.169635,0.0012517,0.00715684,0.588789,5,0.1,9,1.4,1.46334,-2.31687,0.567248,-0.104246,0.475448,0.0301227,0.0655651,-0.298977,-0.0188947,0.0236329,0.0997634,5,0.1,10,1.4,1.77154,0.160259,0.663688,-0.109056,0.387835,-0.011678,0.33474,-0.392251,-0.198752,0.00743839,0.697222,5,0.1,11,1.4,-0.458335,1.26836,0.500003,0.50504,0.180262,-7.00355e-05,-0.727638,0.68599,0.00354648,0.0262706,1.69295,5,0.1,12,1.4,0.867986,-3.63853,0.617653,0.44065,0.446999,-0.0162676,-0.297785,-0.298858,0.0100732,0.010988,0.170728,5,0.1,13,1.4,-0.991797,-1.46849,0.550401,-0.133644,0.575671,0.00731498,-0.374228,-0.474989,-0.0128448,0.010099,2.8406,5,0.1,14,1.4,-1.93211,-0.641101,0.55366,-0.80598,0.127545,-0.000785291,0.319362,-0.0802279,0.000536442,0.00815698,0.433883,5,0.1,15,1.4,1.34421,0.961315,0.719518,-0.140843,0.3796,0.0297666,0.0266433,-0.0718534,-0.00563264,0.0156958,0.165331,5,0.1,16,1.4,-0.0273047,2.1486,0.591616,-0.250829,-0.647402,0.00771284,0.157722,-0.051856,-0.00485778,0.0175915,2.59419,5,0.1,17,1.4,1.24399,-3.3,0.631335,0.0974834,0.104278,-0.0288218,-0.0613332,-0.183702,0.0181496,0.0149394,0.455926,5,0.1,18,1.4,3.39057,1.65912,0.722505,-0.0871122,0.571609,0.0258237,0.0520945,-1.24753,-0.0150204,0.0203851,1.34488,5,0.1,19,1.4,1.69581,0.528152,0.720569,-0.566089,-0.65424,0.032872,0.186384,0.521406,-0.0135601,0.00998676,0.434713,5,0.1,20,1.4,0.984016,2.96597,0.605459,-0.493085,-0.611812,-0.00566393,0.304461,0.557303,0.0013113,0.0147754,0.303076,5,0.1,21,1.4,-1.1416,-3.40699,0.647918,0.293264,0.866026,-0.0165358,-0.0431538,0,0.00166893,0.0254767,2.21809,5,0.1,22,1.4,-1.57371,-3.13635,0.567846,-0.0701696,0.370258,0.0295609,0.0440478,0.597119,-0.018537,0.00709776,1.12493,5,0.1,23,1.4,-2.24844,-3.60493,0.610678,0.550419,0.418437,-0.00981838,-0.346065,-0.263333,0.00616908,0.0186058,0.200629,5,0.1,24,1.4,1.80436,-0.930789,0.516841,0.311768,-0.866026,0.0160933,-0.0264049,-2.98023e-05,0.000327826,0.00930494,1.94902,5,0.1,25,1.4,-2.48546,3.49758,0.598717,0.810921,-0.756186,-0.0723943,-0.314355,0.293136,0.0280738,0.00992317,0.716154,5,0.1,26,1.4,-3.58849,-1.89107,0.623263,0.478142,0.221747,-0.0213906,-0.182986,-0.139475,0.0134706,0.0269588,0.621838,5,0.1,27,1.4,-1.03915,-1.09681,0.581854,0.162011,0.609961,0.0236094,-1.0702,-0.818193,0.0228584,0.00819169,0.152059,5,0.1,28,1.4,1.08925,-0.707419,0.581556,0.101861,0.650692,0.016962,-0.0640154,-0.409186,-0.0106394,0.0110319,0.182106,5,0.1,29,1.4,3.93004,-0.52522,0.548263,-0.400984,-0.41704,0.00392646,0.252128,0.26226,-0.00244379,0.00708674,0.140396,5,0.1
0,1.5,-0.511658,-1.80705,0.563616,0.10537,0.866025,0.0214497,-0.000968575,1.49012e-05,-0.000186265,0.0151906,2.26447,5,0.1,1,1.5,-1.97056,2.83865,0.603202,0.161964,-0.558788,-0.00303173,-0.103243,0.356287,0.00192598,0.00800898,0.160718,5,0.1,2,1.5,3.48299,2.22405,0.585224,-0.316134,0.72398,0.0140285,0.201553,-0.445113,-0.00896305,0.0263984,0.308214,5,0.1,3,1.5,-3.24727,1.07277,0.61187,0.220957,0.547984,-0.0112702,-0.635371,-0.349276,0.00718608,0.00832109,0.189167,5,0.1,4,1.5,-4.02411,0.0529001,0.54781,0.146693,-0.866025,0.0436939,-0.00482798,-4.47035e-07,-0.00145286,0.00859924,2.25702,5,0.1,5,1.5,1.0357,2.5717,0.629942,-0.483812,-0.296244,-0.0271331,0.544492,0.233352,0.0213347,0.010071,0.214571,5,0.1,6,1.5,-2.97977,3.38982,0.63419,0.865943,0.12872,-0.0174251,-0.00330806,-0.02864,0.00388548,0.00915136,1.59135,5,0.1,7,1.5,3.61802,-1.66191,0.620356,-0.0506744,0.866025,-0.00613704,0.0012815,1.49012e-05,0.000156462,0.0137325,2.27025,5,0.1,8,1.5,0.649665,2.5374,0.601996,-0.189544,-0.372871,-0.00190083,0.120811,0.368014,0.00119954,0.00715684,0.588789,5,0.1,9,1.5,1.45323,-2.27076,0.570169,-0.0979915,0.44693,0.0283197,0.0624657,-0.28491,-0.0180192,0.0236329,0.0997634,5,0.1,10,1.5,1.76243,0.195768,0.661567,-0.0722362,0.311256,-0.0302273,0.387929,-1.05952,-0.168238,0.00743839,0.697222,5,0.1,11,1.5,-0.411864,1.29023,0.500009,0.421352,0.25995,0.000155158,-0.910526,0.853412,0.00113249,0.0262706,1.69295,5,0.1,12,1.5,0.910533,-3.59535,0.616073,0.409832,0.416205,-0.0153289,-0.325281,-0.324234,0.00922009,0.010988,0.170728,5,0.1,13,1.5,-1.00723,-1.413,0.551018,-0.176319,0.536242,0.0045957,-0.4499,-0.340529,-0.0382513,0.010099,2.8406,5,0.1,14,1.5,-2.01124,-0.628732,0.553584,-0.776934,0.119893,-0.000735093,0.29172,-0.0764355,0.000495464,0.00815698,0.433883,5,0.1,15,1.5,1.32996,0.998984,0.722471,-0.14667,0.374009,0.0293286,-0.119053,-0.0573955,-0.00449643,0.0156958,0.165331,5,0.1,16,1.5,-0.0523448,2.08367,0.592399,-0.256093,-0.64979,0.00824351,-0.210754,0.0268966,0.0130385,0.0175915,2.59419,5,0.1,17,1.5,1.25344,-3.28993,0.62854,0.0916345,0.101829,-0.0270909,-0.05842,0.100836,0.0172853,0.0149394,0.455926,5,0.1,18,1.5,3.38212,1.70987,0.725014,-0.0819746,0.443417,0.0243533,0.0527948,-1.25302,-0.0150651,0.0203851,1.34488,5,0.1,19,1.5,1.64016,0.465054,0.723781,-0.546352,-0.609823,0.0312718,0.223808,0.394924,-0.01885,0.00998676,0.434713,5,0.1,20,1.5,0.936172,2.90748,0.604899,-0.464001,-0.558536,-0.00552842,0.291262,0.521541,0.00158325,0.0147754,0.303076,5,0.1,21,1.5,-1.11239,-3.32039,0.646267,0.29153,0.866026,-0.0165058,-0.00824034,0,-0.000119209,0.0254767,2.21809,5,0.1,22,1.5,-1.58051,-3.09592,0.570713,-0.0659667,0.440899,0.0277924,0.0419915,0.756532,-0.0176765,0.00709776,1.12493,5,0.1,23,1.5,-2.19506,-3.56435,0.609726,0.517409,0.393321,-0.00922978,-0.329778,-0.250846,0.00587851,0.0186058,0.200629,5,0.1,24,1.5,1.83547,-1.01739,0.518455,0.310685,-0.866026,0.0161954,-0.0110269,7.45058e-06,0.000867993,0.00930494,1.94902,5,0.1,25,1.5,-2.40587,3.42337,0.591611,0.780898,-0.728188,-0.0697131,-0.313371,0.292256,0.0279807,0.00992317,0.716154,5,0.1,26,1.5,-3.54108,-1.86957,0.621189,0.474075,0.208444,-0.0201063,0.0557005,-0.132903,0.0128299,0.0269588,0.621838,5,0.1,27,1.5,-1.02787,-1.03948,0.584344,0.0678698,0.540235,0.0262865,-0.813551,-0.602808,0.0280552,0.00819169,0.152059,5,0.1,28,1.5,1.09913,-0.644317,0.583201,0.0957549,0.611662,0.0159467,-0.0610054,-0.389908,-0.0101477,0.0110319,0.182106,5,0.1,29,1.5,3.89116,-0.565663,0.548644,-0.376933,-0.392024,0.00369307,0.240296,0.249907,-0.00233203,0.00708674,0.140396,5,0.1
0,1.6,-0.501146,-1.72045,0.565756,0.104569,0.866026,0.0212863,-0.0194162,0,-0.00393391,0.0140343,2.26468,5,0.1,1,1.6,-1.9549,2.78464,0.602909,0.15083,-0.520378,-0.00282377,-0.122666,0.423312,0.00229478,0.00993912,0.105639,5,0.1,2,1.6,3.45243,2.29411,0.58658,-0.294405,0.675815,0.0130624,0.239372,-0.533223,-0.0106394,0.0383867,0.203522,5,0.1,3,1.6,-3.22829,1.12574,0.610781,0.159389,0.510326,-0.0104964,-0.587225,-0.415027,0.00855327,0.0108259,0.222397,5,0.1,4,1.6,-4.00949,-0.0337024,0.552164,0.145209,-0.866025,0.0432521,-0.0303984,1.19209e-06,-0.00908971,0.00813717,2.25764,5,0.1,5,1.6,0.990081,2.54329,0.627338,-0.428036,-0.271314,-0.0248864,0.574052,0.269175,0.0239909,0.0106181,0.166418,5,0.1,6,1.6,-2.89321,3.40252,0.632472,0.864708,0.12477,-0.016889,-0.0265837,-0.054121,0.00730157,0.0102429,1.21394,5,0.1,7,1.6,3.61297,-1.5753,0.619745,-0.050205,0.866026,-0.00607967,0.0101328,0,0.0012517,0.014131,2.29861,5,0.1,8,1.6,0.631343,2.50219,0.601813,-0.176518,-0.329214,-0.00177026,0.143558,0.493884,0.00143051,0.00773317,0.567073,5,0.1,9,1.6,1.44375,-2.22756,0.572907,-0.0912547,0.416207,0.0263765,0.0741482,-0.338435,-0.0214577,0.0250371,2.91099,5,0.1,10,1.6,1.75714,0.221039,0.65778,-0.0338823,0.190192,-0.0446662,0.368834,-1.29896,-0.117928,0.00750478,0.404765,5,0.1,11,1.6,-0.374345,1.3204,0.500027,0.329042,0.341514,0.000189245,-0.910208,0.737906,-0.000327826,0.0232652,3.20889,5,0.1,12,1.6,0.949801,-3.55544,0.614589,0.374533,0.380999,-0.0143379,-0.384629,-0.384212,0.0109673,0.00968208,0.120357,5,0.1,13,1.6,-1.02704,-1.36104,0.551267,-0.218543,0.502929,0.00025183,-0.373244,-0.34523,-0.0461042,0.0100837,2.84215,5,0.1,14,1.6,-2.08732,-0.617143,0.553513,-0.742561,0.111651,-0.000682473,0.416279,-0.0907779,0.000536442,0.00816175,0.295484,5,0.1,15,1.6,1.31462,1.03601,0.725375,-0.16042,0.36518,0.0286371,-0.137746,-0.13119,-0.0102818,0.0155392,0.0999672,5,0.1,16,1.6,-0.079262,2.01911,0.593302,-0.283766,-0.638276,0.00989139,-0.302825,0.218213,0.0180602,0.0164422,2.79804,5,0.1,17,1.6,1.2623,-3.279,0.625921,0.085336,0.118434,-0.0252292,-0.0693798,0.204921,0.0205636,0.0128894,0.646411,5,0.1,18,1.6,3.3742,1.74833,0.727369,-0.0761926,0.330555,0.0226989,0.0641346,-0.971913,-0.0184774,0.01895,1.24527,5,0.1,19,1.6,1.58681,0.406025,0.726802,-0.51879,-0.570454,0.0290409,0.337362,0.412464,-0.0259876,0.00898653,0.297485,5,0.1,20,1.6,0.891299,2.85426,0.604356,-0.43249,-0.50528,-0.00531673,0.348389,0.552416,0.00280142,0.015355,0.220777,5,0.1,21,1.6,-1.08334,-3.23378,0.64462,0.288761,0.866026,-0.0163987,-0.058949,0,0.00295043,0.0224076,2.22011,5,0.1,22,1.6,-1.58689,-3.04818,0.573399,-0.0614375,0.511342,0.0258863,0.0499487,0.609398,-0.0210404,0.00878357,0.863926,5,0.1,23,1.6,-2.14505,-3.52633,0.608834,0.481856,0.366282,-0.00859648,-0.39196,-0.298023,0.00700355,0.0148639,0.131875,5,0.1,24,1.6,1.8664,-1.10399,0.520074,0.306889,-0.866026,0.016126,-0.0757575,0,-0.00292063,0.00871273,1.50835,5,0.1,25,1.6,-2.32953,3.35218,0.584796,0.743693,-0.693494,-0.0663906,-0.448942,0.418782,0.0400543,0.0102758,0.478595,5,0.1,26,1.6,-3.49331,-1.84942,0.619245,0.481296,0.194114,-0.0187248,0.0545979,-0.157833,0.0152588,0.0254976,0.183917,5,0.1,27,1.6,-1.02474,-0.988295,0.587104,-0.00103116,0.484787,0.0287712,-0.566959,-0.525832,0.0196993,0.00958798,0.170278,5,0.1,28,1.6,1.10838,-0.585191,0.584742,0.0891745,0.569622,0.0148535,-0.0724792,-0.463277,-0.0120997,0.00836626,0.119693,5,0.1,29,1.6,3.85472,-0.603557,0.549001,-0.351018,-0.36508,0.00344068,0.285387,0.296921,-0.00277162,0.00766471,0.0922733,5,0.1
0,1.7,-0.490745,-1.63385,0.567874,0.103696,0.866026,0.0211097,-0.00421144,0,-0.000849366,0.0140343,2.26468,5,0.1,1,1.7,-1.9404,2.73461,0.602637,0.139329,-0.480698,-0.00260882,-0.111468,0.38451,0.00207871,0.00993912,0.105639,5,0.1,2,1.7,3.42413,2.35916,0.587835,-0.271964,0.625923,0.0120652,0.217482,-0.483602,-0.00965968,0.0383867,0.203522,5,0.1,3,1.7,-3.21515,1.17479,0.609772,0.10506,0.471419,-0.00969479,-0.494078,-0.377044,0.00776723,0.0108259,0.222397,5,0.1,4,1.7,-3.99507,-0.120305,0.556459,0.143562,-0.866025,0.0427585,-0.0107884,-7.45058e-07,-0.003241,0.00813717,2.25764,5,0.1,5,1.7,0.950029,2.51744,0.624964,-0.374001,-0.246175,-0.0226468,0.513703,0.240356,0.0214353,0.0106181,0.166418,5,0.1,6,1.7,-2.80676,3.41474,0.630817,0.864972,0.119738,-0.0162102,0.00414252,-0.0508875,0.00686944,0.0102429,1.21394,5,0.1,7,1.7,3.60779,-1.48871,0.619165,-0.0549346,0.865491,-0.0053321,-0.090152,-0.0213981,0.0125356,0.014131,2.29861,5,0.1,8,1.7,0.614375,2.472,0.601642,-0.16306,-0.272602,-0.00163577,0.130419,0.612959,0.00130385,0.00773317,0.567073,5,0.1,9,1.7,1.43485,-2.18593,0.5753,-0.0879619,0.430638,0.0203163,0.00232458,0.513077,-0.0914745,0.0250371,2.91099,5,0.1,10,1.7,1.75598,0.233581,0.652656,0.0134338,0.0616195,-0.0582601,0.543594,-1.24132,-0.144172,0.00750478,0.404765,5,0.1,11,1.7,-0.346023,1.35737,0.500044,0.238395,0.389617,0.000134297,-0.852881,0.24303,-0.000722706,0.0232652,3.20889,5,0.1,12,1.7,0.985368,-3.51923,0.613207,0.33702,0.343293,-0.013322,-0.371154,-0.375211,0.00978261,0.00968208,0.120357,5,0.1,13,1.7,-1.05099,-1.31194,0.551041,-0.261844,0.483339,-0.00489587,-0.458233,-0.0898689,-0.0541769,0.0100837,2.84215,5,0.1,14,1.7,-2.15962,-0.60641,0.553447,-0.70402,0.103141,-0.000632182,0.379354,-0.0824705,0.000484288,0.00816175,0.295484,5,0.1,15,1.7,1.29792,1.07187,0.728187,-0.172801,0.351886,0.0275952,-0.101581,-0.145614,-0.011418,0.0155392,0.0999672,5,0.1,16,1.7,-0.109497,1.95716,0.594544,-0.323277,-0.593604,0.0163059,-0.445149,0.644386,0.0989847,0.0164422,2.79804,5,0.1,17,1.7,1.2705,-3.26637,0.623496,0.0788329,0.132103,-0.0233022,-0.0630245,0.0728369,0.0186637,0.0128894,0.646411,5,0.1,18,1.7,3.36689,1.77702,0.72955,-0.0700928,0.249869,0.0209467,0.0596941,-0.580564,-0.0171475,0.01895,1.24527,5,0.1,19,1.7,1.53657,0.350844,0.729577,-0.485992,-0.534561,0.0264442,0.331715,0.328102,-0.0263378,0.00898653,0.297485,5,0.1,20,1.7,0.849839,2.80642,0.60384,-0.39616,-0.452208,-0.00499235,0.381924,0.517383,0.00372157,0.015355,0.220777,5,0.1,21,1.7,-1.05464,-3.14718,0.642989,0.28572,0.866026,-0.0162596,-0.0185147,0,0.00077486,0.0224076,2.22011,5,0.1,22,1.7,-1.5928,-2.9939,0.575888,-0.0567546,0.574294,0.0239138,0.0453815,0.603914,-0.0191145,0.00878357,0.863926,5,0.1,23,1.7,-2.09873,-3.49112,0.608008,0.445114,0.338348,-0.00794027,-0.356033,-0.27068,0.00635535,0.0148639,0.131875,5,0.1,24,1.7,1.89675,-1.19059,0.521674,0.300301,-0.86585,0.0158761,-0.0687242,0.007011,-0.00276417,0.00871273,1.50835,5,0.1,25,1.7,-2.2573,3.28482,0.578348,0.701358,-0.654004,-0.0626133,-0.420392,0.392109,0.0375174,0.0102758,0.478595,5,0.1,26,1.7,-3.44498,-1.83076,0.617445,0.483932,0.179318,-0.017295,-0.0176728,-0.143401,0.0138506,0.0254976,0.183917,5,0.1,27,1.7,-1.02722,-0.942011,0.590099,-0.044282,0.444436,0.0312439,-0.309668,-0.31215,0.0267662,0.00958798,0.170278,5,0.1,28,1.7,1.11696,-0.530435,0.58617,0.0823794,0.526193,0.0137195,-0.0658557,-0.420878,-0.0109896,0.00836626,0.119693,5,0.1,29,1.7,3.82098,-0.638651,0.549332,-0.32426,-0.337245,0.00318047,0.25934,0.269748,-0.00252575,0.00766471,0.0922733,5,0.1
0,1.8,-0.480413,-1.54725,0.569977,0.102673,0.866026,0.0209019,-0.0206232,-5.96046e-05,-0.00417233,0.0117252,2.26492,5,0.1,1,1.8,-1.92704,2.6885,0.602387,0.127846,-0.441086,-0.00239462,-0.121117,0.41759,0.00226498,0.00724536,0.156045,5,0.1,2,1.8,3.39804,2.41929,0.588993,-0.249553,0.5759,0.0110701,0.236154,-0.529647,-0.0104606,0.0280134,0.134689,5,0.1,3,1.8,-3.20693,1.22002,0.608842,0.061357,0.432572,-0.0088945,-0.377417,-0.409424,0.00840425,0.00802417,0.314135,5,0.1,4,1.8,-3.98079,-0.206907,0.560712,0.141644,-0.866025,0.0421852,-0.0334978,0,-0.00995398,0.00771811,2.25836,5,0.1,5,1.8,0.915144,2.49402,0.622806,-0.324102,-0.222111,-0.0204936,0.489146,0.24569,0.0220835,0.0101942,0.135665,5,0.1,6,1.8,-2.72037,3.42644,0.629233,0.861079,0.113857,-0.0154153,-0.0990629,-0.0697374,0.00938773,0.00926961,0.898072,5,0.1,7,1.8,3.60178,-1.40244,0.618705,-0.0656664,0.857466,-0.0037834,-0.113487,-0.171125,0.0175238,0.0145989,2.52192,5,0.1,8,1.8,0.598731,2.44783,0.601485,-0.149623,-0.210947,-0.00150055,0.141591,0.602007,0.00140071,0.00839342,0.544851,5,0.1,9,1.8,1.42602,-2.13967,0.576815,-0.0889242,0.498682,0.00956059,-0.0135303,0.760078,-0.117153,0.0487894,2.59116,5,0.1,10,1.8,1.7601,0.233843,0.646132,0.0688821,-0.0527408,-0.0718117,0.53978,-1.02376,-0.119776,0.016722,2.89233,5,0.1,11,1.8,-0.326048,1.39686,0.500054,0.165778,0.393799,5.51343e-05,-0.576183,-0.14168,-0.000834465,0.0331706,2.86308,5,0.1,12,1.8,1.0172,-3.4868,0.611924,0.2994,0.305092,-0.0123098,-0.384748,-0.391722,0.0108182,0.0100193,0.177401,5,0.1,13,1.8,-1.07937,-1.26392,0.550286,-0.304228,0.477403,-0.0101194,-0.364482,-0.0609159,-0.0483394,0.00903735,2.73782,5,0.1,14,1.8,-2.22802,-0.596515,0.553386,-0.662524,0.0946432,-0.000582635,0.467539,-0.089556,0.000566244,0.00747853,0.199121,5,0.1,15,1.8,1.28025,1.10624,0.730882,-0.179374,0.334254,0.0262126,-0.0244975,-0.214219,-0.0167787,0.0147197,0.206944,5,0.1,16,1.8,-0.144,1.90151,0.596727,-0.365479,-0.515121,0.0276998,-0.367954,0.898898,0.120223,0.0159406,2.92846,5,0.1,17,1.8,1.27806,-3.25298,0.621261,0.0723392,0.133866,-0.0213802,-0.0684261,-0.0333786,0.0202358,0.00689734,0.339226,5,0.1,18,1.8,3.36018,1.8,0.731558,-0.0639439,0.218356,0.0191733,0.0646114,-0.0718236,-0.0186861,0.0196406,1.0902,5,0.1,19,1.8,1.48971,0.29904,0.732086,-0.450268,-0.500962,0.0237092,0.391364,0.359893,-0.0285506,0.0094108,0.202528,5,0.1,20,1.8,0.812211,2.76378,0.603361,-0.35556,-0.400418,-0.00456721,0.431895,0.523925,0.00476837,0.0159746,0.299815,5,0.1,21,1.8,-1.02621,-3.06058,0.641369,0.282216,0.866026,-0.0160828,-0.0633001,0,0.00345707,0.0209786,2.22239,5,0.1,22,1.8,-1.59824,-2.93376,0.578182,-0.0520796,0.624371,0.0219434,0.0493526,0.365496,-0.0207424,0.00922486,0.630111,5,0.1,23,1.8,-2.05602,-3.45866,0.607246,0.408435,0.310457,-0.00728518,-0.386715,-0.293732,0.00688434,0.0153239,0.149323,5,0.1,24,1.8,1.92637,-1.27709,0.523244,0.291005,-0.863224,0.01546,-0.125885,0.056088,-0.00604987,0.00861902,1.13424,5,0.1,25,1.8,-2.18937,3.22148,0.572283,0.655824,-0.611532,-0.0585496,-0.505447,0.471473,0.0451207,0.0109698,0.318068,5,0.1,26,1.8,-3.3969,-1.81355,0.615786,0.475174,0.164542,-0.0158682,-0.167489,-0.155687,0.0149906,0.02881,0.155339,5,0.1,27,1.8,-1.03285,-0.898984,0.593349,-0.0651538,0.416957,0.0336096,-0.118017,-0.260442,0.018388,0.00795452,0.182116,5,0.1,28,1.8,1.12486,-0.479953,0.587486,0.0755936,0.482831,0.012587,-0.0715256,-0.456974,-0.0118911,0.010786,0.135516,5,0.1,29,1.8,3.78987,-0.671006,0.549637,-0.29754,-0.309454,0.00292063,0.281572,0.292867,-0.00277162,0.00819312,0.114086,5,0.1
0,1.9,-0.470206,-1.46064,0.572055,0.101726,0.866025,0.0207108,-0.00447035,1.49012e-05,-0.000897795,0.0117252,2.26492,5,0.1,1,1.9,-1.91483,2.64621,0.602158,0.116625,-0.406846,-0.00218516,-0.106774,0.289083,0.00199303,0.00724536,0.156045,5,0.1,2,1.9,3.3742,2.47438,0.59005,-0.227673,0.526858,0.0101008,0.208229,-0.467166,-0.00922754,0.0280134,0.134689,5,0.1,3,1.9,-3.20249,1.26134,0.607992,0.0292856,0.39464,-0.00811554,-0.263289,-0.360973,0.00741333,0.00802417,0.314135,5,0.1,4,1.9,-3.96674,-0.29351,0.564898,0.139746,-0.866025,0.0416214,-0.0126064,8.9407e-07,-0.00374019,0.00771811,2.25836,5,0.1,5,1.9,0.885007,2.47307,0.62086,-0.280145,-0.196828,-0.0184836,0.398919,0.259846,0.0187084,0.0101942,0.135665,5,0.1,6,1.9,-2.6345,3.43749,0.627736,0.857452,0.107357,-0.0145399,-0.0205934,-0.0638962,0.00860915,0.00926961,0.898072,5,0.1,7,1.9,3.5941,-1.31793,0.61849,-0.092455,0.828922,0.000116881,-0.381559,-0.405051,0.0553019,0.0145989,2.52192,5,0.1,8,1.9,0.584439,2.42973,0.601342,-0.136505,-0.152035,-0.00137025,0.124842,0.54574,0.00124052,0.00839342,0.544851,5,0.1,9,1.9,1.41698,-2.08521,0.577279,-0.0924047,0.595956,0.000589807,-0.0471622,1.0926,-0.0649877,0.0487894,2.59116,5,0.1,10,1.9,1.76829,0.225752,0.638496,0.0828337,-0.0889125,-0.07951,-0.192106,0.188422,-0.0368133,0.016722,2.89233,5,0.1,11,1.9,-0.312057,1.4354,0.500055,0.120259,0.375546,-2.38419e-05,-0.216912,-0.225313,-0.000722706,0.0331706,2.86308,5,0.1,12,1.9,1.04516,-3.45814,0.610743,0.259447,0.268956,-0.0113418,-0.411265,-0.338018,0.00896305,0.0100193,0.177401,5,0.1,13,1.9,-1.11178,-1.21572,0.549036,-0.344563,0.492797,-0.0147938,-0.409,0.302859,-0.0435226,0.00903735,2.73782,5,0.1,14,1.9,-2.29206,-0.587474,0.553331,-0.619214,0.0863462,-0.000530668,0.419185,-0.078965,0.000491738,0.00747853,0.199121,5,0.1,15,1.9,1.26247,1.13859,0.733419,-0.17383,0.31257,0.0245139,0.126287,-0.226177,-0.0177175,0.0147197,0.206944,5,0.1,16,1.9,-0.182187,1.85437,0.60017,-0.3959,-0.428899,0.0416257,-0.226802,0.82504,0.148822,0.0159406,2.92846,5,0.1,17,1.9,1.28557,-3.24,0.619272,0.0827802,0.123674,-0.0179693,0.237711,-0.155136,0.0451282,0.00689734,0.339226,5,0.1,18,1.9,3.35394,1.82246,0.733386,-0.0623599,0.238927,0.0174313,-0.0214875,0.41467,-0.0166409,0.0196406,1.0902,5,0.1,19,1.9,1.44656,0.250593,0.734319,-0.413286,-0.469002,0.0209828,0.359476,0.297819,-0.0263415,0.0094108,0.202528,5,0.1,20,1.9,0.778872,2.72625,0.602928,-0.310703,-0.350994,-0.00409111,0.462618,0.47119,0.00479072,0.0159746,0.299815,5,0.1,21,1.9,-0.998192,-2.97398,0.639772,0.278843,0.866026,-0.0159021,-0.0205971,0,0.00109524,0.0209786,2.22239,5,0.1,22,1.9,-1.60322,-2.8695,0.580278,-0.0475075,0.659938,0.0200215,0.0434965,0.309885,-0.0182949,0.00922486,0.630111,5,0.1,23,1.9,-2.01682,-3.42886,0.606547,0.378056,0.287383,-0.00674464,-0.24429,-0.185534,0.00434369,0.0153239,0.149323,5,0.1,24,1.9,1.95488,-1.36337,0.524761,0.279383,-0.863615,0.0148986,-0.116929,-0.0203401,-0.00572577,0.00861902,1.13424,5,0.1,25,1.9,-2.12619,3.16256,0.566643,0.60866,-0.56754,-0.054339,-0.456721,0.426009,0.0407733,0.0109698,0.318068,5,0.1,26,1.9,-3.3508,-1.79784,0.61427,0.441807,0.150117,-0.0144795,-0.477567,-0.137284,0.0132173,0.02881,0.155339,5,0.1,27,1.9,-1.03962,-0.858249,0.596832,-0.0673663,0.400359,0.0362611,0.0589192,-0.101987,0.0307895,0.00795452,0.182116,5,0.1,28,1.9,1.13212,-0.433605,0.588694,0.0699742,0.446931,0.0116527,-0.0451878,-0.288703,-0.00751019,0.010786,0.135516,5,0.1,29,1.9,3.76143,-0.700462,0.5499,-0.271973,-0.279376,0.00220397,0.239208,0.310734,-0.0106208,0.00819312,0.114086,5,0.1
0,2,-0.460071,-1.37404,0.574118,0.100728,0.866026,0.0205085,-0.0198781,0,-0.00405312,0.0104016,2.26514,5,0.1,1,2,-1.9037,2.6069,0.60195,0.105906,-0.379485,-0.00198334,-0.11009,0.274181,0.00202656,0.00767874,0.208127,5,0.1,2,2,3.35247,2.52472,0.591014,-0.206757,0.479764,0.00917464,0.214577,-0.485659,-0.00953674,0.0305364,0.140175,5,0.1,3,2,-3.20069,1.299,0.607218,0.00866055,0.358388,-0.0073716,-0.150442,-0.372171,0.007689,0.00778511,1.94023,5,0.1,4,2,-3.95285,-0.380113,0.569035,0.137734,-0.866025,0.0410229,-0.0334978,-1.43051e-05,-0.00992417,0.00762535,2.25907,5,0.1,5,2,0.858898,2.4547,0.619104,-0.242762,-0.170207,-0.0166506,0.355303,0.272036,0.018388,0.0102618,0.238605,5,0.1,6,2,-2.54905,3.4479,0.626327,0.848949,0.10047,-0.0136107,-0.182748,-0.0761747,0.0103116,0.00972747,0.64065,5,0.1,7,2,3.58278,-1.23748,0.618805,-0.13479,0.775862,0.00635982,-0.433803,-0.656903,0.0655055,0.0132142,2.67857,5,0.1,8,2,0.571412,2.41698,0.601211,-0.123967,-0.106204,-0.00124425,0.128746,0.357151,0.0012815,0.00739126,0.504537,5,0.1,9,2,1.40751,-2.02023,0.57708,-0.0968158,0.701097,-0.00394434,-0.0344515,0.941813,-0.0280142,0.0262049,2.35704,5,0.1,10,2,1.77487,0.219041,0.63048,0.042817,-0.0352021,-0.0796974,-0.55337,0.796251,0.0304282,0.0106703,2.34447,5,0.1,11,2,-0.3,1.47168,0.500049,0.131802,0.348511,-8.49366e-05,0.424534,-0.315785,-0.000506639,0.026117,2.43751,5,0.1,12,2,1.06903,-3.43289,0.609654,0.217733,0.236291,-0.0104442,-0.420094,-0.320196,0.00926852,0.0107374,0.274084,5,0.1,13,2,-1.14813,-1.16477,0.547358,-0.380337,0.526449,-0.018549,-0.282764,0.320971,-0.0304282,0.00902149,2.55183,5,0.1,14,2,-2.35183,-0.579234,0.55328,-0.575215,0.0784159,-0.000481308,0.474691,-0.0814199,0.000476837,0.00831907,0.133566,5,0.1,15,2,1.2459,1.16865,0.735777,-0.155821,0.287929,0.0225812,0.225782,-0.270784,-0.0211895,0.0144601,0.191456,5,0.1,16,2,-0.222587,1.81548,0.60506,-0.408665,-0.350198,0.0558227,-0.0204301,0.748694,0.12818,0.00600977,0.730664,5,0.1,17,2,1.29527,-3.22851,0.617723,0.112873,0.105476,-0.0128657,0.333667,-0.197887,0.0546873,0.00659825,0.310846,5,0.1,18,2,3.34753,1.84876,0.735046,-0.0662208,0.289181,0.0157639,-0.0468493,0.537753,-0.0171065,0.0196691,0.876921,5,0.1,19,2,1.40705,0.205203,0.736287,-0.376499,-0.43825,0.0183791,0.383914,0.33018,-0.0259578,0.00931965,0.611037,5,0.1,20,2,0.750147,2.69347,0.602543,-0.26356,-0.305063,-0.00360161,0.477552,0.451803,0.00500679,0.0166056,0.263872,5,0.1,21,2,-0.970451,-2.88737,0.638189,0.275283,0.866026,-0.0157058,-0.0622571,0,0.00354648,0.0204588,2.22462,5,0.1,22,2,-1.60775,-2.80229,0.582189,-0.0431418,0.680315,0.0181839,0.0448823,0.0731945,-0.0188649,0.00779227,0.440325,5,0.1,23,2,-1.98016,-3.40099,0.605893,0.355518,0.270265,-0.00634342,-0.223696,-0.169992,0.00399351,0.0151033,0.0860877,5,0.1,24,2,1.98218,-1.44967,0.526219,0.265872,-0.860152,0.0142202,-0.160158,0.11754,-0.00819564,0.00749706,0.824129,5,0.1,25,2,-2.06765,3.10798,0.561417,0.561291,-0.523365,-0.0501096,-0.503659,0.469685,0.0449419,0.00884661,0.211415,5,0.1,26,2,-3.30936,-1.78351,0.612888,0.383788,0.136328,-0.0131518,-0.663638,-0.141501,0.0136197,0.0259724,0.438796,5,0.1,27,2,-1.04587,-0.818667,0.600607,-0.0560611,0.391279,0.0391036,0.155091,-0.102013,0.0232756,0.00946138,0.188953,5,0.1,28,2,1.1389,-0.390263,0.589825,0.0658035,0.420291,0.0109598,-0.0413656,-0.264421,-0.00688434,0.0108344,0.0936162,5,0.1,29,2,3.73542,-0.726804,0.550061,-0.248104,-0.24702,0.000964105,0.244737,0.337213,-0.0134408,0.00735304,0.097126,5,0.1
0,2.1,-0.450055,-1.28744,0.576158,0.0998627,0.866026,0.0203314,-0.0035353,0,-0.000733882,0.0104016,2.26514,5,0.1,1,2.1,-1.89358,2.57016,0.60176,0.0971919,-0.356659,-0.00182325,-0.0702515,0.200048,0.00128523,0.00767874,0.208127,5,0.1,2,2.1,3.33265,2.57042,0.591887,-0.191499,0.435166,0.0082992,0.106186,-0.419691,-0.00822544,0.0305364,0.140175,5,0.1,3,2.1,-3.2007,1.33309,0.606517,-0.00889115,0.324218,-0.00666594,-0.149742,-0.32115,0.00662729,0.00778511,1.94023,5,0.1,4,2.1,-3.93919,-0.466715,0.573104,0.135837,-0.866026,0.0404617,-0.0124127,1.93715e-06,-0.00367314,0.00762535,2.25907,5,0.1,5,2.1,0.836304,2.43909,0.617526,-0.209918,-0.141626,-0.014955,0.306673,0.295073,0.0159591,0.0102618,0.238605,5,0.1,6,2.1,-2.46492,3.45758,0.625015,0.834193,0.0934012,-0.0126538,-0.150144,-0.0682175,0.00923499,0.00972747,0.64065,5,0.1,7,2.1,3.56655,-1.16264,0.619825,-0.194266,0.725095,0.0144465,-0.699207,-0.402182,0.0903085,0.0132142,2.67857,5,0.1,8,2.1,0.559621,2.40786,0.601093,-0.112147,-0.0801027,-0.00112606,0.111088,0.131279,0.00111386,0.00739126,0.504537,5,0.1,9,2.1,1.39761,-1.94558,0.576596,-0.101432,0.78883,-0.00530649,-0.0500605,0.765704,-0.00136346,0.0262049,2.35704,5,0.1,10,2.1,1.77582,0.220468,0.622726,-0.0283988,0.0712404,-0.0747987,-0.819646,1.24883,0.0658073,0.0106703,2.34447,5,0.1,11,2.1,-0.283482,1.50544,0.500037,0.208094,0.330928,-0.000154786,0.999384,-0.0591055,-0.000633299,0.026117,2.43751,5,0.1,12,2.1,1.0889,-3.41052,0.608647,0.181341,0.214092,-0.00975905,-0.316076,-0.145584,0.00512227,0.0107374,0.274084,5,0.1,13,2.1,-1.18737,-1.10956,0.545435,-0.402322,0.58499,-0.0191503,-0.145748,0.758506,0.0147335,0.00902149,2.55183,5,0.1,14,2.1,-2.40712,-0.571775,0.553234,-0.531413,0.0709402,-0.000437256,0.418484,-0.0702552,0.000413507,0.00831907,0.133566,5,0.1,15,2.1,1.23157,1.1961,0.73793,-0.129754,0.261129,0.0204831,0.286907,-0.269316,-0.0210926,0.0144601,0.191456,5,0.1,16,2.1,-0.26258,1.78513,0.611342,-0.382558,-0.249211,0.0701481,0.497662,1.2032,0.148408,0.00600977,0.730664,5,0.1,17,2.1,1.30844,-3.21906,0.616715,0.151879,0.0832208,-0.0072794,0.418156,-0.222445,0.0555441,0.00659825,0.310846,5,0.1,18,2.1,3.34068,1.88076,0.736542,-0.0707172,0.353145,0.0141888,-0.0391901,0.689358,-0.0148155,0.0196691,0.876921,5,0.1,19,2.1,1.37114,0.163173,0.738087,-0.343039,-0.400963,0.018403,0.299759,0.413942,0.0206791,0.00931965,0.611037,5,0.1,20,2.1,0.72602,2.66512,0.602205,-0.220412,-0.262693,-0.00317823,0.391394,0.400141,0.00362098,0.0166056,0.263872,5,0.1,21,2.1,-0.943121,-2.80077,0.63663,0.272011,0.866026,-0.0155183,-0.0193529,0,0.00112504,0.0204588,2.22462,5,0.1,22,2.1,-1.61185,-2.7339,0.583919,-0.0390219,0.686636,0.0164515,0.0387058,0.0243485,-0.0162832,0.00779227,0.440325,5,0.1,23,2.1,-1.9456,-3.37472,0.605276,0.336506,0.255817,-0.00600414,-0.171937,-0.130683,0.00306591,0.0151033,0.0860877,5,0.1,24,2.1,2.00801,-1.5353,0.527603,0.250981,-0.85323,0.0134554,-0.146225,0.0641719,-0.00756234,0.00749706,0.824129,5,0.1,25,2.1,-2.0139,3.05786,0.556618,0.514708,-0.479925,-0.0459526,-0.443868,0.41391,0.0396147,0.00884661,0.211415,5,0.1,26,2.1,-3.27449,-1.77054,0.611637,0.312247,0.123335,-0.011901,-0.750065,-0.122115,0.011757,0.0259724,0.438796,5,0.1,27,2.1,-1.05046,-0.77982,0.604677,-0.0337524,0.387257,0.042615,0.273205,-0.00564009,0.041876,0.00946138,0.188953,5,0.1,28,2.1,1.1453,-0.349761,0.59089,0.0622869,0.387818,0.0103746,-0.031814,-0.381069,-0.00529736,0.0108344,0.0936162,5,0.1,29,2.1,3.71198,-0.749813,0.550064,-0.219313,-0.213085,-0.00111545,0.324234,0.340745,-0.0261255,0.00735304,0.097126,5,0.1
0,2.2,-0.4401,-1.20084,0.578184,0.098975,0.866026,0.0201494,-0.018537,-5.96046e-05,-0.00378489,0.0117082,2.26534,5,0.1,1,2.2,-1.88418,2.53549,0.601584,0.0907987,-0.336438,-0.00170618,-0.062108,0.216842,0.00116229,0.00794801,0.192427,5,0.1,2,2.2,3.31396,2.61185,0.592676,-0.18279,0.39354,0.00748634,0.0795126,-0.42212,-0.00819564,0.0321347,0.177593,5,0.1,3,2.2,-3.20203,1.36392,0.605883,-0.0140071,0.292474,-0.00601262,0.069499,-0.320673,0.00664592,0.00775843,1.79809,5,0.1,4,2.2,-3.92568,-0.553318,0.577126,0.133884,-0.866026,0.039883,-0.0320673,0,-0.00956655,0.00719558,2.25975,5,0.1,5,2.2,0.816799,2.42641,0.616109,-0.180557,-0.112015,-0.0133827,0.284076,0.293374,0.0157654,0.00869419,0.23572,5,0.1,6,2.2,-2.38245,3.46658,0.623797,0.812542,0.0863194,-0.0116944,-0.30899,-0.0753403,0.0101924,0.0101046,0.445041,5,0.1,7,2.2,3.54357,-1.09202,0.621722,-0.264776,0.687814,0.0233904,-0.669003,-0.375867,0.084132,0.00657971,0.995688,5,0.1,8,2.2,0.548955,2.4,0.600986,-0.101165,-0.0817776,-0.00101626,0.110894,-0.149369,0.00113249,0.00807774,0.662127,5,0.1,9,2.2,1.38724,-1.86346,0.576088,-0.105494,0.847161,-0.00460297,-0.0255704,0.377297,0.0137091,0.0271519,1.94861,5,0.1,10,2.2,1.76879,0.234014,0.615621,-0.112092,0.199834,-0.0668734,-0.815392,1.25951,0.0910461,0.011097,1.91272,5,0.1,11,2.2,-0.257411,1.53849,0.50002,0.31403,0.33212,-0.000177324,1.04476,0.0604391,0.000208616,0.0215671,1.96724,5,0.1,12,2.2,1.10557,-3.3897,0.607694,0.153041,0.203335,-0.0093013,-0.2563,-0.0859499,0.00452995,0.00871751,0.395528,5,0.1,13,2.2,-1.22804,-1.04716,0.543643,-0.407729,0.66222,-0.0162676,0.0439882,0.718087,0.0399351,0.0104525,2.33813,5,0.1,14,2.2,-2.45815,-0.565029,0.553193,-0.488621,0.0639945,-0.000396371,0.449061,-0.0701547,0.000417233,0.0097187,0.154354,5,0.1,15,2.2,1.22007,1.22084,0.739871,-0.0999928,0.233406,0.0183105,0.301361,-0.287592,-0.0225604,0.0123214,0.27697,5,0.1,16,2.2,-0.297799,1.76651,0.619065,-0.317295,-0.121602,0.0837952,0.770912,1.29646,0.117362,0.00646713,0.352537,5,0.1,17,2.2,1.32566,-3.21173,0.616256,0.191605,0.0646591,-0.00201613,0.355721,-0.136971,0.0486672,0.00710041,0.271431,5,0.1,18,2.2,3.33345,1.91941,0.737888,-0.0734091,0.418022,0.0127301,-0.0120401,0.570059,-0.0146329,0.0184029,0.144651,5,0.1,19,2.2,1.3383,0.125272,0.740069,-0.314054,-0.355872,0.0214919,0.290394,0.485412,0.0366569,0.00787283,0.565497,5,0.1,20,2.2,0.705833,2.6408,0.601905,-0.184231,-0.224257,-0.0028491,0.336796,0.371814,0.00309944,0.0077527,0.482634,5,0.1,21,2.2,-0.916055,-2.71417,0.635086,0.268643,0.866026,-0.0153244,-0.0594854,0,0.00345707,0.0210268,2.22673,5,0.1,22,2.2,-1.61556,-2.66539,0.585483,-0.0351965,0.680375,0.014843,0.0386238,-0.1688,-0.0163019,0.00872833,0.298722,5,0.1,23,2.2,-1.91282,-3.3498,0.604691,0.3185,0.242138,-0.0056833,-0.19902,-0.151396,0.00357628,0.0158264,0.126771,5,0.1,24,2.2,2.03234,-1.6201,0.528908,0.235188,-0.839984,0.0126317,-0.175595,0.230908,-0.00923872,0.00926397,0.580332,5,0.1,25,2.2,-1.96465,3.01195,0.552221,0.469834,-0.438076,-0.0419468,-0.464737,0.433207,0.0414848,0.0085132,0.141025,5,0.1,26,2.2,-3.24704,-1.75881,0.610505,0.236821,0.111261,-0.0107378,-0.74482,-0.121951,0.0117421,0.0281258,0.263346,5,0.1,27,2.2,-1.0524,-0.741146,0.609144,-0.0045836,0.385472,0.0466004,0.296414,-0.0496805,0.0341237,0.00814793,0.195386,5,0.1,28,2.2,1.15137,-0.313048,0.5919,0.058955,0.344916,0.00981987,-0.0368357,-0.472575,-0.00613928,0.0102821,0.252736,5,0.1,29,2.2,3.69176,-0.769418,0.549814,-0.184536,-0.179042,-0.00390559,0.365496,0.339091,-0.0280738,0.00860425,0.0977096,5,0.1
0,2.3,-0.430253,-1.11423,0.580189,0.0982301,0.866025,0.0199965,-0.00240654,1.49012e-05,-0.000502914,0.0117082,2.26534,5,0.1,1,2.3,-1.87538,2.50322,0.601418,0.0855548,-0.306175,-0.00160802,-0.0467971,0.376895,0.000879169,0.00794801,0.192427,5,0.1,2,2.3,3.29594,2.64942,0.59339,-0.178514,0.360312,0.00683842,0.0195354,-0.265628,-0.00520423,0.0321347,0.177593,5,0.1,3,2.3,-3.20279,1.39167,0.605313,0.00358894,0.263246,-0.00540754,0.345677,-0.272207,0.00562891,0.00775843,1.79809,5,0.1,4,2.3,-3.9124,-0.63992,0.581083,0.132092,-0.866026,0.0393477,-0.0115186,3.72529e-06,-0.00344589,0.00719558,2.25975,5,0.1,5,2.3,0.800198,2.41665,0.614846,-0.151201,-0.0835061,-0.011894,0.299696,0.273496,0.0142716,0.00869419,0.23572,5,0.1,6,2.3,-2.30262,3.47485,0.622675,0.784494,0.0793684,-0.0107541,-0.282645,-0.0661761,0.00895932,0.0101046,0.445041,5,0.1,7,2.3,3.51439,-1.02693,0.624556,-0.312505,0.598296,0.0338024,-0.29543,-1.31538,0.115905,0.00657971,0.995688,5,0.1,8,2.3,0.539358,2.39085,0.600889,-0.0910577,-0.102926,-0.000913069,0.0941344,-0.251547,0.000961125,0.00807774,0.662127,5,0.1,9,2.3,1.37655,-1.77759,0.575561,-0.108534,0.864847,-0.00706585,-0.028871,0.0471622,-0.054691,0.0271519,1.94861,5,0.1,10,2.3,1.75335,0.260562,0.609405,-0.197072,0.332149,-0.0573233,-0.845544,1.32363,0.0988618,0.011097,1.91272,5,0.1,11,2.3,-0.220643,1.57268,0.500006,0.421374,0.357066,-9.96515e-05,1.04882,0.380516,0.00104308,0.0215671,1.96724,5,0.1,12,2.3,1.11981,-3.36997,0.606789,0.133604,0.189511,-0.00877539,-0.144407,-0.184745,0.00607595,0.00871751,0.395528,5,0.1,13,2.3,-1.26848,-0.97694,0.542256,-0.399798,0.744358,-0.0111557,0.122555,0.850182,0.0592209,0.0104525,2.33813,5,0.1,14,2.3,-2.50514,-0.558928,0.553155,-0.454314,0.0584478,-0.000363588,0.267044,-0.0445172,0.00026077,0.0097187,0.154354,5,0.1,15,2.3,1.21156,1.24281,0.741594,-0.0706397,0.206336,0.0161868,0.28044,-0.258401,-0.0202805,0.0123214,0.27697,5,0.1,16,2.3,-0.325836,1.76085,0.628205,-0.245093,0.00744499,0.100297,0.672529,1.24885,0.194609,0.00646713,0.352537,5,0.1,17,2.3,1.34668,-3.20582,0.616291,0.228973,0.0558175,0.00262065,0.367872,-0.0142455,0.043083,0.00710041,0.271431,5,0.1,18,2.3,3.32616,1.96372,0.739098,-0.071295,0.464406,0.0115569,0.0504404,0.345021,-0.00954792,0.0184029,0.144651,5,0.1,19,2.3,1.30841,0.0921877,0.74248,-0.283067,-0.305178,0.0273542,0.328921,0.523073,0.0736155,0.00787283,0.565497,5,0.1,20,2.3,0.688745,2.62118,0.601584,-0.160518,-0.160258,-0.00400413,0.156678,0.845596,-0.0229031,0.0077527,0.482634,5,0.1,21,2.3,-0.889378,-2.62757,0.633565,0.265587,0.866026,-0.0151438,-0.017494,0,0.00105426,0.0210268,2.22673,5,0.1,22,2.3,-1.6189,-2.59817,0.586891,-0.0316771,0.663632,0.0133575,0.0327751,-0.189632,-0.013832,0.00872833,0.298722,5,0.1,23,2.3,-1.88192,-3.32612,0.60414,0.299839,0.233335,-0.0053484,-0.184111,-0.0443012,0.00330061,0.0158264,0.126771,5,0.1,24,2.3,2.05503,-1.70307,0.530128,0.218911,-0.819973,0.0117732,-0.157043,0.204183,-0.00831485,0.00926397,0.580332,5,0.1,25,2.3,-1.91985,2.97017,0.548222,0.427171,-0.398307,-0.038138,-0.401847,0.374615,0.0358745,0.0085132,0.141025,5,0.1,26,2.3,-3.22698,-1.74826,0.609486,0.165548,0.100145,-0.00966713,-0.670627,-0.103533,0.00997633,0.0281258,0.263346,5,0.1,27,2.3,-1.05115,-0.702738,0.61403,0.0312803,0.383248,0.0515002,0.397481,-0.0157841,0.0574477,0.00814793,0.195386,5,0.1,28,2.3,1.15709,-0.281107,0.592853,0.0554999,0.292316,0.00924421,-0.0340864,-0.567136,-0.00568107,0.0102821,0.252736,5,0.1,29,2.3,3.67484,-0.786022,0.549311,-0.156277,-0.156431,-0.00588959,0.21407,0.135552,-0.0123195,0.00860425,0.0977096,5,0.1
0,2.4,-0.420456,-1.02763,0.582183,0.0974588,0.866024,0.0198394,-0.0173151,2.98023e-05,-0.00357628,0.012169,2.26763,5,0.1,1,2.4,-1.86706,2.47467,0.601262,0.0807524,-0.263214,-0.00151843,-0.0520945,0.472069,0.000983477,0.00743485,0.186566,5,0.1,2,2.4,3.27818,2.68422,0.59405,-0.176543,0.336379,0.00637025,0.0295639,-0.230074,-0.00450015,0.0267582,0.134856,5,0.1,3,2.4,-3.2,1.41666,0.6048,0.058794,0.23661,-0.00485778,0.731587,-0.266373,0.00548363,0.00911978,1.55151,5,0.1,4,2.4,-3.89927,-0.726523,0.584995,0.130248,-0.866026,0.0387967,-0.030756,0,-0.00917912,0.00835238,2.2604,5,0.1,5,2.4,0.786579,2.40962,0.613727,-0.12124,-0.0578821,-0.0104845,0.296652,0.23663,0.0140965,0.0102409,0.198689,5,0.1,6,2.4,-2.22574,3.48246,0.621645,0.750846,0.0726581,-0.0098452,-0.411153,-0.0698566,0.00944734,0.0086563,0.303433,5,0.1,7,2.4,3.48221,-0.974551,0.628512,-0.325882,0.442563,0.0451431,0.017643,-1.72013,0.104785,0.00602056,0.406135,5,0.1,8,2.4,0.530714,2.37928,0.600803,-0.0818446,-0.128227,-0.000818074,0.0920892,-0.23818,0.00089407,0.00902301,0.647787,5,0.1,9,2.4,1.36558,-1.69101,0.574524,-0.110194,0.866026,-0.0140712,0.000119209,-5.96046e-05,-0.0789165,0.0273533,2.25111,5,0.1,10,2.4,1.72963,0.300073,0.604172,-0.274563,0.453699,-0.0473067,-0.676453,1.06195,0.100493,0.0112311,1.47244,5,0.1,11,2.4,-0.173614,1.61043,0.5,0.514691,0.398076,-1.04308e-05,0.779778,0.396252,0.000655651,0.0208359,1.50991,5,0.1,12,2.4,1.13255,-3.35207,0.605945,0.122043,0.167495,-0.00807494,-0.0959039,-0.250459,0.00798702,0.00832166,0.228685,5,0.1,13,2.4,-1.30766,-0.898533,0.541448,-0.381973,0.819655,-0.00497252,0.238359,0.604272,0.0621378,0.00920284,2.26403,5,0.1,14,2.4,-2.54934,-0.553288,0.55312,-0.430012,0.0544399,-0.000339746,0.24116,-0.0383854,0.000208616,0.0120907,0.0899772,5,0.1,15,2.4,1.20583,1.26217,0.743113,-0.044772,0.180957,0.0141963,0.233531,-0.252306,-0.0198185,0.0145214,0.40379,5,0.1,16,2.4,-0.34715,1.76752,0.639214,-0.182864,0.122073,0.119574,0.571921,1.0184,0.177532,0.015164,0.988664,5,0.1,17,2.4,1.37128,-3.2,0.616753,0.261122,0.0633717,0.00643581,0.258386,0.155449,0.0325739,0.00882817,0.217575,5,0.1,18,2.4,3.31936,2.01144,0.74021,-0.0640452,0.485104,0.0106946,0.0910759,0.0622272,-0.00816584,0.0179091,0.514252,5,0.1,19,2.4,1.2818,0.0643094,0.745598,-0.248423,-0.252268,0.0349939,0.362992,0.530427,0.0739694,0.00917992,0.569715,5,0.1,20,2.4,0.67331,2.60974,0.601048,-0.149491,-0.0662565,-0.0068441,0.0787377,0.985622,-0.031352,0.00836422,0.32072,5,0.1,21,2.4,-0.862944,-2.54096,0.632058,0.262433,0.866026,-0.0149578,-0.0568926,0,0.00324845,0.0219937,2.22874,5,0.1,22,2.4,-1.62191,-2.53295,0.588159,-0.0284702,0.638515,0.0120044,0.0320673,-0.328302,-0.0135303,0.00881261,0.199198,5,0.1,23,2.4,-1.8529,-3.30296,0.603622,0.28002,0.229859,-0.00499338,-0.218987,-0.0394583,0.0039041,0.0134007,0.266142,5,0.1,24,2.4,2.07612,-1.78386,0.531263,0.202578,-0.793269,0.0109047,-0.174642,0.353754,-0.00929832,0.0100707,0.39942,5,0.1,25,2.4,-1.87913,2.9322,0.544586,0.387201,-0.361043,-0.0345692,-0.406921,0.379443,0.036329,0.00942443,0.0945675,5,0.1,26,2.4,-3.21359,-1.73875,0.608569,0.10432,0.0900149,-0.00869185,-0.547886,-0.101388,0.00980496,0.0271597,0.259654,5,0.1,27,2.4,-1.04602,-0.664576,0.619463,0.0708282,0.378753,0.0569761,0.375986,-0.0887811,0.0473857,0.00806966,0.206649,5,0.1,28,2.4,1.16246,-0.254783,0.593748,0.0518322,0.233726,0.00863224,-0.0405908,-0.594556,-0.00676513,0.00929941,0.251016,5,0.1,29,2.4,3.66013,-0.801172,0.548682,-0.139165,-0.147969,-0.00650734,0.139356,0.0508726,-0.000625849,0.011882,0.0581853,5,0.1
0,2.5,-0.41081,-0.941028,0.58413,0.0952759,0.866026,0.0189297,-0.0288971,0,-0.0141114,0.012169,2.26763,5,0.1,1,2.5,-1.85923,2.45082,0.601115,0.0759175,-0.213094,-0.00142744,-0.0471845,0.519529,0.000890344,0.00743485,0.186566,5,0.1,2,2.5,3.26088,2.71685,0.594667,-0.16754,0.317157,0.0059939,0.143752,-0.16968,-0.00331923,0.0267582,0.134856,5,0.1,3,2.5,-3.18962,1.43908,0.604339,0.155216,0.212475,-0.00436148,1.11911,-0.223286,0.00458583,0.00911978,1.55151,5,0.1,4,2.5,-3.88635,-0.813125,0.588844,0.128537,-0.866026,0.0382856,-0.0109971,3.72529e-06,-0.00329316,0.00835238,2.2604,5,0.1,5,2.5,0.77556,2.40493,0.612735,-0.102412,-0.0365362,-0.00949102,0.0998378,0.189006,0.00669435,0.0102409,0.198689,5,0.1,6,2.5,-2.15259,3.48939,0.620705,0.712772,0.0662517,-0.00897879,-0.375539,-0.0603646,0.00816956,0.0086563,0.303433,5,0.1,7,2.5,3.44967,-0.938974,0.633667,-0.324841,0.269218,0.0587895,0.0181198,-1.70672,0.155721,0.00602056,0.406135,5,0.1,8,2.5,0.522959,2.3656,0.600725,-0.0735004,-0.142398,-0.000736676,0.0772029,-0.0544935,0.000759959,0.00902301,0.647787,5,0.1,9,2.5,1.35471,-1.60441,0.572827,-0.105929,0.866025,-0.0189109,0.0803918,1.49012e-05,-0.0215247,0.0273533,2.25111,5,0.1,10,2.5,1.69882,0.350721,0.599936,-0.340514,0.557672,-0.0375129,-0.612952,0.969076,0.0947043,0.0112311,1.47244,5,0.1,11,2.5,-0.118295,1.65248,0.500002,0.59015,0.444438,3.09199e-05,0.688152,0.486434,0.000201166,0.0208359,1.50991,5,0.1,12,2.5,1.14439,-3.33666,0.605177,0.115731,0.139841,-0.00727829,-0.0397041,-0.295788,0.00803173,0.00832166,0.228685,5,0.1,13,2.5,-1.34457,-0.814282,0.541274,-0.355272,0.85853,0.00155205,0.297755,0.196707,0.0658669,0.00920284,2.26403,5,0.1,14,2.5,-2.59129,-0.548013,0.553087,-0.410016,0.0512278,-0.000322051,0.178501,-0.0283346,0.000156462,0.0120907,0.0899772,5,0.1,15,2.5,1.2025,1.27902,0.744435,-0.022281,0.15644,0.012271,0.205785,-0.239134,-0.0187792,0.0145214,0.40379,5,0.1,16,2.5,-0.362676,1.78299,0.651712,-0.128724,0.171114,0.127234,0.50696,0.041768,-0.0126734,0.015164,0.988664,5,0.1,17,2.5,1.39877,-3.19263,0.617556,0.288989,0.0859976,0.00958955,0.274867,0.273436,0.0293963,0.00882817,0.217575,5,0.1,18,2.5,3.31346,2.06053,0.741239,-0.0536062,0.498516,0.00988543,0.114471,0.167534,-0.00821799,0.0179091,0.514252,5,0.1,19,2.5,1.25925,0.0425796,0.74972,-0.198714,-0.175409,0.049492,0.599958,0.946944,0.196196,0.00917992,0.569715,5,0.1,20,2.5,0.658515,2.60819,0.600194,-0.148313,0.0357833,-0.0103272,-0.0363588,1.01818,-0.0362135,0.00836422,0.32072,5,0.1,21,2.5,-0.836878,-2.45436,0.630572,0.259548,0.866026,-0.0147924,-0.0162944,0,0.000946224,0.0219937,2.22874,5,0.1,22,2.5,-1.62461,-2.47067,0.589296,-0.0255654,0.607114,0.0107788,0.0268742,-0.319287,-0.0113361,0.00881261,0.199198,5,0.1,23,2.5,-1.82596,-3.28043,0.603142,0.258754,0.218448,-0.00461461,-0.212558,-0.180975,0.00378862,0.0134007,0.266142,5,0.1,24,2.5,2.09556,-1.86154,0.532309,0.186476,-0.760758,0.0100457,-0.153348,0.324935,-0.00819936,0.0100707,0.39942,5,0.1,25,2.5,-1.84232,2.89788,0.541299,0.350082,-0.326431,-0.0312553,-0.346623,0.323221,0.0309534,0.00942443,0.0945675,5,0.1,26,2.5,-3.20565,-1.73022,0.607745,0.0570793,0.0808289,-0.00780374,-0.396565,-0.0849888,0.00821799,0.0271597,0.259654,5,0.1,27,2.5,-1.03682,-0.627179,0.625454,0.114984,0.368574,0.0632384,0.47721,-0.125162,0.0704713,0.00806966,0.206649,5,0.1,28,2.5,1.16744,-0.234367,0.594578,0.0478908,0.174977,0.00797529,-0.0393838,-0.571433,-0.00656396,0.00929941,0.251016,5,0.1,29,2.5,3.64671,-0.815872,0.548048,-0.130794,-0.147214,-0.00598235,0.0424832,-0.0208803,0.0100769,0.011882,0.0581853,5,0.1
0,2.6,-0.401462,-0.854426,0.585939,0.0912651,0.866026,0.017114,-0.0529289,0,-0.0216961,0.00956874,2.26806,5,0.1,1,2.6,-1.85188,2.43211,0.600976,0.0708789,-0.161237,-0.00133216,-0.0553131,0.509143,0.00104308,0.0067973,0.275715,5,0.1,2,2.6,3.24499,2.74771,0.59525,-0.149065,0.299811,0.00565648,0.219941,-0.187993,-0.00363588,0.0272052,0.109459,5,0.1,3,2.6,-3.16839,1.45923,0.603926,0.268984,0.190762,-0.00391603,1.09756,-0.216067,0.00444055,0.00782093,1.25087,5,0.1,4,2.6,-3.87357,-0.899728,0.592651,0.126761,-0.866026,0.0377536,-0.0299215,0,-0.00891089,0.00788919,2.26103,5,0.1,5,2.6,0.765628,2.40214,0.611813,-0.0977263,-0.0202417,-0.00898391,0.00941753,0.136733,0.00417233,0.0112367,0.168838,5,0.1,6,2.6,-2.0833,3.49572,0.619848,0.671506,0.0602245,-0.00816286,-0.4673,-0.061512,0.00834465,0.00819456,0.204592,5,0.1,7,2.6,3.41738,-0.920291,0.640324,-0.319737,0.108144,0.0741243,0.0939369,-1.48559,0.14177,0.0060519,0.253216,5,0.1,8,2.6,0.515987,2.35132,0.600655,-0.0659913,-0.140864,-0.000661612,0.0746846,0.0772476,0.000715256,0.00836291,1.74162,5,0.1,9,2.6,1.34462,-1.5178,0.570898,-0.0950187,0.866026,-0.0190482,0.133574,-5.96046e-05,0.0157058,0.0289774,1.13816,5,0.1,10,2.6,1.66201,0.410854,0.596644,-0.392157,0.63934,-0.0284836,-0.399709,0.631005,0.0853837,0.0100184,1.06618,5,0.1,11,2.6,-0.0562673,1.6992,0.500005,0.645388,0.487709,3.57628e-05,0.388525,0.347018,-5.96046e-05,0.0213458,1.12757,5,0.1,12,2.6,1.1558,-3.32418,0.60449,0.112474,0.109577,-0.00645369,-0.0323057,-0.304222,0.00849366,0.00891974,0.439064,5,0.1,13,2.6,-1.3785,-0.727888,0.541747,-0.322169,0.866026,0.00777096,0.364721,0,0.0567436,0.0109979,2.24502,5,0.1,14,2.6,-2.63137,-0.543032,0.553055,-0.390947,0.0483498,-0.000305474,0.216722,-0.0310242,0.000208616,0.0074457,0.0700214,5,0.1,15,2.6,1.20118,1.29349,0.74557,-0.00523627,0.132957,0.0104263,0.129402,-0.231147,-0.0181198,0.0126447,0.544064,5,0.1,16,2.6,-0.373147,1.79924,0.664139,-0.0821248,0.144818,0.119205,0.422433,-0.503182,-0.137925,0.0162442,0.783679,5,0.1,17,2.6,1.42891,-3.18263,0.61865,0.311995,0.113934,0.012131,0.168264,0.267506,0.0206232,0.00615423,0.183525,5,0.1,18,2.6,3.30869,2.11113,0.742185,-0.0417292,0.511998,0.00901669,0.120521,0.0747442,-0.00926852,0.0186218,0.403822,5,0.1,19,2.6,1.24256,0.0300539,0.755718,-0.134003,-0.0734916,0.0707522,0.669718,1.04508,0.213921,0.00839742,0.349522,5,0.1,20,2.6,0.643439,2.61666,0.598986,-0.153473,0.130993,-0.0137269,-0.0527799,0.859141,-0.0302494,0.00643021,0.234495,5,0.1,21,2.6,-0.811042,-2.36776,0.6291,0.256526,0.866026,-0.014618,-0.0551343,0,0.00312924,0.0198274,2.23069,5,0.1,22,2.6,-1.62703,-2.41167,0.590319,-0.0229508,0.571394,0.00967681,0.025928,-0.408173,-0.0109673,0.00748181,0.13186,5,0.1,23,2.6,-1.80118,-3.25967,0.6027,0.236475,0.195152,-0.00421852,-0.237167,-0.277877,0.00426173,0.0140655,0.254508,5,0.1,24,2.6,2.11343,-1.93585,0.533273,0.170898,-0.723499,0.0092119,-0.162244,0.439703,-0.00873208,0.0098697,0.27079,5,0.1,25,2.6,-1.80902,2.86683,0.538326,0.31597,-0.29462,-0.0282094,-0.343502,0.320315,0.0306666,0.00916878,0.11039,5,0.1,26,2.6,-3.20167,-1.72256,0.607005,0.0248313,0.0725627,-0.00700504,-0.250816,-0.0821352,0.00795722,0.027153,0.423088,5,0.1,27,2.6,-1.02297,-0.591076,0.632119,0.16107,0.35203,0.069797,0.422418,-0.212252,0.0552833,0.00783243,0.219491,5,0.1,28,2.6,1.17203,-0.219627,0.595342,0.0437647,0.120976,0.00728816,-0.0439882,-0.502214,-0.00733137,0.00938006,0.250164,5,0.1,29,2.6,3.63378,-0.830716,0.547511,-0.128156,-0.14957,-0.00468045,0.0211,-0.015378,0.01508,0.0103821,0.0320583,5,0.1
0,2.7,-0.392583,-0.767823,0.587539,0.0864329,0.866026,0.014858,-0.0468865,-3.72529e-06,-0.023257,0.00956874,2.26806,5,0.1,1,2.7,-1.84505,2.41846,0.600848,0.0659702,-0.112728,-0.00123968,-0.0455901,0.454947,0.000860542,0.0067973,0.275715,5,0.1,2,2.7,3.23128,2.77681,0.595798,-0.124302,0.282452,0.00532176,0.26834,-0.169113,-0.00324845,0.0272052,0.109459,5,0.1,3,2.7,-3.13577,1.4773,0.603555,0.384209,0.171279,-0.00351584,1.14807,-0.179388,0.00367686,0.00782093,1.25087,5,0.1,4,2.7,-3.86099,-0.98633,0.596397,0.125079,-0.866025,0.0372524,-0.0110269,0,-0.00328943,0.00788919,2.26103,5,0.1,5,2.7,0.755751,2.40071,0.610929,-0.10097,-0.00919886,-0.00873851,-0.0609085,0.0853986,0.00136718,0.0112367,0.168838,5,0.1,6,2.7,-2.01835,3.50145,0.61907,0.628199,0.0546131,-0.0074015,-0.419728,-0.0524968,0.00711903,0.00819456,0.204592,5,0.1,7,2.7,3.3856,-0.916257,0.648536,-0.317844,-0.0209755,0.0906825,-0.0286847,-1.0966,0.176288,0.0060519,0.253216,5,0.1,8,2.7,0.508952,2.33795,0.600592,-0.0814817,-0.124023,-0.000596512,-0.333099,0.232935,0.000607222,0.00836291,1.74162,5,0.1,9,2.7,1.33568,-1.43121,0.569119,-0.0847466,0.865635,-0.0161368,0.0784397,-0.0156015,0.0398383,0.0289774,1.13816,5,0.1,10,2.7,1.62087,0.477836,0.594205,-0.429337,0.69824,-0.0204592,-0.320651,0.508994,0.0746958,0.0100184,1.06618,5,0.1,11,2.7,0.0098775,1.74939,0.500009,0.673715,0.512685,2.56114e-05,0.161635,0.142328,-0.000137836,0.0213458,1.12757,5,0.1,12,2.7,1.16706,-3.31472,0.603885,0.114136,0.0800468,-0.00568954,0.0508502,-0.282526,0.00697747,0.00891974,0.439064,5,0.1,13,2.7,-1.40894,-0.641286,0.54281,-0.2869,0.866026,0.0134319,0.34517,-3.72529e-06,0.054352,0.0109979,2.24502,5,0.1,14,2.7,-2.66954,-0.538329,0.553025,-0.373741,0.0458756,-0.000288803,0.14782,-0.0210181,0.000145286,0.0074457,0.0700214,5,0.1,15,2.7,1.20126,1.30566,0.746524,0.00560917,0.110787,0.00868822,0.068441,-0.212528,-0.0166632,0.0126447,0.544064,5,0.1,16,2.7,-0.379358,1.81042,0.675228,-0.0432669,0.0724545,0.101369,0.352105,-0.885017,-0.210401,0.0162442,0.783679,5,0.1,17,2.7,1.46106,-3.1699,0.61997,0.331359,0.140381,0.0142664,0.194542,0.248551,0.0207275,0.00615423,0.183525,5,0.1,18,2.7,3.30511,2.16283,0.743042,-0.0299688,0.522286,0.00813426,0.112817,0.100732,-0.00856444,0.0186218,0.403822,5,0.1,19,2.7,1.23244,0.0279973,0.764049,-0.0693107,0.0321716,0.0971698,0.613175,1.03475,0.293206,0.00839742,0.349522,5,0.1,20,2.7,0.627698,2.63393,0.597463,-0.162226,0.212624,-0.0166693,-0.106242,0.749514,-0.0272132,0.00643021,0.234495,5,0.1,21,2.7,-0.785562,-2.28116,0.627648,0.253716,0.866026,-0.0144584,-0.0161305,0,0.000923872,0.0198274,2.23069,5,0.1,22,2.7,-1.62921,-2.35648,0.591236,-0.0206126,0.533001,0.00868812,0.0215396,-0.376061,-0.00909716,0.00748181,0.13186,5,0.1,23,2.7,-1.77869,-3.24168,0.602299,0.21345,0.163535,-0.00380538,-0.227258,-0.3452,0.00406802,0.0140655,0.254508,5,0.1,24,2.7,2.12976,-2.00613,0.534153,0.15602,-0.682721,0.00841031,-0.14028,0.399306,-0.00756606,0.0098697,0.27079,5,0.1,25,2.7,-1.77887,2.83872,0.535635,0.289122,-0.269584,-0.0258121,-0.21255,0.19823,0.0189878,0.00916878,0.11039,5,0.1,26,2.7,-3.20029,-1.71568,0.606342,0.00446998,0.0651555,-0.00628782,-0.155076,-0.0682101,0.00659749,0.027153,0.423088,5,0.1,27,2.7,-1.00454,-0.5571,0.639414,0.20865,0.325897,0.0763351,0.496622,-0.307534,0.068441,0.00783243,0.219491,5,0.1,28,2.7,1.17619,-0.209883,0.596035,0.0394955,0.0755864,0.00657672,-0.0421256,-0.402114,-0.00702217,0.00938006,0.250164,5,0.1,29,2.7,3.62098,-0.845784,0.547128,-0.128474,-0.151898,-0.00289632,-0.0168383,-0.0221394,0.0196658,0.0103821,0.0320583,5,0.1
0,2.8,-0.384185,-0.681221,0.588907,0.0813521,0.866026,0.0124961,-0.0568777,0,-0.0238121,0.00949569,2.38723,5,0.1,1,2.8,-1.83868,2.40933,0.600728,0.0612974,-0.0712395,-0.00115186,-0.0497103,0.371218,0.000923872,0.008799,0.273906,5,0.1,2,2.8,3.22022,2.80417,0.596314,-0.0966489,0.264329,0.0049755,0.279069,-0.200272,-0.0038147,0.0270424,0.260347,5,0.1,3,2.8,-3.09193,1.49356,0.603221,0.488496,0.153884,-0.00315905,0.8955,-0.172555,0.00354648,0.00753685,0.953158,5,0.1,4,2.8,-3.84855,-1.07293,0.6001,0.12331,-0.866026,0.0367254,-0.0296831,0,-0.00885129,0.00818676,2.26166,5,0.1,5,2.8,0.745324,2.40014,0.610062,-0.107576,-0.00286102,-0.00860095,-0.0613332,0.0433922,0.00184774,0.0102349,0.271425,5,0.1,6,2.8,-1.95769,3.50666,0.618365,0.584039,0.0494301,-0.00669956,-0.47785,-0.0524521,0.00715256,0.00820078,0.137259,5,0.1,7,2.8,3.35366,-0.923195,0.658454,-0.320739,-0.111425,0.10712,-0.00917912,-0.715137,0.142932,0.0133843,4.02386,5,0.1,8,2.8,0.498814,2.32679,0.600536,-0.123485,-0.098753,-0.000536442,-0.467122,0.254154,0.000566244,0.00916765,1.59972,5,0.1,9,2.8,1.32755,-1.34485,0.567726,-0.0781775,0.859776,-0.0115618,0.0579357,-0.124872,0.0495315,0.0247257,0.837343,5,0.1,10,2.8,1.57662,0.549749,0.592512,-0.45242,0.734809,-0.0136107,-0.125587,0.197083,0.0620484,0.0094758,0.736539,5,0.1,11,2.8,0.0775752,1.80097,0.50001,0.675176,0.514662,1.04308e-05,-0.141416,-0.107706,-0.000178814,0.0176121,0.873118,5,0.1,12,2.8,1.17876,-3.30807,0.603349,0.120074,0.0537217,-0.00502467,0.0570416,-0.241399,0.0064373,0.0125712,0.423155,5,0.1,13,2.8,-1.43591,-0.554683,0.544406,-0.25239,0.866026,0.0182807,0.347912,0,0.0410676,0.0107481,2.25378,5,0.1,14,2.8,-2.70616,-0.533847,0.552997,-0.357902,0.0437096,-0.000274181,0.183105,-0.0241101,0.000149012,0.00776098,0.0318456,5,0.1,15,2.8,1.20195,1.3157,0.747312,0.00592768,0.0904143,0.00709146,-0.0683069,-0.195086,-0.0153184,0.0125355,1.65872,5,0.1,16,2.8,-0.382058,1.81301,0.68425,-0.0121132,-0.0217259,0.0786409,0.269532,-0.953078,-0.237435,0.0168675,3.37569,5,0.1,17,2.8,1.49505,-3.15473,0.621491,0.346738,0.161463,0.0160471,0.0957847,0.16439,0.0139177,0.00639668,0.166067,5,0.1,18,2.8,3.30265,2.2154,0.743812,-0.0194848,0.527012,0.00727475,0.0956059,-0.0275373,-0.00876188,0.0182456,0.294747,5,0.1,19,2.8,1.22841,0.0361447,0.775219,-0.0132263,0.12772,0.125703,0.500917,0.852274,0.261784,0.00764727,0.244757,5,0.1,20,2.8,0.610964,2.6586,0.595675,-0.171953,0.276893,-0.0189364,-0.0766218,0.519872,-0.0171959,0.00675364,0.183078,5,0.1,21,2.8,-0.760307,-2.19455,0.626209,0.250724,0.866026,-0.0142872,-0.0543892,0,0.00309944,0.0197351,2.23265,5,0.1,22,2.8,-1.63116,-2.30512,0.59206,-0.0185221,0.493443,0.00780523,0.0206828,-0.426412,-0.00873208,0.00745744,0.149618,5,0.1,23,2.8,-1.75849,-3.2271,0.601939,0.19038,0.127774,-0.00339299,-0.23675,-0.362396,0.00420213,0.0137437,0.254295,5,0.1,24,2.8,2.14466,-2.07231,0.534956,0.141996,-0.639683,0.00765324,-0.143766,0.477314,-0.0077486,0.00947551,0.182089,5,0.1,25,2.8,-1.75093,2.81267,0.533141,0.270131,-0.251877,-0.024116,-0.181437,0.169277,0.0162125,0.00768435,0.0644136,5,0.1,26,2.8,-3.20045,-1.7095,0.605745,-0.00613928,0.0585437,-0.00564754,-0.0579357,-0.0657439,0.00631809,0.0276063,0.617256,5,0.1,27,2.8,-0.981291,-0.526184,0.647365,0.25478,0.291142,0.0822797,0.402331,-0.384241,0.0454187,0.0323645,1.78869,5,0.1,28,2.8,1.17993,-0.204148,0.596657,0.0352204,0.0409964,0.0058651,-0.0438094,-0.288703,-0.00730157,0.00862627,0.247799,5,0.1,29,2.8,3.60806,-0.861035,0.546938,-0.129712,-0.152479,-0.000911951,-0.000119209,0.0167191,0.0193119,0.00693036,0.533633,5,0.1
0,2.9,-0.376302,-0.59498,0.590042,0.0765302,0.854891,0.0102392,-0.0430886,-0.233293,-0.0213571,0.00949569,2.38723,5,0.1,1,2.9,-1.83279,2.4039,0.600618,0.0564734,-0.0390287,-0.00106208,-0.048168,0.271514,0.00089407,0.008799,0.273906,5,0.1,2,2.9,3.21193,2.82963,0.596793,-0.0694651,0.244976,0.00460781,0.260398,-0.193074,-0.00365824,0.0270424,0.260347,5,0.1,3,2.9,-3.03862,1.50815,0.602922,0.576189,0.138381,-0.00284072,0.813022,-0.142358,0.00292063,0.00753685,0.953158,5,0.1,4,2.9,-3.83632,-1.15954,0.603743,0.121595,-0.866026,0.0362136,-0.0116676,0,-0.00348315,0.00818676,2.26166,5,0.1,5,2.9,0.733962,2.40002,0.609207,-0.122009,3.61353e-05,-0.00852346,-0.202157,0.0166446,0.000245869,0.0102349,0.271425,5,0.1,6,2.9,-1.90154,3.51135,0.617729,0.539927,0.0446681,-0.00605052,-0.421822,-0.0442713,0.00602379,0.00820078,0.137259,5,0.1,7,2.9,3.32208,-0.935142,0.669582,-0.306009,-0.10358,0.112716,0.282839,0.723433,-0.0208132,0.0133843,4.02386,5,0.1,8,2.9,0.483819,2.31828,0.600485,-0.178553,-0.0715487,-0.00048494,-0.595408,0.25022,0.000480562,0.00916765,1.59972,5,0.1,9,2.9,1.31996,-1.25927,0.566832,-0.0740601,0.85301,-0.00622077,0.0295714,-0.0554398,0.0553243,0.0247257,0.837343,5,0.1,10,2.9,1.53081,0.624121,0.591443,-0.462749,0.750928,-0.00797715,-0.0627935,0.0959001,0.0504628,0.0094758,0.736539,5,0.1,11,2.9,0.144421,1.85142,0.500011,0.661455,0.489814,-4.65661e-06,-0.157883,-0.376247,-0.000119209,0.0176121,0.873118,5,0.1,12,2.9,1.1911,-3.3039,0.602877,0.126965,0.0298534,-0.00443524,0.0711381,-0.224158,0.00547245,0.0125712,0.423155,5,0.1,13,2.9,-1.4595,-0.468081,0.546439,-0.220402,0.866026,0.0223175,0.297524,-3.57628e-06,0.0377297,0.0107481,2.25378,5,0.1,14,2.9,-2.74105,-0.529592,0.552971,-0.34,0.0413962,-0.000259839,0.185668,-0.0235215,0.000149012,0.00776098,0.0318456,5,0.1,15,2.9,1.20219,1.32382,0.747948,-0.00375863,0.072239,0.00566449,-0.223346,-0.16892,-0.013262,0.0125355,1.65872,5,0.1,16,2.9,-0.382377,1.80498,0.691021,0.001712,-0.147261,0.0576521,0.0279713,-1.45883,-0.18413,0.0168675,3.37569,5,0.1,17,2.9,1.53031,-3.13779,0.623172,0.358973,0.176798,0.0176028,0.125051,0.132531,0.0156872,0.00639668,0.166067,5,0.1,18,2.9,3.30115,2.26803,0.744498,-0.0108201,0.525536,0.00645835,0.0761896,-0.0261962,-0.0077188,0.0182456,0.294747,5,0.1,19,2.9,1.22936,0.0529974,0.789201,0.0301052,0.207014,0.154474,0.365108,0.713725,0.293948,0.00764727,0.244757,5,0.1,20,2.9,0.593341,2.68878,0.593698,-0.18065,0.325097,-0.0205286,-0.0851564,0.423938,-0.0135601,0.00675364,0.183078,5,0.1,21,2.9,-0.735408,-2.10795,0.62479,0.247883,0.866026,-0.0141249,-0.0170246,0,0.000979751,0.0197351,2.23265,5,0.1,22,2.9,-1.63293,-2.25755,0.592804,-0.0169255,0.460636,0.00713142,0.0124127,-0.258908,-0.00524148,0.00745744,0.149618,5,0.1,23,2.9,-1.74063,-3.21611,0.60162,0.166852,0.0923667,-0.0029753,-0.234559,-0.340208,0.0041686,0.0137437,0.254295,5,0.1,24,2.9,2.15819,-2.13403,0.535685,0.128881,-0.595497,0.0069458,-0.122696,0.425935,-0.00662357,0.00947551,0.182089,5,0.1,25,2.9,-1.72471,2.78822,0.5308,0.255132,-0.237884,-0.0227757,-0.131212,0.122413,0.0117272,0.00768435,0.0644136,5,0.1,26,2.9,-3.20135,-1.70395,0.60521,-0.0110913,0.052637,-0.00507962,-0.0196248,-0.0542179,0.00521541,0.0276063,0.617256,5,0.1,27,2.9,-0.953758,-0.497651,0.655616,0.295656,0.290765,0.08092,0.390034,0.292247,-0.0644401,0.0323645,1.78869,5,0.1,28,2.9,1.18328,-0.201291,0.597208,0.0323435,0.0180317,0.00516372,-0.0172034,-0.175546,-0.00680611,0.00862627,0.247799,5,0.1,29,2.9,3.59616,-0.875725,0.546566,-0.0991587,-0.137189,-0.00969982,0.548288,0.264555,-0.171665,0.00693036,0.533633,5,0.1
0,3,-0.368865,-0.51111,0.590963,0.0721313,0.817834,0.0082165,-0.0474006,-0.512556,-0.0190735,0.00990175,0.152299,5,0.1,1,3,-1.82739,2.40118,0.600516,0.0514328,-0.0169933,-0.000968575,-0.0534654,0.170112,0.00101328,0.00623098,0.515354,5,0.1,2,3,3.20623,2.85314,0.597235,-0.0452816,0.224674,0.00422299,0.220656,-0.21708,-0.00405312,0.0279603,0.254128,5,0.1,3,3,-2.97738,1.52129,0.602652,0.64345,0.124586,-0.00255853,0.501156,-0.136971,0.00280142,0.00780295,0.685947,5,0.1,4,3,-3.82424,-1.24614,0.607341,0.119781,-0.866026,0.0356719,-0.0298023,0,-0.00888109,0.00825769,2.03402,5,0.1,5,3,0.720688,2.40008,0.608357,-0.143601,0.000846386,-0.0084579,-0.210792,0.00107288,0.00146031,0.0105337,0.240464,5,0.1,6,3,-1.84968,3.5156,0.617153,0.496733,0.0403285,-0.00545979,-0.454128,-0.0436306,0.00590086,0.00871936,0.158593,5,0.1,7,3,3.29323,-0.940519,0.68055,-0.268036,0.006634,0.104851,0.458837,1.36322,-0.127822,0.0139684,3.21448,5,0.1,8,3,0.463037,2.31213,0.600439,-0.235822,-0.0544071,-0.000438094,-0.521317,0.0754595,0.000476837,0.00835693,1.74139,5,0.1,9,3,1.31269,-1.17443,0.566483,-0.0713706,0.841045,-0.000841916,0.0281334,-0.215411,0.0507832,0.02834,0.79619,5,0.1,10,3,1.48444,0.699331,0.590877,-0.461975,0.749134,-0.00353605,0.0901818,-0.151008,0.0382662,0.00921007,0.627339,5,0.1,11,3,0.209584,1.89817,0.50001,0.639444,0.441936,-1.49012e-05,-0.299015,-0.569224,-2.98023e-05,0.0175443,0.702801,5,0.1,12,3,1.20411,-3.30193,0.60246,0.132659,0.0107348,-0.00390857,0.0358224,-0.151157,0.0051856,0.00748366,0.356122,5,0.1,13,3,-1.4801,-0.381478,0.548841,-0.191909,0.866025,0.0254989,0.276327,1.43051e-05,0.0245571,0.00966993,1.96042,5,0.1,14,3,-2.77405,-0.525578,0.552945,-0.318992,0.0387803,-0.000242889,0.241399,-0.0297129,0.000178814,0.00903036,0.0123285,5,0.1,15,3,1.2,1.33024,0.748451,-0.0470579,0.056541,0.00443161,-0.627875,-0.145435,-0.0113845,0.0125561,3.26511,5,0.1,16,3,-0.382322,1.7828,0.695941,-0.00273138,-0.296149,0.0414789,-0.0999421,-1.44428,-0.140905,0.0164719,3.05156,5,0.1,17,3,1.56672,-3.11957,0.625003,0.367689,0.186342,0.0189289,0.0325441,0.0519753,0.00974536,0.0164948,3.28339,5,0.1,18,3,3.30041,2.32029,0.745106,-0.00445843,0.517696,0.00570416,0.0503063,-0.147104,-0.00748038,0.0168531,0.210517,5,0.1,19,3,1.23397,0.0769053,0.806039,0.0597954,0.26718,0.181112,0.229299,0.476636,0.22468,0.00881111,0.184965,5,0.1,20,3,0.574917,2.72312,0.591591,-0.186923,0.358325,-0.0214696,-0.0317991,0.227332,-0.00455976,0.00637853,0.15775,5,0.1,21,3,-0.710741,-2.02135,0.623384,0.24482,0.866026,-0.013949,-0.0545979,-5.96046e-05,0.00312924,0.0183543,2.23465,5,0.1,22,3,-1.63457,-2.2127,0.593493,-0.015831,0.436598,0.00666976,0.010252,-0.243187,-0.00432134,0.00955731,0.086566,5,0.1,23,3,-1.72512,-3.2085,0.601344,0.14337,0.0606716,-0.00255853,-0.23526,-0.290036,0.00420213,0.0141878,0.422975,5,0.1,24,3,2.17047,-2.19141,0.536347,0.116748,-0.551212,0.00628978,-0.123024,0.473261,-0.00661612,0.00933432,0.12209,5,0.1,25,3,-1.69986,2.76504,0.528581,0.241721,-0.225377,-0.0215769,-0.146091,0.136256,0.0130534,0.00953391,0.0507923,5,0.1,26,3,-3.20237,-1.69895,0.604727,-0.00715256,0.0473857,-0.00457466,0.105619,-0.0522137,0.00503659,0.0261214,0.810945,5,0.1,27,3,-0.922432,-0.46657,0.663261,0.328518,0.33462,0.0708923,0.249714,0.519589,-0.129282,0.0322583,1.4186,5,0.1,28,3,1.18645,-0.200213,0.597691,0.0311702,0.00493638,0.00449121,-0.0089407,-0.0909045,-0.00664592,0.00805236,0.242062,5,0.1,29,3,3.58946,-0.887879,0.544582,-0.0312746,-0.103986,-0.0310868,0.760078,0.37986,-0.237823,0.00753382,0.350567,5,0.1
0,3.1,-0.361889,-0.432674,0.5917,0.0673612,0.743981,0.00663474,-0.0494532,-0.927689,-0.0130162,0.00990175,0.152299,5,0.1,1,3.1,-1.82247,2.40019,0.600596,0.0475122,-0.00408962,0.00399165,-0.0288412,0.0918508,0.0873283,0.00623098,0.515354,5,0.1,2,3.1,3.20276,2.8745,0.597636,-0.0246964,0.202359,0.00380576,0.185013,-0.230357,-0.00431389,0.0279603,0.254128,5,0.1,3,3.1,-2.91061,1.53311,0.602409,0.690146,0.112309,-0.00230744,0.397056,-0.112571,0.00230223,0.00780295,0.685947,5,0.1,4,3.1,-3.81237,-1.33274,0.610875,0.117758,-0.866026,0.035069,-0.0168979,0,-0.00503659,0.00825769,2.03402,5,0.1,5,3.1,0.705207,2.40016,0.607518,-0.166244,0.000689551,-0.00832807,-0.225589,-0.00359118,0.00148267,0.0105337,0.240464,5,0.1,6,3.1,-1.80189,3.51945,0.616632,0.462069,0.0369482,-0.00500269,-0.269622,-0.0264943,0.00358373,0.00871936,0.158593,5,0.1,7,3.1,3.26888,-0.931958,0.690378,-0.217749,0.172594,0.0915538,0.53367,1.84592,-0.137273,0.0139684,3.21448,5,0.1,8,3.1,0.436779,2.30687,0.600397,-0.289276,-0.0547059,-0.000395067,-0.518071,-0.14925,0.000402331,0.00835693,1.74139,5,0.1,9,3.1,1.30566,-1.09126,0.567122,-0.0694444,0.822921,0.0175109,0.0144616,-0.183232,0.285171,0.02834,0.79619,5,0.1,10,3.1,1.43875,0.773146,0.59066,-0.451034,0.723639,-0.0012856,0.140958,-0.362549,0.00916421,0.00921007,0.627339,5,0.1,11,3.1,0.271589,1.93974,0.500008,0.596479,0.391319,-1.74157e-05,-0.548879,-0.457041,-1.86265e-05,0.0175443,0.702801,5,0.1,12,3.1,1.21749,-3.30152,0.602095,0.134115,-0.00126101,-0.00340668,-0.00872463,-0.0760406,0.00488386,0.00748366,0.356122,5,0.1,13,3.1,-1.49801,-0.294876,0.551512,-0.167027,0.866025,0.0278516,0.226632,-1.78814e-06,0.0208616,0.00966993,1.96042,5,0.1,14,3.1,-2.80473,-0.52185,0.552922,-0.294308,0.0357658,-0.000224449,0.257134,-0.0312105,0.000193715,0.00903036,0.0123285,5,0.1,15,3.1,1.19062,1.33554,0.74884,-0.152741,0.0528583,0.00338145,-1.36825,0.0499412,-0.0096336,0.0125561,3.26511,5,0.1,16,3.1,-0.383071,1.74572,0.699453,-0.0119892,-0.446006,0.0294109,-0.0846703,-1.48174,-0.102159,0.0164719,3.05156,5,0.1,17,3.1,1.60292,-3.09891,0.626899,0.349958,0.241538,0.0185738,-0.357099,0.931308,-0.0150017,0.0164948,3.28339,5,0.1,18,3.1,3.30019,2.37138,0.745641,-0.000260025,0.50412,0.0050175,0.03016,-0.144035,-0.00638887,0.0168531,0.210517,5,0.1,19,3.1,1.24093,0.105863,0.825309,0.0777138,0.310111,0.204211,0.130273,0.36568,0.22085,0.00881111,0.184965,5,0.1,20,3.1,0.55606,2.76008,0.589421,-0.19006,0.380331,-0.0219012,-0.0220165,0.191718,-0.00306219,0.00637853,0.15775,5,0.1,21,3.1,-0.686437,-1.93475,0.622,0.241852,0.866025,-0.0137777,-0.0188872,1.49012e-05,0.00109896,0.0183543,2.23465,5,0.1,22,3.1,-1.6361,-2.17011,0.594142,-0.0150004,0.416049,0.00632005,0.00713021,-0.18695,-0.00300631,0.00955731,0.086566,5,0.1,23,3.1,-1.71192,-3.20383,0.601108,0.120982,0.0335269,-0.00215871,-0.213496,-0.244796,0.00381097,0.0141878,0.422975,5,0.1,24,3.1,2.18157,-2.2443,0.536945,0.105577,-0.507603,0.00568843,-0.103846,0.415206,-0.00559911,0.00933432,0.12209,5,0.1,25,3.1,-1.6763,2.74308,0.526478,0.230242,-0.214672,-0.0205511,-0.0965372,0.0900328,0.00862777,0.00953391,0.0507923,5,0.1,26,3.1,-3.20246,-1.69445,0.604293,0.00780821,0.0427071,-0.00412315,0.245243,-0.0428855,0.00413507,0.0261214,0.810945,5,0.1,27,3.1,-0.888347,-0.429955,0.669627,0.352508,0.401593,0.0558294,0.210337,0.755638,-0.166059,0.0322583,1.4186,5,0.1,28,3.1,1.1895,-0.200148,0.598108,0.0296494,-0.00322382,0.00386005,-0.0211522,-0.0666454,-0.00602379,0.00805236,0.242062,5,0.1,29,3.1,3.59042,-0.896338,0.540382,0.0523232,-0.065033,-0.0518734,0.871509,0.389125,-0.175424,0.00753382,0.350567,5,0.1
0,3.2,-0.355413,-0.363349,0.592306,0.0620045,0.638947,0.00552982,-0.0586063,-1.14329,-0.00938773,0.00981302,0.206223,5,0.1,1,3.2,-1.81784,2.40014,0.6015,0.0449926,0.00211596,0.0145659,-0.0243783,0.0357628,0.115752,0.00633102,0.502572,5,0.1,2,3.2,3.20112,2.89356,0.597995,-0.009197,0.17845,0.00335723,0.121832,-0.248313,-0.00461936,0.0236118,0.41158,5,0.1,3,3.2,-2.84002,1.5438,0.602189,0.716907,0.101388,-0.00208467,0.114322,-0.108778,0.00223517,0.0136455,0.47264,5,0.1,4,3.2,-3.8007,-1.41934,0.614351,0.115341,-0.866026,0.0343502,-0.0356436,0,-0.010699,0.0082626,1.59807,5,0.1,5,3.2,0.687542,2.40021,0.606695,-0.185902,0.000232458,-0.00810176,-0.155926,-0.00500679,0.00324845,0.00928132,0.441295,5,0.1,6,3.2,-1.75693,3.52303,0.616148,0.437516,0.0345945,-0.00468642,-0.243962,-0.0224113,0.00306964,0.00799755,0.0924574,5,0.1,7,3.2,3.2498,-0.905419,0.698837,-0.16368,0.356556,0.0775605,0.537276,1.75077,-0.14171,0.0131024,2.6979,5,0.1,8,3.2,0.405466,2.3,0.60036,-0.334378,-0.0890255,-0.000356138,-0.363067,-0.51713,0.00038743,0.00805986,1.46342,5,0.1,9,3.2,1.29879,-1.01007,0.570474,-0.0677794,0.798295,0.0506744,0.0218153,-0.334144,0.354022,0.0259723,0.419531,5,0.1,10,3.2,1.39451,0.843327,0.590546,-0.431776,0.67627,-0.0012666,0.251889,-0.584662,-0.00682473,0.00894159,0.470498,5,0.1,11,3.2,0.328161,1.97667,0.500006,0.531922,0.348106,-1.78814e-05,-0.731155,-0.417352,0,0.00827591,0.790138,5,0.1,12,3.2,1.23077,-3.30183,0.601778,0.130621,-0.00289083,-0.00292659,-0.0621676,0.04673,0.00476837,0.00720376,0.511387,5,0.1,13,3.2,-1.51362,-0.208273,0.554384,-0.145662,0.866025,0.0293955,0.204504,0,0.0089407,0.00842818,1.53426,5,0.1,14,3.2,-2.83282,-0.518436,0.5529,-0.266802,0.0324398,-0.000204146,0.295639,-0.0357032,0.000238419,0.00776746,0.00637078,5,0.1,15,3.2,1.16809,1.34125,0.749133,-0.299972,0.0626415,0.00250041,-1.48654,0.128627,-0.00798702,0.0119831,2.76172,5,0.1,16,3.2,-0.384664,1.69413,0.701936,-0.0195622,-0.580308,0.0207305,-0.0663102,-1.15359,-0.0728667,0.0199016,2.91012,5,0.1,17,3.2,1.6357,-3.06946,0.628653,0.301784,0.351244,0.0162661,-0.581384,1.17004,-0.0295937,0.0135085,2.78723,5,0.1,18,3.2,3.30026,2.42094,0.746112,0.00112057,0.485587,0.00440329,-0.00345707,-0.239611,-0.00602007,0.0183231,0.14839,5,0.1,19,3.2,1.2492,0.13841,0.846717,0.0861436,0.337645,0.222492,0.0400543,0.174604,0.133336,0.00791336,0.431738,5,0.1,20,3.2,0.53702,2.79887,0.587225,-0.189835,0.39314,-0.0219122,0.0325143,0.0503063,0.00345707,0.0131855,3.8498,5,0.1,21,3.2,-0.662382,-1.84814,0.620629,0.23863,0.866026,-0.0135928,-0.0555515,-5.96046e-05,0.00318885,0.0180179,1.92337,5,0.1,22,3.2,-1.63757,-2.12948,0.594759,-0.0142723,0.395948,0.00601411,0.00804663,-0.228524,-0.00339746,0.00695187,0.192901,5,0.1,23,3.2,-1.70086,-3.20157,0.600911,0.100505,0.0129342,-0.00179261,-0.196755,-0.162721,0.00348687,0.0138738,0.875097,5,0.1,24,3.2,2.19162,-2.29297,0.537486,0.0953853,-0.465411,0.00513941,-0.102639,0.439644,-0.00557303,0.00947018,0.141293,5,0.1,25,3.2,-1.65376,2.72207,0.524467,0.22018,-0.20529,-0.0196517,-0.113904,0.106215,0.0101626,0.00707751,0.0233504,5,0.1,26,3.2,-3.2,-1.69039,0.603901,0.0455618,0.0385463,-0.00372231,0.495076,-0.0413656,0.00399351,0.0281303,1.24833,5,0.1,27,3.2,-0.852242,-0.386062,0.67436,0.367278,0.474592,0.0387356,0.071764,0.657023,-0.171185,0.0331793,1.0904,5,0.1,28,3.2,1.19235,-0.200728,0.598465,0.0270128,-0.00756159,0.00327826,-0.0311732,-0.0174493,-0.00569224,0.00859475,0.228179,5,0.1,29,3.2,3.59992,-0.900949,0.534437,0.136006,-0.0279129,-0.0657991,0.772595,0.345796,-0.101864,0.00897258,0.271982,5,0.1
