id,t,px,py,pz,vx,vy,vz,ax,ay,az,planning_time,qp_cost,planning_report,size,id,t,px,py,pz,vx,vy,vz,ax,ay,az,planning_time,qp_cost,planning_report,size,id,t,px,py,pz,vx,vy,vz,ax,ay,az,planning_time,qp_cost,planning_report,size,id,t,px,py,pz,vx,vy,vz,ax,ay,az,planning_time,qp_cost,planning_report,size,id,t,px,py,pz,vx,vy,vz,ax,ay,az,planning_time,qp_cost,planning_report,size,id,t,px,py,pz,vx,vy,vz,ax,ay,az,planning_time,qp_cost,planning_report,size,id,t,px,py,pz,vx,vy,vz,ax,ay,az,planning_time,qp_cost,planning_report,size,id,t,px,py,pz,vx,vy,vz,ax,ay,az,planning_time,qp_cost,planning_report,size,id,t,px,py,pz,vx,vy,vz,ax,ay,az,planning_time,qp_cost,planning_report,size,id,t,px,py,pz,vx,vy,vz,ax,ay,az,planning_time,qp_cost,planning_report,size,id,t,px,py,pz,vx,vy,vz,ax,ay,az,planning_time,qp_cost,planning_report,size,id,t,px,py,pz,vx,vy,vz,ax,ay,az,planning_time,qp_cost,planning_report,size,id,t,px,py,pz,vx,vy,vz,ax,ay,az,planning_time,qp_cost,planning_report,size,id,t,px,py,pz,vx,vy,vz,ax,ay,az,planning_time,qp_cost,planning_report,size,id,t,px,py,pz,vx,vy,vz,ax,ay,az,planning_time,qp_cost,planning_report,size,id,t,px,py,pz,vx,vy,vz,ax,ay,az,planning_time,qp_cost,planning_report,size,id,t,px,py,pz,vx,vy,vz,ax,ay,az,planning_time,qp_cost,planning_report,size,id,t,px,py,pz,vx,vy,vz,ax,ay,az,planning_time,qp_cost,planning_report,size,id,t,px,py,pz,vx,vy,vz,ax,ay,az,planning_time,qp_cost,planning_report,size,id,t,px,py,pz,vx,vy,vz,ax,ay,az,planning_time,qp_cost,planning_report,size,id,t,px,py,pz,vx,vy,vz,ax,ay,az,planning_time,qp_cost,planning_report,size,id,t,px,py,pz,vx,vy,vz,ax,ay,az,planning_time,qp_cost,planning_report,size,id,t,px,py,pz,vx,vy,vz,ax,ay,az,planning_time,qp_cost,planning_report,size,id,t,px,py,pz,vx,vy,vz,ax,ay,az,planning_time,qp_cost,planning_report,size,id,t,px,py,pz,vx,vy,vz,ax,ay,az,planning_time,qp_cost,planning_report,size,id,t,px,py,pz,vx,vy,vz,ax,ay,az,planning_time,qp_cost,planning_report,size,id,t,px,py,pz,vx,vy,vz,ax,ay,az,planning_time,qp_cost,planning_report,size,id,t,px,py,pz,vx,vy,vz,ax,ay,az,planning_time,qp_cost,planning_report,size,id,t,px,py,pz,vx,vy,vz,ax,ay,az,planning_time,qp_cost,planning_report,size,id,t,px,py,pz,vx,vy,vz,ax,ay,az,planning_time,qp_cost,planning_report,size
0,0,2.16354,-1.21152,0.584442,0,0,0,0,0,0,0.0265238,2.82146,5,0.1,1,0,-3.98431,1.34271,0.599717,0,0,0,0,0,0,0.012053,1.80641,5,0.1,2,0,3.62912,4.06142,0.691816,0,0,0,0,0,0,0.0148037,2.31404,5,0.1,3,0,-4.13323,-0.807576,0.606174,0,0,0,0,0,0,0.0130177,3.51219,5,0.1,4,0,2.09524,-2.23971,0.635992,0,0,0,0,0,0,0.0201415,3.5122,5,0.1,5,0,1.62421,-4.01688,0.686646,0,0,0,0,0,0,0.0118427,3.5122,5,0.1,6,0,1.78637,4.04067,0.570253,0,0,0,0,0,0,0.0107396,3.5122,5,0.1,7,0,-1.41788,-4.0773,0.552589,0,0,0,0,0,0,0.0117003,3.51219,5,0.1,8,0,-1.36818,-0.392503,0.534755,0,0,0,0,0,0,0.007521,3.51219,5,0.1,9,0,-1.104,4.2197,0.505985,0,0,0,0,0,0,0.00855315,3.41536,5,0.1,10,0,-3.89022,0.677465,0.529678,0,0,0,0,0,0,0.0122814,0.882597,5,0.1,11,0,-2.1361,-3.6977,0.655444,0,0,0,0,0,0,0.00813065,0.473564,5,0.1,12,0,4.30681,-2.12113,0.578485,0,0,0,0,0,0,0.0187428,3.5122,5,0.1,13,0,4.16795,-1.11065,0.637398,0,0,0,0,0,0,0.00872469,0.56416,5,0.1,14,0,-0.849614,-3.4225,0.580005,0,0,0,0,0,0,0.0165304,3.5122,5,0.1,15,0,3.63889,2.06309,0.631892,0,0,0,0,0,0,0.0148491,0.981509,5,0.1,16,0,-2.72781,-4.12408,0.509511,0,0,0,0,0,0,0.00775279,1.7159,5,0.1,17,0,-2.66244,3.83252,0.655771,0,0,0,0,0,0,0.0172238,2.85477,5,0.1,18,0,0.350389,-0.979514,0.60016,0,0,0,0,0,0,0.0151962,0.9756,5,0.1,19,0,0.042191,3.79506,0.650475,0,0,0,0,0,0,0.0165099,3.5122,5,0.1,20,0,-2.07688,3.698,0.643834,0,0,0,0,0,0,0.016233,1.91,5,0.1,21,0,1.75303,-0.440155,0.648458,0,0,0,0,0,0,0.0204589,3.5122,5,0.1,22,0,4.29583,0.514064,0.590115,0,0,0,0,0,0,0.00747013,1.13089,5,0.1,23,0,-3.66002,-2.8562,0.512748,0,0,0,0,0,0,0.0233203,1.50934,5,0.1,24,0,4.38113,-4.32491,0.579348,0,0,0,0,0,0,0.0154054,3.51219,5,0.1,25,0,-0.919288,0.289265,0.587703,0,0,0,0,0,0,0.00835254,2.80831,5,0.1,26,0,-4.03441,-2.29117,0.537989,0,0,0,0,0,0,0.0165934,3.51219,5,0.1,27,0,-1.48943,3.21946,0.62703,0,0,0,0,0,0,0.0102057,3.51219,5,0.1,28,0,-0.740785,-0.955037,0.550345,0,0,0,0,0,0,0.00857935,3.02052,5,0.1,29,0,2.11269,1.21641,0.627199,0,0,0,0,0,0,0.0178409,2.75113,5,0.1
0,0.1,2.16253,-1.20994,0.584459,-0.0285532,0.0447925,0.000461191,-0.507608,0.796318,0.00819564,0.0265238,2.82146,5,0.1,1,0.1,-3.98281,1.34272,0.599717,0.0425041,0.000216253,8.56817e-06,0.755638,0.00383705,0.000149012,0.012053,1.80641,5,0.1,2,0.1,3.628,4.06016,0.691877,-0.0319794,-0.0358999,0.00172416,-0.568509,-0.638187,0.0306554,0.0148037,2.31404,5,0.1,3,0.1,-4.13126,-0.808285,0.606169,0.055746,-0.0201274,-0.000147428,0.991017,-0.357822,-0.00262633,0.0130177,3.51219,5,0.1,4,0.1,2.09362,-2.2384,0.635967,-0.0460569,0.0372976,-0.000692066,-0.818774,0.663072,-0.0123046,0.0201415,3.5122,5,0.1,5,0.1,1.62214,-4.01658,0.686672,-0.0586452,0.00853688,0.000754558,-1.04258,0.151813,0.013411,0.0118427,3.5122,5,0.1,6,0.1,1.78428,4.04067,0.570269,-0.059266,0.000141561,0.00045374,-1.05363,0.0025034,0.00806153,0.0107396,3.5122,5,0.1,7,0.1,-1.41799,-4.07522,0.552613,-0.0032492,0.0591762,0.00066366,-0.0577718,1.05199,0.0117943,0.0117003,3.51219,5,0.1,8,0.1,-1.3661,-0.392436,0.534802,0.0592221,0.00191005,0.00134716,1.05284,0.033956,0.0239499,0.007521,3.51219,5,0.1,9,0.1,-1.10395,4.21782,0.505933,0.00160057,-0.0533871,-0.00145417,0.0284538,-0.949115,-0.0258535,0.00855315,3.41536,5,0.1,10,0.1,-3.88945,0.678168,0.529751,0.0219364,0.0199298,0.00208402,0.389978,0.354309,0.037048,0.0122814,0.882597,5,0.1,11,0.1,-2.13559,-3.69713,0.655386,0.014405,0.0162303,-0.00164323,0.256091,0.288546,-0.0292063,0.00813065,0.473564,5,0.1,12,0.1,4.30641,-2.11908,0.578493,-0.0114329,0.0581548,0.000244379,-0.203282,1.03387,0.00434369,0.0187428,3.5122,5,0.1,13,0.1,4.16723,-1.11024,0.63745,-0.020656,0.0116372,0.00146907,-0.367224,0.20688,0.0261217,0.00872469,0.56416,5,0.1,14,0.1,-0.849905,-3.42043,0.580012,-0.00828085,0.0586875,0.00020666,-0.147212,1.04332,0.00367686,0.0165304,3.5122,5,0.1,15,0.1,3.63838,2.06407,0.631858,-0.0144884,0.0277646,-0.000945106,-0.257552,0.493586,-0.0168011,0.0148491,0.981509,5,0.1,16,0.1,-2.72841,-4.12275,0.509449,-0.0169564,0.0377566,-0.00176355,-0.301465,0.671208,-0.031352,0.00775279,1.7159,5,0.1,17,0.1,-2.66154,3.83086,0.655713,0.0255577,-0.0468966,-0.00165282,0.454366,-0.833705,-0.0293814,0.0172238,2.85477,5,0.1,18,0.1,0.349711,-0.978648,0.60016,-0.0192737,0.0245817,-4.84288e-06,-0.342645,0.437014,-8.19564e-05,0.0151962,0.9756,5,0.1,19,0.1,0.0442191,3.79456,0.650444,0.0575719,-0.0140496,-0.000892021,1.0235,-0.249773,-0.0158548,0.0165099,3.5122,5,0.1,20,0.1,-2.07659,3.69649,0.643788,0.00820495,-0.0429105,-0.00129882,0.145867,-0.762865,-0.0230968,0.016233,1.91,5,0.1,21,0.1,1.75237,-0.438177,0.648412,-0.0188906,0.0561622,-0.00130199,-0.335827,0.998439,-0.023149,0.0204589,3.5122,5,0.1,22,0.1,4.29589,0.515245,0.590181,0.00161901,0.0335402,0.00187177,0.0287592,0.596274,0.0332743,0.00747013,1.13089,5,0.1,23,0.1,-3.65949,-2.85494,0.512683,0.0151142,0.0357453,-0.00185948,0.268698,0.63546,-0.0330582,0.0233203,1.50934,5,0.1,24,0.1,4.38083,-4.32285,0.579354,-0.00865236,0.0586331,0.000165123,-0.153869,1.04237,0.00293925,0.0154054,3.51219,5,0.1,25,0.1,-0.918367,0.290886,0.587616,0.0261493,0.0460317,-0.00245804,0.464879,0.81834,-0.0436939,0.00835254,2.80831,5,0.1,26,0.1,-4.03286,-2.28978,0.538029,0.0440903,0.039592,0.00114646,0.783831,0.703856,0.0203848,0.0165934,3.51219,5,0.1,27,0.1,-1.48935,3.21737,0.627009,0.00224598,-0.0592228,-0.000583474,0.0399351,-1.05284,-0.0103749,0.0102057,3.51219,5,0.1,28,0.1,-0.742713,-0.95492,0.550479,-0.0547329,0.00330899,0.00378555,-0.973031,0.0588223,0.0672974,0.00857935,3.02052,5,0.1,29,0.1,2.11173,1.21482,0.62717,-0.0270467,-0.0449372,-0.00080606,-0.480816,-0.798889,-0.0143312,0.0178409,2.75113,5,0.1
0,0.2,2.15673,-1.20084,0.584552,-0.0902414,0.141564,0.00145584,-0.67687,1.0618,0.0109673,0.0232775,2.31486,5,0.1,1,0.2,-3.97418,1.34277,0.599719,0.134337,0.000682473,2.5332e-05,1.00744,0.00506639,0.000238419,0.0129671,1.48208,5,0.1,2,0.2,3.6215,4.05287,0.692227,-0.101072,-0.113463,0.00544935,-0.757933,-0.850677,0.040859,0.0159789,1.89857,5,0.1,3,0.2,-4.11994,-0.812373,0.606139,0.176191,-0.0636116,-0.000466406,1.32108,-0.477105,-0.00348687,0.0170701,2.92582,5,0.1,4,0.2,2.08426,-2.23082,0.635827,-0.145561,0.11788,-0.00218749,-1.0916,0.883937,-0.0164211,0.0197587,2.92581,5,0.1,5,0.2,1.61023,-4.01485,0.686825,-0.185347,0.0269771,0.00238568,-1.39016,0.202656,0.0178516,0.0145762,2.92579,5,0.1,6,0.2,1.77224,4.0407,0.570361,-0.187311,0.000452995,0.00143349,-1.40482,0.00333786,0.0107586,0.0165017,2.9258,5,0.1,7,0.2,-1.41865,-4.0632,0.552747,-0.0102699,0.187016,0.00209808,-0.0770092,1.40285,0.0157058,0.0147452,2.9259,5,0.1,8,0.2,-1.35407,-0.392048,0.535076,0.187173,0.00603646,0.00425875,1.40369,0.0452697,0.0318885,0.00827704,2.9258,5,0.1,9,0.2,-1.10362,4.20698,0.505638,0.00505745,-0.168729,-0.00459701,0.0379682,-1.26553,-0.0344515,0.00837236,3.14363,5,0.1,10,0.2,-3.885,0.682216,0.530175,0.0693262,0.0629887,0.00658631,0.519991,0.472426,0.0494123,0.0127422,0.724125,5,0.1,11,0.2,-2.13266,-3.69383,0.655052,0.045526,0.0512958,-0.00519305,0.341535,0.384808,-0.0389516,0.00747904,0.388531,5,0.1,12,0.2,4.30409,-2.10727,0.578543,-0.0361323,0.183797,0.00077188,-0.271082,1.37842,0.00581145,0.0198531,2.9258,5,0.1,13,0.2,4.16303,-1.10787,0.637748,-0.065279,0.036779,0.00464171,-0.489712,0.27585,0.0348687,0.0074812,0.462862,5,0.1,14,0.2,-0.851587,-3.40851,0.580054,-0.0261709,0.185478,0.000654161,-0.196278,1.39105,0.00488758,0.0177879,2.9258,5,0.1,15,0.2,3.63544,2.06971,0.631666,-0.0457883,0.08775,-0.00298768,-0.343442,0.658154,-0.0223815,0.016373,0.805276,5,0.1,16,0.2,-2.73185,-4.11508,0.509091,-0.0535905,0.119328,-0.00557452,-0.401855,0.895023,-0.0417829,0.00812522,1.40791,5,0.1,17,0.2,-2.65634,3.82134,0.655377,0.0807703,-0.148213,-0.00522435,0.605941,-1.11175,-0.0391304,0.0182644,2.34218,5,0.1,18,0.2,0.345796,-0.973655,0.600159,-0.0609145,0.0776917,-1.49012e-05,-0.45687,0.582665,-0.000119209,0.0127174,0.800431,5,0.1,19,0.2,0.0559135,3.79171,0.650263,0.181956,-0.0444055,-0.0028193,1.36467,-0.333071,-0.0211298,0.0169892,2.92579,5,0.1,20,0.2,-2.07493,3.68777,0.643524,0.025934,-0.135612,-0.00410527,0.19443,-1.01721,-0.0307858,0.0149842,1.56706,5,0.1,21,0.2,1.74853,-0.426769,0.648148,-0.059703,0.1775,-0.00411421,-0.44781,1.33127,-0.030905,0.0278417,2.92579,5,0.1,22,0.2,4.29621,0.522058,0.590561,0.00510216,0.106004,0.00591576,0.0386238,0.795037,0.0443459,0.0113015,0.92784,5,0.1,23,0.2,-3.65642,-2.84768,0.512305,0.0477672,0.112969,-0.00587702,0.358343,0.84734,-0.0440776,0.0235144,1.23834,5,0.1,24,0.2,4.37907,-4.31094,0.579387,-0.0273466,0.185311,0.000523031,-0.205278,1.38974,0.0039041,0.0147387,2.9258,5,0.1,25,0.2,-0.913055,0.300236,0.587117,0.0826448,0.145482,-0.00776798,0.619859,1.09114,-0.0582635,0.00903304,2.30408,5,0.1,26,0.2,-4.02391,-2.28174,0.538262,0.139344,0.125134,0.00362396,1.04499,0.938296,0.0271797,0.0157845,2.92582,5,0.1,27,0.2,-1.48889,3.20534,0.62689,0.00709891,-0.187171,-0.00184327,0.0532269,-1.40393,-0.0138581,0.0112828,2.92578,5,0.1,28,0.2,-0.753831,-0.954248,0.551248,-0.172983,0.0104576,0.0119641,-1.29738,0.0784397,0.0897348,0.0104827,2.47818,5,0.1,29,0.2,2.10624,1.2057,0.627007,-0.085485,-0.142026,-0.0025481,-0.640988,-1.06514,-0.0190735,0.0199585,2.25717,5,0.1
0,0.3,2.14395,-1.18079,0.584759,-0.167884,0.263362,0.00271238,-0.828221,1.29927,0.0133961,0.0232775,2.31486,5,0.1,1,0.3,-3.95515,1.34286,0.599723,0.249904,0.00126529,5.13159e-05,1.23283,0.00622123,0.000264496,0.0129671,1.48208,5,0.1,2,0.3,3.60719,4.0368,0.692999,-0.188018,-0.211054,0.010137,-0.927508,-1.04111,0.0500046,0.0159789,1.89857,5,0.1,3,0.3,-4.09497,-0.821388,0.606073,0.328137,-0.118483,-0.000867713,1.62375,-0.586342,-0.00429526,0.0170701,2.92582,5,0.1,4,0.3,2.06364,-2.21412,0.635517,-0.271107,0.219546,-0.00407537,-1.34161,1.08641,-0.020165,0.0197587,2.92581,5,0.1,5,0.3,1.58397,-4.01103,0.687163,-0.345226,0.0502735,0.00443989,-1.70845,0.248909,0.0219606,0.0145762,2.92579,5,0.1,6,0.3,1.7457,4.04077,0.570564,-0.348878,0.00083819,0.00267057,-1.7265,0.00414252,0.0132136,0.0165017,2.9258,5,0.1,7,0.3,-1.42007,-4.03669,0.553037,-0.018101,0.348401,0.00369567,-0.0764057,1.72484,0.0155866,0.0147452,2.9259,5,0.1,8,0.3,-1.32754,-0.391193,0.535679,0.348614,0.011243,0.00792779,1.72516,0.0556391,0.0392199,0.00827704,2.9258,5,0.1,9,0.3,-1.10291,4.18461,0.505028,0.00941157,-0.270643,-0.00737291,0.0464469,-0.781327,-0.0212491,0.00837236,3.14363,5,0.1,10,0.3,-3.87518,0.691137,0.531107,0.128974,0.117181,0.0122538,0.636265,0.578087,0.060454,0.0127422,0.724125,5,0.1,11,0.3,-2.12621,-3.68656,0.654317,0.0847016,0.0954341,-0.00966098,0.417873,0.470832,-0.0476614,0.00747904,0.388531,5,0.1,12,0.3,4.29897,-2.08123,0.578653,-0.0673056,0.34233,0.00143955,-0.33313,1.69408,0.00713393,0.0198531,2.9258,5,0.1,13,0.3,4.15379,-1.10267,0.638406,-0.121453,0.068422,0.00863979,-0.599176,0.337541,0.0426359,0.0074812,0.462862,5,0.1,14,0.3,-0.855296,-3.38222,0.580147,-0.0487449,0.345463,0.00121696,-0.241227,1.70958,0.00601634,0.0177879,2.9258,5,0.1,15,0.3,3.62895,2.08214,0.631243,-0.0851836,0.163246,-0.0055558,-0.420228,0.805348,-0.0273995,0.016373,0.805276,5,0.1,16,0.3,-2.73944,-4.09818,0.508332,-0.0996903,0.221995,-0.0094885,-0.491798,1.09521,-0.035502,0.00812522,1.40791,5,0.1,17,0.3,-2.6449,3.80035,0.654637,0.150273,-0.275737,-0.00971453,0.741377,-1.36034,-0.047911,0.0182644,2.34218,5,0.1,18,0.3,0.337168,-0.962651,0.600157,-0.113322,0.144531,-2.83122e-05,-0.559056,0.713006,-0.000141561,0.0127174,0.800431,5,0.1,19,0.3,0.0816983,3.78541,0.649863,0.338905,-0.0827111,-0.00524996,1.67714,-0.409305,-0.0259764,0.0169892,2.92579,5,0.1,20,0.3,-2.07125,3.66856,0.642943,0.0482399,-0.252296,-0.00763685,0.237957,-1.24468,-0.0376776,0.0149842,1.56706,5,0.1,21,0.3,1.74007,-0.401615,0.647564,-0.111204,0.330607,-0.00766721,-0.55033,1.63609,-0.0379533,0.0278417,2.92579,5,0.1,22,0.3,4.29694,0.537072,0.591399,0.00952259,0.197203,0.0110032,0.0471175,0.972863,0.0542775,0.0113015,0.92784,5,0.1,23,0.3,-3.64966,-2.83168,0.511482,0.0888702,0.210166,-0.0106663,0.438467,1.03685,-0.0491887,0.0235144,1.23834,5,0.1,24,0.3,4.37519,-4.28468,0.579462,-0.0509501,0.345147,0.000972673,-0.252187,1.70803,0.00480562,0.0147387,2.9258,5,0.1,25,0.3,-0.90135,0.320841,0.586017,0.153749,0.270647,-0.0144511,0.758491,1.33519,-0.0712946,0.00903304,2.30408,5,0.1,26,0.3,-4.00416,-2.26401,0.538776,0.259531,0.233053,0.00674985,1.28432,1.15326,0.033401,0.0157845,2.92582,5,0.1,27,0.3,-1.48789,3.17882,0.626629,0.0132209,-0.34863,-0.00343602,0.0654235,-1.72533,-0.0170171,0.0112828,2.92578,5,0.1,28,0.3,-0.778331,-0.952767,0.552942,-0.321807,0.0194554,0.0222575,-1.58757,0.0959821,0.109807,0.0104827,2.47818,5,0.1,29,0.3,2.09413,1.18558,0.626646,-0.159017,-0.264211,-0.00473727,-0.784442,-1.3034,-0.023365,0.0199585,2.25717,5,0.1
0,0.4,2.12309,-1.14807,0.585096,-0.247598,0.388402,0.00400245,-0.730515,1.1462,0.0117719,0.0264567,1.83154,5,0.1,1,0.4,-3.92411,1.34302,0.599729,0.368553,0.00186861,7.59959e-05,1.08755,0.00542402,0.000238419,0.0124124,1.83076,5,0.1,2,0.4,3.58383,4.01058,0.694258,-0.277281,-0.311261,0.0149488,-0.818372,-0.918388,0.0441372,0.0136576,1.50219,5,0.1,3,0.4,-4.05418,-0.836118,0.605965,0.484598,-0.174975,-0.0012815,1.43552,-0.518411,-0.00378489,0.0131153,2.51012,5,0.1,4,0.4,2.02993,-2.18683,0.63501,-0.400376,0.324225,-0.00601858,-1.18607,0.960588,-0.0178218,0.0202963,2.5101,5,0.1,5,0.4,1.54105,-4.00477,0.687715,-0.509828,0.0742435,0.00655651,-1.51056,0.22018,0.0194013,0.0215741,2.51357,5,0.1,6,0.4,1.70233,4.04087,0.570896,-0.515223,0.00123978,0.00394434,-1.52653,0.00357628,0.0116825,0.0119668,2.51566,5,0.1,7,0.4,-1.42224,-3.99337,0.55348,-0.0250041,0.514603,0.00510514,-0.0593662,1.5254,0.0120997,0.0146892,2.51552,5,0.1,8,0.4,-1.2842,-0.389795,0.536665,0.514829,0.0166044,0.0117078,1.5254,0.0491738,0.0346601,0.0102985,2.51551,5,0.1,9,0.4,-1.10174,4.15437,0.504205,0.0138819,-0.326848,-0.00888854,0.0408888,-0.352144,-0.00929832,0.0109528,3.02328,5,0.1,10,0.4,-3.85915,0.705694,0.53263,0.19021,0.172816,0.0180721,0.561357,0.509977,0.0533164,0.0152401,0.572934,5,0.1,11,0.4,-2.11569,-3.67471,0.653117,0.124913,0.140744,-0.0142485,0.368714,0.415444,-0.0420213,0.0097841,0.307406,5,0.1,12,0.4,4.2906,-2.03867,0.578831,-0.0993967,0.505549,0.00212491,-0.294447,1.49792,0.00634789,0.022344,2.51228,5,0.1,13,0.4,4.1387,-1.09417,0.639479,-0.179112,0.100908,0.0127435,-0.528812,0.297725,0.0375807,0.00845435,0.366218,5,0.1,14,0.4,-0.861356,-3.33927,0.580298,-0.071986,0.51018,0.00179559,-0.213295,1.51157,0.00536442,0.0233821,2.51371,5,0.1,15,0.4,3.61837,2.10242,0.630553,-0.125629,0.240749,-0.00819266,-0.370741,0.710607,-0.0241995,0.0188411,0.63714,5,0.1,16,0.4,-2.75183,-4.0706,0.507223,-0.147021,0.327396,-0.0125095,-0.433922,0.966072,-0.0242889,0.0115103,1.11444,5,0.1,17,0.4,-2.62624,3.76609,0.653431,0.221628,-0.406659,-0.014326,0.653863,-1.19996,-0.0422895,0.0189057,1.85315,5,0.1,18,0.4,0.32309,-0.944696,0.600153,-0.167124,0.213149,-4.17233e-05,-0.493228,0.629038,-0.000119209,0.0169956,0.63331,5,0.1,19,0.4,0.123832,3.77513,0.649211,0.500494,-0.122148,-0.00775307,1.48288,-0.361919,-0.0229478,0.0159186,2.51112,5,0.1,20,0.4,-2.06526,3.63722,0.641994,0.0711381,-0.372082,-0.0112623,0.210047,-1.09804,-0.0332594,0.0157759,1.23987,5,0.1,21,0.4,1.72624,-0.360513,0.646611,-0.164223,0.48824,-0.0113234,-0.486672,1.4466,-0.0335574,0.0200795,2.51007,5,0.1,22,0.4,4.29812,0.56157,0.592766,0.0140548,0.290829,0.0162274,0.0412464,0.858307,0.0478923,0.00942269,0.734117,5,0.1,23,0.4,-3.63862,-2.80557,0.510178,0.131065,0.309944,-0.0152811,0.386715,0.914812,-0.0412464,0.0209644,0.980214,5,0.1,24,0.4,4.36886,-4.24177,0.579582,-0.0752449,0.509715,0.00143647,-0.22316,1.5099,0.00423193,0.0138536,2.51355,5,0.1,25,0.4,-0.88225,0.354464,0.584221,0.226745,0.399144,-0.0213116,0.669152,1.17794,-0.0629127,0.00935756,1.82301,5,0.1,26,0.4,-3.97189,-2.23503,0.539615,0.383276,0.344169,0.00996739,1.13547,1.01972,0.0295639,0.0166608,2.51011,5,0.1,27,0.4,-1.48624,3.13547,0.626202,0.0195235,-0.514859,-0.00507534,0.0578761,-1.5254,-0.0150204,0.00741992,2.51549,5,0.1,28,0.4,-0.818308,-0.95035,0.555707,-0.474593,0.0286922,0.0328243,-1.40059,0.0846684,0.0968874,0.00849958,1.96077,5,0.1,29,0.4,2.07438,1.15276,0.626057,-0.234509,-0.38965,-0.00698566,-0.692248,-1.14989,-0.0205934,0.0197157,1.7859,5,0.1
0,0.5,2.09461,-1.1034,0.585556,-0.321719,0.504695,0.00519725,-0.715524,1.12262,0.0115372,0.0264567,1.83154,5,0.1,1,0.5,-3.8814,1.34323,0.599738,0.487789,0.00242162,9.94653e-05,1.22328,0.00535697,0.000223517,0.0124124,1.83076,5,0.1,2,0.5,3.55193,3.97478,0.695978,-0.360312,-0.404448,0.0194268,-0.801519,-0.899628,0.0432283,0.0136576,1.50219,5,0.1,3,0.5,-3.99834,-0.856281,0.605818,0.632326,-0.228322,-0.00167144,1.44306,-0.521079,-0.00381097,0.0131153,2.51012,5,0.1,4,0.5,1.9838,-2.14946,0.634316,-0.522432,0.423076,-0.00785254,-1.19226,0.965551,-0.0179186,0.0202963,2.5101,5,0.1,5,0.5,1.48248,-3.99622,0.688471,-0.65983,0.0968933,0.00855392,-1.41968,0.221193,0.0195168,0.0215741,2.51357,5,0.1,6,0.5,1.64319,4.04101,0.571351,-0.665439,0.00161082,0.00514649,-1.40984,0.00363588,0.0117421,0.0119668,2.51566,5,0.1,7,0.5,-1.42503,-3.9343,0.554051,-0.0308093,0.664836,0.00628904,-0.0540614,1.41114,0.0110269,0.0146892,2.51552,5,0.1,8,0.5,-1.22511,-0.387882,0.538014,0.665033,0.0216651,0.0152756,1.41057,0.0494383,0.0348538,0.0102985,2.51551,5,0.1,9,0.5,-1.10014,4.12093,0.503293,0.0180317,-0.33337,-0.00914652,0.0400618,0.167012,0.00331551,0.0109528,3.02328,5,0.1,10,0.5,-3.83728,0.725572,0.534708,0.247164,0.224559,0.0234817,0.549793,0.499494,0.0522248,0.0152401,0.572934,5,0.1,11,0.5,-2.10132,-3.65852,0.651478,0.16232,0.182893,-0.0185123,0.361085,0.406846,-0.0411645,0.0097841,0.307406,5,0.1,12,0.5,4.27915,-1.98056,0.579077,-0.129697,0.655381,0.00277674,-0.295997,1.4275,0.00635162,0.022344,2.51228,5,0.1,13,0.5,4.11809,-1.08256,0.640945,-0.232761,0.131117,0.0165565,-0.517845,0.291623,0.0368133,0.00845435,0.366218,5,0.1,14,0.5,-0.869652,-3.28068,0.580505,-0.0939346,0.660194,0.00234675,-0.214387,1.41902,0.00537932,0.0233821,2.51371,5,0.1,15,0.5,3.60392,2.13011,0.629611,-0.163244,0.312845,-0.0106479,-0.363126,0.695929,-0.0236966,0.0188411,0.63714,5,0.1,16,0.5,-2.76874,-4.03294,0.505887,-0.191046,0.425416,-0.0138699,-0.425011,0.946224,-0.00398234,0.0115103,1.11444,5,0.1,17,0.5,-2.60074,3.71932,0.651783,0.287971,-0.528408,-0.018617,0.640452,-1.17528,-0.0414252,0.0189057,1.85315,5,0.1,18,0.5,0.303867,-0.920179,0.600148,-0.217166,0.276972,-5.39236e-05,-0.483071,0.6161,-0.000122935,0.0169956,0.63331,5,0.1,19,0.5,0.181403,3.76106,0.648317,0.65012,-0.15939,-0.0101153,1.4367,-0.363782,-0.0230744,0.0159186,2.51112,5,0.1,20,0.5,-2.05708,3.59442,0.640699,0.0924483,-0.483489,-0.0146363,0.205696,-1.07545,-0.0325665,0.0157759,1.23987,5,0.1,21,0.5,1.70732,-0.30425,0.645306,-0.2143,0.637099,-0.0147758,-0.489123,1.45403,-0.0337213,0.0200795,2.51007,5,0.1,22,0.5,4.29974,0.595023,0.594632,0.0182427,0.377912,0.0210866,0.0404418,0.840634,0.0469089,0.00942269,0.734117,5,0.1,23,0.5,-3.62354,-2.76992,0.508492,0.170302,0.402758,-0.0179756,0.378758,0.895947,-0.0138469,0.0209644,0.980214,5,0.1,24,0.5,4.36018,-4.18322,0.579748,-0.0982031,0.659694,0.0018727,-0.224173,1.41984,0.00426173,0.0138536,2.51355,5,0.1,25,0.5,-0.856169,0.400375,0.58177,0.294637,0.518657,-0.0276944,0.655383,1.1537,-0.0616163,0.00935756,1.82301,5,0.1,26,0.5,-3.92773,-2.19537,0.540764,0.500124,0.449103,0.0130089,1.14137,1.02501,0.0297055,0.0166608,2.51011,5,0.1,27,0.5,-1.48399,3.07638,0.625617,0.0254784,-0.665059,-0.00662096,0.0581592,-1.4105,-0.0150949,0.00741992,2.51549,5,0.1,28,0.5,-0.872899,-0.94705,0.559483,-0.616697,0.0372827,0.0426541,-1.37178,0.082925,0.0948869,0.00849958,1.96077,5,0.1,29,0.5,2.0474,1.10794,0.625254,-0.304742,-0.506319,-0.00907602,-0.677958,-1.12626,-0.0201873,0.0197157,1.7859,5,0.1
0,0.6,2.05913,-1.04774,0.586129,-0.384516,0.603211,0.00620931,-0.514746,0.807613,0.00831485,0.0233323,1.36354,5,0.1,1,0.6,-3.82678,1.3435,0.599749,0.600475,0.00289381,0.000119209,0.977039,0.0038147,0.000149012,0.0125978,1.40602,5,0.1,2,0.6,3.5122,3.93017,0.69812,-0.43065,-0.4834,0.0232205,-0.576615,-0.647187,0.0310838,0.0168133,1.12923,5,0.1,3,0.6,-3.92839,-0.881538,0.605633,0.760233,-0.274508,-0.00200868,1.06132,-0.383168,-0.00283122,0.0127832,2.27894,5,0.1,4,0.6,1.926,-2.10266,0.633448,-0.628108,0.50866,-0.00943989,-0.876844,0.710011,-0.0131726,0.0222875,2.21919,5,0.1,5,0.6,1.41002,-3.9855,0.689417,-0.782177,0.116491,0.0102848,-0.981271,0.162721,0.0143647,0.0137595,2.32463,5,0.1,6,0.6,1.57024,4.04119,0.57192,-0.786003,0.00193119,0.00618696,-0.957429,0.0026226,0.00864267,0.0100971,2.33498,5,0.1,7,0.6,-1.42836,-3.8614,0.554729,-0.0353664,0.785601,0.00721812,-0.0351667,0.960112,0.00721216,0.0131935,2.33422,5,0.1,8,0.6,-1.1522,-0.385485,0.539704,0.785726,0.0260465,0.0183657,0.959158,0.0363737,0.0256598,0.00871348,2.33498,5,0.1,9,0.6,-1.09815,4.08892,0.50241,0.0215471,-0.302899,-0.00837594,0.0288486,0.402212,0.0114143,0.00816219,2.87302,5,0.1,10,0.6,-3.81002,0.750337,0.537298,0.295413,0.268392,0.0280648,0.395536,0.359327,0.0375509,0.0115579,0.426534,5,0.1,11,0.6,-2.08342,-3.63835,0.649436,0.194007,0.218594,-0.0221252,0.259757,0.292659,-0.0296235,0.00871131,0.228849,5,0.1,12,0.6,4.2648,-1.90847,0.579384,-0.155938,0.779149,0.00333935,-0.217438,0.999987,0.00467896,0.0197846,2.31677,5,0.1,13,0.6,4.09242,-1.0681,0.642771,-0.278199,0.15671,0.0197858,-0.37241,0.209749,0.0264943,0.0131518,0.272633,5,0.1,14,0.6,-0.880043,-3.20818,0.580765,-0.112937,0.78243,0.00282377,-0.157624,0.979543,0.00393391,0.0190179,2.32529,5,0.1,15,0.6,3.58592,2.16461,0.628437,-0.195104,0.373918,-0.0127271,-0.261307,0.50056,-0.0170469,0.0191397,0.474329,5,0.1,16,0.6,-2.78981,-3.98603,0.504506,-0.228339,0.508451,-0.0135064,-0.305772,0.680685,0.0103116,0.0096798,0.830275,5,0.1,17,0.6,-2.56899,3.66104,0.649729,0.344175,-0.631547,-0.0222519,0.460744,-0.845551,-0.0298023,0.0193195,1.38377,5,0.1,18,0.6,0.279917,-0.889634,0.600142,-0.259558,0.331037,-6.4075e-05,-0.34751,0.44325,-5.96046e-05,0.0159456,0.471484,5,0.1,19,0.6,0.253035,3.74342,0.647198,0.77556,-0.191629,-0.0121608,1.02228,-0.267625,-0.0169873,0.0215191,2.30779,5,0.1,20,0.6,-2.04688,3.5411,0.639084,0.110495,-0.577867,-0.0174955,0.148058,-0.773668,-0.0233948,0.0176698,0.923054,5,0.1,21,0.6,1.68361,-0.233774,0.643672,-0.257653,0.765974,-0.0177637,-0.359654,1.06929,-0.0247955,0.0224169,2.25362,5,0.1,22,0.6,4.30175,0.6367,0.596958,0.0217915,0.451683,0.0252038,0.0288486,0.604719,0.0337362,0.00974582,0.546531,5,0.1,23,0.6,-3.60476,-2.7255,0.506663,0.203538,0.481379,-0.0182807,0.272512,0.644565,0.00667572,0.0252428,0.730299,5,0.1,24,0.6,4.34932,-4.11076,0.579955,-0.118065,0.782073,0.00225157,-0.164986,0.982046,0.00312924,0.0194452,2.32446,5,0.1,25,0.6,-0.823675,0.457574,0.578716,0.35215,0.6199,-0.0330999,0.471473,0.829949,-0.0443459,0.00911066,1.35719,5,0.1,26,0.6,-3.8724,-2.14569,0.542203,0.601292,0.539953,0.0156417,0.839353,0.75388,0.0218153,0.0205527,2.21918,5,0.1,27,0.6,-1.48118,3.00346,0.624885,0.0306338,-0.785738,-0.00795871,0.0427961,-0.959158,-0.0110865,0.00993513,2.33425,5,0.1,28,0.6,-0.94091,-0.942938,0.564187,-0.737078,0.0445604,0.0509799,-0.986785,0.0596642,0.0682771,0.00937795,1.47387,5,0.1,29,0.6,2.01379,1.0521,0.624253,-0.364235,-0.605154,-0.010848,-0.487685,-0.810206,-0.0145137,0.0255584,1.32956,5,0.1
0,0.7,2.01815,-0.983447,0.586791,-0.433935,0.680744,0.00700727,-0.445373,0.698738,0.00718981,0.0233323,1.36354,5,0.1,1,0.7,-3.7618,1.34381,0.599762,0.698219,0.00326186,0.000133272,0.920907,0.00333786,0.000122935,0.0125978,1.40602,5,0.1,2,0.7,3.46661,3.87865,0.700595,-0.477161,-0.545536,0.0262047,-0.341639,-0.560001,0.0268929,0.0168133,1.12923,5,0.1,3,0.7,-3.84798,-0.91093,0.605417,0.838578,-0.312972,-0.00229254,0.507742,-0.361849,-0.00266731,0.0127832,2.27894,5,0.1,4,0.7,1.85875,-2.0482,0.632437,-0.716129,0.579935,-0.0107622,-0.828065,0.670537,-0.0124425,0.0222875,2.21919,5,0.1,5,0.7,1.32795,-3.97303,0.690518,-0.849217,0.132817,0.0117267,-0.383548,0.153512,0.0135675,0.0137595,2.32463,5,0.1,6,0.7,1.48792,4.0414,0.572582,-0.850542,0.00219718,0.0070543,-0.360802,0.0025332,0.00815466,0.0100971,2.33498,5,0.1,7,0.7,-1.43207,-3.7791,0.555487,-0.0388157,0.850407,0.00792528,-0.0313371,0.363156,0.00642613,0.0131935,2.33422,5,0.1,8,0.7,-1.06989,-0.382605,0.541663,0.850444,0.0322729,0.0207429,0.362456,0.080131,0.0207014,0.00871348,2.33498,5,0.1,9,0.7,-1.09585,4.06108,0.501638,0.0243172,-0.251551,-0.00699107,0.0249594,0.546515,0.0157058,0.00816219,2.87302,5,0.1,10,0.7,-3.77853,0.778942,0.540289,0.333384,0.302889,0.0316702,0.34222,0.31089,0.032492,0.0115579,0.426534,5,0.1,11,0.7,-2.06275,-3.61505,0.647078,0.218944,0.246689,-0.0249692,0.224724,0.253186,-0.0256263,0.00871131,0.228849,5,0.1,12,0.7,4.2481,-1.82661,0.579741,-0.177766,0.848164,0.00380827,-0.205338,0.401564,0.00439957,0.0197846,2.31677,5,0.1,13,0.7,4.06277,-1.0514,0.64488,-0.313951,0.176847,0.0223292,-0.322223,0.181496,0.022918,0.0131518,0.272633,5,0.1,14,0.7,-0.892135,-3.12609,0.581067,-0.128759,0.849301,0.00321865,-0.148825,0.382081,0.00371039,0.0190179,2.32529,5,0.1,15,0.7,3.56512,2.20446,0.62708,-0.220188,0.421972,-0.0143636,-0.226051,0.433072,-0.0147447,0.0191397,0.474329,5,0.1,16,0.7,-2.81415,-3.93184,0.503226,-0.257694,0.573801,-0.011941,-0.26454,0.588953,0.0200346,0.0096798,0.830275,5,0.1,17,0.7,-2.53249,3.59377,0.647359,0.383085,-0.7115,-0.0250862,0.303999,-0.709817,-0.0253059,0.0193195,1.38377,5,0.1,18,0.7,0.252253,-0.854352,0.600136,-0.29292,0.37359,-7.03149e-05,-0.300659,0.383489,-6.33299e-05,0.0159456,0.471484,5,0.1,19,0.7,0.33466,3.72291,0.645896,0.846919,-0.218488,-0.013866,0.422923,-0.252604,-0.0160374,0.0215191,2.30779,5,0.1,20,0.7,-2.03511,3.47951,0.63722,0.124708,-0.652142,-0.0197418,0.128061,-0.66939,-0.0202507,0.0176698,0.923054,5,0.1,21,0.7,1.65603,-0.152821,0.64177,-0.293642,0.843278,-0.0202444,-0.337593,0.483065,-0.0232719,0.0224169,2.25362,5,0.1,22,0.7,4.30407,0.68484,0.599644,0.0245668,0.509738,0.028443,0.0250041,0.523202,0.0291988,0.00974582,0.546531,5,0.1,23,0.7,-3.58307,-2.67419,0.504898,0.2297,0.543257,-0.0167551,0.235766,0.557631,0.0224821,0.0252428,0.730299,5,0.1,24,0.7,4.33668,-4.0287,0.580196,-0.134619,0.849183,0.00256626,-0.155658,0.384107,0.00296906,0.0194452,2.32446,5,0.1,25,0.7,-0.786143,0.523643,0.575188,0.397413,0.699578,-0.0373567,0.407912,0.718063,-0.0383593,0.00911066,1.35719,5,0.1,26,0.7,-3.80802,-2.08788,0.543878,0.68555,0.615627,0.0178318,0.792682,0.711888,0.0206083,0.0205527,2.21918,5,0.1,27,0.7,-1.4779,2.92115,0.624033,0.0349287,-0.850452,-0.00907192,0.0403821,-0.362337,-0.0104718,0.00993513,2.33425,5,0.1,28,0.7,-1.01898,-0.938189,0.56962,-0.818103,0.0502884,0.0575341,-0.613283,0.0516176,0.0590608,0.00937795,1.47387,5,0.1,29,0.7,1.97497,0.987604,0.623097,-0.411054,-0.682937,-0.012242,-0.421926,-0.700992,-0.0125654,0.0255584,1.32956,5,0.1
0,0.8,1.97284,-0.912356,0.587523,-0.468856,0.735527,0.00757128,-0.233829,0.366926,0.00378489,0.0292341,1.47061,5,0.1,1,0.8,-3.68785,1.34415,0.599776,0.775021,0.00352263,0.000143051,0.575662,0.00184774,5.96046e-05,0.0171931,1.06113,5,0.1,2,0.8,3.41765,3.82168,0.703332,-0.497162,-0.589448,0.0283137,-0.0523329,-0.29397,0.0141263,0.0183425,0.905104,5,0.1,3,0.8,-3.76244,-0.943839,0.605176,0.864398,-0.34277,-0.00251234,0.0325441,-0.217378,-0.00160933,0.015407,2.18475,5,0.1,4,0.8,1.78345,-1.98722,0.631305,-0.784323,0.635156,-0.0117868,-0.497401,0.402749,-0.00748038,0.0225701,2.08977,5,0.1,5,0.8,1.24186,-3.95906,0.691751,-0.866026,0.145453,0.0128448,0,0.0921488,0.00813603,0.0154609,2.25554,5,0.1,6,0.8,1.40179,4.04163,0.573324,-0.866026,0.00240803,0.00772476,0,0.00143051,0.00491738,0.014227,2.27187,5,0.1,7,0.8,-1.43609,-3.69298,0.556307,-0.0412196,0.866026,0.00841767,-0.0149608,0,0.00306964,0.012916,2.27067,5,0.1,8,0.8,-0.98376,-0.378959,0.543825,0.866026,0.0406653,0.0223085,0,0.0816733,0.00986457,0.0105981,2.26981,5,0.1,9,0.8,-1.09332,4.03842,0.501021,0.0262737,-0.20529,-0.00534058,0.013113,0.339985,0.0168681,0.0106519,2.65565,5,0.1,10,0.8,-3.74372,0.810573,0.543596,0.360209,0.327264,0.0342175,0.179887,0.163257,0.0170767,0.0138633,0.301156,5,0.1,11,0.8,-2.03988,-3.58929,0.644471,0.236559,0.26654,-0.02698,0.118017,0.132918,-0.013411,0.0088077,0.161575,5,0.1,12,0.8,4.22941,-1.74056,0.580142,-0.194681,0.866026,0.00417084,-0.123262,0,0.0025928,0.0230762,2.25614,5,0.1,13,0.8,4.02999,-1.03293,0.647211,-0.339198,0.191078,0.024125,-0.169516,0.0953674,0.0120699,0.00872336,0.192494,5,0.1,14,0.8,-0.905674,-3.04,0.581406,-0.141013,0.866026,0.00352412,-0.0893772,0,0.00223517,0.0200428,2.25662,5,0.1,15,0.8,3.54213,2.24853,0.62558,-0.237912,0.455928,-0.0155196,-0.118732,0.227332,-0.0077486,0.0168335,0.334898,5,0.1,16,0.8,-2.84106,-3.87191,0.502141,-0.278437,0.619978,-0.00967383,-0.138879,0.309229,0.0244975,0.0130342,0.586953,5,0.1,17,0.8,-2.49301,3.51959,0.644742,0.402838,-0.766212,-0.0270501,0.0832081,-0.355244,-0.0129044,0.0180046,0.994829,5,0.1,18,0.8,0.221663,-0.815337,0.600128,-0.316492,0.403656,-7.45058e-05,-0.157886,0.201404,-2.98023e-05,0.0156763,0.332892,5,0.1,19,0.8,0.420662,3.69993,0.644438,0.866025,-0.239289,-0.0151873,1.43051e-05,-0.151753,-0.00962615,0.0171356,2.22827,5,0.1,20,0.8,-2.02208,3.41141,0.635158,0.134748,-0.704616,-0.0213295,0.067234,-0.351667,-0.0106394,0.0177399,0.651726,5,0.1,21,0.8,1.62516,-0.0669516,0.639642,-0.321364,0.866025,-0.022155,-0.201225,1.19209e-06,-0.0138581,0.0212983,1.70825,5,0.1,22,0.8,4.30663,0.738073,0.602614,0.026536,0.550757,0.0307307,0.013113,0.274748,0.015378,0.00975091,0.385881,5,0.1,23,0.8,-3.55908,-2.61746,0.503351,0.248188,0.586981,-0.0140339,0.123739,0.292659,0.030905,0.0244818,0.516339,5,0.1,24,0.8,4.32252,-3.94262,0.580466,-0.147438,0.866026,0.00281036,-0.0932217,0,0.00178814,0.016637,2.25521,5,0.1,25,0.8,-0.744641,0.596701,0.571287,0.429395,0.755876,-0.0403643,0.214189,0.377029,-0.0201166,0.0103113,0.958246,5,0.1,26,0.8,-3.73594,-2.02314,0.545753,0.750834,0.674257,0.019528,0.476003,0.427544,0.0123978,0.0180616,2.04275,5,0.1,27,0.8,-1.47422,2.83502,0.623079,0.0382543,-0.866026,-0.0099346,0.0242591,0,-0.00625849,0.0101836,2.27071,5,0.1,28,0.8,-1.10313,-0.932937,0.575629,-0.857455,0.0543341,0.0621662,-0.171423,0.0271499,0.0309646,0.0111593,1.07599,5,0.1,29,0.8,1.93205,0.916284,0.621818,-0.444135,-0.737898,-0.0132278,-0.221491,-0.368118,-0.00661612,0.0205872,1.01008,5,0.1
0,0.9,1.92483,-0.83674,0.588298,-0.490046,0.777666,0.00791429,-0.167519,0.420872,0.00270829,0.0292341,1.47061,5,0.1,1,0.9,-3.60813,1.34451,0.59979,0.812674,0.00369027,0.000148267,0.170365,0.0013411,3.72529e-05,0.0171931,1.06113,5,0.1,2,0.9,3.36848,3.76133,0.706231,-0.478905,-0.61609,0.0295936,0.387967,-0.210643,0.0101216,0.0183425,0.905104,5,0.1,3,0.9,-3.6759,-0.979246,0.604917,0.865924,-0.365232,-0.00267811,0.00406802,-0.208769,-0.00154227,0.015407,2.18475,5,0.1,4,0.9,1.7031,-1.92161,0.630088,-0.816719,0.676886,-0.0125615,-0.14063,0.388823,-0.00721961,0.0225701,2.08977,5,0.1,5,0.9,1.15526,-3.94404,0.693078,-0.866026,0.154973,0.0136859,0,0.0884533,0.00781938,0.0154609,2.25554,5,0.1,6,0.9,1.31518,4.04188,0.574122,-0.866026,0.00255927,0.00823177,0,0.00146031,0.00470132,0.014227,2.27187,5,0.1,7,0.9,-1.44029,-3.60638,0.557165,-0.042817,0.866026,0.00874484,-0.0145286,0,0.00297651,0.012916,2.27067,5,0.1,8,0.9,-0.897158,-0.374442,0.546105,0.866026,0.0499486,0.0232591,-3.72529e-06,0.097163,0.0079684,0.0105981,2.26981,5,0.1,9,0.9,-1.09063,4.01927,0.50057,0.0274619,-0.183532,-0.00369903,0.00939518,0.00423193,0.0156313,0.0106519,2.65565,5,0.1,10,0.9,-3.70684,0.844079,0.5471,0.376507,0.342057,0.0357649,0.128821,0.116944,0.0122301,0.0138633,0.301156,5,0.1,11,0.9,-2.01566,-3.562,0.641709,0.247251,0.278583,-0.028196,0.0845268,0.0951886,-0.00961125,0.0088077,0.161575,5,0.1,12,0.9,4.20954,-1.65396,0.580556,-0.200833,0.865807,0.00396529,-0.0013411,-0.00873208,-0.00593439,0.0230762,2.25614,5,0.1,13,0.9,3.99526,-1.01337,0.649682,-0.354555,0.199719,0.0252181,-0.121355,0.0683144,0.00863895,0.00872336,0.192494,5,0.1,14,0.9,-0.92024,-2.9534,0.58177,-0.150252,0.866026,0.003755,-0.0858977,0,0.00214204,0.0200428,2.25662,5,0.1,15,0.9,3.51777,2.29521,0.623991,-0.248669,0.476528,-0.0162214,-0.0850409,0.162855,-0.00555068,0.0168335,0.334898,5,0.1,16,0.9,-2.86956,-3.80844,0.501298,-0.291022,0.648,-0.00718329,-0.0994802,0.221506,0.0247359,0.0130342,0.586953,5,0.1,17,0.9,-2.45255,3.44133,0.641976,0.403984,-0.796932,-0.0281891,-0.0640303,-0.226066,-0.00865012,0.0180046,0.994829,5,0.1,18,0.9,0.189261,-0.774011,0.600121,-0.330799,0.421906,-7.73929e-05,-0.11309,0.144258,-2.6077e-05,0.0156763,0.332892,5,0.1,19,0.9,0.507264,3.67521,0.642869,0.866025,-0.254958,-0.0161817,1.78814e-06,-0.145555,-0.00924617,0.0171356,2.22827,5,0.1,20,0.9,-2.00829,3.33927,0.632975,0.14084,-0.736481,-0.0222935,0.0481382,-0.251874,-0.00761822,0.0177399,0.651726,5,0.1,21,0.9,1.59204,0.0196489,0.637359,-0.340451,0.865924,-0.0234694,-0.162758,-0.00407487,-0.0112094,0.0212983,1.70825,5,0.1,22,0.9,4.30935,0.794459,0.605761,0.0277266,0.575653,0.0321239,0.00941753,0.1968,0.011012,0.00975091,0.385881,5,0.1,23,0.9,-3.53367,-2.55737,0.502108,0.259401,0.613501,-0.010786,0.088647,0.20963,0.0331849,0.0244818,0.516339,5,0.1,24,0.9,4.3073,-3.85602,0.580756,-0.157082,0.866026,0.00299532,-0.089705,0,0.00172108,0.016637,2.25521,5,0.1,25,0.9,-0.70068,0.674087,0.567154,0.448804,0.790041,-0.042187,0.153419,0.270065,-0.0144094,0.0103113,0.958246,5,0.1,26,0.9,-3.65846,-1.95349,0.54777,0.797734,0.718554,0.0208121,0.416517,0.412732,0.0119582,0.0180616,2.04275,5,0.1,27,0.9,-1.47027,2.74842,0.622053,0.0407608,-0.866026,-0.0105825,0.023298,0,-0.00603124,0.0101836,2.27071,5,0.1,28,0.9,-1.18939,-0.927374,0.581993,-0.865104,0.0567938,0.0649723,-0.00597537,0.0194423,0.0221767,0.0111593,1.07599,5,0.1,29,0.9,1.88718,0.841267,0.620456,-0.447237,-0.756233,-0.0140507,0.143029,0.00338629,-0.00871718,0.0205872,1.01008,5,0.1
0,1,1.87525,-0.757149,0.589099,-0.498626,0.810337,0.00805259,0.0107288,0.193805,-0.000178814,0.0237677,1.05734,5,0.1,1,1,-3.52672,1.34488,0.599805,0.808322,0.00376105,0.000150502,-0.258207,0,-2.98023e-05,0.0149086,2.86716,5,0.1,2,1,3.32306,3.699,0.709225,-0.425053,-0.626886,0.0301123,0.663757,0.0135899,-0.000655651,0.0141026,0.736417,5,0.1,3,1,-3.5893,-1.01664,0.604642,0.866026,-0.38062,-0.00279099,0,-0.0830889,-0.000625849,0.0128579,1.90617,5,0.1,4,1,1.62138,-1.85228,0.628801,-0.81113,0.705642,-0.0130951,0.255704,0.156581,-0.00292063,0.0194674,2.28014,5,0.1,5,1,1.06866,-3.92817,0.694479,-0.866026,0.161487,0.0142634,2.98023e-05,0.0351667,0.00309944,0.0130779,2.25385,5,0.1,6,1,1.22858,4.04214,0.574965,-0.866026,0.00267029,0.00857711,5.96046e-05,0.000476837,0.00187755,0.011516,2.27321,5,0.1,7,1,-1.44463,-3.51977,0.558051,-0.043714,0.866026,0.00892878,-0.00166893,0,0.000357628,0.012349,2.35795,5,0.1,8,1,-0.810555,-0.368981,0.54846,0.866026,0.0589199,0.0237048,0,0.077337,0.000149012,0.0114545,2.32665,5,0.1,9,1,-1.08785,4,0.500274,0.0279427,-0.210702,-0.00226796,-0.000536442,-0.519156,0.0127852,0.0103208,2.28403,5,0.1,10,1,-3.66874,0.878688,0.550718,0.383109,0.348046,0.0363916,-0.00822544,-0.00748038,-0.00077486,0.0102728,0.20479,5,0.1,11,1,-1.99065,-3.53381,0.638856,0.251579,0.283462,-0.0286877,-0.00548363,-0.00631809,0.000625849,0.00794744,0.193537,5,0.1,12,1,4.18964,-1.5675,0.580914,-0.195336,0.862536,0.00312477,0.109196,-0.0698566,-0.0102818,0.0207072,2.28205,5,0.1,13,1,3.95939,-0.993159,0.652233,-0.360769,0.203219,0.0256598,0.00762939,-0.00432134,-0.000506639,0.00697362,0.130892,5,0.1,14,1,-0.935625,-2.8668,0.582154,-0.156586,0.866026,0.00391454,-0.0342131,0,0.000804663,0.0179535,2.25502,5,0.1,15,1,3.49261,2.34342,0.62235,-0.253028,0.484866,-0.016506,0.00548363,-0.0104904,0.000357628,0.0117791,0.227742,5,0.1,16,1,-2.89901,-3.74288,0.5007,-0.296116,0.659347,-0.004825,0.00631809,-0.0143051,0.0220239,0.00816735,0.568383,5,0.1,17,1,-2.41273,3.36094,0.639129,0.389558,-0.80595,-0.0285774,-0.225306,0.067234,0.00163913,0.0180089,0.707373,5,0.1,18,1,0.155791,-0.731322,0.600113,-0.336591,0.429295,-7.89762e-05,0.00726402,-0.00923872,0,0.0123991,0.226377,5,0.1,19,1,0.593867,3.64911,0.641212,0.866026,-0.265676,-0.0168622,0,-0.0578165,-0.00366569,0.0165098,2.22382,5,0.1,20,1,-1.99404,3.26475,0.630719,0.143304,-0.749385,-0.022684,-0.00309944,0.0162125,0.000476837,0.0142143,0.443187,5,0.1,21,1,1.55736,0.106188,0.634968,-0.350949,0.864395,-0.024192,-0.0352263,-0.0326014,-0.00241399,0.0181977,1.29022,5,0.1,22,1,4.31216,0.852704,0.609011,0.0282168,0.585733,0.0326887,-0.000715256,-0.0126362,-0.000685453,0.00923113,0.262414,5,0.1,23,1,-3.50742,-2.49529,0.501194,0.263941,0.624233,-0.00754595,-0.00572205,-0.0135899,0.0309646,0.0243508,0.351938,5,0.1,24,1,4.29121,-3.76941,0.581063,-0.163698,0.866026,0.00312328,-0.0357628,0,0.000685453,0.014142,2.25343,5,0.1,25,1,-0.65527,0.754023,0.562886,0.456662,0.803873,-0.0429243,-0.00989437,-0.017345,0.000923872,0.00877872,0.651646,5,0.1,26,1,-3.577,-1.8799,0.549901,0.82649,0.749075,0.0216961,0.127673,0.166237,0.00482798,0.0154153,2.26702,5,0.1,27,1,-1.4661,2.66182,0.620969,0.0424773,-0.866026,-0.0110269,0.00929832,0,-0.00238419,0.00802769,2.27059,5,0.1,28,1,-1.27574,-0.921628,0.588567,-0.859842,0.0577897,0.0661075,0.12356,-0.0012219,-0.00143051,0.00871944,0.781663,5,0.1,29,1,1.84365,0.766283,0.619012,-0.418699,-0.737284,-0.014776,0.412524,0.373036,-0.00503659,0.0183437,0.870746,5,0.1
0,1.1,1.82546,-0.675064,0.589903,-0.496444,0.831078,0.00801682,0.0511482,0.17754,-0.000827014,0.0237677,1.05734,5,0.1,1,1.1,-3.4483,1.34526,0.59982,0.749946,0.00368226,0.000144821,-0.860482,-0.00155717,-8.56817e-05,0.0149086,2.86716,5,0.1,2,1.1,3.28417,3.6364,0.712232,-0.350211,-0.624137,0.0299798,0.809819,0.0643283,-0.00309944,0.0141026,0.736417,5,0.1,3,1.1,-3.5027,-1.05516,0.60436,0.866026,-0.389617,-0.00285823,0,-0.0765771,-0.000573695,0.0128579,1.90617,5,0.1,4,1.1,1.54267,-1.78078,0.627474,-0.753333,0.724968,-0.0134548,0.842184,0.186965,-0.00347197,0.0194674,2.28014,5,0.1,5,1.1,0.982056,-3.91181,0.695924,-0.866025,0.165769,0.0146418,-3.72529e-06,0.0408143,0.00360981,0.0130779,2.25385,5,0.1,6,1.1,1.14198,4.04232,0.575833,-0.866025,0.000172853,0.00878358,-1.49012e-05,-0.0448823,0.00178441,0.011516,2.27321,5,0.1,7,1.1,-1.44902,-3.4338,0.558948,-0.044138,0.848186,0.0090166,-0.00433624,-0.318915,0.000890344,0.012349,2.35795,5,0.1,8,1.1,-0.72404,-0.362681,0.550835,0.862679,0.0671564,0.0238044,-0.0951439,0.081297,0.000655651,0.0114545,2.32665,5,0.1,9,1.1,-1.08506,3.9752,0.500105,0.0278257,-0.29431,-0.00117412,-0.00283122,-1.05692,0.00905618,0.0103208,2.28403,5,0.1,10,1.1,-3.63049,0.91344,0.554352,0.381432,0.346524,0.0362329,-0.0393391,-0.0357106,-0.00372529,0.0102728,0.20479,5,0.1,11,1.1,-1.96553,-3.50536,0.635992,0.250471,0.286648,-0.0285616,-0.0258684,0.0497699,0.00295043,0.00794744,0.193537,5,0.1,12,1.1,4.17091,-1.48131,0.581157,-0.176995,0.862963,0.00159377,0.245839,0.0352934,-0.0190251,0.0207072,2.28205,5,0.1,13,1.1,3.92336,-0.972867,0.654795,-0.359198,0.202334,0.0255506,0.0369847,-0.0208132,-0.0026077,0.00697362,0.130892,5,0.1,14,1.1,-0.951488,-2.7802,0.58255,-0.160763,0.866026,0.00401465,-0.0399351,0,0.00096485,0.0179535,2.25502,5,0.1,15,1.1,3.46734,2.39184,0.620702,-0.251916,0.482739,-0.0164337,0.0259876,-0.0497997,0.00169501,0.0117791,0.227742,5,0.1,16,1.1,-2.92858,-3.67688,0.50032,-0.294824,0.660896,-0.0028545,0.0303686,0.0112951,0.0172257,0.00816735,0.568383,5,0.1,17,1.1,-2.37498,3.28073,0.636281,0.364731,-0.797104,-0.0283463,-0.275344,0.136837,0.00399351,0.0180089,0.707373,5,0.1,18,1.1,0.122182,-0.688457,0.600105,-0.335115,0.427415,-7.8883e-05,0.0345557,-0.044059,3.72529e-06,0.0123991,0.226377,5,0.1,19,1.1,0.680469,3.6222,0.639504,0.866026,-0.272664,-0.0173058,-3.72529e-06,-0.0661612,-0.00420213,0.0165098,2.22382,5,0.1,20,1.1,-1.97973,3.18993,0.628454,0.142676,-0.746096,-0.0225857,-0.0147223,0.0769645,0.00232458,0.0142143,0.443187,5,0.1,21,1.1,1.52211,0.192615,0.632538,-0.353724,0.864786,-0.0243822,-0.00599027,0.00745654,-0.000402331,0.0181977,1.29022,5,0.1,22,1.1,4.31497,0.911189,0.612275,0.0280872,0.583167,0.0325467,-0.00292063,-0.0601299,-0.00334531,0.00923113,0.262414,5,0.1,23,1.1,-3.48107,-2.43296,0.500586,0.262783,0.621487,-0.00470011,-0.0271201,-0.0641644,0.0255741,0.0243508,0.351938,5,0.1,24,1.1,4.27463,-3.68281,0.581379,-0.168085,0.866026,0.00320738,-0.0420809,0,0.000808388,0.014142,2.25343,5,0.1,25,1.1,-0.609672,0.834289,0.5586,0.454658,0.80035,-0.0427362,-0.0469014,-0.0825152,0.00440329,0.00877872,0.651646,5,0.1,26,1.1,-3.495,-1.80473,0.552076,0.802029,0.748648,0.0216229,-0.571653,-0.173889,-0.00613183,0.0154153,2.26702,5,0.1,27,1.1,-1.46179,2.57522,0.619852,0.0436112,-0.866026,-0.0113193,0.0108331,0,-0.00280142,0.00802769,2.27059,5,0.1,28,1.1,-1.3613,-0.915857,0.595168,-0.852203,0.0575382,0.0658177,0.0720322,-0.00592321,-0.00678748,0.00871944,0.781663,5,0.1,29,1.1,1.8038,0.694119,0.61751,-0.378533,-0.708039,-0.0152388,0.397123,0.248883,-0.00351295,0.0183437,0.870746,5,0.1
0,1.2,1.77626,-0.591386,0.590697,-0.485373,0.838517,0.00783652,0.182331,-0.058502,-0.00292063,0.0223345,0.734552,5,0.1,1,1.2,-3.37827,1.34562,0.599834,0.645143,0.00345409,0.00013411,-1.19495,-0.00292063,-0.000119209,0.011378,3.30515,5,0.1,2,1.2,3.25328,3.57455,0.715203,-0.267237,-0.610214,0.0293106,0.831366,0.22912,-0.0109971,0.0179934,0.632571,5,0.1,3,1.2,-3.41609,-1.09436,0.604072,0.866026,-0.392517,-0.0028789,0,0.0324249,0.000208616,0.0121124,1.45686,5,0.1,4,1.2,1.47212,-1.70758,0.626116,-0.65293,0.735739,-0.0136554,1.12146,-0.00149012,2.98023e-05,0.0189972,2.52079,5,0.1,5,1.2,0.895453,-3.89509,0.697402,-0.866026,0.168014,0.0148401,0,-0.0025034,-0.000208616,0.0125657,2.25347,5,0.1,6,1.2,1.05538,4.04207,0.576717,-0.866026,-0.00532866,0.00885576,2.98023e-05,-0.0605583,-0.000655651,0.0129434,2.27221,5,0.1,7,1.2,-1.45344,-3.35087,0.559852,-0.0441611,0.807887,0.00902265,0.00554323,-0.468612,-0.00113249,0.0116991,2.4819,5,0.1,8,1.2,-0.638592,-0.355593,0.553211,0.842343,0.0741385,0.0236318,-0.329852,0.0540316,-0.00485778,0.0111837,2.68729,5,0.1,9,1.2,-1.0823,3.94024,0.500027,0.0272065,-0.405228,-0.000454485,-0.0101328,-1.08862,0.00542402,0.0081396,1.83633,5,0.1,10,1.2,-3.59269,0.947783,0.557943,0.372922,0.338794,0.0354245,-0.14019,-0.127256,-0.0132918,0.0105502,0.13617,5,0.1,11,1.2,-1.9407,-3.47649,0.633161,0.24488,0.289947,-0.0279248,-0.0920892,0.00154972,0.0104606,0.00843104,0.138989,5,0.1,12,1.2,4.15458,-1.39494,0.581216,-0.14832,0.862688,-0.000445545,0.31805,-0.0666976,-0.0207722,0.0196294,2.27279,5,0.1,13,1.2,3.88776,-0.952815,0.657328,-0.351185,0.197823,0.0249818,0.131845,-0.0742674,-0.00938773,0.0075649,0.147676,5,0.1,14,1.2,-0.96771,-2.69359,0.582955,-0.162981,0.866026,0.00406802,0.00214577,0,-5.96046e-05,0.018845,2.25462,5,0.1,15,1.2,3.44238,2.43968,0.619073,-0.246292,0.471967,-0.0160664,0.0925064,-0.177264,0.00602007,0.0119376,0.217801,5,0.1,16,1.2,-2.9578,-3.61092,0.500112,-0.288254,0.655854,-0.00139773,0.108361,-0.135779,0.0118613,0.00921647,0.574968,5,0.1,17,1.2,-2.33999,3.20199,0.633477,0.333887,-0.774103,-0.0276133,-0.343442,0.340819,0.0113249,0.0154575,0.507999,5,0.1,18,1.2,0.0889705,-0.646098,0.600097,-0.327639,0.417881,-7.7486e-05,0.123079,-0.156999,0,0.0131479,0.260653,5,0.1,19,1.2,0.767072,3.59469,0.637759,0.866026,-0.276244,-0.0175327,0,0.00572205,0.000327826,0.0145802,2.21675,5,0.1,20,1.2,-1.96559,3.11598,0.626216,0.13949,-0.729448,-0.0220835,-0.0523925,0.274062,0.00831485,0.0077095,0.40917,5,0.1,21,1.2,1.48685,0.278991,0.630107,-0.349769,0.860858,-0.0241071,0.0945926,-0.103354,0.00649691,0.0191039,0.945134,5,0.1,22,1.2,4.31776,0.968984,0.615501,0.0274539,0.570156,0.0318229,-0.010252,-0.214159,-0.0119805,0.00710551,0.174491,5,0.1,23,1.2,-3.45503,-2.37137,0.500232,0.25692,0.607622,-0.00248551,-0.0965595,-0.228405,0.0185072,0.0200031,0.234859,5,0.1,24,1.2,4.25766,-3.59621,0.581703,-0.170445,0.866026,0.00325292,0.00190735,0,-2.98023e-05,0.0133803,2.25294,5,0.1,25,1.2,-0.564613,0.913609,0.554364,0.444514,0.782494,-0.0417829,-0.167012,-0.29394,0.0157058,0.0103016,0.433311,5,0.1,26,1.2,-3.41849,-1.73129,0.554191,0.720567,0.71483,0.0205114,-1.019,-0.498056,-0.0159144,0.0158636,2.70362,5,0.1,27,1.2,-1.45739,2.48861,0.61871,0.0442117,-0.866026,-0.0114754,-0.000536442,0,0.000178814,0.0075521,2.27056,5,0.1,28,1.2,-1.44596,-0.910155,0.601691,-0.838181,0.0562549,0.0643477,0.23818,-0.0211298,-0.0241399,0.00993307,0.550639,5,0.1,29,1.2,1.76795,0.624603,0.615975,-0.338235,-0.681171,-0.0153631,0.412941,0.314802,0.00151992,0.0195109,0.663471,5,0.1
0,1.3,1.72862,-0.507775,0.591466,-0.467349,0.833325,0.00754725,0.193223,-0.0803061,-0.00310689,0.0223345,0.734552,5,0.1,1,1.3,-3.32024,1.34595,0.599847,0.511942,0.00315048,0.000121724,-1.40934,-0.00317395,-0.000130385,0.011378,3.30515,5,0.1,2,1.3,3.23066,3.51465,0.71808,-0.18615,-0.587565,0.0282233,0.773042,0.242814,-0.0116639,0.0179934,0.632571,5,0.1,3,1.3,-3.32949,-1.13348,0.603785,0.865778,-0.389631,-0.00286009,-0.00992417,0.0416264,0.000290573,0.0121124,1.45686,5,0.1,4,1.3,1.4129,-1.6338,0.624746,-0.529092,0.74098,-0.0137523,1.27355,0.0633225,-0.00116974,0.0189972,2.52079,5,0.1,5,1.3,0.808851,-3.87825,0.698889,-0.866026,0.168946,0.014924,3.72529e-06,0.0115186,0.00103191,0.0125657,2.25347,5,0.1,6,1.3,0.968773,4.0412,0.577601,-0.866025,-0.0124007,0.00884226,-3.72529e-06,-0.0764728,-8.56817e-05,0.0129434,2.27221,5,0.1,7,1.3,-1.45784,-3.2729,0.560751,-0.0439705,0.750573,0.00898363,0.000752509,-0.540227,-0.000160187,0.0116991,2.4819,5,0.1,8,1.3,-0.557054,-0.347892,0.555557,0.779405,0.0798989,0.0233061,-0.872074,0.0555106,-0.00284985,0.0111837,2.68729,5,0.1,9,1.3,-1.07963,3.8939,0.500003,0.0262029,-0.523457,-6.33299e-05,-0.0107884,-1.20296,0.0025779,0.0081396,1.83633,5,0.1,10,1.3,-3.55608,0.98104,0.56142,0.359065,0.326214,0.0341103,-0.148565,-0.134874,-0.0140928,0.0105502,0.13617,5,0.1,11,1.3,-1.91667,-3.44741,0.63042,0.235778,0.291774,-0.0268903,-0.0975728,0.0189692,0.0110939,0.00843104,0.138989,5,0.1,12,1.3,4.14104,-1.30873,0.581085,-0.125162,0.863249,-0.00199433,0.160307,0.0417084,-0.0106916,0.0196294,2.27279,5,0.1,13,1.3,3.85308,-0.933279,0.659795,-0.344016,0.193788,0.0244709,0.0357032,-0.020057,-0.00255555,0.0075649,0.147676,5,0.1,14,1.3,-0.984045,-2.60699,0.583363,-0.163937,0.866026,0.00409177,-0.0118576,0,0.000294298,0.018845,2.25462,5,0.1,15,1.3,3.41805,2.48601,0.617496,-0.241591,0.454444,-0.0154709,0.0190288,-0.187889,0.00638887,0.0119376,0.217801,5,0.1,16,1.3,-2.98609,-3.54578,0.500022,-0.277543,0.648548,-0.000481587,0.114828,-0.0475943,0.0066869,0.00921647,0.574968,5,0.1,17,1.3,-2.30825,3.12624,0.630771,0.301436,-0.740755,-0.0265045,-0.31282,0.349492,0.0117049,0.0154575,0.507999,5,0.1,18,1.3,0.0570758,-0.605092,0.6001,-0.307886,0.401946,0.000211131,0.265303,-0.173762,0.00513718,0.0131479,0.260653,5,0.1,19,1.3,0.853674,3.56691,0.636003,0.866026,-0.280683,-0.0176038,-3.72529e-06,-0.0718832,-0.000786036,0.0145802,2.21675,5,0.1,20,1.3,-1.95122,3.04535,0.624066,0.153583,-0.674832,-0.020748,0.286728,0.779554,0.017941,0.0077095,0.40917,5,0.1,21,1.3,1.45233,0.364799,0.627729,-0.34031,0.856511,-0.0234568,0.106305,-0.0299141,0.00731647,0.0191039,0.945134,5,0.1,22,1.3,4.32045,1.02495,0.618625,0.0264421,0.548984,0.0306389,-0.010848,-0.226986,-0.0126846,0.00710551,0.174491,5,0.1,23,1.3,-3.42981,-2.31173,0.500064,0.247375,0.585046,-0.00101142,-0.102296,-0.24201,0.0111833,0.0200031,0.234859,5,0.1,24,1.3,4.24058,-3.5096,0.582029,-0.171514,0.866026,0.00327397,-0.0133514,0,0.00026077,0.0133803,2.25294,5,0.1,25,1.3,-0.520979,0.990421,0.550263,0.428004,0.753437,-0.0402304,-0.176989,-0.311535,0.0166409,0.0103016,0.433311,5,0.1,26,1.3,-3.35209,-1.66271,0.556126,0.602948,0.652893,0.0178605,-1.29059,-0.727855,-0.0350997,0.0158636,2.70362,5,0.1,27,1.3,-1.45296,2.40201,0.61756,0.0444748,-0.866026,-0.011541,0.00324845,0,-0.00083074,0.0075521,2.27056,5,0.1,28,1.3,-1.52872,-0.904633,0.608007,-0.817424,0.0541657,0.0619608,0.211492,-0.0223964,-0.0255965,0.00993307,0.550639,5,0.1,29,1.3,1.73564,0.557868,0.614452,-0.312601,-0.654683,-0.0150592,0.135526,0.244662,0.0048168,0.0195109,0.663471,5,0.1
0,1.4,1.68297,-0.425113,0.592204,-0.444219,0.816596,0.00717491,0.279248,-0.277891,-0.00450015,0.0230128,0.516564,5,0.1,1,1.4,-3.27605,1.34625,0.599858,0.373358,0.00281334,0.000108778,-1.32132,-0.00351667,-0.000149012,0.0111135,3.58432,5,0.1,2,1.4,3.2157,3.45725,0.720837,-0.115442,-0.558496,0.0268266,0.630021,0.350952,-0.0168383,0.0165984,0.554328,5,0.1,3,1.4,-3.24305,-1.17211,0.603502,0.862056,-0.381458,-0.00279993,-0.0792742,0.132859,0.000923872,0.0128933,1.08248,5,0.1,4,1.4,1.36609,-1.55957,0.623369,-0.410789,0.741085,-0.0137538,1.04851,-0.0913739,0.00169873,0.0178158,1.33026,5,0.1,5,1.4,0.722248,-3.86134,0.700383,-0.866026,0.168675,0.0149012,0,-0.0237226,-0.00205636,0.0136042,2.2538,5,0.1,6,1.4,0.88217,4.03958,0.578483,-0.866026,-0.0198483,0.00876039,0,-0.0691414,-0.00193715,0.0106157,2.27139,5,0.1,7,1.4,-1.46223,-3.2,0.561647,-0.0435829,0.713116,0.00890493,0.00870228,-0.213742,-0.00181794,0.00965827,2.46642,5,0.1,8,1.4,-0.483988,-0.33966,0.557868,0.677866,0.0842787,0.0228584,-1.1162,0.0281334,-0.00697374,0.0132216,3.03779,5,0.1,9,1.4,-1.07707,3.83585,0.500006,0.0249088,-0.633258,9.38773e-05,-0.0156164,-0.940681,0.000715256,0.00962699,1.4029,5,0.1,10,1.4,-3.52101,1.0129,0.564752,0.341284,0.310069,0.0324234,-0.214577,-0.194967,-0.0203848,0.0100387,0.171916,5,0.1,11,1.4,-1.89363,-3.41822,0.627793,0.224105,0.291032,-0.0255615,-0.141025,-0.0451803,0.0160635,0.00792786,0.321801,5,0.1,12,1.4,4.12917,-1.22223,0.580846,-0.113535,0.866026,-0.00267476,0.0836849,0,-0.00333786,0.0204501,2.26674,5,0.1,13,1.4,3.81886,-0.914002,0.662229,-0.339884,0.191465,0.0241756,0.0644922,-0.0362098,-0.00458956,0.00765606,0.086445,5,0.1,14,1.4,-1.00046,-2.52039,0.583773,-0.163749,0.866026,0.0040859,0.0221133,0,-0.000506639,0.0186978,2.25488,5,0.1,15,1.4,3.39398,2.5304,0.615985,-0.239462,0.431949,-0.014706,0.036478,-0.27144,0.00923872,0.00990263,0.151762,5,0.1,16,1.4,-3.0132,-3.48126,0.500001,-0.263804,0.639981,-1.63913e-05,0.165939,-0.150323,0.00286102,0.00872639,0.497648,5,0.1,17,1.4,-2.27967,3.05408,0.628185,0.270104,-0.700325,-0.0251308,-0.318527,0.474572,0.0163317,0.0174755,0.365535,5,0.1,18,1.4,0.0278015,-0.565874,0.600151,-0.275883,0.381133,0.000835955,0.368369,-0.25031,0.00688434,0.0138589,0.239388,5,0.1,19,1.4,0.940277,3.53851,0.634243,0.866026,-0.286716,-0.0175267,0,-0.0326633,0.00295043,0.0138981,2.21277,5,0.1,20,1.4,-1.93419,2.98233,0.622094,0.188449,-0.580674,-0.0185847,0.374198,1.0711,0.0249147,0.00667768,0.256769,5,0.1,21,1.4,1.41893,0.450112,0.625426,-0.326559,0.846999,-0.0225112,0.176489,-0.192733,0.0121891,0.0191041,0.669379,5,0.1,22,1.4,4.32303,1.07858,0.621617,0.0251293,0.521815,0.0291198,-0.0154972,-0.328124,-0.0182986,0.00837439,0.114852,5,0.1,23,1.4,-3.40564,-2.25458,0.500008,0.235128,0.556087,-0.000199676,-0.14782,-0.349879,0.00533462,0.0180192,0.155445,5,0.1,24,1.4,4.2234,-3.423,0.582357,-0.171411,0.866026,0.00327229,0.0219345,0,-0.00038743,0.014954,2.25314,5,0.1,25,1.4,-0.479171,1.06402,0.546333,0.40682,0.716147,-0.0382379,-0.255808,-0.450253,0.0240207,0.00661356,0.286156,5,0.1,26,1.4,-3.29841,-1.60135,0.557718,0.469983,0.571746,0.0138521,-1.3361,-0.883102,-0.0434518,0.0167213,3.00491,5,0.1,27,1.4,-1.44851,2.31541,0.616405,0.0444233,-0.866026,-0.0115275,-0.00596046,0,0.00157952,0.0078664,2.27058,5,0.1,28,1.4,-1.60922,-0.899342,0.61406,-0.790069,0.051485,0.0588953,0.359297,-0.0323951,-0.0369847,0.00753565,0.378976,5,0.1,29,1.4,1.70484,0.493706,0.612977,-0.30483,-0.62719,-0.0143588,0.0472069,0.326008,0.00929832,0.0223209,0.500186,5,0.1
0,1.5,1.63982,-0.34517,0.592896,-0.419565,0.778897,0.00663605,0.230849,-0.479587,-0.00624359,0.0230128,0.516564,5,0.1,1,1.5,-3.2452,1.34651,0.599868,0.246844,0.00248179,9.49949e-05,-1.13717,-0.00317395,-0.00013411,0.0111135,3.58432,5,0.1,2,1.5,3.20708,3.40309,0.723438,-0.0597056,-0.525018,0.0252197,0.467137,0.334471,-0.016056,0.0165984,0.554328,5,0.1,3,1.5,-3.15694,-1.20962,0.603226,0.861683,-0.368853,-0.00271108,0.0211895,0.132568,0.000946224,0.0128933,1.08248,5,0.1,4,1.5,1.32993,-1.48531,0.621996,-0.315783,0.748395,-0.0137241,0.857063,0.172667,-0.000264496,0.0178158,1.33026,5,0.1,5,1.5,0.635646,-3.84453,0.701868,-0.866026,0.167781,0.0148255,3.72529e-06,-0.0037998,-0.000305474,0.0136042,2.2538,5,0.1,6,1.5,0.795568,4.03724,0.579352,-0.866026,-0.0270665,0.00863988,3.72529e-06,-0.0715256,-0.000938773,0.0106157,2.27139,5,0.1,7,1.5,-1.46656,-3.12856,0.562532,-0.0431322,0.725027,0.00880947,0.00281632,0.354767,-0.000599772,0.00965827,2.46642,5,0.1,8,1.5,-0.422157,-0.330778,0.560105,0.55688,0.0958981,0.0217427,-1.23243,0.180222,-0.0151508,0.0132216,3.03779,5,0.1,9,1.5,-1.07465,3.76778,0.500018,0.0234183,-0.727011,0.000121724,-0.0149012,-0.878021,-8.56817e-05,0.00962699,1.4029,5,0.1,10,1.5,-3.4879,1.04282,0.567893,0.321075,0.287138,0.0303647,-0.199884,-0.262827,-0.0214614,0.0100387,0.171916,5,0.1,11,1.5,-1.8719,-3.38899,0.625314,0.210654,0.296307,-0.0240291,-0.134349,0.118107,0.0153072,0.00792786,0.321801,5,0.1,12,1.5,4.11793,-1.13563,0.580577,-0.113523,0.866026,-0.00255844,-0.0627637,0,0.00488386,0.0204501,2.26674,5,0.1,13,1.5,3.78514,-0.895003,0.664628,-0.334862,0.188647,0.0238179,0.051558,-0.0289269,-0.00367686,0.00765606,0.086445,5,0.1,14,1.5,-1.01678,-2.43379,0.58418,-0.162997,0.866026,0.0040709,0.00236183,0,-2.6077e-05,0.0186978,2.25488,5,0.1,15,1.5,3.37013,2.57229,0.614558,-0.23802,0.406053,-0.0138243,0.00621378,-0.258729,0.00881031,0.00990263,0.151762,5,0.1,16,1.5,-3.03878,-3.41875,0.50001,-0.247977,0.603519,0.000159815,0.158086,-0.553489,0.000812113,0.00872639,0.497648,5,0.1,17,1.5,-2.25391,2.98627,0.625749,0.24774,-0.656899,-0.0236075,-0.150993,0.417188,0.0149161,0.0174755,0.365535,5,0.1,18,1.5,0.00228363,-0.529059,0.600438,-0.23256,0.354571,0.00631642,0.483467,-0.285562,0.091821,0.0138589,0.239388,5,0.1,19,1.5,1.02688,3.50953,0.6325,0.866026,-0.293604,-0.0173702,0,-0.0838935,0.00113621,0.0138981,2.21277,5,0.1,20,1.5,-1.91321,2.92967,0.620359,0.232716,-0.472466,-0.0161228,0.475608,1.08056,0.0243746,0.00667768,0.256769,5,0.1,21,1.5,1.38712,0.533994,0.623234,-0.30965,0.831156,-0.0213435,0.171445,-0.161318,0.0118315,0.0191041,0.669379,5,0.1,22,1.5,4.32547,1.12918,0.624441,0.0236481,0.490516,0.0273744,-0.0148416,-0.312671,-0.0174418,0.00837439,0.114852,5,0.1,23,1.5,-3.38284,-2.20065,0.500008,0.221028,0.522717,0.000152271,-0.140861,-0.333324,0.00194088,0.0180192,0.155445,5,0.1,24,1.5,4.20631,-3.3364,0.582684,-0.170784,0.866026,0.00326289,0.000655651,0,1.11759e-05,0.014954,2.25314,5,0.1,25,1.5,-0.439826,1.13347,0.542625,0.37939,0.673198,-0.0359462,-0.296852,-0.429079,0.0228994,0.00661356,0.286156,5,0.1,26,1.5,-3.25822,-1.54751,0.558929,0.33431,0.514118,0.0107412,-1.30646,-0.332765,-0.0206567,0.0167213,3.00491,5,0.1,27,1.5,-1.44408,2.22881,0.615256,0.0442231,-0.866026,-0.0114738,-0.000603497,0,0.000167638,0.0078664,2.27058,5,0.1,28,1.5,-1.68655,-0.894349,0.619771,-0.757022,0.048395,0.0553666,0.329822,-0.0308715,-0.0352636,0.00753565,0.378976,5,0.1,29,1.5,1.67439,0.432805,0.611591,-0.305827,-0.588866,-0.0133074,-0.0430942,0.443736,0.0117682,0.0223209,0.500186,5,0.1
0,1.6,1.59905,-0.270031,0.593526,-0.395155,0.720357,0.00593662,0.269175,-0.690929,-0.0077188,0.0219696,0.425148,5,0.1,1,1.6,-3.22546,1.34674,0.599877,0.156128,0.00217259,8.19564e-05,-0.647068,-0.00309944,-0.000119209,0.0083141,0.379003,5,0.1,2,1.6,3.20307,3.35234,0.725876,-0.0242829,-0.488949,0.0234872,0.236273,0.397563,-0.0190735,0.0140816,0.478942,5,0.1,3,1.6,-3.07084,-1.24576,0.60296,0.857657,-0.352713,-0.00259578,-0.137448,0.199258,0.00149012,0.010414,0.775027,5,0.1,4,1.6,1.30235,-1.40961,0.620625,-0.238362,0.764391,-0.0136644,0.696123,0.099957,0.00208616,0.0175035,0.999539,5,0.1,5,1.6,0.549043,-3.8278,0.703346,-0.866026,0.166273,0.014694,0,-0.0332594,-0.00289083,0.010981,2.25445,5,0.1,6,1.6,0.708965,4.03419,0.58021,-0.866026,-0.0334978,0.00849068,0,-0.0548363,-0.00232458,0.012326,2.27076,5,0.1,7,1.6,-1.47085,-3.05401,0.563408,-0.0425965,0.767064,0.00869781,0.00971556,0.412941,-0.00199676,0.0120836,2.32365,5,0.1,8,1.6,-0.372378,-0.320199,0.562192,0.442251,0.116094,0.0198707,-1.02256,0.205427,-0.0220835,0.0095472,3.27082,5,0.1,9,1.6,-1.07239,3.69117,0.500029,0.0218093,-0.79934,8.9407e-05,-0.0177026,-0.529528,-0.000536442,0.0104878,2.30179,5,0.1,10,1.6,-3.45684,1.07012,0.570816,0.299591,0.257742,0.0280231,-0.236869,-0.323534,-0.0258088,0.0118206,0.132971,5,0.1,11,1.6,-1.85154,-3.35872,0.622991,0.196171,0.308967,-0.0223786,-0.159621,0.111222,0.0181794,0.00732054,0.152786,5,0.1,12,1.6,4.10617,-1.04903,0.580354,-0.12244,0.866026,-0.0018388,-0.100136,-2.98023e-05,0.00888109,0.0204252,2.25846,5,0.1,13,1.6,3.75199,-0.876329,0.666985,-0.326943,0.184195,0.0232548,0.11766,-0.0661314,-0.00840425,0.00757808,0.0653037,5,0.1,14,1.6,-1.03304,-2.34718,0.584586,-0.161666,0.866026,0.0040397,0.0309944,0,-0.000745058,0.0147085,2.25542,5,0.1,15,1.6,3.3464,2.61154,0.613222,-0.235862,0.378156,-0.0128746,0.0468493,-0.307441,0.0104606,0.0121028,0.186986,5,0.1,16,1.6,-3.06275,-3.36166,0.500027,-0.230926,0.534058,0.000174344,0.187635,-0.813365,-0.000417233,0.00751985,0.463112,5,0.1,17,1.6,-2.22977,2.92273,0.623466,0.236005,-0.612962,-0.022018,-0.100493,0.477433,0.0174344,0.0138692,0.258271,5,0.1,18,1.6,-0.0184656,-0.495118,0.601594,-0.181833,0.323313,0.0172615,0.519283,-0.342071,0.118673,0.00845109,0.593109,5,0.1,19,1.6,1.11348,3.47981,0.630772,0.866026,-0.299859,-0.0171378,-5.96046e-05,-0.0261068,0.00417233,0.010972,2.2096,5,0.1,20,1.6,-1.88763,2.88775,0.618868,0.277427,-0.366807,-0.0137046,0.392735,1.0227,0.0240207,0.00670282,0.214821,5,0.1,21,1.6,1.35707,0.616107,0.621162,-0.290644,0.808461,-0.0200331,0.215173,-0.31814,0.0148714,0.0167292,0.462662,5,0.1,22,1.6,4.32776,1.1766,0.627087,0.0220418,0.456804,0.0254929,-0.017643,-0.371575,-0.0207126,0.00737836,0.129059,5,0.1,23,1.6,-3.36147,-2.15012,0.500029,0.205839,0.486785,0.000232458,-0.16737,-0.396013,-0.000119209,0.0206675,0.103031,5,0.1,24,1.6,4.18927,-3.2498,0.583009,-0.169575,0.866026,0.003241,0.0305176,0,-0.000536442,0.0173256,2.25363,5,0.1,25,1.6,-0.403466,1.19854,0.53915,0.346829,0.626934,-0.0334769,-0.356525,-0.509858,0.0272393,0.00772473,0.196954,5,0.1,26,1.6,-3.23083,-1.49729,0.559925,0.219387,0.493976,0.00938028,-0.956059,-0.118911,-0.00810623,0.0161789,3.04365,5,0.1,27,1.6,-1.43967,2.1422,0.614111,0.0438631,-0.866026,-0.01138,-0.00834465,0,0.00214577,0.00745295,2.27062,5,0.1,28,1.6,-1.76047,-0.889671,0.625124,-0.719362,0.0450671,0.051564,0.442505,-0.0366569,-0.0419319,0.00808222,0.256874,5,0.1,29,1.6,1.6436,0.37635,0.610324,-0.309297,-0.53807,-0.0120029,-0.00888109,0.572666,0.0143051,0.0181991,0.45465,5,0.1
0,1.7,1.56062,-0.201842,0.594074,-0.375512,0.639933,0.0049768,0.147872,-0.900524,-0.0110567,0.0219696,0.425148,5,0.1,1,1.7,-3.21227,1.34765,0.599959,0.114906,0.0219533,0.00218386,-0.215575,0.353761,0.037428,0.0083141,0.379003,5,0.1,2,1.7,3.20151,3.30534,0.728134,-0.0109605,-0.451679,0.0216987,0.00789762,0.361174,-0.0173375,0.0140816,0.478942,5,0.1,3,1.7,-2.9856,-1.28008,0.602708,0.847801,-0.333943,-0.00245534,-0.100091,0.187181,0.00140071,0.010414,0.775027,5,0.1,4,1.7,1.28173,-1.3324,0.619266,-0.176523,0.781284,-0.0135266,0.545576,0.187092,0.00133738,0.0175035,0.999539,5,0.1,5,1.7,0.46244,-3.81128,0.704806,-0.866026,0.164593,0.0145494,3.57628e-06,-0.00993907,-0.000845641,0.010981,2.25445,5,0.1,6,1.7,0.622363,4.03057,0.581051,-0.866026,-0.0390537,0.00834046,3.72529e-06,-0.0529587,-0.00114366,0.012326,2.27076,5,0.1,7,1.7,-1.47508,-2.97497,0.564272,-0.0420686,0.814712,0.00858912,0.00332296,0.479653,-0.000681728,0.0120836,2.32365,5,0.1,8,1.7,-0.332756,-0.307419,0.56399,0.355852,0.140426,0.015447,-0.686366,0.26127,-0.0615977,0.0095472,3.27082,5,0.1,9,1.7,-1.0702,3.60884,0.500035,0.0226181,-0.843975,3.6601e-05,0.0277907,-0.336051,-0.000510365,0.0104878,2.30179,5,0.1,10,1.7,-3.428,1.09429,0.573494,0.277526,0.225774,0.0255677,-0.213042,-0.317141,-0.023935,0.0118206,0.132971,5,0.1,11,1.7,-1.83268,-3.32767,0.62084,0.181209,0.308101,-0.0206741,-0.144981,-0.118539,0.0165179,0.00732054,0.152786,5,0.1,12,1.7,4.09327,-0.962423,0.580221,-0.136634,0.866025,-0.000780728,-0.166088,3.72529e-06,0.0116937,0.0204252,2.25846,5,0.1,13,1.7,3.71979,-0.858187,0.669276,-0.317629,0.178961,0.0225892,0.0848919,-0.047721,-0.00606477,0.00757808,0.0653037,5,0.1,14,1.7,-1.04911,-2.26058,0.584988,-0.160193,0.866026,0.00400525,0.00789762,0,-0.000178814,0.0147085,2.25542,5,0.1,15,1.7,3.32297,2.64789,0.611984,-0.23333,0.349332,-0.0118937,0.017032,-0.279367,0.00950694,0.0121028,0.186986,5,0.1,16,1.7,-3.08495,-3.31264,0.500042,-0.213334,0.443648,0.000116322,0.170514,-0.970557,-0.00070408,0.00751985,0.463112,5,0.1,17,1.7,-2.2065,2.86367,0.621346,0.230743,-0.56916,-0.0204016,-0.0220984,0.417888,0.0155419,0.0138692,0.258271,5,0.1,18,1.7,-0.0332967,-0.46524,0.60388,-0.10868,0.267968,0.0280411,0.88713,-0.720186,0.0947602,0.00845109,0.593109,5,0.1,19,1.7,1.20008,3.44958,0.629073,0.866025,-0.305474,-0.0168777,1.49012e-05,-0.0660121,0.00196323,0.010972,2.2096,5,0.1,20,1.7,-1.85784,2.85596,0.617611,0.318713,-0.271213,-0.0114729,0.403859,0.8865,0.0207983,0.00670282,0.214821,5,0.1,21,1.7,1.32903,0.695483,0.61923,-0.270402,0.7795,-0.0186347,0.19785,-0.291307,0.0136606,0.0167292,0.462662,5,0.1,22,1.7,4.32989,1.22073,0.629551,0.0206888,0.428298,0.0239039,-0.0107288,-0.225313,-0.0125617,0.00737836,0.129059,5,0.1,23,1.7,-3.34169,-2.10333,0.500051,0.190148,0.449665,0.000183284,-0.152066,-0.359699,-0.000789762,0.0206675,0.103031,5,0.1,24,1.7,4.17239,-3.16319,0.583332,-0.168267,0.866026,0.00321968,0.00572205,0,-8.56817e-05,0.0173256,2.25363,5,0.1,25,1.7,-0.370787,1.25881,0.535932,0.305017,0.579137,-0.0309233,-0.460632,-0.463203,0.0247434,0.00772473,0.196954,5,0.1,26,1.7,-3.2131,-1.44777,0.560855,0.143398,0.501925,0.00948543,-0.477731,0.216767,0.0080429,0.0161789,3.04365,5,0.1,27,1.7,-1.43531,2.0556,0.61298,0.0434699,-0.866026,-0.0112802,-0.00207871,0,0.00051409,0.00745295,2.27062,5,0.1,28,1.7,-1.83032,-0.885339,0.63008,-0.678327,0.0416304,0.0476328,0.401467,-0.0333078,-0.0380985,0.00808222,0.256874,5,0.1,29,1.7,1.61272,0.32589,0.609203,-0.307123,-0.46698,-0.0103524,0.0589043,0.822693,0.0182614,0.0181991,0.45465,5,0.1
0,1.8,1.52377,-0.142579,0.594514,-0.361398,0.543446,0.0037998,0.151992,-1.0143,-0.0121593,0.0237949,0.352891,5,0.1,1,1.8,-3.2014,1.3519,0.600395,0.106162,0.0649393,0.00672638,0.010252,0.471056,0.0497997,0.00640269,0.282325,5,0.1,2,1.8,3.2,3.262,0.730216,-0.0233173,-0.414461,0.0199109,-0.238895,0.392079,-0.0188053,0.0168239,0.395733,5,0.1,3,1.8,-2.90153,-1.31248,0.60247,0.830799,-0.313422,-0.00230223,-0.267744,0.230551,0.00172853,0.0105716,0.540056,5,0.1,4,1.8,1.26659,-1.25353,0.617923,-0.128326,0.793135,-0.0132844,0.422716,0.0140071,0.00396371,0.0170591,0.723896,5,0.1,5,1.8,0.375838,-3.7949,0.706255,-0.866025,0.162643,0.0143796,-1.43051e-05,-0.035882,-0.00315905,0.0112669,2.25519,5,0.1,6,1.8,0.53576,4.02642,0.581878,-0.866026,-0.0435233,0.00818223,0,-0.0340939,-0.00235438,0.00996593,2.27035,5,0.1,7,1.8,-1.47926,-2.89138,0.565126,-0.0415117,0.853276,0.00847429,0.00965595,0.254989,-0.00193715,0.0114294,2.27808,5,0.1,8,1.8,-0.3,-0.292112,0.565194,0.304904,0.1649,0.00840873,-0.352412,0.213683,-0.0754297,0.0106535,3.22999,5,0.1,9,1.8,-1.06777,3.52323,0.500036,0.0262916,-0.863487,-1.04308e-05,0.041008,-0.0507832,-0.000447035,0.0105245,2.27193,5,0.1,10,1.8,-3.40133,1.11528,0.57593,0.255525,0.194123,0.0231326,-0.232816,-0.316501,-0.0252426,0.0133238,0.339473,5,0.1,11,1.8,-1.8153,-3.29776,0.618856,0.166273,0.287205,-0.0189707,-0.157356,-0.290036,0.017941,0.00750635,0.267651,5,0.1,12,1.8,4.07878,-0.87582,0.580202,-0.152576,0.866026,0.000397861,-0.14019,0,0.0114143,0.0191354,2.25079,5,0.1,13,1.8,3.68851,-0.84056,0.6715,-0.307208,0.173101,0.0218466,0.134706,-0.0758171,-0.00962615,0.0084234,0.0291065,5,0.1,14,1.8,-1.06506,-2.17398,0.585387,-0.158474,0.866026,0.00396371,0.0332594,0,-0.000834465,0.0144922,2.25603,5,0.1,15,1.8,3.29976,2.6814,0.610843,-0.230199,0.320548,-0.0109136,0.0549555,-0.303388,0.0103116,0.0120754,0.162276,5,0.1,16,1.8,-3.10542,-3.27322,0.50005,-0.195765,0.344306,4.17233e-05,0.185251,-0.996947,-0.00077486,0.0111831,0.281208,5,0.1,17,1.8,-2.18352,2.80887,0.619385,0.228578,-0.52613,-0.0187993,-0.0337362,0.455976,0.0169575,0.0137315,0.181085,5,0.1,18,1.8,-0.0395071,-0.442363,0.607103,-0.0144298,0.187272,0.0358626,0.954282,-0.858426,0.0603497,0.00805946,0.371269,5,0.1,19,1.8,1.28669,3.41877,0.627397,0.866026,-0.30961,-0.0165835,0,-0.0025034,0.00452995,0.0112941,2.20814,5,0.1,20,1.8,-1.82412,2.83303,0.616564,0.353241,-0.189918,-0.0095129,0.266254,0.738144,0.0185072,0.00642422,0.189723,5,0.1,21,1.8,1.30301,0.77182,0.617437,-0.249705,0.745116,-0.0172049,0.221729,-0.417024,0.0152588,0.0164194,0.318176,5,0.1,22,1.8,4.33191,1.26249,0.631881,0.0196815,0.407109,0.0227228,-0.0104904,-0.218034,-0.0121891,0.00805031,0.0744366,5,0.1,23,1.8,-3.32345,-2.06019,0.500065,0.174481,0.412601,8.79169e-05,-0.164986,-0.39041,-0.00101328,0.0187536,0.118824,5,0.1,24,1.8,4.15562,-3.07659,0.583653,-0.166726,0.866026,0.00319183,0.0326633,0,-0.000596046,0.0162955,2.25418,5,0.1,25,1.8,-0.342637,1.31437,0.532966,0.257809,0.531411,-0.0283748,-0.471607,-0.502884,0.0268817,0.0072018,0.139259,5,0.1,26,1.8,-3.2,-1.39635,0.561855,0.129753,0.526658,0.0106052,0.178099,0.232279,0.012666,0.0154328,2.77061,5,0.1,27,1.8,-1.43098,1.969,0.611856,0.0430077,-0.866026,-0.0111639,-0.0089407,0,0.00235438,0.00724442,2.27067,5,0.1,28,1.8,-1.89606,-0.881345,0.63465,-0.635156,0.0382006,0.0437066,0.47785,-0.0362098,-0.0413358,0.00741238,0.172679,5,0.1,29,1.8,1.58246,0.283536,0.608262,-0.296491,-0.378346,-0.00843108,0.157356,0.928268,0.0197589,0.0192258,0.431824,5,0.1
0,1.9,1.48817,-0.0931655,0.594833,-0.352172,0.446273,0.00259606,0.0570565,-0.927179,-0.0116788,0.0237949,0.352891,5,0.1,1,1.9,-3.19034,1.36096,0.601337,0.118144,0.117593,0.0122537,0.200003,0.551507,0.0576191,0.00640269,0.282325,5,0.1,2,1.9,3.196,3.22241,0.732118,-0.0603411,-0.378134,0.0181679,-0.463709,0.345722,-0.0165999,0.0168239,0.395733,5,0.1,3,1.9,-2.81966,-1.34273,0.602248,0.806844,-0.291899,-0.0021413,-0.244081,0.209123,0.00156462,0.0105716,0.540056,5,0.1,4,1.9,1.25569,-1.17402,0.616613,-0.0916082,0.797423,-0.0129353,0.315771,0.0313818,0.00355393,0.0170591,0.723896,5,0.1,5,1.9,0.289235,-3.77875,0.707683,-0.866025,0.160769,0.014215,1.78814e-06,-0.0111163,-0.000976026,0.0112669,2.25519,5,0.1,6,1.9,0.449158,4.02189,0.582687,-0.866026,-0.0470236,0.00803201,3.57628e-06,-0.0327826,-0.00110641,0.00996593,2.27035,5,0.1,7,1.9,-1.48338,-2.80527,0.565967,-0.041002,0.865229,0.00837315,0.00299513,0.0318736,-0.000581145,0.0114294,2.27808,5,0.1,8,1.9,-0.270477,-0.274918,0.565646,0.292192,0.175612,0.000570714,0.0465894,0.0103917,-0.0786036,0.0106535,3.22999,5,0.1,9,1.9,-1.06494,3.43672,0.500033,0.030108,-0.865867,-4.47966e-05,0.0335202,-0.00634789,-0.000249594,0.0105245,2.27193,5,0.1,10,1.9,-3.37651,1.13317,0.578123,0.244572,0.16411,0.0207817,-0.0169426,-0.285409,-0.0223219,0.0133238,0.339473,5,0.1,11,1.9,-1.79934,-3.27076,0.617035,0.153912,0.250538,-0.017561,-0.0993982,-0.429243,0.0113398,0.00750635,0.267651,5,0.1,12,1.9,4.06274,-0.789218,0.5803,-0.168727,0.866026,0.00157412,-0.167161,-3.72529e-06,0.0116453,0.0191354,2.25079,5,0.1,13,1.9,3.65846,-0.823632,0.673636,-0.293345,0.165297,0.0208571,0.150815,-0.0849254,-0.0107549,0.0084234,0.0291065,5,0.1,14,1.9,-1.08081,-2.08738,0.585781,-0.156846,0.866026,0.00392264,0.00870228,0,-0.000219792,0.0144922,2.25603,5,0.1,15,1.9,3.27729,2.71202,0.609801,-0.216686,0.292439,-0.00995779,0.205413,-0.267491,0.00910088,0.0120754,0.162276,5,0.1,16,1.9,-3.12412,-3.24368,0.500051,-0.178601,0.247806,-2.35625e-05,0.163347,-0.919446,-0.000540167,0.0111831,0.281208,5,0.1,17,1.9,-2.16074,2.7584,0.617585,0.227507,-0.484357,-0.0172372,-0.00137091,0.395522,0.0148304,0.0137315,0.181085,5,0.1,18,1.9,-0.0361133,-0.428056,0.611005,0.0821108,0.0982836,0.0421829,0.943618,-0.894371,0.0619255,0.00805946,0.371269,5,0.1,19,1.9,1.37329,3.38769,0.625755,0.866026,-0.312662,-0.0162937,0,-0.0391454,0.00218302,0.0112941,2.20814,5,0.1,20,1.9,-1.78741,2.81756,0.615701,0.380803,-0.121275,-0.00778511,0.259154,0.630394,0.0161305,0.00642422,0.189723,5,0.1,21,1.9,1.27927,0.84437,0.615788,-0.223935,0.706488,-0.0157868,0.289068,-0.380404,0.0135787,0.0164194,0.318176,5,0.1,22,1.9,4.33383,1.30224,0.6341,0.0187859,0.388541,0.0216847,-0.00828505,-0.170842,-0.00955164,0.00805031,0.0744366,5,0.1,23,1.9,-3.3067,-2.02059,0.500068,0.161519,0.381932,-1.23866e-05,-0.104249,-0.246599,-0.0009574,0.0187536,0.118824,5,0.1,24,1.9,4.13904,-2.98999,0.58397,-0.165287,0.866026,0.00316612,0.00613928,0,-0.000104308,0.0162955,2.25418,5,0.1,25,1.9,-0.319204,1.36513,0.530255,0.211618,0.484819,-0.0258845,-0.428874,-0.443399,0.0236966,0.0072018,0.139259,5,0.1,26,1.9,-3.18484,-1.34217,0.562994,0.184117,0.559283,0.0122762,0.816703,0.369631,0.0189953,0.0154328,2.77061,5,0.1,27,1.9,-1.42671,1.8824,0.610747,0.0425743,-0.866026,-0.0110494,-0.00227243,0,0.000603497,0.00724442,2.27067,5,0.1,28,1.9,-1.95732,-0.877696,0.638825,-0.590932,0.0348465,0.0398764,0.425965,-0.0319071,-0.0364557,0.00741238,0.172679,5,0.1,29,1.9,1.55377,0.250383,0.607519,-0.27568,-0.284705,-0.0064292,0.254869,0.928483,0.019934,0.0192258,0.431824,5,0.1
0,2,1.45324,-0.0530159,0.595037,-0.345775,0.358333,0.00150204,0.0884533,-0.830379,-0.0100136,0.0216358,0.295641,5,0.1,1,2,-3.17742,1.3754,0.602842,0.140995,0.169957,0.017707,0.234604,0.47344,0.0492036,0.00764093,0.222074,5,0.1,2,2,3.18754,3.18633,0.733852,-0.109392,-0.343412,0.0165001,-0.48852,0.356674,-0.0171065,0.0147675,0.313251,5,0.1,3,2,-2.74038,-1.37085,0.602042,0.776476,-0.270051,-0.00197887,-0.385523,0.234187,0.00172853,0.00973419,0.368982,5,0.1,4,2,1.24795,-1.09436,0.61534,-0.0643998,0.792596,-0.0124842,0.232041,-0.155807,0.00590086,0.0170488,0.507499,5,0.1,5,2,0.202633,-3.76275,0.709097,-0.866025,0.158787,0.0140399,0,-0.0350475,-0.00309944,0.0109287,2.25591,5,0.1,6,2,0.362555,4.01705,0.583484,-0.866025,-0.0495434,0.00788271,-1.43051e-05,-0.0157356,-0.00223517,0.00902611,2.27014,5,0.1,7,2,-1.48746,-2.71869,0.5668,-0.0404954,0.866026,0.00827014,0.0090003,0,-0.00178814,0.0106076,2.27083,5,0.1,8,2,-0.240715,-0.257572,0.565323,0.305109,0.168847,-0.00683963,0.172198,-0.136822,-0.0675917,0.0119491,3.05202,5,0.1,9,2,-1.06179,3.35013,0.500028,0.0326961,-0.866026,-6.10948e-05,0.0170469,0,-0.000119209,0.0104736,2.27126,5,0.1,10,2,-3.35198,1.14819,0.580091,0.246745,0.136766,0.0185758,0.0371933,-0.262499,-0.0221729,0.0114571,0.157667,5,0.1,11,2,-1.78441,-3.24799,0.615332,0.144741,0.203931,-0.016515,-0.0910759,-0.4915,0.0103712,0.00872856,0.258394,5,0.1,12,2,4.04509,-0.702615,0.580513,-0.183308,0.866026,0.00264794,-0.113487,0,0.00947714,0.0178051,2.24474,5,0.1,13,2,3.62997,-0.807573,0.675663,-0.275695,0.155355,0.0195995,0.207305,-0.116825,-0.0147521,0.00770856,0.0108902,5,0.1,14,2,-1.09643,-2.00077,0.586171,-0.155127,0.866026,0.00387877,0.0323057,-5.96046e-05,-0.000804663,0.0171948,2.25662,5,0.1,15,2,3.25683,2.73993,0.608851,-0.190955,0.265574,-0.00904351,0.300407,-0.27585,0.00938773,0.0111246,0.122629,5,0.1,16,2,-3.14116,-3.22328,0.500046,-0.162196,0.162673,-6.70552e-05,0.168443,-0.774264,-0.000298023,0.00912722,0.273808,5,0.1,17,2,-2.13804,2.71195,0.615936,0.225967,-0.444311,-0.0157416,-0.0392199,0.416517,0.0154674,0.0147452,0.125569,5,0.1,18,2,-0.0234244,-0.422576,0.615507,0.168656,0.0130795,0.0475422,0.763816,-0.789866,0.0423789,0.00698765,0.258612,5,0.1,19,2,1.45989,3.35629,0.624139,0.866026,-0.314134,-0.0159904,0,0.0234842,0.00452995,0.0107522,1.96311,5,0.1,20,2,-1.74822,2.80838,0.615,0.400704,-0.064528,-0.00627339,0.120938,0.501871,0.0141561,0.0153203,0.545452,5,0.1,21,2,1.2584,0.913012,0.614278,-0.19277,0.664856,-0.0144094,0.330091,-0.469178,0.0143051,0.0145607,0.221791,5,0.1,22,2,4.33567,1.3402,0.636218,0.0178814,0.369963,0.020647,-0.0100136,-0.213027,-0.0119209,0.0102871,0.0568974,5,0.1,23,2,-3.29103,-1.98355,0.500063,0.151896,0.359178,-9.53674e-05,-0.0954866,-0.225902,-0.000715256,0.0188079,0.0706186,5,0.1,24,2,4.12257,-2.90339,0.584286,-0.16377,0.866026,0.00313818,0.0312328,0,-0.000625849,0.016202,2.2547,5,0.1,25,2,-0.3,1.4114,0.527785,0.174377,0.440288,-0.0235051,-0.31586,-0.457227,0.0244379,0.00656116,0.173023,5,0.1,26,2,-3.16192,-1.28451,0.564315,0.276762,0.591871,0.014101,0.965118,0.24569,0.0162125,0.0158913,2.19699,5,0.1,27,2,-1.42247,1.79579,0.609647,0.0421166,-0.866026,-0.01093,-0.00870228,0,0.00223517,0.00889504,2.27071,5,0.1,28,2,-2.01424,-0.874371,0.642631,-0.546706,0.0316426,0.0362143,0.47195,-0.0329018,-0.0376105,0.00737217,0.115746,5,0.1,29,2,1.52761,0.226446,0.606974,-0.246322,-0.195461,-0.00450462,0.328302,0.844352,0.0182688,0.00727467,0.508052,5,0.1
0,2.1,1.41904,-0.0208897,0.595142,-0.338564,0.288294,0.00064401,0.0739843,-0.584107,-0.00714883,0.0216358,0.295641,5,0.1,1,2.1,-3.16203,1.39481,0.60486,0.167343,0.217871,0.0226053,0.272229,0.460908,0.0464581,0.00764093,0.222074,5,0.1,2,2.1,3.17401,3.15366,0.735422,-0.161965,-0.310665,0.0149288,-0.534281,0.307769,-0.0147708,0.0147675,0.313251,5,0.1,3,2.1,-2.66454,-1.39675,0.601852,0.740821,-0.248369,-0.00181878,-0.354379,0.207163,0.00152364,0.00973419,0.368982,5,0.1,4,2.1,1.24255,-1.01579,0.614119,-0.0448411,0.778854,-0.0119408,0.162475,-0.151556,0.0054054,0.0170488,0.507499,5,0.1,5,2.1,0.11603,-3.74698,0.710491,-0.866025,0.156998,0.0138815,0,-0.0101328,-0.00090152,0.0109287,2.25591,5,0.1,6,2.1,0.275953,4.01201,0.584264,-0.866025,-0.0513114,0.00774395,1.78814e-06,-0.0165999,-0.000983477,0.00902611,2.27014,5,0.1,7,2.1,-1.49148,-2.63208,0.567622,-0.0400528,0.866026,0.00818362,0.00229478,0,-0.000435859,0.0106076,2.27083,5,0.1,8,2.1,-0.208699,-0.241579,0.564297,0.340171,0.149215,-0.0136622,0.470966,-0.245245,-0.0662468,0.0119491,3.05202,5,0.1,9,2.1,-1.05844,3.26352,0.500021,0.0343464,-0.866026,-6.58445e-05,0.0141412,0,1.11759e-05,0.0104736,2.27126,5,0.1,10,2.1,-3.32716,1.16076,0.581847,0.249049,0.116276,0.016629,0.000402331,-0.157416,-0.0174306,0.0114571,0.157667,5,0.1,11,2.1,-1.77034,-3.23008,0.613727,0.137,0.154161,-0.0156331,-0.0699982,-0.493914,0.0079833,0.00872856,0.258394,5,0.1,12,2.1,4.02614,-0.616013,0.580825,-0.196064,0.866026,0.00358457,-0.127107,-3.72529e-06,0.00886247,0.0178051,2.24474,5,0.1,13,2.1,3.60346,-0.792635,0.677547,-0.254172,0.143226,0.0180685,0.226647,-0.127718,-0.0161119,0.00770856,0.0108902,5,0.1,14,2.1,-1.11184,-1.91417,0.586557,-0.153602,0.866025,0.00384077,0.00748783,1.49012e-05,-0.000186265,0.0171948,2.25662,5,0.1,15,2.1,3.23934,2.76521,0.607971,-0.157927,0.24088,-0.00873841,0.351921,-0.22693,-0.00179559,0.0111246,0.122629,5,0.1,16,2.1,-3.15659,-3.21057,0.500038,-0.14673,0.0946999,-8.64267e-05,0.145361,-0.583589,-9.68575e-05,0.00912722,0.273808,5,0.1,17,2.1,-2.11559,2.66947,0.614434,0.223229,-0.406267,-0.0143252,-0.0264496,0.357717,0.0133142,0.0147452,0.125569,5,0.1,18,2.1,-0.00293511,-0.425166,0.620519,0.238713,-0.0638518,0.0529813,0.619441,-0.728229,0.060305,0.00698765,0.258612,5,0.1,19,2.1,1.54649,3.32491,0.622558,0.866026,-0.313844,-0.0156653,0,-0.000581145,0.00278279,0.0107522,1.96311,5,0.1,20,2.1,-1.70828,2.80343,0.614426,0.39151,-0.0433452,-0.00533769,-0.278331,-0.0272095,0.0054352,0.0153203,0.545452,5,0.1,21,2.1,1.24084,0.977284,0.612904,-0.158055,0.621383,-0.0130923,0.357904,-0.420872,0.0124387,0.0145607,0.221791,5,0.1,22,2.1,4.33741,1.37627,0.638231,0.0170581,0.352518,0.0196709,-0.00730157,-0.154085,-0.00862405,0.0102871,0.0568974,5,0.1,23,2.1,-3.27627,-1.94863,0.500051,0.143779,0.339977,-0.000139605,-0.0734329,-0.173666,-0.000204891,0.0188079,0.0706186,5,0.1,24,2.1,4.10628,-2.81678,0.584598,-0.162484,0.866026,0.00311108,0.00450015,0,-0.000108033,0.016202,2.2547,5,0.1,25,2.1,-0.283729,1.45348,0.525539,0.154577,0.404103,-0.0215711,-0.103686,-0.291727,0.0155866,0.00656116,0.173023,5,0.1,26,2.1,-3.12895,-1.22396,0.565811,0.385508,0.619444,0.0158279,1.13982,0.266179,0.0169761,0.0158913,2.19699,5,0.1,27,2.1,-1.41828,1.70919,0.60856,0.0417104,-0.866026,-0.010827,-0.0019446,0,0.000476837,0.00889504,2.27071,5,0.1,28,2.1,-2.06669,-0.871362,0.646075,-0.50323,0.0286223,0.032761,0.413686,-0.0283793,-0.0324585,0.00737217,0.115746,5,0.1,29,2.1,1.50506,0.211713,0.606647,-0.201046,-0.0947119,-0.00177398,0.549182,1.11499,0.0339225,0.00727467,0.508052,5,0.1
0,2.2,1.38565,0.00533095,0.595175,-0.327972,0.23893,7.00355e-05,0.149786,-0.415268,-0.00438094,0.0215122,0.23901,5,0.1,1,2.2,-3.14401,1.41872,0.607333,0.191987,0.258073,0.0266075,0.206113,0.326335,0.0319779,0.00532858,0.184313,5,0.1,2,2.2,3.15526,3.12412,0.736841,-0.211322,-0.280243,0.0134677,-0.432134,0.307202,-0.014782,0.0155825,0.23778,5,0.1,3,2.2,-2.59236,-1.42054,0.601678,0.7011,-0.227314,-0.00166297,-0.458479,0.219166,0.00157952,0.0117928,0.249059,5,0.1,4,2.2,1.23879,-0.938873,0.612954,-0.0312895,0.756818,-0.0113279,0.111461,-0.311285,0.00712276,0.0162932,0.347455,5,0.1,5,2.2,0.0294278,-3.73135,0.711873,-0.866025,0.155157,0.013718,1.19209e-06,-0.0333786,-0.00295043,0.0105024,2.25658,5,0.1,6,2.2,0.18935,4.00681,0.585033,-0.866025,-0.0523448,0.00760704,0,-0.00190735,-0.00202656,0.00884403,2.27009,5,0.1,7,2.2,-1.49547,-2.54548,0.568437,-0.0396222,0.866026,0.00809729,0.00816584,0,-0.00163913,0.00964202,2.27087,5,0.1,8,2.2,-0.172227,-0.22799,0.56262,0.389151,0.121718,-0.0196442,0.465184,-0.296034,-0.051558,0.0102069,0.317378,5,0.1,9,2.2,-1.05495,3.17692,0.500015,0.0352234,-0.866026,-5.96046e-05,0.00214577,0,8.9407e-05,0.0134398,2.27123,5,0.1,10,2.2,-3.30237,1.1717,0.583426,0.24544,0.103486,0.0149742,-0.0780821,-0.106156,-0.0161827,0.0104104,0.281801,5,0.1,11,2.2,-1.757,-3.21707,0.612204,0.12967,0.106877,-0.0147969,-0.0810623,-0.444651,0.00923872,0.00793293,0.253773,5,0.1,12,2.2,4.00597,-0.52941,0.581224,-0.20625,0.866026,0.00435412,-0.0665188,0,0.00625849,0.0213388,2.25992,5,0.1,13,2.2,3.57923,-0.778981,0.67927,-0.22983,0.129509,0.0163376,0.261903,-0.147641,-0.0186265,0.00729864,0.00539965,5,0.1,14,2.2,-1.12715,-1.82757,0.58694,-0.152034,0.866026,0.00380129,0.0303388,-5.96046e-05,-0.00077486,0.0177745,2.25716,5,0.1,15,2.2,3.22533,2.78819,0.60708,-0.122058,0.218672,-0.00914037,0.35882,-0.223637,-0.0050962,0.00632767,0.551634,5,0.1,16,2.2,-3.17055,-3.2037,0.500029,-0.132364,0.045979,-8.9407e-05,0.145197,-0.392199,5.96046e-05,0.00844042,0.432589,5,0.1,17,2.2,-2.09345,2.63062,0.613068,0.218832,-0.370497,-0.0130013,-0.0691414,0.366926,0.0135005,0.0149239,0.148846,5,0.1,18,2.2,0.0236753,-0.434952,0.626107,0.289614,-0.129091,0.0585511,0.387173,-0.56231,0.0466704,0.0085535,0.197792,5,0.1,19,2.2,1.6331,3.2936,0.621008,0.866026,-0.311345,-0.015296,0,0.0622272,0.00524521,0.00962337,1.54275,5,0.1,20,2.2,-1.671,2.79843,0.613911,0.349954,-0.0608146,-0.00503063,-0.530183,-0.28193,0.00137091,0.013903,2.54131,5,0.1,21,2.2,1.22682,1.03726,0.611657,-0.122327,0.577208,-0.0118539,0.351667,-0.476778,0.0126064,0.0144084,0.156721,5,0.1,22,2.2,4.33908,1.41073,0.640154,0.0162601,0.336051,0.0187501,-0.00882149,-0.187993,-0.0104904,0.00845776,0.0254772,5,0.1,23,2.2,-3.26226,-1.91552,0.500036,0.136083,0.321791,-0.000143051,-0.0849962,-0.201106,0.000149012,0.0198444,0.11645,5,0.1,24,2.2,4.09008,-2.73018,0.584908,-0.161171,0.866026,0.00308305,0.0290871,0,-0.000566244,0.0137792,2.25515,5,0.1,25,2.2,-0.268599,1.49253,0.523454,0.149465,0.377551,-0.0201538,-0.016734,-0.257969,0.0137985,0.00769219,0.104229,5,0.1,26,2.2,-3.08488,-1.16091,0.567471,0.49262,0.638387,0.0172645,0.951648,0.0850558,0.010848,0.0144323,1.67151,5,0.1,27,2.2,-1.41412,1.62259,0.607481,0.0412941,-0.866026,-0.0107199,-0.00816584,0,0.00205636,0.00910485,2.39783,5,0.1,28,2.2,-2.11493,-0.86864,0.649191,-0.461233,0.0258178,0.029552,0.437379,-0.028342,-0.0323951,0.00874608,0.133903,5,0.1,29,2.2,1.48787,0.207885,0.606649,-0.141498,0.0177581,0.00185072,0.619709,1.09226,0.0367165,0.00828499,0.343721,5,0.1
0,2.3,1.35378,0.0277193,0.595168,-0.307667,0.213711,-0.000134017,0.253491,-0.122059,-8.56817e-05,0.0215122,0.23901,5,0.1,1,2.3,-3.1238,1.44619,0.610154,0.21156,0.291216,0.0297572,0.172794,0.313766,0.0289492,0.00532858,0.184313,5,0.1,2,2.3,3.13196,3.09753,0.738119,-0.254146,-0.252243,0.01212,-0.402376,0.260785,-0.0125542,0.0155825,0.23778,5,0.1,3,2.3,-2.52441,-1.44225,0.601519,0.658556,-0.20717,-0.0015175,-0.41455,0.190191,0.00137836,0.0117928,0.249059,5,0.1,4,2.3,1.23614,-0.864655,0.611855,-0.0223458,0.727791,-0.0106673,0.0700355,-0.295859,0.00645593,0.0162932,0.347455,5,0.1,5,2.3,-0.0571747,-3.71594,0.713236,-0.866025,0.153506,0.0135721,-4.47035e-07,-0.00883639,-0.000786036,0.0105024,2.25658,5,0.1,6,2.3,0.102748,4.00155,0.585787,-0.866025,-0.0528459,0.00748551,0,-0.0051707,-0.00083819,0.00884403,2.27009,5,0.1,7,2.3,-1.49941,-2.45888,0.569242,-0.0392547,0.866026,0.00802437,0.00158697,0,-0.000309199,0.00964202,2.27087,5,0.1,8,2.3,-0.131092,-0.217337,0.560503,0.431904,0.091125,-0.0217442,0.366826,-0.309233,0.00525638,0.0102069,0.317378,5,0.1,9,2.3,-1.05141,3.09032,0.500009,0.0355754,-0.866026,-4.85219e-05,0.00302494,0,0.000130385,0.0134398,2.27123,5,0.1,10,2.3,-3.27851,1.18174,0.584858,0.22921,0.0991343,0.0137957,-0.236019,0.00413507,-0.00848621,0.0104104,0.281801,5,0.1,11,2.3,-1.74442,-3.20847,0.610769,0.122069,0.0665501,-0.0139301,-0.0749677,-0.358373,0.00855699,0.00793293,0.253773,5,0.1,12,2.3,3.98496,-0.442808,0.582034,-0.214099,0.866026,0.0147009,-0.0769645,-3.57628e-06,0.178687,0.0213388,2.25992,5,0.1,13,2.3,3.55754,-0.766761,0.680811,-0.203957,0.114925,0.014498,0.258148,-0.145499,-0.0183545,0.00729864,0.00539965,5,0.1,14,2.3,-1.14226,-1.74097,0.587317,-0.15068,0.866025,0.0037659,0.00591576,1.49012e-05,-0.000163913,0.0177745,2.25716,5,0.1,15,2.3,3.21504,2.80786,0.605833,-0.0829075,0.165571,-0.0183512,0.410423,-0.771642,-0.159089,0.00632767,0.551634,5,0.1,16,2.3,-3.1831,-3.2008,0.500021,-0.11913,0.014443,-7.92556e-05,0.123248,-0.240326,0.000137836,0.00844042,0.432589,5,0.1,17,2.3,-2.07172,2.5951,0.611825,0.217138,-0.342351,-0.0119504,0.0164807,0.218987,0.00829995,0.0149239,0.148846,5,0.1,18,2.3,0.0543458,-0.450642,0.63225,0.321288,-0.183882,0.0646858,0.237107,-0.51293,0.0687167,0.0085535,0.197792,5,0.1,19,2.3,1.7197,3.26273,0.619345,0.865851,-0.306273,-0.0192969,-0.00698119,0.052914,-0.0747256,0.00962337,1.54275,5,0.1,20,2.3,-1.63876,2.78941,0.613407,0.293957,-0.132164,-0.00511976,-0.580832,-1.03751,-0.00248477,0.013903,2.54131,5,0.1,21,2.3,1.2163,1.09274,0.610531,-0.0886062,0.533211,-0.0107018,0.319012,-0.420354,0.0107735,0.0144084,0.156721,5,0.1,22,2.3,4.34066,1.44342,0.641978,0.0153862,0.317617,0.0177215,-0.00908971,-0.190191,-0.0106134,0.00845776,0.0254772,5,0.1,23,2.3,-3.24914,-1.8843,0.500023,0.125894,0.302933,-0.000119116,-0.118256,-0.186048,0.000309199,0.0198444,0.11645,5,0.1,24,2.3,4.07404,-2.64358,0.585215,-0.16008,0.866026,0.00306116,0.0026226,0,-6.33299e-05,0.0137792,2.25515,5,0.1,25,2.3,-0.253572,1.52915,0.5215,0.152294,0.355767,-0.018989,0.0574002,-0.194401,0.0103898,0.00769219,0.104229,5,0.1,26,2.3,-3.0309,-1.0966,0.569247,0.585292,0.647625,0.0181931,0.855878,0.0683963,0.00699237,0.0144323,1.67151,5,0.1,27,2.3,-1.41002,1.53654,0.606415,0.040935,-0.849597,-0.0106323,-0.00150502,0.318855,0.000346452,0.00910485,2.39783,5,0.1,28,2.3,-2.15923,-0.866178,0.652008,-0.427628,0.0235771,0.0269901,0.262856,-0.0179745,-0.0205636,0.00874608,0.133903,5,0.1,29,2.3,1.47701,0.215049,0.607031,-0.0744732,0.124021,0.00589583,0.695355,1.00335,0.0420734,0.00828499,0.343721,5,0.1
0,2.4,1.32443,0.048741,0.595159,-0.277889,0.208675,-1.49012e-05,0.338852,-0.00414789,0.00214577,0.0213572,0.183519,5,0.1,1,2.4,-3.10192,1.47671,0.613256,0.224441,0.316972,0.0320494,0.0765324,0.185549,0.0154674,0.00914936,0.164799,5,0.1,2,2.4,3.10473,3.07359,0.739269,-0.288075,-0.226724,0.0108913,-0.261068,0.255346,-0.0122488,0.0137264,0.171585,5,0.1,3,2.4,-2.4607,-1.46202,0.601374,0.614458,-0.188178,-0.00137836,-0.482559,0.194252,0.00137091,0.00899798,0.167141,5,0.1,4,2.4,1.2342,-0.793507,0.610822,-0.0168085,0.693187,-0.00997782,0.0430346,-0.414282,0.0076592,0.0173307,2.11281,5,0.1,5,2.4,-0.143777,-3.70065,0.714587,-0.866026,0.151807,0.0134215,7.15256e-06,-0.0317097,-0.00280142,0.00943034,2.2572,5,0.1,6,2.4,0.016145,3.99626,0.58653,-0.866025,-0.0528693,0.00736415,1.19209e-06,0.00655651,-0.00187755,0.00790417,2.60401,5,0.1,7,2.4,-1.50332,-2.37228,0.570042,-0.038892,0.866026,0.00795126,0.00739098,0,-0.00151992,0.01138,2.27091,5,0.1,8,2.4,-0.0863836,-0.209747,0.558419,0.458694,0.0610333,-0.0193775,0.153809,-0.287578,0.0385344,0.0135454,0.219846,5,0.1,9,2.4,-1.04785,3.00371,0.500005,0.0355124,-0.866026,-3.57628e-05,-0.00548363,0,0.000149012,0.00932342,0.8379,5,0.1,10,2.4,-3.25696,1.19176,0.586201,0.200206,0.101677,0.0130862,-0.334978,0.0353456,-0.00655651,0.010293,0.267261,5,0.1,11,2.4,-1.7326,-3.20344,0.60942,0.113997,0.0356674,-0.0130087,-0.0891089,-0.258088,0.0101626,0.00903278,0.498705,5,0.1,12,2.4,3.96324,-0.356205,0.584533,-0.219345,0.866025,0.0361875,-0.0185966,1.43051e-05,0.233918,0.0171627,2.24095,5,0.1,13,2.4,3.53844,-0.756002,0.682169,-0.177807,0.100188,0.0126392,0.266075,-0.149965,-0.0189245,0.00783442,0.00167185,5,0.1,14,2.4,-1.15728,-1.65436,0.587693,-0.14928,0.866026,0.00372976,0.0286102,-5.96046e-05,-0.000715256,0.0164334,2.25764,5,0.1,15,2.4,3.2088,2.8201,0.603084,-0.0423968,0.0762403,-0.0374049,0.389338,-0.962615,-0.20656,0.00568548,0.351952,5,0.1,16,2.4,-3.19441,-3.20032,0.500014,-0.107074,-0.00260472,-6.4075e-05,0.12064,-0.104308,0.000149012,0.0106246,0.877042,5,0.1,17,2.4,-2.04991,2.56187,0.610668,0.21888,-0.322694,-0.0112057,0.00452995,0.191092,0.00724196,0.0146903,0.0917381,5,0.1,18,2.4,0.087352,-0.471375,0.63905,0.335621,-0.228207,0.0710353,0.0445956,-0.359461,0.0529587,0.00697759,0.171948,5,0.1,19,2.4,1.80619,3.23244,0.616981,0.863236,-0.298452,-0.0283748,-0.0558496,0.112891,-0.0987053,0.0102431,1.14315,5,0.1,20,2.4,-1.61229,2.77049,0.612881,0.235412,-0.249285,-0.00540912,-0.582755,-1.22213,-0.00286102,0.0137752,2.08238,5,0.1,21,2.4,1.20896,1.14393,0.609514,-0.0591397,0.49023,-0.00964254,0.267804,-0.451148,0.0106394,0.0136435,0.180169,5,0.1,22,2.4,4.34215,1.47416,0.643693,0.0143647,0.296447,0.0165418,-0.0116825,-0.239372,-0.0133812,0.0100175,0.0152114,5,0.1,23,2.4,-3.23719,-1.85497,0.500013,0.112575,0.282907,-8.64267e-05,-0.147223,-0.221312,0.00038743,0.0183581,0.149815,5,0.1,24,2.4,4.05806,-2.55698,0.58552,-0.158954,0.866026,0.00303835,0.0271797,0,-0.000506639,0.0179074,2.25555,5,0.1,25,2.4,-0.238041,1.56374,0.519653,0.158183,0.335813,-0.0179231,0.0486597,-0.216424,0.0115335,0.00656503,0.0858011,5,0.1,26,2.4,-2.96856,-1.03173,0.57109,0.656056,0.646797,0.018543,0.528216,-0.106215,-0.000447035,0.0137673,1.24923,5,0.1,27,2.4,-1.40594,1.45364,0.605355,0.0405639,-0.804064,-0.0105396,-0.00762939,0.583351,0.00196695,0.00972993,2.67399,5,0.1,28,2.4,-2.20078,-0.863904,0.654612,-0.403774,0.0219598,0.0251383,0.234962,-0.0154972,-0.0177324,0.00963224,0.0787254,5,0.1,29,2.4,1.47299,0.232121,0.607826,-0.00686646,0.213414,0.00989884,0.637829,0.764027,0.0365078,0.00712063,0.252477,5,0.1
0,2.5,1.29837,0.0698591,0.595172,-0.243067,0.215751,0.000297744,0.356302,0.120336,0.00382587,0.0213572,0.183519,5,0.1,1,2.5,-3.07913,1.50934,0.616543,0.230699,0.335323,0.0336887,0.0396669,0.162348,0.0152364,0.00914936,0.164799,5,0.1,2,2.5,3.07465,3.05211,0.740301,-0.312682,-0.20359,0.00978094,-0.213817,0.214025,-0.0102818,0.0137264,0.171585,5,0.1,3,2.5,-2.40153,-1.47992,0.601243,0.569832,-0.170437,-0.00125235,-0.428438,0.165999,0.00118837,0.00899798,0.167141,5,0.1,4,2.5,1.23113,-0.726463,0.60986,-0.0581741,0.645598,-0.00926992,-0.769541,-0.539735,0.00680611,0.0173307,2.11281,5,0.1,5,2.5,-0.23038,-3.68557,0.715921,-0.866025,0.15028,0.0132863,0,-0.00786781,-0.000696629,0.00943034,2.2572,5,0.1,6,2.5,-0.0694904,3.99113,0.587261,-0.837678,-0.0485867,0.00727857,0.540522,0.0730753,-0.00031665,0.00790417,2.60401,5,0.1,7,2.5,-1.50719,-2.28567,0.570833,-0.0385892,0.866026,0.0078883,0.00102818,0,-0.000223517,0.01138,2.27091,5,0.1,8,2.5,-0.039816,-0.205056,0.556718,0.471473,0.0331619,-0.0142896,0.0832325,-0.265131,0.0600554,0.0135454,0.219846,5,0.1,9,2.5,-1.04437,2.91712,0.500002,0.0334976,-0.865397,-2.18861e-05,-0.0328794,0.0251383,0.000122935,0.00932342,0.8379,5,0.1,10,2.5,-3.23873,1.20218,0.587483,0.16347,0.107216,0.0126015,-0.389904,0.0654683,-0.0038594,0.010293,0.267261,5,0.1,11,2.5,-1.72164,-3.20109,0.608169,0.105343,0.0124484,-0.0120212,-0.0865087,-0.197977,0.00987574,0.00903278,0.498705,5,0.1,12,2.5,3.94109,-0.269602,0.589106,-0.224282,0.866025,0.0532525,-0.0634491,-1.78814e-06,0.112377,0.0171627,2.24095,5,0.1,13,2.5,3.52198,-0.746724,0.683339,-0.151684,0.0854657,0.0107817,0.256643,-0.144634,-0.0182465,0.00783442,0.00167185,5,0.1,14,2.5,-1.17213,-1.56776,0.588064,-0.148062,0.866025,0.00369921,0.00477582,1.49012e-05,-0.000119209,0.0164334,2.25764,5,0.1,15,2.5,3.20659,2.82277,0.598132,-0.00129342,-0.0235084,-0.0629375,0.417024,-0.996485,-0.284865,0.00568548,0.351952,5,0.1,16,2.5,-3.20456,-3.20109,0.500008,-0.0961449,-0.0117708,-4.76837e-05,0.101104,-0.0528842,0.000171363,0.0106246,0.877042,5,0.1,17,2.5,-2.02795,2.5306,0.609579,0.220539,-0.302321,-0.0106054,0.0164509,0.221163,0.00527874,0.0146903,0.0917381,5,0.1,18,2.5,0.120971,-0.49603,0.646474,0.334978,-0.26466,0.0777983,-0.0618062,-0.347029,0.0742637,0.00697759,0.171948,5,0.1,19,2.5,1.89247,3.20312,0.613746,0.863626,-0.288141,-0.0354144,0.0202134,0.104472,-0.0439994,0.0102431,1.14315,5,0.1,20,2.5,-1.59162,2.73912,0.612322,0.17845,-0.379447,-0.00578389,-0.550553,-1.31376,-0.00412017,0.0137752,2.08238,5,0.1,21,2.5,1.20428,1.19084,0.608599,-0.0355117,0.448808,-0.00867601,0.204355,-0.391662,0.0089705,0.0136435,0.180169,5,0.1,22,2.5,4.34353,1.50264,0.645282,0.0132248,0.273111,0.0152379,-0.0115037,-0.234768,-0.013113,0.0100175,0.0152114,5,0.1,23,2.5,-3.22671,-1.8277,0.500006,0.0964712,0.263125,-5.11296e-05,-0.172839,-0.184894,0.000309199,0.0183581,0.149815,5,0.1,24,2.5,4.04224,-2.47037,0.585823,-0.158025,0.866026,0.00302158,0.0012219,0,-1.49012e-05,0.0179074,2.25555,5,0.1,25,2.5,-0.221858,1.5964,0.51791,0.166252,0.318336,-0.0169922,0.0966229,-0.150397,0.00800937,0.00656503,0.0858011,5,0.1,26,2.5,-2.90079,-0.967341,0.572905,0.694182,0.6424,0.0174309,0.222236,-0.0194423,-0.0201948,0.0137673,1.24923,5,0.1,27,2.5,-1.4019,1.377,0.604307,0.0402462,-0.722476,-0.0104583,-0.00119209,0.959143,0.000294298,0.00972993,2.67399,5,0.1,28,2.5,-2.24006,-0.861802,0.657053,-0.382317,0.0199107,0.0238099,0.208348,-0.0248216,-0.0103228,0.00963224,0.0787254,5,0.1,29,2.5,1.47558,0.256996,0.609001,0.058962,0.28087,0.0135736,0.653699,0.571155,0.0353195,0.00712063,0.252477,5,0.1
0,2.6,1.27586,0.0920703,0.595221,-0.206903,0.228333,0.000697374,0.365615,0.112519,0.00402331,0.0213604,0.246599,5,0.1,1,2.6,-3.05599,1.54352,0.619973,0.230908,0.346226,0.0347465,-0.0413656,0.0426769,0.00447035,0.00681137,0.212555,5,0.1,2,2.6,3.04251,3.03279,0.741229,-0.327957,-0.182778,0.00878125,-0.0803471,0.207067,-0.00992417,0.0177396,0.118848,5,0.1,3,2.6,-2.34672,-1.49615,0.601123,0.525659,-0.154054,-0.00113398,-0.467658,0.165522,0.00119209,0.0105324,0.112031,5,0.1,4,2.6,1.22081,-0.66482,0.608968,-0.152794,0.585061,-0.00856519,-1.04433,-0.670612,0.00748038,0.0159348,0.256419,5,0.1,5,2.6,-0.316982,-3.6706,0.717244,-0.866025,0.14869,0.0131458,-1.43051e-05,-0.0305176,-0.00271201,0.0120965,2.25779,5,0.1,6,2.6,-0.149848,3.98671,0.587987,-0.763004,-0.039351,0.00721961,0.928544,0.106692,-0.00119209,0.00786527,2.9354,5,0.1,7,2.6,-1.51104,-2.19907,0.571619,-0.0382751,0.866026,0.00782311,0.00679493,0,-0.00140071,0.00985031,2.27094,5,0.1,8,2.6,0.00750762,-0.202996,0.555603,0.472282,0.00880919,-0.00792742,-0.0790906,-0.218615,0.0646412,0.00829424,0.147698,5,0.1,9,2.6,-1.04122,2.83091,0.500001,0.0292957,-0.855976,-1.04308e-05,-0.0495315,0.201106,8.9407e-05,0.00868109,0.265437,5,0.1,10,2.6,-3.22435,1.21321,0.588723,0.123978,0.113052,0.0121891,-0.39196,0.0439882,-0.00491738,0.0122142,0.259329,5,0.1,11,2.6,-1.71155,-3.20068,0.607018,0.0962764,-0.00272393,-0.0109866,-0.0965595,-0.101686,0.0110567,0.00894755,2.96584,5,0.1,12,2.6,3.91839,-0.183,0.594827,-0.229168,0.866025,0.0596195,-0.0221729,0,0.0194907,0.0172727,2.23607,5,0.1,13,2.6,3.50808,-0.738892,0.684327,-0.126463,0.0712529,0.00898838,0.247836,-0.139594,-0.0175834,0.00836035,0.000899508,5,0.1,14,2.6,-1.18689,-1.48116,0.588432,-0.146776,0.866026,0.00366718,0.0272989,-5.96046e-05,-0.000685453,0.0149972,2.2581,5,0.1,15,2.6,3.20848,2.81562,0.590415,0.0382841,-0.116873,-0.0910267,0.362992,-0.844717,-0.262588,0.0111966,0.489714,5,0.1,16,2.6,-3.21368,-3.20229,0.500004,-0.0863135,-0.00964403,-3.12924e-05,0.0978708,0.104666,0.000149012,0.0127634,2.1855,5,0.1,17,2.6,-2.00587,2.50155,0.608545,0.220102,-0.277704,-0.0100613,-0.0334382,0.273824,0.00602007,0.0131859,0.103021,5,0.1,18,2.6,0.153956,-0.524059,0.654606,0.322647,-0.293788,0.084503,-0.186577,-0.219852,0.0540912,0.00763538,0.164532,5,0.1,19,2.6,1.97878,3.17489,0.610061,0.860158,-0.275689,-0.0375494,-0.117362,0.152349,-0.000536442,0.0107123,0.830181,5,0.1,20,2.6,-1.57644,2.69491,0.611725,0.126329,-0.500441,-0.00614375,-0.487566,-1.05762,-0.00271201,0.0133716,2.71991,5,0.1,21,2.6,1.20164,1.23376,0.607775,-0.0182599,0.40946,-0.00780076,0.141203,-0.405252,0.00876188,0.0173479,0.417407,5,0.1,22,2.6,4.34479,1.52873,0.646738,0.0120044,0.248304,0.0138521,-0.0128746,-0.265837,-0.0148118,0.0101793,0.00478342,5,0.1,23,2.6,-3.21796,-1.80233,0.500002,0.0784159,0.244141,-2.5332e-05,-0.186324,-0.20206,0.000208616,0.0210911,0.257162,5,0.1,24,2.6,4.02646,-2.38377,0.586125,-0.157022,0.866026,0.00300258,0.0252724,0,-0.000476837,0.0130841,2.25591,5,0.1,25,2.6,-0.204779,1.62747,0.516251,0.174749,0.302786,-0.0161633,0.0618398,-0.172734,0.00920892,0.00750565,0.0413481,5,0.1,26,2.6,-2.83085,-0.903308,0.574526,0.698769,0.636467,0.0147983,-0.135899,-0.125915,-0.0311434,0.0149607,0.88594,5,0.1,27,2.6,-1.39789,1.30961,0.603264,0.0399083,-0.626093,-0.0103697,-0.00733137,0.919282,0.00187755,0.00878373,2.84202,5,0.1,28,2.6,-2.2772,-0.859946,0.659385,-0.359714,0.0171214,0.0228167,0.253558,-0.0303686,-0.0106394,0.0103707,0.064304,5,0.1,29,2.6,1.4846,0.287528,0.610521,0.11957,0.325437,0.0166789,0.540376,0.312075,0.0256896,0.00849255,0.195788,5,0.1
0,2.7,1.25696,0.115892,0.595316,-0.171663,0.251349,0.00121985,0.339068,0.30808,0.00599772,0.0213604,0.246599,5,0.1,1,2.7,-3.03308,1.57784,0.62348,0.227151,0.335353,0.0354198,-0.0431538,-0.242762,0.00685826,0.00681137,0.212555,5,0.1,2,2.7,3.00934,3.01548,0.742061,-0.334819,-0.164108,0.00788588,-0.0430644,0.171915,-0.00824779,0.0177396,0.118848,5,0.1,3,2.7,-2.29636,-1.51078,0.601015,0.482628,-0.139019,-0.00102511,-0.408366,0.139721,0.001017,0.0105324,0.112031,5,0.1,4,2.7,1.20127,-0.609346,0.608146,-0.22888,0.527049,-0.00787675,-0.500292,-0.512842,0.00654161,0.0159348,0.256419,5,0.1,5,2.7,-0.403585,-3.65582,0.718551,-0.866025,0.147233,0.013016,1.78814e-06,-0.00743568,-0.000670552,0.0120965,2.25779,5,0.1,6,2.7,-0.220909,3.98335,0.588705,-0.653151,-0.0274111,0.00717286,1.23289,0.127479,-0.000171363,0.00786527,2.9354,5,0.1,7,2.7,-1.51485,-2.11247,0.572398,-0.0380171,0.866026,0.007769,0.000692904,0,-0.000152737,0.00985031,2.27094,5,0.1,8,2.7,0.0543213,-0.203164,0.555144,0.463407,-0.0116105,-0.0011961,-0.113651,-0.186311,0.0676475,0.00829424,0.147698,5,0.1,9,2.7,-1.03855,2.74651,0.5,0.0238914,-0.829638,-3.63216e-06,-0.0571907,0.34149,4.84288e-05,0.00868109,0.265437,5,0.1,10,2.7,-3.21387,1.22474,0.58992,0.0863809,0.117508,0.011746,-0.354335,0.0387505,-0.00441074,0.0122142,0.259329,5,0.1,11,2.7,-1.70152,-3.20159,0.605951,0.111504,-0.0152368,-0.0105505,0.344865,-0.0960678,-0.000741333,0.00894755,2.96584,5,0.1,12,2.7,3.89526,-0.0963974,0.600787,-0.233866,0.866025,0.0586834,-0.0558794,1.49012e-07,-0.0349432,0.0172727,2.23607,5,0.1,13,2.7,3.49664,-0.732448,0.68514,-0.102589,0.057805,0.00729421,0.229076,-0.129029,-0.0162609,0.00836035,0.000899508,5,0.1,14,2.7,-1.20149,-1.39456,0.588797,-0.145648,0.866025,0.00363868,0.00413507,1.49012e-05,-0.000111759,0.0149972,2.2581,5,0.1,15,2.7,3.21335,2.80094,0.580396,0.0522189,-0.165597,-0.105726,-0.0475347,-0.177309,-0.0448339,0.0111966,0.489714,5,0.1,16,2.7,-3.22185,-3.2027,0.500002,-0.0774894,0.00467561,-1.75089e-05,0.0812262,0.289157,0.000119209,0.0127634,2.1855,5,0.1,17,2.7,-1.98396,2.47533,0.607564,0.218464,-0.244952,-0.00958629,-0.0119731,0.373259,0.00402331,0.0131859,0.103021,5,0.1,18,2.7,0.185203,-0.554625,0.663376,0.301394,-0.317806,0.0911883,-0.240363,-0.236269,0.0713952,0.00763538,0.164532,5,0.1,19,2.7,2.0644,3.14804,0.606349,0.853265,-0.261549,-0.036282,-0.0637844,0.139624,0.0245534,0.0107123,0.830181,5,0.1,20,2.7,-1.56615,2.64099,0.611096,0.0804514,-0.565384,-0.00644103,-0.426009,-0.290498,-0.00283122,0.0133716,2.71991,5,0.1,21,2.7,1.20049,1.27281,0.607036,-0.00533462,0.372439,-0.00700904,0.111386,-0.347197,0.00730529,0.0173479,0.417407,5,0.1,22,2.7,4.34593,1.55223,0.648049,0.0107102,0.221646,0.0123667,-0.0130832,-0.269733,-0.0150353,0.0101793,0.00478342,5,0.1,23,2.7,-3.21107,-1.77894,0.5,0.0592045,0.223452,-9.22009e-06,-0.193268,-0.214472,0.000115484,0.0210911,0.257162,5,0.1,24,2.7,4.01082,-2.29717,0.586424,-0.156241,0.866026,0.00298796,7.45058e-05,0,-3.72529e-06,0.0130841,2.25591,5,0.1,25,2.7,-0.187004,1.65692,0.514679,0.180434,0.286154,-0.0152765,0.0431044,-0.169069,0.0090152,0.00750565,0.0413481,5,0.1,26,2.7,-2.76135,-0.840349,0.575877,0.693171,0.621651,0.0124738,-0.0189543,-0.18828,-0.0167191,0.0149607,0.88594,5,0.1,27,2.7,-1.39392,1.25154,0.602232,0.0395972,-0.539584,-0.0102911,-0.0012815,0.68181,0.000320375,0.00878373,2.84202,5,0.1,28,2.7,-2.31211,-0.858356,0.66162,-0.34019,0.0149371,0.021919,0.157848,-0.0150204,-0.00835955,0.0103707,0.064304,5,0.1,29,2.7,1.49929,0.321408,0.612316,0.173722,0.349717,0.0191524,0.519745,0.164984,0.0224449,0.00849255,0.195788,5,0.1
0,2.8,1.24144,0.142622,0.595468,-0.13912,0.283019,0.00182092,0.311673,0.295773,0.00572205,0.0216443,0.159871,5,0.1,1,2.8,-3.01065,1.60981,0.627046,0.220716,0.300926,0.0357568,-0.0920296,-0.430524,-0.00163913,0.0152375,3.17474,5,0.1,2,2.8,2.97579,2.99991,0.742809,-0.334275,-0.147444,0.0070855,0.0629425,0.165462,-0.00795722,0.0131505,0.136095,5,0.1,3,2.8,-2.25014,-1.524,0.600918,0.441366,-0.125334,-0.000925362,-0.427365,0.137269,0.00101328,0.00901421,0.20426,5,0.1,4,2.8,1.17662,-0.5591,0.607392,-0.257221,0.478479,-0.00721365,-0.0873208,-0.475496,0.00688434,0.0152959,0.155915,5,0.1,5,2.8,-0.490187,-3.64116,0.719847,-0.866025,0.145686,0.0128776,-1.43051e-05,-0.0296831,-0.0026226,0.00868359,2.25838,5,0.1,6,2.8,-0.279802,3.98125,0.589421,-0.522888,-0.0146627,0.00711232,1.34335,0.123978,-0.0013113,0.0079809,1.596,5,0.1,7,2.8,-1.51864,-2.02587,0.573173,-0.0377387,0.866026,0.00771135,0.00661612,-5.96046e-05,-0.00137091,0.012967,2.27275,5,0.1,8,2.8,0.0999356,-0.205179,0.555352,0.447034,-0.0278812,0.00519603,-0.22376,-0.136852,0.0584722,0.00926299,0.194936,5,0.1,9,2.8,-1.03645,2.66559,0.5,0.0181019,-0.785202,0,-0.0575781,0.556231,2.98023e-05,0.00853739,0.0790198,5,0.1,10,2.8,-3.2069,1.23663,0.59107,0.0540257,0.119728,0.011228,-0.289202,0.00137091,-0.00628829,0.0113515,0.253414,5,0.1,11,2.8,-1.6883,-3.20327,0.604883,0.15527,-0.0144958,-0.0108525,0.48697,0.132918,-0.00411272,0.00899086,2.68136,5,0.1,12,2.8,3.87165,-0.00979487,0.606413,-0.23762,0.866025,0.0532404,-0.00798702,-1.19209e-06,-0.0709891,0.0167055,2.24318,5,0.1,13,2.8,3.48749,-0.727292,0.685791,-0.0807583,0.0455052,0.0057444,0.207067,-0.116616,-0.0147223,0.0095378,0.000768955,5,0.1,14,2.8,-1.21601,-1.30795,0.58916,-0.144428,0.866026,0.00360906,0.0264645,-5.96046e-05,-0.000685453,0.0164701,2.25855,5,0.1,15,2.8,3.21791,2.78427,0.569866,0.0353992,-0.161022,-0.102481,-0.25928,0.229597,0.0982881,0.0112236,0.379931,5,0.1,16,2.8,-3.2292,-3.2,0.5,-0.0696182,0.0571072,-5.96046e-06,0.0782013,0.741363,2.98023e-05,0.00955233,3.21574,5,0.1,17,2.8,-1.96223,2.45281,0.606626,0.215572,-0.204563,-0.0091657,-0.0546575,0.427246,0.00479817,0.0129946,0.0844361,5,0.1,18,2.8,0.214041,-0.587452,0.672825,0.27434,-0.33692,0.0973716,-0.301138,-0.128955,0.0464022,0.0138602,0.715921,5,0.1,19,2.8,2.14921,3.12262,0.602876,0.840062,-0.246227,-0.0328928,-0.230551,0.173211,0.0420213,0.0093628,0.631838,5,0.1,20,2.8,-1.56011,2.58393,0.61044,0.0417829,-0.567335,-0.00664145,-0.344813,0.212789,-0.000864267,0.0132715,2.99728,5,0.1,21,2.8,1.20043,1.30833,0.606371,0.00313818,0.337976,-0.00629872,0.0551343,-0.350475,0.00703335,0.0168344,0.655426,5,0.1,22,2.8,4.34693,1.57303,0.649209,0.00935793,0.194007,0.0108257,-0.0135899,-0.284195,-0.015825,0.00854695,0.00146622,5,0.1,23,2.8,-3.2061,-1.7577,0.5,0.0405669,0.200817,-1.49012e-06,-0.176072,-0.23967,5.96046e-05,0.0204962,0.250937,5,0.1,24,2.8,3.99522,-2.21057,0.586722,-0.155348,0.866026,0.00297129,0.0245571,0,-0.000506639,0.0132246,2.25625,5,0.1,25,2.8,-0.168834,1.68463,0.5132,0.18192,0.267452,-0.0142798,-0.0191331,-0.211,0.0112653,0.00766487,0.0169754,5,0.1,26,2.8,-2.69222,-0.779347,0.577056,0.687641,0.595888,0.0112087,-0.122428,-0.338316,-0.00965595,0.0100441,1.16356,5,0.1,27,2.8,-1.38997,1.2,0.601206,0.0392437,-0.500926,-0.0102013,-0.00739098,0.108361,0.00193715,0.00832952,2.73816,5,0.1,28,2.8,-2.34536,-0.856923,0.663767,-0.324553,0.0138178,0.0209674,0.169754,-0.00867248,-0.0113249,0.00864524,0.0302264,5,0.1,29,2.8,1.51907,0.356906,0.614329,0.219619,0.357135,0.0209451,0.382125,-0.0210851,0.0124872,0.00773613,0.166073,5,0.1
0,2.9,1.22904,0.172487,0.595679,-0.109458,0.314462,0.00239955,0.28076,0.307211,0.00557676,0.0216443,0.159871,5,0.1,1,2.9,-2.98721,1.63752,0.630537,0.263293,0.251475,0.0333882,0.822157,-0.542887,-0.0422932,0.0152375,3.17474,5,0.1,2,2.9,2.94247,2.98586,0.743485,-0.333775,-0.13467,0.00647046,-0.0277907,0.0993609,-0.00479072,0.0131505,0.136095,5,0.1,3,2.9,-2.20785,-1.53605,0.60083,0.406693,-0.117367,-0.000833347,-0.288919,0.0357479,0.000849366,0.00901421,0.20426,5,0.1,4,2.9,1.15093,-0.513404,0.606703,-0.252372,0.43722,-0.00658324,0.167795,-0.368556,0.00593439,0.0152959,0.155915,5,0.1,5,2.9,-0.57679,-3.62668,0.721127,-0.866026,0.14426,0.0127517,1.93715e-06,-0.00745058,-0.000663102,0.00868359,2.25838,5,0.1,6,2.9,-0.325394,3.98041,0.590127,-0.389728,-0.00226162,0.00701826,1.29795,0.120655,-0.000908971,0.0079809,1.596,5,0.1,7,2.9,-1.52232,-1.93926,0.573946,-0.0352254,0.866025,0.00781696,0.0409111,1.49012e-05,0.00265986,0.012967,2.27275,5,0.1,8,2.9,0.143704,-0.20861,0.55616,0.429585,-0.0402444,0.0108887,-0.147826,-0.107762,0.0536144,0.00926299,0.194936,5,0.1,9,2.9,-1.03493,2.59001,0.5,0.0124037,-0.724661,1.76951e-06,-0.0554174,0.658885,1.11759e-05,0.00853739,0.0790198,5,0.1,10,2.9,-3.20281,1.2486,0.592162,0.0290513,0.119321,0.0106081,-0.209093,-0.0134334,-0.00640005,0.0113515,0.253414,5,0.1,11,2.9,-1.67,-3.20376,0.603767,0.213108,0.00943951,-0.0115502,0.627227,0.415757,-0.00860915,0.00899086,2.68136,5,0.1,12,2.9,3.84781,0.0768077,0.61125,-0.239117,0.866025,0.0423641,-0.0101179,7.45058e-07,-0.138108,0.0167055,2.24318,5,0.1,13,2.9,3.48041,-0.723303,0.686294,-0.0612594,0.0345228,0.00435803,0.182271,-0.102669,-0.0129566,0.0095378,0.000768955,5,0.1,14,2.9,-1.23038,-1.22135,0.589519,-0.143342,0.866025,0.00357991,0.00397116,1.49012e-05,-0.000115484,0.0164701,2.25855,5,0.1,15,2.9,3.22015,2.76984,0.560279,0.00967346,-0.123337,-0.087809,-0.248447,0.490531,0.18549,0.0112236,0.379931,5,0.1,16,2.9,-3.23626,-3.18919,0.500058,-0.0754382,0.170212,0.00163391,-0.163868,1.40783,0.0291318,0.00955233,3.21574,5,0.1,17,2.9,-1.94096,2.43455,0.605733,0.209529,-0.160401,-0.00870274,-0.072673,0.447273,0.00474229,0.0129946,0.0844361,5,0.1,18,2.9,0.239248,-0.620742,0.682541,0.223712,-0.319657,0.0946884,-0.667716,0.42557,-0.0894032,0.0138602,0.715921,5,0.1,19,2.9,2.2317,3.09894,0.599595,0.805863,-0.226644,-0.0343977,-0.456706,0.218242,-0.0594072,0.0093628,0.631838,5,0.1,20,2.9,-1.55704,2.52925,0.609778,0.0250319,-0.518976,-0.00652531,-0.020273,0.654399,0.00304356,0.0132715,2.99728,5,0.1,21,2.9,1.20104,1.34065,0.605774,0.00872705,0.310552,-0.00566551,0.033997,-0.217929,0.00583008,0.0168344,0.655426,5,0.1,22,2.9,4.3478,1.59102,0.650213,0.00800788,0.165894,0.00925958,-0.0133514,-0.278033,-0.0154898,0.00854695,0.00146622,5,0.1,23,2.9,-3.20294,-1.7388,0.5,0.0228133,0.17724,1.95578e-06,-0.169322,-0.233509,1.11759e-05,0.0204962,0.250937,5,0.1,24,2.9,3.97974,-2.12396,0.587018,-0.154607,0.866026,0.00295416,-0.000149012,0,-2.23517e-05,0.0132246,2.25625,5,0.1,25,2.9,-0.150784,1.71032,0.511828,0.178508,0.246085,-0.0131393,-0.0531459,-0.22053,0.0117719,0.00766487,0.0169754,5,0.1,26,2.9,-2.62614,-0.722099,0.577895,0.61605,0.543268,0.00361949,-1.20193,-0.68647,-0.127465,0.0100441,1.16356,5,0.1,27,2.9,-1.38607,1.14902,0.600192,0.0388941,-0.530204,-0.0101089,-0.001885,-0.587121,0.000506639,0.00832952,2.73816,5,0.1,28,2.9,-2.37702,-0.855574,0.665807,-0.308722,0.0132623,0.019823,0.15828,-0.0034757,-0.0120848,0.00864524,0.0302264,5,0.1,29,2.9,1.54296,0.392429,0.616487,0.257843,0.352248,0.0221827,0.360526,-0.0849869,0.0109859,0.00773613,0.166073,5,0.1
0,3,1.21944,0.205314,0.595945,-0.0831097,0.340059,0.00288934,0.24569,0.186592,0.00399351,0.0206212,0.0939649,5,0.1,1,3,-2.95608,1.65988,0.633621,0.363642,0.195155,0.0279263,1.091,-0.571072,-0.0641346,0.0137117,0.285217,5,0.1,2,3,2.90897,2.97284,0.74411,-0.335491,-0.125939,0.00604987,0.0115633,0.0822544,-0.00399351,0.015166,0.0917788,5,0.1,3,3,-2.16855,-1.54768,0.600751,0.37964,-0.115782,-0.000749528,-0.269055,0.0063777,0.000804663,0.00917085,0.151102,5,0.1,4,3,1.12684,-0.471474,0.606074,-0.22673,0.401523,-0.00599027,0.330865,-0.358999,0.00604987,0.0166055,1.58785,5,0.1,5,3,-0.663392,-3.61231,0.722397,-0.866026,0.142723,0.0126153,0,-0.0295639,-0.0025928,0.00931261,2.25896,5,0.1,6,3,-0.358101,3.98075,0.590822,-0.267036,0.00889301,0.00687242,1.1404,0.0998974,-0.00223517,0.00850969,0.669073,5,0.1,7,3,-1.5256,-1.85266,0.574742,-0.0300586,0.866026,0.00810027,0.0602007,-5.96046e-05,0.00241399,0.0132674,2.27238,5,0.1,8,3,0.185897,-0.213108,0.557498,0.413597,-0.0490058,0.0156224,-0.188038,-0.0658259,0.0398457,0.0119625,0.139478,5,0.1,9,3,-1.03396,2.52104,0.5,0.00718236,-0.652891,1.49012e-06,-0.0483394,0.777841,2.98023e-05,0.00822743,0.523559,5,0.1,10,3,-3.20082,1.26041,0.593188,0.0122368,0.116393,0.00989884,-0.128269,-0.0475645,-0.00795722,0.00984804,0.503555,5,0.1,11,3,-1.64561,-3.2,0.60257,0.273326,0.0727832,-0.0123635,0.545859,0.822306,-0.00670552,0.00821746,2.27578,5,0.1,12,3,3.82393,0.16341,0.614742,-0.237644,0.866025,0.0271261,0.0475645,0,-0.159979,0.0167793,2.23908,5,0.1,13,3,3.47515,-0.720338,0.686669,-0.0444055,0.0250265,0.00315905,0.154495,-0.086993,-0.0109673,0.00811,0.000586946,5,0.1,14,3,-1.24468,-1.13475,0.589876,-0.142145,0.866026,0.00354946,0.026226,0,-0.000685453,0.0160582,2.25899,5,0.1,15,3,3.21994,2.76016,0.552504,-0.0131369,-0.068891,-0.0671238,-0.203013,0.572085,0.220507,0.0101793,0.344796,5,0.1,16,3,-3.24481,-3.16479,0.50039,-0.096941,0.318795,0.00517368,-0.242472,1.47784,0.0388324,0.0102938,2.72761,5,0.1,17,3,-1.92044,2.42072,0.604888,0.199986,-0.11664,-0.00816882,-0.122249,0.421047,0.00610948,0.0141472,0.278396,5,0.1,18,3,0.257974,-0.649997,0.691412,0.148623,-0.26063,0.0814423,-0.799552,0.715315,-0.166714,0.0127334,0.657951,5,0.1,19,3,2.30961,3.07744,0.595778,0.748461,-0.202692,-0.0425175,-0.690699,0.259995,-0.0931621,0.00954075,0.553355,5,0.1,20,3,-1.5543,2.48073,0.609146,0.0323296,-0.452024,-0.0060603,0.142217,0.629067,0.00607967,0.00814262,0.453271,5,0.1,21,3,1.20191,1.3707,0.605236,0.00679791,0.290924,-0.00510067,-0.0813603,-0.189483,0.00563264,0.013064,0.587586,5,0.1,22,3,4.34854,1.60623,0.651062,0.00667572,0.138441,0.00772774,-0.0128746,-0.270665,-0.0150502,0.0103772,0.000834357,5,0.1,23,3,-3.20143,-1.72225,0.5,0.00823736,0.15386,1.49012e-06,-0.116587,-0.235081,0,0.0187647,3.54792,5,0.1,24,3,3.9643,-2.03736,0.587313,-0.153732,0.866026,0.00293553,0.0241995,-5.96046e-05,-0.000506639,0.0193811,2.25658,5,0.1,25,3,-0.133282,1.73378,0.510576,0.17066,0.222677,-0.0118896,-0.106096,-0.249982,0.0133514,0.00668298,0.00896828,5,0.1,26,3,-2.57159,-0.671589,0.577525,0.466627,0.463693,-0.011678,-1.7004,-0.881672,-0.167102,0.0137824,0.77803,5,0.1,27,3,-1.3822,1.09264,0.599185,0.0384748,-0.59956,-0.0100002,-0.00804663,-0.718951,0.00214577,0.0101468,2.47699,5,0.1,28,3,-2.40704,-0.854263,0.667724,-0.29099,0.0129431,0.0184625,0.203729,-0.00369549,-0.0154078,0.0073116,0.556491,5,0.1,29,3,1.57037,0.427069,0.618749,0.288031,0.338813,0.0229284,0.228167,-0.188649,0.00306964,0.0189537,2.71121,5,0.1
0,3.1,1.21229,0.240201,0.596253,-0.0604354,0.35674,0.00325264,0.207558,0.130878,0.00310317,0.0206212,0.0939649,5,0.1,1,3.1,-2.91485,1.67659,0.636063,0.454673,0.140001,0.0206976,0.719249,-0.525475,-0.0777431,0.0137117,0.285217,5,0.1,2,3.1,2.87572,2.96058,0.744773,-0.327069,-0.119862,0.0078707,0.154704,0.0467747,0.0353567,0.015166,0.0917788,5,0.1,3,3.1,-2.13176,-1.55932,0.60068,0.357623,-0.117801,-0.00067642,-0.189513,-0.0361726,0.000674278,0.00917085,0.151102,5,0.1,4,3.1,1.10443,-0.433267,0.605503,-0.233323,0.36122,-0.00543855,-0.375621,-0.442661,0.0051558,0.0166055,1.58785,5,0.1,5,3.1,-0.749995,-3.59813,0.72365,-0.866026,0.141262,0.0124876,3.72529e-06,-0.00806153,-0.000696629,0.00931261,2.25896,5,0.1,6,3.1,-0.379474,3.98213,0.5915,-0.164335,0.0184823,0.00667451,0.906076,0.0891834,-0.00200048,0.00850969,0.669073,5,0.1,7,3.1,-1.52828,-1.76606,0.57557,-0.0234926,0.866025,0.00848658,0.0692233,1.49012e-05,0.00457466,0.0132674,2.27238,5,0.1,8,3.1,0.226434,-0.218308,0.559251,0.397838,-0.0546519,0.019342,-0.145312,-0.0449857,0.0331961,0.0119625,0.139478,5,0.1,9,3.1,-1.03347,2.45896,0.500001,0.00260305,-0.59411,2.8871e-06,-0.0425503,0.44252,3.72529e-06,0.00822743,0.523559,5,0.1,10,3.1,-3.20013,1.2718,0.594139,0.00244975,0.111162,0.00911169,-0.0700951,-0.0594035,-0.00797212,0.00984804,0.503555,5,0.1,11,3.1,-1.61547,-3.1877,0.601296,0.329469,0.179999,-0.0131315,0.544406,1.23692,-0.0077039,0.00821746,2.27578,5,0.1,12,3.1,3.80034,0.250013,0.616721,-0.234497,0.866025,0.0130985,0.0274181,-8.9407e-07,-0.120938,0.0167793,2.23908,5,0.1,13,3.1,3.47144,-0.718247,0.686933,-0.0302315,0.0170444,0.00215266,0.128627,-0.0724457,-0.00913441,0.00811,0.000586946,5,0.1,14,3.1,-1.25882,-1.04815,0.590229,-0.141047,0.866026,0.00351984,0.00429153,-3.72529e-06,-0.00012666,0.0160582,2.25899,5,0.1,15,3.1,3.21777,2.75625,0.546933,-0.0286546,-0.00866577,-0.0440813,-0.110522,0.609994,0.233818,0.0101793,0.344796,5,0.1,16,3.1,-3.25592,-3.12505,0.501124,-0.126667,0.478558,0.00965074,-0.32796,1.62974,0.0479147,0.0102938,2.72761,5,0.1,17,3.1,-1.90108,2.41108,0.604102,0.186855,-0.0771675,-0.00754585,-0.143081,0.362918,0.00647828,0.0141472,0.278396,5,0.1,18,3.1,0.269246,-0.672099,0.699412,0.0807153,-0.17848,0.0843798,-0.565879,0.892051,0.183824,0.0127334,0.657951,5,0.1,19,3.1,2.38058,3.05877,0.590973,0.667249,-0.168119,-0.0541771,-0.915945,0.412583,-0.130028,0.00954075,0.553355,5,0.1,20,3.1,-1.54962,2.43917,0.608588,0.0674702,-0.375057,-0.00496367,0.507772,0.877634,0.0148229,0.00814262,0.453271,5,0.1,21,3.1,1.20205,1.399,0.604752,-0.00631046,0.27631,-0.00459505,-0.214212,-0.118628,0.00464544,0.013064,0.587586,5,0.1,22,3.1,4.34914,1.61875,0.651761,0.00542551,0.112268,0.00627115,-0.0120997,-0.251926,-0.0140294,0.0103772,0.000834357,5,0.1,23,3.1,-3.20136,-1.70661,0.5,-0.00715181,0.17086,1.11759e-06,-0.138015,0.486135,-7.45058e-06,0.0187647,3.54792,5,0.1,24,3.1,3.94899,-1.95076,0.587605,-0.152998,0.866025,0.00291802,-5.96046e-05,1.49012e-05,-2.98023e-05,0.0193811,2.25658,5,0.1,25,3.1,-0.116765,1.75482,0.509452,0.1594,0.198214,-0.0105834,-0.122104,-0.242479,0.0129417,0.00668298,0.00896828,5,0.1,26,3.1,-2.53192,-0.629123,0.575684,0.340424,0.390058,-0.0236345,-0.885963,-0.614498,-0.0767112,0.0137824,0.77803,5,0.1,27,3.1,-1.37837,1.02841,0.598192,0.0380415,-0.689586,-0.00988301,-0.00281632,-0.99279,0.00076741,0.0101468,2.47699,5,0.1,28,3.1,-2.43415,-0.853656,0.669791,-0.243066,-0.00641141,0.0253523,0.698894,-0.341341,0.134051,0.0073116,0.556491,5,0.1,29,3.1,1.59871,0.458417,0.621001,0.26486,0.27461,0.0216321,-0.608906,-1.00289,-0.026498,0.0189537,2.71121,5,0.1
0,3.2,1.20722,0.27633,0.596591,-0.0416219,0.36356,0.00348091,0.1688,-0.00506639,0.0013411,0.0205949,0.0673619,5,0.1,1,3.2,-2.86647,1.68809,0.63774,0.506055,0.0911564,0.0128567,0.304461,-0.446975,-0.0770092,0.0127534,0.160663,5,0.1,2,3.2,2.84401,2.94882,0.745768,-0.30508,-0.115293,0.0122234,0.281811,0.0501871,0.0478029,0.0147228,0.146904,5,0.1,3,3.2,-2.09693,-1.57128,0.600615,0.338608,-0.121182,-0.000609457,-0.203967,-0.0238419,0.000655651,0.00896694,0.191738,5,0.1,4,3.2,1.07864,-0.399465,0.604985,-0.2864,0.313872,-0.00492781,-0.618458,-0.499904,0.0051558,0.0156076,1.28107,5,0.1,5,3.2,-0.836598,-3.58407,0.724894,-0.866026,0.139678,0.0123486,0,-0.0296831,-0.0026226,0.00812675,2.25956,5,0.1,6,3.2,-0.391809,3.98439,0.592156,-0.0867568,0.0262737,0.00642687,0.643685,0.0648499,-0.00315905,0.00871306,0.650849,5,0.1,7,3.2,-1.53028,-1.67946,0.57644,-0.0165462,0.866026,0.00888854,0.0681877,-5.96046e-05,0.00286102,0.012353,2.27315,5,0.1,8,3.2,0.26544,-0.22395,0.561331,0.381447,-0.0576645,0.0220358,-0.195235,-0.0139847,0.0197887,0.00917425,0.740416,5,0.1,9,3.2,-1.03341,2.40151,0.500001,-0.00121295,-0.556552,2.98023e-06,-0.0333786,0.34225,-2.98023e-05,0.0102363,0.817077,5,0.1,10,3.2,-3.20016,1.28258,0.595009,-0.00228882,0.104135,0.00827461,-0.0269413,-0.082612,-0.00888109,0.0101016,0.419463,5,0.1,11,3.2,-1.58002,-3.16341,0.599949,0.376657,0.305247,-0.0137404,0.376403,1.20425,-0.0038147,0.00821147,1.80801,5,0.1,12,3.2,3.77707,0.336615,0.617488,-0.230104,0.866025,0.00284761,0.068903,1.43051e-05,-0.0845492,0.0178853,2.24094,5,0.1,13,3.2,3.46902,-0.716879,0.687105,-0.0187218,0.0105605,0.00133514,0.101328,-0.0571012,-0.00721216,0.00788727,0.000344223,5,0.1,14,3.2,-1.27288,-0.961543,0.59058,-0.139824,0.866026,0.00348836,0.0261664,0,-0.000655651,0.016209,2.25943,5,0.1,15,3.2,3.21449,2.75835,0.543671,-0.0358701,0.0492215,-0.0214994,-0.0368357,0.531435,0.212908,0.0110413,0.313337,5,0.1,16,3.2,-3.27021,-3.06939,0.502324,-0.158352,0.629616,0.0142738,-0.28789,1.32811,0.0424385,0.00846951,2.39247,5,0.1,17,3.2,-1.88316,2.40504,0.603381,0.170955,-0.0449002,-0.00685155,-0.17643,0.279427,0.00745058,0.0140914,0.273862,5,0.1,18,3.2,0.274824,-0.685438,0.709065,0.0340395,-0.0885129,0.110802,-0.374392,0.879973,0.312269,0.0126055,0.537681,5,0.1,19,3.2,2.44248,3.04414,0.584912,0.568593,-0.12356,-0.066784,-1.04177,0.463605,-0.114709,0.00914986,0.496245,5,0.1,20,3.2,-1.54009,2.40623,0.608173,0.124547,-0.282359,-0.00328124,0.593364,0.950336,0.0180006,0.00908935,0.28507,5,0.1,21,3.2,1.2,1.42605,0.604315,-0.037986,0.264478,-0.00414401,-0.405371,-0.129461,0.00447035,0.0124718,0.496378,5,0.1,22,3.2,4.34962,1.62875,0.65232,0.00425577,0.0882119,0.00493079,-0.0107288,-0.228465,-0.0127554,0.0107081,0.000745184,5,0.1,23,3.2,-3.20248,-1.68651,0.500001,-0.0116944,0.235292,0,0.0706911,0.733495,0,0.0188639,3.1896,5,0.1,24,3.2,3.93371,-1.86416,0.587896,-0.152129,0.866026,0.00289977,0.0241995,-5.96046e-05,-0.000476837,0.0150659,2.25692,5,0.1,25,3.2,-0.101481,1.77342,0.508459,0.145783,0.173682,-0.00927299,-0.151779,-0.249982,0.0133216,0.00869685,0.00266448,5,0.1,26,3.2,-2.50138,-0.592907,0.573054,0.278181,0.336634,-0.0278965,-0.409126,-0.472158,-0.0126064,0.0116341,0.583143,5,0.1,27,3.2,-1.37459,0.954634,0.597209,0.037542,-0.782762,-0.00974983,-0.00888109,-0.806004,0.00229478,0.012387,2.31921,5,0.1,28,3.2,-2.45453,-0.856275,0.673113,-0.161225,-0.0478506,0.0418752,0.89395,-0.454724,0.181586,0.00886937,0.328114,5,0.1,29,3.2,1.62133,0.48015,0.623,0.18113,0.154793,0.0180826,-0.999689,-1.32039,-0.0424087,0.0188726,0.855574,5,0.1
