id,t,px,py,pz,vx,vy,vz,ax,ay,az,planning_time,qp_cost,planning_report,size,id,t,px,py,pz,vx,vy,vz,ax,ay,az,planning_time,qp_cost,planning_report,size,id,t,px,py,pz,vx,vy,vz,ax,ay,az,planning_time,qp_cost,planning_report,size,id,t,px,py,pz,vx,vy,vz,ax,ay,az,planning_time,qp_cost,planning_report,size,id,t,px,py,pz,vx,vy,vz,ax,ay,az,planning_time,qp_cost,planning_report,size,id,t,px,py,pz,vx,vy,vz,ax,ay,az,planning_time,qp_cost,planning_report,size,id,t,px,py,pz,vx,vy,vz,ax,ay,az,planning_time,qp_cost,planning_report,size,id,t,px,py,pz,vx,vy,vz,ax,ay,az,planning_time,qp_cost,planning_report,size,id,t,px,py,pz,vx,vy,vz,ax,ay,az,planning_time,qp_cost,planning_report,size,id,t,px,py,pz,vx,vy,vz,ax,ay,az,planning_time,qp_cost,planning_report,size,id,t,px,py,pz,vx,vy,vz,ax,ay,az,planning_time,qp_cost,planning_report,size,id,t,px,py,pz,vx,vy,vz,ax,ay,az,planning_time,qp_cost,planning_report,size,id,t,px,py,pz,vx,vy,vz,ax,ay,az,planning_time,qp_cost,planning_report,size,id,t,px,py,pz,vx,vy,vz,ax,ay,az,planning_time,qp_cost,planning_report,size,id,t,px,py,pz,vx,vy,vz,ax,ay,az,planning_time,qp_cost,planning_report,size,id,t,px,py,pz,vx,vy,vz,ax,ay,az,planning_time,qp_cost,planning_report,size,id,t,px,py,pz,vx,vy,vz,ax,ay,az,planning_time,qp_cost,planning_report,size,id,t,px,py,pz,vx,vy,vz,ax,ay,az,planning_time,qp_cost,planning_report,size,id,t,px,py,pz,vx,vy,vz,ax,ay,az,planning_time,qp_cost,planning_report,size,id,t,px,py,pz,vx,vy,vz,ax,ay,az,planning_time,qp_cost,planning_report,size,id,t,px,py,pz,vx,vy,vz,ax,ay,az,planning_time,qp_cost,planning_report,size,id,t,px,py,pz,vx,vy,vz,ax,ay,az,planning_time,qp_cost,planning_report,size,id,t,px,py,pz,vx,vy,vz,ax,ay,az,planning_time,qp_cost,planning_report,size,id,t,px,py,pz,vx,vy,vz,ax,ay,az,planning_time,qp_cost,planning_report,size,id,t,px,py,pz,vx,vy,vz,ax,ay,az,planning_time,qp_cost,planning_report,size,id,t,px,py,pz,vx,vy,vz,ax,ay,az,planning_time,qp_cost,planning_report,size,id,t,px,py,pz,vx,vy,vz,ax,ay,az,planning_time,qp_cost,planning_report,size,id,t,px,py,pz,vx,vy,vz,ax,ay,az,planning_time,qp_cost,planning_report,size,id,t,px,py,pz,vx,vy,vz,ax,ay,az,planning_time,qp_cost,planning_report,size,id,t,px,py,pz,vx,vy,vz,ax,ay,az,planning_time,qp_cost,planning_report,size
0,0,3.8694,0.429977,0.606791,0,0,0,0,0,0,0.0155964,3.5122,5,0.1,1,0,-2.73496,-0.799821,0.693385,0,0,0,0,0,0,0.0350012,3.5122,5,0.1,2,0,-2.03235,-3.71619,0.657197,0,0,0,0,0,0,0.010662,0.412713,5,0.1,3,0,0.572552,-0.772558,0.563404,0,0,0,0,0,0,0.00902957,0.687169,5,0.1,4,0,-0.590504,-2.33269,0.697684,0,0,0,0,0,0,0.0116428,3.51219,5,0.1,5,0,-2.14755,-4.33127,0.69718,0,0,0,0,0,0,0.011141,1.44504,5,0.1,6,0,2.33323,-2.14208,0.628653,0,0,0,0,0,0,0.014037,2.94861,5,0.1,7,0,-4.13035,2.66077,0.54329,0,0,0,0,0,0,0.0106983,0.667934,5,0.1,8,0,3.93039,-0.39872,0.582904,0,0,0,0,0,0,0.0197384,3.5122,5,0.1,9,0,-1.65946,3.63117,0.604978,0,0,0,0,0,0,0.0279396,0.660484,5,0.1,10,0,2.13332,3.68525,0.597042,0,0,0,0,0,0,0.0190646,3.5122,5,0.1,11,0,-1.67368,-1.44069,0.685394,0,0,0,0,0,0,0.0331878,3.5122,5,0.1,12,0,-1.31605,0.823759,0.661286,0,0,0,0,0,0,0.0091403,1.7095,5,0.1,13,0,3.45183,1.03007,0.677937,0,0,0,0,0,0,0.0099916,3.4322,5,0.1,14,0,4.27542,1.20181,0.54693,0,0,0,0,0,0,0.00819894,3.51219,5,0.1,15,0,-3.44206,3.86143,0.621508,0,0,0,0,0,0,0.00879035,3.51219,5,0.1,16,0,1.31778,-3.79495,0.54006,0,0,0,0,0,0,0.00818813,3.5122,5,0.1,17,0,1.39378,3.49145,0.606059,0,0,0,0,0,0,0.0146309,3.5122,5,0.1,18,0,-4.01196,-3.27741,0.558552,0,0,0,0,0,0,0.0148622,3.51219,5,0.1,19,0,4.36334,2.02035,0.681728,0,0,0,0,0,0,0.0117003,2.4788,5,0.1,20,0,0.27438,1.9682,0.627861,0,0,0,0,0,0,0.00823677,0.760887,5,0.1,21,0,0.679864,-4.28501,0.548917,0,0,0,0,0,0,0.00973969,1.52775,5,0.1,22,0,1.90648,0.97067,0.597575,0,0,0,0,0,0,0.00957671,1.85595,5,0.1,23,0,-0.588459,-3.49658,0.506452,0,0,0,0,0,0,0.0133265,3.5122,5,0.1,24,0,1.90627,-0.231783,0.596739,0,0,0,0,0,0,0.0202871,3.5122,5,0.1,25,0,1.31308,-1.55636,0.629799,0,0,0,0,0,0,0.010113,3.5122,5,0.1,26,0,-1.2145,-2.80321,0.585737,0,0,0,0,0,0,0.00892105,2.14296,5,0.1,27,0,-1.25939,1.77565,0.596717,0,0,0,0,0,0,0.00821433,3.5122,5,0.1,28,0,3.4043,-2.83349,0.583236,0,0,0,0,0,0,0.013797,3.5122,5,0.1,29,0,3.48811,3.19849,0.589883,0,0,0,0,0,0,0.0127105,3.5122,5,0.1
0,0.1,3.86895,0.432015,0.606786,-0.0128202,0.0578649,-0.000152737,-0.227928,1.02871,-0.00271946,0.0155964,3.5122,5,0.1,1,0.1,-2.73324,-0.798627,0.693425,0.048589,0.0339196,0.00112988,0.86382,0.603016,0.0200868,0.0350012,3.5122,5,0.1,2,0.1,-2.03195,-3.7156,0.657137,0.0113316,0.0167783,-0.00169491,0.201434,0.298277,-0.0301339,0.010662,0.412713,5,0.1,3,0.1,0.573207,-0.771908,0.563443,0.0185938,0.0184489,0.00108462,0.330556,0.327982,0.0192821,0.00902957,0.687169,5,0.1,4,0.1,-0.59213,-2.33138,0.697716,-0.0461498,0.0371773,0.000890903,-0.820443,0.660911,0.0158399,0.0116428,3.51219,5,0.1,5,0.1,-2.14703,-4.33004,0.697236,0.0147443,0.0350051,0.00156518,0.262126,0.622302,0.0278205,0.011141,1.44504,5,0.1,6,0.1,2.33189,-2.14345,0.628623,-0.038027,-0.038759,-0.00084918,-0.676036,-0.689045,-0.0150949,0.014037,2.94861,5,0.1,7,0.1,-4.12949,2.6605,0.543349,0.0246063,-0.00772774,0.00168048,0.437438,-0.137389,0.0298768,0.0106983,0.667934,5,0.1,8,0.1,3.93001,-0.396667,0.582915,-0.0108078,0.0582736,0.000292994,-0.192165,1.03598,0.00520796,0.0197384,3.5122,5,0.1,9,0.1,-1.65866,3.63161,0.604973,0.0225056,0.0124115,-0.000147428,0.400111,0.220641,-0.00262633,0.0279396,0.660484,5,0.1,10,0.1,2.13175,3.68387,0.597044,-0.0444122,-0.0392471,6.16536e-05,-0.789523,-0.697747,0.00109524,0.0190646,3.5122,5,0.1,11,0.1,-1.67262,-1.43889,0.685443,0.0299899,0.0511017,0.00141049,0.533156,0.908464,0.0250749,0.0331878,3.5122,5,0.1,12,0.1,-1.31633,0.82233,0.6613,-0.00800006,-0.0405658,0.000407733,-0.142232,-0.721171,0.00724941,0.0091403,1.7095,5,0.1,13,0.1,3.45167,1.03212,0.678012,-0.00449866,0.0583775,0.00213552,-0.0799894,1.03782,0.0379607,0.0099916,3.4322,5,0.1,14,0.1,4.27542,1.19972,0.546912,-2.98023e-05,-0.0592658,-0.000495091,-0.000536442,-1.05362,-0.00880659,0.00819894,3.51219,5,0.1,15,0.1,-3.43998,3.86157,0.621491,0.0591222,0.00414103,-0.000472367,1.05105,0.0736117,-0.0083968,0.00879035,3.51219,5,0.1,16,0.1,1.3157,-3.7948,0.540062,-0.0591177,0.00421964,7.45058e-05,-1.05099,0.0749975,0.0013262,0.00818813,3.5122,5,0.1,17,0.1,1.39231,3.48997,0.606054,-0.0419352,-0.0418819,-0.000137836,-0.74552,-0.744581,-0.00245124,0.0146309,3.5122,5,0.1,18,0.1,-4.0116,-3.27535,0.55857,0.0102118,0.058379,0.000490993,0.181556,1.03787,0.00873208,0.0148622,3.51219,5,0.1,19,0.1,4.36191,2.02137,0.6818,-0.0404008,0.0290316,0.00202293,-0.718266,0.516102,0.0359677,0.0117003,2.4788,5,0.1,20,0.1,0.273467,1.96786,0.627832,-0.0259116,-0.00942945,-0.000825804,-0.460649,-0.167638,-0.0146814,0.00823677,0.760887,5,0.1,21,0.1,0.680564,-4.28382,0.548971,0.019859,0.0336356,0.00151386,0.353046,0.597984,0.0269152,0.00973969,1.52775,5,0.1,22,0.1,1.90574,0.969343,0.597578,-0.0209358,-0.037655,7.18981e-05,-0.372186,-0.669427,0.00127405,0.00957671,1.85595,5,0.1,23,0.1,-0.588287,-3.4945,0.506419,0.00487231,0.05906,-0.000953674,0.0866205,1.04997,-0.0169501,0.0133265,3.5122,5,0.1,24,0.1,1.90541,-0.229883,0.596743,-0.0245471,0.0539459,9.36911e-05,-0.436395,0.959038,0.00166148,0.0202871,3.5122,5,0.1,25,0.1,1.31301,-1.55427,0.62978,-0.00208877,0.0592288,-0.000550505,-0.0371337,1.05296,-0.00978634,0.010113,3.5122,5,0.1,26,0.1,-1.21466,-2.80483,0.585694,-0.00440795,-0.0460692,-0.00121919,-0.0783727,-0.819027,-0.0216775,0.00892105,2.14296,5,0.1,27,0.1,-1.25734,1.77527,0.59672,0.0582863,-0.0107428,8.29808e-05,1.0362,-0.190981,0.00147149,0.00821433,3.5122,5,0.1,28,0.1,3.40432,-2.83142,0.58348,0.000513718,0.0588581,0.0069363,0.00913441,1.04639,0.123315,0.013797,3.5122,5,0.1,29,0.1,3.48611,3.19791,0.589888,-0.0569236,-0.0165068,0.000152178,-1.01198,-0.293463,0.00270456,0.0127105,3.5122,5,0.1
0,0.2,3.86635,0.443769,0.606755,-0.0405192,0.182881,-0.000484288,-0.303864,1.37162,-0.00360608,0.0150783,2.92579,5,0.1,1,0.2,-2.72338,-0.791736,0.693655,0.153565,0.107203,0.00357032,1.1518,0.804007,0.0267923,0.0350243,2.92579,5,0.1,2,0.2,-2.02965,-3.71219,0.656793,0.0358105,0.0530303,-0.00535697,0.268579,0.397682,-0.0401735,0.0108495,0.338611,5,0.1,3,0.2,0.576984,-0.76816,0.563663,0.0587672,0.0583082,0.00342727,0.440717,0.437289,0.0257194,0.0132318,0.563789,5,0.1,4,0.2,-0.601504,-2.32383,0.697897,-0.145857,0.117499,0.00281632,-1.09392,0.881195,0.0211298,0.0118992,2.92579,5,0.1,5,0.2,-2.14404,-4.32292,0.697553,0.0465989,0.110638,0.00494719,0.349522,0.829697,0.0371039,0.0114308,1.18559,5,0.1,6,0.2,2.32416,-2.15132,0.628451,-0.120187,-0.122499,-0.0026837,-0.901341,-0.918746,-0.0201464,0.0146649,2.41919,5,0.1,7,0.2,-4.12449,2.65893,0.54369,0.0777721,-0.02442,0.00531226,0.583172,-0.183225,0.0398159,0.0135094,0.54801,5,0.1,8,0.2,3.92781,-0.38483,0.582974,-0.0341594,0.184174,0.000926852,-0.256181,1.38129,0.00694394,0.021576,2.9258,5,0.1,9,0.2,-1.65409,3.63413,0.604943,0.0711292,0.0392258,-0.000466406,0.533462,0.294328,-0.00348687,0.030124,0.541892,5,0.1,10,0.2,2.12273,3.67589,0.597057,-0.140363,-0.124037,0.000195205,-1.05274,-0.930429,0.00143051,0.01864,2.9259,5,0.1,11,0.2,-1.66653,-1.42851,0.68573,0.0947833,0.161505,0.00445843,0.710845,1.21135,0.0334084,0.037215,2.92579,5,0.1,12,0.2,-1.31796,0.81409,0.661383,-0.0252843,-0.128208,0.00128895,-0.189602,-0.961542,0.00965595,0.00925913,1.40256,5,0.1,13,0.2,3.45076,1.04398,0.678446,-0.0142217,0.1845,0.00674874,-0.106573,1.38378,0.0506341,0.00955281,2.81594,5,0.1,14,0.2,4.27542,1.18768,0.546812,-8.34465e-05,-0.187311,-0.00156462,-0.000953674,-1.40482,-0.0117421,0.0119764,2.92579,5,0.1,15,0.2,-3.42797,3.86241,0.621395,0.186849,0.0130892,-0.0014931,1.40154,0.0982285,-0.0111759,0.00977351,2.92578,5,0.1,16,0.2,1.30369,-3.79394,0.540077,-0.18684,0.0133336,0.000236928,-1.40136,0.0998974,0.00172853,0.00953687,2.92579,5,0.1,17,0.2,1.38379,3.48147,0.606026,-0.132537,-0.13237,-0.000435114,-0.994027,-0.992775,-0.00327826,0.0147294,2.92579,5,0.1,18,0.2,-4.00953,-3.26349,0.558669,0.03227,0.184506,0.00155121,0.242233,1.3839,0.0116527,0.016485,2.92578,5,0.1,19,0.2,4.35371,2.02727,0.682211,-0.127685,0.0917554,0.00639558,-0.957727,0.688076,0.0479221,0.0177896,2.03373,5,0.1,20,0.2,0.268204,1.96595,0.627665,-0.0818931,-0.0298023,-0.00260919,-0.614196,-0.223458,-0.0195801,0.00898221,0.624271,5,0.1,21,0.2,0.684597,-4.27699,0.549278,0.0627637,0.106299,0.00478327,0.470757,0.79751,0.0359118,0.012886,1.25342,5,0.1,22,0.2,1.90149,0.961694,0.597592,-0.0661671,-0.11901,0.000227988,-0.496268,-0.89255,0.00166893,0.0151728,1.52271,5,0.1,23,0.2,-0.587297,-3.4825,0.506225,0.0153989,0.186658,-0.00301301,0.115484,1.39999,-0.02262,0.0113254,2.92609,5,0.1,24,0.2,1.90042,-0.218925,0.596762,-0.0775814,0.170496,0.000295043,-0.581861,1.27872,0.00223517,0.0216085,2.92579,5,0.1,25,0.2,1.31259,-1.54224,0.629668,-0.00660121,0.187191,-0.00174046,-0.0495315,1.40399,-0.0130236,0.00962066,2.92579,5,0.1,26,0.2,-1.21555,-2.81419,0.585447,-0.0139326,-0.145602,-0.00385344,-0.104487,-1.09196,-0.0289083,0.00868015,1.75819,5,0.1,27,0.2,-1.2455,1.77309,0.596737,0.184214,-0.0339538,0.00026226,1.38164,-0.254631,0.00196695,0.0101137,3.17917,5,0.1,28,0.2,3.40442,-2.81946,0.584889,0.00162125,0.18602,0.0219226,0.0122786,1.39523,0.164449,0.0136793,2.93063,5,0.1,29,0.2,3.47454,3.19456,0.589919,-0.179905,-0.0521719,0.000479817,-1.34921,-0.391245,0.00363588,0.0126506,3.01261,5,0.1
0,0.3,3.86061,0.469685,0.606686,-0.0754669,0.34063,-0.000899658,-0.373453,1.68569,-0.00444055,0.0150783,2.92579,5,0.1,1,0.3,-2.70161,-0.776545,0.694161,0.286032,0.199672,0.00665132,1.41549,0.988115,0.0329167,0.0350243,2.92579,5,0.1,2,0.3,-2.02458,-3.70468,0.656034,0.0666197,0.0986505,-0.00996552,0.328645,0.486657,-0.0491589,0.0108495,0.338611,5,0.1,3,0.3,0.585307,-0.759902,0.564148,0.109323,0.108471,0.00637723,0.539314,0.535116,0.0314601,0.0132318,0.563789,5,0.1,4,0.3,-0.622173,-2.30718,0.698296,-0.271668,0.218846,0.00524595,-1.3444,1.083,0.0259653,0.0118992,2.92579,5,0.1,5,0.3,-2.13744,-4.30726,0.698254,0.0866927,0.205816,0.00920324,0.427693,1.01528,0.0454001,0.0114308,1.18559,5,0.1,6,0.3,2.30714,-2.16867,0.62807,-0.223582,-0.227889,-0.00499394,-1.10298,-1.12423,-0.0246391,0.0146649,2.41919,5,0.1,7,0.3,-4.11347,2.65547,0.544442,0.144672,-0.0454362,0.00988031,0.713676,-0.224188,0.048738,0.0135094,0.54801,5,0.1,8,0.3,3.92297,-0.358731,0.583105,-0.0636239,0.343035,0.00172555,-0.314847,1.69758,0.00853837,0.021576,2.9258,5,0.1,9,0.3,-1.64402,3.63969,0.604877,0.132324,0.072984,-0.000866782,0.65279,0.360087,-0.00427291,0.030124,0.541892,5,0.1,10,0.3,2.10281,3.65834,0.597085,-0.26213,-0.230243,0.000378676,-1.3061,-1.1292,0.00209361,0.01864,2.9259,5,0.1,11,0.3,-1.6531,-1.40562,0.686361,0.176537,0.300818,0.00830172,0.873625,1.48868,0.0410788,0.037215,2.92579,5,0.1,12,0.3,-1.32154,0.795931,0.661565,-0.047035,-0.238508,0.00239676,-0.232033,-1.17663,0.0118203,0.00925913,1.40256,5,0.1,13,0.3,3.44875,1.07011,0.679401,-0.0264496,0.343234,0.0125566,-0.130475,1.69329,0.0619553,0.00955281,2.81594,5,0.1,14,0.3,4.2754,1.16114,0.54659,-0.000184029,-0.348878,-0.00291504,-0.000983477,-1.72649,-0.0144243,0.0119764,2.92579,5,0.1,15,0.3,-3.40149,3.86427,0.621184,0.348033,0.0243835,-0.00277925,1.72238,0.12067,-0.0137538,0.00977351,2.92578,5,0.1,16,0.3,1.27721,-3.79205,0.540111,-0.348007,0.0248268,0.000437163,-1.7222,0.122845,0.00215322,0.00953687,2.92579,5,0.1,17,0.3,1.36501,3.46271,0.605964,-0.246859,-0.246547,-0.000811648,-1.22164,-1.22008,-0.00401959,0.0147294,2.92579,5,0.1,18,0.3,-4.00496,-3.23734,0.558889,0.0601243,0.343664,0.00289092,0.297591,1.70073,0.0143088,0.016485,2.92578,5,0.1,19,0.3,4.33562,2.04026,0.683116,-0.237543,0.170688,0.0118938,-1.17192,0.842035,0.0586621,0.0177896,2.03373,5,0.1,20,0.3,0.256606,1.96173,0.627295,-0.152348,-0.0554377,-0.00485517,-0.75158,-0.273474,-0.0239536,0.00898221,0.624271,5,0.1,21,0.3,0.693487,-4.26193,0.549956,0.116764,0.197774,0.00890186,0.576038,0.975728,0.0439249,0.012886,1.25342,5,0.1,22,0.3,1.89211,0.944839,0.597624,-0.123094,-0.221396,0.000420678,-0.607274,-1.09221,0.00206754,0.0151728,1.52271,5,0.1,23,0.3,-0.585173,-3.45605,0.505809,0.0270269,0.347785,-0.00529028,0.11253,1.72262,-0.0220314,0.0113254,2.92609,5,0.1,24,0.3,1.88943,-0.194764,0.596803,-0.144501,0.31756,0.000551436,-0.715092,1.57152,0.00273809,0.0216085,2.92579,5,0.1,25,0.3,1.31165,-1.51571,0.629422,-0.012297,0.348661,-0.00323895,-0.0608638,1.72544,-0.0160187,0.00962066,2.92579,5,0.1,26,0.3,-1.21753,-2.83481,0.584901,-0.0259187,-0.270863,-0.00716923,-0.127852,-1.33623,-0.0353716,0.00868015,1.75819,5,0.1,27,0.3,-1.2209,1.76825,0.596774,0.300265,-0.0639629,0.000494067,0.936218,-0.325814,0.00251457,0.0101137,3.17917,5,0.1,28,0.3,3.40465,-2.79308,0.587757,0.0030335,0.346889,0.0340696,0.0150949,1.7219,0.0818223,0.0136793,2.93063,5,0.1,29,0.3,3.44901,3.18817,0.589987,-0.336159,-0.0684846,0.000888389,-1.67741,0.029102,0.00430271,0.0126506,3.01261,5,0.1
0,0.4,3.85122,0.512034,0.606574,-0.111449,0.503041,-0.00132769,-0.33021,1.49044,-0.00393391,0.0147131,2.51165,5,0.1,1,0.4,-2.66605,-0.751721,0.694988,0.422412,0.294875,0.00982285,1.25146,0.873655,0.0290871,0.0358346,2.51007,5,0.1,2,0.4,-2.0163,-3.69242,0.654796,0.0982523,0.145483,-0.014697,0.289798,0.429392,-0.0433624,0.00984549,0.401965,5,0.1,3,0.4,0.598888,-0.746427,0.564941,0.161226,0.15997,0.00940561,0.475794,0.472069,0.027746,0.0104441,0.446077,5,0.1,4,0.4,-0.655948,-2.27997,0.698948,-0.401197,0.323188,0.00774711,-1.18873,0.957608,0.0229478,0.0126776,2.51008,5,0.1,5,0.4,-2.12667,-4.28169,0.699397,0.127852,0.303531,0.0135735,0.377297,0.895739,0.0400245,0.0126302,0.938053,5,0.1,6,0.4,2.27937,-2.19698,0.62745,-0.329733,-0.336087,-0.00736415,-0.973105,-0.991702,-0.0217557,0.0446869,1.91409,5,0.1,7,0.4,-4.0955,2.64983,0.54567,0.213361,-0.0670135,0.0145704,0.629663,-0.197649,0.0430048,0.0173556,0.433593,5,0.1,8,0.4,3.91506,-0.316084,0.58332,-0.0939548,0.506593,0.0025481,-0.278473,1.50096,0.00753999,0.0301905,2.51256,5,0.1,9,0.4,-1.62758,3.64875,0.604769,0.195146,0.107634,-0.00127703,0.57596,0.317693,-0.0038147,0.0312949,0.428749,5,0.1,10,0.4,2.07017,3.62978,0.597134,-0.388277,-0.33868,0.000588596,-1.1605,-0.99194,0.00199676,0.0242216,2.51014,5,0.1,11,0.4,-1.63115,-1.36823,0.687393,0.260711,0.444248,0.0122592,0.772417,1.31631,0.0362992,0.0433284,2.51007,5,0.1,12,0.4,-1.32738,0.766302,0.661863,-0.0693649,-0.351746,0.00353456,-0.204742,-1.03804,0.0104308,0.0086559,1.10972,5,0.1,13,0.4,3.44546,1.11275,0.680961,-0.0390053,0.506195,0.0185177,-0.115156,1.49381,0.0546575,0.0155804,2.22853,5,0.1,14,0.4,4.27538,1.11776,0.546228,-0.000274181,-0.515223,-0.00430495,-0.000953674,-1.52653,-0.0127554,0.0111968,2.51566,5,0.1,15,0.4,-3.35822,3.8673,0.620838,0.513983,0.0360131,-0.00410378,1.52266,0.106573,-0.0121593,0.00951207,2.51512,5,0.1,16,0.4,1.23395,-3.78897,0.540165,-0.513938,0.0366628,0.00064373,-1.52272,0.1086,0.00193715,0.0121752,2.51511,5,0.1,17,0.4,1.33432,3.43206,0.605863,-0.36456,-0.364101,-0.00119954,-1.08016,-1.07884,-0.00354648,0.0151427,2.51007,5,0.1,18,0.4,-3.99748,-3.19462,0.559249,0.088793,0.507522,0.00426918,0.263095,1.50383,0.012666,0.0145358,2.51282,5,0.1,19,0.4,4.30611,2.06147,0.684594,-0.350332,0.251722,0.0175402,-1.03378,0.742912,0.0517666,0.0128568,1.60911,5,0.1,20,0.4,0.237679,1.95484,0.626692,-0.224679,-0.0817567,-0.00716001,-0.66308,-0.24128,-0.0211298,0.00878177,0.493931,5,0.1,21,0.4,0.707992,-4.23736,0.551062,0.172201,0.291681,0.0131279,0.508189,0.860691,0.0387728,0.0098998,1.06341,5,0.1,22,0.4,1.87682,0.917336,0.597677,-0.181538,-0.326508,0.000619888,-0.535667,-0.963598,0.00181794,0.0119832,1.20479,5,0.1,23,0.4,-0.581944,-3.4128,0.505177,0.0371292,0.513804,-0.0072673,0.0862777,1.52409,-0.0169277,0.0123174,2.51545,5,0.1,24,0.4,1.87146,-0.155284,0.596872,-0.213397,0.468972,0.000813603,-0.632346,1.3895,0.00244379,0.0221204,2.47385,5,0.1,25,0.4,1.31012,-1.47237,0.629019,-0.0181615,0.514904,-0.00478327,-0.053823,1.52552,-0.0141859,0.0103495,2.51552,5,0.1,26,0.4,-1.22075,-2.86846,0.58401,-0.0382245,-0.399464,-0.0105724,-0.112772,-1.17874,-0.031203,0.00777304,1.39111,5,0.1,27,0.4,-1.18695,1.76024,0.596836,0.371286,-0.0956774,0.000739098,0.485659,-0.293911,0.00226498,0.00920646,0.786022,5,0.1,28,0.4,3.40503,-2.74993,0.59146,0.00448823,0.512969,0.0389248,0.0133514,1.52576,0.0182986,0.0128678,2.51839,5,0.1,29,0.4,3.40713,3.18192,0.590096,-0.498259,-0.0528395,0.00129789,-1.49179,0.25475,0.00372529,0.0136392,2.56725,5,0.1
0,0.5,3.83838,0.569875,0.606421,-0.145429,0.65277,-0.00173273,-0.331908,1.43206,-0.00395998,0.0147131,2.51165,5,0.1,1,0.5,-2.61738,-0.717741,0.696119,0.551194,0.384777,0.0128161,1.25791,0.878155,0.0292361,0.0358346,2.51007,5,0.1,2,0.5,-2.005,-3.67553,0.653105,0.127658,0.193494,-0.0190968,0.283889,0.499561,-0.0424758,0.00984549,0.401965,5,0.1,3,0.5,0.617433,-0.728027,0.566022,0.209501,0.207867,0.0122208,0.466015,0.462372,0.0271723,0.0104441,0.446077,5,0.1,4,0.5,-0.702181,-2.24272,0.699841,-0.52352,0.421728,0.0101087,-1.19483,0.962526,0.0230707,0.0126776,2.51008,5,0.1,5,0.5,-2.11196,-4.24677,0.700959,0.166132,0.394413,0.0176351,0.369534,0.877321,0.0392161,0.0126302,0.938053,5,0.1,6,0.5,2.24144,-2.23564,0.626603,-0.428465,-0.436707,-0.00957092,-0.953093,-0.971362,-0.0212975,0.0446869,1.91409,5,0.1,7,0.5,-4.07096,2.64212,0.547346,0.277247,-0.0870693,0.0189337,0.616699,-0.193611,0.0421219,0.0173556,0.433593,5,0.1,8,0.5,3.90423,-0.257866,0.583614,-0.122609,0.656464,0.00332426,-0.279889,1.42558,0.00758469,0.0301905,2.51256,5,0.1,9,0.5,-1.60513,3.66113,0.604622,0.253582,0.139865,-0.00166334,0.564098,0.311106,-0.00372529,0.0312949,0.428749,5,0.1,10,0.5,2.02537,3.59082,0.597203,-0.507909,-0.440504,0.000799913,-1.17039,-0.992417,0.00211224,0.0242216,2.51014,5,0.1,11,0.5,-1.60111,-1.31703,0.688806,0.340196,0.579699,0.0159955,0.77641,1.32304,0.0365004,0.0433284,2.51007,5,0.1,12,0.5,-1.33536,0.725842,0.662269,-0.0901377,-0.457067,0.00459291,-0.200517,-1.0167,0.0102147,0.0086559,1.10972,5,0.1,13,0.5,3.44097,1.1709,0.683091,-0.0506897,0.655644,0.024063,-0.112787,1.42476,0.0535324,0.0155804,2.22853,5,0.1,14,0.5,4.27535,1.05863,0.545732,-0.000367314,-0.665439,-0.00561746,-0.000864267,-1.40984,-0.0128187,0.0111968,2.51566,5,0.1,15,0.5,-3.29922,3.87145,0.620365,0.664139,0.0469819,-0.00535529,1.41206,0.107139,-0.0122264,0.00951207,2.51512,5,0.1,16,0.5,1.17495,-3.78474,0.540239,-0.664103,0.0478406,0.00084294,-1.41218,0.109181,0.00194833,0.0121752,2.51511,5,0.1,17,0.5,1.29231,3.3901,0.605725,-0.475711,-0.475116,-0.00156472,-1.0857,-1.08437,-0.0035651,0.0151427,2.51007,5,0.1,18,0.5,-3.98725,-3.1363,0.559741,0.115865,0.657436,0.0055722,0.264436,1.4239,0.0127293,0.0145358,2.51282,5,0.1,19,0.5,4.26582,2.09042,0.686611,-0.455222,0.327098,0.0227927,-1.0125,0.727609,0.0507049,0.0128568,1.60911,5,0.1,20,0.5,0.211836,1.94544,0.625868,-0.291955,-0.106238,-0.00930363,-0.649433,-0.236325,-0.020694,0.00878177,0.493931,5,0.1,21,0.5,0.72766,-4.2046,0.552586,0.219793,0.356636,0.0174647,0.427172,0.445276,0.0451356,0.0098998,1.06341,5,0.1,22,0.5,1.85594,0.879779,0.597748,-0.235888,-0.424275,0.000804849,-0.524677,-0.943772,0.00178814,0.0119832,1.20479,5,0.1,23,0.5,-0.577804,-3.35381,0.504382,0.0455158,0.664068,-0.00846731,0.0776425,1.41282,-0.00731274,0.0123174,2.51545,5,0.1,24,0.5,1.84686,-0.101565,0.596966,-0.27873,0.602773,0.00106059,-0.640258,1.2334,0.00237674,0.0221204,2.47385,5,0.1,25,0.5,1.30803,-1.41327,0.628468,-0.0236997,0.665104,-0.00624284,-0.0540987,1.41041,-0.0142604,0.0103495,2.51552,5,0.1,26,0.5,-1.22514,-2.91441,0.582794,-0.0496671,-0.519063,-0.0137379,-0.110462,-1.15454,-0.0305548,0.00777304,1.39111,5,0.1,27,0.5,-1.14841,1.74944,0.596922,0.390147,-0.117929,0.000978913,-0.0725091,-0.153475,0.00240281,0.00920646,0.786022,5,0.1,28,0.5,3.40555,-2.69101,0.595377,0.00586212,0.663447,0.0387935,0.013411,1.41528,-0.0188053,0.0128678,2.51839,5,0.1,29,0.5,3.34974,3.17824,0.590245,-0.648719,-0.0180237,0.00167815,-1.44431,0.414848,0.00368431,0.0136392,2.56725,5,0.1
0,0.6,3.82229,0.641734,0.60623,-0.17485,0.777365,-0.00208318,-0.244021,1.0111,-0.00292063,0.0144112,2.31026,5,0.1,1,0.6,-2.5564,-0.675177,0.697537,0.662684,0.462611,0.0154078,0.925064,0.645816,0.0215173,0.0371503,2.21915,5,0.1,2,0.6,-1.99092,-3.65378,0.650999,0.152573,0.240004,-0.0228241,0.204265,0.407815,-0.0305772,0.0100714,0.308069,5,0.1,3,0.6,0.640537,-0.705102,0.56737,0.250396,0.248443,0.0146046,0.335246,0.332624,0.0195801,0.0117857,0.332096,5,0.1,4,0.6,-0.760093,-2.19607,0.700959,-0.629419,0.507039,0.0121519,-0.878721,0.707865,0.0169873,0.0129876,2.21914,5,0.1,5,0.6,-2.09364,-4.20328,0.702903,0.198561,0.471413,0.0210762,0.265956,0.630856,0.0282228,0.0119652,0.925753,5,0.1,6,0.6,2.19418,-2.2838,0.625547,-0.512099,-0.521946,-0.0114381,-0.685692,-0.698805,-0.0153482,0.0115056,1.425,5,0.1,7,0.6,-4.04038,2.63252,0.549434,0.331366,-0.104064,0.0226304,0.443697,-0.139236,0.0302792,0.0124541,0.322802,5,0.1,8,0.6,3.89067,-0.185688,0.583981,-0.147414,0.779885,0.00399649,-0.205874,0.995438,0.00557303,0.0187073,2.31865,5,0.1,9,0.6,-1.57717,3.67656,0.604439,0.303084,0.167161,-0.00198931,0.405788,0.223875,-0.00268221,0.0269082,0.31919,5,0.1,10,0.6,1.96913,3.54216,0.597293,-0.611809,-0.528276,0.000992417,-0.86391,-0.726104,0.00163913,0.0269483,2.20431,5,0.1,11,0.6,-1.56348,-1.25291,0.690575,0.40901,0.69696,0.0192314,0.571012,0.972986,0.0268519,0.0443464,2.22493,5,0.1,12,0.6,-1.3453,0.675435,0.662776,-0.107735,-0.546287,0.00548959,-0.144184,-0.731409,0.00736117,0.0107841,0.826163,5,0.1,13,0.6,3.43538,1.243,0.685745,-0.0605822,0.779289,0.0287592,-0.0813007,0.999868,0.0385344,0.0122399,1.71746,5,0.1,14,0.6,4.27531,0.985678,0.54511,-0.000441074,-0.786003,-0.00675321,-0.000715256,-0.957459,-0.00944734,0.0106387,2.33498,5,0.1,15,0.6,-3.22638,3.87665,0.619773,0.785112,0.0564814,-0.00643879,0.962973,0.0786781,-0.0090003,0.0111637,2.33253,5,0.1,16,0.6,1.10212,-3.77945,0.540333,-0.785092,0.0575185,0.00101626,-0.963092,0.0803471,0.00140071,0.012331,2.33246,5,0.1,17,0.6,1.23968,3.33754,0.605552,-0.571939,-0.571227,-0.00187904,-0.798404,-0.797391,-0.00265241,0.0167288,2.21914,5,0.1,18,0.6,-3.97443,-3.06404,0.560357,0.139296,0.780553,0.00669956,0.19455,0.991225,0.00935793,0.0184671,2.32032,5,0.1,19,0.6,4.21561,2.12649,0.689125,-0.544083,0.390953,0.0272423,-0.72813,0.523448,0.036478,0.0149759,1.19794,5,0.1,20,0.6,0.179638,1.93372,0.624842,-0.348945,-0.126976,-0.0111207,-0.467197,-0.170052,-0.0148416,0.011244,0.36772,5,0.1,21,0.6,0.751531,-4.16735,0.55455,0.254896,0.38228,0.0216678,0.263989,0.0760555,0.0368655,0.00987994,0.819299,5,0.1,22,0.6,1.82993,0.832988,0.597837,-0.28193,-0.507094,0.000962615,-0.377476,-0.678957,0.0013113,0.0138546,1.04239,5,0.1,23,0.6,-0.572904,-3.28097,0.503513,0.052014,0.785094,-0.00877976,0.0497699,0.963211,0.00077486,0.0128263,2.33341,5,0.1,24,0.6,1.816,-0.0357354,0.597083,-0.335631,0.706723,0.00126809,-0.473678,0.809437,0.00169873,0.0237212,2.10831,5,0.1,25,0.6,1.30541,-1.34035,0.627777,-0.028491,0.785774,-0.00750571,-0.0398755,0.95886,-0.0105202,0.0123165,2.33434,5,0.1,26,0.6,-1.23062,-2.97165,0.581279,-0.0593603,-0.620383,-0.0164196,-0.0795126,-0.83065,-0.0219941,0.00982929,1.03566,5,0.1,27,0.6,-1.11044,1.7371,0.597031,0.363415,-0.126898,0.00119656,-0.431895,-0.0288486,0.00181794,0.0099648,0.726126,5,0.1,28,0.6,3.4062,-2.61823,0.599115,0.00705123,0.784731,0.0355646,0.00989437,0.965834,-0.0439286,0.0155572,2.33607,5,0.1,29,0.6,3.27822,3.1786,0.59043,-0.774825,0.0254095,0.00200123,-1.02818,0.433326,0.00271201,0.0153311,2.34904,5,0.1
0,0.7,3.80345,0.72348,0.606007,-0.202775,0.847534,-0.00237375,-0.291407,0.412177,-0.00271201,0.0144112,2.31026,5,0.1,1,0.7,-2.48545,-0.625643,0.699187,0.755545,0.527439,0.0175675,0.873581,0.609864,0.0203177,0.0371503,2.21915,5,0.1,2,0.7,-1.97466,-3.62771,0.648567,0.172184,0.281128,-0.0257594,0.176743,0.390619,-0.0264533,0.0100714,0.308069,5,0.1,3,0.7,0.667224,-0.678624,0.568927,0.282581,0.280376,0.0164839,0.290059,0.287794,0.0169277,0.0117857,0.332096,5,0.1,4,0.7,-0.827487,-2.14178,0.70226,-0.717625,0.578095,0.0138565,-0.829771,0.668436,0.0160374,0.0129876,2.21914,5,0.1,5,0.7,-2.07252,-4.15311,0.70516,0.22292,0.529898,0.0240726,0.209227,0.508815,0.0295192,0.0119652,0.925753,5,0.1,6,0.7,2.13961,-2.33943,0.624328,-0.577927,-0.589035,-0.0129107,-0.593245,-0.60463,-0.013262,0.0115056,1.425,5,0.1,7,0.7,-4.00507,2.62143,0.551846,0.373963,-0.117433,0.0255378,0.383884,-0.120521,0.0262111,0.0124541,0.322802,5,0.1,8,0.7,3.87488,-0.103772,0.584409,-0.168075,0.84842,0.00455594,-0.194311,0.397195,0.00526384,0.0187073,2.31865,5,0.1,9,0.7,-1.54487,3.69437,0.604227,0.342041,0.188652,-0.00224616,0.351071,0.193655,-0.00230968,0.0269082,0.31919,5,0.1,10,0.7,1.90357,3.48566,0.5974,-0.698474,-0.600971,0.00115875,-0.815116,-0.681907,0.00158697,0.0269483,2.20431,5,0.1,11,0.7,-1.51968,-1.17855,0.692635,0.466329,0.787052,0.0219272,0.539213,0.783153,0.0253581,0.0443464,2.22493,5,0.1,12,0.7,-1.35678,0.617212,0.663361,-0.121579,-0.616505,0.006196,-0.12476,-0.632815,0.00636652,0.0107841,0.826163,5,0.1,13,0.7,3.42893,1.32488,0.688811,-0.0683844,0.848149,0.0324582,-0.0703037,0.400558,0.0333302,0.0122399,1.71746,5,0.1,14,0.7,4.27526,0.903352,0.544387,-0.000507385,-0.850543,-0.00770092,-0.000566244,-0.360802,-0.00891089,0.0106387,2.33498,5,0.1,15,0.7,-3.14411,3.88269,0.619083,0.850234,0.0643805,-0.00734199,0.366107,0.0742972,-0.00849366,0.0111637,2.33253,5,0.1,16,0.7,1.01985,-3.77329,0.540441,-0.850225,0.0655826,0.00115735,-0.366233,0.075832,0.00132993,0.012331,2.33246,5,0.1,17,0.7,1.17844,3.27638,0.605351,-0.652085,-0.651271,-0.00214465,-0.753962,-0.753,-0.00249594,0.0167288,2.21914,5,0.1,18,0.7,-3.95952,-2.98208,0.561074,0.15882,0.84865,0.00763852,0.183612,0.393242,0.00882894,0.0184671,2.32032,5,0.1,19,0.7,4.15763,2.16816,0.692029,-0.613992,0.441205,0.0307444,-0.630081,0.452891,0.0315607,0.0149759,1.19794,5,0.1,20,0.7,0.142448,1.92019,0.623657,-0.393798,-0.143301,-0.0125463,-0.404211,-0.147134,-0.012856,0.011244,0.36772,5,0.1,21,0.7,0.778486,-4.12865,0.556897,0.284933,0.391963,0.0251891,0.308767,0.0969172,0.0317693,0.00987994,0.819299,5,0.1,22,0.7,1.80011,0.780058,0.59794,-0.311505,-0.540606,0.00110976,-0.208117,-0.0243932,0.00151247,0.0138546,1.04239,5,0.1,23,0.7,-0.567455,-3.19871,0.502654,0.0568741,0.850231,-0.00827368,0.0438876,0.366181,0.00873953,0.0128263,2.33341,5,0.1,24,0.7,1.77981,0.0377019,0.597217,-0.389592,0.749904,0.00140658,-0.561461,0.0821835,0.00103191,0.0237212,2.10831,5,0.1,25,0.7,1.30236,-1.25804,0.626973,-0.0324901,0.850463,-0.00856053,-0.0375956,0.362173,-0.00991672,0.0123165,2.33434,5,0.1,26,0.7,-1.23695,-3.03777,0.579529,-0.0669932,-0.700128,-0.0185307,-0.0687912,-0.718668,-0.0190213,0.00982929,1.03566,5,0.1,27,0.7,-1.07676,1.72438,0.59716,0.306012,-0.126311,0.00137612,-0.676788,0.0391528,0.00166893,0.0099648,0.726126,5,0.1,28,0.7,3.40695,-2.53598,0.602432,0.00804365,0.850117,0.0306024,0.00932813,0.368252,-0.0541322,0.0155572,2.33607,5,0.1,29,0.7,3.19664,3.18341,0.590644,-0.846703,0.0713442,0.00227122,-0.426963,0.464544,0.00251457,0.0153311,2.34904,5,0.1
0,0.8,3.78179,0.809504,0.605757,-0.229162,0.866026,-0.00259727,-0.219703,0,-0.00154972,0.0175008,2.22613,5,0.1,1,0.8,-2.406,-0.570184,0.701034,0.827485,0.577663,0.0192404,0.524759,0.3663,0.012219,0.043084,2.08574,5,0.1,2,0.8,-1.95668,-3.59783,0.645877,0.186044,0.314051,-0.0278339,0.0928044,0.251293,-0.0138879,0.0111756,0.223406,5,0.1,3,0.8,0.696735,-0.649343,0.570648,0.305323,0.302941,0.0178114,0.15229,0.151128,0.00891089,0.0111845,0.234479,5,0.1,4,0.8,-0.902944,-2.081,0.703717,-0.785959,0.633144,0.0151768,-0.498384,0.401378,0.00962615,0.0161564,2.04321,5,0.1,5,0.8,-2.04935,-4.09798,0.707702,0.238431,0.568187,0.0266075,0.0929832,0.237226,0.0196397,0.0130889,0.698813,5,0.1,6,0.8,2.07925,-2.40094,0.62298,-0.624436,-0.636441,-0.0139505,-0.311613,-0.317454,-0.00697374,0.0124127,1.00613,5,0.1,7,0.8,-3.96601,2.60916,0.554513,0.40406,-0.12688,0.0275925,0.201583,-0.0633001,0.0137389,0.0153467,0.227917,5,0.1,8,0.8,3.85721,-0.0177172,0.584888,-0.184077,0.866025,0.00498891,-0.116587,0,0.00318885,0.0271293,2.24599,5,0.1,9,0.8,-1.50915,3.71408,0.603992,0.369567,0.203836,-0.0024274,0.184357,0.101566,-0.0012219,0.0321093,0.225361,5,0.1,10,0.8,1.83009,3.42253,0.597524,-0.765648,-0.656891,0.00129342,-0.490725,-0.404835,0.00104308,0.0230331,1.59501,5,0.1,11,0.8,-1.47065,-1.09653,0.69494,0.510734,0.846386,0.0240162,0.323892,0.377178,0.015229,0.0446483,2.10231,5,0.1,12,0.8,-1.36948,0.55283,0.664008,-0.13136,-0.666119,0.00669658,-0.0655651,-0.332296,0.00330806,0.0105334,0.583318,5,0.1,13,0.8,3.42178,1.41092,0.6922,-0.0738978,0.866026,0.0350714,-0.0368357,0,0.017494,0.0116643,1.42299,5,0.1,14,0.8,4.27521,0.817221,0.543577,-0.000560284,-0.866024,-0.00843555,0,-2.98023e-05,-0.00530481,0.0101453,2.27187,5,0.1,15,0.8,-3.05799,3.88946,0.618311,0.866026,0.0705004,-0.00804067,0,0.0445843,-0.005126,0.0109781,2.26804,5,0.1,16,0.8,0.93373,-3.7664,0.540563,-0.866026,0.0718296,0.0012666,0,0.0455379,0.000804663,0.0087521,0.970747,5,0.1,17,0.8,1.10988,3.2079,0.605125,-0.714174,-0.713277,-0.00234991,-0.452876,-0.452399,-0.00149012,0.0164693,2.0419,5,0.1,18,0.8,-3.94282,-2.89602,0.561878,0.173938,0.866026,0.00836551,0.110269,0,0.00530481,0.0176033,2.24868,5,0.1,19,0.8,4.09351,2.21424,0.695239,-0.663388,0.476712,0.0332192,-0.330925,0.237823,0.0165701,0.0152691,0.845833,5,0.1,20,0.8,0.101323,1.90522,0.622347,-0.425489,-0.154838,-0.0135541,-0.21226,-0.077188,-0.00673532,0.00912502,0.259629,5,0.1,21,0.8,0.808409,-4.08908,0.559554,0.311866,0.398099,0.0277236,0.210047,0.0112057,0.0177324,0.0104864,0.640224,5,0.1,22,0.8,1.76824,0.726727,0.598058,-0.322714,-0.518239,0.00124425,-0.0134706,0.442237,0.00113249,0.0140353,1.08528,5,0.1,23,0.8,-0.561581,-3.11259,0.501879,0.0601962,0.866026,-0.00714362,0.0201762,0,0.0133514,0.0145295,2.26946,5,0.1,24,0.8,1.7382,0.112098,0.597362,-0.440341,0.72863,0.00146925,-0.421703,-0.480936,0.000208616,0.0256534,1.66399,5,0.1,25,0.8,1.29894,-1.17191,0.626073,-0.035587,0.866023,-0.0093773,-0.0225306,5.96046e-05,-0.00593066,0.0121894,2.27088,5,0.1,26,0.8,-1.24394,-3.11089,0.577594,-0.0723869,-0.756478,-0.0200227,-0.0361204,-0.377417,-0.00998378,0.0111673,0.731235,5,0.1,27,0.8,-1.04969,1.71205,0.597305,0.234836,-0.119382,0.00151247,-0.718176,0.0976324,0.00101328,0.0111404,3.63978,5,0.1,28,0.8,3.4078,-2.44987,0.605213,0.00880957,0.86602,0.0249535,0.00560284,0.000119209,-0.0578761,0.0146553,2.27198,5,0.1,29,0.8,3.11064,3.19278,0.590882,-0.866026,0.114721,0.00247657,0,0.388145,0.00146031,0.0135837,2.25614,5,0.1
0,0.9,3.7577,0.896106,0.605489,-0.253028,0.866026,-0.00275755,-0.236645,-3.72529e-06,-0.00147894,0.0175008,2.22613,5,0.1,1,0.9,-2.32131,-0.510935,0.703023,0.860342,0.60351,0.0205435,0.157863,0.138407,0.0124574,0.043084,2.08574,5,0.1,2,0.9,-1.93763,-3.56519,0.643027,0.194454,0.338054,-0.0290922,0.0664815,0.209928,-0.00995025,0.0111756,0.223406,5,0.1,3,0.9,0.727993,-0.618328,0.572472,0.319124,0.316636,0.0186183,0.109095,0.108257,0.00637397,0.0111845,0.234479,5,0.1,4,0.9,-0.983989,-2.01559,0.705285,-0.833409,0.674732,0.0161741,-0.407696,0.38749,0.00929087,0.0161564,2.04321,5,0.1,5,0.9,-2.0251,-4.04016,0.71047,0.245708,0.58584,0.0287839,0.0439882,0.0976622,0.0216626,0.0130889,0.698813,5,0.1,6,0.9,2.01532,-2.4661,0.621551,-0.652672,-0.665208,-0.0145819,-0.223182,-0.227407,-0.00498444,0.0124127,1.00613,5,0.1,7,0.9,-3.92464,2.59617,0.557337,0.422326,-0.132617,0.0288379,0.144392,-0.0453591,0.00984594,0.0153467,0.227917,5,0.1,8,0.9,3.8382,0.0688854,0.585404,-0.196113,0.866025,0.00531757,-0.111774,1.49012e-07,0.00304356,0.0271293,2.24599,5,0.1,9,0.9,-1.47131,3.73494,0.603743,0.386272,0.213039,-0.00253767,0.132062,0.0727326,-0.000871718,0.0321093,0.225361,5,0.1,10,0.9,1.75112,3.35486,0.597658,-0.8123,-0.695303,0.00139335,-0.39956,-0.327244,0.000875443,0.0230331,1.59501,5,0.1,11,0.9,-1.41789,-1.01072,0.697421,0.544271,0.864603,0.0255936,0.312306,0.0529997,0.0146888,0.0446483,2.10231,5,0.1,12,0.9,-1.38293,0.484633,0.664694,-0.137301,-0.69623,0.00699675,-0.046961,-0.238026,0.00237301,0.0105334,0.583318,5,0.1,13,0.9,3.41422,1.49655,0.695791,-0.0772353,0.837693,0.0366563,-0.02639,-0.530533,0.0125244,0.0116643,1.42299,5,0.1,14,0.9,4.27515,0.730618,0.542706,-0.000564009,-0.866026,-0.00898438,-8.9407e-05,0,-0.00509992,0.0101453,2.27187,5,0.1,15,0.9,-2.97139,3.89674,0.617481,0.866026,0.0750955,-0.00856817,0,0.0426024,-0.00488013,0.0109781,2.26804,5,0.1,16,0.9,0.849084,-3.75829,0.54064,-0.809611,0.0959445,-0.000182819,1.03898,0.388429,-0.0264533,0.0087521,0.970747,5,0.1,17,0.9,1.0361,3.13421,0.604882,-0.761095,-0.760146,-0.00250405,-0.437174,-0.436679,-0.00143424,0.0164693,2.0419,5,0.1,18,0.9,-3.92485,-2.80941,0.562742,0.185332,0.866026,0.0089136,0.105903,0,0.00509247,0.0176033,2.24868,5,0.1,19,0.9,4.02559,2.26304,0.69864,-0.693376,0.498262,0.0347208,-0.237077,0.170365,0.0118688,0.0152691,0.845833,5,0.1,20,0.9,0.0577613,1.88937,0.62096,-0.444722,-0.161833,-0.0141649,-0.152038,-0.0552982,-0.00483543,0.00912502,0.259629,5,0.1,21,0.9,0.840599,-4.04883,0.562404,0.331058,0.409763,0.0291276,0.157874,0.181437,0.00942871,0.0104864,0.640224,5,0.1,22,0.9,1.73643,0.677638,0.598189,-0.308603,-0.458978,0.00136951,0.275403,0.717189,0.00125542,0.0140353,1.08528,5,0.1,23,0.9,-0.555453,-3.02599,0.501236,0.0623545,0.866026,-0.00569476,0.0194833,0,0.0152178,0.0145295,2.26946,5,0.1,24,0.9,1.69167,0.182484,0.597509,-0.492768,0.678218,0.0014754,-0.569567,-0.533766,-0.000119209,0.0256534,1.66399,5,0.1,25,0.9,1.29526,-1.0853,0.625104,-0.0379093,0.866025,-0.00998899,-0.0215322,3.72529e-06,-0.00566989,0.0121894,2.27088,5,0.1,26,0.9,-1.25135,-3.18833,0.575544,-0.0756597,-0.790678,-0.0209274,-0.0258759,-0.270352,-0.00714511,0.0111673,0.731235,5,0.1,27,0.9,-1.03007,1.70035,0.597461,0.156997,-0.116674,0.00160225,-0.751249,-0.0259057,0.000715256,0.0111404,3.63978,5,0.1,28,0.9,3.40871,-2.36326,0.607422,0.0093881,0.866025,0.0192763,0.00537932,1.49012e-05,-0.055097,0.0146553,2.27198,5,0.1,29,0.9,3.02404,3.20621,0.591137,-0.866026,0.153631,0.00262707,0,0.372484,0.00138581,0.0135837,2.25614,5,0.1
0,1,3.73132,0.982709,0.605208,-0.272918,0.866027,-0.00286549,-0.146151,-2.98023e-05,-0.000536442,0.0193891,2.22329,5,0.1,1,1,-2.23485,-0.450348,0.705131,0.866026,0.603508,0.0214964,0,-0.144587,0.00563264,0.0356499,2.19842,5,0.1,2,1,-1.91796,-3.53053,0.640083,0.197861,0.352883,-0.0296012,-0.00423193,0.0736713,0.000625849,0.00992469,0.155042,5,0.1,3,1,0.760282,-0.586291,0.574356,0.324711,0.322181,0.0189453,-0.00703335,-0.00697374,-0.000417233,0.00802895,0.159456,5,0.1,4,1,-1.06894,-1.94649,0.706942,-0.860569,0.703388,0.0168607,-0.109136,0.155985,0.00375509,0.00957021,1.97503,5,0.1,5,1,-2.00045,-3.98144,0.713445,0.24583,0.584799,0.0305593,-0.0469089,-0.129461,0.0123084,0.0102524,0.527552,5,0.1,6,1,1.94928,-2.53341,0.620076,-0.664106,-0.676852,-0.0148371,0.0143647,0.0145435,0.000327826,0.0104729,0.684207,5,0.1,7,1,-3.88191,2.58276,0.560255,0.429726,-0.134945,0.0293419,-0.00941753,0.00298023,-0.000625849,0.00979423,0.154993,5,0.1,8,1,3.81812,0.155488,0.585948,-0.204337,0.866025,0.00554323,-0.0442266,0,0.00119209,0.0242495,2.2434,5,0.1,9,1,-1.43223,3.7565,0.603487,0.393036,0.216758,-0.00258237,-0.00852346,-0.00464916,8.9407e-05,0.0246113,0.153254,5,0.1,10,1,1.66833,3.28406,0.597801,-0.838405,-0.716293,0.00145584,-0.0938177,-0.0680685,0.000298023,0.0185335,1.10599,5,0.1,11,1,-1.36215,-0.924146,0.700042,0.56735,0.866026,0.026679,0.125408,0,0.00590086,0.0391023,2.06596,5,0.1,12,1,-1.39682,0.414188,0.665402,-0.139707,-0.708423,0.00711679,0.00298023,0.0153029,-0.000149012,0.00845359,0.396679,5,0.1,13,1,3.4064,1.57703,0.6995,-0.0785828,0.766423,0.0372976,0.00166893,-0.865936,-0.000804663,0.0112213,1.263,5,0.1,14,1,4.27509,0.644015,0.541786,-0.000560284,-0.866026,-0.00936091,-0.000238419,0,-0.00202656,0.00742087,2.27186,5,0.1,15,1,-2.88479,3.90443,0.616603,0.866026,0.0782251,-0.00892729,0,0.0166893,-0.00190735,0.00874653,2.26769,5,0.1,16,1,0.774421,-3.74652,0.540467,-0.67448,0.140971,-0.00343025,1.59052,0.475287,-0.0358224,0.00786869,0.250914,5,0.1,17,1,0.958156,3.05637,0.604626,-0.793426,-0.792438,-0.00260919,-0.176013,-0.175834,-0.000596046,0.0116691,1.92941,5,0.1,18,1,-3.90587,-2.72281,0.563654,0.193137,0.866026,0.00928938,0.0422001,0,0.00199676,0.014551,2.24626,5,0.1,19,1,3.95544,2.31346,0.702153,-0.705522,0.506991,0.0353292,0.0151396,-0.0110865,-0.000745058,0.0132212,0.575206,5,0.1,20,1,0.0127642,1.873,0.619526,-0.45251,-0.164664,-0.0144124,0.00977278,0.00351667,0.000327826,0.00707191,2.75411,5,0.1,21,1,0.874302,-4.00694,0.565344,0.340798,0.427359,0.0294611,0.0264347,0.140429,-0.00330806,0.00979847,0.476286,5,0.1,22,1,1.70729,0.635602,0.598331,-0.271389,-0.379516,0.00147671,0.451684,0.850648,0.000745058,0.00899712,0.654738,5,0.1,23,1,-0.549145,-2.93938,0.500742,0.0635013,0.866026,-0.00417382,0.00104308,0,0.0149012,0.0114411,2.26954,5,0.1,24,1,1.63968,0.247507,0.597655,-0.544432,0.620833,0.00144094,-0.422776,-0.617869,-0.000625849,0.0211626,1.39814,5,0.1,25,1,1.29138,-0.998702,0.624082,-0.0394911,0.866026,-0.010404,-0.00840425,0,-0.00226498,0.0109905,2.27078,5,0.1,26,1,-1.25901,-3.26834,0.573427,-0.0769854,-0.804532,-0.0212938,0.00166893,0.0174046,0.000476837,0.00870059,0.497267,5,0.1,27,1,-1.01765,1.68847,0.597624,0.0974864,-0.121468,0.00164211,-0.397384,-0.0567436,8.9407e-05,0.00939187,3.51985,5,0.1,28,1,3.40967,-2.27666,0.609083,0.00978708,0.866026,0.0140324,0.00202656,0,-0.0493824,0.0144767,2.27192,5,0.1,29,1,2.93744,3.22329,0.591406,-0.866026,0.186235,0.00272691,0,0.267267,0.000506639,0.012612,2.24029,5,0.1
0,1.1,3.70338,1.06931,0.6049,-0.284954,0.865802,-0.00344887,-0.0840575,-0.00895187,-0.00981987,0.0193891,2.22329,5,0.1,1,1.1,-2.14825,-0.391537,0.707314,0.865898,0.565335,0.0221859,-0.0051111,-0.587007,0.0067912,0.0356499,2.19842,5,0.1,2,1.1,-1.8982,-3.4949,0.637128,0.196997,0.359281,-0.0294724,-0.020273,0.0391603,0.00303239,0.00992469,0.155042,5,0.1,3,1.1,0.792704,-0.554122,0.576247,0.323286,0.320768,0.0188614,-0.0333451,-0.0330806,-0.00195578,0.00802895,0.159456,5,0.1,4,1.1,-1.15532,-1.87521,0.70865,-0.865385,0.722688,0.0173245,-0.00165403,0.187069,0.0044927,0.00957021,1.97503,5,0.1,5,1.1,-1.97612,-3.92366,0.716568,0.240425,0.569783,0.031914,-0.0684932,-0.186786,0.0128224,0.0102524,0.527552,5,0.1,6,1.1,1.88297,-2.60099,0.618595,-0.661193,-0.673892,-0.0147708,0.0682101,0.0694245,0.00153482,0.0104729,0.684207,5,0.1,7,1.1,-3.83901,2.56928,0.563185,0.42783,-0.134348,0.0292141,-0.0441968,0.0139028,-0.00300258,0.00979423,0.154993,5,0.1,8,1.1,3.79742,0.24209,0.58651,-0.209681,0.866025,0.0056874,-0.0505596,-8.9407e-07,0.00136346,0.0242495,2.2434,5,0.1,9,1.1,-1.39298,3.77814,0.603229,0.39131,0.215809,-0.00256812,-0.0403747,-0.0222474,0.000286847,0.0246113,0.153254,5,0.1,10,1.1,1.58405,3.21212,0.597948,-0.845978,-0.721613,0.00148201,-0.0232458,-0.00919402,0.000167638,0.0185335,1.10599,5,0.1,11,1.1,-1.30466,-0.837545,0.702746,0.582721,0.86594,0.0274025,0.14773,-0.00344589,0.00695884,0.0391023,2.06596,5,0.1,12,1.1,-1.41077,0.343453,0.666112,-0.139098,-0.705317,0.00708606,0.0143126,0.0727305,-0.000730157,0.00845359,0.396679,5,0.1,13,1.1,3.39856,1.64867,0.703224,-0.07824,0.661606,0.0371341,0.00804663,-1.15418,-0.0038296,0.0112213,1.263,5,0.1,14,1.1,4.27504,0.557413,0.540838,-0.00058338,-0.866026,-0.00960864,-0.000208616,1.78814e-06,-0.00236928,0.00742087,2.27186,5,0.1,15,1.1,-2.79819,3.91235,0.6157,0.866026,0.0802178,-0.00915453,0,0.0186116,-0.00212342,0.00874653,2.26769,5,0.1,16,1.1,0.714594,-3.72982,0.539898,-0.525407,0.19427,-0.00833059,1.39032,0.55632,-0.0579245,0.00786869,0.250914,5,0.1,17,1.1,0.87776,2.97607,0.604361,-0.815005,-0.813993,-0.00268118,-0.207569,-0.20732,-0.000689179,0.0116691,1.92941,5,0.1,18,1.1,-3.88631,-2.63621,0.564595,0.198276,0.866026,0.00953386,0.0490248,0,0.00233576,0.014551,2.24626,5,0.1,19,1.1,3.88499,2.36408,0.705681,-0.702438,0.504758,0.035176,0.07236,-0.0521094,-0.00361726,0.0132212,0.575206,5,0.1,20,1.1,-0.0336178,1.85625,0.618088,-0.484568,-0.172597,-0.0143395,-0.558725,-0.136934,0.00164285,0.00707191,2.75411,5,0.1,21,1.1,0.908489,-3.96333,0.568269,0.342379,0.445483,0.028967,-0.00769645,0.190422,-0.00735,0.00979847,0.476286,5,0.1,22,1.1,1.68272,0.602853,0.598481,-0.217544,-0.267802,0.00149887,0.602692,1.31252,-0.000268221,0.00899712,0.654738,5,0.1,23,1.1,-0.542781,-2.85278,0.500397,0.0637908,0.866026,-0.00277106,0.00161678,0,0.0129491,0.0114411,2.26954,5,0.1,24,1.1,1.58346,0.307502,0.597797,-0.576241,0.587291,0.0013995,-0.20007,-0.122043,-0.000294298,0.0211626,1.39814,5,0.1,25,1.1,1.28738,-0.912099,0.623028,-0.0405034,0.866026,-0.0106749,-0.00952929,-3.72529e-06,-0.00254437,0.0109905,2.27078,5,0.1,26,1.1,-1.2667,-3.34867,0.5713,-0.0766473,-0.801003,-0.0211989,0.00790507,0.0825971,0.00220165,0.00870059,0.497267,5,0.1,27,1.1,-1.00932,1.67594,0.597788,0.077243,-0.129666,0.00164155,0.0861064,-0.0946373,-0.000149012,0.00939187,3.51985,5,0.1,28,1.1,3.41066,-2.19006,0.610251,0.0100374,0.866026,0.0094384,0.00241399,0,-0.0422597,0.0144767,2.27192,5,0.1,29,1.1,2.85084,3.24326,0.591682,-0.866026,0.212736,0.00279024,0,0.246808,0.000603497,0.012612,2.24029,5,0.1
0,1.2,3.67464,1.15577,0.604499,-0.288016,0.862449,-0.00459701,0.0294447,-0.0716448,-0.0121295,0.0149123,2.08086,5,0.1,1,1.2,-2.06173,-0.33845,0.709559,0.863987,0.49201,0.0226215,-0.0409484,-0.852346,0.000983477,0.0356152,2.48506,5,0.1,2,1.2,-1.87868,-3.45893,0.634207,0.192606,0.358206,-0.0288159,-0.07236,-0.0709295,0.0108182,0.00993294,0.33405,5,0.1,3,1.2,0.824744,-0.522332,0.578117,0.316074,0.313611,0.0184387,-0.118762,-0.117809,-0.00691414,0.00923691,0.106031,5,0.1,4,1.2,-1.24173,-1.80224,0.710399,-0.861233,0.73351,0.0175834,0.0959039,-0.000417233,2.98023e-05,0.00979836,2.03996,5,0.1,5,1.2,-1.9525,-3.86781,0.719812,0.230941,0.544846,0.0327915,-0.126004,-0.322104,0.00336766,0.00954518,0.404352,5,0.1,6,1.2,1.81745,-2.66778,0.617131,-0.646439,-0.658864,-0.0144407,0.242829,0.247478,0.00545382,0.014791,0.597062,5,0.1,7,1.2,-3.79661,2.55597,0.56608,0.418282,-0.131351,0.028564,-0.157237,0.0493526,-0.0107288,0.00810324,0.201997,5,0.1,8,1.2,3.77627,0.328693,0.587083,-0.212401,0.866025,0.00576079,0.00476837,1.43051e-05,-0.000119209,0.0208581,2.243,5,0.1,9,1.2,-1.3542,3.79953,0.602974,0.382575,0.210994,-0.00250787,-0.143647,-0.0792742,0.000953674,0.0238056,0.194069,5,0.1,10,1.2,1.49968,3.1402,0.598096,-0.837332,-0.713283,0.0014782,0.218987,0.195026,-0.000298023,0.0184809,0.745493,5,0.1,11,1.2,-1.24585,-0.750996,0.705512,0.591078,0.864649,0.0277951,-0.00435114,-0.0275373,-0.000178814,0.0367296,1.81463,5,0.1,12,1.2,-1.42456,0.273552,0.666814,-0.135997,-0.689581,0.00692904,0.0510812,0.259042,-0.0026226,0.0079673,0.284259,5,0.1,13,1.2,3.3908,1.70907,0.706904,-0.0764966,0.547582,0.0363052,0.0288486,-1.08254,-0.0136495,0.0111107,1.13282,5,0.1,14,1.2,4.27498,0.47081,0.539869,-0.000596046,-0.866025,-0.00973791,0,-1.43051e-05,0.000119209,0.00743783,2.27186,5,0.1,15,1.2,-2.71158,3.92044,0.614777,0.866026,0.0811756,-0.00926405,0,-0.0026226,0.000327826,0.00873816,2.17239,5,0.1,16,1.2,0.668668,-3.70771,0.538767,-0.396471,0.246292,-0.0142679,1.18846,0.459194,-0.0576079,0.00689036,0.221371,5,0.1,17,1.2,0.795491,2.8939,0.604091,-0.826795,-0.825769,-0.00272095,0.0051856,0.00524521,2.98023e-05,0.0114843,1.37903,5,0.1,18,1.2,-3.8663,-2.54961,0.565557,0.200987,0.866026,0.00966191,-0.00298023,0,-0.000149012,0.0129983,2.2457,5,0.1,19,1.2,3.81537,2.4141,0.709167,-0.686777,0.493491,0.0343919,0.257969,-0.18549,-0.0129044,0.011889,0.382488,5,0.1,20,1.2,-0.0851822,1.83824,0.616667,-0.548062,-0.187632,-0.0139996,-0.641454,-0.144839,0.00548363,0.0104725,2.63514,5,0.1,21,1.2,0.942547,-3.91796,0.571117,0.337127,0.460041,0.0278652,-0.105798,0.0782013,-0.0151396,0.00769437,0.501638,5,0.1,22,1.2,1.66407,0.582913,0.598628,-0.154871,-0.129622,0.00142902,0.633001,1.39609,-0.00107288,0.00725799,0.420498,5,0.1,23,1.2,-0.536413,-2.76618,0.50018,0.0632972,0.866026,-0.00161678,-0.0135899,0,0.0100732,0.0120949,2.26965,5,0.1,24,1.2,1.52529,0.365972,0.597936,-0.582409,0.584284,0.00136793,0.0837445,0.00956774,-0.00038743,0.0186879,0.971298,5,0.1,25,1.2,1.2833,-0.825497,0.621952,-0.041005,0.866026,-0.0108093,0.00119209,0,0.000298023,0.0125072,2.27077,5,0.1,26,1.2,-1.27429,-3.42805,0.5692,-0.074935,-0.783134,-0.0207245,0.0281334,0.294209,0.00777841,0.00806191,0.330658,5,0.1,27,1.2,-1,1.66252,0.597951,0.12031,-0.138229,0.00160336,0.737697,-0.0675321,-0.000625849,0.00845851,3.11681,5,0.1,28,1.2,3.41167,-2.10346,0.610996,0.0101745,0.866026,0.00561625,-0.000357628,0,-0.0340343,0.015258,2.27189,5,0.1,29,1.2,2.76423,3.26562,0.591963,-0.866026,0.232899,0.0028193,0,0.145316,-0.000119209,0.0109012,2.23107,5,0.1
0,1.3,3.64626,1.24156,0.603922,-0.276808,0.851754,-0.00739722,0.187576,-0.168517,-0.03976,0.0149123,2.08086,5,0.1,1,1.3,-1.97613,-0.29383,0.711915,0.842282,0.397848,0.0252002,-0.389181,-1.00438,0.0440888,0.0356152,2.48506,5,0.1,2,1.3,-1.85977,-3.42315,0.631378,0.185454,0.359789,-0.0277462,-0.0766814,0.0704527,0.0114702,0.00993294,0.33405,5,0.1,3,1.3,0.855771,-0.491547,0.579927,0.304335,0.301966,0.0177548,-0.125851,-0.124853,-0.0073351,0.00923691,0.106031,5,0.1,4,1.3,-1.32697,-1.72867,0.712163,-0.839428,0.739168,0.0177221,0.345476,0.069961,0.00169873,0.00979836,2.03996,5,0.1,5,1.3,-1.93002,-3.81486,0.723109,0.218843,0.514691,0.0331365,-0.122771,-0.298202,0.00201911,0.00954518,0.404352,5,0.1,6,1.3,1.75383,-2.73245,0.615713,-0.626879,-0.634399,-0.0139018,0.178345,0.26229,0.00577793,0.014791,0.597062,5,0.1,7,1.3,-3.75539,2.54307,0.568884,0.407185,-0.126473,0.0275036,-0.0875741,0.0522882,-0.0113696,0.00810324,0.201997,5,0.1,8,1.3,3.755,0.415296,0.58766,-0.213335,0.866025,0.00578687,-0.0115186,-1.78814e-06,0.000312924,0.0208581,2.243,5,0.1,9,1.3,-1.31649,3.82024,0.602728,0.372819,0.203157,-0.00241362,-0.0732541,-0.0840425,0.00100583,0.0238056,0.194069,5,0.1,10,1.3,1.41702,3.06983,0.598243,-0.815389,-0.693807,0.00144783,0.248067,0.218391,-0.000357628,0.0184809,0.745493,5,0.1,11,1.3,-1.18664,-0.664539,0.708296,0.593458,0.865079,0.0279093,0.0208691,0.0103153,0.00100583,0.0367296,1.81463,5,0.1,12,1.3,-1.4376,0.206164,0.667474,-0.122402,-0.655361,0.00609448,0.206061,0.427656,-0.013005,0.0079673,0.284259,5,0.1,13,1.3,3.38329,1.75862,0.710468,-0.0736471,0.447718,0.034956,0.0305325,-0.834078,-0.0144653,0.0111107,1.13282,5,0.1,14,1.3,4.27492,0.384208,0.538893,-0.000599027,-0.866025,-0.009795,-5.96046e-05,1.78814e-06,-0.000696629,0.00743783,2.27186,5,0.1,15,1.3,-2.62498,3.92856,0.61385,0.866026,0.0813324,-0.00927951,0,0.00150502,-0.000149012,0.00873816,2.17239,5,0.1,16,1.3,0.634028,-3.68105,0.537038,-0.304683,0.284129,-0.0203688,0.686124,0.290185,-0.0611618,0.00689036,0.221371,5,0.1,17,1.3,0.712751,2.81134,0.603819,-0.827896,-0.824703,-0.00272319,0.0111349,0.0494719,4.47035e-05,0.0114843,1.37903,5,0.1,18,1.3,-3.84616,-2.463,0.566526,0.202112,0.866026,0.00971556,0.0139326,0,0.000670552,0.0129983,2.2457,5,0.1,19,1.3,3.74796,2.46254,0.712543,-0.661276,0.475157,0.033116,0.273392,-0.196517,-0.0136793,0.011889,0.382488,5,0.1,20,1.3,-0.142155,1.81863,0.615294,-0.581596,-0.205442,-0.0134635,-0.0534384,-0.191368,0.00568107,0.0104725,2.63514,5,0.1,21,1.3,0.975737,-3.87134,0.573828,0.326458,0.473687,0.0263392,-0.118203,0.15983,-0.0160448,0.00769437,0.501638,5,0.1,22,1.3,1.65203,0.576847,0.598766,-0.0837609,0.00661956,0.00134017,0.757739,1.2964,-0.00076741,0.00725799,0.420498,5,0.1,23,1.3,-0.530134,-2.67958,0.500063,0.0623955,0.866026,-0.000778399,-0.00769272,0,0.00672042,0.0120949,2.26965,5,0.1,24,1.3,1.46777,0.424922,0.598071,-0.564981,0.598069,0.00133999,0.266597,0.212649,-0.000238419,0.0186879,0.971298,5,0.1,25,1.3,1.27919,-0.738894,0.620869,-0.0411492,0.866026,-0.0108484,-0.00178814,-3.72529e-06,-0.000476837,0.0125072,2.27077,5,0.1,26,1.3,-1.28165,-3.50493,0.567165,-0.0721537,-0.75405,-0.0199555,0.0298321,0.311792,0.00824407,0.00806191,0.330658,5,0.1,27,1.3,-0.983194,1.64823,0.598106,0.224207,-0.148476,0.00148648,1.24443,-0.121631,-0.0016354,0.00845851,3.11681,5,0.1,28,1.3,3.41269,-2.01685,0.611399,0.0102159,0.866026,0.00255844,0.000581145,0,-0.0270344,0.015258,2.27189,5,0.1,29,1.3,2.67763,3.28967,0.592245,-0.866026,0.247796,0.00282694,0,0.137284,0.000119209,0.0109012,2.23107,5,0.1
0,1.4,3.61973,1.32556,0.602966,-0.251895,0.824443,-0.0118226,0.303864,-0.394344,-0.0456274,0.0167412,1.75274,5,0.1,1,1.4,-1.89439,-0.259136,0.714682,0.787234,0.295881,0.0302941,-0.705004,-1.01403,0.0528395,0.0327284,2.16736,5,0.1,2,1.4,-1.84166,-3.3868,0.628668,0.176278,0.366735,-0.0263721,-0.110865,0.0448227,0.0165701,0.00792856,0.209994,5,0.1,3,1.4,0.885498,-0.462051,0.581661,0.289273,0.287022,0.0168756,-0.181913,-0.180483,-0.0105798,0.00870194,0.140044,5,0.1,4,1.4,-1.40875,-1.65458,0.71394,-0.791544,0.740069,0.0177443,0.613034,-0.0824928,-0.00193715,0.00943207,2.33277,5,0.1,5,1.4,-1.90879,-3.76495,0.726421,0.205252,0.482321,0.032942,-0.153601,-0.360966,-0.00691414,0.00941309,0.309369,5,0.1,6,1.4,1.69213,-2.79442,0.614356,-0.605676,-0.603002,-0.0132114,0.266612,0.379086,0.00831485,0.0100984,0.409847,5,0.1,7,1.4,-3.71515,2.53072,0.571571,0.396854,-0.120217,0.0261426,-0.135303,0.0755787,-0.0164211,0.0122402,0.144998,5,0.1,8,1.4,3.73366,0.501898,0.588239,-0.212669,0.866026,0.00576973,0.0331402,0,-0.000923872,0.0204035,2.24385,5,0.1,9,1.4,-1.2796,3.84009,0.602493,0.364196,0.193101,-0.00229329,-0.114858,-0.121474,0.00143051,0.0237632,0.139021,5,0.1,10,1.4,1.33695,3.00173,0.598385,-0.783026,-0.665629,0.00139773,0.417829,0.360847,-0.000685453,0.0181327,0.494747,5,0.1,11,1.4,-1.12736,-0.578066,0.711084,0.589991,0.863269,0.0277489,-0.111818,-0.0551343,-0.00527501,0.0332003,1.34665,5,0.1,12,1.4,-1.44866,0.143056,0.668009,-0.0974625,-0.603892,0.00451803,0.280917,0.601004,-0.0176132,0.00823692,0.241066,5,0.1,13,1.4,3.3761,1.8,0.713882,-0.0699937,0.387603,0.0332251,0.0439882,-0.380576,-0.0209212,0.00866659,0.986078,5,0.1,14,1.4,4.27486,0.297605,0.537912,-0.000596046,-0.866025,-0.00978261,0.000238419,-1.43051e-05,0.00137091,0.0089081,2.27186,5,0.1,15,1.4,-2.53838,3.93668,0.612924,0.866026,0.0807524,-0.0092119,0,-0.0160933,0.00184774,0.00966629,1.72102,5,0.1,16,1.4,0.606424,-3.65151,0.534712,-0.252263,0.303239,-0.0259444,0.393271,0.0883341,-0.0480115,0.00767293,3.20631,5,0.1,17,1.4,0.630283,2.72941,0.603547,-0.818117,-0.810295,-0.00268966,0.210553,0.260949,0.000685453,0.00965281,1.05035,5,0.1,18,1.4,-3.82593,-2.3764,0.567498,0.201809,0.866026,0.00970215,-0.0281334,0,-0.00140071,0.0144347,2.24616,5,0.1,19,1.4,3.68336,2.50896,0.715778,-0.628549,0.451636,0.0314787,0.395179,-0.283957,-0.0198185,0.00990343,0.251766,5,0.1,20,1.4,-0.19978,1.79719,0.613979,-0.563441,-0.222468,-0.0127897,0.393838,-0.134826,0.00807643,0.0079217,2.09458,5,0.1,21,1.4,1.0077,-3.82328,0.576376,0.311723,0.486028,0.0245482,-0.183463,0.0619888,-0.020206,0.00888279,0.364572,5,0.1,22,1.4,1.64744,0.583608,0.598897,-0.00883937,0.124168,0.00126362,0.717044,1.03205,-0.000804663,0.0101122,3.4852,5,0.1,23,1.4,-0.523945,-2.59297,0.500014,0.061205,0.866026,-0.00026226,-0.0183582,0,0.00372529,0.00907064,2.26962,5,0.1,24,1.4,1.41292,0.485767,0.598203,-0.529012,0.617567,0.00130832,0.451624,0.138342,-0.000447035,0.0186479,0.719108,5,0.1,25,1.4,1.27508,-0.652292,0.619785,-0.0409752,0.866026,-0.0108033,0.00679493,0,0.00181794,0.00891021,2.46413,5,0.1,26,1.4,-1.2887,-3.57858,0.565216,-0.0685841,-0.716728,-0.0189677,0.0431538,0.450611,0.0119209,0.00986407,0.217647,5,0.1,27,1.4,-0.954365,1.63279,0.598245,0.352386,-0.159827,0.00128895,1.24672,-0.0938177,-0.00226498,0.00867319,2.83984,5,0.1,28,1.4,3.41371,-1.93025,0.611532,0.0101864,0.866026,0.000220537,-0.0013113,-5.96046e-05,-0.0196695,0.0140596,2.27186,5,0.1,29,1.4,2.59103,3.31502,0.592528,-0.866026,0.257772,0.00281483,0,0.0514984,-0.000447035,0.0125858,2.2271,5,0.1
0,1.5,3.59622,1.40601,0.601515,-0.217042,0.783682,-0.0175036,0.384107,-0.440024,-0.0635423,0.0167412,1.75274,5,0.1,1,1.5,-1.81948,-0.23481,0.718079,0.708092,0.189522,0.0384332,-0.869058,-1.08185,0.100609,0.0327284,2.16736,5,0.1,2,1.5,-1.82467,-3.35027,0.625921,0.162694,0.360299,-0.0301697,-0.159144,-0.16652,-0.0797249,0.00792856,0.209994,5,0.1,3,1.5,0.913423,-0.434113,0.583294,0.268299,0.27275,0.0157715,-0.237741,-0.119653,-0.0117756,0.00870194,0.140044,5,0.1,4,1.5,-1.484,-1.58071,0.715711,-0.706416,0.738798,0.0177168,1.03772,0.0129789,0.000331551,0.00943207,2.33277,5,0.1,5,1.5,-1.88896,-3.71823,0.729666,0.19183,0.454475,0.0318153,-0.122845,-0.222996,-0.0158176,0.00941309,0.309369,5,0.1,6,1.5,1.63277,-2.8529,0.613074,-0.582279,-0.566842,-0.012418,0.225544,0.361264,0.00792369,0.0100984,0.409847,5,0.1,7,1.5,-3.67603,2.51906,0.574106,0.385984,-0.113007,0.0245761,-0.100404,0.0720024,-0.0156537,0.0122402,0.144998,5,0.1,8,1.5,3.71249,0.588501,0.588813,-0.211098,0.866026,0.00572521,0.0100583,-3.72529e-06,-0.000290573,0.0204035,2.24385,5,0.1,9,1.5,-1.24366,3.85881,0.60227,0.355277,0.181514,-0.00215666,-0.0809059,-0.115752,0.00136718,0.0237632,0.139021,5,0.1,10,1.5,1.26066,2.93691,0.598522,-0.742971,-0.631068,0.0013317,0.406705,0.350237,-0.000674278,0.0181327,0.494747,5,0.1,11,1.5,-1.06884,-0.49178,0.713836,0.580466,0.863655,0.0273,-0.103667,0.0188278,-0.00488386,0.0332003,1.34665,5,0.1,12,1.5,-1.45673,0.0858487,0.668332,-0.0618907,-0.538631,0.00162655,0.40894,0.698864,-0.0373311,0.00823692,0.241066,5,0.1,13,1.5,3.36916,1.83782,0.717104,-0.070243,0.376681,0.0312299,-0.037089,0.0977293,-0.0199266,0.00866659,0.986078,5,0.1,14,1.5,4.2748,0.211003,0.536937,-0.0005804,-0.866025,-0.00973241,0.000149012,2.98023e-07,0.00019744,0.0089081,2.27186,5,0.1,15,1.5,-2.45178,3.94469,0.61201,0.866026,0.0793885,-0.00905534,0,-0.014618,0.00168011,0.00966629,1.72102,5,0.1,16,1.5,0.581163,-3.62116,0.531957,-0.269785,0.299889,-0.028426,-0.619397,-0.143915,-0.00413507,0.00767293,3.20631,5,0.1,17,1.5,0.549447,2.65062,0.603281,-0.798566,-0.757352,-0.00262577,0.211567,0.756502,0.000692904,0.00965281,1.05035,5,0.1,18,1.5,-3.80582,-2.2898,0.568465,0.20077,0.866026,0.0096485,-0.00418723,0,-0.000223517,0.0144347,2.24616,5,0.1,19,1.5,3.62241,2.55276,0.718831,-0.590853,0.424551,0.0295887,0.376582,-0.27059,-0.0188723,0.00990343,0.251766,5,0.1,20,1.5,-0.253404,1.77422,0.612739,-0.502535,-0.236783,-0.012022,0.785611,-0.135884,0.00764802,0.0079217,2.09458,5,0.1,21,1.5,1.03799,-3.77426,0.578733,0.294113,0.494483,0.0226104,-0.177637,0.0795722,-0.0191219,0.00888279,0.364572,5,0.1,22,1.5,1.64854,0.598701,0.599019,0.0168087,0.155934,0.00117896,-0.124462,-0.27648,-0.000905246,0.0101122,3.4852,5,0.1,23,1.5,-0.517879,-2.50637,0.500002,0.0603803,0.866026,-9.31323e-08,-0.00237301,0,0.00165775,0.00907064,2.26962,5,0.1,24,1.5,1.36261,0.548421,0.598332,-0.474228,0.63649,0.00127042,0.630468,0.198271,-0.000368804,0.0186479,0.719108,5,0.1,25,1.5,1.27101,-0.566322,0.61871,-0.0406191,0.847214,-0.0107069,0.002563,-0.369512,0.000692904,0.00891021,2.46413,5,0.1,26,1.5,-1.29535,-3.64809,0.563376,-0.0644684,-0.673745,-0.0178305,0.0411123,0.429422,0.0113659,0.00986407,0.217647,5,0.1,27,1.5,-0.913234,1.61591,0.598355,0.466041,-0.181249,0.000850018,0.995815,-0.29809,-0.00602379,0.00867319,2.83984,5,0.1,28,1.5,3.41473,-1.84365,0.611464,0.0101436,0.866025,-0.00149142,-0.00013411,1.49012e-05,-0.0145137,0.0140596,2.27186,5,0.1,29,1.5,2.50443,3.3411,0.592808,-0.866026,0.264082,0.00279443,0,0.0595748,-0.000115484,0.0125858,2.2271,5,0.1
0,1.6,3.5765,1.48197,0.599447,-0.176734,0.733307,-0.0237539,0.414729,-0.579417,-0.0581443,0.0147797,1.47306,5,0.1,1,1.6,-1.75323,-0.221166,0.722441,0.615177,0.0849783,0.0487804,-0.980496,-0.985637,0.0993311,0.00627294,0.740491,5,0.1,2,1.6,-1.80926,-3.31537,0.622433,0.144801,0.334859,-0.0400528,-0.196874,-0.334859,-0.108093,0.00667762,0.287,5,0.1,3,1.6,0.938972,-0.407434,0.584809,0.241785,0.260567,0.0144795,-0.291824,-0.134587,-0.0142753,0.0117955,0.20408,5,0.1,4,1.6,-1.5491,-1.50691,0.717481,-0.593039,0.735134,0.0176296,1.1912,-0.117421,-0.00280142,0.00996872,2.61301,5,0.1,5,1.6,-1.87039,-3.67385,0.732753,0.179315,0.43304,0.0297561,-0.133276,-0.225306,-0.0254214,0.00905928,0.390027,5,0.1,6,1.6,1.57576,-2.90769,0.611874,-0.556466,-0.527889,-0.0115633,0.307441,0.429273,0.00938773,0.00830719,0.42708,5,0.1,7,1.6,-3.638,2.50814,0.576482,0.373662,-0.105244,0.0228882,-0.158668,0.0855923,-0.0185966,0.00830456,0.204185,5,0.1,8,1.6,3.69147,0.675103,0.589383,-0.208646,0.866026,0.00565797,0.0472069,0,-0.0013113,0.0240828,2.24529,5,0.1,9,1.6,-1.2086,3.87636,0.602062,0.345063,0.169039,-0.00200868,-0.135601,-0.137568,0.00160933,0.0279492,0.170588,5,0.1,10,1.6,1.18854,2.87567,0.598651,-0.697774,-0.592268,0.00125617,0.512958,0.439048,-0.00089407,0.0185517,0.326464,5,0.1,11,1.6,-1.01146,-0.405487,0.716534,0.565052,0.859774,0.0265747,-0.221699,-0.125005,-0.0104308,0.0340497,0.967184,5,0.1,12,1.6,-1.46081,0.0356025,0.668296,-0.0194937,-0.465206,-0.00243485,0.422478,0.764127,-0.0417233,0.0130697,0.220743,5,0.1,13,1.6,3.36189,1.87633,0.720123,-0.0753224,0.395787,0.0290826,-0.0556707,0.23526,-0.0236928,0.00910022,0.780073,5,0.1,14,1.6,4.27474,0.1244,0.535967,-0.000572205,-0.866026,-0.00964701,0.000476837,3.57628e-06,0.00187755,0.00874221,2.27186,5,0.1,15,1.6,-2.36517,3.95253,0.611116,0.866026,0.0772536,-0.00881106,0,-0.0305176,0.00348687,0.00922699,1.32662,5,0.1,16,1.6,0.55026,-3.5922,0.529148,-0.354066,0.276649,-0.0272408,-0.969827,-0.310779,0.0256896,0.00920781,2.76174,5,0.1,17,1.6,0.470857,2.57921,0.603023,-0.770591,-0.666422,-0.0025332,0.368953,1.02925,0.00119209,0.00956786,0.819339,5,0.1,18,1.6,-3.7858,-2.2032,0.569427,0.199002,0.866026,0.00956059,-0.0394583,0,-0.00187755,0.0135089,2.24706,5,0.1,19,1.6,3.56529,2.5938,0.721691,-0.550246,0.395375,0.0275537,0.447392,-0.321388,-0.0224113,0.0110782,0.271488,5,0.1,20,1.6,-0.299347,1.74997,0.611577,-0.413307,-0.247002,-0.0111997,0.967741,-0.0576377,0.00908971,0.00803603,2.47834,5,0.1,21,1.6,1.06646,-3.72457,0.580896,0.274715,0.497276,0.0206292,-0.216305,-0.0426769,-0.0208616,0.00847905,0.256662,5,0.1,22,1.6,1.64875,0.611572,0.599132,-0.0194222,0.090535,0.00107884,-0.53668,-0.935078,-0.00107288,0.0133247,2.45736,5,0.1,23,1.6,-0.511854,-2.41977,0.500008,0.060001,0.866026,9.38773e-05,-0.00834465,0,0.000327826,0.0102499,2.26967,5,0.1,24,1.6,1.31854,0.612879,0.598457,-0.405473,0.650087,0.00122488,0.73278,0.0442266,-0.000566244,0.0184637,0.526826,5,0.1,25,1.6,1.26696,-0.484008,0.617645,-0.0400841,0.793668,-0.0105634,0.00971556,-0.692711,0.002563,0.00631204,0.756688,5,0.1,26,1.6,-1.30158,-3.71321,0.561653,-0.0600338,-0.627446,-0.0166044,0.0487566,0.510335,0.0134706,0.00852891,0.143052,5,0.1,27,1.6,-0.862269,1.59621,0.598407,0.546546,-0.213045,0.000171363,0.594914,-0.310302,-0.00715256,0.01089,2.7179,5,0.1,28,1.6,3.41574,-1.75705,0.611252,0.0100613,0.866026,-0.00267476,-0.00190735,-5.96046e-05,-0.00920892,0.0140838,2.27185,5,0.1,29,1.6,2.41782,3.36772,0.593086,-0.866026,0.267124,0.00276417,0,-0.00917912,-0.000596046,0.0123659,2.22651,5,0.1
0,1.7,3.56081,1.55273,0.596791,-0.138152,0.684333,-0.0292233,0.357419,-0.432275,-0.0491329,0.0147797,1.47306,5,0.1,1,1.7,-1.69768,-0.217579,0.727773,0.48709,-0.012403,0.0573843,-1.50836,-0.936202,0.0704043,0.00627294,0.740491,5,0.1,2,1.7,-1.79573,-3.28386,0.617779,0.126102,0.292693,-0.053817,-0.179082,-0.492766,-0.155352,0.00667762,0.287,5,0.1,3,1.7,0.961579,-0.381853,0.586188,0.209384,0.252532,0.0131314,-0.350021,-0.0450928,-0.0130273,0.0117955,0.20408,5,0.1,4,1.7,-1.60216,-1.4337,0.719237,-0.467439,0.730738,0.0175249,1.24648,-0.0140741,-0.000342727,0.00996872,2.61301,5,0.1,5,1.7,-1.85311,-3.63163,0.735638,0.166441,0.411494,0.0282499,-0.128485,-0.218824,-0.00744686,0.00905928,0.390027,5,0.1,6,1.7,1.52178,-2.95844,0.610762,-0.521607,-0.487646,-0.0106827,0.39418,0.389993,0.00853464,0.00830719,0.42708,5,0.1,7,1.7,-3.6012,2.49802,0.578682,0.364108,-0.0972211,0.0211446,-0.0570714,0.0777543,-0.0168979,0.00830456,0.204185,5,0.1,8,1.7,3.67077,0.761706,0.589945,-0.205847,0.866026,0.00557955,0.020355,-3.72529e-06,-0.000573695,0.0240828,2.24529,5,0.1,9,1.7,-1.17459,3.89269,0.601868,0.336167,0.158485,-0.0018849,-0.0631511,-0.0834018,0.000979751,0.0279492,0.170588,5,0.1,10,1.7,1.12121,2.81853,0.598773,-0.6495,-0.550971,0.00117207,0.472166,0.403538,-0.000823289,0.0185517,0.326464,5,0.1,11,1.7,-0.955995,-0.319947,0.719143,0.544532,0.851831,0.0256093,-0.209089,-0.07625,-0.00983477,0.0340497,0.967184,5,0.1,12,1.7,-1.46067,-0.00711171,0.667815,0.0218609,-0.389329,-0.00737896,0.393368,0.749086,-0.0539161,0.0130697,0.220743,5,0.1,13,1.7,3.35402,1.9175,0.722918,-0.0824831,0.430615,0.026862,-0.0790358,0.411883,-0.0215136,0.00910022,0.780073,5,0.1,14,1.7,4.27469,0.0377977,0.535008,-0.000537187,-0.866025,-0.00955518,0.000268221,5.96046e-07,0.000521541,0.00874221,2.27186,5,0.1,15,1.7,-2.27858,3.96012,0.610251,0.865776,0.0744376,-0.00848938,-0.00998378,-0.0285953,0.0032708,0.00922699,1.32662,5,0.1,16,1.7,0.509146,-3.56621,0.526584,-0.474309,0.242146,-0.023783,-1.33714,-0.373319,0.0418127,0.00920781,2.76174,5,0.1,17,1.7,0.395547,2.51813,0.602775,-0.735911,-0.552328,-0.00242069,0.350213,1.19467,0.00113994,0.00956786,0.819339,5,0.1,18,1.7,-3.76602,-2.11659,0.570377,0.197032,0.866026,0.00946773,-0.011459,0,-0.000532717,0.0135089,2.24706,5,0.1,19,1.7,3.51224,2.6318,0.724339,-0.51275,0.365245,0.0254528,0.327438,-0.292018,-0.0203587,0.0110782,0.271488,5,0.1,20,1.7,-0.335623,1.72517,0.610503,-0.311053,-0.247124,-0.0102681,1.03843,0.0549331,0.00966713,0.00803603,2.47834,5,0.1,21,1.7,1.0929,-3.675,0.582859,0.254368,0.494104,0.0186736,-0.198111,-0.042811,-0.0187382,0.00847905,0.256662,5,0.1,22,1.7,1.64345,0.615076,0.599235,-0.091815,-0.0271227,0.00097407,-0.851452,-1.3381,-0.00103936,0.0133247,2.45736,5,0.1,23,1.7,-0.505866,-2.33317,0.500018,0.059975,0.866026,9.77889e-05,0.00376627,0,-0.000201166,0.0102499,2.26967,5,0.1,24,1.7,1.28177,0.678202,0.598577,-0.328976,0.656459,0.00117365,0.783361,0.0500157,-0.000506639,0.0184637,0.526826,5,0.1,25,1.7,1.26397,-0.40925,0.616709,-0.0116436,0.691623,-0.00723945,0.499018,-1.28618,0.0574179,0.00631204,0.756688,5,0.1,26,1.7,-1.30735,-3.77353,0.560057,-0.0554623,-0.579606,-0.015341,0.0443235,0.463605,0.012245,0.00852891,0.143052,5,0.1,27,1.7,-0.804722,1.5728,0.598383,0.60267,-0.259223,-0.000693928,0.4928,-0.560611,-0.00959262,0.01089,2.7179,5,0.1,28,1.7,3.41674,-1.67044,0.610943,0.00996962,0.866025,-0.00344375,-0.000506639,1.49012e-05,-0.0060983,0.0140838,2.27185,5,0.1,29,1.7,2.33122,3.39446,0.593361,-0.866026,0.268035,0.00273148,0,0.0123382,-0.000219792,0.0123659,2.22651,5,0.1
0,1.8,3.54869,1.61903,0.593652,-0.105143,0.641322,-0.0332296,0.303268,-0.451028,-0.0295937,0.0151529,1.22815,5,0.1,1,1.8,-1.65688,-0.223244,0.733801,0.326502,-0.0978652,0.0624895,-1.64628,-0.754856,0.0303984,0.00605207,0.41297,5,0.1,2,1.8,-1.784,-3.25721,0.611622,0.108653,0.239176,-0.0690624,-0.171304,-0.564694,-0.140786,0.00764405,0.365245,5,0.1,3,1.8,0.980714,-0.356805,0.587436,0.172922,0.248266,0.0118181,-0.37393,-0.0540465,-0.0134408,0.0114276,0.141614,5,0.1,4,1.8,-1.64305,-1.36082,0.720984,-0.354978,0.72487,0.0173837,0.964701,-0.13411,-0.00321865,0.0107915,2.75176,5,0.1,5,1.8,-1.83713,-3.59165,0.738437,0.152907,0.387067,0.0277877,-0.145078,-0.278473,-0.0038743,0.0100076,0.336478,5,0.1,6,1.8,1.47176,-3.00522,0.609738,-0.477019,-0.447464,-0.00980347,0.499308,0.423431,0.00929832,0.00804059,1.82388,5,0.1,7,1.8,-3.56507,2.48869,0.580711,0.357985,-0.0892103,0.0194028,-0.0832081,0.0844002,-0.0183284,0.010269,0.150459,5,0.1,8,1.8,3.65032,0.848308,0.590499,-0.202608,0.866026,0.00549108,0.0526905,0,-0.00146031,0.0229072,2.24695,5,0.1,9,1.8,-1.14131,3.90814,0.601684,0.32886,0.150639,-0.00179261,-0.0979304,-0.0807047,0.000953674,0.0277475,0.319846,5,0.1,10,1.8,1.05868,2.76551,0.598886,-0.600046,-0.508761,0.00108629,0.530303,0.451803,-0.000953674,0.0165385,0.215614,5,0.1,11,1.8,-0.902702,-0.235348,0.721649,0.519814,0.83734,0.0244483,-0.299126,-0.243008,-0.0140965,0.0343915,0.675294,5,0.1,12,1.8,-1.45664,-0.0423548,0.666809,0.0572741,-0.316181,-0.0126541,0.307143,0.710281,-0.0491738,0.00967793,0.33036,5,0.1,13,1.8,3.3454,1.96258,0.725495,-0.0896633,0.46961,0.0246465,-0.0582933,0.331879,-0.0233352,0.010223,0.249709,5,0.1,14,1.8,4.27463,-0.0488048,0.534056,-0.0005126,-0.866025,-0.00944883,0,1.19209e-06,0.00205636,0.00724364,2.27187,5,0.1,15,1.8,-2.19213,3.9674,0.60942,0.862038,0.0710607,-0.00810325,-0.0798702,-0.0407696,0.00461936,0.00855046,0.993283,5,0.1,16,1.8,0.455085,-3.54392,0.52443,-0.604465,0.203091,-0.0191793,-1.19357,-0.402451,0.0489354,0.00910184,2.44168,5,0.1,17,1.8,0.323846,2.46878,0.602539,-0.696263,-0.436658,-0.00229031,0.460043,1.0848,0.00149012,0.0107417,1.69575,5,0.1,18,1.8,-3.74641,-2.02999,0.571319,0.194734,0.866026,0.00935942,-0.0424385,-5.96046e-05,-0.00202656,0.0136689,2.24808,5,0.1,19,1.8,3.46257,2.66684,0.726781,-0.480467,0.335157,0.0233561,0.335932,-0.317097,-0.0221133,0.0109071,0.318387,5,0.1,20,1.8,-0.361677,1.70091,0.609526,-0.212105,-0.23618,-0.00924617,0.914574,0.162482,0.0108778,0.00788012,3.69873,5,0.1,21,1.8,1.11733,-3.62596,0.584633,0.233838,0.485009,0.0167996,-0.217676,-0.154376,-0.0190735,0.00822783,0.332623,5,0.1,22,1.8,1.6299,0.605552,0.599327,-0.179225,-0.163034,0.000868738,-0.851512,-1.31965,-0.00110269,0.0111251,1.50708,5,0.1,23,1.8,-0.499857,-2.24656,0.500026,0.0600569,0.866026,6.25849e-05,-0.00505149,0,-0.000447035,0.00986898,2.26969,5,0.1,24,1.8,1.25278,0.743886,0.598692,-0.251269,0.654486,0.0011161,0.759959,-0.112325,-0.000655651,0.018635,0.378392,5,0.1,25,1.8,1.2657,-0.347073,0.616319,0.0490308,0.547647,-0.000238419,0.667751,-1.54321,0.0775158,0.00764462,0.357982,5,0.1,26,1.8,-1.31267,-3.82913,0.558585,-0.0508964,-0.53184,-0.0140771,0.0481606,0.503421,0.0132918,0.0068953,0.0943925,5,0.1,27,1.8,-0.742392,1.54402,0.598266,0.639302,-0.315967,-0.00164956,0.216514,-0.535071,-0.00914931,0.00800634,2.39184,5,0.1,28,1.8,3.41774,-1.58384,0.610574,0.00985265,0.866026,-0.00388473,-0.00190735,-5.96046e-05,-0.00271201,0.0165573,2.27185,5,0.1,29,1.8,2.24462,3.42126,0.593632,-0.866026,0.267035,0.00269413,0,-0.0427961,-0.000625849,0.0116044,2.22774,5,0.1
0,1.9,3.53947,1.68136,0.590212,-0.0813093,0.608582,-0.0352415,0.182495,-0.243805,-0.0103973,0.0151529,1.22815,5,0.1,1,1.9,-1.63237,-0.236626,0.740284,0.165617,-0.167574,0.067782,-1.54023,-0.62353,0.0667498,0.00605207,0.41297,5,0.1,2,1.9,-1.77392,-3.23615,0.603928,0.0935053,0.181863,-0.0853529,-0.135161,-0.570118,-0.172548,0.00764405,0.365245,5,0.1,3,1.9,0.996517,-0.332125,0.588563,0.14644,0.246162,0.0108094,-0.175349,-0.00431761,-0.00755116,0.0114276,0.141614,5,0.1,4,1.9,-1.67418,-1.28874,0.722713,-0.274902,0.718266,0.0172244,0.548072,-0.0393689,-0.000953674,0.0107915,2.75176,5,0.1,5,1.9,-1.82255,-3.55441,0.741262,0.138699,0.356914,0.0292438,-0.141524,-0.326842,0.027854,0.0100076,0.336478,5,0.1,6,1.9,1.42691,-3.04782,0.608811,-0.417111,-0.404267,-0.00867452,0.680737,0.443861,0.0129566,0.00804059,1.82388,5,0.1,7,1.9,-3.52957,2.48017,0.582564,0.352868,-0.0813916,0.0177043,-0.0386834,0.0744164,-0.0161752,0.010269,0.150459,5,0.1,8,1.9,3.63025,0.934911,0.591043,-0.199319,0.866026,0.00539953,0.0243634,0,-0.000674278,0.0229072,2.24695,5,0.1,9,1.9,-1.10929,3.92279,0.601509,0.308085,0.142055,-0.001691,-0.303879,-0.0935942,0.00111386,0.0277475,0.319846,5,0.1,10,1.9,1.00119,2.71677,0.59899,-0.550747,-0.466774,0.000998098,0.472225,0.401959,-0.000845641,0.0165385,0.215614,5,0.1,11,1.9,-0.852134,-0.1527,0.724028,0.491927,0.816049,0.0231348,-0.275426,-0.217022,-0.012964,0.0343915,0.675294,5,0.1,12,1.9,-1.4498,-0.0711917,0.665357,0.0758439,-0.267237,-0.0158379,0.0790954,0.308487,-0.0162497,0.00967793,0.33036,5,0.1,13,1.9,3.3363,2.01104,0.727849,-0.0908315,0.497418,0.0224848,0.0302494,0.205718,-0.0205673,0.010223,0.249709,5,0.1,14,1.9,4.27458,-0.135407,0.533118,-0.000516325,-0.866025,-0.00934405,-8.9407e-05,-7.45058e-07,0.000599772,0.00724364,2.27187,5,0.1,15,1.9,-2.10603,3.97431,0.608631,0.861592,0.0672638,-0.0076727,0.020355,-0.0374615,0.00425801,0.00855046,0.993283,5,0.1,16,1.9,0.38867,-3.5256,0.522762,-0.722221,0.163757,-0.0141526,-1.09921,-0.381872,0.0505373,0.00910184,2.44168,5,0.1,17,1.9,0.255932,2.43033,0.602474,-0.666592,-0.33669,0.00229478,0.18426,0.83068,0.0803992,0.0107417,1.69575,5,0.1,18,1.9,-3.72707,-1.94339,0.572249,0.192545,0.866025,0.00925567,-0.0127852,1.49012e-05,-0.000603497,0.0136689,2.24808,5,0.1,19,1.9,3.41602,2.69886,0.729012,-0.452034,0.305777,0.0213074,0.253648,-0.27959,-0.0194907,0.0109071,0.318387,5,0.1,20,1.9,-0.378352,1.67815,0.608779,-0.123659,-0.218642,-0.00466118,0.783266,0.190161,0.0730865,0.00788012,3.69873,5,0.1,21,1.9,1.13949,-3.57852,0.586215,0.208198,0.460888,0.0148177,-0.289358,-0.324249,-0.0204965,0.00822783,0.332623,5,0.1,22,1.9,1.60768,0.582593,0.599408,-0.264496,-0.295411,0.000764988,-0.818625,-1.27758,-0.000990927,0.0111251,1.50708,5,0.1,23,1.9,-0.49385,-2.15996,0.50003,0.0602455,0.866026,1.96509e-05,0.0049118,0,-0.000398606,0.00986898,2.26969,5,0.1,24,1.9,1.23133,0.808837,0.5988,-0.179165,0.644494,0.00105547,0.675432,-0.114288,-0.000592321,0.018635,0.378392,5,0.1,25,1.9,1.27424,-0.299792,0.616715,0.123759,0.40057,0.00837138,0.785194,-1.38773,0.0902526,0.00764462,0.357982,5,0.1,26,1.9,-1.31753,-3.87994,0.55724,-0.0464341,-0.485202,-0.012845,0.0424609,0.443801,0.0117347,0.0068953,0.0943925,5,0.1,27,1.9,-0.676636,1.50995,0.598061,0.681283,-0.362956,-0.00237804,0.545286,-0.385389,-0.00543892,0.00800634,2.39184,5,0.1,28,1.9,3.41871,-1.49724,0.610174,0.00976138,0.866025,-0.0040886,-0.000491738,1.49012e-05,-0.00126287,0.0165573,2.27185,5,0.1,29,1.9,2.15802,3.44784,0.593899,-0.866026,0.265031,0.00265911,0,-0.012219,-0.000230968,0.0116044,2.22774,5,0.1
0,2,3.53211,1.74107,0.586669,-0.0670075,0.585634,-0.0352845,0.110984,-0.244439,0.00950694,0.0149831,1.0189,5,0.1,1,2,-1.62312,-0.256179,0.747397,0.0237793,-0.219978,0.07433,-1.2747,-0.414401,0.0578165,0.00595582,0.28992,5,0.1,2,2,-1.76521,-3.22075,0.594562,0.0810117,0.127131,-0.101419,-0.117362,-0.516176,-0.139713,0.00867795,0.408814,5,0.1,3,2,1.01048,-0.307558,0.58961,0.134358,0.24461,0.0101656,-0.0815988,-0.0383407,-0.00596046,0.010831,0.115223,5,0.1,4,2,-1.7,-1.21723,0.724428,-0.251734,0.709924,0.0170231,-0.0597239,-0.156641,-0.00378489,0.0118741,2.41509,5,0.1,5,2,-1.8094,-3.52045,0.744343,0.124204,0.321412,0.0324547,-0.149965,-0.383973,0.0324845,0.010056,0.302815,5,0.1,6,2,1.38877,-3.08598,0.608012,-0.344193,-0.3582,-0.00727177,0.762463,0.479102,0.0147521,0.00754191,1.30746,5,0.1,7,2,-3.49453,2.4724,0.584254,0.346917,-0.0739157,0.0160798,-0.0942945,0.0766516,-0.0166595,0.00835888,0.186675,5,0.1,8,2,3.61047,1.02151,0.591578,-0.195819,0.866026,0.00530332,0.0537634,0,-0.00146031,0.0230535,2.24865,5,0.1,9,2,-1.08025,3.93649,0.601346,0.270635,0.131506,-0.00156611,-0.433147,-0.118971,0.00146031,0.0265793,0.31107,5,0.1,10,2,0.948489,2.67211,0.599085,-0.50281,-0.426006,0.000911951,0.497878,0.423312,-0.00089407,0.0177946,0.14308,5,0.1,11,2,-0.804392,-0.0723651,0.726273,0.461906,0.788171,0.0217214,-0.336468,-0.363966,-0.015825,0.0336705,1.1209,5,0.1,12,2,-1.44209,-0.0967661,0.663734,0.0758201,-0.247383,-0.0162318,-0.0670552,0.119716,0.00682473,0.00787527,0.232585,5,0.1,13,2,3.32748,2.06148,0.729995,-0.0845075,0.507736,0.0204191,0.092268,-0.0110865,-0.0211895,0.0112539,0.466225,5,0.1,14,2,4.27453,-0.22201,0.532188,-0.000524521,-0.866025,-0.00923425,0.000238419,-1.43051e-05,0.00199676,0.00774407,2.27187,5,0.1,15,2,-2.01994,3.98084,0.607887,0.857487,0.063175,-0.00720918,-0.138223,-0.0456572,0.00524521,0.00779583,0.714968,5,0.1,16,2,0.311515,-3.51108,0.521595,-0.814227,0.127137,-0.00925809,-0.702419,-0.348687,0.0465512,0.00933935,2.31146,5,0.1,17,2,0.190081,2.4,0.603169,-0.650575,-0.27799,0.0120446,0.173569,0.352502,0.10699,0.0129464,2.10853,5,0.1,18,2,-3.7079,-1.85678,0.57317,0.190228,0.866026,0.00914484,-0.041604,-5.96046e-05,-0.00199676,0.0126238,2.24908,5,0.1,19,2,3.37209,2.72804,0.731046,-0.426161,0.277698,0.0193506,0.27895,-0.288486,-0.0201166,0.0111118,0.287683,5,0.1,20,2,-0.387447,1.65729,0.608729,-0.0655472,-0.197884,0.003995,0.34906,0.225723,0.0940263,0.0090983,0.496478,5,0.1,21,2,1.15878,-3.5343,0.587593,0.177044,0.421017,0.0127167,-0.328779,-0.468493,-0.0214577,0.00651832,0.319414,5,0.1,22,2,1.57743,0.547073,0.59948,-0.336951,-0.40997,0.000667572,-0.605643,-0.978053,-0.000953674,0.0103046,1.13472,5,0.1,23,2,-0.48781,-2.07336,0.50003,0.0603683,0.866026,-1.63913e-05,-0.00523031,0,-0.000327826,0.0122791,2.27228,5,0.1,24,2,1.21661,0.872533,0.598903,-0.117275,0.627135,0.000990927,0.558197,-0.251055,-0.000685453,0.0171393,0.0924272,5,0.1,25,2,1.29046,-0.266344,0.617994,0.198853,0.271887,0.0170425,0.686049,-1.17873,0.0798702,0.00981645,0.250268,5,0.1,26,2,-1.32196,-3.92624,0.556014,-0.0421703,-0.440627,-0.0116676,0.043869,0.457644,0.0121295,0.0109451,0.107939,5,0.1,27,2,-0.605764,1.4721,0.597802,0.734816,-0.389963,-0.0027433,0.467688,-0.143468,-0.00190735,0.00736501,2.09229,5,0.1,28,2,3.41969,-1.41064,0.609762,0.00964999,0.866026,-0.00412315,-0.00190735,-5.96046e-05,0.000685453,0.0150683,2.27186,5,0.1,29,2,2.07141,3.47423,0.594164,-0.866026,0.26204,0.0026226,0,-0.0580549,-0.000655651,0.0121515,2.22978,5,0.1
0,2.1,3.52585,1.79866,0.583193,-0.059114,0.567888,-0.0341611,0.0532717,-0.142194,0.0137612,0.0149831,1.0189,5,0.1,1,2.1,-1.62626,-0.280087,0.755238,-0.0785466,-0.256283,0.0833679,-0.791609,-0.300318,0.110604,0.00595582,0.28992,5,0.1,2,2.1,-1.75763,-3.21047,0.583627,0.0710705,0.0800144,-0.117845,-0.085108,-0.421301,-0.174437,0.00867795,0.408814,5,0.1,3,2.1,1.02367,-0.283588,0.590602,0.130809,0.232037,0.00970541,-0.00277907,-0.202999,-0.00378862,0.010831,0.115223,5,0.1,4,2.1,-1.72673,-1.14684,0.726116,-0.293061,0.698853,0.0167548,-0.675686,-0.0999272,-0.00242516,0.0118741,2.41509,5,0.1,5,2.1,-1.7977,-3.49022,0.74782,0.109903,0.283277,0.0375906,-0.138007,-0.380516,0.0636205,0.010056,0.302815,5,0.1,6,2.1,1.3582,-3.11923,0.607364,-0.26719,-0.305473,-0.00564829,0.764959,0.564441,0.0172183,0.00754191,1.30746,5,0.1,7,2.1,-3.45997,2.46534,0.585791,0.34695,-0.0678498,0.0147611,0.0620484,0.0488907,-0.010632,0.00835888,0.186675,5,0.1,8,2.1,3.59108,1.10812,0.592104,-0.192401,0.866026,0.00521075,0.0255108,0,-0.000685453,0.0230535,2.24865,5,0.1,9,2.1,-1.0555,3.94906,0.601197,0.223099,0.119896,-0.00142436,-0.50538,-0.115588,0.00140071,0.0265793,0.31107,5,0.1,10,2.1,0.900555,2.63151,0.599172,-0.456955,-0.387032,0.000829715,0.433154,0.367999,-0.000771135,0.0177946,0.14308,5,0.1,11,2.1,-0.759791,0.00522202,0.72837,0.430653,0.767992,0.0202518,-0.302579,-0.0972019,-0.0142232,0.0336705,1.1209,5,0.1,12,2.1,-1.4352,-0.12137,0.662191,0.058993,-0.248425,-0.0142341,-0.247896,-0.104772,0.0306554,0.00787527,0.232585,5,0.1,13,2.1,3.31957,2.11243,0.731937,-0.072892,0.512939,0.0184736,0.135273,0.0800043,-0.0182875,0.0112539,0.466225,5,0.1,14,2.1,4.27448,-0.308612,0.531271,-0.00050962,-0.866025,-0.00913572,0.000119209,1.78814e-06,0.000528991,0.00774407,2.27187,5,0.1,15,2.1,-1.93472,3.98694,0.60719,0.847551,0.0589333,-0.00672238,-0.100896,-0.0410676,0.00470504,0.00779583,0.714968,5,0.1,16,2.1,0.22748,-3.50003,0.520896,-0.858278,0.0947282,-0.00477647,-0.212883,-0.299096,0.0423603,0.00933935,2.31146,5,0.1,17,2.1,0.125271,2.37286,0.60481,-0.650283,-0.273967,0.019837,-0.107926,-0.202253,0.0513569,0.0129464,2.10853,5,0.1,18,2.1,-3.68901,-1.77018,0.574079,0.188128,0.866025,0.00904417,-0.0116974,1.49012e-05,-0.000555068,0.0126238,2.24908,5,0.1,19,2.1,3.33124,2.75445,0.732886,-0.387321,0.251212,0.0175042,0.482515,-0.248924,-0.0173524,0.0111118,0.287683,5,0.1,20,2.1,-0.391704,1.63942,0.609552,-0.0151669,-0.152839,0.0119922,0.615358,0.62599,0.0658296,0.0090983,0.496478,5,0.1,21,2.1,1.17472,-3.49481,0.588753,0.140618,0.366475,0.0104523,-0.388734,-0.607967,-0.023406,0.00651832,0.319414,5,0.1,22,2.1,1.54078,0.501305,0.599542,-0.394605,-0.503216,0.000579655,-0.52017,-0.848172,-0.000819564,0.0103046,1.13472,5,0.1,23,2.1,-0.481862,-1.98676,0.500027,0.0580273,0.866026,-4.13507e-05,-0.0399295,0,-0.000178814,0.0122791,2.27228,5,0.1,24,2.1,1.20743,0.933904,0.598999,-0.0686485,0.599077,0.000942592,0.416875,-0.322085,-0.000346452,0.0171393,0.0924272,5,0.1,25,2.1,1.31377,-0.244487,0.620095,0.26661,0.170609,0.0248717,0.640176,-0.857248,0.0737384,0.00981645,0.250268,5,0.1,26,2.1,-1.32599,-3.96836,0.554899,-0.0386983,-0.404412,-0.0107072,0.0279844,0.291929,0.0077486,0.0109451,0.107939,5,0.1,27,2.1,-0.530932,1.43314,0.597526,0.752454,-0.382199,-0.00271052,-0.0948051,0.270702,0.00224262,0.00736501,2.09229,5,0.1,28,2.1,3.42065,-1.32403,0.609353,0.00955872,0.866025,-0.00404464,-0.000491738,1.49012e-05,0.001017,0.0150683,2.27186,5,0.1,29,2.1,1.98481,3.50024,0.594424,-0.866026,0.258749,0.00258554,0,-0.0225604,-0.000238419,0.0121515,2.22978,5,0.1
0,2.2,3.52015,1.85469,0.579858,-0.0552237,0.551757,-0.0324041,0.0293255,-0.203013,0.0218749,0.0169151,0.836566,5,0.1,1,2.2,-1.63741,-0.306953,0.764132,-0.138208,-0.278214,0.094305,-0.418484,-0.131384,0.0990331,0.00592213,0.232114,5,0.1,2,2.2,-1.75092,-3.20439,0.57101,0.0633478,0.0435472,-0.133829,-0.072062,-0.306249,-0.134885,0.00624714,0.426118,5,0.1,3,2.2,1.03678,-0.261601,0.591553,0.131464,0.205914,0.00931472,0.00590086,-0.31054,-0.00441074,0.0102078,0.148343,5,0.1,4,2.2,-1.75981,-1.07759,0.727776,-0.370798,0.683975,0.0163957,-0.809431,-0.222206,-0.00533462,0.00973983,1.91034,5,0.1,5,2.2,-1.7874,-3.4638,0.751904,0.0962794,0.245053,0.0440255,-0.135899,-0.384927,0.0601411,0.012062,0.275946,5,0.1,6,2.2,1.33523,-3.14689,0.606886,-0.193405,-0.247329,-0.00391752,0.701308,0.58949,0.0170469,0.00650641,0.625025,5,0.1,7,2.2,-3.42492,2.45878,0.587218,0.353611,-0.0634015,0.0137925,0.0472069,0.0433922,-0.00941753,0.00850187,0.114444,5,0.1,8,2.2,3.57199,1.19472,0.59262,-0.188863,0.866026,0.00511557,0.0530481,0,-0.00143051,0.0216576,1.79617,5,0.1,9,2.2,-1.03576,3.96046,0.601062,0.171739,0.108004,-0.00128001,-0.512183,-0.123858,0.00149012,0.0268667,0.308949,5,0.1,10,2.2,0.857011,2.59463,0.599251,-0.413817,-0.35041,0.000752509,0.439316,0.372887,-0.00077486,0.0193944,0.095568,5,0.1,11,2.2,-0.718276,0.0815879,0.730323,0.399035,0.758762,0.018765,-0.339299,-0.129502,-0.0159442,0.0320395,1.59234,5,0.1,12,2.2,-1.43069,-0.146865,0.660944,0.0300974,-0.262066,-0.0105456,-0.313044,-0.141092,0.041157,0.00704,0.154235,5,0.1,13,2.2,3.313,2.16404,0.733694,-0.0583172,0.517726,0.0166669,0.152349,-0.00941753,-0.0182986,0.00892634,0.347788,5,0.1,14,2.2,4.27443,-0.395215,0.530361,-0.000500679,-0.866025,-0.00903457,0,-1.43051e-05,0.00184774,0.00893369,2.27187,5,0.1,15,2.2,-1.85068,3.99263,0.606542,0.83048,0.0546336,-0.00622869,-0.268459,-0.046134,0.00524521,0.00917303,0.499954,5,0.1,16,2.2,0.141086,-3.49196,0.520619,-0.866026,0.0673711,-0.000908971,4.76837e-06,-0.248075,0.0345111,0.00775288,2.27304,5,0.1,17,2.2,0.0596421,2.34401,0.606975,-0.66178,-0.306082,0.0227913,-0.0780213,-0.386238,0.00992417,0.0118113,0.506786,5,0.1,18,2.2,-3.67028,-1.68358,0.574979,0.185966,0.866026,0.0089407,-0.0395775,-5.96046e-05,-0.00187755,0.0137871,2.25001,5,0.1,19,2.2,3.29515,2.77834,0.734551,-0.332499,0.226611,0.0157893,0.600457,-0.248551,-0.0173151,0.00964779,0.273613,5,0.1,20,2.2,-0.389998,1.6276,0.611033,0.0499032,-0.0814617,0.0171691,0.652984,0.762999,0.0379086,0.00890878,3.51852,5,0.1,21,2.2,1.18681,-3.46134,0.589681,0.101259,0.30207,0.0081107,-0.389874,-0.66793,-0.0231266,0.00870057,0.315809,5,0.1,22,2.2,1.49904,0.447216,0.599596,-0.436419,-0.573124,0.000500679,-0.297785,-0.523925,-0.000745058,0.00963464,0.827496,5,0.1,23,2.2,-0.476304,-1.90015,0.500023,0.0527032,0.866026,-5.21541e-05,-0.0650138,-5.96046e-05,-8.9407e-05,0.0135144,2.27065,5,0.1,24,2.2,1.20243,0.992005,0.599092,-0.0333548,0.560813,0.000910461,0.291765,-0.450224,-0.000357628,0.0161559,0.130731,5,0.1,25,2.2,1.34336,-0.231252,0.622921,0.321999,0.0984479,0.031288,0.447631,-0.595458,0.0525415,0.00780529,0.192901,5,0.1,26,2.2,-1.32973,-4.00744,0.553864,-0.0361502,-0.377834,-0.0100017,0.0246763,0.257969,0.00682473,0.00754873,0.0623682,5,0.1,27,2.2,-0.456949,1.39677,0.597271,0.719829,-0.341013,-0.00235289,-0.538081,0.52911,0.00464916,0.00895531,1.94791,5,0.1,28,2.2,3.4216,-1.23743,0.608955,0.0094533,0.866026,-0.00389963,-0.00190735,-5.96046e-05,0.00202656,0.0133397,2.27186,5,0.1,29,2.2,1.89821,3.52596,0.594681,-0.866026,0.255001,0.0025481,0,-0.0627041,-0.000625849,0.0122526,2.23205,5,0.1
0,2.3,3.51465,1.90907,0.576736,-0.0557806,0.537068,-0.0299694,-0.0313073,-0.120007,0.0269338,0.0169151,0.836566,5,0.1,1,2.3,-1.65266,-0.335335,0.774143,-0.161323,-0.288221,0.106459,-0.0852346,-0.0596307,0.131771,0.00592213,0.232114,5,0.1,2,2.3,-1.7449,-3.20136,0.55722,0.0574099,0.0189841,-0.139472,-0.0498965,-0.188023,0.0148006,0.00624714,0.426118,5,0.1,3,2.3,1.05007,-0.242684,0.592468,0.135283,0.171418,0.00900049,0.0569597,-0.370938,-0.00243634,0.0102078,0.148343,5,0.1,4,2.3,-1.80141,-1.01018,0.729235,-0.464128,0.664728,0.0114881,-0.987917,-0.191066,-0.0836141,0.00973983,1.91034,5,0.1,5,2.3,-1.77841,-3.44107,0.756655,0.083782,0.210583,0.0513136,-0.116162,-0.311345,0.0789911,0.012062,0.275946,5,0.1,6,2.3,1.31959,-3.16864,0.606619,-0.117936,-0.187534,-0.00109691,0.781573,0.596359,0.036478,0.00650641,0.625025,5,0.1,7,2.3,-3.38924,2.45263,0.588555,0.360464,-0.0597376,0.012997,0.0684559,0.0326782,-0.00710785,0.00850187,0.114444,5,0.1,8,2.3,3.55332,1.28131,0.593131,-0.184764,0.865611,0.00513112,0.0378639,-0.016585,0.00121817,0.0216576,1.79617,5,0.1,9,2.3,-1.02108,3.97066,0.600941,0.122511,0.0963062,-0.00113947,-0.466071,-0.112176,0.00134483,0.0268667,0.308949,5,0.1,10,2.3,0.81769,2.56134,0.599323,-0.373661,-0.316336,0.000681728,0.37552,0.318512,-0.000663102,0.0193944,0.095568,5,0.1,11,2.3,-0.679659,0.157431,0.732124,0.37659,0.762583,0.0172925,-0.141043,0.140785,-0.0140555,0.0320395,1.59234,5,0.1,12,2.3,-1.42934,-0.173914,0.660108,-0.00371411,-0.27967,-0.00607651,-0.348672,-0.187404,0.0465438,0.00704,0.154235,5,0.1,13,2.3,3.30793,2.21589,0.735275,-0.0431255,0.519592,0.0149995,0.148654,0.0189245,-0.0155196,0.00892634,0.347788,5,0.1,14,2.3,4.27438,-0.481818,0.529463,-0.000504404,-0.866026,-0.00894843,-8.9407e-05,1.93715e-06,0.000413507,0.00893369,2.27187,5,0.1,15,2.3,-1.76885,3.99787,0.605944,0.806457,0.0503719,-0.00574403,-0.244699,-0.04071,0.00463426,0.00917303,0.499954,5,0.1,16,2.3,0.0544831,-3.48638,0.520693,-0.866025,0.0450827,0.00231154,5.96046e-07,-0.198126,0.0293404,0.00775288,2.27304,5,0.1,17,2.3,-0.00642713,2.31148,0.609726,-0.654675,-0.343874,0.0357234,0.217462,-0.346079,0.220899,0.0118113,0.506786,5,0.1,18,2.3,-3.65181,-1.59698,0.575867,0.184036,0.866025,0.00884999,-0.0101328,1.49012e-05,-0.000469387,0.0137871,2.25001,5,0.1,19,2.3,3.26503,2.79984,0.736049,-0.269114,0.203958,0.0142112,0.654191,-0.210971,-0.0146925,0.00964779,0.273613,5,0.1,20,2.3,-0.382974,1.62285,0.612875,0.079681,-0.017391,0.0190841,-0.00164285,0.524454,0.0026077,0.00890878,3.51852,5,0.1,21,2.3,1.19508,-3.4345,0.590377,0.0651142,0.234597,0.00581443,-0.330426,-0.670135,-0.0224113,0.00870057,0.315809,5,0.1,22,2.3,1.4542,0.387817,0.599644,-0.457376,-0.609391,0.000467338,-0.112943,-0.196172,-1.49012e-05,0.00963464,0.827496,5,0.1,23,2.3,-0.47129,-1.81355,0.500017,0.0481615,0.866025,-5.51343e-05,-0.0303034,1.49012e-05,2.23517e-05,0.0135144,2.27065,5,0.1,24,2.3,1.20038,1.04609,0.599181,-0.00930727,0.522684,0.00088159,0.192598,-0.337068,-0.00026077,0.0161559,0.130731,5,0.1,25,2.3,1.37776,-0.224005,0.626306,0.364957,0.0500445,0.0362897,0.387251,-0.382381,0.0450164,0.00780529,0.192901,5,0.1,26,2.3,-1.33324,-4.04408,0.552894,-0.0340663,-0.356051,-0.00942498,0.0185966,0.19443,0.0051558,0.00754873,0.0623682,5,0.1,27,2.3,-0.388594,1.36557,0.597062,0.639434,-0.280889,-0.00180602,-1.0095,0.654228,0.00604987,0.00895531,1.94791,5,0.1,28,2.3,3.42254,-1.15083,0.608574,0.00936203,0.866025,-0.00371942,-0.000491738,1.49012e-05,0.00172481,0.0133397,2.27186,5,0.1,29,2.3,1.81161,3.55125,0.594934,-0.866026,0.251325,0.00251355,0,-0.0253022,-0.000219792,0.0122526,2.23205,5,0.1
0,2.4,3.50888,1.96211,0.573882,-0.0598848,0.522763,-0.0270069,-0.0436306,-0.186861,0.0323057,0.0153612,0.680801,5,0.1,1,2.4,-1.66893,-0.364276,0.785419,-0.161958,-0.288671,0.118543,0.0468493,0.0561923,0.101,0.00615546,0.221161,5,0.1,2,2.4,-1.7394,-3.20023,0.543544,0.0528127,0.00520945,-0.132246,-0.0443459,-0.0919104,0.123203,0.00721995,0.4413,5,0.1,3,2.4,1.06388,-0.227438,0.593355,0.140533,0.13327,0.00873208,0.0382066,-0.385016,-0.00330806,0.0129009,0.13561,5,0.1,4,2.4,-1.85259,-0.944802,0.729899,-0.556412,0.640981,0.00131428,-0.807285,-0.303388,-0.112653,0.00884304,1.44548,5,0.1,5,2.4,-1.77059,-3.4215,0.762168,0.0726849,0.18158,0.0586808,-0.107348,-0.273705,0.0634491,0.00964494,0.637452,5,0.1,6,2.4,1.31166,-3.18447,0.606704,-0.0417292,-0.129831,0.00286847,0.722766,0.549912,0.0405908,0.00691311,0.495913,5,0.1,7,2.4,-3.35296,2.44682,0.589819,0.363672,-0.05638,0.0122681,-0.0191927,0.0362396,-0.00792742,0.00883495,0.0640252,5,0.1,8,2.4,3.53507,1.36766,0.593651,-0.179768,0.859392,0.00526905,0.0681877,-0.13268,0.00113249,0.0224235,1.48691,5,0.1,9,2.4,-1.01104,3.97974,0.600833,0.0795722,0.0852108,-0.00100732,-0.388622,-0.110984,0.0013113,0.0249402,0.492048,5,0.1,10,2.4,0.782174,2.53128,0.599388,-0.336719,-0.285017,0.000615418,0.371605,0.314951,-0.000625849,0.0155371,0.131994,5,0.1,11,2.4,-0.64259,0.234401,0.733782,0.365339,0.775648,0.0158623,-0.107378,0.0729561,-0.0149906,0.0304235,0.573426,5,0.1,12,2.4,-1.43142,-0.202736,0.659731,-0.0371188,-0.295505,-0.00152886,-0.308692,-0.112467,0.0430942,0.00880731,0.0951958,5,0.1,13,2.4,3.30434,2.2678,0.736699,-0.0290751,0.516802,0.0134811,0.130296,-0.0941753,-0.0151992,0.0119612,0.253078,5,0.1,14,2.4,4.27433,-0.56842,0.528572,-0.000500679,-0.866026,-0.00885874,-0.000238419,0,0.00175834,0.00953218,2.27187,5,0.1,15,2.4,-1.68961,4.00271,0.605393,0.776041,0.0462174,-0.00527054,-0.386,-0.0433922,0.00491738,0.00811292,2.61121,5,0.1,16,2.4,-0.0321195,-3.48279,0.521059,-0.866025,0.0276327,0.00486672,1.19209e-06,-0.151277,0.0213683,0.0084178,2.27241,5,0.1,17,2.4,-0.0703414,2.27559,0.614562,-0.619074,-0.371337,0.0620395,0.489343,-0.187278,0.283927,0.0111474,0.447445,5,0.1,18,2.4,-3.63348,-1.51037,0.576749,0.182045,0.866026,0.00875592,-0.0375509,-5.96046e-05,-0.00181794,0.0120462,2.25088,5,0.1,19,2.4,3.24139,2.8192,0.737398,-0.203985,0.18332,0.0127733,0.638008,-0.20659,-0.0143647,0.0103138,0.267777,5,0.1,20,2.4,-0.375714,1.62338,0.614753,0.0596598,0.0246316,0.0181034,-0.353709,0.322044,-0.0203848,0.0103171,3.42755,5,0.1,21,2.4,1.20005,-3.41432,0.59085,0.035581,0.170028,0.00369549,-0.258863,-0.613093,-0.0196397,0.00657893,0.292104,5,0.1,22,2.4,1.40826,0.32647,0.599691,-0.45777,-0.611797,0.000482798,0.108957,0.14843,0.000238419,0.00828205,0.380732,5,0.1,23,2.4,-0.466598,-1.72695,0.500012,0.0458539,0.866026,-4.91738e-05,-0.0192374,-5.96046e-05,5.96046e-05,0.0160518,2.2707,5,0.1,24,2.4,1.20027,1.09669,0.599268,0.00582039,0.48916,0.000850856,0.113189,-0.351071,-0.00038743,0.0156475,0.204865,5,0.1,25,2.4,1.41593,-0.220627,0.630131,0.395387,0.0201471,0.0398755,0.204921,-0.224046,0.0250936,0.00876566,0.161868,5,0.1,26,2.4,-1.33655,-4.07871,0.551978,-0.0321567,-0.336099,-0.00889599,0.0206828,0.216722,0.00572205,0.00806974,0.0485514,5,0.1,27,2.4,-0.330072,1.34083,0.596912,0.528413,-0.213593,-0.00118315,-1.1664,0.676513,0.00619888,0.00739315,1.84802,5,0.1,28,2.4,3.42347,-1.06423,0.608212,0.00926256,0.866026,-0.00352859,-0.00190735,-2.98023e-05,0.00217557,0.0148508,2.27186,5,0.1,29,2.4,1.725,3.57622,0.595184,-0.866026,0.247461,0.00247955,0,-0.0623465,-0.000596046,0.0115758,2.23431,5,0.1
0,2.5,3.50258,2.01362,0.571345,-0.0667013,0.508295,-0.0237137,-0.0833273,-0.127912,0.0335202,0.0153612,0.680801,5,0.1,1,2.5,-1.68473,-0.392845,0.797849,-0.153818,-0.282301,0.130425,0.0655428,0.0800267,0.124313,0.00615546,0.221161,5,0.1,2,2.5,-1.73431,-3.20006,0.531089,0.0491811,-0.000844896,-0.115526,-0.0308976,-0.0337064,0.203025,0.00721995,0.4413,5,0.1,3,2.5,1.07813,-0.216019,0.594212,0.144312,0.0954583,0.00841003,0.0298992,-0.364309,-0.00342727,0.0129009,0.13561,5,0.1,4,2.5,-1.91237,-0.882114,0.729412,-0.638877,0.613264,-0.011438,-0.788659,-0.274062,-0.135515,0.00884304,1.44548,5,0.1,5,2.5,-1.76388,-3.40452,0.768509,0.0615587,0.159682,0.0693389,-0.113912,-0.175267,0.135612,0.00964494,0.637452,5,0.1,6,2.5,1.31101,-3.19498,0.607214,0.0274261,-0.082694,0.00745626,0.6456,0.404656,0.0485368,0.00691311,0.495913,5,0.1,7,2.5,-3.3167,2.44136,0.591009,0.361099,-0.0530154,0.0115323,-0.0457019,0.032872,-0.00717863,0.00883495,0.0640252,5,0.1,8,2.5,3.51723,1.45289,0.594191,-0.178698,0.844225,0.00558468,-0.02864,-0.197999,0.00447407,0.0224235,1.48691,5,0.1,9,2.5,-1.00492,3.98773,0.600739,0.0440465,0.074929,-0.000885781,-0.314407,-0.0964701,0.00113621,0.0249402,0.492048,5,0.1,10,2.5,0.750238,2.50429,0.599446,-0.302963,-0.255174,0.000558048,0.313323,0.287473,-0.000536442,0.0155371,0.131994,5,0.1,11,2.5,-0.606695,0.3123,0.735298,0.351416,0.781226,0.0144864,-0.17596,0.00732034,-0.0129826,0.0304235,0.573426,5,0.1,12,2.5,-1.43665,-0.232842,0.65979,-0.0669189,-0.306161,0.00266451,-0.278071,-0.0857114,0.0396967,0.00880731,0.0951958,5,0.1,13,2.5,3.30204,2.31908,0.737976,-0.0172339,0.508977,0.0121045,0.104964,-0.0846386,-0.0127293,0.0119612,0.253078,5,0.1,14,2.5,4.27428,-0.655023,0.527691,-0.000523776,-0.866026,-0.00877948,-0.000208616,3.72529e-06,0.000361353,0.00953218,2.27187,5,0.1,15,2.5,-1.61401,4.00701,0.604892,0.734702,0.0390351,-0.0047354,-0.455007,-0.0944734,0.00575185,0.00811292,2.61121,5,0.1,16,2.5,-0.118722,-3.48071,0.521647,-0.866025,0.0144683,0.00682669,1.49012e-07,-0.112683,0.0173338,0.0084178,2.27241,5,0.1,17,2.5,-0.1298,2.23739,0.622185,-0.569835,-0.393129,0.0901389,0.505136,-0.220045,0.266943,0.0111474,0.447445,5,0.1,18,2.5,-3.61539,-1.42377,0.577619,0.180263,0.866025,0.00866931,-0.0089258,1.49012e-05,-0.000439584,0.0120462,2.25088,5,0.1,19,2.5,3.22408,2.83657,0.738608,-0.14341,0.164605,0.0114717,0.56681,-0.173107,-0.0120401,0.0103138,0.267777,5,0.1,20,2.5,-0.371523,1.62721,0.616435,0.0242985,0.0496559,0.0152905,-0.346502,0.182986,-0.0342652,0.0103171,3.42755,5,0.1,21,2.5,1.20248,-3.39996,0.591129,0.0145223,0.121043,0.00197673,-0.166193,-0.38144,-0.014808,0.00657893,0.292104,5,0.1,22,2.5,1.36349,0.266536,0.599742,-0.43332,-0.582148,0.000529457,0.365719,0.432692,0.000614673,0.00828205,0.380732,5,0.1,23,2.5,-0.462064,-1.64035,0.500007,0.045176,0.866025,-4.00469e-05,0.00159629,1.49012e-05,0.000111759,0.0160518,2.2707,5,0.1,24,2.5,1.20124,1.14397,0.599351,0.0118237,0.457043,0.00080578,0.0145733,-0.307262,-0.000528991,0.0156475,0.204865,5,0.1,25,2.5,1.45651,-0.219575,0.634246,0.415878,0.00238526,0.042376,0.181355,-0.135154,0.0224151,0.00876566,0.161868,5,0.1,26,2.5,-1.33968,-4.11139,0.551113,-0.0304867,-0.318599,-0.0084335,0.0143796,0.150561,0.00398606,0.00806974,0.0485514,5,0.1,27,2.5,-0.283272,1.32276,0.596825,0.407346,-0.148832,-0.000554137,-1.1844,0.611141,0.00621378,0.00739315,1.84802,5,0.1,28,2.5,3.42439,-0.977624,0.607868,0.00917017,0.866025,-0.00334727,-0.000506639,3.72529e-06,0.00161305,0.0148508,2.27186,5,0.1,29,2.5,1.6384,3.60075,0.59543,-0.866026,0.243803,0.00244696,0,-0.0249594,-0.000201166,0.0115758,2.23431,5,0.1
0,2.6,3.4955,2.06374,0.569143,-0.0749111,0.492847,-0.0203148,-0.0741482,-0.19896,0.0343621,0.0170722,0.550071,5,0.1,1,2.6,-1.7,-0.420577,0.811468,-0.153735,-0.271218,0.14129,-0.0623465,0.147298,0.0841916,0.00783472,0.209129,5,0.1,2,2.6,-1.72954,-3.20025,0.520627,0.0461847,-0.00234842,-0.0931278,-0.0309348,0,0.238299,0.0107526,0.511754,5,0.1,3,2.6,1.09265,-0.208215,0.595034,0.145265,0.0615612,0.00799596,-0.0157952,-0.309005,-0.00506639,0.0123776,0.0177414,5,0.1,4,2.6,-1.97981,-0.822263,0.727599,-0.705084,0.582276,-0.0245899,-0.498235,-0.361472,-0.122428,0.00947981,1.04474,5,0.1,5,2.6,-1.75829,-3.38934,0.776144,0.0501305,0.144583,0.0833333,-0.113428,-0.134826,0.133753,0.00969413,0.600837,5,0.1,6,2.6,1.31675,-3.20139,0.608197,0.0849128,-0.0469327,0.0121191,0.494242,0.318408,0.0428557,0.00804661,0.3953,5,0.1,7,2.6,-3.28095,2.43623,0.592125,0.352305,-0.0495017,0.0107661,-0.138879,0.0386238,-0.00843406,0.0084458,0.123672,5,0.1,8,2.6,3.49918,1.53604,0.594772,-0.182331,0.815269,0.00604093,-0.0303984,-0.398993,0.00408292,0.021949,1.27671,5,0.1,9,2.6,-1.00192,3.99476,0.600656,0.0177979,0.0655949,-0.00077635,-0.207126,-0.0913143,0.00110269,0.0250668,0.476953,5,0.1,10,2.6,0.721477,2.4802,0.5995,-0.272377,-0.226587,0.000503659,0.305325,0.287771,-0.000506639,0.0182448,0.22639,5,0.1,11,2.6,-0.572578,0.390143,0.736682,0.329416,0.771911,0.013186,-0.266463,-0.214309,-0.0132918,0.0308656,0.435229,5,0.1,12,2.6,-1.44462,-0.263742,0.660242,-0.0911802,-0.310151,0.0062272,-0.200868,0.0159591,0.0308454,0.00723566,0.0723575,5,0.1,13,2.6,3.30079,2.36942,0.739125,-0.00831485,0.496113,0.0108674,0.0729561,-0.187993,-0.0123382,0.00906874,0.181074,5,0.1,14,2.6,4.27422,-0.741625,0.526816,-0.000536442,-0.866026,-0.00869632,0,0,0.00169873,0.00999171,2.27187,5,0.1,15,2.6,-1.54302,4.0104,0.604448,0.682765,0.028348,-0.00412762,-0.592232,-0.114441,0.0064075,0.0098985,2.89133,5,0.1,16,2.6,-0.205325,-3.47977,0.522406,-0.866025,0.00495911,0.00825077,0,-0.0782013,0.0108182,0.00738083,2.27205,5,0.1,17,2.6,-0.184169,2.19711,0.632431,-0.51649,-0.410473,0.113542,0.567638,-0.10705,0.193387,0.0113088,0.319985,5,0.1,18,2.6,-3.59743,-1.33717,0.578482,0.178397,0.866026,0.0085786,-0.0360012,-5.96046e-05,-0.00172853,0.0130944,2.2517,5,0.1,19,2.6,3.21241,2.85218,0.739696,-0.0917017,0.147772,0.0103012,0.463247,-0.16737,-0.0116825,0.0101662,0.262345,5,0.1,20,2.6,-0.370765,1.6329,0.617781,-0.00839829,0.062117,0.0115409,-0.302047,0.0706315,-0.0394285,0.0104308,2.36876,5,0.1,21,2.6,1.20323,-3.38948,0.591261,0.00160933,0.0910521,0.000719726,-0.0955462,-0.230551,-0.010401,0.0079585,0.257283,5,0.1,22,2.6,1.32231,0.21087,0.599798,-0.387344,-0.527604,0.000591576,0.540793,0.646569,0.000566244,0.00740163,0.326428,5,0.1,23,2.6,-0.457532,-1.55374,0.500004,0.0454627,0.866026,-2.83122e-05,0.00113249,0,0.000119209,0.0123822,2.27063,5,0.1,24,2.6,1.20238,1.1881,0.599429,0.0101358,0.425005,0.000745058,-0.0420213,-0.344515,-0.000715256,0.0202321,0.276448,5,0.1,25,2.6,1.49881,-0.219892,0.638575,0.427699,-0.00762902,0.0439391,0.0391603,-0.0686049,0.00712276,0.0122614,3.36302,5,0.1,26,2.6,-1.34266,-4.14249,0.550289,-0.0289977,-0.30303,-0.0080213,0.0165105,0.172853,0.00458956,0.00902008,0.0220565,5,0.1,27,2.6,-0.248051,1.31077,0.5968,0.302122,-0.0926137,2.98023e-05,-0.884734,0.508368,0.00533462,0.00684258,1.71325,5,0.1,28,2.6,3.4253,-0.891022,0.607542,0.00907183,0.866026,-0.00317842,-0.00190735,0,0.00184774,0.0138803,2.27186,5,0.1,29,2.6,1.5518,3.62497,0.595673,-0.866026,0.240046,0.00241399,0,-0.0603199,-0.000566244,0.0128642,2.23649,5,0.1
0,2.7,3.48757,2.11216,0.567281,-0.0839368,0.476339,-0.0169406,-0.097245,-0.153139,0.0330135,0.0170722,0.550071,5,0.1,1,2.7,-1.71605,-0.447006,0.826105,-0.170227,-0.257543,0.151958,-0.235938,0.135345,0.115372,0.00783472,0.209129,5,0.1,2,2.7,-1.72499,-3.20046,0.512517,0.0455018,-0.00175387,-0.0690981,0.0109226,0.0104308,0.23726,0.0107526,0.511754,5,0.1,3,2.7,1.10677,-0.203482,0.595794,0.134358,0.0342857,0.00708122,-0.185966,-0.236975,-0.012435,0.0123776,0.0177414,5,0.1,4,2.7,-2.05279,-0.765735,0.72452,-0.753144,0.54888,-0.0369326,-0.42104,-0.325505,-0.11922,0.00947981,1.04474,5,0.1,5,2.7,-1.75387,-3.37536,0.78525,0.0381332,0.136609,0.0994634,-0.123531,-0.0386536,0.174895,0.00969413,0.600837,5,0.1,6,2.7,1.32764,-3.20472,0.609638,0.131777,-0.0213481,0.0167729,0.429057,0.220686,0.0474826,0.00804661,0.3953,5,0.1,7,2.7,-3.24616,2.43146,0.59316,0.34528,-0.0457674,0.00995118,-0.0275224,0.0371933,-0.00811368,0.0084458,0.123672,5,0.1,8,2.7,3.48072,1.61467,0.59539,-0.187259,0.750348,0.00625784,-0.0552833,-0.82878,0.000294298,0.021949,1.27671,5,0.1,9,2.7,-1.00108,4.00089,0.600583,0.000392459,0.0572521,-0.000675768,-0.12397,-0.0771135,0.000923872,0.0250668,0.476953,5,0.1,10,2.7,0.69553,2.45908,0.599548,-0.248518,-0.194979,0.000463985,0.188474,0.338674,-0.000312924,0.0182448,0.22639,5,0.1,11,2.7,-0.540818,0.466284,0.737938,0.306908,0.750475,0.0119722,-0.1982,-0.240091,-0.0113659,0.0308656,0.435229,5,0.1,12,2.7,-1.45473,-0.294725,0.661017,-0.110674,-0.309578,0.00921497,-0.179507,0.0111777,0.0278093,0.00723566,0.0723575,5,0.1,13,2.7,3.30029,2.41816,0.740154,-0.00219718,0.478794,0.00975542,0.0461042,-0.176549,-0.0102296,0.00906874,0.181074,5,0.1,14,2.7,4.27417,-0.828228,0.525951,-0.000539422,-0.866026,-0.00862079,-5.96046e-05,3.72529e-06,0.000331551,0.00999171,2.27187,5,0.1,15,2.7,-1.47788,4.01256,0.604069,0.618276,0.0140242,-0.00346676,-0.695586,-0.163108,0.00672787,0.0098985,2.89133,5,0.1,16,2.7,-0.291927,-3.47962,0.523283,-0.866025,-0.0015676,0.00923919,8.9407e-07,-0.0528991,0.00846013,0.00738083,2.27205,5,0.1,17,2.7,-0.232895,2.15555,0.644727,-0.457238,-0.420301,0.131891,0.615395,-0.0706762,0.164766,0.0113088,0.319985,5,0.1,18,2.7,-3.5797,-1.25057,0.579335,0.17671,0.866025,0.00849776,-0.00832975,1.49012e-05,-0.000402331,0.0130944,2.2517,5,0.1,19,2.7,3.20535,2.86618,0.740672,-0.0514764,0.132681,0.00924813,0.340626,-0.138938,-0.00969693,0.0101662,0.262345,5,0.1,20,2.7,-0.372769,1.63933,0.618731,-0.028859,0.0655109,0.00742357,-0.131324,0.000499189,-0.0417456,0.0104308,2.36876,5,0.1,21,2.7,1.20301,-3.38108,0.59129,-0.00519454,0.0808623,-3.13856e-05,-0.0436604,0.00174344,-0.00495836,0.0079585,0.257283,5,0.1,22,2.7,1.28653,0.161549,0.59986,-0.326192,-0.457041,0.000651553,0.665352,0.753008,0.000581145,0.00740163,0.326428,5,0.1,23,2.7,-0.45295,-1.46714,0.500002,0.0463856,0.866026,-1.69501e-05,0.0135694,0,0.000104308,0.0123822,2.27063,5,0.1,24,2.7,1.20321,1.22898,0.5995,0.00649262,0.39344,0.000673998,-0.0345781,-0.300035,-0.000718981,0.0202321,0.276448,5,0.1,25,2.7,1.54081,-0.218985,0.642894,0.403607,0.0427227,0.0414739,-0.478081,0.951034,-0.05145,0.0122614,3.36302,5,0.1,26,2.7,-1.34548,-4.17196,0.54951,-0.027407,-0.286387,-0.0075791,0.0161827,0.169218,0.0044927,0.00902008,0.0220565,5,0.1,27,2.7,-0.221749,1.30386,0.596829,0.231055,-0.0475634,0.000542309,-0.466389,0.393033,0.004787,0.00684258,1.71325,5,0.1,28,2.7,3.4262,-0.804419,0.607232,0.00897832,0.866026,-0.00303304,-0.000491738,-3.72529e-06,0.00121817,0.0138803,2.27186,5,0.1,29,2.7,1.4652,3.64877,0.595913,-0.866026,0.236516,0.00238288,0,-0.0240356,-0.000193715,0.0128642,2.23649,5,0.1
0,2.8,3.47872,2.15895,0.565749,-0.0927866,0.458497,-0.0137344,-0.0730753,-0.218987,0.0309944,0.0153442,0.442042,5,0.1,1,2.8,-1.73433,-0.472042,0.841836,-0.195405,-0.242614,0.161996,-0.243902,0.169471,0.0754595,0.00721189,0.188883,5,0.1,2,2.8,-1.72036,-3.20058,0.506758,0.0472516,-0.0005126,-0.0465363,0.0193119,0.0132322,0.210404,0.013281,0.427875,5,0.1,3,2.8,1.11911,-0.201123,0.596433,0.110981,0.014028,0.00565052,-0.268877,-0.169098,-0.0155568,0.00941574,0.250877,5,0.1,4,2.8,-2.1298,-0.712542,0.720271,-0.782269,0.513968,-0.0475466,-0.133157,-0.385761,-0.089407,0.0078854,0.726553,5,0.1,5,2.8,-1.75067,-3.36182,0.796045,0.0259519,0.134397,0.1159,-0.11766,-0.0162125,0.143647,0.0109428,0.55214,5,0.1,6,2.8,1.34276,-3.20575,0.611542,0.168395,0.00118613,0.0211447,0.293911,0.242829,0.037998,0.00843452,0.302655,5,0.1,7,2.8,-3.21176,2.42708,0.594114,0.342333,-0.0418782,0.00910312,-0.0500679,0.041604,-0.00905991,0.0103667,0.201992,5,0.1,8,2.8,3.46176,1.6853,0.596012,-0.191188,0.660795,0.00610948,-0.0140667,-0.920117,-0.00315905,0.0211888,1.09002,5,0.1,9,2.8,-1.00143,4.00624,0.60052,-0.00479221,0.049901,-0.000588596,0.0252128,-0.0710487,0.000864267,0.0218061,0.442533,5,0.1,10,2.8,0.671539,2.44132,0.599593,-0.231782,-0.159907,0.000433624,0.158608,0.357866,-0.000238419,0.015577,0.219861,5,0.1,11,2.8,-0.511103,0.539918,0.739079,0.28728,0.719625,0.0108466,-0.204772,-0.393927,-0.0114143,0.0282918,0.292112,5,0.1,12,2.8,-1.46659,-0.325531,0.662065,-0.125492,-0.305287,0.011605,-0.110388,0.0852495,0.0192523,0.00912737,0.033029,5,0.1,13,2.8,3.30024,2.46505,0.74108,0.000500679,0.457746,0.00876337,0.00691414,-0.256658,-0.00980496,0.00884427,0.130779,5,0.1,14,2.8,4.27411,-0.91483,0.525092,-0.000524521,-0.866026,-0.00853986,-0.000238419,0,0.00163913,0.00815203,2.27188,5,0.1,15,2.8,-1.41969,4.01312,0.603755,0.54417,-0.00270605,-0.00279546,-0.783443,-0.164986,0.00664592,0.009117,2.76153,5,0.1,16,2.8,-0.37853,-3.48001,0.524242,-0.866025,-0.00573397,0.00986308,-1.43051e-05,-0.0309944,0.00363588,0.00951422,2.2719,5,0.1,17,2.8,-0.275479,2.11335,0.658633,-0.393873,-0.42147,0.14502,0.649318,0.0600815,0.0918806,0.00906849,0.468148,5,0.1,18,2.8,-3.5621,-1.16396,0.580182,0.17491,0.866026,0.00841171,-0.0352859,-5.96046e-05,-0.00169873,0.0138545,2.25251,5,0.1,19,2.8,3.2017,2.87877,0.74155,-0.0234902,0.119209,0.0083074,0.220537,-0.133634,-0.00929832,0.0122243,0.641578,5,0.1,20,2.8,-0.376186,1.6458,0.619268,-0.0386409,0.0628382,0.00339597,-0.0799447,-0.0509024,-0.0379384,0.00747916,2.27857,5,0.1,21,2.8,1.20233,-3.37277,0.591269,-0.00769794,0.0869393,-0.000335276,-0.00905991,0.100493,-0.0013411,0.00683306,0.548468,5,0.1,22,2.8,1.25733,0.119704,0.599927,-0.257325,-0.37917,0.000698864,0.698328,0.794426,0.000327826,0.00736374,0.663135,5,0.1,23,2.8,-0.448248,-1.38054,0.5,0.0475295,0.866026,-7.45058e-06,0.00660121,0,5.96046e-05,0.0118124,2.27054,5,0.1,24,2.8,1.20367,1.26681,0.599563,0.00265539,0.362754,0.000600517,-0.0439882,-0.322878,-0.00077486,0.0199556,0.670439,5,0.1,25,2.8,1.57822,-0.209122,0.646722,0.33991,0.160407,0.0345543,-0.760496,1.30555,-0.0828207,0.0123676,2.90829,5,0.1,26,2.8,-1.34813,-4.1997,0.548775,-0.0256151,-0.267684,-0.00708252,0.0201464,0.211477,0.00560284,0.00646707,0.0134401,5,0.1,27,2.8,-0.2,1.30088,0.596905,0.213281,-0.013867,0.000965595,0.0850484,0.28193,0.00360608,0.0073252,0.625659,5,0.1,28,2.8,3.4271,-0.717817,0.606935,0.00888109,0.866026,-0.00290573,-0.00178814,0,0.00140071,0.0170478,2.27187,5,0.1,29,2.8,1.37859,3.67227,0.59615,-0.866026,0.232887,0.0023514,5.96046e-05,-0.0582933,-0.000536442,0.0109898,2.23861,5,0.1
0,2.9,3.46903,2.20383,0.564528,-0.101214,0.439721,-0.0107359,-0.0867099,-0.175774,0.0287816,0.0153442,0.442042,5,0.1,1,2.9,-1.75523,-0.495521,0.858521,-0.223431,-0.227377,0.172376,-0.292197,0.14394,0.116423,0.00721189,0.188883,5,0.1,2,2.9,-1.71555,-3.2006,0.503085,0.0488302,-4.28408e-05,-0.0276639,0.0104234,-0.00162423,0.165533,0.013281,0.427875,5,0.1,3,2.9,1.12902,-0.20039,0.596929,0.0886176,0.0022229,0.00433987,-0.184506,-0.073825,-0.0109412,0.00941574,0.250877,5,0.1,4,2.9,-2.20867,-0.662962,0.715079,-0.793909,0.478338,-0.0560962,-0.0660419,-0.34266,-0.077568,0.0078854,0.726553,5,0.1,5,2.9,-1.74872,-3.34826,0.808405,0.0127271,0.138475,0.131481,-0.14016,0.0818074,0.154354,0.0109428,0.55214,5,0.1,6,2.9,1.36112,-3.20439,0.613863,0.198687,0.0269029,0.0253493,0.293158,0.299796,0.0430495,0.00843452,0.302655,5,0.1,7,2.9,-3.17743,2.42309,0.59498,0.346913,-0.0378463,0.00822563,0.107229,0.0397414,-0.00864267,0.0103667,0.201992,5,0.1,8,2.9,3.44254,1.74669,0.596604,-0.193345,0.568664,0.00571804,-0.0188798,-0.830375,-0.00466034,0.0211888,1.09002,5,0.1,9,2.9,-1.00161,4.0109,0.600465,0.00379682,0.0434816,-0.000510924,0.17491,-0.058651,0.000707805,0.0218061,0.442533,5,0.1,10,2.9,0.649148,2.42713,0.599635,-0.215967,-0.123818,0.000408478,0.162467,0.357881,-0.000275671,0.015577,0.219861,5,0.1,11,2.9,-0.483295,0.609984,0.740111,0.2696,0.681883,0.00980943,-0.160581,-0.382256,-0.0096485,0.0282918,0.292112,5,0.1,12,2.9,-1.47963,-0.355595,0.663313,-0.134472,-0.295419,0.0132548,-0.0646338,0.11977,0.0132099,0.00912737,0.033029,5,0.1,13,2.9,3.30026,2.50947,0.741911,-0.00060685,0.42978,0.00788141,-0.0294298,-0.308603,-0.00810623,0.00884427,0.130779,5,0.1,14,2.9,4.27406,-1.00143,0.524243,-0.000544637,-0.866026,-0.00846731,-0.000149012,0,0.00031665,0.00815203,2.27188,5,0.1,15,2.9,-1.36914,4.01187,0.603509,0.467356,-0.0236101,-0.00214288,-0.753947,-0.237852,0.00633672,0.009117,2.76153,5,0.1,16,2.9,-0.465132,-3.48071,0.525246,-0.866026,-0.00810139,0.0102094,1.93715e-06,-0.016734,0.00279769,0.00951422,2.2719,5,0.1,17,2.9,-0.311505,2.07176,0.673303,-0.325791,-0.407818,0.145719,0.701021,0.21185,-0.0681058,0.00906849,0.468148,5,0.1,18,2.9,-3.54471,-1.07736,0.581018,0.173238,0.866025,0.00833115,-0.00852346,1.11759e-05,-0.000413507,0.0138545,2.25251,5,0.1,19,2.9,3.20036,2.89007,0.742337,-0.00449829,0.107203,0.007472,0.153795,-0.110239,-0.0076741,0.0122243,0.641578,5,0.1,20,2.9,-0.380197,1.65177,0.619421,-0.040433,0.0562748,-0.000299793,-0.00853837,-0.0781044,-0.0351109,0.00747916,2.27857,5,0.1,21,2.9,1.20156,-3.36303,0.591233,-0.00748299,0.112071,-0.000352599,0.0112355,0.361711,0.000789762,0.00683306,0.548468,5,0.1,22,2.9,1.23538,0.0866905,0.600007,-0.179431,-0.273544,0.00094967,0.829779,1.24983,0.0041537,0.00736374,0.663135,5,0.1,23,2.9,-0.44344,-1.29394,0.5,0.048772,0.866026,-1.49012e-06,0.0147354,0,4.47035e-05,0.0118124,2.27054,5,0.1,24,2.9,1.20385,1.30173,0.59962,0.00136737,0.337667,0.000526756,-0.00881404,-0.199787,-0.000707805,0.0199556,0.670439,5,0.1,25,2.9,1.60791,-0.1858,0.649724,0.249981,0.311158,0.0251863,-0.997096,1.61575,-0.100918,0.0123676,2.90829,5,0.1,26,2.9,-1.35059,-4.22543,0.548095,-0.0236629,-0.247215,-0.00654003,0.0195876,0.2051,0.0054352,0.00646707,0.0134401,5,0.1,27,2.9,-0.177631,1.30077,0.597019,0.23898,0.010322,0.00129919,0.378981,0.202253,0.00296533,0.0073252,0.625659,5,0.1,28,2.9,3.42798,-0.631214,0.60665,0.00879616,0.866026,-0.002803,-0.000447035,-3.72529e-06,0.000808388,0.0170478,2.27187,5,0.1,29,2.9,1.29199,3.69536,0.596383,-0.866025,0.229452,0.00232169,-1.49012e-05,-0.0236928,-0.00018999,0.0109898,2.23861,5,0.1
0,3,3.45851,2.24687,0.563593,-0.108629,0.420076,-0.00801235,-0.0553131,-0.230432,0.0255704,0.0157273,0.358026,5,0.1,1,3,-1.77895,-0.517523,0.876303,-0.249654,-0.212358,0.182582,-0.214696,0.162482,0.0763237,0.0342288,4.22613,5,0.1,2,3,-1.71064,-3.20062,0.501063,0.0490338,-0.000464916,-0.0136107,-0.00745058,-0.00500679,0.115186,0.011314,0.63877,5,0.1,3,3,1.13705,-0.200426,0.597314,0.0729829,-0.00197254,0.00340939,-0.133038,-0.0156164,-0.00783801,0.00872122,0.24753,5,0.1,4,3,-2.28805,-0.616875,0.709128,-0.789881,0.442766,-0.0623867,0.1688,-0.379592,-0.0454783,0.00803555,0.491965,5,0.1,5,3,-1.74814,-3.33395,0.822252,-0.000932813,0.147915,0.144476,-0.12815,0.0946522,0.0962317,0.0119699,0.969779,5,0.1,6,3,1.38233,-3.2,0.616601,0.223836,0.0628352,0.0292316,0.196695,0.407457,0.0324249,0.0125008,0.2298,5,0.1,7,3,-3.14217,2.41951,0.595759,0.357807,-0.0338078,0.00734776,0.0853539,0.0413656,-0.0090301,0.00950695,0.124539,5,0.1,8,3,3.42317,1.8,0.59715,-0.193238,0.503466,0.00518262,0.027895,-0.478327,-0.00604987,0.020701,0.900033,5,0.1,9,3,-1,4.01496,0.600418,0.0315964,0.0379324,-0.000444055,0.366747,-0.0531673,0.000625849,0.00692046,0.333679,5,0.1,10,3,0.628402,2.4165,0.599674,-0.198507,-0.0893831,0.000378489,0.189751,0.326633,-0.000357628,0.0130233,0.369375,5,0.1,11,3,-0.457144,0.676139,0.741044,0.253158,0.639607,0.00886023,-0.176579,-0.477552,-0.00950694,0.0309719,0.194849,5,0.1,12,3,-1.49329,-0.384431,0.664691,-0.13769,-0.280101,0.0141636,0.00298023,0.191212,0.00458956,0.00643825,0.590669,5,0.1,13,3,3.3,2.55078,0.742659,-0.0050962,0.395119,0.00709593,-0.056982,-0.387907,-0.00783801,0.0100836,0.161991,5,0.1,14,3,4.27401,-1.08804,0.523399,-0.000548363,-0.866026,-0.00838786,0,0,0.00160933,0.0091873,2.27188,5,0.1,15,3,-1.32613,4.0083,0.603325,0.393245,-0.0476241,-0.00154078,-0.728428,-0.230551,0.00569224,0.00775722,2.15417,5,0.1,16,3,-0.551735,-3.48158,0.526276,-0.866026,-0.00916123,0.0103399,0,-0.00476837,-0.000536442,0.00888809,2.27186,5,0.1,17,3,-0.340572,2.03227,0.687338,-0.255708,-0.379479,0.133222,0.691518,0.352383,-0.17342,0.0077849,0.706006,5,0.1,18,3,-3.52746,-0.99076,0.581847,0.171429,0.866026,0.00824481,-0.0350475,0,-0.00169873,0.0120288,2.25333,5,0.1,19,3,3.20053,2.90026,0.743047,0.00652075,0.0965178,0.00672787,0.0646114,-0.105977,-0.00736117,0.00630201,0.344495,5,0.1,20,3,-0.384482,1.65698,0.619226,-0.0479147,0.047636,-0.00348091,-0.164121,-0.0927448,-0.027895,0.00745936,2.10511,5,0.1,21,3,1.20089,-3.34986,0.591204,-0.00582635,0.152153,-0.000213087,0.020206,0.409245,0.00184774,0.00882859,0.470706,5,0.1,22,3,1.2216,0.0658719,0.600125,-0.0966161,-0.14132,0.00143796,0.803828,1.34178,0.0051558,0.00713925,0.399223,5,0.1,23,3,-0.438499,-1.20733,0.5,0.0498749,0.866026,0,0.00479817,-5.96046e-05,5.96046e-05,0.0104159,2.27048,5,0.1,24,3,1.20383,1.33456,0.599669,-0.00301301,0.319168,0.000458956,-0.0907779,-0.18549,-0.000715256,0.0189318,0.59675,5,0.1,25,3,1.62781,-0.146728,0.651733,0.147763,0.467256,0.0150114,-1.0156,1.43695,-0.0997782,0.0100602,2.32931,5,0.1,26,3,-1.35286,-4.24909,0.547469,-0.0215858,-0.225508,-0.00596493,0.0222921,0.23365,0.00619888,0.00769939,0.00430513,5,0.1,27,3,-0.151691,1.30269,0.597162,0.28031,0.0267118,0.00154227,0.409893,0.126421,0.00187755,0.00944628,0.19193,5,0.1,28,3,3.42886,-0.544612,0.606373,0.00870228,0.866026,-0.00271499,-0.00178814,0,0.00104308,0.0126123,2.27187,5,0.1,29,3,1.20539,3.71815,0.596614,-0.866026,0.225884,0.00229031,5.96046e-05,-0.0572205,-0.000536442,0.0113979,1.80567,5,0.1
0,3.1,3.44736,2.28778,0.562905,-0.114189,0.398378,-0.00589434,-0.0494272,-0.216797,0.0172779,0.0157273,0.358026,5,0.1,1,3.1,-1.80391,-0.536427,0.894807,-0.240062,-0.152886,0.186112,0.354975,0.934642,-0.00678003,0.0342288,4.22613,5,0.1,2,3.1,-1.70578,-3.20078,0.500195,0.048146,-0.00333302,-0.00456292,-0.0118166,-0.0402778,0.0664592,0.011314,0.63877,5,0.1,3,3.1,1.14377,-0.200659,0.59762,0.0621466,-0.00231692,0.00276528,-0.0879988,0.00636373,-0.00524521,0.00872122,0.24753,5,0.1,4,3.1,-2.36621,-0.574385,0.702673,-0.772792,0.407834,-0.0665208,0.200436,-0.33224,-0.0340268,0.00803555,0.491965,5,0.1,5,3.1,-1.74883,-3.31848,0.837064,-0.0124294,0.163198,0.150524,-0.0994354,0.190169,0.0217482,0.0119699,0.969779,5,0.1,6,3.1,1.40583,-3.19153,0.619705,0.246985,0.107346,0.0329606,0.242539,0.458419,0.0387654,0.0125008,0.2298,5,0.1,7,3.1,-3.10588,2.41633,0.59645,0.368266,-0.0298336,0.00648107,0.101492,0.038594,-0.00840425,0.00950695,0.124539,5,0.1,8,3.1,3.40396,1.84879,0.597639,-0.190991,0.479173,0.00458714,0.0255257,-0.0656769,-0.00590086,0.020701,0.900033,5,0.1,9,3.1,-0.994429,4.01848,0.600368,0.0843336,0.0323407,-0.00060685,0.638764,-0.0579059,-0.00337511,0.00692046,0.333679,5,0.1,10,3.1,0.609468,2.40917,0.59971,-0.180393,-0.0577126,0.000343844,0.176709,0.297055,-0.000342727,0.0130233,0.369375,5,0.1,11,3.1,-0.432634,0.737822,0.741886,0.237554,0.594688,0.00799978,-0.14507,-0.438754,-0.0079684,0.0309719,0.194849,5,0.1,12,3.1,-1.50609,-0.410787,0.665583,-0.110187,-0.24104,-0.000932906,0.491969,0.551112,-0.272457,0.00643825,0.590669,5,0.1,13,3.1,3.29905,2.58826,0.743332,-0.0151526,0.353424,0.00639223,-0.132427,-0.443742,-0.0064671,0.0100836,0.161991,5,0.1,14,3.1,4.27395,-1.17464,0.522565,-0.000548363,-0.866026,-0.00831578,0,0,0.000335276,0.0091873,2.27188,5,0.1,15,3.1,-1.29007,4.00222,0.603198,0.331222,-0.0752632,-0.00103135,-0.529215,-0.302628,0.0045076,0.00775722,2.15417,5,0.1,16,3.1,-0.638337,-3.48251,0.527309,-0.866026,-0.00929646,0.0103232,3.72529e-06,0.00183284,-0.000305474,0.00888809,2.27186,5,0.1,17,3.1,-0.36265,1.99743,0.699846,-0.185832,-0.306171,0.117385,0.692815,1.03331,-0.146743,0.0077849,0.706006,5,0.1,18,3.1,-3.51042,-0.904157,0.582667,0.169722,0.866026,0.00816174,-0.00917912,-3.72529e-06,-0.000447035,0.0120288,2.25333,5,0.1,19,3.1,3.20134,2.91018,0.743677,0.00800937,0.108496,0.00582729,-0.0298023,0.294358,-0.0103265,0.00630201,0.344495,5,0.1,20,3.1,-0.390261,1.66127,0.618744,-0.0714812,0.0381062,-0.00609215,-0.383336,-0.0962988,-0.0236779,0.00745936,2.10511,5,0.1,21,3.1,1.20055,-3.33267,0.5912,0.000428781,0.190683,0.000201911,0.0950843,0.347093,0.00588596,0.00882859,0.470706,5,0.1,22,3.1,1.21578,0.0585321,0.600297,-0.0217861,-0.00569415,0.00202032,0.683181,1.32989,0.0061132,0.00713925,0.399223,5,0.1,23,3.1,-0.433468,-1.12073,0.5,0.0508424,0.866025,3.72529e-06,0.0112094,1.49012e-05,1.49012e-05,0.0104159,2.27048,5,0.1,24,3.1,1.20298,1.3657,0.599711,-0.0160804,0.304728,0.000392925,-0.206672,-0.119939,-0.000614673,0.0189318,0.59675,5,0.1,25,3.1,1.63743,-0.0926771,0.652731,0.0445569,0.613338,0.00500008,-1.01837,1.41336,-0.0977963,0.0100602,2.32931,5,0.1,26,3.1,-1.35491,-4.27048,0.546903,-0.0193477,-0.202075,-0.00534337,0.0227094,0.237525,0.00630319,0.00769939,0.00430513,5,0.1,27,3.1,-0.121694,1.30591,0.597325,0.318328,0.0368983,0.00170786,0.332021,0.0775605,0.00135601,0.00944628,0.19193,5,0.1,28,3.1,3.42972,-0.458009,0.606106,0.00861473,0.866026,-0.00264524,-0.000461936,-3.57628e-06,0.000510365,0.0126123,2.27187,5,0.1,29,3.1,1.11879,3.74051,0.596841,-0.866025,0.221553,0.00225045,-1.49012e-05,-0.0401735,-0.000365078,0.0113979,1.80567,5,0.1
0,3.2,3.43575,2.32646,0.562391,-0.117427,0.374484,-0.00446737,-0.0112057,-0.270009,0.0116825,0.0128085,0.297075,5,0.1,1,3.2,-1.82555,-0.546397,0.913241,-0.187987,-0.0419021,0.181137,0.644863,1.21269,-0.0925362,0.0352076,3.47374,5,0.1,2,3.2,-1.70104,-3.20129,0.5,0.0464231,-0.00657439,0,-0.023663,-0.0172853,0.0272989,0.0110817,0.871631,5,0.1,3,3.2,1.14959,-0.200838,0.597873,0.0546187,-0.00111833,0.00232309,-0.0657439,0.0157952,-0.00372529,0.0097636,0.246421,5,0.1,4,3.2,-2.44226,-0.535272,0.695891,-0.745237,0.374086,-0.0686646,0.369191,-0.351876,-0.00673532,0.00841428,0.328073,5,0.1,5,3.2,-1.75051,-3.30119,0.852084,-0.0204653,0.182277,0.148433,-0.0600815,0.175834,-0.0644922,0.011924,0.663374,5,0.1,6,3.2,1.43166,-3.17859,0.623182,0.268272,0.150311,0.036402,0.166297,0.383139,0.0276566,0.00886877,0.192312,5,0.1,7,3.2,-3.06867,2.41354,0.597056,0.374317,-0.0260174,0.00564903,0.0038147,0.038147,-0.00825524,0.0168935,0.0698456,5,0.1,8,3.2,3.38504,1.89667,0.598068,-0.186712,0.480112,0.003995,0.0659227,0.0402927,-0.00599027,0.0196387,0.715166,5,0.1,9,3.2,-0.982687,4.02142,0.600288,0.150703,0.0264764,-0.00102967,0.651419,-0.0588894,-0.00470877,0.00513652,0.250221,5,0.1,10,3.2,0.592318,2.40477,0.599743,-0.162467,-0.031507,0.000308454,0.184566,0.221252,-0.000357628,0.0153675,0.356037,5,0.1,11,3.2,-0.409616,0.795042,0.742647,0.222518,0.54885,0.00721961,-0.162378,-0.490218,-0.00780821,0.0280278,0.130363,5,0.1,12,3.2,-1.51422,-0.431807,0.663902,-0.049144,-0.176868,-0.0342712,0.685453,0.701278,-0.36779,0.00869809,0.0889734,5,0.1,13,3.2,3.29683,2.62131,0.74394,-0.0295103,0.306869,0.00576526,-0.145674,-0.484824,-0.00625849,0.00868677,0.236541,5,0.1,14,3.2,4.2739,-1.26124,0.521736,-0.000536442,-0.866026,-0.00823736,0,0,0.00166893,0.00717111,2.27188,5,0.1,15,3.2,-1.25938,3.99319,0.603115,0.284362,-0.104731,-0.00063628,-0.421226,-0.272155,0.00345707,0.00913946,1.98811,5,0.1,16,3.2,-0.72494,-3.48342,0.528337,-0.866026,-0.00883937,0.0101954,0,0.00715256,-0.0026226,0.0105057,2.27185,5,0.1,17,3.2,-0.377857,1.97255,0.710872,-0.119451,-0.187203,0.103289,0.624985,1.28281,-0.137657,0.00943068,0.312368,5,0.1,18,3.2,-3.49352,-0.817555,0.58348,0.167865,0.866026,0.00807196,-0.0351667,0,-0.00172853,0.0121348,2.25416,5,0.1,19,3.2,3.20187,2.92281,0.744206,0.00162125,0.146317,0.00472069,-0.092268,0.422359,-0.0115633,0.00762909,0.267597,5,0.1,20,3.2,-0.4,1.66461,0.618027,-0.129659,0.028649,-0.00810921,-0.754848,-0.0915527,-0.0162423,0.00814155,1.8134,5,0.1,21,3.2,1.20113,-3.31206,0.591252,0.0114471,0.219184,0.000864267,0.11766,0.213504,0.00694394,0.00700551,0.281293,5,0.1,22,3.2,1.21675,0.0643156,0.600529,0.038451,0.117639,0.00259578,0.515521,1.10746,0.0050962,0.00821251,0.263626,5,0.1,23,3.2,-0.42834,-1.03413,0.500001,0.0515454,0.866024,4.47035e-06,0.000491738,2.98023e-05,-2.98023e-05,0.0120002,2.27048,5,0.1,24,3.2,1.2,1.39557,0.599748,-0.0466704,0.292325,0.000335276,-0.392258,-0.140071,-0.000566244,0.0184174,0.50159,5,0.1,25,3.2,1.63699,-0.0247962,0.652764,-0.0507087,0.737773,-0.00409037,-0.865281,1.02513,-0.0821054,0.0113256,1.77324,5,0.1,26,3.2,-1.35673,-4.28948,0.546401,-0.0170082,-0.177646,-0.00469685,0.0240803,0.252485,0.00670552,0.0067174,0.00129151,5,0.1,27,3.2,-0.0884529,1.30991,0.597501,0.343652,0.0423074,0.00180006,0.162274,0.031352,0.000506639,0.00854263,0.132044,5,0.1,28,3.2,3.43058,-0.371406,0.605844,0.0085175,0.866025,-0.00258535,-0.00166893,1.43051e-05,0.000804663,0.0148307,2.27187,5,0.1,29,3.2,1.03218,3.76242,0.597063,-0.866024,0.216019,0.00219643,-2.98023e-05,-0.0780821,-0.000745058,0.00933363,1.39313,5,0.1
