id,t,px,py,pz,vx,vy,vz,ax,ay,az,planning_time,qp_cost,planning_report,size,id,t,px,py,pz,vx,vy,vz,ax,ay,az,planning_time,qp_cost,planning_report,size,id,t,px,py,pz,vx,vy,vz,ax,ay,az,planning_time,qp_cost,planning_report,size,id,t,px,py,pz,vx,vy,vz,ax,ay,az,planning_time,qp_cost,planning_report,size,id,t,px,py,pz,vx,vy,vz,ax,ay,az,planning_time,qp_cost,planning_report,size,id,t,px,py,pz,vx,vy,vz,ax,ay,az,planning_time,qp_cost,planning_report,size,id,t,px,py,pz,vx,vy,vz,ax,ay,az,planning_time,qp_cost,planning_report,size,id,t,px,py,pz,vx,vy,vz,ax,ay,az,planning_time,qp_cost,planning_report,size,id,t,px,py,pz,vx,vy,vz,ax,ay,az,planning_time,qp_cost,planning_report,size,id,t,px,py,pz,vx,vy,vz,ax,ay,az,planning_time,qp_cost,planning_report,size,id,t,px,py,pz,vx,vy,vz,ax,ay,az,planning_time,qp_cost,planning_report,size,id,t,px,py,pz,vx,vy,vz,ax,ay,az,planning_time,qp_cost,planning_report,size,id,t,px,py,pz,vx,vy,vz,ax,ay,az,planning_time,qp_cost,planning_report,size,id,t,px,py,pz,vx,vy,vz,ax,ay,az,planning_time,qp_cost,planning_report,size,id,t,px,py,pz,vx,vy,vz,ax,ay,az,planning_time,qp_cost,planning_report,size,id,t,px,py,pz,vx,vy,vz,ax,ay,az,planning_time,qp_cost,planning_report,size,id,t,px,py,pz,vx,vy,vz,ax,ay,az,planning_time,qp_cost,planning_report,size,id,t,px,py,pz,vx,vy,vz,ax,ay,az,planning_time,qp_cost,planning_report,size,id,t,px,py,pz,vx,vy,vz,ax,ay,az,planning_time,qp_cost,planning_report,size,id,t,px,py,pz,vx,vy,vz,ax,ay,az,planning_time,qp_cost,planning_report,size,id,t,px,py,pz,vx,vy,vz,ax,ay,az,planning_time,qp_cost,planning_report,size,id,t,px,py,pz,vx,vy,vz,ax,ay,az,planning_time,qp_cost,planning_report,size,id,t,px,py,pz,vx,vy,vz,ax,ay,az,planning_time,qp_cost,planning_report,size,id,t,px,py,pz,vx,vy,vz,ax,ay,az,planning_time,qp_cost,planning_report,size,id,t,px,py,pz,vx,vy,vz,ax,ay,az,planning_time,qp_cost,planning_report,size,id,t,px,py,pz,vx,vy,vz,ax,ay,az,planning_time,qp_cost,planning_report,size,id,t,px,py,pz,vx,vy,vz,ax,ay,az,planning_time,qp_cost,planning_report,size,id,t,px,py,pz,vx,vy,vz,ax,ay,az,planning_time,qp_cost,planning_report,size,id,t,px,py,pz,vx,vy,vz,ax,ay,az,planning_time,qp_cost,planning_report,size,id,t,px,py,pz,vx,vy,vz,ax,ay,az,planning_time,qp_cost,planning_report,size
0,0,3.6811,-4.28437,0.596269,0,0,0,0,0,0,0.0176295,3.5122,5,0.1,1,0,-1.96223,4.12079,0.50768,0,0,0,0,0,0,0.0163179,3.5122,5,0.1,2,0,-0.566484,0.323869,0.680778,0,0,0,0,0,0,0.00966847,3.5122,5,0.1,3,0,2.32991,-1.75614,0.545611,0,0,0,0,0,0,0.0190551,3.5122,5,0.1,4,0,0.704896,3.24157,0.565716,0,0,0,0,0,0,0.0146566,1.20233,5,0.1,5,0,-2.38104,-4.17025,0.642675,0,0,0,0,0,0,0.0104629,1.38482,5,0.1,6,0,-1.01815,-1.15707,0.532964,0,0,0,0,0,0,0.00815323,3.5122,5,0.1,7,0,-1.58065,2.05595,0.676247,0,0,0,0,0,0,0.0099367,3.19864,5,0.1,8,0,1.6821,-2.88345,0.532975,0,0,0,0,0,0,0.0255416,3.5122,5,0.1,9,0,-3.26256,-4.26121,0.515201,0,0,0,0,0,0,0.0279239,3.37118,5,0.1,10,0,-2.96484,-0.574679,0.614454,0,0,0,0,0,0,0.0127468,1.67652,5,0.1,11,0,0.536407,3.90411,0.628513,0,0,0,0,0,0,0.0109222,3.5122,5,0.1,12,0,-4.14842,3.29875,0.556327,0,0,0,0,0,0,0.0193998,3.39509,5,0.1,13,0,0.0704513,2.73236,0.565448,0,0,0,0,0,0,0.00818104,3.51272,5,0.1,14,0,-0.117779,-0.839187,0.646104,0,0,0,0,0,0,0.0085624,0.649374,5,0.1,15,0,-0.952736,-0.240801,0.599891,0,0,0,0,0,0,0.00895841,3.51219,5,0.1,16,0,1.47274,-1.06633,0.67803,0,0,0,0,0,0,0.0257008,1.3689,5,0.1,17,0,4.10012,4.13958,0.519815,0,0,0,0,0,0,0.0128682,1.21445,5,0.1,18,0,0.702996,2.6063,0.5254,0,0,0,0,0,0,0.0119132,0.439293,5,0.1,19,0,-3.91538,0.382118,0.661024,0,0,0,0,0,0,0.00942942,2.41137,5,0.1,20,0,-0.728606,-2.85446,0.544849,0,0,0,0,0,0,0.00813976,3.51219,5,0.1,21,0,2.37102,3.62354,0.629411,0,0,0,0,0,0,0.0108328,3.5122,5,0.1,22,0,1.95667,-0.430287,0.585389,0,0,0,0,0,0,0.00958745,3.51219,5,0.1,23,0,2.13018,4.17663,0.565984,0,0,0,0,0,0,0.00880172,3.51942,5,0.1,24,0,-2.50143,3.51044,0.567081,0,0,0,0,0,0,0.0115591,3.5122,5,0.1,25,0,1.86397,-3.56528,0.574254,0,0,0,0,0,0,0.0223919,2.96872,5,0.1,26,0,3.80569,0.225356,0.597944,0,0,0,0,0,0,0.00753133,0.914022,5,0.1,27,0,0.463206,-3.5661,0.54271,0,0,0,0,0,0,0.0112707,0.576502,5,0.1,28,0,-3.49609,-1.58895,0.574737,0,0,0,0,0,0,0.00896234,2.52972,5,0.1,29,0,1.45695,0.150268,0.596036,0,0,0,0,0,0,0.0120961,0.450399,5,0.1
0,0.1,3.68103,-4.28228,0.596271,-0.00204742,0.0592344,3.29688e-05,-0.0363886,1.05301,0.000588596,0.0176295,3.5122,5,0.1,1,0.1,-1.96015,4.12059,0.507627,0.0589687,-0.00575483,-0.00150362,1.04834,-0.102341,-0.0267364,0.0163179,3.5122,5,0.1,2,0.1,-0.566959,0.321836,0.680726,-0.0134816,-0.0576956,-0.00147969,-0.239678,-1.0257,-0.026308,0.00966847,3.5122,5,0.1,3,0.1,2.32809,-1.75513,0.545649,-0.0518423,0.0287045,0.00107195,-0.921622,0.510305,0.0190586,0.0190551,3.5122,5,0.1,4,0.1,0.70463,3.24038,0.565752,-0.00755349,-0.0338286,0.00101598,-0.134286,-0.601411,0.0180639,0.0146566,1.20233,5,0.1,5,0.1,-2.38028,-4.16919,0.64263,0.0216637,0.030233,-0.00126474,0.38515,0.537515,-0.0224784,0.0104629,1.38482,5,0.1,6,0.1,-1.02018,-1.15659,0.533038,-0.0576684,0.0135168,0.00208048,-1.02522,0.240296,0.0369884,0.00815323,3.5122,5,0.1,7,0.1,-1.58072,2.05396,0.676324,-0.00205543,-0.056481,0.00218544,-0.0365302,-1.00411,0.0388548,0.0099367,3.19864,5,0.1,8,0.1,1.68175,-2.88139,0.533022,-0.00977106,0.0584412,0.00135833,-0.173718,1.03895,0.0241511,0.0255416,3.5122,5,0.1,9,0.1,-3.26088,-4.26005,0.515132,0.0477869,0.0329301,-0.00193203,0.84953,0.585377,-0.0343509,0.0279239,3.37118,5,0.1,10,0.1,-2.96347,-0.574236,0.614439,0.0389639,0.012585,-0.000428315,0.69271,0.223733,-0.00761077,0.0127468,1.67652,5,0.1,11,0.1,0.538451,3.90368,0.628486,0.0579995,-0.0121731,-0.000764243,1.0311,-0.21641,-0.0135899,0.0109222,3.5122,5,0.1,12,0.1,-4.1466,3.29781,0.556373,0.0518128,-0.0266336,0.00129407,0.92113,-0.473469,0.0230037,0.0193998,3.39509,5,0.1,13,0.1,0.0724533,2.73265,0.56546,0.0568339,0.00820458,0.000341423,1.01038,0.145853,0.00606477,0.00818104,3.51272,5,0.1,14,0.1,-0.117969,-0.838311,0.646056,-0.00539998,0.0248686,-0.00136644,-0.0959993,0.442106,-0.0242889,0.0085624,0.649374,5,0.1,15,0.1,-0.951037,-0.242015,0.599891,0.0482277,-0.0344502,2.04891e-06,0.857379,-0.612449,3.72529e-05,0.00895841,3.51219,5,0.1,16,0.1,1.47246,-1.06506,0.678106,-0.00808239,0.0360446,0.00213273,-0.143692,0.640802,0.037916,0.0257008,1.3689,5,0.1,17,0.1,4.09912,4.13886,0.519742,-0.028155,-0.0204355,-0.00206884,-0.50053,-0.36329,-0.0367761,0.0128682,1.21445,5,0.1,18,0.1,0.702732,2.60562,0.525478,-0.00749743,-0.0194494,0.00221077,-0.133287,-0.345752,0.0393018,0.0119132,0.439293,5,0.1,19,0.1,-3.91427,0.383441,0.660961,0.0315715,0.0375725,-0.00180844,0.561252,0.667958,-0.0321493,0.00942942,2.41137,5,0.1,20,0.1,-0.729638,-2.85265,0.544935,-0.0292905,0.0514667,0.00245739,-0.520721,0.914946,0.0436902,0.00813976,3.51219,5,0.1,21,0.1,2.36932,3.62232,0.629385,-0.0482082,-0.0344697,-0.000738166,-0.857025,-0.61278,-0.0131205,0.0108328,3.5122,5,0.1,22,0.1,1.95459,-0.430167,0.585402,-0.0591686,0.00341604,0.000383053,-1.0519,0.0607278,0.00680611,0.00958745,3.51219,5,0.1,23,0.1,2.13146,4.1753,0.566046,0.0364102,-0.0377178,0.00175731,0.647277,-0.670552,0.0312366,0.00880172,3.51942,5,0.1,24,0.1,-2.50007,3.50886,0.567109,0.0386622,-0.0449151,0.000794604,0.687316,-0.798494,0.0141263,0.0115591,3.5122,5,0.1,25,0.1,1.86344,-3.56344,0.574281,-0.0152312,0.0523128,0.000762939,-0.270784,0.929981,0.0135675,0.0223919,2.96872,5,0.1,26,0.1,3.80531,0.226347,0.598029,-0.0108369,0.0281224,0.00242125,-0.192672,0.499954,0.0430495,0.00753133,0.914022,5,0.1,27,0.1,0.462409,-3.56582,0.542769,-0.022617,0.00788532,0.00169771,-0.402082,0.140175,0.0301786,0.0112707,0.576502,5,0.1,28,0.1,-3.49432,-1.58901,0.574764,0.0502612,-0.00180956,0.000748783,0.893548,-0.0321642,0.0133067,0.00896234,2.52972,5,0.1,29,0.1,1.45637,0.149798,0.59604,-0.0165051,-0.0133433,0.000117626,-0.293426,-0.237214,0.00208989,0.0120961,0.450399,5,0.1
0,0.2,3.68061,-4.27025,0.596277,-0.00647306,0.187206,0.000104308,-0.0485182,1.40405,0.000804663,0.0159996,2.92579,5,0.1,1,0.2,-1.94817,4.11942,0.507322,0.186372,-0.0181913,-0.00475198,1.39779,-0.136375,-0.0356138,0.0183009,2.92587,5,0.1,2,0.2,-0.569698,0.310117,0.680425,-0.0426084,-0.182346,-0.00467598,-0.31957,-1.36761,-0.0350773,0.00829419,2.94992,5,0.1,3,0.2,2.31756,-1.74929,0.545867,-0.163853,0.0907183,0.00338852,-1.22869,0.680447,0.0254214,0.0143927,2.9258,5,0.1,4,0.2,0.703096,3.2335,0.565958,-0.0238732,-0.106919,0.0032112,-0.179052,-0.801802,0.0240803,0.013809,0.98646,5,0.1,5,0.2,-2.37588,-4.16305,0.642373,0.0684679,0.0955582,-0.00399649,0.513554,0.716686,-0.0299811,0.00851243,1.13617,5,0.1,6,0.2,-1.03189,-1.15384,0.53346,-0.182262,0.0427216,0.00657439,-1.36697,0.320375,0.0493526,0.0102009,2.92579,5,0.1,7,0.2,-1.58114,2.04249,0.676768,-0.00649691,-0.17851,0.00690818,-0.048697,-1.33872,0.0517964,0.0119737,2.62434,5,0.1,8,0.2,1.67977,-2.86952,0.533298,-0.0308812,0.184703,0.00429451,-0.231624,1.38533,0.0321567,0.0340224,2.92579,5,0.1,9,0.2,-3.25117,-4.25337,0.51474,0.151026,0.104082,-0.0061065,1.13285,0.780344,-0.0457764,0.0299749,2.76588,5,0.1,10,0.2,-2.95555,-0.571679,0.614352,0.123143,0.0397757,-0.00135303,0.923634,0.298291,-0.0101626,0.0143433,1.3755,5,0.1,11,0.2,0.550232,3.90121,0.628331,0.183308,-0.0384748,-0.00241548,1.37478,-0.288486,-0.0181198,0.0103065,2.9258,5,0.1,12,0.2,-4.13607,3.2924,0.556636,0.163758,-0.0841796,0.00409037,1.22809,-0.631213,0.0306964,0.0201113,2.78551,5,0.1,13,0.2,0.0839979,2.73431,0.56553,0.179623,0.025934,0.00107884,1.34718,0.194311,0.00807643,0.00719922,2.94853,5,0.1,14,0.2,-0.119066,-0.833259,0.645778,-0.0170667,0.0785977,-0.00431687,-0.127997,0.58946,-0.0324249,0.00994457,0.532779,5,0.1,15,0.2,-0.941241,-0.249013,0.599891,0.152424,-0.10888,5.96046e-06,1.14316,-0.816599,5.96046e-05,0.0127571,2.92579,5,0.1,16,0.2,1.47081,-1.05774,0.678539,-0.0255436,0.113919,0.0067398,-0.191569,0.854433,0.0505745,0.0250711,1.12311,5,0.1,17,0.2,4.09341,4.13471,0.519322,-0.0889897,-0.0645876,-0.00653863,-0.667334,-0.484228,-0.0490546,0.0136222,0.9964,5,0.1,18,0.2,0.701209,2.60167,0.525927,-0.0236958,-0.0614643,0.00698715,-0.177711,-0.461102,0.0524223,0.0110213,0.533613,5,0.1,19,0.2,-3.90785,0.391073,0.660593,0.0997841,0.118748,-0.0057146,0.748277,0.890613,-0.0428855,0.010953,1.97841,5,0.1,20,0.2,-0.735587,-2.84219,0.545435,-0.092572,0.162661,0.00776649,-0.694305,1.21987,0.0582635,0.00827489,2.9258,5,0.1,21,0.2,2.35953,3.61532,0.629235,-0.152367,-0.108939,-0.00233203,-1.14262,-0.81706,-0.017494,0.0128176,2.9258,5,0.1,22,0.2,1.94257,-0.429473,0.58548,-0.187001,0.0107966,0.00121146,-1.40256,0.080958,0.00905991,0.0108684,2.92579,5,0.1,23,0.2,2.13886,4.16764,0.566403,0.115067,-0.119209,0.00555217,0.863194,-0.89407,0.0416934,0.0101178,2.97816,5,0.1,24,0.2,-2.49222,3.49973,0.56727,0.12219,-0.141954,0.00251234,0.916481,-1.06454,0.0188053,0.0142576,2.9258,5,0.1,25,0.2,1.86034,-3.55281,0.574436,-0.0481397,0.165337,0.00241101,-0.360966,1.2399,0.01809,0.0223939,2.43569,5,0.1,26,0.2,3.80311,0.232059,0.598521,-0.0342488,0.0888806,0.00765324,-0.256777,0.666603,0.0573695,0.00738711,0.749911,5,0.1,27,0.2,0.457815,-3.56422,0.543114,-0.0714801,0.0249267,0.00536591,-0.536129,0.186801,0.0402331,0.0119331,0.472992,5,0.1,28,0.2,-3.48411,-1.58938,0.574916,0.158858,-0.00571609,0.0023663,1.19126,-0.0429749,0.0177324,0.00889213,2.11283,5,0.1,29,0.2,1.45302,0.147088,0.596064,-0.052163,-0.0421714,0.000371039,-0.391245,-0.316285,0.00280142,0.0102396,0.36953,5,0.1
0,0.3,3.67969,-4.24372,0.596292,-0.0120543,0.348684,0.000196043,-0.0596344,1.72555,0.000972301,0.0159996,2.92579,5,0.1,1,0.3,-1.92176,4.11682,0.506679,0.347084,-0.0344343,-0.00798451,1.71703,-0.177532,-0.0284202,0.0183009,2.92587,5,0.1,2,0.3,-0.57561,0.284723,0.67978,-0.0757854,-0.326956,-0.00820458,-0.329167,-1.45538,-0.0341237,0.00829419,2.94992,5,0.1,3,0.3,2.29434,-1.73644,0.546347,-0.30517,0.168974,0.00631204,-1.51014,0.836223,0.0312366,0.0143927,2.9258,5,0.1,4,0.3,0.699715,3.21836,0.566413,-0.0444125,-0.198897,0.0059736,-0.219099,-0.981182,0.0294633,0.013809,0.98646,5,0.1,5,0.3,-2.36618,-4.14951,0.641807,0.127377,0.177769,-0.0074354,0.628382,0.876963,-0.0366829,0.00851243,1.13617,5,0.1,6,0.3,-1.05772,-1.14779,0.534392,-0.339476,0.0795687,0.0122491,-1.67997,0.393741,0.0606328,0.0102009,2.92579,5,0.1,7,0.3,-1.58206,2.01721,0.677747,-0.0120834,-0.33208,0.01285,-0.0596046,-1.63821,0.0633895,0.0119737,2.62434,5,0.1,8,0.3,1.67539,-2.84334,0.533907,-0.0575198,0.344026,0.00799447,-0.284649,1.7025,0.0395477,0.0340224,2.92579,5,0.1,9,0.3,-3.22978,-4.23863,0.513875,0.280973,0.193603,-0.0113584,1.38617,0.954986,-0.0560284,0.0299749,2.76588,5,0.1,10,0.3,-2.93811,-0.566046,0.61416,0.229093,0.0739937,-0.00251858,1.13022,0.365023,-0.0124313,0.0143433,1.3755,5,0.1,11,0.3,0.576208,3.89576,0.627989,0.341421,-0.0716556,-0.00449941,1.68959,-0.354603,-0.0222698,0.0103065,2.9258,5,0.1,12,0.3,-4.11288,3.28048,0.557215,0.304636,-0.156591,0.00761095,1.50281,-0.772461,0.0375509,0.0201113,2.78551,5,0.1,13,0.3,0.109254,2.73808,0.565686,0.328944,0.0508435,0.00211308,1.5558,0.284344,0.011798,0.00719922,2.94853,5,0.1,14,0.3,-0.121483,-0.822127,0.645167,-0.0317494,0.146216,-0.00803508,-0.156629,0.721321,-0.039652,0.00994457,0.532779,5,0.1,15,0.3,-0.919641,-0.264442,0.599892,0.283898,-0.202796,1.22935e-05,1.40492,-1.00358,6.70552e-05,0.0127571,2.92579,5,0.1,16,0.3,1.4672,-1.0416,0.679494,-0.0475194,0.211931,0.0125407,-0.234425,1.04553,0.0618733,0.0250711,1.12311,5,0.1,17,0.3,4.0808,4.12557,0.518396,-0.165542,-0.12014,-0.0121653,-0.816613,-0.592679,-0.0600144,0.0136222,0.9964,5,0.1,18,0.3,0.697853,2.5928,0.526916,-0.0440813,-0.1188,0.0129997,-0.217464,-0.643194,0.0641309,0.0110213,0.533613,5,0.1,19,0.3,-3.89372,0.407892,0.659784,0.185623,0.220911,-0.0106333,0.915691,1.08982,-0.052467,0.010953,1.97841,5,0.1,20,0.3,-0.748706,-2.81914,0.546535,-0.172423,0.302959,0.0144668,-0.85327,1.49924,0.0715926,0.00827489,2.9258,5,0.1,21,0.3,2.33794,3.59988,0.628905,-0.283782,-0.202909,-0.00434397,-1.40432,-1.00414,-0.0214987,0.0128176,2.9258,5,0.1,22,0.3,1.91607,-0.427943,0.585652,-0.348306,0.020108,0.00225427,-1.72368,0.0995062,0.0111498,0.0108684,2.92579,5,0.1,23,0.3,2.15527,4.15051,0.567197,0.217205,-0.228658,0.0105351,1.11175,-1.21653,0.054583,0.0101178,2.97816,5,0.1,24,0.3,-2.4749,3.47962,0.567626,0.227592,-0.26439,0.00467626,1.1263,-1.30837,0.0231303,0.0142576,2.9258,5,0.1,25,0.3,1.85353,-3.52939,0.574778,-0.0895489,0.30757,0.00448609,-0.44176,1.5173,0.0221319,0.0223939,2.43569,5,0.1,26,0.3,3.79826,0.244647,0.599605,-0.0637077,0.165347,0.014235,-0.314265,0.815709,0.070218,0.00738711,0.749911,5,0.1,27,0.3,0.447691,-3.56069,0.543874,-0.132979,0.0463583,0.00998136,-0.656035,0.228643,0.0492409,0.0119331,0.472992,5,0.1,28,0.3,-3.4622,-1.59019,0.575251,0.278609,-0.010643,0.00440087,1.15791,-0.052534,0.0217035,0.00889213,2.11283,5,0.1,29,0.3,1.44563,0.141115,0.596117,-0.0970425,-0.0784528,0.000691786,-0.478752,-0.387033,0.00341237,0.0102396,0.36953,5,0.1
0,0.4,3.67819,-4.20037,0.596317,-0.0178039,0.514936,0.000289083,-0.0526905,1.52564,0.00089407,0.0173195,2.51553,5,0.1,1,0.4,-1.87861,4.1125,0.505755,0.512496,-0.0517845,-0.0103354,1.51777,-0.161648,-0.018239,0.0177452,2.51469,5,0.1,2,0.4,-0.58475,0.245074,0.6788,-0.105898,-0.461504,-0.0112668,-0.262499,-1.18558,-0.0261068,0.00883537,2.65065,5,0.1,3,0.4,2.2564,-1.71543,0.547132,-0.450671,0.249541,0.00932217,-1.33514,0.739396,0.027597,0.0139078,2.5101,5,0.1,4,0.4,0.694198,3.19365,0.567155,-0.0654981,-0.293332,0.00880957,-0.193298,-0.865459,0.0259876,0.0104392,3.16521,5,0.1,5,0.4,-2.35035,-4.12743,0.640884,0.18785,0.262165,-0.0109658,0.554442,0.773907,-0.0323653,0.00897209,0.898946,5,0.1,6,0.4,-1.09993,-1.1379,0.535915,-0.501338,0.117505,0.01809,-1.48541,0.34821,0.0536144,0.00898228,2.51128,5,0.1,7,0.4,-1.58356,1.97595,0.679343,-0.0178188,-0.489742,0.0189498,-0.0526309,-1.44529,0.0559688,0.0108492,2.07641,5,0.1,8,0.4,1.66824,-2.80057,0.5349,-0.0849456,0.508058,0.0118047,-0.251651,1.50526,0.0350177,0.0302574,2.513,5,0.1,9,0.4,-3.19487,-4.21457,0.512464,0.414371,0.285518,-0.0167504,1.22297,0.842571,-0.0494421,0.0328018,2.1887,5,0.1,10,0.4,-2.90965,-0.556854,0.613847,0.337857,0.109123,-0.00371337,0.997186,0.322074,-0.0109971,0.0155874,1.08831,5,0.1,11,0.4,0.618655,3.88685,0.627429,0.504209,-0.105816,-0.00664443,1.49393,-0.31364,-0.0196993,0.0143889,2.51193,5,0.1,12,0.4,-4.07503,3.26102,0.558161,0.449264,-0.230932,0.0112236,1.32608,-0.68152,0.0331402,0.023944,2.20393,5,0.1,13,0.4,0.149707,2.7446,0.565957,0.476328,0.0793874,0.00329614,1.33076,0.271797,0.0112951,0.0122866,2.74273,5,0.1,14,0.4,-0.125427,-0.803963,0.644169,-0.0468232,0.215635,-0.0118509,-0.138178,0.636399,-0.0349581,0.0104945,0.421541,5,0.1,15,0.4,-0.884346,-0.289654,0.599894,0.419259,-0.299488,1.93715e-05,1.24222,-0.887364,2.98023e-05,0.0135605,2.56628,5,0.1,16,0.4,1.46129,-1.01528,0.681051,-0.0700802,0.312552,0.0184938,-0.206828,0.922352,0.0546277,0.0349305,0.889772,5,0.1,17,0.4,4.06024,4.11064,0.516885,-0.244141,-0.177169,-0.017941,-0.720263,-0.52309,-0.0529587,0.016666,0.788445,5,0.1,18,0.4,0.692377,2.5777,0.528531,-0.0650108,-0.1827,0.0191718,-0.191808,-0.60308,0.0565946,0.0140633,0.440808,5,0.1,19,0.4,-3.87066,0.435335,0.658463,0.273752,0.325794,-0.015682,0.807762,0.961483,-0.046283,0.0094128,1.80017,5,0.1,20,0.4,-0.770142,-2.78148,0.548334,-0.254634,0.44741,0.0213638,-0.754446,1.32549,0.0633299,0.00896853,2.51009,5,0.1,21,0.4,2.30266,3.57466,0.628365,-0.419086,-0.29965,-0.00641495,-1.24168,-0.88799,-0.0190437,0.0115813,2.51008,5,0.1,22,0.4,1.87277,-0.425443,0.585932,-0.514376,0.029695,0.00332743,-1.52409,0.0879914,0.00989437,0.00813504,2.5153,5,0.1,23,0.4,2.1825,4.12156,0.568522,0.325602,-0.34883,0.0158772,1.00589,-1.12844,0.0497699,0.00811207,2.55369,5,0.1,24,0.4,-2.44661,3.44675,0.568207,0.336111,-0.390446,0.0069052,0.995755,-1.15693,0.0204742,0.0122816,2.51008,5,0.1,25,0.4,1.8424,-3.49118,0.575335,-0.132063,0.453591,0.00661612,-0.389755,1.33872,0.0195205,0.0220815,1.92715,5,0.1,26,0.4,3.79034,0.265188,0.601373,-0.0939548,0.24385,0.0209928,-0.277281,0.719637,0.061959,0.0109202,0.593339,5,0.1,27,0.4,0.431171,-3.55493,0.545114,-0.196115,0.0683665,0.0147194,-0.578761,0.201702,0.0434816,0.00937296,0.447712,5,0.1,28,0.4,-3.42892,-1.59151,0.575797,0.382608,-0.0156969,0.00648946,0.889421,-0.0463128,0.0191629,0.010594,1.95059,5,0.1,29,0.4,1.43358,0.131369,0.596203,-0.143114,-0.1157,0.00102073,-0.422418,-0.341457,0.00301003,0.010415,0.292376,5,0.1
0,0.5,3.67614,-4.14127,0.59635,-0.0232279,0.665139,0.000379886,-0.0529885,1.41037,0.000875443,0.0173195,2.51553,5,0.1,1,0.5,-1.81977,4.10648,0.504659,0.662562,-0.0685833,-0.0112968,1.41466,-0.165552,-0.00187755,0.0177452,2.51469,5,0.1,2,0.5,-0.596887,0.193291,0.677558,-0.138499,-0.570256,-0.0134114,-0.362471,-0.953575,-0.016503,0.00883537,2.65065,5,0.1,3,0.5,2.20446,-1.68668,0.548206,-0.588066,0.325626,0.0121623,-1.3421,0.743173,0.027746,0.0139078,2.5101,5,0.1,4,0.5,0.687176,3.16036,0.568171,-0.070555,-0.368599,0.0115186,0.0694282,-0.624657,0.0267401,0.0104392,3.16521,5,0.1,5,0.5,-2.32875,-4.09727,0.639622,0.244102,0.34068,-0.0142496,0.542998,0.757903,-0.0316948,0.00897209,0.898946,5,0.1,6,0.5,-1.15759,-1.12436,0.538,-0.650999,0.153335,0.0236061,-1.43518,0.349976,0.0538789,0.00898228,2.51128,5,0.1,7,0.5,-1.58561,1.91962,0.681523,-0.0231581,-0.636383,0.0246276,-0.0515357,-1.41559,0.0548027,0.0108492,2.07641,5,0.1,8,0.5,1.65845,-2.7422,0.536261,-0.110842,0.657984,0.0154077,-0.252962,1.4229,0.0351928,0.0302574,2.513,5,0.1,9,0.5,-3.14721,-4.18173,0.51059,0.538451,0.371009,-0.0202786,1.19774,0.825286,-0.0219643,0.0328018,2.1887,5,0.1,10,0.5,-2.87079,-0.544302,0.61342,0.439029,0.1418,-0.00482835,0.976622,0.315435,-0.0107586,0.0155874,1.08831,5,0.1,11,0.5,0.67662,3.87466,0.626664,0.653986,-0.138089,-0.00867127,1.42993,-0.315219,-0.0197999,0.0143889,2.51193,5,0.1,12,0.5,-4.02336,3.23446,0.559452,0.583804,-0.300081,0.0145853,1.29876,-0.667527,0.0324436,0.023944,2.20393,5,0.1,13,0.5,0.203358,2.7531,0.566339,0.589815,0.0836551,0.00428483,0.919531,-0.147641,0.0082925,0.0122866,2.74273,5,0.1,14,0.5,-0.130813,-0.77916,0.642806,-0.0608429,0.280203,-0.0153975,-0.135337,0.623301,-0.0342391,0.0104945,0.421541,5,0.1,15,0.5,-0.836711,-0.323945,0.599855,0.527826,-0.384512,-0.00114869,0.906177,-0.780124,-0.0207871,0.0135605,2.56628,5,0.1,16,0.5,1.45321,-0.979423,0.683186,-0.0917865,0.403348,0.0242221,-0.215404,0.853855,0.056807,0.0349305,0.889772,5,0.1,17,0.5,4.03216,4.09026,0.514847,-0.317224,-0.230239,-0.0225789,-0.70551,-0.512272,-0.0387989,0.016666,0.788445,5,0.1,18,0.5,0.684899,2.55666,0.530737,-0.0844727,-0.235204,0.0249133,-0.187878,-0.437185,0.0554174,0.0140633,0.440808,5,0.1,19,0.5,-3.83902,0.47281,0.656659,0.360156,0.423345,-0.0203776,0.870243,0.941694,-0.0453256,0.0094128,1.80017,5,0.1,20,0.5,-0.799485,-2.72992,0.550796,-0.332269,0.583811,0.0278797,-0.758324,1.33236,0.0636354,0.00896853,2.51009,5,0.1,21,0.5,2.25436,3.54013,0.627625,-0.546861,-0.391024,-0.00837389,-1.24809,-0.89249,-0.0191256,0.0115813,2.51008,5,0.1,22,0.5,1.81372,-0.422021,0.586316,-0.664563,0.0387496,0.00434499,-1.41139,0.0884421,0.00993162,0.00813504,2.5153,5,0.1,23,0.5,2.22026,4.08081,0.570367,0.42989,-0.466889,0.0210514,1.02548,-1.1701,0.0510067,0.00811207,2.55369,5,0.1,24,0.5,-2.40788,3.40175,0.569003,0.438578,-0.509498,0.00901222,1.0009,-1.16286,0.0205785,0.0122816,2.51008,5,0.1,25,0.5,1.82721,-3.43901,0.576096,-0.171608,0.589417,0.00859657,-0.381738,1.31117,0.0191219,0.0220815,1.92715,5,0.1,26,0.5,3.77954,0.293237,0.603788,-0.122089,0.316864,0.0272795,-0.271603,0.704834,0.0606887,0.0109202,0.593339,5,0.1,27,0.5,0.408613,-3.54691,0.546807,-0.254836,0.0932787,0.0191304,-0.566849,0.27661,0.0425763,0.00937296,0.447712,5,0.1,28,0.5,-3.38738,-1.59331,0.576544,0.437476,-0.020395,0.0084335,0.250712,-0.0453517,0.018768,0.010594,1.95059,5,0.1,29,0.5,1.41711,0.11806,0.59632,-0.185971,-0.150344,0.00132583,-0.413701,-0.334429,0.00294298,0.010415,0.292376,5,0.1
0,0.6,3.67357,-4.06834,0.596392,-0.0279188,0.785792,0.000457466,-0.0391006,0.95892,0.000655651,0.0162554,2.33444,5,0.1,1,0.6,-1.74707,4.09885,0.503541,0.784031,-0.083375,-0.0108793,0.969708,-0.124454,0.00947714,0.0176304,2.32965,5,0.1,2,0.6,-0.612531,0.132121,0.676152,-0.173691,-0.646305,-0.0145286,-0.321358,-0.544173,-0.00572205,0.0088129,2.38707,5,0.1,3,0.6,2.13941,-1.65065,0.549551,-0.707024,0.391495,0.0146225,-0.986934,0.546515,0.0203848,0.0137225,2.22918,5,0.1,4,0.6,0.680747,3.12087,0.569448,-0.0557229,-0.415885,0.0139087,0.208795,-0.312328,0.0199974,0.0100814,3.35101,5,0.1,5,0.6,-2.30183,-4.0597,0.638051,0.291753,0.407195,-0.0170305,0.39053,0.545025,-0.0228286,0.00830058,0.669226,5,0.1,6,0.6,-1.22929,-1.10739,0.540611,-0.77616,0.184357,0.0283808,-1.01858,0.257313,0.0396073,0.00928227,2.30926,5,0.1,7,0.6,-1.58816,1.84944,0.684239,-0.0276804,-0.760609,0.0294372,-0.0370741,-1.01829,0.0393987,0.0102727,2.34178,5,0.1,8,0.6,1.64619,-2.66989,0.537966,-0.133261,0.780922,0.0185266,-0.186086,0.98896,0.0258684,0.0279321,2.32133,5,0.1,9,0.6,-3.08783,-4.14082,0.508492,0.643557,0.443435,-0.0213131,0.861645,0.593662,0.000447035,0.0270361,1.62999,5,0.1,10,0.6,-2.82237,-0.528664,0.612887,0.524735,0.16948,-0.00577122,0.7025,0.226945,-0.0077486,0.0152732,0.810212,5,0.1,11,0.6,0.748584,3.85938,0.625704,0.778197,-0.166029,-0.0104263,1.00592,-0.231743,-0.0145435,0.011201,2.29767,5,0.1,12,0.6,-3.95897,3.20137,0.56106,0.697774,-0.358653,0.0174329,0.934243,-0.480413,0.0233352,0.0195934,1.64115,5,0.1,13,0.6,0.26613,2.7603,0.566802,0.657281,0.0568509,0.00492483,0.419722,-0.357151,0.00435114,0.0110496,2.72177,5,0.1,14,0.6,-0.137523,-0.748258,0.641107,-0.0727195,0.334901,-0.0184014,-0.0973567,0.448376,-0.0246465,0.010587,0.313826,5,0.1,15,0.6,-0.780104,-0.365898,0.599619,0.596879,-0.449979,-0.00367612,0.461638,-0.506878,-0.027746,0.0153186,2.44328,5,0.1,16,0.6,1.44302,-0.935199,0.685874,-0.111121,0.476606,0.0293195,-0.16284,0.583857,0.0429153,0.0335102,0.719216,5,0.1,17,0.6,3.99717,4.06487,0.512425,-0.379139,-0.275195,-0.0255436,-0.507593,-0.368595,-0.0198483,0.0162695,0.587547,5,0.1,18,0.6,0.675584,2.53129,0.533484,-0.10096,-0.268608,0.029777,-0.135183,-0.225544,0.0398457,0.0148318,0.410909,5,0.1,19,0.6,-3.79889,0.519498,0.654412,0.439191,0.505984,-0.0243545,0.674605,0.677437,-0.0326335,0.0119877,1.35545,5,0.1,20,0.6,-0.83624,-2.66534,0.55388,-0.399481,0.701904,0.0335202,-0.557661,0.979781,0.0467896,0.0112579,2.16599,5,0.1,21,0.6,2.19387,3.49687,0.626699,-0.657481,-0.470126,-0.0100687,-0.917912,-0.656247,-0.0140965,0.0129488,2.21915,5,0.1,22,0.6,1.74085,-0.417735,0.586796,-0.785407,0.0465892,0.00522584,-0.961185,0.0650287,0.00730157,0.00910519,2.3474,5,0.1,23,0.6,2.26804,4.02863,0.572711,0.521404,-0.572109,0.0256136,0.766039,-0.88954,0.038296,0.0122098,0.931615,5,0.1,24,0.6,-2.35936,3.34539,0.57,0.527292,-0.612563,0.0108361,0.735998,-0.855207,0.0151396,0.0143873,2.21916,5,0.1,25,0.6,1.80829,-3.37401,0.577044,-0.205109,0.704479,0.0102744,-0.274599,0.943184,0.0137687,0.0273607,1.43592,5,0.1,26,0.6,3.76607,0.328182,0.606796,-0.145924,0.378717,0.0326052,-0.195265,0.507027,0.0436604,0.0104472,0.441728,5,0.1,27,0.6,0.380509,-3.53621,0.548917,-0.30458,0.120223,0.0228658,-0.407755,0.247478,0.0306368,0.0134105,0.33825,5,0.1,28,0.6,-3.34315,-1.59556,0.577474,0.440359,-0.0243753,0.0100806,-0.15974,-0.0326037,0.0135303,0.0127784,1.77281,5,0.1,29,0.6,1.3966,0.10148,0.596466,-0.222275,-0.179692,0.00158548,-0.297606,-0.240579,0.00208616,0.00939619,0.217665,5,0.1
0,0.7,3.67058,-3.98603,0.596441,-0.0318415,0.850474,0.000522379,-0.0368953,0.362024,0.000599772,0.0162554,2.33444,5,0.1,1,0.7,-1.66488,4.08988,0.502515,0.849858,-0.0959076,-0.0095238,0.372536,-0.118524,0.0168718,0.0176304,2.32965,5,0.1,2,0.7,-0.631684,0.0644542,0.67466,-0.210412,-0.708586,-0.0153788,-0.385188,-0.639148,-0.00986829,0.0088129,2.38707,5,0.1,3,0.7,2.06408,-1.60874,0.551117,-0.795433,0.446355,0.0166694,-0.74254,0.516072,0.0192598,0.0137225,2.22918,5,0.1,4,0.7,0.676338,3.07851,0.570952,-0.0315579,-0.424066,0.0162628,0.262827,0.12511,0.0250675,0.0100814,3.35101,5,0.1,5,0.7,-2.27073,-4.0163,0.636236,0.329246,0.459519,-0.0192217,0.337884,0.471547,-0.0197478,0.00830058,0.669226,5,0.1,6,0.7,-1.31096,-1.08766,0.54365,-0.847128,0.210183,0.0323559,-0.419348,0.242919,0.0373907,0.00928227,2.30926,5,0.1,7,0.7,-1.5911,1.76914,0.687361,-0.030816,-0.836639,0.0327693,-0.0245422,-0.501968,0.0260845,0.0102727,2.34178,5,0.1,8,0.7,1.63192,-2.58791,0.539949,-0.151936,0.848778,0.0211229,-0.17564,0.391006,0.0244193,0.0279321,2.32133,5,0.1,9,0.7,-3.01924,-4.09356,0.506401,0.726276,0.500431,-0.0201629,0.74546,0.513703,0.0209846,0.0270361,1.62999,5,0.1,10,0.7,-2.76645,-0.5106,0.612272,0.592177,0.191267,-0.00651432,0.607789,0.19634,-0.00669435,0.0152732,0.810212,5,0.1,11,0.7,0.830387,3.8416,0.624588,0.847832,-0.18925,-0.0118836,0.407238,-0.218108,-0.0136904,0.011201,2.29767,5,0.1,12,0.7,-3.88467,3.16314,0.562918,0.78549,-0.404771,0.019673,0.772968,-0.415623,0.0201873,0.0195934,1.64115,5,0.1,13,0.7,0.333527,2.76372,0.567309,0.686061,0.00781901,0.00513894,0.143938,-0.584766,7.07805e-05,0.0110496,2.72177,5,0.1,14,0.7,-0.145273,-0.712565,0.639146,-0.0820662,0.377946,-0.0207673,-0.0842344,0.387933,-0.0213198,0.010587,0.313826,5,0.1,15,0.7,-0.718713,-0.413757,0.599079,0.624898,-0.509094,-0.00738055,0.0989735,-0.621365,-0.0432283,0.0153186,2.44328,5,0.1,16,0.7,1.43127,-0.885275,0.689078,-0.122055,0.515429,0.0351711,-0.0578016,0.197142,0.0680275,0.0335102,0.719216,5,0.1,17,0.7,3.95676,4.03554,0.509825,-0.427872,-0.31058,-0.0259497,-0.439212,-0.318855,0.00993535,0.0162695,0.587547,5,0.1,18,0.7,0.664823,2.50389,0.536658,-0.113938,-0.274057,0.0336022,-0.116963,0.0971407,0.0344776,0.0148318,0.410909,5,0.1,19,0.7,-3.75158,0.573425,0.651816,0.505927,0.57102,-0.027487,0.621453,0.586111,-0.0282265,0.0119877,1.35545,5,0.1,20,0.7,-0.879002,-2.5905,0.557468,-0.455125,0.791319,0.0381886,-0.520654,0.765696,0.043679,0.0112579,2.16599,5,0.1,21,0.7,2.12347,3.44653,0.625621,-0.749622,-0.536001,-0.0114826,-0.866801,-0.61968,-0.0132918,0.0129488,2.21915,5,0.1,22,0.7,1.65857,-0.412746,0.587356,-0.850084,0.0531145,0.00595832,-0.364326,0.0613667,0.00688806,0.00910519,2.3474,5,0.1,23,0.7,2.32309,3.96738,0.575427,0.570657,-0.647952,0.028333,0.233099,-0.603616,0.016246,0.0122098,0.931615,5,0.1,24,0.7,-2.3029,3.2798,0.57116,0.601176,-0.69841,0.012356,0.695065,-0.807568,0.0142977,0.0143873,2.21916,5,0.1,25,0.7,1.78642,-3.29904,0.578139,-0.231471,0.791579,0.0115959,-0.237592,0.754297,0.011906,0.0273607,1.43592,5,0.1,26,0.7,3.75052,0.368545,0.610271,-0.164673,0.427394,0.036797,-0.168979,0.438681,0.0377782,0.0104472,0.441728,5,0.1,27,0.7,0.348047,-3.5229,0.551354,-0.343727,0.145955,0.0258065,-0.352792,0.251934,0.026498,0.0134105,0.33825,5,0.1,28,0.7,-3.30069,-1.59816,0.578549,0.403251,-0.0275053,0.011379,-0.504106,-0.0282079,0.0117011,0.0127784,1.77281,5,0.1,29,0.7,1.37292,0.0823285,0.596635,-0.250845,-0.202788,0.00178609,-0.257462,-0.208147,0.00181049,0.00939619,0.217665,5,0.1
0,0.8,3.66724,-3.8999,0.596496,-0.0348747,0.866026,0.000572205,-0.0221729,0,0.000327826,0.0247444,2.27098,5,0.1,1,0.8,-1.57877,4.07976,0.501654,0.866026,-0.105762,-0.0076443,0,-0.0731945,0.0201166,0.0233179,2.2639,5,0.1,2,0.8,-0.654568,-0.0093375,0.673076,-0.24592,-0.763468,-0.0162572,-0.304788,-0.414113,-0.00670552,0.00824838,1.8578,5,0.1,3,0.8,1.98147,-1.5618,0.552869,-0.849766,0.488856,0.0182554,-0.325203,0.309885,0.0115931,0.0169749,2.11308,5,0.1,4,0.8,0.674506,3.03729,0.572699,-0.00521094,-0.395316,0.0185743,0.255227,0.429153,0.0196993,0.00879007,0.607082,5,0.1,5,0.8,-2.23635,-3.96832,0.634228,0.355732,0.496489,-0.0207692,0.177622,0.247598,-0.0103712,0.0104169,0.47251,5,0.1,6,0.8,-1.39697,-1.06556,0.547052,-0.866026,0.230187,0.035435,0,0.145853,0.0224113,0.0117161,2.23071,5,0.1,7,0.8,-1.59427,1.68377,0.690738,-0.032416,-0.863299,0.0344694,-0.00679493,-0.0545382,0.00721216,0.0128661,2.38639,5,0.1,8,0.8,1.61595,-2.50184,0.54217,-0.166395,0.866026,0.0231326,-0.105441,0,0.0146925,0.0318506,2.26042,5,0.1,9,0.8,-2.94339,-4.0413,0.504512,0.784719,0.540709,-0.0174046,0.391483,0.269651,0.032872,0.0340617,1.1523,5,0.1,10,0.8,-2.7046,-0.490626,0.611592,0.639832,0.20666,-0.00703931,0.319004,0.103116,-0.00351667,0.0235982,0.572051,5,0.1,11,0.8,0.916421,3.82171,0.623339,0.866026,-0.20718,-0.0130102,0,-0.130534,-0.00816584,0.0140589,1.77129,5,0.1,12,0.8,-3.80284,3.12087,0.564973,0.844616,-0.437355,0.021255,0.378847,-0.218272,0.0106096,0.0227642,1.17478,5,0.1,13,0.8,0.402321,2.76147,0.567817,0.684332,-0.0532687,0.00496805,-0.183971,-0.607491,-0.00336766,0.0116465,2.61478,5,0.1,14,0.8,-0.153844,-0.673095,0.636977,-0.0886705,0.40836,-0.0224382,-0.0442341,0.203729,-0.0112057,0.0114,0.221579,5,0.1,15,0.8,-0.656321,-0.467598,0.598121,0.617085,-0.564954,-0.0117749,-0.251323,-0.456915,-0.0423491,0.014356,2.30533,5,0.1,16,0.8,1.41894,-0.83335,0.692936,-0.123113,0.517182,0.0418648,0.0342727,-0.155121,0.061363,0.0347677,0.584468,5,0.1,17,0.8,3.91208,4.0031,0.507317,-0.462312,-0.33558,-0.023891,-0.230551,-0.16737,0.0296831,0.0179371,0.415501,5,0.1,18,0.8,0.652925,2.47737,0.540167,-0.123109,-0.252795,0.0363037,-0.0614226,0.311255,0.0181198,0.00929533,0.438614,5,0.1,19,0.8,-3.69823,0.633058,0.648945,0.556958,0.616974,-0.0296995,0.372291,0.307739,-0.0148118,0.011046,0.96689,5,0.1,20,0.8,-0.926825,-2.50817,0.561481,-0.49777,0.848407,0.0417665,-0.308305,0.352383,0.0258684,0.010721,1.60566,5,0.1,21,0.8,2.04465,3.39017,0.624413,-0.821006,-0.587034,-0.0125766,-0.520587,-0.372291,-0.00798702,0.0137036,1.95866,5,0.1,22,0.8,1.57246,-0.407162,0.587982,-0.866026,0.0581667,0.00652522,0,0.0368208,0.00414252,0.00966129,2.21941,5,0.1,23,0.8,2.38054,3.9002,0.578306,0.570935,-0.689077,0.0289097,-0.212789,-0.204921,-0.00441074,0.0101012,0.676065,5,0.1,24,0.8,-2.23969,3.20637,0.57246,0.658417,-0.764912,0.0135332,0.417352,-0.485182,0.00858307,0.0140249,2.04192,5,0.1,25,0.8,1.76225,-3.21672,0.57935,-0.250098,0.848126,0.0125289,-0.124812,0.349045,0.00628829,0.0271235,1.03397,5,0.1,26,0.8,3.73332,0.413179,0.614114,-0.17792,0.461788,0.0397578,-0.0888109,0.230357,0.0198781,0.0112936,0.311888,5,0.1,27,0.8,0.312151,-3.50714,0.554049,-0.371387,0.168002,0.0278845,-0.185236,0.178456,0.0138879,0.0131115,0.242326,5,0.1,28,0.8,-3.26296,-1.60103,0.579737,0.351715,-0.0297159,0.0122964,-0.483036,-0.014782,0.00613928,0.0121642,1.60387,5,0.1,29,0.8,1.34672,0.0611509,0.596821,-0.271031,-0.219108,0.00192821,-0.135243,-0.1093,0.000953674,0.00933453,0.164693,5,0.1
0,0.9,3.66363,-3.8133,0.596555,-0.0371657,0.866026,0.000606291,-0.0212789,0,0.000320375,0.0247444,2.27098,5,0.1,1,0.9,-1.49217,4.0688,0.500991,0.866026,-0.113294,-0.00561848,0,-0.0701249,0.0199527,0.0233179,2.2639,5,0.1,2,0.9,-0.680526,-0.0880475,0.671396,-0.271427,-0.812057,-0.017474,-0.196207,-0.495623,-0.0155196,0.00824838,1.8578,5,0.1,3,0.9,1.8955,-1.5113,0.554755,-0.865009,0.52094,0.0194556,-0.0406504,0.298724,0.0111721,0.0169749,2.11308,5,0.1,4,0.9,0.67572,3.00096,0.574616,0.0331366,-0.322263,0.0194107,0.474937,0.967368,-0.00186637,0.00879007,0.607082,5,0.1,5,0.9,-2.19993,-3.91749,0.632102,0.371826,0.518924,-0.0217088,0.127211,0.177354,-0.00742078,0.0104169,0.47251,5,0.1,6,0.9,-1.48357,-1.04178,0.550712,-0.866026,0.245243,0.0377491,0,0.139795,0.0214949,0.0117161,2.23071,5,0.1,7,0.9,-1.59754,1.59757,0.694216,-0.0329178,-0.85652,0.0350025,-0.00205636,0.199921,0.00217557,0.0128661,2.38639,5,0.1,8,0.9,1.59891,-2.41523,0.544555,-0.173151,0.866026,0.0245135,-0.027664,0,0.0116751,0.0318506,2.26042,5,0.1,9,0.9,-2.86313,-3.98595,0.502947,0.817898,0.56491,-0.0138273,0.239626,0.188977,0.0376143,0.0340617,1.1523,5,0.1,10,0.9,-2.6391,-0.469468,0.610871,0.66874,0.216003,-0.00735754,0.228509,0.0738539,-0.00251457,0.0235982,0.572051,5,0.1,11,0.9,1.00302,3.80035,0.621998,0.86602,-0.219575,-0.0137861,-0.000208616,-0.105888,-0.00662729,0.0140589,1.77129,5,0.1,12,0.9,-3.71715,3.07609,0.567149,0.863659,-0.457132,0.0222161,0.0493973,-0.156313,0.00759214,0.0227642,1.17478,5,0.1,13,0.9,0.470914,2.7532,0.568293,0.69606,-0.110499,0.0045198,0.329459,-0.517994,-0.00538304,0.0116465,2.61478,5,0.1,14,0.9,-0.162922,-0.631287,0.63468,-0.0926788,0.426821,-0.0234532,-0.0316864,0.145931,-0.00802055,0.0114,0.221579,5,0.1,15,0.9,-0.595028,-0.526514,0.596746,0.615415,-0.613555,-0.0155346,0.148706,-0.469539,-0.0320077,0.014356,2.30533,5,0.1,16,0.9,1.40703,-0.782443,0.697591,-0.112976,0.500255,0.0525095,0.157647,-0.19712,0.137761,0.0347677,0.584468,5,0.1,17,0.9,3.86475,3.96875,0.505099,-0.483206,-0.350745,-0.0202619,-0.165179,-0.11988,0.0414476,0.0179371,0.415501,5,0.1,18,0.9,0.641198,2.4539,0.543738,-0.103776,-0.214624,0.03381,0.398304,0.436902,-0.0604987,0.00929533,0.438614,5,0.1,19,0.9,-3.64072,0.696223,0.645905,0.591928,0.64486,-0.0310416,0.296608,0.220433,-0.0106059,0.011046,0.96689,5,0.1,20,0.9,-0.978112,-2.42225,0.565784,-0.52694,0.864702,0.0442137,-0.247814,0.0351518,0.0207908,0.010721,1.60566,5,0.1,21,0.9,1.96049,3.32955,0.623114,-0.85696,-0.624923,-0.0133889,-0.207499,-0.347242,-0.00743568,0.0137036,1.95866,5,0.1,22,0.9,1.48711,-0.401162,0.588655,-0.830004,0.0617434,0.00692746,0.663161,0.0313055,0.0035204,0.00966129,2.21941,5,0.1,23,0.9,2.43575,3.83049,0.581158,0.525983,-0.702342,0.0279685,-0.650913,-0.0407547,-0.0143833,0.0101012,0.676065,5,0.1,24,0.9,-2.17167,3.12735,0.573858,0.701663,-0.815178,0.0144225,0.402972,-0.468299,0.00828505,0.0140249,2.04192,5,0.1,25,0.9,1.73665,-3.13083,0.580633,-0.261408,0.86437,0.0130982,-0.089407,0.0299811,0.00450388,0.0271235,1.03397,5,0.1,26,0.9,3.71511,0.460456,0.618185,-0.185968,0.482662,0.0415587,-0.0636429,0.165004,0.0142343,0.0112936,0.311888,5,0.1,27,0.9,0.274129,-3.48945,0.556904,-0.388172,0.185406,0.0291428,-0.132688,0.157759,0.00994653,0.0131115,0.242326,5,0.1,28,0.9,-3.23011,-1.60408,0.580996,0.308575,-0.0310553,0.0128525,-0.291675,-0.0105724,0.00439212,0.0121642,1.60387,5,0.1,29,0.9,1.31928,0.0387188,0.597019,-0.274381,-0.229012,0.00201492,0.0614449,-0.0782911,0.000681728,0.00933453,0.164693,5,0.1
0,1,3.65983,-3.7267,0.596617,-0.0387311,0.866026,0.000630319,-0.00858307,0,8.9407e-05,0.0224606,2.27088,5,0.1,1,1,-1.40557,4.05718,0.500526,0.866026,-0.118554,-0.00372976,0,-0.0300407,0.0175536,0.019265,2.61383,5,0.1,2,1,-0.70841,-0.171454,0.669571,-0.283709,-0.852215,-0.018993,-0.0441074,-0.265784,-0.0132918,0.00959032,1.41123,5,0.1,3,1,1.80892,-1.45796,0.556748,-0.866026,0.54301,0.0202805,0,0.119865,0.00450015,0.0168157,2.0819,5,0.1,4,1,0.681521,2.97402,0.57652,0.0832975,-0.213391,0.0184089,0.500351,1.15931,-0.0171661,0.0141594,0.40003,5,0.1,5,1,-2.16231,-3.86498,0.629905,0.378346,0.528008,-0.0220895,-0.00822544,-0.0115633,0.000506639,0.0120351,0.321318,5,0.1,6,1,-1.57017,-1.01667,0.554577,-0.866026,0.255531,0.0393301,0,0.0553727,0.00852346,0.00964749,2.2266,5,0.1,7,1,-1.60083,1.5134,0.69771,-0.0326306,-0.821936,0.0346959,0.00858307,0.495791,-0.00914931,0.009446,2.78113,5,0.1,8,1,1.58159,-2.32863,0.547051,-0.171667,0.866026,0.0252575,0.0578761,0,0.00235438,0.0285343,2.26005,5,0.1,9,1,-2.78061,-3.92881,0.501753,0.827307,0.574297,-0.0100687,-0.07236,-0.0181198,0.0367463,0.0271552,0.795209,5,0.1,10,1,-2.57144,-0.447613,0.610126,0.680447,0.219786,-0.00748634,-0.0149012,-0.00475347,0.000178814,0.013094,0.389022,5,0.1,11,1,1.08962,3.77798,0.620593,0.865939,-0.226438,-0.0142142,-0.00166893,-0.0234842,-0.00151992,0.0104139,1.3595,5,0.1,12,1,-3.63085,3.02984,0.569397,0.859439,-0.465143,0.0226051,-0.131726,0.0101328,-0.000506639,0.0225477,0.819793,5,0.1,13,1,0.542413,2.73984,0.568716,0.734627,-0.153786,0.00393093,0.374913,-0.336051,-0.00628829,0.00854715,2.45403,5,0.1,14,1,-0.172299,-0.588101,0.632307,-0.094302,0.434296,-0.0238642,0.00204146,-0.00935793,0.000536442,0.00688903,0.569924,5,0.1,15,1,-0.532551,-0.589932,0.595056,0.634715,-0.651126,-0.0180438,0.185356,-0.250161,-0.0176728,0.0116197,2.19405,5,0.1,16,1,1.39665,-0.733563,0.703563,-0.0935525,0.475518,0.0670031,0.221968,-0.306308,0.14174,0.0264327,2.93714,5,0.1,17,1,3.81586,3.93326,0.50329,-0.491667,-0.356883,-0.0158608,0.0104904,0.0077486,0.0453591,0.0135861,0.283364,5,0.1,18,1,0.633232,2.43472,0.546738,-0.0523537,-0.168169,0.025557,0.590801,0.479937,-0.0985563,0.00565859,0.433194,5,0.1,19,1,-3.58038,0.76147,0.642764,0.611192,0.65615,-0.0315845,0.0683069,-0.0141859,0.000715256,0.0100615,0.662672,5,0.1,20,1,-1.03176,-2.33581,0.570286,-0.542781,0.862467,0.0455424,-0.0506043,-0.0712872,0.00423193,0.00959479,1.16012,5,0.1,21,1,1.87416,3.26562,0.621745,-0.866026,-0.650024,-0.0139251,0,-0.128627,-0.00277162,0.00855283,1.42146,5,0.1,22,1,1.40814,-0.394863,0.589362,-0.743535,0.0638559,0.00716448,1.02204,0.00862777,0.000953674,0.00803788,2.02807,5,0.1,23,1,2.48461,3.76045,0.583867,0.447249,-0.694084,0.0260517,-0.894308,0.217557,-0.0238419,0.00801451,0.525011,5,0.1,24,1,-2.09982,3.04386,0.575335,0.731462,-0.849813,0.0150368,0.162244,-0.18847,0.00330806,0.00931773,1.57841,5,0.1,25,1,1.7102,-3.04452,0.581958,-0.265989,0.859219,0.0133291,0.00572205,-0.136018,-0.000298023,0.0213203,0.728696,5,0.1,26,1,3.69629,0.509292,0.62239,-0.189233,0.491115,0.042288,0.00417233,-0.0106394,-0.000864267,0.00904302,0.212097,5,0.1,27,1,0.234854,-3.47024,0.559853,-0.394969,0.197566,0.0296518,0.00854611,0.0771284,-0.000655651,0.00855096,0.166696,5,0.1,28,1,-3.2,-1.60722,0.582296,0.300622,-0.0315994,0.0130773,0.116706,0.00077486,-0.000298023,0.00956154,1.3665,5,0.1,29,1,1.29243,0.0155474,0.597223,-0.260103,-0.233022,0.0020504,0.217259,0.00503421,-5.96046e-05,0.00944033,0.257836,5,0.1
0,1.1,3.6559,-3.64009,0.596681,-0.0397753,0.866026,0.000643078,-0.00996888,0,0.000122935,0.0224606,2.27088,5,0.1,1,1.1,-1.32003,4.04534,0.500234,0.834817,-0.116548,-0.00216719,-0.589438,0.0649691,0.0135675,0.019265,2.61383,5,0.1,2,1.1,-0.736922,-0.257502,0.667598,-0.285532,-0.86489,-0.0205062,0.0153035,-0.0314713,-0.0153333,0.00959032,1.41123,5,0.1,3,1.1,1.72232,-1.40294,0.558803,-0.865976,0.557694,0.0208309,0.00199676,0.141039,0.00528246,0.0168157,2.0819,5,0.1,4,1.1,0.692273,2.95875,0.57828,0.130593,-0.0903189,0.0168503,0.431873,1.25754,-0.014592,0.0141594,0.40003,5,0.1,5,1.1,-2.12453,-3.81226,0.6277,0.376683,0.52568,-0.0219901,-0.038892,-0.0543296,0.0022836,0.0120351,0.321318,5,0.1,6,1.1,-1.65678,-0.990788,0.55856,-0.866026,0.262198,0.0403564,0,0.0628904,0.0096783,0.00964749,2.2266,5,0.1,7,1.1,-1.60405,1.43468,0.701138,-0.0318462,-0.744146,0.0338605,0.008367,1.00013,-0.00891089,0.009446,2.78113,5,0.1,8,1.1,1.56474,-2.24203,0.549592,-0.164972,0.866026,0.02555,0.0793859,0,0.002224,0.0285343,2.26005,5,0.1,9,1.1,-2.69847,-3.87152,0.500923,0.812819,0.570652,-0.00661444,-0.233859,-0.0743419,0.0318065,0.0271552,0.795209,5,0.1,10,1.1,-2.5035,-0.425667,0.609379,0.677448,0.218822,-0.00745179,-0.0699908,-0.0225734,0.000786036,0.013094,0.389022,5,0.1,11,1.1,1.17621,3.75523,0.619165,0.865723,-0.228306,-0.0143351,-0.00912696,-0.00463426,-0.000320375,0.0104139,1.3595,5,0.1,12,1.1,-3.54545,2.9834,0.571654,0.848772,-0.463095,0.0225044,-0.119239,0.0478327,-0.00233576,0.0225477,0.819793,5,0.1,13,1.1,0.618277,2.72357,0.569087,0.786018,-0.164525,0.0035611,0.578277,0.0877678,-0.00164285,0.00854715,2.45403,5,0.1,14,1.1,-0.180621,-0.545519,0.630063,-0.0628431,0.410195,-0.019822,0.56114,-0.439037,0.0723787,0.00688903,0.569924,5,0.1,15,1.1,-0.46752,-0.656363,0.593174,0.670423,-0.67719,-0.0194637,0.457879,-0.233248,-0.01017,0.0116197,2.19405,5,0.1,16,1.1,1.389,-0.686807,0.710965,-0.0547418,0.465658,0.0807547,0.509791,0.0579059,0.125963,0.0264327,2.93714,5,0.1,17,1.1,3.76676,3.89762,0.501929,-0.489523,-0.355315,-0.0113988,0.0503659,0.0366718,0.0430569,0.0135861,0.283364,5,0.1,18,1.1,0.630843,2.42029,0.548767,0.00327295,-0.120759,0.014803,0.512484,0.458941,-0.112399,0.00565859,0.433194,5,0.1,19,1.1,-3.51895,0.826986,0.63961,0.616401,0.653273,-0.0314432,0.0114441,-0.0673719,0.00326708,0.0100615,0.662672,5,0.1,20,1.1,-1.08627,-2.24969,0.574859,-0.546676,0.861052,0.045868,-0.00534207,-0.0038147,0.000432134,0.00959479,1.16012,5,0.1,21,1.1,1.78757,3.19997,0.620338,-0.865499,-0.66239,-0.0141908,0.0210479,-0.0882149,-0.00189617,0.00855283,1.42146,5,0.1,22,1.1,1.33952,-0.388435,0.590083,-0.6247,0.0646105,0.00724774,1.26624,0.00373088,0.000409782,0.00803788,2.02807,5,0.1,23,1.1,2.52467,3.6922,0.586349,0.352458,-0.669817,0.023542,-0.977725,0.284523,-0.0264049,0.00801451,0.525011,5,0.1,24,1.1,-2.0258,2.95812,0.576856,0.748439,-0.862885,0.0153837,0.139534,-0.0572801,0.00284985,0.00931773,1.57841,5,0.1,25,1.1,1.68364,-2.95915,0.583289,-0.264825,0.848628,0.0132696,0.0272915,-0.114381,-0.00137463,0.0213203,0.728696,5,0.1,26,1.1,3.6774,0.55833,0.626612,-0.188397,0.48896,0.0421065,0.0194609,-0.0504367,-0.00431761,0.00904302,0.212097,5,0.1,27,1.1,0.195416,-3.45011,0.562813,-0.393236,0.204653,0.0295203,0.0405563,0.0551939,-0.00305474,0.00855096,0.166696,5,0.1,28,1.1,-3.16842,-1.61037,0.583602,0.338403,-0.0314534,0.0130185,0.564441,0.00330806,-0.00135228,0.00956154,1.3665,5,0.1,29,1.1,1.26777,-0.00776406,0.597429,-0.230655,-0.233255,0.00209771,0.358731,0.00180922,0.000797212,0.00944033,0.257836,5,0.1
0,1.2,3.65189,-3.55349,0.596745,-0.0403345,0.866026,0.000649691,0.000596046,0,-2.98023e-05,0.0176101,2.27086,5,0.1,1,1.2,-1.24023,4.03413,0.500078,0.754645,-0.106525,-0.00102967,-0.983596,0.130415,0.00914931,0.015489,3.05867,5,0.1,2,1.2,-0.76525,-0.343996,0.665478,-0.279425,-0.86376,-0.0217795,0.111461,0.0452852,-0.0089705,0.00784272,1.04574,5,0.1,3,1.2,1.63575,-1.34665,0.560905,-0.865227,0.565657,0.0211284,0.015974,-0.00464916,-0.000119209,0.0142497,2.08458,5,0.1,4,1.2,0.707287,2.95587,0.579893,0.167388,0.0303626,0.0153929,0.294864,1.12319,-0.0149906,0.0102839,1.002,5,0.1,5,1.2,-2.0872,-3.76016,0.625521,0.368273,0.513947,-0.0214979,-0.138402,-0.193238,0.00810623,0.00896254,0.213663,5,0.1,6,1.2,-1.74338,-0.964343,0.56263,-0.866026,0.265554,0.0408724,0,-0.00625849,-0.000953674,0.00846435,2.22608,5,0.1,7,1.2,-1.60719,1.36569,0.704471,-0.0307441,-0.632322,0.0326887,0.0144839,1.19197,-0.0154376,0.00899442,3.11803,5,0.1,8,1.2,1.5487,-2.15543,0.552149,-0.155255,0.866026,0.0254884,0.116944,0,-0.00432134,0.0287641,2.26205,5,0.1,9,1.2,-2.61873,-3.81505,0.500409,0.777954,0.556189,-0.00378937,-0.472665,-0.227451,0.0244081,0.0270835,0.554338,5,0.1,10,1.2,-2.43636,-0.403981,0.608641,0.662327,0.213939,-0.00728369,-0.248909,-0.0803769,0.00274181,0.0133441,0.258689,5,0.1,11,1.2,1.26265,3.73247,0.617736,0.861949,-0.22583,-0.0141829,-0.0814795,0.0605583,0.0038147,0.0110852,1.01382,5,0.1,12,1.2,-3.4614,2.9375,0.573884,0.829256,-0.452763,0.0220001,-0.296712,0.17035,-0.00825524,0.018256,0.562124,5,0.1,13,1.2,0.69961,2.70803,0.569439,0.837694,-0.14233,0.00350773,0.404,0.328779,8.9407e-05,0.010364,2.49028,5,0.1,14,1.2,-0.183626,-0.507173,0.628507,0.00616387,0.35265,-0.0108063,0.767373,-0.683799,0.101686,0.00905048,0.247855,5,0.1,15,1.2,-0.398217,-0.724967,0.591193,0.714003,-0.691386,-0.0199884,0.3618,-0.0246465,-5.96046e-05,0.0102324,2.0974,5,0.1,16,1.2,1.38625,-0.6397,0.719595,0.00064373,0.477982,0.090979,0.564754,0.148654,0.0737309,0.0278295,2.82677,5,0.1,17,1.2,3.71825,3.86241,0.500995,-0.478607,-0.347382,-0.00738651,0.179529,0.130534,0.0366867,0.0135075,0.189268,5,0.1,18,1.2,0.633541,2.41041,0.549691,0.0486076,-0.077939,0.0037998,0.388145,0.391245,-0.104606,0.0115235,0.426037,5,0.1,19,1.2,-3.45751,0.891729,0.636494,0.609434,0.638698,-0.0307396,-0.167012,-0.239968,0.0115335,0.00857145,0.509742,5,0.1,20,1.2,-1.14075,-2.1638,0.57943,-0.540197,0.853747,0.0453234,0.149488,-0.174999,-0.0125468,0.00790328,0.815636,5,0.1,21,1.2,1.7013,3.13356,0.618915,-0.857607,-0.662565,-0.0141948,0.168324,0.105381,0.00226498,0.0171424,1.178,5,0.1,22,1.2,1.28323,-0.381982,0.590807,-0.503993,0.0641465,0.00719577,1.09923,-0.0148416,-0.00169873,0.00997309,0.528127,5,0.1,23,1.2,2.55505,3.62686,0.588567,0.255889,-0.634468,0.0207677,-0.935793,0.43273,-0.0290573,0.00756777,0.445944,5,0.1,24,1.2,-1.95055,2.87185,0.578403,0.753009,-0.859147,0.0154763,-0.0738502,0.137687,-0.00151992,0.00974034,1.12025,5,0.1,25,1.2,1.65739,-2.87508,0.584604,-0.258917,0.82984,0.012973,0.0972152,-0.288129,-0.00491738,0.0224091,0.504147,5,0.1,26,1.2,3.65872,0.606788,0.630785,-0.184196,0.47805,0.0411689,0.0692606,-0.179589,-0.0154376,0.00839478,0.141036,5,0.1,27,1.2,0.156445,-3.42947,0.565739,-0.384462,0.207031,0.0288606,0.144422,-0.0139475,-0.010848,0.00933998,0.111709,5,0.1,28,1.2,-3.13152,-1.61349,0.584892,0.40043,-0.0307471,0.0127271,0.61965,0.0115633,-0.00479817,0.00983191,1.0885,5,0.1,29,1.2,1.24665,-0.031009,0.597643,-0.190735,-0.230724,0.00217706,0.428975,0.0566795,0.000566244,0.0119597,0.144653,5,0.1
0,1.3,3.64785,-3.46689,0.59681,-0.0405692,0.866026,0.000651926,-0.00295043,0,3.72529e-05,0.0176101,2.27086,5,0.1,1,1.3,-1.17045,4.02422,0.500014,0.635119,-0.0909127,-0.000325497,-1.34254,0.17634,0.00506267,0.015489,3.05867,5,0.1,2,1.3,-0.792616,-0.430345,0.663253,-0.26753,-0.864138,-0.0227125,0.132989,-0.0109281,-0.00840425,0.00784272,1.04574,5,0.1,3,1.3,1.54929,-1.28994,0.563024,-0.863446,0.569257,0.021267,0.0416562,0.0438839,0.00167266,0.0142497,2.08458,5,0.1,4,1.3,0.72477,2.96276,0.581366,0.175752,0.0919044,0.0141526,-0.0972152,0.183016,-0.0105575,0.0102839,1.002,5,0.1,5,1.3,-2.05105,-3.70971,0.62341,0.354592,0.494848,-0.0206971,-0.146687,-0.204712,0.00857934,0.00896254,0.213663,5,0.1,6,1.3,-1.82998,-0.937749,0.566724,-0.866026,0.266635,0.0410398,0,0.0130869,0.00202283,0.00846435,2.22608,5,0.1,7,1.3,-1.61034,1.3088,0.70767,-0.0336682,-0.504085,0.0313465,-0.0624135,1.28302,-0.012733,0.00899442,3.11803,5,0.1,8,1.3,1.53374,-2.06882,0.554683,-0.144204,0.866026,0.0252088,0.108309,0,-0.00255182,0.0287641,2.26205,5,0.1,9,1.3,-2.54337,-3.76055,0.500138,0.728175,0.533389,-0.00177454,-0.534967,-0.244603,0.0159964,0.0270835,0.554338,5,0.1,10,1.3,-2.37134,-0.38298,0.607926,0.637724,0.205993,-0.00701258,-0.263736,-0.0851844,0.002902,0.0133441,0.258689,5,0.1,11,1.3,1.34873,3.71018,0.616336,0.861238,-0.219775,-0.0138016,0.0169724,0.0681132,0.00428408,0.0110852,1.01382,5,0.1,12,1.3,-3.37985,2.89306,0.576044,0.801902,-0.435928,0.0211838,-0.280961,0.180423,-0.00875071,0.018256,0.562124,5,0.1,13,1.3,0.784812,2.69496,0.569743,0.860543,-0.123203,0.00216905,0.05503,0.0797212,-0.0240207,0.010364,2.49028,5,0.1,14,1.3,-0.179147,-0.474788,0.627987,0.0830121,0.29975,0.000765547,0.744123,-0.401665,0.123762,0.00905048,0.247855,5,0.1,15,1.3,-0.324588,-0.794356,0.58923,0.761052,-0.696753,-0.0189258,0.513212,-0.0462607,0.0197887,0.0102324,2.0974,5,0.1,16,1.3,1.38908,-0.590486,0.728996,0.0551434,0.511331,0.0963259,0.5114,0.45228,0.0314899,0.0278295,2.82677,5,0.1,17,1.3,3.67127,3.82831,0.500426,-0.460856,-0.334478,-0.00415239,0.190377,0.138342,0.0277236,0.0135075,0.189268,5,0.1,18,1.3,0.639797,2.40442,0.549671,0.0715686,-0.0435531,-0.00308678,0.0917464,0.293881,-0.0378564,0.0115235,0.426037,5,0.1,19,1.3,-3.39816,0.954425,0.633477,0.570753,0.614977,-0.0295993,-0.578135,-0.254299,0.0122264,0.00857145,0.509742,5,0.1,20,1.3,-1.19404,-2.07916,0.583901,-0.525259,0.839465,0.0440697,0.167288,-0.148214,-0.0140406,0.00790328,0.815636,5,0.1,21,1.3,1.61718,3.06856,0.617555,-0.817097,-0.630674,-0.0125936,0.62003,0.50956,0.0272281,0.0171424,1.178,5,0.1,22,1.3,1.23833,-0.376617,0.591465,-0.394273,0.0349184,0.00550048,1.08256,-0.510287,-0.0288747,0.00997309,0.528127,5,0.1,23,1.3,2.57616,3.56555,0.590501,0.168559,-0.591895,0.0179355,-0.800133,0.433132,-0.0276901,0.00756777,0.445944,5,0.1,24,1.3,-1.87558,2.78682,0.579944,0.7461,-0.839075,0.0153343,-0.0948086,0.281245,-0.00194833,0.00974034,1.12025,5,0.1,25,1.3,1.63198,-2.79342,0.585877,-0.249305,0.803541,0.0124874,0.103056,-0.269204,-0.00519305,0.0224091,0.504147,5,0.1,26,1.3,3.64064,0.653715,0.634827,-0.177353,0.460297,0.0396422,0.0733584,-0.190325,-0.0163801,0.00839478,0.141036,5,0.1,27,1.3,0.118705,-3.40884,0.568572,-0.370185,0.205352,0.0277883,0.15306,-0.0272691,-0.0114925,0.00933998,0.111709,5,0.1,28,1.3,-3.08803,-1.61651,0.586142,0.471405,-0.0296043,0.012253,0.742957,0.0122413,-0.0050813,0.00983191,1.0885,5,0.1,29,1.3,1.22976,-0.0537701,0.597866,-0.146824,-0.224041,0.00228891,0.440508,0.0837574,0.00143424,0.0119597,0.144653,5,0.1
0,1.4,3.64378,-3.38029,0.596875,-0.0405312,0.866026,0.000651181,0.00548363,0,-0.000119209,0.0179493,2.27087,5,0.1,1,1.4,-1.11381,4.01605,0.500001,0.497159,-0.0722408,1.78814e-05,-1.37073,0.192404,0.00202656,0.0169628,3.39873,5,0.1,2,1.4,-0.818626,-0.516632,0.660949,-0.251764,-0.859071,-0.0232443,0.186414,0.139058,-0.0012815,0.00816209,0.753439,5,0.1,3,1.4,1.46336,-1.23294,0.565153,-0.852785,0.568858,0.021255,0.190675,-0.0748038,-0.00280142,0.01391,2.15663,5,0.1,4,1.4,0.74142,2.97183,0.582731,0.153485,0.0806272,0.0131533,-0.323117,-0.347376,-0.0100136,0.00940592,0.790576,5,0.1,5,1.4,-2.01641,-3.66138,0.621389,0.33704,0.470346,-0.019671,-0.212014,-0.295758,0.012368,0.00962392,0.239647,5,0.1,6,1.4,-1.91658,-0.911087,0.570827,-0.866026,0.265655,0.0408888,0,-0.0430346,-0.00661612,0.00780205,2.22766,5,0.1,7,1.4,-1.61408,1.2644,0.710737,-0.0413626,-0.38923,0.0299156,-0.0833869,0.968635,-0.0167787,0.00912563,2.77847,5,0.1,8,1.4,1.51987,-1.98222,0.557185,-0.132889,0.866026,0.0247627,0.120878,-5.96046e-05,-0.00727177,0.0301585,2.26369,5,0.1,9,1.4,-2.47341,-3.70857,0.500027,0.669062,0.504619,-0.000555813,-0.654101,-0.341415,0.00858307,0.0270476,0.400112,5,0.1,10,1.4,-2.30905,-0.362859,0.607241,0.606161,0.195797,-0.0066638,-0.381231,-0.123113,0.00417233,0.0144094,0.170282,5,0.1,11,1.4,1.43477,3.68861,0.614981,0.856769,-0.210947,-0.0132456,-0.141919,0.113606,0.00712276,0.0122391,2.28219,5,0.1,12,1.4,-3.30125,2.85048,0.578113,0.767922,-0.414336,0.0201344,-0.419259,0.260592,-0.0126362,0.0179674,0.749079,5,0.1,13,1.4,0.870539,2.6828,0.569819,0.847724,-0.121754,-0.000789762,-0.323206,-0.0305176,-0.0329018,0.00957413,2.52998,5,0.1,14,1.4,-0.167335,-0.446541,0.628678,0.150639,0.267447,0.0129014,0.590406,-0.265643,0.114471,0.0103079,0.316397,5,0.1,15,1.4,-0.246111,-0.864055,0.587459,0.805318,-0.694473,-0.0163123,0.324793,0.117093,0.031203,0.00947084,2.02767,5,0.1,16,1.4,1.39697,-0.537036,0.738705,0.100592,0.556941,0.0970289,0.388086,0.411018,-0.0181794,0.00776162,0.795771,5,0.1,17,1.4,3.62625,3.79564,0.500133,-0.438064,-0.317925,-0.00186712,0.275373,0.200033,0.0180006,0.0149834,0.21898,5,0.1,18,1.4,0.647064,2.40136,0.549251,0.0707388,-0.0193894,-0.00463426,-0.0911653,0.189424,0.00298023,0.00951347,0.491067,5,0.1,19,1.4,-3.34445,1.0145,0.630585,0.499105,0.58454,-0.0281349,-0.830173,-0.367641,0.0177026,0.00912895,0.411017,5,0.1,20,1.4,-1.24558,-1.99617,0.588225,-0.503746,0.817767,0.0422642,0.274956,-0.311434,-0.0230968,0.00921438,0.560045,5,0.1,21,1.4,1.53917,3.00855,0.616456,-0.737825,-0.564986,-0.00920445,0.945091,0.783563,0.0385344,0.0103077,0.997961,5,0.1,22,1.4,1.2042,-0.37609,0.591848,-0.289738,-0.0273161,0.00201017,0.998259,-0.687942,-0.0383556,0.00843962,0.33128,5,0.1,23,1.4,2.58931,3.50862,0.592157,0.0975072,-0.545472,0.0152126,-0.61512,0.504732,-0.0267625,0.00800803,1.64862,5,0.1,24,1.4,-1.80168,2.70467,0.581463,0.72895,-0.800121,0.0149816,-0.268698,0.507832,-0.00551343,0.00897044,0.882399,5,0.1,25,1.4,1.60762,-2.71459,0.587097,-0.23697,0.770736,0.0118673,0.149012,-0.408292,-0.00748038,0.0197567,0.342367,5,0.1,26,1.4,3.62332,0.698677,0.638699,-0.168574,0.437517,0.0376806,0.106096,-0.275135,-0.0236928,0.00901044,0.158107,5,0.1,27,1.4,0.082545,-3.38851,0.571286,-0.351865,0.200301,0.0264123,0.221252,-0.0787973,-0.0165999,0.0080134,0.137597,5,0.1,28,1.4,-3.03736,-1.6194,0.587338,0.539219,-0.0281394,0.0116467,0.572324,0.0177026,-0.00736117,0.00978027,0.828685,5,0.1,29,1.4,1.21724,-0.0756664,0.598102,-0.104156,-0.212889,0.00242293,0.406265,0.143338,0.00104308,0.00827276,0.212794,5,0.1
0,1.5,3.63974,-3.29368,0.59694,-0.0403505,0.866026,0.000645872,0.000461936,0,-2.6077e-05,0.0179493,2.27087,5,0.1,1,1.5,-1.071,4.00979,0.50001,0.360513,-0.0531688,0.000138301,-1.28166,0.186265,0.000495464,0.0169628,3.39873,5,0.1,2,1.5,-0.84289,-0.602021,0.658617,-0.233585,-0.849422,-0.0233767,0.182815,0.0951737,-0.000331551,0.00816209,0.753439,5,0.1,3,1.5,1.37972,-1.17618,0.567269,-0.816332,0.567816,0.0210642,0.421777,0.0180528,-0.00201538,0.01391,2.15663,5,0.1,4,1.5,0.754858,2.97738,0.584002,0.112903,0.024059,0.0123156,-0.46622,-0.727668,-0.00733882,0.00940592,0.790576,5,0.1,5,1.5,-1.98373,-3.61561,0.619481,0.316818,0.446581,-0.0184914,-0.202008,-0.202775,0.0117868,0.00962392,0.239647,5,0.1,6,1.5,-2.00319,-0.884655,0.574896,-0.866026,0.263445,0.0405491,0,-0.0156425,-0.00240281,0.00780205,2.22766,5,0.1,7,1.5,-1.61855,1.22978,0.713654,-0.0472046,-0.311202,0.0284806,-0.0345707,0.499375,-0.0131801,0.00912563,2.77847,5,0.1,8,1.5,1.50713,-1.89562,0.559636,-0.122412,0.866025,0.0243176,0.0939518,1.49012e-05,-0.00306964,0.0301585,2.26369,5,0.1,9,1.5,-2.40968,-3.65975,0.500006,0.60633,0.472019,4.20958e-05,-0.613675,-0.324324,0.00370294,0.0270476,0.400112,5,0.1,10,1.5,-2.25027,-0.343871,0.606594,0.569799,0.184053,-0.00626557,-0.363216,-0.117324,0.00398606,0.0144094,0.170282,5,0.1,11,1.5,1.52029,3.66743,0.613695,0.857709,-0.217844,-0.0124461,0.0966862,-0.205725,0.00900403,0.0122391,2.28219,5,0.1,12,1.5,-3.22612,2.8103,0.580066,0.737715,-0.389479,0.0189288,-0.229821,0.248298,-0.012055,0.0179674,0.749079,5,0.1,13,1.5,0.954318,2.67006,0.569551,0.832438,-0.136345,-0.0047477,-0.045754,-0.229552,-0.0436828,0.00957413,2.52998,5,0.1,14,1.5,-0.150317,-0.420585,0.630373,0.180761,0.256118,0.0194686,0.0511184,0.00220537,0.0235252,0.0103079,0.316397,5,0.1,15,1.5,-0.16384,-0.93312,0.585997,0.840006,-0.687906,-0.0128351,0.321018,0.0512265,0.0372306,0.00947084,2.02767,5,0.1,16,1.5,1.40909,-0.481169,0.748618,0.14235,0.543726,0.103676,0.423566,-0.590891,0.128631,0.00776162,0.795771,5,0.1,17,1.5,3.58361,3.76481,0.50002,-0.416241,-0.298847,-0.000524707,0.183403,0.190586,0.00935048,0.0149834,0.21898,5,0.1,18,1.5,0.653257,2.4002,0.548903,0.0495388,-0.00530593,-0.00148183,-0.305843,0.0961572,0.053782,0.00951347,0.491067,5,0.1,19,1.5,-3.29896,1.07118,0.627857,0.408723,0.549473,-0.0264463,-0.95503,-0.350304,0.0168644,0.00912895,0.411017,5,0.1,20,1.5,-1.29463,-1.91583,0.59234,-0.477409,0.789342,0.0400524,0.266753,-0.287592,-0.0224002,0.00921438,0.560045,5,0.1,21,1.5,1.4698,2.95652,0.61576,-0.651987,-0.470997,-0.0044696,0.791647,1.0601,0.0533462,0.0103077,0.997961,5,0.1,22,1.5,1.17993,-0.382591,0.591865,-0.198655,-0.104887,-0.00158716,0.822879,-0.820288,-0.0329614,0.00843962,0.33128,5,0.1,23,1.5,2.59613,3.45595,0.593593,0.0415117,-0.513142,0.0138996,-0.471205,0.188947,-0.00230968,0.00800803,1.64862,5,0.1,24,1.5,-1.73006,2.62801,0.582934,0.703358,-0.726145,0.0144565,-0.268102,0.929683,-0.00550598,0.00897044,0.882399,5,0.1,25,1.5,1.58464,-2.63944,0.588248,-0.222757,0.732775,0.0111541,0.142001,-0.376686,-0.00712276,0.0197567,0.342367,5,0.1,26,1.5,3.60688,0.741335,0.642373,-0.160966,0.417786,0.0359807,0.0565201,-0.146627,-0.0126362,0.00901044,0.158107,5,0.1,27,1.5,0.0482374,-3.36905,0.573862,-0.335998,0.18722,0.0252216,0.117911,-0.177369,-0.00884756,0.0080134,0.137597,5,0.1,28,1.5,-2.98049,-1.62213,0.588468,0.597744,-0.0264511,0.0109452,0.5541,0.0168681,-0.00700727,0.00978027,0.828685,5,0.1,29,1.5,1.20876,-0.0963705,0.598347,-0.0664698,-0.202188,0.00247173,0.342093,0.0832387,-8.19564e-05,0.00827276,0.212794,5,0.1
0,1.6,3.63572,-3.20708,0.597005,-0.0400364,0.866026,0.00063926,0.00751019,0,-0.000119209,0.0167009,2.2709,5,0.1,1,1.6,-1.04072,4.00537,0.500024,0.252584,-0.0354648,0.000137091,-0.839889,0.165462,-0.000357628,0.0151068,1.48478,5,0.1,2,1.6,-0.865303,-0.686284,0.656287,-0.214268,-0.833055,-0.0231385,0.207275,0.26077,0.00578165,0.010631,0.527177,5,0.1,3,1.6,1.3,-1.11939,0.56936,-0.780252,0.566322,0.0206798,0.298262,-0.0736117,-0.00631809,0.0127511,1.67973,5,0.1,4,1.6,0.763733,2.9759,0.585198,0.0642046,-0.0549376,0.0115827,-0.490457,-0.809073,-0.0077188,0.00978628,0.655562,5,0.1,5,1.6,-1.9531,-3.57197,0.617694,0.295037,0.425798,-0.0172198,-0.239909,-0.229478,0.0139773,0.00837901,0.169151,5,0.1,6,1.6,-2.08979,-0.85844,0.578931,-0.866026,0.260061,0.040029,0,-0.0622571,-0.00959635,0.00870034,1.87319,5,0.1,7,1.6,-1.62337,1.2,0.716434,-0.0485122,-0.295517,0.0270635,0.00727177,-0.154614,-0.0160038,0.00882879,2.98313,5,0.1,8,1.6,1.49535,-1.80902,0.56205,-0.113189,0.866026,0.023903,0.0942945,-5.96046e-05,-0.00625849,0.0326325,2.16695,5,0.1,9,1.6,-2.35213,-3.61424,0.500023,0.544149,0.437462,0.000244379,-0.638723,-0.375986,0.000596046,0.02648,0.299295,5,0.1,10,1.6,-2.19519,-0.32608,0.605989,0.530636,0.171404,-0.00583529,-0.431418,-0.139415,0.00473857,0.0141055,0.111923,5,0.1,11,1.6,1.60652,3.6444,0.612499,0.865367,-0.244015,-0.0114247,0.0131726,-0.282884,0.0114739,0.0106097,0.68787,5,0.1,12,1.6,-3.15349,2.77265,0.581895,0.714213,-0.362712,0.0176296,-0.272751,0.295043,-0.0143647,0.0177817,0.542329,5,0.1,13,1.6,1.03736,2.65516,0.568858,0.827634,-0.162071,-0.00907481,-0.0963211,-0.261068,-0.0409484,0.00813293,2.44634,5,0.1,14,1.6,-0.132608,-0.39477,0.632332,0.168006,0.261399,0.0188172,-0.273883,0.0753999,-0.0310242,0.0105962,0.202822,5,0.1,15,1.6,-0.078553,-1.00152,0.584902,0.861778,-0.67794,-0.00906289,0.0849473,0.174105,0.0373125,0.00951513,2.01617,5,0.1,16,1.6,1.42534,-0.430828,0.759719,0.181261,0.4541,0.118798,0.33772,-1.13268,0.15676,0.00755398,0.294532,5,0.1,17,1.6,3.5429,3.73592,0.500004,-0.397545,-0.278306,9.68575e-05,0.20647,0.226498,0.00354648,0.0154103,0.155836,5,0.1,18,1.6,0.656511,2.40003,0.549065,0.0143766,0.00077486,0.00500381,-0.376403,0.0308752,0.0710487,0.010114,0.466199,5,0.1,19,1.6,-3.26291,1.1243,0.625301,0.312126,0.511706,-0.0246286,-0.959277,-0.41616,0.020057,0.00904634,0.232387,5,0.1,20,1.6,-1.34095,-1.8385,0.596226,-0.447896,0.755116,0.0375733,0.333667,-0.417829,-0.0279546,0.00860119,0.378677,5,0.1,21,1.6,1.40844,2.91493,0.615585,-0.576064,-0.35947,0.000968575,0.741184,1.14155,0.0533462,0.0106583,0.797181,5,0.1,22,1.6,1.16388,-0.397107,0.591554,-0.125164,-0.183871,-0.0044778,0.647366,-0.727549,-0.0244379,0.00880025,0.243628,5,0.1,23,1.6,2.59837,3.40538,0.594993,0.00786185,-0.499445,0.014253,-0.189185,0.120401,0.00721216,0.00712533,1.44049,5,0.1,24,1.6,-1.66123,2.56045,0.584349,0.671157,-0.621647,0.0137955,-0.392735,1.12748,-0.00804663,0.00938876,0.719398,5,0.1,25,1.6,1.56311,-2.56817,0.589326,-0.207448,0.691068,0.0103876,0.168741,-0.474811,-0.00846386,0.0197935,0.230052,5,0.1,26,1.6,3.59106,0.782411,0.645911,-0.155467,0.403506,0.0347495,0.0611544,-0.158668,-0.0136793,0.009256,0.0916153,5,0.1,27,1.6,0.0152032,-3.35134,0.576341,-0.324515,0.16588,0.0243604,0.127612,-0.244379,-0.00959635,0.00971479,0.0983065,5,0.1,28,1.6,-2.91828,-1.62469,0.589526,0.642568,-0.0246316,0.0101924,0.311852,0.0199676,-0.00834465,0.00790494,0.599693,5,0.1,29,1.6,1.20368,-0.116188,0.598592,-0.0365317,-0.194075,0.00240654,0.254095,0.0881177,-0.0012517,0.00872355,0.198869,5,0.1
0,1.7,3.63174,-3.12048,0.597068,-0.0396948,0.866026,0.000634231,0.00168383,0,-2.23517e-05,0.0167009,2.2709,5,0.1,1,1.7,-1.01883,4.00263,0.500036,0.194359,-0.0196308,8.91276e-05,-0.302933,0.148952,-0.000569969,0.0151068,1.48478,5,0.1,2,1.7,-0.885736,-0.768413,0.654,-0.194673,-0.809935,-0.0225826,0.189509,0.23498,0.00618026,0.010631,0.527177,5,0.1,3,1.7,1.22273,-1.06305,0.571402,-0.770835,0.560575,0.0202063,-0.0412539,-0.0664592,-0.00417605,0.0127511,1.67973,5,0.1,4,1.7,0.767636,2.96612,0.586321,0.0136427,-0.14208,0.0109192,-0.504319,-0.891507,-0.00603497,0.00978628,0.655562,5,0.1,5,1.7,-1.92474,-3.5304,0.616038,0.272546,0.406495,-0.0159093,-0.217959,-0.175253,0.012707,0.00837901,0.169151,5,0.1,6,1.7,-2.17639,-0.832686,0.582895,-0.866026,0.255314,0.0392972,0,-0.0449568,-0.00692904,0.00870034,1.87319,5,0.1,7,1.7,-1.62828,1.16814,0.719063,-0.0505019,-0.354085,0.0255291,-0.0392199,-0.90351,-0.0154562,0.00882879,2.98313,5,0.1,8,1.7,1.48445,-1.72241,0.564417,-0.105245,0.866025,0.0235124,0.0696331,1.49012e-05,-0.00287965,0.0326325,2.16695,5,0.1,9,1.7,-2.30073,-3.57229,0.500048,0.485343,0.401972,0.000238419,-0.55106,-0.344858,-0.000596046,0.02648,0.299295,5,0.1,10,1.7,-2.14418,-0.309603,0.605428,0.490192,0.158334,-0.00539096,-0.39196,-0.126656,0.00431016,0.0141055,0.111923,5,0.1,11,1.7,1.69306,3.61895,0.61141,0.864357,-0.261544,-0.0104047,-0.0505894,-0.0721812,0.00932068,0.0106097,0.68787,5,0.1,12,1.7,-3.08318,2.73778,0.58359,0.693432,-0.335055,0.0162832,-0.17865,0.267997,-0.0130497,0.0177817,0.542329,5,0.1,13,1.7,1.12036,2.63855,0.567801,0.837478,-0.162187,-0.0115483,0.218093,0.216246,-0.0104271,0.00813293,2.44634,5,0.1,14,1.7,-0.117584,-0.368069,0.633988,0.129093,0.273819,0.0137166,-0.476839,0.14847,-0.0663064,0.0105962,0.202822,5,0.1,15,1.7,0.00788257,-1.06869,0.584184,0.865642,-0.667028,-0.00530798,0.00589713,0.0815988,0.0369176,0.00951513,2.01617,5,0.1,16,1.7,1.44532,-0.391131,0.772535,0.219359,0.339829,0.138547,0.395842,-1.13304,0.218946,0.00755398,0.294532,5,0.1,17,1.7,3.50405,3.70917,0.500026,-0.380398,-0.257076,0.000296813,0.154406,0.205725,0.000681728,0.0154103,0.155836,5,0.1,18,1.7,0.655955,2.40021,0.549949,-0.0261379,0.00231899,0.0128631,-0.415824,0.00266731,0.0819191,0.010114,0.466199,5,0.1,19,1.7,-3.23638,1.17349,0.622933,0.219911,0.472694,-0.022749,-0.871733,-0.378065,0.0182129,0.00904634,0.232387,5,0.1,20,1.7,-1.38415,-1.76495,0.59985,-0.416514,0.716347,0.0349435,0.306539,-0.382677,-0.0256933,0.00860119,0.378677,5,0.1,21,1.7,1.35386,2.88385,0.6159,-0.521235,-0.269819,0.00487873,0.39839,0.680551,0.0260659,0.0106583,0.797181,5,0.1,22,1.7,1.15419,-0.419128,0.590989,-0.0724465,-0.255763,-0.00676205,0.418171,-0.680717,-0.0206195,0.00880025,0.243628,5,0.1,23,1.7,2.5986,3.35571,0.596475,0.00198334,-0.496208,0.0155652,0.111938,-0.0189096,0.016883,0.00712533,1.44049,5,0.1,24,1.7,-1.59599,2.50421,0.58569,0.634137,-0.501857,0.0130367,-0.368357,1.21509,-0.00755489,0.00938876,0.719398,5,0.1,25,1.7,1.54317,-2.5013,0.590325,-0.191629,0.646955,0.00959458,0.153296,-0.428826,-0.00768527,0.0197935,0.230052,5,0.1,26,1.7,3.57578,0.822066,0.649325,-0.150316,0.390135,0.0335963,0.0486821,-0.126388,-0.0109002,0.009256,0.0916153,5,0.1,27,1.7,-0.0166894,-3.33607,0.578735,-0.313761,0.138668,0.0235519,0.10165,-0.292793,-0.00764057,0.00971479,0.0983065,5,0.1,28,1.7,-2.85246,-1.62705,0.590505,0.672684,-0.0227591,0.00941111,0.255674,0.0181571,-0.00755861,0.00790494,0.599693,5,0.1,29,1.7,1.20113,-0.135203,0.598826,-0.0161011,-0.186492,0.00225445,0.157848,0.0717105,-0.00179186,0.00872355,0.198869,5,0.1
0,1.8,3.62778,-3.03388,0.597131,-0.0392973,0.866026,0.000628829,0.00798702,0,-0.000119209,0.0168015,2.27094,5,0.1,1,1.8,-1,4.00137,0.500042,0.190413,-0.00604391,2.83122e-05,0.186533,0.120878,-0.000596046,0.0136261,0.708853,5,0.1,2,1.8,-0.904253,-0.848051,0.651779,-0.175549,-0.780444,-0.0217631,0.196368,0.377655,0.0107884,0.0140194,0.361237,5,0.1,3,1.8,1.14534,-1.00749,0.573399,-0.776571,0.548799,0.019671,-0.0228286,-0.186235,-0.00724196,0.0176135,1.25435,5,0.1,4,1.8,0.766568,2.94761,0.587383,-0.0338137,-0.225931,0.0102937,-0.432819,-0.754833,-0.00679493,0.00999567,0.516041,5,0.1,5,1.8,-1.89859,-3.49066,0.614512,0.250089,0.387561,-0.0146002,-0.23669,-0.216484,0.0138283,0.00856011,0.36258,5,0.1,6,1.8,-2.263,-0.807433,0.586782,-0.866026,0.248994,0.0383228,0,-0.090003,-0.0138283,0.00878871,1.44901,5,0.1,7,1.8,-1.63355,1.12775,0.721534,-0.0549793,-0.45625,0.0238448,-0.0444055,-1.05339,-0.0188053,0.0103262,2.6134,5,0.1,8,1.8,1.47426,-1.63581,0.566751,-0.0983983,0.866026,0.0230998,0.0710487,0,-0.00631809,0.0294614,1.71601,5,0.1,9,1.8,-2.2549,-3.53384,0.500067,0.431609,0.366634,0.000146031,-0.533104,-0.369191,-0.00116229,0.0276885,0.230015,5,0.1,10,1.8,-2.09715,-0.294413,0.60491,0.449806,0.145286,-0.00494719,-0.425577,-0.137523,0.00470877,0.015605,0.126716,5,0.1,11,1.8,1.77896,3.59275,0.610415,0.850278,-0.259417,-0.00949353,-0.263453,0.109315,0.00920892,0.00886771,0.459905,5,0.1,12,1.8,-3.01482,2.70564,0.585152,0.67237,-0.307447,0.0149399,-0.267744,0.291109,-0.0141561,0.0186629,0.383928,5,0.1,13,1.8,1.20522,2.62391,0.566632,0.858513,-0.126511,-0.0115111,0.150263,0.463009,0.00956655,0.0071714,2.24738,5,0.1,14,1.8,-0.107207,-0.339989,0.635002,0.0775417,0.28687,0.00638813,-0.532687,0.0948757,-0.0766516,0.00941568,0.159676,5,0.1,15,1.8,0.0944066,-1.13488,0.583831,0.864137,-0.655228,-0.00182986,-0.0377667,0.181019,0.0319779,0.00901438,1.58274,5,0.1,16,1.8,1.46914,-0.362679,0.787457,0.255543,0.230943,0.15925,0.307381,-1.02986,0.181049,0.00839997,0.284381,5,0.1,17,1.8,3.46681,3.68451,0.500056,-0.363612,-0.235885,0.000272691,0.193834,0.223279,-0.000923872,0.0136792,0.347126,5,0.1,18,1.8,0.65132,2.40043,0.551634,-0.065659,0.00177622,0.0206575,-0.361353,-0.0112057,0.0709295,0.0113881,0.446151,5,0.1,19,1.8,-3.21852,1.21883,0.620751,0.139952,0.433743,-0.0208735,-0.71919,-0.410497,0.0197887,0.00945341,0.323344,5,0.1,20,1.8,-1.42423,-1.69534,0.603213,-0.384477,0.674361,0.032258,0.342667,-0.474274,-0.0287592,0.0076328,0.25397,5,0.1,21,1.8,1.30346,2.85971,0.616482,-0.488821,-0.217932,0.00641793,0.282466,0.382304,0.00587106,0.00790729,0.738989,5,0.1,22,1.8,1.14874,-0.447832,0.59022,-0.0394553,-0.315006,-0.00849813,0.251234,-0.483632,-0.0136495,0.00906164,0.192301,5,0.1,23,1.8,2.6,3.30601,0.598118,0.0319302,-0.496882,0.0172555,0.463605,0.0320673,0.0153482,0.00713409,1.19241,5,0.1,24,1.8,-1.53451,2.4599,0.586954,0.59402,-0.386953,0.0122145,-0.448048,1.05286,-0.00923872,0.00740325,0.606236,5,0.1,25,1.8,1.52479,-2.43882,0.591245,-0.175837,0.601715,0.00880361,0.166416,-0.490785,-0.00834465,0.0203723,0.153918,5,0.1,26,1.8,3.56102,0.860383,0.652625,-0.144583,0.37524,0.0323117,0.0708103,-0.183731,-0.015825,0.0075123,0.0694997,5,0.1,27,1.8,-0.0475053,-3.3237,0.581048,-0.301782,0.108594,0.0226513,0.147786,-0.302911,-0.0110865,0.0107373,0.208981,5,0.1,28,1.8,-2.78424,-1.62924,0.591408,0.687867,-0.0208884,0.00863373,0.0245571,0.0197291,-0.00819564,0.0111372,0.416699,5,0.1,29,1.8,1.20018,-0.153466,0.599041,-0.00427663,-0.178351,0.00204891,0.0821948,0.0967979,-0.00232458,0.00826048,0.408845,5,0.1
0,1.9,3.62388,-2.94727,0.597194,-0.0389263,0.866026,0.000623893,0.00178814,0,-1.86265e-05,0.0168015,2.27094,5,0.1,1,1.9,-0.979398,4.00134,0.500042,0.226543,0.00514835,-2.23517e-05,0.483178,0.101328,-0.000417233,0.0136261,0.708853,5,0.1,2,1.9,-0.920876,-0.924328,0.649654,-0.157315,-0.745603,-0.0207395,0.172526,0.346441,0.0103749,0.0140194,0.361237,5,0.1,3,1.9,1.06722,-0.95347,0.575334,-0.787945,0.531642,0.0190484,-0.150912,-0.177339,-0.00603124,0.0176135,1.25435,5,0.1,4,1.9,0.761057,2.92124,0.588381,-0.0757366,-0.300653,0.00969311,-0.393283,-0.707433,-0.00560656,0.00999567,0.516041,5,0.1,5,1.9,-1.8747,-3.45257,0.613117,0.22816,0.377397,-0.0133191,-0.208683,-0.021711,0.0121929,0.00856011,0.36258,5,0.1,6,1.9,-2.34959,-0.78294,0.590551,-0.865831,0.24103,0.037099,0.00779331,-0.0791959,-0.012178,0.00878871,1.44901,5,0.1,7,1.9,-1.63933,1.07621,0.723832,-0.060961,-0.578502,0.0221762,-0.0680536,-1.30085,-0.0154413,0.0103262,2.6134,5,0.1,8,1.9,1.46474,-1.54921,0.569035,-0.0922881,0.866023,0.0225997,0.0552237,-8.9407e-05,-0.00474602,0.0294614,1.71601,5,0.1,9,1.9,-2.2142,-3.49893,0.500076,0.383899,0.332153,3.7346e-05,-0.434607,-0.32942,-0.0010021,0.0276885,0.230015,5,0.1,10,1.9,-2.05397,-0.280467,0.604436,0.416373,0.134481,-0.00457698,-0.268862,-0.0868887,0.00298396,0.015605,0.126716,5,0.1,11,1.9,1.86273,3.56751,0.609508,0.824922,-0.243956,-0.00867238,-0.27328,0.197291,0.00753626,0.00886771,0.459905,5,0.1,12,1.9,-2.94876,2.67627,0.586579,0.649666,-0.280479,0.0136285,-0.215158,0.256598,-0.012476,0.0186629,0.383928,5,0.1,13,1.9,1.29153,2.61396,0.565554,0.865556,-0.0695609,-0.00982657,0.0187829,0.642747,0.022687,0.0071714,2.24738,5,0.1,14,1.9,-0.102196,-0.311252,0.635242,0.0223472,0.283954,-0.00167824,-0.552876,-0.141019,-0.0815615,0.00941568,0.159676,5,0.1,15,1.9,0.180802,-1.1997,0.583761,0.864542,-0.642125,2.93367e-05,0.0100026,0.113972,0.00723079,0.00901438,1.58274,5,0.1,16,1.9,1.49615,-0.344847,0.804294,0.283464,0.125328,0.177252,0.236452,-1.05291,0.166528,0.00839997,0.284381,5,0.1,17,1.9,3.43101,3.66197,0.500078,-0.355545,-0.215201,0.000162143,0.00174344,0.196829,-0.00122562,0.0136792,0.347126,5,0.1,18,1.9,0.642983,2.40056,0.554049,-0.100413,0.00109784,0.0275247,-0.322253,-0.00356138,0.0637248,0.0113881,0.446151,5,0.1,19,1.9,-3.2078,1.26027,0.618757,0.0775721,0.395712,-0.0190408,-0.527516,-0.361912,0.0174381,0.00945341,0.323344,5,0.1,20,1.9,-1.46105,-1.63014,0.606302,-0.352636,0.630374,0.0295858,0.304744,-0.426307,-0.0255741,0.0076328,0.25397,5,0.1,21,1.9,1.25703,2.84077,0.617314,-0.430754,-0.15296,0.011565,0.823796,0.854135,0.0863969,0.00790729,0.738989,5,0.1,22,1.9,1.14576,-0.481691,0.589302,-0.0225881,-0.36096,-0.00986168,0.0981018,-0.411671,-0.0128187,0.00906164,0.192301,5,0.1,23,1.9,2.60621,3.25632,0.599928,0.0977669,-0.497748,0.0189857,0.793561,-0.0203699,0.0175945,0.00713409,1.19241,5,0.1,24,1.9,-1.47724,2.42613,0.588132,0.552203,-0.29333,0.0113525,-0.405572,0.773713,-0.00835583,0.00740325,0.606236,5,0.1,25,1.9,1.50799,-2.38096,0.592086,-0.160419,0.556341,0.0080307,0.146724,-0.434518,-0.00735,0.0203723,0.153918,5,0.1,26,1.9,3.54686,0.897118,0.655788,-0.138814,0.360264,0.0310214,0.0516623,-0.13417,-0.0115633,0.0075123,0.0694997,5,0.1,27,1.9,-0.0769658,-3.31434,0.58326,-0.287409,0.0790302,0.0215728,0.14864,-0.283852,-0.0111535,0.0107373,0.208981,5,0.1,28,1.9,-2.71534,-1.63123,0.592232,0.689511,-0.0190601,0.00787517,-0.0197291,0.0174046,-0.00721589,0.0111372,0.416699,5,0.1,29,1.9,1.20017,-0.170832,0.599234,0.003957,-0.16899,0.0018103,0.0734031,0.0955909,-0.00244379,0.00826048,0.408845,5,0.1
0,2,3.62,-2.86067,0.597256,-0.0385344,0.866026,0.000618398,0.00762939,0,-0.000119209,0.0193595,2.27097,5,0.1,1,2,-0.954197,4.00232,0.500038,0.277773,0.0139475,-5.66244e-05,0.501513,0.0736713,-0.000238419,0.0119826,0.236825,5,0.1,2,2,-0.935756,-0.997026,0.647636,-0.140332,-0.706567,-0.0195712,0.170082,0.452787,0.0134706,0.00896505,0.244254,5,0.1,3,2,0.98782,-0.901314,0.577205,-0.797553,0.509903,0.018324,-0.00298023,-0.27135,-0.0089705,0.0147206,0.907524,5,0.1,4,2,0.751666,2.88793,0.589322,-0.110386,-0.361967,0.0091061,-0.291169,-0.496507,-0.0064075,0.00980247,0.394852,5,0.1,5,2,-1.85293,-3.41486,0.611846,0.207204,0.377136,-0.0120953,-0.215232,-0.00929832,0.0125766,0.00805555,0.158197,5,0.1,6,2,-2.43608,-0.759282,0.594193,-0.862902,0.231482,0.0356317,0.0622272,-0.118524,-0.0182688,0.00899089,1.08896,5,0.1,7,2,-1.64576,1.01206,0.725973,-0.0673473,-0.700718,0.0206083,-0.054419,-1.0772,-0.0165403,0.00861778,2.13767,5,0.1,8,2,1.45579,-1.46261,0.571266,-0.0866532,0.865993,0.0219703,0.0602603,-0.000655651,-0.00858307,0.0284853,1.08032,5,0.1,9,2,-2.17791,-3.46736,0.500075,0.342363,0.299221,-5.06639e-05,-0.405788,-0.335097,-0.00077486,0.0264421,0.179152,5,0.1,10,2,-2.01359,-0.267426,0.603992,0.391564,0.126464,-0.00430197,-0.246286,-0.0795722,0.00271201,0.0144934,0.0730955,5,0.1,11,2,1.94365,3.54422,0.608678,0.790676,-0.220519,-0.0079304,-0.431418,0.268459,0.00753999,0.0107145,0.305897,5,0.1,12,2,-2.88498,2.6495,0.587879,0.624454,-0.254714,0.0123754,-0.30899,0.264645,-0.0128448,0.017731,0.266458,5,0.1,13,2,1.37812,2.61029,0.564696,0.866026,-0.00382662,-0.00723302,0,0.64671,0.028044,0.00876441,1.77476,5,0.1,14,2,-0.102634,-0.283866,0.634679,-0.029863,0.260986,-0.00938475,-0.477958,-0.307322,-0.0702441,0.0103145,0.130266,5,0.1,15,2,0.267159,-1.26323,0.583773,0.860583,-0.626826,-1.93715e-05,-0.108838,0.215054,-0.00652671,0.00728794,1.15292,5,0.1,16,2,1.52547,-0.337416,0.822745,0.300422,0.0254773,0.190456,0.0932813,-0.922471,0.0890195,0.0260375,3.92429,5,0.1,17,2,3.39538,3.64144,0.500088,-0.357288,-0.195432,3.72529e-05,-0.0112057,0.202894,-0.0012219,0.013812,0.28232,5,0.1,18,2,0.631472,2.40066,0.557091,-0.128184,0.000870228,0.0329524,-0.225395,-0.00214577,0.0429749,0.0113471,0.423923,5,0.1,19,2,-3.20236,1.29803,0.61694,0.0343442,0.359365,-0.0172898,-0.33915,-0.373244,0.017941,0.00882642,1.94955,5,0.1,20,2,-1.49478,-1.5693,0.609133,-0.321746,0.585592,0.026992,0.320494,-0.483572,-0.0268519,0.00822823,0.169886,5,0.1,21,2,1.21859,2.8301,0.618963,-0.333998,-0.0582993,0.0218064,1.06698,0.990033,0.110209,0.0104495,0.821993,5,0.1,22,2,1.14382,-0.519567,0.588258,-0.0176698,-0.393368,-0.010924,0.0100732,-0.220448,-0.00795722,0.00851361,0.16392,5,0.1,23,2,2.6201,3.20655,0.601907,0.180167,-0.496018,0.0204906,0.809431,0.0753403,0.0113547,0.00689692,0.324271,5,0.1,24,2,-1.42409,2.4,0.589225,0.510001,-0.235659,0.010483,-0.450432,0.391126,-0.00923872,0.00710482,0.484096,5,0.1,25,2,1.49268,-2.32753,0.592852,-0.145683,0.511801,0.00729263,0.151336,-0.468612,-0.00756979,0.0203791,0.102989,5,0.1,26,2,3.53325,0.932432,0.658829,-0.133049,0.345293,0.0297308,0.0685453,-0.178069,-0.0153482,0.00778895,0.0309833,5,0.1,27,2,-0.104903,-3.30779,0.585357,-0.270561,0.0525773,0.0203088,0.194274,-0.241995,-0.0145733,0.00897375,0.194586,5,0.1,28,2,-2.64674,-1.63305,0.592984,0.679255,-0.0173092,0.00715107,-0.204206,0.0178814,-0.00742078,0.0100752,0.281716,5,0.1,29,2,1.20086,-0.187221,0.599403,0.0090152,-0.158371,0.00156015,0.0228286,0.120223,-0.0025332,0.00903513,0.713949,5,0.1
0,2.1,3.61617,-2.77407,0.597318,-0.0381999,0.866026,0.000613462,0.00140071,0,-1.86265e-05,0.0193595,2.27097,5,0.1,1,2.1,-0.924003,4.00406,0.500031,0.32465,0.020548,-7.1805e-05,0.415418,0.0570714,-7.07805e-05,0.0119826,0.236825,5,0.1,2,2.1,-0.948989,-1.06555,0.645743,-0.124736,-0.664574,-0.0183079,0.145424,0.409614,0.012368,0.00896505,0.244254,5,0.1,3,2.1,0.907882,-0.851606,0.578996,-0.801802,0.48458,0.0175105,-0.0394359,-0.251915,-0.00797212,0.0147206,0.907524,5,0.1,4,2.1,0.739372,2.84966,0.590208,-0.133451,-0.399324,0.00867797,-0.169542,-0.246689,-0.00280514,0.00980247,0.394852,5,0.1,5,2.1,-1.83322,-3.37731,0.610696,0.187443,0.372399,-0.0109406,-0.185706,-0.0925958,0.010848,0.00805555,0.158197,5,0.1,6,2.1,-2.52232,-0.736687,0.597671,-0.863294,0.220601,0.0339545,-0.023827,-0.107206,-0.0165179,0.00899089,1.08896,5,0.1,7,2.1,-1.65278,0.937039,0.727958,-0.0733081,-0.794589,0.0191391,-0.0590533,-0.767115,-0.0135973,0.00861778,2.13767,5,0.1,8,2.1,1.44728,-1.37602,0.573268,-0.0846736,0.865471,0.0167598,-0.00996888,-0.0210404,-0.0866093,0.0284853,1.08032,5,0.1,9,2.1,-2.14548,-3.43903,0.500067,0.308058,0.26804,-0.000108406,-0.295609,-0.29555,-0.000402331,0.0264421,0.179152,5,0.1,10,2.1,-1.97553,-0.255152,0.603574,0.370629,0.119156,-0.00407137,-0.189364,-0.0708541,0.00208616,0.0144934,0.0730955,5,0.1,11,2.1,2.02065,3.52355,0.60792,0.749802,-0.192787,-0.00725593,-0.410609,0.284895,0.00621378,0.0107145,0.305897,5,0.1,12,2.1,-2.82395,2.62528,0.589057,0.596713,-0.23042,0.0111959,-0.269264,0.228286,-0.0110827,0.017731,0.266458,5,0.1,13,2.1,1.46472,2.61322,0.564121,0.865933,0.0627004,-0.00422318,-0.00371784,0.659049,0.0310987,0.00876441,1.77476,5,0.1,14,2.1,-0.107941,-0.259538,0.633398,-0.0752866,0.223597,-0.0160887,-0.419001,-0.426739,-0.0618659,0.0103145,0.130266,5,0.1,15,2.1,0.3529,-1.32496,0.583718,0.855344,-0.608464,-0.00125989,-0.0413117,0.178717,-0.0167638,0.00728794,1.15292,5,0.1,16,2.1,1.55513,-0.336787,0.841815,0.285312,0.0103953,0.187153,-0.35686,0.478003,-0.138875,0.0260375,3.92429,5,0.1,17,2.1,3.35981,3.62285,0.500086,-0.352032,-0.176804,-6.38887e-05,0.117585,0.175074,-0.000812113,0.013812,0.28232,5,0.1,18,2.1,0.617609,2.40084,0.560585,-0.148083,0.00330545,0.0367231,-0.165682,0.0381619,0.0308119,0.0113471,0.423923,5,0.1,19,2.1,-3.20063,1.33221,0.615296,0.00166409,0.325098,-0.0156427,-0.26755,-0.322051,0.0154823,0.00882642,1.94955,5,0.1,20,2.1,-1.52545,-1.51302,0.611705,-0.292241,0.540941,0.0245195,0.278518,-0.426829,-0.0233427,0.00822823,0.169886,5,0.1,21,2.1,1.18944,2.82797,0.621562,-0.258683,0.00475422,0.0289655,0.488773,0.321478,0.0370853,0.0104495,0.821993,5,0.1,22,2.1,1.14198,-0.560009,0.587122,-0.020393,-0.414912,-0.0118126,-0.0557601,-0.187591,-0.00888482,0.00851361,0.16392,5,0.1,23,2.1,2.64201,3.15763,0.603973,0.256166,-0.47943,0.0204485,0.687853,0.254825,-0.0108108,0.00689692,0.324271,5,0.1,24,2.1,-1.37522,2.37767,0.590229,0.468323,-0.217078,0.00962773,-0.39763,0.0234395,-0.00816211,0.00710482,0.484096,5,0.1,25,2.1,1.47882,-2.27855,0.593546,-0.131789,0.468719,0.00659768,0.130571,-0.407919,-0.00652671,0.0203791,0.102989,5,0.1,26,2.1,3.52029,0.96608,0.661726,-0.126205,0.327512,0.0281983,0.0720024,-0.187017,-0.0161193,0.00778895,0.0309833,5,0.1,27,2.1,-0.130997,-3.30365,0.587315,-0.251292,0.0312489,0.0188631,0.19669,-0.184163,-0.0147633,0.00897375,0.194586,5,0.1,28,2.1,-2.57981,-1.6347,0.593664,0.659227,-0.0156661,0.00647008,-0.2193,0.01546,-0.00640005,0.0100752,0.281716,5,0.1,29,2.1,1.2019,-0.202613,0.599634,0.0113551,-0.150701,0.00380659,0.000432134,0.0456721,0.0419207,0.00903513,0.713949,5,0.1
0,2.2,3.61236,-2.68747,0.597379,-0.0378549,0.866026,0.000609457,0.00715256,0,-0.000149012,0.0162066,2.271,5,0.1,1,2.2,-0.889741,4.00636,0.500024,0.357427,0.0251651,-7.45058e-05,0.226438,0.0345707,5.96046e-05,0.0140674,0.165552,5,0.1,2,2.2,-0.960753,-1.12988,0.643976,-0.110635,-0.620851,-0.0169992,0.139147,0.480294,0.0141859,0.00851724,0.164036,5,0.1,3,2.2,0.827729,-0.804487,0.580704,-0.798233,0.456698,0.0166178,0.140369,-0.317186,-0.010401,0.0116884,0.431755,5,0.1,4,2.2,0.725383,2.80893,0.591063,-0.144301,-0.410867,0.00843257,-0.0481606,0.0160933,-0.0025928,0.00939213,0.311145,5,0.1,5,2.2,-1.8154,-3.34072,0.609655,0.169086,0.357509,-0.00986904,-0.18543,-0.209093,0.0108182,0.0081807,0.272664,5,0.1,6,2.2,-2.6086,-0.715198,0.600978,-0.859958,0.208674,0.032118,0.121236,-0.136882,-0.0211,0.00833717,0.789358,5,0.1,7,2.2,-1.66038,0.854452,0.729803,-0.0781745,-0.849754,0.0177622,-0.0343323,-0.325441,-0.0144541,0.00879683,0.183719,5,0.1,8,2.2,1.43872,-1.28975,0.574443,-0.0867665,0.857446,0.00625998,-0.0237823,-0.171602,-0.116289,0.0314691,0.788475,5,0.1,9,2.2,-2.11608,-3.41368,0.500055,0.280577,0.238919,-0.00013262,-0.26536,-0.291467,-0.000149012,0.0266031,0.140546,5,0.1,10,2.2,-1.93943,-0.243604,0.603177,0.350797,0.111573,-0.00385344,-0.219226,-0.0837222,0.00241399,0.0152332,0.116587,5,0.1,11,2.2,2.09345,3.50571,0.607225,0.704455,-0.163817,-0.00664145,-0.512958,0.293136,0.00628829,0.0110672,2.6145,5,0.1,12,2.2,-2.76571,2.60336,0.590121,0.566649,-0.207853,0.0101,-0.34821,0.227809,-0.0110567,0.0160054,0.182243,5,0.1,13,2.2,1.55127,2.62264,0.563852,0.864539,0.123709,-0.00119805,-0.0297427,0.543356,0.0286102,0.0116476,1.35723,5,0.1,14,2.2,-0.11739,-0.239414,0.631507,-0.11174,0.178126,-0.0214294,-0.302326,-0.47151,-0.043571,0.0101732,0.159487,5,0.1,15,2.2,0.438035,-1.3848,0.583501,0.844613,-0.586599,-0.00310391,-0.205026,0.276923,-0.0189841,0.00801112,0.813713,5,0.1,16,2.2,1.5814,-0.332018,0.859571,0.236067,0.0954926,0.165668,-0.596404,1.1109,-0.277191,0.0277427,3.18686,5,0.1,17,2.2,3.32541,3.60603,0.500076,-0.333703,-0.159496,-0.00012666,0.248313,0.174761,-0.000447035,0.0146953,0.269661,5,0.1,18,2.2,0.602117,2.40134,0.56438,-0.160205,0.00645518,0.0388503,-0.0725091,0.0171661,0.0107586,0.0112194,0.353887,5,0.1,19,2.2,-3.2014,1.36313,0.613808,-0.0125885,0.293264,-0.0141114,0.00107288,-0.321507,0.0154376,0.00765258,1.80773,5,0.1,20,2.2,-1.55329,-1.46108,0.614041,-0.264531,0.49729,0.0221953,0.28193,-0.458241,-0.0236332,0.0105309,0.113766,5,0.1,21,2.2,1.16539,2.8293,0.624552,-0.227359,0.0151634,0.0299871,0.177026,-0.0722408,-0.0130832,0.0145983,0.634033,5,0.1,22,2.2,1.13961,-0.602231,0.585901,-0.0272691,-0.427057,-0.0125408,-0.0750422,-0.0398457,-0.00503659,0.00791615,0.153048,5,0.1,23,2.2,2.67072,3.11124,0.605936,0.313962,-0.445545,0.0185862,0.452995,0.419617,-0.0252426,0.00940214,0.216238,5,0.1,24,2.2,-1.33038,2.35576,0.591151,0.428024,-0.223345,0.00880063,-0.418365,-0.115633,-0.00858307,0.0091023,0.372494,5,0.1,25,2.2,1.46629,-2.23372,0.594173,-0.118884,0.427687,0.00595301,0.130415,-0.422955,-0.00652671,0.020499,0.187246,5,0.1,26,2.2,3.50806,0.997819,0.664459,-0.118053,0.306337,0.0263736,0.0933409,-0.242561,-0.0208914,0.00958637,0.0116874,5,0.1,27,2.2,-0.155102,-3.30135,0.589125,-0.230309,0.0157416,0.0172883,0.226513,-0.126481,-0.0169873,0.00878294,0.406666,5,0.1,28,2.2,-2.51516,-1.63619,0.594279,0.631559,-0.0141382,0.00583827,-0.349164,0.0154972,-0.0064075,0.0080767,0.187556,5,0.1,29,2.2,1.20286,-0.217493,0.60026,0.00587404,-0.147061,0.00896007,-0.118792,0.0363812,0.056833,0.00886686,0.653849,5,0.1
0,2.3,3.60859,-2.60086,0.597439,-0.0375625,0.866026,0.0006021,0.000998378,0,-3.35276e-05,0.0162066,2.271,5,0.1,1,2.3,-0.852942,4.00903,0.500017,0.377382,0.0280969,-6.52857e-05,0.15625,0.0230372,0.000115484,0.0140674,0.165552,5,0.1,2,2.3,-0.971166,-1.1897,0.642343,-0.0979993,-0.576431,-0.0156814,0.116598,0.426859,0.0126511,0.00851724,0.164036,5,0.1,3,2.3,0.749211,-0.761511,0.582278,-0.766342,0.393322,0.0145525,0.486985,-0.888657,-0.0289828,0.0116884,0.431755,5,0.1,4,2.3,0.710922,2.76822,0.591898,-0.142988,-0.400253,0.00829995,0.0684448,0.192985,-0.000610948,0.00939213,0.311145,5,0.1,5,2.3,-1.79928,-3.30638,0.608715,0.154426,0.325884,-0.00901381,-0.117667,-0.408337,0.00686571,0.0081807,0.272664,5,0.1,6,2.3,-2.69418,-0.694975,0.604091,-0.852351,0.196022,0.0301679,0.0733286,-0.122871,-0.0189282,0.00833717,0.789358,5,0.1,7,2.3,-1.66822,0.768632,0.731513,-0.077216,-0.859113,0.0164651,0.0481606,0.127643,-0.0121035,0.00879683,0.183719,5,0.1,8,2.3,1.43007,-1.20477,0.574587,-0.0847943,0.842294,-0.00247685,0.0579953,-0.166558,-0.0613891,0.0314691,0.788475,5,0.1,9,2.3,-2.08919,-3.39117,0.500041,0.258489,0.21208,-0.000135135,-0.189587,-0.251129,8.56817e-05,0.0266031,0.140546,5,0.1,10,2.3,-1.90539,-0.232956,0.602804,0.330239,0.100586,-0.00362685,-0.202835,-0.132422,0.00223145,0.0152332,0.116587,5,0.1,11,2.3,2.1624,3.48965,0.606543,0.683007,-0.167095,-0.00739256,0.00445545,-0.28877,-0.0181682,0.0110672,2.6145,5,0.1,12,2.3,-2.71068,2.58365,0.59108,0.53477,-0.18709,0.00909194,-0.308618,0.193387,-0.00938773,0.0160054,0.182243,5,0.1,13,2.3,1.63771,2.63769,0.563875,0.864873,0.176293,0.00162292,0.00592321,0.489503,0.0270233,0.0116476,1.35723,5,0.1,14,2.3,-0.130038,-0.223958,0.62915,-0.140528,0.131243,-0.0256144,-0.261542,-0.457488,-0.0380911,0.0101732,0.159487,5,0.1,15,2.3,0.521614,-1.44218,0.583089,0.82744,-0.561497,-0.00518253,-0.174876,0.246719,-0.0214465,0.00801112,0.813713,5,0.1,16,2.3,1.60157,-0.315848,0.874751,0.163778,0.235879,0.137974,-0.812016,1.59189,-0.274807,0.0277427,3.18686,5,0.1,17,2.3,3.29362,3.5909,0.500062,-0.299205,-0.143567,-0.000153389,0.426263,0.148386,-0.000108033,0.0146953,0.269661,5,0.1,18,2.3,0.585863,2.40206,0.568291,-0.163548,0.00752211,0.0390872,0.00607595,-0.0107288,-0.00614673,0.0112194,0.353887,5,0.1,19,2.3,-3.20229,1.39095,0.612469,1.04308e-05,0.26396,-0.0127039,0.310868,-0.272907,0.0131093,0.00765258,1.80773,5,0.1,20,2.3,-1.57842,-1.4135,0.61615,-0.238771,0.455203,0.0200354,0.240758,-0.398055,-0.0201911,0.0105309,0.113766,5,0.1,21,2.3,1.143,2.82988,0.627425,-0.224922,-0.0083264,0.026948,-0.0904799,-0.359729,-0.044696,0.0145983,0.634033,5,0.1,22,2.3,1.13647,-0.64522,0.584615,-0.0358153,-0.432957,-0.0132172,-0.0899434,-0.0543483,-0.0074096,0.00791615,0.153048,5,0.1,23,2.3,2.70424,3.06887,0.607654,0.35474,-0.401257,0.0156322,0.344783,0.466257,-0.0328571,0.00940214,0.216238,5,0.1,24,2.3,-1.28955,2.33253,0.591991,0.389597,-0.243778,0.00801189,-0.362337,-0.260144,-0.0074394,0.0091023,0.372494,5,0.1,25,2.3,1.45468,-2.19272,0.594741,-0.116474,0.394946,0.00543706,-0.0575855,-0.25776,-0.00414252,0.020499,0.187246,5,0.1,26,2.3,3.49673,1.02722,0.66699,-0.108488,0.281486,0.0242334,0.0995547,-0.258576,-0.0222698,0.00958637,0.0116874,5,0.1,27,2.3,-0.177019,-3.30041,0.59077,-0.208104,0.00322275,0.0156224,0.221057,-0.114128,-0.016585,0.00878294,0.406666,5,0.1,28,2.3,-2.45368,-1.63753,0.594833,0.598291,-0.012725,0.0052548,-0.335261,0.0131652,-0.0054352,0.0080767,0.187556,5,0.1,29,2.3,1.20273,-0.232097,0.601473,-0.0108866,-0.145562,0.0155262,-0.253774,0.00339467,0.0703149,0.00886686,0.653849,5,0.1
0,2.4,3.60485,-2.51426,0.597499,-0.0372589,0.866026,0.000596046,0.00667572,0,-0.000119209,0.0151441,2.27102,5,0.1,1,2.4,-0.814648,4.01193,0.500011,0.385967,0.0296116,-5.36442e-05,0.00482798,0.00667572,0.000178814,0.0134133,0.189043,5,0.1,2,2.4,-0.9804,-1.24517,0.640839,-0.0867933,-0.532314,-0.0143871,0.109613,0.468373,0.0135899,0.0118928,0.109957,5,0.1,3,2.4,0.675509,-0.727144,0.583571,-0.703019,0.290056,0.0111684,0.768036,-1.12748,-0.0371933,0.0116939,0.579807,5,0.1,4,2.4,0.697116,2.72943,0.592725,-0.131749,-0.373006,0.00821501,0.150919,0.347376,-0.00149012,0.00984786,0.869095,5,0.1,5,2.4,-1.78438,-3.27606,0.607845,0.143835,0.278646,-0.0083968,-0.101447,-0.523448,0.00593066,0.00852097,0.261325,5,0.1,6,2.4,-2.77884,-0.676008,0.60701,-0.838101,0.182971,0.0281572,0.241041,-0.142723,-0.0219345,0.00778271,0.554846,5,0.1,7,2.4,-1.6756,0.684051,0.733099,-0.0695378,-0.825702,0.0152379,0.100791,0.536382,-0.0129044,0.00840438,0.0669633,5,0.1,8,2.4,1.42198,-1.1216,0.574103,-0.0761449,0.818232,-0.00656545,0.110567,-0.338674,-0.0228584,0.0352092,0.662625,5,0.1,9,2.4,-2.06425,-3.37119,0.500028,0.24038,0.187701,-0.000117719,-0.182152,-0.240684,0.000178814,0.0242097,0.21769,5,0.1,10,2.4,-1.87343,-0.223615,0.602452,0.308403,0.0857633,-0.00338703,-0.24122,-0.160888,0.00265241,0.0146246,0.145717,5,0.1,11,2.4,2.23104,3.47101,0.605694,0.691402,-0.209153,-0.00971705,0.103593,-0.498295,-0.025928,0.00889677,2.57106,5,0.1,12,2.4,-2.65881,2.56589,0.591943,0.50168,-0.168169,0.00817329,-0.366449,0.189304,-0.00920892,0.0178905,0.123512,5,0.1,13,2.4,1.72409,2.65755,0.564164,0.860959,0.218433,0.00407398,-0.101388,0.340343,0.0214279,0.00739365,1.00135,5,0.1,14,2.4,-0.145252,-0.213039,0.626421,-0.16207,0.0880986,-0.0287101,-0.161417,-0.399359,-0.0224113,0.0114871,0.14078,5,0.1,15,2.4,0.60329,-1.497,0.582467,0.803486,-0.533617,-0.00719577,-0.329256,0.325739,-0.0179708,0.00912578,0.561256,5,0.1,16,2.4,1.61378,-0.284218,0.887192,0.0802785,0.395506,0.111054,-0.82922,1.52194,-0.262052,0.026271,2.68747,5,0.1,17,2.4,3.26602,3.57727,0.500047,-0.251281,-0.12905,-0.000151992,0.519276,0.145316,0.000119209,0.0143015,0.262832,5,0.1,18,2.4,0.569671,2.40263,0.572141,-0.159004,0.00233054,0.037621,0.0842512,-0.0981092,-0.0231266,0.00649272,0.37633,5,0.1,19,2.4,-3.2,1.41601,0.611263,0.052762,0.237253,-0.0114202,0.715852,-0.267029,0.0128448,0.00830546,1.56,5,0.1,20,2.4,-1.60111,-1.36997,0.618054,-0.215101,0.415215,0.0180513,0.237882,-0.411808,-0.0199974,0.0112759,0.132014,5,0.1,21,2.4,1.11987,2.82703,0.629865,-0.238791,-0.0500619,0.0215933,-0.158131,-0.445724,-0.0600219,0.00915319,0.510692,5,0.1,22,2.4,1.13245,-0.688652,0.58326,-0.0442356,-0.433899,-0.0138357,-0.074029,0.0520051,-0.00417233,0.0105049,2.07004,5,0.1,23,2.4,2.74114,3.03115,0.609047,0.379997,-0.352377,0.0121921,0.148654,0.510454,-0.0351071,0.00874936,0.142995,5,0.1,24,2.4,-1.25239,2.30683,0.592755,0.353488,-0.269657,0.00727028,-0.368297,-0.233054,-0.00756979,0.00681519,0.282421,5,0.1,25,2.4,1.4426,-2.15442,0.595266,-0.126052,0.371641,0.0050649,-0.115097,-0.227571,-0.00357628,0.0185183,0.115188,5,0.1,26,2.4,3.4864,1.05403,0.669298,-0.0978947,0.253978,0.0218645,0.11313,-0.293732,-0.0253022,0.0097616,0.005904,5,0.1,27,2.4,-0.19671,-3.30058,0.592248,-0.185537,-0.00556707,0.0139296,0.232443,-0.0565052,-0.0174642,0.00835138,1.06459,5,0.1,28,2.4,-2.39563,-1.63874,0.595332,0.561309,-0.0114381,0.00472367,-0.416875,0.0129342,-0.00530481,0.00892211,0.124115,5,0.1,29,2.4,1.2,-0.246625,0.603372,-0.0471056,-0.144699,0.0222996,-0.455499,0.0209063,0.0620484,0.00963103,0.559984,5,0.1
0,2.5,3.60114,-2.42766,0.597559,-0.0370059,0.866026,0.000591204,0.000670552,0,-1.49012e-05,0.0151441,2.27102,5,0.1,1,2.5,-0.775798,4.01494,0.500007,0.392545,0.0305258,-3.74392e-05,0.0964627,0.00956655,0.000149012,0.0134133,0.189043,5,0.1,2,2.5,-0.988569,-1.2962,0.639464,-0.0769151,-0.489205,-0.013135,0.0904873,0.409469,0.0118539,0.0118928,0.109957,5,0.1,3,2.5,0.608504,-0.702935,0.58453,-0.641512,0.201753,0.00825636,0.501033,-0.668816,-0.0221133,0.0116939,0.579807,5,0.1,4,2.5,0.685002,2.69375,0.593543,-0.107953,-0.341394,0.00818996,0.306353,0.296369,0.000413507,0.00984786,0.869095,5,0.1,5,2.5,-1.7705,-3.25093,0.607035,0.133692,0.223131,-0.00780383,-0.104219,-0.574112,0.00609085,0.00852097,0.261325,5,0.1,6,2.5,-2.86157,-0.658383,0.609722,-0.816977,0.169799,0.0261328,0.215694,-0.126291,-0.0194125,0.00778271,0.554846,5,0.1,7,2.5,-1.68199,0.60443,0.734562,-0.0578867,-0.764051,0.0140729,0.128426,0.696406,-0.0108965,0.00840438,0.0669633,5,0.1,8,2.5,1.41472,-1.04125,0.573698,-0.0707803,0.789839,0.00157841,0.00902265,-0.264984,0.16357,0.0352092,0.662625,5,0.1,9,2.5,-2.04104,-3.35353,0.500018,0.224334,0.166052,-9.45292e-05,-0.148162,-0.197992,0.000271946,0.0242097,0.21769,5,0.1,10,2.5,-1.8437,-0.215868,0.602126,0.28684,0.0689947,-0.00314992,-0.201568,-0.171756,0.00222027,0.0146246,0.145717,5,0.1,11,2.5,2.30012,3.44706,0.604571,0.684612,-0.273621,-0.0129131,-0.232577,-0.733659,-0.0354089,0.00889677,2.57106,5,0.1,12,2.5,-2.61036,2.54995,0.592717,0.467983,-0.151018,0.00733882,-0.323445,0.158653,-0.0077188,0.0178905,0.123512,5,0.1,13,2.5,1.80993,2.68102,0.564675,0.856945,0.249984,0.00609597,-0.0256076,0.276014,0.0184141,0.00739365,1.00135,5,0.1,14,2.5,-0.162168,-0.206093,0.623453,-0.175129,0.0522715,-0.0304867,-0.0941576,-0.313386,-0.0121519,0.0114871,0.14078,5,0.1,15,2.5,0.682113,-1.54884,0.581657,0.773421,-0.503625,-0.00898885,-0.301708,0.291869,-0.0170209,0.00912578,0.561256,5,0.1,16,2.5,1.61757,-0.236744,0.897028,-0.00486262,0.554989,0.0860966,-0.845343,1.58579,-0.236113,0.026271,2.68747,5,0.1,17,2.5,3.24355,3.56505,0.500032,-0.197616,-0.115884,-0.00013262,0.543356,0.121787,0.00025332,0.0143015,0.262832,5,0.1,18,2.5,0.554085,2.40235,0.575681,-0.153487,-0.00971444,0.0322679,0.0366382,-0.196114,-0.0779852,0.00649272,0.37633,5,0.1,19,2.5,-3.19028,1.43849,0.610181,0.148207,0.213059,-0.0102564,1.11474,-0.223845,0.0107698,0.00830546,1.56,5,0.1,20,2.5,-1.62161,-1.33018,0.619774,-0.196394,0.383359,0.0164784,0.149086,-0.250496,-0.0125356,0.0112759,0.132014,5,0.1,21,2.5,1.09497,2.81959,0.631705,-0.260827,-0.100017,0.0150704,-0.253573,-0.524938,-0.0682585,0.00915319,0.510692,5,0.1,22,2.5,1.12628,-0.730776,0.581896,-0.090605,-0.39972,-0.013075,-0.762507,0.583835,0.0174865,0.0105049,2.07004,5,0.1,23,2.5,2.7798,2.99849,0.610089,0.391962,-0.300555,0.00864519,0.0762492,0.522658,-0.0351407,0.00874936,0.142995,5,0.1,24,2.5,-1.21876,2.27858,0.593446,0.319873,-0.295878,0.00657933,-0.314206,-0.266001,-0.00646338,0.00681519,0.282421,5,0.1,25,2.5,1.4293,-2.11825,0.595756,-0.140829,0.352737,0.00476586,-0.16401,-0.167593,-0.00263378,0.0185183,0.115188,5,0.1,26,2.5,3.47716,1.07798,0.671359,-0.0867777,0.225116,0.0193784,0.110418,-0.286616,-0.0246838,0.0097616,0.005904,5,0.1,27,2.5,-0.214106,-3.30148,0.593554,-0.162399,-0.0121582,0.0121915,0.230882,-0.0419766,-0.0173412,0.00835138,1.06459,5,0.1,28,2.5,-2.34148,-1.63982,0.59578,0.522189,-0.0102662,0.0042432,-0.381485,0.0108331,-0.00444427,0.00892211,0.124115,5,0.1,29,2.5,1.19255,-0.261032,0.605918,-0.1055,-0.143653,0.0286121,-0.66717,0.00777468,0.0610203,0.00963103,0.559984,5,0.1
0,2.6,3.59745,-2.34106,0.597618,-0.0367343,0.866026,0.000587106,0.00631809,0,-8.9407e-05,0.0154969,2.27105,5,0.1,1,2.6,-0.736113,4.01803,0.500004,0.400059,0.0311732,-2.38419e-05,0.0320375,0.00238419,0.000119209,0.0152256,0.433738,5,0.1,2,2.6,-0.995823,-1.34306,0.63821,-0.0682577,-0.447765,-0.0119463,0.0844598,0.430107,0.012219,0.0106265,0.127347,5,0.1,3,2.6,0.546679,-0.685552,0.585262,-0.596033,0.150794,0.00655204,0.437363,-0.375062,-0.0128448,0.0115556,0.423657,5,0.1,4,2.6,0.675868,2.66109,0.594364,-0.0738174,-0.311774,0.00820011,0.361651,0.303984,-0.000655651,0.00977269,0.761798,5,0.1,5,2.6,-1.75767,-3.23148,0.606286,0.122532,0.166082,-0.00715256,-0.120759,-0.557065,0.00706315,0.008386,0.258776,5,0.1,6,2.6,-2.94201,-0.642045,0.612237,-0.789201,0.156772,0.0241295,0.363469,-0.138074,-0.0212491,0.00849492,0.381325,5,0.1,7,2.6,-1.68712,0.531765,0.735915,-0.0445366,-0.68671,0.0129715,0.135481,0.847772,-0.0114739,0.0085393,0.0767546,5,0.1,8,2.6,1.40761,-0.963712,0.574831,-0.0721604,0.759158,0.0221997,-0.0271797,-0.373542,0.231594,0.0363132,0.478252,5,0.1,9,2.6,-2.01935,-3.33789,0.50001,0.209153,0.147128,-6.70552e-05,-0.162244,-0.184536,0.000298023,0.024748,0.183126,5,0.1,10,2.6,-1.81603,-0.209826,0.601822,0.266144,0.0519138,-0.00292212,-0.220358,-0.167578,0.00241399,0.0129674,0.253214,5,0.1,11,2.6,2.36691,3.41603,0.603104,0.646394,-0.34588,-0.0163481,-0.523448,-0.668883,-0.0314116,0.00807962,2.72761,5,0.1,12,2.6,-2.56521,2.53563,0.593413,0.434303,-0.135589,0.00658929,-0.361085,0.153542,-0.00748038,0.0174182,0.143719,5,0.1,13,2.6,1.8953,2.7072,0.565368,0.847897,0.271195,0.00765771,-0.188053,0.13876,0.0124574,0.00778537,0.71109,5,0.1,14,2.6,-0.180004,-0.202268,0.620367,-0.180025,0.0258911,-0.030987,-0.000625849,-0.21334,0.00271201,0.0102915,0.0269812,5,0.1,15,2.6,0.757794,-1.59768,0.580681,0.738153,-0.472248,-0.0104517,-0.423908,0.347793,-0.0116229,0.00864789,0.408748,5,0.1,16,2.6,1.61302,-0.173764,0.904507,-0.0839144,0.698611,0.0639975,-0.715196,1.22806,-0.205219,0.0278838,2.12163,5,0.1,17,2.6,3.22648,3.55405,0.50002,-0.144488,-0.10404,-0.000105798,0.511289,0.117779,0.000357628,0.0128005,0.260825,5,0.1,18,2.6,0.538912,2.4,0.578467,-0.149854,-0.0411034,0.0230938,0.04372,-0.42069,-0.100791,0.00688167,0.291935,5,0.1,19,2.6,-3.16976,1.4587,0.609208,0.261968,0.191289,-0.00920892,1.10137,-0.216544,0.010401,0.0092963,1.25922,5,0.1,20,2.6,-1.64057,-1.293,0.621365,-0.183055,0.360733,0.0153571,0.127256,-0.220597,-0.0107288,0.00843126,0.0769254,5,0.1,21,2.6,1.06766,2.80703,0.632872,-0.284493,-0.150114,0.00832528,-0.198483,-0.456095,-0.0649691,0.0096668,0.413001,5,0.1,22,2.6,1.11289,-0.767278,0.580699,-0.18062,-0.325803,-0.0106812,-0.967622,0.855535,0.0287592,0.0109817,1.69993,5,0.1,23,2.6,2.81916,2.97104,0.610782,0.392896,-0.248468,0.00528693,-0.0669956,0.516057,-0.0315309,0.00913379,0.158672,5,0.1,24,2.6,-1.18833,2.24778,0.594072,0.28891,-0.318515,0.00594258,-0.312328,-0.168681,-0.0064373,0.00755885,0.206406,5,0.1,25,2.6,1.41442,-2.08383,0.59622,-0.156015,0.335211,0.00449866,-0.127912,-0.195265,-0.00289083,0.023168,0.0667297,5,0.1,26,2.6,3.46904,1.09905,0.673173,-0.0756323,0.196183,0.016886,0.113249,-0.293732,-0.0252724,0.00717683,0.00182567,5,0.1,27,2.6,-0.229191,-3.30268,0.594687,-0.139287,-0.00929236,0.0104547,0.23149,0.112653,-0.0173748,0.00913558,3.56421,5,0.1,28,2.6,-2.29122,-1.64079,0.596182,0.482327,-0.0092119,0.00381172,-0.42665,0.0104308,-0.00432134,0.00955794,0.140974,5,0.1,29,2.6,1.17862,-0.275328,0.609061,-0.172624,-0.141826,0.0339612,-0.641465,0.0342429,0.0437498,0.00937968,0.448152,5,0.1
0,2.7,3.59379,-2.25445,0.597676,-0.0365078,0.866026,0.000584777,0.000447035,0,3.72529e-06,0.0154969,2.27105,5,0.1,1,2.7,-0.695635,4.02114,0.500002,0.411705,0.0309736,-1.36904e-05,0.164192,-0.00679493,8.56817e-05,0.0152256,0.433738,5,0.1,2,2.7,-1.00229,-1.38604,0.637067,-0.0616218,-0.414651,-0.0109905,0.0524856,0.259437,0.00760704,0.0106265,0.127347,5,0.1,3,2.7,0.488937,-0.671894,0.585868,-0.561257,0.126309,0.0056996,0.289146,-0.137851,-0.00502542,0.0115556,0.423657,5,0.1,4,2.7,0.67027,2.631,0.595183,-0.0385382,-0.293411,0.008207,0.337366,0.0934005,0.000305474,0.00977269,0.761798,5,0.1,5,2.7,-1.746,-3.21756,0.605605,0.110994,0.113449,-0.00647781,-0.112489,-0.488922,0.00657514,0.008386,0.258776,5,0.1,6,2.7,-3.01923,-0.627017,0.61455,-0.755722,0.14408,0.0221761,0.334114,-0.120409,-0.0185296,0.00849492,0.381325,5,0.1,7,2.7,-1.69089,0.467171,0.737159,-0.0308907,-0.606489,0.0119326,0.134744,0.76844,-0.00972673,0.0085393,0.0767546,5,0.1,8,2.7,1.40016,-0.889503,0.578347,-0.077357,0.725877,0.0490726,-0.0673309,-0.321142,0.289205,0.0363132,0.478252,5,0.1,9,2.7,-1.99925,-3.32403,0.500004,0.192921,0.130412,-3.96743e-05,-0.166245,-0.154033,0.000245869,0.024748,0.183126,5,0.1,10,2.7,-1.79054,-0.205457,0.601542,0.243583,0.0357074,-0.00267494,-0.233881,-0.153453,0.002563,0.0129674,0.253214,5,0.1,11,2.7,2.42817,3.37786,0.601303,0.572513,-0.418605,-0.0197222,-0.903338,-0.73652,-0.033848,0.00807962,2.72761,5,0.1,12,2.7,-2.52325,2.52271,0.594041,0.407606,-0.123619,0.00600601,-0.200719,0.09422,-0.00459328,0.0174182,0.143719,5,0.1,13,2.7,1.9793,2.73496,0.566193,0.832562,0.283185,0.008786,-0.156097,0.0893027,0.00964478,0.00778537,0.71109,5,0.1,14,2.7,-0.197589,-0.200623,0.617351,-0.168022,0.00817191,-0.0287095,0.219899,-0.143289,0.0393316,0.0102915,0.0269812,5,0.1,15,2.7,0.829283,-1.6429,0.579572,0.689463,-0.429682,-0.0117481,-0.553396,0.494935,-0.013195,0.00864789,0.408748,5,0.1,16,2.7,1.60111,-0.0984681,0.909931,-0.153171,0.799748,0.0450079,-0.648372,0.776165,-0.174072,0.0278838,2.12163,5,0.1,17,2.7,3.21448,3.5442,0.500012,-0.0967566,-0.0934187,-7.23638e-05,0.43796,0.0977963,0.000309199,0.0128005,0.260825,5,0.1,18,2.7,0.523961,2.39343,0.58026,-0.150603,-0.0927806,0.0126977,-0.042282,-0.576317,-0.104129,0.00688167,0.291935,5,0.1,19,2.7,-3.13782,1.47682,0.608335,0.377835,0.171763,-0.0082707,1.15666,-0.17982,0.00864267,0.0092963,1.25922,5,0.1,20,2.7,-1.65832,-1.25789,0.622853,-0.172486,0.342433,0.0144663,0.0926107,-0.162035,-0.00780448,0.00843126,0.0769254,5,0.1,21,2.7,1.03846,2.78992,0.633391,-0.296983,-0.190046,0.00220472,-0.0492707,-0.334114,-0.0565313,0.0096668,0.413001,5,0.1,22,2.7,1.08948,-0.795236,0.57979,-0.290744,-0.230821,-0.0073934,-1.16636,1.00936,0.0356063,0.0109817,1.69993,5,0.1,23,2.7,2.85833,2.94877,0.611148,0.391811,-0.197197,0.00201538,0.0181645,0.503927,-0.0328347,0.00913379,0.158672,5,0.1,24,2.7,-1.16089,2.21505,0.594637,0.260557,-0.335838,0.00535827,-0.263266,-0.157878,-0.00542402,0.00755885,0.206406,5,0.1,25,2.7,1.39819,-2.05123,0.596656,-0.168363,0.317038,0.00423249,-0.109211,-0.179157,-0.0025779,0.023168,0.0667297,5,0.1,26,2.7,3.46204,1.11722,0.674737,-0.0645407,0.167414,0.0144103,0.108778,-0.282101,-0.0242777,0.00717683,0.00182567,5,0.1,27,2.7,-0.242582,-3.30307,0.595684,-0.133772,0.00511296,0.00982834,-0.0835778,0.316009,0.00249967,0.00913558,3.56421,5,0.1,28,2.7,-2.24477,-1.64167,0.596545,0.449372,-0.00839811,0.00347504,-0.260875,0.00641495,-0.00264868,0.00955794,0.140974,5,0.1,29,2.7,1.15802,-0.289365,0.612673,-0.239615,-0.139004,0.0381688,-0.664063,0.0284053,0.0379235,0.00937968,0.448152,5,0.1
0,2.8,3.59015,-2.16785,0.597735,-0.0362575,0.866026,0.000581145,0.00619888,0,-5.96046e-05,0.0174135,2.27107,5,0.1,1,2.8,-0.653672,4.02419,0.500001,0.426562,0.0297546,-7.45058e-06,0.106215,-0.0178814,8.9407e-05,0.0152546,2.80823,5,0.1,2,2.8,-1.00821,-1.42631,0.636003,-0.0570267,-0.391141,-0.0103027,0.0426769,0.230968,0.00670552,0.00801846,0.0742296,5,0.1,3,2.8,0.43422,-0.659719,0.586421,-0.532863,0.11908,0.00540018,0.301137,-0.0249743,-0.00160933,0.0114258,0.412827,5,0.1,4,2.8,0.668019,2.60198,0.596004,-0.00746399,-0.287813,0.00817925,0.279486,0.0412464,-0.00119209,0.00699833,0.377984,5,0.1,5,2.8,-1.73547,-3.20851,0.60499,0.0996202,0.069356,-0.00581443,-0.116587,-0.389218,0.00682473,0.00834126,0.50728,5,0.1,6,2.8,-3.09299,-0.613212,0.616675,-0.717676,0.131904,0.0203013,0.445843,-0.126392,-0.0194311,0.0078815,0.258268,5,0.1,7,2.8,-1.69333,0.410311,0.738304,-0.0180572,-0.53104,0.0109538,0.119865,0.74856,-0.0100732,0.00817254,0.0805644,5,0.1,8,2.8,1.39209,-0.818628,0.584683,-0.0839859,0.690016,0.0771433,-0.0583529,-0.41613,0.259846,0.0299188,0.437794,5,0.1,9,2.8,-1.98082,-3.31174,0.500002,0.175276,0.115591,-1.93715e-05,-0.188947,-0.145435,0.000178814,0.0275839,0.159452,5,0.1,10,2.8,-1.76739,-0.202609,0.601288,0.218904,0.0217229,-0.00240356,-0.261307,-0.124328,0.00286102,0.0136701,0.280224,5,0.1,11,2.8,2.48062,3.33254,0.599172,0.474519,-0.484747,-0.0227377,-1.01936,-0.551224,-0.0248551,0.0078829,2.86581,5,0.1,12,2.8,-2.48341,2.51078,0.59462,0.389326,-0.115281,0.00559986,-0.185251,0.0785589,-0.0038147,0.0172237,0.238005,5,0.1,13,2.8,2.06158,2.76356,0.567112,0.810355,0.287122,0.00950992,-0.313878,-0.0181198,0.00455976,0.0077751,0.539031,5,0.1,14,2.8,-0.213069,-0.200422,0.614714,-0.139742,-0.003203,-0.0237465,0.329539,-0.0863224,0.0572801,0.0124387,0.250549,5,0.1,15,2.8,0.895228,-1.68321,0.578336,0.627086,-0.374916,-0.0128999,-0.694603,0.592411,-0.0090301,0.00852565,0.377613,5,0.1,16,2.8,1.58281,-0.0154505,0.913616,-0.209951,0.852231,0.0292569,-0.472486,0.27588,-0.140756,0.0292234,1.59875,5,0.1,17,2.8,3.20683,3.53533,0.500006,-0.0577271,-0.0839412,-4.47035e-05,0.339985,0.0942945,0.000238419,0.0166769,1.01602,5,0.1,18,2.8,0.508658,2.38127,0.581024,-0.155447,-0.149983,0.0027895,-0.0424385,-0.540376,-0.0918508,0.00772712,0.242959,5,0.1,19,2.8,-3.09456,1.49312,0.607551,0.483125,0.154328,-0.00743121,0.906706,-0.173092,0.00828505,0.0087633,0.960985,5,0.1,20,2.8,-1.6751,-1.22447,0.624261,-0.163075,0.325486,0.0136748,0.101626,-0.188768,-0.00855327,0.00733254,0.0602519,5,0.1,21,2.8,1.00877,2.7695,0.633349,-0.294152,-0.215614,-0.00283122,0.105798,-0.172138,-0.0436008,0.0116681,0.337803,5,0.1,22,2.8,1.05471,-0.813255,0.57923,-0.402009,-0.130066,-0.00380576,-1.00863,0.979096,0.0350773,0.010898,1.35547,5,0.1,23,2.8,2.89756,2.93151,0.611191,0.391865,-0.148642,-0.00109524,-0.0365973,0.463128,-0.02864,0.00741602,0.0956392,5,0.1,24,2.8,-1.13613,2.18083,0.595146,0.234798,-0.346738,0.00482798,-0.257969,-0.0462532,-0.00533462,0.00818971,0.14551,5,0.1,25,2.8,1.3809,-2.02047,0.597066,-0.176212,0.297534,0.00395775,-0.0410676,-0.218451,-0.00303984,0.0189234,0.457396,5,0.1,26,2.8,3.45612,1.13257,0.676058,-0.0538647,0.139719,0.0120282,0.104904,-0.271916,-0.0234544,0.00709254,0.000942079,5,0.1,27,2.8,-0.256642,-3.3,0.596696,-0.149328,0.0659943,0.0105381,-0.198379,0.88191,0.00983477,0.0105647,3.12111,5,0.1,28,2.8,-2.20106,-1.64248,0.596881,0.42522,-0.00783205,0.003241,-0.243068,0.00542402,-0.00220537,0.0104815,0.0815556,5,0.1,29,2.8,1.13093,-0.303091,0.616653,-0.299561,-0.135094,0.0411317,-0.510454,0.054121,0.0196993,0.00769694,0.339036,5,0.1
0,2.9,3.58654,-2.08125,0.597793,-0.0360355,0.866026,0.000580959,0.000447035,0,2.23517e-05,0.0174135,2.27107,5,0.1,1,2.9,-0.609107,4.02692,0.5,0.475776,0.023412,-1.11759e-06,0.770859,-0.0995696,3.72529e-05,0.0152546,2.80823,5,0.1,2,2.9,-1.01373,-1.46442,0.635002,-0.0535492,-0.371976,-0.00974229,0.0296831,0.170298,0.00497326,0.00801846,0.0742296,5,0.1,3,2.9,0.382238,-0.647561,0.58696,-0.508157,0.127125,0.00544498,0.217797,0.158228,0.00187382,0.0114258,0.412827,5,0.1,4,2.9,0.667831,2.57367,0.596716,-0.00351993,-0.276121,0.00520367,-0.155542,0.186667,-0.052236,0.00699833,0.377984,5,0.1,5,2.9,-1.72602,-3.20332,0.604439,0.0897892,0.0362735,-0.00523916,-0.084579,-0.273034,0.00495091,0.00834126,0.50728,5,0.1,6,2.9,-3.16266,-0.600615,0.618614,-0.676315,0.12034,0.0185234,0.404447,-0.108771,-0.0167303,0.0078815,0.258268,5,0.1,7,2.9,-1.69451,0.360588,0.739358,-0.00560749,-0.466505,0.0102047,0.124969,0.563553,-0.00563264,0.00817254,0.0805644,5,0.1,8,2.9,1.38336,-0.751409,0.593409,-0.0906646,0.656497,0.0947,-0.0679195,-0.287957,0.0983924,0.0299188,0.437794,5,0.1,9,2.9,-1.96422,-3.30085,0.5,0.156674,0.102812,-6.23986e-06,-0.185333,-0.114396,8.56817e-05,0.0275839,0.159452,5,0.1,10,2.9,-1.74666,-0.200997,0.601062,0.196934,0.0111428,-0.0021142,-0.188157,-0.087765,0.0029318,0.0136701,0.280224,5,0.1,11,2.9,2.52274,3.28124,0.59677,0.367466,-0.541028,-0.0252938,-1.04873,-0.533581,-0.0243485,0.0078829,2.86581,5,0.1,12,2.9,-2.44513,2.49964,0.595161,0.37836,-0.107459,0.00521988,-0.0613183,0.0803024,-0.00389665,0.0172237,0.238005,5,0.1,13,2.9,2.14066,2.79176,0.568074,0.76738,0.272844,0.00964236,-0.543997,-0.251248,-0.00174344,0.0077751,0.539031,5,0.1,14,2.9,-0.225557,-0.201025,0.612597,-0.111488,-0.00753596,-0.0188438,0.241298,-0.00734162,0.041768,0.0124387,0.250549,5,0.1,15,2.9,0.954082,-1.71758,0.57698,0.546672,-0.31124,-0.0143788,-0.893418,0.667982,-0.0184365,0.00852565,0.377613,5,0.1,16,2.9,1.55955,0.0706157,0.915883,-0.253856,0.865071,0.0165471,-0.38895,0.030787,-0.113171,0.0292234,1.59875,5,0.1,17,2.9,3.20257,3.52706,0.500002,-0.0293359,-0.0843603,-2.41213e-05,0.230789,-0.0803024,0.000167638,0.0166769,1.01602,5,0.1,18,2.9,0.492683,2.36401,0.58086,-0.165677,-0.191115,-0.00585066,-0.140743,-0.299469,-0.0793077,0.00772712,0.242959,5,0.1,19,2.9,-3.04173,1.50775,0.606846,0.572006,0.138776,-0.00668596,0.825286,-0.14279,0.00684708,0.0087633,0.960985,5,0.1,20,2.9,-1.69098,-1.19272,0.625592,-0.15505,0.310536,0.0129998,0.0676587,-0.127457,-0.00568479,0.00733254,0.0602519,5,0.1,21,2.9,0.979998,2.7473,0.632861,-0.280127,-0.22609,-0.00677584,0.176057,-0.0377148,-0.0346862,0.0116681,0.337803,5,0.1,22,2.9,1.00938,-0.821352,0.579027,-0.504151,-0.0323986,-0.000272691,-0.981875,0.948738,0.0345632,0.010898,1.35547,5,0.1,23,2.9,2.93661,2.91887,0.610942,0.389037,-0.10535,-0.00382122,-0.0373423,0.399992,-0.0252053,0.00741602,0.0956392,5,0.1,24,2.9,-1.11385,2.14592,0.595604,0.211483,-0.351255,0.00434611,-0.215434,-0.028193,-0.004448,0.00818971,0.14551,5,0.1,25,2.9,1.36349,-1.99174,0.597469,-0.168255,0.277314,0.00429312,0.182159,-0.195086,0.00825152,0.0189234,0.457396,5,0.1,26,2.9,3.45124,1.14521,0.677147,-0.0437684,0.113545,0.00977153,0.0968277,-0.251025,-0.0216402,0.00709254,0.000942079,5,0.1,27,2.9,-0.272845,-3.28774,0.597818,-0.176769,0.1888,0.0120174,-0.320843,1.4661,0.0178814,0.0105647,3.12111,5,0.1,28,2.9,-2.15961,-1.64324,0.597195,0.404683,-0.00738781,0.00306079,-0.186339,0.00383705,-0.0015609,0.0104815,0.0815556,5,0.1,29,2.9,1.09844,-0.316351,0.62086,-0.349415,-0.130177,0.0429183,-0.46017,0.0492726,0.0140741,0.00769694,0.339036,5,0.1
0,3,3.58294,-1.99465,0.597851,-0.0357866,0.866026,0.000579655,0.00607967,0,-8.9407e-05,0.0166555,2.27109,5,0.1,1,3,-0.557304,4.02869,0.5,0.56189,0.0115395,1.49012e-06,0.870228,-0.130653,0,0.0167555,2.55647,5,0.1,2,3,-1.01894,-1.50074,0.634053,-0.0506073,-0.354013,-0.00922829,0.0312328,0.201762,0.00563264,0.0106453,0.0579518,5,0.1,3,3,0.33254,-0.633942,0.587515,-0.485063,0.145856,0.00566393,0.261679,0.195414,0.00205636,0.0125702,0.309047,5,0.1,4,3,0.66629,2.54719,0.596932,-0.0305116,-0.251651,-0.00118315,-0.348747,0.29707,-0.0707805,0.00690217,0.285907,5,0.1,5,3,-1.71745,-3.20087,0.603939,0.0819147,0.0144541,-0.0047788,-0.0762939,-0.165582,0.00444055,0.0077519,0.421109,5,0.1,6,3,-3.22818,-0.589121,0.620383,-0.6329,0.109489,0.0168532,0.479817,-0.110984,-0.0170469,0.00720463,0.173573,5,0.1,7,3,-1.69447,0.316593,0.740353,0.00621378,-0.414597,0.00970215,0.10848,0.490531,-0.00488758,0.00819051,0.151804,5,0.1,8,3,1.37399,-0.687213,0.603154,-0.0963211,0.626644,0.0981748,-0.0401139,-0.33313,-0.022471,0.0259551,0.311672,5,0.1,9,3,-1.94949,-3.29112,0.5,0.137857,0.0919819,-1.49012e-06,-0.192404,-0.105262,5.96046e-05,0.0241638,0.233677,5,0.1,10,3,-1.72785,-0.200265,0.600865,0.179523,0.00405125,-0.00181794,-0.167549,-0.0547543,0.00301003,0.0136412,0.656382,5,0.1,11,3,2.55464,3.22477,0.594133,0.27566,-0.584549,-0.0272825,-0.751495,-0.308394,-0.0140667,0.0108652,2.95499,5,0.1,12,3,-2.40758,2.48932,0.595663,0.372344,-0.0988305,0.00479966,-0.0787973,0.0939369,-0.00452995,0.0150367,0.176609,5,0.1,13,3,2.21431,2.81751,0.569021,0.702137,0.239867,0.009197,-0.756502,-0.394583,-0.00697374,0.00829185,0.484801,5,0.1,14,3,-0.235606,-0.201733,0.610903,-0.0904474,-0.00592805,-0.0152141,0.184111,0.0339374,0.0316501,0.0110711,0.247406,5,0.1,15,3,1.00409,-1.74533,0.575449,0.452128,-0.243691,-0.0162184,-0.980616,0.672579,-0.0168085,0.0068925,0.31895,5,0.1,16,3,1.53246,0.157144,0.91702,-0.284976,0.864546,0.00665039,-0.222564,-0.0295866,-0.084728,0.0252355,1.19042,5,0.1,17,3,3.20063,3.51809,0.500001,-0.0109732,-0.096041,-1.04308e-05,0.139594,-0.135779,0.000119209,0.0142877,0.425502,5,0.1,18,3,0.475394,2.34369,0.57991,-0.179873,-0.212604,-0.0127971,-0.127345,-0.140071,-0.0585616,0.00720165,0.214145,5,0.1,19,3,-2.98085,1.52093,0.606211,0.640488,0.12494,-0.00602156,0.512838,-0.137448,0.00658631,0.0091208,0.692425,5,0.1,20,3,-1.70614,-1.16231,0.626864,-0.148049,0.297064,0.0124112,0.0786781,-0.154078,-0.00658631,0.00760975,0.0275427,5,0.1,21,3,0.95299,2.72472,0.632029,-0.258806,-0.223345,-0.00967234,0.25034,0.0909567,-0.022918,0.00947139,0.274544,5,0.1,22,3,0.954455,-0.820071,0.579164,-0.589488,0.0553042,0.00292957,-0.688165,0.787079,0.0287592,0.0109306,1.01492,5,0.1,23,3,2.97521,2.91021,0.610444,0.381476,-0.0690639,-0.00602603,-0.125766,0.324249,-0.018388,0.00648835,0.23331,5,0.1,24,3,-1.09376,2.11078,0.596017,0.190493,-0.349712,0.00391304,-0.20951,0.069499,-0.00429153,0.00749247,0.171439,5,0.1,25,3,1.34782,-1.96501,0.597948,-0.143075,0.256976,0.00534505,0.306547,-0.217915,0.0116527,0.0194063,0.197761,5,0.1,26,3,3.44734,1.15535,0.678019,-0.0345409,0.0896156,0.00770986,0.0874996,-0.227034,-0.0195503,0.00712222,0.000788118,5,0.1,27,3,-0.292129,-3.2613,0.599109,-0.208346,0.340217,0.013791,-0.288814,1.48022,0.0162125,0.0112536,2.6611,5,0.1,28,3,-2.1201,-1.64396,0.597494,0.384772,-0.00700057,0.00290275,-0.225067,0.00417233,-0.00169873,0.00931003,0.186811,5,0.1,29,3,1.06146,-0.329097,0.6252,-0.387141,-0.124387,0.0436187,-0.276208,0.0699759,-0.0013411,0.0100325,0.242735,5,0.1
0,3.1,3.57938,-1.90804,0.597908,-0.0355698,0.866026,0.000576675,0.000447035,0,0,0.0166555,2.27109,5,0.1,1,3.1,-0.496208,4.02906,0.5,0.663433,-0.00524372,1.39698e-06,1.0766,-0.193357,-3.72529e-06,0.0167555,2.55647,5,0.1,2,3.1,-1.02387,-1.53529,0.633154,-0.0482179,-0.33801,-0.00877874,0.0194609,0.136919,0.00384077,0.0106453,0.0579518,5,0.1,3,3.1,0.285205,-0.618231,0.588095,-0.462489,0.169298,0.00595292,0.209834,0.252303,0.00322983,0.0125702,0.309047,5,0.1,4,3.1,0.661188,2.5234,0.596425,-0.0737944,-0.224953,-0.0091874,-0.485357,0.244766,-0.0848807,0.00690217,0.285907,5,0.1,5,3.1,-1.70963,-3.20017,0.603483,0.0744144,0.000507757,-0.0043422,-0.0749901,-0.109449,0.00436604,0.0077519,0.421109,5,0.1,6,3.1,-3.28921,-0.578692,0.621988,-0.588496,0.0993811,0.0153,0.427485,-0.0944249,-0.0145175,0.00720463,0.173573,5,0.1,7,3.1,-1.69332,0.277106,0.741302,0.0165367,-0.379115,0.00931015,0.09536,0.251225,-0.00342354,0.00819051,0.151804,5,0.1,8,3.1,1.36415,-0.62602,0.612727,-0.100503,0.598463,0.0921132,-0.0377819,-0.257637,-0.093706,0.0259551,0.311672,5,0.1,9,3.1,-1.93668,-3.28211,0.5,0.118216,0.0907704,1.95578e-06,-0.1994,0.0596344,1.11759e-05,0.0241638,0.233677,5,0.1,10,3.1,-1.71064,-0.200181,0.600698,0.165431,-0.00256919,-0.00152951,-0.122391,-0.0669658,0.00276789,0.0136412,0.656382,5,0.1,11,3.1,2.57893,3.16547,0.59133,0.217205,-0.594813,-0.028773,-0.335351,0.0920147,-0.0139475,0.0108652,2.95499,5,0.1,12,3.1,-2.3706,2.47989,0.596121,0.368218,-0.0898689,0.00436688,-0.0252426,0.0874102,-0.0042282,0.0150367,0.176609,5,0.1,13,3.1,2.28026,2.83955,0.569901,0.612607,0.201292,0.00836169,-1.00853,-0.376299,-0.00959262,0.00829185,0.484801,5,0.1,14,3.1,-0.243826,-0.202147,0.609523,-0.0748259,-0.00230828,-0.0125377,0.132434,0.036817,0.0225864,0.0110711,0.247406,5,0.1,15,3.1,1.04439,-1.76642,0.573771,0.353984,-0.179169,-0.017073,-0.968911,0.612289,-0.000864267,0.0068925,0.31895,5,0.1,16,3.1,1.50293,0.243585,0.917295,-0.304549,0.864794,-0.000792649,-0.155672,0.0025101,-0.063967,0.0252355,1.19042,5,0.1,17,3.1,3.20017,3.50797,0.5,0.000950694,-0.10461,-1.86265e-06,0.0943542,-0.0382811,5.96046e-05,0.0142877,0.425502,5,0.1,18,3.1,0.456574,2.32203,0.578352,-0.197882,-0.218858,-0.0181976,-0.209203,-0.0258535,-0.0480153,0.00720165,0.214145,5,0.1,19,3.1,-2.91432,1.53279,0.605639,0.68833,0.112621,-0.00543036,0.408113,-0.112936,0.00542402,0.0091208,0.692425,5,0.1,20,3.1,-1.72057,-1.13336,0.628073,-0.140495,0.282104,0.0117791,0.0770763,-0.154212,-0.00644848,0.00760975,0.0275427,5,0.1,21,3.1,0.92828,2.70278,0.630954,-0.236011,-0.215827,-0.0117471,0.213403,0.0694245,-0.0179149,0.00947139,0.274544,5,0.1,22,3.1,0.892124,-0.810718,0.579597,-0.655465,0.130158,0.00567986,-0.590611,0.690866,0.0254773,0.0109306,1.01492,5,0.1,23,3.1,3.01299,2.90479,0.609756,0.376186,-0.0406284,-0.00765966,-0.00855327,0.243798,-0.0138842,0.00648835,0.23331,5,0.1,24,3.1,-1.07566,2.07591,0.59639,0.172165,-0.349717,0.00358196,-0.164285,-0.0413805,-0.00258163,0.00749247,0.171439,5,0.1,25,3.1,1.3352,-1.9403,0.598548,-0.108213,0.237995,0.00670888,0.377312,-0.171714,0.0145733,0.0194063,0.197761,5,0.1,26,3.1,3.4443,1.16322,0.678696,-0.0263009,0.0682341,0.00586882,0.0770539,-0.199951,-0.0172108,0.00712222,0.000788118,5,0.1,27,3.1,-0.314522,-3.21947,0.600577,-0.240035,0.498373,0.0156085,-0.320619,1.59833,0.0185929,0.0112536,2.6611,5,0.1,28,3.1,-2.08242,-1.64492,0.597776,0.371442,-0.0145204,0.0027474,-0.0711679,-0.136644,-0.00150502,0.00931003,0.186811,5,0.1,29,3.1,1.02141,-0.341206,0.629553,-0.412791,-0.117913,0.0433934,-0.215914,0.0636633,-0.00476465,0.0100325,0.242735,5,0.1
0,3.2,3.57583,-1.82144,0.597966,-0.0353217,0.866026,0.000572205,0.00607967,-5.96046e-05,-5.96046e-05,0.0168804,2.27112,5,0.1,1,3.2,-0.424708,4.02754,0.500001,0.762715,-0.0250697,0,0.848083,-0.19455,2.98023e-05,0.0155711,2.37864,5,0.1,2,3.2,-1.0286,-1.56839,0.632296,-0.0462234,-0.32346,-0.00837743,0.0225902,0.167131,0.00450015,0.00972536,0.0264239,5,0.1,3,3.2,0.240054,-0.600089,0.588705,-0.439691,0.192669,0.00622571,0.260122,0.199795,0.00190735,0.0141042,0.225327,5,0.1,4,3.2,0.65137,2.50209,0.595089,-0.122075,-0.201344,-0.0173897,-0.456721,0.233054,-0.0758469,0.00650302,0.242967,5,0.1,5,3.2,-1.70257,-3.20055,0.603071,0.0667065,-0.00692606,-0.00389218,-0.0799894,-0.038147,0.00461936,0.00747596,0.869916,5,0.1,6,3.2,-3.34588,-0.56922,0.623447,-0.544161,0.0900507,0.0138655,0.472307,-0.0944436,-0.0145137,0.0080675,0.116356,5,0.1,7,3.2,-1.69123,0.240272,0.742215,0.0248462,-0.358725,0.00893623,0.0691414,0.180721,-0.00435114,0.00810958,0.134616,5,0.1,8,3.2,1.35395,-0.567519,0.621387,-0.10291,0.5705,0.0803709,-0.0063777,-0.320673,-0.136822,0.0286532,0.219092,5,0.1,9,3.2,-1.92586,-3.27261,0.5,0.0981808,0.100118,1.49012e-06,-0.200331,0.111103,0,0.0261818,0.202578,5,0.1,10,3.2,-1.69469,-0.200724,0.600559,0.153649,-0.00765324,-0.00126362,-0.11915,-0.0285357,0.0025928,0.0120609,2.33424,5,0.1,11,3.2,2.6,3.10703,0.588395,0.21401,-0.568444,-0.0297695,0.243664,0.423193,-0.00473857,0.0072386,0.674883,5,0.1,12,3.2,-2.33396,2.47134,0.596536,0.363618,-0.0810027,0.00393838,-0.082016,0.0915527,-0.00444055,0.0157469,0.127246,5,0.1,13,3.2,2.33624,2.85784,0.570686,0.505126,0.164741,0.00730753,-1.11973,-0.354171,-0.0113845,0.00760055,0.404408,5,0.1,14,3.2,-0.250704,-0.2022,0.608372,-0.0632294,0.00115633,-0.0105709,0.102714,0.0313222,0.0173748,0.0136854,0.246314,5,0.1,15,3.2,1.07505,-1.78141,0.572082,0.260687,-0.122172,-0.016506,-0.886977,0.523806,0.0116825,0.0071089,0.31488,5,0.1,16,3.2,1.4719,0.329915,0.916931,-0.313932,0.859632,-0.00613034,-0.0234246,-0.127852,-0.0428259,0.0249741,0.862478,5,0.1,17,3.2,3.20063,3.49746,0.5,0.00727773,-0.104254,1.49012e-06,0.0303984,0.0426769,2.98023e-05,0.0126415,0.872322,5,0.1,18,3.2,0.435764,2.3,0.576319,-0.217628,-0.221968,-0.022167,-0.168473,-0.0373125,-0.0303686,0.00659846,0.194214,5,0.1,19,3.2,-2.84386,1.5435,0.605122,0.71612,0.101662,-0.00490397,0.123739,-0.109017,0.00527501,0.00860681,0.477498,5,0.1,20,3.2,-1.73421,-1.10598,0.629216,-0.131854,0.264716,0.0110552,0.0986457,-0.199497,-0.00825524,0.0088076,0.0107471,5,0.1,21,3.2,0.905737,2.68158,0.629702,-0.214793,-0.207764,-0.0131458,0.216484,0.0989437,-0.00965595,0.00798514,0.223997,5,0.1,22,3.2,0.824059,-0.794535,0.580282,-0.700781,0.190274,0.00789613,-0.288188,0.498623,0.0182986,0.00966846,0.719868,5,0.1,23,3.2,3.05057,2.90181,0.608931,0.374854,-0.0203013,-0.00874102,-0.0389814,0.163436,-0.00745058,0.00958216,0.255652,5,0.1,24,3.2,-1.05924,2.04073,0.596736,0.156394,-0.353116,0.00335425,-0.156343,-0.00619888,-0.00214577,0.00873134,0.109761,5,0.1,25,3.2,1.32629,-1.91735,0.59929,-0.0699818,0.220919,0.00807792,0.376999,-0.176966,0.0120401,0.00747154,0.491958,5,0.1,26,3.2,3.44204,1.16909,0.679201,-0.0191689,0.0497311,0.00427663,0.0654459,-0.169814,-0.0146031,0.00775136,0.000603451,5,0.1,27,3.2,-0.340017,-3.16202,0.602225,-0.268299,0.645322,0.0172451,-0.227302,1.27971,0.0130832,0.0105339,2.34683,5,0.1,28,3.2,-2.04558,-1.64717,0.598043,0.3654,-0.0311494,0.00258237,-0.0716448,-0.181913,-0.00178814,0.00764273,0.115867,5,0.1,29,3.2,0.979295,-0.352662,0.633853,-0.42685,-0.110955,0.0424027,-0.0513196,0.0783503,-0.0161529,0.0121801,0.166742,5,0.1
