id,t,px,py,pz,vx,vy,vz,ax,ay,az,planning_time,qp_cost,planning_report,size,id,t,px,py,pz,vx,vy,vz,ax,ay,az,planning_time,qp_cost,planning_report,size,id,t,px,py,pz,vx,vy,vz,ax,ay,az,planning_time,qp_cost,planning_report,size,id,t,px,py,pz,vx,vy,vz,ax,ay,az,planning_time,qp_cost,planning_report,size,id,t,px,py,pz,vx,vy,vz,ax,ay,az,planning_time,qp_cost,planning_report,size,id,t,px,py,pz,vx,vy,vz,ax,ay,az,planning_time,qp_cost,planning_report,size,id,t,px,py,pz,vx,vy,vz,ax,ay,az,planning_time,qp_cost,planning_report,size,id,t,px,py,pz,vx,vy,vz,ax,ay,az,planning_time,qp_cost,planning_report,size,id,t,px,py,pz,vx,vy,vz,ax,ay,az,planning_time,qp_cost,planning_report,size,id,t,px,py,pz,vx,vy,vz,ax,ay,az,planning_time,qp_cost,planning_report,size,id,t,px,py,pz,vx,vy,vz,ax,ay,az,planning_time,qp_cost,planning_report,size,id,t,px,py,pz,vx,vy,vz,ax,ay,az,planning_time,qp_cost,planning_report,size,id,t,px,py,pz,vx,vy,vz,ax,ay,az,planning_time,qp_cost,planning_report,size,id,t,px,py,pz,vx,vy,vz,ax,ay,az,planning_time,qp_cost,planning_report,size,id,t,px,py,pz,vx,vy,vz,ax,ay,az,planning_time,qp_cost,planning_report,size,id,t,px,py,pz,vx,vy,vz,ax,ay,az,planning_time,qp_cost,planning_report,size,id,t,px,py,pz,vx,vy,vz,ax,ay,az,planning_time,qp_cost,planning_report,size,id,t,px,py,pz,vx,vy,vz,ax,ay,az,planning_time,qp_cost,planning_report,size,id,t,px,py,pz,vx,vy,vz,ax,ay,az,planning_time,qp_cost,planning_report,size,id,t,px,py,pz,vx,vy,vz,ax,ay,az,planning_time,qp_cost,planning_report,size,id,t,px,py,pz,vx,vy,vz,ax,ay,az,planning_time,qp_cost,planning_report,size,id,t,px,py,pz,vx,vy,vz,ax,ay,az,planning_time,qp_cost,planning_report,size,id,t,px,py,pz,vx,vy,vz,ax,ay,az,planning_time,qp_cost,planning_report,size,id,t,px,py,pz,vx,vy,vz,ax,ay,az,planning_time,qp_cost,planning_report,size,id,t,px,py,pz,vx,vy,vz,ax,ay,az,planning_time,qp_cost,planning_report,size,id,t,px,py,pz,vx,vy,vz,ax,ay,az,planning_time,qp_cost,planning_report,size,id,t,px,py,pz,vx,vy,vz,ax,ay,az,planning_time,qp_cost,planning_report,size,id,t,px,py,pz,vx,vy,vz,ax,ay,az,planning_time,qp_cost,planning_report,size,id,t,px,py,pz,vx,vy,vz,ax,ay,az,planning_time,qp_cost,planning_report,size,id,t,px,py,pz,vx,vy,vz,ax,ay,az,planning_time,qp_cost,planning_report,size
0,0,2.15638,-0.00773954,0.67746,0,0,0,0,0,0,0.019231,3.5122,5,0.1,1,0,-1.14068,1.58992,0.538845,0,0,0,0,0,0,0.00852588,0.627001,5,0.1,2,0,-2.65423,-3.9379,0.507927,0,0,0,0,0,0,0.0208758,3.5122,5,0.1,3,0,-1.56268,4.15534,0.596366,0,0,0,0,0,0,0.0104323,3.5122,5,0.1,4,0,-0.853024,-3.79427,0.551923,0,0,0,0,0,0,0.00733401,1.05641,5,0.1,5,0,4.14496,0.73698,0.508384,0,0,0,0,0,0,0.0162938,3.51219,5,0.1,6,0,-0.304051,-1.46723,0.644936,0,0,0,0,0,0,0.00790651,3.5122,5,0.1,7,0,-1.48767,-3.02566,0.539848,0,0,0,0,0,0,0.0315232,3.5122,5,0.1,8,0,-2.25027,4.19095,0.584273,0,0,0,0,0,0,0.0202077,3.35737,5,0.1,9,0,-0.766255,4.21137,0.627313,0,0,0,0,0,0,0.00866734,3.5122,5,0.1,10,0,-4.20367,-0.443263,0.518018,0,0,0,0,0,0,0.00831755,3.5122,5,0.1,11,0,4.15322,-3.04813,0.624101,0,0,0,0,0,0,0.0115475,3.5122,5,0.1,12,0,-4.19057,0.341121,0.696463,0,0,0,0,0,0,0.0105402,1.84696,5,0.1,13,0,2.01355,-3.3087,0.692408,0,0,0,0,0,0,0.0218343,3.51219,5,0.1,14,0,-3.63215,-1.64874,0.542539,0,0,0,0,0,0,0.0128697,3.5122,5,0.1,15,0,-1.36127,1.02178,0.639145,0,0,0,0,0,0,0.008713,1.52206,5,0.1,16,0,0.451376,-1.22934,0.565718,0,0,0,0,0,0,0.0253253,1.56299,5,0.1,17,0,1.72535,-2.64156,0.61229,0,0,0,0,0,0,0.0118435,3.5122,5,0.1,18,0,-3.76388,-2.24438,0.557144,0,0,0,0,0,0,0.00796316,1.5585,5,0.1,19,0,1.40722,4.07866,0.644211,0,0,0,0,0,0,0.00981381,3.51219,5,0.1,20,0,-3.99722,1.25699,0.681243,0,0,0,0,0,0,0.00908387,1.16736,5,0.1,21,0,-4.18438,4.05872,0.65452,0,0,0,0,0,0,0.0138928,3.5122,5,0.1,22,0,-2.28378,-0.815538,0.637643,0,0,0,0,0,0,0.0246837,3.51219,5,0.1,23,0,1.40288,0.192033,0.642277,0,0,0,0,0,0,0.0227155,0.477803,5,0.1,24,0,4.02233,2.6423,0.566622,0,0,0,0,0,0,0.0166454,2.8714,5,0.1,25,0,-0.72988,-2.7034,0.533514,0,0,0,0,0,0,0.030198,3.5122,5,0.1,26,0,0.794879,-0.726624,0.583548,0,0,0,0,0,0,0.0263247,0.436293,5,0.1,27,0,-4.18335,-3.76216,0.560238,0,0,0,0,0,0,0.00747132,0.483135,5,0.1,28,0,2.35806,0.677542,0.683012,0,0,0,0,0,0,0.0120357,3.51219,5,0.1,29,0,-0.997994,-0.923449,0.558678,0,0,0,0,0,0,0.00764262,1.29662,5,0.1
0,0.1,2.15512,-0.00607663,0.677533,-0.0357773,0.0472065,0.00206558,-0.636056,0.839226,0.0367202,0.019231,3.5122,5,0.1,1,0.1,-1.1398,1.58998,0.538909,0.0249125,0.00178069,0.00181217,0.442892,0.0316501,0.0322163,0.00852588,0.627001,5,0.1,2,0.1,-2.65272,-3.93646,0.507867,0.0428576,0.0409026,-0.00170721,0.761911,0.727162,-0.0303499,0.0208758,3.5122,5,0.1,3,0.1,-1.56221,4.15331,0.596368,0.0132069,-0.0577778,5.9139e-05,0.234798,-1.02717,0.00104681,0.0104323,3.5122,5,0.1,4,0.1,-0.854125,-3.79456,0.552061,-0.0312276,-0.00812821,0.00391603,-0.555158,-0.144526,0.0696182,0.00733401,1.05641,5,0.1,5,0.1,4.14412,0.738891,0.508334,-0.0238471,0.0542408,-0.00139941,-0.423998,0.964284,-0.0248775,0.0162938,3.51219,5,0.1,6,0.1,-0.303958,-1.46932,0.644959,0.00264514,-0.059206,0.000639074,0.0470243,-1.05254,0.0113621,0.00790651,3.5122,5,0.1,7,0.1,-1.48694,-3.0237,0.539885,0.0207581,0.0555035,0.00105128,0.369027,0.98674,0.0186861,0.0315232,3.5122,5,0.1,8,0.1,-2.24823,4.19081,0.584289,0.0577953,-0.00417754,0.000465941,1.02745,-0.0742972,0.00828877,0.0202077,3.35737,5,0.1,9,0.1,-0.768269,4.21082,0.627258,-0.0571752,-0.015536,-0.00155978,-1.01645,-0.276148,-0.0277236,0.00866734,3.5122,5,0.1,10,0.1,-4.20311,-0.445275,0.518064,0.0157706,-0.0571173,0.00128793,0.28035,-1.01542,0.0228994,0.00831755,3.5122,5,0.1,11,0.1,4.15293,-3.04606,0.624093,-0.00827834,0.0586875,-0.000233762,-0.147134,1.04332,-0.00415742,0.0115475,3.5122,5,0.1,12,0.1,-4.18948,0.342174,0.696519,0.0308372,0.0298973,0.00158632,0.548214,0.531506,0.0282042,0.0105402,1.84696,5,0.1,13,0.1,2.01252,-3.30689,0.692442,-0.0293281,0.0514947,0.000985619,-0.521377,0.915438,0.0175275,0.0218343,3.51219,5,0.1,14,0.1,-3.63006,-1.64863,0.54259,0.0591733,0.00304393,0.00143144,1.05196,0.0541061,0.0254437,0.0128697,3.5122,5,0.1,15,0.1,-1.36016,1.02259,0.639104,0.0314493,0.0230622,-0.00115996,0.559106,0.409991,-0.0206195,0.008713,1.52206,5,0.1,16,0.1,0.451375,-1.22821,0.566536,-4.07454e-05,0.031985,0.0232414,-0.000724569,0.568628,0.413183,0.0253253,1.56299,5,0.1,17,0.1,1.72509,-2.63949,0.612284,-0.00720154,0.0588283,-0.000168383,-0.128023,1.04585,-0.00299513,0.0118435,3.5122,5,0.1,18,0.1,-3.76387,-2.24299,0.557204,0.00015758,0.0394437,0.00169966,0.00278652,0.701204,0.0302121,0.00796316,1.5585,5,0.1,19,0.1,1.40604,4.07694,0.644108,-0.0334177,-0.0488624,-0.00291532,-0.594094,-0.868618,-0.05183,0.00981381,3.51219,5,0.1,20,0.1,-3.99602,1.25709,0.681314,0.0339966,0.00275616,0.00203736,0.604406,0.0490025,0.0362247,0.00908387,1.16736,5,0.1,21,0.1,-4.18229,4.05867,0.654502,0.0592485,-0.00149533,-0.000513904,1.05327,-0.0266135,-0.00913441,0.0138928,3.5122,5,0.1,22,0.1,-2.28231,-0.814051,0.637617,0.0415951,0.0422142,-0.000733696,0.739455,0.750478,-0.013046,0.0246837,3.51219,5,0.1,23,0.1,1.40267,0.192772,0.642233,-0.00601187,0.02098,-0.00125291,-0.106886,0.372978,-0.0222735,0.0227155,0.477803,5,0.1,24,0.1,4.02048,2.64267,0.566657,-0.0525214,0.0106007,0.000989158,-0.933737,0.18844,0.0175871,0.0166454,2.8714,5,0.1,25,0.1,-0.729553,-2.70134,0.533565,0.00930475,0.0585154,0.00143927,0.165422,1.04028,0.0255853,0.030198,3.5122,5,0.1,26,0.1,0.795302,-0.726023,0.583565,0.0120053,0.0170878,0.000487641,0.213429,0.303786,0.00867248,0.0263247,0.436293,5,0.1,27,0.1,-4.1827,-3.76175,0.56018,0.0185736,0.01164,-0.00163689,0.33024,0.206947,-0.029102,0.00747132,0.483135,5,0.1,28,0.1,2.35626,0.6786,0.683075,-0.0510618,0.0300378,0.00179252,-0.907749,0.534005,0.0318699,0.0120357,3.51219,5,0.1,29,0.1,-0.998141,-0.924709,0.558642,-0.00417894,-0.0357535,-0.00101924,-0.0742935,-0.635616,-0.0181198,0.00764262,1.29662,5,0.1
0,0.2,2.14785,0.00351231,0.677953,-0.11307,0.149196,0.00652969,-0.848174,1.11897,0.0489354,0.0162667,2.92579,5,0.1,1,0.2,-1.13474,1.59034,0.539277,0.0787348,0.00562668,0.00572801,0.590563,0.0422001,0.0429451,0.0074784,0.514422,5,0.1,2,0.2,-2.64402,-3.92815,0.50752,0.135452,0.129271,-0.00539571,1.0159,0.969648,-0.0404418,0.0232963,1.09073,5,0.1,3,0.2,-1.55953,4.14157,0.59638,0.0417382,-0.182605,0.000186265,0.313103,-1.36971,0.00143051,0.00990218,2.92578,5,0.1,4,0.2,-0.860468,-3.79621,0.552856,-0.0986949,-0.0256896,0.0123769,-0.7402,-0.192642,0.0928342,0.013546,0.866736,5,0.1,5,0.2,4.13927,0.749909,0.50805,-0.0753641,0.171427,-0.00442266,-0.56529,1.2857,-0.03317,0.0158561,2.92583,5,0.1,6,0.2,-0.303421,-1.48134,0.645089,0.00835955,-0.18712,0.0020206,0.0627041,-1.40339,0.0151396,0.0113687,3.00476,5,0.1,7,0.2,-1.48272,-3.01243,0.540098,0.0656068,0.175422,0.00332296,0.491977,1.31559,0.0249147,0.0368099,2.9258,5,0.1,8,0.2,-2.23649,4.18996,0.584384,0.182658,-0.0131965,0.00147223,1.36995,-0.0991821,0.0110865,0.0228436,2.84093,5,0.1,9,0.2,-0.779883,4.20767,0.626942,-0.180702,-0.0490904,-0.00493079,-1.35526,-0.368357,-0.0369251,0.00871523,2.92852,5,0.1,10,0.2,-4.19991,-0.456877,0.518325,0.0498295,-0.180519,0.004071,0.374079,-1.35389,0.0305176,0.00822309,2.92579,5,0.1,11,0.2,4.15124,-3.03414,0.624046,-0.0261664,0.185478,-0.000739098,-0.196218,1.39117,-0.00554323,0.0129606,2.92579,5,0.1,12,0.2,-4.18322,0.348247,0.696841,0.0974536,0.0944905,0.00501424,0.730991,0.708669,0.0376105,0.0111804,1.51534,5,0.1,13,0.2,2.00656,-3.29643,0.692643,-0.0926852,0.16275,0.00311434,-0.695288,1.22046,0.0233948,0.01853,2.9258,5,0.1,14,0.2,-3.61804,-1.64801,0.54288,0.187016,0.00962019,0.00452399,1.40262,0.0721812,0.0339448,0.0113702,2.92665,5,0.1,15,0.2,-1.35377,1.02727,0.638868,0.0993967,0.0728875,-0.00366569,0.745535,0.546694,-0.0275075,0.00922816,1.24876,5,0.1,16,0.2,0.451366,-1.22172,0.571257,-0.000128895,0.101089,0.0734553,-0.000968575,0.758171,0.550896,0.0269926,1.28236,5,0.1,17,0.2,1.72363,-2.62754,0.61225,-0.02276,0.185931,-0.000531971,-0.170708,1.39439,-0.00399351,0.012137,2.9258,5,0.1,18,0.2,-3.76384,-2.23498,0.557549,0.000494719,0.124663,0.00537187,0.0038147,0.934958,0.0402927,0.00813601,1.27867,5,0.1,19,0.2,1.39926,4.06702,0.643516,-0.105616,-0.154436,-0.00921339,-0.792146,-1.158,-0.0691116,0.0102575,2.9258,5,0.1,20,0.2,-3.98912,1.25765,0.681728,0.107443,0.00871122,0.00644028,0.805974,0.0653267,0.0482798,0.00922647,0.957752,5,0.1,21,0.2,-4.17026,4.05837,0.654398,0.187242,-0.00473261,-0.00162572,1.40452,-0.0352859,-0.0121593,0.0115356,2.92837,5,0.1,22,0.2,-2.27386,-0.805476,0.637468,0.131458,0.133418,-0.00232011,0.986099,1.00064,-0.0173748,0.0253575,2.92578,5,0.1,23,0.2,1.40145,0.197034,0.641979,-0.019002,0.0663072,-0.00395924,-0.142515,0.497296,-0.0297129,0.0259853,0.392013,5,0.1,24,0.2,4.00981,2.64483,0.566858,-0.165987,0.0335038,0.00312626,-1.24514,0.251174,0.0234544,0.0145164,2.78995,5,0.1,25,0.2,-0.727663,-2.68946,0.533857,0.0294089,0.184935,0.00454783,0.220537,1.38712,0.0341237,0.0314368,2.92579,5,0.1,26,0.2,0.797741,-0.722552,0.583665,0.0379428,0.0540048,0.00154078,0.284553,0.405073,0.0115335,0.0311073,0.357956,5,0.1,27,0.2,-4.17892,-3.75939,0.559847,0.0587106,0.036788,-0.00517368,0.440121,0.27597,-0.0388026,0.0146928,0.396392,5,0.1,28,0.2,2.34589,0.684701,0.68344,-0.16138,0.0949338,0.00566542,-1.21033,0.712037,0.0424981,0.0112472,2.92579,5,0.1,29,0.2,-0.99899,-0.931971,0.558435,-0.0132069,-0.112998,-0.00322163,-0.0990927,-0.847518,-0.0241399,0.00932219,1.06381,5,0.1
0,0.3,2.13183,0.0246547,0.678878,-0.210614,0.277887,0.0121587,-1.04232,1.37519,0.0601597,0.0162667,2.92579,5,0.1,1,0.3,-1.12359,1.59114,0.540088,0.146477,0.0104673,0.0106546,0.722632,0.0516325,0.0525601,0.0074784,0.514422,5,0.1,2,0.3,-2.62529,-3.91046,0.506797,0.238888,0.222943,-0.00887327,1.01027,0.874415,-0.0288337,0.0232963,1.09073,5,0.1,3,0.3,-1.55361,4.11569,0.596406,0.0777462,-0.340127,0.000349618,0.38477,-1.68326,0.00173599,0.00990218,2.92578,5,0.1,4,0.3,-0.874446,-3.79985,0.554609,-0.183604,-0.0477895,0.0230257,-0.905771,-0.235766,0.113595,0.013546,0.866736,5,0.1,5,0.3,4.12859,0.774202,0.507441,-0.140376,0.319295,-0.00773268,-0.694722,1.5801,-0.0317954,0.0158561,2.92583,5,0.1,6,0.3,-0.302236,-1.50699,0.645375,0.015571,-0.323932,0.00376208,0.0770576,-1.28846,0.0186153,0.0113687,3.00476,5,0.1,7,0.3,-1.47342,-2.98757,0.540569,0.122191,0.32673,0.00618873,0.604682,1.61688,0.0306256,0.0368099,2.9258,5,0.1,8,0.3,-2.21062,4.18809,0.584906,0.339808,-0.0245683,0.0116329,1.67638,-0.121266,0.171591,0.0228436,2.84093,5,0.1,9,0.3,-0.805348,4.20077,0.626245,-0.332533,-0.0896186,-0.00913059,-1.59382,-0.420034,-0.0445507,0.00871523,2.92852,5,0.1,10,0.3,-4.19284,-0.482458,0.518902,0.0928417,-0.336229,0.00758125,0.459552,-1.6639,0.0375099,0.00822309,2.92579,5,0.1,11,0.3,4.14754,-3.00786,0.623941,-0.0487342,0.345472,-0.00137659,-0.24116,1.70968,-0.00681356,0.0129606,2.92579,5,0.1,12,0.3,-4.16941,0.36163,0.697551,0.181306,0.175783,0.00932841,0.894457,0.867186,0.0460185,0.0111804,1.51534,5,0.1,13,0.3,1.99343,-3.27337,0.693084,-0.172645,0.303119,0.00580391,-0.854425,1.50001,0.0287332,0.01853,2.9258,5,0.1,14,0.3,-3.59163,-1.64665,0.543522,0.345851,0.0179207,0.00842754,1.6797,0.0886843,0.0417084,0.0113702,2.92665,5,0.1,15,0.3,-1.33969,1.0376,0.638349,0.184916,0.135598,-0.00682073,0.912264,0.66895,-0.033658,0.00922816,1.24876,5,0.1,16,0.3,0.451348,-1.2074,0.581661,-0.000239909,0.18806,0.13665,-0.00118464,0.927761,0.674125,0.0269926,1.28236,5,0.1,17,0.3,1.72041,-2.60119,0.612174,-0.0423931,0.346301,-0.000991113,-0.209793,1.71374,-0.00490993,0.012137,2.9258,5,0.1,18,0.3,-3.76377,-2.21732,0.55831,0.000928715,0.231913,0.00999374,0.00460446,1.14411,0.0492968,0.00813601,1.27867,5,0.1,19,0.3,1.38429,4.04513,0.64221,-0.19672,-0.287622,-0.0171614,-0.973508,-1.42324,-0.0849329,0.0102575,2.9258,5,0.1,20,0.3,-3.9739,1.25888,0.68264,0.199893,0.0162054,0.0119791,0.986174,0.0799447,0.0590943,0.00922647,0.957752,5,0.1,21,0.3,-4.14373,4.05774,0.654335,0.348639,-0.00744611,0.00173394,1.72374,-0.0194311,0.069648,0.0115356,2.92837,5,0.1,22,0.3,-2.25523,-0.786569,0.63714,0.244863,0.2485,-0.00431901,1.21182,1.22976,-0.0213645,0.0253575,2.92578,5,0.1,23,0.3,1.39875,0.206425,0.641418,-0.0353498,0.123353,-0.00736713,-0.174381,0.608535,-0.0363514,0.0259853,0.392013,5,0.1,24,0.3,3.98614,2.64957,0.567301,-0.313257,0.0623196,0.00581639,-1.60258,0.307411,0.0286959,0.0145164,2.78995,5,0.1,25,0.3,-0.723495,-2.66325,0.534502,0.0547736,0.344463,0.00847196,0.271048,1.70469,0.0419281,0.0314368,2.92579,5,0.1,26,0.3,0.803115,-0.714903,0.583883,0.0705848,0.10047,0.00286466,0.348214,0.495657,0.01413,0.0311073,0.357956,5,0.1,27,0.3,-4.17061,-3.75418,0.559115,0.109205,0.0684433,-0.00962485,0.538647,0.33766,-0.0474826,0.0146928,0.396392,5,0.1,28,0.3,2.32302,0.698155,0.684242,-0.300579,0.176824,0.010553,-1.48746,0.875063,0.0522211,0.0112472,2.92579,5,0.1,29,0.3,-1.00086,-0.947975,0.557978,-0.0245729,-0.210217,-0.00599138,-0.121232,-1.03707,-0.0295565,0.00932219,1.06381,5,0.1
0,0.4,2.10565,0.0592027,0.68039,-0.311035,0.410383,0.0179559,-0.921607,1.21591,0.0531673,0.0156063,2.50231,5,0.1,1,0.4,-1.10539,1.59244,0.541412,0.216022,0.0154376,0.0157133,0.637531,0.0455976,0.0463724,0.00934612,0.407015,5,0.1,2,0.4,-2.59665,-3.88415,0.505786,0.330228,0.299197,-0.0111267,0.786185,0.630736,-0.0160933,0.0196156,0.819481,5,0.1,3,0.4,-1.54395,4.07341,0.59645,0.114816,-0.5023,0.00051707,0.340164,-1.48821,0.00151992,0.00952886,2.51146,5,0.1,4,0.4,-0.897255,-3.80579,0.55747,-0.270775,-0.0704765,0.0339568,-0.79909,-0.208139,0.100255,0.00818856,0.685771,5,0.1,5,0.4,4.11114,0.813898,0.506519,-0.207317,0.471534,-0.0105694,-0.614166,1.3971,-0.0240803,0.0207017,2.51041,5,0.1,6,0.4,-0.3003,-1.54534,0.645843,0.0229947,-0.437292,0.00555515,0.068143,-0.947952,0.0164509,0.013581,3.01234,5,0.1,7,0.4,-1.45823,-2.94695,0.541338,0.18045,0.482512,0.00913888,0.534654,1.42968,0.0270903,0.0382105,2.51009,5,0.1,8,0.4,-2.16841,4.18503,0.587052,0.501138,-0.0362277,0.0321433,1.47903,-0.10705,0.222653,0.0298086,2.25034,5,0.1,9,0.4,-0.846371,4.18978,0.625114,-0.484286,-0.129271,-0.0134021,-1.37699,-0.356674,-0.0390112,0.00903854,2.54574,5,0.1,10,0.4,-4.1813,-0.52426,0.519845,0.137115,-0.496542,0.0111952,0.406265,-1.47116,0.03317,0.0118615,2.51051,5,0.1,11,0.4,4.14148,-2.96491,0.62377,-0.0719666,0.510192,-0.00203252,-0.213385,1.51169,-0.00602007,0.0152724,2.51369,5,0.1,12,0.4,-4.14689,0.383467,0.69871,0.267386,0.25924,0.0137582,0.788927,0.765055,0.0405908,0.0112144,1.19895,5,0.1,13,0.4,1.97196,-3.23568,0.693806,-0.254965,0.447643,0.00857115,-0.755429,1.32632,0.0254214,0.0265253,2.51009,5,0.1,14,0.4,-3.54883,-1.64442,0.544569,0.50658,0.0264645,0.0124454,1.46532,0.0784397,0.0368953,0.0118837,2.91184,5,0.1,15,0.4,-1.31672,1.05444,0.637502,0.272709,0.199977,-0.0100583,0.804782,0.590205,-0.0297129,0.0106045,0.988032,5,0.1,16,0.4,0.451318,-1.18404,0.598637,-0.000353903,0.277343,0.201528,-0.00104308,0.818551,0.594705,0.0270195,1.01462,5,0.1,17,0.4,1.71514,-2.55814,0.612051,-0.0626057,0.511414,-0.00146478,-0.18549,1.51527,-0.00432134,0.0125174,2.51415,5,0.1,18,0.4,-3.76365,-2.18851,0.559551,0.00137091,0.342017,0.0147387,0.00405312,1.00946,0.0434816,0.00827953,1.0117,5,0.1,19,0.4,1.35983,4.00937,0.640076,-0.290516,-0.424761,-0.0253454,-0.860751,-1.25837,-0.0750721,0.0111365,2.51009,5,0.1,20,0.4,-3.94907,1.2609,0.684128,0.294805,0.0238985,0.0176668,0.86987,0.0705123,0.0521243,0.00896058,0.757779,5,0.1,21,0.4,-4.10039,4.05693,0.654926,0.51465,-0.0087142,0.0105739,1.52302,-0.00667572,0.0995696,0.0130683,2.51688,5,0.1,22,0.4,-2.22479,-0.755675,0.636603,0.361615,0.366984,-0.0063777,1.07145,1.08734,-0.0188947,0.0223984,2.51006,5,0.1,23,0.4,1.39436,0.221749,0.640503,-0.0521332,0.181917,-0.0108659,-0.15384,0.536874,-0.0320375,0.0230969,0.310165,5,0.1,24,0.4,3.94688,2.65731,0.568024,-0.469482,0.0919044,0.00857711,-1.44947,0.271201,0.025332,0.0133058,2.21859,5,0.1,25,0.4,-0.716686,-2.62042,0.535555,0.080888,0.508702,0.012511,0.23967,1.50728,0.0370741,0.0310461,2.5132,5,0.1,26,0.4,0.811883,-0.702421,0.584239,0.104097,0.148171,0.00422448,0.307232,0.437289,0.0124872,0.0277766,0.419376,5,0.1,27,0.4,-4.15704,-3.74567,0.557919,0.161052,0.10094,-0.0141934,0.475168,0.297904,-0.0419021,0.00800502,0.313632,5,0.1,28,0.4,2.28565,0.720138,0.685554,-0.443894,0.261132,0.0155851,-1.31524,0.773698,0.0461638,0.0119719,2.51007,5,0.1,29,0.4,-1.00391,-0.974091,0.557234,-0.0362396,-0.310023,-0.0088349,-0.10699,-0.914901,-0.0261068,0.00754824,0.841696,5,0.1
0,0.5,2.0698,0.106491,0.682458,-0.40582,0.53544,0.0234251,-0.925422,1.22101,0.0534095,0.0156063,2.50231,5,0.1,1,0.5,-1.08054,1.59422,0.543219,0.280706,0.0200631,0.0204182,0.624396,0.0446513,0.0454225,0.00934612,0.407015,5,0.1,2,0.5,-2.55977,-3.85121,0.504624,0.40588,0.357674,-0.0118471,0.6942,0.516057,0.00070408,0.0196156,0.819481,5,0.1,3,0.5,-1.53072,4.01565,0.596509,0.14982,-0.651997,0.000673439,0.341907,-1.4334,0.00152364,0.00952886,2.51146,5,0.1,4,0.5,-0.928401,-3.81389,0.561376,-0.351851,-0.0915911,0.0441276,-0.782654,-0.203803,0.0981726,0.00818856,0.685771,5,0.1,5,0.5,4.08725,0.868235,0.505374,-0.270517,0.6153,-0.0120363,-0.617325,1.40428,-0.0061281,0.0207017,2.51041,5,0.1,6,0.5,-0.297651,-1.59246,0.646483,0.03,-0.493011,0.00724653,0.0683703,-0.219256,0.0165142,0.013581,3.01234,5,0.1,7,0.5,-1.43744,-2.89135,0.542392,0.235469,0.629629,0.0119263,0.53741,1.43702,0.0272244,0.0382105,2.51009,5,0.1,8,0.5,-2.11079,4.18087,0.591497,0.650396,-0.0470832,0.0575259,1.43404,-0.104785,0.26954,0.0298086,2.25034,5,0.1,9,0.5,-0.901769,4.17525,0.623575,-0.622802,-0.159274,-0.0173505,-1.32669,-0.239015,-0.0380278,0.00903854,2.54574,5,0.1,10,0.5,-4.1655,-0.581412,0.521135,0.178918,-0.64601,0.0146087,0.408292,-1.4439,0.0333488,0.0118615,2.51051,5,0.1,11,0.5,4.13318,-2.90631,0.623536,-0.093922,0.660211,-0.00265222,-0.214458,1.41902,-0.00605732,0.0152724,2.51369,5,0.1,12,0.5,-4.11613,0.413287,0.700293,0.347434,0.336863,0.0178766,0.772715,0.749316,0.0397526,0.0112144,1.19895,5,0.1,13,0.5,1.94258,-3.1841,0.694794,-0.3327,0.584127,0.0111862,-0.759296,1.33318,0.0255369,0.0265253,2.51009,5,0.1,14,0.5,-3.4925,-1.64137,0.546004,0.604503,0.0345349,0.0162413,0.534564,0.0788271,0.0370741,0.0118837,2.91184,5,0.1,15,0.5,-1.28535,1.07744,0.636345,0.354362,0.259857,-0.0130723,0.788227,0.578038,-0.0290908,0.0106045,0.988032,5,0.1,16,0.5,0.451277,-1.15214,0.621817,-0.000459654,0.360392,0.261868,-0.00102259,0.80169,0.582483,0.0270195,1.01462,5,0.1,17,0.5,1.70792,-2.49941,0.611882,-0.081693,0.66148,-0.00190996,-0.186443,1.41679,-0.00435114,0.0125174,2.51415,5,0.1,18,0.5,-3.7635,-2.14917,0.561247,0.00178106,0.444435,0.0191505,0.00394881,0.988662,0.0425838,0.00827953,1.0117,5,0.1,19,0.5,1.32635,3.96043,0.637156,-0.37909,-0.554256,-0.0330707,-0.865169,-1.26491,-0.0754669,0.0111365,2.51009,5,0.1,20,0.5,-3.91516,1.26365,0.686161,0.383063,0.0310527,0.0229558,0.851974,0.0690743,0.0510588,0.00896058,0.757779,5,0.1,21,0.5,-4.04133,4.05604,0.656545,0.664735,-0.00898689,0.022264,1.41047,0.00089407,0.126727,0.0130683,2.51688,5,0.1,22,0.5,-2.18312,-0.713385,0.635868,0.471869,0.478875,-0.00832239,1.07692,1.09292,-0.0189953,0.0223984,2.51006,5,0.1,23,0.5,1.38837,0.242674,0.639253,-0.0677418,0.236389,-0.0141168,-0.150681,0.525828,-0.0313818,0.0230969,0.310165,5,0.1,24,0.5,3.8925,2.66789,0.56901,-0.617938,0.119422,0.0111467,-1.44532,0.265628,0.0247993,0.0133058,2.21859,5,0.1,25,0.5,-0.707364,-2.56198,0.536997,0.105551,0.658662,0.0163258,0.240907,1.42175,0.0372641,0.0310461,2.5132,5,0.1,26,0.5,0.823857,-0.685221,0.584725,0.135268,0.196983,0.00549126,0.30091,0.507303,0.0122264,0.0277766,0.419376,5,0.1,27,0.5,-4.13852,-3.73406,0.556286,0.209267,0.131164,-0.0184443,0.465482,0.291735,-0.0410378,0.00800502,0.313632,5,0.1,28,0.5,2.2345,0.75023,0.68735,-0.579235,0.340748,0.0203358,-1.322,0.777669,0.0464097,0.0119719,2.51007,5,0.1,29,0.5,-1.00808,-1.00975,0.556218,-0.0470936,-0.402849,-0.0114833,-0.104755,-0.896078,-0.0255667,0.00754824,0.841696,5,0.1
0,0.6,2.02492,0.165716,0.685049,-0.487816,0.643623,0.0281572,-0.67991,0.897251,0.0392497,0.0167211,1.87838,5,0.1,1,0.6,-1.04958,1.59643,0.545471,0.3355,0.0239789,0.0244036,0.449181,0.0321865,0.0326931,0.00706912,0.333014,5,0.1,2,0.6,-2.51608,-3.8132,0.503463,0.463575,0.398642,-0.0111714,0.437617,0.288248,0.0119805,0.0191068,0.58018,5,0.1,3,0.6,-1.51414,3.94385,0.596584,0.180125,-0.776839,0.000809133,0.251472,-1.01435,0.00110269,0.015443,2.31092,5,0.1,4,0.6,-0.967204,-3.824,0.566243,-0.420533,-0.109482,0.0527427,-0.563055,-0.146508,0.0706315,0.00797938,0.510539,5,0.1,5,0.6,4.05733,0.9363,0.504164,-0.325239,0.739765,-0.0119597,-0.453949,1.03271,0.00688434,0.0152511,2.25498,5,0.1,6,0.6,-0.294333,-1.64201,0.647284,0.0360563,-0.490478,0.00870973,0.050202,0.229359,0.0121295,0.00769273,3.09404,5,0.1,7,0.6,-1.41139,-2.8217,0.543711,0.283101,0.756997,0.0143394,0.395238,1.05679,0.0200272,0.0393315,2.27456,5,0.1,8,0.6,-2.03914,4.17567,0.59857,0.775713,-0.0562787,0.0833675,1.02204,-0.0753403,0.235885,0.0266375,1.87587,5,0.1,9,0.6,-0.970151,4.15835,0.621665,-0.7383,-0.176442,-0.0206813,-0.936657,-0.102043,-0.0271797,0.0106018,2.52643,5,0.1,10,0.6,-4.14571,-0.652689,0.522751,0.215101,-0.772756,0.0175625,0.300407,-1.03971,0.0245571,0.0134902,2.30106,5,0.1,11,0.6,4.12279,-2.83381,0.623242,-0.112927,0.782442,-0.00318736,-0.157595,0.979543,-0.00450015,0.0141568,2.32529,5,0.1,12,0.6,-4.07782,0.450437,0.702264,0.415254,0.402619,0.0213668,0.555754,0.53905,0.0285804,0.0108249,0.892598,5,0.1,13,0.6,1.90578,-3.11948,0.696031,-0.399995,0.702292,0.0134498,-0.558436,0.980377,0.0187457,0.0228518,2.22698,5,0.1,14,0.6,-3.43063,-1.63755,0.5478,0.621355,0.0415206,0.0195265,-0.160336,0.0579357,0.0272393,0.0116816,3.10396,5,0.1,15,0.6,-1.24627,1.1061,0.634903,0.423533,0.310582,-0.0156254,0.567019,0.415802,-0.0209212,0.0134521,0.746065,5,0.1,16,0.6,0.451227,-1.11239,0.650697,-0.000549108,0.430745,0.312984,-0.000745058,0.576675,0.419021,0.0310605,0.755357,5,0.1,17,0.6,1.69888,-2.4268,0.611671,-0.0982165,0.783306,-0.00229478,-0.13715,0.974178,-0.00321865,0.0161852,2.32764,5,0.1,18,0.6,-3.7633,-2.10016,0.563359,0.00212789,0.531197,0.0228882,0.00274181,0.711083,0.0306368,0.0116922,0.753177,5,0.1,19,0.6,1.28442,3.89911,0.633498,-0.455773,-0.666374,-0.0397593,-0.63622,-0.93019,-0.0554919,0.0134033,2.21921,5,0.1,20,0.6,-3.87291,1.26707,0.688692,0.457835,0.0371128,0.0274375,0.612736,0.0497699,0.0367165,0.0117427,0.56415,5,0.1,21,0.6,-3.96844,4.05515,0.659399,0.785494,-0.00858307,0.0346124,0.960588,0.00667572,0.11465,0.0135857,2.33823,5,0.1,22,0.6,-2.13092,-0.660412,0.634947,0.567317,0.575742,-0.0100061,0.792027,0.803769,-0.0139475,0.0255157,2.22421,5,0.1,23,0.6,1.3809,0.268744,0.637696,-0.080964,0.282533,-0.0168711,-0.108421,0.378266,-0.0225902,0.0264249,0.23091,5,0.1,24,0.6,3.82399,2.68106,0.57024,-0.745863,0.142735,0.0133231,-1.06072,0.191212,0.0178516,0.0173057,1.36666,5,0.1,25,0.6,-0.695688,-2.48961,0.538803,0.126903,0.781381,0.0196278,0.177145,0.986218,0.0274181,0.0416329,2.32261,5,0.1,26,0.6,0.838775,-0.663085,0.58533,0.161675,0.24417,0.00656545,0.216454,0.413477,0.00876188,0.0314938,0.321162,5,0.1,27,0.6,-4.11544,-3.7196,0.554252,0.250113,0.156772,-0.0220448,0.334978,0.209689,-0.0295341,0.0103798,0.233497,5,0.1,28,0.6,2.17043,0.787923,0.6896,-0.696403,0.409675,0.0244483,-0.972271,0.571907,0.0341237,0.0136117,2.21659,5,0.1,29,0.6,-1.01328,-1.05418,0.554951,-0.0562876,-0.481483,-0.0137255,-0.0753403,-0.644684,-0.0184178,0.0115879,0.626623,5,0.1
0,0.7,1.97277,0.234362,0.688059,-0.553918,0.726237,0.0319533,-0.603817,0.714748,0.0345036,0.0167211,1.87838,5,0.1,1,0.7,-1.01383,1.59914,0.548072,0.378622,0.0315122,0.027542,0.388622,0.106841,0.0282824,0.00706912,0.333014,5,0.1,2,0.7,-2.46763,-3.772,0.502419,0.503759,0.423862,-0.00959663,0.340328,0.198066,0.0187419,0.0191068,0.58018,5,0.1,3,0.7,-1.49486,3.86214,0.59667,0.205365,-0.847363,0.000920147,0.237405,-0.41531,0.00104308,0.015443,2.31092,5,0.1,4,0.7,-1.01202,-3.83566,0.571864,-0.474588,-0.123548,0.059523,-0.487145,-0.126764,0.0610985,0.00797938,0.510539,5,0.1,5,0.7,4.0225,1.01475,0.50302,-0.370809,0.821841,-0.0107571,-0.428706,0.596315,0.0162944,0.0152511,2.25498,5,0.1,6,0.7,-0.290474,-1.68904,0.648216,0.04105,-0.443898,0.00991644,0.0465922,0.60489,0.0112616,0.00769273,3.09404,5,0.1,7,0.7,-1.38108,-2.7416,0.545246,0.322776,0.835926,0.0163494,0.373229,0.521675,0.0189096,0.0393315,2.27456,5,0.1,8,0.7,-1.95795,4.17007,0.607858,0.834136,-0.0522166,0.100219,0.178032,0.135601,0.104997,0.0266375,1.87587,5,0.1,9,0.7,-1.04748,4.13958,0.61939,-0.796954,-0.203874,-0.0253546,-0.252869,-0.397593,-0.060197,0.0106018,2.52643,5,0.1,10,0.7,-4.12268,-0.734126,0.524631,0.245249,-0.845947,0.0200268,0.283599,-0.439592,0.0231713,0.0134902,2.30106,5,0.1,11,0.7,4.1107,-2.75172,0.622901,-0.128744,0.849307,-0.00363812,-0.148803,0.381991,-0.00423193,0.0141568,2.32529,5,0.1,12,0.7,-4.03356,0.493348,0.704541,0.468611,0.45437,0.0241109,0.480935,0.46638,0.0247322,0.0108249,0.892598,5,0.1,13,0.7,1.86295,-3.0446,0.697471,-0.45605,0.791619,0.0153317,-0.527315,0.763714,0.0176989,0.0228518,2.22698,5,0.1,14,0.7,-3.37054,-1.63311,0.549891,0.569814,0.0473276,0.0222571,-0.79453,0.0545532,0.0256523,0.0116816,3.10396,5,0.1,15,0.7,-1.20126,1.13892,0.633252,0.474434,0.342564,-0.0172317,0.427745,0.218667,-0.0109524,0.0134521,0.746065,5,0.1,16,0.7,0.451168,-1.06648,0.684054,-0.000620494,0.486108,0.353212,-0.000642613,0.498928,0.362545,0.0310605,0.755357,5,0.1,17,0.7,1.68837,-2.34466,0.611425,-0.111981,0.849606,-0.00261776,-0.129454,0.37685,-0.00303984,0.0161852,2.32764,5,0.1,18,0.7,-3.76307,-2.04355,0.565798,0.00239238,0.599464,0.0258296,0.00238419,0.615239,0.0265054,0.0116922,0.753177,5,0.1,19,0.7,1.23562,3.82778,0.62924,-0.519639,-0.759162,-0.0453301,-0.600807,-0.867903,-0.0524074,0.0134033,2.21921,5,0.1,20,0.7,-3.82412,1.27103,0.691616,0.516663,0.0418896,0.0309629,0.530183,0.043042,0.0317767,0.0117427,0.56415,5,0.1,21,0.7,-3.88615,4.05428,0.663279,0.850366,-0.00920668,0.041554,0.363842,-0.0161231,0.0290759,0.0135857,2.33823,5,0.1,22,0.7,-2.07018,-0.598978,0.633876,0.64682,0.650378,-0.0114067,0.747904,0.65149,-0.0131838,0.0255157,2.22421,5,0.1,23,0.7,1.37227,0.298856,0.635898,-0.0913722,0.318848,-0.01904,-0.0937954,0.327274,-0.0195429,0.0264249,0.23091,5,0.1,24,0.7,3.74487,2.69627,0.57166,-0.828329,0.161091,0.0150364,-0.579119,0.165433,0.0154376,0.0173057,1.36666,5,0.1,25,0.7,-0.682125,-2.4076,0.540903,0.143996,0.848936,0.0223288,0.155035,0.38828,0.0249818,0.0416329,2.32261,5,0.1,26,0.7,0.856006,-0.636569,0.58603,0.182455,0.285836,0.00740709,0.187282,0.395499,0.00758842,0.0314938,0.321162,5,0.1,27,0.7,-4.08878,-3.70289,0.551903,0.282273,0.176905,-0.0248797,0.289857,0.181451,-0.025548,0.0103798,0.233497,5,0.1,28,0.7,2.09612,0.831787,0.692217,-0.786546,0.467038,0.0278711,-0.78468,0.539243,0.0321716,0.0136117,2.21659,5,0.1,29,0.7,-1.01927,-1.10549,0.553488,-0.0635201,-0.543374,-0.0154931,-0.0651851,-0.557758,-0.0159219,0.0115879,0.626623,5,0.1
0,0.8,1.91474,0.309989,0.691404,-0.602135,0.779896,0.0346944,-0.334501,0.331967,0.0188351,0.0222341,1.55575,5,0.1,1,0.8,-0.974286,1.60287,0.550949,0.409092,0.0432968,0.0297606,0.204027,0.119984,0.0148118,0.0123672,0.238328,5,0.1,2,0.8,-2.41589,-3.72889,0.501559,0.52737,0.435275,-0.00756234,0.114918,0.0185966,0.0213683,0.0267978,0.394098,5,0.1,3,0.8,-1.47326,3.77612,0.596767,0.224912,-0.866026,0.00100583,0.142574,0,0.000655651,0.0131998,2.23045,5,0.1,4,0.8,-1.06159,-3.84857,0.57808,-0.512782,-0.133485,0.0643119,-0.255823,-0.0665188,0.0320971,0.00875921,0.360467,5,0.1,5,0.8,3.98351,1.09914,0.502035,-0.406116,0.858632,-0.00885725,-0.257492,0.14782,0.0209808,0.0203636,2.1546,5,0.1,6,0.8,-0.286163,-1.73039,0.649258,0.044854,-0.38451,0.0108361,0.0273585,0.530183,0.00658631,0.0111773,3.11238,5,0.1,7,0.8,-1.34714,-2.65624,0.546965,0.353512,0.863475,0.0179067,0.224233,0.0510216,0.0113547,0.0387654,2.17939,5,0.1,8,0.8,-1.87482,4.16574,0.618216,0.81751,-0.0329256,0.105141,-0.480294,0.23365,-0.00268221,0.0246082,1.43815,5,0.1,9,0.8,-1.12743,4.11705,0.61654,-0.792336,-0.247347,-0.0316516,0.32711,-0.434637,-0.0611544,0.0117179,2.0272,5,0.1,10,0.8,-4.09689,-0.820093,0.526737,0.26859,-0.866024,0.021936,0.170469,-2.98023e-05,0.0138879,0.0108415,2.23928,5,0.1,11,0.8,4.09717,-2.66563,0.622518,-0.141001,0.866026,-0.00398606,-0.0891685,0,-0.002563,0.0150663,2.25662,5,0.1,12,0.8,-3.98462,0.540798,0.707059,0.506318,0.490935,0.0260502,0.252485,0.244915,0.0129938,0.0119682,0.630237,5,0.1,13,0.8,1.815,-2.96225,0.699083,-0.499475,0.848484,0.0167906,-0.316739,0.350833,0.0106096,0.0240627,2.1156,5,0.1,14,0.8,-3.31807,-1.62813,0.552231,0.475633,0.0518173,0.0243664,-1.03307,0.0326037,0.0153482,0.0140091,3.34387,5,0.1,15,0.8,-1.15206,1.17392,0.631492,0.50526,0.353622,-0.0177816,0.173807,0.000834465,0,0.01205,0.552931,5,0.1,16,0.8,0.451103,-1.01572,0.720941,-0.000670552,0.525226,0.381637,-0.000342727,0.261992,0.190407,0.031291,0.533325,5,0.1,17,0.8,1.67659,-2.25856,0.61115,-0.12264,0.866026,-0.00286847,-0.0777245,0,-0.00178814,0.0181546,2.26034,5,0.1,18,0.8,-3.76282,-1.98094,0.568495,0.00257492,0.6477,0.0279069,0.0013113,0.323057,0.0139475,0.010586,0.531788,5,0.1,19,0.8,1.18098,3.74802,0.624474,-0.569117,-0.830239,-0.0496462,-0.360847,-0.513911,-0.0314713,0.0120625,2.07036,5,0.1,20,0.8,-3.77016,1.2754,0.69485,0.558233,0.0452638,0.0334531,0.278473,0.0226498,0.0167191,0.00991018,0.802851,5,0.1,21,0.8,-3.80002,4.05326,0.667472,0.866026,-0.0112772,0.0413388,0,-0.0228882,-0.0291467,0.012934,2.27302,5,0.1,22,0.8,-2.00217,-0.531185,0.632677,0.708407,0.699818,-0.0124916,0.449181,0.312507,-0.00795722,0.0218639,2.29441,5,0.1,23,0.8,1.36272,0.332154,0.63391,-0.0987262,0.344507,-0.0205725,-0.0492334,0.17187,-0.010252,0.0276229,0.163035,5,0.1,24,0.8,3.65998,2.71309,0.57323,-0.861466,0.174057,0.0162467,-0.0911951,0.0870228,0.00810623,0.0136081,1.04336,5,0.1,25,0.8,-0.667051,-2.32153,0.543246,0.156282,0.86602,0.0243515,0.0841618,0.000119209,0.0143349,0.0294332,2.25267,5,0.1,26,0.8,0.87506,-0.606201,0.586803,0.197138,0.319144,0.00800192,0.0983179,0.253737,0.00399351,0.025443,0.232728,5,0.1,27,0.8,-4.0593,-3.68442,0.549304,0.304997,0.191134,-0.0268832,0.152111,0.0952482,-0.013411,0.00788629,0.164866,5,0.1,28,0.8,2.01415,0.88089,0.695148,-0.846088,0.511414,0.0305206,-0.379503,0.323296,0.0192523,0.0119495,1.64528,5,0.1,29,0.8,-1.02591,-1.16224,0.55187,-0.0686288,-0.587103,-0.0167415,-0.0342131,-0.292957,-0.00834465,0.00796711,0.442427,5,0.1
0,0.9,1.85278,0.389306,0.694964,-0.636765,0.802583,0.0364137,-0.319257,0.101499,0.0138469,0.0222341,1.55575,5,0.1,1,0.9,-0.932404,1.60786,0.553995,0.42758,0.0567073,0.0311031,0.146143,0.139393,0.0106134,0.0123672,0.238328,5,0.1,2,0.9,-2.36264,-3.68532,0.50091,0.536511,0.435253,-0.0054379,0.0471622,-0.0338405,0.0206716,0.0267978,0.394098,5,0.1,3,0.9,-1.44996,3.68952,0.596823,0.241705,-0.866026,-0.000287127,0.173561,0,-0.0235625,0.0131998,2.23045,5,0.1,4,0.9,-1.11408,-3.86223,0.584664,-0.535963,-0.139512,0.0672197,-0.18324,-0.047639,0.022985,0.00875921,0.360467,5,0.1,5,0.9,3.94156,1.18546,0.501257,-0.432742,0.865563,-0.00668783,-0.247627,0.0184998,0.02186,0.0203636,2.1546,5,0.1,6,0.9,-0.28154,-1.76634,0.650375,0.04756,-0.339338,0.0114883,0.0240542,0.253238,0.00580028,0.0111773,3.11238,5,0.1,7,0.9,-1.31062,-2.56974,0.548815,0.376702,0.865866,0.019081,0.215709,0.0063777,0.0109188,0.0387654,2.17939,5,0.1,8,0.9,-1.7952,4.16415,0.628603,0.776477,0.00546947,0.101531,-0.374958,0.494748,-0.0664592,0.0246082,1.43815,5,0.1,9,0.9,-1.20499,4.09055,0.613017,-0.758192,-0.279301,-0.0391465,0.368543,-0.232518,-0.0817031,0.0117179,2.0272,5,0.1,10,0.9,-4.06937,-0.906686,0.528991,0.279783,-0.865545,0.0230211,0.0495911,0.0192374,0.00711158,0.0108415,2.23928,5,0.1,11,0.9,4.0826,-2.57903,0.622106,-0.150222,0.866026,-0.00425,-0.0858009,0,-0.00245124,0.0150663,2.25662,5,0.1,12,0.9,-3.93279,0.59106,0.709726,0.529201,0.513128,0.0272277,0.1809,0.175435,0.0093095,0.0119682,0.630237,5,0.1,13,0.9,1.76348,-2.87633,0.700818,-0.53,0.864929,0.0179135,-0.265017,0.0438541,0.0106581,0.0240627,2.1156,5,0.1,14,0.9,-3.27602,-1.62278,0.554747,0.364276,0.0551555,0.0259371,-1.10288,0.0307411,0.014469,0.0140091,3.34387,5,0.1,15,0.9,-1.10081,1.20906,0.629724,0.517913,0.346909,-0.0174699,0.0628307,-0.134952,0.00628829,0.01205,0.552931,5,0.1,16,0.9,0.451035,-0.961944,0.760013,-0.000701426,0.548966,0.39889,-0.000244007,0.187661,0.136394,0.031291,0.533325,5,0.1,17,0.9,1.66393,-2.17196,0.610854,-0.130666,0.866026,-0.00305381,-0.0745505,0,-0.00172853,0.0181546,2.26034,5,0.1,18,0.9,-3.76256,-1.91463,0.571353,0.00269376,0.676974,0.0291705,0.000938773,0.231415,0.00999123,0.010586,0.531788,5,0.1,19,0.9,1.12219,3.66313,0.619345,-0.606503,-0.861266,-0.0529071,-0.348315,-0.139922,-0.0303835,0.0120625,2.07036,5,0.1,20,0.9,-3.7127,1.28004,0.698275,0.592359,0.0473151,0.0349682,0.357538,0.016205,0.0119731,0.00991018,0.802851,5,0.1,21,0.9,-3.71342,4.052,0.671397,0.866026,-0.0141293,0.0366023,0,-0.0317097,-0.062339,0.012934,2.27302,5,0.1,22,0.9,-1.92899,-0.460903,0.631386,0.754929,0.694289,-0.0133152,0.433303,-0.379436,-0.00767037,0.0218639,2.29441,5,0.1,23,0.9,1.35262,0.367424,0.631804,-0.103188,0.360081,-0.0215018,-0.035271,0.123108,-0.00734627,0.0276229,0.163035,5,0.1,24,0.9,3.57406,2.73091,0.574893,-0.849991,0.181941,0.016981,0.314265,0.0623018,0.00579655,0.0136081,1.04336,5,0.1,25,0.9,-0.650968,-2.23492,0.545756,0.165453,0.866025,0.0258652,0.0882708,1.49012e-05,0.0142753,0.0294332,2.25267,5,0.1,26,0.9,0.895243,-0.57304,0.587623,0.206047,0.343369,0.00836411,0.0704303,0.211675,0.00286475,0.025443,0.232728,5,0.1,27,0.9,-4.02808,-3.66485,0.546552,0.318782,0.199766,-0.0280982,0.108972,0.0682473,-0.0096038,0.00788629,0.164866,5,0.1,28,0.9,1.92835,0.933619,0.698294,-0.864343,0.542142,0.0323511,-0.046812,0.262816,0.0156574,0.0119495,1.64528,5,0.1,29,0.9,-1.03293,-1.22235,0.550156,-0.0717292,-0.613648,-0.0174974,-0.024505,-0.209823,-0.00597164,0.00796711,0.442427,5,0.1
0,1,1.78779,0.469558,0.698655,-0.65943,0.797013,0.0371799,-0.107169,-0.224485,0.000327826,0.0160719,1.12051,5,0.1,1,1,-0.889142,1.6142,0.557142,0.435065,0.069651,0.0316471,-0.00941753,0.11301,-0.000715256,0.00685453,0.164386,5,0.1,2,1,-2.309,-3.64215,0.500465,0.533372,0.426078,-0.00350624,-0.123501,-0.159264,0.0177026,0.0179587,0.261394,5,0.1,3,1,-1.425,3.60292,0.596656,0.256246,-0.866026,-0.00317991,0.103354,0,-0.0320077,0.012619,2.22265,5,0.1,4,1,-1.16831,-3.87635,0.591466,-0.545347,-0.141954,0.0683963,0.0116825,0.00321865,-0.00146031,0.00783369,0.245131,5,0.1,5,1,3.89725,1.27205,0.500696,-0.45101,0.866026,-0.00458062,-0.0988245,0,0.019908,0.0158736,1.83636,5,0.1,6,1,-0.276687,-1.8,0.651547,0.0492096,-0.34354,0.0118852,0.00707805,-0.313997,0.00172853,0.00868882,2.88033,5,0.1,7,1,-1.27205,-2.48314,0.550769,0.392622,0.866026,0.0198871,0.0861287,0,0.00435114,0.0341291,2.17348,5,0.1,8,1,-1.71949,4.16733,0.63834,0.736624,0.0590205,0.0924423,-0.44632,0.546217,-0.112474,0.0213761,1.13044,5,0.1,9,1,-1.27881,4.06163,0.608708,-0.716421,-0.297797,-0.0467882,0.476122,-0.148773,-0.066191,0.00795286,1.63465,5,0.1,10,1,-4.04137,-0.99299,0.531313,0.277984,-0.858332,0.0232473,-0.0870228,0.153929,-0.00301003,0.00795861,2.51338,5,0.1,11,1,4.06722,-2.49243,0.621671,-0.156546,0.866026,-0.00443012,-0.0343323,0,-0.000953674,0.0124567,2.25501,5,0.1,12,1,-3.87924,0.642978,0.712481,0.538462,0.522114,0.0277042,-0.0114441,-0.0112653,-0.000596046,0.00960486,0.428596,5,0.1,13,1,1.70943,-2.78975,0.702655,-0.547659,0.866026,0.0187203,-0.0688434,0,0.00467896,0.0191806,2.08798,5,0.1,14,1,-3.24466,-1.61714,0.5574,0.268698,0.0573874,0.026989,-0.763297,0.0116825,0.00548363,0.0107754,3.36281,5,0.1,15,1,-1.049,1.24285,0.628019,0.515166,0.326812,-0.0165224,-0.127792,-0.265181,0.0126958,0.00927364,0.418004,5,0.1,16,1,0.450964,-0.9064,0.800373,-0.000713766,0.558577,0.405878,1.49012e-05,-0.0120401,-0.00876188,0.0271201,0.362682,5,0.1,17,1,1.65055,-2.08535,0.610541,-0.136155,0.866026,-0.0031814,-0.0296235,0,-0.000685453,0.0122418,2.25917,5,0.1,18,1,-3.76229,-1.84614,0.574304,0.00274181,0.688827,0.0296816,0,-0.0149012,-0.000596046,0.00898949,0.389945,5,0.1,19,1,1.06007,3.57665,0.613927,-0.632259,-0.866026,-0.0551537,-0.14019,0,-0.0122488,0.0111397,1.98613,5,0.1,20,1,-3.65185,1.28482,0.701813,0.621784,0.0481457,0.0355825,0.198007,-0.00101328,-0.000745058,0.00823426,0.592108,5,0.1,21,1,-3.62682,4.05043,0.674713,0.866026,-0.0172019,0.0294596,0,-0.0274181,-0.0779033,0.0126872,2.27224,5,0.1,22,1,-1.85167,-0.394214,0.630022,0.786957,0.632035,-0.0138819,0.174165,-0.828311,-0.00309944,0.0191077,2.47866,5,0.1,23,1,1.34218,0.403857,0.629628,-0.104994,0.366387,-0.0218779,0.00226498,-0.00791252,0.000476837,0.0239896,0.213235,5,0.1,24,1,3.49126,2.74932,0.576611,-0.800169,0.185132,0.0172779,0.673056,-0.0038147,-0.00038743,0.0128757,0.716646,5,0.1,25,1,-0.634048,-2.14832,0.548403,0.172071,0.866026,0.0269234,0.0363886,0,0.00572205,0.0327982,2.25089,5,0.1,26,1,0.916091,-0.537842,0.588469,0.209655,0.358282,0.00851154,-0.00455976,0.0737011,-0.000208616,0.030386,0.161424,5,0.1,27,1,-3.99582,-3.64464,0.543709,0.324368,0.203264,-0.0285894,-0.00703335,-0.00441074,0.000596046,0.00782806,0.11212,5,0.1,28,1,1.84191,0.988858,0.70159,-0.86289,0.55922,0.0333697,0.0627041,0.059545,0.00351667,0.011438,1.18798,5,0.1,29,1,-1.04019,-1.28444,0.548386,-0.0729799,-0.624397,-0.0178024,0.00149012,0.0134706,0.000357628,0.00785423,0.300862,5,0.1
0,1.1,1.7213,0.548069,0.702373,-0.669786,0.772008,0.0371281,-0.0694618,-0.296349,-0.00275671,0.0160719,1.12051,5,0.1,1,1.1,-0.845701,1.62174,0.560302,0.433156,0.0810497,0.0315058,-0.0446774,0.108153,-0.00326708,0.00685453,0.164386,5,0.1,2,1.1,-2.25629,-3.60034,0.500196,0.520365,0.409912,-0.00195131,-0.15372,-0.17637,0.0132844,0.0179587,0.261394,5,0.1,3,1.1,-1.39878,3.51632,0.596158,0.26858,-0.866026,-0.00692783,0.124715,0,-0.0405721,0.012619,2.22265,5,0.1,4,1.1,-1.22277,-3.89052,0.598295,-0.542964,-0.14132,0.0680974,0.055939,0.0146627,-0.00701845,0.00783369,0.245131,5,0.1,5,1.1,3.85161,1.35865,0.500331,-0.461605,0.86594,-0.00278046,-0.0892431,-0.00344217,0.0159182,0.0158736,1.83636,5,0.1,6,1.1,-0.271727,-1.83728,0.652745,0.049952,-0.412711,0.0120662,0.00538677,-0.960849,0.0013113,0.00868882,2.88033,5,0.1,7,1.1,-1.23228,-2.39654,0.552786,0.402837,0.865787,0.0204869,0.0952631,-0.00956655,0.00630319,0.0341291,2.17348,5,0.1,8,1.1,-1.64742,4.17556,0.646942,0.709666,0.101648,0.0789281,-0.146717,0.307888,-0.153415,0.0213761,1.13044,5,0.1,9,1.1,-1.34907,4.0312,0.603773,-0.696811,-0.309582,-0.0511678,-0.00678748,-0.0764728,-0.0222698,0.00795286,1.63465,5,0.1,10,1.1,-4.01491,-1.07777,0.533559,0.243374,-0.833994,0.0211161,-0.556514,0.344235,-0.0364333,0.00795861,2.51338,5,0.1,11,1.1,4.05136,-2.40582,0.621222,-0.160737,0.866026,-0.00454672,-0.0401139,0,-0.00111759,0.0124567,2.25501,5,0.1,12,1.1,-3.82548,0.695111,0.715247,0.536118,0.519826,0.027583,-0.0551343,-0.0535958,-0.00284612,0.00960486,0.428596,5,0.1,13,1.1,1.65424,-2.70315,0.704555,-0.556365,0.866022,0.0192919,-0.0758842,-0.000163913,0.00557676,0.0191806,2.08798,5,0.1,14,1.1,-3.22105,-1.61133,0.560131,0.211849,0.0587646,0.0276357,-0.27217,0.0126064,0.00591576,0.0107754,3.36281,5,0.1,15,1.1,-0.998154,1.27417,0.626431,0.500953,0.299206,-0.015243,-0.170905,-0.289768,0.0131615,0.00927364,0.418004,5,0.1,16,1.1,0.450892,-0.850626,0.840899,-0.000710599,0.55613,0.404099,7.45058e-05,-0.0573322,-0.0416636,0.0271201,0.362682,5,0.1,17,1.1,1.63676,-1.99875,0.610219,-0.139749,0.866026,-0.00326503,-0.0341535,0,-0.000797212,0.0122418,2.25917,5,0.1,18,1.1,-3.76167,-1.77772,0.577292,0.012631,0.675537,0.0302381,0.175685,-0.253282,0.00912324,0.00898949,0.389945,5,0.1,19,1.1,0.996013,3.49005,0.608339,-0.649313,-0.865811,-0.056643,-0.162922,0.00856817,-0.0142232,0.0111397,1.98613,5,0.1,20,1.1,-3.5886,1.28963,0.705366,0.643362,0.0479365,0.0354285,0.196978,-0.00493973,-0.00363961,0.00823426,0.592108,5,0.1,21,1.1,-3.54021,4.04856,0.677255,0.866026,-0.0201754,0.0213074,0,-0.0298917,-0.0830702,0.0126872,2.27224,5,0.1,22,1.1,-1.77193,-0.335848,0.628616,0.808325,0.529775,-0.0142611,0.205569,-1.1604,-0.00364706,0.0191077,2.47866,5,0.1,23,1.1,1.33169,0.440597,0.627444,-0.104533,0.369226,-0.0217817,0.010781,0.0414103,0.00224635,0.0239896,0.213235,5,0.1,24,1.1,3.41539,2.76781,0.578336,-0.710431,0.184334,0.017201,1.08394,-0.0189245,-0.00178814,0.0128757,0.716646,5,0.1,25,1.1,-0.616618,-2.06172,0.55113,0.176665,0.866026,0.0276263,0.0449307,0,0.00672415,0.0327982,2.25089,5,0.1,26,1.1,0.937025,-0.501665,0.589319,0.208733,0.364668,0.00847243,-0.0215396,0.0386965,-0.000886619,0.030386,0.161424,5,0.1,27,1.1,-3.96344,-3.62434,0.540854,0.322946,0.202372,-0.0284656,-0.0333041,-0.0208765,0.00292435,0.00782806,0.11212,5,0.1,28,1.1,1.7557,1.04506,0.704944,-0.862268,0.563989,0.0336516,-0.00328571,0.0129566,0.000756234,0.011438,1.18798,5,0.1,29,1.1,-1.04748,-1.34678,0.546608,-0.0726663,-0.621661,-0.0177264,0.00745058,0.0641122,0.00181794,0.00785423,0.300862,5,0.1
0,1.2,1.65424,0.623533,0.706058,-0.668219,0.734361,0.0363976,0.121415,-0.469685,-0.0127852,0.0152075,0.806002,5,0.1,1,1.2,-0.802773,1.63033,0.563424,0.42349,0.0901312,0.0308022,-0.159055,0.0687242,-0.0115931,0.00684872,0.11057,5,0.1,2,1.2,-2.20518,-3.56034,0.500059,0.499797,0.388759,-0.000861287,-0.268579,-0.254512,0.00855327,0.0188734,0.171769,5,0.1,3,1.2,-1.37138,3.42971,0.595264,0.278026,-0.866026,-0.0108778,0.050962,0,-0.0367165,0.0128344,2.21806,5,0.1,4,1.2,-1.27658,-3.90453,0.605044,-0.530854,-0.138158,0.0665784,0.199378,0.051856,-0.025034,0.00773564,0.162996,5,0.1,5,1.2,3.80518,1.4452,0.500125,-0.464851,0.864652,-0.00142008,0.0406504,-0.0275373,0.0112355,0.0164282,1.38558,5,0.1,6,1.2,-0.266724,-1.88368,0.653953,0.0498869,-0.516632,0.0120521,-0.00831485,-1.03545,-0.00199676,0.00922144,2.54368,5,0.1,7,1.2,-1.19166,-2.31008,0.554861,0.407794,0.862205,0.0209183,-0.0119805,-0.0765324,0.00137091,0.0341158,2.34046,5,0.1,8,1.2,-1.57706,4.18689,0.654031,0.697839,0.121248,0.062573,-0.130355,0.0884533,-0.169933,0.00779057,0.883694,5,0.1,9,1.2,-1.41907,4.00005,0.598611,-0.70428,-0.311393,-0.0514314,-0.0846386,0.0469685,0.0159442,0.0114688,1.25229,5,0.1,10,1.2,-3.9938,-1.15906,0.535455,0.175428,-0.787807,0.0165373,-0.763535,0.58496,-0.0526309,0.00986655,2.54263,5,0.1,11,1.2,4.03514,-2.31922,0.620763,-0.162971,0.866026,-0.00460893,0.00190735,0,8.9407e-05,0.0109061,2.2546,5,0.1,12,1.2,-3.77234,0.746629,0.717981,0.524175,0.508229,0.0269681,-0.196934,-0.190943,-0.0101328,0.00901177,0.284994,5,0.1,13,1.2,1.59841,-2.61655,0.706505,-0.55787,0.86596,0.0196368,0.0660419,-0.00143051,0.000536442,0.0165,2.11554,5,0.1,14,1.2,-3.2,-1.60541,0.562915,0.220984,0.0593543,0.0279129,0.42069,-0.00303984,-0.00146031,0.00852955,3.03983,5,0.1,15,1.2,-0.94908,1.30259,0.624974,0.478616,0.268438,-0.0138476,-0.285059,-0.326872,0.014931,0.010615,0.325062,5,0.1,16,1.2,0.450822,-0.795511,0.880948,-0.000694394,0.543724,0.395085,0.00025332,-0.204235,-0.148445,0.0265401,0.241163,5,0.1,17,1.2,1.62266,-1.91215,0.609889,-0.141612,0.866026,-0.00330806,0.002563,-5.96046e-05,2.98023e-05,0.0155951,2.25893,5,0.1,18,1.2,-3.75938,-1.71184,0.58036,0.0339508,0.63805,0.031057,0.23365,-0.495255,0.00536442,0.0101776,0.263653,5,0.1,19,1.2,0.930484,3.40358,0.602622,-0.658409,-0.862598,-0.057438,0.00745058,0.0684261,0.000655651,0.00915671,1.47004,5,0.1,20,1.2,-3.52352,1.29438,0.708877,0.654995,0.0468642,0.0346392,0.0106096,-0.0175238,-0.0130236,0.00852496,0.947137,5,0.1,21,1.2,-3.45361,4.04641,0.678976,0.866026,-0.0228286,0.0132099,0,-0.0212193,-0.0773072,0.011385,2.27171,5,0.1,22,1.2,-1.69034,-0.288843,0.627176,0.819993,0.409687,-0.014469,-0.00536442,-1.20056,0.000119209,0.019769,2.69318,5,0.1,23,1.2,1.32133,0.477652,0.625285,-0.102201,0.370691,-0.0212952,0.0383854,-0.0286102,0.00798702,0.00628265,0.511574,5,0.1,24,1.2,3.35018,2.78608,0.580041,-0.590295,0.180227,0.016816,1.28734,-0.0675917,-0.00634789,0.0145649,0.46856,5,0.1,25,1.2,-0.598784,-1.97512,0.553917,0.179264,0.866026,0.0279933,-0.000298023,-5.96046e-05,-0.000447035,0.0116216,1.10607,5,0.1,26,1.2,0.957711,-0.465164,0.590158,0.204076,0.363475,0.00828356,-0.0766814,-0.0727326,-0.00312924,0.0285382,0.108749,5,0.1,27,1.2,-3.93143,-3.60428,0.538033,0.315738,0.197858,-0.0278309,-0.118494,-0.0742674,0.0104308,0.00697408,0.126523,5,0.1,28,1.2,1.66966,1.10129,0.708299,-0.855568,0.557998,0.0332922,0.170052,-0.14782,-0.00879169,0.00938223,0.849568,5,0.1,29,1.2,-1.05468,-1.40839,0.544851,-0.0710487,-0.607792,-0.0173315,0.0266433,0.228345,0.00649691,0.00766574,0.216043,5,0.1
0,1.3,1.58801,0.69475,0.709635,-0.655941,0.690685,0.0351334,0.14814,-0.427011,-0.0136495,0.0152075,0.806002,5,0.1,1,1.3,-0.761202,1.63968,0.566448,0.407766,0.0966974,0.029657,-0.168584,0.0572503,-0.0122711,0.00684872,0.11057,5,0.1,2,1.3,-2.1565,-3.52269,0.500008,0.473758,0.364287,-0.000227522,-0.266492,-0.245303,0.00437722,0.0188734,0.171769,5,0.1,3,1.3,-1.34324,3.34311,0.593986,0.285175,-0.866026,-0.0147193,0.0740737,0,-0.0380911,0.0128344,2.21806,5,0.1,4,1.3,-1.32869,-3.91809,0.611579,-0.511143,-0.133031,0.0641036,0.211328,0.0549853,-0.0265278,0.00773564,0.162996,5,0.1,5,1.3,3.75887,1.53166,0.500031,-0.461171,0.86494,-0.000539981,0.0521243,0.00471622,0.00654906,0.0164282,1.38558,5,0.1,6,1.3,-0.26177,-1.94109,0.65515,0.0491944,-0.635055,0.0118857,-0.00768341,-1.24477,-0.00184774,0.00922144,2.54368,5,0.1,7,1.3,-1.15047,-2.22471,0.556995,0.419403,0.840537,0.0220369,0.198878,-0.359625,0.0178926,0.0341158,2.34046,5,0.1,8,1.3,-1.50971,4.19985,0.659662,0.633473,0.141077,0.0519738,-1.06763,0.275493,-0.0535101,0.00779057,0.883694,5,0.1,9,1.3,-1.49038,3.96918,0.593581,-0.72507,-0.3054,-0.0488627,-0.27132,0.0816286,0.0349171,0.0114688,1.25229,5,0.1,10,1.3,-3.98014,-1.23595,0.536854,0.0977218,-0.758485,0.0115656,-0.763863,0.0789985,-0.046093,0.00986655,2.54263,5,0.1,11,1.3,4.0188,-2.23262,0.620302,-0.163957,0.866026,-0.00463389,-0.0121593,0,-0.000320375,0.0109061,2.2546,5,0.1,12,1.3,-3.72089,0.796518,0.720628,0.504709,0.489354,0.0259666,-0.208676,-0.202354,-0.0107363,0.00901177,0.284994,5,0.1,13,1.3,1.54322,-2.52995,0.708478,-0.542969,0.865987,0.01986,0.234962,0.000849366,0.00270084,0.0165,2.11554,5,0.1,14,1.3,-3.17435,-1.59948,0.565705,0.303747,0.0593867,0.0279253,1.12122,0.000536442,0.000230968,0.00852955,3.03983,5,0.1,15,1.3,-0.902584,1.3279,0.623658,0.451523,0.238701,-0.0125358,-0.27097,-0.275239,0.0118092,0.010615,0.325062,5,0.1,16,1.3,0.450754,-0.742137,0.91973,-0.000669155,0.523534,0.380411,0.000271946,-0.216462,-0.157308,0.0265401,0.241163,5,0.1,17,1.3,1.60847,-1.82555,0.609558,-0.14233,0.866025,-0.00332743,-0.00887364,1.49012e-05,-0.000230968,0.0155951,2.25893,5,0.1,18,1.3,-3.75504,-1.65025,0.583479,0.05087,0.5955,0.0311601,0.110075,-0.38223,-0.00381842,0.0101776,0.263653,5,0.1,19,1.3,0.864613,3.31738,0.596876,-0.658909,-0.862983,-0.057481,0.0128858,-0.0271946,0.00112504,0.00915671,1.47004,5,0.1,20,1.3,-3.45863,1.29898,0.712277,0.636678,0.0451295,0.033352,-0.360847,-0.018619,-0.0137985,0.00852496,0.947137,5,0.1,21,1.3,-3.36701,4.04401,0.679974,0.866026,-0.0250794,0.00733081,0,-0.0218451,-0.0424534,0.011385,2.27171,5,0.1,22,1.3,-1.60814,-0.253892,0.625726,0.825051,0.290808,-0.0145563,0.059627,-1.11451,-0.00103936,0.019769,2.69318,5,0.1,23,1.3,1.31074,0.513543,0.623027,-0.114385,0.338107,-0.0252429,-0.243045,-0.571443,-0.0756681,0.00628265,0.511574,5,0.1,24,1.3,3.29771,2.80377,0.581692,-0.458584,0.173541,0.0161889,1.32164,-0.0717044,-0.0067167,0.0145649,0.46856,5,0.1,25,1.3,-0.582053,-1.89037,0.556403,0.145151,0.812413,0.0190973,-0.613321,-0.989169,-0.158839,0.0116216,1.10607,5,0.1,26,1.3,0.977744,-0.429177,0.590971,0.196496,0.355985,0.00797473,-0.0812523,-0.0895876,-0.00330061,0.0285382,0.108749,5,0.1,27,1.3,-3.90025,-3.58474,0.535285,0.309303,0.193823,-0.0272642,-0.031963,-0.0200272,0.00282004,0.00697408,0.126523,5,0.1,28,1.3,1.58518,1.15637,0.711585,-0.831458,0.543203,0.0324121,0.327006,-0.166833,-0.00993162,0.00938223,0.849568,5,0.1,29,1.3,-1.06176,-1.46769,0.543141,-0.0713529,-0.574902,-0.0169536,-0.0239834,0.425413,0.00218302,0.00766574,0.216043,5,0.1
0,1.4,1.52336,0.7616,0.713071,-0.634596,0.645058,0.033474,0.294805,-0.501394,-0.0202954,0.0125502,0.584755,5,0.1,1,1.4,-0.721371,1.64958,0.569345,0.387585,0.10069,0.0281885,-0.243664,0.0188947,-0.0177324,0.00782278,0.129503,5,0.1,2,1.4,-2.11055,-3.48754,0.500002,0.444132,0.337958,6.10948e-05,-0.335693,-0.28789,0.00157952,0.0203278,0.113032,5,0.1,3,1.4,-1.31444,3.25651,0.592335,0.289789,-0.866026,-0.0181496,0.00548363,0,-0.0291169,0.00853418,2.21628,5,0.1,4,1.4,-1.37862,-3.93108,0.617841,-0.485846,-0.126451,0.0609294,0.305533,0.0793934,-0.0383258,0.00736023,0.107285,5,0.1,5,1.4,3.71316,1.61804,0.500003,-0.451213,0.861037,-7.45058e-05,0.15986,-0.0997186,0.00298023,0.0146467,1.01524,5,0.1,6,1.4,-0.256903,-2.01057,0.656326,0.0479884,-0.750357,0.0115961,-0.0178814,-0.997305,-0.00432134,0.00762738,2.04447,5,0.1,7,1.4,-1.1075,-2.14294,0.559294,0.439695,0.790149,0.0239536,0.173509,-0.646591,0.0181198,0.0327013,2.54628,5,0.1,8,1.4,-1.45264,4.21542,0.664706,0.500464,0.170636,0.0498265,-1.52028,0.290632,0.00160933,0.0193583,1.04769,5,0.1,9,1.4,-1.56415,3.93916,0.588897,-0.748232,-0.293636,-0.044556,-0.148714,0.159025,0.0505745,0.012787,0.929709,5,0.1,10,1.4,-3.97401,-1.31172,0.537796,0.0271142,-0.758392,0.00742823,-0.63026,-0.0185966,-0.0362992,0.00693981,1.13581,5,0.1,11,1.4,4.00239,-2.14602,0.619838,-0.163805,0.866026,-0.00462681,0.0218153,0,0.000625849,0.0116831,2.25484,5,0.1,12,1.4,-3.67159,0.844318,0.723164,0.479728,0.465134,0.0246808,-0.3016,-0.29248,-0.0154972,0.00955993,0.187593,5,0.1,13,1.4,1.4904,-2.44335,0.710473,-0.510579,0.866026,0.019969,0.412822,0,-0.00140071,0.0155645,2.20627,5,0.1,14,1.4,-3.13798,-1.59355,0.568492,0.425279,0.0589222,0.0277072,1.22321,-0.0118613,-0.00563264,0.0105039,2.63532,5,0.1,15,1.4,-0.858857,1.35043,0.622462,0.422053,0.212127,-0.0113964,-0.327915,-0.261366,0.0112653,0.00814342,0.382529,5,0.1,16,1.4,0.450688,-0.690998,0.956889,-0.00063628,0.497624,0.361583,0.000402331,-0.312924,-0.227362,0.0285192,0.158739,5,0.1,17,1.4,1.59423,-1.73894,0.609225,-0.142014,0.866026,-0.00332147,0.020802,-5.96046e-05,0.000476837,0.0132966,2.25923,5,0.1,18,1.4,-3.74957,-1.5926,0.586557,0.056988,0.557071,0.0302136,0.0171661,-0.405192,-0.0153184,0.00895252,0.184563,5,0.1,19,1.4,0.798998,3.23111,0.591152,-0.650731,-0.859773,-0.0567675,0.171304,0.124812,0.0149608,0.00877889,1.04989,5,0.1,20,1.4,-3.39726,1.30339,0.715535,0.585955,0.0429004,0.0317007,-0.638247,-0.0270009,-0.0199378,0.00771812,0.893551,5,0.1,21,1.4,-3.28041,4.04141,0.680538,0.866026,-0.0268698,0.00431985,0,-0.0128746,-0.0195503,0.0113205,2.27736,5,0.1,22,1.4,-1.52555,-0.229858,0.624268,0.823948,0.195956,-0.0145346,-0.11456,-0.753298,0.00199676,0.0177819,2.76638,5,0.1,23,1.4,1.29788,0.543954,0.620063,-0.143912,0.265734,-0.0344351,-0.317752,-0.834376,-0.09951,0.00652715,0.415975,5,0.1,24,1.4,3.25834,2.82072,0.583273,-0.330377,0.164956,0.0153854,1.22368,-0.103831,-0.00968575,0.0134219,0.288564,5,0.1,25,1.4,-0.571149,-1.81514,0.557384,0.0688702,0.683326,-0.000452995,-0.858188,-1.52427,-0.217617,0.0303601,2.38471,5,0.1,26,1.4,0.996938,-0.394137,0.59175,0.186771,0.343477,0.00757873,-0.117481,-0.16886,-0.00473857,0.0262776,0.124561,5,0.1,27,1.4,-3.86948,-3.56546,0.532573,0.305605,0.191504,-0.0269368,-0.0578165,-0.0361204,0.0050962,0.00896793,0.0740687,5,0.1,28,1.4,1.50403,1.2097,0.714768,-0.787869,0.521508,0.0311196,0.552893,-0.279486,-0.0166595,0.0113615,0.733946,5,0.1,29,1.4,-1.06904,-1.52276,0.541457,-0.074321,-0.523648,-0.0166997,-0.0287294,0.594318,0.00369549,0.00756304,0.149447,5,0.1
0,1.5,1.46152,0.823893,0.716321,-0.60039,0.602999,0.0315404,0.396103,-0.368826,-0.0193492,0.0125502,0.584755,5,0.1,1,1.5,-0.68358,1.65963,0.572093,0.370111,0.0991315,0.0269173,-0.129867,-0.0473708,-0.00943989,0.00782278,0.129503,5,0.1,2,1.5,-2.06775,-3.45512,0.500014,0.412401,0.310883,0.000147242,-0.310943,-0.262424,0.000249594,0.0203278,0.113032,5,0.1,3,1.5,-1.28534,3.16991,0.590371,0.292646,-0.866026,-0.0211121,0.0341088,0,-0.0283159,0.00853418,2.21628,5,0.1,4,1.5,-1.42573,-3.94335,0.623749,-0.456702,-0.118877,0.0572735,0.291139,0.075683,-0.0365227,0.00736023,0.107285,5,0.1,5,1.5,3.66879,1.7039,0.500007,-0.436028,0.857292,0.000116881,0.159502,-0.0221506,0.000987202,0.0146467,1.01524,5,0.1,6,1.5,-0.252186,-2.08987,0.657466,0.0463544,-0.828139,0.0112013,-0.0165915,-0.549018,-0.00401214,0.00762738,2.04447,5,0.1,7,1.5,-1.06314,-2.06724,0.561839,0.442929,0.722686,0.0273922,-0.102364,-0.708371,0.0454113,0.0327013,2.54628,5,0.1,8,1.5,-1.40862,4.2333,0.669555,0.393805,0.181252,0.0459019,-0.685863,-0.0538826,-0.0731796,0.0193583,1.04769,5,0.1,9,1.5,-1.63991,3.91058,0.584702,-0.767873,-0.277801,-0.0392743,-0.19712,0.16512,0.0548102,0.012787,0.929709,5,0.1,10,1.5,-3.97457,-1.38549,0.538247,-0.0389665,-0.698364,0.0007038,-0.665158,1.11361,-0.0904016,0.00693981,1.13581,5,0.1,11,1.5,3.98606,-2.05941,0.619377,-0.163094,0.866026,-0.00460604,0.00189245,0,6.33299e-05,0.0116831,2.25484,5,0.1,12,1.5,-3.62507,0.889425,0.725558,0.45096,0.437235,0.0232024,-0.287414,-0.278708,-0.0147745,0.00955993,0.187593,5,0.1,13,1.5,1.44189,-2.35675,0.712471,-0.455435,0.866026,0.0200369,0.667505,0,0.00149384,0.0155645,2.20627,5,0.1,14,1.5,-3.08876,-1.5877,0.571243,0.562321,0.058181,0.0273543,1.42755,-0.00605732,-0.00287965,0.0105039,2.63532,5,0.1,15,1.5,-0.818248,1.37051,0.621375,0.390334,0.190911,-0.0103616,-0.316102,-0.174426,0.00975654,0.00814342,0.382529,5,0.1,16,1.5,0.450627,-0.64274,0.991954,-0.000597863,0.467775,0.339896,0.000381842,-0.298183,-0.216655,0.0285192,0.158739,5,0.1,17,1.5,1.58008,-1.65234,0.608894,-0.141148,0.866025,-0.00330219,0.00452995,1.49012e-05,0.000100583,0.0132966,2.25923,5,0.1,18,1.5,-3.74389,-1.53874,0.589498,0.055629,0.521528,0.0285449,-0.0404716,-0.327185,-0.0185296,0.00895252,0.184563,5,0.1,19,1.5,0.73472,3.14558,0.585545,-0.634795,-0.851505,-0.0553762,0.172026,0.0822246,0.0150166,0.00877889,1.04989,5,0.1,20,1.5,-3.34244,1.30755,0.718609,0.505692,0.0403244,0.029799,-0.924766,-0.0257343,-0.018999,0.00771812,0.893551,5,0.1,21,1.5,-3.1938,4.03871,0.68106,0.866026,-0.0265293,0.00772076,0,0.0176132,0.0761114,0.0113205,2.27736,5,0.1,22,1.5,-1.44348,-0.21347,0.622821,0.818589,0.139479,-0.0144422,-0.0372678,-0.30291,0.00064075,0.0177819,2.76638,5,0.1,23,1.5,1.28224,0.565903,0.616002,-0.165721,0.169839,-0.0476932,-0.123985,-1.03984,-0.153542,0.00652715,0.415975,5,0.1,24,1.5,3.23113,2.83672,0.584765,-0.217189,0.155051,0.0144618,1.02876,-0.0989288,-0.00922382,0.0134219,0.288564,5,0.1,25,1.5,-0.567746,-1.75243,0.556454,0.00656294,0.588156,-0.0162604,-0.415463,-0.486091,-0.104729,0.0303601,2.38471,5,0.1,26,1.5,1.01515,-0.360533,0.592489,0.178346,0.329236,0.00723954,-0.0625998,-0.131104,-0.0025183,0.0262776,0.124561,5,0.1,27,1.5,-3.83916,-3.54646,0.5299,0.301108,0.188694,-0.0265398,-0.0461638,-0.0288785,0.00407919,0.00896793,0.0740687,5,0.1,28,1.5,1.42879,1.2605,0.717799,-0.709965,0.494723,0.029523,0.969231,-0.271797,-0.0162013,0.0113615,0.733946,5,0.1,29,1.5,-1.07663,-1.57239,0.539806,-0.0776341,-0.470886,-0.0163008,-0.0324026,0.478625,0.00480562,0.00756304,0.149447,5,0.1
0,1.6,1.40368,0.882373,0.719373,-0.554386,0.566305,0.0294432,0.527143,-0.385821,-0.0233054,0.0144361,0.474627,5,0.1,1,1.6,-0.647192,1.66921,0.57474,0.357462,0.0917464,0.0259981,-0.140548,-0.097692,-0.0102222,0.00790359,0.0831916,5,0.1,2,1.6,-2.0281,-3.42536,0.500028,0.379932,0.283992,0.00012964,-0.34672,-0.281215,-0.000476837,0.0182985,0.129211,5,0.1,3,1.6,-1.25597,3.0833,0.588132,0.293624,-0.866026,-0.0235051,-0.0270009,0,-0.018239,0.0113247,2.21653,5,0.1,4,1.6,-1.46988,-3.95484,0.629286,-0.425309,-0.110716,0.0533357,0.345826,0.090003,-0.0433624,0.00741954,0.12055,5,0.1,5,1.6,3.62609,1.78933,0.500021,-0.416684,0.848612,0.000150502,0.237823,-0.184298,-0.000208616,0.0149496,0.719699,5,0.1,6,1.6,-0.247644,-2.17467,0.658564,0.0443686,-0.860494,0.0107214,-0.0243336,-0.110626,-0.00587106,0.00810102,0.522379,5,0.1,7,1.6,-1.01976,-1.99865,0.564815,0.420627,0.647649,0.032118,-0.33623,-0.794888,0.0452101,0.00762352,0.924886,5,0.1,8,1.6,-1.37179,4.25076,0.673703,0.350204,0.16433,0.0364438,-0.244021,-0.263691,-0.110358,0.0205084,0.812006,5,0.1,9,1.6,-1.71745,3.88369,0.581053,-0.779667,-0.259387,-0.0336453,-0.00596046,0.207901,0.0574589,0.0106584,0.665553,5,0.1,10,1.6,-3.98168,-1.44862,0.537829,-0.101399,-0.554755,-0.00927299,-0.564456,1.67304,-0.103146,0.0069655,0.382414,5,0.1,11,1.6,3.96979,-1.97281,0.618917,-0.161809,0.866026,-0.00457019,0.0305176,-5.96046e-05,0.00089407,0.012965,2.25535,5,0.1,12,1.6,-3.58147,0.93169,0.727801,0.419974,0.407185,0.0216097,-0.341535,-0.331134,-0.0175834,0.0103134,0.123312,5,0.1,13,1.6,1.39994,-2.27015,0.714479,-0.381222,0.866026,0.020054,0.797868,0,-0.00208616,0.0160035,2.26594,5,0.1,14,1.6,-3.02567,-1.58192,0.573959,0.695235,0.0571847,0.0268847,1.16539,-0.0160336,-0.00759959,0.0100742,2.37212,5,0.1,15,1.6,-0.780839,1.38879,0.620387,0.357236,0.175241,-0.00939071,-0.352293,-0.147581,0.00989437,0.00795384,0.324977,5,0.1,16,1.6,0.450569,-0.597523,1.02481,-0.000555813,0.435625,0.316536,0.000432134,-0.35429,-0.257432,0.028415,0.192376,5,0.1,17,1.6,1.56602,-1.56574,0.608565,-0.139737,0.866026,-0.00326931,0.0293255,-5.96046e-05,0.000655651,0.0131193,2.25975,5,0.1,18,1.6,-3.7386,-1.48824,0.592251,0.0496149,0.487962,0.0264317,-0.0766516,-0.359237,-0.0239909,0.00885415,0.128533,5,0.1,19,1.6,0.672266,3.06105,0.580097,-0.612201,-0.836283,-0.0534043,0.296444,0.251055,0.0258684,0.00980168,0.729618,5,0.1,20,1.6,-3.29669,1.31145,0.72149,0.408328,0.0375509,0.0277504,-0.991583,-0.0305772,-0.0225604,0.00808279,1.86202,5,0.1,21,1.6,-3.1072,4.03618,0.682293,0.866026,-0.0237346,0.0175044,0,0.0367165,0.110596,0.0124437,2.27322,5,0.1,22,1.6,-1.36198,-0.2,0.621383,0.808898,0.139825,-0.0142723,-0.187874,0.281021,0.00330806,0.0167299,2.53024,5,0.1,23,1.6,1.26533,0.577645,0.610457,-0.16984,0.0654548,-0.0630304,0.0358224,-1.01459,-0.144213,0.0218156,0.476448,5,0.1,24,1.6,3.21416,2.8517,0.586163,-0.126302,0.144386,0.0134677,0.783563,-0.117421,-0.0109673,0.0122415,0.274197,5,0.1,25,1.6,-0.568624,-1.69505,0.554448,-0.0192732,0.567052,-0.0225484,-0.124186,-0.0194311,-0.0264049,0.0298155,1.86803,5,0.1,26,1.6,1.03268,-0.328303,0.593201,0.172248,0.314682,0.00699461,-0.0677109,-0.170544,-0.00274181,0.0266817,0.103046,5,0.1,27,1.6,-3.80935,-3.52778,0.527273,0.294,0.18425,-0.0259131,-0.1055,-0.0662804,0.00932813,0.00686685,0.0559581,5,0.1,28,1.6,1.36308,1.30853,0.720665,-0.600615,0.464541,0.0277221,1.18774,-0.34219,-0.0203848,0.0107149,0.660806,5,0.1,29,1.6,-1.08453,-1.61716,0.538205,-0.0799358,-0.424868,-0.0156522,-0.0100136,0.454426,0.00852346,0.00937814,0.190392,5,0.1
0,1.7,1.35132,0.937323,0.722207,-0.488974,0.534507,0.0272597,0.759281,-0.2767,-0.0211783,0.0144361,0.474627,5,0.1,1,1.7,-0.612062,1.67781,0.577295,0.345618,0.0796013,0.0251371,-0.111971,-0.140697,-0.00813603,0.00790359,0.0831916,5,0.1,2,1.7,-1.99157,-3.39817,0.500038,0.352692,0.261558,6.43544e-05,-0.219651,-0.183165,-0.000763685,0.0182985,0.129211,5,0.1,3,1.7,-1.22665,2.9967,0.585686,0.293489,-0.866026,-0.0253899,0.0070706,0,-0.0177398,0.0113247,2.21653,5,0.1,4,1.7,-1.51097,-3.96553,0.634439,-0.398778,-0.103811,0.0500088,0.209711,0.054583,-0.0263043,0.00741954,0.12055,5,0.1,5,1.7,3.58556,1.87342,0.500034,-0.394275,0.833681,0.000109989,0.223354,-0.151992,-0.000555068,0.0149496,0.719699,5,0.1,6,1.7,-0.243431,-2.26101,0.659534,0.0390064,-0.863436,0.00806563,-0.0774898,0.0558347,-0.0429079,0.00810102,0.522379,5,0.1,7,1.7,-0.979746,-1.93936,0.56822,0.37647,0.525733,0.0356519,-0.530351,-1.55026,0.0248365,0.00762352,0.924886,5,0.1,8,1.7,-1.33721,4.26561,0.676745,0.347808,0.130637,0.0240327,0.14028,-0.392318,-0.132788,0.0205084,0.812006,5,0.1,9,1.7,-1.79554,3.85875,0.577971,-0.782209,-0.239536,-0.0280578,-0.00742823,0.195473,0.0542104,0.0106584,0.665553,5,0.1,10,1.7,-3.9949,-1.49587,0.536285,-0.164566,-0.392308,-0.0223616,-0.661165,1.55604,-0.148661,0.0069655,0.382414,5,0.1,11,1.7,3.9537,-1.88621,0.618463,-0.160396,0.866025,-0.00452772,0.00722706,1.49012e-05,0.000223517,0.012965,2.25535,5,0.1,12,1.7,-3.54111,0.970824,0.729878,0.387745,0.375931,0.0199622,-0.314057,-0.304602,-0.0159554,0.0103134,0.123312,5,0.1,13,1.7,1.3659,-2.18354,0.716482,-0.299167,0.866026,0.0200672,0.827588,0,0.00108033,0.0160035,2.26594,5,0.1,14,1.7,-2.95087,-1.57626,0.576619,0.794325,0.0561168,0.026378,0.789195,-0.00841171,-0.00398606,0.0100742,2.37212,5,0.1,15,1.7,-0.746835,1.40571,0.619493,0.32309,0.164223,-0.00854013,-0.336763,-0.0837371,0.00750646,0.00795384,0.324977,5,0.1,16,1.7,0.450515,-0.555491,1.05524,-0.000514928,0.406857,0.292404,0.000402331,-0.242848,-0.233866,0.028415,0.192376,5,0.1,17,1.7,1.55214,-1.47914,0.60824,-0.138154,0.866025,-0.00323458,0.0103042,1.49012e-05,0.000227243,0.0131193,2.25975,5,0.1,18,1.7,-3.73406,-1.44109,0.594776,0.0408787,0.455895,0.0240751,-0.0953227,-0.299722,-0.0235736,0.00885415,0.128533,5,0.1,19,1.7,0.612452,2.97855,0.574879,-0.584332,-0.814066,-0.0509727,0.281177,0.22693,0.024531,0.00980168,0.729618,5,0.1,20,1.7,-3.261,1.31506,0.724158,0.305505,0.0346843,0.0256355,-0.996903,-0.0277907,-0.0205003,0.00808279,1.86202,5,0.1,21,1.7,-3.0206,4.03401,0.684682,0.866026,-0.0194877,0.0308907,0,0.04673,0.147656,0.0124437,2.27322,5,0.1,22,1.7,-1.28182,-0.183405,0.619968,0.795425,0.20184,-0.0140351,-0.121482,0.868954,0.00214204,0.0167299,2.53024,5,0.1,23,1.7,1.24881,0.580678,0.603646,-0.158133,0.00900216,-0.071225,0.186287,-0.184983,-0.0262372,0.0218156,0.476448,5,0.1,24,1.7,3.205,2.86558,0.587457,-0.0611592,0.133378,0.0124399,0.522062,-0.106707,-0.00996143,0.0122415,0.274197,5,0.1,25,1.7,-0.570773,-1.6375,0.552162,-0.0202398,0.591478,-0.0223066,0.0842176,0.426032,0.0266396,0.0298155,1.86803,5,0.1,26,1.7,1.04961,-0.297998,0.593889,0.166543,0.288643,0.00676373,-0.0539348,-0.338264,-0.00217929,0.0266817,0.103046,5,0.1,27,1.7,-3.78039,-3.50963,0.52472,0.285651,0.179004,-0.0251744,-0.07613,-0.0478029,0.00673532,0.00686685,0.0559581,5,0.1,28,1.7,1.30922,1.35335,0.72334,-0.474878,0.432343,0.0258035,1.29005,-0.314847,-0.0187643,0.0107149,0.660806,5,0.1,29,1.7,-1.09252,-1.65789,0.536679,-0.0792444,-0.394031,-0.0148844,0.0237823,0.198342,0.00741333,0.00937814,0.190392,5,0.1
0,1.8,1.30645,0.989393,0.724825,-0.40653,0.50641,0.0250697,0.871301,-0.304222,-0.0231862,0.0121969,0.282925,5,0.1,1,1.8,-0.578117,1.68503,0.579763,0.332421,0.0644267,0.0241786,-0.16281,-0.158906,-0.0118315,0.00816059,0.158795,5,0.1,2,1.8,-1.95734,-3.37287,0.500041,0.332263,0.244635,-1.3411e-05,-0.204742,-0.166893,-0.000745058,0.0198493,0.166755,5,0.1,3,1.8,-1.19732,2.9101,0.583071,0.292099,-0.866026,-0.0267625,-0.0469685,0,-0.00852346,0.00823702,2.22904,5,0.1,4,1.8,-1.54986,-3.97566,0.639315,-0.379053,-0.0986755,0.0475347,0.202954,0.0528097,-0.0254512,0.0071131,0.0695262,5,0.1,5,1.8,3.54731,1.95583,0.500042,-0.369841,0.811857,4.76837e-05,0.274062,-0.3106,-0.000655651,0.0148993,0.498308,5,0.1,6,1.8,-0.239968,-2.3467,0.660094,0.0298481,-0.846207,0.00291467,-0.10132,0.315785,-0.0567436,0.00858901,0.209932,5,0.1,7,1.8,-0.944957,-1.89515,0.571872,0.317612,0.354254,0.0369966,-0.632852,-1.80578,0.00184774,0.00881722,0.416114,5,0.1,8,1.8,-1.30147,4.27662,0.678482,0.368434,0.0890493,0.0107795,0.229895,-0.425339,-0.128388,0.0187364,0.727802,5,0.1,9,1.8,-1.87355,3.8358,0.57543,-0.774845,-0.219238,-0.0228196,0.180304,0.214815,0.0504851,0.00973256,0.4622,5,0.1,10,1.8,-4.01456,-1.52765,0.533298,-0.227094,-0.246951,-0.0372648,-0.562191,1.33693,-0.141919,0.0104203,3.74198,5,0.1,11,1.8,3.93772,-1.79961,0.618012,-0.158739,0.866026,-0.00447929,0.0326633,-5.96046e-05,0.000923872,0.0104628,2.25593,5,0.1,12,1.8,-3.50393,1.00687,0.731793,0.355315,0.344479,0.0183195,-0.341892,-0.3317,-0.017345,0.010078,0.149709,5,0.1,13,1.8,1.34006,-2.09694,0.718491,-0.218457,0.866026,0.020051,0.774801,0,-0.00226498,0.0165582,0.836517,5,0.1,14,1.8,-2.86826,-1.5707,0.579233,0.849992,0.0549734,0.0258401,0.320673,-0.0165701,-0.00783801,0.00837684,2.28074,5,0.1,15,1.8,-0.716225,1.42175,0.618675,0.288872,0.15659,-0.00782311,-0.351548,-0.0769496,0.00712276,0.00888414,0.28152,5,0.1,16,1.8,0.450466,-0.515982,1.08329,-0.000473112,0.3833,0.268307,0.000432134,-0.244126,-0.253916,0.0278489,0.136888,5,0.1,17,1.8,1.5384,-1.39253,0.607918,-0.136322,0.866026,-0.00319332,0.0320673,-5.96046e-05,0.000745058,0.0152603,2.26035,5,0.1,18,1.8,-3.73046,-1.39702,0.597063,0.0310481,0.425029,0.0216439,-0.0991821,-0.329971,-0.0252724,0.0069447,0.153911,5,0.1,19,1.8,0.555534,2.89847,0.569914,-0.552572,-0.785238,-0.0482008,0.367671,0.372767,0.0320375,0.00750379,0.497425,5,0.1,20,1.8,-3.23502,1.31838,0.726617,0.219071,0.0318229,0.0235245,-0.698209,-0.03016,-0.0222921,0.00898909,1.73335,5,0.1,21,1.8,-2.934,4.0323,0.688507,0.866026,-0.0146508,0.0453845,0,0.0491142,0.135154,0.0115791,2.2745,5,0.1,22,1.8,-1.20304,-0.158519,0.618578,0.777823,0.297683,-0.013724,-0.258386,0.978917,0.00452995,0.0161121,1.98236,5,0.1,23,1.8,1.23409,0.581543,0.596542,-0.134796,0.0157341,-0.069502,0.270426,0.262946,0.0549853,0.0201876,0.1997,5,0.1,24,1.8,3.20109,2.87838,0.588651,-0.0209093,0.122386,0.0114143,0.289798,-0.115991,-0.0108182,0.0154612,0.427284,5,0.1,25,1.8,-0.572172,-1.57604,0.55012,-0.00613332,0.637946,-0.0180542,0.181466,0.442028,0.0546277,0.0321316,1.4611,5,0.1,26,1.8,1.06597,-0.271018,0.594553,0.160187,0.249262,0.00650585,-0.0784397,-0.438944,-0.00315905,0.0252009,0.135602,5,0.1,27,1.8,-3.75226,-3.492,0.522241,0.276303,0.17314,-0.0243485,-0.120878,-0.0759363,0.010699,0.00873824,0.0249423,5,0.1,28,1.8,1.2681,1.39497,0.725824,-0.348914,0.399375,0.0238389,1.20312,-0.353336,-0.0211,0.0101138,0.618355,5,0.1,29,1.8,-1.10027,-1.69648,0.53523,-0.075227,-0.378883,-0.0140712,0.0562072,0.131547,0.00920892,0.0073426,0.116363,5,0.1
0,1.9,1.27021,1.03868,0.727222,-0.317926,0.480413,0.0229216,0.885755,-0.23713,-0.0204705,0.0121969,0.282925,5,0.1,1,1.9,-0.545665,1.69067,0.582124,0.316587,0.0484228,0.0230282,-0.163756,-0.158057,-0.0119023,0.00816059,0.158795,5,0.1,2,1.9,-1.92502,-3.34887,0.500037,0.314762,0.238233,-6.77072e-05,-0.159457,0.0108033,-0.000361353,0.0198493,0.166755,5,0.1,3,1.9,-1.16835,2.8235,0.580413,0.28717,-0.866026,-0.0258594,-0.0618994,0,0.024084,0.00823702,2.22904,5,0.1,4,1.9,-1.58686,-3.98529,0.643956,-0.361768,-0.0941783,0.0453669,0.159055,0.0413954,-0.0199489,0.0071131,0.0695262,5,0.1,5,1.9,3.51162,2.03558,0.500044,-0.344257,0.783648,-9.49949e-06,0.248462,-0.28418,-0.000491738,0.0148993,0.498308,5,0.1,6,1.9,-0.237523,-2.42957,0.660076,0.0188344,-0.808981,-0.00344692,-0.11499,0.441715,-0.0672601,0.00858901,0.209932,5,0.1,7,1.9,-0.915886,-1.8687,0.575643,0.267945,0.176091,0.0389219,-0.38394,-1.71928,0.0311248,0.00881722,0.416114,5,0.1,8,1.9,-1.26314,4.28319,0.67907,0.40039,0.0406735,0.00235513,0.36633,-0.519246,-0.0462309,0.0187364,0.727802,5,0.1,9,1.9,-1.95021,3.8149,0.573391,-0.75834,-0.199143,-0.0180767,0.180095,0.192478,0.0443868,0.00973256,0.4622,5,0.1,10,1.9,-4.03871,-1.54826,0.529072,-0.243732,-0.187905,-0.0453581,0.169188,-0.022769,-0.0273548,0.0104203,3.74198,5,0.1,11,1.9,3.92194,-1.713,0.617567,-0.157184,0.866025,-0.00443552,0.00791252,1.49012e-05,0.000223517,0.0104628,2.25593,5,0.1,12,1.9,-3.47006,1.03974,0.733553,0.322577,0.313481,0.0169775,-0.320256,-0.297137,-0.0105947,0.010078,0.149709,5,0.1,13,1.9,1.32188,-2.01035,0.72049,-0.147258,0.865388,0.0199483,0.647008,-0.0255257,-0.00083819,0.0165582,0.836517,5,0.1,14,1.9,-2.78228,-1.56527,0.581788,0.865024,0.0539085,0.0253363,0.0400841,-0.00783056,-0.00369549,0.00837684,2.28074,5,0.1,15,1.9,-0.689055,1.43712,0.617923,0.254827,0.151612,-0.00724094,-0.332702,-0.03279,0.00491366,0.00888414,0.28152,5,0.1,16,1.9,0.450421,-0.47872,1.10892,-0.000432739,0.363007,0.244783,0.000389293,-0.179194,-0.22386,0.0278489,0.136888,5,0.1,17,1.9,1.52487,-1.30593,0.607601,-0.134518,0.866025,-0.00315122,0.0118464,1.49012e-05,0.000275671,0.0152603,2.26035,5,0.1,18,1.9,-3.72788,-1.3558,0.599113,0.0202812,0.402191,0.0194525,-0.112355,-0.156924,-0.0194088,0.0069447,0.153911,5,0.1,19,1.9,0.502021,2.82169,0.565246,-0.518204,-0.750829,-0.0452055,0.336519,0.342906,0.0293329,0.00750379,0.497425,5,0.1,20,1.9,-3.2161,1.32142,0.728864,0.166197,0.0290288,0.0214594,-0.29166,-0.0265762,-0.0196435,0.00898909,1.73335,5,0.1,21,1.9,-2.84739,4.03121,0.693631,0.866026,-0.00622198,0.0561984,0,0.110656,0.0808537,0.0115791,2.2745,5,0.1,22,1.9,-1.12641,-0.123432,0.617226,0.755434,0.406516,-0.013331,-0.221588,1.12931,0.00389293,0.0161121,1.98236,5,0.1,23,1.9,1.22203,0.584972,0.589979,-0.106028,0.0571097,-0.0607929,0.297561,0.520226,0.113051,0.0201876,0.1997,5,0.1,24,1.9,3.20021,2.89007,0.589741,0.000976771,0.111642,0.0104125,0.1508,-0.102237,-0.00953302,0.0154612,0.427284,5,0.1,25,1.9,-0.571718,-1.50965,0.548627,0.0164454,0.692048,-0.0115131,0.254672,0.576831,0.0728033,0.0321316,1.4611,5,0.1,26,1.9,1.08165,-0.248387,0.59519,0.153795,0.202607,0.00624862,-0.0572801,-0.484709,-0.00230968,0.0252009,0.135602,5,0.1,27,1.9,-3.72524,-3.47507,0.51986,0.263858,0.165326,-0.0232479,-0.135466,-0.0849813,0.0119656,0.00873824,0.0249423,5,0.1,28,1.9,1.23901,1.43323,0.728108,-0.235981,0.36653,0.0218776,1.02372,-0.314564,-0.0187792,0.0101138,0.618355,5,0.1,29,1.9,-1.10749,-1.73391,0.533867,-0.0688845,-0.371113,-0.0131796,0.0704005,0.0477955,0.00898913,0.0073426,0.116363,5,0.1
0,2,1.24277,1.0855,0.729412,-0.23202,0.455335,0.0208586,0.820994,-0.279546,-0.0212193,0.0154102,0.160917,5,0.1,1,2,-0.514893,1.69475,0.584362,0.298026,0.0333518,0.0216797,-0.214025,-0.141203,-0.0155568,0.00794218,0.210762,5,0.1,2,2,-1.89437,-3.32489,0.500029,0.297958,0.241894,-8.79169e-05,-0.186563,0.0412464,-0.000119209,0.0171058,0.149469,5,0.1,3,2,-1.14003,2.73689,0.577984,0.278005,-0.866026,-0.0224024,-0.12821,0,0.0429749,0.0119442,2.23594,5,0.1,4,2,-1.62221,-3.99449,0.648388,-0.344467,-0.0896752,0.043197,0.198305,0.0516176,-0.0248849,0.00740158,0.0531402,5,0.1,5,2,3.47847,2.11237,0.500041,-0.318331,0.749868,-4.91738e-05,0.277638,-0.412345,-0.000357628,0.0140373,0.339609,5,0.1,6,2,-0.23621,-2.50797,0.6594,0.00754558,-0.755852,-0.00997335,-0.107802,0.627756,-0.0608861,0.00717845,0.77055,5,0.1,7,2,-0.890759,-1.85929,0.579702,0.23666,0.0169396,0.0422567,-0.259906,-1.43653,0.0314116,0.00747268,0.30388,5,0.1,8,2,-1.22133,4.28466,0.679169,0.434291,-0.0107765,0.000420213,0.280499,-0.492573,0.0025332,0.0233841,0.562534,5,0.1,9,2,-2.02495,3.79594,0.571795,-0.733745,-0.179827,-0.0139385,0.332355,0.197649,0.038445,0.0091426,0.314236,5,0.1,10,2,-4.06144,-1.56851,0.524537,-0.204194,-0.227633,-0.0441015,0.572443,-0.666261,0.0463128,0.00850833,3.08562,5,0.1,11,2,3.90629,-1.6264,0.617125,-0.155544,0.866026,-0.00438988,0.0317097,-5.96046e-05,0.000923872,0.0133396,2.25649,5,0.1,12,2,-3.43941,1.0696,0.735201,0.29003,0.283557,0.0160113,-0.335455,-0.307322,-0.00956655,0.00855168,0.120996,5,0.1,13,2,1.31017,-1.92414,0.722476,-0.0893503,0.855818,0.0197053,0.510275,-0.204265,-0.00473857,0.0160054,2.36195,5,0.1,14,2,-2.6957,-1.55992,0.5843,0.866026,0.0528783,0.0248507,0,-0.01508,-0.00706315,0.00945716,2.2698,5,0.1,15,2,-0.665227,1.45213,0.617223,0.22179,0.148275,-0.00677407,-0.33015,-0.0412464,0.00473857,0.00682936,0.387304,5,0.1,16,2,0.450379,-0.443325,1.13228,-0.000393391,0.34447,0.222299,0.000402331,-0.203982,-0.230849,0.0284828,0.191789,5,0.1,17,2,1.5115,-1.21933,0.607288,-0.132611,0.866026,-0.00310689,0.0318289,0,0.000745058,0.0146631,2.26095,5,0.1,18,2,-3.72641,-1.31629,0.600966,0.00924468,0.388408,0.0176147,-0.1055,-0.140965,-0.0179708,0.00960525,0.0918982,5,0.1,19,2,0.451943,2.74845,0.560877,-0.482444,-0.712031,-0.0420883,0.390127,0.451803,0.0340044,0.00698699,0.335237,5,0.1,20,2,-3.2,1.32419,0.730912,0.164813,0.0263572,0.0194862,0.237226,-0.0273585,-0.0202358,0.00756322,1.48949,5,0.1,21,2,-2.76079,4.03118,0.699564,0.866026,0.0059247,0.0615597,0,0.125885,0.0266135,0.0114695,2.27158,5,0.1,22,2,-1.05213,-0.0773485,0.615915,0.728074,0.511731,-0.0128493,-0.347733,0.925263,0.00610948,0.0158524,1.49461,5,0.1,23,2,1.21291,0.593408,0.584519,-0.0765771,0.112014,-0.0479981,0.285804,0.544459,0.137895,0.0225023,0.125336,5,0.1,24,2,3.20086,2.90072,0.590735,0.00995398,0.101376,0.00945479,0.0329018,-0.105381,-0.00980496,0.0143886,1.16729,5,0.1,25,2,-0.568784,-1.43776,0.547846,0.0420943,0.742462,-0.00409335,0.246674,0.386178,0.0729859,0.0328664,1.09735,5,0.1,26,2,1.09673,-0.23056,0.595803,0.147405,0.154027,0.00599027,-0.0760555,-0.479303,-0.00306964,0.0255147,0.128842,5,0.1,27,2,-3.6996,-3.45901,0.517602,0.247997,0.155383,-0.0218481,-0.186443,-0.116944,0.0164509,0.0076272,0.0145176,5,0.1,28,2,1.22004,1.4683,0.730201,-0.148684,0.334603,0.0199705,0.708878,-0.331521,-0.0197589,0.00771082,0.220729,5,0.1,29,2,-1.114,-1.77076,0.532596,-0.061208,-0.365213,-0.0122145,0.0827312,0.08744,0.0106394,0.0123054,0.0669097,5,0.1
0,2.1,1.22348,1.12975,0.731398,-0.15579,0.430351,0.0189093,0.696778,-0.236958,-0.0183471,0.0154102,0.160917,5,0.1,1,2.1,-0.486087,1.69742,0.586458,0.278557,0.0205491,0.0202648,-0.185901,-0.113517,-0.0135079,0.00794218,0.210762,5,0.1,2,2.1,-1.86555,-3.30075,0.50002,0.277791,0.238585,-8.72649e-05,-0.219986,-0.102431,0.000108033,0.0171058,0.149469,5,0.1,3,2.1,-1.11295,2.65029,0.575981,0.262682,-0.866026,-0.0174677,-0.180297,0,0.0538602,0.0119442,2.23594,5,0.1,4,2.1,-1.6558,-4.00324,0.6526,-0.328226,-0.0854459,0.0411589,0.143468,0.0373572,-0.0180081,0.00740158,0.0531402,5,0.1,5,2.1,3.44795,2.18541,0.500035,-0.292632,0.711684,-7.33882e-05,0.245407,-0.376508,-0.000141561,0.0140373,0.339609,5,0.1,6,2.1,-0.235994,-2.58105,0.658095,-0.00313367,-0.710998,-0.0160881,-0.102852,0.320852,-0.0589676,0.00717845,0.77055,5,0.1,7,2.1,-0.867782,-1.864,0.584159,0.227942,-0.103642,0.047446,0.0452437,-0.980735,0.0649691,0.00747268,0.30388,5,0.1,8,2.1,-1.17638,4.28109,0.679295,0.465027,-0.0603959,0.00270018,0.300877,-0.482678,0.0384636,0.0233841,0.562534,5,0.1,9,2.1,-2.09675,3.77889,0.570582,-0.702572,-0.161587,-0.0104138,0.315949,0.171766,0.0321157,0.0091426,0.314236,5,0.1,10,2.1,-4.07845,-1.59576,0.520448,-0.131629,-0.326369,-0.0369335,0.835001,-1.20603,0.0917763,0.00850833,3.08562,5,0.1,11,2.1,3.89083,-1.5398,0.616689,-0.154095,0.866025,-0.00434704,0.00664592,1.49012e-05,0.000201166,0.0133396,2.25649,5,0.1,12,2.1,-3.41184,1.0965,0.736753,0.263501,0.255125,0.0150155,-0.212148,-0.268504,-0.0106245,0.00855168,0.120996,5,0.1,13,2.1,1.30361,-1.839,0.724426,-0.0438023,0.851264,0.0193053,0.392184,0.0483468,-0.004109,0.0160054,2.36195,5,0.1,14,2.1,-2.6091,-1.55469,0.586761,0.866026,0.051981,0.0244318,0,-0.00596792,-0.00277907,0.00945716,2.2698,5,0.1,15,2.1,-0.64472,1.46693,0.616567,0.188199,0.149322,-0.00636941,-0.339117,0.0457391,0.00364706,0.00682936,0.387304,5,0.1,16,2.1,0.450342,-0.409637,1.15342,-0.000356277,0.331285,0.201104,0.00035204,-0.083724,-0.199206,0.0284828,0.191789,5,0.1,17,2.1,1.49834,-1.13273,0.60698,-0.130831,0.866026,-0.00306489,0.0114739,0,0.000271946,0.0146631,2.26095,5,0.1,18,2.1,-3.72601,-1.27802,0.602644,-0.00103936,0.377792,0.0159957,-0.0977218,-0.091143,-0.0149757,0.00960525,0.0918982,5,0.1,19,2.1,0.405544,2.67938,0.556829,-0.446244,-0.670106,-0.0389326,0.34791,0.409454,0.0303388,0.00698699,0.335237,5,0.1,20,2.1,-3.18129,1.3267,0.732765,0.217874,0.0238452,0.0176284,0.744194,-0.0236183,-0.0174604,0.00756322,1.48949,5,0.1,21,2.1,-2.67419,4.03232,0.705795,0.866026,0.0161119,0.0624998,0,0.0788867,-0.0074394,0.0114695,2.27158,5,0.1,22,2.1,-0.980936,-0.0214865,0.614659,0.696326,0.60478,-0.0122911,-0.313479,0.883132,0.00551715,0.0158524,1.49461,5,0.1,23,2.1,1.20661,0.6074,0.580435,-0.0500394,0.167823,-0.0335159,0.242643,0.545163,0.147633,0.0225023,0.125336,5,0.1,24,2.1,3.20208,2.91037,0.591634,0.0141088,0.091701,0.00855457,0.0166446,-0.0908971,-0.00845641,0.0143886,1.16729,5,0.1,25,2.1,-0.563302,-1.36146,0.547809,0.0676284,0.783606,0.00335891,0.252359,0.387289,0.0735447,0.0328664,1.09735,5,0.1,26,2.1,1.11109,-0.2175,0.596386,0.139812,0.107881,0.0056833,-0.0798479,-0.43644,-0.00323355,0.0255147,0.128842,5,0.1,27,2.1,-3.67572,-3.44405,0.515498,0.229462,0.143761,-0.0202131,-0.190005,-0.11912,0.0167601,0.0076272,0.0145176,5,0.1,28,2.1,1.20838,1.50067,0.73208,-0.0878442,0.317357,0.0174285,0.513688,-0.0524968,-0.0300221,0.00771082,0.220729,5,0.1,29,2.1,-1.11971,-1.8069,0.531427,-0.0528682,-0.357652,-0.0111753,0.0838339,0.0791624,0.0103712,0.0123054,0.0669097,5,0.1
0,2.2,1.21114,1.17156,0.733198,-0.0936866,0.405097,0.0170901,0.541747,-0.279903,-0.0184476,0.012364,0.297859,5,0.1,1,2.2,-0.459184,1.69896,0.588415,0.259075,0.0108242,0.0188485,-0.210926,-0.0805259,-0.0153184,0.00826572,0.323328,5,0.1,2,2.2,-1.83895,-3.27761,0.500012,0.253478,0.222409,-7.00355e-05,-0.267744,-0.216126,0.000208616,0.0189589,0.267829,5,0.1,3,2.2,-1.08769,2.56369,0.574509,0.241679,-0.866026,-0.0119597,-0.240505,0,0.0548661,0.00972036,2.23713,5,0.1,4,2.2,-1.68788,-4.01159,0.656623,-0.312892,-0.0814557,0.0392348,0.175059,0.0455379,-0.0219643,0.00707755,0.0237933,5,0.1,5,2.2,3.41992,2.25459,0.500027,-0.267708,0.670338,-8.04663e-05,0.259161,-0.46742,2.98023e-05,0.0146247,0.229516,5,0.1,6,2.2,-0.236793,-2.65071,0.656211,-0.0125244,-0.682724,-0.0213504,-0.0828877,0.282764,-0.0445545,0.00825583,0.390518,5,0.1,7,2.2,-0.844531,-1.87856,0.589234,0.238599,-0.180525,0.0539601,0.137061,-0.564396,0.0598431,0.00724036,0.258033,5,0.1,8,2.2,-1.12857,4.27277,0.679785,0.488794,-0.104392,0.00729561,0.151038,-0.384569,0.0498593,0.0201015,0.414015,5,0.1,9,2.2,-2.16529,3.76358,0.569692,-0.666386,-0.14469,-0.00750273,0.424504,0.169396,0.0261664,0.0087966,0.211003,5,0.1,10,2.2,-4.08731,-1.63462,0.517253,-0.0449538,-0.450876,-0.026691,0.864744,-1.20687,0.108868,0.0128953,2.64475,5,0.1,11,2.2,3.87547,-1.4532,0.616256,-0.152612,0.866026,-0.00430495,0.0296831,-5.96046e-05,0.000864267,0.0114847,2.25699,5,0.1,12,2.2,-3.38646,1.12069,0.738198,0.244623,0.228637,0.0138402,-0.177979,-0.266314,-0.0130236,0.00808321,0.183175,5,0.1,13,2.2,1.30094,-1.75365,0.726331,-0.0121027,0.854298,0.0187412,0.238419,-0.0346899,-0.0077486,0.0167278,2.87812,5,0.1,14,2.2,-2.5225,-1.54952,0.589188,0.866026,0.0511527,0.024046,0,-0.0127554,-0.00602007,0.00806874,2.2699,5,0.1,15,2.2,-0.627592,1.48213,0.615948,0.154446,0.154564,-0.00599623,-0.333726,0.0467896,0.00402331,0.00778264,0.506454,5,0.1,16,2.2,0.450308,-0.37689,1.17255,-0.00032112,0.323566,0.181416,0.000357628,-0.0882298,-0.19896,0.0272853,0.146156,5,0.1,17,2.2,1.48533,-1.04612,0.606675,-0.128999,0.866026,-0.00302196,0.0305176,-2.98023e-05,0.000715256,0.0145655,2.26286,5,0.1,18,2.2,-3.72657,-1.24075,0.60417,-0.00988841,0.366813,0.0145227,-0.077486,-0.142455,-0.0148714,0.00729137,0.0723656,5,0.1,19,2.2,0.362682,2.6145,0.553089,-0.410491,-0.626314,-0.0358149,0.376806,0.481844,0.032872,0.00845661,0.22474,5,0.1,20,2.2,-3.15548,1.32897,0.734442,0.299585,0.0215083,0.0159025,0.829458,-0.0235438,-0.0174046,0.0091037,1.20259,5,0.1,21,2.2,-2.58758,4.03426,0.711955,0.866026,0.0219107,0.0601709,0,0.0383854,-0.0385344,0.0101267,1.83776,5,0.1,22,2.2,-0.91299,0.0429839,0.613459,0.660954,0.679442,-0.0116661,-0.411868,0.573555,0.00721216,0.0147358,1.07566,5,0.1,23,2.2,1.20273,0.626731,0.57781,-0.0283957,0.216532,-0.0191897,0.189006,0.410438,0.135869,0.0212072,0.151145,5,0.1,24,2.2,3.20334,2.91909,0.592448,0.00861883,0.0827134,0.0077188,-0.139952,-0.0905991,-0.00849366,0.0123353,3.10518,5,0.1,25,2.2,-0.555347,-1.28149,0.548497,0.0905693,0.811553,0.0101805,0.198066,0.137329,0.0611246,0.0332438,0.788371,5,0.1,26,2.2,1.12464,-0.208776,0.596937,0.130773,0.0679079,0.00531673,-0.103593,-0.358507,-0.00420213,0.0254994,0.249542,5,0.1,27,2.2,-3.65377,-3.4303,0.513564,0.209081,0.130987,-0.0184178,-0.220895,-0.138283,0.0194907,0.00762081,0.00447356,5,0.1,28,2.2,1.20188,1.53234,0.733663,-0.0448287,0.317237,0.0141576,0.352085,0.0204444,-0.0345111,0.008254,0.239657,5,0.1,29,2.2,-1.12457,-1.84218,0.530362,-0.0444889,-0.346792,-0.0101015,0.0834465,0.148594,0.0112653,0.00740894,0.0495797,5,0.1
0,2.3,1.2042,1.21078,0.734821,-0.0478361,0.37995,0.0154076,0.375867,-0.237457,-0.0156909,0.012364,0.297859,5,0.1,1,2.3,-0.434353,1.69961,0.590222,0.237259,0.00200626,0.0172636,-0.227964,-0.0859872,-0.0165701,0.00826572,0.323328,5,0.1,2,2.3,-1.81485,-3.25664,0.500006,0.229177,0.195097,-4.71249e-05,-0.225924,-0.320122,0.000230968,0.0189589,0.267829,5,0.1,3,2.3,-1.06491,2.47709,0.573592,0.212245,-0.866026,-0.00638347,-0.338666,0,0.0551939,0.00972036,2.23713,5,0.1,4,2.3,-1.71831,-4.01951,0.660439,-0.295725,-0.0769891,0.0370809,0.177123,0.0461042,-0.0222214,0.00707755,0.0237933,5,0.1,5,2.3,3.39437,2.31942,0.500019,-0.243893,0.627019,-7.3202e-05,0.224784,-0.419796,0.000111759,0.0146247,0.229516,5,0.1,6,2.3,-0.238447,-2.71776,0.653859,-0.0203705,-0.659417,-0.0256009,-0.0718171,0.21413,-0.0385791,0.00825583,0.390518,5,0.1,7,2.3,-0.81964,-1.89876,0.59497,0.261755,-0.217343,0.0610012,0.290263,-0.189811,0.074368,0.00724036,0.258033,5,0.1,8,2.3,-1.0789,4.26046,0.68079,0.50428,-0.14117,0.0129797,0.13233,-0.337929,0.0603497,0.0201015,0.414015,5,0.1,9,2.3,-2.22991,3.74991,0.569063,-0.626701,-0.129214,-0.00515534,0.38977,0.14405,0.0208579,0.0087966,0.211003,5,0.1,10,2.3,-4.08735,-1.68617,0.515152,0.0446245,-0.582201,-0.0151774,0.89395,-1.33805,0.11763,0.0128953,2.64475,5,0.1,11,2.3,3.8603,-1.36659,0.615828,-0.151343,0.866025,-0.00426713,0.00496209,1.49012e-05,0.000149012,0.0114847,2.25699,5,0.1,12,2.3,-3.36256,1.14232,0.739519,0.23607,0.20473,0.0125745,-0.018239,-0.218965,-0.0125319,0.00808321,0.183175,5,0.1,13,2.3,1.30091,-1.66815,0.728166,0.0100819,0.856938,0.0179493,0.162773,0.0389516,-0.00859424,0.0167278,2.87812,5,0.1,14,2.3,-2.43589,-1.54445,0.591573,0.866026,0.0504753,0.0237261,0,-0.00388175,-0.00182912,0.00806874,2.2699,5,0.1,15,2.3,-0.61381,1.49813,0.615365,0.121356,0.168067,-0.00569746,-0.324469,0.195637,0.00230223,0.00778264,0.506454,5,0.1,16,2.3,0.450278,-0.345033,1.18976,-0.000288524,0.312817,0.163282,0.000305474,-0.133283,-0.168867,0.0272853,0.146156,5,0.1,17,2.3,1.47261,-0.95952,0.606376,-0.125136,0.866025,-0.00296859,0.0494048,3.72529e-06,0.000495464,0.0145655,2.26286,5,0.1,18,2.3,-3.72794,-1.20463,0.605554,-0.0173859,0.356425,0.0132285,-0.0699759,-0.0857562,-0.011608,0.00729137,0.0723656,5,0.1,19,2.3,0.323408,2.55414,0.549663,-0.375774,-0.581729,-0.032786,0.329319,0.428766,0.0287332,0.00845661,0.22474,5,0.1,20,2.3,-3.12101,1.33101,0.735951,0.392063,0.0193618,0.0143161,0.95956,-0.0199974,-0.014782,0.0091037,1.20259,5,0.1,21,2.3,-2.50098,4.0366,0.717759,0.866026,0.0244543,0.0556958,0,0.0131726,-0.0508837,0.0101267,1.83776,5,0.1,22,2.3,-0.84883,0.113742,0.612327,0.622921,0.734125,-0.0109991,-0.370447,0.47886,0.00651181,0.0147358,1.07566,5,0.1,23,2.3,1.20074,0.650491,0.57654,-0.0124333,0.258569,-0.00656489,0.131689,0.405502,0.115186,0.0212072,0.151145,5,0.1,24,2.3,3.20352,2.92693,0.59318,-0.0087861,0.0744548,0.00694506,-0.340655,-0.0769347,-0.00719726,0.0123353,3.10518,5,0.1,25,2.3,-0.54531,-1.19961,0.549815,0.109812,0.825566,0.0160712,0.177845,0.1036,0.0547804,0.0332438,0.788371,5,0.1,26,2.3,1.13718,-0.20362,0.597447,0.119718,0.0368394,0.00486812,-0.118144,-0.261176,-0.0048019,0.0254994,0.249542,5,0.1,27,2.3,-3.63397,-3.41789,0.511821,0.186739,0.117,-0.0164472,-0.227615,-0.14253,0.0200681,0.00762081,0.00447356,5,0.1,28,2.3,1.19893,1.56392,0.734908,-0.0160828,0.312109,0.0107789,0.227764,-0.121459,-0.0327006,0.008254,0.239657,5,0.1,29,2.3,-1.12861,-1.87621,0.529406,-0.036449,-0.334384,-0.00905357,0.0772178,0.115685,0.00993907,0.00740894,0.0495797,5,0.1
0,2.4,1.20103,1.24756,0.736284,-0.0181109,0.355163,0.0138685,0.221968,-0.268281,-0.0154078,0.0136612,0.419097,5,0.1,1,2.4,-0.411811,1.69943,0.591862,0.213093,-0.004825,0.0155061,-0.256658,-0.0449419,-0.0186265,0.00937056,1.51634,5,0.1,2,2.4,-1.79304,-3.23884,0.500002,0.206989,0.160211,-2.5332e-05,-0.223219,-0.369191,0.000208616,0.0174875,0.259461,5,0.1,3,2.4,-1.04547,2.39048,0.57322,0.175691,-0.866026,-0.00117421,-0.38451,0,0.0479519,0.011865,1.07976,5,0.1,4,2.4,-1.74694,-4.02696,0.664029,-0.276011,-0.0718594,0.0346079,0.222921,0.0581741,-0.0279248,0.00728191,0.014205,5,0.1,5,2.4,3.3711,2.37996,0.500013,-0.221461,0.582862,-5.96046e-05,0.229239,-0.477552,0.000178814,0.0205007,0.15485,5,0.1,6,2.4,-0.24081,-2.78254,0.651128,-0.0265181,-0.63467,-0.0287488,-0.0496432,0.302315,-0.0231862,0.0075465,0.432549,5,0.1,7,2.4,-0.792002,-1.92095,0.601422,0.290433,-0.221869,0.067696,0.256896,0.0834465,0.0547767,0.0321439,3.72145,5,0.1,8,2.4,-1.02801,4.24481,0.682384,0.510827,-0.169778,0.018765,-0.0194311,-0.225782,0.0527799,0.0151886,0.291557,5,0.1,9,2.4,-2.29056,3.73769,0.568644,-0.584966,-0.115222,-0.003317,0.458837,0.13876,0.0160038,0.00893175,0.14093,5,0.1,10,2.4,-4.07859,-1.75074,0.514211,0.128162,-0.704455,-0.00382364,0.752926,-1.04833,0.106633,0.00986452,2.34426,5,0.1,11,2.4,3.84521,-1.27999,0.615402,-0.150031,0.866026,-0.00423044,0.0277758,-5.96046e-05,0.000804663,0.0107642,2.25745,5,0.1,12,2.4,-3.33895,1.16172,0.740713,0.236583,0.183618,0.0112936,0.00941753,-0.208318,-0.0132918,0.00783035,0.144924,5,0.1,13,2.4,1.30235,-1.58246,0.729914,0.0146002,0.853834,0.0169396,-0.0885129,-0.135064,-0.0119209,0.0173758,2.88132,5,0.1,14,2.4,-2.34929,-1.53943,0.593933,0.866026,0.0498503,0.0234321,0,-0.0107884,-0.00503659,0.00772621,2.26998,5,0.1,15,2.4,-0.603256,1.51598,0.614806,0.0901878,0.188854,-0.00547469,-0.296146,0.199437,0.00241399,0.0115473,0.283308,5,0.1,16,2.4,0.45025,-0.314535,1.20526,-0.000258535,0.295871,0.146759,0.000298023,-0.20951,-0.165284,0.0563735,0.263782,5,0.1,17,2.4,1.46039,-0.872918,0.606082,-0.118697,0.866026,-0.00289828,0.0809431,0,0.00101328,0.019125,2.33063,5,0.1,18,2.4,-3.73,-1.16946,0.606821,-0.0234663,0.346187,0.0121012,-0.0499487,-0.133455,-0.0113845,0.0075053,0.0333851,5,0.1,19,2.4,0.287477,2.49815,0.546528,-0.342632,-0.537372,-0.0298947,0.341669,0.471473,0.0298321,0.00890484,0.151065,5,0.1,20,2.4,-3.0772,1.33285,0.73731,0.481045,0.0174046,0.0128686,0.776291,-0.0195503,-0.0144541,0.0125204,0.140108,5,0.1,21,2.4,-2.41438,4.03907,0.723054,0.866026,0.0246882,0.0500262,0,-0.00762939,-0.0622272,0.00807388,0.985113,5,0.1,22,2.4,-0.788466,0.189117,0.611261,0.583218,0.768314,-0.0102997,-0.438362,0.177168,0.0077188,0.0146973,0.74514,5,0.1,23,2.4,1.20007,0.6782,0.576415,-0.00175834,0.293414,0.00361055,0.0833869,0.274032,0.0874698,0.0239136,0.132295,5,0.1,24,2.4,3.2,2.934,0.593839,-0.0707328,0.0669301,0.00624061,-0.878096,-0.0754595,-0.00700355,0.0132245,3.16977,5,0.1,25,2.4,-0.533533,-1.11685,0.551672,0.124632,0.825673,0.0208154,0.112355,-0.127971,0.0388026,0.0346046,0.546577,5,0.1,26,2.4,1.14853,-0.201074,0.597909,0.107062,0.0157498,0.00435412,-0.135124,-0.161521,-0.00551343,0.0229667,0.282475,5,0.1,27,2.4,-3.61646,-3.40692,0.510278,0.163329,0.102341,-0.0143841,-0.241518,-0.151277,0.0212789,0.00932082,0.00139266,5,0.1,28,2.4,1.19829,1.5943,0.735828,0.00165403,0.293371,0.00767857,0.131488,-0.250578,-0.0290573,0.0063181,0.319231,5,0.1,29,2.4,-1.13188,-1.90902,0.52855,-0.0290662,-0.320932,-0.00807047,0.0701547,0.16439,0.00989437,0.00754801,0.0217569,5,0.1
0,2.5,1.20017,1.28183,0.737599,-0.000617653,0.330814,0.0124712,0.127628,-0.230566,-0.0129491,0.0136612,0.419097,5,0.1,1,2.5,-0.391404,1.69859,0.593237,0.198247,-0.0121159,0.0113056,-0.0650361,-0.0588372,-0.0602491,0.00937056,1.51634,5,0.1,2,2.5,-1.7734,-3.22469,0.500001,0.186201,0.122539,-9.31323e-06,-0.197552,-0.376508,0.000111759,0.0174875,0.259461,5,0.1,3,2.5,-1.02984,2.30389,0.573337,0.136933,-0.865595,0.00343546,-0.384875,0.0172108,0.0431612,0.011865,1.07976,5,0.1,4,2.5,-1.77345,-4.03386,0.667353,-0.254278,-0.0661895,0.0318849,0.218637,0.056982,-0.0274032,0.00728191,0.014205,5,0.1,5,2.5,3.35006,2.436,0.500007,-0.19947,0.538777,-4.26546e-05,0.213683,-0.421524,0.000156462,0.0205007,0.15485,5,0.1,6,2.5,-0.243697,-2.84479,0.648143,-0.0310353,-0.612425,-0.030854,-0.038974,0.177398,-0.0174269,0.0075465,0.432549,5,0.1,7,2.5,-0.761775,-1.94045,0.608324,0.312751,-0.14889,0.0690567,0.17643,1.23917,-0.0230335,0.0321439,3.72145,5,0.1,8,2.5,-0.977007,4.22676,0.684529,0.509003,-0.190458,0.0241103,-0.038255,-0.177592,0.0514835,0.0151886,0.291557,5,0.1,9,2.5,-2.34688,3.72682,0.568385,-0.542359,-0.102646,-0.00191592,0.410497,0.11605,0.0120848,0.00893175,0.14093,5,0.1,10,2.5,-4.06203,-1.82602,0.514359,0.20215,-0.79613,0.00667237,0.700086,-0.751413,0.100382,0.00986452,2.34426,5,0.1,11,2.5,3.83028,-1.19339,0.614981,-0.148915,0.866025,-0.00419766,0.00366569,1.49012e-05,0.000111759,0.0107642,2.25745,5,0.1,12,2.5,-3.31531,1.17912,0.741778,0.235551,0.164976,0.0100414,-0.0359565,-0.170425,-0.0119694,0.00783035,0.144924,5,0.1,13,2.5,1.3031,-1.49761,0.731552,-0.00457373,0.843701,0.0158582,-0.372104,-0.106782,-0.0102818,0.0173758,2.88132,5,0.1,14,2.5,-2.26269,-1.53447,0.596262,0.866026,0.0493472,0.0231991,0,-0.00231713,-0.00105798,0.00772621,2.26998,5,0.1,15,2.5,-0.595515,1.53598,0.614264,0.0664692,0.211838,-0.005404,-0.185594,0.239067,-0.000465661,0.0115473,0.283308,5,0.1,16,2.5,0.450226,-0.286279,1.21916,-0.000231387,0.266743,0.131784,0.000251457,-0.360629,-0.138521,0.0563735,0.263782,5,0.1,17,2.5,1.4494,-0.786328,0.605799,-0.0970686,0.865386,-0.00273986,0.323944,-0.0255741,0.00211969,0.019125,2.33063,5,0.1,18,2.5,-3.73258,-1.1355,0.607976,-0.0278,0.332722,0.0110332,-0.0355095,-0.146545,-0.0102967,0.0075053,0.0333851,5,0.1,19,2.5,0.254818,2.44676,0.543678,-0.311351,-0.490618,-0.0271636,0.293828,0.462115,0.0256486,0.00890484,0.151065,5,0.1,20,2.5,-3.02593,1.3345,0.738529,0.537034,0.0156321,0.0115587,0.346243,-0.0164062,-0.0121258,0.0125204,0.140108,5,0.1,21,2.5,-2.32972,4.04224,0.728099,0.810087,0.044781,0.0538246,-1.03053,0.361979,0.115659,0.00807388,0.985113,5,0.1,22,2.5,-0.732208,0.266786,0.610267,0.542742,0.783732,-0.00958601,-0.389129,0.0981484,0.00686571,0.0146973,0.74514,5,0.1,23,2.5,1.20025,0.708835,0.57746,0.00472646,0.31812,0.0192645,0.0478104,0.204682,0.207145,0.0239136,0.132295,5,0.1,24,2.5,3.18728,2.94088,0.594427,-0.19334,0.0754677,0.00551892,-1.46542,0.210077,-0.00741705,0.0132245,3.16977,5,0.1,25,2.5,-0.52053,-1.03488,0.553939,0.135039,0.813368,0.0244034,0.0887513,-0.149965,0.0314787,0.0346046,0.546577,5,0.1,26,2.5,1.15856,-0.200152,0.598595,0.0936158,0.00408299,0.0117064,-0.13411,-0.0774683,0.134867,0.0229667,0.282475,5,0.1,27,2.5,-3.60133,-3.39744,0.508946,0.139376,0.0873372,-0.0122742,-0.237286,-0.148624,0.0208952,0.00932082,0.00139266,5,0.1,28,2.5,1.199,1.62211,0.736458,0.0114376,0.260235,0.00500018,0.0673607,-0.398815,-0.0243969,0.0063181,0.319231,5,0.1,29,2.5,-1.13445,-1.94029,0.52779,-0.0224698,-0.304214,-0.00712415,0.061661,0.178114,0.00915304,0.00754801,0.0217569,5,0.1
0,2.6,1.2006,1.31374,0.738783,0.00754297,0.307041,0.0112087,0.0371337,-0.253141,-0.0125468,0.0139754,0.659063,5,0.1,1,2.6,-0.371755,1.69732,0.594033,0.19572,-0.0105798,0.00437349,-0.00439584,0.107706,-0.0743568,0.00714396,1.38897,5,0.1,2,2.6,-1.75576,-3.21428,0.5,0.166634,0.086242,-1.49012e-06,-0.197232,-0.34368,5.96046e-05,0.0181302,0.255589,5,0.1,3,2.6,-1.01803,2.21755,0.573881,0.0997335,-0.859147,0.00727326,-0.354826,0.137687,0.0329316,0.0128536,0.0821843,5,0.1,4,2.6,-1.79774,-4.04019,0.6704,-0.231177,-0.0601649,0.0289887,0.247478,0.064373,-0.0310242,0.00787295,0.00446677,5,0.1,5,2.6,3.33118,2.48775,0.500004,-0.178176,0.495619,-2.83122e-05,0.214458,-0.453472,0.000119209,0.0151575,0.157226,5,0.1,6,2.6,-0.246966,-2.90512,0.64499,-0.0340287,-0.593221,-0.0319883,-0.0197887,0.231743,-0.00426173,0.00717267,0.487527,5,0.1,7,2.6,-0.729838,-1.94817,0.615017,0.323585,0.0015378,0.0639364,0.0319481,1.66208,-0.0754297,0.0329061,3.06114,5,0.1,8,2.6,-0.926471,4.20698,0.687177,0.499628,-0.203609,0.0286102,-0.163525,-0.0784397,0.0367165,0.0159304,0.19884,5,0.1,9,2.6,-2.39903,3.71712,0.568248,-0.49997,-0.0914514,-0.000885129,0.449061,0.110149,0.00858307,0.00989982,0.094097,5,0.1,10,2.6,-4.03858,-1.9087,0.515498,0.263643,-0.850165,0.0157595,0.510931,-0.317216,0.0793338,0.0104728,2.21702,5,0.1,11,2.6,3.81543,-1.10679,0.614563,-0.147736,0.866026,-0.00416487,0.0264645,-5.96046e-05,0.00077486,0.0105201,2.25787,5,0.1,12,2.6,-3.29204,1.19479,0.742723,0.228447,0.14852,0.00886172,-0.109673,-0.163019,-0.0117421,0.00868683,0.263628,5,0.1,13,2.6,1.3,-1.41399,0.733085,-0.0647783,0.825858,0.0147849,-0.804424,-0.277042,-0.0115931,0.0160615,2.52777,5,0.1,14,2.6,-2.17609,-1.52956,0.598573,0.866026,0.0488669,0.0229761,0,-0.00941753,-0.00438094,0.00843511,2.27004,5,0.1,15,2.6,-0.589664,1.55828,0.613721,0.0517339,0.233036,-0.00547618,-0.115126,0.169754,-0.000566244,0.00937471,0.239169,5,0.1,16,2.6,0.450204,-0.261571,1.23166,-0.000207871,0.22604,0.118312,0.000268221,-0.442885,-0.133991,0.0267895,0.258424,5,0.1,17,2.6,1.44153,-0.700122,0.605537,-0.0588626,0.855798,-0.00248253,0.418305,-0.204563,0.00301003,0.016567,2.36498,5,0.1,18,2.6,-3.7355,-1.10306,0.609028,-0.0303745,0.315124,0.00998974,-0.0152588,-0.212252,-0.0108182,0.00758052,0.0129843,5,0.1,19,2.6,0.225139,2.4,0.541089,-0.282188,-0.444508,-0.0246182,0.296324,0.466108,0.0258982,0.00767465,0.103578,5,0.1,20,2.6,-2.97119,1.33598,0.739626,0.55117,0.0140369,0.0103787,-0.0574589,-0.0159144,-0.0117421,0.00887325,0.112122,5,0.1,21,2.6,-2.25496,4.04881,0.7342,0.675982,0.0886559,0.0691637,-1.57928,0.479221,0.173718,0.00939653,1.53262,5,0.1,22,2.6,-0.679918,0.345299,0.609343,0.50236,0.782452,-0.00887364,-0.430852,-0.145674,0.00762939,0.0128549,0.502994,5,0.1,23,2.6,1.20091,0.741453,0.580494,0.00809431,0.331809,0.0417843,0.020802,0.059098,0.22912,0.0207987,0.152259,5,0.1,24,2.6,3.16039,2.94971,0.594941,-0.344735,0.102532,0.00475943,-1.48034,0.303388,-0.0077188,0.0175629,2.69404,5,0.1,25,2.6,-0.506668,-0.95454,0.556515,0.141211,0.790359,0.0268668,0.029996,-0.331581,0.0167787,0.0326451,0.544303,5,0.1,26,2.6,1.16725,-0.200031,0.600552,0.080198,-0.000777096,0.0281855,-0.134289,-0.0244305,0.18099,0.0230951,0.248675,5,0.1,27,2.6,-3.58857,-3.38944,0.507822,0.115943,0.0726581,-0.0102103,-0.230908,-0.144601,0.0203252,0.00833535,0.000862329,5,0.1,28,2.6,1.2004,1.64598,0.736845,0.0157237,0.216061,0.00281483,0.0211596,-0.473559,-0.0192821,0.00771716,0.402143,5,0.1,29,2.6,-1.13641,-1.96974,0.527123,-0.0167489,-0.28398,-0.00621825,0.0526309,0.231564,0.0090301,0.00760625,0.0125491,5,0.1
0,2.7,1.20154,1.34323,0.739846,0.0107532,0.283159,0.010106,0.00656396,-0.232488,-0.00990927,0.0139754,0.659063,5,0.1,1,2.7,-0.352023,1.69701,0.594071,0.200241,0.00813287,-0.00379141,0.07567,0.321306,-0.085108,0.00714396,1.38897,5,0.1,2,2.7,-1.74004,-3.20728,0.5,0.14806,0.0548698,1.95578e-06,-0.177518,-0.281125,1.11759e-05,0.0181302,0.255589,5,0.1,3,2.7,-1.0098,2.13305,0.574782,0.065445,-0.824062,0.0107802,-0.326328,0.548482,0.0353418,0.0128536,0.0821843,5,0.1,4,2.7,-1.81962,-4.04588,0.673143,-0.206358,-0.053709,0.0258772,0.251129,0.0653565,-0.0314862,0.00787295,0.00446677,5,0.1,5,2.7,3.31452,2.53518,0.500002,-0.154955,0.453966,-1.69501e-05,0.221357,-0.394091,0.000104308,0.0151575,0.157226,5,0.1,6,2.7,-0.250349,-2.96362,0.641847,-0.0325952,-0.579133,-0.0301765,0.0429479,0.0877827,0.0370145,0.00717267,0.487527,5,0.1,7,2.7,-0.69737,-1.93888,0.620979,0.324977,0.189728,0.0548305,-0.0147969,1.99925,-0.103489,0.0329061,3.06114,5,0.1,8,2.7,-0.877288,4.18626,0.690218,0.483959,-0.210148,0.0321304,-0.167202,-0.0441074,0.0316277,0.0159304,0.19884,5,0.1,9,2.7,-2.44691,3.70848,0.568198,-0.458556,-0.0815306,-0.00015907,0.393614,0.0910014,0.00599772,0.00989982,0.094097,5,0.1,10,2.7,-4.00969,-1.99469,0.517462,0.313177,-0.865033,0.0233646,0.455663,-0.039652,0.0702702,0.0104728,2.21702,5,0.1,11,2.7,3.80073,-1.02018,0.614148,-0.146712,0.866025,-0.00413433,0.00298023,1.11759e-05,8.9407e-05,0.0105201,2.25787,5,0.1,12,2.7,-3.27001,1.20889,0.743554,0.209998,0.133958,0.0077758,-0.248775,-0.133097,-0.01017,0.00868683,0.263628,5,0.1,13,2.7,1.28851,-1.33264,0.73451,-0.172591,0.801753,0.0137427,-1.26236,-0.239007,-0.00976399,0.0160615,2.52777,5,0.1,14,2.7,-2.08948,-1.5247,0.600859,0.866026,0.0484779,0.0227973,0,-0.0013411,-0.000596046,0.00843511,2.27004,5,0.1,15,2.7,-0.584756,1.5822,0.613164,0.0490618,0.242947,-0.0056928,0.0435598,0.0288561,-0.0031665,0.00937471,0.239169,5,0.1,16,2.7,0.450184,-0.241248,1.24287,-0.000183936,0.179979,0.106231,0.000216067,-0.469347,-0.111245,0.0267895,0.258424,5,0.1,17,2.7,1.43798,-0.61494,0.605283,-0.0102151,0.85235,-0.00277571,0.528499,0.0682734,-0.00753999,0.016567,2.36498,5,0.1,18,2.7,-3.73859,-1.07263,0.609974,-0.0312716,0.292946,0.00893949,-0.00226498,-0.236005,-0.0103451,0.00758052,0.0129843,5,0.1,19,2.7,0.198306,2.35771,0.538749,-0.255208,-0.402587,-0.0222608,0.251533,0.386491,0.0219755,0.00767465,0.103578,5,0.1,20,2.7,-2.91653,1.33731,0.740609,0.539985,0.0126015,0.00931965,-0.175565,-0.0132173,-0.00975654,0.00887325,0.112122,5,0.1,21,2.7,-2.19353,4.0596,0.741773,0.567615,0.122528,0.0803127,-0.675842,0.210285,0.0545718,0.00939653,1.53262,5,0.1,22,2.7,-0.631708,0.422819,0.608492,0.462719,0.767283,-0.00817152,-0.376951,-0.184705,0.00667945,0.0128549,0.502994,5,0.1,23,2.7,1.20179,0.775113,0.585594,0.00920296,0.342525,0.0581158,0.0025183,0.128392,0.103004,0.0207987,0.152259,5,0.1,24,2.7,3.1181,2.96171,0.59538,-0.502921,0.139245,0.00402909,-1.59855,0.4026,-0.00693649,0.0175629,2.69404,5,0.1,25,2.7,-0.492411,-0.876931,0.559279,0.143645,0.763211,0.0283225,0.0130087,-0.247419,0.0111572,0.0326451,0.544303,5,0.1,26,2.7,1.17465,-0.200203,0.604078,0.0681629,-0.00239897,0.0405067,-0.108607,-0.0086436,0.071276,0.0230951,0.248675,5,0.1,27,2.7,-3.5781,-3.38288,0.5069,0.0936095,0.0586711,-0.00824425,-0.214919,-0.134617,0.018917,0.00833535,0.000862329,5,0.1,28,2.7,1.20203,1.66517,0.737034,0.016479,0.167307,0.00103051,-0.00435859,-0.491284,-0.0162162,0.00771716,0.402143,5,0.1,29,2.7,-1.13783,-1.997,0.526545,-0.0119094,-0.261101,-0.00536507,0.0440925,0.232339,0.00813231,0.00760625,0.0125491,5,0.1
0,2.8,1.20247,1.37037,0.740809,0.00607669,0.2592,0.00915676,-0.107467,-0.252008,-0.00941753,0.0145371,0.599957,5,0.1,1,2.8,-0.331618,1.7,0.593274,0.207536,0.0569671,-0.0119805,0.0562072,0.633538,-0.0759065,0.0081615,1.18952,5,0.1,2,2.8,-1.72611,-3.20308,0.5,0.130582,0.0303805,1.49012e-06,-0.174284,-0.207543,0,0.0185579,0.424197,5,0.1,3,2.8,-1.00481,2.05395,0.576028,0.0352502,-0.752562,0.014022,-0.274241,0.865877,0.028193,0.0112689,0.163815,5,0.1,4,2.8,-1.83899,-4.05092,0.675571,-0.180623,-0.0470161,0.0226498,0.264525,0.068903,-0.03317,0.0096688,0.00136916,5,0.1,5,2.8,3.3,2.5786,0.5,-0.136852,0.414336,-7.45058e-06,0.139594,-0.40853,5.96046e-05,0.0190869,0.116258,5,0.1,6,2.8,-0.253328,-3.02107,0.639059,-0.0264376,-0.569159,-0.0252202,0.0757128,0.138879,0.0592768,0.00795091,0.358748,5,0.1,7,2.8,-0.665095,-1.91005,0.62592,0.318877,0.383541,0.0438198,-0.114024,1.80107,-0.114113,0.0330945,2.44007,5,0.1,8,2.8,-0.829849,4.16513,0.693567,0.463289,-0.211084,0.0345916,-0.25782,0.0309944,0.0162423,0.0157416,0.132988,5,0.1,9,2.8,-2.4908,3.70077,0.568208,-0.418806,-0.0727773,0.000324845,0.411153,0.0859499,0.00372529,0.00981495,0.108653,5,0.1,10,2.8,-3.97635,-2.08127,0.520118,0.350708,-0.866026,0.029397,0.278473,0,0.0486374,0.00830964,2.17864,5,0.1,11,2.8,3.78609,-0.933581,0.613736,-0.145596,0.866026,-0.00410229,0.02563,0,0.000715256,0.0102327,2.25827,5,0.1,12,2.8,-3.25041,1.22164,0.744282,0.180632,0.121063,0.00679493,-0.329494,-0.128388,-0.00956655,0.00862258,0.25827,5,0.1,13,2.8,1.26479,-1.25382,0.735835,-0.301549,0.77233,0.0127465,-1.24931,-0.372827,-0.01055,0.0158466,1.98257,5,0.1,14,2.8,-2.00288,-1.51986,0.603132,0.866026,0.0480831,0.0226155,0,-0.00858307,-0.00405312,0.00821019,2.2701,5,0.1,15,2.8,-0.579493,1.60641,0.612579,0.0572234,0.239021,-0.00600219,0.10553,-0.105798,-0.0026226,0.00953241,0.21948,5,0.1,16,2.8,0.450167,-0.225579,1.25295,-0.000163168,0.133765,0.0954449,0.000193715,-0.447996,-0.10699,0.0257824,0.256713,5,0.1,17,2.8,1.43961,-0.529367,0.60496,0.0422567,0.857815,-0.00375509,0.501275,-0.00798702,-0.0110269,0.0132936,2.36091,5,0.1,18,2.8,-3.74171,-1.04459,0.610816,-0.0307679,0.267187,0.00789762,0.0123978,-0.281751,-0.0106394,0.00765418,0.00660061,5,0.1,19,2.8,0.174024,2.31935,0.536631,-0.230472,-0.364792,-0.0201002,0.249013,0.379682,0.0217259,0.00702288,0.122817,5,0.1,20,2.8,-2.86367,1.33851,0.741493,0.514627,0.0113219,0.00837296,-0.336528,-0.0127554,-0.00938773,0.00791017,0.145342,5,0.1,21,2.8,-2.13925,4.07254,0.749918,0.525153,0.13299,0.0810906,-0.242114,0.0100136,-0.0341237,0.0127499,2.75095,5,0.1,22,2.8,-0.587332,0.49838,0.607708,0.424434,0.741025,-0.00749379,-0.399113,-0.358329,0.00706315,0.0117366,0.334713,5,0.1,23,2.8,1.2027,0.809941,0.59175,0.00881255,0.352883,0.0634298,-0.00935793,0.059545,0.00825524,0.0207852,0.0890148,5,0.1,24,2.8,3.0602,2.97762,0.595749,-0.649852,0.17814,0.00336468,-1.27888,0.354409,-0.0063777,0.0154928,2.37046,5,0.1,25,2.8,-0.478048,-0.801949,0.56215,0.142874,0.734745,0.0289053,-0.0321418,-0.347167,-0.000327826,0.0314445,0.382492,5,0.1,26,2.8,1.18095,-0.200465,0.608344,0.0580966,-0.00263415,0.0435308,-0.0944734,0.00330061,-0.00572205,0.0239673,0.243196,5,0.1,27,2.8,-3.56978,-3.37767,0.506168,0.073117,0.04583,-0.00644028,-0.194311,-0.121713,0.0171065,0.00890342,0.000786768,5,0.1,28,2.8,1.20362,1.67948,0.737063,0.0151604,0.119588,-0.000400841,-0.020504,-0.455558,-0.012219,0.00762008,0.463686,5,0.1,29,2.8,-1.13882,-2.0219,0.526048,-0.00793636,-0.236523,-0.00457615,0.0353456,0.263214,0.0077486,0.00868496,0.0038507,5,0.1
0,2.9,1.20243,1.39505,0.741683,-0.00913534,0.234727,0.0083535,-0.233032,-0.241891,-0.00704452,0.0145371,0.599957,5,0.1,1,2.9,-0.310505,1.70956,0.591695,0.215121,0.139561,-0.0195444,0.0805482,0.952765,-0.0724792,0.0081615,1.18952,5,0.1,2,2.9,-1.71391,-3.20101,0.5,0.11356,0.0117682,1.11759e-06,-0.16696,-0.158906,-7.45058e-06,0.0185579,0.424197,5,0.1,3,2.9,-1.00255,1.98277,0.577555,0.0108654,-0.673204,0.0163461,-0.212856,0.741243,0.0178851,0.0112689,0.163815,5,0.1,4,2.9,-1.85573,-4.05528,0.677671,-0.154453,-0.0402018,0.0193681,0.258826,0.0673532,-0.0324585,0.0096688,0.00136916,5,0.1,5,2.9,3.2868,2.61812,0.5,-0.12892,0.377002,-1.49012e-06,0.0337064,-0.350326,4.47035e-05,0.0190869,0.116258,5,0.1,6,2.9,-0.255549,-3.07748,0.636861,-0.0176408,-0.559957,-0.0185327,0.0961758,0.0751168,0.0719391,0.00795091,0.358748,5,0.1,7,2.9,-0.633782,-1.86258,0.629723,0.307089,0.565161,0.0322143,-0.130676,1.75374,-0.115745,0.0330945,2.44007,5,0.1,8,2.9,-0.78475,4.14419,0.697104,0.438907,-0.207469,0.0360584,-0.244178,0.0480413,0.011459,0.0157416,0.132988,5,0.1,9,2.9,-2.53095,3.69386,0.568257,-0.386893,-0.066087,0.000620168,0.252202,0.0524074,0.00221655,0.00981495,0.108653,5,0.1,10,2.9,-3.93988,-2.16787,0.523296,0.378303,-0.866026,0.0340491,0.25022,0,0.0420697,0.00830964,2.17864,5,0.1,11,2.9,3.7716,-0.846979,0.613328,-0.144618,0.866026,-0.00407575,0.00275671,-3.72529e-06,6.33299e-05,0.0102327,2.25827,5,0.1,12,2.9,-3.23407,1.23315,0.744917,0.14561,0.109601,0.00592219,-0.363111,-0.104897,-0.00805035,0.00862258,0.25827,5,0.1,13,2.9,1.22811,-1.17832,0.737061,-0.433118,0.738249,0.0117919,-1.31433,-0.336513,-0.00895932,0.0158466,1.98257,5,0.1,14,2.9,-1.91628,-1.51508,0.605383,0.866026,0.0477575,0.022461,0,-0.000879169,-0.000413507,0.00821019,2.2701,5,0.1,15,2.9,-0.573112,1.62948,0.611963,0.071343,0.219602,-0.00632377,0.163123,-0.269622,-0.00334159,0.00953241,0.21948,5,0.1,16,2.9,0.450152,-0.214361,1.262,-0.000145892,0.0915465,0.085832,0.0001546,-0.391373,-0.088267,0.0257824,0.256713,5,0.1,17,2.9,1.44569,-0.443809,0.604538,0.0733355,0.851532,-0.00459431,0.144698,-0.117222,-0.00583008,0.0132936,2.36091,5,0.1,18,2.9,-3.74471,-1.01927,0.611554,-0.0291999,0.239254,0.00688219,0.0192374,-0.280447,-0.00979379,0.00765418,0.00660061,5,0.1,19,2.9,0.152026,2.28444,0.534712,-0.211091,-0.33606,-0.0184094,0.152703,0.218838,0.0133179,0.00702288,0.122817,5,0.1,20,2.9,-2.81376,1.33958,0.742287,0.484349,0.0101764,0.00752918,-0.287414,-0.0105202,-0.0077486,0.00791017,0.145342,5,0.1,21,2.9,-2.08646,4.0856,0.757762,0.542873,0.125673,0.07494,0.488967,-0.143856,-0.0851229,0.0127499,2.75095,5,0.1,22,2.9,-0.546761,0.57075,0.606992,0.387879,0.706394,-0.00684662,-0.344519,-0.356706,0.0060983,0.0117366,0.334713,5,0.1,23,2.9,1.20352,0.845544,0.598024,0.00747535,0.358886,0.0610626,-0.0165626,0.0433996,-0.0514276,0.0207852,0.0890148,5,0.1,24,2.9,2.98922,2.9973,0.596056,-0.76461,0.215661,0.00278847,-0.975072,0.372455,-0.00521913,0.0154928,2.37046,5,0.1,25,2.9,-0.463922,-0.730045,0.565036,0.139509,0.704232,0.0287635,-0.0398252,-0.292268,-0.00347197,0.0314445,0.382492,5,0.1,26,2.9,1.18629,-0.200778,0.612576,0.0487112,-0.00405598,0.0402955,-0.0927746,-0.0225874,-0.0546947,0.0239673,0.243196,5,0.1,27,2.9,-3.56341,-3.37367,0.505606,0.0548054,0.0343587,-0.00482826,-0.17117,-0.107214,0.0150688,0.00890342,0.000786768,5,0.1,28,2.9,1.20503,1.68927,0.736961,0.0128657,0.0774704,-0.00163512,-0.0248253,-0.381887,-0.0120215,0.00762008,0.463686,5,0.1,29,2.9,-1.13945,-2.04424,0.525628,-0.00477657,-0.210088,-0.00383854,0.0278652,0.267327,0.00703335,0.00868496,0.0038507,5,0.1
0,3,1.2,1.4173,0.742484,-0.0427604,0.210091,0.00768155,-0.425637,-0.253677,-0.00670552,0.012221,0.511673,5,0.1,1,3,-0.28865,1.72836,0.589404,0.221095,0.236028,-0.0259832,0.028342,0.927269,-0.0543296,0.0100412,0.979117,5,0.1,2,3,-1.70339,-3.20051,0.500001,0.0970662,-0.000560284,0,-0.163317,-0.0849962,0,0.0174477,0.874569,5,0.1,3,3,-1.00243,1.91908,0.57926,-0.00726283,-0.60091,0.0175416,-0.149608,0.718653,0.00581145,0.00805671,1.19676,5,0.1,4,3,-1.8699,-4.05897,0.679447,-0.128895,-0.0335455,0.0161618,0.252068,0.0655651,-0.0315905,0.00770871,0.00077978,5,0.1,5,3,3.274,2.65409,0.5,-0.12753,0.342208,0,0.00524521,-0.354171,5.96046e-05,0.0156162,0.15951,5,0.1,6,3,-0.256826,-3.133,0.635371,-0.00791699,-0.54903,-0.0112802,0.0952035,0.164628,0.0711679,0.00792252,0.256671,5,0.1,7,3,-0.603813,-1.79789,0.632379,0.29127,0.721064,0.0210673,-0.19148,1.30969,-0.1055,0.0315419,1.87749,5,0.1,8,3,-0.742154,4.12376,0.700748,0.412048,-0.200355,0.0366107,-0.302702,0.0987053,-0.00143051,0.0162489,0.142668,5,0.1,9,3,-2.56847,3.68748,0.568328,-0.364,-0.0614941,0.00077486,0.223994,0.0429153,0.000983477,0.00870941,0.0631955,5,0.1,10,3,-3.901,-2.25448,0.526884,0.396842,-0.866026,0.0374198,0.104666,0,0.0237226,0.00808208,2.16649,5,0.1,11,3,3.75717,-0.760376,0.612921,-0.143528,0.866026,-0.00404716,0.0252724,0,0.000715256,0.011152,2.25867,5,0.1,12,3,-3.22132,1.2436,0.74547,0.10941,0.0993937,0.0051558,-0.354886,-0.102103,-0.00739098,0.00917755,0.256253,5,0.1,13,3,1.17858,-1.1063,0.738195,-0.552782,0.700361,0.0108823,-1.03045,-0.440121,-0.00950694,0.0151704,1.48459,5,0.1,14,3,-1.82968,-1.51031,0.607624,0.866026,0.0474066,0.0222936,0,-0.00822544,-0.0038445,0.00897423,2.27015,5,0.1,15,3,-0.56516,1.64991,0.611316,0.0874534,0.187483,-0.00659078,0.148892,-0.3618,-0.00163913,0.0110227,0.20078,5,0.1,16,3,0.450138,-0.207037,1.27015,-0.000130385,0.0562757,0.0772774,0.00013411,-0.311181,-0.0849366,0.0288397,0.508024,5,0.1,17,3,1.45332,-0.359437,0.604057,0.0756651,0.833804,-0.00493824,-0.0779629,-0.24344,-0.00113249,0.00640872,0.984537,5,0.1,18,3,-3.74752,-0.996762,0.612194,-0.0268877,0.210558,0.00592023,0.0270605,-0.295341,-0.00953674,0.00813386,0.00196965,5,0.1,19,3,0.131616,2.25182,0.532932,-0.197477,-0.316858,-0.0172228,0.130039,0.182986,0.0113547,0.00961251,0.0723477,5,0.1,20,3,-2.7668,1.34054,0.743002,0.454032,0.00915825,0.00677854,-0.33164,-0.0101328,-0.00745058,0.00878695,0.202956,5,0.1,21,3,-2.02925,4.09728,0.764772,0.604004,0.106514,0.0647619,0.651836,-0.228643,-0.115246,0.0129233,2.50536,5,0.1,22,3,-0.509689,0.63946,0.606338,0.353406,0.665949,-0.00623614,-0.353679,-0.467151,0.00625849,0.013629,0.221569,5,0.1,23,3,1.20418,0.881508,0.603804,0.00565052,0.358696,0.0539154,-0.0193119,-0.0586808,-0.0880063,0.0209881,0.0664747,5,0.1,24,3,2.90864,3.0206,0.59631,-0.838852,0.248599,0.0023067,-0.491023,0.269532,-0.00444055,0.015702,2.24353,5,0.1,25,3,-0.450214,-0.661188,0.567884,0.134137,0.671355,0.0280514,-0.0706762,-0.385523,-0.0114143,0.0312017,0.263803,5,0.1,26,3,1.1907,-0.20128,0.61628,0.0396252,-0.00568926,0.0333712,-0.0885129,-0.00459701,-0.0802577,0.0234115,0.2293,5,0.1,27,3,-3.55874,-3.37075,0.505194,0.0390053,0.0244558,-0.00343621,-0.144243,-0.0903606,0.0126958,0.00856532,0.000596148,5,0.1,28,3,1.20619,1.69526,0.73674,0.0102997,0.0439286,-0.00272989,-0.0261068,-0.286579,-0.00956655,0.00616691,0.492737,5,0.1,29,3,-1.1398,-2.06389,0.525279,-0.00235736,-0.182801,-0.00316352,0.0206232,0.279069,0.00649691,0.00901628,0.0012404,5,0.1
0,3.1,1.19317,1.43727,0.743221,-0.0970909,0.191201,0.00706585,-0.619315,-0.139207,-0.00584498,0.012221,0.511673,5,0.1,1,3.1,-0.266734,1.75648,0.58656,0.214172,0.324242,-0.0306089,-0.155375,0.807174,-0.0371374,0.0100412,0.979117,5,0.1,2,3.1,-1.69446,-3.20103,0.500001,0.0816664,-0.00947937,0,-0.145577,-0.0632107,0,0.0174477,0.874569,5,0.1,3,3.1,-1.00364,1.86157,0.581034,-0.0147229,-0.557835,0.0178616,-0.0108406,0.209048,0.000234693,0.00805671,1.19676,5,0.1,4,3.1,-1.88155,-4.062,0.680909,-0.104521,-0.027205,0.0131068,0.234596,0.0610352,-0.0294112,0.00770871,0.00077978,5,0.1,5,3.1,3.26129,2.68682,0.5,-0.126317,0.314743,3.35276e-06,0.022918,-0.215992,7.45058e-06,0.0156162,0.15951,5,0.1,6,3.1,-0.257135,-3.1872,0.634601,0.00172094,-0.535351,-0.00414634,0.0945609,0.133008,0.0696592,0.00792252,0.256671,5,0.1,7,3.1,-0.575616,-1.7203,0.63397,0.272765,0.820192,0.0109208,-0.186175,0.677191,-0.0958182,0.0315419,1.87749,5,0.1,8,3.1,-0.702387,4.10407,0.704401,0.383737,-0.194479,0.0363903,-0.275519,0.0329912,-0.00430644,0.0162489,0.142668,5,0.1,9,3.1,-2.60389,3.68152,0.568408,-0.345312,-0.0580151,0.000829343,0.166327,0.029698,0.000137836,0.00870941,0.0631955,5,0.1,10,3.1,-3.86073,-2.34108,0.530746,0.408569,-0.866026,0.039769,0.106975,0,0.0209734,0.00808208,2.16649,5,0.1,11,3.1,3.74289,-0.673774,0.612518,-0.142552,0.866026,-0.00402005,0.00296533,-3.72529e-06,7.82311e-05,0.011152,2.25867,5,0.1,12,3.1,-3.2121,1.25307,0.745951,0.075677,0.0902729,0.00448897,-0.315279,-0.0836328,-0.00608712,0.00917755,0.256253,5,0.1,13,3.1,1.11817,-1.03834,0.739239,-0.653851,0.659704,0.0100196,-0.938788,-0.395849,-0.00809506,0.0151704,1.48459,5,0.1,14,3.1,-1.74307,-1.50559,0.609843,0.866026,0.0471005,0.0221518,0,-0.000782311,-0.000353903,0.00897423,2.27015,5,0.1,15,3.1,-0.55546,1.66677,0.610641,0.1081,0.149165,-0.00695558,0.24258,-0.395522,-0.00487641,0.0110227,0.20078,5,0.1,16,3.1,0.450125,-0.202808,1.27747,-0.000120373,0.029843,0.0690082,7.63685e-05,-0.218439,-0.0832006,0.0288397,0.508024,5,0.1,17,3.1,1.46121,-0.27912,0.603531,0.0881333,0.756414,-0.0058068,0.281274,-1.21329,-0.0142977,0.00640872,0.984537,5,0.1,18,3.1,-3.75007,-0.977171,0.61274,-0.023995,0.18139,0.00500409,0.0306815,-0.288542,-0.00882521,0.00813386,0.00196965,5,0.1,19,3.1,0.112434,2.22092,0.531259,-0.18677,-0.302245,-0.0162883,0.0934326,0.125095,0.00815094,0.00961251,0.0723477,5,0.1,20,3.1,-2.72279,1.34141,0.743645,0.428308,0.00825059,0.0061105,-0.207856,-0.0083223,-0.0061281,0.00878695,0.202956,5,0.1,21,3.1,-1.96487,4.10663,0.770508,0.688247,0.0792161,0.0486049,0.944167,-0.30458,-0.196617,0.0129233,2.50536,5,0.1,22,3.1,-0.476004,0.703821,0.605743,0.321158,0.621806,-0.00566561,-0.301728,-0.434499,0.00534207,0.013629,0.221569,5,0.1,23,3.1,1.20464,0.917156,0.608703,0.00354648,0.354507,0.0436569,-0.0219643,-0.0430197,-0.113234,0.0209881,0.0664747,5,0.1,24,3.1,2.82318,3.04681,0.59652,-0.863672,0.275226,0.00190409,-0.0810474,0.244543,-0.00366196,0.015702,2.24353,5,0.1,25,3.1,-0.437143,-0.59584,0.570632,0.127294,0.636374,0.0269056,-0.0700541,-0.337973,-0.0123046,0.0312017,0.263803,5,0.1,26,3.1,1.19424,-0.201916,0.619187,0.0311831,-0.00692627,0.0245533,-0.0800565,-5.4948e-05,-0.093136,0.0234115,0.2293,5,0.1,27,3.1,-3.55552,-3.36873,0.504911,0.0257902,0.0161752,-0.00227299,-0.119656,-0.0749826,0.0105351,0.00856532,0.000596148,5,0.1,28,3.1,1.20711,1.6984,0.736413,0.00832677,0.0204088,-0.0038594,-0.0143796,-0.184886,-0.0122115,0.00616691,0.492737,5,0.1,29,3.1,-1.13994,-2.08079,0.524994,-0.000588968,-0.155253,-0.0025494,0.0148118,0.271648,0.0057891,0.00901628,0.0012404,5,0.1
0,3.2,1.18033,1.45579,0.743898,-0.159326,0.179604,0.00647455,-0.594199,-0.104129,-0.00613928,0.0126543,0.408683,5,0.1,1,3.2,-0.246318,1.79254,0.583348,0.192158,0.392476,-0.033246,-0.274956,0.537395,-0.0150204,0.00797771,0.801173,5,0.1,2,3.2,-1.687,-3.20208,0.500001,0.0677943,-0.0089705,0,-0.132442,0.0852346,-2.98023e-05,0.0161302,1.41634,5,0.1,3,3.2,-1.00501,1.80644,0.58281,-0.0114739,-0.547442,0.0175372,0.0665784,0.049293,-0.00691414,0.0108429,1.29503,5,0.1,4,3.2,-1.89087,-4.06443,0.682077,-0.0821203,-0.0213742,0.0102982,0.212789,0.0553131,-0.0267029,0.00744367,0.000696667,5,0.1,5,3.2,3.24883,2.7173,0.500001,-0.122315,0.295371,1.49012e-06,0.0594854,-0.186682,0,0.0151351,0.128146,5,0.1,6,3.2,-0.256512,-3.23996,0.63452,0.0104807,-0.518364,0.00233203,0.0784695,0.223637,0.0585616,0.00744507,0.179039,5,0.1,7,3.2,-0.549311,-1.63586,0.63461,0.252777,0.859419,0.00217557,-0.21857,0.132143,-0.0779331,0.0334669,1.39059,5,0.1,8,3.2,-0.665425,4.08478,0.708005,0.354928,-0.191319,0.0355303,-0.308871,0.041008,-0.0137985,0.0143704,0.209224,5,0.1,9,3.2,-2.63757,3.67587,0.568491,-0.327909,-0.055027,0.000807643,0.193357,0.0323057,-0.000476837,0.0106339,0.0493085,5,0.1,10,3.2,-3.81948,-2.42768,0.534808,0.41436,-0.866026,0.041227,-0.00703335,0,0.00667572,0.00891239,2.16732,5,0.1,11,3.2,3.72867,-0.587171,0.612117,-0.141448,0.866026,-0.00398904,0.0252724,0,0.000685453,0.00990054,2.25908,5,0.1,12,3.2,-3.20602,1.26168,0.746371,0.0470757,0.0820965,0.00391454,-0.254035,-0.082314,-0.00551343,0.0093322,0.506362,5,0.1,13,3.2,1.04859,-0.974425,0.740201,-0.731742,0.617343,0.00920445,-0.583202,-0.467032,-0.00846386,0.0153887,1.05892,5,0.1,14,3.2,-1.65647,-1.50089,0.612053,0.866026,0.0467569,0.0219926,0,-0.00810623,-0.0038445,0.0093392,2.2702,5,0.1,15,3.2,-0.543428,1.67971,0.609922,0.13223,0.109977,-0.00742972,0.224113,-0.381291,-0.00402331,0.0116991,0.175552,5,0.1,16,3.2,0.450114,-0.200772,1.28394,-0.000113994,0.0122938,0.0602156,7.45058e-05,-0.134513,-0.0941753,0.0260774,0.422831,5,0.1,17,3.2,1.47171,-0.210523,0.60287,0.12376,0.607637,-0.00745803,0.395656,-1.6884,-0.0171959,0.0085789,0.359949,5,0.1,18,3.2,-3.75231,-0.960466,0.613197,-0.0207841,0.152797,0.00414997,0.033617,-0.283331,-0.00825524,0.00834738,0.000926609,5,0.1,19,3.2,0.0942261,2.19133,0.529671,-0.177191,-0.28913,-0.0154525,0.1048,0.148416,0.00911951,0.00883166,0.0659204,5,0.1,20,3.2,-2.68096,1.3422,0.744227,0.408143,0.00744462,0.00551641,-0.213742,-0.00798702,-0.00593066,0.00814099,0.435135,5,0.1,21,3.2,-1.89145,4.11299,0.774328,0.777453,0.0478506,0.027445,0.77498,-0.312805,-0.217766,0.0129449,2.33068,5,0.1,22,3.2,-0.445381,0.763758,0.605203,0.29128,0.575905,-0.00513643,-0.303224,-0.496268,0.00533462,0.0126415,0.146808,5,0.1,23,3.2,1.20489,0.952298,0.612488,0.00139773,0.347081,0.031966,-0.020504,-0.11766,-0.11754,0.0217847,0.0985062,5,0.1,24,3.2,2.73663,3.07539,0.596693,-0.866026,0.294393,0.00156611,0,0.126362,-0.00312924,0.0163579,2.21196,5,0.1,25,3.2,-0.424788,-0.533973,0.573255,0.119479,0.599732,0.0254557,-0.0888556,-0.411257,-0.0171661,0.0311046,0.179635,5,0.1,26,3.2,1.19697,-0.202482,0.621176,0.0236601,-0.00290088,0.0152662,-0.0702143,0.0884756,-0.0903606,0.0218683,0.199514,5,0.1,27,3.2,-3.5535,-3.36746,0.504732,0.0151277,0.00949502,-0.00133365,-0.0934601,-0.0585318,0.00819564,0.00791908,0.000342012,5,0.1,28,3.2,1.20788,1.69967,0.735967,0.00724196,0.00653565,-0.00503063,-0.00804663,-0.0956059,-0.0106096,0.00841884,0.497795,5,0.1,29,3.2,-1.13994,-2.09497,0.524766,0.000622869,-0.128549,-0.0020057,0.00953674,0.262022,0.0051558,0.00899591,0.000794439,5,0.1
