id,t,px,py,pz,vx,vy,vz,ax,ay,az,planning_time,qp_cost,planning_report,size,id,t,px,py,pz,vx,vy,vz,ax,ay,az,planning_time,qp_cost,planning_report,size,id,t,px,py,pz,vx,vy,vz,ax,ay,az,planning_time,qp_cost,planning_report,size,id,t,px,py,pz,vx,vy,vz,ax,ay,az,planning_time,qp_cost,planning_report,size,id,t,px,py,pz,vx,vy,vz,ax,ay,az,planning_time,qp_cost,planning_report,size,id,t,px,py,pz,vx,vy,vz,ax,ay,az,planning_time,qp_cost,planning_report,size,id,t,px,py,pz,vx,vy,vz,ax,ay,az,planning_time,qp_cost,planning_report,size,id,t,px,py,pz,vx,vy,vz,ax,ay,az,planning_time,qp_cost,planning_report,size,id,t,px,py,pz,vx,vy,vz,ax,ay,az,planning_time,qp_cost,planning_report,size,id,t,px,py,pz,vx,vy,vz,ax,ay,az,planning_time,qp_cost,planning_report,size,id,t,px,py,pz,vx,vy,vz,ax,ay,az,planning_time,qp_cost,planning_report,size,id,t,px,py,pz,vx,vy,vz,ax,ay,az,planning_time,qp_cost,planning_report,size,id,t,px,py,pz,vx,vy,vz,ax,ay,az,planning_time,qp_cost,planning_report,size,id,t,px,py,pz,vx,vy,vz,ax,ay,az,planning_time,qp_cost,planning_report,size,id,t,px,py,pz,vx,vy,vz,ax,ay,az,planning_time,qp_cost,planning_report,size,id,t,px,py,pz,vx,vy,vz,ax,ay,az,planning_time,qp_cost,planning_report,size,id,t,px,py,pz,vx,vy,vz,ax,ay,az,planning_time,qp_cost,planning_report,size,id,t,px,py,pz,vx,vy,vz,ax,ay,az,planning_time,qp_cost,planning_report,size,id,t,px,py,pz,vx,vy,vz,ax,ay,az,planning_time,qp_cost,planning_report,size,id,t,px,py,pz,vx,vy,vz,ax,ay,az,planning_time,qp_cost,planning_report,size,id,t,px,py,pz,vx,vy,vz,ax,ay,az,planning_time,qp_cost,planning_report,size,id,t,px,py,pz,vx,vy,vz,ax,ay,az,planning_time,qp_cost,planning_report,size,id,t,px,py,pz,vx,vy,vz,ax,ay,az,planning_time,qp_cost,planning_report,size,id,t,px,py,pz,vx,vy,vz,ax,ay,az,planning_time,qp_cost,planning_report,size,id,t,px,py,pz,vx,vy,vz,ax,ay,az,planning_time,qp_cost,planning_report,size,id,t,px,py,pz,vx,vy,vz,ax,ay,az,planning_time,qp_cost,planning_report,size,id,t,px,py,pz,vx,vy,vz,ax,ay,az,planning_time,qp_cost,planning_report,size,id,t,px,py,pz,vx,vy,vz,ax,ay,az,planning_time,qp_cost,planning_report,size,id,t,px,py,pz,vx,vy,vz,ax,ay,az,planning_time,qp_cost,planning_report,size,id,t,px,py,pz,vx,vy,vz,ax,ay,az,planning_time,qp_cost,planning_report,size
0,0,-2.73391,3.25479,0.61968,0,0,0,0,0,0,0.0111071,3.50867,5,0.1,1,0,0.430736,-0.867426,0.538759,0,0,0,0,0,0,0.00903728,2.46701,5,0.1,2,0,-0.782295,-1.50168,0.5638,0,0,0,0,0,0,0.0132665,3.5122,5,0.1,3,0,1.85257,1.28818,0.694375,0,0,0,0,0,0,0.0139752,1.07348,5,0.1,4,0,2.21535,-3.33154,0.656268,0,0,0,0,0,0,0.0129478,2.71985,5,0.1,5,0,3.76678,-3.64363,0.553305,0,0,0,0,0,0,0.022163,3.51219,5,0.1,6,0,2.49269,3.43718,0.615547,0,0,0,0,0,0,0.0113123,0.875212,5,0.1,7,0,0.308105,-3.80373,0.623337,0,0,0,0,0,0,0.0182414,3.51219,5,0.1,8,0,-1.58833,1.5587,0.693029,0,0,0,0,0,0,0.00987126,1.48974,5,0.1,9,0,-0.77207,1.08448,0.629735,0,0,0,0,0,0,0.0188834,1.22912,5,0.1,10,0,-3.64484,2.90406,0.557554,0,0,0,0,0,0,0.0276044,1.58533,5,0.1,11,0,2.0086,-0.0362687,0.623507,0,0,0,0,0,0,0.031118,3.51219,5,0.1,12,0,1.79203,3.94274,0.540432,0,0,0,0,0,0,0.0366497,0.940167,5,0.1,13,0,-2.44652,-0.708448,0.601511,0,0,0,0,0,0,0.0257484,0.830903,5,0.1,14,0,-4.20855,-0.501357,0.652713,0,0,0,0,0,0,0.025788,3.5122,5,0.1,15,0,2.09807,-3.93977,0.53419,0,0,0,0,0,0,0.0184351,3.5122,5,0.1,16,0,-3.60978,-3.13715,0.655353,0,0,0,0,0,0,0.0124165,1.17711,5,0.1,17,0,3.44378,-1.75945,0.652695,0,0,0,0,0,0,0.0187021,3.5122,5,0.1,18,0,4.29099,2.402,0.699225,0,0,0,0,0,0,0.0164511,2.56918,5,0.1,19,0,4.37537,-0.966279,0.606497,0,0,0,0,0,0,0.0208872,3.5122,5,0.1,20,0,-3.66317,-2.52755,0.669757,0,0,0,0,0,0,0.0135359,0.759411,5,0.1,21,0,3.94389,2.91052,0.528058,0,0,0,0,0,0,0.0162085,0.586792,5,0.1,22,0,0.874621,-4.05258,0.581936,0,0,0,0,0,0,0.0294717,1.92706,5,0.1,23,0,-4.28293,4.13362,0.661693,0,0,0,0,0,0,0.043265,3.51219,5,0.1,24,0,-2.21872,2.79236,0.66265,0,0,0,0,0,0,0.0322992,2.91915,5,0.1,25,0,-3.46485,-0.219404,0.68506,0,0,0,0,0,0,0.00858806,3.5122,5,0.1,26,0,-4.35726,3.06139,0.622089,0,0,0,0,0,0,0.030943,3.5122,5,0.1,27,0,-0.575949,-0.426732,0.693571,0,0,0,0,0,0,0.0198514,0.533389,5,0.1,28,0,-3.9907,1.31332,0.569592,0,0,0,0,0,0,0.0105478,3.5122,5,0.1,29,0,-3.64303,-1.6451,0.625519,0,0,0,0,0,0,0.0195975,3.5122,5,0.1
0,0.1,-2.732,3.25562,0.61966,0.0543464,0.0235658,-0.000583101,0.966176,0.418946,-0.0103675,0.0111071,3.50867,5,0.1,1,0.1,0.432139,-0.868473,0.538776,0.0398151,-0.029697,0.000479165,0.707822,-0.527944,0.00851229,0.00903728,2.46701,5,0.1,2,0.1,-0.781908,-1.49962,0.563833,0.0109868,0.0582337,0.000920054,0.195324,1.03527,0.0163577,0.0132665,3.5122,5,0.1,3,0.1,1.85142,1.28824,0.694434,-0.0326738,0.00183191,0.00164844,-0.580877,0.0325665,0.0293106,0.0139752,1.07348,5,0.1,4,0.1,2.21445,-3.32994,0.656209,-0.0256445,0.0453856,-0.00166735,-0.455901,0.806853,-0.0296421,0.0129478,2.71985,5,0.1,5,0.1,3.76667,-3.64155,0.553321,-0.0031013,0.0591859,0.000457466,-0.0551492,1.05217,0.00812858,0.022163,3.51219,5,0.1,6,0.1,2.49354,3.43657,0.615531,0.0239234,-0.0174005,-0.000460539,0.425324,-0.309333,-0.00819191,0.0113123,0.875212,5,0.1,7,0.1,0.306039,-3.80403,0.623372,-0.0586379,-0.00856481,0.000993628,-1.04245,-0.152245,0.0176616,0.0182414,3.51219,5,0.1,8,0.1,-1.58813,1.56005,0.692996,0.00557937,0.0381833,-0.000926945,0.0991821,0.678815,-0.016477,0.00987126,1.48974,5,0.1,9,0.1,-0.771577,1.08335,0.629704,0.0139893,-0.0321373,-0.000881311,0.248697,-0.57134,-0.0156648,0.0188834,1.22912,5,0.1,10,0.1,-3.64354,2.90354,0.557598,0.0368897,-0.0149377,0.00125784,0.655815,-0.265539,0.0223592,0.0276044,1.58533,5,0.1,11,0.1,2.00746,-0.0345243,0.623483,-0.0325572,0.0495209,-0.000690203,-0.578776,0.880373,-0.0122748,0.031118,3.51219,5,0.1,12,0.1,1.79298,3.94222,0.540494,0.026907,-0.0146013,0.00176523,0.478342,-0.259593,0.0313818,0.0366497,0.940167,5,0.1,13,0.1,-2.44569,-0.707865,0.60151,0.0236042,0.0165491,-4.47966e-05,0.419647,0.294205,-0.000793487,0.0257484,0.830903,5,0.1,14,0.1,-4.20666,-0.502256,0.652672,0.0534855,-0.0255076,-0.00117058,0.950843,-0.453465,-0.0208057,0.025788,3.5122,5,0.1,15,0.1,2.09598,-3.93977,0.534217,-0.0592627,-4.28408e-05,0.000756141,-1.05357,-0.000759959,0.0134371,0.0184351,3.5122,5,0.1,16,0.1,-3.60863,-3.13751,0.655385,0.0326861,-0.0103939,0.000927597,0.581101,-0.184789,0.0164956,0.0124165,1.17711,5,0.1,17,0.1,3.44378,-1.75736,0.652669,8.90344e-05,0.0592638,-0.000750832,0.00159442,1.05357,-0.013344,0.0187021,3.5122,5,0.1,18,0.1,4.29009,2.40046,0.69914,-0.0256963,-0.0436265,-0.00243345,-0.45684,-0.775591,-0.0432618,0.0164511,2.56918,5,0.1,19,0.1,4.37483,-0.964263,0.606494,-0.0155106,0.057203,-9.37842e-05,-0.275731,1.01694,-0.0016652,0.0208872,3.5122,5,0.1,20,0.1,-3.66264,-2.52836,0.669684,0.0152078,-0.0228912,-0.00206726,0.270352,-0.406951,-0.03675,0.0135359,0.759411,5,0.1,21,0.1,3.94339,2.91119,0.528231,-0.0141751,0.0190206,0.00491338,-0.252023,0.338167,0.0873469,0.0162085,0.586792,5,0.1,22,0.1,0.873395,-4.05163,0.581955,-0.0348088,0.0267483,0.000535324,-0.618827,0.475496,0.00951439,0.0294717,1.92706,5,0.1,23,0.1,-4.28084,4.13358,0.661665,0.0592522,-0.00108182,-0.000797771,1.05336,-0.0191927,-0.0141785,0.043265,3.51219,5,0.1,24,0.1,-2.21734,2.79368,0.662585,0.0390787,0.0372685,-0.00185659,0.694737,0.662565,-0.0330098,0.0322992,2.91915,5,0.1,25,0.1,-3.46561,-0.221351,0.685059,-0.0214383,-0.0552548,-3.28757e-05,-0.381142,-0.982308,-0.000584871,0.00858806,3.5122,5,0.1,26,0.1,-4.35526,3.06196,0.622076,0.056982,0.0162944,-0.000364147,1.01304,0.289679,-0.00647455,0.030943,3.5122,5,0.1,27,0.1,-0.575661,-0.425973,0.69363,0.00817757,0.021536,0.00167219,0.145376,0.382865,0.0297241,0.0198514,0.533389,5,0.1,28,0.1,-3.98864,1.31364,0.569621,0.0585746,0.00900216,0.000813045,1.04134,0.160038,0.0144541,0.0105478,3.5122,5,0.1,29,0.1,-3.64141,-1.64379,0.625506,0.04614,0.037198,-0.000352133,0.820279,0.661291,-0.00625476,0.0195975,3.5122,5,0.1
0,0.2,-2.72096,3.26041,0.619541,0.171763,0.074476,-0.00184327,1.28818,0.558615,-0.0138283,0.0095508,2.87869,5,0.1,1,0.2,0.440226,-0.874505,0.538873,0.125836,-0.0938565,0.00151396,0.94375,-0.703961,0.0113547,0.00934426,2.02406,5,0.1,2,0.2,-0.779676,-1.4878,0.56402,0.0347242,0.184047,0.00290871,0.260413,1.38038,0.0217855,0.0104764,2.92579,5,0.1,3,0.2,1.84478,1.28861,0.694768,-0.103265,0.00579059,0.00520945,-0.774443,0.0434518,0.0390708,0.0140332,0.880739,5,0.1,4,0.2,2.20924,-3.32072,0.655871,-0.0810504,0.143445,-0.00527054,-0.607729,1.07574,-0.0395179,0.0175015,2.23151,5,0.1,5,0.2,3.76604,-3.62952,0.553414,-0.00980496,0.187057,0.00144541,-0.0735521,1.40285,0.0108182,0.0180978,2.9258,5,0.1,6,0.2,2.4984,3.43304,0.615437,0.0756145,-0.0549972,-0.00145733,0.566959,-0.412345,-0.0108778,0.0178433,0.755671,5,0.1,7,0.2,0.294128,-3.80577,0.623574,-0.185324,-0.0270665,0.00314116,-1.38994,-0.203013,0.0235438,0.0150412,2.92579,5,0.1,8,0.2,-1.587,1.5678,0.692808,0.0176311,0.120679,-0.00292957,0.132322,0.905156,-0.0219643,0.0137357,1.22225,5,0.1,9,0.2,-0.768736,1.07682,0.629525,0.0442132,-0.101569,-0.00278503,0.33161,-0.761807,-0.0208914,0.0200698,1.00843,5,0.1,10,0.2,-3.63605,2.9005,0.557854,0.116587,-0.0472128,0.00397563,0.874519,-0.354052,0.0298023,0.0173809,1.30068,5,0.1,11,0.2,2.00084,-0.0244652,0.623343,-0.102893,0.156511,-0.00218153,-0.771761,1.17383,-0.0163615,0.013387,2.92579,5,0.1,12,0.2,1.79844,3.93926,0.540853,0.0850409,-0.0461459,0.00557899,0.63771,-0.346184,0.0418425,0.00837076,0.771362,5,0.1,13,0.2,-2.44089,-0.704503,0.601501,0.0746012,0.0523031,-0.000141561,0.559449,0.392288,-0.00107288,0.0112683,0.681716,5,0.1,14,0.2,-4.1958,-0.507437,0.652434,0.169039,-0.0806168,-0.00369996,1.26791,-0.6046,-0.027746,0.0130181,2.9262,5,0.1,15,0.2,2.08395,-3.93978,0.53437,-0.187302,-0.000137091,0.00238866,-1.40476,-0.000953674,0.017941,0.00804097,2.92579,5,0.1,16,0.2,-3.60199,-3.13962,0.655574,0.103307,-0.0328481,0.00293255,0.774741,-0.246406,0.0219643,0.00757447,0.96576,5,0.1,17,0.2,3.4438,-1.74532,0.652516,0.000280142,0.187302,-0.00237375,0.00202656,1.40476,-0.0177622,0.0122179,2.92579,5,0.1,18,0.2,4.28487,2.3916,0.698645,-0.0812173,-0.137883,-0.00769049,-0.609159,-1.03402,-0.0576973,0.00782763,2.10789,5,0.1,19,0.2,4.37168,-0.952644,0.606475,-0.0490069,0.18079,-0.000295043,-0.36788,1.35592,-0.00226498,0.0159935,2.92579,5,0.1,20,0.2,-3.65955,-2.53301,0.669264,0.0480652,-0.0723422,-0.00653267,0.36037,-0.54276,-0.0490248,0.0190775,0.623055,5,0.1,21,0.2,3.94051,2.91505,0.529229,-0.0447989,0.0601113,0.0155285,-0.336051,0.450969,0.116467,0.00859086,0.481431,5,0.1,22,0.2,0.866325,-4.0462,0.582063,-0.110014,0.0845313,0.00169128,-0.825077,0.634193,0.0126958,0.0173612,1.58105,5,0.1,23,0.2,-4.2688,4.13336,0.661503,0.187278,-0.00342131,-0.00251979,1.40429,-0.0255108,-0.0189543,0.0238511,2.92581,5,0.1,24,0.2,-2.2094,2.80125,0.662208,0.123513,0.117785,-0.00586808,0.926256,0.883579,-0.044018,0.0368656,2.39501,5,0.1,25,0.2,-3.46996,-0.232574,0.685052,-0.0677586,-0.174633,-0.000104308,-0.508189,-1.30974,-0.000745058,0.00741205,2.92579,5,0.1,26,0.2,-4.34368,3.06527,0.622002,0.180089,0.0514984,-0.00115037,1.35088,0.386238,-0.00864267,0.0320294,2.92578,5,0.1,27,0.2,-0.574,-0.421598,0.69397,0.0258446,0.0680648,0.00528544,0.193864,0.510469,0.0396371,0.0252986,0.437619,5,0.1,28,0.2,-3.97674,1.31547,0.569786,0.185126,0.0284523,0.00257045,1.38843,0.213325,0.0192523,0.01668,2.9258,5,0.1,29,0.2,-3.63203,-1.63623,0.625435,0.145829,0.117564,-0.00111312,1.09363,0.881672,-0.00837445,0.0317285,2.9258,5,0.1
0,0.3,-2.69663,3.27096,0.61928,0.319532,0.138554,-0.00342941,1.57632,0.683531,-0.016924,0.0095508,2.87869,5,0.1,1,0.3,0.458048,-0.887798,0.539087,0.234095,-0.174607,0.00281641,1.15486,-0.861399,0.0138916,0.00934426,2.02406,5,0.1,2,0.3,-0.774756,-1.46171,0.564432,0.0646747,0.342803,0.00541508,0.320051,1.69644,0.0267848,0.0104764,2.92579,5,0.1,3,0.3,1.83016,1.28943,0.695506,-0.192104,0.0107743,0.00969153,-0.947699,0.0531524,0.0478104,0.0140332,0.880739,5,0.1,4,0.3,2.19776,-3.3004,0.655124,-0.150769,0.266847,-0.00980385,-0.743732,1.3164,-0.0483617,0.0175015,2.23151,5,0.1,5,0.3,3.76465,-3.60302,0.553619,-0.0182644,0.3484,0.0026904,-0.0903904,1.72409,0.0133067,0.0180978,2.9258,5,0.1,6,0.3,2.50851,3.42525,0.615231,0.123687,-0.102302,-0.00270661,0.392839,-0.504643,-0.0133365,0.0178433,0.755671,5,0.1,7,0.3,0.267866,-3.8096,0.624019,-0.345179,-0.0504151,0.00584917,-1.7082,-0.249505,0.0289418,0.0150412,2.92579,5,0.1,8,0.3,-1.5845,1.58489,0.692393,0.0328073,0.224508,-0.00544945,0.161879,1.10758,-0.026878,0.0137357,1.22225,5,0.1,9,0.3,-0.762474,1.06243,0.629131,0.0822522,-0.188956,-0.00518141,0.405781,-0.932187,-0.0255592,0.0200698,1.00843,5,0.1,10,0.3,-3.61954,2.89382,0.558417,0.216901,-0.0878267,0.00739479,1.07007,-0.433266,0.0364743,0.0173809,1.30068,5,0.1,11,0.3,1.98626,-0.00228624,0.623033,-0.19165,0.291512,-0.00406327,-0.948451,1.44261,-0.0201128,0.013387,2.92579,5,0.1,12,0.3,1.81049,3.93272,0.541643,0.158196,-0.0858549,0.0103787,0.780396,-0.423595,0.0512004,0.00837076,0.771362,5,0.1,13,0.3,-2.43033,-0.697096,0.601481,0.138779,0.0973025,-0.00026403,0.684634,0.480026,-0.00130758,0.0112683,0.681716,5,0.1,14,0.3,-4.1719,-0.518882,0.651909,0.313246,-0.150743,-0.00692504,1.52951,-0.753548,-0.0347085,0.0130181,2.9262,5,0.1,15,0.3,2.0574,-3.9398,0.534709,-0.348862,-0.000249222,0.00445126,-1.72642,-0.00120699,0.0220351,0.00804097,2.92579,5,0.1,16,0.3,-3.58736,-3.14427,0.655989,0.19218,-0.0611119,0.00545299,0.948071,-0.30151,0.0268929,0.00757447,0.96576,5,0.1,17,0.3,3.44384,-1.71878,0.65218,0.000515953,0.348862,-0.00441782,0.0025183,1.72643,-0.0218526,0.0122179,2.92579,5,0.1,18,0.3,4.27336,2.37207,0.697556,-0.151093,-0.2565,-0.0143083,-0.745386,-1.26538,-0.0705943,0.00782763,2.10789,5,0.1,19,0.3,4.36473,-0.927024,0.606433,-0.0913061,0.336733,-0.000553951,-0.451952,1.66639,-0.00275671,0.0159935,2.92579,5,0.1,20,0.3,-3.65274,-2.54326,0.668339,0.0894073,-0.134598,-0.0121553,0.441059,-0.664055,-0.0599734,0.0190775,0.623055,5,0.1,21,0.3,3.93416,2.92356,0.531428,-0.0833467,0.11184,0.0288884,-0.411212,0.551775,0.142518,0.00859086,0.481431,5,0.1,22,0.3,0.850743,-4.03423,0.582303,-0.20466,0.157274,0.0031475,-1.00965,0.775933,0.0155345,0.0173612,1.58105,5,0.1,23,0.3,-4.24227,4.13288,0.661145,0.348791,-0.00635907,-0.00469796,1.72597,-0.0313818,-0.0232607,0.0238511,2.92581,5,0.1,24,0.3,-2.19191,2.81793,0.661377,0.229766,0.219135,-0.0109171,1.13347,1.08111,-0.0538528,0.0368656,2.39501,5,0.1,25,0.3,-3.47956,-0.257321,0.685038,-0.126204,-0.325264,-0.000191014,-0.624552,-1.60964,-0.000935048,0.00741205,2.92579,5,0.1,26,0.3,-4.31816,3.07257,0.621839,0.335448,0.0959191,-0.00214381,1.66008,0.474676,-0.0106134,0.0320294,2.92578,5,0.1,27,0.3,-0.57034,-0.411958,0.694718,0.048082,0.126622,0.00983216,0.237215,0.624662,0.0485033,0.0252986,0.437619,5,0.1,28,0.3,-3.9505,1.3195,0.57015,0.344809,0.0529885,0.00478541,1.70636,0.262201,0.0236742,0.01668,2.9258,5,0.1,29,0.3,-3.61137,-1.61957,0.625277,0.271608,0.218966,-0.00207517,1.3441,1.08358,-0.0102744,0.0317285,2.9258,5,0.1
0,0.4,-2.65694,3.28817,0.618854,0.47124,0.204337,-0.00505745,1.39058,0.60308,-0.014931,0.0149444,2.27765,5,0.1,1,0.4,0.48713,-0.909489,0.539437,0.345237,-0.257507,0.00415444,1.01884,-0.759959,0.012219,0.0125755,1.60145,5,0.1,2,0.4,-0.766715,-1.4191,0.565105,0.0955105,0.506249,0.00799745,0.283003,1.50001,0.023663,0.0217721,2.51246,5,0.1,3,0.4,1.80629,1.29077,0.69671,-0.28331,0.0158906,0.0142917,-0.836134,0.0468493,0.0422001,0.0198914,0.696851,5,0.1,4,0.4,2.17903,-3.26725,0.653906,-0.222349,0.39354,-0.0144586,-0.656128,1.16134,-0.0426471,0.0253888,1.7656,5,0.1,5,0.4,3.76238,-3.5597,0.553953,-0.0269711,0.514513,0.00397265,-0.0798702,1.52457,0.0118017,0.0235482,2.51536,5,0.1,6,0.4,2.52254,3.41254,0.614895,0.154024,-0.150871,-0.00399053,0.213981,-0.445247,-0.0118017,0.0125702,0.679976,5,0.1,7,0.4,0.224952,-3.81587,0.624746,-0.50976,-0.0744522,0.00863671,-1.51036,-0.220537,0.02563,0.0105535,2.51356,5,0.1,8,0.4,-1.58042,1.61278,0.691716,0.0483841,0.331098,-0.0080362,0.142753,0.977159,-0.0237226,0.00865769,0.967055,5,0.1,9,0.4,-0.752255,1.03896,0.628487,0.121304,-0.27867,-0.00764132,0.357956,-0.822365,-0.0225604,0.0141034,0.797877,5,0.1,10,0.4,-3.59259,2.88291,0.559336,0.31988,-0.129521,0.0109047,0.944138,-0.382304,0.0322163,0.0129461,1.02911,5,0.1,11,0.4,1.96244,0.0339556,0.622528,-0.28303,0.430503,-0.0060007,-0.838578,1.27552,-0.017792,0.0145814,2.32706,5,0.1,12,0.4,1.83014,3.92205,0.542932,0.233302,-0.126618,0.0153065,0.688553,-0.373721,0.0451803,0.0128336,0.610311,5,0.1,13,0.4,-2.41308,-0.685008,0.601448,0.204664,0.1435,-0.00038892,0.604033,0.423491,-0.00119209,0.0208793,0.539382,5,0.1,14,0.4,-4.13308,-0.537669,0.651045,0.459886,-0.22361,-0.0102848,1.33967,-0.670969,-0.0309646,0.0148663,2.73048,5,0.1,15,0.4,2.01403,-3.93983,0.535262,-0.515199,-0.000363588,0.0065729,-1.52647,-0.00119209,0.0195205,0.0157392,2.51565,5,0.1,16,0.4,-3.56349,-3.15187,0.656667,0.28342,-0.0901282,0.00804216,0.836492,-0.265956,0.0237226,0.0115111,0.76412,5,0.1,17,0.4,3.4439,-1.67541,0.651631,0.000762939,0.515199,-0.00652373,0.00226498,1.52647,-0.0193417,0.0149048,2.51565,5,0.1,18,0.4,4.25459,2.34021,0.695779,-0.222826,-0.378275,-0.021103,-0.657797,-1.11651,-0.0622571,0.0104736,1.66779,5,0.1,19,0.4,4.35338,-0.885161,0.606364,-0.13485,0.497286,-0.000818074,-0.39959,1.47337,-0.00244379,0.0149089,2.5106,5,0.1,20,0.4,-3.64163,-2.55998,0.666829,0.131851,-0.198501,-0.0179276,0.389218,-0.585914,-0.0528991,0.0105159,0.492964,5,0.1,21,0.4,3.92381,2.93746,0.535017,-0.122917,0.164938,0.0426039,-0.362873,0.486851,0.125736,0.00886695,0.38091,5,0.1,22,0.4,0.825319,-4.01469,0.582694,-0.301827,0.231946,0.00464171,-0.890732,0.6845,0.0137091,0.0177697,1.25094,5,0.1,23,0.4,-4.1989,4.13208,0.660561,0.515091,-0.00939369,-0.00693947,1.52612,-0.0276566,-0.0205338,0.019614,2.51563,5,0.1,24,0.4,-2.16337,2.84515,0.66002,0.338852,0.323176,-0.0161007,0.999928,0.953794,-0.0475049,0.0330908,1.89495,5,0.1,25,0.4,-3.49525,-0.297759,0.685014,-0.186378,-0.48035,-0.000281632,-0.552297,-1.4232,-0.000834465,0.0096188,2.67139,5,0.1,26,0.4,-4.27645,3.08449,0.621572,0.495398,0.141656,-0.0031665,1.46747,0.419617,-0.00938773,0.0334285,2.51037,5,0.1,27,0.4,-0.564366,-0.396228,0.69594,0.0709102,0.186738,0.0145003,0.209272,0.55109,0.0427961,0.0188325,0.51271,5,0.1,28,0.4,-3.90764,1.32609,0.570745,0.509214,0.078252,0.00706613,1.50871,0.231862,0.020951,0.0120397,2.51337,5,0.1,29,0.4,-3.5776,-1.59235,0.625019,0.401109,0.323367,-0.00306517,1.1884,0.958145,-0.00908971,0.0209796,2.51009,5,0.1
0,0.5,-2.60273,3.31167,0.618272,0.612331,0.265524,-0.00657206,1.36203,0.590652,-0.0146218,0.0149444,2.27765,5,0.1,1,0.5,0.526841,-0.939109,0.539915,0.448609,-0.334612,0.00539515,0.99788,-0.744313,0.0119805,0.0125755,1.60145,5,0.1,2,0.5,-0.755709,-1.36091,0.566026,0.124632,0.65611,0.0104331,0.284452,1.42622,0.0238009,0.0217721,2.51246,5,0.1,3,0.5,1.7737,1.2926,0.698354,-0.368144,0.0206446,0.018573,-0.818931,0.0458881,0.0413284,0.0198914,0.696851,5,0.1,4,0.5,2.15346,-3.22199,0.652243,-0.288923,0.511371,-0.018786,-0.642672,1.1375,-0.0417791,0.0253888,1.7656,5,0.1,5,0.5,3.75927,-3.50065,0.554411,-0.0351906,0.66471,0.00518654,-0.0802875,1.41117,0.0118539,0.0235482,2.51536,5,0.1,6,0.5,2.53855,3.39518,0.614436,0.162014,-0.196047,-0.00518784,-0.0313967,-0.436112,-0.0115559,0.0125702,0.679976,5,0.1,7,0.5,0.166398,-3.82445,0.625742,-0.659758,-0.0971481,0.0112732,-1.41981,-0.221699,0.0257455,0.0105535,2.51356,5,0.1,8,0.5,-1.57486,1.65087,0.690792,0.0628676,0.430238,-0.010443,0.139818,0.957035,-0.0232346,0.00865769,0.967055,5,0.1,9,0.5,-0.738303,1.0069,0.627608,0.157623,-0.362107,-0.00993004,0.350606,-0.80546,-0.0220872,0.0141034,0.797877,5,0.1,10,0.5,-3.5558,2.86801,0.56059,0.415669,-0.168308,0.0141728,0.924677,-0.374407,0.031542,0.0129461,1.02911,5,0.1,11,0.5,1.92986,0.0835074,0.621837,-0.36825,0.560128,-0.00780858,-0.823818,1.25309,-0.0174716,0.0145814,2.32706,5,0.1,12,0.5,1.85698,3.90749,0.544693,0.303162,-0.164533,0.0198901,0.674397,-0.366002,0.044249,0.0128336,0.610311,5,0.1,13,0.5,-2.38954,-0.668502,0.601403,0.26595,0.186467,-0.000508688,0.591606,0.41477,-0.00114739,0.0208793,0.539382,5,0.1,14,0.5,-4.08148,-0.563894,0.649788,0.561562,-0.304395,-0.0154574,0.703037,-0.883266,-0.0664406,0.0148663,2.73048,5,0.1,15,0.5,1.9549,-3.93987,0.53602,-0.665416,-0.000484288,0.00858018,-1.4099,-0.00116229,0.0195988,0.0157392,2.51565,5,0.1,16,0.5,-3.53089,-3.16223,0.657592,0.368289,-0.117113,0.0104497,0.819251,-0.260472,0.0232421,0.0115111,0.76412,5,0.1,17,0.5,3.44399,-1.61628,0.650879,0.000996143,0.665416,-0.00851415,0.00229478,1.4099,-0.019446,0.0149048,2.51565,5,0.1,18,0.5,4.22896,2.2967,0.693351,-0.289562,-0.491555,-0.0274198,-0.644207,-1.09351,-0.0609756,0.0104736,1.66779,5,0.1,19,0.5,4.33784,-0.82793,0.606269,-0.175966,0.646783,-0.00106869,-0.401556,1.44254,-0.00244007,0.0149089,2.5106,5,0.1,20,0.5,-3.62647,-2.58281,0.664767,0.17134,-0.257945,-0.0232945,0.381202,-0.573784,-0.0518076,0.0105159,0.492964,5,0.1,21,0.5,3.90967,2.95643,0.539918,-0.159732,0.21433,0.0553611,-0.355363,0.476792,0.123147,0.00886695,0.38091,5,0.1,22,0.5,0.790601,-3.98801,0.583228,-0.392202,0.301394,0.00603236,-0.872415,0.670388,0.0134185,0.0177697,1.25094,5,0.1,23,0.5,-4.13978,4.131,0.659762,0.665303,-0.012245,-0.00905246,1.41007,-0.0278652,-0.0206381,0.019614,2.51563,5,0.1,24,0.5,-2.12439,2.88233,0.658168,0.440307,0.419946,-0.0209206,0.979379,0.934124,-0.0465252,0.0330908,1.89495,5,0.1,25,0.5,-3.51559,-0.352741,0.685043,-0.210847,-0.616253,0.00137594,0.0202209,-1.24298,0.0301525,0.0096188,2.67139,5,0.1,26,0.5,-4.21943,3.10082,0.621207,0.644801,0.184838,-0.00413219,1.44592,0.421807,-0.00942871,0.0334285,2.51037,5,0.1,27,0.5,-0.55621,-0.374592,0.697608,0.0921425,0.247097,0.0188423,0.204962,0.618784,0.041917,0.0188325,0.51271,5,0.1,28,0.5,-3.84914,1.33511,0.57156,0.65919,0.102112,0.00922186,1.4208,0.233062,0.0210591,0.0120397,2.51337,5,0.1,29,0.5,-3.53138,-1.55509,0.624666,0.523401,0.421963,-0.00400012,1.19454,0.963069,-0.00912324,0.0209796,2.51009,5,0.1
0,0.6,-2.53521,3.34096,0.617548,0.731856,0.317353,-0.00785589,0.9799,0.424981,-0.0104904,0.010867,1.70666,5,0.1,1,0.6,0.576315,-0.976011,0.54051,0.536178,-0.399928,0.00644624,0.717849,-0.535429,0.00864267,0.0083674,1.19224,5,0.1,2,0.6,-0.741922,-1.28877,0.56718,0.149843,0.779644,0.0125438,0.209212,0.997007,0.017494,0.00956781,2.31802,5,0.1,3,0.6,1.7331,1.29488,0.700402,-0.440007,0.0246704,0.0221997,-0.589132,0.0330806,0.0297129,0.0140982,0.973971,5,0.1,4,0.6,2.12159,-3.16559,0.650172,-0.345325,0.611186,-0.0224531,-0.462174,0.818372,-0.0300407,0.0133765,1.31446,5,0.1,5,0.6,3.75538,-3.42776,0.554985,-0.0423074,0.785506,0.00623763,-0.0590086,0.960588,0.00870228,0.0160457,2.33361,5,0.1,6,0.6,2.55434,3.37356,0.613864,0.151724,-0.234318,-0.00620186,-0.157714,-0.313759,-0.00834465,0.00995483,0.7209,5,0.1,7,0.6,0.0939368,-3.8352,0.626989,-0.78213,-0.116795,0.0135556,-0.981508,-0.163078,0.0188947,0.0116233,2.32451,5,0.1,8,0.6,-1.56793,1.69832,0.68964,0.0751376,0.514221,-0.0124812,0.100553,0.688434,-0.0167489,0.00921888,0.719944,5,0.1,9,0.6,-0.720919,0.96697,0.626513,0.188389,-0.432789,-0.0118688,0.252247,-0.579447,-0.0158846,0.0105363,0.594002,5,0.1,10,0.6,-3.50996,2.84945,0.562153,0.496805,-0.201166,0.0169411,0.665307,-0.269294,0.0226796,0.0164244,0.766137,5,0.1,11,0.6,1.88922,0.145318,0.620976,-0.440639,0.670239,-0.00934452,-0.594437,0.904195,-0.0125766,0.0169077,1.7341,5,0.1,12,0.6,1.89041,3.88934,0.546887,0.362343,-0.196654,0.0237733,0.485122,-0.263214,0.0318289,0.0141895,0.45436,5,0.1,13,0.6,-2.36021,-0.647938,0.601347,0.317866,0.222866,-0.000609457,0.425577,0.298351,-0.000804663,0.0150751,0.401558,5,0.1,14,0.6,-4.02279,-0.598684,0.647892,0.602627,-0.38958,-0.0225097,0.130415,-0.775129,-0.0700355,0.0169681,2.77517,5,0.1,15,0.6,1.88195,-3.93993,0.536969,-0.785986,-0.000590086,0.0103176,-0.957608,-0.000715256,0.0143647,0.0134336,2.33494,5,0.1,16,0.6,-3.49027,-3.17515,0.658744,0.44018,-0.139976,0.0124887,0.58949,-0.187278,0.0167489,0.0111776,0.598219,5,0.1,17,0.6,3.4441,-1.54333,0.649937,0.00119805,0.785986,-0.0102371,0.00178814,0.957608,-0.0143051,0.0135497,2.33494,5,0.1,18,0.6,4.19703,2.24249,0.690327,-0.346088,-0.587517,-0.0327721,-0.463247,-0.786543,-0.0438392,0.0131858,1.24161,5,0.1,19,0.6,4.31837,-0.756586,0.606151,-0.211561,0.773285,-0.00128448,-0.295162,1.03638,-0.00178814,0.0219658,2.3023,5,0.1,20,0.6,-3.60757,-2.61126,0.662198,0.20479,-0.308293,-0.0278413,0.274301,-0.412822,-0.0372529,0.0116441,0.474285,5,0.1,21,0.6,3.89205,2.98007,0.546023,-0.190914,0.256169,0.0661686,-0.255585,0.342965,0.0885427,0.0122729,0.283571,5,0.1,22,0.6,0.747348,-3.95477,0.583893,-0.468761,0.360221,0.00721067,-0.627577,0.482202,0.00962615,0.0224279,0.931288,5,0.1,23,0.6,-4.06684,4.12965,0.65876,0.785899,-0.0147104,-0.0108808,0.958443,-0.0207424,-0.0151992,0.027748,2.33482,5,0.1,24,0.6,-2.07583,2.92864,0.655861,0.526255,0.501913,-0.0250027,0.704527,0.672102,-0.0334978,0.0427877,1.41074,5,0.1,25,0.6,-3.53592,-0.419935,0.685356,-0.190121,-0.720252,0.00506788,0.35882,-0.801951,0.04071,0.0111971,2.32145,5,0.1,26,0.6,-4.14825,3.12126,0.62075,0.771928,0.222224,-0.00496805,1.04499,0.310302,-0.00691414,0.0412971,2.29915,5,0.1,27,0.6,-0.546048,-0.346929,0.699686,0.110129,0.304067,0.0225201,0.147432,0.493675,0.03016,0.0246242,0.392587,5,0.1,28,0.6,-3.77673,1.3464,0.57258,0.781745,0.122771,0.011088,0.983834,0.171363,0.0154972,0.0141737,2.32348,5,0.1,29,0.6,-3.47348,-1.50841,0.624223,0.629276,0.507319,-0.0048086,0.878453,0.708282,-0.00670552,0.0251156,2.27333,5,0.1
0,0.7,-2.45763,3.37478,0.61671,0.813836,0.358151,-0.00886321,0.635684,0.367656,-0.00908226,0.010867,1.70666,5,0.1,1,0.7,0.63346,-1.01864,0.541197,0.605094,-0.451331,0.00727614,0.62108,-0.463251,0.00747666,0.0083674,1.19224,5,0.1,2,0.7,-0.725878,-1.20687,0.568524,0.170841,0.848338,0.0143005,0.197507,0.398614,0.0165254,0.00956781,2.31802,5,0.1,3,0.7,1.68589,1.29751,0.702769,-0.505456,0.0278454,0.0250525,-0.667758,0.0286102,0.0257082,0.0140982,0.973971,5,0.1,4,0.7,2.08479,-3.10045,0.647779,-0.3897,0.689752,-0.0253376,-0.399917,0.708044,-0.0260025,0.0133765,1.31446,5,0.1,5,0.7,3.75085,-3.34546,0.555653,-0.0482321,0.850372,0.00711121,-0.0557303,0.363752,0.00821799,0.0160457,2.33361,5,0.1,6,0.7,2.56849,3.34843,0.613202,0.129961,-0.268885,-0.00700234,-0.243813,-0.350475,-0.00720844,0.00995483,0.7209,5,0.1,7,0.7,0.0118704,-3.8477,0.62844,-0.849199,-0.133162,0.0154522,-0.383838,-0.153929,0.0178404,0.0116233,2.32451,5,0.1,8,0.7,-1.55992,1.75312,0.68831,0.0847913,0.580313,-0.0140884,0.086993,0.595614,-0.0144802,0.00921888,0.719944,5,0.1,9,0.7,-0.700841,0.920844,0.625248,0.212606,-0.488418,-0.0133937,0.218242,-0.501335,-0.0137389,0.0105363,0.594002,5,0.1,10,0.7,-3.45701,2.82801,0.563959,0.560672,-0.227018,0.0191184,0.575557,-0.232995,0.0196174,0.0164244,0.766137,5,0.1,11,0.7,1.84223,0.216788,0.619979,-0.497769,0.757138,-0.0105537,-0.515528,0.784178,-0.0109114,0.0169077,1.7341,5,0.1,12,0.7,1.92903,3.86839,0.54942,0.408917,-0.221923,0.0268291,0.419736,-0.227734,0.0275336,0.0141895,0.45436,5,0.1,13,0.7,-2.32634,-0.624185,0.601282,0.358722,0.251509,-0.000686385,0.368208,0.258133,-0.000685453,0.0150751,0.401558,5,0.1,14,0.7,-3.96274,-0.641664,0.645197,0.590568,-0.470248,-0.032114,-0.345424,-0.789776,-0.113059,0.0169681,2.77517,5,0.1,15,0.7,1.79963,-3.93999,0.538073,-0.850538,-0.000664592,0.0117594,-0.360891,-0.000715256,0.0135675,0.0134336,2.33494,5,0.1,16,0.7,-3.44388,-3.19007,0.660075,0.481778,-0.157956,0.0140963,0.243992,-0.16205,0.0144914,0.0111776,0.598219,5,0.1,17,0.7,3.44423,-1.461,0.648841,0.00137612,0.850538,-0.0116726,0.00166893,0.360891,-0.0135005,0.0135497,2.33494,5,0.1,18,0.7,4.16014,2.17987,0.686835,-0.390562,-0.663029,-0.0369814,-0.400811,-0.680536,-0.0379421,0.0131858,1.24161,5,0.1,19,0.7,4.29572,-0.675113,0.606014,-0.241188,0.846129,-0.00146376,-0.278682,0.436459,-0.00168011,0.0219658,2.3023,5,0.1,20,0.7,-3.58559,-2.64412,0.659231,0.235567,-0.347923,-0.031418,0.316322,-0.357121,-0.0322387,0.0116441,0.474285,5,0.1,21,0.7,3.87171,3.00737,0.553075,-0.21545,0.289094,0.0746696,-0.221118,0.296712,0.076618,0.0122729,0.283571,5,0.1,22,0.7,0.697388,-3.91638,0.584662,-0.529011,0.406513,0.00813538,-0.542983,0.417203,0.00833347,0.0224279,0.931288,5,0.1,23,0.7,-3.98452,4.12807,0.657595,0.850515,-0.0167891,-0.0124058,0.361338,-0.0195503,-0.0143349,0.027748,2.33482,5,0.1,24,0.7,-2.01974,2.98213,0.653196,0.593894,0.566433,-0.0282183,0.609569,0.581428,-0.0289753,0.0427877,1.41074,5,0.1,25,0.7,-3.5526,-0.495896,0.686126,-0.1389,-0.796964,0.0107911,0.627607,-0.683814,0.0685342,0.0111971,2.32145,5,0.1,26,0.7,-4.06687,3.14506,0.620218,0.845663,0.25337,-0.00566235,0.444517,0.293002,-0.00653788,0.0412971,2.29915,5,0.1,27,0.7,-0.534311,-0.314029,0.702086,0.124283,0.353433,0.0254154,0.127554,0.464896,0.0260919,0.0246242,0.392587,5,0.1,28,0.7,-3.69469,1.35955,0.573767,0.849064,0.139968,0.0126426,0.386149,0.16173,0.0146218,0.0141737,2.32348,5,0.1,29,0.7,-3.4071,-1.45409,0.623709,0.68979,0.578417,-0.0054813,0.36177,0.668839,-0.00632927,0.0251156,2.27333,5,0.1
0,0.8,-2.37378,3.41218,0.615785,0.855982,0.386971,-0.00957549,0.200868,0.193119,-0.00476837,0.0129918,1.23805,5,0.1,1,0.8,0.696651,-1.06577,0.541957,0.65379,-0.487649,0.00786185,0.326127,-0.243247,0.00396371,0.0147291,0.841792,5,0.1,2,0.8,-0.707914,-1.12081,0.570027,0.187103,0.866026,0.0156626,0.118613,0,0.00989437,0.0111492,2.24495,5,0.1,3,0.8,1.63223,1.30041,0.705385,-0.564626,0.0300884,0.027068,-0.478387,0.0150204,0.0135005,0.0243148,0.731379,5,0.1,4,0.8,2.04409,-3.02842,0.645133,-0.421059,0.745267,-0.0273764,-0.210047,0.371814,-0.0136495,0.0196689,0.92809,5,0.1,5,0.8,3.74578,-3.25934,0.556401,-0.0528157,0.866026,0.00778735,-0.033617,0,0.00494719,0.0242621,2.26972,5,0.1,6,0.8,2.58034,3.31991,0.612471,0.108069,-0.299776,-0.0075683,-0.176549,-0.247836,-0.00378489,0.0153115,0.519498,5,0.1,7,0.8,-0.0742127,-3.8617,0.630065,-0.866025,-0.145835,0.0169203,0,-0.0925064,0.0107288,0.0150463,2.25538,5,0.1,8,0.8,-1.55106,1.81372,0.686838,0.0916123,0.627011,-0.015223,0.0457168,0.312746,-0.00762939,0.0160865,0.508318,5,0.1,9,0.8,-0.678638,0.869838,0.623849,0.229716,-0.527723,-0.014472,0.11459,-0.263274,-0.00718236,0.0147851,0.419397,5,0.1,10,0.8,-3.39846,2.8043,0.565955,0.605798,-0.245291,0.020656,0.302196,-0.12219,0.0103116,0.0144547,0.540918,5,0.1,11,0.8,1.79023,0.295892,0.618877,-0.538275,0.818753,-0.0114113,-0.272572,0.414536,-0.00578165,0.0163132,1.22592,5,0.1,12,0.8,1.97173,3.84521,0.552222,0.441825,-0.239778,0.0289872,0.220418,-0.119567,0.0144839,0.0109172,0.320805,5,0.1,13,0.8,-2.28887,-0.597919,0.60121,0.387597,0.271748,-0.000740588,0.193238,0.135541,-0.000357628,0.0190974,0.283522,5,0.1,14,0.8,-3.90601,-0.692336,0.64141,0.538486,-0.53927,-0.0435486,-0.672936,-0.556409,-0.108927,0.0119904,0.873338,5,0.1,15,0.8,1.7135,-3.94006,0.53931,-0.866026,-0.000721216,0.0128761,0,-0.000476837,0.00813603,0.0247083,2.27179,5,0.1,16,0.8,-3.39504,-3.20656,0.661547,0.489563,-0.170666,0.015232,-0.0839233,-0.0849962,0.00762939,0.0357598,0.520611,5,0.1,17,0.8,3.44437,-1.37487,0.647614,0.00151396,0.866026,-0.0127837,0.000953674,0,-0.00813603,0.047833,2.27179,5,0.1,18,0.8,4.11936,2.11063,0.682973,-0.421977,-0.716382,-0.039956,-0.210762,-0.357389,-0.019908,0.0527438,0.876649,5,0.1,19,0.8,4.27036,-0.58914,0.60586,-0.264144,0.866024,-0.00160187,-0.167131,2.98023e-05,-0.000983477,0.0226213,2.21913,5,0.1,20,0.8,-3.56055,-2.68045,0.65595,0.263774,-0.375915,-0.0339448,0.229955,-0.187635,-0.0169277,0.0190385,0.345189,5,0.1,21,0.8,3.84921,3.03756,0.560873,-0.232786,0.312358,0.0806764,-0.11611,0.155687,0.0402629,0.0225874,0.200212,5,0.1,22,0.8,0.642142,-3.87393,0.585511,-0.571583,0.439221,0.0087887,-0.285119,0.218987,0.00435114,0.01877,0.657541,5,0.1,23,0.8,-3.89839,4.12631,0.656291,0.866026,-0.018394,-0.0135869,0,-0.0119209,-0.00858307,0.0249908,2.27152,5,0.1,24,0.8,-1.95772,3.04129,0.650249,0.641689,0.61202,-0.0304893,0.320077,0.305176,-0.015229,0.054771,0.996055,5,0.1,25,0.8,-3.56316,-0.578492,0.687559,-0.0713468,-0.848915,0.0178576,0.693798,-0.3227,0.0688434,0.015028,1.87421,5,0.1,26,0.8,-3.98091,3.1717,0.619623,0.866026,0.277495,-0.00620037,0,0.175953,-0.0039041,0.0760147,2.21377,5,0.1,27,0.8,-0.521332,-0.276602,0.70474,0.134283,0.392181,0.0274599,0.0669658,0.29017,0.0137389,0.0396312,0.284354,5,0.1,28,0.8,-3.60861,1.37426,0.575096,0.866026,0.153282,0.0138462,-0.000119209,0.097096,0.00879169,0.0212561,1.9359,5,0.1,29,0.8,-3.33698,-1.39327,0.623132,0.706404,0.633493,-0.00600368,-0.0115633,0.401795,-0.00375509,0.0358395,2.19034,5,0.1
0,0.9,-2.28757,3.4518,0.614805,0.865005,0.40447,-0.0100076,0.00938773,0.138313,-0.00341982,0.0129918,1.23805,5,0.1,1,0.9,0.763585,-1.11569,0.542762,0.683342,-0.509691,0.00822069,0.233613,-0.174232,0.0028424,0.0147291,0.841792,5,0.1,2,0.9,-0.688587,-1.03421,0.571645,0.19936,0.866026,0.0166861,0.113919,-3.72529e-06,0.00952184,0.0111492,2.24495,5,0.1,3,0.9,1.57332,1.30349,0.708156,-0.613053,0.0314489,0.0282912,-0.44959,0.0107586,0.00967085,0.0243148,0.731379,5,0.1,4,0.9,2.00099,-2.95212,0.64233,-0.440095,0.778958,-0.0286135,-0.150487,0.266314,-0.00978634,0.0196689,0.92809,5,0.1,5,0.9,3.74032,-3.17274,0.557205,-0.0562876,0.866026,0.00829846,-0.0322759,0,0.00474602,0.0242621,2.26972,5,0.1,6,0.9,2.59038,3.28883,0.611696,0.0949107,-0.320328,-0.00791103,-0.0483096,-0.151962,-0.00270456,0.0153115,0.519498,5,0.1,7,0.9,-0.160815,-3.87677,0.631812,-0.866025,-0.155375,0.0180269,-8.9407e-07,-0.0885278,0.0102669,0.0150463,2.25538,5,0.1,8,0.9,-1.54168,1.87792,0.68528,0.0957543,0.655351,-0.0159138,0.0327453,0.224017,-0.00545755,0.0160865,0.508318,5,0.1,9,0.9,-0.65512,0.815809,0.622368,0.2401,-0.551579,-0.0151233,0.0820793,-0.188578,-0.00514463,0.0147851,0.419397,5,0.1,10,0.9,-3.33643,2.77919,0.56807,0.633179,-0.256365,0.0215902,0.216439,-0.0875592,0.0073798,0.0144547,0.540918,5,0.1,11,0.9,1.7351,0.379626,0.617708,-0.563014,0.853088,-0.0119362,-0.1963,0.24588,-0.00416487,0.0163132,1.22592,5,0.1,12,0.9,2.01697,3.82066,0.55519,0.461798,-0.250613,0.0302994,0.157893,-0.085637,0.0103749,0.0109172,0.320805,5,0.1,13,0.9,-2.24919,-0.570098,0.601134,0.405109,0.28403,-0.000772811,0.138417,0.0970885,-0.00025332,0.0190974,0.283522,5,0.1,14,0.9,-3.85688,-0.747884,0.636561,0.432941,-0.560961,-0.0528791,-1.35344,0.087712,-0.0757761,0.0119904,0.873338,5,0.1,15,0.9,1.62689,-3.94013,0.54064,-0.866026,-0.00077039,0.0137173,0,-0.000447035,0.00782311,0.0247083,2.27179,5,0.1,16,0.9,-3.34727,-3.22403,0.663107,0.459092,-0.17837,0.0159232,-0.486985,-0.0609159,0.00546873,0.0357598,0.520611,5,0.1,17,0.9,3.44453,-1.28827,0.646293,0.00161231,0.866026,-0.0136228,0.00089407,0,-0.00778586,0.047833,2.27179,5,0.1,18,0.9,4.07615,2.03729,0.678882,-0.441073,-0.748767,-0.0417604,-0.150919,-0.255994,-0.0142716,0.0527438,0.876649,5,0.1,19,0.9,4.24308,-0.502537,0.605695,-0.281428,0.866025,-0.00170404,-0.160754,1.49012e-07,-0.000949949,0.0226213,2.21913,5,0.1,20,0.9,-3.53299,-2.71894,0.652474,0.287151,-0.392914,-0.0354787,0.218183,-0.134349,-0.0121221,0.0190385,0.345189,5,0.1,21,0.9,3.82537,3.06954,0.569133,-0.243307,0.326465,0.0843246,-0.0831634,0.111505,0.0288449,0.0225874,0.200212,5,0.1,22,0.9,0.583624,-3.82896,0.586411,-0.59742,0.459064,0.00918321,-0.204239,0.156865,0.00312179,0.01877,0.657541,5,0.1,23,0.9,-3.81179,4.12441,0.654887,0.866026,-0.0196181,-0.0144735,0,-0.0113547,-0.00823289,0.0249908,2.27152,5,0.1,24,0.9,-1.89203,3.10395,0.647128,0.670694,0.639674,-0.0318689,0.229292,0.218585,-0.0109002,0.054771,0.996055,5,0.1,25,0.9,-3.567,-0.664398,0.68971,-0.0073418,-0.864589,0.0252669,0.572234,-0.0427179,0.0744723,0.015028,1.87421,5,0.1,26,0.9,-3.89431,3.20037,0.618983,0.866026,0.295679,-0.00660438,0,0.169039,-0.00376254,0.0760147,2.21377,5,0.1,27,0.9,-0.507584,-0.235963,0.707551,0.140352,0.419709,0.0287043,0.0479668,0.237779,0.00983477,0.0396312,0.284354,5,0.1,28,0.9,-3.52274,1.39007,0.576524,0.844695,0.162515,0.0146818,-0.406086,0.0790209,0.00714883,0.0212561,1.9359,5,0.1,29,0.9,-3.26717,-1.32778,0.622513,0.685158,0.676408,-0.00638487,-0.294417,0.410736,-0.00348315,0.0358395,2.19034,5,0.1
0,1,-2.20123,3.49273,0.613792,0.859731,0.411552,-0.010182,-0.125647,-0.00882149,0.000208616,0.0160883,0.888068,5,0.1,1,1,0.832726,-1.16726,0.543594,0.695309,-0.518614,0.008367,-0.0150502,0.0111461,-0.000178814,0.0112134,0.572452,5,0.1,2,1,-0.668174,-0.94761,0.573353,0.207756,0.866026,0.0173897,0.0453293,0,0.00375509,0.0141837,1.20207,5,0.1,3,1,1.51009,1.30668,0.711018,-0.647691,0.0319988,0.0287861,-0.215113,-0.000655651,-0.000596046,0.0297242,1.17023,5,0.1,4,1,1.95646,-2.8733,0.639435,-0.447807,0.792599,-0.0291139,0.00965595,-0.0170469,0.000596046,0.0241716,0.631141,5,0.1,5,1,3.73456,-3.08613,0.558055,-0.0586629,0.866026,0.00864863,-0.0129938,0,0.00187755,0.0249973,2.26949,5,0.1,6,1,2.6,3.25627,0.610896,0.101191,-0.328362,-0.00804961,0.163198,-0.00178814,0.000178814,0.015822,0.42368,5,0.1,7,1,-0.247418,-3.89268,0.633658,-0.866025,-0.161886,0.0187814,-1.43051e-05,-0.0349283,0.00405312,0.0162381,2.25377,5,0.1,8,1,-1.532,1.94423,0.683669,0.0974327,0.666824,-0.0161931,-0.00214577,-0.0144839,0.000327826,0.0115673,0.345675,5,0.1,9,1,-0.630827,0.760001,0.620838,0.244305,-0.561239,-0.0153869,-0.00527501,0.0121295,0.000357628,0.0156177,0.285205,5,0.1,10,1,-3.27237,2.75325,0.570255,0.644261,-0.260848,0.0219688,-0.0139475,0.00572205,-0.000476837,0.0158447,0.367839,5,0.1,11,1,1.67812,0.465721,0.6165,-0.573227,0.864014,-0.0121534,0.00917912,-0.0402331,0.000208616,0.0252923,0.838559,5,0.1,12,1,2.06369,3.79531,0.558256,0.469887,-0.255001,0.0308305,-0.0101328,0.00560284,-0.000655651,0.0168961,0.21816,5,0.1,13,1,-2.2082,-0.54136,0.601056,0.412202,0.289004,-0.000785291,-0.00905991,-0.00625849,2.98023e-05,0.0113566,0.19281,5,0.1,14,1,-3.8209,-0.802719,0.630961,0.282902,-0.528289,-0.0584111,-1.58095,0.535041,-0.033766,0.018505,0.478467,5,0.1,15,1,1.54029,-3.94021,0.542044,-0.866026,-0.000804663,0.0142932,5.96046e-05,-0.000238419,0.00312924,0.0153829,2.27178,5,0.1,16,1,-3.30421,-3.24208,0.664718,0.398982,-0.18149,0.0162035,-0.685573,0.00405312,-0.000357628,0.0171667,0.463677,5,0.1,17,1,3.4447,-1.20167,0.644898,0.00168085,0.866026,-0.0141963,0.000357628,-5.96046e-05,-0.00306964,0.0249041,2.27178,5,0.1,18,1,4.03153,1.96152,0.674657,-0.448799,-0.761881,-0.0424907,0.00941753,0.0165105,0.000923872,0.019009,0.596143,5,0.1,19,1,4.21426,-0.415935,0.60552,-0.293279,0.866025,-0.00177324,-0.0638962,1.43051e-05,-0.00038743,0.0239943,2.21356,5,0.1,20,1,-3.50334,-2.75869,0.648885,0.304127,-0.399798,-0.0360996,0.108123,0.00870228,0.00077486,0.0191118,0.240908,5,0.1,21,1,3.80076,3.10257,0.577665,-0.247568,0.332177,0.0858024,0.00548363,-0.00727177,-0.00184774,0.0133918,0.136151,5,0.1,22,1,0.523177,-3.78251,0.58734,-0.607882,0.467098,0.00934452,0.0131273,-0.0101328,-0.000238419,0.0325003,0.447156,5,0.1,23,1,-3.72519,4.1224,0.653406,0.866026,-0.0204563,-0.0150815,0,-0.00452995,-0.00321865,0.0540037,2.27139,5,0.1,24,1,-1.82416,3.16867,0.643903,0.68244,0.650865,-0.0324279,-0.0147223,-0.0141859,0.000715256,0.0731129,0.67736,5,0.1,25,1,-3.56516,-0.750895,0.692586,0.0409186,-0.86405,0.0319332,0.385404,0.0395179,0.0554919,0.0116972,1.48234,5,0.1,26,1,-3.80771,3.23064,0.618306,0.866026,0.308144,-0.00688136,0,0.067234,-0.00149012,0.0688693,2.20768,5,0.1,27,1,-0.493383,-0.193041,0.710456,0.142808,0.435958,0.0292078,-0.00309944,0.0720322,-0.000596046,0.0251698,0.327283,5,0.1,28,1,-3.44083,1.40663,0.57802,0.788522,0.167659,0.015147,-0.700474,0.0180602,0.00160933,0.0147625,1.72887,5,0.1,29,1,-3.2,-1.25838,0.62186,0.660092,0.707874,-0.006634,-0.200391,0.186682,-0.0012815,0.0351455,2.1644,5,0.1
0,1.1,-2.1157,3.53382,0.612775,0.851614,0.409752,-0.0101384,-0.078842,-0.0422299,0.00103563,0.0160883,0.888068,5,0.1,1,1.1,0.902152,-1.21905,0.544429,0.692258,-0.516345,0.0083304,-0.0713989,0.0532046,-0.000853091,0.0112134,0.572452,5,0.1,2,1.1,-0.647282,-0.861014,0.575111,0.208886,0.865678,0.0177296,-0.0254065,-0.0138916,0.00226498,0.0141837,1.20207,5,0.1,3,1.1,1.44528,1.30987,0.713893,-0.639072,0.0318609,0.028662,0.353418,-0.00326335,-0.00293553,0.0297242,1.17023,5,0.1,4,1.1,1.91174,-2.79416,0.636528,-0.445846,0.789129,-0.0289893,0.0459254,-0.0813454,0.00296533,0.0241716,0.631141,5,0.1,5,1.1,3.72862,-2.99953,0.558931,-0.0602417,0.866026,0.00887839,-0.0150502,0,0.0021942,0.0249973,2.26949,5,0.1,6,1.1,2.6114,3.22348,0.610092,0.130418,-0.326483,-0.00801375,0.383139,0.0487119,0.00083074,0.015822,0.42368,5,0.1,7,1.1,-0.33402,-3.90907,0.63556,-0.866025,-0.166091,0.0192693,1.78814e-06,-0.0396371,0.00460073,0.0162381,2.25377,5,0.1,8,1.1,-1.52227,2.01081,0.682052,0.0970021,0.663894,-0.0161234,-0.0100285,-0.0685081,0.00165403,0.0115673,0.345675,5,0.1,9,1.1,-0.606433,0.703961,0.619302,0.243234,-0.558778,-0.0153176,-0.0250787,0.0576265,0.0015907,0.0156177,0.285205,5,0.1,10,1.1,-3.20804,2.7272,0.572448,0.641432,-0.259698,0.0218721,-0.0662059,0.0268072,-0.00225753,0.0158447,0.367839,5,0.1,11,1.1,1.62087,0.551895,0.615285,-0.570762,0.858397,-0.0121389,0.0605807,-0.103757,0.000603497,0.0252923,0.838559,5,0.1,12,1.1,2.11061,3.76984,0.561334,0.467829,-0.253876,0.0306959,-0.0482351,0.026226,-0.00316277,0.0168961,0.21816,5,0.1,13,1.1,-2.16705,-0.512503,0.600978,0.410382,0.287735,-0.000780728,-0.0424087,-0.0296775,9.31323e-05,0.0113566,0.19281,5,0.1,14,1.1,-3.80067,-0.852488,0.624874,0.121251,-0.463752,-0.0638902,-1.60474,0.736143,-0.0675246,0.018505,0.478467,5,0.1,15,1.1,1.45369,-3.94029,0.543492,-0.866025,-0.000831857,0.014675,-1.49012e-05,-0.00025332,0.00365078,0.0153829,2.27178,5,0.1,16,1.1,-3.26801,-3.2602,0.666336,0.323419,-0.180686,0.016132,-0.78027,0.0186861,-0.00166893,0.0171667,0.463677,5,0.1,17,1.1,3.44487,-1.11506,0.64346,0.00172369,0.866025,-0.0145683,0.000402331,1.49012e-05,-0.00352412,0.0249041,2.27178,5,0.1,18,1.1,3.98671,1.88545,0.670414,-0.446852,-0.758537,-0.042304,0.0459552,0.078246,0.00435859,0.019009,0.596143,5,0.1,19,1.1,4.18455,-0.329332,0.605341,-0.301063,0.866025,-0.00182036,-0.0742078,-1.78814e-06,-0.000447035,0.0239943,2.21356,5,0.1,20,1.1,-3.47238,-2.79861,0.64528,0.314512,-0.398038,-0.0359416,0.0842065,0.0411272,0.00370294,0.0191118,0.240908,5,0.1,21,1.1,3.77604,3.13574,0.586232,-0.246472,0.330712,0.0854268,0.0255108,-0.0341684,-0.00880286,0.0133918,0.136151,5,0.1,22,1.1,0.46248,-3.73587,0.588273,-0.605217,0.465046,0.00930084,0.0624022,-0.0479668,-0.000979751,0.0325003,0.447156,5,0.1,23,1.1,-3.63859,4.12031,0.651869,0.866026,-0.021378,-0.0157517,0,-0.0118911,-0.0086762,0.0540037,2.27139,5,0.1,24,1.1,-1.75602,3.23365,0.640666,0.679451,0.648,-0.0322842,-0.0700355,-0.0669062,0.00334159,0.0731129,0.67736,5,0.1,25,1.1,-3.56018,-0.837281,0.69596,0.0495479,-0.864428,0.0346656,-0.160515,-0.0069961,0.0022836,0.0116972,1.48234,5,0.1,26,1.1,-3.72111,3.26186,0.617609,0.866026,0.316305,-0.00706287,0,0.0776052,-0.00173226,0.0688693,2.20768,5,0.1,27,1.1,-0.479124,-0.148951,0.713372,0.142181,0.44645,0.0290823,-0.0146721,0.10976,-0.00297651,0.0251698,0.327283,5,0.1,28,1.1,-3.36623,1.42348,0.579543,0.697964,0.16911,0.0152761,-1.03195,0.00410527,0.000350177,0.0147625,1.72887,5,0.1,29,1.1,-3.13419,-1.18653,0.621188,0.662462,0.729135,-0.00680014,0.176594,0.196882,-0.00163168,0.0351455,2.1644,5,0.1
0,1.2,-2.03113,3.57443,0.611771,0.836828,0.400615,-0.00991225,-0.246167,-0.150561,0.00369549,0.0129562,0.621801,5,0.1,1,1.2,0.970759,-1.27022,0.545255,0.676812,-0.504827,0.00814348,-0.254214,0.189602,-0.00303984,0.0120611,0.380651,5,0.1,2,1.2,-0.626655,-0.774627,0.576887,0.202303,0.860469,0.017713,-0.107288,-0.111133,-0.00306964,0.0157017,0.654208,5,0.1,3,1.2,1.38384,1.31303,0.716733,-0.583363,0.0311494,0.0280231,0.731289,-0.0116229,-0.0104904,0.0182966,1.09978,5,0.1,4,1.2,1.86756,-2.71595,0.633654,-0.435904,0.771528,-0.0283435,0.163734,-0.289798,0.0106096,0.0142888,0.419675,5,0.1,5,1.2,3.72254,-2.91293,0.559827,-0.0610769,0.866026,0.0090003,0.000715256,0,-0.000119209,0.0207439,2.26943,5,0.1,6,1.2,2.62646,3.19123,0.609298,0.171101,-0.317097,-0.00783503,0.401855,0.144601,0.00295043,0.0111746,0.328927,5,0.1,7,1.2,-0.420623,-3.92582,0.637504,-0.866025,-0.168186,0.0195131,-1.43051e-05,0.00405312,-0.000476837,0.00977063,2.25358,5,0.1,8,1.2,-1.51265,2.0766,0.680454,0.094837,0.649077,-0.0157639,-0.0357032,-0.243783,0.00593066,0.00726988,0.229858,5,0.1,9,1.2,-0.582327,0.648583,0.617784,0.237806,-0.546311,-0.0149757,-0.0893176,0.205249,0.00566244,0.00974496,0.495353,5,0.1,10,1.2,-3.14447,2.70147,0.574616,0.627118,-0.253898,0.0213832,-0.235677,0.0952482,-0.00801682,0.0106293,0.244591,5,0.1,11,1.2,1.56432,0.636901,0.614078,-0.557724,0.838013,-0.0119448,0.213623,-0.324816,0.00360608,0.01026,0.717854,5,0.1,12,1.2,2.15697,3.74468,0.564376,0.457394,-0.248206,0.0300109,-0.171781,0.0932217,-0.0112653,0.00976505,0.145066,5,0.1,13,1.2,-2.12637,-0.483987,0.600901,0.401223,0.281315,-0.000761449,-0.1508,-0.105679,0.000268221,0.0105545,0.128215,5,0.1,14,1.2,-3.79629,-0.894986,0.618148,-0.0298738,-0.38465,-0.0704765,-1.3833,0.829577,-0.0580549,0.0117365,4.00291,5,0.1,15,1.2,1.36709,-3.94038,0.544973,-0.866026,-0.000846386,0.0148773,0,0,-0.000208616,0.00949048,2.27178,5,0.1,16,1.2,-3.23944,-3.27811,0.667935,0.249988,-0.17665,0.0157714,-0.66328,0.0663996,-0.00593066,0.00924336,0.420628,5,0.1,17,1.2,3.44504,-1.02846,0.641991,0.00174642,0.866024,-0.0147581,0,2.98023e-05,0.000268221,0.00944262,2.27178,5,0.1,18,1.2,3.94243,1.81028,0.666222,-0.43689,-0.74161,-0.0413597,0.164032,0.278592,0.0154972,0.00783304,0.396394,5,0.1,19,1.2,4.15418,-0.24273,0.605157,-0.305152,0.866025,-0.00184476,0.00452995,0,2.98023e-05,0.0153547,2.21233,5,0.1,20,1.2,-3.44065,-2.83806,0.641718,0.318396,-0.389147,-0.0351399,-0.0170469,0.146151,0.0132024,0.0129998,0.163263,5,0.1,21,1.2,3.75161,3.16851,0.594698,-0.240964,0.323331,0.083521,0.0905991,-0.121593,-0.031352,0.00925894,0.153643,5,0.1,22,1.2,0.4025,-3.68979,0.589195,-0.591715,0.454664,0.00909269,0.22225,-0.170708,-0.00345707,0.0139296,0.297337,5,0.1,23,1.2,-3.55198,4.11811,0.650251,0.866026,-0.022471,-0.0165537,0,-0.00858307,-0.00628829,0.0206856,2.2713,5,0.1,24,1.2,-1.68869,3.29787,0.637466,0.664294,0.633538,-0.0315636,-0.249505,-0.23818,0.0118911,0.03817,0.450414,5,0.1,25,1.2,-3.55658,-0.923575,0.699372,0.0182211,-0.858945,0.0329718,-0.424147,0.141591,-0.0334978,0.0120305,1.11534,5,0.1,26,1.2,-3.6345,3.29377,0.616897,0.866026,0.320554,-0.00715852,0,-0.00548363,0.000149012,0.0331583,2.20646,5,0.1,27,1.2,-0.465033,-0.103883,0.716255,0.139008,0.453136,0.0284344,-0.0522435,0.00426173,-0.010699,0.0211929,0.235572,5,0.1,28,1.2,-3.30165,1.44034,0.581066,0.594467,0.167337,0.0151157,-0.99349,-0.0442266,-0.00405312,0.00846279,1.53718,5,0.1,29,1.2,-3.06691,-1.1129,0.620502,0.682998,0.7402,-0.00689179,0.181198,-0.00447035,8.9407e-05,0.0183522,2.09487,5,0.1
0,1.3,-1.94867,3.61383,0.610795,0.811847,0.38803,-0.0095997,-0.280045,-0.118718,0.00298023,0.0129562,0.621801,5,0.1,1,1.3,1.0372,-1.31978,0.546054,0.651682,-0.486084,0.00784267,-0.269432,0.200965,-0.00323355,0.0120611,0.380651,5,0.1,2,1.3,-0.606996,-0.689043,0.578644,0.19045,0.85119,0.0173984,-0.132348,-0.111282,-0.00385195,0.0157017,0.654208,5,0.1,3,1.3,1.32978,1.31609,0.719484,-0.492924,0.0299985,0.0269852,1.02878,-0.0123605,-0.0111349,0.0182966,1.09978,5,0.1,4,1.3,1.82477,-2.64022,0.630872,-0.419719,0.74288,-0.027294,0.173517,-0.307158,0.0112616,0.0142888,0.419675,5,0.1,5,1.3,3.71641,-2.82633,0.560729,-0.061442,0.866026,0.0090532,-0.00450015,0,0.000655651,0.0207439,2.26943,5,0.1,6,1.3,2.64574,3.16024,0.608529,0.215293,-0.302275,-0.00754325,0.452906,0.15974,0.00312552,0.0111746,0.328927,5,0.1,7,1.3,-0.507225,-3.94267,0.639458,-0.866025,-0.168863,0.019591,-1.78814e-06,-0.00819564,0.000942498,0.00977063,2.25358,5,0.1,8,1.3,-1.50334,2.14032,0.678907,0.0913091,0.624977,-0.0151775,-0.0378042,-0.258386,0.00629202,0.00726988,0.229858,5,0.1,9,1.3,-0.55908,0.595051,0.616277,0.226224,-0.523313,-0.0154675,-0.143591,0.265654,-0.0126995,0.00974496,0.495353,5,0.1,10,1.3,-3.08291,2.67654,0.576715,0.603821,-0.24448,0.0205901,-0.249773,0.101,-0.00850484,0.0106293,0.244591,5,0.1,11,1.3,1.50962,0.718663,0.612861,-0.535771,0.79316,-0.0127448,0.240788,-0.569664,-0.0166371,0.01026,0.717854,5,0.1,12,1.3,2.20187,3.72032,0.567322,0.440412,-0.23899,0.028897,-0.182062,0.0988245,-0.011947,0.00976505,0.145066,5,0.1,13,1.3,-2.08699,-0.456372,0.600826,0.386318,0.270869,-0.000734534,-0.15977,-0.111997,0.000294298,0.0105545,0.128215,5,0.1,14,1.3,-3.80385,-0.929431,0.61087,-0.100803,-0.305588,-0.0744627,-0.139236,0.74983,-0.0208654,0.0117365,4.00291,5,0.1,15,1.3,1.28048,-3.94046,0.546464,-0.866026,-0.000851974,0.0149635,0,-7.45058e-05,0.00107661,0.00949048,2.27178,5,0.1,16,1.3,-3.21751,-3.29545,0.669483,0.192288,-0.170088,0.0151854,-0.45003,0.0703186,-0.00628084,0.00924336,0.420628,5,0.1,17,1.3,3.44521,-0.941858,0.640512,0.00175722,0.866026,-0.0148309,0.00013411,0,-0.000886619,0.00944262,2.27178,5,0.1,18,1.3,3.89954,1.73748,0.662162,-0.42067,-0.71407,-0.0398273,0.173926,0.295259,0.016436,0.00783304,0.396394,5,0.1,19,1.3,4.1236,-0.156127,0.604972,-0.306827,0.866025,-0.00185464,-0.0205636,1.19209e-06,-0.000119209,0.0153547,2.21233,5,0.1,20,1.3,-3.4089,-2.87626,0.638269,0.316483,-0.374696,-0.0338349,-0.0336319,0.154942,0.0139922,0.0129998,0.163263,5,0.1,21,1.3,3.72782,3.20044,0.602946,-0.236038,0.316719,0.0818177,0.0245124,-0.0329167,-0.00846758,0.00925894,0.153643,5,0.1,22,1.3,0.344415,-3.64515,0.590087,-0.569744,0.437787,0.0087522,0.235554,-0.18096,-0.00363588,0.0139296,0.297337,5,0.1,23,1.3,-3.46538,4.11581,0.648556,0.866026,-0.0236243,-0.0174013,0,-0.0125766,-0.0092797,0.0206856,2.2713,5,0.1,24,1.3,-1.62348,3.36006,0.634368,0.639629,0.609995,-0.0303888,-0.264443,-0.252366,0.0125878,0.03817,0.450414,5,0.1,25,1.3,-3.5573,-1.00894,0.702461,-0.0360075,-0.849092,0.0284703,-0.621274,0.0967383,-0.0542812,0.0120305,1.11534,5,0.1,26,1.3,-3.5479,3.32589,0.61618,0.866026,0.322195,-0.00719316,0,0.0200868,-0.000432134,0.0331583,2.20646,5,0.1,27,1.3,-0.451378,-0.0585252,0.71905,0.134123,0.453753,0.0274832,-0.0504013,-0.0116156,-0.00944361,0.0211929,0.235572,5,0.1,28,1.3,-3.24705,1.45686,0.582557,0.501317,0.162912,0.0147115,-0.775501,-0.049904,-0.00454113,0.00846279,1.53718,5,0.1,29,1.3,-2.9972,-1.0387,0.619811,0.714677,0.744657,-0.00693565,0.387594,0.0515915,-0.000562519,0.0183522,2.09487,5,0.1
0,1.4,-1.86912,3.65198,0.609852,0.776407,0.3739,-0.00924468,-0.446141,-0.176191,0.00444055,0.0089788,0.435812,5,0.1,1,1.4,1.10085,-1.36726,0.54682,0.619429,-0.462025,0.00745505,-0.389397,0.290453,-0.00467896,0.00717984,0.250549,5,0.1,2,1.4,-0.588671,-0.604726,0.580359,0.175439,0.832024,0.0168368,-0.169218,-0.297099,-0.00777841,0.0114519,0.330469,5,0.1,3,1.4,1.2858,1.31902,0.72212,-0.386012,0.0285149,0.0256509,1.07402,-0.0178218,-0.0161231,0.0168123,2.15995,5,0.1,4,1.4,1.78377,-2.56765,0.628206,-0.398949,0.706112,-0.0259444,0.250757,-0.443935,0.0162721,0.0126263,0.276237,5,0.1,5,1.4,3.71026,-2.73972,0.561635,-0.0613749,0.866026,0.00904351,0.00834465,0,-0.0012517,0.0222046,2.26947,5,0.1,6,1.4,2.66942,3.13089,0.607792,0.256675,-0.283849,-0.00717044,0.353932,0.213981,0.00452995,0.00913003,0.245875,5,0.1,7,1.4,-0.593828,-3.95955,0.641416,-0.866026,-0.168234,0.0195175,0,0.0274181,-0.00315905,0.00918986,2.2542,5,0.1,8,1.4,-1.49443,2.20137,0.677425,0.0867873,0.594044,-0.0144258,-0.0545979,-0.373363,0.00911951,0.0160092,0.151295,5,0.1,9,1.4,-0.537273,0.54422,0.614655,0.208946,-0.491428,-0.0170231,-0.20206,0.378609,-0.0162721,0.0170279,0.468326,5,0.1,10,1.4,-3.02393,2.65266,0.578726,0.573933,-0.232387,0.0195712,-0.361085,0.146031,-0.0122786,0.0112134,0.277438,5,0.1,11,1.4,1.4574,0.794749,0.61149,-0.507039,0.724839,-0.0147492,0.3438,-0.791788,-0.0211895,0.0124887,0.562138,5,0.1,12,1.4,2.24489,3.69697,0.570145,0.418615,-0.227165,0.0274658,-0.263095,0.142813,-0.0172257,0.00827954,0.693671,5,0.1,13,1.4,-2.04925,-0.429914,0.600754,0.367194,0.257464,-0.000698864,-0.230789,-0.161901,0.000417233,0.00992291,0.143735,5,0.1,14,1.4,-3.81329,-0.956386,0.603386,-0.0765204,-0.234996,-0.0745505,0.540853,0.660688,0.0192523,0.0188117,3.43593,5,0.1,15,1.4,1.19388,-3.94055,0.547962,-0.866026,-0.000852346,0.0149459,0,0.000119209,-0.00202656,0.00985911,2.27178,5,0.1,16,1.4,-3.2,-3.31206,0.670966,0.162971,-0.161672,0.0144333,-0.146866,0.101566,-0.00905991,0.0101488,0.354094,5,0.1,17,1.4,3.44539,-0.855256,0.639028,0.00175238,0.866026,-0.0147939,-0.000238419,0,0.00220537,0.0151409,2.27178,5,0.1,18,1.4,3.85845,1.66773,0.658271,-0.399846,-0.67873,-0.0378579,0.251412,0.426769,0.0237525,0.0105014,0.260907,5,0.1,19,1.4,4.09289,-0.0695247,0.604786,-0.306296,0.866026,-0.00185072,0.0433922,-5.96046e-06,0.000238419,0.017021,2.2135,5,0.1,20,1.4,-3.37753,-2.91286,0.634964,0.309592,-0.35615,-0.0321597,-0.112295,0.223994,0.020206,0.00909274,0.191374,5,0.1,21,1.4,3.70434,3.23195,0.611085,-0.233203,0.312918,0.0808388,0.0441074,-0.0593662,-0.0153184,0.00914118,0.0899479,5,0.1,22,1.4,0.288763,-3.60239,0.590942,-0.541548,0.416124,0.00831783,0.340521,-0.261545,-0.00524521,0.0136376,0.19571,5,0.1,23,1.4,-3.37878,4.11339,0.646774,0.866026,-0.0246644,-0.0181705,0,-0.00691414,-0.005126,0.0221488,2.27122,5,0.1,24,1.4,-1.561,3.41965,0.6314,0.607979,0.579798,-0.0288814,-0.382364,-0.364661,0.0181496,0.0130141,0.565423,5,0.1,25,1.4,-3.56407,-1.09316,0.705018,-0.0991583,-0.832608,0.0225216,-0.61214,0.261486,-0.0628829,0.014598,0.825526,5,0.1,26,1.4,-3.4613,3.35813,0.61546,0.866026,0.321478,-0.0071764,0,-0.0474453,0.00104308,0.0586038,2.20799,5,0.1,27,1.4,-0.438248,-0.0133656,0.721745,0.1281,0.447514,0.0263572,-0.0733882,-0.126455,-0.0138879,0.0318171,0.191976,5,0.1,28,1.4,-3.2,1.47285,0.584002,0.447476,0.156417,0.0141218,-0.314355,-0.0836849,-0.00756979,0.0301988,1.29227,5,0.1,29,1.4,-2.92389,-0.964167,0.619117,0.749338,0.74338,-0.006935,0.258684,-0.106573,0.000864267,0.0280223,2.04235,5,0.1
0,1.5,-1.79372,3.68862,0.608947,0.731025,0.359669,-0.00887671,-0.478201,-0.126079,0.00333413,0.0089788,0.435812,5,0.1,1,1.5,1.16092,-1.41206,0.547543,0.582284,-0.434319,0.00700848,-0.371084,0.276804,-0.00446662,0.00717984,0.250549,5,0.1,2,1.5,-0.571806,-0.523073,0.582005,0.163193,0.799879,0.0160872,-0.0880435,-0.365956,-0.00773743,0.0114519,0.330469,5,0.1,3,1.5,1.25268,1.32178,0.724608,-0.276907,0.0268126,0.0241126,1.0379,-0.0170246,-0.0153668,0.0168123,2.15995,5,0.1,4,1.5,1.74508,-2.49918,0.62569,-0.375029,0.663766,-0.0243917,0.23897,-0.423074,0.0155196,0.0126263,0.276237,5,0.1,5,1.5,3.70415,-2.65312,0.562537,-0.0610888,0.866026,0.00899993,0.000923872,0,-0.000149012,0.0222046,2.26947,5,0.1,6,1.5,2.69688,3.10355,0.607097,0.292166,-0.263216,-0.0067384,0.333443,0.205487,0.00431016,0.00913003,0.245875,5,0.1,7,1.5,-0.68043,-3.97629,0.643359,-0.866026,-0.16683,0.0193567,3.72529e-06,0.00983477,-0.00112876,0.00918986,2.2542,5,0.1,8,1.5,-1.48601,2.25898,0.676026,0.0815799,0.558427,-0.0135563,-0.0520125,-0.355855,0.00867993,0.0160092,0.151295,5,0.1,9,1.5,-0.517634,0.497334,0.612751,0.181723,-0.443029,-0.0220248,-0.3291,0.574505,-0.0750199,0.0170279,0.468326,5,0.1,10,1.5,-2.96812,2.63012,0.580624,0.543937,-0.218456,0.0183994,-0.265017,0.139177,-0.0117123,0.0112134,0.277438,5,0.1,11,1.5,1.40839,0.863055,0.609862,-0.472898,0.63932,-0.018158,0.349872,-0.909589,-0.0428185,0.0124887,0.562138,5,0.1,12,1.5,2.28612,3.67495,0.572809,0.411298,-0.213543,0.0258219,0.0653267,0.136107,-0.0164323,0.00827954,0.693671,5,0.1,13,1.5,-2.01345,-0.404811,0.600686,0.350647,0.245853,-0.000668596,-0.122957,-0.0862796,0.000227243,0.00992291,0.143735,5,0.1,14,1.5,-3.81654,-0.977398,0.596119,0.0252657,-0.192355,-0.0699409,1.37466,0.232823,0.0695027,0.0188117,3.43593,5,0.1,15,1.5,1.10728,-3.94063,0.549452,-0.866026,-0.000847876,0.0148768,0,0,-0.000216067,0.00985911,2.27178,5,0.1,16,1.5,-3.18385,-3.32774,0.672366,0.165002,-0.151984,0.0135688,0.148192,0.096783,-0.00863522,0.0101488,0.354094,5,0.1,17,1.5,3.44557,-0.768653,0.637555,0.00174269,0.866026,-0.0146978,-5.96046e-05,-3.72529e-06,0.000551343,0.0151409,2.27178,5,0.1,18,1.5,3.81967,1.60191,0.6546,-0.375862,-0.638022,-0.0355915,0.239626,0.406675,0.0226535,0.0105014,0.260907,5,0.1,19,1.5,4.06237,0.0170778,0.604602,-0.304595,0.866025,-0.00184216,0.00801682,-1.49012e-07,3.72529e-05,0.017021,2.2135,5,0.1,20,1.5,-3.34707,-2.9474,0.631845,0.299625,-0.334782,-0.0302319,-0.0993162,0.213474,0.0192635,0.00909274,0.191374,5,0.1,21,1.5,3.6812,3.263,0.619107,-0.229772,0.308301,0.079647,0.0352412,-0.0473708,-0.0122301,0.00914118,0.0899479,5,0.1,22,1.5,0.236245,-3.56204,0.591748,-0.509067,0.391174,0.00781817,0.32449,-0.249282,-0.00498816,0.0136376,0.19571,5,0.1,23,1.5,-3.29218,4.11088,0.644924,0.866026,-0.0255808,-0.0188492,0,-0.00965595,-0.00714511,0.0221488,2.27122,5,0.1,24,1.5,-1.50221,3.47445,0.628694,0.566738,0.504614,-0.0244576,-0.44924,-1.06525,0.0651255,0.0130141,0.565423,5,0.1,25,1.5,-3.57715,-1.17525,0.706946,-0.162902,-0.809442,0.0159927,-0.63318,0.235192,-0.0660866,0.014598,0.825526,5,0.1,26,1.5,-3.3747,3.39014,0.614745,0.866026,0.319442,-0.00713263,0,-0.0113249,0.000230968,0.0586038,2.20799,5,0.1,27,1.5,-0.42561,0.030384,0.724391,0.126195,0.424015,0.0272088,0.0201631,-0.334233,0.0252724,0.0318171,0.191976,5,0.1,28,1.5,-3.15579,1.48809,0.585377,0.445117,0.148398,0.0133969,0.193805,-0.0813827,-0.00735372,0.0301988,1.29227,5,0.1,29,1.5,-2.84726,-0.890159,0.618422,0.785676,0.737797,-0.00699339,0.40482,-0.044331,-0.00144169,0.0280223,2.04235,5,0.1
0,1.6,-1.72317,3.72392,0.608077,0.678045,0.345677,-0.00850707,-0.591934,-0.166178,0.00435114,0.0185893,0.303999,5,0.1,1,1.6,1.21721,-1.45405,0.548221,0.542268,-0.404471,0.00652671,-0.440896,0.328958,-0.00527501,0.0191738,0.164672,5,0.1,2,1.6,-0.555877,-0.445161,0.583571,0.155675,0.755556,0.0152022,-0.0715256,-0.533134,-0.0103414,0.0140216,0.219483,5,0.1,3,1.6,1.22969,1.32437,0.726939,-0.188798,0.0249743,0.022456,0.690699,-0.0202656,-0.0182986,0.0150314,2.01518,5,0.1,4,1.6,1.70883,-2.43502,0.623332,-0.349262,0.618148,-0.0227168,0.283957,-0.502706,0.0184476,0.0183087,0.181557,5,0.1,5,1.6,3.69805,-2.56652,0.563434,-0.0605881,0.866026,0.0089258,0.0115633,0,-0.00169873,0.0194461,2.26954,5,0.1,6,1.6,2.72758,3.07828,0.606445,0.319558,-0.241625,-0.00627488,0.19908,0.230789,0.005126,0.0107263,0.175757,5,0.1,7,1.6,-0.767033,-3.99289,0.645285,-0.866026,-0.1647,0.0191092,0,0.0392199,-0.00450015,0.0205164,2.25524,5,0.1,8,1.6,-1.47812,2.31296,0.674716,0.0759721,0.520056,-0.0126213,-0.0617504,-0.422955,0.0102818,0.0151321,0.0994374,5,0.1,9,1.6,-0.501225,0.456123,0.610136,0.145534,-0.379305,-0.0304833,-0.383869,0.687078,-0.0875294,0.0129193,0.43719,5,0.1,10,1.6,-2.91507,2.60901,0.582403,0.51645,-0.203449,0.0171363,-0.303268,0.165462,-0.0139475,0.0149028,0.32942,5,0.1,11,1.6,1.36294,0.922309,0.607825,-0.435281,0.544667,-0.0225827,0.409424,-0.975043,-0.0425279,0.0185654,0.50388,5,0.1,12,1.6,2.32777,3.6543,0.575305,0.422674,-0.198871,0.024049,0.123501,0.161767,-0.0195503,0.0128855,0.122094,5,0.1,13,1.6,-1.97898,-0.380639,0.60062,0.338671,0.237451,-0.00064671,-0.133038,-0.0933856,0.000268221,0.0179348,0.083286,5,0.1,14,1.6,-3.80658,-0.995899,0.589532,0.177127,-0.181153,-0.06129,1.57011,0.0231862,0.100553,0.0231307,2.87237,5,0.1,15,1.6,1.02068,-3.94072,0.550936,-0.866024,-0.000840425,0.0147566,-2.98023e-05,0.000119209,-0.00286102,0.0168588,2.27178,5,0.1,16,1.6,-3.16638,-3.34244,0.673678,0.185663,-0.141543,0.0126377,0.234842,0.114918,-0.0102818,0.0103352,0.281754,5,0.1,17,1.6,3.44574,-0.682051,0.636091,0.00172257,0.866026,-0.0145435,-0.000357628,0,0.00315905,0.0154491,2.27179,5,0.1,18,1.6,3.78334,1.54023,0.651159,-0.350022,-0.594175,-0.0331476,0.284672,0.483274,0.0269115,0.014055,0.171481,5,0.1,19,1.6,4.03201,0.10368,0.604418,-0.301731,0.866025,-0.00182539,0.061512,0,0.000357628,0.0286558,2.20991,5,0.1,20,1.6,-3.31767,-2.97976,0.628922,0.287664,-0.311768,-0.0281557,-0.148296,0.253558,0.022918,0.0110622,0.164807,5,0.1,21,1.6,3.65845,3.29351,0.62699,-0.224352,0.301021,0.0777662,0.0805855,-0.108242,-0.0279248,0.0163911,0.067961,5,0.1,22,1.6,0.187036,-3.52422,0.592504,-0.474081,0.364292,0.00728071,0.385553,-0.296235,-0.00590086,0.0155435,0.128631,5,0.1,23,1.6,-3.20557,4.10829,0.643009,0.866026,-0.0262856,-0.0193775,0,-0.00357628,-0.0025034,0.0463485,2.27118,5,0.1,24,1.6,-1.44793,3.51893,0.626616,0.517112,0.380027,-0.0167876,-0.546634,-1.36745,0.084132,0.00814956,0.319918,5,0.1,25,1.6,-3.59645,-1.25483,0.708221,-0.220728,-0.779951,0.00958592,-0.502229,0.377476,-0.0607967,0.010681,0.591706,5,0.1,26,1.6,-3.28809,3.42197,0.614035,0.866026,0.316137,-0.00706017,0,-0.0677109,0.00151992,0.0551568,2.21082,5,0.1,27,1.6,-0.412838,0.0708368,0.727265,0.129486,0.382492,0.0304177,0.0343025,-0.487294,0.0345707,0.0289135,0.150922,5,0.1,28,1.6,-3.10997,1.5025,0.586678,0.473326,0.139359,0.0125796,0.314355,-0.10258,-0.00923872,0.0147069,1.01907,5,0.1,29,1.6,-2.76685,-0.816761,0.617716,0.819457,0.727846,-0.00712276,0.225306,-0.182062,-0.000685453,0.0257274,2.00552,5,0.1
0,1.7,-1.65803,3.75761,0.607249,0.626922,0.32749,-0.00804048,-0.45801,-0.203341,0.005126,0.0185893,0.303999,5,0.1,1,1.7,1.26934,-1.49293,0.548848,0.500935,-0.373633,0.00603171,-0.40058,0.298858,-0.0048019,0.0191738,0.164672,5,0.1,2,1.7,-0.540577,-0.372586,0.585042,0.150976,0.693166,0.014226,-0.0321865,-0.700295,-0.0096187,0.0140216,0.219483,5,0.1,3,1.7,1.21369,1.32678,0.729097,-0.1388,0.023073,0.0207408,0.239961,-0.0184327,-0.0166185,0.0150314,2.01518,5,0.1,4,1.7,1.67525,-2.37559,0.621148,-0.322642,0.571021,-0.0209869,0.257991,-0.456735,0.0167675,0.0183087,0.181557,5,0.1,5,1.7,3.69203,-2.47992,0.564322,-0.0600424,0.866026,0.00884589,0.00290573,0,-0.000417233,0.0194461,2.26954,5,0.1,6,1.7,2.76051,3.05522,0.605842,0.338473,-0.219921,-0.0057946,0.161514,0.209123,0.00465289,0.0107263,0.175757,5,0.1,7,1.7,-0.853636,-4.00922,0.64718,-0.866026,-0.162248,0.0188288,3.72529e-06,0.0187755,-0.00214949,0.0205164,2.25524,5,0.1,8,1.7,-1.47082,2.36295,0.673502,0.070183,0.480406,-0.0116574,-0.0561178,-0.384241,0.00933558,0.0151321,0.0994374,5,0.1,9,1.7,-0.488795,0.421488,0.606593,0.101518,-0.314748,-0.0407607,-0.477497,0.606917,-0.110459,0.0129193,0.43719,5,0.1,10,1.7,-2.86462,2.58945,0.58405,0.494676,-0.187937,0.0158289,-0.163242,0.150323,-0.0126734,0.0149028,0.32942,5,0.1,11,1.7,1.32178,0.97208,0.60534,-0.384927,0.452475,-0.0271766,0.58192,-0.872187,-0.0462718,0.0185654,0.50388,5,0.1,12,1.7,2.37048,3.63519,0.577617,0.429751,-0.183707,0.0222159,0.00791252,0.146955,-0.0177659,0.0128855,0.122094,5,0.1,13,1.7,-1.94569,-0.357303,0.600556,0.32746,0.229582,-0.0006238,-0.105992,-0.074381,0.000216067,0.0179348,0.083286,5,0.1,14,1.7,-3.78044,-1.0143,0.583933,0.349194,-0.189945,-0.0504753,1.77968,-0.167429,0.113398,0.0231307,2.87237,5,0.1,15,1.7,0.934074,-3.9408,0.552403,-0.866026,-0.000835955,0.0146202,0,0,-0.000726432,0.0168588,2.27178,5,0.1,16,1.7,-3.1464,-3.35604,0.674892,0.215702,-0.130768,0.0116738,0.335962,0.104457,-0.00933558,0.0103352,0.281754,5,0.1,17,1.7,3.44591,-0.595448,0.634647,0.00170283,0.866026,-0.0143667,-0.00013411,-3.72529e-06,0.00120327,0.0154491,2.27179,5,0.1,18,1.7,3.74969,1.48312,0.647972,-0.323334,-0.548871,-0.0306241,0.258639,0.43904,0.0244677,0.014055,0.171481,5,0.1,19,1.7,4.00194,0.190283,0.604237,-0.301247,0.866025,-0.00180574,-0.0284761,8.9407e-07,0.000137836,0.0286558,2.20991,5,0.1,20,1.7,-3.28994,-3.00973,0.626216,0.264242,-0.287997,-0.0260075,-0.308394,0.230372,0.0208132,0.0110622,0.164807,5,0.1,21,1.7,3.63635,3.32316,0.63465,-0.217975,0.292458,0.0755562,0.0581294,-0.0780523,-0.0201426,0.0163911,0.067961,5,0.1,22,1.7,0.141464,-3.48921,0.593204,-0.437937,0.33652,0.00672769,0.350271,-0.269145,-0.00535697,0.0155435,0.128631,5,0.1,23,1.7,-3.11897,4.10563,0.641053,0.866026,-0.0268474,-0.019782,0,-0.00602007,-0.00434369,0.0463485,2.27118,5,0.1,24,1.7,-1.39874,3.54992,0.625372,0.468292,0.2389,-0.00800751,-0.447124,-1.41701,0.0886247,0.00814956,0.319918,5,0.1,25,1.7,-3.62101,-1.33106,0.70888,-0.269676,-0.745139,0.00367966,-0.454053,0.346042,-0.056155,0.010681,0.591706,5,0.1,26,1.7,-3.20149,3.45336,0.613334,0.866026,0.312357,-0.00697523,0,-0.0256896,0.000573695,0.0551568,2.21082,5,0.1,27,1.7,-0.39958,0.106704,0.730509,0.136651,0.335303,0.0346667,0.0940263,-0.460209,0.0462122,0.0289135,0.150922,5,0.1,28,1.7,-3.06062,1.51595,0.587892,0.516566,0.129707,0.0117104,0.494108,-0.094384,-0.00850484,0.0147069,1.01907,5,0.1,29,1.7,-2.68368,-0.744722,0.616998,0.843924,0.713719,-0.00725472,0.217885,-0.134408,-0.00148639,0.0257274,2.00552,5,0.1
0,1.8,-1.59759,3.78924,0.606473,0.581723,0.304103,-0.00745654,-0.465572,-0.267625,0.00658631,0.0159791,0.210348,5,0.1,1,1.8,1.3174,-1.52877,0.549427,0.459659,-0.34284,0.00553578,-0.434935,0.324428,-0.00524521,0.0108182,0.108651,5,0.1,2,1.8,-0.52564,-0.306955,0.586415,0.147563,0.617891,0.0132039,-0.0430942,-0.795634,-0.0110567,0.0145004,0.305078,5,0.1,3,1.8,1.2,1.32899,0.731087,-0.144705,0.0211716,0.0190288,-0.327826,-0.0200272,-0.0180006,0.0159191,0.368733,5,0.1,4,1.8,1.6443,-2.32081,0.619134,-0.296059,0.523967,-0.0192583,0.280142,-0.49603,0.0182092,0.0144149,0.184233,5,0.1,5,1.8,3.68605,-2.39331,0.565203,-0.059402,0.866026,0.00875294,0.0122786,0,-0.00181794,0.0216925,2.26963,5,0.1,6,1.8,2.79499,3.03428,0.605286,0.348902,-0.198823,-0.00531524,0.0350475,0.216842,0.00500679,0.00941098,0.168018,5,0.1,7,1.8,-0.940238,-4.02533,0.649049,-0.866026,-0.159431,0.0185028,-2.98023e-05,0.0443459,-0.005126,0.0140723,2.08418,5,0.1,8,1.8,-1.46409,2.40904,0.672384,0.0644028,0.440812,-0.0106961,-0.0609159,-0.417113,0.0101328,0.01236,0.112575,5,0.1,9,1.8,-0.481056,0.392933,0.601978,0.0533752,-0.257427,-0.0512645,-0.470877,0.541642,-0.0941157,0.0246233,0.395583,5,0.1,10,1.8,-2.81595,2.57142,0.585569,0.478441,-0.172448,0.0145242,-0.18394,0.163198,-0.0137985,0.0114138,0.240753,5,0.1,11,1.8,1.28637,1.01312,0.602406,-0.321797,0.369653,-0.0313073,0.667512,-0.786602,-0.0341833,0.0134552,0.347666,5,0.1,12,1.8,2.41324,3.61756,0.579748,0.42268,-0.168568,0.0203848,-0.15521,0.159621,-0.0193119,0.0119984,0.157835,5,0.1,13,1.8,-1.91353,-0.334755,0.600495,0.314966,0.220815,-0.000597537,-0.154138,-0.108123,0.000268221,0.0194609,0.122561,5,0.1,14,1.8,-3.73689,-1.03423,0.579457,0.517225,-0.209096,-0.0390306,1.51384,-0.191867,0.113636,0.0144846,2.47074,5,0.1,15,1.8,0.847472,-3.94088,0.553859,-0.866026,-0.000828505,0.0144631,0,0.000119209,-0.00303984,0.0167808,2.27179,5,0.1,16,1.8,-3.12319,-3.36859,0.676012,0.247663,-0.120008,0.010711,0.281334,0.113606,-0.0101328,0.0176255,0.216922,5,0.1,17,1.8,3.44608,-0.508845,0.633218,0.00167489,0.866026,-0.0141636,-0.000238419,0,0.00342727,0.0250188,2.2718,5,0.1,18,1.8,3.71867,1.43046,0.645034,-0.296682,-0.503638,-0.0281021,0.280857,0.476658,0.0265837,0.00956826,0.113147,5,0.1,19,1.8,3.97168,0.276885,0.604057,-0.3034,0.866025,-0.00178069,0.0025034,1.43051e-05,0.000447035,0.0195359,2.2079,5,0.1,20,1.8,-3.26524,-3.03736,0.623721,0.228161,-0.264263,-0.0238642,-0.403047,0.25022,0.02262,0.010331,0.288353,5,0.1,21,1.8,3.61488,3.35197,0.642092,-0.210834,0.282884,0.0730827,0.0921488,-0.123978,-0.0320077,0.0226983,0.030295,5,0.1,22,1.8,0.0994496,-3.45692,0.59385,-0.401849,0.308788,0.00617504,0.380319,-0.292182,-0.00581145,0.0147092,0.152604,5,0.1,23,1.8,-3.03237,4.10292,0.639058,0.866026,-0.0271916,-0.0200346,0,0,0.000149012,0.0430329,2.27117,5,0.1,24,1.8,-1.3541,3.5669,0.625003,0.42471,0.103241,0.000444055,-0.436842,-1.26767,0.0783503,0.0102851,0.244841,5,0.1,25,1.8,-3.65001,-1.40372,0.708983,-0.307715,-0.706151,-0.0014469,-0.291348,0.45228,-0.0455678,0.00977242,0.411181,5,0.1,26,1.8,-3.11489,3.48442,0.61264,0.866026,0.307959,-0.00687689,0,-0.0749826,0.00166893,0.0521784,2.21412,5,0.1,27,1.8,-0.385448,0.137954,0.734198,0.145695,0.289844,0.0389367,0.0758767,-0.451319,0.0361502,0.00935186,0.520634,5,0.1,28,1.8,-3.00658,1.52843,0.589019,0.562412,0.119823,0.0108197,0.381589,-0.105917,-0.00956655,0.016893,0.775687,5,0.1,29,1.8,-2.59852,-0.67417,0.616266,0.855237,0.695214,-0.0073418,-0.0232458,-0.259191,8.9407e-05,0.0240245,2.09809,5,0.1
0,1.9,-1.54154,3.81833,0.605759,0.540927,0.277792,-0.00681197,-0.372715,-0.263795,0.00644103,0.0159791,0.210348,5,0.1,1,1.9,1.3613,-1.56152,0.549956,0.419362,-0.312782,0.00504944,-0.383511,0.286058,-0.00462681,0.0108182,0.108651,5,0.1,2,1.9,-0.51105,-0.249382,0.58784,0.144547,0.532975,0.016618,-0.0249352,-0.836915,0.0690967,0.0145004,0.305078,5,0.1,3,1.9,1.18419,1.33182,0.733218,-0.168469,0.0421332,0.0262503,-0.1508,0.387616,0.142016,0.0159191,0.368733,5,0.1,4,1.9,1.61586,-2.27076,0.617295,-0.27455,0.478012,-0.0175706,0.167973,-0.437319,0.0160672,0.0144149,0.184233,5,0.1,5,1.9,3.68015,-2.30671,0.566073,-0.0588093,0.866026,0.00866512,0.00308454,0,-0.000458211,0.0216925,2.26963,5,0.1,6,1.9,2.83004,3.01527,0.604779,0.351681,-0.183187,-0.00485107,0.00627339,0.110731,0.00441819,0.00941098,0.168018,5,0.1,7,1.9,-1.02684,-4.0411,0.650879,-0.866026,-0.156279,0.0181383,7.45058e-06,0.0268817,-0.00311434,0.0140723,2.08418,5,0.1,8,1.9,-1.4579,2.45135,0.671357,0.0596171,0.408041,-0.00989977,-0.0384822,-0.263542,0.00640005,0.01236,0.112575,5,0.1,9,1.9,-0.47807,0.36948,0.5964,0.00677807,-0.215372,-0.0599815,-0.445463,0.317024,-0.0755414,0.0246233,0.395583,5,0.1,10,1.9,-2.76885,2.55495,0.586956,0.464727,-0.157328,0.0132465,-0.115022,0.143901,-0.0121556,0.0114138,0.240753,5,0.1,11,1.9,1.25759,1.04657,0.599125,-0.253682,0.303256,-0.0340827,0.68333,-0.558853,-0.0203252,0.0134552,0.347666,5,0.1,12,1.9,2.45434,3.60138,0.581705,0.39568,-0.156028,0.0188671,-0.372395,0.100836,-0.0122115,0.0119984,0.157835,5,0.1,13,1.9,-1.88278,-0.313062,0.600437,0.299974,0.214172,-0.000570808,-0.155076,-0.0400674,0.000286847,0.0194609,0.122561,5,0.1,14,1.9,-3.67762,-1.05628,0.576118,0.666358,-0.233167,-0.0278366,1.40177,-0.263676,0.108611,0.0144846,2.47074,5,0.1,15,1.9,0.760869,-3.94097,0.555296,-0.866026,-0.000824034,0.0143151,3.72529e-06,0,-0.000778586,0.0167808,2.27179,5,0.1,16,1.9,-3.09694,-3.38005,0.677036,0.277419,-0.109484,0.009772,0.290662,0.100151,-0.00893325,0.0176255,0.216922,5,0.1,17,1.9,3.44625,-0.422243,0.631814,0.00166483,0.866026,-0.0139646,-7.45058e-05,-3.57628e-06,0.00135601,0.0250188,2.2718,5,0.1,18,1.9,3.69033,1.38235,0.64235,-0.270661,-0.459478,-0.0256388,0.247642,0.420243,0.023447,0.00956826,0.113147,5,0.1,19,1.9,3.94119,0.363488,0.603881,-0.307334,0.866025,-0.00175396,-0.0591576,-1.78814e-06,0.00018999,0.0195359,2.2079,5,0.1,20,1.9,-3.24453,-3.06272,0.62143,0.185267,-0.244603,-0.0220872,-0.445619,0.158101,0.0142865,0.010331,0.288353,5,0.1,21,1.9,3.59427,3.37963,0.649239,-0.201344,0.270127,0.0697882,0.103325,-0.138775,-0.0358485,0.0226983,0.030295,5,0.1,22,1.9,0.0610637,-3.42738,0.59444,-0.366614,0.283005,0.00563655,0.335314,-0.234708,-0.005126,0.0147092,0.152604,5,0.1,23,1.9,-2.94577,4.1002,0.637049,0.866026,-0.0274017,-0.0201789,0,-0.0026226,-0.00183657,0.0430329,2.27117,5,0.1,24,1.9,-1.31358,3.57108,0.625428,0.387637,-0.0172716,0.00790479,-0.323318,-1.11975,0.0691377,0.0102851,0.244841,5,0.1,25,1.9,-3.68219,-1.4722,0.70862,-0.334789,-0.664213,-0.00570742,-0.232354,0.409029,-0.0387691,0.00977242,0.411181,5,0.1,26,1.9,-3.02829,3.51495,0.611958,0.866026,0.303549,-0.00677928,0,-0.0306815,0.000678003,0.0521784,2.21412,5,0.1,27,1.9,-0.37063,0.163716,0.738576,0.149357,0.217364,0.0511029,-0.00259653,-0.934762,0.185195,0.00935186,0.520634,5,0.1,28,1.9,-2.94828,1.53991,0.590056,0.604054,0.109978,0.0099306,0.407457,-0.0943094,-0.00851974,0.016893,0.775687,5,0.1,29,1.9,-2.5134,-0.60594,0.615537,0.84387,0.668924,-0.00720639,-0.21936,-0.286788,0.00264496,0.0240245,2.09809,5,0.1
0,2,-1.48931,3.84476,0.605111,0.503358,0.250494,-0.00614524,-0.394464,-0.285625,0.00691414,0.0118846,0.262355,5,0.1,1,2,1.40133,-1.59137,0.550438,0.380847,-0.284052,0.00458509,-0.395596,0.294983,-0.00476837,0.0179534,0.124234,5,0.1,2,2,-0.496741,-0.2,0.58991,0.141259,0.457641,0.0252038,-0.0462383,-0.664182,0.0947118,0.0180197,0.415291,5,0.1,3,2,1.16686,1.33829,0.736679,-0.175598,0.0895262,0.0438094,0.00423193,0.520229,0.193357,0.0108134,0.269164,5,0.1,4,2,1.58918,-2.22514,0.615618,-0.259346,0.434095,-0.0159577,0.149369,-0.45085,0.0165999,0.0170569,0.129588,5,0.1,5,2,3.67429,-2.22011,0.566936,-0.0581801,0.866026,0.00857264,0.0120401,0,-0.00178814,0.0229549,2.26971,5,0.1,6,2,2.8651,2.99743,0.604316,0.347787,-0.174081,-0.00440776,-0.0934601,0.082612,0.00458956,0.0108463,0.118742,5,0.1,7,2,-1.11344,-4.05656,0.652674,-0.866026,-0.152671,0.0177205,0,0.0510216,-0.00593066,0.012856,1.6404,5,0.1,8,2,-1.45212,2.49092,0.670397,0.0560641,0.383723,-0.00930876,-0.0351667,-0.241518,0.00584126,0.0146205,0.0648971,5,0.1,9,2,-0.479475,0.349278,0.590085,-0.0331491,-0.1908,-0.0656173,-0.343025,0.189081,-0.0342727,0.0226806,0.421871,5,0.1,10,2,-2.723,2.53993,0.58822,0.451225,-0.142878,0.0120267,-0.172496,0.148416,-0.012517,0.0109185,0.17173,5,0.1,11,2,1.23558,1.07436,0.595644,-0.187147,0.254756,-0.0352174,0.638723,-0.424802,-0.00181794,0.0111949,0.237437,5,0.1,12,2,2.49178,3.58625,0.583534,0.350565,-0.146723,0.0177398,-0.51868,0.092268,-0.0111759,0.0201682,0.316077,5,0.1,13,2,-1.85362,-0.291836,0.600381,0.282395,0.210159,-0.000537932,-0.202775,-0.0513196,0.00038743,0.0191424,0.264756,5,0.1,14,2,-3.60461,-1.08086,0.573858,0.786412,-0.257367,-0.0175923,0.954866,-0.201702,0.0950992,0.0150537,1.99041,5,0.1,15,2,0.674267,-3.94105,0.556722,-0.866026,-0.000816584,0.0141591,0,0.000119209,-0.00289083,0.0138789,2.27179,5,0.1,16,2,-3.06788,-3.3905,0.677968,0.301856,-0.0994205,0.00887513,0.181675,0.103116,-0.00923872,0.0132557,0.159039,5,0.1,17,2,3.44641,-0.33564,0.630426,0.00164509,0.866025,-0.0137538,-0.000357628,1.43051e-05,0.00339746,0.0186318,2.2718,5,0.1,18,2,3.66451,1.3385,0.639903,-0.245792,-0.417271,-0.0232846,0.255346,0.433326,0.0242293,0.0136154,0.129376,5,0.1,19,2,3.91021,0.45009,0.603707,-0.311446,0.866025,-0.00172555,-0.00751019,1.43051e-05,0.000447035,0.0178594,2.30491,5,0.1,20,2,-3.22824,-3.08644,0.619289,0.140691,-0.230014,-0.0207692,-0.438571,0.144839,0.0130832,0.0179728,0.271221,5,0.1,21,2,3.5747,3.40588,0.656019,-0.189245,0.253886,0.0655919,0.142217,-0.190973,-0.0493228,0.0158187,0.0113358,5,0.1,22,2,0.0260771,-3.40023,0.594978,-0.332938,0.259912,0.00512153,0.345762,-0.235081,-0.00530481,0.0200902,0.245159,5,0.1,23,2,-2.85916,4.09745,0.635027,0.866026,-0.0274301,-0.0201985,0,0.00309944,0.00226498,0.0281932,2.27118,5,0.1,24,2,-1.27637,3.56415,0.626537,0.356814,-0.116891,0.0139818,-0.306726,-0.857353,0.0512302,0.0129746,0.200068,5,0.1,25,2,-3.71661,-1.5365,0.707872,-0.35122,-0.620547,-0.00905693,-0.0845194,0.479639,-0.0276268,0.0201243,0.279223,5,0.1,26,2,-2.94168,3.54511,0.611284,0.866026,0.29884,-0.00667423,0,-0.0758171,0.00166893,0.0480269,2.21751,5,0.1,27,2,-0.355835,0.180413,0.744709,0.145268,0.114201,0.0720993,-0.0782907,-1.0789,0.217944,0.0132653,0.336241,5,0.1,28,2,-2.88609,1.55044,0.591006,0.636458,0.100407,0.00906736,0.209808,-0.0994802,-0.0090003,0.0133814,0.56414,5,0.1,29,2,-2.43053,-0.540661,0.614834,0.809026,0.634521,-0.00681281,-0.485659,-0.414476,0.00527501,0.0238813,2.18487,5,0.1
0,2.1,-1.44062,3.86844,0.60453,0.472737,0.223421,-0.00549052,-0.246122,-0.260532,0.00629574,0.0118846,0.262355,5,0.1,1,2.1,1.43773,-1.61852,0.550876,0.34954,-0.260707,0.00420753,-0.252411,0.188217,-0.00304729,0.0179534,0.124234,5,0.1,2,2.1,-0.48314,-0.157299,0.592853,0.128199,0.398598,0.0331481,-0.200694,-0.530995,0.0634454,0.0180197,0.415291,5,0.1,3,2.1,1.14944,1.35006,0.742217,-0.17166,0.147203,0.0683589,0.0740215,0.599913,0.27781,0.0108134,0.269164,5,0.1,4,2.1,1.56386,-2.18386,0.6141,-0.248045,0.392701,-0.0144336,0.0908747,-0.38901,0.01432,0.0170569,0.129588,5,0.1,5,2.1,3.66851,-2.13351,0.567787,-0.0576172,0.866026,0.00848882,0.00272691,0,-0.000402331,0.0229549,2.26971,5,0.1,6,2.1,2.89942,2.9804,0.603896,0.338444,-0.166712,-0.00398653,-0.105083,0.0714362,0.00395998,0.0108463,0.118742,5,0.1,7,2.1,-1.20004,-4.07161,0.65442,-0.86597,-0.148357,0.0172186,0.00222027,0.0418425,-0.0048615,0.012856,1.6404,5,0.1,8,2.1,-1.44667,2.52822,0.669492,0.0530744,0.363193,-0.00881227,-0.0270531,-0.185698,0.00449643,0.0146205,0.0648971,5,0.1,9,2.1,-0.483975,0.330738,0.583455,-0.0521221,-0.183366,-0.0660478,-0.0580493,-0.0129472,0.022877,0.0226806,0.421871,5,0.1,10,2.1,-2.67863,2.52634,0.589364,0.436821,-0.129252,0.0108779,-0.135407,0.128046,-0.0107922,0.0109185,0.17173,5,0.1,11,2.1,1.21993,1.09823,0.592167,-0.127461,0.226996,-0.0338241,0.549205,-0.160195,0.0277311,0.0111949,0.237437,5,0.1,12,2.1,2.52403,3.57205,0.585252,0.292758,-0.137233,0.0165906,-0.622153,0.100181,-0.0121221,0.0201682,0.316077,5,0.1,13,2.1,-1.82639,-0.271308,0.60033,0.262282,0.198268,-0.000499189,-0.205301,-0.179054,0.000402331,0.0191424,0.264756,5,0.1,14,2.1,-3.52226,-1.10768,0.572558,0.850603,-0.279053,-0.00859639,0.358388,-0.211276,0.0836439,0.0150537,1.99041,5,0.1,15,2.1,0.587664,-3.94113,0.558129,-0.866026,-0.000812113,0.0140255,3.72529e-06,0,-0.000625849,0.0138789,2.27179,5,0.1,16,2.1,-3.03678,-3.39996,0.678812,0.319825,-0.0899512,0.00802716,0.159562,0.0890046,-0.0079684,0.0132557,0.159039,5,0.1,17,2.1,3.44658,-0.249038,0.629062,0.00162497,0.866025,-0.0135571,-0.000149012,0,0.0013262,0.0186318,2.2718,5,0.1,18,2.1,3.64101,1.29862,0.637678,-0.225582,-0.382979,-0.0213668,0.162974,0.276454,0.0154674,0.0136154,0.129376,5,0.1,19,2.1,3.87945,0.536549,0.603517,-0.299827,0.861051,-0.00223564,0.225797,-0.125004,-0.00936165,0.0178594,2.30491,5,0.1,20,2.1,-3.21631,-3.1088,0.61727,0.0987466,-0.217703,-0.0196574,-0.394747,0.111356,0.0100508,0.0179728,0.271221,5,0.1,21,2.1,3.55651,3.43029,0.662326,-0.174477,0.234063,0.0604711,0.155538,-0.208706,-0.0539199,0.0158187,0.0113358,5,0.1,22,2.1,-0.0057447,-3.37559,0.595467,-0.305575,0.231414,0.00470206,0.220593,-0.327528,-0.00338256,0.0200902,0.245159,5,0.1,23,2.1,-2.77256,4.09471,0.633012,0.866026,-0.0273459,-0.0201397,0,0.000149012,5.96046e-05,0.0281932,2.27118,5,0.1,24,2.1,-1.24209,3.54834,0.628181,0.329867,-0.197235,0.0187512,-0.245802,-0.728711,0.0426918,0.0129746,0.200068,5,0.1,25,2.1,-3.75212,-1.59629,0.706837,-0.358216,-0.576191,-0.0115495,-0.0410825,0.426255,-0.0215545,0.0201243,0.279223,5,0.1,26,2.1,-2.85508,3.57473,0.610623,0.866026,0.294318,-0.00657542,0,-0.0316054,0.000689179,0.0480269,2.21751,5,0.1,27,2.1,-0.34187,0.186553,0.753274,0.132506,0.0102899,0.101153,-0.169765,-0.977971,0.336718,0.0132653,0.336241,5,0.1,28,2.1,-2.82135,1.56001,0.59187,0.65787,0.091246,0.00823895,0.183806,-0.0865236,-0.00781938,0.0133814,0.56414,5,0.1,29,2.1,-2.35229,-0.47916,0.614179,0.753224,0.596191,-0.00627786,-0.632793,-0.372488,0.00552833,0.0238813,2.18487,5,0.1
0,2.2,-1.39453,3.88949,0.604012,0.449267,0.197607,-0.00486523,-0.243843,-0.259042,0.00625849,0.0145301,0.190931,5,0.1,1,2.2,1.47151,-1.64372,0.551283,0.326565,-0.243574,0.00392944,-0.22316,0.166416,-0.00268221,0.0117813,0.071783,5,0.1,2,2.2,-0.471481,-0.11997,0.596429,0.103711,0.348954,0.0377968,-0.277445,-0.472456,0.0293255,0.0157076,0.58711,5,0.1,3,2.2,1.13275,1.36769,0.750447,-0.160962,0.203735,0.0959128,0.13876,0.506282,0.258476,0.0149364,0.210589,5,0.1,4,2.2,1.53951,-2.14651,0.612728,-0.238726,0.354248,-0.0130177,0.105739,-0.388384,0.0142753,0.0163123,0.189703,5,0.1,5,2.2,3.66277,-2.0469,0.568633,-0.0570416,0.866026,0.00840425,0.0113249,-5.96046e-05,-0.00166893,0.0204145,2.27256,5,0.1,6,2.2,2.93264,2.96411,0.603517,0.324833,-0.158668,-0.00359565,-0.174999,0.0941753,0.00396371,0.0161339,0.166277,5,0.1,7,2.2,-1.28661,-4.08621,0.656115,-0.865141,-0.143206,0.0166193,0.0177622,0.0660419,-0.0076592,0.00911453,1.25511,5,0.1,8,2.2,-1.4415,2.56359,0.668634,0.0502378,0.343746,-0.00834018,-0.031352,-0.214815,0.0051856,0.0146425,0.0500567,5,0.1,9,2.2,-0.489155,0.312189,0.577039,-0.0486918,-0.18855,-0.0615746,0.108913,-0.0698119,0.0641048,0.0137701,0.380341,5,0.1,10,2.2,-2.6357,2.51405,0.590398,0.420785,-0.116593,0.00981241,-0.199199,0.127792,-0.0107884,0.016182,0.119818,5,0.1,11,2.2,1.20974,1.12036,0.588959,-0.0781983,0.217444,-0.0300363,0.432968,-0.0538826,0.0464022,0.0182751,0.258404,5,0.1,12,2.2,2.55013,3.55885,0.586846,0.228888,-0.126266,0.0152618,-0.643015,0.120878,-0.0145733,0.0125179,0.312532,5,0.1,13,2.2,-1.80123,-0.252535,0.600282,0.24038,0.17576,-0.000455976,-0.236392,-0.264421,0.000447035,0.0180003,0.253778,5,0.1,14,2.2,-3.43613,-1.13651,0.57209,0.866026,-0.296098,-0.00105947,0,-0.115037,0.0662804,0.0190573,1.4943,5,0.1,15,2.2,0.501062,-3.94121,0.559526,-0.866026,-0.000804663,0.0138879,0,0.000119209,-0.00274181,0.0205508,2.2718,5,0.1,16,2.2,-3.00416,-3.40851,0.679576,0.330716,-0.0811517,0.00724047,0.0457764,0.0889301,-0.00795722,0.0261382,0.190701,5,0.1,17,2.2,3.44674,-0.162435,0.627715,0.0015974,0.866025,-0.0133544,-0.000357628,0,0.00330806,0.0265399,2.27368,5,0.1,18,2.2,3.61921,1.26161,0.635613,-0.21075,-0.357819,-0.0199601,0.144124,0.244498,0.0136793,0.01092,0.0747567,5,0.1,19,2.2,3.85089,0.621654,0.603239,-0.26893,0.836875,-0.00336915,0.379682,-0.374526,-0.0123084,0.0346235,2.47471,5,0.1,20,2.2,-3.2083,-3.13,0.615355,0.0626564,-0.206041,-0.0186056,-0.323772,0.128746,0.0116527,0.0276494,0.259761,5,0.1,21,2.2,3.53987,3.4526,0.668091,-0.157773,0.211656,0.0546798,0.179887,-0.241399,-0.0623167,0.0207842,0.00562253,5,0.1,22,2.2,-0.0352775,-3.35419,0.595922,-0.285498,0.195789,0.00439435,0.195068,-0.378489,-0.00298023,0.0338634,0.217821,5,0.1,23,2.2,-2.68596,4.09198,0.631002,0.866026,-0.027132,-0.0199884,0,0.00524521,0.00372529,0.0236595,2.09573,5,0.1,24,2.2,-1.21032,3.52532,0.630246,0.305334,-0.259185,0.0222772,-0.254571,-0.496626,0.0268221,0.0831423,0.49267,5,0.1,25,2.2,-3.78798,-1.65174,0.705589,-0.357068,-0.532132,-0.0132591,0.0734329,0.467896,-0.0121891,0.0190336,0.187007,5,0.1,26,2.2,-2.76848,3.60397,0.60997,0.866026,0.289625,-0.00647157,0,-0.074625,0.00163913,0.049447,2.0074,5,0.1,27,2.2,-0.32957,0.183004,0.76509,0.112645,-0.0777915,0.134836,-0.221387,-0.769004,0.317246,0.0181789,0.297805,5,0.1,28,2.2,-2.75492,1.5687,0.592655,0.667399,0.0826329,0.00746101,-0.0166893,-0.0877976,-0.00795722,0.0129902,0.394731,5,0.1,29,2.2,-2.28039,-0.421469,0.61358,0.682282,0.556593,-0.00569075,-0.785351,-0.433416,0.00622869,0.0255763,1.96797,5,0.1
0,2.3,-1.35063,3.90802,0.603555,0.429982,0.17356,-0.00428418,-0.164315,-0.226021,0.005465,0.0145301,0.190931,5,0.1,1,2.3,1.50318,-1.66734,0.551664,0.307721,-0.229521,0.00370275,-0.168167,0.125431,-0.00202656,0.0117813,0.071783,5,0.1,2,2.3,-0.462494,-0.0874774,0.600346,0.0761564,0.300558,0.0404116,-0.269501,-0.492419,0.0211373,0.0157076,0.58711,5,0.1,3,2.3,1.11731,1.39056,0.761437,-0.14825,0.252858,0.124469,0.120446,0.454381,0.294097,0.0149364,0.210589,5,0.1,4,2.3,1.5159,-2.11274,0.611765,-0.235575,0.323541,-0.00398783,-0.0193641,-0.246465,0.149403,0.0163123,0.189703,5,0.1,5,2.3,3.6571,-1.9603,0.569609,-0.056535,0.866025,0.0123125,0.00223517,1.49012e-05,0.0704825,0.0204145,2.27256,5,0.1,6,2.3,2.96446,2.94886,0.603175,0.313176,-0.144993,-0.00328235,-0.0793785,0.173718,0.00251085,0.0161339,0.166277,5,0.1,7,2.3,-1.37312,-4.10022,0.657741,-0.865237,-0.13724,0.015927,0.000528991,0.0586212,-0.00680611,0.00911453,1.25511,5,0.1,8,2.3,-1.43661,2.59704,0.667822,0.0476813,0.326234,-0.00791727,-0.0222996,-0.152662,0.00369176,0.0146425,0.0500567,5,0.1,9,2.3,-0.493232,0.293193,0.571234,-0.0308152,-0.18936,-0.054237,0.231644,0.050107,0.0811256,0.0137701,0.380341,5,0.1,10,2.3,-2.59453,2.50299,0.591329,0.403,-0.104945,0.00882968,-0.1726,0.108466,-0.00914186,0.016182,0.119818,5,0.1,11,2.3,1.20388,1.14211,0.586209,-0.0412492,0.219597,-0.0247791,0.305675,0.0727549,0.057146,0.0182751,0.258404,5,0.1,12,2.3,2.56985,3.54682,0.588302,0.166336,-0.114593,0.0138538,-0.598952,0.114948,-0.013873,0.0125179,0.312532,5,0.1,13,2.3,-1.77835,-0.236395,0.600238,0.217205,0.14613,-0.000411831,-0.230707,-0.31999,0.000447035,0.0180003,0.253778,5,0.1,14,2.3,-3.34953,-1.16671,0.572298,0.865807,-0.307671,0.00501797,-0.00876188,-0.100046,0.0544041,0.0190573,1.4943,5,0.1,15,2.3,0.414459,-3.94129,0.560907,-0.866026,-0.000800192,0.0137677,3.57628e-06,0,-0.000499189,0.0205508,2.2718,5,0.1,16,2.3,-2.97059,-3.41625,0.680266,0.342516,-0.0741206,0.00661155,0.158459,0.0564456,-0.00504777,0.0261382,0.190701,5,0.1,17,2.3,3.4469,-0.0758327,0.626269,0.00157617,0.866025,-0.0166235,-0.000163913,4.47035e-07,-0.0602268,0.0265399,2.27368,5,0.1,18,2.3,3.59878,1.22691,0.633678,-0.19858,-0.337173,-0.0188052,0.108629,0.184238,0.0103079,0.01092,0.0747567,5,0.1,19,2.3,3.82653,0.70385,0.602822,-0.212892,0.809657,-0.00511408,0.700027,-0.215825,-0.0209063,0.0346235,2.47471,5,0.1,20,2.3,-3.2035,-3.15,0.61355,0.0346702,-0.193967,-0.0175136,-0.235751,0.119135,0.0107698,0.0276494,0.259761,5,0.1,21,2.3,3.52499,3.47257,0.67325,-0.140004,0.187817,0.0485239,0.177279,-0.237793,-0.0614189,0.0207842,0.00562253,5,0.1,22,2.3,-0.062964,-3.33655,0.596348,-0.269026,0.156493,0.00414262,0.146995,-0.400081,-0.00224635,0.0338634,0.217821,5,0.1,23,2.3,-2.59936,4.08929,0.629016,0.866026,-0.0268012,-0.0197587,0,0.00274181,0.00191107,0.0236595,2.09573,5,0.1,24,2.3,-1.181,3.49821,0.632523,0.281465,-0.27154,0.0225333,-0.231028,0.193581,-0.0181124,0.0831423,0.49267,5,0.1,25,2.3,-3.82332,-1.70275,0.704208,-0.349295,-0.489069,-0.0142917,0.0937879,0.409044,-0.00792742,0.0190336,0.187007,5,0.1,26,2.3,-2.68188,3.63257,0.609328,0.866026,0.282428,-0.00638431,0,-0.0797361,0.000495464,0.049447,2.0074,5,0.1,27,2.3,-0.319461,0.171705,0.780282,0.0891869,-0.144758,0.169646,-0.242043,-0.56423,0.355966,0.0181789,0.297805,5,0.1,28,2.3,-2.68823,1.57655,0.593364,0.665811,0.074609,0.00673439,-0.0429153,-0.0750124,-0.00678748,0.0129902,0.394731,5,0.1,29,2.3,-2.21599,-0.368405,0.613041,0.606387,0.50087,-0.00509694,-0.741914,-0.663077,0.00575185,0.0255763,1.96797,5,0.1
0,2.4,-1.30847,3.92427,0.603153,0.41256,0.1517,-0.00375509,-0.200033,-0.2141,0.0051856,0.0147493,1.11857,5,0.1,1,2.4,1.5331,-1.68966,0.552024,0.290459,-0.216648,0.00349432,-0.187218,0.139654,-0.00223517,0.0138393,0.0558771,5,0.1,2,2.4,-0.456185,-0.0598946,0.604467,0.0505306,0.251062,0.0417218,-0.239953,-0.494631,0.0038743,0.00906532,0.538496,5,0.1,3,2.4,1.10309,1.41788,0.775288,-0.136033,0.290948,0.151536,0.127316,0.29248,0.233829,0.0153368,0.177801,5,0.1,4,2.4,1.4922,-2.08152,0.612221,-0.238532,0.301355,0.0138536,-0.022471,-0.21255,0.194252,0.0194655,0.642732,5,0.1,5,2.4,3.65146,-1.8737,0.571248,-0.0560045,0.866026,0.0208393,0.010848,-5.96046e-05,0.0928342,0.0259418,2.2722,5,0.1,6,2.4,2.9954,2.93532,0.602858,0.305289,-0.124967,-0.00305623,-0.0936985,0.221848,0.00217557,0.0134296,0.130147,5,0.1,7,2.4,-1.45953,-4.11363,0.659297,-0.861382,-0.130582,0.0151545,0.0928044,0.0782013,-0.00908971,0.0133862,0.932073,5,0.1,8,2.4,-1.43196,2.62889,0.66705,0.0453502,0.310278,-0.00753105,-0.0261068,-0.178576,0.00432134,0.0166005,0.0225658,5,0.1,9,2.4,-0.495068,0.274681,0.566234,-0.00537857,-0.17925,-0.0456363,0.263914,0.148356,0.0896454,0.0244678,0.364965,5,0.1,10,2.4,-2.55516,2.49303,0.592167,0.38355,-0.0943244,0.00793487,-0.227571,0.106096,-0.0089407,0.0111864,0.141727,5,0.1,11,2.4,1.20107,1.16448,0.584024,-0.0168741,0.227776,-0.0188947,0.184119,0.0727773,0.0592768,0.0152228,0.330163,5,0.1,12,2.4,2.58362,3.53594,0.589617,0.110614,-0.10289,0.0124395,-0.509262,0.120759,-0.0145435,0.0149509,0.309942,5,0.1,13,2.4,-1.7578,-0.223417,0.600199,0.19365,0.113239,-0.000366569,-0.242531,-0.331253,0.000447035,0.0116801,0.253875,5,0.1,14,2.4,-3.26306,-1.19785,0.573046,0.862521,-0.313357,0.00968128,-0.0700951,-0.0025034,0.038296,0.0200899,1.11648,5,0.1,15,2.4,0.327857,-3.94137,0.56228,-0.866025,-0.000792742,0.0136435,-1.43051e-05,0.000238419,-0.0025928,0.0116735,2.2718,5,0.1,16,2.4,-2.93557,-3.4234,0.680904,0.356925,-0.0690341,0.00615716,0.106573,0.0486374,-0.00432134,0.0153695,0.115909,5,0.1,17,2.4,3.44705,0.0107698,0.624258,0.00154972,0.866025,-0.023903,-0.000357628,-1.19209e-06,-0.0788271,0.0171155,2.27218,5,0.1,18,2.4,3.57946,1.19412,0.631849,-0.187433,-0.318265,-0.0177488,0.120878,0.205159,0.0114739,0.0147927,0.0581951,5,0.1,19,2.4,3.80899,0.78369,0.602203,-0.13625,0.785817,-0.00725687,0.80049,-0.293851,-0.020653,0.0183101,2.46305,5,0.1,20,2.4,-3.20107,-3.16877,0.611855,0.0154078,-0.181144,-0.0163555,-0.150681,0.14174,0.012815,0.016021,0.423881,5,0.1,21,2.4,3.51188,3.49016,0.677793,-0.122046,0.163734,0.0423029,0.182629,-0.245094,-0.0633299,0.0137703,0.00174084,5,0.1,22,2.4,-0.0891265,-3.32289,0.596751,-0.25394,0.117075,0.00391155,0.163693,-0.382543,-0.0025034,0.0236534,0.201546,5,0.1,23,2.4,-2.51275,4.08663,0.627054,0.866026,-0.0263453,-0.0194296,0,0.00762939,0.00542402,0.0288391,1.65477,5,0.1,24,2.4,-1.15402,3.47278,0.634637,0.257745,-0.230646,0.0193089,-0.248909,0.578642,-0.0434816,0.0493782,0.391197,5,0.1,25,2.4,-3.85766,-1.74961,0.702749,-0.336361,-0.44767,-0.0147566,0.172496,0.429749,-0.00107288,0.0141869,0.124514,5,0.1,26,2.4,-2.59527,3.66034,0.608692,0.866026,0.271934,-0.00630468,0,-0.136852,0.0013411,0.0521086,1.57236,5,0.1,27,2.4,-0.311748,0.154786,0.798935,0.0652432,-0.189761,0.202081,-0.232443,-0.333175,0.276238,0.0137009,0.282294,5,0.1,28,2.4,-2.62209,1.58365,0.594004,0.654167,0.0672311,0.00606775,-0.208735,-0.0742078,-0.00673532,0.0134077,0.268756,5,0.1,29,2.4,-2.15905,-0.321888,0.61256,0.532359,0.427326,-0.00452399,-0.744581,-0.792325,0.00581145,0.0310546,1.21338,5,0.1
0,2.5,-1.26746,3.93844,0.602802,0.413688,0.132117,-0.00328049,0.164673,-0.181124,0.00439584,0.0147493,1.11857,5,0.1,1,2.5,1.56134,-1.71072,0.552364,0.275341,-0.20537,0.00331346,-0.130087,0.0970587,-0.00156462,0.0138393,0.0558771,5,0.1,2,2.5,-0.452129,-0.0382545,0.608682,0.0324181,0.173551,0.0427302,-0.129811,-0.987438,0.0129938,0.00906532,0.538496,5,0.1,3,2.5,1.09,1.44837,0.791676,-0.126672,0.317704,0.176418,0.0691041,0.226282,0.246387,0.0153368,0.177801,5,0.1,4,2.5,1.4686,-2.05376,0.614538,-0.230041,0.242848,0.0319743,0.179149,-0.880152,0.164177,0.0194655,0.642732,5,0.1,5,2.5,3.64589,-1.7871,0.57393,-0.0555273,0.866025,0.0338282,0.00204146,1.49012e-05,0.154838,0.0259418,2.2722,5,0.1,6,2.5,3.02553,2.92399,0.602562,0.297619,-0.101251,-0.00287443,-0.0734925,0.247076,0.00160187,0.0134296,0.130147,5,0.1,7,2.5,-1.54546,-4.12632,0.66077,-0.858788,-0.12339,0.0143182,0.00732392,0.0700653,-0.00814348,0.0133862,0.932073,5,0.1,8,2.5,-1.42755,2.65905,0.666317,0.0428185,0.292965,-0.00711158,-0.0258535,-0.176743,0.00428408,0.0166005,0.0225658,5,0.1,9,2.5,-0.494181,0.257703,0.562098,0.0238265,-0.158508,-0.0372785,0.30566,0.25615,0.0778995,0.0244678,0.364965,5,0.1,10,2.5,-2.51763,2.48405,0.592922,0.369308,-0.0859831,0.00723219,-0.0853091,0.0663847,-0.00558421,0.0111864,0.141727,5,0.1,11,2.5,1.20013,1.18774,0.582432,-0.00342634,0.238127,-0.0129571,0.0906512,0.115439,0.0583455,0.0152228,0.330163,5,0.1,12,2.5,2.59234,3.52623,0.590791,0.0656951,-0.0915475,0.0110725,-0.388071,0.108153,-0.013046,0.0149509,0.309942,5,0.1,13,2.5,-1.73965,-0.213724,0.600165,0.169507,0.0810057,-0.000321772,-0.240937,-0.308306,0.00045076,0.0116801,0.253875,5,0.1,14,2.5,-3.17687,-1.2292,0.574192,0.862901,-0.313535,0.0130729,0.0280738,0.0120774,0.0288673,0.0200899,1.11648,5,0.1,15,2.5,0.241254,-3.94145,0.563637,-0.866025,-0.000778958,0.0135352,0,0.000104308,-0.000398606,0.0116735,2.2718,5,0.1,16,2.5,-2.89931,-3.43009,0.6815,0.368354,-0.0649635,0.00579562,0.101581,0.0358969,-0.00318885,0.0153695,0.115909,5,0.1,17,2.5,3.44721,0.0973723,0.621545,0.00152849,0.866025,-0.0296717,-0.000163913,7.45058e-07,-0.0376962,0.0171155,2.27218,5,0.1,18,2.5,3.56124,1.16317,0.630123,-0.177671,-0.301699,-0.0168227,0.0839978,0.142537,0.00796467,0.0147927,0.0581951,5,0.1,19,2.5,3.79884,0.861803,0.601388,-0.0715781,0.784286,-0.00890754,0.504062,0.178102,-0.0122413,0.0183101,2.46305,5,0.1,20,2.5,-3.20023,-3.18615,0.610286,0.002148,-0.166146,-0.0150001,-0.109255,0.159472,0.0144094,0.016021,0.423881,5,0.1,21,2.5,3.50058,3.50532,0.681711,-0.104116,0.139676,0.0360861,0.176176,-0.236303,-0.0610724,0.0137703,0.00174084,5,0.1,22,2.5,-0.113748,-3.31303,0.59713,-0.238746,0.0809394,0.00367882,0.148323,-0.336051,-0.00227615,0.0236534,0.201546,5,0.1,23,2.5,-2.42615,4.08403,0.625134,0.86599,-0.025703,-0.0189735,-0.00141561,0.0063777,0.0045374,0.0288391,1.65477,5,0.1,24,2.5,-1.12943,3.45313,0.636317,0.23469,-0.158224,0.0140411,-0.219136,0.828549,-0.0592433,0.0493782,0.391197,5,0.1,25,2.5,-3.89046,-1.79236,0.701271,-0.31963,-0.408318,-0.0147683,0.17193,0.370391,0.00128523,0.0141869,0.124514,5,0.1,26,2.5,-2.50867,3.6867,0.608065,0.86579,0.253705,-0.00626473,-0.00943244,-0.224695,-0.000108033,0.0521086,1.57236,5,0.1,27,2.5,-0.30634,0.134416,0.820603,0.0434398,-0.214911,0.231494,-0.200707,-0.169161,0.290412,0.0137009,0.282294,5,0.1,28,2.5,-2.55767,1.59002,0.59458,0.634128,0.0604913,0.00545671,-0.2148,-0.0625402,-0.00565872,0.0134077,0.268756,5,0.1,29,2.5,-2.10938,-0.283245,0.612135,0.462427,0.344648,-0.00399947,-0.66258,-0.845825,0.00481308,0.0310546,1.21338,5,0.1
0,2.6,-1.22506,3.95077,0.602495,0.435334,0.114864,-0.00286102,0.22459,-0.166655,0.00408292,0.0154365,1.35445,5,0.1,1,2.6,1.58822,-1.73077,0.552687,0.261891,-0.195336,0.00315309,-0.149488,0.111461,-0.00184774,0.0157662,0.0253829,5,0.1,2,2.6,-0.449405,-0.0261862,0.613013,0.0232011,0.0656795,0.0437543,-0.0606477,-1.11709,0.0051558,0.0187942,0.34513,5,0.1,3,2.6,1.07765,1.48106,0.810453,-0.120607,0.333497,0.19784,0.058949,0.0788569,0.169694,0.0210241,0.16193,5,0.1,4,2.6,1.44673,-2.03445,0.61848,-0.205141,0.139159,0.0460297,0.307441,-1.13261,0.114322,0.0120567,0.35143,5,0.1,5,2.6,3.64036,-1.70049,0.578107,-0.055021,0.866026,0.0496849,0.0106096,-5.96046e-05,0.153184,0.0287708,2.26721,5,0.1,6,2.6,3.05486,2.9151,0.602282,0.28826,-0.0765204,-0.00271201,-0.123382,0.243425,0.00172853,0.013214,0.272267,5,0.1,7,2.6,-1.63112,-4.13829,0.66216,-0.851706,-0.115824,0.0134408,0.168264,0.0839233,-0.00980496,0.0148187,0.666793,5,0.1,8,2.6,-1.42341,2.68741,0.665629,0.039959,0.273418,-0.00663698,-0.0321269,-0.219822,0.00533462,0.0200706,0.0136247,5,0.1,9,2.6,-0.490299,0.24324,0.558743,0.0532262,-0.129904,-0.0299886,0.271603,0.307411,0.0682175,0.0240169,0.307133,5,0.1,10,2.6,-2.48108,2.47575,0.59362,0.361633,-0.080061,0.00673383,-0.0886917,0.0562668,-0.00470877,0.0133946,0.0842845,5,0.1,11,2.6,1.20013,1.21207,0.581419,0.00231862,0.247639,-0.00742376,0.0292659,0.061512,0.0514984,0.0162345,0.295936,5,0.1,12,2.6,2.59717,3.5176,0.591834,0.0330269,-0.0809014,0.00978708,-0.266194,0.105977,-0.0127852,0.0158414,0.489814,5,0.1,13,2.6,-1.7239,-0.207093,0.600135,0.145388,0.0524271,-0.000275671,-0.241637,-0.259854,0.000447035,0.0193323,0.422492,5,0.1,14,2.6,-3.09061,-1.26039,0.575623,0.859731,-0.308743,0.0153482,-0.125885,0.0926256,0.0162721,0.0167962,0.803281,5,0.1,15,2.6,0.154651,-3.94153,0.564986,-0.866025,-0.0007689,0.0134215,0,0.000238419,-0.00247359,0.014807,2.27181,5,0.1,16,2.6,-2.86211,-3.43641,0.682064,0.373799,-0.0613093,0.00547171,-0.00679493,0.0392199,-0.00351667,0.0123519,0.0636106,5,0.1,17,2.6,3.44736,0.183975,0.618449,0.00150204,0.866025,-0.0316739,-0.000357628,0,-0.00351667,0.0186593,2.32988,5,0.1,18,2.6,3.5439,1.13372,0.628481,-0.168991,-0.286964,-0.0159994,0.0965595,0.163794,0.00914931,0.0158816,0.0264375,5,0.1,19,2.6,3.79379,0.941326,0.600451,-0.0332415,0.806573,-0.00969321,0.273108,0.204116,-0.00345707,0.015947,1.16704,5,0.1,20,2.6,-3.20046,-3.20193,0.608861,-0.00568628,-0.149077,-0.0134587,-0.0452995,0.18239,0.0164509,0.0152906,1.16913,5,0.1,21,2.6,3.49104,3.51812,0.685018,-0.0868082,0.11645,0.030084,0.170231,-0.227928,-0.0589192,0.0106157,0.000934661,5,0.1,22,2.6,-0.136852,-3.30651,0.597486,-0.222906,0.0505209,0.00343621,0.174023,-0.270009,-0.00268221,0.0360463,0.189707,5,0.1,23,2.6,-2.33957,4.08149,0.623264,0.865453,-0.0248909,-0.0183806,-0.0113249,0.0109673,0.00786781,0.0277038,2.27184,5,0.1,24,2.6,-1.10705,3.44158,0.637417,0.212744,-0.0722468,0.00792593,-0.22465,0.859141,-0.0610054,0.0839095,0.386328,5,0.1,25,2.6,-3.9215,-1.83135,0.699808,-0.300348,-0.371367,-0.0144258,0.220299,0.377834,0.00578165,0.0152778,0.142487,5,0.1,26,2.6,-2.42222,3.71082,0.607439,0.862253,0.227618,-0.00625104,-0.0753403,-0.293732,0.000655651,0.0376108,1.2119,5,0.1,27,2.6,-0.302928,0.112353,0.845082,0.025551,-0.223637,0.256477,-0.155494,-0.00645578,0.194013,0.016324,0.254227,5,0.1,28,2.6,-2.4955,1.59576,0.595097,0.607401,0.0543833,0.00490397,-0.33474,-0.0608563,-0.00548363,0.0120886,0.180036,5,0.1,29,2.6,-2.06637,-0.252991,0.611758,0.398391,0.260907,-0.00354052,-0.623941,-0.816919,0.00450015,0.0174688,0.788476,5,0.1
0,2.7,-1.18107,3.96148,0.602228,0.438329,0.0997983,-0.00249185,-0.145726,-0.137687,0.00337511,0.0154365,1.35445,5,0.1,1,2.7,1.61369,-1.74977,0.552993,0.247499,-0.184604,0.00297586,-0.146285,0.109091,-0.00179186,0.0157662,0.0253829,5,0.1,2,2.7,-0.447247,-0.0253393,0.61751,0.0211709,-0.0490603,0.0469241,0.0119954,-1.13739,0.0502616,0.0187942,0.34513,5,0.1,3,2.7,1.06576,1.51478,0.831149,-0.118184,0.34043,0.216269,0.000521541,0.0451356,0.181668,0.0210241,0.16193,5,0.1,4,2.7,1.42751,-2.02638,0.623656,-0.181376,0.0213623,0.0573775,0.182241,-1.18226,0.107139,0.0120567,0.35143,5,0.1,5,2.7,3.63489,-1.61389,0.583896,-0.0545621,0.866025,0.066356,0.00187755,1.49012e-05,0.170194,0.0287708,2.26721,5,0.1,6,2.7,3.08308,2.90863,0.602019,0.276104,-0.0533041,-0.00255276,-0.128448,0.21781,0.00154227,0.013214,0.272267,5,0.1,7,2.7,-1.71561,-4.14948,0.663458,-0.838514,-0.108083,0.0125371,0.134178,0.0745058,-0.00869483,0.0148187,0.666793,5,0.1,8,2.7,-1.41957,2.71368,0.664991,0.0368401,0.252085,-0.00611898,-0.0312775,-0.213966,0.00519305,0.0200706,0.0136247,5,0.1,9,2.7,-0.483541,0.231301,0.556115,0.0823154,-0.113059,-0.0223408,0.294898,0.0559604,0.081975,0.0240169,0.307133,5,0.1,10,2.7,-2.44526,2.46799,0.594273,0.355324,-0.0754017,0.00634445,-0.0557601,0.0406653,-0.00340119,0.0133946,0.0842845,5,0.1,11,2.7,1.20047,1.23719,0.580927,0.00404324,0.254844,-0.00251122,0.00638515,0.0678003,0.0459403,0.0162345,0.295936,5,0.1,12,2.7,2.59927,3.51002,0.592752,0.0104245,-0.0711188,0.00860607,-0.182256,0.0914931,-0.0110529,0.0158414,0.489814,5,0.1,13,2.7,-1.71053,-0.203103,0.60011,0.122376,0.0280494,-0.000232738,-0.219502,-0.219744,0.000413507,0.0193323,0.422492,5,0.1,14,2.7,-3.00509,-1.29082,0.577231,0.85128,-0.299796,0.0166914,-0.084579,0.0970736,0.0100471,0.0167962,0.803281,5,0.1,15,2.7,0.068049,-3.9416,0.566322,-0.866025,-0.000755489,0.0133215,-2.98023e-07,8.9407e-05,-0.000339001,0.014807,2.27181,5,0.1,16,2.7,-2.8248,-3.44235,0.682595,0.371752,-0.0576939,0.00514789,-0.0467896,0.035122,-0.00314042,0.0123519,0.0636106,5,0.1,17,2.7,3.44735,0.270512,0.615292,-0.00309311,0.863414,-0.0311968,-0.0814646,-0.0779527,0.0126623,0.0186593,2.32988,5,0.1,18,2.7,3.52746,1.10581,0.626925,-0.159696,-0.271195,-0.0151191,0.0944734,0.160269,0.0089407,0.0158816,0.0264375,5,0.1,19,2.7,3.79241,1.02077,0.599403,0.0102837,0.762545,-0.0117648,0.553623,-0.981517,-0.0335872,0.015947,1.16704,5,0.1,20,2.7,-3.20135,-3.21594,0.607596,-0.0122093,-0.131277,-0.0118531,-0.0478327,0.174999,0.0157878,0.0152906,1.16913,5,0.1,21,2.7,3.48319,3.52865,0.687739,-0.0704113,0.0944898,0.0244076,0.157282,-0.210732,-0.0544675,0.0106157,0.000934661,5,0.1,22,2.7,-0.158297,-3.30273,0.597817,-0.206087,0.0261474,0.00317693,0.167515,-0.212297,-0.00258535,0.0360463,0.189707,5,0.1,23,2.7,-2.25303,4.07906,0.621468,0.865705,-0.0236705,-0.0174978,0.00712276,0.0138879,0.0100918,0.0277038,2.27184,5,0.1,24,2.7,-1.08683,3.43877,0.638211,0.192129,0.0163451,0.0105773,-0.193514,0.882119,0.0962131,0.0839095,0.386328,5,0.1,25,2.7,-3.95063,-1.8669,0.698387,-0.283769,-0.342094,-0.0140403,0.129133,0.230215,0.00278279,0.0152778,0.142487,5,0.1,26,2.7,-2.33611,3.73198,0.606814,0.861143,0.194529,-0.00625206,0.00487268,-0.359952,-0.000279397,0.0376108,1.2119,5,0.1,27,2.7,-0.301065,0.0900489,0.871791,0.0125675,-0.221431,0.278047,-0.104446,0.0539482,0.215273,0.016324,0.254227,5,0.1,28,2.7,-2.43635,1.60092,0.595562,0.575717,0.0488829,0.00440879,-0.317782,-0.0507832,-0.00457093,0.0120886,0.180036,5,0.1,29,2.7,-2.02951,-0.230852,0.611424,0.34008,0.183416,-0.00315579,-0.548065,-0.724439,0.00334159,0.0174688,0.788476,5,0.1
0,2.8,-1.13844,3.9708,0.601995,0.409773,0.0868022,-0.00217259,-0.40853,-0.124454,0.00306964,0.0111116,1.30656,5,0.1,1,2.8,1.63766,-1.76765,0.553281,0.231323,-0.172538,0.00277758,-0.182569,0.136137,-0.00217557,0.00832229,0.411167,5,0.1,2,2.8,-0.445005,-0.0356928,0.622474,0.0241682,-0.154859,0.0524119,0.0416636,-0.949519,0.053525,0.00904843,0.242875,5,0.1,3,2.8,1.05392,1.5489,0.853588,-0.118589,0.340086,0.231239,-0.000596046,-0.0616312,0.105619,0.0186787,1.6161,5,0.1,4,2.8,1.41018,-2.02996,0.629881,-0.166163,-0.0901937,0.0665277,0.132918,-1.019,0.072062,0.0267575,0.404392,5,0.1,5,2.8,3.62945,-1.52729,0.591342,-0.0540733,0.866026,0.0819951,0.0101328,-5.96046e-05,0.135362,0.0239845,2.27465,5,0.1,6,2.8,3.10999,2.90433,0.601772,0.261128,-0.033462,-0.00238866,-0.176787,0.177264,0.00184774,0.0146083,0.258467,5,0.1,7,2.8,-1.79859,-4.15991,0.664667,-0.818345,-0.100303,0.0116304,0.295758,0.0836849,-0.00971556,0.0137255,0.464173,5,0.1,8,2.8,-1.41605,2.73778,0.664406,0.0335366,0.229484,-0.00557005,-0.0354648,-0.242352,0.00590086,0.0258323,0.00432581,5,0.1,9,2.8,-0.4739,0.220039,0.554294,0.109572,-0.113998,-0.0140846,0.239193,-0.0540614,0.0810325,0.0182756,0.25043,5,0.1,10,2.8,-2.41007,2.46065,0.59489,0.34737,-0.0712872,0.00599921,-0.115871,0.0444651,-0.00369549,0.0315546,0.18592,5,0.1,11,2.8,1.20087,1.26293,0.580891,0.00382364,0.258699,0.00162572,-0.00977516,-0.00107288,0.0362694,0.0190405,0.711343,5,0.1,12,2.8,2.59957,3.50335,0.593559,-0.00299811,-0.0622928,0.0075385,-0.0852346,0.0863075,-0.0104308,0.017888,0.697513,5,0.1,13,2.8,-1.69936,-0.20128,0.600088,0.101337,0.00969321,-0.000192225,-0.201881,-0.143178,0.000357628,0.0312151,3.68466,5,0.1,14,2.8,-2.9206,-1.32023,0.578936,0.835806,-0.287533,0.0172719,-0.253677,0.155389,0.0012517,0.0142779,0.56145,5,0.1,15,2.8,-0.0185536,-3.94168,0.56765,-0.866026,-0.000745058,0.0132143,3.57628e-06,0.000238419,-0.00238419,0.00985027,2.27181,5,0.1,16,2.8,-2.788,-3.44794,0.683093,0.362355,-0.0539422,0.00481308,-0.149369,0.0411272,-0.00366569,0.018625,0.0433717,5,0.1,17,2.8,3.44656,0.356145,0.61226,-0.0129998,0.845453,-0.0292242,-0.108838,-0.305355,0.0262856,0.0253683,2.64388,5,0.1,18,2.8,3.512,1.07955,0.625461,-0.149256,-0.253472,-0.0141308,0.117898,0.199974,0.0111461,0.0222155,0.318674,5,0.1,19,2.8,3.79638,1.09086,0.598038,0.0697672,0.629002,-0.0156373,0.602245,-1.60527,-0.0404716,0.0221018,3.08094,5,0.1,20,2.8,-3.20259,-3.2282,0.606489,-0.00995994,-0.113857,-0.0102818,0.1086,0.174284,0.0157356,0.0292816,3.55276,5,0.1,21,2.8,3.47691,3.53708,0.689915,-0.0554204,0.0744045,0.019215,0.142217,-0.190496,-0.0492334,0.0310364,0.000798645,5,0.1,22,2.8,-0.178045,-3.30104,0.598121,-0.188548,0.00879765,0.00290722,0.186652,-0.132322,-0.00289083,0.0185743,3.5046,5,0.1,23,2.8,-2.16643,4.07677,0.619774,0.866026,-0.0220537,-0.0163138,0,0.0185966,0.0137985,0.0364223,2.27279,5,0.1,24,2.8,-1.06857,3.44464,0.639889,0.173047,0.098896,0.0239909,-0.192285,0.746846,0.158101,0.0525751,0.255026,5,0.1,25,2.8,-3.97839,-1.90005,0.696997,-0.27144,-0.321388,-0.013721,0.130534,0.20057,0.00423193,0.0161823,0.0827473,5,0.1,26,2.8,-2.25017,3.74958,0.606189,0.855017,0.157106,-0.0062421,-0.161171,-0.381708,0.000804663,0.0492247,0.916368,5,0.1,27,2.8,-0.30025,0.0682969,0.900559,0.00451058,-0.212351,0.295766,-0.0579357,0.12926,0.123471,0.025731,0.417482,5,0.1,28,2.8,-2.38047,1.60556,0.595981,0.540692,0.0439435,0.00396371,-0.395298,-0.0490546,-0.00438094,0.0234715,0.119719,5,0.1,29,2.8,-1.99816,-0.215924,0.611124,0.287789,0.117384,-0.00284612,-0.501931,-0.591032,0.00298023,0.0173621,0.485436,5,0.1
0,2.9,-1.10004,3.97891,0.601792,0.354093,0.0756588,-0.00189766,-0.665046,-0.100955,0.00248849,0.0111116,1.30656,5,0.1,1,2.9,1.66019,-1.78332,0.553345,0.221649,-0.133328,-0.00321316,-0.0340417,0.5937,-0.104766,0.00832229,0.411167,5,0.1,2,2.9,-0.442357,-0.0557738,0.62808,0.0289122,-0.24457,0.0604219,0.049537,-0.818935,0.0967495,0.00904843,0.242875,5,0.1,3,2.9,1.04082,1.58193,0.876871,-0.153681,0.314791,0.231008,-0.618361,-0.414133,-0.0994243,0.0186787,1.6161,5,0.1,4,2.9,1.39396,-2.04267,0.636657,-0.160258,-0.151324,0.0668765,0.00460446,-0.25785,-0.054922,0.0267575,0.404392,5,0.1,5,2.9,3.62401,-1.44069,0.600003,-0.0551261,0.866025,0.0892238,-0.0246465,1.49012e-05,0.0154041,0.0239845,2.27465,5,0.1,6,2.9,3.13522,2.90179,0.601542,0.243443,-0.0182487,-0.00221105,-0.182301,0.127316,0.00176206,0.0146083,0.258467,5,0.1,7,2.9,-1.87906,-4.16955,0.665784,-0.791607,-0.092604,0.0107368,0.270322,0.0733435,-0.00850856,0.0137255,0.464173,5,0.1,8,2.9,-1.41287,2.75952,0.663879,0.0299824,0.205193,-0.00497876,-0.035964,-0.245854,0.00597909,0.0258323,0.00432581,5,0.1,9,2.9,-0.461744,0.208034,0.5533,0.133263,-0.128773,-0.0057634,0.222802,-0.21407,0.0828877,0.0182756,0.25043,5,0.1,10,2.9,-2.37571,2.45376,0.595471,0.341476,-0.0665411,0.00560358,-0.0256002,0.0513792,-0.00429153,0.0315546,0.18592,5,0.1,11,2.9,1.20129,1.28897,0.581226,0.00491813,0.263454,0.00497084,0.0210702,0.074476,0.0300184,0.0190405,0.711343,5,0.1,12,2.9,2.59885,3.49752,0.594264,-0.0105016,-0.0544287,0.00658743,-0.0414848,0.0725091,-0.00877678,0.017888,0.697513,5,0.1,13,2.9,-1.68904,-0.201224,0.600071,0.115107,-0.00890731,-0.000158139,0.404045,-0.166787,0.000327826,0.0312151,3.68466,5,0.1,14,2.9,-2.83816,-1.34824,0.580665,0.813306,-0.272791,0.017255,-0.229821,0.148356,-0.00204891,0.0142779,0.56145,5,0.1,15,2.9,-0.105156,-3.94175,0.568965,-0.866025,-0.000731647,0.0131197,-2.98023e-07,8.9407e-05,-0.000312924,0.00985027,2.27181,5,0.1,16,2.9,-2.75247,-3.45315,0.683558,0.348459,-0.0503123,0.00448944,-0.142097,0.033617,-0.00299141,0.018625,0.0433717,5,0.1,17,2.9,3.44455,0.438517,0.609455,-0.0285897,0.795928,-0.026975,-0.188425,-0.668811,0.0199303,0.0253683,2.64388,5,0.1,18,2.9,3.49692,1.05548,0.62421,-0.158328,-0.225457,-0.00998508,-0.250116,0.346676,0.0652224,0.0222155,0.318674,5,0.1,19,2.9,3.8052,1.14797,0.596327,0.0963237,0.532555,-0.0180921,-0.0186712,-0.440896,-0.0101998,0.0221018,3.08094,5,0.1,20,2.9,-3.20304,-3.23949,0.605592,0.0048928,-0.118428,-0.00722958,0.320077,-0.217617,0.0419505,0.0292816,3.55276,5,0.1,21,2.9,3.47205,3.5436,0.6916,-0.0420306,0.0564639,0.0145786,0.125155,-0.167742,-0.0433475,0.0310364,0.000798645,5,0.1,22,2.9,-0.197294,-3.30099,0.598396,-0.207531,-0.0078585,0.00258088,-0.480708,-0.147536,-0.00358373,0.0185743,3.5046,5,0.1,23,2.9,-2.07983,4.07454,0.61821,0.866026,-0.0236429,-0.0149787,0,-0.0424087,0.0132509,0.0364223,2.27279,5,0.1,24,2.9,-1.05233,3.45821,0.642886,0.151088,0.171251,0.0341972,-0.241943,0.677168,0.0523776,0.0525751,0.255026,5,0.1,25,2.9,-4.00496,-1.93131,0.695644,-0.260314,-0.304794,-0.0133445,0.103652,0.146255,0.00385568,0.0161823,0.0827473,5,0.1,26,2.9,-2.16536,3.76339,0.605568,0.841399,0.119271,-0.00618622,-0.147656,-0.37007,0.000603497,0.0492247,0.916368,5,0.1,27,2.9,-0.300051,0.0487114,0.9301,-0.000162516,-0.170837,0.289187,-0.0363402,0.641892,-0.229318,0.025731,0.417482,5,0.1,28,2.9,-2.32828,1.60973,0.596357,0.503699,0.0395264,0.00356883,-0.36028,-0.0406504,-0.00363588,0.0234715,0.119719,5,0.1,29,2.9,-1.97176,-0.206867,0.610852,0.241314,0.0664319,-0.0026254,-0.431821,-0.430494,0.00163168,0.0173621,0.485436,5,0.1
0,3,-1.06811,3.98599,0.601615,0.283626,0.0661671,-0.00166297,-0.715792,-0.0907183,0.00226498,0.0166044,0.948039,5,0.1,1,3,1.68227,-1.7933,0.552418,0.220466,-0.0634968,-0.0158891,-0.00697374,0.760257,-0.13873,0.0201997,0.0572834,5,0.1,2,3,-0.43923,-0.0839368,0.63461,0.0334419,-0.314353,0.070034,0.0384301,-0.559561,0.0881851,0.0175346,0.185043,5,0.1,3,3,1.0219,1.61097,0.899211,-0.227579,0.262755,0.213404,-0.795722,-0.601768,-0.243008,0.0233769,1.31265,5,0.1,4,3,1.37788,-2.0582,0.64293,-0.161842,-0.15167,0.0573933,-0.0217557,0.206113,-0.126332,0.0157855,0.270272,5,0.1,5,3,3.61837,-1.35408,0.608847,-0.0578582,0.866026,0.0862435,-0.0252724,-5.96046e-05,-0.0695288,0.0263613,2.27092,5,0.1,6,3,3.15861,2.90052,0.60133,0.223792,-0.00788569,-0.00202656,-0.214219,0.0809431,0.00196695,0.0135734,0.455506,5,0.1,7,3,-1.95671,-4.17844,0.666815,-0.759009,-0.0851274,0.00986904,0.402987,0.0784397,-0.00905991,0.0122517,0.316891,5,0.1,8,3,-1.41005,2.77878,0.663411,0.0262916,0.179964,-0.00436604,-0.0379682,-0.259876,0.00634789,0.0278605,0.00131112,5,0.1,9,3,-0.447411,0.194007,0.553125,0.152131,-0.152008,0.00206083,0.146374,-0.229947,0.0717342,0.0167482,0.195091,5,0.1,10,3,-2.3417,2.44738,0.596008,0.338185,-0.0608683,0.00512898,-0.0571012,0.0623465,-0.00527501,0.0324963,0.137153,5,0.1,11,3,1.20187,1.31567,0.581858,0.00634193,0.269854,0.00752956,0.000953674,0.0377297,0.0207722,0.0180636,0.654906,5,0.1,12,3,2.5978,3.49243,0.59488,-0.00811815,-0.0475168,0.00575185,0.0971556,0.066638,-0.00810623,0.0248781,0.647148,5,0.1,13,3,-1.67501,-0.202612,0.600057,0.169128,-0.0147112,-0.00012666,0.619411,0.0781938,0.000268221,0.0251765,3.35004,5,0.1,14,3,-2.75816,-1.37473,0.582372,0.784206,-0.256374,0.0167906,-0.375152,0.186026,-0.00753999,0.0147443,0.384269,5,0.1,15,3,-0.191759,-3.94182,0.570274,-0.866025,-0.000721216,0.0130162,0,0.000119209,-0.00235438,0.0157503,2.27181,5,0.1,16,3,-2.71841,-3.45801,0.683992,0.331676,-0.0468552,0.00418276,-0.202417,0.0368357,-0.00330806,0.0314791,0.0178452,5,0.1,17,3,3.44072,0.514281,0.606855,-0.0481427,0.714904,-0.025028,-0.19145,-0.935853,0.0199378,0.0133772,3.04253,5,0.1,18,3,3.47957,1.03481,0.623583,-0.19058,-0.186622,-0.00225306,-0.357032,0.418663,0.0843406,0.00877722,0.229542,5,0.1,19,3,3.81407,1.20015,0.594506,0.075531,0.519902,-0.0179723,-0.354767,0.0959635,0.0111759,0.0246145,2.73519,5,0.1,20,3,-3.2,-3.25274,0.605099,0.0651658,-0.148851,-0.00248998,0.864983,-0.353336,0.0502467,0.0193596,3.11767,5,0.1,21,3,3.46844,3.54845,0.692852,-0.030458,0.0409484,0.0105694,0.105977,-0.142217,-0.0367463,0.00978383,0.000609594,5,0.1,22,3,-0.220971,-3.30221,0.598636,-0.269512,-0.0130355,0.0022009,-0.692755,0.0674725,-0.00399351,0.0199942,3.1689,5,0.1,23,3,-1.99323,4.07192,0.61678,0.866026,-0.0291228,-0.0136077,-5.96046e-05,-0.0607967,0.0144243,0.0360465,2.27117,5,0.1,24,3,-1.03847,3.47845,0.646437,0.125575,0.230443,0.0356391,-0.264168,0.490904,-0.0181496,0.0613543,0.187764,5,0.1,25,3,-4.03044,-1.96105,0.694332,-0.248718,-0.289586,-0.0128582,0.13566,0.168622,0.00628829,0.0141326,0.064085,5,0.1,26,3,-2.08218,3.77352,0.604954,0.819349,0.0839531,-0.00607222,-0.318289,-0.332594,0.00190735,0.062909,0.692742,5,0.1,27,3,-0.300218,0.0352806,0.957467,-0.00291318,-0.0945392,0.254631,-0.0194162,0.837511,-0.44027,0.0410141,0.300813,5,0.1,28,3,-2.27976,1.61348,0.596696,0.465989,0.035584,0.00321716,-0.404477,-0.0392795,-0.00357628,0.0167801,0.136557,5,0.1,29,3,-1.9497,-0.20213,0.610597,0.200689,0.0306848,-0.00248551,-0.383854,-0.287943,0.0013113,0.0266075,0.657207,5,0.1
0,3.1,-1.04337,3.99219,0.601459,0.211803,0.0581063,-0.00146171,-0.678457,-0.0725985,0.00181422,0.0166044,0.948039,5,0.1,1,3.1,1.70405,-1.79657,0.550298,0.21298,-0.008603,-0.0250334,-0.136912,0.364326,-0.0497848,0.0201997,0.0572834,5,0.1,2,3.1,-0.435761,-0.118027,0.642114,0.0353211,-0.365495,0.0804089,0.000869855,-0.442437,0.109978,0.0175346,0.185043,5,0.1,3,3.1,0.994699,1.63401,0.9192,-0.319497,0.196514,0.185206,-0.979949,-0.701271,-0.313465,0.0233769,1.31265,5,0.1,4,3.1,1.36177,-2.07154,0.647912,-0.158424,-0.10845,0.0412609,0.0859797,0.606,-0.186548,0.0157855,0.270272,5,0.1,5,3.1,3.61241,-1.26748,0.617044,-0.0615444,0.866025,0.0769744,-0.0426322,1.49012e-05,-0.112101,0.0263613,2.27092,5,0.1,6,3.1,3.18005,2.90014,0.601137,0.206022,0.000284612,-0.00182465,-0.151843,0.074774,0.00207871,0.0135734,0.455506,5,0.1,7,3.1,-2.03071,-4.18658,0.667759,-0.721705,-0.0779405,0.00903886,0.368796,0.0678301,-0.00783801,0.0122517,0.316891,5,0.1,8,3.1,-1.40761,2.79549,0.663006,0.0225324,0.154237,-0.00373842,-0.0372231,-0.254735,0.00620261,0.0278605,0.00131112,5,0.1,9,3.1,-0.431486,0.177532,0.553683,0.165926,-0.178197,0.0089949,0.120251,-0.272904,0.0650808,0.0167482,0.195091,5,0.1,10,3.1,-2.30805,2.4416,0.596495,0.335273,-0.0547703,0.0046134,-0.0197887,0.0604838,-0.0051111,0.0324963,0.137153,5,0.1,11,3.1,1.20255,1.34292,0.582708,0.00726897,0.275615,0.009376,-0.00492483,0.0604689,0.0156835,0.0180636,0.654906,5,0.1,12,3.1,2.59763,3.48799,0.595418,0.00730976,-0.0415068,0.00502057,0.248462,0.054881,-0.00667572,0.0248781,0.647148,5,0.1,13,3.1,-1.65452,-0.203356,0.600045,0.244077,0.00534416,-0.000101607,0.823557,0.398802,0.000234693,0.0251765,3.35004,5,0.1,14,3.1,-2.6815,-1.39949,0.584013,0.749562,-0.238946,0.016002,-0.345126,0.169985,-0.00862777,0.0147443,0.384269,5,0.1,15,3.1,-0.278361,-3.9419,0.571569,-0.866025,-0.000717118,0.0129214,8.9407e-07,-1.49012e-05,-0.000331551,0.0157503,2.27181,5,0.1,16,3.1,-2.68627,-3.46251,0.684394,0.310763,-0.0432767,0.00386201,-0.222281,0.0358224,-0.00320375,0.0314791,0.0178452,5,0.1,17,3.1,3.43542,0.580886,0.604401,-0.0536092,0.61547,-0.0244718,0.0599325,-1.03986,-0.00520796,0.0133772,3.04253,5,0.1,18,3.1,3.45852,1.01794,0.623791,-0.231642,-0.153653,0.00646627,-0.432462,0.255033,0.0867583,0.00877722,0.229542,5,0.1,19,3.1,3.81932,1.25376,0.592788,0.0253301,0.561281,-0.016167,-0.60828,0.635944,0.0238046,0.0246145,2.73519,5,0.1,20,3.1,-3.1883,-3.26962,0.605104,0.175277,-0.190381,0.00257799,1.25416,-0.445843,0.0494979,0.0193596,3.11767,5,0.1,21,3.1,3.46589,3.55187,0.693735,-0.0207361,0.0278987,0.00719782,0.0882298,-0.118464,-0.0305995,0.00978383,0.000609594,5,0.1,22,3.1,-0.251944,-3.30289,0.598836,-0.353789,0.00436865,0.00181142,-0.925739,0.346348,-0.00378489,0.0199942,3.1689,5,0.1,23,3.1,-1.90663,4.06864,0.615487,0.866025,-0.0368111,-0.0122985,1.49012e-05,-0.0862181,0.0121668,0.0360465,2.27117,5,0.1,24,3.1,-1.02724,3.50385,0.649822,0.0991117,0.276066,0.0313118,-0.261784,0.403672,-0.0637323,0.0613543,0.187764,5,0.1,25,3.1,-4.05472,-1.9893,0.693074,-0.237578,-0.276287,-0.0123238,0.0993013,0.112794,0.00497699,0.0141326,0.064085,5,0.1,26,3.1,-2.00177,3.78033,0.604355,0.78875,0.0530392,-0.00589201,-0.32077,-0.283718,0.00191107,0.062909,0.692742,5,0.1,27,3.1,-0.300586,0.0302958,0.980495,-0.00423254,-0.00336414,0.204061,-0.00760891,0.946167,-0.55303,0.0410141,0.300813,5,0.1,28,3.1,-2.23484,1.61688,0.597003,0.435015,0.0325695,0.0029427,-0.242949,-0.0233054,-0.00211969,0.0167801,0.136557,5,0.1,29,3.1,-1.93085,-0.200294,0.610348,0.182305,0.0081402,-0.0025481,-0.0243783,-0.162683,-0.00207126,0.0266075,0.657207,5,0.1
0,3.2,-1.02526,3.99765,0.601321,0.154108,0.0512779,-0.00129044,-0.455916,-0.0654459,0.00160933,0.0203924,0.879843,5,0.1,1,3.2,1.72449,-1.79609,0.547654,0.194225,0.0142038,-0.0268772,-0.232697,0.113249,0.00828505,0.0127825,0.0282691,5,0.1,2,3.2,-0.432274,-0.156457,0.650678,0.0339448,-0.399406,0.0904217,-0.0268221,-0.222266,0.0835359,0.00995567,0.15869,5,0.1,3,3.2,0.957969,1.65014,0.936089,-0.412703,0.126353,0.152083,-0.83822,-0.685215,-0.342816,0.0210756,1.03637,5,0.1,4,3.2,1.34651,-2.07905,0.651073,-0.14548,-0.0397265,0.0218078,0.168681,0.727892,-0.195056,0.0168512,0.188994,5,0.1,5,3.2,3.60605,-1.18088,0.624136,-0.0653744,0.866026,0.0645116,-0.0299215,-5.96046e-05,-0.134021,0.0223443,2.26947,5,0.1,6,3.2,3.19992,2.90049,0.600966,0.191581,0.00587106,-0.00160933,-0.144839,0.0329018,0.00223517,0.00999093,3.5943,5,0.1,7,3.2,-2.10093,-4.19404,0.668624,-0.680923,-0.0711441,0.00825077,0.46432,0.0703335,-0.00807643,0.0132127,0.213803,5,0.1,8,3.2,-1.40555,2.80965,0.662663,0.01885,0.12905,-0.00312626,-0.0362992,-0.249028,0.00607967,0.0163368,0.000716557,5,0.1,9,3.2,-0.414397,0.158418,0.554884,0.174634,-0.202987,0.0147626,0.0476986,-0.207812,0.0489652,0.0145898,0.145266,5,0.1,10,3.2,-2.27469,2.43642,0.596931,0.33105,-0.0486314,0.00409484,-0.0778437,0.0628233,-0.00527501,0.0120177,0.169865,5,0.1,11,3.2,1.20311,1.37071,0.583712,0.00221729,0.279048,0.0105888,-0.104845,-0.00375509,0.00834465,0.0111048,0.58332,5,0.1,12,3.2,2.6,3.4841,0.595888,0.0436783,-0.0363111,0.00438988,0.46277,0.0498295,-0.00607967,0.0138871,0.559053,5,0.1,13,3.2,-1.62603,-0.2,0.600036,0.324097,0.0695534,-7.89762e-05,0.735343,0.854537,0.000178814,0.0179471,2.92192,5,0.1,14,3.2,-2.6084,-1.42251,0.585565,0.710571,-0.221127,0.015004,-0.453234,0.191391,-0.0116229,0.0171896,0.259564,5,0.1,15,3.2,-0.364964,-3.94197,0.572857,-0.866025,-0.000715256,0.0128165,-1.43051e-05,0.000119209,-0.00235438,0.0137396,2.27182,5,0.1,16,3.2,-2.65638,-3.46666,0.684763,0.286192,-0.0395179,0.00352561,-0.272989,0.0402927,-0.00357628,0.0102689,0.00965603,5,0.1,17,3.2,3.43062,0.637153,0.60191,-0.0401676,0.509347,-0.0254348,0.190973,-1.07142,-0.0112653,0.0207272,3.26469,5,0.1,18,3.2,3.43328,1.00367,0.624854,-0.2716,-0.133069,0.0145346,-0.343919,0.167906,0.072211,0.00868077,0.551833,5,0.1,19,3.2,3.81867,1.31331,0.591304,-0.038892,0.630334,-0.0134185,-0.644684,0.673234,0.0302196,0.020619,2.33364,5,0.1,20,3.2,-3.16442,-3.29083,0.605597,0.301439,-0.232571,0.00713468,1.20687,-0.375032,0.0404418,0.0163002,2.84103,5,0.1,21,3.2,3.46423,3.55411,0.694313,-0.0128448,0.0173032,0.00445992,0.0696182,-0.0935793,-0.0241399,0.0162374,0.000359057,5,0.1,22,3.2,-0.291882,-3.3,0.598999,-0.443016,0.0601292,0.0014469,-0.809416,0.741839,-0.00348687,0.0217823,2.77921,5,0.1,23,3.2,-1.82002,4.06453,0.614316,0.866026,-0.0451803,-0.0111043,-5.96046e-05,-0.0765324,0.0119805,0.0365073,2.30529,5,0.1,24,3.2,-1.01861,3.53321,0.652591,0.0738025,0.308222,0.0237331,-0.241816,0.22769,-0.0841022,0.0403155,0.131516,5,0.1,25,3.2,-4.07797,-2.01635,0.691868,-0.22682,-0.264388,-0.011766,0.124693,0.135899,0.00664592,0.0236698,0.02903,5,0.1,26,3.2,-1.92468,3.78431,0.603777,0.750676,0.0275135,-0.0056535,-0.458837,-0.225425,0.00301003,0.0413829,0.525088,5,0.1,27,3.2,-0.301032,0.0345994,0.998074,-0.00455379,0.087767,0.147255,0.00064075,0.847008,-0.568956,0.0365865,1.33356,5,0.1,28,3.2,-2.19247,1.62003,0.597287,0.41256,0.0305265,0.0027582,-0.226617,-0.0193119,-0.00175834,0.0269183,0.122656,5,0.1,29,3.2,-1.91242,-0.200101,0.61008,0.188607,-0.00252686,-0.00281185,0.118911,-0.0576898,-0.00286102,0.0316453,0.854772,5,0.1
