id,t,px,py,pz,vx,vy,vz,ax,ay,az,planning_time,qp_cost,planning_report,size,id,t,px,py,pz,vx,vy,vz,ax,ay,az,planning_time,qp_cost,planning_report,size,id,t,px,py,pz,vx,vy,vz,ax,ay,az,planning_time,qp_cost,planning_report,size,id,t,px,py,pz,vx,vy,vz,ax,ay,az,planning_time,qp_cost,planning_report,size,id,t,px,py,pz,vx,vy,vz,ax,ay,az,planning_time,qp_cost,planning_report,size,id,t,px,py,pz,vx,vy,vz,ax,ay,az,planning_time,qp_cost,planning_report,size,id,t,px,py,pz,vx,vy,vz,ax,ay,az,planning_time,qp_cost,planning_report,size,id,t,px,py,pz,vx,vy,vz,ax,ay,az,planning_time,qp_cost,planning_report,size,id,t,px,py,pz,vx,vy,vz,ax,ay,az,planning_time,qp_cost,planning_report,size,id,t,px,py,pz,vx,vy,vz,ax,ay,az,planning_time,qp_cost,planning_report,size,id,t,px,py,pz,vx,vy,vz,ax,ay,az,planning_time,qp_cost,planning_report,size,id,t,px,py,pz,vx,vy,vz,ax,ay,az,planning_time,qp_cost,planning_report,size,id,t,px,py,pz,vx,vy,vz,ax,ay,az,planning_time,qp_cost,planning_report,size,id,t,px,py,pz,vx,vy,vz,ax,ay,az,planning_time,qp_cost,planning_report,size,id,t,px,py,pz,vx,vy,vz,ax,ay,az,planning_time,qp_cost,planning_report,size,id,t,px,py,pz,vx,vy,vz,ax,ay,az,planning_time,qp_cost,planning_report,size,id,t,px,py,pz,vx,vy,vz,ax,ay,az,planning_time,qp_cost,planning_report,size,id,t,px,py,pz,vx,vy,vz,ax,ay,az,planning_time,qp_cost,planning_report,size,id,t,px,py,pz,vx,vy,vz,ax,ay,az,planning_time,qp_cost,planning_report,size,id,t,px,py,pz,vx,vy,vz,ax,ay,az,planning_time,qp_cost,planning_report,size,id,t,px,py,pz,vx,vy,vz,ax,ay,az,planning_time,qp_cost,planning_report,size,id,t,px,py,pz,vx,vy,vz,ax,ay,az,planning_time,qp_cost,planning_report,size,id,t,px,py,pz,vx,vy,vz,ax,ay,az,planning_time,qp_cost,planning_report,size,id,t,px,py,pz,vx,vy,vz,ax,ay,az,planning_time,qp_cost,planning_report,size,id,t,px,py,pz,vx,vy,vz,ax,ay,az,planning_time,qp_cost,planning_report,size,id,t,px,py,pz,vx,vy,vz,ax,ay,az,planning_time,qp_cost,planning_report,size,id,t,px,py,pz,vx,vy,vz,ax,ay,az,planning_time,qp_cost,planning_report,size,id,t,px,py,pz,vx,vy,vz,ax,ay,az,planning_time,qp_cost,planning_report,size,id,t,px,py,pz,vx,vy,vz,ax,ay,az,planning_time,qp_cost,planning_report,size,id,t,px,py,pz,vx,vy,vz,ax,ay,az,planning_time,qp_cost,planning_report,size
0,0,-1.31975,-2.67682,0.592533,0,0,0,0,0,0,0.00800089,3.51219,5,0.1,1,0,4.29582,3.03275,0.684607,0,0,0,0,0,0,0.0162526,2.6809,5,0.1,2,0,-3.9053,-4.24023,0.615094,0,0,0,0,0,0,0.0144732,3.5122,5,0.1,3,0,2.23726,-4.09289,0.689208,0,0,0,0,0,0,0.00912072,3.5122,5,0.1,4,0,1.39073,4.2593,0.690753,0,0,0,0,0,0,0.0126286,3.5122,5,0.1,5,0,4.08634,-0.657516,0.621491,0,0,0,0,0,0,0.0153556,3.5122,5,0.1,6,0,-0.988452,0.0263119,0.530434,0,0,0,0,0,0,0.0315015,2.15999,5,0.1,7,0,1.45879,2.84459,0.684993,0,0,0,0,0,0,0.0168628,3.5122,5,0.1,8,0,0.305663,2.9409,0.56439,0,0,0,0,0,0,0.00964054,1.58259,5,0.1,9,0,-4.12245,-3.03352,0.660034,0,0,0,0,0,0,0.00743754,3.5122,5,0.1,10,0,3.93566,1.47839,0.591559,0,0,0,0,0,0,0.0149265,2.57498,5,0.1,11,0,1.05583,3.32372,0.568303,0,0,0,0,0,0,0.00981413,1.33543,5,0.1,12,0,-0.0928226,-0.653448,0.663311,0,0,0,0,0,0,0.00844319,0.416129,5,0.1,13,0,-1.68094,-1.42124,0.534538,0,0,0,0,0,0,0.0137991,3.5122,5,0.1,14,0,-3.08597,-1.37798,0.541141,0,0,0,0,0,0,0.0351725,3.51219,5,0.1,15,0,1.99651,-0.987461,0.664489,0,0,0,0,0,0,0.0123936,3.5122,5,0.1,16,0,3.80677,4.21476,0.625992,0,0,0,0,0,0,0.0115672,0.892867,5,0.1,17,0,3.75572,-1.26557,0.691294,0,0,0,0,0,0,0.0163678,3.51219,5,0.1,18,0,3.4963,-1.97279,0.639145,0,0,0,0,0,0,0.0146957,3.5122,5,0.1,19,0,-4.11585,-0.39305,0.562744,0,0,0,0,0,0,0.0153361,3.5122,5,0.1,20,0,-1.34554,1.20211,0.649429,0,0,0,0,0,0,0.00812958,1.98523,5,0.1,21,0,-0.288167,-3.43123,0.678802,0,0,0,0,0,0,0.0215921,3.6162,5,0.1,22,0,-1.94769,-0.731096,0.507237,0,0,0,0,0,0,0.0100228,0.550009,5,0.1,23,0,3.70033,-3.65089,0.612112,0,0,0,0,0,0,0.00775108,0.720207,5,0.1,24,0,-2.87613,-0.584446,0.575482,0,0,0,0,0,0,0.0133773,1.48631,5,0.1,25,0,1.66822,-0.222254,0.638306,0,0,0,0,0,0,0.0126982,3.5122,5,0.1,26,0,1.54581,-2.02125,0.593116,0,0,0,0,0,0,0.0117894,1.46949,5,0.1,27,0,0.795367,-4.14883,0.632258,0,0,0,0,0,0,0.0252982,1.16082,5,0.1,28,0,-1.61118,-3.74726,0.629127,0,0,0,0,0,0,0.00962914,3.51219,5,0.1,29,0,1.80435,3.77809,0.574473,0,0,0,0,0,0,0.0099026,2.72104,5,0.1
0,0.1,-1.31983,-2.67474,0.592516,-0.00238679,0.059218,-0.000474881,-0.0424385,1.05277,-0.00844523,0.00800089,3.51219,5,0.1,1,0.1,4.294,3.03272,0.684675,-0.0517368,-0.000970811,0.00193771,-0.919759,-0.0172555,0.0344515,0.0162526,2.6809,5,0.1,2,0.1,-3.90509,-4.23816,0.615089,0.00605844,0.0589587,-0.000151061,0.107691,1.04812,-0.00268966,0.0144732,3.5122,5,0.1,3,0.1,2.23651,-4.09094,0.68926,-0.0213832,0.0552565,0.00146497,-0.380129,0.982344,0.0260472,0.00912072,3.5122,5,0.1,4,0.1,1.38984,4.25741,0.690809,-0.0251221,-0.0536583,0.00158213,-0.44661,-0.953883,0.0281259,0.0126286,3.5122,5,0.1,5,0.1,4.0859,-0.655475,0.62148,-0.0124566,0.0579432,-0.000340398,-0.221461,1.0301,-0.0060536,0.0153556,3.5122,5,0.1,6,0.1,-0.987576,0.0276937,0.530507,0.0248468,0.0392264,0.00206148,0.441719,0.697358,0.0366457,0.0315015,2.15999,5,0.1,7,0.1,1.45703,2.84348,0.685053,-0.0502197,-0.0314299,0.00171037,-0.892796,-0.558749,0.0304021,0.0168628,3.5122,5,0.1,8,0.1,0.304874,2.94206,0.564427,-0.0223934,0.0328671,0.00105537,-0.398107,0.584319,0.0187606,0.00964054,1.58259,5,0.1,9,0.1,-4.12261,-3.03144,0.660012,-0.00449419,0.0590943,-0.000606943,-0.0799298,1.05056,-0.0107922,0.00743754,3.5122,5,0.1,10,0.1,3.93484,1.47998,0.591568,-0.0232827,0.0450918,0.000250153,-0.41391,0.80163,0.004448,0.0149265,2.57498,5,0.1,11,0.1,1.0552,3.3226,0.568336,-0.0179535,-0.0318184,0.000939332,-0.319175,-0.565648,0.0166968,0.00981413,1.33543,5,0.1,12,0.1,-0.0930388,-0.652766,0.663245,-0.00613952,0.0193643,-0.00187606,-0.109147,0.34425,-0.0333562,0.00844319,0.416129,5,0.1,13,0.1,-1.679,-1.42049,0.534582,0.0552202,0.0214914,0.00125468,0.981696,0.382073,0.022307,0.0137991,3.5122,5,0.1,14,0.1,-3.08444,-1.37655,0.541171,0.0434138,0.0403386,0.000870228,0.771791,0.717133,0.0154674,0.0351725,3.51219,5,0.1,15,0.1,1.99444,-0.987193,0.664464,-0.0587709,0.007628,-0.000715628,-1.04481,0.135612,-0.0127256,0.0123936,3.5122,5,0.1,16,0.1,3.80608,4.21396,0.625965,-0.0194617,-0.0226632,-0.000770018,-0.346005,-0.402868,-0.0136942,0.0115672,0.892867,5,0.1,17,0.1,3.7555,-1.26349,0.691322,-0.00629574,0.0589274,0.000810996,-0.111938,1.0476,0.0144169,0.0163678,3.51219,5,0.1,18,0.1,3.49628,-1.9707,0.639126,-0.000628084,0.0592625,-0.000530388,-0.0111461,1.05356,-0.00942871,0.0146957,3.5122,5,0.1,19,0.1,-4.11387,-0.393725,0.562761,0.056079,-0.0191702,0.000507478,0.996947,-0.340803,0.00902638,0.0153361,3.5122,5,0.1,20,0.1,-1.34398,1.20227,0.649378,0.044319,0.00438243,-0.00146488,0.787884,0.0779182,-0.0260435,0.00812958,1.98523,5,0.1,21,0.1,-0.288174,-3.43011,0.678845,-0.000204425,0.0318881,0.00122953,-0.00363216,0.566915,0.02186,0.0215921,3.6162,5,0.1,22,0.1,-1.94738,-0.730333,0.507178,0.00882205,0.0216654,-0.00169612,0.156842,0.385158,-0.0301525,0.0100228,0.550009,5,0.1,23,0.1,3.70105,-3.65149,0.612004,0.0205651,-0.0169698,-0.00306554,0.365585,-0.301704,-0.054501,0.00775108,0.720207,5,0.1,24,0.1,-2.87485,-0.583993,0.575508,0.036335,0.0128743,0.000726338,0.645965,0.228878,0.0129156,0.0133773,1.48631,5,0.1,25,0.1,1.66622,-0.22283,0.638291,-0.0569614,-0.0163692,-0.000439305,-1.01265,-0.291009,-0.00780448,0.0126982,3.5122,5,0.1,26,0.1,1.5456,-2.02259,0.593123,-0.00580307,-0.0378948,0.000204053,-0.103153,-0.673667,0.00362471,0.0117894,1.46949,5,0.1,27,0.1,0.795319,-4.14779,0.632851,-0.00134455,0.0295997,0.0168247,-0.0238977,0.52619,0.299104,0.0252982,1.16082,5,0.1,28,0.1,-1.60911,-3.74699,0.62911,0.0587635,0.00770465,-0.000501703,1.04468,0.136971,-0.00892207,0.00962914,3.51219,5,0.1,29,0.1,1.80592,3.77713,0.574499,0.0443218,-0.0275031,0.000756606,0.787951,-0.488937,0.0134483,0.0099026,2.72104,5,0.1
0,0.2,-1.32031,-2.66271,0.59242,-0.00754297,0.187159,-0.00150055,-0.0566244,1.40369,-0.0112653,0.00804352,2.92579,5,0.1,1,0.2,4.28349,3.03252,0.685069,-0.163507,-0.00306964,0.00612587,-1.22643,-0.0230074,0.0458956,0.0173373,2.19954,5,0.1,2,0.2,-3.90386,-4.22618,0.615058,0.019151,0.186336,-0.000478327,0.143528,1.39737,-0.00354648,0.0155988,2.92581,5,0.1,3,0.2,2.23216,-4.07972,0.689557,-0.0675797,0.174642,0.00462979,-0.506759,1.30987,0.0347495,0.0102742,2.92579,5,0.1,4,0.2,1.38474,4.24651,0.69113,-0.0793964,-0.169587,0.00500083,-0.59551,-1.27196,0.0374913,0.0103405,2.92578,5,0.1,5,0.2,4.08337,-0.643705,0.62141,-0.0393748,0.183131,-0.00107586,-0.295162,1.37344,-0.00807643,0.0136686,2.9258,5,0.1,6,0.2,-0.982529,0.0356616,0.530926,0.0785291,0.123975,0.00651479,0.588924,0.92981,0.0488758,0.0308212,1.77217,5,0.1,7,0.2,1.44682,2.8371,0.685401,-0.158718,-0.0993311,0.00540614,-1.19042,-0.744939,0.0405312,0.0195814,2.92579,5,0.1,8,0.2,0.300326,2.94874,0.564641,-0.0707746,0.103879,0.00333488,-0.530794,0.779033,0.025034,0.0125499,1.29843,5,0.1,9,0.2,-4.12352,-3.01944,0.659889,-0.0141978,0.186771,-0.00191927,-0.106812,1.40071,-0.0143647,0.00878151,2.92579,5,0.1,10,0.2,3.93011,1.48914,0.591619,-0.0735819,0.142509,0.000791252,-0.551939,1.06889,0.00590086,0.0144973,2.11264,5,0.1,11,0.2,1.05155,3.31614,0.568527,-0.0567406,-0.100565,0.00296831,-0.425577,-0.754118,0.0222921,0.00990358,1.09566,5,0.1,12,0.2,-0.0942859,-0.648832,0.662864,-0.0194039,0.061202,-0.00592917,-0.145528,0.458986,-0.0444651,0.00927385,0.341413,5,0.1,13,0.2,-1.66778,-1.41612,0.534837,0.174522,0.0679225,0.0039652,1.30892,0.509441,0.0297427,0.0122004,2.92579,5,0.1,14,0.2,-3.07562,-1.36836,0.541348,0.13721,0.127488,0.00275075,1.02913,0.956237,0.020653,0.0382385,2.92578,5,0.1,15,0.2,1.9825,-0.985643,0.664319,-0.185746,0.0241101,-0.00226051,-1.39308,0.180781,-0.0169873,0.0102421,2.92579,5,0.1,16,0.2,3.80213,4.20936,0.625809,-0.061512,-0.0716329,-0.00243485,-0.46134,-0.536919,-0.018239,0.00914946,0.732563,5,0.1,17,0.2,3.75422,-1.25152,0.691487,-0.019896,0.186238,0.002563,-0.14925,1.39689,0.0192225,0.0169971,2.92578,5,0.1,18,0.2,3.49615,-1.95866,0.639018,-0.00198483,0.187299,-0.00167787,-0.014782,1.40476,-0.0125468,0.0148588,2.92579,5,0.1,19,0.2,-4.10248,-0.397619,0.562865,0.17724,-0.0605881,0.00160486,1.32942,-0.454381,0.0120103,0.0155629,2.92578,5,0.1,20,0.2,-1.33498,1.20316,0.64908,0.140071,0.0138491,-0.0046283,1.05047,0.103951,-0.0347495,0.00771747,1.62878,5,0.1,21,0.2,-0.288215,-3.42363,0.679095,-0.000645965,0.100785,0.00388622,-0.00484288,0.755787,0.0291169,0.0229694,3.541,5,0.1,22,0.2,-1.94559,-0.725932,0.506833,0.0278831,0.0684738,-0.00535995,0.209033,0.513524,-0.0402331,0.0101699,0.451496,5,0.1,23,0.2,3.70523,-3.65494,0.611382,0.0649989,-0.0536382,-0.00968874,0.487328,-0.402212,-0.0726581,0.00911086,0.590899,5,0.1,24,0.2,-2.86747,-0.581378,0.575655,0.11484,0.0406891,0.00229627,0.861168,0.305176,0.0172257,0.0159502,1.21945,5,0.1,25,0.2,1.65464,-0.226155,0.638202,-0.180024,-0.0517353,-0.00138879,-1.35022,-0.388004,-0.010401,0.0126253,2.92579,5,0.1,26,0.2,1.54443,-2.03029,0.593164,-0.0183403,-0.11977,0.00064522,-0.137508,-0.898123,0.00479817,0.010778,1.20565,5,0.1,27,0.2,0.795046,-4.14177,0.636269,-0.00424981,0.0935435,0.0531733,-0.0318289,0.701666,0.398815,0.0260597,0.952395,5,0.1,28,0.2,-1.59717,-3.74542,0.629008,0.185719,0.0243485,-0.00158548,1.39296,0.182629,-0.0118911,0.0113753,2.92579,5,0.1,29,0.2,1.81492,3.77154,0.574653,0.14008,-0.0869215,0.00239164,1.05059,-0.651956,0.0179112,0.00813487,2.23248,5,0.1
0,0.3,-1.32138,-2.63618,0.592207,-0.0140537,0.348596,-0.00279583,-0.0695586,1.72508,-0.0138357,0.00804352,2.92579,5,0.1,1,0.3,4.26033,3.03209,0.685936,-0.304189,-0.00570863,0.011392,-1.50073,-0.0281632,0.0561886,0.0173373,2.19954,5,0.1,2,0.3,-3.90115,-4.19977,0.614991,0.0356615,0.34705,-0.000887364,0.17646,1.71742,-0.00437349,0.0155988,2.92581,5,0.1,3,0.3,2.22259,-4.05497,0.690214,-0.125865,0.325287,0.00862554,-0.622854,1.60977,0.0426918,0.0102742,2.92579,5,0.1,4,0.3,1.37349,4.22247,0.691839,-0.147884,-0.315871,0.00931313,-0.731841,-1.56316,0.0460856,0.0103405,2.92578,5,0.1,5,0.3,4.07779,-0.617754,0.621258,-0.0733249,0.34109,-0.00200467,-0.362843,1.68794,-0.00992045,0.0136686,2.9258,5,0.1,6,0.3,-0.971408,0.0532202,0.531848,0.146087,0.230634,0.0121211,0.72068,1.13779,0.0598021,0.0308212,1.77217,5,0.1,7,0.3,1.42433,2.82302,0.686167,-0.295627,-0.185008,0.0100678,-1.46297,-0.915542,0.0498146,0.0195814,2.92579,5,0.1,8,0.3,0.290302,2.96345,0.565114,-0.131663,0.193244,0.00620587,-0.64953,0.953302,0.0306182,0.0125499,1.29843,5,0.1,9,0.3,-4.12554,-2.99297,0.659617,-0.0264712,0.347867,-0.00357218,-0.1311,1.72147,-0.0176653,0.00878151,2.92579,5,0.1,10,0.3,3.91969,1.50933,0.591731,-0.136893,0.26512,0.00146898,-0.67535,1.30795,0.00723824,0.0144973,2.11264,5,0.1,11,0.3,1.04351,3.30189,0.568948,-0.105559,-0.187074,0.00552442,-0.520758,-0.922874,0.0272617,0.00990358,1.09566,5,0.1,12,0.3,-0.0970341,-0.640164,0.662024,-0.0360977,0.113854,-0.01103,-0.178081,0.561662,-0.054419,0.00927385,0.341413,5,0.1,13,0.3,-1.64305,-1.4065,0.535399,0.32506,0.126512,0.00738585,1.60863,0.626072,0.0365488,0.0122004,2.92579,5,0.1,14,0.3,-3.05618,-1.35029,0.541738,0.255568,0.237462,0.00512507,1.26474,1.17515,0.0253692,0.0382385,2.92578,5,0.1,15,0.3,1.95618,-0.982227,0.663998,-0.345963,0.0449028,-0.0042134,-1.71208,0.222199,-0.0208654,0.0102421,2.92579,5,0.1,16,0.3,3.79342,4.19921,0.625464,-0.114433,-0.133233,-0.00452762,-0.56453,-0.657201,-0.0223257,0.00914946,0.732563,5,0.1,17,0.3,3.7514,-1.22513,0.69185,-0.0370603,0.34689,0.00477387,-0.183418,1.71669,0.0236295,0.0169971,2.92578,5,0.1,18,0.3,3.49587,-1.93212,0.638781,-0.00368841,0.348858,-0.00312189,-0.0182241,1.72641,-0.0154413,0.0148588,2.92579,5,0.1,19,0.3,-4.07736,-0.406205,0.563092,0.330133,-0.112847,0.00298684,1.63373,-0.558438,0.0147708,0.0155629,2.92578,5,0.1,20,0.3,-1.31514,1.20512,0.648424,0.260574,0.0257712,-0.00861343,1.28547,0.127167,-0.0425056,0.00771747,1.62878,5,0.1,21,0.3,-0.288307,-3.41029,0.679645,-0.00120266,0.160944,0.00723358,-0.0059437,0.454992,0.0357553,0.0229694,3.541,5,0.1,22,0.3,-1.94164,-0.716234,0.50612,0.0518644,0.127381,-0.00866316,0.255845,0.628404,-0.0259131,0.0101699,0.451496,5,0.1,23,0.3,3.71444,-3.66253,0.610009,0.120906,-0.0997782,-0.0180239,0.596434,-0.492215,-0.0889152,0.00911086,0.590899,5,0.1,24,0.3,-2.8512,-0.575615,0.575981,0.21363,0.0756961,0.00427198,1.05384,0.373434,0.0210777,0.0159502,1.21945,5,0.1,25,0.3,1.62913,-0.233487,0.638005,-0.335311,-0.0963596,-0.00258535,-1.65939,-0.476853,-0.0127926,0.0126253,2.92579,5,0.1,26,0.3,1.54183,-2.04725,0.593256,-0.0341155,-0.222798,0.00119684,-0.168294,-1.09909,0.00589713,0.010778,1.20565,5,0.1,27,0.3,0.794445,-4.12852,0.6438,-0.00790227,0.17403,0.0989214,-0.038974,0.858575,0.488013,0.0260597,0.952395,5,0.1,28,0.3,-1.57085,-3.74197,0.628783,0.34592,0.0453532,-0.00295322,1.71188,0.224441,-0.014618,0.0113753,2.92579,5,0.1,29,0.3,1.83476,3.75923,0.574992,0.260595,-0.161708,0.00444707,1.28559,-0.797763,0.0219271,0.00813487,2.23248,5,0.1
0,0.4,-1.32313,-2.59285,0.591859,-0.0207543,0.514805,-0.00412911,-0.0615716,1.52528,-0.0122488,0.00960438,2.51548,5,0.1,1,0.4,4.22254,3.03138,0.687351,-0.448608,-0.00841618,0.0167996,-1.32418,-0.0249147,0.0495911,0.0153365,1.74029,5,0.1,2,0.4,-3.89671,-4.15663,0.61488,0.0526607,0.512528,-0.0013113,0.156045,1.51825,-0.0038445,0.0157446,2.51458,5,0.1,3,0.4,2.20694,-4.01453,0.691286,-0.185877,0.480378,0.0127375,-0.550628,1.42336,0.0377595,0.0138817,2.51007,5,0.1,4,0.4,1.3551,4.1832,0.692996,-0.218397,-0.466478,0.0137538,-0.647008,-1.38211,0.0407398,0.010256,2.51006,5,0.1,5,0.4,4.06868,-0.575348,0.621009,-0.108278,0.50372,-0.00295937,-0.32115,1.49244,-0.00879169,0.0126518,2.51181,5,0.1,6,0.4,-0.953259,0.0818717,0.533354,0.215444,0.340133,0.0178754,0.635803,1.0038,0.0527799,0.0331618,1.40216,5,0.1,7,0.4,1.38758,2.80002,0.687418,-0.436583,-0.273222,0.0148684,-1.29348,-0.809431,0.044018,0.0222056,2.51008,5,0.1,8,0.4,0.273945,2.98746,0.565885,-0.194173,0.284994,0.00915229,-0.573039,0.840902,0.0270009,0.00881365,1.02734,5,0.1,9,0.4,-4.12883,-2.94972,0.659173,-0.0391006,0.513726,-0.00527501,-0.115871,1.52206,-0.0156164,0.0102803,2.51504,5,0.1,10,0.4,3.90268,1.54226,0.591913,-0.201887,0.390995,0.00216663,-0.595927,1.15389,0.0063777,0.0155035,1.67153,5,0.1,11,0.4,1.0304,3.27865,0.569634,-0.155675,-0.275892,0.00814795,-0.459433,-0.814199,0.0240505,0.0143884,0.866901,5,0.1,12,0.4,-0.101518,-0.62602,0.660654,-0.0532359,0.167908,-0.0162661,-0.15711,0.495523,-0.0480413,0.0132009,0.27013,5,0.1,13,0.4,-1.60263,-1.39077,0.536318,0.48005,0.186834,0.0109076,1.42229,0.553548,0.0323355,0.0155603,2.51008,5,0.1,14,0.4,-3.02441,-1.32077,0.542375,0.377423,0.350684,0.0075683,1.11818,1.03903,0.0224411,0.0438803,2.51007,5,0.1,15,0.4,1.91317,-0.976644,0.663475,-0.510916,0.0663117,-0.00622272,-1.51378,0.196487,-0.0184476,0.0155767,2.51396,5,0.1,16,0.4,3.7792,4.18266,0.624901,-0.168765,-0.196481,-0.00667721,-0.497937,-0.579834,-0.0196993,0.0132811,0.579621,5,0.1,17,0.4,3.74679,-1.182,0.692444,-0.054729,0.512287,0.00704974,-0.162244,1.51783,0.0208914,0.0179207,2.51445,5,0.1,18,0.4,3.49541,-1.88875,0.638393,-0.0054419,0.515193,-0.00460893,-0.0162125,1.52647,-0.0136793,0.0175442,2.51564,5,0.1,19,0.4,-4.03632,-0.420234,0.563463,0.487542,-0.166652,0.00441074,1.44434,-0.493765,0.0130832,0.0144143,2.51007,5,0.1,20,0.4,-1.28277,1.20832,0.647354,0.384286,0.0380069,-0.0127032,1.1341,0.112176,-0.0374913,0.00944764,1.28871,5,0.1,21,0.4,-0.288456,-3.39237,0.680544,-0.00177547,0.19331,0.0106782,-0.00524521,0.199795,0.0316203,0.0190933,3.58406,5,0.1,22,0.4,-1.9352,-0.70041,0.505147,0.0764847,0.187859,-0.0105679,0.225782,0.554413,-0.0123084,0.0116437,0.357718,5,0.1,23,0.4,3.72945,-3.67493,0.60777,0.178301,-0.147152,-0.0265807,0.526309,-0.43416,-0.0784397,0.0108217,0.46753,5,0.1,24,0.4,-2.82467,-0.566211,0.576511,0.315058,0.111635,0.00630021,0.929594,0.329435,0.0185966,0.0117386,0.964845,5,0.1,25,0.4,1.58745,-0.245467,0.637684,-0.495186,-0.142303,-0.00381768,-1.46717,-0.421628,-0.0112951,0.0153025,2.72774,5,0.1,26,0.4,1.53759,-2.07493,0.593404,-0.0503093,-0.328577,0.00176579,-0.148535,-0.969648,0.0051856,0.00961173,0.953925,5,0.1,27,0.4,0.793463,-4.1069,0.656089,-0.0116542,0.256658,0.145887,-0.0343621,0.757694,0.430524,0.0283053,0.753541,5,0.1,28,0.4,-1.52785,-3.73633,0.628416,0.510857,0.0669777,-0.00436157,1.51354,0.198483,-0.0129342,0.00828748,2.51393,5,0.1,29,0.4,1.86713,3.73914,0.575544,0.384319,-0.238484,0.006558,1.13416,-0.703812,0.0193417,0.00894481,1.76636,5,0.1
0,0.5,-1.32552,-2.53376,0.591384,-0.0270881,0.665005,-0.00538928,-0.0618398,1.41062,-0.0123046,0.00960438,2.51548,5,0.1,1,0.5,4.17094,3.03041,0.689284,-0.582954,-0.0109423,0.0218312,-1.29682,-0.0243634,0.0485741,0.0153365,1.74029,5,0.1,2,0.5,-3.89065,-4.09778,0.614729,0.0687193,0.662621,-0.00170805,0.156865,1.41469,-0.0038892,0.0157446,2.51458,5,0.1,3,0.5,2.18552,-3.95917,0.692754,-0.242542,0.626844,0.0166224,-0.553519,1.43065,0.0379384,0.0138817,2.51007,5,0.1,4,0.5,1.32994,4.12945,0.694581,-0.284978,-0.608699,0.0179465,-0.650354,-1.38921,0.0409521,0.010256,2.51006,5,0.1,5,0.5,4.0562,-0.517435,0.620667,-0.141319,0.653476,-0.00386331,-0.32267,1.43082,-0.00882894,0.0126518,2.51181,5,0.1,6,0.5,-0.928478,0.120996,0.535411,0.279953,0.441979,0.0232299,0.622731,0.983145,0.0516884,0.0331618,1.40216,5,0.1,7,0.5,1.33727,2.76854,0.689132,-0.569687,-0.356517,0.0193988,-1.30013,-0.813648,0.0442527,0.0222056,2.51008,5,0.1,8,0.5,0.251611,3.02024,0.566937,-0.252314,0.370316,0.0118919,-0.56125,0.823662,0.0264496,0.00881365,1.02734,5,0.1,9,0.5,-4.13333,-2.89075,0.658565,-0.0510208,0.663881,-0.00688257,-0.116438,1.41257,-0.0157095,0.0102803,2.51504,5,0.1,10,0.5,3.87946,1.58724,0.592163,-0.262346,0.508068,0.00281436,-0.583619,1.13014,0.00625476,0.0155035,1.67153,5,0.1,11,0.5,1.01249,3.24692,0.570571,-0.202289,-0.358501,0.0105877,-0.449982,-0.797465,0.0235476,0.0143884,0.866901,5,0.1,12,0.5,-0.107642,-0.606707,0.658782,-0.0691763,0.218184,-0.0211396,-0.153877,0.485331,-0.0470392,0.0132009,0.27013,5,0.1,13,0.5,-1.54732,-1.36924,0.537575,0.626409,0.243796,0.0142348,1.42961,0.556394,0.0324957,0.0155603,2.51008,5,0.1,14,0.5,-2.98092,-1.28036,0.543248,0.492489,0.457603,0.00987705,1.12393,1.04436,0.0225455,0.0438803,2.51007,5,0.1,15,0.5,1.8545,-0.969003,0.662757,-0.660961,0.0865307,-0.00812057,-1.4177,0.1975,-0.0185296,0.0155767,2.51396,5,0.1,16,0.5,3.75979,4.16006,0.624133,-0.219287,-0.255315,-0.00867611,-0.487745,-0.567973,-0.0193007,0.0132811,0.579621,5,0.1,17,0.5,3.74049,-1.12318,0.693256,-0.0714224,0.662386,0.00919951,-0.163063,1.4152,0.0209995,0.0179207,2.51445,5,0.1,18,0.5,3.49478,-1.82962,0.637861,-0.00710934,0.66541,-0.00601616,-0.0163019,1.40991,-0.0137463,0.0175442,2.51564,5,0.1,19,0.5,-3.98014,-0.439438,0.563972,0.636172,-0.217462,0.00575688,1.45181,-0.496309,0.0131503,0.0144143,2.51007,5,0.1,20,0.5,-1.23856,1.21269,0.645893,0.499352,0.0493875,-0.0165069,1.11078,0.109844,-0.0367165,0.00944764,1.28871,5,0.1,21,0.5,-0.288661,-3.37272,0.681774,-0.00231294,0.193928,0.0139174,-0.00523031,-0.142291,0.0315271,0.0190933,3.58406,5,0.1,22,0.5,-1.9264,-0.678801,0.504057,0.0993926,0.24411,-0.0109863,0.221133,0.543013,0.00297651,0.0116437,0.357718,5,0.1,23,0.5,3.74996,-3.69185,0.604713,0.2317,-0.191205,-0.0345394,0.515461,-0.425279,-0.0768304,0.0108217,0.46753,5,0.1,24,0.5,-2.78843,-0.55337,0.577236,0.40938,0.14506,0.00818707,0.910535,0.322659,0.0182092,0.0117386,0.964845,5,0.1,25,0.5,1.53182,-0.261865,0.637244,-0.605335,-0.18569,-0.00498043,-0.750385,-0.423796,-0.0113584,0.0153025,2.72774,5,0.1,26,0.5,1.5318,-2.11272,0.593607,-0.0653788,-0.42696,0.00229273,-0.145465,-0.949726,0.0050962,0.00961173,0.953925,5,0.1,27,0.5,0.792123,-4.07738,0.672869,-0.0151416,0.333528,0.189568,-0.0336766,0.742018,0.421673,0.0283053,0.753541,5,0.1,28,0.5,-1.46918,-3.72861,0.627913,0.660896,0.0874016,-0.00569243,1.4178,0.199512,-0.0129938,0.00828748,2.51393,5,0.1,29,0.5,1.91134,3.71171,0.576298,0.499391,-0.309892,0.00852086,1.11084,-0.689313,0.0189543,0.00894481,1.76636,5,0.1
0,0.6,-1.32852,-2.46084,0.590787,-0.032571,0.785708,-0.00647902,-0.0454187,0.959277,-0.00905991,0.00809384,2.33416,5,0.1,1,0.6,4.10665,3.0292,0.691691,-0.696743,-0.0130773,0.0260934,-0.93317,-0.017643,0.0349581,0.0160288,1.29589,5,0.1,2,0.6,-3.88304,-4.02507,0.614541,0.082618,0.784075,-0.00205338,0.115514,0.96941,-0.00286102,0.0174036,2.3298,5,0.1,3,0.6,2.15869,-3.88983,0.694593,-0.291604,0.753641,0.0199854,-0.4071,1.05214,0.027895,0.00941058,2.27025,5,0.1,4,0.6,1.29841,4.06211,0.696566,-0.342619,-0.731826,0.0215769,-0.478327,-1.02162,0.0301301,0.010334,2.24658,5,0.1,5,0.6,4.04056,-0.445515,0.62024,-0.169921,0.777847,-0.00464618,-0.237226,1.00809,-0.0064671,0.0124133,2.31347,5,0.1,6,0.6,-0.897604,0.169739,0.537972,0.334601,0.528254,0.0277653,0.447989,0.707262,0.0371635,0.0343866,1.04387,5,0.1,7,0.6,1.27425,2.7291,0.691277,-0.684923,-0.428635,0.0233218,-0.956118,-0.598311,0.0325739,0.0141964,2.23001,5,0.1,8,0.6,0.223785,3.06108,0.568249,-0.301566,0.442594,0.0142112,-0.403754,0.592589,0.0190437,0.00819883,0.764837,5,0.1,9,0.6,-4.13898,-2.81793,0.657804,-0.0613332,0.78494,-0.00827461,-0.0855923,0.964046,-0.0115633,0.0094059,2.33207,5,0.1,10,0.6,3.85053,1.64327,0.592473,-0.313556,0.60724,0.00336468,-0.419855,0.813067,0.00447035,0.0126461,1.24441,5,0.1,11,0.6,0.990186,3.20738,0.571739,-0.241776,-0.428486,0.0126541,-0.323713,-0.573635,0.0169277,0.00972597,0.645389,5,0.1,12,0.6,-0.115271,-0.582645,0.656451,-0.0826797,0.260773,-0.0252679,-0.110701,0.349164,-0.0338554,0.0147738,0.201106,5,0.1,13,0.6,-1.47802,-1.34227,0.539149,0.75312,0.293112,0.017114,1.05137,0.409186,0.0239313,0.0192135,2.2696,5,0.1,14,0.6,-2.92644,-1.22974,0.54434,0.592107,0.550166,0.0118747,0.826478,0.768006,0.0165701,0.0426749,2.23725,5,0.1,15,0.6,1.78193,-0.959431,0.661859,-0.782952,0.104035,-0.00976324,-0.976384,0.145257,-0.0136197,0.0146732,2.32669,5,0.1,16,0.6,3.73561,4.13191,0.623176,-0.262088,-0.305164,-0.0103697,-0.350952,-0.408411,-0.0138879,0.0104461,0.431525,5,0.1,17,0.6,3.73259,-1.05049,0.694274,-0.0858724,0.78392,0.0110611,-0.119925,0.970423,0.0154376,0.0205366,2.32928,5,0.1,18,0.6,3.49399,-1.75667,0.637196,-0.00855327,0.785983,-0.00723451,-0.0119209,0.957608,-0.0101328,0.0203171,2.33492,5,0.1,19,0.6,-3.90977,-0.463494,0.564608,0.764847,-0.261451,0.00692159,1.06776,-0.364989,0.00968575,0.0172495,2.2853,5,0.1,20,0.6,-1.18349,1.21814,0.644073,0.596827,0.0590265,-0.0197291,0.79906,0.0790358,-0.0264049,0.0102619,0.959418,5,0.1,21,0.6,-0.288916,-3.35431,0.683312,-0.00277609,0.172496,0.0167012,-0.0037998,-0.254989,0.023067,0.0230874,3.58577,5,0.1,22,0.6,-1.91544,-0.65188,0.502991,0.118798,0.29176,-0.0101522,0.159025,0.390649,0.0129342,0.0113006,0.26693,5,0.1,23,0.6,3.77552,-3.71294,0.600904,0.276935,-0.228524,-0.0412822,0.37086,-0.30601,-0.0552535,0.0101562,0.348069,5,0.1,24,0.6,-2.74328,-0.537373,0.578139,0.489289,0.173377,0.00978559,0.655055,0.2321,0.0130832,0.0138881,0.718319,5,0.1,25,0.6,1.46862,-0.282406,0.636693,-0.648361,-0.223252,-0.00598729,-0.126541,-0.311673,-0.00834465,0.020289,2.881,5,0.1,26,0.6,1.52459,-2.15981,0.59386,-0.0781417,-0.510299,0.00274032,-0.104725,-0.683308,0.00369549,0.0117417,0.710182,5,0.1,27,0.6,0.790453,-4.0406,0.693775,-0.0180975,0.398636,0.226572,-0.0242293,0.533819,0.303328,0.0307541,0.560981,5,0.1,28,0.6,-1.39662,-3.71895,0.627284,0.782901,0.105083,-0.0068441,0.976801,0.146747,-0.00956655,0.011304,2.32657,5,0.1,29,0.6,1.96641,3.67753,0.577238,0.596872,-0.370383,0.0101835,0.799119,-0.495911,0.0136495,0.0105129,1.31502,5,0.1
0,0.7,-1.33201,-2.37854,0.590094,-0.0371292,0.850441,-0.0073879,-0.0428706,0.36256,-0.00854209,0.00809384,2.33416,5,0.1,1,0.7,4.03245,3.02781,0.694472,-0.784571,-0.0147678,0.0294494,-0.775889,-0.015229,0.0302456,0.0160288,1.29589,5,0.1,2,0.7,-3.8742,-3.94288,0.614321,0.0942089,0.849874,-0.00234125,0.109017,0.372276,-0.00270829,0.0174036,2.3298,5,0.1,3,0.7,2.12747,-3.81006,0.696732,-0.33247,0.833175,0.0227853,-0.38445,0.536114,0.0263341,0.00941058,2.27025,5,0.1,4,0.7,1.26173,3.98442,0.698877,-0.390634,-0.815439,0.0246014,-0.451691,-0.631779,0.0284538,0.010334,2.24658,5,0.1,5,0.7,4.02237,-0.363736,0.619743,-0.193729,0.847713,-0.00529541,-0.223935,0.409316,-0.00610575,0.0124133,2.31347,5,0.1,6,0.7,-0.861942,0.226039,0.540932,0.37761,0.596153,0.0313332,0.387602,0.611914,0.0321567,0.0343866,1.04387,5,0.1,7,0.7,1.20108,2.68348,0.693775,-0.776074,-0.480872,0.0265916,-0.816502,-0.42592,0.0307597,0.0141964,2.23001,5,0.1,8,0.7,0.191644,3.10825,0.569763,-0.340328,0.499486,0.0160391,-0.349326,0.512734,0.0164732,0.00819883,0.764837,5,0.1,9,0.7,-4.14555,-2.73568,0.656918,-0.0699207,0.850173,-0.00943504,-0.0807643,0.367135,-0.0109151,0.0094059,2.33207,5,0.1,10,0.7,3.81711,1.70799,0.592831,-0.353862,0.685296,0.00379467,-0.363201,0.703447,0.00388548,0.0126461,1.24441,5,0.1,11,0.7,0.964417,3.16171,0.573087,-0.272853,-0.483558,0.0142793,-0.280064,-0.496343,0.0146441,0.00972597,0.645389,5,0.1,12,0.7,-0.124083,-0.554852,0.653758,-0.0933072,0.294294,-0.0285175,-0.0957749,0.302091,-0.0292808,0.0147738,0.201106,5,0.1,13,0.7,-1.3983,-1.31089,0.540982,0.832746,0.334186,0.0195152,0.538342,0.386402,0.0225864,0.0192135,2.2696,5,0.1,14,0.7,-2.86314,-1.17122,0.545605,0.672249,0.616198,0.0133511,0.730306,0.528589,0.0123233,0.0426749,2.23725,5,0.1,15,0.7,1.69981,-0.948291,0.660814,-0.849484,0.118614,-0.01113,-0.378959,0.137124,-0.0128523,0.0146732,2.32669,5,0.1,16,0.7,3.70767,4.09938,0.622071,-0.29578,-0.344379,-0.0117033,-0.303641,-0.353426,-0.0120215,0.0104461,0.431525,5,0.1,17,0.7,3.72339,-0.968307,0.695458,-0.0979062,0.849821,0.0126106,-0.113174,0.373185,0.0145696,0.0205366,2.32928,5,0.1,18,0.7,3.49308,-1.67434,0.636421,-0.0097502,0.850536,-0.00825087,-0.0112504,0.360921,-0.00955537,0.0203171,2.33492,5,0.1,19,0.7,-3.82892,-0.491489,0.56535,0.84236,-0.29809,0.00789342,0.487924,-0.344671,0.00913814,0.0172495,2.2853,5,0.1,20,0.7,-1.11988,1.22443,0.64197,0.67354,0.0666134,-0.0222639,0.691347,0.0683665,-0.0228398,0.0102619,0.959418,5,0.1,21,0.7,-0.289213,-3.33865,0.685098,-0.00315146,0.139474,0.0189756,-0.00347756,-0.331327,0.0210442,0.0230874,3.58577,5,0.1,22,0.7,-1.90278,-0.620784,0.502052,0.134066,0.329264,-0.0085514,0.137605,0.337984,0.018388,0.0113006,0.26693,5,0.1,23,0.7,3.80503,-3.7373,0.596504,0.312538,-0.257902,-0.046587,0.320852,-0.264764,-0.0478104,0.0101562,0.348069,5,0.1,24,0.7,-2.69113,-0.518895,0.579182,0.552179,0.19566,0.0110419,0.566795,0.200823,0.0113286,0.0138881,0.718319,5,0.1,25,0.7,1.4045,-0.306309,0.636052,-0.622212,-0.254508,-0.00682464,0.57821,-0.293767,-0.00787154,0.020289,2.881,5,0.1,26,0.7,1.51626,-2.21419,0.594152,-0.0881942,-0.575899,0.00309506,-0.0905767,-0.591189,0.00320002,0.0117417,0.710182,5,0.1,27,0.7,0.788524,-3.99811,0.717923,-0.0204242,0.44988,0.255693,-0.0209771,0.461787,0.262443,0.0307541,0.560981,5,0.1,28,0.7,-1.3145,-3.70769,0.626551,0.849469,0.11981,-0.00780383,0.379235,0.138491,-0.00901893,0.011304,2.32657,5,0.1,29,0.7,2.03003,3.63806,0.578323,0.67359,-0.417991,0.0114937,0.691406,-0.429049,0.0118054,0.0105129,1.31502,5,0.1
0,0.8,-1.33591,-2.29241,0.589317,-0.0406593,0.86602,-0.00809133,-0.0257492,0.000119209,-0.005126,0.00969062,2.2706,5,0.1,1,0.8,3.95069,3.02627,0.697548,-0.844085,-0.0159621,0.0318214,-0.383377,-0.00786781,0.0158548,0.0227503,0.930384,5,0.1,2,0.8,-3.86429,-3.85677,0.614074,0.103188,0.866026,-0.00256598,0.0653267,0,-0.00160933,0.0172763,2.26371,5,0.1,3,0.8,2.09251,-3.72488,0.699128,-0.364137,0.862527,0.0249535,-0.230789,0.0699759,0.015825,0.0154778,2.17414,5,0.1,4,0.8,1.22065,3.90046,0.701464,-0.427833,-0.856477,0.0269443,-0.271261,-0.190973,0.0170767,0.0122621,1.69321,5,0.1,5,0.8,4.002,-0.277706,0.619186,-0.212169,0.866025,-0.00579953,-0.134349,0,-0.00363588,0.014162,2.23758,5,0.1,6,0.8,-0.822508,0.288297,0.544204,0.408,0.644129,0.0338525,0.20352,0.321329,0.0169277,0.0311967,0.737032,5,0.1,7,0.8,1.11995,2.63368,0.696571,-0.840032,-0.510502,0.0291243,-0.430942,-0.153899,0.0184774,0.0193127,1.3766,5,0.1,8,0.8,0.156103,3.16041,0.571438,-0.367716,0.539684,0.0173301,-0.183433,0.269294,0.00867248,0.0101446,0.540022,5,0.1,9,0.8,-4.1529,-2.64956,0.655926,-0.0765681,0.866026,-0.010334,-0.048399,0,-0.00655651,0.00932613,2.26732,5,0.1,10,0.8,3.78015,1.77955,0.593228,-0.382334,0.740445,0.00409931,-0.190854,0.36943,0.00205636,0.0162259,0.878612,5,0.1,11,0.8,0.935923,3.11122,0.574578,-0.294811,-0.52247,0.0154257,-0.147074,-0.260711,0.0077188,0.0102754,0.455686,5,0.1,12,0.8,-0.133827,-0.524118,0.65078,-0.100816,0.317977,-0.0308126,-0.0502914,0.158668,-0.015378,0.0117421,0.141991,5,0.1,13,0.8,-1.31315,-1.27575,0.543034,0.862378,0.366008,0.0213742,0.0729561,0.232041,0.0135899,0.0180586,2.17331,5,0.1,14,0.8,-2.79273,-1.10751,0.546991,0.730419,0.652024,0.0142366,0.401974,0.17339,0.00494719,0.0432397,2.15219,5,0.1,15,0.8,1.61372,-0.935819,0.659644,-0.866026,0.129905,-0.0121891,5.96046e-05,0.0823438,-0.007689,0.0162368,2.25882,5,0.1,16,0.8,3.67678,4.06342,0.620849,-0.319588,-0.372088,-0.0126451,-0.159383,-0.185728,-0.00631809,0.00899837,0.304694,5,0.1,17,0.8,3.7131,-0.882202,0.696784,-0.107223,0.866024,0.0138104,-0.0679493,2.98023e-05,0.00876188,0.0198065,2.26292,5,0.1,18,0.8,3.49205,-1.58821,0.635553,-0.0106812,0.866026,-0.00903755,-0.00667572,0,-0.00572205,0.0181704,2.27177,5,0.1,19,0.8,-3.74312,-0.522832,0.56618,0.865704,-0.326474,0.00864714,0.0064373,-0.207037,0.00545382,0.0179284,2.19222,5,0.1,20,0.8,-1.04955,1.23139,0.639645,0.727746,0.0719726,-0.0240549,0.362992,0.0359416,-0.0120103,0.0093931,0.677404,5,0.1,21,0.8,-0.289543,-3.32603,0.687088,-0.00343323,0.117034,0.0206783,-0.00198185,-0.0836849,0.0120401,0.0228752,3.42111,5,0.1,22,0.8,-1.88878,-0.586399,0.501293,0.144854,0.355762,-0.00659972,0.0723004,0.177503,0.0201166,0.0125382,0.678146,5,0.1,23,0.8,3.83767,-3.76423,0.591639,0.337696,-0.278664,-0.0503361,0.168443,-0.138998,-0.0250936,0.00964063,0.245754,5,0.1,24,0.8,-2.63347,-0.498462,0.580335,0.596619,0.211404,0.0119299,0.297666,0.105456,0.00593066,0.0156459,0.507185,5,0.1,25,0.8,1.34586,-0.333067,0.635334,-0.545207,-0.278679,-0.00747293,0.908434,-0.176042,-0.00470877,0.0172535,3.09357,5,0.1,26,0.8,1.50705,-2.27434,0.594476,-0.0952959,-0.622249,0.00334531,-0.0475645,-0.31054,0.00172853,0.0116588,0.501427,5,0.1,27,0.8,0.786391,-3.95113,0.744626,-0.0220686,0.486082,0.276269,-0.0110269,0.242591,0.137806,0.032527,0.396073,5,0.1,28,0.8,-1.22841,-3.6951,0.62573,0.866026,0.131208,-0.00854731,-5.96046e-05,0.0833273,-0.00539422,0.0102185,2.25672,5,0.1,29,0.8,2.10037,3.59441,0.579524,0.727803,-0.45163,0.0124201,0.362992,-0.225306,0.00619888,0.0105934,0.928473,5,0.1
0,0.9,-1.34011,-2.20581,0.588481,-0.0433186,0.866025,-0.00862051,-0.0246987,1.49012e-05,-0.00490993,0.00969062,2.2706,5,0.1,1,0.9,3.86504,3.02463,0.700806,-0.863552,-0.0166748,0.0332586,-0.052318,-0.00561774,0.0113584,0.0227503,0.930384,5,0.1,2,0.9,-3.85363,-3.77017,0.613809,0.109941,0.866026,-0.00273325,0.0628084,0,-0.00156462,0.0172763,2.26371,5,0.1,3,0.9,2.05489,-3.63842,0.701706,-0.387993,0.865807,0.0265888,-0.221789,0.00874698,0.0151955,0.0154778,2.17414,5,0.1,4,0.9,1.17654,3.81423,0.704242,-0.453655,-0.865289,0.02857,-0.221252,-0.0182688,0.0139326,0.0122621,1.69321,5,0.1,5,0.9,3.98008,-0.191104,0.618587,-0.226047,0.866025,-0.00617616,-0.128925,5.96046e-07,-0.00350177,0.014162,2.23758,5,0.1,6,0.9,-0.780737,0.354242,0.54767,0.426442,0.673246,0.0353858,0.145786,0.230165,0.0121221,0.0311967,0.737032,5,0.1,7,0.9,1.03451,2.58274,0.699575,-0.862943,-0.500317,0.0309116,-0.0733398,0.327289,0.0155754,0.0193127,1.3766,5,0.1,8,0.9,0.118456,3.21566,0.573213,-0.384338,0.564087,0.0181154,-0.131393,0.19291,0.00620261,0.0101446,0.540022,5,0.1,9,0.9,-4.16081,-2.56296,0.654858,-0.0815637,0.866026,-0.0110103,-0.0463426,0,-0.00627339,0.00932613,2.26732,5,0.1,10,0.9,3.74101,1.85536,0.593647,-0.399626,0.773919,0.00428585,-0.136688,0.264615,0.00147894,0.0162259,0.878612,5,0.1,11,0.9,0.90574,3.05772,0.576158,-0.308137,-0.546095,0.0161246,-0.105347,-0.186756,0.00552461,0.0102754,0.455686,5,0.1,12,0.9,-0.144149,-0.491563,0.647625,-0.105374,0.332355,-0.0322058,-0.0360236,0.113647,-0.0110082,0.0117421,0.141991,5,0.1,13,0.9,-1.22669,-1.23794,0.545242,0.865798,0.390005,0.0227784,0.00911951,0.223219,0.0130497,0.0180586,2.17331,5,0.1,14,0.9,-2.71768,-1.04186,0.54843,0.769363,0.656637,0.0144659,0.335902,-0.0859834,-0.000528991,0.0432397,2.15219,5,0.1,15,0.9,1.52711,-0.9224,0.658385,-0.866025,0.138415,-0.0129843,-1.49012e-05,0.0790954,-0.00739843,0.0162368,2.25882,5,0.1,16,0.9,3.64406,4.02532,0.619554,-0.334031,-0.388919,-0.0132179,-0.114188,-0.133052,-0.00452995,0.00899837,0.304694,5,0.1,17,0.9,3.70202,-0.795599,0.69821,-0.114239,0.866026,0.0147149,-0.0651479,0,0.00840425,0.0198065,2.26292,5,0.1,18,0.9,3.49095,-1.50161,0.63462,-0.0113729,0.866026,-0.00962829,-0.0064522,0,-0.0054799,0.0181704,2.27177,5,0.1,19,0.9,-3.65653,-0.556558,0.567073,0.866006,-0.347892,0.00921199,0.000804663,-0.199292,0.00525638,0.0179284,2.19222,5,0.1,20,0.9,-0.97504,1.23875,0.637182,0.760639,0.0752283,-0.025143,0.260018,0.0257269,-0.0086017,0.0093931,0.677404,5,0.1,21,0.9,-0.289897,-3.31442,0.689216,-0.00362825,0.121181,0.0218593,-0.00171363,0.265032,0.0103712,0.0228752,3.42111,5,0.1,22,0.9,-1.87395,-0.549506,0.500732,0.151406,0.385182,-0.00463007,0.051789,0.364214,0.018876,0.0125382,0.678146,5,0.1,23,0.9,3.87225,-3.79276,0.586486,0.352959,-0.29126,-0.0526104,0.12067,-0.0995845,-0.0179783,0.00964063,0.245754,5,0.1,24,0.9,-2.57238,-0.476818,0.581556,0.623592,0.22096,0.0124675,0.213251,0.0755433,0.00425056,0.0156459,0.507185,5,0.1,25,0.9,1.29641,-0.361846,0.634563,-0.440957,-0.296734,-0.00795638,1.08255,-0.16663,-0.00445917,0.0172535,3.09357,5,0.1,26,0.9,1.4973,-2.33804,0.594818,-0.0996055,-0.650387,0.0035014,-0.0340566,-0.222445,0.0012368,0.0116588,0.501427,5,0.1,27,0.9,0.784131,-3.90136,0.77291,-0.0230682,0.50806,0.288757,-0.00790879,0.173718,0.098709,0.032527,0.396073,5,0.1,28,0.9,-1.14181,-3.68146,0.624848,0.866025,0.142151,-0.00907769,1.49012e-05,0.121504,-0.00469759,0.0102185,2.25672,5,0.1,29,0.9,2.17488,3.54817,0.580795,0.760696,-0.472046,0.0129819,0.26001,-0.16138,0.00444055,0.0105934,0.928473,5,0.1
0,1,-1.34455,-2.1192,0.587598,-0.0451356,0.866026,-0.00898242,-0.00983477,0,-0.00193715,0.00762123,2.27046,5,0.1,1,1,3.77874,3.02295,0.704171,-0.859475,-0.0169635,0.033839,0.131249,0.000476837,-0.000715256,0.0232131,0.652884,5,0.1,2,1,-3.84237,-3.68357,0.61353,0.114572,0.866026,-0.00284761,0.0249147,0,-0.000655651,0.0152955,2.26285,5,0.1,3,1,2.01517,-3.55182,0.704428,-0.404349,0.866026,0.0277102,-0.0883341,0,0.00602007,0.00971631,1.83544,5,0.1,4,1,1.13031,3.72773,0.707153,-0.468087,-0.863785,0.029479,-0.05126,0.0448227,0.00321865,0.0101553,1.25427,5,0.1,5,1,3.95694,-0.104501,0.617955,-0.235546,0.866026,-0.00643283,-0.0510216,-3.57628e-06,-0.00143051,0.0137403,2.23407,5,0.1,6,1,-0.737589,0.422361,0.55125,0.43391,0.685035,0.0360072,-0.00938773,-0.0148129,-0.00077486,0.0297036,0.501209,5,0.1,7,1,0.948189,2.53493,0.702728,-0.860476,-0.450695,0.031957,0.110984,0.638962,0.00414252,0.0137866,1.05598,5,0.1,8,1,0.0795689,3.27274,0.575046,-0.391068,0.573969,0.0184342,0.00844896,-0.0123978,-0.000417233,0.00965274,0.367236,5,0.1,9,1,-4.16916,-2.47636,0.653731,-0.0849724,0.866026,-0.0114724,-0.0181198,0,-0.0025034,0.00859769,2.26687,5,0.1,10,1,3.70057,1.93367,0.594081,-0.406623,0.787473,0.00436306,0.00870228,-0.0169873,-0.000119209,0.0132448,0.597475,5,0.1,11,1,0.874563,3.00247,0.577789,-0.313532,-0.555664,0.0164077,0.00676513,0.0120401,-0.000357628,0.00930065,0.309915,5,0.1,12,1,-0.15481,-0.457936,0.644366,-0.107219,0.338177,-0.0327691,0.00231713,-0.00730157,0.000685453,0.0100599,0.163511,5,0.1,13,1,-1.14009,-1.198,0.547575,0.866026,0.406474,0.0237405,-5.96046e-05,0.0891685,0.00521541,0.0105364,2.16166,5,0.1,14,1,-2.63945,-0.977088,0.549864,0.790721,0.634298,0.0141069,0.0635386,-0.361294,-0.00667572,0.0368418,2.20728,5,0.1,15,1,1.44051,-0.908227,0.657055,-0.866026,0.144245,-0.0135288,0,0.0314713,-0.00298023,0.0130741,2.25746,5,0.1,16,1,3.61027,3.98597,0.618217,-0.339878,-0.395745,-0.0134498,0.00727177,0.00858307,0.000298023,0.00878853,0.20721,5,0.1,17,1,3.69033,-0.708997,0.699717,-0.119036,0.866026,0.0153333,-0.0257492,0,0.00333786,0.016584,2.26201,5,0.1,18,1,3.48979,-1.41501,0.633634,-0.0118494,0.866026,-0.010033,-0.0025034,-5.96046e-05,-0.00214577,0.0155541,2.27176,5,0.1,19,1,-3.56992,-0.592183,0.568016,0.866026,-0.362603,0.00960082,0,-0.0797212,0.00208616,0.014576,2.18347,5,0.1,20,1,-0.898078,1.24637,0.634638,0.773959,0.0765473,-0.0255838,-0.0167191,-0.00166893,0.000566244,0.00970339,0.460664,5,0.1,21,1,-0.290266,-3.3,0.691443,-0.00374243,0.176555,0.0225484,-0.000432134,0.809073,0.0026226,0.0191895,3.03324,5,0.1,22,1,-1.85863,-0.509174,0.500359,0.15406,0.420506,-0.00288785,-0.00333786,0.307932,0.015676,0.0128746,0.522256,5,0.1,23,1,3.90796,-3.82223,0.581162,0.359136,-0.29636,-0.0535309,-0.00762939,0.0064373,0.00113249,0.00664692,0.167124,5,0.1,24,1,-2.50929,-0.454461,0.582818,0.634521,0.22483,0.0126854,-0.0137091,-0.00485778,-0.000298023,0.0119769,0.344911,5,0.1,25,1,1.25743,-0.392214,0.633748,-0.342992,-0.308888,-0.00828356,0.827909,-0.0637472,-0.00166893,0.0140717,3.1649,5,0.1,26,1,1.48722,-2.40385,0.595173,-0.101349,-0.661784,0.00356585,0.00220537,0.0143051,-5.96046e-05,0.00819756,0.340984,5,0.1,27,1,0.781797,-3.84996,0.802126,-0.0234723,0.516957,0.293814,0.000447035,-0.0112057,-0.0063777,0.0283309,0.269333,5,0.1,28,1,-1.0552,-3.66667,0.623922,0.866026,0.153095,-0.00940114,-2.98023e-05,0.0872612,-0.00143051,0.00979327,2.25261,5,0.1,29,1,2.25185,3.50041,0.582109,0.774014,-0.480312,0.0132099,-0.0166893,0.0103712,-0.000298023,0.0099045,0.678013,5,0.1
0,1.1,-1.34912,-2.0326,0.586689,-0.0463294,0.866026,-0.00921842,-0.0113472,0,-0.00224262,0.00762123,2.27046,5,0.1,1,1.1,3.69333,3.02125,0.70755,-0.848781,-0.0168804,0.0336921,0.120103,0.00183284,-0.00345707,0.0232131,0.652884,5,0.1,2,1.1,-3.83077,-3.59696,0.613241,0.117619,0.866026,-0.00292677,0.0291467,0,-0.000759959,0.0152955,2.26285,5,0.1,3,1.1,1.97425,-3.46522,0.707232,-0.413684,0.865974,0.0283469,-0.0773445,-0.00205636,0.00527501,0.00971631,1.83544,5,0.1,4,1.1,1.08326,3.64137,0.710116,-0.472231,-0.86417,0.0297393,-0.0123754,-0.0118315,0.000778586,0.0101553,1.25427,5,0.1,5,1.1,3.93308,-0.0178986,0.617303,-0.241736,0.866025,-0.00660503,-0.0588,-2.98023e-07,-0.0016354,0.0137403,2.23407,5,0.1,6,1.1,-0.694264,0.490762,0.554845,0.432007,0.682031,0.0358493,-0.0445545,-0.0703464,-0.00369921,0.0297036,0.501209,5,0.1,7,1.1,0.862579,2.49342,0.705944,-0.851907,-0.376454,0.032315,0.0987872,0.820354,0.00165403,0.0137866,1.05598,5,0.1,8,1.1,0.0405209,3.33005,0.576886,-0.389354,0.571453,0.0183516,0.0401495,-0.0589043,-0.00190362,0.00965274,0.367236,5,0.1,9,1.1,-4.17776,-2.38975,0.652569,-0.0871696,0.866026,-0.0117737,-0.0207722,0,-0.00284985,0.00859769,2.26687,5,0.1,10,1.1,3.65997,2.01229,0.594517,-0.404845,0.784021,0.00434229,0.0417233,-0.0808388,-0.000458211,0.0132448,0.597475,5,0.1,11,1.1,0.843264,2.947,0.579426,-0.311956,-0.552791,0.0162951,0.0357814,0.0648052,-0.00241026,0.00930065,0.309915,5,0.1,12,1.1,-0.165591,-0.423931,0.641071,-0.108883,0.343426,-0.0332791,-0.0268556,0.0847038,-0.00821054,0.0100599,0.163511,5,0.1,13,1.1,-1.05349,-1.15682,0.54998,0.866025,0.417302,0.024373,1.11759e-05,0.103109,0.00601634,0.0105364,2.16166,5,0.1,14,1.1,-2.55987,-0.915603,0.551237,0.801516,0.593888,0.0132943,0.10705,-0.452522,-0.0096336,0.0368418,2.20728,5,0.1,15,1.1,1.35391,-0.893615,0.655685,-0.866026,0.148082,-0.0138911,0,0.0366345,-0.00345334,0.0130741,2.25746,5,0.1,16,1.1,3.57633,3.94646,0.616874,-0.338394,-0.39401,-0.0133904,0.034824,0.0406206,0.00138581,0.00878853,0.20721,5,0.1,17,1.1,3.67827,-0.622394,0.70127,-0.122163,0.866026,0.0157379,-0.0297129,-3.72529e-06,0.00383705,0.016584,2.26201,5,0.1,18,1.1,3.48859,-1.32841,0.632618,-0.0121567,0.866025,-0.0102943,-0.00293553,1.49012e-05,-0.00248104,0.0155541,2.27176,5,0.1,19,1.1,-3.48332,-0.628919,0.568989,0.866026,-0.372332,0.00985647,0,-0.0930727,0.00244752,0.014576,2.18347,5,0.1,20,1.1,-0.820799,1.25401,0.632084,0.770566,0.0762098,-0.0254704,-0.0794493,-0.00788271,0.00263751,0.00970339,0.460664,5,0.1,21,1.1,-0.290643,-3.27706,0.693713,-0.0037909,0.291791,0.0228406,-0.000355765,1.38585,0.00211224,0.0191895,3.03324,5,0.1,22,1.1,-1.84325,-0.465554,0.500142,0.153384,0.451476,-0.00153054,-0.0158176,0.283407,0.0113845,0.0128746,0.522256,5,0.1,23,1.1,3.94382,-3.85182,0.575817,0.357571,-0.295058,-0.0532984,-0.0368059,0.0304431,0.0054799,0.00664692,0.167124,5,0.1,24,1.1,-2.44593,-0.432012,0.584084,0.631741,0.223845,0.012628,-0.0651032,-0.02308,-0.0013113,0.0119769,0.344911,5,0.1,25,1.1,1.22681,-0.423232,0.632906,-0.276731,-0.309509,-0.00860104,0.398114,0.0536405,-0.00393763,0.0140717,3.1649,5,0.1,26,1.1,1.4771,-2.46993,0.595529,-0.100903,-0.658882,0.00355169,0.0104308,0.0679344,-0.000357628,0.00819756,0.340984,5,0.1,27,1.1,0.779453,-3.79834,0.831463,-0.0233745,0.514685,0.292523,0.00236928,-0.0531524,-0.0301786,0.0283309,0.269333,5,0.1,28,1.1,-0.968601,-3.65086,0.622973,0.866025,0.163434,-0.00957586,3.72529e-06,0.106663,-0.00154972,0.00979327,2.25261,5,0.1,29,1.1,2.32838,3.45245,0.583428,0.749322,-0.478207,0.0131511,-0.452742,0.0493228,-0.00136718,0.0099045,0.678013,5,0.1
0,1.2,-1.35379,-1.946,0.585759,-0.0469506,0.866026,-0.00934154,0.00077486,-5.96046e-05,0.000208616,0.00841938,2.27043,5,0.1,1,1.2,3.60929,3.01958,0.710889,-0.829148,-0.0164986,0.0329405,0.298262,0.00631809,-0.0123382,0.0222058,0.475676,5,0.1,2,1.2,-3.8189,-3.51036,0.612945,0.119239,0.866026,-0.0029698,-0.00166893,0,2.98023e-05,0.0153045,2.26264,5,0.1,3,1.2,1.93266,-3.37865,0.710082,-0.416276,0.865203,0.0285223,0.0398159,-0.0164509,-0.00277162,0.0104077,1.41281,5,0.1,4,1.2,1.03617,3.55507,0.713082,-0.467363,-0.859553,0.0294328,0.122458,0.129342,-0.0077486,0.00965055,0.901345,5,0.1,5,1.2,3.90869,0.0687039,0.616637,-0.244933,0.866025,-0.00669509,0.00476837,0,0.000119209,0.0111291,2.23343,5,0.1,6,1.2,-0.65145,0.558355,0.558398,0.422367,0.666814,0.035049,-0.158638,-0.250518,-0.0131726,0.0307018,0.333279,5,0.1,7,1.2,0.778118,2.46,0.70917,-0.834255,-0.291193,0.0320628,0.280499,0.864506,-0.00762939,0.0125948,0.842271,5,0.1,8,1.2,0.00193378,3.38668,0.578705,-0.380667,0.558704,0.017941,0.142995,-0.209808,-0.00676513,0.00770236,0.244195,5,0.1,9,1.2,-4.18655,-2.30315,0.651381,-0.0882864,0.866026,-0.0119254,0.00238419,0,0.000238419,0.00810504,2.26681,5,0.1,10,1.2,3.61985,2.08999,0.594947,-0.395811,0.766528,0.00424534,0.148654,-0.28789,-0.00160933,0.0140878,0.397278,5,0.1,11,1.2,0.812369,2.89226,0.581037,-0.304554,-0.539505,0.0158429,0.119418,0.213385,-0.00694394,0.00808147,0.329618,5,0.1,12,1.2,-0.176603,-0.389199,0.637706,-0.111084,0.35037,-0.0339523,-0.0108704,0.0342727,-0.00330806,0.00956858,0.108048,5,0.1,13,1.2,-0.96689,-1.11472,0.552439,0.866026,0.422978,0.0247031,0,-0.0064373,-0.00038743,0.0121361,2.15937,5,0.1,14,1.2,-2.47942,-0.858662,0.552513,0.804442,0.542992,0.0121742,-0.0801086,-0.567704,-0.0127554,0.0360747,2.29988,5,0.1,15,1.2,1.2673,-0.878673,0.654283,-0.866026,0.150108,-0.0140831,5.96046e-05,-0.00214577,0.000208616,0.0109486,2.25714,5,0.1,16,1.2,3.54279,3.90741,0.615547,-0.330848,-0.385225,-0.0130907,0.124216,0.14472,0.00488758,0.0107747,0.137789,5,0.1,17,1.2,3.66594,-0.535792,0.702858,-0.123781,0.866026,0.0159472,0.00238419,0,-0.000298023,0.0165091,2.26184,5,0.1,18,1.2,3.48736,-1.2418,0.63158,-0.0123143,0.866026,-0.0104293,0.000238419,-5.96046e-05,0.000208616,0.016387,2.27175,5,0.1,19,1.2,-3.39672,-0.666494,0.569983,0.866026,-0.377524,0.00999421,0,0.00438094,-0.000149012,0.0172933,2.18128,5,0.1,20,1.2,-0.744431,1.26156,0.62956,0.753374,0.0745058,-0.0249013,-0.282973,-0.0279546,0.00938773,0.00777358,0.30632,5,0.1,21,1.2,-0.291022,-3.24075,0.696,-0.00378266,0.434458,0.0227869,0.000655651,1.38474,-0.00399351,0.0192944,2.61231,5,0.1,22,1.2,-1.82804,-0.419218,0.500038,0.149962,0.472452,-0.000618398,-0.0563264,0.116825,0.00697374,0.013482,0.176114,5,0.1,23,1.2,3.97926,-3.88106,0.570535,0.349599,-0.288475,-0.0521109,-0.131249,0.108361,0.0195503,0.00920359,0.111128,5,0.1,24,1.2,-2.38332,-0.409828,0.585336,0.617647,0.21885,0.0123456,-0.231981,-0.0821948,-0.00464916,0.0112296,0.229355,5,0.1,25,1.2,1.2,-0.453707,0.632028,-0.270364,-0.297901,-0.00894368,-0.241637,0.178799,-0.00241399,0.0132362,3.01722,5,0.1,26,1.2,1.4671,-2.53523,0.595881,-0.0986487,-0.644177,0.00347197,0.0370741,0.241876,-0.0012815,0.0110014,0.406833,5,0.1,27,1.2,0.777137,-3.74733,0.860454,-0.0228569,0.503194,0.285995,0.00858307,-0.189066,-0.107408,0.0253399,0.179087,5,0.1,28,1.2,-0.881998,-3.63404,0.622011,0.866026,0.172234,-0.00962466,0,0.0599623,0.000923872,0.00937291,2.25395,5,0.1,29,1.2,2.4005,3.40505,0.584731,0.687981,-0.467539,0.0128582,-0.753284,0.175714,-0.00485778,0.00744707,0.530558,5,0.1
0,1.3,-1.3585,-1.8594,0.584823,-0.0471991,0.866025,-0.00938652,-0.00306964,1.49012e-05,-0.00057742,0.00841938,2.27043,5,0.1,1,1.3,3.52825,3.01796,0.714123,-0.7878,-0.0158761,0.0317202,0.527993,0.00663102,-0.0130944,0.0222058,0.475676,5,0.1,2,1.3,-3.80695,-3.42376,0.612648,0.119932,0.866026,-0.00298833,0.00864267,0,-0.000227243,0.0153045,2.26264,5,0.1,3,1.3,1.89159,-3.29214,0.71296,-0.401525,0.86498,0.0293365,0.24756,-0.0130534,0.0155121,0.0104077,1.41281,5,0.1,4,1.3,0.990028,3.46957,0.715987,-0.455106,-0.851267,0.0286579,0.138447,0.0788271,-0.00873953,0.00965055,0.901345,5,0.1,5,1.3,3.88416,0.155306,0.615966,-0.246121,0.866025,-0.00672825,-0.0146478,8.9407e-07,-0.000409782,0.0111291,2.23343,5,0.1,6,1.3,-0.609989,0.623811,0.561839,0.406685,0.642049,0.0337468,-0.168137,-0.265494,-0.0139661,0.0307018,0.333279,5,0.1,7,1.3,0.695994,2.43517,0.712339,-0.808456,-0.206238,0.0313007,0.266664,0.816241,-0.0087209,0.0125948,0.842271,5,0.1,8,1.3,-0.0354336,3.44153,0.580466,-0.366531,0.537962,0.0172726,0.151551,-0.222385,-0.00716373,0.00770236,0.244195,5,0.1,9,1.3,-4.19539,-2.21655,0.650187,-0.0886403,0.866026,-0.01198,-0.00450015,0,-0.000663102,0.00810504,2.26681,5,0.1,10,1.3,3.581,2.16524,0.595364,-0.381113,0.738067,0.00408692,0.157595,-0.305161,-0.00169501,0.0140878,0.397278,5,0.1,11,1.3,0.782533,2.83923,0.582583,-0.291733,-0.521943,0.0150328,0.144061,0.162169,-0.00945106,0.00808147,0.329618,5,0.1,12,1.3,-0.187779,-0.354243,0.63429,-0.112402,0.346238,-0.0343533,-0.00987761,-0.11622,-0.00300258,0.00956858,0.108048,5,0.1,13,1.3,-0.880287,-1.07234,0.554914,0.866026,0.425216,0.0248324,-3.72529e-06,0.0271425,0.00156462,0.0121361,2.15937,5,0.1,14,1.3,-2.39898,-0.806967,0.553669,0.806879,0.492756,0.0109618,0.0742376,-0.45618,-0.0117384,0.0360747,2.29988,5,0.1,15,1.3,1.1807,-0.86363,0.652871,-0.866025,0.150962,-0.0141624,-1.49012e-05,0.0105761,-0.000983477,0.0109486,2.25714,5,0.1,16,1.3,3.51032,3.86959,0.614262,-0.318567,-0.37092,-0.0126069,0.131652,0.153348,0.00519305,0.0107747,0.137789,5,0.1,17,1.3,3.65354,-0.449189,0.704456,-0.124395,0.866026,0.0160271,-0.00761449,-3.57628e-06,0.000983477,0.0165091,2.26184,5,0.1,18,1.3,3.48613,-1.1552,0.630535,-0.0123762,0.866025,-0.0104804,-0.00077486,1.49012e-05,-0.000633299,0.016387,2.27175,5,0.1,19,1.3,-3.31012,-0.704332,0.570985,0.866026,-0.379776,0.0100514,0,-0.0276417,0.000715256,0.0172933,2.18128,5,0.1,20,1.3,-0.670478,1.26888,0.627115,0.725401,0.0717415,-0.0239739,-0.299912,-0.0296459,0.00993907,0.00777358,0.30632,5,0.1,21,1.3,-0.291398,-3.18994,0.698263,-0.00373325,0.58386,0.0224849,0.000504777,1.51606,-0.00309199,0.0192944,2.61231,5,0.1,22,1.3,-1.81332,-0.372141,0.500005,0.144394,0.462188,-0.000111572,-0.059709,-0.29706,0.00339001,0.013482,0.176114,5,0.1,23,1.3,4.01357,-3.90938,0.56542,0.336623,-0.277763,-0.0501779,-0.139162,0.114843,0.0207238,0.00920359,0.111128,5,0.1,24,1.3,-2.3227,-0.388346,0.586548,0.594644,0.210701,0.011891,-0.247136,-0.0875369,-0.00483915,0.0112296,0.229355,5,0.1,25,1.3,1.17078,-0.482058,0.631106,-0.321641,-0.264392,-0.00961479,-0.704445,0.463462,-0.0096038,0.0132362,3.01722,5,0.1,26,1.3,1.45726,-2.59862,0.596222,-0.0994287,-0.624709,0.00334494,-0.0397414,0.177369,-0.00137091,0.0110014,0.406833,5,0.1,27,1.3,0.774893,-3.69794,0.888528,-0.0220085,0.484504,0.275377,0.00909716,-0.200391,-0.113841,0.0253399,0.179087,5,0.1,28,1.3,-0.795396,-3.61654,0.621048,0.866026,0.177319,-0.00965092,-3.72529e-06,0.0345856,-0.000804663,0.00937291,2.25395,5,0.1,29,1.3,2.46495,3.35916,0.585993,0.596708,-0.45017,0.0123786,-1.01598,0.18619,-0.00513345,0.00744707,0.530558,5,0.1
0,1.4,-1.36322,-1.77279,0.583884,-0.0471056,0.866026,-0.00936538,0.00673532,-5.96046e-05,0.00137091,0.0101697,2.27046,5,0.1,1,1.4,3.45248,3.01641,0.717221,-0.723964,-0.0150859,0.0301525,0.745177,0.00965595,-0.0189543,0.016319,0.424067,5,0.1,2,1.4,-3.79494,-3.33715,0.612348,0.119793,0.866026,-0.0029847,-0.0162125,0,0.000357628,0.0141774,2.26278,5,0.1,3,1.4,1.85297,-3.20591,0.715977,-0.368294,0.856698,0.0310078,0.409245,-0.186682,0.0152588,0.0128976,1.05098,5,0.1,4,1.4,0.945341,3.38504,0.718801,-0.437051,-0.836587,0.027521,0.233054,0.244021,-0.0147223,0.0100012,0.629362,5,0.1,5,1.4,3.85953,0.241909,0.615293,-0.245506,0.866025,-0.00671148,0.0369549,1.43051e-05,0.00101328,0.0111495,2.23439,5,0.1,6,1.4,-0.570264,0.686526,0.565135,0.38656,0.610271,0.0320747,-0.243068,-0.383735,-0.0201464,0.0258097,0.219372,5,0.1,7,1.4,0.616666,2.41843,0.715417,-0.775686,-0.130957,0.0301346,0.409961,0.677466,-0.015378,0.0165796,1.04857,5,0.1,8,1.4,-0.0712363,3.49408,0.582153,-0.348392,0.511342,0.0164166,0.219073,-0.321388,-0.0103414,0.0107326,0.160732,5,0.1,9,1.4,-4.20426,-2.12995,0.648988,-0.088346,0.866026,-0.0119418,0.0140667,0,0.00181794,0.00909185,2.26696,5,0.1,10,1.4,3.54377,2.23733,0.595763,-0.362247,0.701541,0.00388473,0.227809,-0.441194,-0.00244379,0.0140552,0.261488,5,0.1,11,1.4,0.754168,2.78793,0.584033,-0.274596,-0.50295,0.0139266,0.203073,0.234842,-0.012815,0.0118668,0.234748,5,0.1,12,1.4,-0.199029,-0.320442,0.630852,-0.112116,0.327417,-0.0342637,0.019446,-0.257999,0.00593066,0.00990487,0.138501,5,0.1,13,1.4,-0.793685,-1.02978,0.557399,0.866026,0.424314,0.0247791,0,-0.0618994,-0.00366569,0.0129545,2.16198,5,0.1,14,1.4,-2.31803,-0.759916,0.554706,0.809926,0.448467,0.00978708,-0.0524521,-0.443369,-0.0119507,0.0359365,2.38003,5,0.1,15,1.4,1.0941,-0.848518,0.651454,-0.866026,0.150752,-0.0141427,5.96046e-05,-0.020802,0.00196695,0.0106714,2.25739,5,0.1,16,1.4,3.4792,3.83336,0.61303,-0.302804,-0.352567,-0.011985,0.190377,0.22161,0.00751019,0.0102911,0.154465,5,0.1,17,1.4,3.6411,-0.362587,0.706059,-0.124109,0.866025,0.0159904,0.0183582,1.43051e-05,-0.00235438,0.0166201,2.26207,5,0.1,18,1.4,3.48489,-1.0686,0.629486,-0.0123501,0.866026,-0.0104547,0.00178814,-2.98023e-05,0.00151992,0.0155004,2.27176,5,0.1,19,1.4,-3.22351,-0.742355,0.571991,0.866026,-0.379348,0.0100389,0,0.0514686,-0.00137091,0.0138905,2.18268,5,0.1,20,1.4,-0.599621,1.27588,0.624774,0.689502,0.0681907,-0.0227854,-0.433534,-0.0428557,0.0143349,0.00750572,0.541794,5,0.1,21,1.4,-0.291768,-3.12434,0.70049,-0.00365227,0.722659,0.0219911,0.0012368,1.1971,-0.00753999,0.019945,2.36738,5,0.1,22,1.4,-1.79922,-0.327918,0.500006,0.137249,0.417732,0.000101328,-0.0862479,-0.570208,0.00101328,0.00995799,0.273994,5,0.1,23,1.4,4.04646,-3.93651,0.560518,0.319958,-0.264019,-0.0476956,-0.200987,0.166059,0.0299811,0.00873096,0.124567,5,0.1,24,1.4,-2.26462,-0.367767,0.58771,0.565064,0.200223,0.0113115,-0.357151,-0.126511,-0.00697374,0.0139793,0.154327,5,0.1,25,1.4,1.13487,-0.505901,0.630094,-0.397304,-0.210264,-0.0106171,-0.748694,0.596493,-0.00941753,0.00782852,0.723428,5,0.1,26,1.4,1.44708,-2.66011,0.596549,-0.104329,-0.603622,0.00317991,-0.0485778,0.26536,-0.00199676,0.00901852,0.359906,5,0.1,27,1.4,0.772743,-3.65061,0.915427,-0.0209183,0.460517,0.261751,0.013113,-0.289679,-0.164598,0.0254215,0.117876,5,0.1,28,1.4,-0.708793,-3.59872,0.620081,0.866026,0.177962,-0.00967681,0,-0.0263453,0.00077486,0.00977877,2.25424,5,0.1,29,1.4,2.51946,3.31519,0.587202,0.493824,-0.427884,0.011766,-1.00744,0.269055,-0.00742078,0.0079565,0.43786,5,0.1
0,1.5,-1.36791,-1.68619,0.582951,-0.0468386,0.866025,-0.00931015,0.00127405,1.49012e-05,0.000264496,0.0101697,2.27046,5,0.1,1,1.5,3.3844,3.01495,0.720145,-0.63253,-0.014168,0.0283444,1.0452,0.00914931,-0.0180677,0.016319,0.424067,5,0.1,2,1.5,-3.783,-3.25055,0.612051,0.119245,0.866026,-0.00297492,-0.00168383,0,1.11759e-05,0.0141774,2.26278,5,0.1,3,1.5,1.8179,-3.12083,0.719133,-0.335292,0.847019,0.0318868,0.270776,-0.0570267,0.00195205,0.0128976,1.05098,5,0.1,4,1.5,0.902768,3.30251,0.721486,-0.414421,-0.814146,0.0261966,0.231989,0.236616,-0.0127777,0.0100012,0.629362,5,0.1,5,1.5,3.83509,0.328512,0.614624,-0.243875,0.866025,-0.00666641,0.00940263,-1.78814e-06,0.00026077,0.0111495,2.23439,5,0.1,6,1.5,-0.532776,0.745708,0.568246,0.363374,0.573668,0.0301523,-0.23162,-0.365667,-0.0192076,0.0258097,0.219372,5,0.1,7,1.5,0.540877,2.40852,0.718356,-0.741889,-0.0697393,0.0286615,0.30152,0.523195,-0.0150092,0.0165796,1.04857,5,0.1,8,1.5,-0.105022,3.54366,0.583745,-0.327495,0.480684,0.0154303,0.208757,-0.306293,-0.00984967,0.0107326,0.160732,5,0.1,9,1.5,-4.21305,-2.04334,0.6478,-0.087671,0.866026,-0.0118569,0.00429153,0,0.000540167,0.00909185,2.26696,5,0.1,10,1.5,3.50864,2.30537,0.59614,-0.340517,0.659457,0.00365209,0.217095,-0.420421,-0.00232458,0.0140552,0.261488,5,0.1,11,1.5,0.727662,2.73866,0.585368,-0.255905,-0.483359,0.0127973,0.179391,0.179306,-0.0102893,0.0118668,0.234748,5,0.1,12,1.5,-0.21017,-0.289288,0.627447,-0.110824,0.292985,-0.0338693,0.0122562,-0.41835,0.00374392,0.00990487,0.138501,5,0.1,13,1.5,-0.707082,-0.987524,0.559867,0.866026,0.421654,0.0246193,-3.72529e-06,-0.0150651,-0.000916421,0.0129545,2.16198,5,0.1,14,1.5,-2.23737,-0.716918,0.555679,0.802123,0.414484,0.0101124,-0.130415,-0.263955,0.0150539,0.0359365,2.38003,5,0.1,15,1.5,1.0075,-0.833495,0.650045,-0.866025,0.150005,-0.0140713,-1.11759e-05,-0.00279769,0.000271946,0.0106714,2.25739,5,0.1,16,1.5,3.44967,3.79899,0.611862,-0.28915,-0.336678,-0.0114466,0.101477,0.118062,0.00400469,0.0102911,0.154465,5,0.1,17,1.5,3.62874,-0.275984,0.707652,-0.123335,0.866025,0.0158912,0.00414252,-1.78814e-06,-0.000528991,0.0166201,2.26207,5,0.1,18,1.5,3.48366,-0.981995,0.628445,-0.0122767,0.866025,-0.0103913,0.000372529,3.72529e-06,0.000335276,0.0155004,2.27176,5,0.1,19,1.5,-3.13691,-0.780162,0.572991,0.866026,-0.37754,0.00999058,0,0.00647083,-0.000167638,0.0138905,2.18268,5,0.1,20,1.5,-0.533035,1.2825,0.622564,0.640291,0.0641018,-0.0214182,-0.548567,-0.040859,0.0136569,0.00750572,0.541794,5,0.1,21,1.5,-0.292128,-3.04696,0.702658,-0.00355486,0.816201,0.0213965,0.000882894,0.667721,-0.0053905,0.019945,2.36738,5,0.1,22,1.5,-1.78591,-0.289326,0.500019,0.129021,0.351354,0.000146497,-0.0822023,-0.73546,-2.6077e-05,0.00995799,0.273994,5,0.1,23,1.5,4.07765,-3.96225,0.555868,0.305542,-0.252111,-0.0455457,-0.10711,0.0884831,0.0159778,0.00873096,0.124567,5,0.1,24,1.5,-2.20999,-0.348401,0.58882,0.526403,0.186786,0.0110053,-0.421882,-0.144869,-0.000268221,0.0139793,0.154327,5,0.1,25,1.5,1.09285,-0.523106,0.628955,-0.430086,-0.127044,-0.0123915,0.0401512,1.00473,-0.0234507,0.00782852,0.723428,5,0.1,26,1.5,1.43618,-2.71927,0.596857,-0.115444,-0.580346,0.00298899,-0.153854,0.224352,-0.00190735,0.00901852,0.359906,5,0.1,27,1.5,0.770714,-3.60595,0.940811,-0.0196668,0.432886,0.24605,0.0125133,-0.276029,-0.156846,0.0254215,0.117876,5,0.1,28,1.5,-0.622191,-3.58104,0.619113,0.866026,0.175719,-0.00970196,-3.72529e-06,-0.0260472,-0.000670552,0.00977877,2.25424,5,0.1,29,1.5,2.56393,3.27369,0.588343,0.398107,-0.40222,0.0110588,-0.851631,0.256389,-0.00705943,0.0079565,0.43786,5,0.1
0,1.6,-1.37258,-1.59959,0.582023,-0.0463903,0.866026,-0.00922084,0.00941753,-5.96046e-05,0.00190735,0.00928066,2.27052,5,0.1,1,1.6,3.32661,3.01358,0.722885,-0.521666,-0.0131845,0.0263959,1.14298,0.0107288,-0.0214577,0.0158071,0.415063,5,0.1,2,1.6,-3.77111,-3.16395,0.611754,0.118273,0.866026,-0.00295192,-0.0225306,0,0.000506639,0.0159429,2.26306,5,0.1,3,1.6,1.78563,-3.03654,0.722308,-0.310662,0.836718,0.031352,0.23663,-0.184536,-0.0127852,0.00877562,0.761194,5,0.1,4,1.6,0.862566,3.22247,0.724038,-0.388582,-0.78392,0.024794,0.292987,0.389338,-0.0160038,0.00912789,0.620436,5,0.1,5,1.6,3.81079,0.415114,0.61396,-0.241274,0.866025,-0.00659525,0.0522137,1.43051e-05,0.00143051,0.0110572,2.2361,5,0.1,6,1.6,-0.497651,0.801162,0.57116,0.338402,0.534241,0.0280812,-0.275224,-0.434458,-0.0228584,0.0289366,0.145277,5,0.1,7,1.6,0.468255,2.40377,0.721142,-0.709317,-0.0295103,0.02698,0.375017,0.272989,-0.0192225,0.0089637,0.303046,5,0.1,8,1.6,-0.136679,3.59013,0.585237,-0.304987,0.447655,0.0143692,0.248037,-0.364065,-0.0116825,0.00753639,0.105641,5,0.1,9,1.6,-4.22178,-1.95674,0.646619,-0.0866532,0.866026,-0.0117213,0.0197887,-5.96046e-05,0.00265241,0.00907677,2.26721,5,0.1,10,1.6,3.47572,2.36911,0.596493,-0.317109,0.61413,0.00340194,0.257969,-0.499487,-0.00274181,0.0140831,0.171864,5,0.1,11,1.6,0.702987,2.69128,0.586597,-0.237258,-0.463295,0.0117809,0.199467,0.237703,-0.010401,0.00850695,0.163968,5,0.1,12,1.6,-0.221164,-0.26226,0.624087,-0.108678,0.246062,-0.0332132,0.0346601,-0.509232,0.0106096,0.0106364,0.252884,5,0.1,13,1.6,-0.62048,-0.945516,0.562319,0.866026,0.41725,0.0243589,0,-0.0897348,-0.00524521,0.0126494,1.98512,5,0.1,14,1.6,-2.15811,-0.676679,0.556787,0.77942,0.39086,0.0121936,-0.340939,-0.229031,0.0239313,0.0359888,2.54685,5,0.1,15,1.6,0.920895,-0.818537,0.648641,-0.866026,0.148715,-0.013949,0,-0.0291169,0.00271201,0.00989843,2.25788,5,0.1,16,1.6,3.42125,3.76588,0.610736,-0.279266,-0.325185,-0.0110567,0.109673,0.127912,0.00435114,0.00869603,0.112383,5,0.1,17,1.6,3.61645,-0.189382,0.709235,-0.122088,0.866025,0.0157312,0.0258684,0,-0.00333786,0.0165002,2.26249,5,0.1,18,1.6,3.48243,-0.895393,0.627409,-0.0121593,0.866026,-0.0102878,0.0026226,0,0.00217557,0.0149576,2.27176,5,0.1,19,1.6,-3.05031,-0.817812,0.573988,0.866026,-0.37434,0.00990629,0,0.0729263,-0.00190735,0.0139924,2.18568,5,0.1,20,1.6,-0.471924,1.28869,0.620494,0.580244,0.059697,-0.0199467,-0.649929,-0.0485778,0.0162423,0.00725778,0.966417,5,0.1,21,1.6,-0.292479,-2.96286,0.704767,-0.00344589,0.857365,0.0207365,0.00140071,0.173211,-0.00855327,0.0181244,2.27535,5,0.1,22,1.6,-1.77344,-0.25799,0.500033,0.120157,0.274582,0.000111759,-0.097692,-0.782438,-0.000566244,0.0121269,0.268045,5,0.1,23,1.6,4.10769,-3.98704,0.55139,0.295103,-0.243497,-0.0439882,-0.115871,0.0959635,0.0172555,0.00934233,0.072177,5,0.1,24,1.6,-2.1596,-0.330494,0.589923,0.479829,0.170843,0.0110611,-0.512362,-0.175431,0.000566244,0.0143736,0.1129,5,0.1,25,1.6,1.05098,-0.530542,0.627593,-0.399011,-0.0205025,-0.0148475,0.536799,1.07753,-0.0237226,0.0125752,3.20201,5,0.1,26,1.6,1.42382,-2.77609,0.597146,-0.131619,-0.554663,0.00278354,-0.154912,0.30601,-0.00226498,0.00875414,0.258675,5,0.1,27,1.6,0.768813,-3.56411,0.964595,-0.0183165,0.403124,0.229141,0.0148714,-0.327826,-0.186384,0.0262235,0.132452,5,0.1,28,1.6,-0.535588,-3.56365,0.618141,0.866026,0.171489,-0.00970662,0,-0.063777,0.00104308,0.00926661,2.27081,5,0.1,29,1.6,2.6,3.23481,0.589412,0.328624,-0.374579,0.0102967,-0.542045,0.304699,-0.00834465,0.00915922,0.350111,5,0.1
0,1.7,-1.37719,-1.51299,0.581107,-0.0458995,0.866025,-0.009121,0.00306219,1.49012e-05,0.000618398,0.00928066,2.27052,5,0.1,1,1.7,3.28026,3.01216,0.725423,-0.405547,-0.0166252,0.0243843,1.13699,-0.0692904,-0.0194982,0.0158071,0.415063,5,0.1,2,1.7,-3.75935,-3.07735,0.61146,0.117212,0.866026,-0.00292985,-0.00560284,0,0.000108033,0.0159429,2.26306,5,0.1,3,1.7,1.75558,-2.9536,0.725371,-0.291688,0.823044,0.0298262,0.158772,-0.12894,-0.0180975,0.00877562,0.761194,5,0.1,4,1.7,0.825158,3.14596,0.72646,-0.359541,-0.746534,0.0238243,0.295382,0.382408,-0.00532344,0.00912789,0.620436,5,0.1,5,1.7,3.78684,0.501717,0.613306,-0.238333,0.866025,-0.00651469,0.0201762,1.78814e-06,0.000555068,0.0110572,2.2361,5,0.1,6,1.7,-0.465155,0.852424,0.573857,0.311655,0.490874,0.0258715,-0.266852,-0.441611,-0.0219531,0.0289366,0.145277,5,0.1,7,1.7,0.399676,2.4018,0.724025,-0.657814,-0.0141826,0.0330205,0.641763,0.016138,0.121687,0.0089637,0.303046,5,0.1,8,1.7,-0.165997,3.63316,0.586618,-0.281735,0.413525,0.0132742,0.225339,-0.330746,-0.0106134,0.00753639,0.105641,5,0.1,9,1.7,-4.23038,-1.87014,0.645456,-0.0854835,0.866025,-0.0115641,0.00840425,1.49012e-05,0.00114366,0.00907677,2.26721,5,0.1,10,1.7,3.44524,2.42815,0.59682,-0.292925,0.567307,0.0031448,0.234365,-0.45377,-0.00249222,0.0140831,0.171864,5,0.1,11,1.7,0.680198,2.64603,0.587727,-0.218932,-0.442313,0.0108569,0.174247,0.200033,-0.00849739,0.00850695,0.163968,5,0.1,12,1.7,-0.231829,-0.240301,0.620828,-0.104288,0.192449,-0.0318701,0.0545764,-0.549777,0.016693,0.0106364,0.252884,5,0.1,13,1.7,-0.533877,-0.904114,0.564736,0.866026,0.411467,0.0240209,-3.57628e-06,-0.0477396,-0.00279397,0.0126494,1.98512,5,0.1,14,1.7,-2.08172,-0.638825,0.558182,0.74922,0.36526,0.016162,-0.293642,-0.28611,0.050649,0.0359888,2.54685,5,0.1,15,1.7,0.834292,-0.803754,0.647255,-0.866026,0.147287,-0.0138164,3.72529e-06,-0.0080727,0.000748783,0.00989843,2.25788,5,0.1,16,1.7,3.39376,3.73406,0.609654,-0.271179,-0.310577,-0.0105598,0.0667125,0.169814,0.00577793,0.00869603,0.112383,5,0.1,17,1.7,3.60432,-0.102779,0.710798,-0.12068,0.866025,0.0155493,0.00922382,0,-0.00119582,0.0165002,2.26249,5,0.1,18,1.7,3.48123,-0.80879,0.626388,-0.0120167,0.866026,-0.0101693,0.000938773,-3.72529e-06,0.00077486,0.0149576,2.27176,5,0.1,19,1.7,-2.96371,-0.855024,0.574973,0.866026,-0.37075,0.00981335,0,0.0205524,-0.000521541,0.0139924,2.18568,5,0.1,20,1.7,-0.417603,1.29443,0.618576,0.503095,0.0551427,-0.0184244,-0.836961,-0.0441298,0.0147484,0.00725778,0.966417,5,0.1,21,1.7,-0.292817,-2.8766,0.706805,-0.00333874,0.865484,0.0200817,0.000914559,0.0216514,-0.00558794,0.0181244,2.27535,5,0.1,22,1.7,-1.76189,-0.234398,0.500041,0.110998,0.198067,5.27129e-05,-0.0887662,-0.7353,-0.000596046,0.0121269,0.268045,5,0.1,23,1.7,4.1367,-4.01097,0.547066,0.285334,-0.235412,-0.0425338,-0.0923574,0.0764132,0.0137575,0.00934233,0.072177,5,0.1,24,1.7,-2.11422,-0.314285,0.591047,0.427382,0.153322,0.0115506,-0.537649,-0.176592,0.00777096,0.0143736,0.1129,5,0.1,25,1.7,1.01258,-0.528014,0.626007,-0.378774,0.0634588,-0.0166933,-0.0581816,0.620715,-0.0129752,0.0125752,3.20201,5,0.1,26,1.7,1.4098,-2.83014,0.597414,-0.149227,-0.526853,0.0025711,-0.181988,0.269964,-0.00206009,0.00875414,0.258675,5,0.1,27,1.7,0.767043,-3.52516,0.986733,-0.0171755,0.377974,0.214843,0.00902265,-0.198826,-0.113014,0.0262235,0.132452,5,0.1,28,1.7,-0.449077,-3.5467,0.617175,0.863073,0.168327,-0.00961209,-0.0678079,-0.0117868,0.00124797,0.00926661,2.27081,5,0.1,29,1.7,2.63079,3.19881,0.590402,0.29273,-0.346016,0.00951439,-0.212952,0.276804,-0.00758469,0.00915922,0.350111,5,0.1
0,1.8,-1.38176,-1.42638,0.580199,-0.0453264,0.866026,-0.00900626,0.0103116,0,0.00205636,0.0117402,2.27058,5,0.1,1,1.8,3.24511,3.01008,0.727762,-0.300777,-0.0252306,0.0223741,0.935555,-0.0946522,-0.0211596,0.0207512,0.40451,5,0.1,2,1.8,-3.74767,-2.99074,0.611168,0.115973,0.866026,-0.00290126,-0.0241995,0,0.000596046,0.0130973,2.26339,5,0.1,3,1.8,1.72719,-2.87211,0.728252,-0.276166,0.80415,0.0276804,0.163257,-0.276804,-0.0250041,0.00827355,0.536765,5,0.1,4,1.8,0.790734,3.07336,0.72882,-0.328273,-0.703442,0.0233933,0.334769,0.495553,-0.00473857,0.00986208,0.460907,5,0.1,5,1.8,3.76315,0.588319,0.612658,-0.234914,0.866026,-0.00642091,0.0574589,0,0.00157952,0.0101119,2.2346,5,0.1,6,1.8,-0.435357,0.899234,0.576332,0.283851,0.444506,0.0235885,-0.293896,-0.491142,-0.0241101,0.0304012,0.10219,5,0.1,7,1.8,0.33745,2.4,0.728043,-0.583554,-0.0261903,0.0480667,0.830814,-0.237703,0.165075,0.0125218,0.747644,5,0.1,8,1.8,-0.193026,3.67283,0.587891,-0.258518,0.379449,0.0121802,0.244677,-0.359178,-0.0115335,0.00910355,0.119605,5,0.1,9,1.8,-4.23887,-1.78354,0.644307,-0.0841498,0.866026,-0.011383,0.0216961,-5.96046e-05,0.00295043,0.0118292,2.2675,5,0.1,10,1.8,3.41714,2.48257,0.597122,-0.268781,0.520551,0.00288785,0.254512,-0.492573,-0.00271201,0.0137301,0.173709,5,0.1,11,1.8,0.659183,2.60285,0.58877,-0.201192,-0.420225,0.0100091,0.185549,0.254393,-0.00876188,0.00791402,2.25967,5,0.1,12,1.8,-0.241943,-0.223782,0.617737,-0.0975475,0.138425,-0.0298083,0.080958,-0.520788,0.0247359,0.0118245,0.251063,5,0.1,13,1.8,-0.447275,-0.863283,0.56712,0.866025,0.403988,0.0235826,1.43051e-05,-0.117123,-0.00682473,0.0122841,1.57133,5,0.1,14,1.8,-2.00839,-0.603844,0.560063,0.715524,0.333205,0.021483,-0.401318,-0.356168,0.0521839,0.0359694,2.67646,5,0.1,15,1.8,0.74769,-0.789089,0.645879,-0.866026,0.145623,-0.0136629,0,-0.0312924,0.00298023,0.0113451,2.35399,5,0.1,16,1.8,3.367,3.70396,0.608631,-0.263411,-0.290346,-0.00987053,0.0988245,0.237942,0.00807643,0.00832058,0.131569,5,0.1,17,1.8,3.59232,-0.0161766,0.712344,-0.11906,0.866025,0.0153393,0.0282526,-1.19209e-06,-0.00360608,0.0170665,2.26296,5,0.1,18,1.8,3.48003,-0.722187,0.625376,-0.0118494,0.866026,-0.010033,0.00274181,0,0.00238419,0.0198152,2.27177,5,0.1,19,1.8,-2.8771,-0.891937,0.57595,0.866026,-0.366522,0.00970364,0,0.079304,-0.00208616,0.0132923,2.18918,5,0.1,20,1.8,-0.371434,1.29972,0.616809,0.42155,0.0505954,-0.0169054,-0.763014,-0.0479221,0.0160038,0.00830362,0.877923,5,0.1,21,1.8,-0.293146,-2.79001,0.708784,-0.00323281,0.866026,0.0194401,0.0012964,0,-0.00798702,0.0185426,2.2717,5,0.1,22,1.8,-1.75124,-0.218105,0.500043,0.101852,0.129624,-4.47035e-06,-0.0963807,-0.625096,-0.000506639,0.0121972,0.26461,5,0.1,23,1.8,4.16472,-4.03409,0.542889,0.274444,-0.226426,-0.0409111,-0.134468,0.111103,0.0199974,0.00684497,0.054752,5,0.1,24,1.8,-2.07422,-0.299848,0.592243,0.372207,0.135274,0.012365,-0.565529,-0.185236,0.00739098,0.0121452,0.178051,5,0.1,25,1.8,0.973933,-0.519188,0.624292,-0.397573,0.107251,-0.017415,-0.260949,0.272214,-0.00137091,0.0151778,2.94938,5,0.1,26,1.8,1.39403,-2.8814,0.59766,-0.1654,-0.497341,0.00235885,-0.130475,0.333905,-0.00223517,0.00557696,0.41843,5,0.1,27,1.8,0.765369,-3.4883,1.00768,-0.0163272,0.359273,0.204214,0.00876188,-0.192404,-0.109315,0.027433,0.0778916,5,0.1,28,1.8,-0.363296,-3.52992,0.616223,0.850394,0.167,-0.00939071,-0.197754,-0.0237226,0.00345707,0.00826412,2.35451,5,0.1,29,1.8,2.65929,3.16561,0.591315,0.279468,-0.317502,0.00873208,-0.0809431,0.300646,-0.00825524,0.00767622,0.266599,5,0.1
0,1.9,-1.38626,-1.33978,0.579305,-0.0447663,0.866026,-0.00889497,0.00350922,0,0.000689179,0.0117402,2.27058,5,0.1,1,1.9,3.21933,3.00703,0.730056,-0.219706,-0.0363275,0.0248587,0.650972,-0.119537,0.0603646,0.0207512,0.40451,5,0.1,2,1.9,-3.73615,-2.90414,0.61088,0.114798,0.866026,-0.0028722,-0.00618398,0,0.000156462,0.0130973,2.26339,5,0.1,3,1.9,1.70028,-2.79294,0.730895,-0.262698,0.779752,0.0251763,0.118844,-0.243485,-0.0254363,0.00827355,0.536765,5,0.1,4,1.9,0.759521,3.00539,0.731151,-0.296429,-0.6566,0.0233183,0.308797,0.461042,0.00151247,0.00986208,0.460907,5,0.1,5,1.9,3.73978,0.674922,0.612022,-0.233414,0.866026,-0.00629174,-0.00996888,-3.72529e-06,0.00129268,0.0101119,2.2346,5,0.1,6,1.9,-0.408418,0.941249,0.578574,0.255058,0.39589,0.0212794,-0.285797,-0.485234,-0.0225157,0.0304012,0.10219,5,0.1,7,1.9,0.28268,2.39562,0.733507,-0.516659,-0.0659619,0.0596229,0.540921,-0.51339,0.0697002,0.0125218,0.747644,5,0.1,8,1.9,-0.217842,3.70926,0.589061,-0.239296,0.351231,0.0112743,0.154584,-0.226915,-0.00728294,0.00910355,0.119605,5,0.1,9,1.9,-4.24721,-1.69693,0.643179,-0.0828139,0.866025,-0.0112002,0.00974536,1.49012e-05,0.00134483,0.0118292,2.2675,5,0.1,10,1.9,3.39131,2.5323,0.597398,-0.249648,0.474915,0.00263667,0.145331,-0.434294,-0.00239536,0.0137301,0.173709,5,0.1,11,1.9,0.639082,2.56222,0.589628,-0.208395,-0.391214,0.00629909,-0.269853,0.326306,-0.0592843,0.00791402,2.25967,5,0.1,12,1.9,-0.251282,-0.212429,0.614883,-0.0891164,0.0899604,-0.027232,0.088444,-0.44196,0.027027,0.0118245,0.251063,5,0.1,13,1.9,-0.360898,-0.823329,0.569421,0.858713,0.395955,0.0222292,-0.166573,-0.0649989,-0.019528,0.0122841,1.57133,5,0.1,14,1.9,-1.93819,-0.572183,0.56251,0.69365,0.300952,0.0277018,-0.094004,-0.298951,0.0673831,0.0359694,2.67646,5,0.1,15,1.9,0.661321,-0.77472,0.644564,-0.858497,0.141319,-0.0123084,0.170413,-0.0573099,0.0222474,0.0113451,2.35399,5,0.1,16,1.9,3.34096,3.67599,0.60768,-0.258801,-0.269757,-0.00917157,0.0132322,0.185639,0.00630692,0.00832058,0.131569,5,0.1,17,1.9,3.58051,0.0704259,0.713866,-0.117461,0.866025,0.0151359,0.0105649,4.47035e-07,-0.00134856,0.0170665,2.26296,5,0.1,18,1.9,3.47886,-0.635585,0.624381,-0.011697,0.866026,-0.00989791,0.000998378,-3.72529e-06,0.00089407,0.0198152,2.27177,5,0.1,19,1.9,-2.7905,-0.928339,0.576914,0.866026,-0.362439,0.00959681,0,0.023827,-0.000622123,0.0132923,2.18918,5,0.1,20,1.9,-0.332839,1.30455,0.615194,0.353485,0.0461554,-0.0154228,-0.578292,-0.0422522,0.0141077,0.00830362,0.877923,5,0.1,21,1.9,-0.293464,-2.7034,0.710696,-0.00313809,0.866026,0.018856,0.000771135,0,-0.00473484,0.0185426,2.2717,5,0.1,22,1.9,-1.74151,-0.208021,0.500041,0.0929225,0.0745964,-4.5076e-05,-0.0849813,-0.472912,-0.000312924,0.0121972,0.26461,5,0.1,23,1.9,4.19159,-4.05626,0.538884,0.26348,-0.217374,-0.0392808,-0.0982583,0.0810623,0.014618,0.00684497,0.054752,5,0.1,24,1.9,-2.03975,-0.287178,0.59355,0.317866,0.118689,0.0140271,-0.524014,-0.150617,0.0230484,0.0121452,0.178051,5,0.1,25,1.9,0.932051,-0.50773,0.622553,-0.446345,0.116313,-0.0172688,-0.638895,-0.0639111,0.00444055,0.0151778,2.94938,5,0.1,26,1.9,1.37706,-2.92883,0.597544,-0.171799,-0.445494,-0.00754846,-0.000700355,0.672087,-0.174265,0.00557696,0.41843,5,0.1,27,1.9,0.763775,-3.45334,1.02762,-0.0155808,0.339776,0.194905,0.00686944,-0.206113,-0.0856519,0.027433,0.0778916,5,0.1,28,1.9,-0.27989,-3.51323,0.615298,0.814847,0.167591,-0.00912724,-0.383461,0.0226945,0.00227615,0.00826412,2.35451,5,0.1,29,1.9,2.68715,3.13528,0.592149,0.280132,-0.289651,0.00796746,0.0655651,0.265032,-0.00727922,0.00767622,0.266599,5,0.1
0,2,-1.39071,-1.25318,0.578421,-0.044173,0.866026,-0.00877827,0.0101924,0,0.00202656,0.00929467,2.31102,5,0.1,1,2,3.2,3.00281,0.732907,-0.172842,-0.047791,0.0325873,0.2985,-0.104308,0.0861287,0.0190207,0.395575,5,0.1,2,2,-3.72472,-2.81754,0.610594,0.113559,0.866026,-0.00284016,-0.0236034,0,0.000596046,0.0156577,2.2637,5,0.1,3,2,1.67462,-2.71635,0.733283,-0.250214,0.750005,0.0225365,0.139773,-0.37384,-0.0275373,0.00817794,0.370546,5,0.1,4,2,0.731423,2.94211,0.733489,-0.265391,-0.60792,0.0233993,0.316411,0.525832,-0.00113249,0.00905586,0.345615,5,0.1,5,2,3.7164,0.761524,0.611401,-0.233889,0.866026,-0.00611544,0.0132322,0,0.00241399,0.010137,2.23412,5,0.1,6,2,-0.384353,0.978396,0.580589,0.226068,0.346829,0.0190109,-0.296354,-0.498265,-0.0231564,0.0244286,0.150653,5,0.1,7,2,0.233468,2.3863,0.739686,-0.469429,-0.121057,0.0627145,0.429257,-0.554562,-0.00447035,0.0154514,0.586712,5,0.1,8,2,-0.241048,3.74332,0.590154,-0.225032,0.330293,0.0106022,0.141568,-0.207901,-0.00667572,0.0128899,0.156369,5,0.1,9,2,-4.25543,-1.61033,0.642067,-0.0813961,0.866026,-0.011006,0.0216961,-5.96046e-05,0.00301003,0.00824389,2.26779,5,0.1,10,2,3.36701,2.57762,0.597649,-0.236714,0.431293,0.00239611,0.125766,-0.447869,-0.00247359,0.0145997,0.5972,5,0.1,11,2,0.616546,2.52485,0.58992,-0.244588,-0.354981,-0.000751019,-0.407994,0.397682,-0.0768602,0.00829349,2.05912,5,0.1,12,2,-0.259735,-0.205471,0.6123,-0.0797465,0.0510111,-0.0243679,0.0993162,-0.333779,0.0303388,0.010178,0.248617,5,0.1,13,2,-0.276268,-0.784116,0.57153,0.829484,0.387327,0.0198126,-0.429935,-0.122756,-0.0281632,0.0129591,1.34227,5,0.1,14,2,-1.86917,-0.543555,0.56561,0.686666,0.271693,0.0341237,-0.0883341,-0.293344,0.0575781,0.00892729,0.557516,5,0.1,15,2,0.576735,-0.760934,0.643464,-0.828803,0.133769,-0.00955164,0.435084,-0.095129,0.0314116,0.00931384,2.76008,5,0.1,16,2,3.31514,3.64994,0.606794,-0.257331,-0.251192,-0.00853986,0.0306368,0.194073,0.00658631,0.00904056,0.270075,5,0.1,17,2,3.56883,0.157028,0.715371,-0.11577,0.866026,0.0149205,0.027895,-7.15256e-06,-0.00363588,0.0191241,2.26343,5,0.1,18,2,3.47769,-0.548982,0.623397,-0.0115335,0.866026,-0.0097543,0.00274181,0,0.00232458,0.0193443,2.27178,5,0.1,19,2,-2.7039,-0.964411,0.577869,0.866026,-0.358085,0.0094831,0,0.0784695,-0.00208616,0.0120098,2.29375,5,0.1,20,2,-0.3,1.30896,0.613722,0.306956,0.041914,-0.0140056,-0.361651,-0.043571,0.0145137,0.00821343,1.78986,5,0.1,21,2,-0.293774,-2.6168,0.712556,-0.00304952,0.866026,0.018315,0.00111759,0,-0.00685453,0.0186107,2.27172,5,0.1,22,2,-1.73264,-0.202662,0.500035,0.0843883,0.0352323,-6.85453e-05,-0.0876784,-0.31504,-0.000149012,0.00971973,0.512351,5,0.1,23,2,4.21741,-4.07756,0.535033,0.252521,-0.208342,-0.0376493,-0.130415,0.107765,0.0194311,0.00768982,0.0244091,5,0.1,24,2,-2.01053,-0.276033,0.595075,0.266975,0.104436,0.0164822,-0.495493,-0.137478,0.0239611,0.0137703,0.153005,5,0.1,25,2,0.884109,-0.496789,0.620859,-0.51215,0.099387,-0.0165075,-0.620723,-0.25253,0.0108182,0.0135023,2.75097,5,0.1,26,2,1.36007,-2.96967,0.595781,-0.166219,-0.368565,-0.028649,0.1086,0.840902,-0.230938,0.00804234,0.194904,5,0.1,27,2,0.762253,-3.42047,1.04666,-0.0148341,0.31665,0.185588,0.00855327,-0.261784,-0.106812,0.0255982,0.197124,5,0.1,28,2,-0.2,-3.49637,0.614398,0.78645,0.169313,-0.00885427,-0.186713,0.0026226,0.00348687,0.00947788,2.34824,5,0.1,29,2,2.71554,3.10764,0.59291,0.287592,-0.263035,0.007236,0.0625849,0.273108,-0.00751019,0.00816733,0.205759,5,0.1
0,2.1,-1.39484,-1.16659,0.577544,-0.0362948,0.865363,-0.00880919,0.133663,-0.0265092,-0.00181794,0.00929467,2.31102,5,0.1,1,2.1,3.1836,2.99749,0.736821,-0.160395,-0.0585858,0.047484,-0.0132024,-0.105396,0.193685,0.0190207,0.395575,5,0.1,2,2.1,-3.71343,-2.73094,0.610312,0.112452,0.866026,-0.00281157,-0.00534952,0,0.000145286,0.0156577,2.2637,5,0.1,3,2.1,1.65022,-2.64309,0.735403,-0.238144,0.71569,0.0199045,0.11193,-0.338897,-0.02544,0.00817794,0.370546,5,0.1,4,2.1,0.706394,2.88369,0.735821,-0.235763,-0.562435,0.023201,0.281643,0.408337,-0.00359491,0.00905586,0.345615,5,0.1,5,2.1,3.69296,0.848127,0.6108,-0.235742,0.866026,-0.00592368,-0.0337958,-3.72529e-06,0.00170991,0.010137,2.23412,5,0.1,6,2.1,-0.363281,1.01077,0.582388,0.194907,0.302113,0.0170601,-0.323636,-0.406239,-0.0167377,0.0244286,0.150653,5,0.1,7,2.1,0.188336,2.37124,0.745857,-0.435873,-0.181243,0.0599839,0.26866,-0.615686,-0.047572,0.0154514,0.586712,5,0.1,8,2.1,-0.263201,3.77542,0.591184,-0.220899,0.312622,0.0100349,-0.0314852,-0.159845,-0.00512972,0.0128899,0.156369,5,0.1,9,2.1,-4.26349,-1.52373,0.640978,-0.0800461,0.866025,-0.0108169,0.00983477,1.49012e-05,0.00139326,0.00824389,2.26779,5,0.1,10,2.1,3.34381,2.6185,0.597644,-0.228466,0.386221,-0.00444716,0.0547618,-0.456735,-0.119757,0.0145997,0.5972,5,0.1,11,2.1,0.589603,2.49168,0.589433,-0.297443,-0.305736,-0.0091644,-0.598837,0.557989,-0.0872836,0.00829349,2.05912,5,0.1,12,2.1,-0.267217,-0.201838,0.610014,-0.0699348,0.0236162,-0.0213701,0.0973605,-0.21542,0.0297502,0.010178,0.248617,5,0.1,13,2.1,-0.195861,-0.745483,0.573305,0.774865,0.389329,0.0151318,-0.657779,0.118662,-0.0612363,0.0129591,1.34227,5,0.1,14,2.1,-1.80173,-0.518945,0.56911,0.654957,0.211315,0.0341378,-0.521079,-0.846792,-0.0477657,0.00892729,0.557516,5,0.1,15,2.1,0.496592,-0.748741,0.64278,-0.768814,0.1041,-0.00316845,0.749037,-0.45605,0.0884347,0.00931384,2.76008,5,0.1,16,2.1,3.28987,3.62574,0.605971,-0.245308,-0.233242,-0.00793049,0.200152,0.172615,0.00586733,0.00904056,0.270075,5,0.1,17,2.1,3.55735,0.243631,0.716851,-0.114201,0.866025,0.0147149,0.0101775,-1.78814e-06,-0.0013411,0.0191241,2.26343,5,0.1,18,2.1,3.47655,-0.46238,0.622429,-0.0113815,0.866026,-0.00962429,0.000983477,-3.57628e-06,0.000841916,0.0193443,2.27178,5,0.1,19,2.1,-2.6173,-1.00081,0.578808,0.865514,-0.377891,0.00930466,-0.0204593,-0.400532,-0.001885,0.0120098,2.29375,5,0.1,20,2.1,-0.27123,1.31295,0.61239,0.26835,0.0379143,-0.0126729,-0.370215,-0.0375882,0.0125319,0.00821343,1.78986,5,0.1,21,2.1,-0.294075,-2.5302,0.714361,-0.00297218,0.866026,0.0178405,0.000597909,0,-0.00365451,0.0186107,2.27172,5,0.1,22,2.1,-1.72457,-0.200462,0.500027,0.0774497,0.011109,-7.65547e-05,-0.0559464,-0.174319,-1.49012e-05,0.00971973,0.512351,5,0.1,23,2.1,4.24202,-4.09787,0.531365,0.239499,-0.197591,-0.035709,-0.136912,0.112951,0.0204109,0.00768982,0.0244091,5,0.1,24,2.1,-1.98618,-0.266203,0.596851,0.221335,0.0927927,0.0190913,-0.421576,-0.100115,0.0262894,0.0137703,0.153005,5,0.1,25,2.1,0.829714,-0.488157,0.619254,-0.575389,0.0729708,-0.0156495,-0.599846,-0.26927,0.00719354,0.0135023,2.75097,5,0.1,26,2.1,1.3442,-3.00289,0.591976,-0.149351,-0.300982,-0.045433,0.218928,0.535935,-0.110108,0.00804234,0.194904,5,0.1,27,2.1,0.76081,-3.39038,1.06471,-0.0140203,0.282965,0.175426,0.00816584,-0.400484,-0.102036,0.0255982,0.197124,5,0.1,28,2.1,-0.121249,-3.47934,0.613527,0.796626,0.171695,-0.00859313,0.298946,0.0330955,0.00219047,0.00947788,2.34824,5,0.1,29,2.1,2.74455,3.08265,0.593567,0.291705,-0.23715,0.00566747,0.0102669,0.250071,-0.0221133,0.00816733,0.205759,5,0.1
0,2.2,-1.39769,-1.0804,0.576654,-0.0198931,0.855425,-0.00899881,0.183523,-0.212014,-0.00140071,0.0137915,2.49716,5,0.1,1,2.2,3.16722,2.99114,0.742593,-0.169027,-0.0678122,0.068137,-0.131369,-0.0748634,0.205666,0.00775627,0.399508,5,0.1,2,2.2,-3.70223,-2.64433,0.610032,0.111318,0.866026,-0.00278354,-0.0219345,0,0.000596046,0.0146446,2.26398,5,0.1,3,2.2,1.62699,-2.57334,0.737267,-0.226077,0.67777,0.0173926,0.136554,-0.437379,-0.0250041,0.00822022,0.252115,5,0.1,4,2.2,0.684205,2.82946,0.738114,-0.208135,-0.522041,0.0225544,0.274658,0.416875,-0.00980496,0.00977779,1.11669,5,0.1,5,2.2,3.66925,0.934729,0.610217,-0.237811,0.866026,-0.00572503,0.00417233,0,0.0025034,0.00988869,2.23345,5,0.1,6,2.2,-0.345431,1.03903,0.584015,0.161956,0.263819,0.0155106,-0.33249,-0.366926,-0.0149012,0.0237444,0.25409,5,0.1,7,2.2,0.146007,2.35016,0.751564,-0.411043,-0.238413,0.0536844,0.247672,-0.50354,-0.0761747,0.0139807,0.445893,5,0.1,8,2.2,-0.285548,3.80587,0.592162,-0.226526,0.295889,0.009498,-0.060454,-0.185132,-0.00596046,0.0143541,0.146812,5,0.1,9,2.2,-4.27144,-1.43713,0.639904,-0.0786424,0.866026,-0.010623,0.0212193,-5.96046e-05,0.00295043,0.00971801,2.26807,5,0.1,10,2.2,3.32122,2.65481,0.596507,-0.22307,0.339478,-0.0189513,0.0644922,-0.47946,-0.158995,0.0159415,0.515869,5,0.1,11,2.2,0.556889,2.46397,0.588091,-0.355619,-0.248331,-0.0174925,-0.527591,0.569701,-0.0762045,0.00717701,1.84709,5,0.1,12,2.2,-0.273724,-0.200372,0.608025,-0.0602089,0.00743978,-0.0183985,0.0973344,-0.111669,0.0297427,0.010703,0.245799,5,0.1,13,2.2,-0.122004,-0.705857,0.574486,0.699031,0.40336,0.00831634,-0.852544,0.129074,-0.0717342,0.0130367,1.10621,5,0.1,14,2.2,-1.73939,-0.502502,0.572176,0.587142,0.114366,0.0262901,-0.813246,-1.0393,-0.101507,0.00734741,0.286951,5,0.1,15,2.2,0.423864,-0.740919,0.642947,-0.682049,0.0501022,0.00674874,0.971392,-0.590712,0.103891,0.0102501,2.84815,5,0.1,16,2.2,3.26655,3.60329,0.605208,-0.219136,-0.215381,-0.00732392,0.314713,0.1899,0.00649691,0.00922164,0.256746,5,0.1,17,2.2,3.54599,0.330234,0.718313,-0.112587,0.866025,0.0145048,0.0268221,1.43051e-05,-0.00348687,0.0166655,2.26387,5,0.1,18,2.2,3.47542,-0.375777,0.621472,-0.0112236,0.866025,-0.00949055,0.00274181,1.43051e-05,0.00226498,0.0246942,2.27179,5,0.1,19,2.2,-2.53102,-1.04089,0.579727,0.857848,-0.425172,0.00903904,-0.163674,-0.488937,-0.00372529,0.0108679,2.20047,5,0.1,20,2.2,-0.246019,1.31655,0.611184,0.238592,0.0341982,-0.0114337,-0.208385,-0.0374913,0.012517,0.00779541,1.63228,5,0.1,21,2.2,-0.294369,-2.4436,0.716125,-0.00290051,0.866026,0.017409,0.000938773,0,-0.00569224,0.0181419,2.27173,5,0.1,22,2.2,-1.71709,-0.200039,0.50002,0.0723571,-0.00096485,-7.30157e-05,-0.0494123,-0.0735968,5.96046e-05,0.01104,0.42245,5,0.1,23,2.2,4.26523,-4.11701,0.527904,0.224006,-0.18481,-0.033398,-0.177622,0.146389,0.0264347,0.00870626,0.014394,5,0.1,24,2.2,-1.96606,-0.257394,0.598883,0.181919,0.0835881,0.0214085,-0.370026,-0.0874847,0.0187159,0.0115421,0.201177,5,0.1,25,2.2,0.769507,-0.482189,0.617725,-0.624622,0.0466816,-0.014925,-0.354141,-0.251576,0.00792742,0.0124519,2.74953,5,0.1,26,2.2,1.33047,-3.03064,0.587045,-0.124237,-0.25689,-0.0516906,0.275254,0.365734,-0.0198483,0.0123746,0.29567,5,0.1,27,2.2,0.759451,-3.36423,1.08171,-0.0131249,0.238675,0.164244,0.0100136,-0.475526,-0.125349,0.0253376,0.189047,5,0.1,28,2.2,-0.0399065,-3.46204,0.612679,0.830317,0.173885,-0.0083372,0.30694,0.00202656,0.00321865,0.00956922,2.26386,5,0.1,29,2.2,2.77362,3.06018,0.594011,0.288117,-0.212109,0.00312775,-0.087738,0.254631,-0.0273287,0.00700647,0.243531,5,0.1
0,2.3,-1.39797,-0.995887,0.575746,0.0207992,0.834325,-0.00914475,0.57561,-0.239495,-0.00107661,0.0137915,2.49716,5,0.1,1,2.3,3.14991,2.98493,0.750537,-0.174896,-0.0484701,0.0913754,0.00931323,0.406966,0.243559,0.00775627,0.399508,5,0.1,2,2.3,-3.69116,-2.55773,0.609755,0.110356,0.866026,-0.00275541,-0.00400841,0,0.00013411,0.0146446,2.26398,5,0.1,3,2.3,1.60501,-2.50762,0.738888,-0.213882,0.637319,0.0150616,0.115752,-0.393465,-0.0219159,0.00822022,0.252115,5,0.1,4,2.3,0.66487,2.77864,0.740347,-0.177671,-0.499902,0.022323,0.327896,0.0779778,0.0028722,0.00977779,1.11669,5,0.1,5,2.3,3.64539,1.02133,0.609655,-0.240009,0.866026,-0.00553327,-0.0324249,0,0.0016205,0.00988869,2.23345,5,0.1,6,2.3,-0.330906,1.06391,0.585503,0.128572,0.23654,0.0143437,-0.331029,-0.199065,-0.00934303,0.0237444,0.25409,5,0.1,7,2.3,0.105944,2.32379,0.756526,-0.391656,-0.288496,0.0453576,0.161404,-0.472441,-0.0885986,0.0139807,0.445893,5,0.1,8,2.3,-0.308216,3.83449,0.59308,-0.224145,0.275916,0.00885548,0.100866,-0.217617,-0.00699982,0.0143541,0.146812,5,0.1,9,2.3,-4.27922,-1.35052,0.638853,-0.0773124,0.866025,-0.0104365,0.00980496,1.49012e-05,0.00137463,0.00971801,2.26807,5,0.1,10,2.3,3.29928,2.68647,0.59384,-0.21526,0.294608,-0.034038,0.0960231,-0.423685,-0.138618,0.0159415,0.515869,5,0.1,11,2.3,0.518557,2.44207,0.585959,-0.411344,-0.189953,-0.0250833,-0.548301,0.552654,-0.0724867,0.00717701,1.84709,5,0.1,12,2.3,-0.279306,-0.200079,0.60633,-0.0518282,-0.000588968,-0.0155447,0.0727288,-0.0522546,0.0274181,0.010703,0.245799,5,0.1,13,2.3,-0.0562002,-0.665199,0.575002,0.61835,0.406553,0.0024206,-0.773279,-0.0648089,-0.0470616,0.0130367,1.10621,5,0.1,14,2.3,-1.68497,-0.495924,0.574255,0.499101,0.0207223,0.0149859,-0.931382,-0.827452,-0.11982,0.00734741,0.286951,5,0.1,15,2.3,0.359536,-0.739335,0.644132,-0.612926,-0.0217798,0.016783,0.465136,-0.793863,0.0932291,0.0102501,2.84815,5,0.1,16,2.3,3.24636,3.58267,0.604507,-0.183357,-0.197233,-0.00670357,0.390381,0.177979,0.00607595,0.00922164,0.256746,5,0.1,17,2.3,3.53482,0.416836,0.719752,-0.111098,0.866025,0.0143101,0.00950694,-3.57628e-06,-0.00124425,0.0166655,2.26387,5,0.1,18,2.3,3.4743,-0.289175,0.620531,-0.0110697,0.866025,-0.00936473,0.000968575,-1.78814e-06,0.000808388,0.0246942,2.27179,5,0.1,19,2.3,-2.44547,-1.08547,0.580617,0.857305,-0.46239,0.00881413,0.0885427,-0.247665,-0.00135973,0.0108679,2.20047,5,0.1,20,2.3,-0.223051,1.3198,0.6101,0.224331,0.0307813,-0.0102924,-0.00470411,-0.0318289,0.010632,0.00779541,1.63228,5,0.1,21,2.3,-0.294655,-2.35699,0.717845,-0.00283918,0.866026,0.0170381,0.000452623,0,-0.00271574,0.0181419,2.27173,5,0.1,22,2.3,-1.7101,-0.200467,0.500013,0.0673668,-0.00710818,-6.23055e-05,-0.0517443,-0.0445768,0.000137836,0.01104,0.42245,5,0.1,23,2.3,4.28676,-4.13477,0.524694,0.206561,-0.170434,-0.0308,-0.176698,0.145584,0.0263266,0.00870626,0.014394,5,0.1,24,2.3,-1.94952,-0.249371,0.601121,0.150557,0.077698,0.0233502,-0.267319,-0.0378517,0.0185482,0.0115421,0.201177,5,0.1,25,2.3,0.7058,-0.47914,0.616318,-0.6442,0.0114226,-0.0128031,-0.0348128,-0.42502,0.0319332,0.0124519,2.74953,5,0.1,26,2.3,1.31946,-3.05509,0.581913,-0.0957647,-0.237028,-0.0497311,0.287719,0.067994,0.053063,0.0123746,0.29567,5,0.1,27,2.3,0.758188,-3.34281,1.09752,-0.0121442,0.189268,0.15197,0.0098832,-0.502765,-0.123635,0.0253376,0.189047,5,0.1,28,2.3,0.0445273,-3.44459,0.611827,0.856392,0.175235,-0.00898018,0.191081,0.0150204,-0.0136867,0.00956922,2.26386,5,0.1,29,2.3,2.80166,3.04008,0.594058,0.269433,-0.191231,-0.00323895,-0.273272,0.173867,-0.0911802,0.00700647,0.243531,5,0.1
0,2.4,-1.39273,-0.913894,0.57483,0.0855356,0.802614,-0.00914037,0.676751,-0.414371,0.00146031,0.0103336,2.47425,5,0.1,1,2.4,3.13267,2.98254,0.76085,-0.168103,0.00380874,0.114162,0.121832,0.595927,0.200897,0.00870804,0.272362,5,0.1,2,2.4,-3.68016,-2.47113,0.609481,0.109363,0.866026,-0.0027284,-0.0207424,0,0.000566244,0.0145235,2.26297,5,0.1,3,2.4,1.58422,-2.44592,0.740287,-0.201508,0.595403,0.0129566,0.137627,-0.459909,-0.0204146,0.00908792,0.170113,5,0.1,4,2.4,0.648784,2.72883,0.742599,-0.143781,-0.497335,0.0227273,0.344336,0.012517,0.00354648,0.0123659,0.909048,5,0.1,5,2.4,3.62127,1.10793,0.60911,-0.241607,0.866026,-0.00535101,0.0116825,0,0.00223517,0.0101698,2.01975,5,0.1,6,2.4,-0.319672,1.08671,0.586893,0.0964873,0.220418,0.0134856,-0.307456,-0.138938,-0.00843406,0.0228104,3.38984,5,0.1,7,2.4,0.067586,2.2928,0.760611,-0.375098,-0.328553,0.0362843,0.185067,-0.310898,-0.0913739,0.0123925,0.324155,5,0.1,8,2.4,-0.32991,3.86092,0.593929,-0.20775,0.251871,0.00808239,0.220299,-0.264883,-0.00846386,0.00783199,0.262522,5,0.1,9,2.4,-4.2869,-1.26392,0.637817,-0.0759363,0.866026,-0.010246,0.0209808,-5.96046e-05,0.00286102,0.00908926,1.94328,5,0.1,10,2.4,3.27831,2.71386,0.589805,-0.20318,0.253767,-0.0459865,0.148058,-0.396967,-0.0976324,0.0147372,0.470549,5,0.1,11,2.4,0.474907,2.42554,0.583115,-0.458692,-0.144362,-0.0314578,-0.371367,0.338554,-0.0528395,0.00725268,1.60595,5,0.1,12,2.4,-0.284149,-0.200324,0.60491,-0.0452332,-0.003637,-0.0128999,0.0610203,-0.011608,0.0255108,0.0155698,0.241387,5,0.1,13,2.4,0.00181906,-0.625183,0.575044,0.542326,0.390676,-0.00126362,-0.755482,-0.25031,-0.0274181,0.0109665,1.01139,5,0.1,14,2.4,-1.6398,-0.497598,0.575157,0.403827,-0.0502214,0.00316054,-0.960648,-0.588551,-0.11307,0.00683877,0.265871,5,0.1,15,2.4,0.300102,-0.745462,0.646236,-0.579324,-0.0995815,0.0248104,0.249819,-0.724345,0.0649691,0.0124878,0.899203,5,0.1,16,2.4,3.23003,3.56385,0.603867,-0.142956,-0.178975,-0.00608116,0.409365,0.190496,0.00649691,0.0104723,0.255415,5,0.1,17,2.4,3.52378,0.503439,0.721175,-0.109565,0.866026,0.0141129,0.0257492,0,-0.00336766,0.0166645,2.26429,5,0.1,18,2.4,3.4732,-0.202572,0.6196,-0.0109136,0.866025,-0.00923574,0.0025034,0,0.00214577,0.0206064,2.27179,5,0.1,19,2.4,-2.3593,-1.1325,0.581492,0.864929,-0.473621,0.00866503,0.0219345,0.0260472,-0.00205636,0.0126068,2.17333,5,0.1,20,2.4,-0.2,1.32272,0.609123,0.242809,0.0276655,-0.00925213,0.353732,-0.0311136,0.010401,0.00875382,1.39268,5,0.1,21,2.4,-0.294937,-2.27039,0.719534,-0.0027813,0.866026,0.0166953,0.000789762,0,-0.00482798,0.0173305,2.27175,5,0.1,22,2.4,-1.70364,-0.201324,0.500008,0.0617892,-0.00921637,-4.61936e-05,-0.0606775,0.00435859,0.000149012,0.0134712,3.68861,5,0.1,23,2.4,4.3065,-4.15106,0.521751,0.187802,-0.154984,-0.0280067,-0.201464,0.166178,0.0300705,0.00855922,0.00448068,5,0.1,24,2.4,-1.9357,-0.241759,0.603538,0.126711,0.07471,0.0248507,-0.216842,-0.0274628,0.0103414,0.0112269,0.19265,5,0.1,25,2.4,0.641747,-0.480215,0.61522,-0.63148,-0.0332765,-0.00900179,0.287622,-0.44708,0.0420213,0.0140661,2.94779,5,0.1,26,2.4,1.3113,-3.0787,0.577285,-0.0678152,-0.236851,-0.0421673,0.266492,-0.036478,0.0933111,0.00777964,0.225138,5,0.1,27,2.4,0.757024,-3.32638,1.11208,-0.0111029,0.139862,0.138938,0.0111163,-0.477791,-0.139356,0.0311004,0.277069,5,0.1,28,2.4,0.130809,-3.42704,0.610849,0.866025,0.175202,-0.0106514,0,-0.0228882,-0.017941,0.00826935,1.84401,5,0.1,29,2.4,2.82702,3.02177,0.593233,0.235826,-0.175428,-0.0135437,-0.387788,0.150323,-0.108123,0.00731105,0.193289,5,0.1
0,2.5,-1.38084,-0.834697,0.573923,0.151141,0.78929,-0.0089935,0.60986,0.0663027,0.00179932,0.0103336,2.47425,5,0.1,1,2.5,3.1163,2.98613,0.773351,-0.160612,0.069496,0.136245,0.0416934,0.684649,0.2249,0.00870804,0.272362,5,0.1,2,2.5,-3.66921,-2.38453,0.609209,0.110614,0.866026,-0.00270242,0.0344217,0,0.000122935,0.0145235,2.26297,5,0.1,3,2.5,1.56471,-2.38855,0.741487,-0.189014,0.552934,0.0110865,0.119165,-0.407621,-0.017263,0.00908792,0.170113,5,0.1,4,2.5,0.635881,2.67893,0.744861,-0.116475,-0.502129,0.0222521,0.212602,-0.0743717,-0.012286,0.0123659,0.909048,5,0.1,5,2.5,3.59718,1.19454,0.608583,-0.239866,0.866026,-0.00521652,0.0317097,0,0.000812113,0.0101698,2.01975,5,0.1,6,2.5,-0.31152,1.10894,0.588184,0.0670455,0.231492,0.0121852,-0.278445,0.300102,-0.0168532,0.0228104,3.38984,5,0.1,7,2.5,0.0308784,2.25843,0.763784,-0.359842,-0.357948,0.0272408,0.137147,-0.256896,-0.0882968,0.0123925,0.324155,5,0.1,8,2.5,-0.3494,3.88487,0.594697,-0.180442,0.227884,0.00731573,0.315949,-0.222579,-0.00712276,0.00783199,0.262522,5,0.1,9,2.5,-4.29441,-1.17732,0.636804,-0.0743836,0.866025,-0.0100343,0.0138283,1.49012e-05,0.001885,0.00908926,1.94328,5,0.1,10,2.5,3.25893,2.73777,0.584864,-0.182839,0.228758,-0.0514734,0.25025,-0.133753,-0.0165217,0.0147372,0.470549,5,0.1,11,2.5,0.427285,2.41247,0.579695,-0.492115,-0.121713,-0.0369628,-0.274006,0.0671446,-0.0537373,0.00725268,1.60595,5,0.1,12,2.5,-0.28836,-0.200783,0.603742,-0.0389404,-0.00571182,-0.0105043,0.0643525,-0.0222018,0.0224747,0.0155698,0.241387,5,0.1,13,2.5,0.0523165,-0.587143,0.574779,0.468012,0.371794,-0.00402732,-0.732099,-0.149418,-0.0268705,0.0109665,1.01139,5,0.1,14,2.5,-1.60403,-0.505513,0.574923,0.313666,-0.107146,-0.00763135,-0.841483,-0.533029,-0.100378,0.00683877,0.265871,5,0.1,15,2.5,0.245145,-0.758619,0.649144,-0.504953,-0.159341,0.03414,1.14365,-0.471406,0.112105,0.0124878,0.899203,5,0.1,16,2.5,3.21776,3.54691,0.603292,-0.102978,-0.159725,-0.00542523,0.383794,0.195459,0.00665709,0.0104723,0.255415,5,0.1,17,2.5,3.51291,0.590041,0.722575,-0.108142,0.866026,0.0139256,0.00905991,-3.72529e-06,-0.00119582,0.0166645,2.26429,5,0.1,18,2.5,3.47212,-0.11597,0.618683,-0.0107773,0.866025,-0.00911811,0.000834465,0,0.000741333,0.0206064,2.27179,5,0.1,19,2.5,-2.27274,-1.17962,0.582353,0.865957,-0.467431,0.00857972,0.00274181,0.108957,-0.000216067,0.0126068,2.17333,5,0.1,20,2.5,-0.173104,1.32534,0.608246,0.301679,0.0248462,-0.00830963,0.749806,-0.0260919,0.00872463,0.00875382,1.39268,5,0.1,21,2.5,-0.295212,-2.18379,0.721186,-0.00273241,0.866026,0.0163964,0.000346452,0,-0.00210479,0.0173305,2.27175,5,0.1,22,2.5,-1.69661,-0.20249,0.500004,0.0884036,-0.0151313,-3.07336e-05,0.519685,-0.0602743,0.000149012,0.0134712,3.68861,5,0.1,23,2.5,4.32427,-4.16573,0.519101,0.167542,-0.138275,-0.0249829,-0.205368,0.169396,0.0306517,0.00855922,0.00448068,5,0.1,24,2.5,-1.92403,-0.234415,0.606065,0.107376,0.0722089,0.0255758,-0.173673,-0.0255834,0.00348687,0.0112269,0.19265,5,0.1,25,2.5,0.580465,-0.48649,0.614593,-0.590136,-0.0978236,-0.00303686,0.528697,-0.783961,0.0723898,0.0140661,2.94779,5,0.1,26,2.5,1.30578,-3.10258,0.573552,-0.0434028,-0.240578,-0.0323609,0.219636,-0.0267029,0.100531,0.00777964,0.225138,5,0.1,27,2.5,0.755967,-3.31469,1.12531,-0.0100709,0.0949889,0.126008,0.00982359,-0.414431,-0.123069,0.0311004,0.277069,5,0.1,28,2.5,0.217402,-3.40967,0.609468,0.86555,0.171642,-0.0188359,-0.0190148,-0.0521392,-0.130523,0.00826935,1.84401,5,0.1,29,2.5,2.84889,3.00472,0.591383,0.203735,-0.1676,-0.0229906,-0.264943,0.025332,-0.0793561,0.00731105,0.193289,5,0.1
0,2.6,-1.36296,-0.755195,0.573035,0.203308,0.801593,-0.00872463,0.416994,0.118494,0.00375509,0.0100476,2.39427,5,0.1,1,2.6,3.1004,2.99643,0.788032,-0.157374,0.134975,0.15642,0.0331402,0.600696,0.167251,0.00776432,0.467122,5,0.1,2,2.6,-3.65796,-2.29792,0.60894,0.114274,0.866026,-0.00267625,0.0303984,0,0.000536442,0.0125743,2.26147,5,0.1,3,2.6,1.54642,-2.33533,0.742513,-0.176507,0.510818,0.00945926,0.135601,-0.447273,-0.015527,0.00908735,0.11439,5,0.1,4,2.6,0.625152,2.62843,0.747004,-0.0993252,-0.506377,0.0204191,0.138938,0.0137091,-0.023663,0.0104465,0.855088,5,0.1,5,2.6,3.57344,1.28114,0.608065,-0.233853,0.866026,-0.00512898,0.0941753,0,0.0012219,0.0101741,2.00808,5,0.1,6,2.6,-0.30614,1.1339,0.589309,0.0412948,0.269783,0.0102475,-0.234544,0.419497,-0.0213385,0.0217512,3.27157,5,0.1,7,2.6,-0.00438474,2.22158,0.76608,-0.344755,-0.37657,0.0188351,0.176651,-0.102043,-0.0789165,0.0122077,0.226819,5,0.1,8,2.6,-0.365774,3.90656,0.595394,-0.146368,0.206035,0.00661612,0.357315,-0.219941,-0.00703335,0.0089949,0.254374,5,0.1,9,2.6,-4.30176,-1.09072,0.635812,-0.0725389,0.866026,-0.0097841,0.0259876,-5.96046e-05,0.00348687,0.0106359,1.52038,5,0.1,10,2.6,3.242,2.7602,0.579738,-0.154698,0.221604,-0.0501171,0.305533,-0.0327826,0.0397563,0.0147199,0.294579,5,0.1,11,2.6,0.377018,2.4,0.575752,-0.509676,-0.13355,-0.041604,-0.0621533,-0.283003,-0.0366271,0.00721432,1.33741,5,0.1,12,2.6,-0.291931,-0.201434,0.602799,-0.032454,-0.00687465,-0.00839382,0.0649095,0.00329316,0.0198185,0.0120282,0.227607,5,0.1,13,2.6,0.0954891,-0.550693,0.574249,0.395749,0.356983,-0.00647008,-0.713441,-0.16281,-0.0212491,0.0111822,0.848909,5,0.1,14,2.6,-1.57666,-0.518687,0.573695,0.235686,-0.153977,-0.016515,-0.717759,-0.39199,-0.0756383,0.00721274,0.633543,5,0.1,15,2.6,0.201203,-0.776498,0.653132,-0.367481,-0.194168,0.0455692,1.53084,-0.22763,0.109315,0.0123263,3.44454,5,0.1,16,2.6,3.20929,3.53193,0.602783,-0.0672698,-0.139743,-0.00474602,0.326037,0.204444,0.00697374,0.0104266,0.499736,5,0.1,17,2.6,3.50215,0.676644,0.72396,-0.106668,0.866026,0.0137344,0.025034,0,-0.00324845,0.0165366,2.2647,5,0.1,18,2.6,3.47105,-0.0293671,0.617776,-0.0106335,0.866025,-0.00899434,0.00238419,-1.19209e-06,0.00205636,0.0198428,2.2718,5,0.1,19,2.6,-2.18614,-1.22561,0.583209,0.866026,-0.450048,0.00852495,0,0.245333,-0.0012815,0.0109426,2.1845,5,0.1,20,2.6,-0.139034,1.3277,0.607458,0.379825,0.02231,-0.00746101,0.757527,-0.0252724,0.00846386,0.0094683,1.11054,5,0.1,21,2.6,-0.295483,-2.09719,0.722813,-0.00268444,0.866026,0.0161111,0.000715256,0,-0.00432134,0.0182962,2.27176,5,0.1,22,2.6,-1.68471,-0.204033,0.500001,0.152713,-0.0122212,-1.63913e-05,0.709593,0.146598,0.000149012,0.011434,3.33567,5,0.1,23,2.6,4.33998,-4.1787,0.516758,0.146484,-0.120902,-0.0218406,-0.216484,0.178337,0.0322759,0.00820386,0.00138683,5,0.1,24,2.6,-1.91411,-0.227339,0.608624,0.0913084,0.0690877,0.0254393,-0.150502,-0.0388697,-0.00655651,0.0104123,0.16615,5,0.1,25,2.6,0.524418,-0.500342,0.614668,-0.527836,-0.179535,0.00461191,0.706956,-0.804812,0.0768304,0.0138547,3.06274,5,0.1,26,2.6,1.30245,-3.12668,0.570815,-0.0241876,-0.24029,-0.0224635,0.163734,0.0402927,0.0956357,0.00846408,0.392955,5,0.1,27,2.6,0.755009,-3.30712,1.1373,-0.00908673,0.0577927,0.113684,0.0100732,-0.326514,-0.126004,0.0261633,0.273954,5,0.1,28,2.6,0.30371,-3.39284,0.60685,0.858419,0.164163,-0.0340566,-0.152127,-0.099659,-0.162154,0.00836106,1.43069,5,0.1,29,2.6,2.86807,2.98801,0.588744,0.18087,-0.167042,-0.0291988,-0.201106,0.000357628,-0.0441074,0.00754629,0.311125,5,0.1
0,2.7,-1.34091,-0.673909,0.572198,0.233959,0.827679,-0.00786139,0.198558,0.333838,0.0126772,0.0100476,2.39427,5,0.1,1,2.7,3.08581,3.01222,0.804689,-0.12633,0.174445,0.177914,0.531331,0.209495,0.239823,0.00776432,0.467122,5,0.1,2,2.7,-3.6463,-2.21132,0.608674,0.119332,0.866026,-0.00265259,0.0604689,0,9.68575e-05,0.0125743,2.26147,5,0.1,3,2.7,1.5294,-2.28635,0.743386,-0.164122,0.469685,0.00805678,0.117801,-0.3905,-0.0127517,0.00908735,0.11439,5,0.1,4,2.7,0.615776,2.57855,0.748918,-0.0893519,-0.485034,0.0177753,0.0689588,0.388533,-0.0286959,0.0104465,0.855088,5,0.1,5,2.7,3.55036,1.36774,0.607557,-0.228992,0.866026,-0.00505233,0.0199825,0,0.000592321,0.0101741,2.00808,5,0.1,6,2.7,-0.303065,1.16391,0.590238,0.0213599,0.337675,0.0084227,-0.164831,0.855789,-0.0155941,0.0217512,3.27157,5,0.1,7,2.7,-0.0380634,2.18344,0.767582,-0.329326,-0.385398,0.0113548,0.145753,-0.0583827,-0.0698604,0.0122077,0.226819,5,0.1,8,2.7,-0.378608,3.92612,0.596022,-0.110307,0.18557,0.00596121,0.356814,-0.194415,-0.00622123,0.0089949,0.254374,5,0.1,9,2.7,-4.3089,-1.00412,0.634849,-0.0702962,0.865904,-0.00948338,0.0218749,-0.00483543,0.0029318,0.0106359,1.52038,5,0.1,10,2.7,3.22811,2.78246,0.574991,-0.12299,0.225537,-0.0442486,0.322536,0.0871271,0.0742376,0.0147199,0.294579,5,0.1,11,2.7,0.32596,2.38465,0.571376,-0.509057,-0.178023,-0.0461187,0.0828712,-0.555754,-0.0488386,0.00721432,1.33741,5,0.1,12,2.7,-0.294857,-0.202145,0.602054,-0.0261451,-0.00723109,-0.00656731,0.0609513,0.00907201,0.0167713,0.0120282,0.227607,5,0.1,13,2.7,0.132372,-0.515743,0.573533,0.349438,0.342274,-0.00751726,-0.260592,-0.146192,-0.00102818,0.0111822,0.848909,5,0.1,14,2.7,-1.55718,-0.534757,0.571758,0.150237,-0.156152,-0.0213653,-0.947319,0.284933,-0.0242814,0.00721274,0.633543,5,0.1,15,2.7,0.169466,-0.79632,0.658057,-0.290249,-0.195739,0.0513117,0.148546,0.164662,0.0116192,0.0123263,3.44454,5,0.1,16,2.7,3.20415,3.51892,0.602342,-0.0362013,-0.120816,-0.00410089,0.283495,0.176787,0.00602379,0.0104266,0.499736,5,0.1,17,2.7,3.49157,0.763246,0.725322,-0.105272,0.866026,0.0135529,0.00905991,-3.72529e-06,-0.00117347,0.0165366,2.2647,5,0.1,18,2.7,3.46999,0.0572354,0.616884,-0.0105049,0.866025,-0.00888137,0.000819564,4.47035e-07,0.000718981,0.0198428,2.2718,5,0.1,19,2.7,-2.09954,-1.26944,0.584059,0.866026,-0.426573,0.00849953,0,0.237614,0.000227243,0.0109426,2.1845,5,0.1,20,2.7,-0.0969769,1.32981,0.606751,0.462732,0.0200311,-0.00669798,0.84427,-0.0209883,0.00702217,0.0094683,1.11054,5,0.1,21,2.7,-0.295749,-2.01058,0.724409,-0.002641,0.866026,0.0158504,0.000307336,0,-0.00181794,0.0182962,2.27176,5,0.1,22,2.7,-1.66545,-0.204246,0.5,0.235584,0.0129215,-5.30854e-06,0.892043,0.433934,7.82311e-05,0.011434,3.33567,5,0.1,23,2.7,4.35355,-4.1899,0.514735,0.125057,-0.103247,-0.0186457,-0.211924,0.174701,0.0316016,0.00820386,0.00138683,5,0.1,24,2.7,-1.9053,-0.220693,0.611077,0.0887368,0.0631963,0.0231049,0.0721365,-0.0763498,-0.0372492,0.0104123,0.16615,5,0.1,25,2.7,0.475067,-0.521723,0.61542,-0.460191,-0.242125,0.00958154,0.646653,-0.447765,0.0255369,0.0138547,3.06274,5,0.1,26,2.7,1.30083,-3.15069,0.569067,-0.00869017,-0.24122,-0.0123776,0.137992,-0.0388473,0.102762,0.00846408,0.392955,5,0.1,27,2.7,0.754149,-3.30281,1.14806,-0.0081162,0.0300333,0.101547,0.00948831,-0.228077,-0.118636,0.0261633,0.273954,5,0.1,28,2.7,0.389357,-3.37685,0.602795,0.858504,0.156127,-0.0455352,0.0884849,-0.0690818,-0.0712834,0.00836106,1.43069,5,0.1,29,2.7,2.88537,2.97142,0.585718,0.166959,-0.163624,-0.030286,-0.0924021,0.0677407,0.0176094,0.00754629,0.311125,5,0.1
0,2.8,-1.31687,-0.589583,0.571485,0.243652,0.856443,-0.00634044,-0.000834465,0.191659,0.0170171,0.0130044,2.39001,5,0.1,1,2.8,3.07627,3.03021,0.823646,-0.0611961,0.180769,0.200446,0.727057,-0.0649691,0.194222,0.00797119,0.257131,5,0.1,2,2.8,-3.63409,-2.12472,0.60841,0.124592,0.866026,-0.00262856,0.0375509,0,0.000476837,0.0119381,2.26,5,0.1,3,2.8,1.51359,-2.24134,0.744131,-0.15198,0.430149,0.00686646,0.128865,-0.410676,-0.0111759,0.00957349,0.122579,5,0.1,4,2.8,0.607127,2.53244,0.750548,-0.0840485,-0.433236,0.014776,0.0435412,0.626206,-0.0308752,0.012066,0.817561,5,0.1,5,2.8,3.52755,1.45434,0.607055,-0.226921,0.866026,-0.00496507,0.0338554,0,0.00140071,0.0108961,1.56625,5,0.1,6,2.8,-0.301643,1.20212,0.591009,0.0081405,0.42648,0.00705272,-0.100747,0.858128,-0.0121593,0.0222233,3.08328,5,0.1,7,2.8,-0.0702258,2.14479,0.768389,-0.313259,-0.385571,0.00500381,0.185217,0.0655651,-0.0566542,0.0146984,0.154477,5,0.1,8,2.8,-0.387903,3.94372,0.596587,-0.0762239,0.166303,0.00534356,0.319734,-0.194669,-0.00625849,0.00739483,0.250422,5,0.1,9,2.8,-4.31581,-0.917589,0.633917,-0.0676632,0.864084,-0.00912845,0.0333786,-0.038743,0.00447035,0.00927278,1.15533,5,0.1,10,2.8,3.21741,2.80549,0.570971,-0.0912786,0.234801,-0.035882,0.307083,0.0798702,0.0903308,0.00823852,0.543434,5,0.1,11,2.8,0.275762,2.36396,0.566532,-0.491861,-0.235814,-0.0505388,0.265136,-0.561714,-0.0360906,0.00849372,1.09515,5,0.1,12,2.8,-0.297176,-0.202698,0.601476,-0.0203207,-0.00235774,-0.00502765,0.0552833,0.0959337,0.0140667,0.0101961,0.197864,5,0.1,13,2.8,0.166436,-0.482318,0.5728,0.3351,0.325277,-0.00692159,-0.0636429,-0.203565,0.0117421,0.0121345,0.686062,5,0.1,14,2.8,-1.54697,-0.548263,0.569565,0.0539571,-0.108431,-0.0219107,-0.944614,0.618577,0.010848,0.0358949,3.68373,5,0.1,15,2.8,0.139817,-0.814639,0.663127,-0.313639,-0.166985,0.0490189,-0.509779,0.384539,-0.0523031,0.0127895,2.92863,5,0.1,16,2.8,3.20181,3.5077,0.601961,-0.0123978,-0.103921,-0.0035271,0.186205,0.163078,0.00557303,0.00972594,0.620304,5,0.1,17,2.8,3.4811,0.849849,0.72667,-0.103807,0.866026,0.0133649,0.0246763,0,-0.00321865,0.0178149,2.26511,5,0.1,18,2.8,3.46895,0.143838,0.616,-0.0103652,0.866026,-0.00876188,0.00238419,-7.15256e-06,0.00208616,0.0158874,2.27326,5,0.1,19,2.8,-2.01293,-1.31083,0.584909,0.866026,-0.400278,0.00847727,-5.96046e-05,0.297248,-0.00110269,0.011782,2.31228,5,0.1,20,2.8,-0.0467193,1.33171,0.606115,0.538999,0.0179946,-0.0060156,0.640621,-0.0201464,0.00673532,0.00668847,0.289983,5,0.1,21,2.8,-0.296011,-1.92398,0.725983,-0.00259653,0.866026,0.0155896,0.000670552,-5.96046e-05,-0.00405312,0.0168508,2.06244,5,0.1,22,2.8,-1.6375,-0.2,0.5,0.321427,0.0793863,0,0.783801,0.865906,2.98023e-05,0.0143809,2.90676,5,0.1,23,2.8,4.36501,-4.19936,0.513027,0.104141,-0.0860095,-0.015527,-0.205994,0.169992,0.0307262,0.00722367,0.000824409,5,0.1,24,2.8,-1.89588,-0.214799,0.61317,0.100961,0.0543084,0.0185117,0.151515,-0.0991225,-0.0522435,0.0127544,0.203551,5,0.1,25,2.8,0.432188,-0.547596,0.616442,-0.398288,-0.269654,0.0102803,0.592902,-0.107676,-0.0090003,0.00824612,0.653088,5,0.1,26,2.8,1.30055,-3.175,0.568332,0.00216365,-0.244594,-0.00248998,0.0746846,-0.0143051,0.0925362,0.00692514,0.785121,5,0.1,27,2.8,0.753385,-3.30079,1.15762,-0.00716448,0.0120699,0.0896484,0.00962615,-0.133038,-0.120521,0.029828,0.271275,5,0.1,28,2.8,0.475608,-3.36159,0.598008,0.864849,0.148976,-0.0490516,-0.008955,-0.0796318,-0.002563,0.008784,1.09078,5,0.1,29,2.8,2.90168,2.95551,0.582847,0.159723,-0.153619,-0.0265449,-0.0640154,0.131369,0.0533164,0.00941528,0.283653,5,0.1
0,2.9,-1.29235,-0.503356,0.570974,0.247597,0.865223,-0.00354918,0.0605136,0.0157954,0.0361092,0.0130044,2.39001,5,0.1,1,2.9,3.07385,3.0479,0.844861,0.0128541,0.172415,0.225162,0.729904,-0.103548,0.273384,0.00797119,0.257131,5,0.1,2,2.9,-3.62139,-2.03812,0.608148,0.129744,0.866026,-0.00260938,0.055939,0,5.96046e-05,0.0119381,2.26,5,0.1,3,2.9,1.49884,-2.20025,0.744766,-0.144646,0.392559,0.00586873,0.0324249,-0.353768,-0.00897422,0.00957349,0.122579,5,0.1,4,2.9,0.598868,2.49264,0.751871,-0.0816869,-0.359525,0.0117025,0.0102669,0.812203,-0.0302531,0.012066,0.817561,5,0.1,5,2.9,3.50494,1.54094,0.606564,-0.225735,0.865893,-0.00485163,0.00326335,-0.00531226,0.00109524,0.0108961,1.56625,5,0.1,6,2.9,-0.301381,1.24941,0.591659,-0.00295881,0.520999,0.00600871,-0.105839,0.967234,-0.0090152,0.0222233,3.08328,5,0.1,7,2.9,-0.100696,2.10656,0.768621,-0.296555,-0.378575,-0.000204425,0.160155,0.0875294,-0.0469126,0.0146984,0.154477,5,0.1,8,2.9,-0.394027,3.95941,0.597092,-0.0473132,0.147971,0.00475403,0.256272,-0.175282,-0.00563264,0.00739483,0.250422,5,0.1,9,2.9,-4.32242,-0.8312,0.633025,-0.0646345,0.864492,-0.00872239,0.0296533,0.010848,0.00397861,0.00927278,1.15533,5,0.1,10,2.9,3.21058,2.82846,0.567798,-0.0390187,0.216915,-0.0279077,0.683784,-0.392318,0.0701211,0.00823852,0.543434,5,0.1,11,2.9,0.228035,2.33744,0.561268,-0.461275,-0.295088,-0.0549303,0.34976,-0.588819,-0.0467077,0.00849372,1.09515,5,0.1,12,2.9,-0.298943,-0.202357,0.601039,-0.0151305,0.010934,-0.00375472,0.0483431,0.197619,0.0114441,0.0101961,0.197864,5,0.1,13,2.9,0.200251,-0.450936,0.572196,0.346145,0.301087,-0.00491822,0.233959,-0.279173,0.026416,0.0121345,0.686062,5,0.1,14,2.9,-1.54497,-0.555001,0.567494,-0.00202209,-0.0181933,-0.018945,-0.232324,1.10776,0.0448599,0.0358949,3.68373,5,0.1,15,2.9,0.104673,-0.82914,0.667696,-0.39885,-0.120869,0.0417369,-1.08869,0.515413,-0.0891574,0.0127895,2.92863,5,0.1,16,2.9,3.20141,3.49809,0.601635,0.00301749,-0.0883739,-0.00299653,0.102818,0.148669,0.00506267,0.00972594,0.620304,5,0.1,17,2.9,3.4708,0.936451,0.727996,-0.1024,0.866026,0.0131806,0.00943244,0,-0.00122935,0.0178149,2.26511,5,0.1,18,2.9,3.46781,0.23044,0.615134,-0.0132333,0.866025,-0.0085542,-0.0524968,0,0.00236928,0.0158874,2.27326,5,0.1,19,2.9,-1.92634,-1.35052,0.58575,0.865421,-0.402959,0.00833226,-0.0241399,-0.271522,-0.00203773,0.011782,2.31228,5,0.1,20,2.9,0.0099553,1.33342,0.605545,0.589839,0.0161838,-0.00541033,0.362162,-0.0166297,0.00556186,0.00668847,0.289983,5,0.1,21,2.9,-0.296268,-1.83738,0.727527,-0.00255089,0.866025,0.0153155,0.000376254,1.49012e-05,-0.00224635,0.0168508,2.06244,5,0.1,22,2.9,-1.60133,-0.186745,0.5,0.402157,0.193243,1.76951e-06,0.786752,1.31939,1.11759e-05,0.0143809,2.90676,5,0.1,23,2.9,4.37441,-4.20713,0.511624,0.0842281,-0.0695765,-0.0125568,-0.19154,0.158072,0.028573,0.00722367,0.000824409,5,0.1,24,2.9,-1.88475,-0.209885,0.614731,0.123506,0.0438006,0.0124885,0.272706,-0.109049,-0.0654459,0.0127544,0.203551,5,0.1,25,2.9,0.396488,-0.574728,0.617559,-0.306007,-0.269512,0.0131812,1.17659,0.101112,0.0583604,0.00824612,0.653088,5,0.1,26,2.9,1.30116,-3.19961,0.568515,0.00941958,-0.247839,0.00582207,0.0451729,-0.0357777,0.0729188,0.00692514,0.785121,5,0.1,27,2.9,0.752715,-3.3001,1.16599,-0.00623241,0.00286214,0.0779811,0.00908226,-0.0566393,-0.113636,0.029828,0.271275,5,0.1,28,2.9,0.561876,-3.34723,0.593167,0.858199,0.136833,-0.0470588,-0.147493,-0.157669,0.0395775,0.008784,1.09078,5,0.1,29,2.9,2.91732,2.94095,0.580506,0.15279,-0.136296,-0.0198945,-0.0784844,0.208214,0.0761375,0.00941528,0.283653,5,0.1
0,3,-1.26732,-0.416892,0.570813,0.252447,0.862762,0.000400841,0.0226498,-0.0652671,0.040859,0.0107366,2.55779,5,0.1,1,3,3.07863,3.06456,0.868694,0.080651,0.159872,0.250511,0.608683,-0.147939,0.214189,0.0102514,0.200818,5,0.1,2,3,-3.60817,-1.95151,0.607888,0.13414,0.866026,-0.00258833,0.0251532,-5.96046e-05,0.000476837,0.0148747,2.25895,5,0.1,3,3,1.48447,-2.16276,0.74531,-0.142938,0.357246,0.00503659,0.0126958,-0.361443,-0.00777841,0.00862636,0.153599,5,0.1,4,3,0.59074,2.46082,0.752893,-0.0808552,-0.276923,0.00878572,0.0112355,0.814199,-0.0278652,0.00740651,0.550509,5,0.1,5,3,3.48243,1.62746,0.606086,-0.223988,0.863901,-0.00470877,0.0412464,-0.0424385,0.00193715,0.0104934,1.18667,5,0.1,6,3,-0.302116,1.30608,0.592218,-0.0106238,0.608754,0.00520051,-0.0387877,0.741065,-0.00739098,0.0234395,2.54474,5,0.1,7,3,-0.129517,2.06927,0.768386,-0.279317,-0.365877,-0.00428259,0.192404,0.175238,-0.0342727,0.0130678,0.103701,5,0.1,8,3,-0.397595,3.97335,0.597539,-0.0252552,0.130695,0.00419766,0.184223,-0.172734,-0.00551343,0.011704,0.496785,5,0.1,9,3,-4.32872,-0.744842,0.632174,-0.0613093,0.860667,-0.0082761,0.0386238,-0.107199,0.0051558,0.00760945,0.849957,5,0.1,10,3,3.21035,2.84772,0.565331,0.0358582,0.164503,-0.0216827,0.77188,-0.619411,0.0551343,0.00673153,0.331481,5,0.1,11,3,0.183815,2.30517,0.555557,-0.421504,-0.34759,-0.0590146,0.446514,-0.436544,-0.0313818,0.00851925,0.887942,5,0.1,12,3,-0.300227,-0.2,0.600717,-0.0106789,0.0387583,-0.00272691,0.0405759,0.347078,0.00914931,0.0131451,0.330732,5,0.1,13,3,0.236184,-0.422339,0.571848,0.373027,0.269744,-0.00197887,0.265583,-0.345767,0.0308752,0.00855976,0.535349,5,0.1,14,3,-1.54555,-0.551007,0.565855,-0.00289083,0.0992686,-0.0135869,0.168502,1.18139,0.0594556,0.0357398,3.17862,5,0.1,15,3,0.0591059,-0.838586,0.671391,-0.512831,-0.0678673,0.0319391,-1.11122,0.527322,-0.103444,0.0143943,2.56104,5,0.1,16,3,3.20198,3.48998,0.60136,0.0056684,-0.0740469,-0.00250787,-0.0556707,0.138283,0.00467896,0.0101427,1.41948,5,0.1,17,3,3.46062,1.02305,0.729306,-0.100905,0.866026,0.0129879,0.0246763,0,-0.00318885,0.0161794,2.26458,5,0.1,18,3,3.46619,0.317043,0.614293,-0.0195801,0.866025,-0.00823736,-0.0686646,1.43051e-05,0.00417233,0.0188243,2.27173,5,0.1,19,3,-1.84012,-1.39257,0.58657,0.856364,-0.440592,0.00802726,-0.193179,-0.42057,-0.00414252,0.0113831,2.21535,5,0.1,20,3,0.0701987,1.33495,0.605031,0.609322,0.0145733,-0.00487119,0.0203955,-0.0160933,0.00536442,0.00881226,0.444365,5,0.1,21,3,-0.296521,-1.75078,0.729045,-0.00249743,0.866026,0.0149995,0.000759959,-5.96046e-05,-0.00458956,0.0159978,1.62587,5,0.1,22,3,-1.55747,-0.160698,0.5,0.471264,0.327164,1.49012e-06,0.564218,1.28986,0,0.00885278,0.890121,5,0.1,23,3,4.38191,-4.21332,0.510507,0.0659585,-0.0544906,-0.00983179,-0.17333,0.142813,0.0258386,0.00985318,0.000742041,5,0.1,24,3,-1.87102,-0.206053,0.61565,0.150874,0.0328649,0.00591129,0.254989,-0.107996,-0.0640154,0.0119998,0.168626,5,0.1,25,3,0.372215,-0.600894,0.619221,-0.176536,-0.251248,0.0204191,1.35331,0.255406,0.0797212,0.00872588,0.310283,5,0.1,26,3,1.30213,-3.2245,0.569424,0.00771284,-0.249225,0.0119746,-0.0889897,0.0183582,0.0496805,0.00952649,1.26293,5,0.1,27,3,0.752137,-3.30001,1.17323,-0.0053376,-0.000321865,0.06679,0.00885129,-0.0121593,-0.110686,0.0264722,0.270219,5,0.1,28,3,0.646575,-3.33443,0.588709,0.831565,0.118482,-0.0416636,-0.39959,-0.204682,0.0658631,0.00791662,0.459933,5,0.1,29,3,2.93216,2.92844,0.578911,0.143409,-0.113249,-0.0119478,-0.111341,0.247121,0.0800788,0.00765861,0.23339,5,0.1
0,3.1,-1.24147,-0.330996,0.571146,0.268329,0.853856,0.00695931,0.253357,-0.141898,0.08348,0.0107366,2.55779,5,0.1,1,3.1,3.08949,3.07998,0.894941,0.133908,0.150054,0.275044,0.450239,-0.0615567,0.251852,0.0102514,0.200818,5,0.1,2,3.1,-3.59458,-1.86491,0.60763,0.137851,0.866025,-0.00256868,0.03995,1.49012e-05,7.07805e-05,0.0148747,2.25895,5,0.1,3,3.1,1.46997,-2.12855,0.74578,-0.149208,0.329298,0.00441447,-0.115544,-0.219375,-0.00496954,0.00862636,0.153599,5,0.1,4,3.1,0.582675,2.43713,0.753637,-0.0806817,-0.198298,0.00613565,-0.00259653,0.726596,-0.024911,0.00740651,0.550509,5,0.1,5,3.1,3.46019,1.71379,0.605624,-0.22101,0.86333,-0.00453535,0.0289977,0.00359118,0.00171363,0.0104934,1.18667,5,0.1,6,3.1,-0.303355,1.36977,0.592413,-0.0132885,0.656269,-0.0037401,0.011662,0.218756,-0.153173,0.0234395,2.54474,5,0.1,7,3.1,-0.156543,2.03357,0.767804,-0.261559,-0.347799,-0.00717295,0.171641,0.1949,-0.0234433,0.0130678,0.103701,5,0.1,8,3.1,-0.399221,3.98559,0.597933,-0.00775149,0.114413,0.00367723,0.155658,-0.155091,-0.00496209,0.011704,0.496785,5,0.1,9,3.1,-4.33467,-0.659083,0.631371,-0.0577576,0.855632,-0.00780113,0.0344813,-0.0390261,0.00461191,0.00760945,0.849957,5,0.1,10,3.1,3.218,2.861,0.563392,0.118361,0.100775,-0.0175149,0.839651,-0.638023,0.0303648,0.00673153,0.331481,5,0.1,11,3.1,0.14389,2.2682,0.549484,-0.37697,-0.391477,-0.0624943,0.447838,-0.411958,-0.0339486,0.00851925,0.887942,5,0.1,12,3.1,-0.301104,-0.193809,0.600487,-0.00697775,0.089606,-0.00191573,0.0333823,0.620809,0.00713021,0.0131451,0.330732,5,0.1,13,3.1,0.275078,-0.397111,0.571814,0.406473,0.234666,0.00136476,0.363728,-0.354918,0.0345185,0.00855976,0.535349,5,0.1,14,3.1,-1.54417,-0.534802,0.564799,0.0371831,0.226908,-0.00753189,0.576057,1.30802,0.0600554,0.0357398,3.17862,5,0.1,15,3.1,0.00177021,-0.84269,0.674052,-0.636646,-0.0141698,0.0212045,-1.27941,0.530358,-0.108398,0.0143943,2.56104,5,0.1,16,3.1,3.2022,3.48324,0.601131,-0.00423416,-0.0612013,-0.00207331,-0.225067,0.119478,0.00403821,0.0101427,1.41948,5,0.1,17,3.1,3.45049,1.10966,0.730592,-0.10321,0.866026,0.0127518,-0.0567287,0,-0.00215694,0.0161794,2.26458,5,0.1,18,3.1,3.46383,0.403646,0.613488,-0.0277974,0.866025,-0.00787228,-0.0896454,-1.78814e-06,0.00345707,0.0188243,2.27173,5,0.1,19,3.1,-1.75517,-1.43903,0.587353,0.844037,-0.490163,0.00764681,-0.0988171,-0.524245,-0.00375137,0.0113831,2.21535,5,0.1,20,3.1,0.131344,1.33634,0.604569,0.61387,0.0131316,-0.00439044,0.0386029,-0.0132173,0.00440329,0.00881226,0.444365,5,0.1,21,3.1,-0.29677,-1.66418,0.730526,-0.00249012,0.865905,0.0146571,-0.000378117,-0.00479072,-0.00300631,0.0159978,1.62587,5,0.1,22,3.1,-1.50954,-0.122564,0.500001,0.469585,0.425488,1.11759e-06,-0.506237,0.68934,-7.45058e-06,0.00885278,0.890121,5,0.1,23,3.1,4.38767,-4.21808,0.509648,0.0496224,-0.0410244,-0.00739638,-0.152767,0.125945,0.0227764,0.00985318,0.000742041,5,0.1,24,3.1,-1.85464,-0.203298,0.615923,0.176374,0.0223769,-0.000393763,0.239633,-0.0994923,-0.0604019,0.0119998,0.168626,5,0.1,25,3.1,0.361134,-0.625197,0.621752,-0.0476026,-0.238559,0.0308639,1.20318,0.0295527,0.120182,0.00872588,0.310283,5,0.1,26,3.1,1.30231,-3.24941,0.570849,-0.00670645,-0.249145,0.0162771,-0.242509,-0.00292063,0.0357404,0.00952649,1.26293,5,0.1,27,3.1,0.751646,-3.30008,1.17939,-0.00448935,-0.000739843,0.0567105,0.00814348,0.00190735,-0.0924021,0.0264722,0.270219,5,0.1,28,3.1,0.727192,-3.32367,0.584897,0.775686,0.0961848,-0.0343923,-0.704851,-0.235617,0.0776798,0.00791662,0.459933,5,0.1,29,3.1,2.94631,2.91838,0.578116,0.142702,-0.087807,-0.00398578,0.0712872,0.256404,0.0771694,0.00765861,0.23339,5,0.1
0,3.2,-1.21327,-0.246639,0.572283,0.29583,0.82959,0.0158921,0.265479,-0.362314,0.090003,0.011271,2.47972,5,0.1,1,3.2,3.10482,3.09473,0.923602,0.169772,0.145268,0.296669,0.263929,-0.0442266,0.163078,0.0182693,0.531967,5,0.1,2,3.2,-3.58063,-1.77831,0.607374,0.140572,0.866026,-0.0025481,0.00786781,-5.96046e-05,0.000476837,0.0139888,2.25842,5,0.1,3,3.2,1.45441,-2.09663,0.7462,-0.162101,0.309575,0.00398755,-0.125408,-0.191212,-0.0038147,0.010546,0.0944269,5,0.1,4,3.2,0.574605,2.4206,0.754132,-0.0804916,-0.136191,0.00384003,0.010103,0.501275,-0.0208318,0.00738816,0.509677,5,0.1,5,3.2,3.43828,1.8,0.60518,-0.216377,0.858757,-0.00433475,0.0708103,-0.126123,0.00238419,0.00968725,0.871775,5,0.1,6,3.2,-0.304391,1.4357,0.591156,-0.00480488,0.654629,-0.0221908,0.166714,-0.239789,-0.201613,0.0216088,2.70655,5,0.1,7,3.2,-0.181816,1.99985,0.766988,-0.243489,-0.325498,-0.00896454,0.195839,0.256479,-0.0123978,0.0123328,0.143191,5,0.1,8,3.2,-0.39933,3.99627,0.598276,0.00432357,0.0993073,0.00319332,0.0804961,-0.148416,-0.00476837,0.00831681,0.616678,5,0.1,9,3.2,-4.34027,-0.573907,0.630614,-0.0540733,0.845128,-0.00730604,0.0405312,-0.202835,0.00545382,0.0118448,0.603807,5,0.1,10,3.2,3.23389,2.86798,0.561766,0.197136,0.0398755,-0.0152245,0.707746,-0.567317,0.0170469,0.00740171,0.236757,5,0.1,11,3.2,0.108457,2.22723,0.543089,-0.331372,-0.425029,-0.0650808,0.466089,-0.238776,-0.014782,0.00717291,0.708553,5,0.1,12,3.2,-0.301647,-0.181625,0.600328,-0.00401065,0.154301,-0.00129193,0.0259727,0.635974,0.00542402,0.0114529,0.228028,5,0.1,13,3.2,0.317439,-0.375427,0.572119,0.438955,0.198957,0.00466704,0.257328,-0.358164,0.030458,0.0117218,0.4027,5,0.1,14,3.2,-1.53729,-0.505791,0.564336,0.102237,0.349914,-0.00185072,0.681162,1.10586,0.0524223,0.0389059,2.81904,5,0.1,15,3.2,-0.0679907,-0.841561,0.675642,-0.753959,0.0353992,0.0107586,-1.00496,0.44924,-0.0984073,0.0127156,2.34292,5,0.1,16,3.2,3.2,3.47769,0.600944,-0.0460088,-0.0500023,-0.00169426,-0.594378,0.105143,0.00354648,0.0126522,2.34353,5,0.1,17,3.2,3.43984,1.19626,0.731854,-0.109786,0.866026,0.0124484,-0.0642538,0,-0.00432134,0.0150229,2.19186,5,0.1,18,3.2,3.46061,0.490248,0.612719,-0.0364602,0.866025,-0.00748932,-0.079155,1.43051e-05,0.00444055,0.0214487,2.28062,5,0.1,19,3.2,-1.67141,-1.49052,0.588098,0.82885,-0.537369,0.00723004,-0.23675,-0.385761,-0.00479817,0.00977885,1.55797,5,0.1,20,3.2,0.19274,1.33758,0.604151,0.611636,0.0118494,-0.00396371,-0.105374,-0.0126958,0.00429153,0.00782938,0.480566,5,0.1,21,3.2,-0.297021,-1.57765,0.731974,-0.0025332,0.864106,0.0142723,-0.000283122,-0.0385046,-0.00524521,0.0157225,1.25637,5,0.1,22,3.2,-1.46625,-0.0774706,0.500001,0.386623,0.467725,0,-1.07867,0.16961,0,0.0078629,0.487345,5,0.1,23,3.2,4.39191,-4.22158,0.509017,0.0355124,-0.0293851,-0.00529289,-0.128984,0.106573,0.0192523,0.00905884,0.000566291,5,0.1,24,3.2,-1.83594,-0.201529,0.615599,0.196216,0.013331,-0.00588447,0.146747,-0.0800416,-0.0482798,0.0170414,0.263634,5,0.1,25,3.2,0.361992,-0.649067,0.625445,0.0603884,-0.239857,0.0428841,0.941694,-0.0318587,0.113487,0.0127968,3.84388,5,0.1,26,3.2,1.3,-3.27428,0.572628,-0.0435024,-0.247455,0.0190273,-0.477493,0.0462532,0.0189543,0.0103596,3.53348,5,0.1,27,3.2,0.751237,-3.30013,1.18462,-0.00370592,-0.0002563,0.0480503,0.00753999,0.0064373,-0.0818372,0.0244191,0.267907,5,0.1,28,3.2,0.800826,-3.31524,0.581852,0.693211,0.0723779,-0.026466,-0.931561,-0.236273,0.079304,0.00967258,0.26641,5,0.1,29,3.2,2.96106,2.91086,0.578085,0.153106,-0.0628948,0.00314564,0.117183,0.238061,0.0640154,0.00742503,0.188798,5,0.1
