id,t,px,py,pz,vx,vy,vz,ax,ay,az,planning_time,qp_cost,planning_report,size,id,t,px,py,pz,vx,vy,vz,ax,ay,az,planning_time,qp_cost,planning_report,size,id,t,px,py,pz,vx,vy,vz,ax,ay,az,planning_time,qp_cost,planning_report,size,id,t,px,py,pz,vx,vy,vz,ax,ay,az,planning_time,qp_cost,planning_report,size,id,t,px,py,pz,vx,vy,vz,ax,ay,az,planning_time,qp_cost,planning_report,size,id,t,px,py,pz,vx,vy,vz,ax,ay,az,planning_time,qp_cost,planning_report,size,id,t,px,py,pz,vx,vy,vz,ax,ay,az,planning_time,qp_cost,planning_report,size,id,t,px,py,pz,vx,vy,vz,ax,ay,az,planning_time,qp_cost,planning_report,size,id,t,px,py,pz,vx,vy,vz,ax,ay,az,planning_time,qp_cost,planning_report,size,id,t,px,py,pz,vx,vy,vz,ax,ay,az,planning_time,qp_cost,planning_report,size,id,t,px,py,pz,vx,vy,vz,ax,ay,az,planning_time,qp_cost,planning_report,size,id,t,px,py,pz,vx,vy,vz,ax,ay,az,planning_time,qp_cost,planning_report,size,id,t,px,py,pz,vx,vy,vz,ax,ay,az,planning_time,qp_cost,planning_report,size,id,t,px,py,pz,vx,vy,vz,ax,ay,az,planning_time,qp_cost,planning_report,size,id,t,px,py,pz,vx,vy,vz,ax,ay,az,planning_time,qp_cost,planning_report,size,id,t,px,py,pz,vx,vy,vz,ax,ay,az,planning_time,qp_cost,planning_report,size,id,t,px,py,pz,vx,vy,vz,ax,ay,az,planning_time,qp_cost,planning_report,size,id,t,px,py,pz,vx,vy,vz,ax,ay,az,planning_time,qp_cost,planning_report,size,id,t,px,py,pz,vx,vy,vz,ax,ay,az,planning_time,qp_cost,planning_report,size,id,t,px,py,pz,vx,vy,vz,ax,ay,az,planning_time,qp_cost,planning_report,size,id,t,px,py,pz,vx,vy,vz,ax,ay,az,planning_time,qp_cost,planning_report,size,id,t,px,py,pz,vx,vy,vz,ax,ay,az,planning_time,qp_cost,planning_report,size,id,t,px,py,pz,vx,vy,vz,ax,ay,az,planning_time,qp_cost,planning_report,size,id,t,px,py,pz,vx,vy,vz,ax,ay,az,planning_time,qp_cost,planning_report,size,id,t,px,py,pz,vx,vy,vz,ax,ay,az,planning_time,qp_cost,planning_report,size,id,t,px,py,pz,vx,vy,vz,ax,ay,az,planning_time,qp_cost,planning_report,size,id,t,px,py,pz,vx,vy,vz,ax,ay,az,planning_time,qp_cost,planning_report,size,id,t,px,py,pz,vx,vy,vz,ax,ay,az,planning_time,qp_cost,planning_report,size,id,t,px,py,pz,vx,vy,vz,ax,ay,az,planning_time,qp_cost,planning_report,size,id,t,px,py,pz,vx,vy,vz,ax,ay,az,planning_time,qp_cost,planning_report,size
0,0,-0.834185,0.309508,0.664778,0,0,0,0,0,0,0.00845646,3.51219,5,0.1,1,0,-0.108855,-0.498661,0.538701,0,0,0,0,0,0,0.00797159,0.253718,5,0.1,2,0,1.23542,-4.26539,0.592851,0,0,0,0,0,0,0.011855,1.77059,5,0.1,3,0,0.441377,-0.862005,0.534577,0,0,0,0,0,0,0.0164296,3.51294,5,0.1,4,0,1.56797,2.88035,0.547553,0,0,0,0,0,0,0.0113856,2.14266,5,0.1,5,0,-2.42977,-0.505081,0.539004,0,0,0,0,0,0,0.0103179,3.5122,5,0.1,6,0,-0.618167,1.08485,0.609854,0,0,0,0,0,0,0.00961726,0.397347,5,0.1,7,0,-0.909466,-2.02241,0.677504,0,0,0,0,0,0,0.0279997,3.51219,5,0.1,8,0,4.06554,2.00299,0.671947,0,0,0,0,0,0,0.015072,1.87425,5,0.1,9,0,-1.75007,4.04197,0.558607,0,0,0,0,0,0,0.0147229,2.82323,5,0.1,10,0,-2.36317,3.19051,0.67814,0,0,0,0,0,0,0.0104803,3.5122,5,0.1,11,0,-2.43956,-1.23233,0.539941,0,0,0,0,0,0,0.0115582,0.515499,5,0.1,12,0,-3.73288,3.70959,0.559321,0,0,0,0,0,0,0.0203513,3.5122,5,0.1,13,0,-3.13378,3.04312,0.666591,0,0,0,0,0,0,0.0312255,3.5122,5,0.1,14,0,-1.98954,-3.40848,0.580436,0,0,0,0,0,0,0.00882211,2.5019,5,0.1,15,0,3.92057,-1.26003,0.504906,0,0,0,0,0,0,0.0157918,3.5122,5,0.1,16,0,-0.402226,-4.05903,0.509864,0,0,0,0,0,0,0.00778445,3.51219,5,0.1,17,0,2.29011,-2.62673,0.524104,0,0,0,0,0,0,0.0158166,3.5122,5,0.1,18,0,1.65812,0.0872602,0.553525,0,0,0,0,0,0,0.0101757,2.47094,5,0.1,19,0,3.65775,-4.37337,0.692126,0,0,0,0,0,0,0.0133633,3.5122,5,0.1,20,0,2.25514,1.41363,0.529595,0,0,0,0,0,0,0.0122255,3.5122,5,0.1,21,0,3.50469,-2.68989,0.524785,0,0,0,0,0,0,0.0260549,3.5122,5,0.1,22,0,-1.2619,-0.65889,0.682002,0,0,0,0,0,0,0.0131893,3.51219,5,0.1,23,0,3.8747,-3.46397,0.629003,0,0,0,0,0,0,0.0228269,3.51219,5,0.1,24,0,-4.31566,-2.04855,0.626416,0,0,0,0,0,0,0.0070711,0.589999,5,0.1,25,0,2.21509,-0.887208,0.594323,0,0,0,0,0,0,0.00911075,3.5122,5,0.1,26,0,-1.44833,-3.89904,0.618725,0,0,0,0,0,0,0.0206053,3.5122,5,0.1,27,0,2.37493,-4.29165,0.502923,0,0,0,0,0,0,0.0248701,3.5122,5,0.1,28,0,4.1161,-0.575919,0.537504,0,0,0,0,0,0,0.0103805,2.3731,5,0.1,29,0,-3.40232,-0.751781,0.689954,0,0,0,0,0,0,0.00876956,2.89363,5,0.1
0,0.1,-0.83463,0.30747,0.664683,-0.0126484,-0.0578409,-0.0026796,-0.224862,-1.02828,-0.047639,0.00845646,3.51219,5,0.1,1,0.1,-0.109055,-0.49814,0.538765,-0.00566442,0.0147773,0.00181636,-0.100701,0.262709,0.0322945,0.00797159,0.253718,5,0.1,2,0.1,1.23554,-4.26391,0.592859,0.00339542,0.0419438,0.000211876,0.0603572,0.745654,0.00376627,0.011855,1.77059,5,0.1,3,0.1,0.439959,-0.860585,0.534623,-0.0402568,0.0403222,0.00131633,-0.715675,0.716843,0.0234023,0.0164296,3.51294,5,0.1,4,0.1,1.56872,2.88178,0.547679,0.0215499,0.040815,0.00356622,0.383116,0.725597,0.063397,0.0113856,2.14266,5,0.1,5,0.1,-2.42782,-0.505816,0.539013,0.0554804,-0.0208458,0.000255555,0.986323,-0.370592,0.00454485,0.0103179,3.5122,5,0.1,6,0.1,-0.617522,1.08512,0.609844,0.0183189,0.00785757,-0.000291876,0.325672,0.139691,-0.00519305,0.00961726,0.397347,5,0.1,7,0.1,-0.908903,-2.0204,0.677571,0.0160014,0.0570353,0.00190316,0.284471,1.01395,0.0338368,0.0279997,3.51219,5,0.1,8,0.1,4.06442,2.00403,0.671872,-0.0315756,0.0295453,-0.00213217,-0.561357,0.525236,-0.0379011,0.015072,1.87425,5,0.1,9,0.1,-1.75012,4.04009,0.55865,-0.00147969,-0.0531033,0.00122683,-0.0263005,-0.944078,0.0218041,0.0147229,2.82323,5,0.1,10,0.1,-2.36173,3.189,0.67821,0.0407934,-0.0429496,0.00200346,0.72521,-0.763535,0.0356138,0.0104803,3.5122,5,0.1,11,0.1,-2.4389,-1.23277,0.540004,0.0189528,-0.0123773,0.00177966,0.336945,-0.220045,0.0316389,0.0115582,0.515499,5,0.1,12,0.1,-3.7308,3.70984,0.559351,0.0588391,0.00706948,0.000845082,1.04602,0.125691,0.0150204,0.0203513,3.5122,5,0.1,13,0.1,-3.13188,3.04397,0.666535,0.0540122,0.0243463,-0.00161016,0.960231,0.432819,-0.0286289,0.0312255,3.5122,5,0.1,14,0.1,-1.99103,-3.40941,0.580485,-0.0425037,-0.0263393,0.00141207,-0.755623,-0.468254,0.025101,0.00882211,2.5019,5,0.1,15,0.1,3.92027,-1.25796,0.50488,-0.00854358,0.0586448,-0.000755675,-0.151873,1.04257,-0.0134408,0.0157918,3.5122,5,0.1,16,0.1,-0.404314,-4.05904,0.509887,-0.0592638,-0.000336021,0.000648014,-1.05358,-0.00599027,0.0115186,0.00778445,3.51219,5,0.1,17,0.1,2.28935,-2.62479,0.524053,-0.0216518,0.0551522,-0.00147186,-0.384912,0.980467,-0.0261664,0.0158166,3.5122,5,0.1,18,0.1,1.65749,0.0888916,0.553574,-0.0180211,0.0463105,0.00137715,-0.320375,0.823297,0.0244789,0.0101757,2.47094,5,0.1,19,0.1,3.65768,-4.37128,0.692144,-0.00181682,0.0592388,0.00050636,-0.0322908,1.05312,0.00899658,0.0133633,3.5122,5,0.1,20,0.1,2.25389,1.41196,0.529632,-0.0355072,-0.0474432,0.00103936,-0.631243,-0.843443,0.0184774,0.0122255,3.5122,5,0.1,21,0.1,3.50467,-2.68781,0.524754,-0.000637025,0.0592586,-0.000870693,-0.0113249,1.05347,-0.0154786,0.0260549,3.5122,5,0.1,22,0.1,-1.26005,-0.659864,0.68206,0.0523947,-0.0276553,0.00164798,0.931457,-0.491649,0.0292994,0.0131893,3.51219,5,0.1,23,0.1,3.87455,-3.46189,0.628992,-0.0042811,0.0591137,-0.000292249,-0.0761151,1.05089,-0.00520051,0.0228269,3.51219,5,0.1,24,0.1,-4.31566,-2.0477,0.626308,-5.58794e-05,0.0240959,-0.00307877,-0.000983477,0.428379,-0.0547394,0.0070711,0.589999,5,0.1,25,0.1,2.21441,-0.885232,0.594335,-0.0191424,0.0560907,0.000315625,-0.340328,0.997167,0.00561401,0.00911075,3.5122,5,0.1,26,0.1,-1.44787,-3.89701,0.618717,0.0132602,0.0577651,-0.000248663,0.235736,1.02696,-0.00442564,0.0206053,3.5122,5,0.1,27,0.1,2.37402,-4.28977,0.502899,-0.0257429,0.0533819,-0.000707712,-0.45763,0.948966,-0.0125803,0.0248701,3.5122,5,0.1,28,0.1,4.11601,-0.574205,0.537506,-0.00270829,0.0486427,5.2806e-05,-0.0481308,0.864763,0.000942498,0.0103805,2.3731,5,0.1,29,0.1,-3.40058,-0.752519,0.689921,0.0495352,-0.020963,-0.000937749,0.880629,-0.372671,-0.0166707,0.00876956,2.89363,5,0.1
0,0.2,-0.837199,0.295721,0.664139,-0.0399753,-0.182806,-0.00846982,-0.299811,-1.37104,-0.0635087,0.00840263,2.92579,5,0.1,1,0.2,-0.110205,-0.495139,0.539134,-0.0179023,0.046704,0.00574142,-0.134271,0.350282,0.0430644,0.00899196,0.208163,5,0.1,2,0.2,1.23623,-4.25539,0.592902,0.0107318,0.132561,0.000670552,0.0804663,0.994444,0.00497699,0.0121547,1.45266,5,0.1,3,0.2,0.431782,-0.852394,0.534891,-0.127231,0.127438,0.0041604,-0.954241,0.95579,0.0311732,0.01843,2.96742,5,0.1,4,0.2,1.5731,2.89007,0.548403,0.0681102,0.128996,0.0112712,0.510812,0.967383,0.0845194,0.00867367,1.75795,5,0.1,5,0.2,-2.41655,-0.51005,0.539065,0.175345,-0.0658825,0.000809133,1.31512,-0.494152,0.00602007,0.0103225,2.92579,5,0.1,6,0.2,-0.613801,1.08672,0.609784,0.0578955,0.0248343,-0.000922382,0.43425,0.186265,-0.00694394,0.010523,0.326002,5,0.1,7,0.2,-0.905652,-2.00881,0.677958,0.0505716,0.180262,0.0060156,0.379294,1.35189,0.0451207,0.0272262,2.9258,5,0.1,8,0.2,4.05801,2.01003,0.671439,-0.0997901,0.0933826,-0.00673831,-0.748634,0.700235,-0.0505447,0.0234673,1.53773,5,0.1,9,0.2,-1.75042,4.02931,0.558899,-0.00467598,-0.167835,0.00387728,-0.0351071,-1.25885,0.0290573,0.0166365,2.31631,5,0.1,10,0.2,-2.35344,3.18027,0.678617,0.128925,-0.135738,0.0063315,0.967026,-1.01817,0.0475049,0.0118738,2.92578,5,0.1,11,0.2,-2.43505,-1.23528,0.540365,0.0598967,-0.0391185,0.00562519,0.449419,-0.293374,0.0422001,0.0119159,0.422936,5,0.1,12,0.2,-3.71885,3.71128,0.559522,0.185961,0.0223458,0.00267029,1.39475,0.167608,0.0200272,0.0230951,2.92579,5,0.1,13,0.2,-3.1209,3.04892,0.666208,0.170708,0.0769436,-0.00508875,1.28031,0.577211,-0.0381768,0.0350143,2.92579,5,0.1,14,0.2,-1.99967,-3.41476,0.580772,-0.134331,-0.0832438,0.0044629,-1.00756,-0.624418,0.033468,0.00778278,2.05268,5,0.1,15,0.2,3.91853,-1.24605,0.504726,-0.0269949,0.185347,-0.00238866,-0.202656,1.39004,-0.0179112,0.0154172,2.9258,5,0.1,16,0.2,-0.416352,-4.05911,0.510019,-0.187302,-0.00106096,0.00204742,-1.40479,-0.00786781,0.015378,0.00942903,2.92579,5,0.1,17,0.2,2.28495,-2.61359,0.523754,-0.0684321,0.174308,-0.00465214,-0.513196,1.30737,-0.0348687,0.0144538,2.92579,5,0.1,18,0.2,1.65383,0.0982985,0.553853,-0.0569552,0.146364,0.00435412,-0.427186,1.09773,0.0326037,0.0155564,2.02728,5,0.1,19,0.2,3.65731,-4.35925,0.692247,-0.00574589,0.187218,0.00160038,-0.0430346,1.40429,0.0119805,0.0125861,2.92578,5,0.1,20,0.2,2.24668,1.40232,0.529843,-0.112218,-0.149944,0.00328571,-0.841737,-1.12456,0.0246167,0.0110618,2.92579,5,0.1,21,0.2,3.50454,-2.67577,0.524577,-0.00200868,0.18729,-0.00275075,-0.0151396,1.40452,-0.0206828,0.0279196,2.9258,5,0.1,22,0.2,-1.24941,-0.665482,0.682395,0.165594,-0.0874043,0.00520796,1.24192,-0.655562,0.0390708,0.0180951,2.92579,5,0.1,23,0.2,3.87368,-3.44988,0.628933,-0.0135303,0.186825,-0.000923872,-0.101566,1.40119,-0.00694394,0.0144942,2.92579,5,0.1,24,0.2,-4.31567,-2.04281,0.625682,-0.000178814,0.0761569,-0.00972897,-0.00143051,0.571132,-0.0730157,0.00969586,0.484064,5,0.1,25,0.2,2.21053,-0.873838,0.594399,-0.0605047,0.177275,0.000996888,-0.453711,1.32954,0.00748038,0.010201,2.9258,5,0.1,26,0.2,-1.44517,-3.88528,0.618666,0.041908,0.182563,-0.000785291,0.314355,1.36936,-0.00590086,0.0188096,2.92578,5,0.1,27,0.2,2.36879,-4.27893,0.502755,-0.0813603,0.168717,-0.00223666,-0.610232,1.26529,-0.0167787,0.0243394,2.92583,5,0.1,28,0.2,4.11546,-0.564324,0.537516,-0.00855923,0.153735,0.000166893,-0.0641346,1.15299,0.0012517,0.00884854,1.94701,5,0.1,29,0.2,-3.39052,-0.756778,0.68973,0.156558,-0.0662535,-0.00296384,1.17409,-0.496894,-0.0222325,0.00977204,2.37408,5,0.1
0,0.3,-0.842864,0.269816,0.662939,-0.0744564,-0.340488,-0.0157741,-0.368461,-1.68498,-0.078056,0.00840263,2.92579,5,0.1,1,0.3,-0.112741,-0.488524,0.539947,-0.0333045,0.086885,0.0106811,-0.164302,0.428628,0.0526942,0.00899196,0.208163,5,0.1,2,0.3,1.23775,-4.23661,0.592996,0.0199625,0.246628,0.00124304,0.0984743,1.21674,0.00612065,0.0121547,1.45266,5,0.1,3,0.3,0.414081,-0.834542,0.535479,-0.227632,0.231496,0.00770735,-1.0066,1.07035,0.0376292,0.01843,2.96742,5,0.1,4,0.3,1.58275,2.90834,0.55,0.126706,0.239969,0.0209671,0.625066,1.18384,0.103433,0.00867367,1.75795,5,0.1,5,0.3,-2.3917,-0.519386,0.539179,0.326595,-0.122713,0.00150297,1.61622,-0.607282,0.00742078,0.0103225,2.92579,5,0.1,6,0.3,-0.605601,1.09024,0.609654,0.107708,0.0462005,-0.0017181,0.531368,0.227921,-0.00847876,0.010523,0.326002,5,0.1,7,0.3,-0.898486,-1.98327,0.678811,0.0941938,0.335744,0.0112048,0.466146,1.66148,0.0554509,0.0272262,2.9258,5,0.1,8,0.3,4.04387,2.02326,0.670485,-0.185661,0.17371,-0.0125363,-0.916004,0.856936,-0.0618435,0.0234673,1.53773,5,0.1,9,0.3,-1.75108,4.00554,0.559448,-0.00870191,-0.312236,0.00721114,-0.0429451,-1.54033,0.0355728,0.0166365,2.31631,5,0.1,10,0.3,-2.33517,3.16104,0.679514,0.24014,-0.252832,0.0117944,1.1884,-1.25122,0.0583716,0.0118738,2.92578,5,0.1,11,0.3,-2.42656,-1.24082,0.541162,0.111444,-0.0727721,0.0104656,0.549823,-0.358999,0.0516362,0.0119159,0.422936,5,0.1,12,0.3,-3.6925,3.71445,0.559901,0.346367,0.0416219,0.00497345,1.71407,0.205964,0.0246167,0.0230951,2.92579,5,0.1,13,0.3,-3.09671,3.05982,0.665487,0.317954,0.143325,-0.009479,1.57344,0.709325,-0.0469089,0.0350143,2.92579,5,0.1,14,0.3,-2.01869,-3.42655,0.581404,-0.249907,-0.154868,0.00830209,-1.23286,-0.764027,0.0409521,0.00778278,2.05268,5,0.1,15,0.3,3.91471,-1.21978,0.504394,-0.0502959,0.345216,-0.00426816,-0.248969,1.70835,-0.018809,0.0154172,2.9258,5,0.1,16,0.3,-0.442895,-4.05926,0.510309,-0.348865,-0.00196919,0.00381526,-1.72644,-0.00974536,0.0188872,0.00942903,2.92579,5,0.1,17,0.3,2.27525,-2.58889,0.523094,-0.127456,0.324665,-0.00866298,-0.630736,1.60669,-0.0428632,0.0144538,2.92579,5,0.1,18,0.3,1.64576,0.119028,0.55447,-0.105958,0.272286,0.00809571,-0.522725,1.34327,0.0399239,0.0155564,2.02728,5,0.1,19,0.3,3.6565,-4.33272,0.692473,-0.0106961,0.348719,0.00297874,-0.0528991,1.72576,0.0147372,0.0125861,2.92578,5,0.1,20,0.3,2.23078,1.38108,0.530308,-0.209023,-0.27928,0.00611758,-1.03442,-1.38208,0.030268,0.0110618,2.92579,5,0.1,21,0.3,3.50425,-2.64923,0.524187,-0.00374801,0.348826,-0.00512786,-0.0185817,1.7262,-0.0253916,0.0279196,2.9258,5,0.1,22,0.3,-1.22595,-0.677868,0.683133,0.308427,-0.162799,0.00970121,1.5263,-0.805646,0.0480115,0.0180951,2.92579,5,0.1,23,0.3,3.87176,-3.42341,0.628802,-0.0252083,0.347974,-0.00172211,-0.124782,1.72204,-0.00852719,0.0144942,2.92579,5,0.1,24,0.3,-4.3157,-2.03202,0.624304,-0.000339001,0.141673,-0.0181033,-0.00163913,0.698894,-0.0893287,0.00969586,0.484064,5,0.1,25,0.3,2.20195,-0.848717,0.59454,-0.112688,0.330184,0.00185734,-0.557631,1.63398,0.00919029,0.010201,2.9258,5,0.1,26,0.3,-1.43923,-3.8594,0.618555,0.0780607,0.340047,-0.00146404,0.386305,1.68285,-0.00724941,0.0188096,2.92578,5,0.1,27,0.3,2.35726,-4.25502,0.502458,-0.151541,0.314237,-0.00359118,-0.749931,1.55503,-0.0103936,0.0243394,2.92583,5,0.1,28,0.3,4.11425,-0.542551,0.53754,-0.0159167,0.285997,0.000310782,-0.0784695,1.41091,0.00153109,0.00884854,1.94701,5,0.1,29,0.3,-3.36834,-0.766161,0.68931,0.291242,-0.123253,-0.00551399,1.43677,-0.608046,-0.0272021,0.00977204,2.37408,5,0.1
0,0.4,-0.852121,0.227485,0.660978,-0.109957,-0.502831,-0.023295,-0.325799,-1.48983,-0.0690222,0.00879234,2.5116,5,0.1,1,0.4,-0.116878,-0.47773,0.541274,-0.0491166,0.128136,0.015752,-0.144951,0.378147,0.0464916,0.0109078,0.285874,5,0.1,2,0.4,1.24023,-4.20598,0.593151,0.0294417,0.363719,0.00183284,0.086844,1.07336,0.00539422,0.012229,1.14935,5,0.1,3,0.4,0.386518,-0.806223,0.536434,-0.320432,0.331995,0.0113159,-0.815392,0.899553,0.0329614,0.0192022,2.74179,5,0.1,4,0.4,1.59849,2.93815,0.552604,0.186864,0.353897,0.0309214,0.551403,1.04451,0.0912547,0.0084712,1.39091,5,0.1,5,0.4,-2.35109,-0.534642,0.539366,0.482315,-0.181223,0.00221878,1.42908,-0.536948,0.00658631,0.008416,2.51007,5,0.1,6,0.4,-0.59222,1.09598,0.60944,0.158845,0.068137,-0.00253469,0.46882,0.200987,-0.00748038,0.0109087,0.257936,5,0.1,7,0.4,-0.886775,-1.94153,0.680204,0.139105,0.495824,0.0165477,0.412136,1.46908,0.048995,0.0296613,2.51044,5,0.1,8,0.4,4.02081,2.04484,0.668927,-0.273812,0.256181,-0.0184879,-0.80812,0.756025,-0.0545681,0.0165027,1.21666,5,0.1,9,0.4,-1.75216,3.96675,0.560344,-0.0128329,-0.460476,0.0106335,-0.0379086,-1.35899,0.0314116,0.0141913,1.83268,5,0.1,10,0.4,-2.30532,3.1296,0.680981,0.354636,-0.373387,0.017418,1.05071,-1.10626,0.0516176,0.0147228,2.51006,5,0.1,11,0.4,-2.41272,-1.24986,0.542462,0.16436,-0.107321,0.0154331,0.484943,-0.316739,0.0455976,0.0148483,0.587561,5,0.1,12,0.4,-3.64944,3.71962,0.560519,0.511515,0.0614643,0.00734478,1.51551,0.182152,0.0217557,0.0249412,2.51417,5,0.1,13,0.4,-3.05718,3.07764,0.664308,0.469553,0.211662,-0.0139982,1.39129,0.62716,-0.0415146,0.0425631,2.51007,5,0.1,14,0.4,-2.04974,-3.44579,0.582435,-0.368559,-0.228399,0.0122443,-1.08767,-0.674009,0.0361204,0.0107377,1.62409,5,0.1,15,0.4,3.90845,-1.17687,0.503878,-0.0742793,0.509813,-0.00599921,-0.22018,1.51044,-0.0151694,0.0174966,2.51366,5,0.1,16,0.4,-0.486267,-4.0595,0.510783,-0.515203,-0.00290871,0.00563413,-1.5265,-0.00834465,0.0167191,0.0106106,2.51565,5,0.1,17,0.4,2.2594,-2.54852,0.522017,-0.188226,0.47946,-0.0127926,-0.557661,1.42074,-0.0379384,0.0168634,2.51007,5,0.1,18,0.4,1.6326,0.152854,0.555475,-0.156263,0.40156,0.0119388,-0.461221,1.18508,0.0352263,0.00974565,1.60401,5,0.1,19,0.4,3.65517,-4.28936,0.692844,-0.0157952,0.514996,0.00439882,-0.04673,1.52564,0.0130236,0.016874,2.51554,5,0.1,20,0.4,2.20479,1.34635,0.531069,-0.308686,-0.41244,0.00903457,-0.914574,-1.22195,0.0267625,0.0105171,2.51008,5,0.1,21,0.4,3.50379,-2.60586,0.52355,-0.00553727,0.515145,-0.00757426,-0.0163317,1.52624,-0.0224113,0.0267762,2.51564,5,0.1,22,0.4,-1.1876,-0.698108,0.684339,0.455484,-0.240421,0.014326,1.34951,-0.712335,0.0424683,0.0139616,2.51008,5,0.1,23,0.4,3.86863,-3.38014,0.628588,-0.0372291,0.513887,-0.00254214,-0.110269,1.52254,-0.00756979,0.0166021,2.5151,5,0.1,24,0.4,-4.31574,-2.01442,0.622055,-0.0005126,0.208938,-0.0266984,-0.00119209,0.616491,-0.0788271,0.00806637,0.382997,5,0.1,25,0.4,2.18794,-0.807667,0.594771,-0.166416,0.487615,0.0027433,-0.49305,1.44476,0.00813603,0.00901063,2.51008,5,0.1,26,0.4,-1.42953,-3.81713,0.618373,0.115278,0.502181,-0.00216216,0.341594,1.48797,-0.0064075,0.02299,2.51144,5,0.1,27,0.4,2.33842,-4.21595,0.502057,-0.223792,0.464058,-0.00433475,-0.663161,1.37496,-0.00458956,0.0245409,2.5102,5,0.1,28,0.4,4.11227,-0.507022,0.537579,-0.0234723,0.421781,0.000458956,-0.0693798,1.24475,0.0013411,0.00811954,1.5405,5,0.1,29,0.4,-3.33216,-0.781473,0.688625,0.429517,-0.18177,-0.00813305,1.26755,-0.536442,-0.0239611,0.00840044,1.8784,5,0.1
0,0.5,-0.864792,0.169666,0.658293,-0.143483,-0.652552,-0.0303975,-0.327472,-1.43244,-0.0693761,0.00879234,2.5116,5,0.1,1,0.5,-0.122648,-0.46268,0.543124,-0.0672158,0.175353,0.0215568,-0.202155,0.527386,0.064835,0.0109078,0.285874,5,0.1,2,0.5,1.24362,-4.16414,0.593361,0.0382543,0.472621,0.00238102,0.0850707,1.05128,0.00529736,0.012229,1.14935,5,0.1,3,0.5,0.350959,-0.768789,0.53773,-0.385064,0.413428,0.0145688,-0.475027,0.705041,0.0306554,0.0192022,2.74179,5,0.1,4,0.5,1.61998,2.97886,0.556161,0.24281,0.459872,0.0401803,0.540078,1.02301,0.0893809,0.0084712,1.39091,5,0.1,5,0.5,-2.29551,-0.555526,0.539622,0.629371,-0.236477,0.00289669,1.4364,-0.539694,0.00662729,0.008416,2.51007,5,0.1,6,0.5,-0.573949,1.10381,0.609149,0.20641,0.0885312,-0.00329334,0.459157,0.196874,-0.00731647,0.0109087,0.257936,5,0.1,7,0.5,-0.870745,-1.88445,0.68211,0.181516,0.645265,0.0215903,0.41426,1.44523,0.0492558,0.0296613,2.51044,5,0.1,8,0.5,3.98931,2.07431,0.666801,-0.355801,0.332889,-0.0240242,-0.791445,0.740483,-0.053443,0.0165027,1.21666,5,0.1,9,0.5,-1.75364,3.91378,0.561568,-0.0166776,-0.598356,0.0138201,-0.0371113,-1.331,0.0307634,0.0141913,1.83268,5,0.1,10,0.5,-2.26445,3.08658,0.682988,0.462758,-0.487225,0.0227293,1.0561,-1.11194,0.0518784,0.0147228,2.51006,5,0.1,11,0.5,-2.39366,-1.26237,0.544237,0.218008,-0.143903,0.0200582,0.55401,-0.389241,0.0446402,0.0148483,0.587561,5,0.1,12,0.5,-3.5907,3.7267,0.561366,0.661582,0.0802074,0.00958368,1.41659,0.183061,0.0218675,0.0249412,2.51417,5,0.1,13,0.5,-3.00307,3.10203,0.662695,0.612719,0.276197,-0.0182693,1.39841,0.630349,-0.0417121,0.0425631,2.51007,5,0.1,14,0.5,-2.09213,-3.47206,0.583844,-0.478914,-0.296783,0.0159092,-1.06528,-0.660121,0.0353828,0.0107377,1.62409,5,0.1,15,0.5,3.89989,-1.11831,0.503221,-0.0969324,0.65981,-0.00696611,-0.221238,1.4197,-0.00464916,0.0174966,2.51366,5,0.1,16,0.5,-0.545397,-4.05984,0.511433,-0.665421,-0.00377521,0.00735382,-1.40989,-0.00849366,0.0167899,0.0106106,2.51565,5,0.1,17,0.5,2.23771,-2.49327,0.520543,-0.245612,0.625653,-0.0166961,-0.560567,1.42796,-0.0381283,0.0168634,2.51007,5,0.1,18,0.5,1.61462,0.199044,0.556849,-0.203056,0.521798,0.0155135,-0.451699,1.1607,0.0345074,0.00974565,1.60401,5,0.1,19,0.5,3.65335,-4.23025,0.69335,-0.0206053,0.665191,0.00573946,-0.0469983,1.41019,0.0131018,0.016874,2.51554,5,0.1,20,0.5,2.16922,1.29883,0.53211,-0.402799,-0.538185,0.0117889,-0.919268,-1.22827,0.026904,0.0105171,2.51008,5,0.1,21,0.5,3.50315,-2.54674,0.522677,-0.00721924,0.665355,-0.00988059,-0.016436,1.40996,-0.0225306,0.0267762,2.51564,5,0.1,22,0.5,-1.13511,-0.725813,0.68599,0.594354,-0.313722,0.0186957,1.35647,-0.71599,0.0426769,0.0139616,2.51008,5,0.1,23,0.5,3.86434,-3.32115,0.628295,-0.0485759,0.664049,-0.00332026,-0.11082,1.41227,-0.00758842,0.0166021,2.5151,5,0.1,24,0.5,-4.3158,-1.99039,0.618984,-0.00063926,0.271489,-0.0346949,-0.0012517,0.603855,-0.077188,0.00806637,0.382997,5,0.1,25,0.5,2.16877,-0.751477,0.595087,-0.217153,0.636285,0.00358019,-0.495613,1.45217,0.00817329,0.00901063,2.51008,5,0.1,26,0.5,-1.41624,-3.75938,0.618123,0.150428,0.65188,-0.00282153,0.34333,1.43366,-0.0064373,0.02299,2.51144,5,0.1,27,0.5,2.31263,-4.16248,0.501612,-0.29203,0.605545,-0.00446551,-0.666529,1.38202,0.00157952,0.0245409,2.5102,5,0.1,28,0.5,4.10957,-0.458506,0.537631,-0.0305101,0.548074,0.000595395,-0.0679493,1.21915,0.00132248,0.00811954,1.5405,5,0.1,29,0.5,-3.28276,-0.802381,0.68769,0.558123,-0.236198,-0.0105646,1.24149,-0.5254,-0.0234805,0.00840044,1.8784,5,0.1
0,0.6,-0.880664,0.0978255,0.654931,-0.172506,-0.777218,-0.0365481,-0.240833,-1.01199,-0.0509918,0.00916808,2.31189,5,0.1,1,0.6,-0.130374,-0.442524,0.545602,-0.0869598,0.226861,0.027889,-0.181735,0.474125,0.0582933,0.00880419,0.188503,5,0.1,2,0.6,1.24784,-4.11202,0.593624,0.0457197,0.564873,0.00284612,0.061214,0.756264,0.0038147,0.0112793,0.855655,5,0.1,3,0.6,0.310652,-0.724403,0.539326,-0.415363,0.469072,0.0172019,-0.132456,0.392646,0.0210106,0.0187746,2.71133,5,0.1,4,0.6,1.64676,3.02958,0.560592,0.290206,0.549644,0.0480235,0.388503,0.735998,0.0643134,0.00818586,1.0355,5,0.1,5,0.6,-2.22589,-0.581685,0.539943,0.756681,-0.284313,0.00348389,1.05643,-0.396848,0.00485778,0.00850653,2.27414,5,0.1,6,0.6,-0.551185,1.11358,0.608786,0.246704,0.10581,-0.0039354,0.330269,0.141621,-0.00527501,0.0107357,0.31723,5,0.1,7,0.6,-0.850666,-1.81324,0.684499,0.218232,0.77225,0.0259563,0.304669,1.04284,0.0362098,0.0264927,2.34513,5,0.1,8,0.6,3.95008,2.11102,0.664151,-0.425255,0.397873,-0.0287145,-0.569224,0.532627,-0.0384152,0.012395,0.905771,5,0.1,9,0.6,-1.75548,3.84779,0.563092,-0.0199348,-0.715148,0.0165194,-0.0267029,-0.957608,0.0221133,0.0189364,1.36801,5,0.1,10,0.6,-2.21326,3.03268,0.685502,0.556362,-0.585777,0.0273257,0.776649,-0.817776,0.0381768,0.0119083,1.98403,5,0.1,11,0.6,-2.3692,-1.27865,0.54645,0.269288,-0.18073,0.0239745,0.447154,-0.328541,0.0320971,0.0152142,0.454079,5,0.1,12,0.6,-3.51808,3.73558,0.562426,0.783372,0.0964344,0.0115216,0.973821,0.134587,0.0160933,0.0286245,2.32781,5,0.1,13,0.6,-2.9353,3.13259,0.660674,0.736666,0.332063,-0.0219643,1.02842,0.463605,-0.0306964,0.0402985,2.25117,5,0.1,14,0.6,-2.14495,-3.50479,0.585598,-0.572395,-0.354713,0.0190139,-0.766277,-0.47493,0.0254512,0.0116281,1.20909,5,0.1,15,0.6,3.88917,-1.04584,0.502515,-0.116539,0.782165,-0.00701994,-0.162721,0.981271,0.00309944,0.0203821,2.32479,5,0.1,16,0.6,-0.618347,-4.06025,0.512246,-0.78599,-0.00452995,0.00884086,-0.957578,-0.0064373,0.012368,0.0108312,2.33494,5,0.1,17,0.6,2.21054,-2.42406,0.518696,-0.295293,0.752217,-0.0200748,-0.412226,1.05011,-0.028044,0.0194618,2.26845,5,0.1,18,0.6,1.59223,0.256589,0.55856,-0.242695,0.623655,0.018543,-0.324965,0.83497,0.0248253,0.0117275,1.19414,5,0.1,19,0.6,3.65107,-4.15732,0.693985,-0.0247717,0.785828,0.00689924,-0.0345707,0.958443,0.00965595,0.0166987,2.33449,5,0.1,20,0.6,2.12466,1.23929,0.533414,-0.484276,-0.647047,0.014174,-0.676036,-0.903368,0.0197887,0.0148329,2.26963,5,0.1,21,0.6,3.50235,-2.47379,0.521584,-0.00867844,0.785941,-0.0118762,-0.0120401,0.957966,-0.0165999,0.0347384,2.33487,5,0.1,22,0.6,-1.06937,-0.760517,0.688058,0.714582,-0.377183,0.0224784,0.997484,-0.526518,0.0313818,0.019456,2.2334,5,0.1,23,0.6,3.85897,-3.24832,0.627928,-0.0584006,0.785053,-0.00399351,-0.0814199,0.963449,-0.00554323,0.0189921,2.33239,5,0.1,24,0.6,-4.31587,-1.96045,0.615158,-0.000751019,0.324482,-0.0414684,-0.000715256,0.434399,-0.0554919,0.0110678,0.285136,5,0.1,25,0.6,2.14474,-0.68109,0.595483,-0.26108,0.764996,0.00430495,-0.364423,1.06794,0.00602007,0.0107815,2.2855,5,0.1,26,0.6,-1.3996,-3.6876,0.617811,0.180858,0.776762,-0.0033915,0.252426,1.01471,-0.00476837,0.0247055,2.31071,5,0.1,27,0.6,2.28033,-4.09549,0.501181,-0.351101,0.728035,-0.00409186,-0.490308,1.01638,0.00551343,0.0319865,2.24348,5,0.1,28,0.6,4.1062,-0.398063,0.537697,-0.0364661,0.65506,0.000710785,-0.0488758,0.877053,0.000953674,0.00957808,1.14686,5,0.1,29,0.6,-3.22121,-0.82843,0.686525,0.667071,-0.282304,-0.0126272,0.893235,-0.377953,-0.0168383,0.00946685,1.39843,5,0.1
0,0.7,-0.899135,0.0160889,0.651018,-0.196677,-0.847494,-0.0416665,-0.227351,-0.413058,-0.0481494,0.00916808,2.31189,5,0.1,1,0.7,-0.139986,-0.417447,0.548685,-0.105119,0.274237,0.0337135,-0.171862,0.448367,0.0551194,0.00880419,0.188503,5,0.1,2,0.7,1.25271,-4.05181,0.593927,0.0515968,0.637476,0.00321278,0.0529587,0.654265,0.00330433,0.0112793,0.855655,5,0.1,3,0.7,0.26886,-0.675777,0.541143,-0.41651,0.500625,0.0190307,0.104435,0.223096,0.0147708,0.0187746,2.71133,5,0.1,4,0.7,1.67769,3.08816,0.565711,0.327505,0.620301,0.0541977,0.336155,0.636756,0.0556372,0.00818586,1.0355,5,0.1,5,0.7,-2.14583,-0.612127,0.540316,0.835671,-0.32415,0.003972,0.523031,-0.374764,0.00459328,0.00850653,2.27414,5,0.1,6,0.7,-0.524735,1.12485,0.608366,0.282856,0.119407,-0.00444157,0.364769,0.12254,-0.00456348,0.0107357,0.31723,5,0.1,7,0.7,-0.827426,-1.73184,0.687277,0.24521,0.845414,0.0295653,0.223611,0.434063,0.03374,0.0264927,2.34513,5,0.1,8,0.7,3.90475,2.15342,0.661091,-0.479903,0.44901,-0.0324028,-0.492498,0.460848,-0.0332445,0.012395,0.905771,5,0.1,9,0.7,-1.7576,3.77181,0.564852,-0.0224974,-0.800319,0.0186423,-0.0230968,-0.709161,0.0191331,0.0189364,1.36801,5,0.1,10,0.7,-2.15375,2.97003,0.688425,0.632448,-0.66589,0.0310651,0.700057,-0.737101,0.0343956,0.0119083,1.98403,5,0.1,11,0.7,-2.34001,-1.2984,0.549005,0.314187,-0.214242,0.0270557,0.424623,-0.322029,0.0277609,0.0152142,0.454079,5,0.1,12,0.7,-3.43593,3.7459,0.563659,0.849631,0.109941,0.0131368,0.376448,0.127032,0.015188,0.0286245,2.32781,5,0.1,13,0.7,-2.85714,3.16814,0.658322,0.819343,0.378599,-0.0250447,0.610173,0.437766,-0.0289716,0.0402985,2.25117,5,0.1,14,0.7,-2.20595,-3.54259,0.587625,-0.645961,-0.400308,0.0214575,-0.662968,-0.410885,0.0220239,0.0116281,1.20909,5,0.1,15,0.7,3.87669,-0.963772,0.501839,-0.132868,0.849211,-0.00639083,-0.153571,0.383638,0.00896677,0.0203821,2.32479,5,0.1,16,0.7,-0.700673,-4.06074,0.513193,-0.850539,-0.00517815,0.0100808,-0.360873,-0.00607967,0.0116527,0.0108312,2.33494,5,0.1,17,0.7,2.17893,-2.34443,0.516547,-0.336674,0.832007,-0.0228896,-0.389293,0.542223,-0.0264756,0.0194618,2.26845,5,0.1,18,0.7,1.56636,0.323058,0.560536,-0.273892,0.703815,0.0209266,-0.28114,0.722412,0.02148,0.0117275,1.19414,5,0.1,19,0.7,3.64842,-4.07501,0.694724,-0.0282425,0.85048,0.00786819,-0.0326484,0.36189,0.00911206,0.0166987,2.33449,5,0.1,20,0.7,2.07335,1.1704,0.534922,-0.5366,-0.726684,0.0158919,-0.362158,-0.656709,0.0139177,0.0148329,2.26963,5,0.1,21,0.7,3.50142,-2.39147,0.520313,-0.00988878,0.850524,-0.0135415,-0.0113994,0.361145,-0.0156574,0.0347384,2.33487,5,0.1,22,0.7,-0.993318,-0.800903,0.690465,0.801529,-0.430036,0.0256283,0.708796,-0.497207,0.029631,0.019456,2.2334,5,0.1,23,0.7,3.85271,-3.16606,0.6275,-0.0665743,0.850214,-0.00454998,-0.0768751,0.366434,-0.00523403,0.0189921,2.33239,5,0.1,24,0.7,-4.31594,-1.92587,0.610738,-0.000826269,0.366187,-0.0467957,-0.000685453,0.375867,-0.0480078,0.0110678,0.285136,5,0.1,25,0.7,2.11679,-0.600231,0.595944,-0.297663,0.842482,0.00490891,-0.344142,0.487283,0.00568107,0.0107815,2.2855,5,0.1,26,0.7,-1.38024,-3.60589,0.617448,0.206195,0.847333,-0.00386937,0.238337,0.415772,-0.00448897,0.0247055,2.31071,5,0.1,27,0.7,2.24273,-4.01816,0.500803,-0.400314,0.812383,-0.0034201,-0.462934,0.648722,0.00764057,0.0319865,2.24348,5,0.1,28,0.7,4.10232,-0.328247,0.537773,-0.0411578,0.739259,0.000802334,-0.0422895,0.758816,0.000823289,0.00957808,1.14686,5,0.1,29,0.7,-3.15011,-0.858517,0.68518,0.752824,-0.318589,-0.014245,0.772804,-0.327006,-0.014592,0.00946685,1.39843,5,0.1
0,0.8,-0.919815,-0.0699332,0.646637,-0.215396,-0.866025,-0.0456318,-0.136495,0,-0.0288785,0.0104762,2.23504,5,0.1,1,0.8,-0.151277,-0.387992,0.552306,-0.119709,0.312299,0.0383928,-0.113279,0.295535,0.036329,0.0102615,0.123412,5,0.1,2,0.8,1.2581,-3.98524,0.594263,0.0557482,0.688773,0.00347197,0.027895,0.343442,0.00175834,0.0157143,0.604131,5,0.1,3,0.8,0.228086,-0.62498,0.543105,-0.395594,0.511263,0.0200257,0.307813,-0.0193119,0.00464916,0.0225769,2.81833,5,0.1,4,0.8,1.71189,3.15294,0.571371,0.353861,0.670224,0.0585601,0.176489,0.334263,0.0292063,0.00936711,0.731114,5,0.1,5,0.8,-2.06048,-0.646211,0.540733,0.863391,-0.355013,0.00435114,0.0527501,-0.225067,0.00274181,0.0107233,2.17889,5,0.1,6,0.8,-0.494758,1.13732,0.607902,0.314862,0.129017,-0.00479817,0.255406,0.0643134,-0.00241399,0.0123354,0.247001,5,0.1,7,0.8,-0.801996,-1.64602,0.690383,0.261113,0.862604,0.0323251,0.0873506,-0.0683665,0.0199378,0.0307045,2.1162,5,0.1,8,0.8,3.85464,2.20031,0.657707,-0.518513,0.48514,-0.0350103,-0.258684,0.242114,-0.0174344,0.0158268,0.639531,5,0.1,9,0.8,-1.75995,3.68888,0.566799,-0.0243068,-0.851387,0.0201419,-0.0120997,-0.292778,0.0100732,0.0164684,0.991296,5,0.1,10,0.8,-2.08744,2.9002,0.691683,0.688791,-0.725216,0.0338346,0.396132,-0.416994,0.0194311,0.0133522,1.41872,5,0.1,11,0.8,-2.30668,-1.32129,0.55183,0.349772,-0.241789,0.0292316,0.269175,-0.215113,0.0145733,0.0145228,0.33178,5,0.1,12,0.8,-3.34983,3.75746,0.565041,0.866026,0.120395,0.0143871,0,0.0764132,0.00908971,0.0270165,2.26063,5,0.1,13,0.8,-2.77292,3.20795,0.655688,0.857788,0.414646,-0.0274301,0.164747,0.262976,-0.0174046,0.0446362,2.14926,5,0.1,14,0.8,-2.27341,-3.5844,0.589866,-0.697941,-0.432521,0.0231847,-0.34821,-0.21565,0.0115633,0.0131755,0.853682,5,0.1,15,0.8,3.86272,-0.877689,0.501251,-0.145513,0.866024,-0.00531971,-0.0921488,2.98023e-05,0.0120103,0.0166466,2.2558,5,0.1,16,0.8,-0.786804,-4.06128,0.514253,-0.866026,-0.00568628,0.0110403,2.98023e-05,-0.00357628,0.00697374,0.0117336,1.87605,5,0.1,17,0.8,2.14353,-2.25933,0.51414,-0.368732,0.862122,-0.0250697,-0.233889,0.0780821,-0.0159144,0.0179297,2.17202,5,0.1,18,0.8,1.53776,0.396558,0.562721,-0.295934,0.760453,0.0226125,-0.147581,0.379368,0.0112355,0.0163127,0.949151,5,0.1,19,0.8,3.64545,-3.98888,0.695552,-0.0309348,0.866026,0.00861883,-0.0195503,0,0.00545382,0.0158653,2.27112,5,0.1,20,0.8,2.01846,1.09507,0.536567,-0.555602,-0.773075,0.0168502,-0.0151396,-0.250578,0.00488758,0.014961,2.1484,5,0.1,21,0.8,3.50038,-2.30534,0.518889,-0.0108302,0.866026,-0.0148311,-0.00679493,0,-0.00938773,0.0318398,2.27166,5,0.1,22,0.8,-0.910295,-0.84612,0.69316,0.851813,-0.470981,0.0280678,0.284255,-0.298649,0.017792,0.015791,2.12141,5,0.1,23,0.8,3.84571,-3.07994,0.627022,-0.0729084,0.866026,-0.00498146,-0.046134,0,-0.00312924,0.0209358,2.2678,5,0.1,24,0.8,-4.31603,-1.88763,0.605851,-0.000882149,0.395656,-0.0505596,-0.000476837,0.197411,-0.0252128,0.008795,0.201326,5,0.1,25,0.8,2.08549,-0.514416,0.59646,-0.326008,0.865749,0.00537634,-0.206709,0.00552893,0.00342727,0.0121984,1.74247,5,0.1,26,0.8,-1.35856,-3.51987,0.617041,0.225821,0.866026,-0.00423938,0.143051,0,-0.00268221,0.0202646,2.31385,5,0.1,27,0.8,2.20064,-3.9344,0.500501,-0.438434,0.855458,-0.00261515,-0.278115,0.211358,0.00822544,0.0282383,2.13797,5,0.1,28,0.8,4.09802,-0.251045,0.537857,-0.0444651,0.798752,0.000868738,-0.0224113,0.398479,0.00038743,0.00947976,0.809746,5,0.1,29,0.8,-3.07149,-0.891788,0.683692,0.813413,-0.344227,-0.0153899,0.405788,-0.171691,-0.0076592,0.00791678,0.987363,5,0.1
0,0.9,-0.942064,-0.156536,0.641923,-0.229479,-0.866025,-0.0486124,-0.130702,-8.9407e-07,-0.0276715,0.0104762,2.23504,5,0.1,1,0.9,-0.163776,-0.355702,0.556315,-0.129745,0.329437,0.0416114,-0.0815494,0.0519026,0.0261478,0.0102615,0.123412,5,0.1,2,0.9,1.26381,-3.91473,0.594619,0.0582755,0.719895,0.00363151,0.0199825,0.245988,0.00126287,0.0157143,0.604131,5,0.1,3,0.9,0.190187,-0.573985,0.545122,-0.361198,0.507813,0.020221,0.378855,-0.067275,-0.00113621,0.0225769,2.81833,5,0.1,4,0.9,1.74812,3.22156,0.577366,0.369854,0.700514,0.0612066,0.126429,0.239417,0.020925,0.00936711,0.731114,5,0.1,5,0.9,-1.97398,-0.682883,0.541183,0.865862,-0.378287,0.00463538,0.00657141,-0.216465,0.00264496,0.0107233,2.17889,5,0.1,6,0.9,-0.462295,1.15053,0.607411,0.331349,0.134846,-0.00501648,0.0732634,0.0460893,-0.00172108,0.0123354,0.247001,5,0.1,7,0.9,-0.776372,-1.56058,0.693714,0.243269,0.841395,0.0342445,-0.399005,-0.35809,0.0166073,0.0307045,2.1162,5,0.1,8,0.9,3.80155,2.24998,0.654123,-0.541953,0.507079,-0.0365904,-0.185266,0.17342,-0.0124946,0.0158268,0.639531,5,0.1,9,0.9,-1.76244,3.60285,0.568861,-0.0254031,-0.864695,0.0210543,-0.00865757,-0.0199676,0.00721589,0.0164684,0.991296,5,0.1,10,0.9,-2.01664,2.82567,0.69516,0.725596,-0.763678,0.03564,0.304371,-0.315383,0.014931,0.0133522,1.41872,5,0.1,11,0.9,-2.27038,-1.34654,0.554823,0.375395,-0.262515,0.030552,0.222713,-0.184007,0.0104308,0.0145228,0.33178,5,0.1,12,0.9,-3.26323,3.7699,0.566527,0.866026,0.128268,0.0153246,0,0.0729859,0.00869855,0.0270165,2.26063,5,0.1,13,0.9,-2.68663,3.25078,0.652855,0.865511,0.441838,-0.0292291,0.0205934,0.252903,-0.0167303,0.0446362,2.14926,5,0.1,14,0.9,-2.34487,-3.62868,0.592239,-0.729493,-0.452062,0.0242325,-0.249401,-0.154465,0.00828505,0.0131755,0.853682,5,0.1,15,0.9,3.84769,-0.791086,0.500782,-0.155031,0.866026,-0.00406243,-0.0884086,0,0.0128001,0.0166466,2.2558,5,0.1,16,0.9,-0.873406,-4.06187,0.515391,-0.866025,-0.00603199,0.01171,-3.72529e-06,-0.00303984,0.00579283,0.0117336,1.87605,5,0.1,17,0.9,2.10544,-2.17288,0.511585,-0.392917,0.865782,-0.0257245,-0.224918,0.00976026,0.00231341,0.0179297,2.17202,5,0.1,18,0.9,1.50731,0.474413,0.565036,-0.313752,0.794829,0.0236314,-0.184722,0.271739,0.00805408,0.0163127,0.949151,5,0.1,19,0.9,3.64225,-3.90228,0.696442,-0.032958,0.866026,0.00918303,-0.0188202,0,0.00525266,0.0158653,2.27112,5,0.1,20,0.9,1.96281,1.01614,0.538277,-0.556676,-0.807763,0.017326,0.0166371,-0.381056,0.00378489,0.014961,2.1484,5,0.1,21,0.9,3.49927,-2.21874,0.517357,-0.0115346,0.866026,-0.0158008,-0.00654161,0,-0.00900775,0.0318398,2.27166,5,0.1,22,0.9,-0.824243,-0.894774,0.696059,0.865137,-0.501886,0.0299091,0.0355281,-0.287633,0.0171363,0.015791,2.12141,5,0.1,23,0.9,3.83818,-2.99334,0.626507,-0.0776779,0.866026,-0.00530528,-0.044331,0,-0.00301376,0.0209358,2.2678,5,0.1,24,0.9,-4.31612,-1.84712,0.600675,-0.000927597,0.413544,-0.0528442,-0.00038743,0.141419,-0.0180528,0.008795,0.201326,5,0.1,25,0.9,2.05187,-0.427826,0.597015,-0.345696,0.865925,0.00570221,-0.168815,-0.00263005,0.00279024,0.0121984,1.74247,5,0.1,26,0.9,-1.33523,-3.43388,0.616603,0.240608,0.848595,-0.00451664,0.137471,-0.313237,-0.00257418,0.0202646,2.31385,5,0.1,27,0.9,2.15535,-3.84821,0.50028,-0.46722,0.865365,-0.00181384,-0.267968,0.0264198,0.0076443,0.0282383,2.13797,5,0.1,28,0.9,4.09346,-0.169269,0.537945,-0.0464924,0.83486,0.0009045,-0.0160038,0.285426,0.000283122,0.00947976,0.809746,5,0.1,29,0.9,-2.98821,-0.92703,0.682117,0.850183,-0.359785,-0.0160847,0.290647,-0.122987,-0.00549853,0.00791678,0.987363,5,0.1
0,1,-0.965559,-0.243138,0.636946,-0.239095,-0.866025,-0.050649,-0.051558,-7.15256e-06,-0.0109076,0.00841868,2.23142,5,0.1,1,1,-0.177066,-0.322867,0.560577,-0.13505,0.323718,0.0433117,-0.0207424,-0.160545,0.00667572,0.00984991,0.100206,5,0.1,2,1,1.2697,-3.84189,0.594986,0.0592977,0.732493,0.00369698,-0.00119209,-0.015974,-5.96046e-05,0.0105007,0.410833,5,0.1,3,1,0.156068,-0.523736,0.547126,-0.320152,0.494905,0.0197381,0.440024,-0.202373,-0.00873208,0.0161001,2.96665,5,0.1,4,1,1.78554,3.29243,0.583559,0.376332,0.712776,0.0622779,-0.00816584,-0.015378,-0.0013411,0.0106564,0.497189,5,0.1,5,1,-1.88738,-0.721619,0.541657,0.866026,-0.394256,0.00483096,-5.96046e-05,-0.0863671,0.00104308,0.00866873,2.16829,5,0.1,6,1,-0.4291,1.16418,0.606903,0.329513,0.137207,-0.00510514,-0.108942,-0.00298023,0.000119209,0.0102367,0.216651,5,0.1,7,1,-0.754534,-1.47872,0.697204,0.189488,0.790948,0.0353366,-0.640094,-0.648975,0.00405312,0.024596,1.64594,5,0.1,8,1,3.74672,2.30129,0.650421,-0.551444,0.515962,-0.0372291,0.0120401,-0.0109673,0.00077486,0.0148239,0.434902,5,0.1,9,1,-1.76501,3.51652,0.570992,-0.0258476,-0.859374,0.0214234,0.000655651,0.132918,-0.000417233,0.0135891,0.950869,5,0.1,10,1,-1.94295,2.74814,0.69878,0.743729,-0.782156,0.0365287,0.0345111,-0.0295639,0.00166893,0.00917777,1.10865,5,0.1,11,1,-2.23194,-1.37355,0.557914,0.390869,-0.276011,0.0310853,0.0731945,-0.0754595,-0.000655651,0.0112724,0.23155,5,0.1,12,1,-3.17663,3.78303,0.568095,0.866026,0.133628,0.0159636,0,0.0287294,0.00342727,0.0216669,2.25956,5,0.1,13,1,-2.60004,3.29603,0.649862,0.866026,0.460494,-0.0304624,0,0.10097,-0.00667572,0.0327938,1.77403,5,0.1,14,1,-2.41868,-3.67442,0.594691,-0.742269,-0.459975,0.024657,0.015974,0.0101328,-0.000536442,0.00800049,0.580533,5,0.1,15,1,3.83182,-0.704484,0.500438,-0.161541,0.866026,-0.00281781,-0.0349283,0,0.0118613,0.0141804,2.2542,5,0.1,16,1,-0.960009,-4.06249,0.516585,-0.866026,-0.00623465,0.0120938,-2.98023e-05,-0.000715256,0.00143051,0.00817743,1.46256,5,0.1,17,1,2.0652,-2.08628,0.50905,-0.409514,0.866026,-0.0247136,-0.0897646,0,0.0173748,0.0132134,2.16047,5,0.1,18,1,1.47511,0.554834,0.567427,-0.32877,0.808749,0.0240445,-0.0985265,-0.017494,-0.000536442,0.010922,0.657517,5,0.1,19,1,3.63888,-3.81568,0.697382,-0.0343442,0.866026,0.00956953,-0.00751019,0,0.00211596,0.0135564,2.27104,5,0.1,20,1,1.90744,0.933659,0.540021,-0.548443,-0.838643,0.0174671,0.163436,-0.192225,-0.00154972,0.00977918,2.1007,5,0.1,21,1,3.49808,-2.13214,0.515739,-0.0120223,0.866026,-0.0164643,-0.0025034,0,-0.00357628,0.0263562,2.27164,5,0.1,22,1,-0.737659,-0.946169,0.699122,0.866026,-0.523126,0.0311747,0,-0.115186,0.00685453,0.0124533,1.71054,5,0.1,23,1,3.83023,-2.90674,0.625964,-0.0809491,0.866026,-0.00552684,-0.017643,0,-0.0012219,0.0149436,2.26737,5,0.1,24,1,-4.31622,-1.80528,0.595328,-0.000953674,0.420791,-0.0537679,0,-0.00911951,0.00116229,0.008678,0.13691,5,0.1,25,1,2.01664,-0.341275,0.597596,-0.356722,0.864697,0.00588447,-0.0392795,-0.0265694,0.000655651,0.00873243,1.32051,5,0.1,26,1,-1.31059,-3.35089,0.616141,0.250745,0.808638,-0.00470579,0.0546575,-0.468612,-0.00104308,0.0172982,2.43294,5,0.1,27,1,2.1075,-3.76162,0.500135,-0.487018,0.866026,-0.00111461,-0.107408,0,0.00628829,0.0273065,2.11682,5,0.1,28,1,4.08876,-0.0847978,0.538037,-0.0473142,0.84948,0.000917912,0.000953674,-0.0183392,-2.98023e-05,0.00807154,0.550656,5,0.1,29,1,-2.90219,-0.963433,0.680489,0.865072,-0.366084,-0.0163659,-0.0187159,0.00789762,0.000327826,0.00946694,0.671442,5,0.1
0,1.1,-0.989773,-0.329741,0.631817,-0.24529,-0.866026,-0.0519605,-0.058271,2.68221e-06,-0.0123456,0.00841868,2.23142,5,0.1,1,1.1,-0.190634,-0.291716,0.564929,-0.135802,0.295577,0.0435548,0.00916794,-0.384094,-0.00292808,0.00984991,0.100206,5,0.1,2,1.1,1.27562,-3.76875,0.595355,0.0590445,0.72927,0.00368264,-0.00604242,-0.0752807,-0.000365078,0.0105007,0.410833,5,0.1,3,1.1,0.12626,-0.474968,0.549048,-0.275975,0.482543,0.0186196,0.442464,-0.0767428,-0.013642,0.0161001,2.96665,5,0.1,4,1.1,1.82312,3.3636,0.589777,0.37468,0.709652,0.0620054,-0.0386387,-0.0731647,-0.0063926,0.0106564,0.497189,5,0.1,5,1.1,-1.80078,-0.761559,0.542147,0.866025,-0.404738,0.00495855,1.49012e-05,-0.0997297,0.0012219,0.00866873,2.16829,5,0.1,6,1.1,-0.397155,1.17788,0.606394,0.305372,0.136605,-0.00508167,-0.350125,-0.0140816,0.000536442,0.0102367,0.216651,5,0.1,7,1.1,-0.738317,-1.40195,0.700758,0.139165,0.751983,0.0357032,-0.382058,-0.199273,0.00174344,0.024596,1.64594,5,0.1,8,1.1,3.69166,2.35281,0.646703,-0.549016,0.513714,-0.0370685,0.0566989,-0.0528395,0.0037998,0.0148239,0.434902,5,0.1,9,1.1,-1.76759,3.43094,0.573131,-0.0257267,-0.854117,0.021333,0.00271946,0.0220686,-0.00217184,0.0135891,0.950869,5,0.1,10,1.1,-1.86843,2.67093,0.702439,0.745502,-0.751516,0.0366136,-0.0278354,0.600517,-0.00138581,0.00917777,1.10865,5,0.1,11,1.1,-2.19251,-1.40152,0.561018,0.397126,-0.282757,0.0309499,0.0354648,-0.0471473,-0.00318885,0.0112724,0.23155,5,0.1,12,1.1,-3.09002,3.79656,0.569712,0.866026,0.137064,0.0163741,0,0.0321865,0.00385195,0.0216669,2.25956,5,0.1,13,1.1,-2.51344,3.34262,0.64678,0.865899,0.471049,-0.0311601,-0.00505149,0.0864118,-0.00571087,0.0327938,1.77403,5,0.1,14,1.1,-2.49279,-3.72035,0.597153,-0.739018,-0.457942,0.0245486,0.0761896,0.0473261,-0.00252947,0.00800049,0.580533,5,0.1,15,1.1,3.81546,-0.617881,0.500213,-0.165788,0.866026,-0.00173608,-0.0404119,-3.72529e-06,0.00964478,0.0141804,2.2542,5,0.1,16,1.1,-1.04661,-4.06311,0.517801,-0.86587,-0.00629649,0.0122139,0.00625104,-0.000268221,0.000469387,0.00817743,1.46256,5,0.1,17,1.1,2.02372,-1.99968,0.506694,-0.420409,0.866026,-0.0221626,-0.103675,0,0.0323169,0.0132134,2.16047,5,0.1,18,1.1,1.44169,0.635587,0.569828,-0.339473,0.805201,0.0239381,-0.0965893,-0.0830442,-0.00246987,0.010922,0.657517,5,0.1,19,1.1,3.6354,-3.72907,0.698352,-0.035264,0.866026,0.00982741,-0.00880659,0,0.00246987,0.0135564,2.27104,5,0.1,20,1.1,1.85284,0.848817,0.541772,-0.547761,-0.85757,0.0176365,-0.0971034,-0.157312,0.00353158,0.00977918,2.1007,5,0.1,21,1.1,3.49687,-2.04553,0.514071,-0.0123326,0.866026,-0.0168999,-0.00299513,0,-0.0041537,0.0263562,2.27164,5,0.1,22,1.1,-0.65106,-0.999095,0.702276,0.865809,-0.535076,0.031886,-0.00867248,-0.0970513,0.00577047,0.0124533,1.71054,5,0.1,23,1.1,3.82203,-2.82013,0.625404,-0.0831041,0.866026,-0.00567548,-0.0206083,0,-0.00141561,0.0149436,2.26737,5,0.1,24,1.1,-4.31631,-1.76326,0.58996,-0.000952929,0.418944,-0.053532,2.98023e-05,-0.0432134,0.00552461,0.008678,0.13691,5,0.1,25,1.1,1.98085,-0.254821,0.598192,-0.358253,0.864749,0.00605853,0.0196695,-0.00455767,0.00231341,0.00873243,1.32051,5,0.1,26,1.1,-1.28519,-3.27286,0.615664,0.257389,0.750924,-0.00483161,0.0632554,-0.550464,-0.00119582,0.0172982,2.43294,5,0.1,27,1.1,2.05816,-3.67502,0.500052,-0.500194,0.866026,-0.000577234,-0.126675,0,0.004448,0.0273065,2.11682,5,0.1,28,1.1,4.08404,2.23425e-05,0.538128,-0.04711,0.845757,0.000913534,0.00482798,-0.0872089,-9.31323e-05,0.00807154,0.550656,5,0.1,29,1.1,-2.81582,-0.999986,0.678855,0.861277,-0.36448,-0.0162967,-0.0888258,0.0375696,0.00165775,0.00946694,0.671442,5,0.1
0,1.2,-1.01451,-0.416343,0.626577,-0.248367,-0.866025,-0.0526115,0.00649691,-1.43051e-05,0.0013411,0.00777795,2.3963,5,0.1,1,1.2,-0.204096,-0.264323,0.569246,-0.132663,0.250245,0.0425488,0.0556558,-0.50725,-0.0178814,0.00913169,0.253995,5,0.1,2,1.2,1.28148,-3.69648,0.59572,0.0577301,0.712991,0.00360161,-0.0216365,-0.267982,-0.0013411,0.0112284,0.628563,5,0.1,3,1.2,0.10087,-0.427104,0.550834,-0.23189,0.474064,0.0170141,0.437979,-0.115857,-0.018388,0.0177388,3.18426,5,0.1,4,1.2,1.86025,3.43393,0.595922,0.366318,0.693822,0.0606224,-0.137568,-0.260711,-0.022769,0.00813559,0.330606,5,0.1,5,1.2,-1.71418,-0.802395,0.542647,0.866026,-0.410214,0.00502616,-5.96046e-05,0.00655651,-8.9407e-05,0.00844418,2.20028,5,0.1,6,1.2,-0.368607,1.19141,0.60589,0.263689,0.133556,-0.00496656,-0.465304,-0.0501275,0.00184774,0.00988966,0.194173,5,0.1,7,1.2,-0.725993,-1.32747,0.704323,0.110151,0.738996,0.0354275,-0.211805,-0.112414,-0.00822544,0.00656315,1.17659,5,0.1,8,1.2,3.63724,2.40372,0.64303,-0.536758,0.502259,-0.0362426,0.201702,-0.188589,0.0135899,0.0166279,0.289185,5,0.1,9,1.2,-1.77014,3.34579,0.575245,-0.0251472,-0.846452,0.0208586,0.00947714,0.166655,-0.00780821,0.0151396,0.685061,5,0.1,10,1.2,-1.79432,2.59954,0.706079,0.733382,-0.669819,0.0360176,-0.233531,0.997782,-0.0115037,0.00949987,0.88664,5,0.1,11,1.2,-2.15279,-1.4299,0.564085,0.395215,-0.28339,0.0302598,-0.0845194,0.0426173,-0.0113547,0.012162,0.156612,5,0.1,12,1.2,-3.00342,3.81038,0.571363,0.866026,0.138742,0.0165746,0,-0.00417233,-0.000476837,0.0209529,2.26473,5,0.1,13,1.2,-2.42692,3.38997,0.643647,0.863999,0.473791,-0.0313401,-0.0402927,-0.0478029,0.00318885,0.0314586,1.33102,5,0.1,14,1.2,-2.56603,-3.76573,0.599586,-0.722533,-0.447714,0.0240013,0.27144,0.168204,-0.0090301,0.00776218,0.386025,5,0.1,15,1.2,3.79873,-0.531279,0.500083,-0.16799,0.866026,-0.0009045,0.00309944,0,0.00685453,0.0146611,2.25391,5,0.1,16,1.2,-1.13311,-4.06374,0.51902,-0.863528,-0.00623465,0.0121042,0.0498891,0.00119209,-0.00303984,0.00690185,1.10716,5,0.1,17,1.2,1.9813,-1.91308,0.504655,-0.426105,0.866026,-0.0184923,0.00673532,-5.96046e-05,0.0399947,0.0156304,2.15858,5,0.1,18,1.2,1.40739,0.715387,0.5722,-0.34489,0.787234,0.0234038,0.00143051,-0.295728,-0.00879169,0.0100454,0.444222,5,0.1,19,1.2,3.63184,-3.64247,0.699344,-0.0357568,0.866026,0.0099659,0.000476837,0,-0.000119209,0.0152799,2.27102,5,0.1,20,1.2,1.7975,0.762505,0.543552,-0.558701,-0.866026,0.0179291,-0.0828505,2.98023e-05,0.0013411,0.0110538,2.06775,5,0.1,21,1.2,3.49562,-1.95893,0.512366,-0.0124991,0.866026,-0.0171274,0.000238419,-5.96046e-05,0.000298023,0.0261932,2.27163,5,0.1,22,1.2,-0.564592,-1.05288,0.705481,0.862557,-0.538036,0.0320628,-0.0693655,0.0560284,-0.00336766,0.0120956,1.26709,5,0.1,23,1.2,3.81364,-2.73353,0.624832,-0.0842512,0.866026,-0.00575483,0.0013113,0,8.9407e-05,0.0145568,2.26727,5,0.1,24,1.2,-4.31641,-1.72174,0.584655,-0.000929832,0.409597,-0.0523373,0.000238419,-0.153899,0.0196695,0.00942148,0.154496,5,0.1,25,1.2,1.94529,-0.168568,0.598808,-0.351,0.857559,0.00625998,0.132263,-0.169334,0.0013113,0.00974414,1.01725,5,0.1,26,1.2,-1.25923,-3.2,0.615176,0.26086,0.711679,-0.00489652,-0.00423193,-0.23818,5.96046e-05,0.0169546,2.42592,5,0.1,27,1.2,2.00767,-3.58842,0.500013,-0.507358,0.866026,-0.000223517,0.00375509,0,0.0026226,0.026363,2.11214,5,0.1,28,1.2,4.07937,0.0838416,0.538219,-0.0460625,0.826887,0.00089407,0.0174046,-0.310618,-0.000357628,0.00904858,0.366155,5,0.1,29,1.2,-2.73046,-1.03611,0.67724,0.842059,-0.356349,-0.0159353,-0.316381,0.133872,0.00596046,0.00873251,0.446475,5,0.1
0,1.3,-1.0384,-0.502862,0.621386,-0.221651,-0.862747,-0.0506161,0.480168,0.0948516,0.0366047,0.00777795,2.3963,5,0.1,1,1.3,-0.217058,-0.241938,0.573404,-0.126264,0.196736,0.0404936,0.0743121,-0.549862,-0.023853,0.00913169,0.253995,5,0.1,2,1.3,1.28714,-3.62642,0.596074,0.0555897,0.688364,0.00346899,-0.0229701,-0.250578,-0.00142306,0.0112284,0.628563,5,0.1,3,1.3,0.0795173,-0.380655,0.552445,-0.198241,0.45134,0.0152295,0.253231,-0.330161,-0.0175498,0.0177388,3.18426,5,0.1,4,1.3,1.89621,3.50204,0.601873,0.352719,0.66805,0.0583716,-0.1458,-0.276282,-0.0241324,0.00813559,0.330606,5,0.1,5,1.3,-1.62759,-0.843906,0.543113,0.86551,-0.423953,0.00399873,-0.0205711,-0.232235,-0.0184104,0.00844418,2.20028,5,0.1,6,1.3,-0.344726,1.20452,0.605402,0.21306,0.128601,-0.00478346,-0.518492,-0.053145,0.00196695,0.00988966,0.194173,5,0.1,7,1.3,-0.716545,-1.25623,0.707761,0.0746021,0.667657,0.0327826,-0.464819,-1.20774,-0.041835,0.00656315,1.17659,5,0.1,8,1.3,3.58456,2.45303,0.639472,-0.51682,0.483614,-0.0348987,0.213727,-0.199899,0.0144094,0.0166279,0.289185,5,0.1,9,1.3,-1.77261,3.2618,0.577293,-0.0242112,-0.834039,0.020086,0.0100359,0.1214,-0.0082925,0.0151396,0.685061,5,0.1,10,1.3,-1.72212,2.5381,0.709625,0.710143,-0.554544,0.0348737,-0.254937,1.26019,-0.0125356,0.00949987,0.88664,5,0.1,11,1.3,-2.11369,-1.45802,0.567056,0.386556,-0.278877,0.0291367,-0.102177,0.0576675,-0.0120439,0.012162,0.156612,5,0.1,12,1.3,-2.91682,3.82418,0.573011,0.866026,0.136577,0.0163179,0,-0.0409782,-0.00488013,0.0209529,2.26473,5,0.1,13,1.3,-2.34054,3.43714,0.640528,0.86441,0.469311,-0.0310412,0.011757,-0.0609457,0.00405312,0.0314586,1.33102,5,0.1,14,1.3,-2.63696,-3.80968,0.601942,-0.695699,-0.431087,0.023109,0.287682,0.178233,-0.00956282,0.00776218,0.386025,5,0.1,15,1.3,3.7819,-0.444676,0.500022,-0.168842,0.866026,-0.00035977,-0.0105649,-3.57628e-06,0.00411645,0.0146611,2.25391,5,0.1,16,1.3,-1.21943,-4.06436,0.520216,-0.863926,-0.00611022,0.0118006,-0.0169724,0.00151992,-0.00344217,0.00690185,1.10716,5,0.1,17,1.3,1.9386,-1.82647,0.503011,-0.428315,0.866025,-0.0143624,-0.026755,1.49012e-05,0.041727,0.0156304,2.15858,5,0.1,18,1.3,1.37294,0.792664,0.574498,-0.343639,0.758,0.0225351,0.035651,-0.313416,-0.0093095,0.0100454,0.444222,5,0.1,19,1.3,3.62826,-3.55587,0.700342,-0.035971,0.866026,0.0100265,-0.00269711,0,0.000756234,0.0152799,2.27102,5,0.1,20,1.3,1.74084,0.675908,0.545361,-0.577143,-0.865742,0.0183061,-0.237145,0.0113063,0.00485778,0.0110538,2.06775,5,0.1,21,1.3,3.49437,-1.87233,0.51065,-0.0125654,0.866025,-0.0172185,-0.000834465,1.49012e-05,-0.00113994,0.0261932,2.27163,5,0.1,22,1.3,-0.478397,-1.10643,0.708672,0.862937,-0.53274,0.031745,0.0276718,0.0714958,-0.00428036,0.0120956,1.26709,5,0.1,23,1.3,3.8052,-2.64693,0.624255,-0.0847295,0.866026,-0.00578752,-0.00599027,0,-0.000406057,0.0145568,2.26727,5,0.1,24,1.3,-4.3165,-1.68129,0.579486,-0.000921637,0.401233,-0.0512679,-2.98023e-05,-0.0415817,0.00532344,0.00942148,0.154496,5,0.1,25,1.3,1.91133,-0.0836734,0.599463,-0.324051,0.839467,0.00699945,0.386782,-0.220672,0.0118166,0.00974414,1.01725,5,0.1,26,1.3,-1.23309,-3.12886,0.614686,0.262187,0.720366,-0.00492278,0.0159964,0.31729,-0.000305474,0.0169546,2.42592,5,0.1,27,1.3,1.9568,-3.50181,0.500001,-0.510709,0.866026,-3.35276e-05,-0.0411943,0,0.00125915,0.026363,2.11214,5,0.1,28,1.3,4.07485,0.165011,0.538307,-0.0443421,0.796181,0.000859424,0.0184476,-0.329204,-0.000365078,0.00904858,0.366155,5,0.1,29,1.3,-2.6478,-1.07109,0.675675,0.810784,-0.343116,-0.0153458,-0.335276,0.141874,0.00632554,0.00873251,0.446475,5,0.1
0,1.4,-1.05771,-0.588311,0.616552,-0.160912,-0.842234,-0.0456616,0.69648,0.334322,0.0607371,0.00763716,2.41982,5,0.1,1,1.4,-0.229269,-0.224995,0.57732,-0.117495,0.142564,0.0376791,0.102133,-0.523739,-0.0327826,0.0104273,0.25153,5,0.1,2,1.4,1.29257,-3.55898,0.596413,0.0528395,0.658494,0.00329763,-0.0331998,-0.364542,-0.00205636,0.0125879,1.07625,5,0.1,3,1.4,0.0607775,-0.337466,0.55388,-0.178009,0.409722,0.0134647,0.165546,-0.493735,-0.017941,0.0148869,2.14958,5,0.1,4,1.4,1.93066,3.5673,0.607575,0.335264,0.634986,0.055483,-0.210762,-0.399351,-0.0348687,0.0101987,0.217614,5,0.1,5,1.4,-1.5413,-0.887525,0.543405,0.857794,-0.448114,0.00171214,-0.164628,-0.214636,-0.0257194,0.0088995,2.26254,5,0.1,6,1.4,-0.325919,1.21709,0.604935,0.16445,0.12224,-0.00454634,-0.4379,-0.0768304,0.00283122,0.00960646,1.83235,5,0.1,7,1.4,-0.711592,-1.19658,0.710794,0.0232875,0.516692,0.0275791,-0.534773,-1.72573,-0.0599623,0.025221,1.56134,5,0.1,8,1.4,3.53407,2.50026,0.636063,-0.491238,0.459677,-0.033173,0.308871,-0.288844,0.0208616,0.0135865,0.190345,5,0.1,9,1.4,-1.77497,3.1792,0.579255,-0.0230134,-0.815433,0.0190929,0.0145435,0.278473,-0.0120103,0.0125775,0.479758,5,0.1,10,1.4,-1.65258,2.48906,0.71304,0.678456,-0.426018,0.033316,-0.394404,1.27518,-0.0194013,0.00964307,0.760579,5,0.1,11,1.4,-2.07566,-1.48553,0.569902,0.372535,-0.270185,0.0276938,-0.187039,0.122666,-0.0174046,0.0119202,0.173749,5,0.1,12,1.4,-2.83022,3.83756,0.57461,0.866026,0.130278,0.0155658,0,-0.0857115,-0.0101924,0.0239841,2.26208,5,0.1,13,1.4,-2.25418,3.48362,0.637454,0.860614,0.458401,-0.0303179,-0.108123,-0.170112,0.0112653,0.0312447,0.96829,5,0.1,14,1.4,-2.70491,-3.85179,0.604199,-0.661266,-0.409752,0.0219658,0.415921,0.257611,-0.0138581,0.00804362,0.254091,5,0.1,15,1.4,3.76501,-0.358073,0.500003,-0.168467,0.866025,-6.25849e-05,0.0244379,1.43051e-05,0.00193715,0.0144494,2.25434,5,0.1,16,1.4,-1.30576,-4.06496,0.521375,-0.860336,-0.00590086,0.0113472,0.113904,0.00309944,-0.00593066,0.00719399,0.809855,5,0.1,17,1.4,1.89574,-1.73987,0.50178,-0.427344,0.866026,-0.0102997,0.0630617,-5.96046e-05,0.0388324,0.0160309,2.16167,5,0.1,18,1.4,1.33889,0.866705,0.576699,-0.335771,0.720486,0.0214204,0.12958,-0.453055,-0.0134408,0.00981861,0.319336,5,0.1,19,1.4,3.62466,-3.46927,0.701346,-0.0359416,0.866026,0.0100181,0.00476837,0,-0.0013411,0.0137284,2.27103,5,0.1,20,1.4,1.68201,0.589481,0.547213,-0.597715,-0.8615,0.0186697,-0.138998,0.0905097,0.00151992,0.0106986,2.04491,5,0.1,21,1.4,3.49311,-1.78573,0.508927,-0.0125468,0.866026,-0.0171885,0.00178814,-5.96046e-05,0.00244379,0.0254503,2.27166,5,0.1,22,1.4,-0.392134,-1.15918,0.711815,0.859752,-0.520125,0.0309914,-0.125468,0.195384,-0.0116527,0.0127225,0.905915,5,0.1,23,1.4,3.79672,-2.56033,0.623675,-0.0846207,0.866026,-0.00578016,0.0115633,0,0.000804663,0.0138806,2.26734,5,0.1,24,1.4,-4.31659,-1.64138,0.574386,-0.000929832,0.396422,-0.050652,0.000238419,-0.0749826,0.00959635,0.00885188,0.090445,5,0.1,25,1.4,1.88114,-0.00110182,0.600228,-0.277314,0.808758,0.00833124,0.531137,-0.411991,0.0135899,0.0108796,0.749011,5,0.1,26,1.4,-1.20686,-3.05496,0.614193,0.261551,0.758588,-0.00491142,-0.0391006,0.375986,0.000745058,0.0185252,2.29197,5,0.1,27,1.4,1.90565,-3.41521,0.500003,-0.510561,0.866026,4.32134e-05,0.0648499,0,0.000357628,0.0293085,2.12293,5,0.1,28,1.4,4.07052,0.242782,0.538391,-0.0421405,0.756777,0.000816584,0.0267029,-0.475876,-0.000506639,0.00917807,0.24101,5,0.1,29,1.4,-2.5686,-1.1046,0.674176,0.770652,-0.326133,-0.0145897,-0.484586,0.20504,0.00920892,0.00826978,0.293881,5,0.1
0,1.5,-1.07001,-0.670193,0.612367,-0.0828959,-0.789173,-0.0373965,0.829592,0.708066,0.0996664,0.00763716,2.41982,5,0.1,1,1.5,-0.240501,-0.213247,0.580921,-0.107028,0.0936802,0.0343202,0.108332,-0.447518,-0.034757,0.0104273,0.25153,5,0.1,2,1.5,1.2977,-3.49565,0.596733,0.0496715,0.602171,0.0031013,-0.0316501,-0.724137,-0.00196695,0.0125879,1.07625,5,0.1,3,1.5,0.0436204,-0.299261,0.555142,-0.166625,0.351846,0.0118188,0.0757989,-0.646252,-0.0152998,0.0148869,2.14958,5,0.1,4,1.5,1.96318,3.62888,0.612956,0.31516,0.596894,0.0521566,-0.200853,-0.380546,-0.0332333,0.0101987,0.217614,5,0.1,5,1.5,-1.45644,-0.933245,0.543375,0.838056,-0.464277,-0.00288449,-0.253752,-0.0945441,-0.0609532,0.0088995,2.26254,5,0.1,6,1.5,-0.311608,1.23004,0.604494,0.124403,0.146028,-0.0042757,-0.287304,0.479952,0.00271201,0.00960646,1.83235,5,0.1,7,1.5,-0.711152,-1.15164,0.713296,-0.00750851,0.39895,0.0228513,-0.115298,-0.717141,-0.036642,0.025221,1.56134,5,0.1,8,1.5,3.48643,2.54484,0.632846,-0.461775,0.432121,-0.031183,0.294313,-0.275344,0.0198819,0.0135865,0.190345,5,0.1,9,1.5,-1.7772,3.09892,0.581107,-0.0216277,-0.790631,0.017947,0.0138208,0.249773,-0.0114515,0.0125775,0.479758,5,0.1,10,1.5,-1.58663,2.45274,0.716278,0.640735,-0.302571,0.0314612,-0.379756,1.15365,-0.0186637,0.00964307,0.760579,5,0.1,11,1.5,-2.03931,-1.51211,0.572587,0.35451,-0.262747,0.0260332,-0.184685,0.0442713,-0.0165962,0.0119202,0.173749,5,0.1,12,1.5,-2.74361,3.85024,0.576126,0.866026,0.12399,0.0148185,0,-0.0478774,-0.00568479,0.0239841,2.26208,5,0.1,13,1.5,-2.16844,3.52865,0.634475,0.855404,0.4422,-0.029245,-0.0413954,-0.16959,0.011228,0.0312447,0.96829,5,0.1,14,1.5,-2.76904,-3.89153,0.606329,-0.621593,-0.385179,0.0206446,0.396311,0.245497,-0.0131875,0.00804362,0.254091,5,0.1,15,1.5,3.74822,-0.271471,0.500004,-0.167462,0.866025,6.38887e-05,0.0051558,-1.78814e-06,0.000678003,0.0144494,2.25434,5,0.1,16,1.5,-1.39143,-4.06554,0.522481,-0.854082,-0.00560507,0.0107794,0.0552461,0.00301003,-0.00577047,0.00719399,0.809855,5,0.1,17,1.5,1.85319,-1.65327,0.500935,-0.424564,0.866025,-0.00670264,0.0163913,1.49012e-05,0.0326894,0.0160309,2.16167,5,0.1,18,1.5,1.30635,0.936576,0.578776,-0.311451,0.677271,0.0201384,0.341564,-0.43172,-0.0128075,0.00981861,0.319336,5,0.1,19,1.5,3.62107,-3.38266,0.702345,-0.0357915,0.866026,0.00997493,0.000342727,0,-0.000108033,0.0137284,2.27103,5,0.1,20,1.5,1.62126,0.503425,0.549095,-0.619095,-0.861927,0.0190286,-0.242248,-0.0491498,0.00435859,0.0106986,2.04491,5,0.1,21,1.5,3.49186,-1.69912,0.50723,-0.0124797,0.866025,-0.0166395,0.000268221,1.49012e-05,0.00850484,0.0254503,2.27166,5,0.1,22,1.5,-0.306611,-1.21026,0.714859,0.851378,-0.501501,0.0298809,-0.0835416,0.194788,-0.0116155,0.0127225,0.905915,5,0.1,23,1.5,3.78828,-2.47372,0.623099,-0.0842221,0.866026,-0.00575166,0.0012815,0,9.68575e-05,0.0138806,2.26734,5,0.1,24,1.5,-4.31668,-1.60204,0.56936,-0.000913441,0.390589,-0.0499052,0.000178814,-0.0598878,0.00766292,0.00885188,0.090445,5,0.1,25,1.5,1.85568,0.0780926,0.601113,-0.235088,0.777795,0.00921702,0.332169,-0.250894,0.00438467,0.0108796,0.749011,5,0.1,26,1.5,-1.18081,-2.97683,0.613704,0.259792,0.806034,-0.00487734,-0.0106543,0.505999,0.000208616,0.0185252,2.29197,5,0.1,27,1.5,1.85482,-3.32861,0.500008,-0.506515,0.866026,5.79283e-05,0.0409633,0,-2.98023e-05,0.0293085,2.12293,5,0.1,28,1.5,4.06643,0.316172,0.53847,-0.0395961,0.711384,0.000768621,0.0253618,-0.453471,-0.000473112,0.00917807,0.24101,5,0.1,29,1.5,-2.49387,-1.13623,0.672761,0.72443,-0.306574,-0.013712,-0.461757,0.195399,0.00875443,0.00826978,0.293881,5,0.1
0,1.6,-1.07417,-0.745085,0.609156,-0.000998378,-0.704269,-0.026606,0.782609,0.97239,0.112265,0.00776183,2.34871,5,0.1,1,1.6,-0.250645,-0.205949,0.584174,-0.095658,0.054032,0.0306726,0.119612,-0.342123,-0.0383854,0.0106019,0.248891,5,0.1,2,1.6,1.3025,-3.43939,0.597033,0.0462562,0.520301,0.00288934,-0.0376105,-0.884771,-0.00235438,0.0122288,1.00217,5,0.1,3,1.6,0.0272809,-0.267439,0.55625,-0.160461,0.28366,0.0103503,0.0577036,-0.703111,-0.0143051,0.014536,0.752192,5,0.1,4,1.6,1.99364,3.68657,0.617997,0.293505,0.555873,0.0485733,-0.238776,-0.45228,-0.0395179,0.0100568,0.143035,5,0.1,5,1.6,-1.3742,-0.979854,0.54276,0.803187,-0.464766,-0.00954866,-0.458479,0.0932217,-0.0683069,0.0063283,0.971103,5,0.1,6,1.6,-0.3,1.24747,0.604081,0.113839,0.205356,-0.00398159,0.0687987,0.650644,0.00321865,0.0103964,1.55757,5,0.1,7,1.6,-0.71202,-1.11426,0.715423,-0.00595301,0.357452,0.0198841,0.118762,-0.182807,-0.0243187,0.0234379,1.21797,5,0.1,8,1.6,3.4418,2.58662,0.629831,-0.430036,0.402433,-0.0290394,0.349641,-0.327229,0.0236332,0.0124767,0.21227,5,0.1,9,1.6,-1.7793,3.02127,0.582841,-0.0201374,-0.760049,0.0167131,0.0163913,0.384092,-0.0136197,0.0118542,0.328982,5,0.1,10,1.6,-1.52456,2.4278,0.719326,0.599205,-0.201219,0.0294209,-0.464141,0.854135,-0.0227988,0.00939293,0.652421,5,0.1,11,1.6,-2.00486,-1.53817,0.575104,0.333732,-0.258189,0.0242442,-0.238359,0.0600815,-0.0197291,0.011387,0.123217,5,0.1,12,1.6,-2.65701,3.86241,0.57758,0.866026,0.119358,0.0142679,0,-0.0505447,-0.00604987,0.0222893,2.03351,5,0.1,13,1.6,-2.0833,3.57191,0.631614,0.844646,0.421864,-0.0278994,-0.205517,-0.247836,0.0163913,0.0286509,0.682442,5,0.1,14,1.6,-2.82913,-3.92876,0.608325,-0.578868,-0.358713,0.019224,0.470877,0.291705,-0.0156462,0.00718629,0.167008,5,0.1,15,1.6,3.73154,-0.184868,0.500012,-0.165814,0.866025,9.08971e-05,0.0346899,0,-0.000119209,0.0145649,2.2551,5,0.1,16,1.6,-1.47636,-4.06608,0.523529,-0.841808,-0.00526905,0.0101358,0.220954,0.0038147,-0.00733137,0.007137,0.572889,5,0.1,17,1.6,1.8109,-1.56667,0.500416,-0.420001,0.866026,-0.00382513,0.0916719,0,0.0246465,0.0149034,1.71212,5,0.1,18,1.6,1.27716,1.00204,0.580723,-0.270286,0.630724,0.0187561,0.468552,-0.513017,-0.015229,0.0120834,0.238297,5,0.1,19,1.6,3.6175,-3.29606,0.70334,-0.0355184,0.866026,0.00989884,0.00655651,0,-0.00187755,0.0132934,2.27106,5,0.1,20,1.6,1.55828,0.417083,0.551016,-0.638226,-0.86306,0.0193208,-0.107229,0.0593221,0.000506639,0.00737392,1.0804,5,0.1,21,1.6,3.49062,-1.61252,0.505619,-0.012368,0.866026,-0.0155002,0.0025034,-5.96046e-05,0.0142157,0.0257635,2.27179,5,0.1,22,1.6,-0.222099,-1.25932,0.717782,0.836015,-0.478208,0.0284925,-0.252485,0.282884,-0.0168681,0.0108723,0.630404,5,0.1,23,1.6,3.77988,-2.38712,0.622526,-0.0835299,0.866026,-0.00570416,0.015974,0,0.00113249,0.0147679,2.26748,5,0.1,24,1.6,-4.31677,-1.56338,0.56442,-0.00089407,0.381374,-0.0487268,0.000238419,-0.136971,0.0175238,0.00785959,0.0683308,5,0.1,25,1.6,1.83363,0.154591,0.602043,-0.207546,0.751093,0.00926256,0.233293,-0.314392,-0.00321865,0.00978759,0.543526,5,0.1,26,1.6,-1.15494,-2.89393,0.613219,0.256941,0.848693,-0.00482202,-0.056684,0.303268,0.00104308,0.0177731,2.24076,5,0.1,27,1.6,1.8045,-3.24201,0.500013,-0.498158,0.866026,4.17233e-05,0.143409,0,-0.000208616,0.0290749,2.13128,5,0.1,28,1.6,4.0626,0.384937,0.538544,-0.0368595,0.662491,0.000716746,0.0300407,-0.538781,-0.000596046,0.00717863,0.158407,5,0.1,29,1.6,-2.42384,-1.16587,0.671436,0.674641,-0.285506,-0.0127673,-0.54872,0.23216,0.0103712,0.0094368,0.193159,5,0.1
0,1.7,-1.07091,-0.810271,0.607107,0.0608781,-0.596311,-0.0140258,0.466131,1.16127,0.133831,0.00776183,2.34871,5,0.1,1,1.7,-0.25962,-0.202062,0.587052,-0.0839074,0.0256527,0.0269021,0.116065,-0.225813,-0.0372343,0.0106019,0.248891,5,0.1,2,1.7,1.30695,-3.39208,0.59731,0.0427298,0.424439,0.00266852,-0.0341833,-0.975251,-0.00213459,0.0122288,1.00217,5,0.1,3,1.7,0.0115037,-0.242581,0.557227,-0.155126,0.213839,0.00930224,0.0548685,-0.682379,-0.00748038,0.014536,0.752192,5,0.1,4,1.7,2.02186,3.74001,0.622666,0.271122,0.513477,0.0448691,-0.216901,-0.41081,-0.0358969,0.0100568,0.143035,5,0.1,5,1.7,-1.29803,-1.02563,0.541376,0.704112,-0.44844,-0.0187904,-1.42328,0.234414,-0.108503,0.0063283,0.971103,5,0.1,6,1.7,-0.288092,1.27168,0.603698,0.12568,0.281813,-0.00367928,0.150535,0.823542,0.00293553,0.0103964,1.55757,5,0.1,7,1.7,-0.711669,-1.0785,0.717314,0.0158384,0.365257,0.0181475,0.291456,0.271723,-0.0120141,0.0234379,1.21797,5,0.1,8,1.7,3.4003,2.6253,0.62704,-0.401702,0.371754,-0.0268242,0.238642,-0.297308,0.0214688,0.0124767,0.21227,5,0.1,9,1.7,-1.78123,2.94706,0.584448,-0.0186015,-0.724643,0.0154365,0.0148714,0.350416,-0.012368,0.0118542,0.328982,5,0.1,10,1.7,-1.46685,2.41143,0.722159,0.555608,-0.132121,0.0272798,-0.4244,0.496522,-0.020843,0.00939293,0.652421,5,0.1,11,1.7,-1.97262,-1.56379,0.577434,0.311241,-0.25462,0.0223947,-0.22088,0.0256896,-0.0179224,0.011387,0.123217,5,0.1,12,1.7,-2.57041,3.87415,0.578983,0.866026,0.115838,0.0138461,0,-0.0266731,-0.00320002,0.0222893,2.03351,5,0.1,13,1.7,-1.99972,3.61292,0.628902,0.827407,0.398507,-0.0263547,-0.175662,-0.232324,0.0153668,0.0286509,0.682442,5,0.1,14,1.7,-2.88477,-3.96324,0.610173,-0.534728,-0.331367,0.0177577,0.427768,0.264987,-0.0142008,0.00718629,0.167008,5,0.1,15,1.7,3.71507,-0.0982658,0.50002,-0.163948,0.866025,6.71484e-05,0.0120997,1.49012e-07,-0.0003241,0.0145649,2.2551,5,0.1,16,1.7,-1.55957,-4.06659,0.524507,-0.822885,-0.00491068,0.00944585,0.192985,0.00348687,-0.00675023,0.007137,0.572889,5,0.1,17,1.7,1.76927,-1.48007,0.500142,-0.412922,0.865923,-0.0017981,0.0693277,-0.00409037,0.0160374,0.0149034,1.71212,5,0.1,18,1.7,1.2526,1.06267,0.582526,-0.219888,0.582632,0.0173284,0.527591,-0.466049,-0.0138357,0.0120834,0.238297,5,0.1,19,1.7,3.61397,-3.20946,0.704325,-0.0352252,0.866026,0.00981279,0.00141561,0,-0.000432134,0.0132934,2.27106,5,0.1,20,1.7,1.49453,0.333277,0.55279,-0.630781,-0.793767,0.0148123,0.246175,1.21962,-0.0813156,0.00737392,1.0804,5,0.1,21,1.7,3.48939,-1.52592,0.504153,-0.0122409,0.866025,-0.0136846,0.000730157,1.49012e-05,0.0214167,0.0257635,2.27179,5,0.1,22,1.7,-0.139636,-1.30579,0.720551,0.813644,-0.45154,0.0269026,-0.228493,0.265144,-0.0158064,0.0108723,0.630404,5,0.1,23,1.7,3.77158,-2.30052,0.621959,-0.0827741,0.866026,-0.00564912,0.00403821,0,0.000301749,0.0147679,2.26748,5,0.1,24,1.7,-4.31686,-1.52582,0.559621,-0.000877678,0.370535,-0.0473401,0.000178814,-0.0988021,0.0126436,0.00785959,0.0683308,5,0.1,25,1.7,1.81383,0.228358,0.602946,-0.19029,0.725649,0.00873478,0.12657,-0.229387,-0.00716373,0.00978759,0.543526,5,0.1,26,1.7,-1.12943,-2.80807,0.61274,0.253713,0.8644,-0.00476278,-0.0223145,0.0541806,0.000409782,0.0177731,2.24076,5,0.1,27,1.7,1.75523,-3.1554,0.500017,-0.488019,0.866026,1.94646e-05,0.0851154,0,-0.000227243,0.0290749,2.13128,5,0.1,28,1.7,4.05906,0.448621,0.538613,-0.0340447,0.611984,0.000661332,0.0272989,-0.489477,-0.000532717,0.00717863,0.158407,5,0.1,29,1.7,-2.35899,-1.19331,0.670209,0.623202,-0.263742,-0.0117951,-0.498503,0.210918,0.00942126,0.0094368,0.193159,5,0.1
0,1.8,-1.06294,-0.86396,0.606371,0.0943959,-0.476645,-0.000806153,0.214696,1.21126,0.126392,0.00807597,2.15153,5,0.1,1,1.8,-0.267432,-0.200442,0.589556,-0.0723429,0.00852346,0.0231937,0.115544,-0.119887,-0.0370741,0.0100381,0.246087,5,0.1,2,1.8,1.31105,-3.35431,0.597566,0.0392079,0.334001,0.00244826,-0.0371337,-0.803113,-0.00232458,0.010328,3.34767,5,0.1,3,1.8,-0.00370001,-0.224501,0.558125,-0.148499,0.149062,0.00870973,0.0816625,-0.605315,-0.00503659,0.0164309,0.464353,5,0.1,4,1.8,2.04787,3.78927,0.626971,0.248778,0.471151,0.0411704,-0.235558,-0.445843,-0.0389814,0.00743254,0.0943832,5,0.1,5,1.8,-1.23565,-1.06907,0.538943,0.53651,-0.417873,-0.029844,-1.84876,0.376046,-0.106514,0.00707171,0.424972,5,0.1,6,1.8,-0.274755,1.30389,0.603345,0.140888,0.360534,-0.0033766,0.140563,0.710368,0.00321865,0.00950508,1.33552,5,0.1,7,1.8,-0.708517,-1.04032,0.719079,0.0478074,0.399974,0.0172004,0.328302,0.371575,-0.00813603,0.0232076,0.969726,5,0.1,8,1.8,3.36129,2.66097,0.624467,-0.378573,0.341117,-0.0246122,0.239491,-0.322819,0.0232756,0.0126772,0.170213,5,0.1,9,1.8,-1.78302,2.87647,0.585929,-0.0170708,-0.685531,0.0141621,0.0162125,0.449896,-0.013411,0.0115384,0.222594,5,0.1,10,1.8,-1.41346,2.4,0.724781,0.511536,-0.103223,0.0251159,-0.468314,0.0995398,-0.0229776,0.00950792,0.527885,5,0.1,11,1.8,-1.94264,-1.58908,0.579583,0.287983,-0.250599,0.0205472,-0.250697,0.0650287,-0.0194311,0.0112512,0.181862,5,0.1,12,1.8,-2.48381,3.88559,0.580351,0.866026,0.112849,0.0134885,0,-0.0380278,-0.00452995,0.0199901,1.59786,5,0.1,13,1.8,-1.91805,3.65155,0.626347,0.803372,0.37322,-0.0246823,-0.330031,-0.282049,0.0186861,0.0280643,0.470139,5,0.1,14,1.8,-2.93607,-3.99503,0.611876,-0.490659,-0.304067,0.0162944,0.464439,0.28801,-0.0154376,0.00686482,0.110202,5,0.1,15,1.8,3.69876,-0.0116633,0.500025,-0.161779,0.866025,2.98023e-05,0.0377893,-1.19209e-06,-0.000417233,0.0132666,2.25597,5,0.1,16,1.8,-1.64071,-4.06706,0.525417,-0.797227,-0.00454187,0.00873655,0.344396,0.00405312,-0.00759959,0.00787457,0.395476,5,0.1,17,1.8,1.72842,-1.39353,0.500029,-0.40285,0.864387,-0.000576675,0.145555,-0.0326633,0.00861287,0.0169039,1.29457,5,0.1,18,1.8,1.23327,1.11857,0.584189,-0.166884,0.534618,0.0159025,0.52315,-0.506043,-0.0150502,0.0177698,0.189103,5,0.1,19,1.8,3.61046,-3.12285,0.705302,-0.0348747,0.866026,0.00971407,0.00691414,0,-0.00196695,0.0146514,2.27109,5,0.1,20,1.8,1.4332,0.261182,0.553794,-0.591063,-0.638497,0.00472963,0.537336,1.79908,-0.112981,0.00720099,0.221632,5,0.1,21,1.8,3.48817,-1.43932,0.502899,-0.0120997,0.866026,-0.0113413,0.00274181,-5.96046e-05,0.0248849,0.0275207,2.27191,5,0.1,22,1.8,-0.0595979,-1.34955,0.723158,0.784666,-0.422719,0.0251845,-0.374008,0.321209,-0.0191331,0.0112974,0.4303,5,0.1,23,1.8,3.76333,-2.21391,0.621396,-0.0818849,0.866026,-0.00558794,0.0170469,0,0.00119209,0.0136424,2.26765,5,0.1,24,1.8,-4.31695,-1.48932,0.554958,-0.000858307,0.358403,-0.0457883,0.000238419,-0.156939,0.020057,0.010249,0.0304577,5,0.1,25,1.8,1.79536,0.299683,0.603779,-0.179651,0.699274,0.00786185,0.0972748,-0.322624,-0.0100732,0.00954709,0.38646,5,0.1,26,1.8,-1.10421,-2.7215,0.612266,0.250015,0.866026,-0.00469387,-0.0619888,0,0.00116229,0.0151235,2.23347,5,0.1,27,1.8,1.70693,-3.0688,0.500017,-0.476748,0.866026,-2.98023e-06,0.158489,0,-0.000178814,0.0256385,2.14127,5,0.1,28,1.8,4.05579,0.507333,0.538677,-0.0312328,0.561552,0.000606477,0.0295639,-0.531435,-0.000566244,0.00799777,0.104521,5,0.1,29,1.8,-2.2992,-1.21861,0.669077,0.571847,-0.24201,-0.0108242,-0.541329,0.229061,0.0102222,0.00981472,0.127456,5,0.1
0,1.9,-1.05247,-0.906386,0.606863,0.114274,-0.37917,0.0100406,0.175506,0.771906,0.0904873,0.00807597,2.15153,5,0.1,1,1.9,-0.274153,-0.200076,0.591696,-0.0626207,-0.000147708,0.0196454,0.0823606,-0.0570677,-0.0340305,0.0100381,0.246087,5,0.1,2,1.9,1.31478,-3.32462,0.5978,0.035554,0.264586,0.00221971,-0.0365451,-0.519872,-0.00228733,0.010328,3.34767,5,0.1,3,1.9,-0.0181097,-0.212424,0.55898,-0.139337,0.0945037,0.00846451,0.10301,-0.483926,-0.000651926,0.0164309,0.464353,5,0.1,4,1.9,2.07163,3.83427,0.630904,0.226956,0.429845,0.0375591,-0.207633,-0.393078,-0.0343621,0.00743254,0.0943832,5,0.1,5,1.9,-1.19136,-1.10918,0.53539,0.349264,-0.385951,-0.0413955,-1.85362,0.280716,-0.117738,0.00707171,0.424972,5,0.1,6,1.9,-0.260268,1.34359,0.603023,0.146182,0.433365,-0.00307849,-0.0192029,0.704154,0.00283495,0.00950508,1.33552,5,0.1,7,1.9,-0.701978,-0.998085,0.720771,0.0836483,0.447302,0.0167413,0.369232,0.52353,-0.00229478,0.0232076,0.969726,5,0.1,8,1.9,3.3249,2.69355,0.622116,-0.34662,0.311208,-0.0224556,0.390068,-0.284642,0.0205301,0.0126772,0.170213,5,0.1,9,1.9,-1.78465,2.81004,0.587281,-0.0155702,-0.643858,0.0129196,0.0142604,0.405371,-0.0118278,0.0115384,0.222594,5,0.1,10,1.9,-1.36452,2.38947,0.727184,0.468073,-0.113212,0.0229835,-0.414953,-0.253856,-0.0203587,0.00950792,0.527885,5,0.1,11,1.9,-1.91489,-1.61355,0.581555,0.268582,-0.236374,0.0190201,-0.154153,0.211067,-0.0122823,0.0112512,0.181862,5,0.1,12,1.9,-2.3972,3.89672,0.581681,0.865948,0.109903,0.0131375,-0.00309944,-0.0263304,-0.00314042,0.0199901,1.59786,5,0.1,13,1.9,-1.83924,3.68753,0.623968,0.773226,0.346899,-0.0229388,-0.302538,-0.255242,0.0169054,0.0280643,0.470139,5,0.1,14,1.9,-2.98294,-4.02408,0.613433,-0.447632,-0.277387,0.0148647,0.409454,0.253826,-0.0135973,0.00686482,0.110202,5,0.1,15,1.9,3.68271,0.0749392,0.500026,-0.159663,0.866025,-5.86733e-06,0.0138432,7.45058e-07,-0.000301749,0.0132666,2.25597,5,0.1,16,1.9,-1.71883,-4.0675,0.526255,-0.765648,-0.00416487,0.00802958,0.316098,0.00357628,-0.0067763,0.00787457,0.395476,5,0.1,17,1.9,1.68879,-1.3071,0.500005,-0.38983,0.864782,2.57976e-05,0.130579,0.00752509,0.00375882,0.0169039,1.29457,5,0.1,18,1.9,1.21912,1.16964,0.585708,-0.116859,0.487736,0.0145083,0.470594,-0.446133,-0.013262,0.0177698,0.189103,5,0.1,19,1.9,3.60699,-3.03625,0.706268,-0.0345591,0.866026,0.00962326,0.00147521,0,-0.000428408,0.0146514,2.27109,5,0.1,20,1.9,1.37714,0.205997,0.553656,-0.52697,-0.468747,-0.00776956,0.729427,1.58739,-0.130843,0.00720099,0.221632,5,0.1,21,1.9,3.48697,-1.35271,0.501891,-0.0119556,0.866025,-0.00880873,0.000849366,1.49012e-05,0.0253133,0.0275207,2.27191,5,0.1,22,1.9,0.0171179,-1.3903,0.725586,0.750135,-0.392743,0.023399,-0.344074,0.290573,-0.0173114,0.0112974,0.4303,5,0.1,23,1.9,3.7552,-2.12731,0.620841,-0.0810556,0.866026,-0.00552926,0.00438094,0,0.000312924,0.0136424,2.26765,5,0.1,24,1.9,-4.31703,-1.45427,0.550481,-0.000829995,0.342249,-0.0437239,0.000357628,-0.175796,0.0224635,0.010249,0.0304577,5,0.1,25,1.9,1.77776,0.368158,0.604513,-0.173137,0.671103,0.00680443,0.0446141,-0.26902,-0.0109747,0.00954709,0.38646,5,0.1,26,1.9,-1.07942,-2.6349,0.611801,0.246415,0.866026,-0.00462616,-0.0243261,0,0.000465661,0.0151235,2.23347,5,0.1,27,1.9,1.65986,-2.9822,0.500016,-0.465887,0.866026,-1.75089e-05,0.0848249,0,-0.000119209,0.0256385,2.14127,5,0.1,28,1.9,4.05281,0.560974,0.538734,-0.028494,0.512316,0.000554137,0.0260472,-0.46856,-0.000499189,0.00799777,0.104521,5,0.1,29,1.9,-2.24458,-1.24173,0.668043,0.521697,-0.220788,-0.00987723,-0.477239,0.201948,0.0090152,0.00981472,0.127456,5,0.1
0,2,-1.04028,-0.940941,0.60826,0.128275,-0.316225,0.0173092,0.0997782,0.513762,0.0551343,0.00846449,1.9213,5,0.1,1,2,-0.280035,-0.200296,0.593494,-0.0552647,-0.00354908,0.0163645,0.0673681,-0.0140294,-0.0316799,0.00903081,0.241435,5,0.1,2,2,1.31815,-3.3,0.59801,0.031805,0.235319,0.00198483,-0.0388622,-0.0777245,-0.00241399,0.0147887,3.30174,5,0.1,3,2,-0.0314841,-0.205181,0.559826,-0.127692,0.0524718,0.00844449,0.130521,-0.356659,-0.000357628,0.0138421,0.444501,5,0.1,4,2,2.09329,3.8753,0.634488,0.206107,0.390363,0.0341088,-0.2141,-0.405312,-0.035435,0.00856701,0.107926,5,0.1,5,2,-1.16542,-1.1464,0.530689,0.173166,-0.358582,-0.0522241,-1.63704,0.279903,-0.0939965,0.00696526,0.277774,5,0.1,6,2,-0.245908,1.39016,0.602729,0.139695,0.494197,-0.00279248,-0.0995472,0.482917,0.00289083,0.00956594,1.11839,5,0.1,7,2,-0.69183,-0.950833,0.722435,0.118317,0.495791,0.0165239,0.310153,0.408828,-0.00295043,0.00644438,0.48319,5,0.1,8,2,3.29237,2.72325,0.619973,-0.302368,0.282615,-0.0203937,0.486255,-0.293374,0.0211596,0.0111846,0.153371,5,0.1,9,2,-1.78613,2.74775,0.588514,-0.0141382,-0.600779,0.0117317,0.0147223,0.471115,-0.0121891,0.0123236,0.149582,5,0.1,10,2,-1.31979,2.37661,0.72938,0.426182,-0.14593,0.0209287,-0.432491,-0.365615,-0.0212491,0.00895548,0.414332,5,0.1,11,2,-1.88875,-1.63595,0.5834,0.254238,-0.209984,0.0178859,-0.144958,0.30911,-0.0112355,0.0107241,3.35004,5,0.1,12,2,-2.31065,3.90756,0.582977,0.864786,0.106657,0.0127494,-0.0247955,-0.0424385,-0.00506639,0.0235499,1.22567,5,0.1,13,2,-1.76358,3.72092,0.62176,0.737882,0.320345,-0.021182,-0.424564,-0.283241,0.0187755,0.0280155,0.318959,5,0.1,14,2,-3.02566,-4.05055,0.614851,-0.40651,-0.251901,0.013499,0.42212,0.261784,-0.0140071,0.00688136,0.12602,5,0.1,15,2,3.66683,0.161542,0.500024,-0.157416,0.866025,-2.98023e-05,0.0375509,0,-0.000208616,0.0116438,2.25684,5,0.1,16,2,-1.79367,-4.06789,0.527023,-0.729144,-0.00380278,0.00734031,0.433743,0.00357628,-0.00721216,0.00932016,0.268554,5,0.1,17,2,1.65054,-1.22073,0.500021,-0.374085,0.860855,0.000233948,0.195146,-0.103533,0.000685453,0.0133868,1.47596,5,0.1,18,2,1.20966,1.21618,0.587092,-0.0738621,0.442931,0.0131756,0.385165,-0.460029,-0.0136793,0.0133499,0.267759,5,0.1,19,2,3.60355,-2.94965,0.707227,-0.034225,0.866026,0.0095278,0.00679493,0,-0.00190735,0.0134599,2.27111,5,0.1,20,2,1.3283,0.16665,0.552238,-0.448012,-0.322418,-0.0203684,0.836492,1.33373,-0.116557,0.00829763,3.2891,5,0.1,21,2,3.48578,-1.26611,0.501135,-0.0118077,0.866026,-0.00635833,0.0026226,-5.96046e-05,0.023365,0.0284519,2.27201,5,0.1,22,2,0.0902776,-1.42809,0.727837,0.711236,-0.362542,0.0216007,-0.452595,0.321865,-0.0191927,0.00934158,0.290261,5,0.1,23,2,3.74713,-2.04071,0.620291,-0.0801742,0.866026,-0.00546873,0.0165701,-5.96046e-05,0.00116229,0.015167,2.2678,5,0.1,24,2,-4.31711,-1.42102,0.546233,-0.000786781,0.321671,-0.0410944,0.000476837,-0.241816,0.0308752,0.00722195,0.0113959,5,0.1,25,2,1.76066,0.433823,0.605137,-0.168729,0.640693,0.00568777,0.0520349,-0.358746,-0.0112951,0.00934827,0.269528,5,0.1,26,2,-1.05494,-2.5483,0.611341,0.242695,0.866026,-0.00455678,-0.0601411,0,0.00116229,0.0179378,2.23544,5,0.1,27,2,1.61375,-2.8956,0.500014,-0.455317,0.866026,-2.5332e-05,0.145137,0,-8.9407e-05,0.0269578,2.16231,5,0.1,28,2,4.05009,0.609865,0.538787,-0.0258803,0.465256,0.000505149,0.0269413,-0.483125,-0.000536442,0.00738876,0.119512,5,0.1,29,2,-2.19479,-1.2628,0.6671,0.473773,-0.200507,-0.00897199,-0.492215,0.208259,0.00932813,0.00991445,0.145754,5,0.1
0,2.1,-1.02713,-0.970975,0.61019,0.133118,-0.29277,0.0205928,-0.000141561,0.0141785,0.0129864,0.00846449,1.9213,5,0.1,1,2.1,-0.285212,-0.200756,0.594979,-0.0481807,-0.00578356,0.0133921,0.0737049,-0.0230912,-0.0278763,0.00903081,0.241435,5,0.1,2,2.1,1.32115,-3.2768,0.598197,0.0281775,0.230132,0.00175936,-0.0343546,0.00283122,-0.00213459,0.0147887,3.30174,5,0.1,3,2.1,-0.0436065,-0.201505,0.560673,-0.114776,0.0230781,0.00852449,0.129286,-0.23452,0.00135228,0.0138421,0.444501,5,0.1,4,2.1,2.11299,3.91261,0.637748,0.189165,0.358289,0.0313045,-0.136569,-0.258565,-0.0226051,0.00856701,0.107926,5,0.1,5,2.1,-1.15577,-1.18117,0.52513,0.0252401,-0.339112,-0.0577,-1.31094,0.134751,-0.0188835,0.00696526,0.277774,5,0.1,6,2.1,-0.232653,1.44189,0.602463,0.124097,0.538835,-0.00252677,-0.179183,0.382066,0.00249967,0.00956594,1.11839,5,0.1,7,2.1,-0.678034,-0.900487,0.724333,0.160707,0.499579,0.0236004,0.497058,-0.284497,0.127371,0.00644438,0.48319,5,0.1,8,2.1,3.2647,2.75013,0.618033,-0.249975,0.255677,-0.0184506,0.55024,-0.253186,0.0182614,0.0111846,0.153371,5,0.1,9,2.1,-1.78748,2.68989,0.58963,-0.0127876,-0.557254,0.0106125,0.0126883,0.417545,-0.0105165,0.0123236,0.149582,5,0.1,10,2.1,-1.27921,2.35991,0.731373,0.386411,-0.189927,0.0189748,-0.374712,-0.479832,-0.0184029,0.00895548,0.414332,5,0.1,11,2.1,-1.86295,-1.65522,0.585173,0.271017,-0.17404,0.0179167,0.404976,0.395767,0.00889227,0.0107241,3.35004,5,0.1,12,2.1,-2.2242,3.9181,0.584226,0.864204,0.104758,0.0122067,-0.0224262,-0.0038892,-0.00607967,0.0235499,1.22567,5,0.1,13,2.1,-1.69179,3.75162,0.619731,0.698538,0.294137,-0.0194454,-0.386693,-0.249997,0.0165589,0.0280155,0.318959,5,0.1,14,2.1,-3.06451,-4.07462,0.616141,-0.373105,-0.231188,0.012391,0.269294,0.166982,-0.00892952,0.00688136,0.12602,5,0.1,15,2.1,3.65122,0.248144,0.50002,-0.155322,0.866025,-4.40516e-05,0.0134408,-8.9407e-07,-7.82311e-05,0.0116438,2.25684,5,0.1,16,2.1,-1.86454,-4.06826,0.527724,-0.688931,-0.00347048,0.00667609,0.394359,0.00315905,-0.00627339,0.00932016,0.268554,5,0.1,17,2.1,1.61421,-1.13475,0.500045,-0.351649,0.861311,0.000235531,0.256591,0.0628233,-0.000540167,0.0133868,1.47596,5,0.1,18,2.1,1.20404,1.25831,0.588346,-0.040067,0.400695,0.0119197,0.288397,-0.39693,-0.0118054,0.0133499,0.267759,5,0.1,19,2.1,3.60015,-2.86305,0.708174,-0.0339258,0.866026,0.00944361,0.0012368,0,-0.000350177,0.0134599,2.27111,5,0.1,20,2.1,1.28781,0.138674,0.549779,-0.361023,-0.257978,-0.0273355,0.887454,0.0788919,-0.0285916,0.00829763,3.2891,5,0.1,21,2.1,3.48461,-1.17951,0.50061,-0.0116739,0.866025,-0.00419691,0.000759959,1.49012e-05,0.0196546,0.0284519,2.27201,5,0.1,22,2.1,0.159266,-1.46282,0.729907,0.669236,-0.332765,0.0198254,-0.410097,0.283986,-0.0169277,0.00934158,0.290261,5,0.1,23,2.1,3.73916,-1.95411,0.619747,-0.0793975,0.866025,-0.00541359,0.00376999,1.49012e-05,0.000268221,0.015167,2.2678,5,0.1,24,2.1,-4.31719,-1.39009,0.542281,-0.000734627,0.296565,-0.0378882,0.000596046,-0.264391,0.0337698,0.00722195,0.0113959,5,0.1,25,2.1,1.74398,0.496232,0.605651,-0.165206,0.608218,0.00458704,0.0275895,-0.313791,-0.0106581,0.00934827,0.269528,5,0.1,26,2.1,-1.03087,-2.46169,0.61089,0.239302,0.866026,-0.00449019,-0.0218451,0,0.000435859,0.0179378,2.23544,5,0.1,27,2.1,1.56885,-2.80899,0.500011,-0.443135,0.866026,-3.04542e-05,0.118233,0,-1.86265e-05,0.0269578,2.16231,5,0.1,28,2.1,4.04762,0.654334,0.538836,-0.023748,0.427023,0.00046324,0.0171661,-0.308238,-0.000335276,0.00738876,0.119512,5,0.1,29,2.1,-2.14951,-1.28197,0.666243,0.434822,-0.184026,-0.0082342,-0.314012,0.132866,0.00594556,0.00991445,0.145754,5,0.1
0,2.2,-1.01396,-1.00061,0.612262,0.128821,-0.302956,0.0203624,-0.0828505,-0.172317,-0.0155568,0.0091346,1.65093,5,0.1,1,2.2,-0.289655,-0.201416,0.596184,-0.0406399,-0.00698566,0.0107706,0.0765175,0.00329316,-0.0245869,0.00830254,0.227625,5,0.1,2,2.2,1.3238,-3.25348,0.598363,0.0248224,0.239319,0.00154972,-0.0331998,0.186324,-0.00202656,0.0117518,3.1468,5,0.1,3,2.2,-0.0544301,-0.200193,0.561531,-0.101598,0.00483319,0.00861138,0.135155,-0.134431,-2.98023e-05,0.0172578,0.6893,5,0.1,4,2.2,2.13127,3.94723,0.640773,0.176734,0.334758,0.0292465,-0.12064,-0.228763,-0.0199676,0.00808252,0.0623643,5,0.1,5,2.2,-1.15919,-1.21448,0.519366,-0.087437,-0.327241,-0.0566438,-0.937402,0.121295,0.0368953,0.00706535,0.221534,5,0.1,6,2.2,-0.221067,1.49734,0.602223,0.108815,0.565982,-0.00227988,-0.110105,0.142276,0.0025034,0.00942689,0.954122,5,0.1,7,2.2,-0.659444,-0.852763,0.727428,0.210641,0.447832,0.0389665,0.471324,-0.709653,0.166774,0.0224098,0.691487,5,0.1,8,2.2,3.24248,2.77445,0.616278,-0.194365,0.230646,-0.0166461,0.552893,-0.252843,0.0182688,0.0149297,0.279384,5,0.1,9,2.2,-1.78869,2.63629,0.590639,-0.0115335,-0.514209,0.00957251,0.0125766,0.455976,-0.0104904,0.0111587,0.102848,5,0.1,10,2.2,-1.24243,2.33856,0.733179,0.349236,-0.235915,0.0171497,-0.377059,-0.414729,-0.018537,0.00968754,0.284344,5,0.1,11,2.2,-1.83343,-1.6706,0.587023,0.32188,-0.133303,0.0191435,0.554323,0.408411,0.0134408,0.0115763,3.29458,5,0.1,12,2.2,-2.13814,3.92857,0.585413,0.85367,0.104433,0.0114858,-0.218987,-0.00882149,-0.00855327,0.0190011,0.932724,5,0.1,13,2.2,-1.62397,3.77977,0.617869,0.656438,0.268805,-0.0177696,-0.47189,-0.262976,0.0174344,0.0275291,0.214564,5,0.1,14,2.2,-3.10057,-4.09697,0.617339,-0.348592,-0.215995,0.0115797,0.238061,0.147581,-0.00792742,0.00748399,0.0728186,5,0.1,15,2.2,3.63577,0.334747,0.500016,-0.153166,0.866025,-4.76837e-05,0.0362396,1.43051e-05,2.98023e-05,0.0133269,2.25768,5,0.1,16,2.2,-1.93137,-4.06859,0.52836,-0.646263,-0.00315905,0.00604987,0.475287,0.00333786,-0.0063777,0.00773696,0.180697,5,0.1,17,2.2,1.58044,-1.04836,0.500065,-0.322354,0.865293,0.000147521,0.330389,-0.0146627,-0.00113249,0.0145356,0.841562,5,0.1,18,2.2,1.2013,1.29642,0.589479,-0.0164419,0.361463,0.0107527,0.184,-0.396371,-0.0117719,0.0126579,0.66282,5,0.1,19,2.2,3.59676,-2.77644,0.709115,-0.033617,0.866026,0.00935942,0.00619888,0,-0.00178814,0.0125228,2.27114,5,0.1,20,2.2,1.25612,0.112041,0.547008,-0.273338,-0.284474,-0.0271529,0.853777,-0.510968,0.0273585,0.00853771,1.86378,5,0.1,21,2.2,3.48345,-1.09291,0.500281,-0.0115395,0.866026,-0.00245869,0.00238419,-5.96046e-05,0.0150204,0.0267268,2.27207,5,0.1,22,2.2,0.224059,-1.49468,0.731804,0.625399,-0.304008,0.0181124,-0.482142,0.298321,-0.017792,0.00894904,0.691312,5,0.1,23,2.2,3.73125,-1.8675,0.619208,-0.0785947,0.866026,-0.00535697,0.0157356,-5.96046e-05,0.00104308,0.0150151,2.26795,5,0.1,24,2.2,-4.31726,-1.36182,0.538669,-0.000667572,0.268167,-0.0342607,0.000715256,-0.305593,0.039041,0.00733101,0.00565061,5,0.1,25,2.2,1.72762,0.555405,0.606058,-0.161642,0.57404,0.00356585,0.0502467,-0.385582,-0.00965595,0.00970212,0.185144,5,0.1,26,2.2,-1.00708,-2.37509,0.610443,0.235909,0.866026,-0.00442415,-0.0561476,0,0.00107288,0.0173885,2.23724,5,0.1,27,2.2,1.52522,-2.72239,0.500008,-0.428334,0.866026,-2.83122e-05,0.19145,0,0,0.0260644,2.1782,5,0.1,28,2.2,4.04532,0.695605,0.53888,-0.0221848,0.398967,0.000432134,0.0150204,-0.272602,-0.000268221,0.00740422,0.0690561,5,0.1,29,2.2,-2.10749,-1.29975,0.665447,0.406247,-0.171933,-0.00769198,-0.277638,0.117481,0.00521541,0.00903426,0.0842242,5,0.1
0,2.3,-1.00172,-1.03247,0.614158,0.113954,-0.33973,0.0170376,-0.202633,-0.501409,-0.0473633,0.0091346,1.65093,5,0.1,1,2.3,-0.293341,-0.202138,0.597145,-0.0331176,-0.0073191,0.00850325,0.0734627,0.00946689,-0.0208504,0.00830254,0.227625,5,0.1,2,2.3,1.32612,-3.2286,0.598508,0.0217726,0.261331,0.00136308,-0.0283644,0.353158,-0.00174344,0.0117518,3.1468,5,0.1,3,2.3,-0.0639209,-0.200224,0.562386,-0.0882766,-0.00400902,0.00844775,0.131633,-0.0485107,-0.00325218,0.0172578,0.6893,5,0.1,4,2.3,2.14841,3.9797,0.64361,0.166548,0.315441,0.0275605,-0.090912,-0.172377,-0.0150464,0.00808252,0.0623643,5,0.1,5,2.3,-1.1722,-1.2468,0.513968,-0.168496,-0.320726,-0.0506219,-0.677943,0.0315979,0.0795573,0.00706535,0.221534,5,0.1,6,2.3,-0.210642,1.55383,0.602007,0.101847,0.556835,-0.00205161,0.0138059,-0.281863,0.00212714,0.00942689,0.954122,5,0.1,7,2.3,-0.636301,-0.810624,0.732004,0.249287,0.402644,0.051064,0.296373,-0.247434,0.0783317,0.0224098,0.691487,5,0.1,8,2.3,3.22575,2.79643,0.614691,-0.140983,0.210652,-0.0152014,0.507936,-0.1605,0.0115931,0.0149297,0.279384,5,0.1,9,2.3,-1.78979,2.58717,0.591548,-0.0103872,-0.467874,0.00861622,0.0106841,0.475958,-0.00891089,0.0111587,0.102848,5,0.1,10,2.3,-1.20943,2.31283,0.734807,0.310374,-0.278788,0.0154583,-0.400193,-0.416294,-0.0157803,0.00968754,0.284344,5,0.1,11,2.3,-1.79798,-1.68179,0.589024,0.390439,-0.0900637,0.0210271,0.756219,0.430793,0.0217892,0.0115763,3.29458,5,0.1,12,2.3,-2.05391,3.93904,0.586518,0.830067,0.105429,0.0106108,-0.278249,0.0204444,-0.00910833,0.0190011,0.932724,5,0.1,13,2.3,-1.56056,3.80542,0.616174,0.612728,0.244652,-0.0161691,-0.422567,-0.227734,0.01508,0.0275291,0.214564,5,0.1,14,2.3,-3.13438,-4.11791,0.618462,-0.328489,-0.203536,0.0109107,0.17941,0.111163,-0.00596419,0.00748399,0.0728186,5,0.1,15,2.3,3.62057,0.421349,0.500011,-0.151169,0.866025,-4.25614e-05,0.0126213,-3.57628e-06,7.07805e-05,0.0133269,2.25768,5,0.1,16,2.3,-1.99375,-4.06889,0.528935,-0.602256,-0.00285357,0.00546677,0.424668,0.00286102,-0.00545755,0.00773696,0.180697,5,0.1,17,2.3,1.54985,-0.961844,0.500074,-0.289435,0.864991,4.07919e-05,0.331216,-0.0157431,-0.000983477,0.0145356,0.841562,5,0.1,18,2.3,1.20055,1.33087,0.590499,0.000439957,0.329782,0.00967951,0.130892,-0.257418,-0.00999495,0.0126579,0.66282,5,0.1,19,2.3,3.59342,-2.68984,0.710046,-0.0333708,0.866026,0.00928631,0.000759959,0,-0.000249594,0.0125228,2.27114,5,0.1,20,2.3,1.2329,0.0801468,0.544505,-0.192675,-0.360192,-0.0222715,0.751801,-0.920196,0.0657663,0.00853771,1.86378,5,0.1,21,2.3,3.4823,-1.0063,0.500102,-0.0114251,0.866025,-0.0012096,0.000581145,1.11759e-05,0.0100359,0.0267268,2.27207,5,0.1,22,2.3,0.284794,-1.52367,0.733532,0.594125,-0.276612,0.0164787,-0.191858,0.258237,-0.0153966,0.00894904,0.691312,5,0.1,23,2.3,3.72343,-1.7809,0.618675,-0.0778913,0.866025,-0.0053118,0.00306964,1.49012e-05,0.000182539,0.0150151,2.26795,5,0.1,24,2.3,-4.31732,-1.33651,0.535436,-0.000595301,0.237979,-0.0304041,0.000745058,-0.301197,0.0384822,0.00733101,0.00565061,5,0.1,25,2.3,1.71167,0.611005,0.606368,-0.157584,0.538709,0.00265744,0.0382513,-0.340026,-0.00847876,0.00970212,0.185144,5,0.1,26,2.3,-0.983672,-2.28849,0.610004,0.232865,0.866026,-0.00436539,-0.0185966,0,0.000361353,0.0173885,2.23724,5,0.1,27,2.3,1.48339,-2.63579,0.500005,-0.407395,0.866026,-2.57045e-05,0.235252,0,5.21541e-05,0.0260644,2.1782,5,0.1,28,2.3,4.04317,0.734295,0.538922,-0.0209168,0.375947,0.000409875,0.0113249,-0.205431,-0.00019744,0.00740422,0.0690561,5,0.1,29,2.3,-2.06809,-1.31642,0.664701,0.382806,-0.162012,-0.00725156,-0.209153,0.0885203,0.00393763,0.00903426,0.0842242,5,0.1
0,2.4,-0.991457,-1.06907,0.615597,0.0904411,-0.392428,0.011529,-0.258029,-0.506222,-0.0599325,0.00917395,1.36265,5,0.1,1,2.4,-0.296294,-0.202697,0.597897,-0.0260308,-0.00239983,0.00658482,0.0679046,0.0963956,-0.0176132,0.00887026,0.197869,5,0.1,2,2.4,1.32816,-3.2,0.598636,0.0190467,0.31721,0.00119507,-0.0264645,0.737906,-0.00166893,0.0106016,2.8435,5,0.1,3,2.4,-0.0720941,-0.200767,0.563209,-0.0752211,-0.00598058,0.00796467,0.129614,0.00406802,-0.0063777,0.0199859,0.680778,5,0.1,4,2.4,2.16461,4.01037,0.64629,0.157219,0.297749,0.0260159,-0.101328,-0.191927,-0.0167489,0.0081449,0.0485495,5,0.1,5,2.4,-1.19198,-1.27871,0.509346,-0.222239,-0.317031,-0.0414565,-0.394821,0.058651,0.100464,0.00773717,0.193512,5,0.1,6,2.4,-0.2,1.60768,0.601812,0.114706,0.516751,-0.00184327,0.231609,-0.491679,0.00208616,0.00915414,0.784618,5,0.1,7,2.4,-0.610213,-0.771194,0.737378,0.269186,0.388907,0.0552475,0.09951,-0.0683963,0.00840425,0.0214217,0.523722,5,0.1,8,2.4,3.21407,2.81676,0.613225,-0.0939071,0.196207,-0.0141576,0.428915,-0.138521,0.00998378,0.0123252,0.265975,5,0.1,9,2.4,-1.79077,2.54283,0.592365,-0.00934303,-0.418222,0.00774413,0.01055,0.520229,-0.00870228,0.0109438,0.173817,5,0.1,10,2.4,-1.18043,2.28304,0.736275,0.269264,-0.314671,0.0139102,-0.421405,-0.282764,-0.015527,0.00804048,0.20835,5,0.1,11,2.4,-1.75523,-1.68877,0.591233,0.462613,-0.0512689,0.0230789,0.642836,0.329375,0.0174642,0.0106264,3.18611,5,0.1,12,2.4,-1.97256,3.94967,0.587532,0.793868,0.107092,0.00963807,-0.462055,0.00667572,-0.0104904,0.0184087,0.718545,5,0.1,13,2.4,-1.50145,3.82875,0.614632,0.568518,0.221962,-0.0146687,-0.475645,-0.231385,0.0153482,0.0259879,0.257634,5,0.1,14,2.4,-3.16632,-4.13771,0.619523,-0.310075,-0.19213,0.0102982,0.199795,0.123978,-0.00661612,0.00684576,0.056688,5,0.1,15,2.4,3.60554,0.507952,0.500007,-0.149119,0.866026,-3.42727e-05,0.0348091,0,8.9407e-05,0.0117409,2.25849,5,0.1,16,2.4,-2.0518,-4.06916,0.529455,-0.557995,-0.00257492,0.0049293,0.474215,0.00286102,-0.00539422,0.00929843,0.121148,5,0.1,17,2.4,1.52259,-0.875639,0.500074,-0.255606,0.856064,-4.76837e-05,0.347197,-0.199229,-0.000745058,0.0128085,0.603646,5,0.1,18,2.4,1.20103,1.36265,0.591418,0.00661016,0.306469,0.00870228,-0.0159144,-0.223935,-0.00980496,0.0103706,0.594803,5,0.1,19,2.4,3.59009,-2.60324,0.710972,-0.0331104,0.866026,0.00921041,0.00596046,0,-0.00160933,0.0153283,2.27116,5,0.1,20,2.4,1.21717,0.0394145,0.542639,-0.12421,-0.453964,-0.0148058,0.612915,-0.892949,0.0799894,0.0097045,1.51796,5,0.1,21,2.4,3.48116,-0.919701,0.500023,-0.011307,0.866026,-0.000433624,0.00238419,0,0.00569224,0.0259483,2.27211,5,0.1,22,2.4,0.343399,-1.55005,0.735103,0.578573,-0.250894,0.0149474,-0.155196,0.262141,-0.0156462,0.00870726,0.519878,5,0.1,23,2.4,3.71567,-1.6943,0.618146,-0.0771701,0.866026,-0.00526458,0.0149012,0,0.000983477,0.0161779,2.26808,5,0.1,24,2.4,-4.31738,-1.31423,0.53259,-0.000524521,0.207469,-0.0265047,0.000953674,-0.310481,0.0396371,0.00693577,0.00174948,5,0.1,25,2.4,1.69613,0.663125,0.606593,-0.152743,0.502831,0.00187606,0.0636578,-0.390649,-0.00715256,0.00771056,0.125881,5,0.1,26,2.4,-0.960509,-2.20189,0.60957,0.229818,0.866026,-0.00430793,-0.0522137,0,0.00101328,0.0191182,2.2392,5,0.1,27,2.4,1.44395,-2.54919,0.500003,-0.380021,0.866026,-2.08616e-05,0.316918,0,8.9407e-05,0.0251869,2.23285,5,0.1,28,2.4,4.04114,0.770855,0.538962,-0.0197411,0.354864,0.00038892,0.0123978,-0.228792,-0.000238419,0.00905071,0.0537563,5,0.1,29,2.4,-2.03086,-1.33218,0.663995,0.361335,-0.152928,-0.00684857,-0.232697,0.0985861,0.00444055,0.00753453,0.0655661,5,0.1
0,2.5,-0.983983,-1.11128,0.616406,0.0567961,-0.45446,0.00432925,-0.392944,-0.676185,-0.0799336,0.00917395,1.36265,5,0.1,1,2.5,-0.298569,-0.202358,0.598473,-0.0196103,0.0109343,0.00498863,0.0602379,0.197986,-0.0143833,0.00887026,0.197869,5,0.1,2,2.5,1.32995,-3.16351,0.598748,0.0167156,0.420841,0.00104802,-0.0208095,1.23124,-0.00131503,0.0106016,2.8435,5,0.1,3,2.5,-0.0789924,-0.201312,0.563972,-0.0629749,-0.00465298,0.00726795,0.115898,0.020558,-0.00755861,0.0199859,0.680778,5,0.1,4,2.5,2.17989,4.03933,0.64882,0.149037,0.282253,0.0246635,-0.0703782,-0.133336,-0.0116453,0.0081449,0.0485495,5,0.1,5,2.5,-1.21603,-1.31017,0.505716,-0.257062,-0.312412,-0.0310773,-0.289716,0.0481606,0.10439,0.00773717,0.193512,5,0.1,6,2.5,-0.186874,1.6566,0.601637,0.15169,0.460388,-0.00165412,0.465052,-0.569202,0.00174716,0.00915414,0.784618,5,0.1,7,2.5,-0.582942,-0.732207,0.74287,0.274668,0.394183,0.053916,0.00548735,0.132769,-0.0328086,0.0214217,0.523722,5,0.1,8,2.5,3.20666,2.83577,0.611853,-0.0560474,0.184613,-0.0133221,0.327334,-0.102282,0.00737235,0.0123252,0.265975,5,0.1,9,2.5,-1.79166,2.50387,0.593103,-0.00851396,-0.358773,0.0070598,0.00659376,0.647858,-0.00544637,0.0109438,0.173817,5,0.1,10,2.5,-1.15556,2.25017,0.737594,0.228507,-0.342163,0.0125019,-0.394598,-0.246421,-0.013046,0.00804048,0.20835,5,0.1,11,2.5,-1.70556,-1.69228,0.593638,0.531477,-0.0205183,0.0250681,0.68403,0.240274,0.020247,0.0106264,3.18611,5,0.1,12,2.5,-1.89544,3.96045,0.588445,0.748334,0.1087,0.0086315,-0.468746,0.0186712,-0.00980496,0.0184087,0.718545,5,0.1,13,2.5,-1.44668,3.84986,0.613237,0.529092,0.200844,-0.013269,-0.33965,-0.197381,0.013072,0.0259879,0.257634,5,0.1,14,2.5,-3.19647,-4.15639,0.620524,-0.293942,-0.182122,0.00976445,0.138834,0.0860691,-0.00459328,0.00684576,0.056688,5,0.1,15,2.5,3.59074,0.594554,0.500004,-0.147212,0.866026,-2.5332e-05,0.0120103,-3.72529e-06,8.9407e-05,0.0117409,2.25849,5,0.1,16,2.5,-2.10537,-4.06941,0.529923,-0.514282,-0.0023149,0.00443896,0.416577,0.00241399,-0.00455603,0.00929843,0.121148,5,0.1,17,2.5,1.49893,-0.791165,0.500066,-0.216159,0.831553,-0.000103656,0.430822,-0.310529,-0.000391155,0.0128085,0.603646,5,0.1,18,2.5,1.20142,1.39235,0.592243,-0.00147708,0.288722,0.00781417,-0.177503,-0.14706,-0.00821799,0.0103706,0.594803,5,0.1,19,2.5,3.5868,-2.51664,0.711889,-0.0328843,0.866026,0.00915192,0.000610948,0,-0.00012666,0.0153283,2.27116,5,0.1,20,2.5,1.20756,-0.010194,0.541605,-0.0707276,-0.534917,-0.00554807,0.455379,-0.696696,0.100411,0.0097045,1.51796,5,0.1,21,2.5,3.48004,-0.833099,0.500003,-0.0111923,0.866026,-2.86847e-05,0.000596046,-3.72529e-06,0.0026077,0.0259483,2.27211,5,0.1,22,2.5,0.400793,-1.57391,0.736525,0.571443,-0.226972,0.01352,-0.0254902,0.22354,-0.0133291,0.00870726,0.519878,5,0.1,23,2.5,3.708,-1.6077,0.617622,-0.0765342,0.866026,-0.00522407,0.0025183,0,0.000145286,0.0161779,2.26808,5,0.1,24,2.5,-4.31743,-1.29502,0.530135,-0.000433624,0.176987,-0.0226126,0.000834465,-0.299461,0.0382401,0.00693577,0.00174948,5,0.1,25,2.5,1.68115,0.711575,0.606747,-0.14708,0.466959,0.00122087,0.0555664,-0.342533,-0.00593439,0.00771056,0.125881,5,0.1,26,2.5,-0.937675,-2.11528,0.609142,0.227628,0.866026,-0.00426266,-0.00633672,0,0.000163913,0.0191182,2.2392,5,0.1,27,2.5,1.40786,-2.46258,0.500001,-0.338936,0.866026,-1.24797e-05,0.489742,0,7.45058e-05,0.0251869,2.23285,5,0.1,28,2.5,4.03922,0.80536,0.539,-0.0187382,0.336389,0.000369735,0.00864267,-0.158973,-0.000163913,0.00905071,0.0537563,5,0.1,29,2.5,-1.99573,-1.34705,0.66333,0.342548,-0.144967,-0.0064902,-0.16167,0.0685006,0.00307709,0.00753453,0.0655661,5,0.1
0,2.6,-0.980341,-1.15999,0.616435,0.0157312,-0.517598,-0.00373274,-0.411451,-0.544131,-0.0782013,0.00986361,1.07852,5,0.1,1,2.6,-0.300244,-0.2,0.598904,-0.014028,0.0387877,0.00369251,0.0512302,0.347286,-0.0116229,0.00853948,0.330717,5,0.1,2,2.6,1.33152,-3.11515,0.598846,0.014773,0.545365,0.000925362,-0.0185966,1.18184,-0.00116229,0.0109004,0.951486,5,0.1,3,2.6,-0.0847293,-0.201661,0.564659,-0.0519414,-0.00221282,0.00645518,0.105184,0.0267327,-0.00867248,0.0158154,1.01415,5,0.1,4,2.6,2.19444,4.06688,0.651227,0.141758,0.268459,0.0234604,-0.0808239,-0.153065,-0.013411,0.0115387,0.0220561,5,0.1,5,2.6,-1.24293,-1.3411,0.503119,-0.278258,-0.304967,-0.0210434,-0.126839,0.110626,0.0942945,0.00626554,0.19152,5,0.1,6,2.6,-0.169286,1.7,0.60148,0.20017,0.410002,-0.00148416,0.472106,-0.433981,0.00169873,0.0095828,0.627488,5,0.1,7,2.6,-0.555633,-0.69207,0.748045,0.269601,0.408305,0.0491068,-0.109047,0.119269,-0.061363,0.0221243,0.393521,5,0.1,8,2.6,3.20252,2.85372,0.610557,-0.0284731,0.17423,-0.0125736,0.22471,-0.111938,0.00807643,0.013524,0.255642,5,0.1,9,2.6,-1.79248,2.4713,0.593784,-0.00792742,-0.292277,0.0065729,0.00554323,0.666857,-0.00458956,0.011029,0.15852,5,0.1,10,2.6,-1.13465,2.21492,0.73878,0.190216,-0.360483,0.0112325,-0.371635,-0.106096,-0.0126958,0.00779958,0.171615,5,0.1,11,2.6,-1.64926,-1.69355,0.596237,0.590801,-0.00945628,0.0267729,0.466764,-0.0360608,0.012368,0.0101141,2.98693,5,0.1,12,2.6,-1.82309,3.97139,0.589259,0.69679,0.109661,0.00765026,-0.575244,-0.00441074,-0.00995398,0.020463,0.560732,5,0.1,13,2.6,-1.39543,3.86897,0.611975,0.495979,0.181395,-0.011982,-0.342011,-0.196218,0.012964,0.0242798,0.1844,5,0.1,14,2.6,-3.22517,-4.17417,0.621478,-0.279582,-0.173235,0.00928938,0.159383,0.0991821,-0.00527501,0.00829999,0.0257538,5,0.1,15,2.6,3.5761,0.681157,0.500002,-0.145239,0.866026,-1.63913e-05,0.0338554,0,5.96046e-05,0.0110408,2.2593,5,0.1,16,2.6,-2.1547,-4.06962,0.530344,-0.47189,-0.00207424,0.00399351,0.442863,0.00214577,-0.00447035,0.00766082,0.140093,5,0.1,17,2.6,1.47953,-0.709874,0.500054,-0.171414,0.790824,-0.00012815,0.45526,-0.515908,-0.000149012,0.0156132,0.324369,5,0.1,18,2.6,1.2,1.4205,0.592984,-0.0305474,0.274292,0.00701398,-0.388861,-0.153244,-0.00792742,0.00834533,0.502778,5,0.1,19,2.6,3.58351,-2.43003,0.712802,-0.0326455,0.866026,0.00908822,0.00572205,0,-0.00154972,0.0162032,2.27118,5,0.1,20,2.6,1.2025,-0.0666487,0.541553,-0.0331104,-0.588477,0.00444353,0.29844,-0.355643,0.0958741,0.0103354,2.84518,5,0.1,21,2.6,3.47892,-0.746496,0.500009,-0.0110745,0.866026,0.00012517,0.00226498,0,0.000596046,0.0306105,2.27214,5,0.1,22,2.6,0.457768,-1.59551,0.737811,0.566931,-0.204954,0.012207,-0.0921643,0.221908,-0.0132322,0.00858409,0.380658,5,0.1,23,2.6,3.70037,-1.52109,0.617101,-0.0758708,0.866026,-0.00518113,0.0141859,-5.96046e-05,0.000953674,0.0158592,2.2682,5,0.1,24,2.6,-4.31746,-1.2788,0.528063,-0.000345707,0.147557,-0.0188544,0.000715256,-0.289083,0.0369549,0.00708461,0.000940748,5,0.1,25,2.6,1.66675,0.756532,0.606842,-0.140625,0.431663,0.000691414,0.0776052,-0.374258,-0.00464916,0.0084233,0.146762,5,0.1,26,2.6,-0.914967,-2.02868,0.608717,0.226016,0.866026,-0.00422746,-0.036478,-5.96046e-05,0.000715256,0.0196662,2.27614,5,0.1,27,2.6,1.3766,-2.37598,0.500001,-0.284848,0.866026,-7.45058e-06,0.579476,0,8.9407e-05,0.0217849,2.13827,5,0.1,28,2.6,4.03739,0.838197,0.539037,-0.0178337,0.319955,0.000353158,0.0100136,-0.182629,-0.000178814,0.0103885,0.0244203,5,0.1,29,2.6,-1.96229,-1.3612,0.662696,0.325829,-0.137886,-0.00617206,-0.185728,0.0786781,0.00354648,0.00735619,0.0297857,5,0.1
0,2.7,-0.981171,-1.21444,0.615651,-0.0349137,-0.570217,-0.0120389,-0.567745,-0.472873,-0.0841655,0.00986361,1.07852,5,0.1,1,2.7,-0.301404,-0.193805,0.59922,-0.00932775,0.0896499,0.0026593,0.0426546,0.620896,-0.00911206,0.00853948,0.330717,5,0.1,2,2.7,1.33291,-3.055,0.598934,0.0132278,0.653797,0.000828784,-0.0130385,0.947386,-0.000815839,0.0109004,0.951486,5,0.1,3,2.7,-0.0894545,-0.201759,0.565256,-0.0430688,0.000145542,0.00544712,0.0747279,0.0203652,-0.0111684,0.0158154,1.01415,5,0.1,4,2.7,2.20823,4.09298,0.653509,0.133976,0.253721,0.0221695,-0.0791252,-0.149816,-0.0131167,0.0115387,0.0220561,5,0.1,5,2.7,-1.27149,-1.37105,0.501456,-0.293345,-0.294062,-0.0125499,-0.153512,0.11725,0.0746474,0.00626554,0.19152,5,0.1,6,2.7,-0.146744,1.73927,0.60134,0.251471,0.379111,-0.00133123,0.521163,-0.214972,0.00140816,0.0095828,0.627488,5,0.1,7,2.7,-0.52927,-0.650454,0.752624,0.257045,0.425083,0.0422502,-0.146274,0.18442,-0.0742674,0.0221243,0.393521,5,0.1,8,2.7,3.20068,2.87056,0.609342,-0.00965744,0.162314,-0.0117137,0.149935,-0.128523,0.00927225,0.013524,0.255642,5,0.1,9,2.7,-1.79325,2.44544,0.594421,-0.00746883,-0.22527,0.00619246,0.00399351,0.645489,-0.00332668,0.011029,0.15852,5,0.1,10,2.7,-1.11725,2.17836,0.739844,0.159841,-0.370121,0.010087,-0.247024,-0.0701845,-0.0105575,0.00779958,0.171615,5,0.1,11,2.7,-1.58775,-1.695,0.598982,0.639289,-0.0249788,0.0281495,0.458986,-0.343949,0.0133254,0.0101141,2.98693,5,0.1,12,2.7,-1.75609,3.98233,0.589978,0.644831,0.108992,0.00676475,-0.487186,-0.012964,-0.00800192,0.020463,0.560732,5,0.1,13,2.7,-1.34734,3.8862,0.610837,0.467011,0.163583,-0.0108059,-0.258908,-0.165373,0.0109151,0.0242798,0.1844,5,0.1,14,2.7,-3.25236,-4.19101,0.622381,-0.264233,-0.163695,0.00878116,0.15606,0.0968575,-0.00516698,0.00829999,0.0257538,5,0.1,15,2.7,3.56169,0.76776,0.500001,-0.143367,0.866026,-1.00583e-05,0.0119656,-3.72529e-06,6.70552e-05,0.0110408,2.2593,5,0.1,16,2.7,-2.20004,-4.06982,0.530725,-0.437925,-0.00190586,0.00364436,0.26527,0.0013113,-0.00275299,0.00766082,0.140093,5,0.1,17,2.7,1.46458,-0.633321,0.500041,-0.128547,0.740251,-0.00013113,0.400551,-0.514574,7.45058e-05,0.0156132,0.324369,5,0.1,18,2.7,1.19455,1.44727,0.593648,-0.0820028,0.261759,0.00629891,-0.598498,-0.110254,-0.00658631,0.00834533,0.502778,5,0.1,19,2.7,3.58027,-2.34343,0.713707,-0.0324357,0.866026,0.00903374,0.000491738,0,-0.000100583,0.0162032,2.27118,5,0.1,20,2.7,1.20055,-0.127433,0.542552,-0.00731554,-0.627742,0.016066,0.210054,-0.388678,0.128131,0.0103354,2.84518,5,0.1,21,2.7,3.47782,-0.659894,0.500023,-0.0109676,0.866026,0.00014063,0.000521541,-3.72529e-06,-0.000216067,0.0306105,2.27214,5,0.1,22,2.7,0.514164,-1.61497,0.73897,0.561859,-0.184812,0.0110063,-0.0394432,0.186995,-0.0111423,0.00858409,0.380658,5,0.1,23,2.7,3.69282,-1.43449,0.616586,-0.0752851,0.866025,-0.0051422,0.00211596,1.49012e-05,0.00013411,0.0158592,2.2682,5,0.1,24,2.7,-4.3175,-1.26546,0.526358,-0.000277907,0.119708,-0.0152946,0.000625849,-0.267215,0.0341609,0.00708461,0.000940748,5,0.1,25,2.7,1.65296,0.798167,0.606889,-0.135957,0.403709,0.000260863,0.026159,-0.21226,-0.00391528,0.0084233,0.146762,5,0.1,26,2.7,-0.892007,-1.94209,0.608296,0.237511,0.865679,-0.00421517,0.224367,-0.0138357,-0.000186265,0.0196662,2.27614,5,0.1,27,2.7,1.35108,-2.28938,0.5,-0.225196,0.866026,-1.11759e-06,0.602596,0,3.72529e-05,0.0217849,2.13827,5,0.1,28,2.7,4.03565,0.869311,0.539071,-0.0168651,0.302373,0.000335742,0.00989437,-0.178713,-0.000182539,0.0103885,0.0244203,5,0.1,29,2.7,-1.9306,-1.37461,0.662096,0.307945,-0.130311,-0.00583129,-0.181831,0.0770018,0.00345334,0.00735619,0.0297857,5,0.1
0,2.8,-0.98753,-1.27347,0.614042,-0.0919104,-0.606227,-0.0199154,-0.546813,-0.223339,-0.0706911,0.00931993,0.8793,5,0.1,1,2.8,-0.302139,-0.181617,0.599444,-0.00551417,0.154349,0.00185668,0.0336021,0.635974,-0.00697374,0.0097914,0.228012,5,0.1,2,2.8,1.33418,-2.98553,0.599013,0.0120401,0.728333,0.000753999,-0.0112653,0.517726,-0.000715256,0.00932265,0.147624,5,0.1,3,2.8,-0.0934215,-0.201653,0.565743,-0.0365578,0.00185333,0.00427812,0.0574067,0.0137836,-0.0118911,0.0146296,0.965363,5,0.1,4,2.8,2.2212,4.11756,0.655656,0.125223,0.237143,0.0207186,-0.0987053,-0.18692,-0.0163317,0.010701,0.0134383,5,0.1,5,2.8,-1.30149,-1.3998,0.500536,-0.305319,-0.279894,-0.00623465,-0.0708699,0.172615,0.051409,0.0072296,0.199795,5,0.1,6,2.8,-0.119131,1.77626,0.601214,0.298773,0.361562,-0.00119358,0.401348,-0.159383,0.0013113,0.00998579,0.476644,5,0.1,7,2.8,-0.504385,-0.60713,0.756466,0.239694,0.439733,0.034529,-0.203028,0.0858903,-0.0788569,0.0229425,0.286845,5,0.1,8,2.8,3.20033,2.88611,0.60822,0.00137091,0.148195,-0.0106961,0.0706911,-0.154853,0.0112057,0.0115099,0.410904,5,0.1,9,2.8,-1.79398,2.42594,0.595024,-0.00706613,-0.167346,0.00585467,0.00441074,0.499368,-0.00360608,0.0105711,0.201936,5,0.1,10,2.8,-1.10237,2.14116,0.740802,0.138834,-0.371772,0.00906438,-0.181794,0.0480413,-0.0101924,0.00937713,0.118419,5,0.1,11,2.8,-1.52183,-1.7,0.601853,0.675139,-0.0822574,0.0291258,0.227511,-0.772238,0.00488758,0.00648596,0.905111,5,0.1,12,2.8,-1.69405,3.99312,0.590616,0.5954,0.106406,0.00600666,-0.517726,-0.0411272,-0.00730157,0.0195867,2.90828,5,0.1,13,2.8,-1.30195,3.90174,0.60981,0.440514,0.147402,-0.00973791,-0.28646,-0.161886,0.010699,0.0240117,0.130063,5,0.1,14,2.8,-3.27795,-4.20686,0.623232,-0.246966,-0.152993,0.00820905,0.194669,0.120878,-0.0064373,0.0077071,0.0156939,5,0.1,15,2.8,3.54743,0.854362,0.5,-0.141406,0.866026,-4.47035e-06,0.0332594,0,5.96046e-05,0.0121688,2.26012,5,0.1,16,2.8,-2.24261,-4.07001,0.531076,-0.413829,-0.00178814,0.00339895,0.238061,0.00143051,-0.00232458,0.00697879,0.081655,5,0.1,17,2.8,1.45363,-0.561992,0.500029,-0.0915498,0.684762,-0.000116229,0.338495,-0.60758,0.000208616,0.0146956,0.359928,5,0.1,18,2.8,1.18329,1.47288,0.594246,-0.142923,0.250044,0.00566095,-0.588417,-0.133157,-0.0063777,0.00957261,0.400252,5,0.1,19,2.8,3.57703,-2.25683,0.714609,-0.0322104,0.866026,0.00897348,0.00548363,0,-0.00151992,0.0148513,2.2712,5,0.1,20,2.8,1.20068,-0.191928,0.544796,0.00789165,-0.659157,0.0286102,0.0912547,-0.210047,0.116676,0.0142698,2.90311,5,0.1,21,2.8,3.47673,-0.573291,0.500035,-0.010848,0.866026,9.38773e-05,0.00202656,0,-0.000596046,0.0284908,2.27218,5,0.1,22,2.8,0.570038,-1.63253,0.740016,0.553909,-0.16652,0.00991821,-0.140727,0.183105,-0.0109375,0.00842717,0.270628,5,0.1,23,2.8,3.68531,-1.34789,0.616073,-0.0746608,0.866026,-0.00510067,0.0138283,-5.96046e-05,0.000953674,0.0141662,2.26832,5,0.1,24,2.8,-4.31752,-1.25478,0.524994,-0.000214577,0.0942409,-0.0120401,0.000476837,-0.241637,0.030905,0.00952034,0.000804757,5,0.1,25,2.8,1.63948,0.837559,0.606897,-0.133592,0.384445,-8.49366e-05,0.0286698,-0.193208,-0.00295043,0.00831966,0.0861607,5,0.1,26,2.8,-0.866988,-1.8557,0.607874,0.263512,0.860488,-0.00421405,0.26384,-0.110805,0.00038743,0.0158155,2.24506,5,0.1,27,2.8,1.33153,-2.20278,0.5,-0.166264,0.866026,1.49012e-06,0.567734,0,2.98023e-05,0.0251333,0.385015,5,0.1,28,2.8,4.03402,0.898597,0.539104,-0.0157595,0.282609,0.000314415,0.0121593,-0.222951,-0.000208616,0.0105946,0.0148798,5,0.1,29,2.8,-1.90077,-1.38723,0.661531,0.287831,-0.121796,-0.00544935,-0.226974,0.0960827,0.00429153,0.00904139,0.0115852,5,0.1
0,2.9,-0.999064,-1.33466,0.611688,-0.134967,-0.61192,-0.0271604,-0.318639,0.105284,-0.0707023,0.00931993,0.8793,5,0.1,1,2.9,-0.302535,-0.162902,0.599598,-0.00252659,0.220119,0.00125086,0.0261255,0.647291,-0.00520423,0.0097914,0.228012,5,0.1,2,2.9,1.33533,-2.91095,0.599085,0.0111092,0.755157,0.000694674,-0.00794232,0.0267625,-0.000502914,0.00932265,0.147624,5,0.1,3,2.9,-0.0971143,-0.201535,0.566122,-0.0400246,-0.000639795,0.00337977,-0.106588,-0.0555655,-0.00651926,0.0146296,0.965363,5,0.1,4,2.9,2.23325,4.14036,0.657648,0.115665,0.219043,0.0191372,-0.0958145,-0.181437,-0.0158474,0.010701,0.0134383,5,0.1,5,2.9,-1.33257,-1.42687,0.500129,-0.317384,-0.260824,-0.00228155,-0.143953,0.211067,0.028573,0.0072296,0.199795,5,0.1,6,2.9,-0.0872285,1.81186,0.6011,0.33881,0.352048,-0.00107558,0.374049,-0.0553057,0.00109151,0.00998579,0.476644,5,0.1,7,2.9,-0.481425,-0.562654,0.759526,0.219484,0.449902,0.0266884,-0.204952,0.0926405,-0.0769757,0.0229425,0.286845,5,0.1,8,2.9,3.20081,2.90017,0.607205,0.0076592,0.133064,-0.00960156,0.0370145,-0.149831,0.0108331,0.0115099,0.410904,5,0.1,9,2.9,-1.79467,2.41149,0.595594,-0.00671968,-0.124916,0.00557052,0.00289083,0.303864,-0.00238791,0.0105711,0.201936,5,0.1,10,2.9,-1.08925,2.10423,0.741661,0.12461,-0.366636,0.00814851,-0.111483,0.0680983,-0.00841171,0.00937713,0.118419,5,0.1,11,2.9,-1.45516,-1.71204,0.604975,0.640988,-0.157497,0.0348376,-0.819385,-0.708364,0.0962541,0.00648596,0.905111,5,0.1,12,2.9,-1.63683,4.00366,0.591172,0.55099,0.10512,0.00504991,-0.395283,0.00599027,-0.011351,0.0195867,2.90828,5,0.1,13,2.9,-1.25919,3.91573,0.608886,0.415513,0.132772,-0.00877166,-0.231028,-0.135198,0.00892952,0.0240117,0.130063,5,0.1,14,2.9,-3.3017,-4.22158,0.624021,-0.228114,-0.1413,0.00758506,0.188991,0.117093,-0.00626594,0.0077071,0.0156939,5,0.1,15,2.9,3.5334,0.940965,0.5,-0.139527,0.866026,4.65661e-07,0.0124276,-3.72529e-06,3.35276e-05,0.0121688,2.26012,5,0.1,16,2.9,-2.28295,-4.07018,0.531406,-0.394079,-0.00167042,0.00320775,0.175938,0.00101328,-0.00165775,0.00697879,0.081655,5,0.1,17,2.9,1.44579,-0.496219,0.500018,-0.0685636,0.633273,-9.22009e-05,0.138327,-0.452125,0.00026077,0.0146956,0.359928,5,0.1,18,2.9,1.16593,1.49729,0.594783,-0.204742,0.238575,0.00508819,-0.616364,-0.106588,-0.00526011,0.00957261,0.400252,5,0.1,19,2.9,3.57382,-2.17023,0.715502,-0.032017,0.866026,0.00892021,0.000342727,0,-8.9407e-05,0.0148513,2.2712,5,0.1,20,2.9,1.20194,-0.259358,0.548163,0.0165876,-0.692495,0.0379629,0.0452399,-0.394707,0.070557,0.0142698,2.90311,5,0.1,21,2.9,3.47565,-0.486689,0.500042,-0.0107568,0.866026,3.51109e-05,0.000432134,-3.57628e-06,-0.000569969,0.0284908,2.27218,5,0.1,22,2.9,0.624827,-1.64833,0.740957,0.542254,-0.149974,0.00893045,-0.11659,0.152878,-0.00911951,0.00842717,0.270628,5,0.1,23,2.9,3.67788,-1.26129,0.615565,-0.0740912,0.866025,-0.00506118,0.00207126,1.49012e-05,0.000149012,0.0141662,2.26832,5,0.1,24,2.9,-4.31754,-1.24652,0.523939,-0.000167638,0.0714868,-0.00913031,0.000447035,-0.212699,0.0271946,0.00952034,0.000804757,5,0.1,25,2.9,1.62623,0.875171,0.606875,-0.13162,0.368662,-0.000346079,0.0175312,-0.140499,-0.00225008,0.00831966,0.0861607,5,0.1,26,2.9,-0.839526,-1.76977,0.607453,0.283496,0.861064,-0.00420241,0.130437,0.0692308,7.07805e-05,0.0158155,2.24506,5,0.1,27,2.9,1.3176,-2.1164,0.5,-0.11382,0.858662,2.8871e-06,0.479393,-0.167489,3.72529e-06,0.0251333,0.385015,5,0.1,28,2.9,4.0325,0.925773,0.539134,-0.0145741,0.261024,0.000293367,0.0119507,-0.216354,-0.000216067,0.0105946,0.0148798,5,0.1,29,2.9,-1.87313,-1.39893,0.661008,0.264845,-0.112067,-0.00501499,-0.237264,0.100411,0.00448525,0.00904139,0.0115852,5,0.1
0,3,-1.01381,-1.39481,0.608642,-0.156572,-0.58623,-0.0334561,-0.118434,0.401974,-0.0527203,0.00892124,0.699071,5,0.1,1,3,-0.302669,-0.137852,0.5997,-0.000289083,0.278312,0.000804663,0.018701,0.493739,-0.00372529,0.00913331,0.066565,5,0.1,2,3,1.3364,-2.83605,0.599152,0.0103503,0.735551,0.00064671,-0.00756979,-0.408411,-0.000506639,0.0140037,0.30347,5,0.1,3,3,-0.101784,-0.201936,0.566433,-0.0542959,-0.00781901,0.0028953,-0.16319,-0.0817031,-0.00354648,0.0134377,0.874804,5,0.1,4,3,2.24432,4.16133,0.65948,0.105518,0.199819,0.0174582,-0.109196,-0.20647,-0.0180602,0.00815946,0.00430276,5,0.1,5,3,-1.36497,-1.45181,0.500013,-0.329563,-0.237364,-0.000323355,-0.0805259,0.259101,0.0116825,0.00592389,0.21776,5,0.1,6,3,-0.0516925,1.84679,0.600998,0.369302,0.346291,-0.000970066,0.218328,-0.0776649,0.00107288,0.010073,0.485425,5,0.1,7,3,-0.460529,-0.517356,0.76182,0.198092,0.454058,0.0193059,-0.225216,-0.0266731,-0.0698864,0.0210714,0.202698,5,0.1,8,3,3.2016,2.91272,0.6063,0.00631809,0.117898,-0.00850707,-0.0702143,-0.154853,0.0112057,0.0105912,0.380369,5,0.1,9,3,-1.79533,2.4,0.596139,-0.00641942,-0.109959,0.00532269,0.00333786,0.00691414,-0.00277162,0.0104559,0.141082,5,0.1,10,3,-1.07729,2.06803,0.742435,0.114998,-0.355923,0.00733435,-0.0874996,0.154972,-0.00810623,0.00961807,0.138297,5,0.1,11,3,-1.39626,-1.73106,0.609002,0.527802,-0.219846,0.0460654,-1.37007,-0.521898,0.118315,0.00869593,0.306196,5,0.1,12,3,-1.58367,4.01422,0.591617,0.512081,0.105953,0.00382364,-0.400782,0.0038147,-0.0127852,0.0168156,3.02708,5,0.1,13,3,-1.21882,3.92835,0.608053,0.391337,0.119597,-0.00790209,-0.264883,-0.131488,0.00867248,0.00603997,0.212686,5,0.1,14,3,-3.32353,-4.2351,0.624747,-0.208092,-0.128901,0.00692159,0.215173,0.133514,-0.00715256,0.00880131,0.00502609,5,0.1,15,3,3.51953,1.02757,0.5,-0.137538,0.866026,1.49012e-06,0.0332594,0,2.98023e-05,0.012167,2.21955,5,0.1,16,3,-2.32146,-4.07034,0.531719,-0.375402,-0.00157356,0.00303984,0.211,0.00119209,-0.00184774,0.0069071,0.0636147,5,0.1,17,3,1.43941,-0.435096,0.50001,-0.0608087,0.589184,-6.4075e-05,0.0303388,-0.451237,0.000238419,0.00775271,0.723083,5,0.1,18,3,1.14254,1.52059,0.595266,-0.26077,0.226963,0.00458062,-0.481546,-0.132918,-0.0050962,0.00970868,0.30257,5,0.1,19,3,3.57063,-2.08362,0.716393,-0.0317991,0.866026,0.00886023,0.00536442,0,-0.00149012,0.0145166,2.27122,5,0.1,20,3,1.20353,-0.330468,0.552237,0.0117987,-0.727414,0.0427917,-0.155032,-0.258863,0.0265241,0.00889955,2.76271,5,0.1,21,3,3.47458,-0.400086,0.500042,-0.0106514,0.866025,-1.63913e-05,0.00202656,1.43051e-05,-0.000476837,0.0268063,2.27222,5,0.1,22,3,0.678347,-1.66258,0.741805,0.526498,-0.135079,0.00804216,-0.215203,0.148535,-0.00885129,0.00814325,0.187746,5,0.1,23,3,3.6705,-1.17468,0.615061,-0.0734806,0.866026,-0.00501871,0.0135899,0,0.000923872,0.015587,2.26844,5,0.1,24,3,-4.31755,-1.24038,0.523155,-0.00013113,0.0518173,-0.00661612,0.000715256,-0.180244,0.0230074,0.00727476,0.000613985,5,0.1,25,3,1.61318,0.911301,0.60683,-0.128937,0.353271,-0.000530481,0.0408888,-0.180036,-0.00146031,0.00787004,0.0670851,5,0.1,26,3,-0.81078,-1.68335,0.607035,0.288814,0.866026,-0.0041604,-0.0264943,0,0.000864267,0.00831693,1.24805,5,0.1,27,3,1.30846,-2.03178,0.500001,-0.0706434,0.829321,2.98023e-06,0.383377,-0.43112,-2.98023e-05,0.0225362,1.38635,5,0.1,28,3,4.03111,0.950756,0.539162,-0.0133038,0.238116,0.000269711,0.0138283,-0.246465,-0.000268221,0.0108518,0.0047648,5,0.1,29,3,-1.84788,-1.40961,0.66053,0.239661,-0.101408,-0.00453889,-0.269115,0.113845,0.00506639,0.0086048,0.0060609,5,0.1
0,3.1,-1.02977,-1.45147,0.605022,-0.160097,-0.546942,-0.0389541,0.0398755,0.397593,-0.0536218,0.00892124,0.699071,5,0.1,1,3.1,-0.302613,-0.107846,0.599764,0.001329,0.318645,0.000494719,0.0136234,0.304609,-0.0025332,0.00913331,0.066565,5,0.1,2,3.1,1.33741,-2.7644,0.599214,0.00971518,0.698242,0.000604335,-0.00558794,-0.363529,-0.000368804,0.0140037,0.30347,5,0.1,3,3.1,-0.108363,-0.202958,0.566646,-0.0799135,-0.011143,0.000870973,-0.320946,0.00741519,-0.033237,0.0134377,0.874804,5,0.1,4,3.1,2.25432,4.18028,0.661135,0.0945613,0.179095,0.0156459,-0.111073,-0.210136,-0.0183769,0.00815946,0.00430276,5,0.1,5,3.1,-1.39824,-1.47427,0.500023,-0.334659,-0.211716,0.000372436,-0.011161,0.256076,0.00299141,0.00592389,0.21776,5,0.1,6,3.1,-0.0135364,1.88116,0.600906,0.394393,0.341758,-0.000873767,0.253613,-0.0322908,0.000879169,0.010073,0.485425,5,0.1,7,3.1,-0.44183,-0.472046,0.763416,0.175973,0.452004,0.0127835,-0.219153,-0.0340864,-0.0601634,0.0210714,0.202698,5,0.1,8,3.1,3.20176,2.92377,0.605503,-0.00515841,0.103276,-0.00744956,-0.187621,-0.13952,0.0100844,0.0105912,0.380369,5,0.1,9,3.1,-1.79595,2.38852,0.596658,-0.00609923,-0.123811,0.00505596,0.0032708,-0.24578,-0.00273436,0.0104559,0.141082,5,0.1,10,3.1,-1.06605,2.03298,0.743134,0.111369,-0.346787,0.00671409,0.00138581,0.0521392,-0.00477582,0.00961807,0.138297,5,0.1,11,3.1,-1.35033,-1.75569,0.614356,0.391445,-0.272356,0.0621657,-1.33648,-0.501245,0.188325,0.00869593,0.306196,5,0.1,12,3.1,-1.53421,4.02495,0.591933,0.479132,0.10966,0.00249064,-0.282757,0.0583827,-0.0135042,0.0168156,3.02708,5,0.1,13,3.1,-1.18081,3.93932,0.607354,0.37017,0.0970118,-0.00565564,-0.178568,-0.299931,0.0332259,0.00603997,0.212686,5,0.1,14,3.1,-3.34326,-4.24732,0.625404,-0.186497,-0.115514,0.00620382,0.218987,0.13566,-0.00728294,0.00880131,0.00502609,5,0.1,15,3.1,3.5059,1.11417,0.5,-0.135542,0.866026,2.8871e-06,0.0143349,0,3.72529e-06,0.012167,2.21955,5,0.1,16,3.1,-2.35811,-4.07049,0.532015,-0.358654,-0.00148043,0.00289604,0.143617,0.000745058,-0.00119209,0.0069071,0.0636147,5,0.1,17,3.1,1.4344,-0.379547,0.500005,-0.0315942,0.512218,-4.08851e-05,0.496954,-1.02728,0.000219792,0.00775271,0.723083,5,0.1,18,3.1,1.11407,1.54267,0.595701,-0.307944,0.215087,0.00412464,-0.437573,-0.11304,-0.00417233,0.00970868,0.30257,5,0.1,19,3.1,3.56746,-1.99702,0.717275,-0.0316098,0.866026,0.00880798,0.000357628,0,-9.31323e-05,0.0145166,2.27122,5,0.1,20,3.1,1.20372,-0.404774,0.556612,-0.0118377,-0.760022,0.044323,-0.38176,-0.339314,0.00393763,0.00889955,2.76271,5,0.1,21,3.1,3.47352,-0.313484,0.500039,-0.0105564,0.866025,-5.31785e-05,0.000521541,-1.78814e-06,-0.000264496,0.0268063,2.27222,5,0.1,22,3.1,0.730004,-1.6754,0.742568,0.506959,-0.121703,0.0072456,-0.195276,0.12318,-0.0073351,0.00814325,0.187746,5,0.1,23,3.1,3.66319,-1.08808,0.614561,-0.0729162,0.866026,-0.00498071,0.00213087,0,0.000141561,0.015587,2.26844,5,0.1,24,3.1,-4.31756,-1.23605,0.522602,-7.00355e-05,0.0352811,-0.00450509,0.000536442,-0.15007,0.0191592,0.00727476,0.000613985,5,0.1,25,3.1,1.60045,0.945874,0.60677,-0.125997,0.339168,-0.00065593,0.0249296,-0.120714,-0.00102445,0.00787004,0.0670851,5,0.1,26,3.1,-0.782016,-1.59913,0.606626,0.286299,0.797593,-0.00398895,-0.0355728,-1.25245,0.00252202,0.00831693,1.24805,5,0.1,27,3.1,1.30317,-1.95026,0.500001,-0.036807,0.806831,4.65661e-07,0.288084,-0.085637,-1.86265e-05,0.0225362,1.38635,5,0.1,28,3.1,4.02984,0.973334,0.539188,-0.0119135,0.213389,0.00024233,0.0140667,-0.250679,-0.000283122,0.0108518,0.0047648,5,0.1,29,3.1,-1.82524,-1.41919,0.660101,0.213328,-0.0902681,-0.00404269,-0.261009,0.110425,0.00492483,0.0086048,0.0060609,5,0.1
0,3.2,-1.04538,-1.50409,0.600882,-0.150126,-0.504425,-0.043565,0.152349,0.461817,-0.0360608,0.00948874,0.580843,5,0.1,1,3.2,-0.30242,-0.0748247,0.599802,0.00243261,0.338011,0.000289083,0.00846386,0.0788069,-0.00160933,0.00985534,0.0809107,5,0.1,2,3.2,1.33835,-2.69649,0.599273,0.00915527,0.658506,0.000567734,-0.00607967,-0.448942,-0.00038743,0.0127072,1.63596,5,0.1,3,3.2,-0.118028,-0.203942,0.566543,-0.11353,-0.00774525,-0.00309348,-0.330038,0.0542477,-0.0431538,0.0135717,1.24967,5,0.1,4,3.2,2.26321,4.19712,0.662606,0.0831306,0.157464,0.0137553,-0.118017,-0.223637,-0.0195205,0.00833461,0.00129037,5,0.1,5,3.2,-1.43158,-1.49415,0.500066,-0.33015,-0.1858,0.000411272,0.107586,0.263512,-0.00160933,0.00610796,0.272633,5,0.1,6,3.2,0.0270284,1.91512,0.600823,0.414928,0.336537,-0.000788271,0.135989,-0.0857115,0.000864267,0.0096007,0.353824,5,0.1,7,3.2,-0.425332,-0.427159,0.764412,0.153942,0.443939,0.00733882,-0.222623,-0.140548,-0.0485182,0.0215108,0.14838,5,0.1,8,3.2,3.2,2.93341,0.604807,-0.0328004,0.0896811,-0.0064671,-0.352979,-0.133872,0.00965595,0.0140497,0.339311,5,0.1,9,3.2,-1.79654,2.37475,0.597149,-0.00573099,-0.152415,0.004749,0.00417233,-0.297546,-0.00354648,0.0130097,0.178785,5,0.1,10,3.2,-1.05485,1.99855,0.743784,0.112903,-0.34129,0.00629723,0.0192523,0.0754595,-0.00393391,0.0107396,0.0875845,5,0.1,11,3.2,-1.31767,-1.78522,0.621526,0.264093,-0.315499,0.0810474,-1.19537,-0.342846,0.17789,0.00752273,0.214479,5,0.1,12,3.2,-1.48768,4.03622,0.592116,0.451306,0.115538,0.00118762,-0.291526,0.0505447,-0.0122488,0.0154724,3.05932,5,0.1,13,3.2,-1.14468,3.94738,0.606975,0.352174,0.0632405,-0.00179708,-0.195801,-0.359535,0.0415742,0.00729639,0.269399,5,0.1,14,3.2,-3.3608,-4.25818,0.625987,-0.163954,-0.101554,0.00545382,0.232697,0.144005,-0.0077486,0.00819154,0.00150714,5,0.1,15,3.2,3.49243,1.20077,0.500001,-0.133359,0.866026,2.98023e-06,0.0349283,0,-2.98023e-05,0.0107672,1.76057,5,0.1,16,3.2,-2.39323,-4.07064,0.532299,-0.343329,-0.00140667,0.00277162,0.176787,0.000715256,-0.00140071,0.00752939,0.0289569,5,0.1,17,3.2,1.43411,-0.333997,0.500002,0.0284404,0.39469,-2.08616e-05,0.659406,-1.27448,0.000149012,0.0142402,0.547814,5,0.1,18,3.2,1.08132,1.56359,0.596093,-0.344181,0.202921,0.00372082,-0.270426,-0.136018,-0.00402331,0.00799269,0.21692,5,0.1,19,3.2,3.56431,-1.91042,0.718154,-0.0313997,0.866026,0.00874698,0.00548363,0,-0.00143051,0.0148522,2.27124,5,0.1,20,3.2,1.2,-0.482243,0.561026,-0.0685453,-0.786059,0.0435725,-0.72825,-0.14323,-0.0188053,0.0110753,2.54663,5,0.1,21,3.2,3.47247,-0.226881,0.500032,-0.0104487,0.866025,-7.15256e-05,0.00226498,0,-0.000119209,0.0299303,2.27227,5,0.1,22,3.2,0.779625,-1.68697,0.743257,0.484127,-0.109723,0.00653267,-0.274837,0.119448,-0.00709295,0.0073926,0.128023,5,0.1,23,3.2,3.65592,-1.00148,0.614065,-0.0722945,0.866024,-0.00493824,0.0133514,2.98023e-05,0.000923872,0.0169097,2.26856,5,0.1,24,3.2,-4.31757,-1.23322,0.52224,-2.38419e-05,0.021854,-0.00279099,0.000238419,-0.118315,0.0151098,0.00839873,0.000360477,5,0.1,25,3.2,1.58799,0.97916,0.6067,-0.122759,0.325949,-0.000731647,0.0447035,-0.15673,-0.000476837,0.00829777,0.0305651,5,0.1,26,3.2,-0.753658,-1.52691,0.606242,0.279734,0.636563,-0.0036642,-0.103593,-1.87403,0.00393391,0.0169645,2.96993,5,0.1,27,3.2,1.30074,-1.86989,0.500001,-0.0136346,0.800565,0,0.174701,-0.0890493,-2.98023e-05,0.0236982,2.80323,5,0.1,28,3.2,4.02872,0.993397,0.539211,-0.0104547,0.187595,0.000213087,0.014782,-0.266403,-0.000298023,0.0118737,0.00142914,5,0.1,29,3.2,-1.80522,-1.42767,0.659721,0.186923,-0.0790983,-0.00354499,-0.269055,0.113845,0.0050962,0.00864953,0.00187091,5,0.1
