id,t,px,py,pz,vx,vy,vz,ax,ay,az,planning_time,qp_cost,planning_report,size,id,t,px,py,pz,vx,vy,vz,ax,ay,az,planning_time,qp_cost,planning_report,size,id,t,px,py,pz,vx,vy,vz,ax,ay,az,planning_time,qp_cost,planning_report,size,id,t,px,py,pz,vx,vy,vz,ax,ay,az,planning_time,qp_cost,planning_report,size,id,t,px,py,pz,vx,vy,vz,ax,ay,az,planning_time,qp_cost,planning_report,size,id,t,px,py,pz,vx,vy,vz,ax,ay,az,planning_time,qp_cost,planning_report,size,id,t,px,py,pz,vx,vy,vz,ax,ay,az,planning_time,qp_cost,planning_report,size,id,t,px,py,pz,vx,vy,vz,ax,ay,az,planning_time,qp_cost,planning_report,size,id,t,px,py,pz,vx,vy,vz,ax,ay,az,planning_time,qp_cost,planning_report,size,id,t,px,py,pz,vx,vy,vz,ax,ay,az,planning_time,qp_cost,planning_report,size,id,t,px,py,pz,vx,vy,vz,ax,ay,az,planning_time,qp_cost,planning_report,size,id,t,px,py,pz,vx,vy,vz,ax,ay,az,planning_time,qp_cost,planning_report,size,id,t,px,py,pz,vx,vy,vz,ax,ay,az,planning_time,qp_cost,planning_report,size,id,t,px,py,pz,vx,vy,vz,ax,ay,az,planning_time,qp_cost,planning_report,size,id,t,px,py,pz,vx,vy,vz,ax,ay,az,planning_time,qp_cost,planning_report,size,id,t,px,py,pz,vx,vy,vz,ax,ay,az,planning_time,qp_cost,planning_report,size,id,t,px,py,pz,vx,vy,vz,ax,ay,az,planning_time,qp_cost,planning_report,size,id,t,px,py,pz,vx,vy,vz,ax,ay,az,planning_time,qp_cost,planning_report,size,id,t,px,py,pz,vx,vy,vz,ax,ay,az,planning_time,qp_cost,planning_report,size,id,t,px,py,pz,vx,vy,vz,ax,ay,az,planning_time,qp_cost,planning_report,size,id,t,px,py,pz,vx,vy,vz,ax,ay,az,planning_time,qp_cost,planning_report,size,id,t,px,py,pz,vx,vy,vz,ax,ay,az,planning_time,qp_cost,planning_report,size,id,t,px,py,pz,vx,vy,vz,ax,ay,az,planning_time,qp_cost,planning_report,size,id,t,px,py,pz,vx,vy,vz,ax,ay,az,planning_time,qp_cost,planning_report,size,id,t,px,py,pz,vx,vy,vz,ax,ay,az,planning_time,qp_cost,planning_report,size,id,t,px,py,pz,vx,vy,vz,ax,ay,az,planning_time,qp_cost,planning_report,size,id,t,px,py,pz,vx,vy,vz,ax,ay,az,planning_time,qp_cost,planning_report,size,id,t,px,py,pz,vx,vy,vz,ax,ay,az,planning_time,qp_cost,planning_report,size,id,t,px,py,pz,vx,vy,vz,ax,ay,az,planning_time,qp_cost,planning_report,size,id,t,px,py,pz,vx,vy,vz,ax,ay,az,planning_time,qp_cost,planning_report,size
0,0,2.15119,-0.0977435,0.532875,0,0,0,0,0,0,0.0139063,3.5122,5,0.1,1,0,-1.32437,-1.97757,0.609063,0,0,0,0,0,0,0.012144,3.51219,5,0.1,2,0,-1.44075,-0.805454,0.602361,0,0,0,0,0,0,0.0101385,3.51219,5,0.1,3,0,-3.87053,3.35604,0.584129,0,0,0,0,0,0,0.015209,3.51219,5,0.1,4,0,4.03756,2.24507,0.617431,0,0,0,0,0,0,0.0158753,1.44593,5,0.1,5,0,3.61424,-4.29427,0.54522,0,0,0,0,0,0,0.0233015,3.5122,5,0.1,6,0,1.46408,-1.5874,0.653053,0,0,0,0,0,0,0.00723939,2.29346,5,0.1,7,0,4.35345,-1.22668,0.659624,0,0,0,0,0,0,0.0158791,3.51219,5,0.1,8,0,-3.5462,0.412307,0.631139,0,0,0,0,0,0,0.0136024,0.584187,5,0.1,9,0,0.406778,3.16008,0.634652,0,0,0,0,0,0,0.0161418,3.5122,5,0.1,10,0,-1.9717,-4.00726,0.529364,0,0,0,0,0,0,0.00981029,0.986098,5,0.1,11,0,-1.31088,1.04144,0.587855,0,0,0,0,0,0,0.0314595,1.59258,5,0.1,12,0,-0.402636,-3.91587,0.516323,0,0,0,0,0,0,0.0313739,3.5122,5,0.1,13,0,2.10276,2.73671,0.593456,0,0,0,0,0,0,0.0135474,0.815168,5,0.1,14,0,-0.0229583,2.15534,0.555758,0,0,0,0,0,0,0.0154533,1.88443,5,0.1,15,0,2.36333,3.32262,0.587421,0,0,0,0,0,0,0.010922,2.62777,5,0.1,16,0,1.48122,-0.787752,0.688094,0,0,0,0,0,0,0.0138279,3.5122,5,0.1,17,0,4.35065,-3.63105,0.568079,0,0,0,0,0,0,0.0156517,3.51219,5,0.1,18,0,0.42749,-0.639157,0.639474,0,0,0,0,0,0,0.0126727,0.65382,5,0.1,19,0,-1.24612,-3.13453,0.569311,0,0,0,0,0,0,0.00905301,3.51219,5,0.1,20,0,-1.37357,2.1634,0.686673,0,0,0,0,0,0,0.00800333,0.431877,5,0.1,21,0,-4.07736,-0.379434,0.581307,0,0,0,0,0,0,0.0131007,3.5122,5,0.1,22,0,-2.66347,2.8277,0.564288,0,0,0,0,0,0,0.0186558,3.5122,5,0.1,23,0,4.13568,0.949834,0.609701,0,0,0,0,0,0,0.027039,3.5122,5,0.1,24,0,-1.55096,4.07872,0.648721,0,0,0,0,0,0,0.0243136,3.51219,5,0.1,25,0,-1.23605,2.80325,0.692508,0,0,0,0,0,0,0.0265168,3.51219,5,0.1,26,0,4.19511,3.15116,0.652459,0,0,0,0,0,0,0.042537,2.39881,5,0.1,27,0,-2.92785,3.52586,0.54875,0,0,0,0,0,0,0.0179451,3.51219,5,0.1,28,0,-3.7527,2.65197,0.650909,0,0,0,0,0,0,0.0273111,3.5122,5,0.1,29,0,0.779892,-1.30112,0.592535,0,0,0,0,0,0,0.00928477,3.20492,5,0.1
0,0.1,2.14948,-0.0989341,0.532922,-0.0486679,-0.0337983,0.00133282,-0.865221,-0.60086,0.0236966,0.0139063,3.5122,5,0.1,1,0.1,-1.32263,-1.97642,0.609057,0.0493621,0.0328036,-0.000177324,0.877552,0.583179,-0.0031516,0.012144,3.51219,5,0.1,2,0.1,-1.44262,-0.80638,0.602359,-0.0531174,-0.0262921,-6.23055e-05,-0.944316,-0.467416,-0.00111386,0.0101385,3.51219,5,0.1,3,0.1,-3.8685,3.35652,0.58414,0.0577137,0.0134829,0.000308268,1.02603,0.239685,0.00548363,0.015209,3.51219,5,0.1,4,0.1,4.03647,2.24586,0.617413,-0.0307478,0.0223715,-0.000516511,-0.546604,0.397727,-0.00918657,0.0158753,1.44593,5,0.1,5,0.1,3.61419,-4.29219,0.545237,-0.00145324,0.0592485,0.000485033,-0.0258237,1.05327,0.00862032,0.0233015,3.5122,5,0.1,6,0.1,1.4624,-1.58746,0.652998,-0.0478322,-0.00185501,-0.00157198,-0.850342,-0.0329837,-0.0279509,0.00723939,2.29346,5,0.1,7,0.1,4.35294,-1.22466,0.659596,-0.0143319,0.0575036,-0.000811089,-0.25475,1.02228,-0.0144206,0.0158791,3.51219,5,0.1,8,0.1,-3.54578,0.411563,0.631106,0.0117406,-0.0211087,-0.000922848,0.208735,-0.375265,-0.0164025,0.0136024,0.584187,5,0.1,9,0.1,0.408862,3.15996,0.634627,0.0591735,-0.00327379,-0.000708643,1.05198,-0.0582039,-0.0126027,0.0161418,3.5122,5,0.1,10,0.1,-1.97137,-4.00621,0.529438,0.00953376,0.02985,0.00209324,0.169486,0.53066,0.0372157,0.00981029,0.986098,5,0.1,11,0.1,-1.30952,1.04176,0.587868,0.0388468,0.00914391,0.000359956,0.690617,0.162564,0.00639632,0.0314595,1.59258,5,0.1,12,0.1,-0.402581,-3.91379,0.516287,0.0015527,0.0592392,-0.00100322,0.0276044,1.05314,-0.0178367,0.0313739,3.5122,5,0.1,13,0.1,2.10181,2.73636,0.593463,-0.0267524,-0.00997856,0.000193901,-0.4756,-0.177383,0.00344962,0.0135474,0.815168,5,0.1,14,0.1,-0.0216816,2.1545,0.555804,0.0362413,-0.0238657,0.00131102,0.64429,-0.424296,0.0233091,0.0154533,1.88443,5,0.1,15,0.1,2.36181,3.32166,0.587435,-0.0433646,-0.0273407,0.000372808,-0.770926,-0.486076,0.00662729,0.010922,2.62777,5,0.1,16,0.1,1.48098,-0.785678,0.688147,-0.00679009,0.058859,0.00149477,-0.120714,1.04638,0.0265688,0.0138279,3.5122,5,0.1,17,0.1,4.35032,-3.62899,0.568089,-0.00927374,0.058537,0.000281818,-0.164896,1.04067,0.00500679,0.0156517,3.51219,5,0.1,18,0.1,0.427514,-0.638647,0.640216,0.000667013,0.0144958,0.0210559,0.0118576,0.257697,0.374325,0.0126727,0.65382,5,0.1,19,0.1,-1.24556,-3.13252,0.569362,0.0157472,0.0571195,0.00144048,0.279948,1.01547,0.0256039,0.00905301,3.51219,5,0.1,20,0.1,-1.37308,2.16286,0.686739,0.0140343,-0.0152145,0.00187671,0.24949,-0.270471,0.03336,0.00800333,0.431877,5,0.1,21,0.1,-4.07638,-0.37759,0.581324,0.0277892,0.0523474,0.000482239,0.494003,0.930619,0.00857562,0.0131007,3.5122,5,0.1,22,0.1,-2.66176,2.82889,0.564322,0.0487041,0.0337578,0.000986271,0.865862,0.600159,0.0175312,0.0186558,3.5122,5,0.1,23,0.1,4.13478,0.951715,0.609692,-0.0256799,0.0534149,-0.000252947,-0.456542,0.949599,-0.0044927,0.027039,3.5122,5,0.1,24,0.1,-1.55103,4.07664,0.648687,-0.00193696,-0.0592291,-0.00095265,-0.0344291,-1.05298,-0.0169389,0.0243136,3.51219,5,0.1,25,0.1,-1.23554,2.80123,0.692539,0.0145225,-0.0574548,0.000892021,0.25817,-1.0214,0.0158548,0.0265168,3.51219,5,0.1,26,0.1,4.19339,3.151,0.652404,-0.0487514,-0.00447966,-0.00155456,-0.866681,-0.0796169,-0.0276342,0.042537,2.39881,5,0.1,27,0.1,-2.92583,3.52639,0.548801,0.057365,0.0148267,0.00144998,1.01984,0.263602,0.0257753,0.0179451,3.51219,5,0.1,28,0.1,-3.75064,2.65166,0.65087,0.0586133,-0.00871792,-0.00110399,1.04199,-0.154972,-0.0196248,0.0273111,3.5122,5,0.1,29,0.1,0.780896,-1.2994,0.59261,0.0284983,0.0488736,0.00214959,0.506632,0.868872,0.0382178,0.00928477,3.20492,5,0.1
0,0.2,2.13959,-0.105799,0.533193,-0.153816,-0.10682,0.00421107,-1.15371,-0.801142,0.0316203,0.0151491,2.92582,5,0.1,1,0.2,-1.3126,-1.96975,0.609021,0.156009,0.103676,-0.000560284,1.1701,0.777543,-0.00417233,0.0144033,2.92579,5,0.1,2,0.2,-1.45341,-0.811721,0.602346,-0.167876,-0.0830963,-0.000196695,-1.25909,-0.623226,-0.00149012,0.0112601,2.92579,5,0.1,3,0.2,-3.85677,3.35926,0.584203,0.182402,0.0426114,0.000974536,1.36805,0.3196,0.00730157,0.0154388,2.92579,5,0.1,4,0.2,4.03023,2.2504,0.617308,-0.0971794,0.070703,-0.00163168,-0.728846,0.530362,-0.0122786,0.0176347,1.18631,5,0.1,5,0.2,3.61389,-4.28015,0.545335,-0.00459552,0.187254,0.00153184,-0.0344515,1.40452,0.0115037,0.0277731,2.92578,5,0.1,6,0.2,1.45268,-1.58784,0.652678,-0.151172,-0.0058651,-0.00496954,-1.1338,-0.0439286,-0.0372529,0.00873829,1.88167,5,0.1,7,0.2,4.35003,-1.21298,0.659431,-0.0452995,0.181741,-0.002563,-0.339508,1.36304,-0.0192523,0.0164698,2.9258,5,0.1,8,0.2,-3.5434,0.407275,0.630919,0.0371039,-0.066714,-0.00291616,0.278473,-0.500336,-0.0218749,0.0147203,0.479293,5,0.1,9,0.2,0.420882,3.1593,0.634483,0.187018,-0.0103474,-0.00223964,1.40263,-0.0776052,-0.0168085,0.0125046,2.92579,5,0.1,10,0.2,-1.96943,-4.00015,0.529863,0.0301272,0.0943363,0.00661463,0.22608,0.707507,0.0496507,0.0101797,0.809046,5,0.1,11,0.2,-1.30162,1.04362,0.587941,0.122774,0.0288993,0.00113845,0.920892,0.216722,0.00849366,0.0312733,1.30663,5,0.1,12,0.2,-0.402265,-3.90175,0.516084,0.00490695,0.18723,-0.00317097,0.0368208,1.40405,-0.0237823,0.0320697,2.92581,5,0.1,13,0.2,2.09638,2.73433,0.593502,-0.0845492,-0.0315368,0.000612438,-0.634193,-0.236511,0.00458956,0.0160536,0.668802,5,0.1,14,0.2,-0.01432,2.14965,0.556071,0.11454,-0.0754297,0.00414401,0.859054,-0.565529,0.031054,0.0101296,1.54608,5,0.1,15,0.2,2.353,3.31611,0.58751,-0.137055,-0.0864089,0.00117719,-1.02782,-0.648141,0.00885129,0.0122446,2.15596,5,0.1,16,0.2,1.4796,-0.773722,0.68845,-0.0214607,0.186025,0.00472367,-0.160933,1.39517,0.035435,0.0151433,2.92579,5,0.1,17,0.2,4.34844,-3.6171,0.568147,-0.0293136,0.185007,0.000891089,-0.219822,1.38748,0.00664592,0.0159435,2.9258,5,0.1,18,0.2,0.427649,-0.635702,0.644493,0.00210851,0.0458136,0.0665471,0.0157952,0.343621,0.499099,0.0134307,0.536426,5,0.1,19,0.2,-1.24236,-3.12092,0.569655,0.0497699,0.180531,0.00455081,0.373304,1.35386,0.0341833,0.00857008,2.9258,5,0.1,20,0.2,-1.37023,2.15977,0.68712,0.0443548,-0.0480831,0.00593066,0.332654,-0.360727,0.0444949,0.00962771,0.354331,5,0.1,21,0.2,-4.07074,-0.366956,0.581422,0.0878334,0.165443,0.00152439,0.658512,1.24083,0.0114143,0.0146747,2.9258,5,0.1,22,0.2,-2.65186,2.83575,0.564523,0.153935,0.106692,0.00311732,1.15442,0.800252,0.0233948,0.01049,2.92579,5,0.1,23,0.2,4.12956,0.962566,0.60964,-0.0811696,0.168818,-0.000798702,-0.608444,1.26612,-0.00599027,0.019288,2.92581,5,0.1,24,0.2,-1.55143,4.06461,0.648494,-0.0061214,-0.187194,-0.00301152,-0.0458956,-1.40405,-0.0225604,0.018121,2.92578,5,0.1,25,0.2,-1.23259,2.78956,0.692721,0.0458986,-0.181586,0.0028193,0.344217,-1.36185,0.0211298,0.0175376,2.9321,5,0.1,26,0.2,4.18349,3.15009,0.652089,-0.154078,-0.0141561,-0.00491291,-1.15561,-0.106215,-0.0368655,0.0296675,1.9681,5,0.1,27,0.2,-2.91418,3.5294,0.549096,0.181299,0.0468612,0.00458211,1.35994,0.351429,0.0343621,0.0180042,2.92578,5,0.1,28,0.2,-3.73873,2.64989,0.650646,0.185251,-0.0275493,-0.00348985,1.38927,-0.206709,-0.0261664,0.0266012,2.9258,5,0.1,29,0.2,0.786685,-1.28948,0.593047,0.0900671,0.154465,0.00679493,0.675529,1.15848,0.0509322,0.0112423,2.62948,5,0.1
0,0.3,2.11781,-0.120928,0.533789,-0.286082,-0.198699,0.0078138,-1.41038,-0.97997,0.0382587,0.0151491,2.92582,5,0.1,1,0.3,-1.29049,-1.95506,0.608941,0.29058,0.193102,-0.00104131,1.438,0.955604,-0.00514463,0.0144033,2.92579,5,0.1,2,0.3,-1.4772,-0.823497,0.602318,-0.312683,-0.154773,-0.000367593,-1.54738,-0.765931,-0.00182167,0.0112601,2.92579,5,0.1,3,0.3,-3.83093,3.3653,0.584341,0.339739,0.0793681,0.00181459,1.6813,0.392765,0.00897795,0.0154388,2.92579,5,0.1,4,0.3,4.01647,2.26041,0.617077,-0.180785,0.131539,-0.003039,-0.891849,0.64896,-0.0150092,0.0176347,1.18631,5,0.1,5,0.3,3.61324,-4.25361,0.545552,-0.00855736,0.348784,0.00285441,-0.0423342,1.72603,0.01413,0.0277731,2.92578,5,0.1,6,0.3,1.43127,-1.58867,0.651974,-0.281231,-0.0109058,-0.00924347,-1.38741,-0.0537783,-0.0455938,0.00873829,1.88167,5,0.1,7,0.3,4.34362,-1.18722,0.659068,-0.084354,0.338503,-0.00477638,-0.417352,1.67514,-0.0236481,0.0164698,2.9258,5,0.1,8,0.3,-3.53814,0.397827,0.630506,0.0690416,-0.124109,-0.00542551,0.34067,-0.612261,-0.0267625,0.0147203,0.479293,5,0.1,9,0.3,0.447384,3.15783,0.634166,0.348333,-0.0192728,-0.00417242,1.7238,-0.0953823,-0.0206493,0.0125046,2.92579,5,0.1,10,0.3,-1.96516,-3.98679,0.5308,0.0560571,0.175496,0.0123089,0.27658,0.865787,0.0607371,0.0101797,0.809046,5,0.1,11,0.3,-1.28424,1.04771,0.588102,0.228407,0.0537608,0.00211392,1.12683,0.265211,0.0104159,0.0312733,1.30663,5,0.1,12,0.3,-0.40157,-3.87522,0.515634,0.00914116,0.348713,-0.00590617,0.0452418,1.72563,-0.0292324,0.0320697,2.92581,5,0.1,13,0.3,2.0844,2.72987,0.593589,-0.157296,-0.0586677,0.00113929,-0.776023,-0.289425,0.00562146,0.0160536,0.668802,5,0.1,14,0.3,0.00190238,2.13897,0.556658,0.213083,-0.140309,0.00770697,1.05121,-0.692129,0.0380166,0.0101296,1.54608,5,0.1,15,0.3,2.33359,3.30387,0.587677,-0.254961,-0.160756,0.00219196,-1.25776,-0.793085,0.0108182,0.0122446,2.15596,5,0.1,16,0.3,1.47656,-0.747361,0.68912,-0.0399703,0.346482,0.00879895,-0.197791,1.71463,0.0435486,0.0151433,2.92579,5,0.1,17,0.3,4.34428,-3.59089,0.568273,-0.0545956,0.344583,0.00165664,-0.270158,1.70523,0.00818819,0.0159435,2.9258,5,0.1,18,0.3,0.427948,-0.629214,0.653918,0.00392105,0.08523,0.123799,0.019338,0.420466,0.610739,0.0134307,0.536426,5,0.1,19,0.3,-1.23531,-3.09533,0.5703,0.0927022,0.33624,0.00848072,0.458755,1.66392,0.0419803,0.00857008,2.9258,5,0.1,20,0.3,-1.36395,2.15296,0.687961,0.0825139,-0.0894591,0.0110344,0.407062,-0.441372,0.0544451,0.00962771,0.354331,5,0.1,21,0.3,-4.05829,-0.343512,0.581638,0.163577,0.30815,0.00283765,0.809401,1.52495,0.0140332,0.0146747,2.9258,5,0.1,22,0.3,-2.63005,2.85087,0.564965,0.286706,0.198727,0.00580736,1.41878,0.983462,0.0287443,0.01049,2.92579,5,0.1,23,0.3,4.11806,0.986489,0.609527,-0.151157,0.314434,-0.00148788,-0.747919,1.55604,-0.00736117,0.019288,2.92581,5,0.1,24,0.3,-1.55229,4.03808,0.648067,-0.0113999,-0.348669,-0.00560712,-0.0564083,-1.72547,-0.0277385,0.018121,2.92578,5,0.1,25,0.3,-1.22602,2.76405,0.69312,0.0874193,-0.33176,0.00525611,0.457384,-1.559,0.0260882,0.0175376,2.9321,5,0.1,26,0.3,4.16166,3.14809,0.651393,-0.286639,-0.0263385,-0.0091413,-1.41412,-0.129938,-0.0451058,0.0296675,1.9681,5,0.1,27,0.3,-2.88849,3.53604,0.549745,0.337698,0.0872798,0.00853399,1.67122,0.431925,0.0422336,0.0180042,2.92578,5,0.1,28,0.3,-3.71248,2.64598,0.650152,0.345032,-0.05132,-0.00649961,1.70743,-0.25399,-0.0321604,0.0266012,2.9258,5,0.1,29,0.3,0.799441,-1.2676,0.594009,0.167557,0.287356,0.0126382,0.826623,1.41761,0.062339,0.0112423,2.62948,5,0.1
0,0.4,2.08228,-0.14561,0.534758,-0.421774,-0.293,0.0114843,-1.24383,-0.864401,0.0335872,0.0187084,2.58986,5,0.1,1,0.4,-1.25437,-1.93105,0.608812,0.429127,0.285172,-0.0015378,1.27149,0.844896,-0.00455976,0.0168555,2.51007,5,0.1,2,0.4,-1.51608,-0.842739,0.602273,-0.461769,-0.228567,-0.000543892,-1.36817,-0.677228,-0.00160933,0.0105626,2.51007,5,0.1,3,0.4,-3.78869,3.37516,0.584567,0.501722,0.117213,0.00267923,1.48666,0.347137,0.00795722,0.0274485,2.51136,5,0.1,4,0.4,3.99401,2.27676,0.616699,-0.266612,0.193989,-0.00448227,-0.786901,0.572562,-0.0132322,0.0323801,0.938615,5,0.1,5,0.4,3.61218,-4.21025,0.545907,-0.0126421,0.515079,0.00421554,-0.0373125,1.52612,0.012517,0.033692,2.51558,5,0.1,6,0.4,1.39634,-1.59003,0.650826,-0.414753,-0.0160843,-0.0136301,-1.22404,-0.0473857,-0.0402629,0.0100629,1.4888,5,0.1,7,0.4,4.33313,-1.14514,0.658474,-0.124574,0.499898,-0.00705421,-0.369072,1.48118,-0.0208914,0.0162096,2.51102,5,0.1,8,0.4,-3.52957,0.382409,0.629832,0.101823,-0.183032,-0.00800192,0.300527,-0.540167,-0.0236034,0.0171556,0.37922,5,0.1,9,0.4,0.49069,3.15544,0.633647,0.514417,-0.0284612,-0.00616163,1.52413,-0.0844002,-0.0182688,0.0170631,2.51532,5,0.1,10,0.4,-1.9582,-3.96498,0.532329,0.0826746,0.258815,0.0181541,0.243962,0.763893,0.0535548,0.0116433,0.640127,5,0.1,11,0.4,-1.25586,1.05439,0.588364,0.336853,0.0792861,0.00311732,0.994086,0.233948,0.00920892,0.0393605,1.03382,5,0.1,12,0.4,-0.400434,-3.83187,0.5149,0.0134997,0.514978,-0.00872165,0.0399947,1.52576,-0.0258684,0.0327319,2.51897,5,0.1,13,0.4,2.06486,2.72258,0.59373,-0.231975,-0.0865221,0.00167936,-0.684738,-0.255227,0.00497699,0.0144404,0.529161,5,0.1,14,0.4,0.0283735,2.12154,0.557615,0.31425,-0.206923,0.0113651,0.927407,-0.61059,0.0335574,0.0109645,1.22328,5,0.1,15,0.4,2.30191,3.2839,0.587949,-0.37601,-0.237077,0.00323355,-1.1096,-0.699759,0.00953674,0.0121329,1.70582,5,0.1,16,0.4,1.47159,-0.704285,0.690214,-0.0590265,0.511682,0.0129938,-0.17488,1.51604,0.0385046,0.0128832,2.53795,5,0.1,17,0.4,4.33749,-3.54805,0.568479,-0.0806212,0.508875,0.00244528,-0.239134,1.50788,0.00727177,0.0177717,2.51327,5,0.1,18,0.4,0.428435,-0.618625,0.669297,0.0057824,0.125696,0.182576,0.0170618,0.37092,0.538796,0.0103454,0.424426,5,0.1,19,0.4,-1.22378,-3.05353,0.571354,0.136903,0.496554,0.0125259,0.40555,1.47128,0.0371039,0.00813703,2.51052,5,0.1,20,0.4,-1.3537,2.14185,0.689331,0.121689,-0.131929,0.0162721,0.359118,-0.389457,0.0480711,0.00983008,0.280349,5,0.1,21,0.4,-4.03796,-0.305201,0.58199,0.241566,0.455076,0.00419021,0.715733,1.34832,0.0124276,0.0118459,2.5315,5,0.1,22,0.4,-2.59441,2.87558,0.565687,0.423408,0.293481,0.00857562,1.25432,0.869393,0.0254214,0.0109949,2.51008,5,0.1,23,0.4,4.09927,1.02558,0.609342,-0.223219,0.464353,-0.00219643,-0.661612,1.37585,-0.00652671,0.0189242,2.51009,5,0.1,24,0.4,-1.55371,3.99473,0.64737,-0.0168353,-0.514913,-0.00828058,-0.0498891,-1.52564,-0.0244975,0.0170796,2.51572,5,0.1,25,0.4,-1.21499,2.72331,0.693774,0.132352,-0.479078,0.00777245,0.419855,-1.32692,0.0231266,0.0186837,2.60879,5,0.1,26,0.4,4.12605,3.14481,0.650257,-0.422728,-0.0388443,-0.0134811,-1.24741,-0.114679,-0.0397861,0.0297049,1.55718,5,0.1,27,0.4,-2.8465,3.54689,0.550806,0.498712,0.128895,0.0126034,1.47772,0.381947,0.0373423,0.016878,2.51079,5,0.1,28,0.4,-3.66959,2.6396,0.649344,0.509542,-0.0757933,-0.00959784,1.50967,-0.224471,-0.0284314,0.028909,2.51349,5,0.1,29,0.4,0.820256,-1.2319,0.595579,0.24711,0.423783,0.0186369,0.729233,1.25074,0.0550151,0.0124338,2.08047,5,0.1
0,0.5,2.03452,-0.179365,0.53599,-0.526588,-0.382239,0.0124012,-0.838041,-0.873927,-0.0113957,0.0187084,2.58986,5,0.1,1,0.5,-1.20492,-1.89819,0.608635,0.559965,0.372116,-0.00200719,1.278,0.849262,-0.00458211,0.0168555,2.51007,5,0.1,2,0.5,-1.56929,-0.869078,0.60221,-0.602558,-0.298256,-0.000709295,-1.37519,-0.680707,-0.00161678,0.0105626,2.51007,5,0.1,3,0.5,-3.73099,3.38867,0.584875,0.651406,0.152938,0.00349768,1.43449,0.34897,0.00799447,0.0274485,2.51136,5,0.1,4,0.5,3.96334,2.29907,0.616184,-0.346449,0.252079,-0.0058244,-0.770673,0.560731,-0.0129528,0.0323801,0.938615,5,0.1,5,0.5,3.61072,-4.15113,0.546393,-0.0164848,0.665291,0.00550291,-0.0375658,1.41007,0.0125654,0.033692,2.51558,5,0.1,6,0.5,1.34863,-1.59188,0.649258,-0.538944,-0.0208944,-0.0177144,-1.19884,-0.0464469,-0.0394247,0.0100629,1.4888,5,0.1,7,0.5,4.31877,-1.08763,0.657661,-0.162555,0.649504,-0.00920398,-0.371039,1.4378,-0.0209995,0.0162096,2.51102,5,0.1,8,0.5,-3.51785,0.361356,0.628912,0.132312,-0.237837,-0.010397,0.294313,-0.529055,-0.0231229,0.0171556,0.37922,5,0.1,9,0.5,0.549737,3.15216,0.632937,0.664601,-0.0371441,-0.00804113,1.41131,-0.0847876,-0.0183545,0.0170631,2.51532,5,0.1,10,0.5,-1.94869,-3.93521,0.534417,0.107426,0.336319,0.0235879,0.238933,0.748187,0.0524558,0.0116433,0.640127,5,0.1,11,0.5,-1.21711,1.06351,0.588723,0.437712,0.103023,0.00405181,0.97362,0.229143,0.00902265,0.0393605,1.03382,5,0.1,12,0.5,-0.398878,-3.77282,0.513895,0.0176152,0.663741,-0.0113831,0.0401977,1.38734,-0.0259914,0.0327319,2.51897,5,0.1,13,0.5,2.03818,2.71263,0.593924,-0.301445,-0.11242,0.00218414,-0.670582,-0.250012,0.00487268,0.0144404,0.529161,5,0.1,14,0.5,0.0645203,2.09774,0.558922,0.408345,-0.268877,0.0147698,0.908326,-0.598103,0.0328682,0.0109645,1.22328,5,0.1,15,0.5,2.25867,3.25663,0.588321,-0.488561,-0.307969,0.00420073,-1.08625,-0.683486,0.00933185,0.0121329,1.70582,5,0.1,16,0.5,1.46479,-0.645836,0.691711,-0.0770224,0.653079,0.0169561,-0.175782,1.26466,0.038702,0.0128832,2.53795,5,0.1,17,0.5,4.3282,-3.48959,0.568761,-0.105222,0.658847,0.00319341,-0.240266,1.42145,0.00730529,0.0177717,2.51327,5,0.1,18,0.5,0.4291,-0.604167,0.690298,0.00751377,0.16333,0.237243,0.0167172,0.363294,0.527717,0.0103454,0.424426,5,0.1,19,0.5,-1.20801,-2.99638,0.572798,0.178637,0.646026,0.0163436,0.407659,1.44389,0.0372902,0.00813703,2.51052,5,0.1,20,0.5,-1.3397,2.12667,0.691203,0.158125,-0.171439,0.0211484,0.351734,-0.38138,0.0470616,0.00983008,0.280349,5,0.1,21,0.5,-4.0105,-0.252983,0.582464,0.304536,0.587497,0.00521298,0.529528,1.24282,0.00794232,0.0118459,2.5315,5,0.1,22,0.5,-2.54562,2.90939,0.566675,0.552486,0.382948,0.0111911,1.26083,0.873908,0.025548,0.0109949,2.51008,5,0.1,23,0.5,4.07354,1.07909,0.609089,-0.291298,0.605932,-0.00286764,-0.664979,1.38292,-0.00655279,0.0189242,2.51009,5,0.1,24,0.5,-1.55562,3.93563,0.646431,-0.0211308,-0.665119,-0.01039,-0.0352487,-1.41041,-0.0173077,0.0170796,2.51572,5,0.1,25,0.5,-1.19934,2.66914,0.694669,0.182934,-0.599694,0.0101262,0.553563,-1.04925,0.0227876,0.0186837,2.60879,5,0.1,26,0.5,4.07743,3.14034,0.648706,-0.549293,-0.0504788,-0.0175176,-1.22181,-0.11231,-0.0389665,0.0297049,1.55718,5,0.1,27,0.5,-2.78912,3.56174,0.552259,0.648273,0.168198,0.0164461,1.43997,0.383884,0.0375398,0.016878,2.51079,5,0.1,28,0.5,-3.61106,2.63087,0.648238,0.659529,-0.0988938,-0.0125235,1.4202,-0.225633,-0.0285804,0.028909,2.51349,5,0.1,29,0.5,0.84868,-1.18315,0.597723,0.321099,0.550682,0.0242188,0.714239,1.22498,0.0538789,0.0124338,2.08047,5,0.1
0,0.6,1.97844,-0.221661,0.537125,-0.587285,-0.459851,0.0099048,-0.36943,-0.645429,-0.035435,0.0147696,2.32271,5,0.1,1,0.6,-1.14297,-1.85703,0.608413,0.673234,0.447389,-0.00241399,0.939906,0.624537,-0.00339746,0.0222894,2.21961,5,0.1,2,0.6,-1.63595,-0.902071,0.602132,-0.724444,-0.358589,-0.000852346,-1.01137,-0.50056,-0.00119209,0.0121308,2.24035,5,0.1,3,0.6,-3.65924,3.40559,0.585262,0.77644,0.183868,0.0042066,1.01674,0.256777,0.00587106,0.0230198,2.30993,5,0.1,4,0.6,3.92513,2.32687,0.615541,-0.414073,0.30129,-0.00696033,-0.554562,0.403285,-0.00932813,0.0185559,0.698768,5,0.1,5,0.6,3.6089,-4.0782,0.547002,-0.0198126,0.785911,0.00661761,-0.0276566,0.957727,0.00920892,0.0306716,2.33463,5,0.1,6,0.6,1.28919,-1.59418,0.647304,-0.644147,-0.0249684,-0.0211746,-0.86242,-0.0334978,-0.028342,0.0124193,1.10837,5,0.1,7,0.6,4.30079,-1.01605,0.656643,-0.195444,0.775141,-0.0110656,-0.272989,1.0249,-0.0154376,0.0163738,2.30677,5,0.1,8,0.6,-3.50326,0.335126,0.627765,0.158137,-0.284263,-0.0124261,0.211716,-0.380605,-0.0166297,0.0223051,0.282317,5,0.1,9,0.6,0.622616,3.14805,0.632047,0.78543,-0.0446618,-0.00966787,0.961065,-0.0623465,-0.0135005,0.0172245,2.33341,5,0.1,10,0.6,-1.93684,-3.89812,0.537019,0.128394,0.401974,0.0281915,0.17184,0.538111,0.0376999,0.0159279,0.476557,5,0.1,11,0.6,-1.16884,1.07487,0.58917,0.523153,0.123134,0.00484437,0.700355,0.164807,0.00649691,0.0447784,0.769649,5,0.1,12,0.6,-0.396929,-3.70015,0.512636,0.0211783,0.781965,-0.0136867,0.029549,0.934362,-0.0191033,0.0581023,2.58606,5,0.1,13,0.6,2.00494,2.70023,0.594165,-0.360289,-0.134361,0.00261068,-0.48244,-0.179887,0.00351667,0.0164073,0.393942,5,0.1,14,0.6,0.109554,2.06808,0.560551,0.488055,-0.321364,0.0176534,0.653427,-0.430226,0.023663,0.0137166,0.910887,5,0.1,15,0.6,2.20479,3.22268,0.588785,-0.583869,-0.36788,0.0050202,-0.781059,-0.490665,0.00670552,0.0132186,1.27444,5,0.1,16,0.6,1.45627,-0.574937,0.693587,-0.0926018,0.756767,0.0203848,-0.129342,0.777841,0.028491,0.0155335,2.63684,5,0.1,17,0.6,4.31656,-3.4172,0.569114,-0.126517,0.781512,0.00384152,-0.176668,0.985384,0.00536442,0.0187282,2.32288,5,0.1,18,0.6,0.429929,-0.586155,0.716462,0.00898018,0.19521,0.283553,0.0120401,0.261396,0.379652,0.0469644,0.315976,5,0.1,19,0.6,-1.18825,-2.9251,0.574605,0.214767,0.772768,0.0196487,0.299871,1.03962,0.0273883,0.0330817,2.30111,5,0.1,20,0.6,-1.32226,2.10776,0.693536,0.188991,-0.204909,0.0252783,0.253022,-0.274301,0.0338256,0.0218396,0.208708,5,0.1,21,0.6,-3.9778,-0.188579,0.583017,0.345224,0.693953,0.00576824,0.27585,0.846744,0.00309944,0.0252045,2.27326,5,0.1,22,0.6,-2.4845,2.95176,0.567913,0.66424,0.460404,0.0134557,0.92721,0.642776,0.0187457,0.013114,2.03834,5,0.1,23,0.6,4.04132,1.14612,0.608772,-0.350249,0.728506,-0.00344813,-0.488758,1.01691,-0.00482798,0.0244215,2.24367,5,0.1,24,0.6,-1.55788,3.86271,0.645319,-0.0237614,-0.785786,-0.011684,-0.0171065,-0.9588,-0.00837445,0.0198352,2.33473,5,0.1,25,0.6,-1.17832,2.60463,0.695788,0.236422,-0.68301,0.012131,0.487983,-0.59402,0.0164807,0.0223896,2.52254,5,0.1,26,0.6,4.01685,3.13478,0.646775,-0.656509,-0.0603318,-0.0209361,-0.87893,-0.0807047,-0.028044,0.0418891,1.15929,5,0.1,27,0.6,-2.71765,3.58035,0.554078,0.7743,0.202227,0.0197724,1.03021,0.282168,0.0276268,0.0246222,1.97712,5,0.1,28,0.6,-3.53861,2.61993,0.646852,0.781977,-0.118893,-0.0150576,0.982404,-0.165939,-0.0209808,0.0363207,2.32411,5,0.1,29,0.6,0.884092,-1.12242,0.600394,0.383776,0.658181,0.028947,0.513822,0.881135,0.0387728,0.0118959,1.54885,5,0.1
0,0.7,1.91735,-0.270881,0.537994,-0.637802,-0.523626,0.00797529,-0.574045,-0.591566,-0.00602007,0.0147696,2.32271,5,0.1,1,0.7,-1.07096,-1.80912,0.608154,0.765424,0.510083,-0.00275476,0.848912,0.589781,-0.00320002,0.0222894,2.21961,5,0.1,2,0.7,-1.71293,-0.940466,0.60204,-0.809487,-0.408837,-0.000971835,-0.664756,-0.472698,-0.00112131,0.0121308,2.24035,5,0.1,3,0.7,-3.57756,3.42527,0.585713,0.847223,0.20964,0.00479585,0.417694,0.242412,0.00553951,0.0230198,2.30993,5,0.1,4,0.7,3.881,2.35898,0.6148,-0.467309,0.340007,-0.00785552,-0.479758,0.34894,-0.00806153,0.0185559,0.698768,5,0.1,5,0.7,3.60678,-3.99588,0.54771,-0.0225898,0.850503,0.00754232,-0.0261515,0.361428,0.00869855,0.0306716,2.33463,5,0.1,6,0.7,1.22054,-1.59684,0.645048,-0.726942,-0.0281837,-0.0238957,-0.746153,-0.0289828,-0.0245199,0.0124193,1.10837,5,0.1,7,0.7,4.27986,-0.934455,0.655458,-0.222843,0.846774,-0.0126151,-0.257701,0.425413,-0.0145733,0.0163738,2.30677,5,0.1,8,0.7,-3.48641,0.30483,0.626441,0.178462,-0.320803,-0.0140227,0.183135,-0.329291,-0.0143945,0.0223051,0.282317,5,0.1,9,0.7,0.704904,3.14326,0.631012,0.850345,-0.050918,-0.0110223,0.364203,-0.0588298,-0.0127368,0.0172245,2.33341,5,0.1,10,0.7,-1.92316,-3.85528,0.540023,0.144892,0.453635,0.0318114,0.148684,0.465572,0.0326261,0.0159279,0.476557,5,0.1,11,0.7,-1.11309,1.08799,0.589686,0.59039,0.138957,0.00546817,0.605956,0.142604,0.00561774,0.0447784,0.769649,5,0.1,12,0.7,-0.394662,-3.61904,0.51117,0.0241439,0.824249,-0.0156038,0.0278912,-0.0237375,-0.0180304,0.0581023,2.58606,5,0.1,13,0.7,1.96654,2.68591,0.594443,-0.406603,-0.151631,0.00294792,-0.417359,-0.155643,0.00303611,0.0164073,0.393942,5,0.1,14,0.7,0.161531,2.03383,0.562433,0.549664,-0.362669,0.0199248,0.545406,-0.372283,0.0204705,0.0137166,0.910887,5,0.1,15,0.7,2.1426,3.18367,0.589319,-0.657808,-0.409608,0.00565015,-0.657156,-0.328869,0.00555813,0.0132186,1.27444,5,0.1,16,0.7,1.44635,-0.497054,0.69577,-0.105574,0.785751,0.0232417,-0.121936,-0.131907,0.0268519,0.0155335,2.63684,5,0.1,17,0.7,4.30302,-3.33518,0.569525,-0.144247,0.848987,0.0043801,-0.166744,0.387505,0.00507012,0.0187282,2.32288,5,0.1,18,0.7,0.430886,-0.56535,0.746683,0.010136,0.220304,0.32,0.010414,0.226147,0.328474,0.0469644,0.315976,5,0.1,19,0.7,-1.16525,-2.84366,0.576709,0.244865,0.845951,0.0223981,0.2831,0.439525,0.0258684,0.0330817,2.30111,5,0.1,20,0.7,-1.30212,2.08593,0.69623,0.213283,-0.231241,0.0285257,0.218913,-0.237301,0.0292659,0.0218396,0.208708,5,0.1,21,0.7,-3.94179,-0.114934,0.583612,0.375218,0.77769,0.00614207,0.295192,0.772845,0.0038892,0.0252045,2.27326,5,0.1,22,0.7,-2.41362,3.00094,0.569347,0.750559,0.521613,0.0151554,0.755474,0.548065,0.0144616,0.013114,2.03834,5,0.1,23,0.7,4.00382,1.22349,0.608403,-0.399316,0.812757,-0.00393232,-0.461638,0.646606,-0.00455603,0.0244215,2.24367,5,0.1,24,0.7,-1.56033,3.7804,0.644114,-0.0251658,-0.850468,-0.0123719,-0.010103,-0.362098,-0.00495464,0.0198352,2.33473,5,0.1,25,0.7,-1.15261,2.53397,0.697081,0.274053,-0.723933,0.013684,0.263751,-0.217542,0.0137426,0.0223896,2.52254,5,0.1,26,0.7,3.94688,3.12835,0.644543,-0.740892,-0.0680812,-0.0236282,-0.760496,-0.0698268,-0.0242591,0.0418891,1.15929,5,0.1,27,0.7,-2.63611,3.60197,0.556192,0.846437,0.229645,0.0224562,0.43039,0.25034,0.0244975,0.0246222,1.97712,5,0.1,28,0.7,-3.45656,2.6072,0.64524,0.849144,-0.135547,-0.017164,0.384763,-0.156641,-0.0198148,0.0363207,2.32411,5,0.1,29,0.7,0.924995,-1.05227,0.603479,0.433105,0.742774,0.032669,0.444554,0.762358,0.0335462,0.0118959,1.54885,5,0.1
0,0.8,1.85081,-0.325854,0.538791,-0.69055,-0.571667,0.00818819,-0.432372,-0.342757,0.00804663,0.0235229,2.29215,5,0.1,1,0.8,-0.990694,-1.75549,0.607864,0.833863,0.558653,-0.00301898,0.483364,0.354171,-0.00190735,0.0159177,2.07683,5,0.1,2,0.8,-1.79649,-0.983454,0.601938,-0.854486,-0.447765,-0.00106394,-0.23073,-0.283897,-0.000685453,0.0144594,1.73789,5,0.1,3,0.8,-3.49155,3.44732,0.586217,0.866026,0.229597,0.00525266,0,0.145674,0.00330806,0.0183324,2.23183,5,0.1,4,0.8,3.8322,2.39449,0.613979,-0.504917,0.367367,-0.0084877,-0.252008,0.183105,-0.00423193,0.019553,0.493358,5,0.1,5,0.8,3.6044,-3.90975,0.548503,-0.0247359,0.866026,0.00825822,-0.0158548,0,0.00521541,0.0272309,2.2714,5,0.1,6,0.8,1.14462,-1.59978,0.642552,-0.785443,-0.030458,-0.0258178,-0.391781,-0.0151992,-0.0128746,0.0114221,0.782569,5,0.1,7,0.8,4.25643,-0.848459,0.654132,-0.244069,0.866024,-0.0138149,-0.154734,2.98023e-05,-0.00876188,0.0133189,2.22655,5,0.1,8,0.8,-3.46777,0.271327,0.624976,0.192821,-0.34662,-0.0151515,0.0960827,-0.17292,-0.00753999,0.0166338,0.275285,5,0.1,9,0.8,0.791028,3.13791,0.629853,0.866024,-0.0557601,-0.0120714,2.98023e-05,-0.0352859,-0.00762939,0.0153931,2.26941,5,0.1,10,0.8,-1.90803,-3.80791,0.543345,0.156549,0.490141,0.0343695,0.0780821,0.244498,0.0171363,0.00936635,0.336479,5,0.1,11,0.8,-1.05143,1.10251,0.590257,0.637898,0.150138,0.0059098,0.31814,0.074923,0.00292063,0.0344305,2.57376,5,0.1,12,0.8,-0.392123,-3.53788,0.50953,0.0264406,0.788873,-0.0170872,0.0167191,-0.631928,-0.010848,0.0309596,2.77917,5,0.1,13,0.8,1.92407,2.67008,0.594751,-0.439322,-0.163841,0.00318587,-0.219166,-0.0815392,0.00160933,0.0122783,0.278138,5,0.1,14,0.8,0.218822,1.99596,0.564514,0.591566,-0.391859,0.0215292,0.2703,-0.195503,0.0107586,0.0126363,0.752907,5,0.1,15,0.8,2.07401,3.14143,0.589908,-0.708526,-0.431252,0.0060752,-0.329852,-0.095129,0.00271201,0.0106222,1.7167,5,0.1,16,0.8,1.43525,-0.420195,0.698213,-0.115606,0.742219,0.0254512,-0.0731349,-0.686675,0.0161231,0.0136866,2.83891,5,0.1,17,0.8,4.28785,-3.2491,0.569986,-0.157976,0.86602,0.00479668,-0.100136,0.000119209,0.00306964,0.018105,2.25274,5,0.1,18,0.8,0.431944,-0.542343,0.780101,0.0109531,0.238034,0.345753,0.00546873,0.118762,0.172496,0.0117403,0.223095,5,0.1,19,0.8,-1.13951,-2.75769,0.579064,0.268176,0.866026,0.0245288,0.169992,0,0.0154972,0.00971214,1.94889,5,0.1,20,0.8,-1.27985,2.06178,0.699209,0.230446,-0.249851,0.0308201,0.114918,-0.124454,0.0153482,0.00935698,0.147357,5,0.1,21,0.8,-3.90295,-0.0337856,0.584244,0.399357,0.839491,0.00646412,0.16737,0.428021,0.00217557,0.0109357,1.93371,5,0.1,22,0.8,-2.33536,3.05546,0.570923,0.808066,0.564432,0.0162184,0.365853,0.286102,0.00631809,0.0110394,1.514,5,0.1,23,0.8,3.96183,1.30728,0.607989,-0.437331,0.85558,-0.00430644,-0.277281,0.208914,-0.00274181,0.0172138,1.82279,5,0.1,24,0.8,-1.56288,3.69427,0.64286,-0.0256419,-0.866026,-0.0126049,0.00113249,0,0.000566244,0.0195381,2.27147,5,0.1,25,0.8,-1.12426,2.46115,0.698508,0.289229,-0.725722,0.0147417,0.0411272,0.182748,0.00682473,0.0154935,0.660412,5,0.1,26,0.8,3.86951,3.12124,0.642076,-0.800514,-0.0735581,-0.0255302,-0.399351,-0.0365973,-0.0127256,0.0310929,0.818535,5,0.1,27,0.8,-2.55013,3.62603,0.558545,0.866026,0.24963,0.0244111,0,0.138402,0.0135601,0.0191005,1.48341,5,0.1,28,0.8,-3.37048,2.59295,0.643436,0.866026,-0.148439,-0.0187963,0,-0.0941753,-0.0118911,0.0333162,2.25476,5,0.1,29,0.8,0.970224,-0.974706,0.606891,0.467959,0.802544,0.0352994,0.233471,0.400364,0.0176132,0.00890159,1.108,5,0.1
0,0.9,1.78026,-0.384878,0.539612,-0.713752,-0.609172,0.0079087,-0.0331029,-0.364998,-0.0118278,0.0235229,2.29215,5,0.1,1,0.9,-0.905597,-1.69778,0.607552,0.862017,0.595345,-0.0032166,0.120375,0.341825,-0.00184029,0.0159177,2.07683,5,0.1,2,0.9,-1.88265,-1.02964,0.601828,-0.86518,-0.475085,-0.00112969,-0.0239238,-0.236824,-0.000566244,0.0144594,1.73789,5,0.1,3,0.9,-3.40494,3.47103,0.586759,0.866026,0.244632,0.00559455,0,0.139594,0.00317767,0.0183324,2.23183,5,0.1,4,0.9,3.7805,2.4321,0.61311,-0.527749,0.38396,-0.00887075,-0.180483,0.131175,-0.00302121,0.019553,0.493358,5,0.1,5,0.9,3.60184,-3.82315,0.549356,-0.0263717,0.866026,0.00879774,-0.0151843,0,0.00501797,0.0272309,2.2714,5,0.1,6,0.9,1.06421,-1.6029,0.639909,-0.820944,-0.0318358,-0.0269844,-0.28063,-0.0108853,-0.00922009,0.0114221,0.782569,5,0.1,7,0.9,4.23122,-0.761856,0.652705,-0.260063,0.866026,-0.0147205,-0.148714,0,-0.00841916,0.0133189,2.22655,5,0.1,8,0.9,-3.44788,0.235841,0.623425,0.205972,-0.362289,-0.0158351,0.147834,-0.12386,-0.00540167,0.0166338,0.275285,5,0.1,9,0.9,0.877631,3.13215,0.628607,0.866026,-0.059396,-0.0128576,0,-0.0337064,-0.00729039,0.0153931,2.26941,5,0.1,10,0.9,-1.892,-3.75773,0.546864,0.163624,0.512297,0.0359226,0.0559315,0.175148,0.0122786,0.00936635,0.336479,5,0.1,11,0.9,-0.985579,1.11891,0.590862,0.682173,0.186209,0.00616098,0.502482,0.574231,0.00185147,0.0344305,2.57376,5,0.1,12,0.9,-0.389392,-3.46324,0.507789,0.028164,0.695932,-0.0175074,0.0159778,-1.11388,0.00204146,0.0309596,2.77917,5,0.1,13,0.9,1.8791,2.6533,0.595077,-0.45918,-0.171233,0.00333125,-0.156954,-0.0584424,0.00115111,0.0122783,0.278138,5,0.1,14,0.9,0.278273,1.95584,0.566718,0.587772,-0.409576,0.0225038,-0.31032,-0.140078,0.00770018,0.0126363,0.752907,5,0.1,15,0.9,2.00111,3.09799,0.590528,-0.751793,-0.435716,0.0063112,-0.472099,0.0158995,0.00174344,0.0106222,1.7167,5,0.1,16,0.9,1.42332,-0.350387,0.700842,-0.12309,0.646964,0.0271002,-0.0689104,-1.10899,0.0151843,0.0136866,2.83891,5,0.1,17,0.9,4.27153,-3.1625,0.570481,-0.168329,0.866025,0.00511352,-0.0962913,1.49012e-05,0.00294298,0.018105,2.25274,5,0.1,18,0.9,0.433066,-0.517973,0.815499,0.0114486,0.248795,0.361384,0.00391714,0.0850633,0.123557,0.0117403,0.223095,5,0.1,19,0.9,-1.11183,-2.67109,0.581595,0.284928,0.866026,0.0260568,0.148788,0,0.0135787,0.00971214,1.94889,5,0.1,20,0.9,-1.25625,2.0362,0.702364,0.240861,-0.261129,0.0322108,0.0823215,-0.0891387,0.0109933,0.00935698,0.147357,5,0.1,21,0.9,-3.86195,0.0516219,0.584906,0.42216,0.863084,0.0068251,0.252962,0.0920008,0.00438094,0.0109357,1.93371,5,0.1,22,0.9,-2.25326,3.1134,0.572555,0.828353,0.594065,0.0162445,0.0301898,0.271231,-0.00533462,0.0110394,1.514,5,0.1,23,0.9,3.91671,1.39347,0.607545,-0.464439,0.865299,-0.004574,-0.238851,0.0231788,-0.00235811,0.0172138,1.82279,5,0.1,24,0.9,-1.56544,3.60767,0.641603,-0.0255099,-0.866026,-0.0125396,0.00251085,0,0.00123307,0.0195381,2.27147,5,0.1,25,0.9,-1.09563,2.39007,0.700035,0.278682,-0.69036,0.0159548,-0.233024,0.511289,0.0154115,0.0154935,0.660412,5,0.1,26,0.9,3.78755,3.11371,0.639462,-0.836702,-0.0768755,-0.0266834,-0.286072,-0.0262409,-0.00911579,0.0310929,0.818535,5,0.1,27,0.9,-2.46353,3.65166,0.561051,0.865827,0.262375,0.0256592,-0.00795722,0.103921,0.0101775,0.0191005,1.48341,5,0.1,28,0.9,-3.28387,2.57762,0.641494,0.866026,-0.158143,-0.0200225,0,-0.0899583,-0.011377,0.0333162,2.25476,5,0.1,29,0.9,1.01788,-0.892797,0.610501,0.481943,0.831581,0.036798,0.0397339,0.158049,0.010889,0.00890159,1.108,5,0.1
0,1,1.70937,-0.447373,0.540323,-0.697827,-0.637466,0.00614822,0.346422,-0.171244,-0.0219345,0.0141625,2.21658,5,0.1,1,1,-0.819095,-1.63681,0.607223,0.866026,0.620621,-0.00335425,0,0.137508,-0.000715256,0.0117305,2.03047,5,0.1,2,1,-1.96916,-1.07808,0.601713,-0.864047,-0.490829,-0.00116676,0.0394583,-0.0606179,-0.000149012,0.00882594,1.28589,5,0.1,3,1,-3.31834,3.49608,0.587332,0.866026,0.254905,0.00582784,0,0.0551939,0.0012517,0.0164578,2.22781,5,0.1,4,1,3.72711,2.47095,0.612213,-0.53699,0.390679,-0.00902563,0.0115633,-0.00846386,0.000208616,0.0153503,0.335496,5,0.1,5,1,3.59914,-3.73654,0.550257,-0.0274897,0.866026,0.00916719,-0.00619888,0,0.00199676,0.0217276,2.27134,5,0.1,6,1,0.981147,-1.60612,0.637179,-0.835319,-0.0323951,-0.0274569,0.01809,0.000715256,0.000596046,0.00779104,0.532177,5,0.1,7,1,4.20459,-0.675254,0.651197,-0.271022,0.866026,-0.0153407,-0.0593662,0,-0.00336766,0.0181747,2.22177,5,0.1,8,1,-3.42658,0.199184,0.621823,0.219095,-0.368634,-0.0161126,0.10097,0.00796437,0.00038743,0.00648705,0.358357,5,0.1,9,1,0.964233,3.12607,0.62729,0.866026,-0.0618696,-0.0133932,0,-0.0132322,-0.00286102,0.0145127,2.33433,5,0.1,10,1,-1.87544,-3.70589,0.550498,0.166488,0.521266,0.0365511,-0.00363588,-0.0112057,-0.00077486,0.01261,1.01505,5,0.1,11,1,-0.914982,1.14074,0.591484,0.727214,0.252223,0.00623763,0.351489,0.690639,-0.000447035,0.0341962,0.54391,5,0.1,12,1,-0.386509,-3.3993,0.506067,0.0293374,0.583869,-0.0167608,0.00627339,-1.06299,0.0124276,0.033037,2.95083,5,0.1,13,1,1.83264,2.63598,0.595414,-0.46722,-0.174224,0.0033915,0.0101924,0.0038147,-8.9407e-05,0.0199505,0.189142,5,0.1,14,1,0.334787,1.9144,0.568995,0.536174,-0.416753,0.0228986,-0.690804,0.0089407,-0.000476837,0.00949679,0.630451,5,0.1,15,1,1.92376,3.05474,0.591164,-0.792062,-0.426495,0.00637919,-0.28789,0.174165,-0.000536442,0.0114204,1.41754,5,0.1,16,1,1.41072,-0.291243,0.703615,-0.128105,0.537526,0.0282049,-0.0260472,-1.01817,0.00575185,0.0131182,2.83976,5,0.1,17,1,4.25429,-3.0759,0.571005,-0.175428,0.866026,0.00533164,-0.0383854,0,0.00116229,0.0145821,2.2507,5,0.1,18,1,0.434224,-0.4928,0.852064,0.011649,0.253153,0.367711,-0.000238419,-0.00546873,-0.00789762,0.0117875,0.151712,5,0.1,19,1,-1.08274,-2.58449,0.584255,0.295204,0.866026,0.0269935,0.0455976,0,0.00417233,0.00834849,1.50478,5,0.1,20,1,-1.23188,2.00978,0.705623,0.245076,-0.265688,0.0327736,-0.00530481,0.00572205,-0.000745058,0.00976952,0.169699,5,0.1,21,1,-3.81857,0.138153,0.58561,0.443804,0.866026,0.00722557,0.154495,-7.15256e-06,0.00318885,0.0105631,1.44709,5,0.1,22,1,-2.17089,3.1739,0.574137,0.812829,0.612718,0.0152409,-0.344038,0.0772476,-0.0143051,0.0118679,1.08081,5,0.1,23,1,3.86931,1.48002,0.607078,-0.480729,0.864851,-0.00473559,-0.0693798,-0.0234842,-0.000655651,0.0168351,1.35991,5,0.1,24,1,-1.56797,3.52106,0.640359,-0.0249714,-0.866026,-0.0122756,0.00888109,0,0.00438094,0.0180272,2.2715,5,0.1,25,1,-1.06925,2.32404,0.701708,0.246146,-0.626099,0.0174746,-0.401437,0.760913,0.0134408,0.0164958,0.568181,5,0.1,26,1,3.7029,3.10593,0.636762,-0.851357,-0.0782192,-0.0271484,0.0183582,0.00178814,0.000566244,0.0287409,0.55664,5,0.1,27,1,-2.37705,3.67827,0.563654,0.862849,0.268322,0.0262424,-0.0636578,0.00667572,0.000625849,0.0189372,1.11152,5,0.1,28,1,-3.19727,2.56142,0.639444,0.866026,-0.164747,-0.0208586,0,-0.0355244,-0.00447035,0.0315862,2.25314,5,0.1,29,1,1.06591,-0.809396,0.614215,0.475016,0.830626,0.037235,-0.180781,-0.190079,-0.00312924,0.0130884,0.799851,5,0.1
0,1.1,1.64057,-0.512215,0.540869,-0.684088,-0.660569,0.0051287,-0.0083521,-0.244122,-0.000495464,0.0141625,2.21658,5,0.1,1,1.1,-0.732496,-1.57392,0.606883,0.865852,0.637566,-0.00344375,-0.00693649,0.163659,-0.000867993,0.0117305,2.03047,5,0.1,2,1.1,-2.05554,-1.12745,0.601596,-0.864436,-0.495967,-0.00117933,-0.00844896,-0.0215247,-5.58794e-05,0.00882594,1.28589,5,0.1,3,1.1,-3.23174,3.5219,0.587922,0.866026,0.261558,0.00597918,0,0.0628084,0.00143424,0.0164578,2.22781,5,0.1,4,1.1,3.67349,2.50996,0.611312,-0.534638,0.388964,-0.00898466,0.0551492,-0.040099,0.000938773,0.0153503,0.335496,5,0.1,5,1.1,3.59636,-3.64994,0.551186,-0.0282396,0.866026,0.00941176,-0.00716746,0,0.00233948,0.0217276,2.27134,5,0.1,6,1.1,0.897741,-1.60936,0.634437,-0.831653,-0.0322523,-0.0273362,0.085786,0.00333041,0.00281632,0.00779104,0.532177,5,0.1,7,1.1,4.17713,-0.588651,0.649643,-0.278243,0.866026,-0.01575,-0.0688732,-3.72529e-06,-0.00389665,0.0181747,2.22177,5,0.1,8,1.1,-3.40374,0.163186,0.620328,0.240887,-0.344027,-0.0128164,0.296071,0.446348,0.0589229,0.00648705,0.358357,5,0.1,9,1.1,1.05083,3.12046,0.625955,0.865622,-0.0448145,-0.0131496,-0.016138,0.31653,0.00720844,0.0145127,2.33433,5,0.1,10,1.1,-1.85882,-3.65322,0.554148,0.165754,0.536766,0.0363923,-0.017114,0.262618,-0.00374392,0.01261,1.01505,5,0.1,11,1.1,-0.840718,1.16875,0.592105,0.755239,0.301861,0.00618789,0.182819,0.312388,-0.000782311,0.0341962,0.54391,5,0.1,12,1.1,-0.383539,-3.34604,0.504472,0.0300815,0.486739,-0.0149743,0.00691041,-0.749066,0.0224076,0.033037,2.95083,5,0.1,13,1.1,1.78598,2.61858,0.595753,-0.465162,-0.173458,0.00337511,0.0480562,0.0178814,-0.000365078,0.0199505,0.189142,5,0.1,14,1.1,0.384395,1.87278,0.571281,0.451529,-0.414932,0.0227996,-0.959506,0.0427291,-0.00234321,0.00949679,0.630451,5,0.1,15,1.1,1.84295,3.01263,0.5918,-0.824431,-0.418404,0.00632573,-0.308812,0.0207573,-0.000782311,0.0114204,1.41754,5,0.1,16,1.1,1.39777,-0.242335,0.706467,-0.13091,0.446468,0.0288236,-0.023365,-0.682187,0.00514463,0.0131182,2.83976,5,0.1,17,1.1,4.23652,-2.98929,0.571545,-0.180129,0.866026,0.00547403,-0.0450313,0,0.00136718,0.0145821,2.2507,5,0.1,18,1.1,0.435387,-0.467523,0.88878,0.011599,0.252043,0.366103,-0.00118837,-0.0259969,-0.0377297,0.0117875,0.151712,5,0.1,19,1.1,-1.05299,-2.49789,0.586975,0.299347,0.865839,0.027373,0.0242591,-0.00746548,0.002224,0.00834849,1.50478,5,0.1,20,1.1,-1.20724,1.98306,0.708918,0.24888,-0.269813,0.0332791,0.0613853,-0.066556,0.00818819,0.00976952,0.169699,5,0.1,21,1.1,-3.77333,0.224747,0.586351,0.461192,0.865626,0.00759326,0.165239,-0.015963,0.00364333,0.0105631,1.44709,5,0.1,22,1.1,-2.09094,3.23551,0.575605,0.78867,0.618511,0.0142314,-0.185147,0.0145733,-0.00700727,0.0118679,1.08081,5,0.1,23,1.1,3.82089,1.56649,0.606601,-0.486911,0.864999,-0.00479408,-0.0333935,4.47035e-05,-0.000305474,0.0168351,1.35991,5,0.1,24,1.1,-1.57043,3.43446,0.639151,-0.0242341,-0.866026,-0.0119125,0.00695884,0,0.00342727,0.0180272,2.2715,5,0.1,25,1.1,-1.04681,2.26542,0.703529,0.201247,-0.544706,0.0189673,-0.48285,0.8571,0.0149086,0.0164958,0.568181,5,0.1,26,1.1,3.61789,3.09812,0.634051,-0.847628,-0.0778694,-0.027031,0.0873506,0.00809133,0.00277534,0.0287409,0.55664,5,0.1,27,1.1,-2.29082,3.70513,0.56628,0.86323,0.268374,0.026245,0.0244975,-0.0158399,-0.00156462,0.0189372,1.11152,5,0.1,28,1.1,-3.11067,2.54474,0.637332,0.866026,-0.168988,-0.0213938,0,-0.0396669,-0.00501424,0.0315862,2.25314,5,0.1,29,1.1,1.11252,-0.727666,0.617895,0.456977,0.800061,0.0360961,-0.194319,-0.424497,-0.0192858,0.0130884,0.799851,5,0.1
0,1.2,1.57196,-0.5793,0.541401,-0.688437,-0.678341,0.00568181,-0.0312924,-0.0784695,0.00992417,0.0284815,2.1608,5,0.1,1,1.2,-0.646001,-1.50956,0.606536,0.863251,0.646949,-0.00349283,-0.0554621,-0.00220537,2.98023e-05,0.0344349,2.02436,5,0.1,2,1.2,-2.14186,-1.17696,0.601478,-0.859517,-0.491697,-0.00116974,0.130177,0.12058,0.000298023,0.0140199,1.30011,5,0.1,3,1.2,-3.14514,3.54828,0.588525,0.866026,0.264913,0.00605583,0,-0.00619888,-0.000149012,0.0183727,2.22728,5,0.1,4,1.2,3.6205,2.5485,0.610421,-0.522709,0.380284,-0.00878274,0.196457,-0.142813,0.00330806,0.0196973,0.341755,5,0.1,5,1.2,3.59351,-3.56334,0.552135,-0.02864,0.866026,0.0095427,0.000357628,0,-0.000119209,0.0348524,2.27133,5,0.1,6,1.2,0.815319,-1.61256,0.631728,-0.813095,-0.0315309,-0.0267252,0.305444,0.0118017,0.0100136,0.00811877,0.353872,5,0.1,7,1.2,4.14906,-0.502049,0.648054,-0.282037,0.866026,-0.0159651,0.0038147,0,0.000238419,0.0133831,2.22068,5,0.1,8,1.2,-3.37812,0.13148,0.619392,0.271535,-0.286244,-0.00551045,0.28801,0.678327,0.082016,0.0070312,0.20542,5,0.1,9,1.2,1.13718,3.11785,0.624689,0.859571,-0.00531673,-0.0120491,-0.129044,0.443816,0.0142753,0.0126857,2.29845,5,0.1,10,1.2,-1.84239,-3.59817,0.557755,0.162053,0.563604,0.035581,-0.0608563,0.230908,-0.0133514,0.00889217,0.246106,5,0.1,11,1.2,-0.764732,1.19995,0.592718,0.75952,0.31679,0.00603944,-0.113517,-0.00309944,-0.00226498,0.0299481,1.89479,5,0.1,12,1.2,-0.380506,-3.3,0.503097,0.0304312,0.445175,-0.0124454,-0.00108778,-0.101566,0.0274479,0.0342878,2.81846,5,0.1,13,1.2,1.73989,2.60139,0.596087,-0.454777,-0.169593,0.00329912,0.170946,0.063777,-0.0012517,0.00909113,0.353513,5,0.1,14,1.2,0.424593,1.83166,0.573541,0.35167,-0.405681,0.0222906,-1.00626,0.152349,-0.00834465,0.0106304,0.56537,5,0.1,15,1.2,1.75927,2.97086,0.592426,-0.845227,-0.416601,0.006181,-0.0720024,0.0393391,-0.00232458,0.0196679,1.0268,5,0.1,16,1.2,1.38461,-0.2,0.709364,-0.131649,0.41104,0.0289857,0.013113,-0.0476611,-0.00286102,0.0144408,2.41922,5,0.1,17,1.2,4.21834,-2.90269,0.572098,-0.182641,0.866026,0.00554919,0.00166893,0,-2.98023e-05,0.0169574,2.25016,5,0.1,18,1.2,0.436537,-0.442544,0.925063,0.0113413,0.246419,0.357938,-0.00426173,-0.0925809,-0.134498,0.0116507,0.17119,5,0.1,19,1.2,-1.02306,-2.4114,0.589713,0.297886,0.863039,0.0272393,-0.0622571,-0.0596046,-0.00566244,0.0095301,1.12864,5,0.1,20,1.2,-1.18207,1.95578,0.712284,0.253916,-0.275269,0.0339508,0.0247955,-0.0269413,0.00330806,0.0102234,0.101089,5,0.1,21,1.2,-3.72655,0.311102,0.587125,0.472105,0.85964,0.00786632,0.0333786,-0.127702,0.00149012,0.00983788,1.20473,5,0.1,22,1.2,-2.01305,3.29717,0.576997,0.76791,0.611639,0.013645,-0.263095,-0.167727,-0.00554323,0.0117878,0.765086,5,0.1,23,1.2,3.77224,1.65285,0.606122,-0.48393,0.86017,-0.0047639,0.106931,-0.117004,0.00110269,0.017175,0.986853,5,0.1,24,1.2,-1.57281,3.34786,0.637978,-0.0233918,-0.866026,-0.0114992,0.0106692,0,0.00524521,0.0159145,2.27154,5,0.1,25,1.2,-1.02915,2.21532,0.705493,0.152019,-0.456542,0.0202015,-0.491023,0.897288,0.00870228,0.0159223,0.741007,5,0.1,26,1.2,3.53388,3.0904,0.631372,-0.828719,-0.0761271,-0.0264287,0.311255,0.0286102,0.00992417,0.0301753,0.442486,5,0.1,27,1.2,-2.20453,3.73178,0.568887,0.859922,0.26347,0.0257641,-0.121951,-0.0889301,-0.00873208,0.01636,0.803264,5,0.1,28,1.2,-3.02407,2.5277,0.635175,0.866026,-0.171047,-0.0216544,0,0.00500679,0.000625849,0.0279965,2.23568,5,0.1,29,1.2,1.15713,-0.650187,0.621384,0.433779,0.745474,0.0334591,-0.279129,-0.666469,-0.033021,0.0133229,0.581143,5,0.1
0,1.3,1.50225,-0.64761,0.542058,-0.711046,-0.687821,0.00777151,-0.347532,-0.0763312,0.028871,0.0284815,2.1608,5,0.1,1,1.3,-0.559723,-1.44468,0.606185,0.863713,0.651557,-0.00351639,0.0304915,0.0564009,-0.000294298,0.0344349,2.02436,5,0.1,2,1.3,-2.22751,-1.22569,0.601363,-0.855703,-0.484083,-0.00114013,-0.0013262,0.0584498,0.000335276,0.0140199,1.30011,5,0.1,3,1.3,-3.05853,3.57481,0.589132,0.866026,0.266008,0.00608061,0,0.0133067,0.000305474,0.0183727,2.22728,5,0.1,4,1.3,3.56903,2.58583,0.609559,-0.507733,0.366166,-0.00845576,0.129178,-0.151381,0.0035055,0.0196973,0.341755,5,0.1,5,1.3,3.59064,-3.47674,0.553092,-0.028811,0.866026,0.00960054,-0.00213087,0,0.000718981,0.0348524,2.27133,5,0.1,6,1.3,0.735504,-1.61565,0.629105,-0.782901,-0.0303639,-0.0257347,0.323709,0.0125244,0.0106245,0.00811877,0.353872,5,0.1,7,1.3,4.12079,-0.415446,0.646454,-0.283624,0.866026,-0.0160531,-0.0194311,-3.57628e-06,-0.00108406,0.0133831,2.22068,5,0.1,8,1.3,-3.3498,0.10582,0.619273,0.291973,-0.230764,0.00323663,0.118285,0.449073,0.0892766,0.0070312,0.20542,5,0.1,9,1.3,1.22299,3.11911,0.623539,0.859996,0.0265393,-0.0110877,0.0786185,0.207081,0.0060387,0.0126857,2.29845,5,0.1,10,1.3,-1.82648,-3.54087,0.561247,0.156037,0.579777,0.0342608,-0.0645071,0.0766814,-0.0141524,0.00889217,0.246106,5,0.1,11,1.3,-0.689095,1.2324,0.593311,0.754652,0.338545,0.00581881,-0.0265166,0.375889,-0.00234321,0.0299481,1.89479,5,0.1,12,1.3,-0.377462,-3.25448,0.501993,0.0304881,0.477381,-0.0096214,0.000609085,0.636011,0.0284351,0.0342878,2.81846,5,0.1,13,1.3,1.69593,2.58409,0.596415,-0.418425,-0.181818,0.00328487,0.526838,-0.261486,0.000622123,0.00909113,0.353513,5,0.1,14,1.3,0.454757,1.79184,0.575729,0.252884,-0.390621,0.0214652,-0.931872,0.161469,-0.00886247,0.0106304,0.56537,5,0.1,15,1.3,1.67432,2.92923,0.593033,-0.85349,-0.417036,0.00595814,-0.0528917,-0.022009,-0.00233576,0.0196679,1.0268,5,0.1,16,1.3,1.3715,-0.157773,0.71225,-0.130453,0.444521,0.028724,0.0161976,0.616465,-0.00355393,0.0144408,2.41922,5,0.1,17,1.3,4.20003,-2.81609,0.572654,-0.1838,0.866026,0.00558617,-0.0142455,0,0.00045076,0.0169574,2.25016,5,0.1,18,1.3,0.437657,-0.418209,0.96041,0.0111096,0.241387,0.350626,-0.00115484,-0.0250302,-0.03637,0.0116507,0.17119,5,0.1,19,1.3,-0.993572,-2.32515,0.592409,0.291676,0.86343,0.026674,-0.0725426,0.0223368,-0.00660866,0.0095301,1.12864,5,0.1,20,1.3,-1.15652,1.92808,0.715699,0.256925,-0.278535,0.0343528,0.0225604,-0.0244677,0.00301003,0.0102234,0.101089,5,0.1,21,1.3,-3.67898,0.396653,0.58792,0.480487,0.852481,0.00802791,0.102043,-0.0601242,0.00133738,0.00983788,1.20473,5,0.1,22,1.3,-1.93735,3.35751,0.578342,0.747354,0.594588,0.0133071,-0.184767,-0.193089,-0.00209361,0.0117878,0.765086,5,0.1,23,1.3,3.72436,1.7385,0.605651,-0.473252,0.854073,-0.00465475,0.123665,-0.0499263,0.0012517,0.017175,0.986853,5,0.1,24,1.3,-1.57511,3.26126,0.63685,-0.0225581,-0.866026,-0.0110898,0.00716746,0,0.00351667,0.0159145,2.27154,5,0.1,25,1.3,-1.01634,2.17392,0.707557,0.104923,-0.373693,0.0210527,-0.443317,0.765324,0.00723451,0.0159223,0.741007,5,0.1,26,1.3,3.45347,3.08293,0.628778,-0.771412,-0.0732992,-0.0254474,0.794962,0.0302941,0.0105239,0.0301753,0.442486,5,0.1,27,1.3,-2.11897,3.75769,0.57142,0.852185,0.254636,0.0248973,-0.075087,-0.0961423,-0.00942871,0.01636,0.803264,5,0.1,28,1.3,-2.93746,2.51058,0.633007,0.866026,-0.17156,-0.0217204,0,-0.00596046,-0.000771135,0.0279965,2.23568,5,0.1,29,1.3,1.19929,-0.578702,0.624577,0.410629,0.686239,0.0304822,-0.203773,-0.544693,-0.0275895,0.0133229,0.581143,5,0.1
0,1.4,1.42938,-0.716538,0.542991,-0.74521,-0.687742,0.010927,-0.28193,0.101864,0.0320077,0.0123876,2.66351,5,0.1,1,1.4,-0.473264,-1.3794,0.605833,0.864353,0.651768,-0.00351667,-0.0334537,-0.0789762,0.000417233,0.0128073,2.00183,5,0.1,2,1.4,-2.31295,-1.27373,0.601251,-0.850803,-0.475442,-0.00109673,0.136971,0.133216,0.000596046,0.0123392,1.3286,5,0.1,3,1.4,-2.97193,3.60141,0.58974,0.866026,0.265068,0.00605881,0,-0.0427961,-0.000983477,0.0224328,2.22877,5,0.1,4,1.4,3.51897,2.6216,0.608733,-0.492418,0.348049,-0.0080362,0.195503,-0.218868,0.00503659,0.0229689,0.378105,5,0.1,5,1.4,3.58775,-3.39013,0.554053,-0.0287831,0.866026,0.00959188,0.00393391,0,-0.0012815,0.0245599,2.27133,5,0.1,6,1.4,0.65903,-1.61862,0.626591,-0.744154,-0.0288635,-0.0244617,0.467926,0.0181198,0.0153482,0.00795952,0.232926,5,0.1,7,1.4,4.0924,-0.328844,0.644847,-0.28317,0.866025,-0.0160262,0.0398159,1.43051e-05,0.00226498,0.0130021,2.22165,5,0.1,8,1.4,-3.32031,0.084731,0.62003,0.294948,-0.193245,0.0117108,-0.0585318,0.315361,0.0775158,0.0144639,0.252463,5,0.1,9,1.4,1.30934,3.1225,0.622454,0.865862,0.0386357,-0.0106514,0.00327826,0.0466108,0.00351667,0.0087671,1.27828,5,0.1,10,1.4,-1.81124,-3.48287,0.564594,0.148314,0.576425,0.0325665,-0.0932217,-0.153065,-0.0204742,0.0101542,0.16279,5,0.1,11,1.4,-0.613905,1.26834,0.59388,0.746939,0.381032,0.00553876,-0.157893,0.426769,-0.00339746,0.0271442,1.56731,5,0.1,12,1.4,-0.374418,-3.20309,0.50117,0.0302777,0.55306,-0.00686198,-0.00591576,0.793934,0.0263155,0.0331722,2.52595,5,0.1,13,1.4,1.65711,2.56438,0.596747,-0.354773,-0.213641,0.00336319,0.721931,-0.33927,0.000655651,0.0059644,0.320411,5,0.1,14,1.4,0.475742,1.75368,0.577826,0.170889,-0.371292,0.0204042,-0.689715,0.233412,-0.0128448,0.00874551,0.503184,5,0.1,15,1.4,1.58901,2.88749,0.593616,-0.84902,-0.416553,0.00567883,0.169754,0.0501871,-0.00339746,0.0108273,0.719886,5,0.1,16,1.4,1.35858,-0.109826,0.715096,-0.127506,0.516583,0.0280753,0.0463724,0.74809,-0.0101924,0.0108483,1.92982,5,0.1,17,1.4,4.18163,-2.72949,0.573214,-0.18369,0.866026,0.00558347,0.0238419,0,-0.000715256,0.0150386,2.25041,5,0.1,18,1.4,0.438762,-0.394198,0.995287,0.0109762,0.23849,0.346421,-0.00208616,-0.0451505,-0.0656545,0.0138702,0.100217,5,0.1,19,1.4,-0.964855,-2.23885,0.595035,0.28161,0.860041,0.0257552,-0.135869,-0.119567,-0.0123978,0.00755328,0.817439,5,0.1,20,1.4,-1.13081,1.9002,0.719137,0.256267,-0.277823,0.0342652,-0.0444055,0.0481606,-0.00596046,0.00911612,0.186606,5,0.1,21,1.4,-3.63052,0.481413,0.588727,0.487006,0.840031,0.008066,0.00548363,-0.220076,-0.000923872,0.0109838,0.862482,5,0.1,22,1.4,-1.86365,3.41583,0.579662,0.724712,0.569737,0.0130743,-0.293911,-0.317097,-0.00315905,0.00905951,0.530217,5,0.1,23,1.4,3.6778,1.82347,0.605193,-0.456369,0.842538,-0.00448674,0.225544,-0.212133,0.00226498,0.0172971,0.693817,5,0.1,24,1.4,-1.57733,3.17465,0.63576,-0.0217617,-0.866026,-0.010699,0.00965595,0,0.00473857,0.00824999,0.358402,5,0.1,25,1.4,-1.00793,2.1402,0.709689,0.0645727,-0.302476,0.0214651,-0.358999,0.6634,0.000268221,0.0158932,0.287438,5,0.1,26,1.4,3.38084,3.07577,0.626292,-0.676924,-0.0696778,-0.0241876,1.06299,0.0439882,0.0151992,0.0291813,0.404103,5,0.1,27,1.4,-2.03433,3.78261,0.573856,0.837743,0.242847,0.0237435,-0.243068,-0.145197,-0.0142455,0.0172043,0.563284,5,0.1,28,1.4,-2.85086,2.49344,0.630837,0.866026,-0.170654,-0.0216067,0,0.0303984,0.0038445,0.0298209,1.77255,5,0.1,29,1.4,1.23933,-0.512777,0.627489,0.389618,0.632012,0.0277579,-0.23067,-0.5586,-0.0276268,0.00970124,0.429055,5,0.1
0,1.5,1.35467,-0.78595,0.54426,-0.737645,-0.709502,0.014555,0.394307,-0.440311,0.038106,0.0123876,2.66351,5,0.1,1,1.5,-0.386845,-1.31439,0.605482,0.864814,0.649646,-0.00350634,0.015609,-0.0012666,-3.72529e-06,0.0128073,2.00183,5,0.1,2,1.5,-2.3977,-1.32087,0.601144,-0.846203,-0.46911,-0.00103991,0.00675023,0.0247508,0.000573695,0.0123392,1.3286,5,0.1,3,1.5,-2.88533,3.62779,0.590343,0.866026,0.262898,0.00600917,0,-0.01508,-0.000346452,0.0224328,2.22877,5,0.1,4,1.5,3.47052,2.6552,0.607952,-0.477956,0.3227,-0.00759866,0.119552,-0.288069,0.00403821,0.0229689,0.378105,5,0.1,5,1.5,3.58488,-3.30353,0.555009,-0.0286512,0.866026,0.00955081,0.000357628,0,-0.000100583,0.0245599,2.27133,5,0.1,6,1.5,0.586864,-1.62142,0.624218,-0.699519,-0.0271346,-0.022997,0.445891,0.0172704,0.0146404,0.00795952,0.232926,5,0.1,7,1.5,4.06419,-0.242241,0.643251,-0.281642,0.866025,-0.0159388,0.00685453,0,0.000394881,0.0130021,2.22165,5,0.1,8,1.5,-3.29153,0.0663803,0.621468,0.276721,-0.178867,0.0159649,-0.289291,0.00858955,0.012368,0.0144639,0.252463,5,0.1,9,1.5,1.39362,3.12708,0.621497,0.799128,0.0570077,-0.00773231,-1.22491,0.286981,0.0494532,0.0087671,1.27828,5,0.1,10,1.5,-1.79686,-3.42638,0.567752,0.139421,0.549688,0.0306133,-0.0888482,-0.375673,-0.0195131,0.0101542,0.16279,5,0.1,11,1.5,-0.540875,1.30889,0.594417,0.70589,0.431767,0.00521634,-0.625137,0.540197,-0.00321865,0.0271442,1.56731,5,0.1,12,1.5,-0.371412,-3.14312,0.500609,0.0298932,0.650972,-0.00443328,-0.0033211,1.07421,0.0219867,0.0331722,2.52595,5,0.1,13,1.5,1.62552,2.54148,0.597089,-0.274781,-0.242567,0.003481,0.852108,-0.230059,0.00141934,0.0059644,0.320411,5,0.1,14,1.5,0.489801,1.71768,0.579805,0.115372,-0.349027,0.0191791,-0.389768,0.22243,-0.0122413,0.00874551,0.503184,5,0.1,15,1.5,1.50489,2.84599,0.594168,-0.833091,-0.413668,0.00535799,0.181541,0.0282228,-0.00319257,0.0108273,0.719886,5,0.1,16,1.5,1.34605,-0.0538956,0.717855,-0.123104,0.605363,0.0271073,0.0460744,0.950551,-0.0101402,0.0108483,1.92982,5,0.1,17,1.5,4.16331,-2.64288,0.57377,-0.182965,0.866026,0.00556204,0.0013113,0,-3.72529e-05,0.0150386,2.25041,5,0.1,18,1.5,0.439851,-0.370532,1.02966,0.0108139,0.234977,0.341312,-0.0016652,-0.0360627,-0.052426,0.0138702,0.100217,5,0.1,19,1.5,-0.937347,-2.15325,0.597551,0.268591,0.852735,0.0245669,-0.133276,-0.06935,-0.0121705,0.00755328,0.817439,5,0.1,20,1.5,-1.10556,1.87277,0.72252,0.247044,-0.26956,0.0332444,-0.138827,0.119627,-0.0147633,0.00911612,0.186606,5,0.1,21,1.5,-3.5817,0.56446,0.589529,0.489714,0.821411,0.00798227,0.0231564,-0.188233,-0.00108406,0.0109838,0.862482,5,0.1,22,1.5,-1.7925,3.47127,0.580958,0.699158,0.539234,0.0128692,-0.24683,-0.309482,-0.00163913,0.00905951,0.530217,5,0.1,23,1.5,3.63324,1.90681,0.604755,-0.434757,0.82467,-0.00427058,0.220791,-0.181407,0.0021942,0.0172971,0.693817,5,0.1,24,1.5,-1.57872,3.08908,0.634868,7.7486e-05,-0.835911,-0.00585355,0.381023,0.571847,0.082694,0.00824999,0.358402,5,0.1,25,1.5,-1.00315,2.11288,0.711864,0.0323428,-0.247477,0.0222624,-0.284873,0.453562,0.0130273,0.0158932,0.287438,5,0.1,26,1.5,3.31886,3.06886,0.623947,-0.559935,-0.0699308,-0.0227375,1.222,-0.0371784,0.0144839,0.0291813,0.404103,5,0.1,27,1.5,-1.95164,3.80619,0.576162,0.816401,0.228971,0.0223829,-0.217922,-0.139341,-0.0136532,0.0172043,0.563284,5,0.1,28,1.5,-2.76426,2.47658,0.628692,0.866026,-0.166,-0.0212935,0,0.0653416,0.00337139,0.0298209,1.77255,5,0.1,29,1.5,1.27725,-0.451994,0.630145,0.369704,0.586596,0.0255135,-0.183642,-0.381619,-0.0186898,0.00970124,0.429055,5,0.1
0,1.6,1.28373,-0.859343,0.545899,-0.673661,-0.758888,0.0181258,0.851274,-0.474989,0.0315607,0.0125217,0.6307,5,0.1,1,1.6,-0.30036,-1.24956,0.605132,0.863907,0.645065,-0.0034824,-0.0423563,-0.117064,0.000625849,0.0115229,1.49237,5,0.1,2,1.6,-2.48215,-1.36763,0.601043,-0.840604,-0.465107,-0.000976026,0.141859,0.0778437,0.000685453,0.0073815,1.36594,5,0.1,3,1.6,-2.79873,3.65395,0.590941,0.866026,0.259578,0.00593364,0,-0.0613928,-0.00140071,0.0159787,2.06596,5,0.1,4,1.6,3.42336,2.68591,0.607213,-0.464094,0.290549,-0.00717342,0.175834,-0.353694,0.00467896,0.0205911,0.30892,5,0.1,5,1.6,3.58203,-3.21693,0.555962,-0.0284195,0.866026,0.00947714,0.00524521,0,-0.00178814,0.0209888,2.27135,5,0.1,6,1.6,0.519246,-1.62404,0.621995,-0.651444,-0.0252724,-0.0214174,0.529795,0.0205636,0.0174046,0.0100557,0.298686,5,0.1,7,1.6,4.03611,-0.155639,0.641662,-0.279045,0.866025,-0.0157923,0.0562668,0,0.00321865,0.0126737,2.22353,5,0.1,8,1.6,-3.26557,0.0482767,0.623052,0.240183,-0.18508,0.0150621,-0.427127,-0.10477,-0.0264943,0.0143815,0.190161,5,0.1,9,1.6,1.46615,3.13439,0.62101,0.641343,0.0900507,-0.00172406,-1.83916,0.347733,0.066489,0.0113597,2.52992,5,0.1,10,1.6,-1.78338,-3.37361,0.570712,0.129843,0.50258,0.0285104,-0.105619,-0.559688,-0.023216,0.00867964,0.444879,5,0.1,11,1.6,-0.473927,1.35463,0.594922,0.628702,0.480846,0.00486821,-0.888705,0.406921,-0.0038445,0.0290425,1.29601,5,0.1,12,1.6,-0.368445,-3.0728,0.500267,0.0293501,0.752312,-0.00250489,-0.00862777,0.886798,0.0164807,0.0300345,2.33459,5,0.1,13,1.6,1.60234,2.51631,0.597443,-0.188929,-0.258195,0.00359863,0.844896,-0.0773668,0.000715256,0.012365,0.272035,5,0.1,14,1.6,0.5,1.68394,0.581659,0.0944212,-0.325045,0.017859,-0.0452697,0.264347,-0.0145137,0.0104997,0.417277,5,0.1,15,1.6,1.42273,2.80487,0.594687,-0.807238,-0.407398,0.00501126,0.357568,0.111461,-0.0038445,0.0106649,0.49268,5,0.1,16,1.6,1.334,0.0112081,0.720509,-0.117555,0.693406,0.0258848,0.0680089,0.754422,-0.0149608,0.0106375,1.4769,5,0.1,17,1.6,4.14506,-2.55628,0.574325,-0.181603,0.866026,0.00552088,0.0333786,0,-0.00101328,0.0154229,2.25101,5,0.1,18,1.6,0.440921,-0.347273,1.06345,0.0105582,0.229429,0.333253,-0.0037998,-0.0824183,-0.119746,0.0117161,0.133337,5,0.1,19,1.6,-0.911208,-2.06853,0.599942,0.25349,0.838912,0.0231862,-0.174642,-0.23663,-0.0159442,0.00821542,0.574232,5,0.1,20,1.6,-1.0817,1.84655,0.725754,0.228828,-0.253564,0.0312716,-0.223517,0.201106,-0.0248253,0.0107329,0.144213,5,0.1,21,1.6,-3.53275,0.645473,0.59032,0.48731,0.796326,0.0077948,-0.0888109,-0.338107,-0.00292063,0.00962992,0.600603,5,0.1,22,1.6,-1.72394,3.52355,0.582235,0.670335,0.50509,0.0126272,-0.350296,-0.384569,-0.00369549,0.0104886,0.361969,5,0.1,23,1.6,3.59096,1.98818,0.60434,-0.409859,0.800151,-0.0040248,0.286698,-0.333667,0.00283122,0.0166866,0.477064,5,0.1,24,1.6,-1.57651,3.00908,0.63476,0.0462472,-0.75745,0.00415146,0.50652,0.969887,0.11,0.013099,2.47396,5,0.1,25,1.6,-1.00121,2.09016,0.714159,0.0076741,-0.208741,0.0236094,-0.208378,0.334382,0.0119507,0.0166431,0.244665,5,0.1,26,1.6,3.26889,3.06163,0.621749,-0.441253,-0.0750303,-0.0211746,1.11902,-0.0555515,0.0171959,0.0292188,0.361238,5,0.1,27,1.6,-1.87128,3.82836,0.578328,0.788411,0.213808,0.0208989,-0.365257,-0.168443,-0.0165105,0.0075835,0.78205,5,0.1,28,1.6,-2.67766,2.46038,0.626585,0.866026,-0.157195,-0.0207737,0,0.112414,0.0076592,0.0275947,0.110569,5,0.1,29,1.6,1.31328,-0.395164,0.632608,0.350165,0.550175,0.0237703,-0.218391,-0.37004,-0.0172257,0.00813105,0.308603,5,0.1
0,1.7,1.22106,-0.937282,0.547876,-0.576002,-0.796016,0.0214312,1.07507,-0.243273,0.0324398,0.0125217,0.6307,5,0.1,1,1.7,-0.213993,-1.18551,0.604787,0.864302,0.636392,-0.0034363,0.0114955,-0.0866055,0.000458211,0.0115229,1.49237,5,0.1,2,1.7,-2.56585,-1.41404,0.600948,-0.835489,-0.465228,-0.000911299,0.0115186,-0.0455678,0.000637025,0.0073815,1.36594,5,0.1,3,1.7,-2.71212,3.67968,0.591529,0.866026,0.25538,0.00583809,0,-0.035882,-0.000819564,0.0159787,2.06596,5,0.1,4,1.7,3.37811,2.71317,0.606517,-0.438307,0.254253,-0.00676559,0.335574,-0.371039,0.00376627,0.0205911,0.30892,5,0.1,5,1.7,3.5792,-3.13032,0.556905,-0.0281833,0.866026,0.00939537,0.00113249,0,-0.000402331,0.0209888,2.27135,5,0.1,6,1.7,0.456468,-1.62662,0.619936,-0.606223,-0.0277897,-0.0197855,0.402287,-0.0603423,0.0158213,0.0100557,0.298686,5,0.1,7,1.7,4.00839,-0.0690361,0.640093,-0.276141,0.866025,-0.0156254,0.0178069,2.98023e-07,0.00102818,0.0126737,2.22353,5,0.1,8,1.7,-3.24383,0.0290279,0.624375,0.193631,-0.201436,0.011001,-0.491023,-0.197874,-0.0513494,0.0143815,0.190161,5,0.1,9,1.7,1.5234,3.1446,0.621102,0.523796,0.109521,0.00294866,-0.627063,0.0606775,0.0292845,0.0113597,2.52992,5,0.1,10,1.7,-1.7709,-3.32654,0.573452,0.119941,0.435631,0.0263344,-0.0959411,-0.758067,-0.0210851,0.00867964,0.444879,5,0.1,11,1.7,-0.415957,1.40471,0.595391,0.527683,0.519699,0.00450835,-1.07112,0.340953,-0.00349432,0.0290425,1.29601,5,0.1,12,1.7,-0.365544,-2.99366,0.500089,0.0287355,0.824633,-0.00115708,-0.00517443,0.539929,0.0105947,0.0300345,2.33459,5,0.1,13,1.7,1.58676,2.49057,0.597804,-0.130858,-0.252559,0.00357665,0.355996,0.173762,-0.00112504,0.012365,0.272035,5,0.1,14,1.7,0.50984,1.65269,0.583375,0.107567,-0.300264,0.0164981,0.266392,0.24014,-0.0131913,0.0104997,0.417277,5,0.1,15,1.7,1.3437,2.76463,0.59517,-0.77342,-0.397643,0.00465224,0.345655,0.100315,-0.0034757,0.0106649,0.49268,5,0.1,16,1.7,1.32256,0.0844612,0.723026,-0.111152,0.771526,0.0244757,0.0637099,0.748434,-0.0140294,0.0106375,1.4769,5,0.1,17,1.7,4.12699,-2.46968,0.574874,-0.180119,0.866026,0.0054758,0.00703335,0,-0.000216067,0.0154229,2.25101,5,0.1,18,1.7,0.441958,-0.324563,1.09618,0.0101733,0.226102,0.32112,-0.00421144,-0.0022985,-0.132881,0.0117161,0.133337,5,0.1,19,1.7,-0.886692,-1.98569,0.602185,0.23704,0.818269,0.021684,-0.161678,-0.210725,-0.0147745,0.00821542,0.574232,5,0.1,20,1.7,-1.06012,1.82215,0.728764,0.201074,-0.234768,0.0289519,-0.322238,0.182033,-0.0224598,0.0107329,0.144213,5,0.1,21,1.7,-3.48441,0.723537,0.591085,0.479703,0.765446,0.00751838,-0.0838935,-0.308726,-0.00287592,0.00962992,0.600603,5,0.1,22,1.7,-1.65851,3.57218,0.583482,0.639083,0.46779,0.0123246,-0.300147,-0.372931,-0.00292063,0.0104886,0.361969,5,0.1,23,1.7,3.55134,2.06664,0.603951,-0.382863,0.769672,-0.00375872,0.265032,-0.305369,0.00260398,0.0166866,0.477064,5,0.1,24,1.7,-1.56986,2.93655,0.635602,0.0818662,-0.706909,0.0115821,0.220999,0.144899,0.0428259,0.013099,2.47396,5,0.1,25,1.7,-1.00141,2.07068,0.716571,-0.0107864,-0.183238,0.0245147,-0.159718,0.191361,0.00541285,0.0166431,0.244665,5,0.1,26,1.7,3.23008,3.05377,0.619713,-0.338912,-0.0824515,-0.019562,0.881836,-0.0837892,0.015635,0.0292188,0.361238,5,0.1,27,1.7,-1.79585,3.84946,0.580299,0.706254,0.213026,0.0181975,-1.19751,0.113189,-0.0355169,0.0075835,0.78205,5,0.1,28,1.7,-2.59173,2.44537,0.624544,0.846063,-0.141538,-0.0200705,-0.391454,0.193939,0.00717118,0.0275947,0.110569,5,0.1,29,1.7,1.34729,-0.341761,0.63491,0.330714,0.519585,0.0223617,-0.183694,-0.267318,-0.0120886,0.00813105,0.308603,5,0.1
0,1.8,1.16902,-1.01756,0.550169,-0.463527,-0.803667,0.0242516,1.15252,0.104785,0.0225008,0.0126756,1.77792,5,0.1,1,1.8,-0.127665,-1.12246,0.604446,0.860034,0.622633,-0.00336319,-0.119838,-0.209391,0.00113249,0.0102734,1.07827,5,0.1,2,1.8,-2.64921,-1.46076,0.600861,-0.82956,-0.468239,-0.000844896,0.143409,0.0103712,0.000745058,0.00788082,0.682856,5,0.1,3,1.8,-2.62552,3.70499,0.592108,0.866026,0.250143,0.00571907,0,-0.0783205,-0.00178814,0.0130093,1.61703,5,0.1,4,1.8,3.33619,2.73672,0.60586,-0.397903,0.216603,-0.00637174,0.4673,-0.380516,0.00429153,0.0172605,0.295045,5,0.1,5,1.8,3.57639,-3.04372,0.557841,-0.0279009,0.866026,0.0093013,0.00560284,0,-0.00190735,0.0238976,2.27137,5,0.1,6,1.8,0.397832,-1.62977,0.618038,-0.566237,-0.0354707,-0.0181556,0.417233,-0.0850558,0.0171959,0.00709528,0.21396,5,0.1,7,1.8,3.98091,0.0175665,0.638538,-0.272745,0.866026,-0.0154316,0.061512,-3.57628e-06,0.00348687,0.0138093,2.2257,5,0.1,8,1.8,-3.22694,0.00790636,0.625201,0.144261,-0.220417,0.00539273,-0.486612,-0.163838,-0.0581741,0.0175334,0.150644,5,0.1,9,1.8,1.57386,3.15552,0.621498,0.495309,0.105673,0.00455976,-0.0336766,-0.121474,0.00488758,0.0188546,1.98953,5,0.1,10,1.8,-1.75939,-3.28695,0.575978,0.110054,0.354832,0.0241637,-0.104129,-0.840187,-0.022918,0.00972438,0.437871,5,0.1,11,1.8,-0.368462,1.45808,0.595824,0.423989,0.544146,0.00414848,-0.968218,0.128269,-0.0038445,0.0276013,1.1455,5,0.1,12,1.8,-0.3627,-2.90916,0.500017,0.0280574,0.85873,-0.000354648,-0.00947714,0.145912,0.00560284,0.0314495,2.27454,5,0.1,13,1.8,1.57492,2.46648,0.598153,-0.110611,-0.226474,0.00338107,0.0805855,0.333786,-0.00274181,0.014826,0.17391,5,0.1,14,1.8,0.52216,1.62389,0.584958,0.140299,-0.275519,0.0151381,0.356078,0.260711,-0.0143051,0.00980132,0.331951,5,0.1,15,1.8,1.26825,2.72546,0.595617,-0.733608,-0.384521,0.00429004,0.468671,0.173569,-0.0038147,0.0124756,0.332103,5,0.1,16,1.8,1.31178,0.164946,0.725399,-0.104201,0.832985,0.0229448,0.0778437,0.43919,-0.0171363,0.0127245,1.08626,5,0.1,17,1.8,4.10904,-2.38308,0.57542,-0.178361,0.866026,0.00542104,0.0355244,0,-0.00104308,0.0170699,2.25168,5,0.1,18,1.8,0.442952,-0.301954,1.12754,0.0096634,0.225829,0.30503,-0.00619888,-0.0164062,-0.195503,0.0104851,0.269593,5,0.1,19,1.8,-0.863824,-1.90511,0.604277,0.219926,0.790951,0.0201195,-0.185609,-0.359297,-0.0169575,0.0130992,0.394513,5,0.1,20,1.8,-1.04173,1.7996,0.731545,0.166097,-0.215945,0.0266299,-0.369489,0.199437,-0.0245869,0.0126427,0.329948,5,0.1,21,1.8,-3.43698,0.798392,0.591821,0.467086,0.729661,0.00717491,-0.182748,-0.426948,-0.00417233,0.0100437,0.415686,5,0.1,22,1.8,-1.59619,3.61704,0.584697,0.606009,0.428599,0.0119478,-0.379026,-0.418544,-0.00500679,0.00959247,0.244739,5,0.1,23,1.8,3.51442,2.14193,0.603589,-0.35488,0.734127,-0.00348389,0.302553,-0.425696,0.00298023,0.0145747,0.323382,5,0.1,24,1.8,-1.56094,2.86592,0.636893,0.0932693,-0.710112,0.01349,0.020206,-0.129342,-0.00107288,0.0158169,2.42471,5,0.1,25,1.8,-1.0032,2.05319,0.719033,-0.024116,-0.167704,0.024575,-0.106454,0.131369,-0.00467896,0.0156982,0.369322,5,0.1,26,1.8,3.2,3.04513,0.617836,-0.268739,-0.0902116,-0.0179514,0.529051,-0.0647306,0.0170171,0.00625561,0.433174,5,0.1,27,1.8,-1.73204,3.87153,0.581924,0.563455,0.229478,0.0141546,-1.59341,0.185609,-0.04372,0.00846406,0.432892,5,0.1,28,1.8,-2.50967,2.43228,0.622577,0.789505,-0.119656,-0.0192091,-0.72968,0.237823,0.01055,0.0275495,0.0378989,5,0.1,29,1.8,1.37942,-0.291141,0.637087,0.311214,0.49233,0.0211552,-0.215411,-0.296056,-0.0128448,0.0120239,0.223876,5,0.1
0,1.9,1.12674,-1.09711,0.552707,-0.396706,-0.784215,0.026457,0.273965,0.294879,0.0199527,0.0126756,1.77792,5,0.1,1,1.9,-0.0420535,-1.06115,0.604115,0.853143,0.603903,-0.00326214,-0.0617474,-0.189655,0.00102445,0.0102734,1.07827,5,0.1,2,1.9,-2.73148,-1.50715,0.60078,-0.815399,-0.455742,-0.000775699,0.170603,0.233546,0.000666827,0.00788082,0.682856,5,0.1,3,1.9,-2.53892,3.72966,0.592672,0.865936,0.243507,0.00556754,-0.00357628,-0.0651181,-0.00148639,0.0130093,1.61703,5,0.1,4,1.9,3.29902,2.75654,0.605242,-0.343123,0.180306,-0.00598477,0.612155,-0.346228,0.00367686,0.0172605,0.295045,5,0.1,5,1.9,3.57362,-2.95712,0.558765,-0.0276424,0.866026,0.00921208,0.0012517,0,-0.000432134,0.0238976,2.27137,5,0.1,6,1.9,0.343095,-1.6338,0.616304,-0.529907,-0.0456758,-0.0165624,0.331823,-0.111043,0.0151582,0.00709528,0.21396,5,0.1,7,1.9,3.95383,0.104169,0.637006,-0.269427,0.866025,-0.0152437,0.0206828,2.98023e-07,0.00116974,0.0138093,2.2257,5,0.1,8,1.9,-3.21487,-0.0149834,0.625439,0.0980657,-0.237261,-0.00068685,-0.430509,-0.157281,-0.0611655,0.0175334,0.150644,5,0.1,9,1.9,1.62432,3.16525,0.621945,0.522609,0.0870008,0.00411123,0.491701,-0.238016,-0.0121221,0.0188546,1.98953,5,0.1,10,1.9,-1.74888,-3.25568,0.578286,0.100406,0.270693,0.0220411,-0.0918135,-0.828817,-0.0201873,0.00972438,0.437871,5,0.1,11,1.9,-0.330654,1.51229,0.59622,0.336289,0.532449,0.00379272,-0.727203,-0.328124,-0.00338256,0.0276013,1.1455,5,0.1,12,1.9,-0.359931,-2.82284,0.500004,0.0273887,0.86557,3.44589e-05,-0.00539795,0.018239,0.00239909,0.0314495,2.27454,5,0.1,13,1.9,1.5637,2.44568,0.598477,-0.118191,-0.188244,0.0030851,-0.195086,0.418603,-0.00318885,0.014826,0.17391,5,0.1,14,1.9,0.538212,1.59757,0.586404,0.182342,-0.251365,0.0138124,0.453081,0.229865,-0.012625,0.00980132,0.331951,5,0.1,15,1.9,1.19712,2.68782,0.596028,-0.68964,-0.368517,0.00393661,0.433005,0.160173,-0.00337139,0.0124756,0.332103,5,0.1,16,1.9,1.30173,0.249897,0.727613,-0.0969391,0.860872,0.0213457,0.0704527,0.131339,-0.0155196,0.0127245,1.08626,5,0.1,17,1.9,4.09131,-2.29647,0.575959,-0.176743,0.866026,0.00537457,0.00751019,0,-0.000204891,0.0170699,2.25168,5,0.1,18,1.9,0.443887,-0.279727,1.15706,0.00903611,0.216176,0.285241,-0.00653975,-0.168223,-0.206396,0.0104851,0.269593,5,0.1,19,1.9,-0.842711,-1.82769,0.606208,0.202649,0.757885,0.0185404,-0.166096,-0.330187,-0.0151843,0.0130992,0.394513,5,0.1,20,1.9,-1.02699,1.77897,0.734089,0.128421,-0.196841,0.0242749,-0.37688,0.187263,-0.0230819,0.0126427,0.329948,5,0.1,21,1.9,-3.39136,0.869349,0.592519,0.443742,0.690127,0.00678254,-0.286698,-0.387803,-0.00390038,0.0100437,0.415686,5,0.1,22,1.9,-1.53737,3.65793,0.585869,0.570928,0.39021,0.0114966,-0.34225,-0.361562,-0.00447035,0.00959247,0.244739,5,0.1,23,1.9,3.48038,2.21331,0.603254,-0.326257,0.693734,-0.00320785,0.278786,-0.404283,0.00264496,0.0145747,0.323382,5,0.1,24,1.9,-1.55171,2.79332,0.638198,0.0895647,-0.749116,0.0122907,-0.086166,-0.558645,-0.0210255,0.0158169,2.42471,5,0.1,25,1.9,-1.00611,2.03688,0.721463,-0.033685,-0.15992,0.023945,-0.0828579,0.0390559,-0.00844151,0.0156982,0.369322,5,0.1,26,1.9,3.17548,3.03685,0.616179,-0.224258,-0.0662129,-0.0147397,0.373691,0.482455,0.0440478,0.00625561,0.433174,5,0.1,27,1.9,-1.68389,3.89565,0.58312,0.398376,0.254514,0.00978298,-1.66753,0.284806,-0.042893,0.00846406,0.432892,5,0.1,28,1.9,-2.4345,2.42153,0.620694,0.712388,-0.0950057,-0.0185493,-0.81332,0.250474,0.00400841,0.0275495,0.0378989,5,0.1,29,1.9,1.40954,-0.243645,0.639145,0.291703,0.456001,0.02007,-0.185497,-0.394533,-0.00977516,0.0120239,0.223876,5,0.1
0,2,1.0876,-1.17368,0.555437,-0.392672,-0.743139,0.027965,-0.122786,0.531554,0.00911951,0.0125226,1.35922,5,0.1,1,2,0.0427549,-1.00183,0.603795,0.840259,0.580584,-0.00313669,-0.226421,-0.293434,0.00157952,0.0112885,0.756125,5,0.1,2,2,-2.81192,-1.55123,0.600705,-0.790304,-0.422812,-0.000707805,0.352144,0.418425,0.000685453,0.0113193,0.506849,5,0.1,3,2,-2.45237,3.75364,0.59322,0.864595,0.235313,0.00538081,-0.0287294,-0.106096,-0.00241399,0.0166903,1.2423,5,0.1,4,2,3.2679,2.77289,0.604663,-0.278413,0.147229,-0.00559837,0.668764,-0.315785,0.00417233,0.015366,0.304309,5,0.1,5,2,3.57086,-2.87052,0.559683,-0.0273705,0.866026,0.00911951,0.00560284,0,-0.00181794,0.0246275,2.27139,5,0.1,6,2,0.291772,-1.63891,0.614724,-0.496041,-0.0562876,-0.0150397,0.361383,-0.0953078,0.0156462,0.0092457,0.572015,5,0.1,7,2,3.92703,0.190772,0.63549,-0.265902,0.866025,-0.0150442,0.0610352,0,0.00342727,0.012567,2.22786,5,0.1,8,2,-3.20708,-0.0393794,0.625074,0.0592411,-0.249209,-0.0064522,-0.342131,-0.0707939,-0.0525117,0.0209668,0.204618,5,0.1,9,2,1.67931,3.17266,0.62228,0.578222,0.0605643,0.00244528,0.554204,-0.279427,-0.0197887,0.0203644,1.57191,5,0.1,10,2,-1.7393,-3.23264,0.58039,0.0911832,0.191456,0.0200152,-0.0946522,-0.746012,-0.0208318,0.0202761,0.435436,5,0.1,11,2,-0.3,1.56337,0.596583,0.283316,0.484642,0.0034526,-0.343189,-0.600874,-0.00354648,0.0415427,0.978088,5,0.1,12,2,-0.357223,-2.73625,0.500015,0.0267223,0.866026,0.000163913,-0.0090003,0,0.000357628,0.030152,2.27188,5,0.1,13,2,1.55071,2.429,0.598768,-0.143069,-0.144953,0.00274479,-0.274003,0.437737,-0.00366569,0.018404,0.11815,5,0.1,14,2,0.558657,1.57358,0.587722,0.225423,-0.22828,0.0125438,0.385255,0.237048,-0.0129938,0.0107183,0.255642,5,0.1,15,2,1.13041,2.65184,0.596405,-0.643262,-0.350195,0.00359565,0.509679,0.21565,-0.00354648,0.0161558,0.222166,5,0.1,16,2,1.2924,0.336263,0.729668,-0.0895977,0.863358,0.0197276,0.0784993,-0.0533462,-0.0172555,0.0184605,0.777163,5,0.1,17,2,4.0737,-2.20987,0.576495,-0.175035,0.866026,0.00532418,0.0345707,0,-0.00107288,0.0180681,2.25232,5,0.1,18,2,0.444756,-0.259143,1.18449,0.00832379,0.19379,0.262755,-0.00782311,-0.271916,-0.247061,0.0112212,0.256104,5,0.1,19,2,-0.823286,-1.75369,0.607986,0.185668,0.720176,0.0169888,-0.177741,-0.443339,-0.0162721,0.00728467,0.26715,5,0.1,20,2,-1.016,1.76023,0.736399,0.091967,-0.177729,0.0219196,-0.346899,0.198066,-0.0244081,0.00926117,0.325648,5,0.1,21,2,-3.3486,0.936327,0.593176,0.409454,0.64805,0.00635684,-0.399232,-0.470191,-0.00473857,0.0103281,0.317299,5,0.1,22,2,-1.48206,3.69516,0.586994,0.534251,0.354195,0.0109777,-0.404656,-0.367284,-0.00622869,0.00891238,0.164614,5,0.1,23,2,3.44917,2.28055,0.602947,-0.297642,0.649571,-0.00293851,0.299454,-0.494003,0.00280142,0.0147929,0.228166,5,0.1,24,2,-1.5433,2.71553,0.639302,0.0775278,-0.805819,0.00962615,-0.14776,-0.507116,-0.0306964,0.0175351,2.41006,5,0.1,25,2,-1.00984,2.02103,0.723805,-0.0403583,-0.157315,0.0228018,-0.049293,0.0239611,-0.0147223,0.0165862,0.764779,5,0.1,26,2,3.15475,3.03312,0.614949,-0.191671,-0.00483394,-0.00970811,0.288129,0.696421,0.0540912,0.00825747,0.304441,5,0.1,27,2,-1.65223,3.92248,0.58389,0.23706,0.281197,0.00571609,-1.52838,0.226855,-0.0377893,0.0147135,0.805893,5,0.1,28,2,-2.36747,2.41327,0.618858,0.62691,-0.0703871,-0.018172,-0.894785,0.238061,0.00452995,0.0304066,0.107719,5,0.1,29,2,1.43776,-0.2,0.641102,0.272301,0.417205,0.0190407,-0.210047,-0.37954,-0.0114143,0.0106468,0.162725,5,0.1
0,2.1,1.04693,-1.24528,0.558278,-0.426622,-0.688137,0.0288043,-0.487514,0.57862,0.00635535,0.0125226,1.35922,5,0.1,1,2.1,0.125785,-0.945151,0.603488,0.820795,0.553479,-0.00299094,-0.198111,-0.268687,0.00144914,0.0112885,0.756125,5,0.1,2,2.1,-2.88926,-1.59105,0.600638,-0.756611,-0.370334,-0.000644475,0.347137,0.611864,0.000596046,0.0113193,0.506849,5,0.1,3,2.1,-2.366,3.7765,0.593749,0.86247,0.220761,0.0052291,-0.0510216,-0.182703,-0.000972301,0.0166903,1.2423,5,0.1,4,2.1,3.2434,2.78643,0.604122,-0.211742,0.127008,-0.00522081,0.654221,-0.11006,0.00356883,0.015366,0.304309,5,0.1,5,2.1,3.56814,-2.78391,0.56059,-0.0271168,0.866026,0.00903942,0.00111759,0,-0.000335276,0.0246275,2.27139,5,0.1,6,2.1,0.243511,-1.64535,0.613293,-0.472849,-0.075026,-0.0136032,0.140521,-0.253551,0.0134967,0.0092457,0.572015,5,0.1,7,2.1,3.90064,0.277374,0.633996,-0.262634,0.866025,-0.0148616,0.0198931,-8.9407e-07,0.00110641,0.012567,2.22786,5,0.1,8,2.1,-3.20269,-0.0646645,0.624188,0.030287,-0.256266,-0.0110428,-0.237152,-0.0576011,-0.0387989,0.0209668,0.204618,5,0.1,9,2.1,1.74034,3.17725,0.622413,0.645013,0.0309113,0.000126474,0.714086,-0.303403,-0.0253022,0.0203644,1.57191,5,0.1,10,2.1,-1.73063,-3.21702,0.582293,0.0824925,0.123296,0.0181034,-0.0816882,-0.611797,-0.0179559,0.0202761,0.435436,5,0.1,11,2.1,-0.272612,1.60839,0.596911,0.270905,0.412528,0.00312766,0.0453833,-0.790574,-0.00305101,0.0415427,0.978088,5,0.1,12,2.1,-0.354585,-2.64965,0.500032,0.0261103,0.866026,0.000157394,-0.00471994,0,-0.000417233,0.030152,2.27188,5,0.1,13,2.1,1.53486,2.41665,0.599025,-0.174802,-0.102707,0.00237999,-0.335947,0.401482,-0.00363216,0.018404,0.11815,5,0.1,14,2.1,0.583183,1.55187,0.588916,0.265031,-0.206515,0.01135,0.382569,0.204556,-0.011228,0.0107183,0.255642,5,0.1,15,2.1,1.06849,2.61783,0.596748,-0.595858,-0.330174,0.00326969,0.457063,0.196055,-0.00307709,0.0161558,0.222166,5,0.1,16,2.1,1.28381,0.422472,0.731559,-0.0823351,0.861134,0.0181305,0.0693128,-0.0327882,-0.0152551,0.0184605,0.777163,5,0.1,17,2.1,4.0563,-2.12327,0.577024,-0.173532,0.866026,0.00527641,0.00610948,0,-0.000204891,0.0180681,2.25232,5,0.1,18,2.1,0.44555,-0.241264,1.20949,0.00754949,0.162608,0.236581,-0.00778213,-0.342248,-0.276342,0.0112212,0.256104,5,0.1,19,2.1,-0.805557,-1.68376,0.609608,0.169274,0.679054,0.0154878,-0.155322,-0.402354,-0.0142194,0.00728467,0.26715,5,0.1,20,2.1,-1.00845,1.74342,0.738473,0.0600096,-0.158726,0.0195776,-0.289321,0.184938,-0.0227951,0.00926117,0.325648,5,0.1,21,2.1,-3.30998,0.998915,0.59379,0.360097,0.604527,0.00591474,-0.571355,-0.420246,-0.00428781,0.0103281,0.317299,5,0.1,22,2.1,-1.43054,3.72886,0.588062,0.496847,0.320702,0.010404,-0.359744,-0.312895,-0.00561774,0.00891238,0.164614,5,0.1,23,2.1,3.42094,2.34294,0.602666,-0.266705,0.597063,-0.00268398,0.319973,-0.56079,0.00238046,0.0147929,0.228166,5,0.1,24,2.1,-1.53643,2.63348,0.6401,0.0588698,-0.825781,0.00623157,-0.215285,0.0511408,-0.0358932,0.0175351,2.41006,5,0.1,25,2.1,-1.01415,2.00534,0.726008,-0.0461744,-0.157034,0.0212112,-0.0617728,-0.00777841,-0.0173114,0.0165862,0.764779,5,0.1,26,2.1,3.13679,3.03642,0.614257,-0.169695,0.0729583,-0.00408115,0.165492,0.818759,0.0566132,0.00825747,0.304441,5,0.1,27,2.1,-1.63446,3.95129,0.584309,0.133621,0.290751,0.00298116,-0.610918,-0.0257641,-0.0182539,0.0147135,0.805893,5,0.1,28,2.1,-2.30893,2.40738,0.617067,0.546616,-0.0481311,-0.0175971,-0.729159,0.205263,0.0073202,0.0304066,0.107719,5,0.1,29,2.1,1.46401,-0.159943,0.642955,0.25315,0.385779,0.0180394,-0.181831,-0.268875,-0.00936165,0.0106468,0.162725,5,0.1
0,2.2,1.0017,-1.31106,0.561176,-0.478163,-0.625822,0.029017,-0.491947,0.673413,-0.00298023,0.0105152,0.585082,5,0.1,1,2.2,0.206685,-0.891239,0.603197,0.794695,0.523478,-0.00282973,-0.348076,-0.344992,0.00187755,0.00983024,0.519064,5,0.1,2,2.2,-2.96303,-1.62483,0.600576,-0.716639,-0.303957,-0.000584126,0.469446,0.699759,0.000596046,0.0108134,0.189304,5,0.1,3,2.2,-2.28029,3.79756,0.594267,0.84815,0.199252,0.005126,-0.260592,-0.244856,-0.0013113,0.0176394,1.23635,5,0.1,4,2.2,3.2254,2.79877,0.603618,-0.149375,0.121403,-0.00485182,0.585556,-0.0185966,0.00393391,0.0166853,0.285096,5,0.1,5,2.2,3.56544,-2.69731,0.561491,-0.0268638,0.866026,0.00895858,0.005126,0,-0.00172853,0.0288012,2.27141,5,0.1,6,2.2,0.196821,-1.6542,0.612,-0.461309,-0.10244,-0.0122696,0.118502,-0.274956,0.0134408,0.00963374,0.439895,5,0.1,7,2.2,3.87451,0.363977,0.632518,-0.259262,0.866025,-0.0146717,0.058651,1.43051e-05,0.00327826,0.011992,2.22991,5,0.1,8,2.2,-3.20068,-0.0904721,0.622916,0.0115812,-0.258588,-0.0141382,-0.139356,0.0198221,-0.022918,0.0159333,0.33946,5,0.1,9,2.2,1.80822,3.17886,0.622299,0.709412,0.00167489,-0.00238866,0.525177,-0.273824,-0.0240505,0.0307082,1.25166,5,0.1,10,2.2,-1.72278,-3.20749,0.584015,0.0744164,0.0698388,0.0163287,-0.0815392,-0.455022,-0.0178814,0.0240264,0.427401,5,0.1,11,2.2,-0.244989,1.6457,0.597209,0.283626,0.334579,0.00282526,0.170976,-0.73874,-0.00303984,0.0341233,0.822658,5,0.1,12,2.2,-0.352,-2.56304,0.500045,0.0255257,0.866026,9.53674e-05,-0.00801682,0,-0.000804663,0.0383693,2.27197,5,0.1,13,2.2,1.51577,2.40829,0.599245,-0.205994,-0.0655949,0.00201762,-0.270009,0.337005,-0.00357628,0.0180084,0.10476,5,0.1,14,2.2,0.611431,1.53223,0.589995,0.297795,-0.186297,0.0102401,0.255674,0.204265,-0.0112057,0.00982027,0.187263,5,0.1,15,2.2,1.01123,2.58584,0.597059,-0.548702,-0.309092,0.00296384,0.498742,0.233293,-0.00309944,0.00937447,0.148329,5,0.1,16,2.2,1.27593,0.508177,0.733295,-0.0753045,0.84977,0.016582,0.0731945,-0.22319,-0.0160635,0.0141764,0.574426,5,0.1,17,2.2,4.039,-2.03667,0.57755,-0.171995,0.866026,0.00522882,0.0321865,-5.96046e-05,-0.00101328,0.0154317,2.2529,5,0.1,18,2.2,0.446265,-0.226766,1.23172,0.00674799,0.127048,0.207561,-0.00829995,-0.361323,-0.303388,0.0150502,0.255144,5,0.1,19,2.2,-0.789404,-1.61796,0.611086,0.153726,0.635791,0.0140652,-0.159234,-0.478745,-0.0146031,0.00844406,0.179524,5,0.1,20,2.2,-1.00378,1.72847,0.740317,0.034532,-0.140253,0.0173002,-0.218868,0.186324,-0.0229478,0.00833259,0.302809,5,0.1,21,2.2,-3.277,1.05722,0.594359,0.29822,0.560632,0.00546724,-0.652552,-0.471354,-0.00476837,0.0105886,0.252906,5,0.1,22,2.2,-1.38269,3.75938,0.589073,0.459549,0.289863,0.00979155,-0.397503,-0.311375,-0.00688434,0.00989595,0.110621,5,0.1,23,2.2,3.3959,2.3997,0.602409,-0.233585,0.536776,-0.00244677,0.342369,-0.64683,0.00241399,0.0147634,0.172004,5,0.1,24,2.2,-1.53166,2.55173,0.640544,0.0362724,-0.804496,0.00267774,-0.228882,0.342131,-0.0342131,0.0190744,2.47601,5,0.1,25,2.2,-1.01907,1.98962,0.728037,-0.0518054,-0.157055,0.0193059,-0.0470281,0.0149608,-0.0209212,0.0154453,3.04346,5,0.1,26,2.2,3.12054,3.04774,0.614124,-0.156087,0.151843,0.0012964,0.117421,0.728846,0.0496209,0.00844058,0.231779,5,0.1,27,2.2,-1.62312,3.97989,0.584539,0.102103,0.27799,0.00182092,-0.0767112,-0.219822,-0.00607967,0.0159873,3.40463,5,0.1,28,2.2,-2.25776,2.40352,0.615351,0.477952,-0.0296056,-0.016652,-0.65732,0.16427,0.0117421,0.0263638,0.127166,5,0.1,29,2.2,1.4884,-0.12266,0.64471,0.234437,0.359995,0.0170425,-0.198603,-0.261273,-0.0111461,0.00758101,0.115932,5,0.1
0,2.3,0.951437,-1.37035,0.564063,-0.526007,-0.560632,0.0286911,-0.431888,0.639893,-0.00460446,0.0105152,0.585082,5,0.1,1,2.3,0.284535,-0.840518,0.602923,0.76277,0.491493,-0.00265585,-0.319168,-0.311289,0.00169501,0.00983024,0.519064,5,0.1,2,2.3,-3.03229,-1.6517,0.600521,-0.667965,-0.23325,-0.000529271,0.515327,0.701807,0.000517815,0.0108134,0.189304,5,0.1,3,2.3,-2.19669,3.81615,0.594776,0.824162,0.171782,0.00506537,-0.251174,-0.298426,-0.000227243,0.0176394,1.23635,5,0.1,4,2.3,3.21323,2.81098,0.603152,-0.0958901,0.124003,-0.00447817,0.479564,0.0560433,0.00366569,0.0166853,0.285096,5,0.1,5,2.3,3.56277,-2.61071,0.562382,-0.026653,0.866026,0.00888696,0.000715256,0,-0.000257045,0.0288012,2.27141,5,0.1,6,2.3,0.151043,-1.66594,0.610836,-0.455865,-0.132856,-0.0110444,0.020287,-0.313707,0.0114143,0.00963374,0.439895,5,0.1,7,2.3,3.84877,0.450579,0.631061,-0.256176,0.866026,-0.0145003,0.0182986,-1.93715e-06,0.00100583,0.011992,2.22991,5,0.1,8,2.3,-3.20009,-0.116431,0.621389,0.00132807,-0.262003,-0.0163367,-0.0695437,-0.0656559,-0.0199154,0.0159333,0.33946,5,0.1,9,2.3,1.88192,3.17751,0.621937,0.764486,-0.0296462,-0.00483589,0.523768,-0.335082,-0.0239275,0.0307082,1.25166,5,0.1,10,2.3,-1.71572,-3.20254,0.585564,0.0669837,0.0315093,0.0146989,-0.0692308,-0.310957,-0.0151768,0.0240264,0.427401,5,0.1,11,2.3,-0.215431,1.67563,0.597477,0.30995,0.266973,0.00254819,0.317504,-0.565633,-0.00258163,0.0341233,0.822658,5,0.1,12,2.3,-0.349477,-2.47644,0.500051,0.0250052,0.866026,2.1141e-05,-0.00383705,0,-0.000666827,0.0383693,2.27197,5,0.1,13,2.3,1.4937,2.40328,0.599429,-0.235902,-0.0359837,0.00167591,-0.303112,0.254884,-0.00325963,0.0180084,0.10476,5,0.1,14,2.3,0.642478,1.51455,0.590967,0.322564,-0.16768,0.00921823,0.220671,0.17339,-0.00952184,0.00982027,0.187263,5,0.1,15,2.3,0.958712,2.55603,0.597341,-0.502674,-0.287489,0.00268063,0.437476,0.208125,-0.00264868,0.00937447,0.148329,5,0.1,16,2.3,1.26858,0.592142,0.734878,-0.0730274,0.829695,0.0151055,-0.0156239,-0.21198,-0.01394,0.0141764,0.574426,5,0.1,17,2.3,4.02189,-1.95006,0.57807,-0.170707,0.866025,0.00518672,0.00408292,1.49012e-05,-0.000149012,0.0154317,2.2529,5,0.1,18,2.3,0.446899,-0.215848,1.25091,0.00594305,0.0916619,0.176061,-0.00787526,-0.34051,-0.325099,0.0150502,0.255144,5,0.1,19,2.3,-0.774779,-1.55664,0.612424,0.139149,0.591479,0.0127284,-0.136659,-0.426814,-0.0125244,0.00844406,0.179524,5,0.1,20,2.3,-1.00134,1.71537,0.741934,0.0151008,-0.121941,0.0150443,-0.165269,0.18055,-0.0222437,0.00833259,0.302809,5,0.1,21,2.3,-3.25048,1.11106,0.594883,0.232015,0.517179,0.0050257,-0.660211,-0.414379,-0.0042133,0.0105886,0.252906,5,0.1,22,2.3,-1.3386,3.78692,0.59002,0.42296,0.261612,0.00915537,-0.347883,-0.26226,-0.006143,0.00989595,0.110621,5,0.1,23,2.3,3.3742,2.45021,0.602176,-0.200907,0.473747,-0.00222549,0.313476,-0.619262,0.00207871,0.0147634,0.172004,5,0.1,24,2.3,-1.52921,2.47361,0.64064,0.0126785,-0.755675,-0.000738073,-0.23558,0.487149,-0.033129,0.0190744,2.47601,5,0.1,25,2.3,-1.02472,1.97393,0.729853,-0.0632232,-0.157079,0.0169349,-0.162698,-0.00591576,-0.0260212,0.0154453,3.04346,5,0.1,26,2.3,3.10536,3.06656,0.614496,-0.148847,0.223754,0.00605406,0.0402778,0.681385,0.0443198,0.00844058,0.231779,5,0.1,27,2.3,-1.61181,4.0067,0.584701,0.136442,0.259131,0.00149617,0.668302,-0.168994,-0.000927597,0.0159873,3.40463,5,0.1,28,2.3,-2.21277,2.40131,0.613738,0.425785,-0.0154715,-0.0156587,-0.41537,0.119224,0.00885874,0.0263638,0.127166,5,0.1,29,2.3,1.51091,-0.0878146,0.646363,0.216305,0.338014,0.0160407,-0.171378,-0.19434,-0.00949949,0.00758101,0.115932,5,0.1
0,2.4,0.896997,-1.42321,0.5669,-0.558989,-0.496283,0.0279188,-0.205278,0.653207,-0.0115633,0.0167474,0.407036,5,0.1,1,2.4,0.359073,-0.79298,0.602666,0.726026,0.458431,-0.00247657,-0.435278,-0.361323,0.00193715,0.0121015,0.44862,5,0.1,2,2.4,-3.09637,-1.67159,0.60047,-0.611782,-0.165781,-0.000478327,0.615001,0.638425,0.000506639,0.0088195,0.588706,5,0.1,3,2.4,-2.11572,3.83179,0.595281,0.792539,0.140685,0.00502318,-0.403047,-0.318408,-0.000864267,0.0195929,0.956539,5,0.1,4,2.4,3.20583,2.82369,0.602723,-0.0540912,0.130069,-0.00409931,0.354648,0.0547171,0.00405312,0.0139251,0.269904,5,0.1,5,2.4,3.56011,-2.52411,0.563268,-0.0264347,0.866026,0.00881404,0.00464916,0,-0.00157952,0.0214157,2.27142,5,0.1,6,2.4,0.105597,-1.68072,0.609787,-0.452116,-0.161788,-0.00992715,0.0761414,-0.250757,0.0111759,0.00936109,0.585506,5,0.1,7,2.4,3.82328,0.537182,0.629618,-0.252992,0.866026,-0.0143215,0.0560284,0,0.00315905,0.0126359,2.23187,5,0.1,8,2.4,-3.20021,-0.142949,0.619669,-0.0030458,-0.26784,-0.0179306,-0.0213385,-0.034765,-0.0111759,0.0134597,0.622489,5,0.1,9,2.4,1.96063,3.17289,0.621341,0.805253,-0.0622928,-0.00700802,0.255048,-0.304699,-0.0188053,0.00939336,0.909982,5,0.1,10,2.4,-1.70936,-3.20071,0.586959,0.0602096,0.00753403,0.0132143,-0.0678301,-0.170112,-0.0148714,0.00849247,0.621113,5,0.1,11,2.4,-0.182864,1.7,0.597719,0.340538,0.225466,0.00229478,0.266366,-0.272036,-0.0025332,0.0220183,2.8446,5,0.1,12,2.4,-0.346998,-2.38984,0.50005,0.0245109,0.866026,-3.72529e-05,-0.00707805,0,-0.000506639,0.0302574,2.30337,5,0.1,13,2.4,1.46871,2.40082,0.599581,-0.26235,-0.0145614,0.00136346,-0.208318,0.174761,-0.00298023,0.0130585,0.134286,5,0.1,14,2.4,0.675653,1.49864,0.591842,0.338735,-0.150713,0.00828654,0.0897944,0.169694,-0.00935793,0.00983696,0.131311,5,0.1,15,2.4,0.910635,2.52834,0.597596,-0.458559,-0.265884,0.00241995,0.455618,0.230312,-0.00265241,0.0150603,0.0994466,5,0.1,16,2.4,1.26114,0.673845,0.736319,-0.0763088,0.801714,0.013715,-0.0408292,-0.370502,-0.0142157,0.0111718,0.396075,5,0.1,17,2.4,4.00486,-1.86346,0.578587,-0.169373,0.866026,0.00514388,0.0299215,-5.96046e-05,-0.000923872,0.0203809,2.2534,5,0.1,18,2.4,0.447455,-0.20831,1.26687,0.00516102,0.0599355,0.142899,-0.00780821,-0.290036,-0.336111,0.0198395,0.505013,5,0.1,19,2.4,-0.761539,-1.49966,0.613635,0.125654,0.547165,0.0114918,-0.136316,-0.472665,-0.0124872,0.0160167,0.120336,5,0.1,20,2.4,-1.00054,1.70407,0.743328,0.00211,-0.104055,0.0128388,-0.0928044,0.177562,-0.0218749,0.0146123,0.698972,5,0.1,21,2.4,-3.23052,1.16069,0.595365,0.168163,0.474939,0.00459701,-0.608325,-0.442028,-0.00441074,0.0109438,0.211829,5,0.1,22,2.4,-1.29806,3.81179,0.590904,0.387666,0.235939,0.00851005,-0.367463,-0.257492,-0.00694394,0.0114991,0.156086,5,0.1,23,2.4,3.35565,2.49449,0.601964,-0.170505,0.412041,-0.00201911,0.295997,-0.6181,0.00214577,0.0157599,0.199654,5,0.1,24,2.4,-1.52908,2.4,0.640409,-0.00956059,-0.721705,-0.00378042,-0.203788,0.192881,-0.0270307,0.0131693,2.45286,5,0.1,25,2.4,-1.03192,1.95822,0.731411,-0.0810713,-0.156611,0.0141919,-0.179946,0.0220537,-0.0284612,0.015915,3.64032,5,0.1,26,2.4,3.09063,3.09208,0.615306,-0.145781,0.283372,0.00995696,0.030756,0.491619,0.0329316,0.00844238,0.186556,5,0.1,27,2.4,-1.59424,4.03178,0.584851,0.218868,0.242221,0.00154376,0.906408,-0.17786,0.00149012,0.0146224,3.05987,5,0.1,28,2.4,-2.17207,2.40029,0.612216,0.389725,-0.00557899,-0.0147551,-0.327945,0.079751,0.00974536,0.0265502,0.074457,5,0.1,29,2.4,1.53168,-0.0549815,0.647918,0.198916,0.318386,0.0150397,-0.181496,-0.209655,-0.0109673,0.011782,0.142032,5,0.1
0,2.5,0.840108,-1.46971,0.569636,-0.577757,-0.434903,0.0267962,-0.143778,0.583053,-0.0117719,0.0167474,0.407036,5,0.1,1,2.5,0.429625,-0.748683,0.602427,0.685677,0.429482,-0.00229739,-0.395393,-0.241339,0.00172108,0.0121015,0.44862,5,0.1,2,2.5,-3.15486,-1.68512,0.600425,-0.561106,-0.106479,-0.000432041,0.428572,0.539258,0.000435859,0.0088195,0.588706,5,0.1,3,2.5,-2.03804,3.84445,0.595778,0.764398,0.114117,0.00490267,-0.207298,-0.220358,-0.00165403,0.0195929,0.956539,5,0.1,4,2.5,3.20198,2.83701,0.602333,-0.0251118,0.136508,-0.00371011,0.227019,0.0645667,0.00381097,0.0139251,0.269904,5,0.1,5,2.5,3.55748,-2.4375,0.564145,-0.0262629,0.866026,0.00875462,0.000402331,0,-0.000149012,0.0214157,2.27142,5,0.1,6,2.5,0.0608204,-1.69799,0.608801,-0.442552,-0.181818,-0.0102099,0.127437,-0.146151,-0.0136644,0.00936109,0.585506,5,0.1,7,2.5,3.79816,0.623784,0.628196,-0.250077,0.866026,-0.0141574,0.0171363,-3.72529e-06,0.000961125,0.0126359,2.23187,5,0.1,8,2.5,-3.20065,-0.170121,0.617834,-0.00587255,-0.277091,-0.0186232,-0.0276566,-0.125002,-0.00250712,0.0134597,0.622489,5,0.1,9,2.5,2.04246,3.16511,0.620548,0.830494,-0.0931218,-0.00881711,0.208139,-0.298649,-0.0166334,0.00939336,0.909982,5,0.1,10,2.5,-1.70366,-3.20072,0.588211,0.0540638,-0.00653937,0.011867,-0.0568554,-0.0917315,-0.0124611,0.00849247,0.621113,5,0.1,11,2.5,-0.146449,1.72223,0.597937,0.395809,0.227889,0.002064,0.752459,0.253893,-0.00214577,0.0220183,2.8446,5,0.1,12,2.5,-0.345022,-2.30324,0.500044,0.0113212,0.865804,-7.45989e-05,-0.229787,-0.00886619,-0.000257045,0.0302574,2.30337,5,0.1,13,2.5,1.44131,2.40012,0.599703,-0.28617,-0.00041686,0.00108322,-0.243425,0.110522,-0.00262633,0.0130585,0.134286,5,0.1,14,2.5,0.709958,1.48436,0.592627,0.346821,-0.135339,0.00743875,0.056725,0.142232,-0.00784174,0.00983696,0.131311,5,0.1,15,2.5,0.866919,2.50289,0.597826,-0.416796,-0.24333,0.00217929,0.392772,0.225648,-0.00222772,0.0150603,0.0994466,5,0.1,16,2.5,1.25323,0.752273,0.737624,-0.0822371,0.767219,0.0124169,-0.0691041,-0.346996,-0.0121407,0.0111718,0.396075,5,0.1,17,2.5,3.988,-1.77686,0.579099,-0.168272,0.866025,0.00510942,0.00247359,1.49012e-05,-8.19564e-05,0.0203809,2.2534,5,0.1,18,2.5,0.447933,-0.203744,1.27948,0.00441698,0.0319287,0.109302,-0.00712276,-0.257906,-0.333257,0.0198395,0.505013,5,0.1,19,2.5,-0.749611,-1.44717,0.614726,0.113253,0.50362,0.0103561,-0.115361,-0.414364,-0.0105649,0.0160167,0.120336,5,0.1,20,2.5,-1.00083,1.69452,0.744506,-0.007388,-0.0872575,0.0107689,-0.0699759,0.159189,-0.0196174,0.0146123,0.698972,5,0.1,21,2.5,-3.2166,1.20611,0.595804,0.111833,0.434391,0.00419114,-0.513047,-0.382863,-0.00383705,0.0109438,0.211829,5,0.1,22,2.5,-1.26086,3.83419,0.591722,0.358451,0.212675,0.00787005,-0.238091,-0.214964,-0.00611693,0.0114991,0.156086,5,0.1,23,2.5,3.33984,2.53272,0.601772,-0.147542,0.353348,-0.00182232,0.17567,-0.560164,0.00185147,0.0157599,0.199654,5,0.1,24,2.5,-1.53104,2.32763,0.639898,-0.029425,-0.734768,-0.00637826,-0.18768,-0.358,-0.0241324,0.0131693,2.45286,5,0.1,25,2.5,-1.04125,1.94248,0.732682,-0.108031,-0.159601,0.0111784,-0.330105,-0.0643954,-0.0311248,0.015915,3.64032,5,0.1,26,2.5,3.07609,3.1228,0.616461,-0.145907,0.329899,0.0130762,-0.0208914,0.416726,0.0283457,0.00844238,0.186556,5,0.1,27,2.5,-1.56732,4.05535,0.585014,0.322757,0.231138,0.00174064,1.10349,-0.0631809,0.00222772,0.0146224,3.05987,5,0.1,28,2.5,-2.13452,2.40007,0.610787,0.363076,0.000823289,-0.0138523,-0.224739,0.0494421,0.00878423,0.0265502,0.074457,5,0.1,29,2.5,1.55083,-0.0238723,0.64938,0.185284,0.306303,0.0142883,-0.103831,-0.0586426,-0.00512227,0.011782,0.142032,5,0.1
0,2.6,0.78189,-1.51034,0.57225,-0.583361,-0.378206,0.0254184,0.0491738,0.556827,-0.0163913,0.00787952,0.275567,5,0.1,1,2.6,0.496124,-0.706903,0.602207,0.642962,0.406078,-0.00212044,-0.475093,-0.243902,0.00187755,0.0106458,0.311563,5,0.1,2,2.6,-3.20893,-1.69329,0.600384,-0.520855,-0.0591964,-0.00038892,0.398517,0.402153,0.000417233,0.00831754,1.31207,5,0.1,3,2.6,-1.96263,3.85487,0.596258,0.742897,0.095284,0.00467449,-0.256956,-0.161886,-0.00295043,0.0135682,0.722336,5,0.1,4,2.6,3.20041,2.85093,0.601981,-0.00807643,0.14137,-0.00332445,0.117779,0.0258684,0.00399351,0.0140539,0.257777,5,0.1,5,2.6,3.55486,-2.3509,0.565019,-0.026077,0.866026,0.00869185,0.00441074,0,-0.00149012,0.0214746,2.27143,5,0.1,6,2.6,0.0173683,-1.71671,0.607692,-0.424625,-0.190488,-0.0120968,0.23883,-0.0256896,-0.0216663,0.00682899,0.536108,5,0.1,7,2.6,3.77327,0.710387,0.626787,-0.247025,0.866026,-0.0139847,0.0543594,0,0.00306964,0.0141948,2.23377,5,0.1,8,2.6,-3.20134,-0.198434,0.615974,-0.00739694,-0.288476,-0.0184119,0.00143051,-0.0843108,0.00679493,0.0157616,3.33308,5,0.1,9,2.6,2.12619,3.1544,0.619591,0.839895,-0.119764,-0.0102103,-0.048399,-0.22471,-0.010699,0.00902658,0.636146,5,0.1,10,2.6,-1.69853,-3.20159,0.589337,0.0485361,-0.00824332,0.0106543,-0.0550151,0.0635386,-0.0120401,0.00813582,0.815669,5,0.1,11,2.6,-0.10289,1.74671,0.598133,0.475846,0.264448,0.0018537,0.783042,0.425875,-0.00211596,0.022017,1.545,5,0.1,12,2.6,-0.345223,-2.21678,0.500036,-0.0166491,0.862485,-8.9407e-05,-0.308573,-0.0709295,-5.96046e-05,0.0320844,2.28658,5,0.1,13,2.6,1.41158,2.40054,0.599799,-0.306818,0.00799894,0.000838935,-0.152111,0.0600815,-0.00229478,0.0161912,0.0795413,5,0.1,14,2.6,0.744768,1.47152,0.593332,0.347546,-0.121504,0.00667572,-0.0523329,0.137508,-0.00756979,0.00900187,0.128051,5,0.1,15,2.6,0.827187,2.47971,0.598033,-0.377774,-0.219959,0.00196099,0.396818,0.244856,-0.00217557,0.0114558,0.131304,5,0.1,16,2.6,1.24468,0.827115,0.738806,-0.0886351,0.727685,0.0112191,-0.0526309,-0.462413,-0.0120997,0.00930037,0.25088,5,0.1,17,2.6,3.97121,-1.69026,0.579609,-0.167096,0.866026,0.00507385,0.0283718,-5.96046e-05,-0.00089407,0.0165796,2.25387,5,0.1,18,2.6,0.44834,-0.20171,1.28877,0.00372827,0.0102475,0.0768185,-0.00666082,-0.168987,-0.313282,0.00993318,0.62441,5,0.1,19,2.6,-0.738852,-1.39889,0.615709,0.101961,0.461558,0.00932217,-0.1131,-0.437975,-0.0103414,0.00790499,0.139272,5,0.1,20,2.6,-1.00172,1.68656,0.745488,-0.00808537,-0.0720829,0.00889748,0.066936,0.144899,-0.0178516,0.0125273,1.53605,5,0.1,21,2.6,-3.20779,1.24764,0.596204,0.06634,0.396004,0.00380874,-0.394344,-0.394642,-0.00396371,0.00864821,0.479589,5,0.1,22,2.6,-1.22613,3.8544,0.592478,0.336355,0.191712,0.00724345,-0.219345,-0.209332,-0.00658631,0.0122168,0.199615,5,0.1,23,2.6,3.32585,2.56532,0.601599,-0.133175,0.299269,-0.00164062,0.121236,-0.524402,0.00184774,0.0169264,0.167574,5,0.1,24,2.6,-1.53485,2.25211,0.63915,-0.0461102,-0.776482,-0.0084728,-0.141978,-0.404596,-0.0171959,0.014891,2.31485,5,0.1,25,2.6,-1.05376,1.92617,0.733645,-0.14199,-0.166455,0.00809133,-0.327051,-0.0597239,-0.0301003,0.0173575,3.57938,5,0.1,26,2.6,3.06139,3.1576,0.617896,-0.14782,0.363016,0.0154406,-0.00822544,0.23067,0.018239,0.00851036,0.162485,5,0.1,27,2.6,-1.52966,4.07821,0.585199,0.427797,0.2262,0.00195056,0.947416,-0.0498295,0.00184774,0.0146308,2.80765,5,0.1,28,2.6,-2.09929,2.40036,0.609447,0.341374,0.00452995,-0.0129193,-0.223517,0.0258684,0.0102222,0.02785,0.3201,5,0.1,29,2.6,1.56888,0.00653451,0.650786,0.175941,0.30202,0.0138313,-0.0923872,-0.046742,-0.00476837,0.0116434,0.0858154,5,0.1
0,2.7,0.723807,-1.54553,0.574713,-0.577692,-0.326868,0.023865,0.0855774,0.477619,-0.0154115,0.00787952,0.275567,5,0.1,1,2.7,0.558179,-0.667353,0.602003,0.598982,0.38604,-0.00194767,-0.424197,-0.175808,0.00164285,0.0106458,0.311563,5,0.1,2,2.7,-3.25963,-1.69731,0.600439,-0.49795,-0.0227818,0.0022673,0.106394,0.299878,0.0468977,0.00831754,1.31207,5,0.1,3,2.7,-1.88927,3.86377,0.59671,0.726845,0.0842735,0.00435356,-0.108615,-0.0686347,-0.00351667,0.0135682,0.722336,5,0.1,4,2.7,3.20008,2.86519,0.601668,0.000406802,0.14355,-0.00294251,0.0554025,0.011757,0.00369176,0.0140539,0.257777,5,0.1,5,2.7,3.55226,-2.2643,0.565884,-0.0259217,0.866026,0.00863895,0.000283122,0,-0.000104308,0.0214746,2.27143,5,0.1,6,2.7,-0.023625,-1.73557,0.606384,-0.392681,-0.183811,-0.0139477,0.392368,0.147551,-0.0148416,0.00682899,0.536108,5,0.1,7,2.7,3.74874,0.796989,0.625398,-0.244176,0.866026,-0.0138241,0.0170469,-3.72529e-06,0.00096485,0.0141948,2.23377,5,0.1,8,2.7,-3.2023,-0.228705,0.614182,-0.0125427,-0.324979,-0.0172975,-0.0512749,-0.56847,0.0150874,0.0157616,3.33308,5,0.1,9,2.7,2.20997,3.14133,0.618519,0.834917,-0.141302,-0.0111938,-0.0847429,-0.195861,-0.00838563,0.00902658,0.636146,5,0.1,10,2.7,-1.69393,-3.20196,0.590347,0.0435757,0.00367686,0.0095685,-0.0456646,0.22459,-0.00999495,0.00813582,0.815669,5,0.1,11,2.7,-0.0513015,1.77558,0.598308,0.555575,0.314819,0.00166334,0.763038,0.53937,-0.00174344,0.022017,1.545,5,0.1,12,2.7,-0.348303,-2.13059,0.500027,-0.0435977,0.863058,-9.22941e-05,-0.227489,0.0442863,1.11759e-05,0.0320844,2.28658,5,0.1,13,2.7,1.38017,2.40158,0.599872,-0.320912,0.0121441,0.000628363,-0.114225,0.0246912,-0.00192598,0.0161912,0.0795413,5,0.1,14,2.7,0.779263,1.45985,0.593965,0.342045,-0.113549,0.00599306,-0.070069,0.0351593,-0.00628829,0.00900187,0.128051,5,0.1,15,2.7,0.791085,2.45906,0.59822,-0.346762,-0.19171,0.00179159,0.246048,0.313312,-0.00132993,0.0114558,0.131304,5,0.1,16,2.7,1.2357,0.897696,0.739871,-0.0894373,0.6846,0.0101205,0.0321046,-0.422128,-0.0102073,0.00930037,0.25088,5,0.1,17,2.7,3.95457,-1.60365,0.580114,-0.166109,0.866025,0.00504134,0.00160933,1.49012e-05,-6.33299e-05,0.0165796,2.25387,5,0.1,18,2.7,0.44868,-0.201453,1.29494,0.00309483,-0.00380196,0.0473101,-0.00602566,-0.0923434,-0.273228,0.00993318,0.62441,5,0.1,19,2.7,-0.729134,-1.35457,0.616598,0.0931215,0.427897,0.00851378,-0.0698902,-0.263371,-0.0063926,0.00790499,0.139272,5,0.1,20,2.7,-1.00213,1.68004,0.746293,0.00276044,-0.0587011,0.0072483,0.237301,0.123583,-0.0152364,0.0125273,1.53605,5,0.1,21,2.7,-3.20295,1.28539,0.596566,0.0321213,0.359981,0.00344692,-0.286683,-0.337489,-0.00338629,0.00864821,0.479589,5,0.1,22,2.7,-1.19317,3.8727,0.593176,0.326403,0.175584,0.00674231,-0.0137165,-0.125363,-0.00388548,0.0122168,0.199615,5,0.1,23,2.7,3.31297,2.59281,0.601444,-0.125952,0.25222,-0.00147158,0.0358373,-0.424311,0.0015758,0.0169264,0.167574,5,0.1,24,2.7,-1.54016,2.17224,0.638219,-0.0596359,-0.82138,-0.0101026,-0.123516,-0.438213,-0.0146925,0.014891,2.31485,5,0.1,25,2.7,-1.06983,1.90893,0.734302,-0.181024,-0.181006,0.0050691,-0.416897,-0.212267,-0.0295453,0.0173575,3.57938,5,0.1,26,2.7,3.04647,3.19504,0.619531,-0.151307,0.385004,0.0172462,-0.048995,0.188529,0.0166669,0.00851036,0.162485,5,0.1,27,2.7,-1.48187,4.10078,0.585403,0.529267,0.226704,0.00210768,1.01844,0.0397861,0.00121072,0.0146308,2.80765,5,0.1,28,2.7,-2.06583,2.40092,0.608208,0.331408,0.00635646,-0.0118433,-0.0105053,0.0113398,0.0113957,0.02785,0.3201,5,0.1,29,2.7,1.58608,0.0366087,0.652149,0.168426,0.300074,0.0134693,-0.0662729,-0.00965104,-0.0031665,0.0116434,0.0858154,5,0.1
0,2.8,0.666668,-1.57591,0.57702,-0.562693,-0.281364,0.0222147,0.228524,0.438035,-0.0181496,0.00829882,0.183415,5,0.1,1,2.8,0.61591,-0.629643,0.601817,0.554805,0.367671,-0.00178069,-0.472844,-0.20501,0.00169873,0.0119042,0.214393,5,0.1,2,2.8,-3.30906,-1.69841,0.600938,-0.491399,-0.00279248,0.00795871,0.0597239,0.090301,0.0624061,0.010659,1.12398,5,0.1,3,2.8,-1.81718,3.87194,0.597126,0.713536,0.0797331,0.0039652,-0.189543,-0.0302792,-0.00426173,0.00998484,0.527263,5,0.1,4,2.8,3.20032,2.87954,0.601392,0.00366569,0.142735,-0.00257641,0.0127554,-0.0320673,0.00363588,0.0142285,0.422644,5,0.1,5,2.8,3.54967,-2.1777,0.566746,-0.0257432,0.866026,0.00858009,0.00417233,0,-0.00143051,0.0218811,2.27144,5,0.1,6,2.8,-0.0607321,-1.753,0.60493,-0.347653,-0.163144,-0.0149846,0.500873,0.255823,-0.00563264,0.00771682,0.477783,5,0.1,7,2.8,3.72445,0.883592,0.624023,-0.241148,0.866026,-0.0136524,0.0537634,0,0.00303984,0.0115438,2.23027,5,0.1,8,2.8,-3.20357,-0.264321,0.612539,-0.00995994,-0.388578,-0.0154749,0.126719,-0.644878,0.0210404,0.0147892,3.04718,5,0.1,9,2.8,2.29275,3.12633,0.617366,0.817335,-0.157219,-0.0117913,-0.28944,-0.115514,-0.00315905,0.00963153,0.432475,5,0.1,10,2.8,-1.6898,-3.2,0.591255,0.0391483,0.0400603,0.00859797,-0.0439286,0.487208,-0.00959635,0.00880478,1.2547,5,0.1,11,2.8,0.00771194,1.80966,0.598466,0.620219,0.365034,0.00149459,0.496,0.43422,-0.00166893,0.0247766,1.15503,5,0.1,12,2.8,-0.353648,-2.0441,0.500018,-0.0617333,0.866026,-8.64267e-05,-0.134021,0,0.000119209,0.031206,2.28068,5,0.1,13,2.8,1.34767,2.40287,0.599925,-0.327075,0.0132859,0.000452995,0.0012517,-0.000119209,-0.00154972,0.0100911,0.142046,5,0.1,14,2.8,0.813005,1.44859,0.594533,0.331472,-0.112081,0.00538379,-0.149608,0.00458956,-0.00604987,0.0104117,0.48752,5,0.1,15,2.8,0.757542,2.44153,0.598393,-0.324628,-0.158554,0.0016734,0.213385,0.344157,-0.00113249,0.00934628,0.2306,5,0.1,16,2.8,1.22703,0.96396,0.740833,-0.0830621,0.639418,0.009121,0.0914931,-0.497013,-0.0100136,0.00964588,0.167414,5,0.1,17,2.8,3.93799,-1.51705,0.580617,-0.165015,0.866026,0.00500828,0.0274181,-5.96046e-05,-0.000864267,0.0179406,2.25431,5,0.1,18,2.8,0.448961,-0.202055,1.2984,0.00252053,-0.0056494,0.0229537,-0.00545382,0.0614524,-0.209808,0.0120021,0.818514,5,0.1,19,2.8,-0.720141,-1.31299,0.61742,0.0869021,0.403994,0.00794679,-0.0591278,-0.235438,-0.00545382,0.00893823,0.0811719,5,0.1,20,2.8,-1,1.67476,0.746946,0.0464782,-0.0472188,0.00583231,0.620753,0.106692,-0.0131726,0.0116203,1.67948,5,0.1,21,2.8,-3.20098,1.31972,0.596894,0.00938177,0.326526,0.00311434,-0.16737,-0.339806,-0.00339746,0.00923889,1.93579,5,0.1,22,2.8,-1.16048,3.88969,0.593832,0.327668,0.164527,0.00638962,0.0135899,-0.104785,-0.00351667,0.00802067,0.324314,5,0.1,23,2.8,3.3005,2.61602,0.601304,-0.123799,0.213057,-0.00131577,0.0166893,-0.3649,0.00149012,0.0188227,0.268734,5,0.1,24,2.8,-1.54667,2.08821,0.637144,-0.0699699,-0.855446,-0.0112921,-0.0798106,-0.211596,-0.00861287,0.011933,2.27302,5,0.1,25,2.8,-1.08992,1.88965,0.734668,-0.219169,-0.205335,0.00231862,-0.320673,-0.257611,-0.0249445,0.0177456,3.42041,5,0.1,26,2.8,3.03111,3.23428,0.621329,-0.155455,0.397283,0.0185683,-0.025034,0.0430346,0.0090003,0.00893569,0.153127,5,0.1,27,2.8,-1.42416,4.12366,0.585618,0.620592,0.23067,0.00218004,0.762522,0.0245571,0.000208616,0.0163454,2.68149,5,0.1,28,2.8,-2.03263,2.40159,0.607083,0.333196,0.00692606,-0.0106275,0.0202656,0.000476837,0.0129938,0.0246454,0.336636,5,0.1,29,2.8,1.60258,0.066512,0.653478,0.16126,0.297111,0.0130817,-0.0829697,-0.0619143,-0.005126,0.0123196,0.0682282,5,0.1
0,2.9,0.611507,-1.60199,0.579155,-0.54041,-0.241558,0.0205191,0.234794,0.364728,-0.0163764,0.00829882,0.183415,5,0.1,1,2.9,0.669164,-0.593792,0.601647,0.511226,0.350043,-0.00162488,-0.415154,-0.162859,0.00147149,0.0119042,0.214393,5,0.1,2,2.9,-3.35819,-1.69852,0.60208,-0.493393,-0.00322871,0.015109,-0.0630915,-0.133142,0.0762343,0.010659,1.12398,5,0.1,3,2.9,-1.74657,3.87985,0.597502,0.699725,0.0792183,0.00354582,-0.122137,0.0120103,-0.0041686,0.00998484,0.527263,5,0.1,4,2.9,3.20079,2.89359,0.601152,0.005861,0.137675,-0.00222176,0.0233203,-0.0700206,0.00347197,0.0142285,0.422644,5,0.1,5,2.9,3.54711,-2.09109,0.567601,-0.0256035,0.866026,0.00853082,0.000193715,0,-7.82311e-05,0.0218811,2.27144,5,0.1,6,2.9,-0.0931221,-1.76793,0.603391,-0.301342,-0.13456,-0.015889,0.429115,0.307962,-0.0112318,0.00771682,0.477783,5,0.1,7,2.9,3.70037,0.970194,0.622668,-0.242125,0.866025,-0.0134785,-0.0507236,-7.45058e-06,0.00120699,0.0115438,2.23027,5,0.1,8,2.9,-3.2037,-0.306833,0.611098,0.0116382,-0.464374,-0.0133242,0.372663,-0.808727,0.0218377,0.0147892,3.04718,5,0.1,9,2.9,2.3731,3.11006,0.616172,0.789458,-0.167748,-0.012049,-0.295639,-0.0869632,-0.00152364,0.00963153,0.432475,5,0.1,10,2.9,-1.68609,-3.19267,0.59207,0.0352018,0.113649,0.00773529,-0.0362247,0.911891,-0.00792369,0.00880478,1.2547,5,0.1,11,2.9,0.0720896,1.84828,0.598608,0.665262,0.406419,0.00134502,0.372811,0.36861,-0.00137091,0.0247766,1.15503,5,0.1,12,2.9,-0.360248,-1.9575,0.50001,-0.0680603,0.866026,-6.72415e-05,-0.00131689,0,0.000245869,0.031206,2.28068,5,0.1,13,2.9,1.31475,2.40417,0.599963,-0.332848,0.0124067,0.000313576,-0.0896007,-0.0160933,-0.00124052,0.0100911,0.142046,5,0.1,14,2.9,0.845454,1.43721,0.595001,0.317687,-0.11723,0.00363346,-0.137873,-0.0905246,-0.0264421,0.0104117,0.48752,5,0.1,15,2.9,0.726014,2.42741,0.598555,-0.306888,-0.123755,0.00158073,0.156365,0.346273,-0.000800937,0.00934628,0.2306,5,0.1,16,2.9,1.21926,1.02555,0.741699,-0.0716262,0.593339,0.00821585,0.13268,-0.4436,-0.00836328,0.00964588,0.167414,5,0.1,17,2.9,3.92156,-1.43045,0.581116,-0.164085,0.866025,0.00497783,0.0012964,1.49012e-05,-5.58794e-05,0.0179406,2.25431,5,0.1,18,2.9,0.449187,-0.202176,1.29979,0.0020152,0.00599001,0.00624582,-0.00467524,0.221248,-0.119701,0.0120021,0.818514,5,0.1,19,2.9,-0.711708,-1.27362,0.618191,0.0820304,0.384455,0.00749771,-0.0424199,-0.173897,-0.0039041,0.00893823,0.0811719,5,0.1,20,2.9,-0.991256,1.67054,0.747467,0.136206,-0.0375522,0.00463864,1.09038,0.0874326,-0.0107996,0.0116203,1.67948,5,0.1,21,2.9,-3.20097,1.35078,0.597189,-0.00884384,0.295648,0.00280626,-0.148624,-0.287496,-0.00286102,0.00923889,1.93579,5,0.1,22,2.9,-1.12801,3.90562,0.594453,0.318504,0.154004,0.00602258,-0.18774,-0.109121,-0.00394508,0.00802067,0.324314,5,0.1,23,2.9,3.28796,2.63568,0.601179,-0.128889,0.181752,-0.00119526,-0.0985563,-0.270277,0.000990927,0.0188227,0.268734,5,0.1,24,2.9,-1.55406,2.00202,0.635972,-0.0775959,-0.865364,-0.0121234,-0.0679791,-0.0264496,-0.00732392,0.011933,2.27302,5,0.1,25,2.9,-1.11288,1.86708,0.734784,-0.234543,-0.252353,0.000111852,0.00941008,-0.63365,-0.0188388,0.0177456,3.42041,5,0.1,26,2.9,3.01535,3.27428,0.623235,-0.16028,0.402809,0.0195871,-0.0588298,0.0464171,0.0100248,0.00893569,0.153127,5,0.1,27,2.9,-1.35889,4.14639,0.585842,0.678641,0.219961,0.00233855,0.38933,-0.220031,0.00255555,0.0163454,2.68149,5,0.1,28,2.9,-1.999,2.40224,0.606084,0.34075,0.0055328,-0.00936184,0.103809,-0.0254512,0.0124201,0.0246454,0.336636,5,0.1,29,2.9,1.61836,0.0960282,0.654766,0.154809,0.293894,0.012702,-0.0547245,-0.0204663,-0.00318512,0.0123196,0.0682282,5,0.1
0,3,0.558767,-1.6244,0.581124,-0.512795,-0.207263,0.0188351,0.329286,0.326037,-0.0177324,0.00843682,0.121186,5,0.1,1,3,0.718196,-0.559634,0.601492,0.468996,0.332497,-0.0014782,-0.440836,-0.198781,0.00151992,0.00865077,0.146449,5,0.1,2,3,-3.40781,-1.7,0.603965,-0.497729,-0.0309795,0.0224456,0.00286102,-0.403404,0.0672936,0.0105896,0.916622,5,0.1,3,3,-1.67734,3.88785,0.597835,0.683084,0.0807405,0.00312477,-0.235617,0.0127554,-0.00432134,0.0102299,0.375658,5,0.1,4,3,3.20146,2.90694,0.600947,0.00709891,0.128633,-0.00188053,-0.00286102,-0.110865,0.00333786,0.0207531,3.81524,5,0.1,5,3,3.54456,-2.00449,0.568452,-0.0254333,0.866026,0.00847429,0.00417233,-5.96046e-05,-0.00143051,0.0484107,2.27146,5,0.1,6,3,-0.121203,-1.77982,0.601745,-0.261106,-0.102982,-0.0170112,0.379055,0.317335,-0.010252,0.0183623,0.43293,5,0.1,7,3,3.67588,1.0568,0.621328,-0.247377,0.866026,-0.0132784,-0.0377893,0,0.00327826,0.0204202,2.22572,5,0.1,8,3,-3.2,-0.357164,0.609875,0.0687838,-0.539562,-0.0111312,0.745058,-0.649691,0.0218749,0.0138355,2.701,5,0.1,9,3,2.45037,3.09295,0.614966,0.753605,-0.173271,-0.0120193,-0.439882,-0.0181198,0.00244379,0.00753102,0.289152,5,0.1,10,3,-1.68274,-3.17653,0.592805,0.0316888,0.209653,0.00696778,-0.0348091,0.95284,-0.0076592,0.00849692,1.01987,5,0.1,11,3,0.140063,1.89049,0.598736,0.689471,0.434592,0.00121146,0.0903082,0.178039,-0.0013113,0.0197835,0.899664,5,0.1,12,3,-0.366902,-1.87089,0.500004,-0.0636183,0.866026,-4.17233e-05,0.082776,0,0.000268221,0.00812149,0.980097,5,0.1,13,3,1.28105,2.40531,0.599989,-0.340325,0.0103176,0.000202656,-0.0403523,-0.0245571,-0.000923872,0.00983808,0.0848218,5,0.1,14,3,0.876474,1.42499,0.595216,0.301917,-0.127205,0.000542402,-0.185609,-0.0962019,-0.0333786,0.0133704,0.443646,5,0.1,15,3,0.696113,2.41673,0.598709,-0.290793,-0.0902712,0.00149757,0.176191,0.319242,-0.000834465,0.0108177,0.208383,5,0.1,16,3,1.2128,1.08263,0.742479,-0.0573486,0.54749,0.00739992,0.149071,-0.486434,-0.00813603,0.00842863,0.204099,5,0.1,17,3,3.90518,-1.34385,0.581613,-0.163025,0.866026,0.0049457,0.0269413,-5.96046e-05,-0.000834465,0.0218863,2.25474,5,0.1,18,3,0.449366,-0.2,1.3,0.0015825,0.0420108,0,-0.00400841,0.483349,0,0.0125048,0.70799,5,0.1,19,3,-0.703718,-1.23607,0.618921,0.0777125,0.36605,0.00710189,-0.0468493,-0.207365,-0.00432134,0.0134424,0.0633167,5,0.1,20,3,-0.971974,1.66719,0.74788,0.249884,-0.0295937,0.00365525,1.11991,0.0724792,-0.0089407,0.0126326,1.36358,5,0.1,21,3,-3.20227,1.37893,0.597456,-0.0134587,0.267369,0.00252724,0.0767708,-0.285029,-0.00280142,0.00829915,1.79413,5,0.1,22,3,-1.09736,3.92044,0.595034,0.291887,0.142127,0.00558197,-0.336051,-0.130415,-0.00500679,0.0116797,0.313637,5,0.1,23,3,3.27452,2.6526,0.601064,-0.140029,0.15741,-0.00110567,-0.109196,-0.223279,0.00089407,0.0213983,0.23356,5,0.1,24,3,-1.56211,1.91543,0.63473,-0.082773,-0.866026,-0.0126421,-0.0323653,0,-0.0025928,0.0136904,2.26706,5,0.1,25,3,-1.13579,1.8384,0.734713,-0.218716,-0.322843,-0.00140518,0.296772,-0.733018,-0.0113845,0.0195819,3.03534,5,0.1,26,3,2.99906,3.31466,0.625237,-0.165051,0.403005,0.0203446,-0.0275373,-0.0568628,0.00414252,0.0319201,3.62726,5,0.1,27,3,-1.28975,4.16701,0.58609,0.697249,0.190091,0.00262111,-0.0200272,-0.361204,0.00277162,0.0181963,2.94055,5,0.1,28,3,-1.96445,2.40264,0.605209,0.34931,0.00235438,-0.0081256,0.0478625,-0.035882,0.0123382,0.0258141,0.694454,5,0.1,29,3,1.63355,0.125263,0.656019,0.148845,0.289956,0.0123233,-0.0706911,-0.0708771,-0.00488758,0.00987034,0.0317689,5,0.1
0,3.1,0.509066,-1.64362,0.582923,-0.481538,-0.177989,0.0171955,0.310605,0.265099,-0.0155829,0.00843682,0.121186,5,0.1,1,3.1,0.763026,-0.527296,0.601351,0.428574,0.314789,-0.00133971,-0.381343,-0.167834,0.00129268,0.00865077,0.146449,5,0.1,2,3.1,-3.45771,-1.70567,0.606552,-0.500991,-0.0866793,0.0292696,-0.0393093,-0.662163,0.0658631,0.0105896,0.916622,5,0.1,3,3.1,-1.61017,3.89602,0.598127,0.659888,0.0827324,0.002719,-0.250369,0.0216812,-0.00384077,0.0102299,0.375658,5,0.1,4,3.1,3.20252,2.91952,0.600775,0.0158224,0.12507,-0.00156341,0.0982732,0.0210255,0.00301376,0.0207531,3.81524,5,0.1,5,3.1,3.54202,-1.91789,0.569296,-0.0252891,0.866025,0.00842353,0.00025332,1.49012e-05,-0.000100583,0.0484107,2.27146,5,0.1,6,3.1,-0.145966,-1.78855,0.599941,-0.23877,-0.0721235,-0.0194819,0.101071,0.294223,-0.0349022,0.0183623,0.43293,5,0.1,7,3.1,3.6508,1.1434,0.620011,-0.255234,0.866026,-0.0130805,-0.0986308,0,0.00142679,0.0204202,2.22572,5,0.1,8,3.1,-3.18854,-0.414552,0.608867,0.166965,-0.608669,-0.00906838,1.13906,-0.679545,0.0194274,0.0138355,2.701,5,0.1,9,3.1,2.52363,3.07555,0.613776,0.711972,-0.174474,-0.0117562,-0.415653,0.000610948,0.00320002,0.00753102,0.289152,5,0.1,10,3.1,-1.67973,-3.15053,0.593466,0.0285685,0.311851,0.00628131,-0.0286102,1.0362,-0.00629202,0.00849692,1.01987,5,0.1,11,3.1,0.208814,1.93451,0.598851,0.679346,0.442421,0.00109281,-0.282259,-0.0233874,-0.00109524,0.0197835,0.899664,5,0.1,12,3.1,-0.373607,-1.78621,0.500001,-0.0768468,0.810598,-1.89058e-05,-0.299189,-1.02144,0.00018999,0.00812149,0.980097,5,0.1,13,3.1,1.24678,2.40621,0.600005,-0.345061,0.00759661,0.000121351,-0.0369698,-0.0289083,-0.00070408,0.00983808,0.0848218,5,0.1,14,3.1,0.905488,1.41169,0.59502,0.276111,-0.139455,-0.00513298,-0.32118,-0.134476,-0.0738762,0.0133704,0.443646,5,0.1,15,3.1,0.667862,2.40922,0.598855,-0.274502,-0.0606515,0.00142036,0.159286,0.270545,-0.000756234,0.0108177,0.208383,5,0.1,16,3.1,1.2078,1.13498,0.743246,-0.0426592,0.499536,0.00849767,0.14279,-0.48162,0.0257976,0.00842863,0.204099,5,0.1,17,3.1,3.88895,-1.25724,0.582105,-0.162107,0.866025,0.00491673,0.00137091,1.49012e-05,-4.84288e-05,0.0218863,2.25474,5,0.1,18,3.1,0.449506,-0.192805,1.3,0.00121868,0.106322,0,-0.00328757,0.750025,0,0.0125048,0.70799,5,0.1,19,3.1,-0.696143,-1.20034,0.619613,0.0740509,0.349591,0.00676466,-0.0306331,-0.141017,-0.00281259,0.0134424,0.0633167,5,0.1,20,3.1,-0.941085,1.66457,0.748204,0.369271,-0.0231441,0.00285935,1.20475,0.0572056,-0.00706315,0.0126326,1.36358,5,0.1,21,3.1,-3.20294,1.40434,0.597696,0.00484288,0.24157,0.00227448,0.351876,-0.239059,-0.00233203,0.00829915,1.79413,5,0.1,22,3.1,-1.0701,3.93402,0.595568,0.251446,0.12964,0.00509685,-0.45903,-0.122383,-0.0048019,0.0116797,0.313637,5,0.1,23,3.1,3.26021,2.66739,0.600958,-0.144025,0.139739,-0.00103042,0.023514,-0.140235,0.000663102,0.0213983,0.23356,5,0.1,24,3.1,-1.57056,1.82882,0.633451,-0.0860764,-0.866026,-0.0129332,-0.02902,0,-0.00254437,0.0136904,2.26706,5,0.1,25,3.1,-1.15521,1.80156,0.734535,-0.16171,-0.420625,-0.00197999,0.782296,-1.13098,-0.000938773,0.0195819,3.03534,5,0.1,26,3.1,2.9809,3.35339,0.627236,-0.21081,0.360506,0.0191371,-0.784218,-0.726506,-0.0256784,0.0319201,3.62726,5,0.1,27,3.1,-1.22131,4.18394,0.586367,0.661453,0.146081,0.00292249,-0.633769,-0.497848,0.00300258,0.0181963,2.94055,5,0.1,28,3.1,-1.92887,2.40272,0.604456,0.365211,-0.000469759,-0.00696322,0.229165,-0.0217408,0.0110157,0.0258141,0.694454,5,0.1,29,3.1,1.64809,0.153895,0.657227,0.141901,0.282354,0.0118292,-0.0727326,-0.0905284,-0.00536814,0.00987034,0.0317689,5,0.1
0,3.2,0.462532,-1.66015,0.584565,-0.448205,-0.153261,0.0156313,0.365973,0.23371,-0.0160933,0.00850049,0.300775,5,0.1,1,3.2,0.803983,-0.496688,0.601223,0.390397,0.29682,-0.00121295,-0.391781,-0.200197,0.0013113,0.0122999,0.0995527,5,0.1,2,3.2,-3.50788,-1.71775,0.609783,-0.500691,-0.154904,0.035052,0.0655651,-0.665605,0.0474155,0.00708676,0.711014,5,0.1,3,3.2,-1.54561,3.90438,0.59838,0.629339,0.0841498,0.00234693,-0.375211,0.00298023,-0.00360608,0.0097567,0.283324,5,0.1,4,3.2,3.20428,2.93222,0.600633,0.0151992,0.129575,-0.00127703,-0.147104,0.0547171,0.00274181,0.0204701,3.65545,5,0.1,5,3.2,3.5395,-1.83129,0.570136,-0.0251114,0.866026,0.00836551,0.00417233,-5.96046e-05,-0.00143051,0.0233914,2.27147,5,0.1,6,3.2,-0.16957,-1.79437,0.597806,-0.234984,-0.0450611,-0.0232443,0.000312924,0.243545,-0.0371337,0.00760841,0.377004,5,0.1,7,3.2,3.62483,1.23,0.618712,-0.263542,0.866026,-0.0128657,-0.0523329,-5.96046e-05,0.00336766,0.0148052,1.78215,5,0.1,8,3.2,-3.16604,-0.47851,0.608054,0.282651,-0.666448,-0.00723898,1.11473,-0.438734,0.0171959,0.0144857,2.38499,5,0.1,9,3.2,2.59264,3.05818,0.61262,0.666642,-0.172067,-0.0113145,-0.506282,0.0517368,0.00590086,0.00799207,0.203953,5,0.1,10,3.2,-1.67702,-3.1144,0.594064,0.0257909,0.407434,0.00566989,-0.0276566,0.835776,-0.00607967,0.00851424,0.163368,5,0.1,11,3.2,0.274798,1.9783,0.598955,0.635221,0.429806,0.000984967,-0.588775,-0.227988,-0.00104308,0.0195835,0.621856,5,0.1,12,3.2,-0.383092,-1.71135,0.5,-0.114914,0.677595,-5.96046e-06,-0.424877,-1.56724,0.000119209,0.00808247,0.29988,5,0.1,13,3.2,1.21221,2.40683,0.600014,-0.344789,0.00470281,6.10948e-05,0.0542998,-0.0282526,-0.000506639,0.0141675,0.0643545,5,0.1,14,3.2,0.931335,1.3971,0.594113,0.239432,-0.151637,-0.0131309,-0.404149,-0.0987053,-0.0812709,0.00739709,0.590794,5,0.1,15,3.2,0.641244,2.40441,0.598993,-0.257313,-0.0365615,0.00133663,0.191063,0.210285,-0.000923872,0.0108313,0.415259,5,0.1,16,3.2,1.20423,1.18247,0.744252,-0.0291288,0.449705,0.0117972,0.126421,-0.520587,0.0368357,0.0103665,0.280601,5,0.1,17,3.2,3.87277,-1.17064,0.582596,-0.161046,0.866026,0.00488609,0.0270605,-5.96046e-05,-0.000864267,0.0162359,2.25518,5,0.1,18,3.2,0.449612,-0.17834,1.3,0.000921637,0.182746,0,-0.00268221,0.738606,0,0.0147687,0.387972,5,0.1,19,3.2,-0.688892,-1.16611,0.620275,0.070861,0.334576,0.00647306,-0.0361502,-0.172794,-0.00333786,0.00966206,0.0288497,5,0.1,20,3.2,-0.898421,1.66252,0.748458,0.479981,-0.0180274,0.00222772,0.964046,0.0456572,-0.00563264,0.0105216,1.0485,5,0.1,21,3.2,-3.2,1.42732,0.597912,0.0604987,0.218171,0.00204742,0.734568,-0.234723,-0.00226498,0.0094262,1.54815,5,0.1,22,3.2,-1.04735,3.94637,0.596053,0.202578,0.117153,0.00460446,-0.507176,-0.12958,-0.0051856,0.00736535,0.310418,5,0.1,23,3.2,3.2461,2.68073,0.600858,-0.136435,0.127596,-0.000965595,0.122786,-0.11003,0.000685453,0.0191003,0.198266,5,0.1,24,3.2,-1.57927,1.74222,0.63215,-0.0877887,-0.866026,-0.0130326,-0.00196695,5.96046e-05,0.000953674,0.0116897,2.29609,5,0.1,25,3.2,-1.16709,1.7538,0.734344,-0.0731438,-0.53305,-0.00174344,0.941157,-1.04928,0.00503659,0.0177172,2.61005,5,0.1,26,3.2,2.95535,3.38516,0.62899,-0.30359,0.269717,0.0156835,-0.991583,-1.03581,-0.041306,0.0359235,3.03291,5,0.1,27,3.2,-1.15893,4.19597,0.586673,0.58136,0.0942826,0.00317842,-0.921667,-0.52166,0.00190735,0.00701826,0.616209,5,0.1,28,3.2,-1.89118,2.40258,0.603813,0.38802,-0.00218749,-0.00590533,0.196934,-0.0135899,0.0102222,0.0252797,1.12122,5,0.1,29,3.2,1.66189,0.181584,0.65838,0.133547,0.270313,0.0111893,-0.0972748,-0.156313,-0.0077188,0.0103561,0.0124274,5,0.1
0,3.3,0.419139,-1.6744,0.586053,-0.422871,-0.13249,0.0141557,0.172865,0.186436,-0.0138581,0.00850049,0.300775,5,0.1,1,3.3,0.841188,-0.467936,0.601108,0.35465,0.278663,-0.0010943,-0.334639,-0.173159,0.00109524,0.0122999,0.0995527,5,0.1,2,3.3,-3.5577,-1.73673,0.613522,-0.495937,-0.225363,0.039603,0.0525266,-0.706919,0.0410154,0.00708676,0.711014,5,0.1,3,3.3,-1.48477,3.91277,0.598598,0.585293,0.0833184,0.00202516,-0.505671,-0.0207424,-0.002902,0.0097567,0.283324,5,0.1,4,3.3,3.20448,2.94533,0.600511,-0.0168666,0.131349,-0.00122674,-0.479609,-0.0182688,-0.00127405,0.0204701,3.65545,5,0.1,5,3.3,3.537,-1.74468,0.570969,-0.0249613,0.866025,0.00831326,0.000342727,1.49012e-05,-0.000122935,0.0233914,2.27147,5,0.1,6,3.3,-0.193326,-1.79774,0.595277,-0.242076,-0.023333,-0.0274426,-0.116414,0.187516,-0.0435747,0.00760841,0.377004,5,0.1,7,3.3,3.59814,1.3166,0.61744,-0.270439,0.866,-0.0126049,-0.0690818,-0.000983477,0.00245124,0.0148052,1.78215,5,0.1,8,3.3,-3.1319,-0.547476,0.60741,0.401304,-0.712926,-0.00568861,1.19452,-0.442775,0.0139438,0.0144857,2.38499,5,0.1,9,3.3,2.65657,3.04121,0.61152,0.609994,-0.167238,-0.0106768,-0.625163,0.0512153,0.00703707,0.00799207,0.203953,5,0.1,10,3.3,-1.67457,-3.07009,0.594603,0.0233155,0.472347,0.00512553,-0.0226945,0.45985,-0.00498816,0.00851424,0.163368,5,0.1,11,3.3,0.334779,2.01988,0.599048,0.559211,0.399428,0.000888947,-0.901191,-0.37352,-0.000905246,0.0195835,0.621856,5,0.1,12,3.3,-0.39695,-1.65114,0.5,-0.163841,0.529521,1.67638e-06,-0.520537,-1.39154,3.72529e-05,0.00808247,0.29988,5,0.1,13,3.3,1.17792,2.40715,0.600018,-0.34135,0.00179671,1.81608e-05,0.0326484,-0.028953,-0.000361353,0.0141675,0.0643545,5,0.1,14,3.3,0.95246,1.38233,0.592114,0.176481,-0.136051,-0.0291043,-0.801504,0.363141,-0.217434,0.00739709,0.590794,5,0.1,15,3.3,0.616443,2.40179,0.599122,-0.238805,-0.0164539,0.00124648,0.185214,0.181943,-0.000916421,0.0108313,0.415259,5,0.1,16,3.3,1.20196,1.22505,0.745577,-0.0163389,0.403422,0.0143551,0.122376,-0.420108,0.0151433,0.0103665,0.280601,5,0.1,17,3.3,3.85673,-1.08404,0.583082,-0.160089,0.866025,0.00485415,0.00187755,1.11759e-05,-7.82311e-05,0.0162359,2.25518,5,0.1,18,3.3,0.449692,-0.156368,1.3,0.000683079,0.25599,0,-0.00210665,0.696127,0,0.0147687,0.387972,5,0.1,19,3.3,-0.68198,-1.13349,0.620907,0.0673845,0.317735,0.00615325,-0.0356436,-0.174128,-0.00326335,0.00966206,0.0288497,5,0.1,20,3.3,-0.845604,1.66092,0.748655,0.575096,-0.014041,0.00173561,0.889786,0.0346452,-0.00427663,0.0105216,1.0485,5,0.1,21,3.3,-3.18944,1.44805,0.598106,0.157082,0.196995,0.00184365,1.11949,-0.195548,-0.0018701,0.0094262,1.54815,5,0.1,22,3.3,-1.02963,3.9574,0.596489,0.152034,0.103147,0.00413889,-0.495084,-0.148982,-0.00427291,0.00736535,0.310418,5,0.1,23,3.3,3.23322,2.6932,0.600764,-0.119767,0.12375,-0.000904687,0.202626,0.0151247,0.000566244,0.0191003,0.198266,5,0.1,24,3.3,-1.58808,1.65563,0.630848,-0.0884043,-0.865411,-0.0130143,-0.00564009,0.0245273,0.000104308,0.0116897,2.29609,5,0.1,25,3.3,-1.16938,1.69491,0.734204,0.0292247,-0.646211,-0.00100303,1.06064,-1.13931,0.00915676,0.0177172,2.61005,5,0.1,26,3.3,2.91938,3.40629,0.630329,-0.42014,0.147821,0.0109146,-1.25599,-1.33941,-0.0519864,0.0359235,3.03291,5,0.1,27,3.3,-1.10613,4.20388,0.586961,0.468475,0.0732102,0.00224942,-1.28449,0.0436008,-0.0181757,0.00701826,0.616209,5,0.1,28,3.3,-1.85108,2.4024,0.603271,0.416245,-0.00073798,-0.00496265,0.325859,0.0305921,0.00872463,0.0252797,1.12122,5,0.1,29,3.3,1.67475,0.207798,0.659459,0.123545,0.253502,0.0103852,-0.104815,-0.18398,-0.00853091,0.0103561,0.0124274,5,0.1
