id,t,px,py,pz,vx,vy,vz,ax,ay,az,planning_time,qp_cost,planning_report,size,id,t,px,py,pz,vx,vy,vz,ax,ay,az,planning_time,qp_cost,planning_report,size,id,t,px,py,pz,vx,vy,vz,ax,ay,az,planning_time,qp_cost,planning_report,size,id,t,px,py,pz,vx,vy,vz,ax,ay,az,planning_time,qp_cost,planning_report,size,id,t,px,py,pz,vx,vy,vz,ax,ay,az,planning_time,qp_cost,planning_report,size,id,t,px,py,pz,vx,vy,vz,ax,ay,az,planning_time,qp_cost,planning_report,size,id,t,px,py,pz,vx,vy,vz,ax,ay,az,planning_time,qp_cost,planning_report,size,id,t,px,py,pz,vx,vy,vz,ax,ay,az,planning_time,qp_cost,planning_report,size,id,t,px,py,pz,vx,vy,vz,ax,ay,az,planning_time,qp_cost,planning_report,size,id,t,px,py,pz,vx,vy,vz,ax,ay,az,planning_time,qp_cost,planning_report,size,id,t,px,py,pz,vx,vy,vz,ax,ay,az,planning_time,qp_cost,planning_report,size,id,t,px,py,pz,vx,vy,vz,ax,ay,az,planning_time,qp_cost,planning_report,size,id,t,px,py,pz,vx,vy,vz,ax,ay,az,planning_time,qp_cost,planning_report,size,id,t,px,py,pz,vx,vy,vz,ax,ay,az,planning_time,qp_cost,planning_report,size,id,t,px,py,pz,vx,vy,vz,ax,ay,az,planning_time,qp_cost,planning_report,size,id,t,px,py,pz,vx,vy,vz,ax,ay,az,planning_time,qp_cost,planning_report,size,id,t,px,py,pz,vx,vy,vz,ax,ay,az,planning_time,qp_cost,planning_report,size,id,t,px,py,pz,vx,vy,vz,ax,ay,az,planning_time,qp_cost,planning_report,size,id,t,px,py,pz,vx,vy,vz,ax,ay,az,planning_time,qp_cost,planning_report,size,id,t,px,py,pz,vx,vy,vz,ax,ay,az,planning_time,qp_cost,planning_report,size,id,t,px,py,pz,vx,vy,vz,ax,ay,az,planning_time,qp_cost,planning_report,size,id,t,px,py,pz,vx,vy,vz,ax,ay,az,planning_time,qp_cost,planning_report,size,id,t,px,py,pz,vx,vy,vz,ax,ay,az,planning_time,qp_cost,planning_report,size,id,t,px,py,pz,vx,vy,vz,ax,ay,az,planning_time,qp_cost,planning_report,size,id,t,px,py,pz,vx,vy,vz,ax,ay,az,planning_time,qp_cost,planning_report,size,id,t,px,py,pz,vx,vy,vz,ax,ay,az,planning_time,qp_cost,planning_report,size,id,t,px,py,pz,vx,vy,vz,ax,ay,az,planning_time,qp_cost,planning_report,size,id,t,px,py,pz,vx,vy,vz,ax,ay,az,planning_time,qp_cost,planning_report,size,id,t,px,py,pz,vx,vy,vz,ax,ay,az,planning_time,qp_cost,planning_report,size,id,t,px,py,pz,vx,vy,vz,ax,ay,az,planning_time,qp_cost,planning_report,size
0,0,-1.33793,3.48205,0.675063,0,0,0,0,0,0,0.0110373,3.51219,5,0.1,1,0,-1.20282,-3.77703,0.51708,0,0,0,0,0,0,0.0104318,3.5122,5,0.1,2,0,-2.8881,-0.904963,0.544143,0,0,0,0,0,0,0.00928822,1.74021,5,0.1,3,0,-3.46196,-2.30886,0.674318,0,0,0,0,0,0,0.0167828,3.5122,5,0.1,4,0,-1.33204,1.56923,0.549093,0,0,0,0,0,0,0.00722,3.51219,5,0.1,5,0,1.75571,3.92763,0.606155,0,0,0,0,0,0,0.00977428,3.5122,5,0.1,6,0,-0.982225,-2.93253,0.682427,0,0,0,0,0,0,0.0282403,3.5122,5,0.1,7,0,4.00532,0.0878963,0.540962,0,0,0,0,0,0,0.0184288,3.5122,5,0.1,8,0,0.452441,-4.21631,0.685497,0,0,0,0,0,0,0.0100709,3.5122,5,0.1,9,0,1.79809,-3.12445,0.592278,0,0,0,0,0,0,0.0255794,3.51219,5,0.1,10,0,0.722228,-1.40232,0.633446,0,0,0,0,0,0,0.0149552,2.29555,5,0.1,11,0,-1.0572,-1.57612,0.553226,0,0,0,0,0,0,0.0115148,3.5122,5,0.1,12,0,4.13874,3.85035,0.596244,0,0,0,0,0,0,0.0148137,1.27933,5,0.1,13,0,0.30445,3.10562,0.699603,0,0,0,0,0,0,0.00831608,0.605384,5,0.1,14,0,4.2446,2.15908,0.605122,0,0,0,0,0,0,0.0215356,1.98106,5,0.1,15,0,-1.64639,-0.333179,0.629115,0,0,0,0,0,0,0.0100488,3.61262,5,0.1,16,0,-0.623296,-2.34186,0.682717,0,0,0,0,0,0,0.0108212,0.458472,5,0.1,17,0,2.39151,2.73442,0.54041,0,0,0,0,0,0,0.0130281,0.799176,5,0.1,18,0,1.86171,-0.726055,0.539619,0,0,0,0,0,0,0.0134446,3.5122,5,0.1,19,0,1.40687,1.42673,0.551357,0,0,0,0,0,0,0.00841125,3.5122,5,0.1,20,0,1.08188,3.34445,0.558283,0,0,0,0,0,0,0.00797721,0.663157,5,0.1,21,0,-0.401879,-3.64354,0.525679,0,0,0,0,0,0,0.03213,3.5122,5,0.1,22,0,-2.68544,-3.7833,0.592921,0,0,0,0,0,0,0.0179529,1.29359,5,0.1,23,0,0.0532532,3.78974,0.509527,0,0,0,0,0,0,0.00994278,3.51219,5,0.1,24,0,-0.251315,-0.946008,0.540872,0,0,0,0,0,0,0.0080213,3.51219,5,0.1,25,0,-2.35574,4.37298,0.625591,0,0,0,0,0,0,0.0123885,3.51219,5,0.1,26,0,-3.90258,3.69883,0.685257,0,0,0,0,0,0,0.0114366,3.51219,5,0.1,27,0,-1.35926,0.604605,0.593085,0,0,0,0,0,0,0.00732317,0.385529,5,0.1,28,0,-4.13487,-2.30472,0.69528,0,0,0,0,0,0,0.0295144,1.2307,5,0.1,29,0,-2.59278,3.68145,0.569429,0,0,0,0,0,0,0.0135812,2.35184,5,0.1
0,0.1,-1.33769,3.47998,0.674996,0.00700019,-0.058822,-0.00190642,0.124454,-1.04575,-0.0338927,0.0110373,3.51219,5,0.1,1,0.1,-1.20077,-3.77664,0.517026,0.0582403,0.0108827,-0.00153035,1.03538,0.193462,-0.0272095,0.0104318,3.5122,5,0.1,2,0.1,-2.88853,-0.906367,0.544201,-0.0122063,-0.0398591,0.00165533,-0.217021,-0.708602,0.0294298,0.00928822,1.74021,5,0.1,3,0.1,-3.46187,-2.30678,0.674276,0.00262037,0.0591982,-0.00120234,0.046581,1.05242,-0.0213757,0.0167828,3.5122,5,0.1,4,0.1,-1.32995,1.56918,0.549135,0.0592342,-0.00161957,0.00119079,1.05304,-0.0287965,0.0211671,0.00722,3.51219,5,0.1,5,0.1,1.75443,3.92598,0.606149,-0.0364024,-0.0467706,-0.00017155,-0.647157,-0.8315,-0.00304729,0.00977428,3.5122,5,0.1,6,0.1,-0.981752,-2.9305,0.682473,0.0134263,0.0577122,0.00132984,0.238687,1.026,0.023637,0.0282403,3.5122,5,0.1,7,0.1,4.00483,0.0899251,0.541003,-0.0139482,0.0575917,0.00116769,-0.247985,1.02385,0.0207573,0.0184288,3.5122,5,0.1,8,0.1,0.450413,-4.21581,0.685532,-0.0575685,0.0140585,0.00098953,-1.02344,0.249892,0.0175871,0.0100709,3.5122,5,0.1,9,0.1,1.7977,-3.1224,0.592283,-0.0111429,0.0582106,0.000143703,-0.198103,1.03486,0.00255927,0.0255794,3.51219,5,0.1,10,0.1,0.72116,-1.40101,0.633411,-0.0302928,0.0371117,-0.00099102,-0.538539,0.659764,-0.0176243,0.0149552,2.29555,5,0.1,11,0.1,-1.05527,-1.57532,0.553234,0.0548216,0.0225225,0.000225101,0.974603,0.400402,0.00400469,0.0115148,3.5122,5,0.1,12,0.1,4.13755,3.84993,0.596248,-0.0337467,-0.0118639,0.0001112,-0.599921,-0.210926,0.00198185,0.0148137,1.27933,5,0.1,13,0.1,0.30428,3.10479,0.699441,-0.00481755,-0.0236914,-0.0045822,-0.0856444,-0.421196,-0.0814609,0.00831608,0.605384,5,0.1,14,0.1,4.2433,2.15995,0.605117,-0.0368819,0.0249203,-0.000151806,-0.655711,0.443026,-0.00269711,0.0215356,1.98106,5,0.1,15,0.1,-1.64643,-0.332039,0.629098,-0.00117179,0.0323623,-0.000474788,-0.0208244,0.57533,-0.00844151,0.0100488,3.61262,5,0.1,16,0.1,-0.622802,-2.34129,0.682787,0.0140259,0.0160575,0.00199368,0.249349,0.285476,0.0354461,0.0108212,0.458472,5,0.1,17,0.1,2.39058,2.73407,0.540472,-0.0264186,-0.00991039,0.00176579,-0.46967,-0.176206,0.0313967,0.0130281,0.799176,5,0.1,18,0.1,1.8599,-0.727098,0.539678,-0.0513189,-0.0296036,0.00166446,-0.912324,-0.526287,0.0295937,0.0134446,3.5122,5,0.1,19,0.1,1.40664,1.42466,0.551471,-0.00628345,-0.058846,0.00322675,-0.111714,-1.04616,0.0573657,0.00841125,3.5122,5,0.1,20,0.1,1.08278,3.34435,0.558247,0.0255905,-0.0027135,-0.00101607,0.454947,-0.0482202,-0.0180677,0.00797721,0.663157,5,0.1,21,0.1,-0.401821,-3.64147,0.525892,0.00164784,0.0589348,0.00605453,0.0292975,1.04773,0.107639,0.03213,3.5122,5,0.1,22,0.1,-2.68436,-3.78264,0.592929,0.0306845,0.0187669,0.000209827,0.545502,0.333652,0.00372902,0.0179529,1.29359,5,0.1,23,0.1,0.0536337,3.78769,0.50947,0.0108012,-0.0582531,-0.0016205,0.192022,-1.0356,-0.0288114,0.00994278,3.51219,5,0.1,24,0.1,-0.253366,-0.946392,0.540943,-0.0582248,-0.0108907,0.0019989,-1.03511,-0.193618,0.0355355,0.0080213,3.51219,5,0.1,25,0.1,-2.35522,4.37096,0.625566,0.0150077,-0.0573307,-0.000691228,0.26682,-1.01924,-0.012286,0.0123885,3.51219,5,0.1,26,0.1,-3.9008,3.69774,0.685311,0.0504058,-0.0311382,0.00155214,0.896111,-0.553548,0.027597,0.0114366,3.51219,5,0.1,27,0.1,-1.35956,0.605227,0.593092,-0.00861567,0.0176438,0.000204891,-0.153176,0.313673,0.00364333,0.00732317,0.385529,5,0.1,28,0.1,-4.13384,-2.30404,0.695337,0.0291854,0.0194021,0.00162162,0.518858,0.344932,0.0288263,0.0295144,1.2307,5,0.1,29,0.1,-2.59195,3.67996,0.569461,0.0234935,-0.0424206,0.000905804,0.417665,-0.754118,0.0161082,0.0135812,2.35184,5,0.1
0,0.2,-1.33626,3.46803,0.674609,0.0221252,-0.185907,-0.00602603,0.165939,-1.39427,-0.0451803,0.00957123,2.9258,5,0.1,1,0.2,-1.18894,-3.77443,0.516715,0.184068,0.0343978,-0.00483692,1.38056,0.25785,-0.0362694,0.0122149,2.92579,5,0.1,2,0.2,-2.89101,-0.914463,0.544538,-0.0385761,-0.125974,0.0052318,-0.28944,-0.944793,0.0392199,0.0098613,1.42775,5,0.1,3,0.2,-3.46134,-2.29475,0.674031,0.00827909,0.187093,-0.00380129,0.0622272,1.40333,-0.0284612,0.016811,2.92578,5,0.1,4,0.2,-1.31792,1.56885,0.549377,0.187209,-0.00512004,0.00376403,1.40411,-0.0383854,0.0282228,0.00842929,3.00636,5,0.1,5,0.2,1.74704,3.91648,0.606114,-0.115052,-0.14782,-0.000542402,-0.862837,-1.10865,-0.00408292,0.0104312,2.92614,5,0.1,6,0.2,-0.979025,-2.91878,0.682744,0.042434,0.182396,0.00420213,0.318229,1.36805,0.0315607,0.0328596,2.92579,5,0.1,7,0.2,4.00199,0.101624,0.54124,-0.0440836,0.182018,0.00368953,-0.330567,1.36513,0.0276864,0.0170354,2.9258,5,0.1,8,0.2,0.438719,-4.21296,0.685733,-0.181945,0.0444293,0.00312775,-1.36457,0.333309,0.0234544,0.00984578,2.92579,5,0.1,9,0.2,1.79544,-3.11057,0.592312,-0.0352174,0.183976,0.000454485,-0.264108,1.37985,0.00342727,0.0323437,2.92579,5,0.1,10,0.2,0.715007,-1.39347,0.63321,-0.09574,0.11729,-0.00313222,-0.718057,0.879705,-0.0234842,0.0179136,1.88338,5,0.1,11,0.2,-1.04414,-1.57075,0.55328,0.173265,0.0711828,0.000712276,1.29944,0.533879,0.00530481,0.0115295,2.9258,5,0.1,12,0.2,4.13069,3.84752,0.596271,-0.106657,-0.0374973,0.000351667,-0.799656,-0.281215,0.00265241,0.0158823,1.04964,5,0.1,13,0.2,0.303302,3.09997,0.69851,-0.015226,-0.0748754,-0.0144824,-0.114202,-0.561595,-0.1086,0.00981216,0.496686,5,0.1,14,0.2,4.23581,2.16502,0.605086,-0.116575,0.0787616,-0.000479817,-0.874043,0.590682,-0.00360608,0.0160575,1.62537,5,0.1,15,0.2,-1.64667,-0.325465,0.629002,-0.00370443,0.102281,-0.00150055,-0.0277758,0.767112,-0.0112653,0.0114289,3.53498,5,0.1,16,0.2,-0.619953,-2.33803,0.683192,0.044328,0.0507534,0.0063017,0.332475,0.380516,0.0472665,0.0119718,0.376155,5,0.1,17,0.2,2.38521,2.73206,0.540831,-0.0834942,-0.0313163,0.00558048,-0.626326,-0.235081,0.0418723,0.0158018,0.655677,5,0.1,18,0.2,1.84948,-0.733111,0.540016,-0.162193,-0.0935614,0.00526011,-1.21641,-0.701725,0.0394583,0.0162257,2.92579,5,0.1,19,0.2,1.40537,1.4127,0.552126,-0.0198603,-0.185981,0.0101984,-0.148952,-1.39487,0.0764728,0.00644643,2.92579,5,0.1,20,0.2,1.08798,3.3438,0.558041,0.0808775,-0.00857711,-0.0032112,0.606596,-0.0642538,-0.0240803,0.0081407,0.544087,5,0.1,21,0.2,-0.401486,-3.6295,0.527122,0.00520796,0.186265,0.0191361,0.0390708,1.39701,0.143528,0.0375605,2.98633,5,0.1,22,0.2,-2.67813,-3.77883,0.592971,0.0969768,0.0593126,0.000663102,0.727415,0.444889,0.00497699,0.0253253,1.06132,5,0.1,23,0.2,0.0558277,3.77585,0.509141,0.0341373,-0.184113,-0.00512153,0.256026,-1.38068,-0.0384152,0.0129611,2.92601,5,0.1,24,0.2,-0.265193,-0.948604,0.541349,-0.184019,-0.0344202,0.0063166,-1.38015,-0.258148,0.0473857,0.0101642,2.92579,5,0.1,25,0.2,-2.35217,4.35932,0.625426,0.0474334,-0.181198,-0.00218302,0.355721,-1.35922,-0.0164211,0.0125958,2.92577,5,0.1,26,0.2,-3.89056,3.69141,0.685627,0.159311,-0.0984132,0.00490546,1.19472,-0.738025,0.0367761,0.0134695,2.9258,5,0.1,27,0.2,-1.36131,0.608811,0.593134,-0.0272304,0.0557631,0.000648201,-0.204265,0.418246,0.00485778,0.00731112,0.316306,5,0.1,28,0.2,-4.12791,-2.3001,0.695666,0.0922441,0.0613213,0.00512451,0.691652,0.45979,0.038445,0.0317269,1.00974,5,0.1,29,0.2,-2.58718,3.67134,0.569645,0.0742495,-0.134069,0.00286251,0.556946,-1.00553,0.0214875,0.0128701,1.92956,5,0.1
0,0.3,-1.33313,3.44169,0.673755,0.0412097,-0.346262,-0.0112228,0.20393,-1.71354,-0.0555366,0.00957123,2.9258,5,0.1,1,0.3,-1.16285,-3.76956,0.51603,0.342844,0.0640571,-0.0090085,1.69664,0.316978,-0.0445768,0.0122149,2.92579,5,0.1,2,0.3,-2.89647,-0.932305,0.545278,-0.0717748,-0.234353,0.0097312,-0.354126,-1.15613,0.0480041,0.0098613,1.42775,5,0.1,3,0.3,-3.46016,-2.26824,0.673493,0.015432,0.348485,-0.0070761,0.0763983,1.72459,-0.0349991,0.016811,2.92578,5,0.1,4,0.3,-1.29226,1.56812,0.54991,0.323853,-0.00953488,0.00701016,1.28489,-0.0471771,0.0346936,0.00842929,3.00636,5,0.1,5,0.3,1.73077,3.89557,0.606039,-0.213159,-0.274241,-0.000976864,-1.04037,-1.34327,-0.00439212,0.0104312,2.92614,5,0.1,6,0.3,-0.973012,-2.89293,0.683339,0.0790339,0.339732,0.00783056,0.391111,1.68127,0.0387654,0.0328596,2.92579,5,0.1,7,0.3,3.99575,0.127417,0.541763,-0.082105,0.339021,0.00687353,-0.40631,1.67772,0.0340194,0.0170354,2.9258,5,0.1,8,0.3,0.412936,-4.20666,0.686176,-0.338884,0.0827603,0.00582524,-1.67703,0.409573,0.0288263,0.00984578,2.92579,5,0.1,9,0.3,1.79045,-3.0845,0.592377,-0.0655929,0.342669,0.000847876,-0.324599,1.69578,0.00420213,0.0323437,2.92579,5,0.1,10,0.3,0.701447,-1.37686,0.632766,-0.178109,0.218201,-0.00582645,-0.878666,1.07645,-0.0287406,0.0179136,1.88338,5,0.1,11,0.3,-1.01958,-1.56066,0.55338,0.322713,0.132583,0.00132332,1.59701,0.656128,0.00653788,0.0115295,2.9258,5,0.1,12,0.3,4.11559,3.84221,0.596321,-0.198396,-0.0697561,0.000655372,-0.978649,-0.344127,0.00323728,0.0158823,1.04964,5,0.1,13,0.3,0.301145,3.08937,0.696459,-0.0283259,-0.139296,-0.0269406,-0.139741,-0.687197,-0.132903,0.00981216,0.496686,5,0.1,14,0.3,4.2193,2.17617,0.605018,-0.216845,0.14652,-0.000893138,-1.06969,0.722796,-0.00440329,0.0160575,1.62537,5,0.1,15,0.3,-1.64719,-0.311928,0.628789,-0.00689737,0.163364,-0.00279509,-0.0341088,0.462215,-0.0138283,0.0114289,3.53498,5,0.1,16,0.3,-0.613675,-2.33084,0.684084,0.0824661,0.0944067,0.0117237,0.406835,0.465676,0.0578389,0.0119718,0.376155,5,0.1,17,0.3,2.37338,2.72762,0.541621,-0.155338,-0.0582773,0.0103831,-0.766352,-0.287548,0.0512302,0.0158018,0.655677,5,0.1,18,0.3,1.82649,-0.74637,0.540762,-0.302093,-0.174266,0.00979807,-1.49495,-0.862393,0.0484884,0.0162257,2.92579,5,0.1,19,0.3,1.40255,1.38635,0.553571,-0.0369914,-0.346404,0.0189939,-0.183061,-1.71427,0.0939928,0.00644643,2.92579,5,0.1,20,0.3,1.09944,3.34259,0.557586,0.15046,-0.0159498,-0.00597369,0.742272,-0.0786632,-0.029467,0.0081407,0.544087,5,0.1,21,0.3,-0.400748,-3.60385,0.529748,0.00970676,0.32571,0.0332193,0.0481103,1.34037,0.133306,0.0375605,2.98633,5,0.1,22,0.3,-2.66439,-3.77043,0.593065,0.180417,0.110346,0.00123363,0.890076,0.544384,0.00608712,0.0253253,1.06132,5,0.1,23,0.3,0.0606531,3.7498,0.508438,0.0632387,-0.341911,-0.00891071,0.308536,-1.6792,-0.036031,0.0129611,2.92601,5,0.1,24,0.3,-0.29127,-0.953482,0.542244,-0.342748,-0.0641098,0.0117661,-1.69616,-0.317261,0.05823,0.0101642,2.92579,5,0.1,25,0.3,-2.34545,4.33364,0.625117,0.0883449,-0.337513,-0.00407016,0.437185,-1.6703,-0.0201575,0.0125958,2.92577,5,0.1,26,0.3,-3.86799,3.67747,0.686322,0.296718,-0.183294,0.00913572,1.46833,-0.907049,0.0452101,0.0134695,2.9258,5,0.1,27,0.3,-1.36517,0.616709,0.593225,-0.0506606,0.10374,0.00120532,-0.249937,0.511788,0.00594556,0.00731112,0.316306,5,0.1,28,0.3,-4.11485,-2.29141,0.696392,0.171591,0.114068,0.00953423,0.846475,0.562698,0.0470392,0.0317269,1.00974,5,0.1,29,0.3,-2.57666,3.65235,0.57005,0.138135,-0.249413,0.00532689,0.68149,-1.23042,0.0262894,0.0128701,1.92956,5,0.1
0,0.4,-1.32801,3.39864,0.67236,0.0608593,-0.51136,-0.0165731,0.180244,-1.51503,-0.0491142,0.00814464,2.51413,5,0.1,1,0.4,-1.12023,-3.7616,0.51491,0.506312,0.0945985,-0.0133038,1.50007,0.280261,-0.0393987,0.0109353,2.51248,5,0.1,2,0.4,-2.90539,-0.961419,0.546487,-0.105852,-0.345618,0.0143513,-0.312328,-1.01998,0.0423491,0.0173324,1.12965,5,0.1,3,0.4,-3.45824,-2.22492,0.672613,0.0227928,0.514644,-0.0104487,0.0674725,1.52481,-0.0309944,0.0167073,2.51539,5,0.1,4,0.4,-1.25395,1.56694,0.550781,0.436762,-0.0140816,0.0103518,0.942826,-0.0416636,0.0306964,0.011375,3.01537,5,0.1,5,0.4,1.70436,3.86156,0.60592,-0.312889,-0.403178,-0.00138432,-0.910938,-1.17898,-0.00360608,0.0104591,2.71382,5,0.1,6,0.4,-0.963186,-2.85069,0.684313,0.116718,0.501716,0.0115648,0.345767,1.48654,0.0342727,0.0395431,2.52546,5,0.1,7,0.4,3.98554,0.169565,0.542618,-0.121248,0.500665,0.0101507,-0.359416,1.4834,0.0300705,0.0390493,2.51115,5,0.1,8,0.4,0.370805,-4.19637,0.6869,-0.500463,0.122225,0.00860244,-1.4828,0.361919,0.0255108,0.0139394,2.51111,5,0.1,9,0.4,1.78229,-3.0419,0.592482,-0.0968665,0.506055,0.00125319,-0.287056,1.4993,0.00369549,0.0304305,2.51241,5,0.1,10,0.4,0.679321,-1.34975,0.632043,-0.26267,0.3218,-0.0085935,-0.775218,0.949621,-0.025332,0.0174674,1.49015,5,0.1,11,0.4,-0.979463,-1.54418,0.553545,0.476581,0.195798,0.00195503,1.41203,0.580132,0.00575185,0.0132197,2.51008,5,0.1,12,0.4,4.09094,3.83355,0.596402,-0.292587,-0.102872,0.000967085,-0.863314,-0.303745,0.00283122,0.0217817,0.830498,5,0.1,13,0.4,0.297626,3.07206,0.693113,-0.0417747,-0.205433,-0.039731,-0.123277,-0.606179,-0.117272,0.0127885,0.392983,5,0.1,14,0.4,4.19236,2.19437,0.604907,-0.319791,0.216085,-0.00131726,-0.943661,0.63765,-0.0039041,0.0232585,1.28603,5,0.1,15,0.4,-1.64805,-0.293732,0.628442,-0.0101805,0.196252,-0.00412613,-0.0302196,0.203162,-0.0122488,0.0139975,3.57879,5,0.1,16,0.4,-0.60343,-2.31912,0.685541,0.121619,0.139225,0.0172883,0.358909,0.410914,0.0510514,0.0116785,0.29762,5,0.1,17,0.4,2.35409,2.72038,0.542911,-0.22909,-0.0859499,0.0153124,-0.676036,-0.253677,0.0452399,0.0159097,0.518774,5,0.1,18,0.4,1.78894,-0.768035,0.54198,-0.446129,-0.257355,0.0144705,-1.32179,-0.762522,0.0428557,0.0135296,2.51008,5,0.1,19,0.4,1.39795,1.34328,0.555933,-0.0546277,-0.511566,0.0280499,-0.161886,-1.51581,0.0831187,0.00962914,2.5142,5,0.1,20,0.4,1.11813,3.34061,0.556844,0.221896,-0.02352,-0.00880957,0.654817,-0.0693798,-0.0260174,0.00900668,0.430488,5,0.1,21,0.4,-0.399541,-3.56502,0.533687,0.0143439,0.445551,0.0449777,0.0425875,1.02007,0.0984967,0.0312192,2.97476,5,0.1,22,0.4,-2.64198,-3.75672,0.593218,0.266075,0.162733,0.00182092,0.785112,0.480294,0.00533462,0.0154094,0.839725,5,0.1,23,0.4,0.0684881,3.70737,0.507379,0.0928113,-0.503248,-0.0121012,0.270061,-1.47688,-0.0268519,0.0113969,2.58313,5,0.1,24,0.4,-0.333882,-0.961452,0.543707,-0.506169,-0.0946775,0.0173762,-1.49971,-0.280499,0.0514984,0.0103422,2.51244,5,0.1,25,0.4,-2.33446,4.29168,0.62461,0.130469,-0.498438,-0.00601262,0.386596,-1.47676,-0.017792,0.0119198,2.51074,5,0.1,26,0.4,-3.8311,3.65468,0.687458,0.43819,-0.270689,0.01349,1.29831,-0.801921,0.0400245,0.0116089,2.51009,5,0.1,27,0.4,-1.37146,0.629596,0.593375,-0.0747144,0.152993,0.00177771,-0.220478,0.451535,0.00521541,0.00820634,0.250264,5,0.1,28,0.4,-4.09353,-2.27724,0.697577,0.253057,0.168222,0.0140622,0.746727,0.496507,0.0414848,0.0305036,0.798923,5,0.1,29,0.4,-2.5595,3.62137,0.570712,0.203717,-0.367826,0.00785738,0.601292,-1.08564,0.0231564,0.0108752,1.52668,5,0.1
0,0.5,-1.32099,3.33992,0.67045,0.0794088,-0.66142,-0.021627,0.181191,-1.41688,-0.0493601,0.00814464,2.51413,5,0.1,1,0.5,-1.06204,-3.75069,0.513378,0.656168,0.12344,-0.0173314,1.42609,0.281751,-0.039123,0.0109353,2.51248,5,0.1,2,0.5,-2.91757,-1.00117,0.548138,-0.137541,-0.449105,0.0186482,-0.305891,-0.998989,0.0414811,0.0173324,1.12965,5,0.1,3,0.5,-3.45562,-2.16585,0.671409,0.0297364,0.664838,-0.0136378,0.0678152,1.41089,-0.0311472,0.0167073,2.51539,5,0.1,4,0.5,-1.2069,1.56531,0.551974,0.492025,-0.0183662,0.0135072,0.215344,-0.041835,0.0307932,0.011375,3.01537,5,0.1,5,0.5,1.66921,3.81617,0.605816,-0.383342,-0.496448,-0.000264775,-0.501439,-0.686139,0.0228845,0.0104591,2.71382,5,0.1,6,0.5,-0.95003,-2.7931,0.685644,0.143952,0.648273,0.0150611,0.199154,1.38016,0.0339039,0.0395431,2.52546,5,0.1,7,0.5,3.97156,0.227155,0.543788,-0.15823,0.650298,0.013245,-0.361204,1.43639,0.0302307,0.0390493,2.51115,5,0.1,8,0.5,0.313237,-4.18229,0.687892,-0.650088,0.159471,0.0112271,-1.43676,0.363827,0.02563,0.0139394,2.51111,5,0.1,9,0.5,1.77113,-2.98374,0.592626,-0.126405,0.655901,0.00163354,-0.288516,1.42655,0.00371784,0.0304305,2.51241,5,0.1,10,0.5,0.649107,-1.31274,0.631054,-0.341323,0.418149,-0.0111646,-0.759259,0.930108,-0.0248216,0.0174674,1.49015,5,0.1,11,0.5,-0.924544,-1.52161,0.55377,0.621884,0.255495,0.00254819,1.41931,0.583105,0.00580028,0.0132197,2.51008,5,0.1,12,0.5,4.05729,3.82171,0.596513,-0.380185,-0.133687,0.00125458,-0.845671,-0.297442,0.00277534,0.0217817,0.830498,5,0.1,13,0.5,0.292821,3.04843,0.688542,-0.0542825,-0.266938,-0.0516291,-0.120742,-0.593722,-0.114854,0.0127885,0.392983,5,0.1,14,0.5,4.15558,2.21923,0.604755,-0.41554,0.280782,-0.00171307,-0.924289,0.624537,-0.0038147,0.0232585,1.28603,5,0.1,15,0.5,-1.64922,-0.273782,0.627967,-0.0132784,0.196993,-0.00538146,-0.03016,-0.142939,-0.0122227,0.0139975,3.57879,5,0.1,16,0.5,-0.589441,-2.3031,0.68753,0.158034,0.180916,0.0224673,0.351526,0.402465,0.0499897,0.0116785,0.29762,5,0.1,17,0.5,2.32773,2.7105,0.544673,-0.297681,-0.111686,0.0199013,-0.662118,-0.248417,0.04429,0.0159097,0.518774,5,0.1,18,0.5,1.73753,-0.797692,0.543647,-0.582146,-0.335821,0.0188809,-1.32859,-0.766434,0.0430793,0.0135296,2.51008,5,0.1,19,0.5,1.39166,1.28454,0.559165,-0.071286,-0.661642,0.0366031,-0.162706,-1.41655,0.0835471,0.00962914,2.5142,5,0.1,20,0.5,1.14365,3.3379,0.555831,0.288334,-0.0305608,-0.0114491,0.641361,-0.0679791,-0.025481,0.00900668,0.430488,5,0.1,21,0.5,-0.397887,-3.51674,0.538753,0.0187197,0.507639,0.0568425,0.04269,0.273377,0.129253,0.0312192,2.97476,5,0.1,22,0.5,-2.61137,-3.738,0.593428,0.345735,0.211463,0.00236286,0.768989,0.470385,0.00523403,0.0154094,0.839725,5,0.1,23,0.5,0.0789319,3.65017,0.506071,0.114184,-0.634904,-0.0137164,0.157289,-1.12304,-0.00645593,0.0113969,2.58313,5,0.1,24,0.5,-0.392055,-0.972363,0.545709,-0.656024,-0.123542,0.0226753,-1.42636,-0.281952,0.0517517,0.0103422,2.51244,5,0.1,25,0.5,-2.31943,4.23432,0.623918,0.17025,-0.64798,-0.00784332,0.388578,-1.44047,-0.0178851,0.0119198,2.51074,5,0.1,26,0.5,-3.7806,3.62349,0.689012,0.57179,-0.353211,0.0176077,1.30501,-0.806093,0.0402145,0.0116089,2.51009,5,0.1,27,0.5,-1.38005,0.647194,0.59358,-0.097084,0.198805,0.00230754,-0.215933,0.442229,0.00512227,0.00820634,0.250264,5,0.1,28,0.5,-4.06443,-2.25789,0.699194,0.328825,0.218598,0.0182712,0.731409,0.486299,0.0406355,0.0305036,0.798923,5,0.1,29,0.5,-2.53607,3.57906,0.571616,0.264721,-0.477971,0.0102073,0.588894,-1.06324,0.022687,0.0108752,1.52668,5,0.1
0,0.6,-1.31221,3.26731,0.668057,0.0954717,-0.783259,-0.0260025,0.133216,-0.974536,-0.0362992,0.00989513,2.32755,5,0.1,1,0.6,-0.98989,-3.73704,0.511463,0.779681,0.14841,-0.0207841,0.996709,0.207305,-0.028491,0.0123603,2.31843,5,0.1,2,0.6,-2.93273,-1.0507,0.550195,-0.16439,-0.536773,0.0222892,-0.219941,-0.718653,0.0298321,0.00839874,1.0902,5,0.1,3,0.6,-3.45233,-2.09295,0.6699,0.0357449,0.785595,-0.0163972,0.0499487,0.959873,-0.0229478,0.0201359,2.3338,5,0.1,4,0.6,-1.15747,1.56328,0.553468,0.489178,-0.0220716,0.0162348,-0.231624,-0.030756,0.02262,0.0122872,3.0972,5,0.1,5,0.6,1.62902,3.76391,0.605926,-0.414106,-0.540799,0.00263751,-0.119805,-0.204921,0.0327229,0.0127546,2.63093,5,0.1,6,0.6,-0.934879,-2.72198,0.687308,0.156721,0.76685,0.0180483,0.0577569,0.946879,0.0246167,0.0464366,2.31386,5,0.1,7,0.6,3.95406,0.298801,0.545253,-0.190246,0.775681,0.0159234,-0.265598,1.02152,0.0222325,0.0236773,2.30586,5,0.1,8,0.6,0.241608,-4.16465,0.689134,-0.775538,0.191724,0.013499,-1.02242,0.267506,0.0188351,0.016082,2.30775,5,0.1,9,0.6,1.75715,-2.91161,0.592807,-0.151977,0.779498,0.00196397,-0.212133,0.997901,0.00271201,0.039695,2.31767,5,0.1,10,0.6,0.611465,-1.26663,0.629823,-0.407951,0.49977,-0.013344,-0.546217,0.669062,-0.0178218,0.0168631,1.10938,5,0.1,11,0.6,-0.855751,-1.49335,0.554052,0.747682,0.307178,0.00306368,1.04374,0.428796,0.00426173,0.0215954,2.26305,5,0.1,12,0.6,4.01536,3.80697,0.596652,-0.454396,-0.159782,0.00149906,-0.608444,-0.2141,0.00196695,0.0204932,0.618301,5,0.1,13,0.6,0.286835,3.019,0.682849,-0.0648782,-0.31904,-0.0617087,-0.086844,-0.427127,-0.082612,0.00987885,0.292568,5,0.1,14,0.6,4.10975,2.25019,0.604566,-0.496662,0.335586,-0.00204742,-0.664711,0.449419,-0.00274181,0.0202118,0.95743,5,0.1,15,0.6,-1.65069,-0.25507,0.627372,-0.0159442,0.175353,-0.00646263,-0.0220537,-0.258356,-0.00891089,0.0114867,3.58222,5,0.1,16,0.6,-0.572013,-2.28315,0.690007,0.188881,0.216234,0.0268549,0.252903,0.289559,0.0359416,0.0131308,0.221572,5,0.1,17,0.6,2.29491,2.69818,0.546868,-0.355786,-0.133479,0.0237882,-0.476241,-0.178814,0.0318289,0.0171893,0.386212,5,0.1,18,0.6,1.67313,-0.83484,0.545736,-0.699905,-0.403751,0.0226989,-0.977099,-0.563622,0.0317097,0.0171335,2.049,5,0.1,19,0.6,1.38377,1.21191,0.563214,-0.0857055,-0.783414,0.0440076,-0.119686,-0.973582,0.0614226,0.0102025,2.32793,5,0.1,20,0.6,1.17545,3.33453,0.554568,0.344616,-0.0365257,-0.0136837,0.4614,-0.0488758,-0.0183582,0.0109517,0.321349,5,0.1,21,0.6,-0.395817,-3.46549,0.54507,0.0225,0.509387,0.0691712,0.0313222,-0.198364,0.110328,0.0389282,3.0561,5,0.1,22,0.6,-2.57324,-3.71468,0.593688,0.413215,0.252742,0.00282228,0.55325,0.338316,0.00378489,0.0193903,0.625157,5,0.1,23,0.6,0.0909507,3.58187,0.504694,0.124352,-0.722504,-0.0135824,0.0470132,-0.608563,0.00828505,0.0153185,2.40324,5,0.1,24,0.6,-0.464195,-0.986029,0.548218,-0.779584,-0.148532,0.0272632,-0.997305,-0.207365,0.0380278,0.0163908,2.31788,5,0.1,25,0.6,-2.30059,4.16288,0.62305,0.204688,-0.774097,-0.00942796,0.285864,-1.0314,-0.0131726,0.0201027,2.24154,5,0.1,26,0.6,-3.71735,3.58441,0.69096,0.687456,-0.424659,0.0211716,0.959635,-0.592709,0.0295639,0.0155358,2.22211,5,0.1,27,0.6,-1.39076,0.669119,0.593834,-0.116032,0.237612,0.00275671,-0.155389,0.31814,0.00369549,0.0114373,0.376983,5,0.1,28,0.6,-4.02816,-2.23378,0.701209,0.393009,0.261277,0.0218377,0.526309,0.34976,0.0292361,0.0408502,0.594789,5,0.1,29,0.6,-2.50688,3.52634,0.572741,0.316399,-0.571281,0.0121981,0.423551,-0.764728,0.0163317,0.0147088,1.13656,5,0.1
0,0.7,-1.30199,3.18517,0.665273,0.108843,-0.849591,-0.0296456,0.125781,-0.377119,-0.0342615,0.00989513,2.32755,5,0.1,1,0.7,-0.907988,-3.72115,0.509292,0.848349,0.169213,-0.0221933,0.398409,0.195667,-0.00109896,0.0123603,2.31843,5,0.1,2,0.7,-2.95025,-1.10807,0.55257,-0.185507,-0.610211,0.0251535,-0.190318,-0.700794,0.0258163,0.00839874,1.0902,5,0.1,3,0.7,-3.4485,-2.01065,0.668144,0.0407562,0.850398,-0.0186993,0.0471175,0.363261,-0.0216439,0.0201359,2.3338,5,0.1,4,0.7,-1.11058,1.56087,0.55516,0.442481,-0.0266939,0.0171881,-0.605099,-0.0563413,-0.00205636,0.0122872,3.0972,5,0.1,5,0.7,1.5872,3.70996,0.606455,-0.420059,-0.527755,0.0087644,0.00869483,0.420734,0.0823028,0.0127546,2.63093,5,0.1,6,0.7,-0.918725,-2.64133,0.689238,0.167768,0.838277,0.0205367,0.142992,0.477046,0.0235327,0.0464366,2.31386,5,0.1,7,0.7,3.93359,0.380434,0.546957,-0.219864,0.84695,0.0181383,-0.303373,0.422202,0.0207014,0.0236773,2.30586,5,0.1,8,0.7,0.159984,-4.14412,0.690579,-0.846912,0.218578,0.0153896,-0.423051,0.252604,0.0177808,0.016082,2.30775,5,0.1,9,0.7,1.74087,-2.82972,0.593017,-0.173268,0.848288,0.00223657,-0.200249,0.399485,0.00256673,0.039695,2.31767,5,0.1,10,0.7,0.567986,-1.21336,0.628401,-0.460388,0.564003,-0.0150559,-0.472572,0.57888,-0.0154376,0.0168631,1.10938,5,0.1,11,0.7,-0.776549,-1.46046,0.55438,0.828287,0.350222,0.00349237,0.561729,0.404924,0.00404194,0.0215954,2.26305,5,0.1,12,0.7,3.96693,3.78994,0.596811,-0.512811,-0.180332,0.00168849,-0.526458,-0.185162,0.00171363,0.0204932,0.618301,5,0.1,13,0.7,0.27992,2.98499,0.676272,-0.0732157,-0.360046,-0.0696398,-0.0751391,-0.369534,-0.0714734,0.00987885,0.292568,5,0.1,14,0.7,4.05682,2.28596,0.604348,-0.560481,0.378731,-0.00231043,-0.57523,0.388816,-0.00236928,0.0202118,0.95743,5,0.1,15,0.7,-1.6524,-0.239145,0.626681,-0.0181293,0.141907,-0.00734581,-0.0203028,-0.336233,-0.00820681,0.0114867,3.58222,5,0.1,16,0.7,-0.551882,-2.2601,0.69287,0.21316,0.244032,0.0303053,0.218801,0.250503,0.031095,0.0131308,0.221572,5,0.1,17,0.7,2.25699,2.68395,0.549403,-0.401508,-0.150642,0.0268438,-0.412062,-0.154659,0.0275411,0.0171893,0.386212,5,0.1,18,0.7,1.59848,-0.878036,0.548164,-0.789691,-0.459327,0.0258253,-0.774413,-0.514433,0.0289343,0.0171335,2.049,5,0.1,19,0.7,1.3746,1.12976,0.567926,-0.0977142,-0.849646,0.0501716,-0.112928,-0.376195,0.0579692,0.0102025,2.32793,5,0.1,20,0.7,1.21215,3.33056,0.553103,0.387978,-0.0435185,-0.0156196,0.38258,-0.0831932,-0.0189617,0.0109517,0.321349,5,0.1,21,0.7,-0.393409,-3.41647,0.55248,0.0256316,0.464462,0.0783711,0.0293516,-0.601456,0.0712611,0.0389282,3.0561,5,0.1,22,0.7,-2.5292,-3.68774,0.593989,0.466329,0.285222,0.00318568,0.478655,0.292733,0.00327826,0.0193903,0.625157,5,0.1,23,0.7,0.103456,3.50723,0.503397,0.124208,-0.763471,-0.0121789,-0.0458956,-0.204876,0.0188053,0.0153185,2.40324,5,0.1,24,0.7,-0.54609,-1.00193,0.551137,-0.848315,-0.169344,0.0310802,-0.398979,-0.195749,0.0359081,0.0163908,2.31788,5,0.1,25,0.7,-2.27868,4.08135,0.622041,0.233207,-0.846403,-0.010742,0.266805,-0.431642,-0.0122897,0.0201027,2.24154,5,0.1,26,0.7,-3.64393,3.53895,0.693227,0.778382,-0.48416,0.0241388,0.809491,-0.559762,0.0279099,0.0155358,2.22211,5,0.1,27,0.7,-1.40328,0.6946,0.594128,-0.135395,0.272599,0.00311146,-0.213444,0.354268,0.00320002,0.0114373,0.376983,5,0.1,28,0.7,-3.98628,-2.20594,0.703536,0.443537,0.294856,0.0246444,0.455365,0.302628,0.0252984,0.0408502,0.594789,5,0.1,29,0.7,-2.47315,3.46546,0.574041,0.357061,-0.644699,0.0137661,0.36642,-0.661641,0.0141338,0.0147088,1.13656,5,0.1
0,0.8,-1.29054,3.09907,0.662156,0.1192,-0.866026,-0.0324667,0.0754595,0,-0.0205636,0.0124246,2.26019,5,0.1,1,0.8,-0.821936,-3.70336,0.507102,0.866026,0.185323,-0.0212684,-2.98023e-05,0.117421,0.0183284,0.0139365,2.24585,5,0.1,2,0.8,-2.96963,-1.17223,0.555197,-0.200427,-0.668564,0.0271782,-0.100017,-0.431836,0.0135601,0.0143732,1.03878,5,0.1,3,0.8,-3.44422,-1.92452,0.666178,0.044632,0.866023,-0.0204802,0.0283718,5.96046e-05,-0.0130236,0.024672,2.27006,5,0.1,4,0.8,-1.06937,1.55791,0.556838,0.383142,-0.0324011,0.0160992,-0.52911,-0.0537634,-0.0183582,0.00973766,3.1143,5,0.1,5,0.8,1.5455,3.66001,0.607774,-0.411165,-0.464958,0.0177711,0.17333,0.797391,0.092119,0.0111635,2.27634,5,0.1,6,0.8,-0.901229,-2.55588,0.691397,0.181812,0.863624,0.0224814,0.122994,0.0480413,0.0142753,0.0392912,2.24327,5,0.1,7,0.8,3.91018,0.466437,0.548863,-0.246906,0.866026,0.019832,-0.220776,-2.98023e-05,0.012219,0.0204153,2.21989,5,0.1,8,0.8,0.073983,-4.12114,0.692197,-0.866025,0.239372,0.0168532,-1.19209e-06,0.151873,0.010699,0.014358,2.2299,5,0.1,9,0.8,1.72266,-2.74367,0.593252,-0.189757,0.866026,0.00244826,-0.120223,-0.000119209,0.00154972,0.0271645,2.24441,5,0.1,10,0.8,0.519907,-1.15446,0.626829,-0.497438,0.609389,-0.0162661,-0.248178,0.304043,-0.00810623,0.0206734,0.783285,5,0.1,11,0.8,-0.69171,-1.42363,0.554747,0.860833,0.383571,0.00382513,0.103861,0.243187,0.00244379,0.0176065,2.16503,5,0.1,12,0.8,3.91338,3.77111,0.596987,-0.554091,-0.194848,0.00182241,-0.276446,-0.0972748,0.000923872,0.0212563,0.436559,5,0.1,13,0.8,0.272274,2.94739,0.668999,-0.0791073,-0.389022,-0.0752434,-0.0394583,-0.194073,-0.0375509,0.0102184,0.206571,5,0.1,14,0.8,3.99829,2.32551,0.604107,-0.605583,0.40921,-0.00249594,-0.302076,0.204325,-0.0012517,0.0167861,0.67602,5,0.1,15,0.8,-1.6543,-0.226312,0.62591,-0.0197798,0.118945,-0.00801235,-0.0117421,-0.0889525,-0.00476837,0.0128765,3.41939,5,0.1,16,0.8,-0.529621,-2.23462,0.696034,0.230315,0.263679,0.0327438,0.114888,0.131369,0.0163019,0.0106115,0.156441,5,0.1,17,0.8,2.21506,2.66822,0.552206,-0.433815,-0.162768,0.0290021,-0.216365,-0.0810623,0.0144541,0.0171894,0.272686,5,0.1,18,0.8,1.51626,-0.926235,0.550874,-0.847793,-0.500995,0.0281692,-0.361741,-0.295907,0.0166297,0.0153294,1.50488,5,0.1,19,0.8,1.36432,1.04366,0.573201,-0.107011,-0.866026,0.0549436,-0.0677705,2.98023e-05,0.0347793,0.0125219,1.94671,5,0.1,20,0.8,1.25257,3.32579,0.551455,0.417256,-0.0518084,-0.0172406,0.187457,-0.0766516,-0.0124276,0.00810728,0.227321,5,0.1,21,0.8,-0.390715,-3.37308,0.560593,0.0280395,0.404352,0.0830531,0.0174493,-0.546455,0.0210404,0.0308986,3.08877,5,0.1,22,0.8,-2.4805,-3.65796,0.594322,0.503856,0.308174,0.00344366,0.251412,0.153661,0.00169873,0.0185232,0.441396,5,0.1,23,0.8,0.115522,3.43056,0.502284,0.11595,-0.76288,-0.0100002,-0.115484,0.216603,0.0239909,0.00906078,2.05537,5,0.1,24,0.8,-0.632142,-1.01974,0.554404,-0.866026,-0.18546,0.0340372,0,-0.11754,0.0215471,0.010968,2.24476,5,0.1,25,0.8,-2.25418,3.99537,0.620912,0.25506,-0.866026,-0.0117481,0.158072,0,-0.00727177,0.0135561,1.71293,5,0.1,26,0.8,-3.56262,3.48804,0.695765,0.841367,-0.530261,0.0264376,0.419617,-0.33617,0.0167489,0.00920376,2.09157,5,0.1,27,0.8,-1.41786,0.723507,0.594453,-0.155535,0.303783,0.00336319,-0.176013,0.249922,0.00166893,0.00793014,0.284617,5,0.1,28,0.8,-3.93996,-2.17514,0.70611,0.479239,0.318587,0.0266269,0.239134,0.158787,0.0132918,0.028979,0.419957,5,0.1,29,0.8,-2.43587,3.39813,0.575479,0.385791,-0.69657,0.0148743,0.192404,-0.347495,0.00742078,0.0119191,0.802475,5,0.1
0,0.9,-1.27823,3.01247,0.658802,0.126989,-0.866026,-0.0345887,0.0723079,0,-0.0197031,0.0124246,2.26019,5,0.1,1,0.9,-0.735333,-3.68421,0.505093,0.866025,0.197427,-0.0186847,3.72529e-06,0.11225,0.0319742,0.0139365,2.24585,5,0.1,2,0.9,-2.99015,-1.24139,0.55798,-0.209489,-0.71468,0.0284071,-0.0716597,-0.441812,0.00971928,0.0143732,1.03878,5,0.1,3,0.9,-3.4396,-1.83792,0.664062,0.0475559,0.866026,-0.0218223,0.0271052,7.45058e-06,-0.0124462,0.024672,2.27006,5,0.1,4,0.9,-1.03355,1.55438,0.558339,0.338123,-0.0383761,0.0137772,-0.251442,-0.0613034,-0.0270903,0.00973766,3.1143,5,0.1,5,0.9,1.50448,3.6176,0.610027,-0.415407,-0.382766,0.0272995,-0.197694,0.824451,0.0931919,0.0111635,2.27634,5,0.1,6,0.9,-0.882312,-2.46937,0.693719,0.197254,0.865876,0.0239623,0.167225,0.00600517,0.0138097,0.0392912,2.24327,5,0.1,7,0.9,3.88431,0.553039,0.550909,-0.270702,0.866025,0.0210878,-0.233769,3.72529e-06,0.0115931,0.0204153,2.21989,5,0.1,8,0.9,-0.0126196,-4.09641,0.693848,-0.866025,0.255059,0.0153988,-2.98023e-07,0.145763,-0.0352375,0.014358,2.2299,5,0.1,9,0.9,1.70306,-2.65707,0.593505,-0.202164,0.866024,0.00260817,-0.115179,2.98023e-05,0.00148639,0.0271645,2.24441,5,0.1,10,0.9,0.468979,-1.09207,0.625163,-0.519926,0.63694,-0.0170013,-0.177758,0.21778,-0.0058189,0.0206734,0.783285,5,0.1,11,0.9,-0.605308,-1.38401,0.555142,0.865701,0.408731,0.00407798,0.0129789,0.23412,0.00235811,0.0176065,2.16503,5,0.1,12,0.9,3.85665,3.75116,0.597174,-0.579143,-0.20366,0.00190614,-0.198051,-0.0696331,0.000666827,0.0212563,0.436559,5,0.1,13,0.9,0.264175,2.90757,0.661296,-0.0826829,-0.406607,-0.0786459,-0.0282675,-0.139028,-0.0268966,0.0102184,0.206571,5,0.1,14,0.9,3.93629,2.36741,0.603851,-0.63296,0.427722,-0.00260901,-0.216454,0.146329,-0.00089407,0.0167861,0.67602,5,0.1,15,0.9,-1.65634,-0.214538,0.625084,-0.0209501,0.122574,-0.00848742,-0.0104681,0.260058,-0.00424311,0.0128765,3.41939,5,0.1,16,0.9,-0.506041,-2.20762,0.699386,0.240726,0.275586,0.0342213,0.0822917,0.0941157,0.0116751,0.0106115,0.156441,5,0.1,17,0.9,2.17064,2.65156,0.555175,-0.453421,-0.170113,0.0303119,-0.154987,-0.0580549,0.0103489,0.0171894,0.272686,5,0.1,18,0.9,1.43037,-0.977773,0.553772,-0.864569,-0.528675,0.0297247,-0.0350773,-0.231251,0.0129938,0.0153294,1.50488,5,0.1,19,0.9,1.35328,0.957058,0.578869,-0.113623,-0.866025,0.0583376,-0.0581369,-3.72529e-06,0.0298433,0.0125219,1.94671,5,0.1,20,0.9,1.29521,3.32028,0.549674,0.434644,-0.0577696,-0.0182924,0.139661,-0.0416934,-0.00790134,0.00810728,0.227321,5,0.1,21,0.9,-0.387822,-3.33525,0.56889,0.0298025,0.356797,0.0818414,0.0160225,-0.282422,-0.0420921,0.0308986,3.08877,5,0.1,22,0.9,-2.42892,-3.62641,0.594674,0.526637,0.322098,0.00359789,0.180066,0.11006,0.0012219,0.0185232,0.441396,5,0.1,23,0.9,0.126541,3.35565,0.501407,0.104423,-0.732296,-0.00752863,-0.116294,0.400484,0.0248253,0.00906078,2.05537,5,0.1,24,0.9,-0.718744,-1.0389,0.55792,-0.866026,-0.197586,0.036261,3.72529e-06,-0.112548,0.0206418,0.010968,2.24476,5,0.1,25,0.9,-2.2279,3.90877,0.619702,0.270012,-0.865965,-0.0124356,0.127017,0.00242889,-0.00584126,0.0135561,1.71293,5,0.1,26,0.9,-3.47709,3.43326,0.698496,0.863565,-0.565078,0.0281724,0.0800341,-0.324264,0.0161566,0.00920376,2.09157,5,0.1,27,0.9,-1.43434,0.75516,0.594797,-0.174022,0.328968,0.00351453,-0.179514,0.232469,0.00119582,0.00793014,0.284617,5,0.1,28,0.9,-3.89089,-2.14253,0.708836,0.500908,0.332978,0.0278313,0.171304,0.113755,0.00952184,0.028979,0.419957,5,0.1,29,0.9,-2.39637,3.32682,0.577002,0.403226,-0.728058,0.0155468,0.137821,-0.248894,0.00531971,0.0119191,0.802475,5,0.1
0,1,-1.26523,2.92587,0.655261,0.13231,-0.866026,-0.036037,0.028491,0,-0.00780821,0.00751438,2.25903,5,0.1,1,1,-0.648731,-3.664,0.503398,0.866026,0.205672,-0.0151247,0,0.0442266,0.0380874,0.0104586,2.24371,5,0.1,2,1,-3.01134,-1.31475,0.560854,-0.213158,-0.74867,0.0289053,0.00452995,-0.204027,-0.000625849,0.00802956,0.845226,5,0.1,3,1,-3.43474,-1.75132,0.661828,0.0495553,0.866026,-0.0227377,0.0104904,-5.96046e-05,-0.00491738,0.0217731,2.26988,5,0.1,4,1,-1,1.55025,0.559574,0.342505,-0.0438988,0.0108615,0.315815,-0.0460148,-0.030458,0.0110206,2.88106,5,0.1,5,1,1.46175,3.58335,0.613189,-0.440121,-0.303692,0.0355303,-0.251174,0.742912,0.0678599,0.00887584,0.817844,5,0.1,6,1,-0.861803,-2.38277,0.696173,0.212055,0.866026,0.0249863,0.115335,0,0.00560284,0.0291699,2.23544,5,0.1,7,1,3.85619,0.639642,0.553066,-0.290024,0.866026,0.02193,-0.137687,0,0.00435114,0.0158505,2.20887,5,0.1,8,1,-0.0992221,-4.07029,0.695167,-0.866025,0.265801,0.010626,0,0.0579357,-0.0566244,0.00986739,2.2246,5,0.1,9,1,1.68236,-2.57046,0.593772,-0.21064,0.866026,0.00271797,-0.0454783,0,0.000596046,0.0266755,2.26054,5,0.1,10,1,0.416373,-1.02763,0.623443,-0.529031,0.648096,-0.0172988,0.0114131,-0.0139773,0.000327826,0.0137687,0.532659,5,0.1,11,1,-0.518712,-1.34216,0.55556,0.866026,0.426015,0.0042513,0,0.0936389,0.000983477,0.0171513,2.15694,5,0.1,12,1,3.79805,3.73055,0.597367,-0.589293,-0.207222,0.00194162,0.0127554,0.00441074,-5.96046e-05,0.024479,0.29688,5,0.1,13,1,0.255809,2.86642,0.653338,-0.0841312,-0.413728,-0.0800237,0.00183284,0.0089407,0.00172853,0.0105223,0.140476,5,0.1,14,1,3.87224,2.41068,0.603587,-0.644046,0.435215,-0.00265539,0.0137091,-0.00917912,8.9407e-05,0.0254395,0.459728,5,0.1,15,1,-1.65848,-0.2,0.624219,-0.0216693,0.17749,-0.00877976,-0.00309944,0.80505,-0.0012517,0.0112808,3.03325,5,0.1,16,1,-0.481685,-2.17974,0.702849,0.244941,0.280404,0.0348195,-0.00530481,-0.00607967,-0.00077486,0.0172675,0.180163,5,0.1,17,1,2.12477,2.63435,0.558242,-0.461364,-0.173086,0.0308409,0.0101328,0.00393391,-0.000655651,0.0210785,0.309224,5,0.1,18,1,1.34397,-1.03151,0.556794,-0.861534,-0.542831,0.0305206,0.0898242,-0.0342131,0.00190735,0.0152946,1.64234,5,0.1,19,1,1.34169,0.870456,0.584822,-0.117573,-0.866026,0.0603661,-0.0166297,0,0.00852346,0.0113353,1.52008,5,0.1,20,1,1.33915,3.31436,0.547818,0.441745,-0.0600338,-0.0187054,-0.0114441,-0.00333786,2.98023e-05,0.0164746,0.155416,5,0.1,21,1,-0.384776,-3.3,0.576782,0.030943,0.357866,0.0752419,0.00555813,0.281811,-0.0869632,0.0387096,2.86732,5,0.1,22,1,-2.37563,-3.59382,0.595038,0.535864,0.327736,0.00365973,-0.0115633,-0.00703335,-8.9407e-05,0.0225138,0.300165,5,0.1,23,1,0.136393,3.28476,0.500776,0.0925004,-0.682116,-0.0051409,-0.12283,0.604391,0.0225306,0.0137773,1.80861,5,0.1,24,1,-0.805347,-1.05912,0.561633,-0.866026,-0.205866,0.0377789,0,-0.0444055,0.00813603,0.0165185,2.24209,5,0.1,25,1,-2.20041,3.8222,0.618436,0.278127,-0.865054,-0.012809,0.0258684,0.0194311,-0.00119209,0.0143891,1.30385,5,0.1,26,1,-3.39055,3.37539,0.701381,0.866026,-0.589043,0.0293657,0,-0.130415,0.00649691,0.0186738,1.71826,5,0.1,27,1,-1.45255,0.789047,0.595153,-0.189024,0.34668,0.00357628,-0.110447,0.10705,-8.9407e-05,0.00920025,0.204706,5,0.1,28,1,-3.84021,-2.10884,0.711652,0.509685,0.338805,0.0283182,-0.0109673,-0.00739098,-0.000596046,0.0535773,0.285593,5,0.1,29,1,-2.35557,3.25315,0.578575,0.410283,-0.740808,0.0158206,-0.0089407,0.0160933,-0.00038743,0.0151484,0.54571,5,0.1
0,1.1,-1.25183,2.83926,0.651611,0.135754,-0.866026,-0.0369783,0.032559,0,-0.00889599,0.00751438,2.25903,5,0.1,1,1.1,-0.562128,-3.64317,0.502078,0.866026,0.210954,-0.0112664,-1.78814e-06,0.0493824,0.0382289,0.0104586,2.24371,5,0.1,2,1.1,-3.03263,-1.38975,0.56374,-0.212231,-0.742753,0.0287785,0.0218451,0.302054,-0.00296906,0.00802956,0.845226,5,0.1,3,1.1,-3.42972,-1.66471,0.659525,0.0508286,0.866025,-0.0233306,0.0120699,1.49012e-05,-0.00559539,0.0217731,2.26988,5,0.1,4,1.1,-0.96282,1.54562,0.560505,0.411829,-0.0487007,0.00775987,0.962164,-0.0462383,-0.0309236,0.0110206,2.88106,5,0.1,5,1.1,1.41788,3.5575,0.617162,-0.424882,-0.20689,0.0444958,0.492588,1.13155,0.102848,0.00887584,0.817844,5,0.1,6,1.1,-0.839938,-2.29617,0.698705,0.225631,0.866026,0.0256592,0.138968,0,0.00637025,0.0291699,2.23544,5,0.1,7,1.1,3.82643,0.726244,0.555285,-0.305404,0.866026,0.0224616,-0.149637,-3.72529e-06,0.00499934,0.0158505,2.20887,5,0.1,8,1.1,-0.185825,-4.04337,0.695912,-0.866025,0.272833,0.00401177,0,0.0668168,-0.0721663,0.00986739,2.2246,5,0.1,9,1.1,1.66123,-2.48386,0.594046,-0.210397,0.866026,0.002746,0.050053,0,-0.000100583,0.0266755,2.26054,5,0.1,10,1.1,0.36355,-0.962914,0.621716,-0.526712,0.645257,-0.017227,0.0543129,-0.0665262,0.00173599,0.0137687,0.532659,5,0.1,11,1.1,-0.432112,-1.29919,0.555984,0.865923,0.431965,0.00417149,-0.00411063,0.0119358,-0.00239536,0.0171513,2.15694,5,0.1,12,1.1,3.73921,3.70986,0.597561,-0.586709,-0.206317,0.00193194,0.0604689,0.021264,-0.000208616,0.024479,0.29688,5,0.1,13,1.1,0.247409,2.82511,0.645348,-0.0837612,-0.411914,-0.079673,0.00864547,0.0424683,0.00821799,0.0105223,0.140476,5,0.1,14,1.1,3.80794,2.45414,0.603322,-0.641242,0.433324,-0.00264095,0.0659525,-0.0445545,0.000294298,0.0254395,0.459728,5,0.1,15,1.1,-1.66062,-0.176986,0.623337,-0.0208704,0.292379,-0.00882857,0.0176206,1.38288,0.000521541,0.0112808,3.03325,5,0.1,16,1.1,-0.457056,-2.15155,0.70635,0.248741,0.284756,0.0353583,0.0613444,0.070259,0.008706,0.0172675,0.180163,5,0.1,17,1.1,2.07854,2.61707,0.561322,-0.463773,-0.172311,0.0307063,-0.0315756,0.0178963,-0.0031665,0.0210785,0.309224,5,0.1,18,1.1,1.25791,-1.08595,0.559854,-0.861984,-0.545049,0.0306439,-0.0520349,0.0112057,-0.00064075,0.0152946,1.64234,5,0.1,19,1.1,1.32985,0.783856,0.590901,-0.119046,-0.865896,0.0611216,-0.0077486,0.00519678,0.00397861,0.0113353,1.52008,5,0.1,20,1.1,1.38326,3.30836,0.54595,0.439899,-0.0595465,-0.0186083,-0.042215,0.0139177,0.00249222,0.0164746,0.155416,5,0.1,21,1.1,-0.38165,-3.26145,0.583838,0.0315767,0.423921,0.0656079,0.00545569,0.93092,-0.104006,0.0387096,2.86732,5,0.1,22,1.1,-2.32213,-3.56109,0.595404,0.533515,0.326303,0.00364296,-0.05503,-0.033617,-0.00037998,0.0225138,0.300165,5,0.1,23,1.1,0.145155,3.2195,0.500367,0.0837886,-0.623495,-0.00310773,-0.0592908,0.581384,0.0179373,0.0137773,1.80861,5,0.1,24,1.1,-0.891949,-1.07997,0.565459,-0.866026,-0.211209,0.0387589,3.72529e-06,-0.0503361,0.00923127,0.0165185,2.24209,5,0.1,25,1.1,-2.17248,3.73571,0.617149,0.280115,-0.865185,-0.0129007,0.00266731,-0.00038743,-0.000119209,0.0143891,1.30385,5,0.1,26,1.1,-3.30395,3.31578,0.704353,0.865741,-0.602968,0.0300593,-0.0113994,-0.117064,0.00583008,0.0186738,1.71826,5,0.1,27,1.1,-1.47201,0.824248,0.59551,-0.1999,0.356866,0.0035597,-0.0959113,0.0797361,-0.000372529,0.00920025,0.204706,5,0.1,28,1.1,-3.78932,-2.07501,0.71448,0.507455,0.337315,0.0281952,-0.0523031,-0.034824,-0.00289828,0.0535773,0.285593,5,0.1,29,1.1,-2.3146,3.17918,0.580154,0.408477,-0.737553,0.0157475,-0.0421703,0.0761151,-0.00165403,0.0151484,0.54571,5,0.1
0,1.2,-1.23814,2.75266,0.647881,0.137493,-0.866026,-0.0374541,-0.00309944,0,0.000864267,0.00910834,2.25887,5,0.1,1,1.2,-0.475525,-3.6219,0.501137,0.866025,0.213522,-0.00762343,1.43051e-05,-0.00667572,0.0340343,0.0126234,1.85562,5,0.1,2,1.2,-3.05366,-1.46182,0.566592,-0.207502,-0.692245,0.0281364,0.0780821,0.688493,-0.0105798,0.0143135,0.551109,5,0.1,3,1.2,-3.42459,-1.57811,0.657172,0.0514686,0.866026,-0.0236303,-0.00119209,-5.96046e-05,0.000596046,0.0106442,1.02075,5,0.1,4,1.2,-0.916495,1.54054,0.56113,0.515868,-0.0525057,0.00478923,1.03649,-0.0271797,-0.0280142,0.019187,2.54386,5,0.1,5,1.2,1.37865,3.54269,0.622125,-0.353113,-0.0882924,0.0546023,0.891089,1.19305,0.0929832,0.01349,2.25338,5,0.1,6,1.2,-0.816756,-2.20957,0.701294,0.236909,0.866026,0.0260085,0.0744462,0,-0.000417233,0.0435896,2.23048,5,0.1,7,1.2,3.79526,0.812847,0.557549,-0.316513,0.866026,0.0227123,-0.0582933,0,-0.000834465,0.0185525,2.20337,5,0.1,8,1.2,-0.272427,-4.01584,0.69595,-0.866026,0.276482,-0.00319481,0,-0.00476837,-0.06935,0.0128736,2.22312,5,0.1,9,1.2,1.64059,-2.39726,0.594319,-0.200784,0.866026,0.00268817,0.140965,0,-0.00110269,0.031701,2.25898,5,0.1,10,1.2,0.311349,-0.898965,0.620008,-0.51496,0.630862,-0.0168458,0.193462,-0.236988,0.00628829,0.0147657,0.354188,5,0.1,11,1.2,-0.345573,-1.25616,0.556385,0.864382,0.426227,0.00380725,-0.0328577,-0.135005,-0.00473857,0.0146376,2.15994,5,0.1,12,1.2,3.68106,3.68941,0.597752,-0.573623,-0.201714,0.00188798,0.21553,0.0758171,-0.000715256,0.0181001,0.947843,5,0.1,13,1.2,0.239108,2.78429,0.637452,-0.0818919,-0.402719,-0.0778943,0.0307709,0.151157,0.0292361,0.00802183,0.158513,5,0.1,14,1.2,3.74438,2.49709,0.603061,-0.626951,0.423664,-0.00258088,0.235438,-0.159144,0.00101328,0.0150937,0.305689,5,0.1,15,1.2,-1.66259,-0.140625,0.622461,-0.0184149,0.434797,-0.00863671,0.0303984,1.38261,0.00345707,0.00817345,2.61253,5,0.1,16,1.2,-0.431899,-2.12275,0.709926,0.253771,0.290519,0.0360727,0.0248402,0.0283718,0.00351667,0.00982115,0.127757,5,0.1,17,1.2,2.03212,2.59999,0.564365,-0.463122,-0.168455,0.0300214,0.0633597,0.0633001,-0.0112653,0.0132011,0.220456,5,0.1,18,1.2,1.17152,-1.14018,0.562903,-0.864384,-0.537044,0.0301942,0.0328422,0.163019,-0.00920892,0.0112774,2.10159,5,0.1,19,1.2,1.31795,0.697334,0.597008,-0.118276,-0.863948,0.0607267,0.0265241,0.0415444,-0.0136197,0.00908549,1.15286,5,0.1,20,1.2,1.42688,3.30251,0.54411,0.430524,-0.057137,-0.0181124,-0.156343,0.0346899,0.00780821,0.0111654,0.103846,5,0.1,21,1.2,-0.378476,-3.21407,0.589863,0.0317544,0.52501,0.0547588,-0.00303984,1.00899,-0.11152,0.0310232,2.53732,5,0.1,22,1.2,-2.26925,-3.52875,0.595765,0.521612,0.319028,0.00356287,-0.19598,-0.119805,-0.00137091,0.016398,0.199592,5,0.1,23,1.2,0.153289,3.1601,0.500137,0.0792548,-0.563627,-0.00157952,-0.037387,0.624537,0.0126064,0.0115268,1.61306,5,0.1,24,1.2,-0.978552,-1.10127,0.569368,-0.866027,-0.213876,0.0392482,2.98023e-05,0.00536442,-0.00101328,0.0110293,2.24179,5,0.1,25,1.2,-2.14456,3.6493,0.615864,0.276792,-0.861323,-0.0127465,-0.0767708,0.0940561,0.00351667,0.0132301,0.965303,5,0.1,26,1.2,-3.21752,3.25513,0.707377,0.86146,-0.607228,0.0302717,-0.0910759,0.0531673,-0.00268221,0.0138775,1.26082,5,0.1,27,1.2,-1.49238,0.860175,0.595863,-0.206333,0.359796,0.00347942,-0.025034,-0.0325739,-0.0012815,0.00678087,0.141715,5,0.1,28,1.2,-3.73903,-2.04158,0.717274,0.496137,0.329792,0.0275671,-0.186324,-0.123978,-0.0103712,0.039724,0.189908,5,0.1,29,1.2,-2.27412,3.10609,0.581715,0.399357,-0.721091,0.0153944,-0.149965,0.270844,-0.00578165,0.0130262,0.362872,5,0.1
0,1.3,-1.22437,2.66606,0.64413,0.138088,-0.866026,-0.0376142,0.00729412,0,-0.00197068,0.00910834,2.25887,5,0.1,1,1.3,-0.388923,-3.60056,0.500533,0.866025,0.213394,-0.00457121,-1.78814e-06,-0.00587106,0.0267662,0.0126234,1.85562,5,0.1,2,1.3,-3.07403,-1.52695,0.569354,-0.199785,-0.604726,0.0270909,0.0827163,1.02737,-0.0112057,0.0143135,0.551109,5,0.1,3,1.3,-3.42041,-1.4934,0.655066,0.024116,0.811454,-0.0163286,-0.487059,-1.00621,0.130218,0.0106442,1.02075,5,0.1,4,1.3,-0.859155,1.53515,0.561473,0.63437,-0.0553606,0.00210442,1.24535,-0.0265315,-0.0252426,0.019187,2.54386,5,0.1,5,1.3,1.34669,3.53774,0.627879,-0.295536,-0.0291288,0.0589107,0.316724,0.0891387,-0.00102445,0.01349,2.25338,5,0.1,6,1.3,-0.792621,-2.12296,0.7039,0.246106,0.866026,0.0261341,0.0931881,0,0.00147149,0.0435896,2.23048,5,0.1,7,1.3,3.76323,0.899449,0.559822,-0.324306,0.866026,0.0227774,-0.0779778,-3.72529e-06,0.000875443,0.0185525,2.20337,5,0.1,8,1.3,-0.35903,-3.98814,0.695275,-0.866026,0.2779,-0.0103313,3.57628e-06,0.0174046,-0.0705607,0.0128736,2.22312,5,0.1,9,1.3,1.62123,-2.31066,0.594582,-0.186321,0.866026,0.00258805,0.151433,0,-0.000994653,0.031701,2.25898,5,0.1,10,1.3,0.260799,-0.837038,0.618354,-0.495835,0.607434,-0.0162235,0.205039,-0.251167,0.00667572,0.0147657,0.354188,5,0.1,11,1.3,-0.259151,-1.21396,0.556748,0.864915,0.419401,0.00349311,0.0205387,-0.029996,-0.00191107,0.0146376,2.15994,5,0.1,12,1.3,3.62413,3.66961,0.597938,-0.5701,-0.194219,0.00181748,-0.087738,0.0803769,-0.000748783,0.0181001,0.947843,5,0.1,13,1.3,0.231021,2.74452,0.629759,-0.0802196,-0.394507,-0.076306,0.00831392,0.0408143,0.00789389,0.00802183,0.158513,5,0.1,14,1.3,3.68284,2.53867,0.602808,-0.603678,0.40793,-0.00248142,0.249535,-0.168711,0.00105798,0.0150937,0.305689,5,0.1,15,1.3,-1.66427,-0.0897917,0.621607,-0.0149619,0.584023,-0.00849003,0.037536,1.51463,0.000167638,0.00817345,2.61253,5,0.1,16,1.3,-0.406339,-2.09366,0.713537,0.257655,0.289872,0.0359918,0.0382122,-0.04673,-0.00580773,0.00982115,0.127757,5,0.1,17,1.3,1.98605,2.58345,0.567312,-0.458531,-0.162197,0.0289073,0.0498518,0.0670999,-0.0119507,0.0132011,0.220456,5,0.1,18,1.3,1.0851,-1.19333,0.565875,-0.86489,-0.527728,0.0292018,-0.0205226,0.056237,-0.011459,0.0112774,2.10159,5,0.1,19,1.3,1.30626,0.610962,0.603014,-0.115627,-0.864352,0.0593667,0.030607,-0.0123605,-0.0157095,0.00908549,1.15286,5,0.1,20,1.3,1.46917,3.29698,0.542337,0.41518,-0.0534363,-0.0173197,-0.16433,0.0401139,0.00852719,0.0111654,0.103846,5,0.1,21,1.3,-0.375309,-3.15594,0.594788,0.0316028,0.641017,0.0438432,-0.0015758,1.22289,-0.106033,0.0310232,2.53732,5,0.1,22,1.3,-2.21805,-3.49744,0.596114,0.502239,0.307184,0.00342792,-0.207707,-0.127003,-0.00143424,0.016398,0.199592,5,0.1,23,1.3,0.1612,3.1066,0.500033,0.0803753,-0.508423,-0.000593066,0.0468576,0.499323,0.00731647,0.0115268,1.61306,5,0.1,24,1.3,-1.06515,-1.12269,0.573298,-0.866026,-0.214707,0.0393985,3.72529e-06,-0.0100806,0.00183284,0.0110293,2.24179,5,0.1,25,1.3,-2.11724,3.5635,0.614608,0.269744,-0.855013,-0.0123518,-0.0748187,0.0723451,0.00470877,0.0132301,0.965303,5,0.1,26,1.3,-3.13155,3.19463,0.710392,0.85943,-0.602394,0.0300281,0.0013113,0.0685006,-0.00343472,0.0138775,1.26082,5,0.1,27,1.3,-1.51314,0.895997,0.596204,-0.208581,0.356348,0.00335248,-0.0109598,-0.0501052,-0.00136718,0.00678087,0.141715,5,0.1,28,1.3,-3.69032,-2.00921,0.71998,0.477717,0.31754,0.0265423,-0.1975,-0.131346,-0.0109822,0.039724,0.189908,5,0.1,29,1.3,-2.23492,3.0353,0.583226,0.384532,-0.694316,0.014823,-0.158966,0.287041,-0.00612065,0.0130262,0.362872,5,0.1
0,1.4,-1.21055,2.57946,0.640368,0.137639,-0.866026,-0.0374898,-0.0216365,0,0.00590086,0.0119532,2.25926,5,0.1,1,1.4,-0.30232,-3.57931,0.500197,0.866025,0.210667,-0.00229925,1.43051e-05,-0.0556707,0.0186265,0.0101721,1.43691,5,0.1,2,1.4,-3.09354,-1.58196,0.572,-0.189894,-0.493062,0.0257507,0.119567,1.17761,-0.0162125,0.0106192,0.341258,5,0.1,3,1.4,-3.42083,-1.41836,0.654195,-0.0354767,0.680298,-0.000299513,-0.659108,-1.54686,0.178427,0.00799597,0.271614,5,0.1,4,1.4,-0.789742,1.5295,0.561564,0.749721,-0.0572354,-0.000186265,0.997722,-0.00858307,-0.020206,0.00894656,2.34099,5,0.1,5,1.4,1.31816,3.53412,0.633649,-0.279725,-0.0526488,0.0554711,0.0436902,-0.480294,-0.0628531,0.00993602,1.79598,5,0.1,6,1.4,-0.767623,-2.03636,0.706514,0.252771,0.866026,0.0260547,0.0286996,0,-0.00405312,0.0292347,2.22814,5,0.1,7,1.4,3.73051,0.986052,0.562099,-0.328779,0.866027,0.0226736,0.0025034,-2.98023e-05,-0.0038743,0.0163011,2.20216,5,0.1,8,1.4,-0.445632,-3.96033,0.693906,-0.866025,0.277287,-0.0168234,-2.86102e-05,-0.0406504,-0.0572503,0.0083454,2.22377,5,0.1,9,1.4,1.60339,-2.22405,0.594836,-0.170001,0.866026,0.0024721,0.176787,0,-0.00143051,0.0277413,2.26133,5,0.1,10,1.4,0.212366,-0.777704,0.61677,-0.471294,0.577371,-0.0154227,0.296369,-0.363052,0.00968575,0.0157826,0.233133,5,0.1,11,1.4,-0.172585,-1.17219,0.55709,0.866025,0.415328,0.0033617,4.76837e-06,-0.0721216,-0.000983477,0.0145372,2.16151,5,0.1,12,1.4,3.56657,3.65064,0.598115,-0.581181,-0.184602,0.00172704,-0.0913143,0.11611,-0.00107288,0.0174831,0.735175,5,0.1,13,1.4,0.223041,2.70528,0.622169,-0.0792574,-0.389785,-0.0753909,0.0149906,0.0737906,0.0142455,0.0079,0.0927939,5,0.1,14,1.4,3.62387,2.57852,0.602565,-0.573808,0.38774,-0.00235587,0.360727,-0.244021,0.00149012,0.0131354,0.317647,5,0.1,15,1.4,-1.66557,-0.0241877,0.620758,-0.0111043,0.722708,-0.00848174,0.0385642,1.1962,0.000506639,0.00846282,0.554312,5,0.1,16,1.4,-0.380458,-2.06507,0.717087,0.258931,0.280339,0.0348091,-0.0228584,-0.146866,-0.0182688,0.0121189,0.14553,5,0.1,17,1.4,1.94056,2.56761,0.570135,-0.449541,-0.154173,0.0274777,0.14472,0.0970364,-0.0173151,0.0116485,0.272219,5,0.1,18,1.4,0.998534,-1.24577,0.568728,-0.866026,-0.52014,0.0277668,0,0.11909,-0.0177026,0.0161134,1.63435,5,0.1,19,1.4,1.29488,0.524613,0.608855,-0.111464,-0.860585,0.0572309,0.0553727,0.108838,-0.0284612,0.0101183,0.846303,5,0.1,20,1.4,1.50976,3.29185,0.540652,0.395361,-0.049001,-0.0163272,-0.241041,0.0492334,0.0116825,0.00889014,0.11694,5,0.1,21,1.4,-0.372165,-3.08597,0.598657,0.0311717,0.754356,0.0336856,-0.00813603,0.9799,-0.0965297,0.0271158,2.34018,5,0.1,22,1.4,-2.16899,-3.46743,0.596449,0.47738,0.291979,0.00325739,-0.300169,-0.183463,-0.00205636,0.0170828,0.131375,5,0.1,23,1.4,0.169524,3.05818,0.500003,0.0863526,-0.460356,-7.30157e-05,0.0628978,0.47636,0.00327826,0.00918887,1.41983,5,0.1,24,1.4,-1.15176,-1.14416,0.577237,-0.866026,-0.213873,0.0392452,0,0.0351071,-0.0064671,0.00807299,2.24287,5,0.1,25,1.4,-2.09071,3.4786,0.6134,0.260049,-0.840062,-0.0117511,-0.126243,0.254154,0.00751019,0.0156633,0.701797,5,0.1,26,1.4,-3.04578,3.13493,0.713368,0.853342,-0.589341,0.0293761,-0.157595,0.209451,-0.0104606,0.00932928,0.893502,5,0.1,27,1.4,-1.53397,0.931261,0.596532,-0.207031,0.347489,0.00318736,0.0478625,-0.136226,-0.00196695,0.00707595,0.159262,5,0.1,28,1.4,-3.64366,-1.97819,0.722573,0.454074,0.301826,0.0252277,-0.285387,-0.189841,-0.0158846,0.0346252,1.93838,5,0.1,29,1.4,-2.19736,2.96748,0.584674,0.365502,-0.659955,0.014089,-0.229836,0.414968,-0.00882149,0.0141341,0.238847,5,0.1
0,1.5,-1.19685,2.49285,0.636637,0.136597,-0.866026,-0.0372049,-0.00682473,0,0.00186637,0.0119532,2.25926,5,0.1,1,1.5,-0.215722,-3.5585,0.500046,0.86583,0.205552,-0.00084918,-0.00782132,-0.0547469,0.010699,0.0101721,1.43691,5,0.1,2,1.5,-3.11196,-1.62533,0.574497,-0.178492,-0.374284,0.0242047,0.11386,1.17575,-0.0154376,0.0106192,0.341258,5,0.1,3,1.5,-3.4279,-1.35771,0.655119,-0.107073,0.536352,0.0191688,-0.737146,-1.3348,0.201512,0.00799597,0.271614,5,0.1,4,1.5,-0.710501,1.52373,0.561449,0.827601,-0.0583369,-0.00206502,0.55027,-0.0102222,-0.0170283,0.00894656,2.34099,5,0.1,5,1.5,1.28988,3.52554,0.638811,-0.290044,-0.126166,0.0471628,-0.207037,-0.915721,-0.0991337,0.00993602,1.79598,5,0.1,6,1.5,-0.742128,-1.94976,0.709107,0.257464,0.866026,0.0258542,0.0495091,0,-0.00138208,0.0292347,2.22814,5,0.1,7,1.5,3.69755,1.07265,0.564354,-0.330918,0.866026,0.02247,-0.0261664,-3.72529e-06,-0.00143796,0.0163011,2.20216,5,0.1,8,1.5,-0.532235,-3.93272,0.691937,-0.866026,0.275573,-0.0224978,5.51343e-06,-0.00925362,-0.0537932,0.0083454,2.22377,5,0.1,9,1.5,1.58722,-2.13745,0.595077,-0.153871,0.866026,0.00235662,0.150755,0,-0.000998378,0.0277413,2.26133,5,0.1,10,1.5,0.166662,-0.721712,0.615274,-0.443024,0.54274,-0.0144986,0.282415,-0.345957,0.00923127,0.0157826,0.233133,5,0.1,11,1.5,-0.0859824,-1.13081,0.557424,0.866026,0.413621,0.0033618,-1.04308e-06,0.0105426,0.000651926,0.0145372,2.16151,5,0.1,12,1.5,3.50802,3.63274,0.598283,-0.588918,-0.173525,0.00162488,-0.0390261,0.110656,-0.00102445,0.0174831,0.735175,5,0.1,13,1.5,0.215176,2.6666,0.614688,-0.0780913,-0.384042,-0.0742823,0.0119712,0.058949,0.0113845,0.0079,0.0927939,5,0.1,14,1.5,3.56807,2.61612,0.602337,-0.543844,0.364465,-0.00221385,0.264719,-0.232473,0.00141189,0.0131354,0.317647,5,0.1,15,1.5,-1.66649,0.05325,0.619903,-0.00713896,0.817535,-0.0086939,0.039719,0.68637,-0.00382215,0.00846282,0.554312,5,0.1,16,1.5,-0.354451,-2.03769,0.720487,0.262876,0.26786,0.033257,0.0775047,-0.114843,-0.0142753,0.0121189,0.14553,5,0.1,17,1.5,1.89612,2.55266,0.5728,-0.440875,-0.144919,0.0258266,0.0558421,0.0924319,-0.0164919,0.0116485,0.272219,5,0.1,18,1.5,0.911937,-1.29741,0.571421,-0.865752,-0.513831,0.0261142,0.0109412,0.0376552,-0.0162087,0.0161134,1.63435,5,0.1,19,1.5,1.284,0.438875,0.614441,-0.106157,-0.855251,0.054504,0.054203,0.0430141,-0.0278428,0.0101183,0.846303,5,0.1,20,1.5,1.54835,3.28718,0.539068,0.378419,-0.0446245,-0.0154249,-0.122845,0.0400245,0.00727922,0.00889014,0.11694,5,0.1,21,1.5,-0.36908,-3.00636,0.601564,0.0305837,0.830273,0.0246885,-0.00517815,0.52996,-0.083182,0.0271158,2.34018,5,0.1,22,1.5,-2.1227,-3.43911,0.596765,0.448747,0.274477,0.00306163,-0.286043,-0.17488,-0.00195205,0.0170828,0.131375,5,0.1,23,1.5,0.17865,3.01411,0.500008,0.0975287,-0.424564,0.000136159,0.144091,0.269875,0.00107288,0.00918887,1.41983,5,0.1,24,1.5,-1.23836,-1.16544,0.581141,-0.866026,-0.212043,0.0389078,0,0.0131279,-0.00241771,0.00807299,2.24287,5,0.1,25,1.5,-2.06528,3.39584,0.612263,0.248582,-0.814609,-0.0109894,-0.112593,0.282109,0.00795722,0.0156633,0.701797,5,0.1,26,1.5,-2.96108,3.07699,0.716256,0.841346,-0.569437,0.0283825,-0.121653,0.209063,-0.0104345,0.00932928,0.893502,5,0.1,27,1.5,-1.55459,0.965354,0.596841,-0.206736,0.334322,0.00299923,-0.0247955,-0.138417,-0.001885,0.00707595,0.159262,5,0.1,28,1.5,-3.59947,-1.94911,0.725139,0.431283,0.278257,0.0271254,-0.193179,-0.277974,0.0455342,0.0346252,1.93838,5,0.1,29,1.5,-2.16191,2.90348,0.58604,0.343578,-0.620371,0.0132471,-0.219017,0.395447,-0.00841171,0.0141341,0.238847,5,0.1
0,1.6,-1.18326,2.40625,0.632933,0.134978,-0.866026,-0.0367641,-0.0308156,0,0.00843406,0.0081976,2.25993,5,0.1,1,1.6,-0.12924,-3.53827,0.500004,0.862897,0.198358,-9.23872e-05,-0.0625658,-0.094533,0.00476837,0.011856,1.08106,5,0.1,2,1.6,-3.12921,-1.65703,0.576837,-0.166219,-0.261736,0.0225395,0.135303,1.05906,-0.0182986,0.0109027,0.334091,5,0.1,3,1.6,-3.44218,-1.31041,0.658018,-0.176734,0.412807,0.0383675,-0.630021,-1.13875,0.175565,0.0190316,3.23065,5,0.1,4,1.6,-0.625746,1.51786,0.561165,0.86022,-0.0587314,-0.00353456,0.11608,0.00464916,-0.0121593,0.00740363,2.39454,5,0.1,5,1.6,1.25971,3.50813,0.643001,-0.313592,-0.222701,0.0363976,-0.231683,-0.958681,-0.112772,0.00937532,1.44548,5,0.1,6,1.6,-0.716205,-1.86315,0.71168,0.26001,0.866026,0.0255361,-0.00959635,-5.96046e-05,-0.00602007,0.0282992,1.9831,5,0.1,7,1.6,3.66441,1.15926,0.566589,-0.330764,0.866026,0.0221744,0.0427961,0,-0.00533462,0.0151428,1.96635,5,0.1,8,1.6,-0.618837,-3.90526,0.68944,-0.866026,0.272775,-0.0271678,0,-0.0576973,-0.0379384,0.00863605,2.22549,5,0.1,9,1.6,1.57257,-2.05085,0.595307,-0.139013,0.866026,0.00225008,0.149846,-5.96046e-05,-0.00113249,0.023208,2.26351,5,0.1,10,1.6,0.123837,-0.669249,0.613872,-0.412574,0.50544,-0.0135019,0.335556,-0.411093,0.0109375,0.0128891,0.15323,5,0.1,11,1.6,0.000620146,-1.08944,0.557764,0.866025,0.412726,0.00343621,-1.19209e-06,-0.0481606,0.000566244,0.0114778,2.16252,5,0.1,12,1.6,3.44918,3.61597,0.59844,-0.58493,-0.161594,0.00151396,0.134826,0.131488,-0.0012219,0.0167293,0.689106,5,0.1,13,1.6,0.207446,2.62858,0.607335,-0.0762492,-0.374979,-0.0725299,0.0273883,0.134826,0.026077,0.00684248,0.0701056,5,0.1,14,1.6,3.51503,2.65135,0.602123,-0.516385,0.339401,-0.00206083,0.303149,-0.276089,0.00163913,0.0163808,0.355845,5,0.1,15,1.6,-1.66701,0.137504,0.619014,-0.00333488,0.858087,-0.00908524,0.035584,0.119686,-0.00333786,0.00897184,0.128125,5,0.1,16,1.6,-0.327774,-2.0115,0.723738,0.270235,0.255316,0.0316978,0.0519603,-0.14478,-0.0179708,0.0144482,0.111402,5,0.1,17,1.6,1.85234,2.53865,0.575296,-0.433704,-0.134957,0.024049,0.10711,0.109792,-0.0195801,0.0155275,0.19764,5,0.1,18,1.6,0.825504,-1.34853,0.573948,-0.861649,-0.507379,0.0243813,0.0874996,0.11307,-0.0191033,0.0101071,1.21251,5,0.1,19,1.6,1.27368,0.353759,0.619742,-0.100049,-0.844312,0.0513673,0.0702143,0.207305,-0.036031,0.00893852,0.600278,5,0.1,20,1.6,1.58561,3.28291,0.537561,0.366461,-0.04071,-0.0147149,-0.134468,0.0396967,0.00756979,0.00980236,0.0679421,5,0.1,21,1.6,-0.366053,-2.92143,0.603641,0.0298716,0.861019,0.0170842,-0.0101626,0.100136,-0.0688136,0.029145,2.27297,5,0.1,22,1.6,-2.07932,-3.41258,0.597061,0.417906,0.25562,0.00285059,-0.339866,-0.207901,-0.00229478,0.0161698,0.14762,5,0.1,23,1.6,0.189146,2.97287,0.500024,0.112285,-0.401068,0.000169873,0.138693,0.222564,-0.000268221,0.011206,1.29828,5,0.1,24,1.6,-1.32496,-1.18653,0.585012,-0.866026,-0.209269,0.0383988,0,0.0506639,-0.00929832,0.00901721,2.05952,5,0.1,25,1.6,-2.04103,3.31601,0.611206,0.235927,-0.779122,-0.0101224,-0.146747,0.445604,0.00947714,0.00985548,0.511832,5,0.1,26,1.6,-2.87775,3.02122,0.719036,0.822371,-0.544107,0.0271186,-0.285149,0.311255,-0.0154972,0.00923513,0.617688,5,0.1,27,1.6,-1.5754,0.998015,0.597131,-0.209019,0.317922,0.00279546,-0.00822544,-0.197113,-0.00226498,0.00920487,0.210765,5,0.1,28,1.6,-3.55731,-1.9228,0.728125,0.411534,0.246957,0.0328675,-0.218153,-0.344396,0.0629127,0.0281376,1.81652,5,0.1,29,1.6,-2.1287,2.84352,0.587321,0.319964,-0.577736,0.0123382,-0.260115,0.469804,-0.00998378,0.0128037,0.156983,5,0.1
0,1.7,-1.16986,2.31965,0.629286,0.133134,-0.866026,-0.0362585,-0.0135228,0,0.00371411,0.0081976,2.25993,5,0.1,1,1.7,-0.0430022,-3.51889,0.500012,0.863283,0.189503,0.000210386,0.0239313,-0.0892282,0.00152364,0.011856,1.08106,5,0.1,2,1.7,-3.14519,-1.67822,0.579004,-0.153539,-0.165374,0.020824,0.12286,0.860177,-0.0166297,0.0109027,0.334091,5,0.1,3,1.7,-3.46217,-1.27252,0.662503,-0.21548,0.364875,0.0492216,-0.171036,0.0528246,0.0491329,0.0190316,3.23065,5,0.1,4,1.7,-0.539798,1.512,0.560754,0.852514,-0.0586549,-0.00464693,-0.257418,8.19564e-05,-0.00977516,0.00740363,2.39454,5,0.1,5,1.7,1.22698,3.48078,0.64606,-0.342354,-0.325735,0.0247089,-0.310436,-1.04578,-0.117995,0.00937532,1.44548,5,0.1,6,1.7,-0.690193,-1.77655,0.714211,0.260458,0.866025,0.0251057,0.00474602,1.49012e-05,-0.0038594,0.0282992,1.9831,5,0.1,7,1.7,3.63146,1.24586,0.568786,-0.328486,0.866026,0.0217962,0.0198185,0,-0.00334159,0.0151428,1.96635,5,0.1,8,1.7,-0.70544,-3.87817,0.686534,-0.866026,0.269609,-0.0309112,3.72529e-06,-0.0210851,-0.0346787,0.00863605,2.22549,5,0.1,9,1.7,1.55934,-1.96425,0.595528,-0.126252,0.866025,0.00216933,0.111341,1.49012e-05,-0.000614673,0.023208,2.26351,5,0.1,10,1.7,0.0841779,-0.620663,0.612574,-0.381118,0.466903,-0.0124759,0.304847,-0.373464,0.00995025,0.0128891,0.15323,5,0.1,11,1.7,0.0872227,-1.04823,0.558113,0.866025,0.412709,0.0035557,-1.49012e-07,0.021264,0.00151619,0.0114778,2.16252,5,0.1,12,1.7,3.3921,3.60043,0.598585,-0.549842,-0.149267,0.00139931,0.539258,0.119448,-0.00110641,0.0167293,0.689106,5,0.1,13,1.7,0.199936,2.59165,0.600191,-0.074082,-0.364309,-0.070466,0.0197543,0.0972599,0.018809,0.00684248,0.0701056,5,0.1,14,1.7,3.46459,2.68398,0.601925,-0.494621,0.313519,-0.00190679,0.163153,-0.250816,0.00149757,0.0163808,0.355845,5,0.1,15,1.7,-1.66717,0.2232,0.618084,0.000106357,0.848896,-0.00952175,0.032492,-0.29657,-0.00466779,0.00897184,0.128125,5,0.1,16,1.7,-0.300873,-1.98667,0.726822,0.26423,0.241532,0.0299868,-0.160467,-0.138648,-0.0172071,0.0144482,0.111402,5,0.1,17,1.7,1.80939,2.52568,0.577608,-0.426055,-0.124665,0.0222136,0.0675544,0.0997186,-0.0177883,0.0155275,0.19764,5,0.1,18,1.7,0.739493,-1.39882,0.576296,-0.860128,-0.499044,0.0226093,-0.00745431,0.0780076,-0.0170618,0.0101071,1.21251,5,0.1,19,1.7,1.26401,0.270223,0.624706,-0.0934372,-0.826879,0.0479742,0.064902,0.177664,-0.0333004,0.00893852,0.600278,5,0.1,20,1.7,1.62167,3.27903,0.536124,0.35526,-0.0370424,-0.0140525,-0.105843,0.0347644,0.00627339,0.00980236,0.0679421,5,0.1,21,1.7,-0.363106,-2.83503,0.605028,0.0291343,0.865713,0.0108749,-0.00613928,0.012517,-0.0553727,0.029145,2.27297,5,0.1,22,1.7,-2.03894,-3.38789,0.597336,0.391832,0.23967,0.00267504,-0.206083,-0.126079,-0.00138208,0.0161698,0.14762,5,0.1,23,1.7,0.201357,2.93346,0.500039,0.134141,-0.390207,0.00012219,0.271475,0.0297278,-0.000633299,0.011206,1.29828,5,0.1,24,1.7,-1.41156,-1.20727,0.588816,-0.866026,-0.205716,0.0377472,0,0.0309721,-0.00567734,0.00901721,2.05952,5,0.1,25,1.7,-2.01812,3.24027,0.61024,0.222453,-0.735812,-0.00921115,-0.130661,0.441894,0.00894815,0.00985548,0.511832,5,0.1,26,1.7,-2.79682,2.9683,0.721674,0.796704,-0.514776,0.025658,-0.26004,0.292271,-0.0145622,0.00923513,0.617688,5,0.1,27,1.7,-1.59631,1.02904,0.597401,-0.208787,0.304135,0.00262139,0.0198707,-0.0990555,-0.00137463,0.00920487,0.210765,5,0.1,28,1.7,-3.51719,-1.90009,0.731872,0.390856,0.204934,0.0432332,-0.208288,-0.478558,0.131931,0.0281376,1.81652,5,0.1,29,1.7,-2.09794,2.78798,0.588507,0.295577,-0.533693,0.0114015,-0.236347,0.426829,-0.00908598,0.0128037,0.156983,5,0.1
0,1.8,-1.15664,2.23305,0.625684,0.131002,-0.866026,-0.0356749,-0.0344515,0,0.00935793,0.00967039,2.26069,5,0.1,1,1.8,0.0432821,-3.50042,0.500037,0.859956,0.179392,0.00025481,-0.1214,-0.117302,-0.000417233,0.0103972,0.784539,5,0.1,2,1.8,-3.15992,-1.69084,0.581002,-0.140882,-0.0907898,0.0191092,0.133395,0.62871,-0.0180304,0.00985594,0.319144,5,0.1,3,1.8,-3.484,-1.23467,0.667514,-0.215805,0.400677,0.0496045,0.141859,0.563562,-0.0349879,0.0163047,2.79621,5,0.1,4,1.8,-0.456365,1.50614,0.560246,0.811113,-0.0581741,-0.00543892,-0.559628,0.0117421,-0.00587106,0.00901264,2.66339,5,0.1,5,1.8,1.19129,3.44321,0.647953,-0.369975,-0.422174,0.0133261,-0.218213,-0.842333,-0.107408,0.00946834,1.10706,5,0.1,6,1.8,-0.664192,-1.68995,0.716697,0.25862,0.866026,0.0245497,-0.0510514,-5.96046e-05,-0.00813603,0.0293118,1.54275,5,0.1,7,1.8,3.59879,1.33246,0.570945,-0.32391,0.866026,0.0213176,0.0835657,0,-0.00697374,0.0144434,1.52416,5,0.1,8,1.8,-0.792042,-3.85136,0.68329,-0.866026,0.26592,-0.0337228,0,-0.0634193,-0.0199676,0.00909674,2.22766,5,0.1,9,1.8,1.54725,-1.87764,0.595742,-0.115708,0.866026,0.00210553,0.103951,-5.96046e-05,-0.000804663,0.0244206,2.26492,5,0.1,10,1.8,0.0476145,-0.575869,0.611377,-0.34971,0.428425,-0.0114501,0.330991,-0.405461,0.0108182,0.0123616,0.185516,5,0.1,11,1.8,0.173825,-1.00692,0.558476,0.866025,0.412436,0.00368804,7.15256e-06,-0.045687,0.000923872,0.01195,2.16357,5,0.1,12,1.8,3.34029,3.58611,0.59872,-0.482225,-0.13696,0.00128448,0.789285,0.1297,-0.0012219,0.0171523,0.444995,5,0.1,13,1.8,0.192639,2.55577,0.593251,-0.0716563,-0.352371,-0.0681564,0.0313744,0.154257,0.0298619,0.00755478,0.0312492,5,0.1,14,1.8,3.41592,2.71406,0.601742,-0.478393,0.287682,-0.00175238,0.183821,-0.272393,0.00163913,0.0156706,0.296063,5,0.1,15,1.8,-1.667,0.305972,0.617112,0.00303686,0.800414,-0.00989735,0.02563,-0.663607,-0.00229478,0.00928295,0.295851,5,0.1,16,1.8,-0.275523,-1.96325,0.729729,0.24034,0.226295,0.0280946,-0.306934,-0.171363,-0.0212491,0.00867825,0.138593,5,0.1,17,1.8,1.7672,2.51372,0.579739,-0.416514,-0.114387,0.0203833,0.138521,0.108123,-0.0193417,0.0116913,0.139646,5,0.1,18,1.8,0.653619,-1.44823,0.57847,-0.854681,-0.487641,0.0208482,0.151366,0.166953,-0.0186861,0.011749,0.867272,5,0.1,19,1.8,1.255,0.188617,0.629332,-0.0865877,-0.802657,0.0444591,0.074029,0.331722,-0.037998,0.00804026,0.415235,5,0.1,20,1.8,1.6566,3.2755,0.534752,0.342536,-0.0335693,-0.0133604,-0.160038,0.0356436,0.00801682,0.00773899,0.0516302,5,0.1,21,1.8,-0.360227,-2.74843,0.605861,0.0283785,0.866026,0.00600219,-0.0100583,0,-0.0421107,0.0284256,2.2787,5,0.1,22,1.8,-2.00073,-3.36451,0.597597,0.372452,0.227809,0.00254512,-0.199497,-0.121951,-0.0013411,0.0309858,0.0851405,5,0.1,23,1.8,0.216165,2.89451,0.500048,0.161868,-0.389016,5.06639e-05,0.262894,0.0202656,-0.000715256,0.0115776,1.08347,5,0.1,24,1.8,-1.49817,-1.22764,0.592556,-0.866026,-0.201279,0.036934,0,0.0651479,-0.0119507,0.016813,1.61535,5,0.1,25,1.8,-1.99656,3.16903,0.609364,0.208464,-0.6872,-0.00829846,-0.154436,0.544429,0.00944734,0.0163387,0.37968,5,0.1,26,1.8,-2.71862,2.91836,0.724163,0.765002,-0.48281,0.0240669,-0.395775,0.358343,-0.0178814,0.0127858,0.419781,5,0.1,27,1.8,-1.617,1.05898,0.597657,-0.203899,0.294584,0.00249147,0.082314,-0.106812,-0.0013411,0.00858922,0.174029,5,0.1,28,1.8,-3.47922,-1.88209,0.736885,0.367725,0.154397,0.0570655,-0.262976,-0.518262,0.135303,0.0356721,0.952807,5,0.1,29,1.8,-2.06959,2.73678,0.589601,0.271225,-0.489718,0.0104651,-0.256658,0.463486,-0.00989437,0.0119269,0.10358,5,0.1
0,1.9,-1.14366,2.14644,0.62215,0.128835,-0.866026,-0.0350867,-0.0161454,0,0.00437722,0.00967039,2.26069,5,0.1,1,1.9,0.128857,-3.48303,0.500059,0.852325,0.168439,0.000182353,-0.0736366,-0.107303,-0.000961125,0.0103972,0.784539,5,0.1,2,1.9,-3.17335,-1.69718,0.582818,-0.127807,-0.0399282,0.0171618,0.13034,0.395425,-0.0208206,0.00985594,0.319144,5,0.1,3,1.9,-3.5045,-1.1907,0.672198,-0.191217,0.486877,0.0431891,0.331312,1.05904,-0.0878014,0.0163047,2.79621,5,0.1,4,1.9,-0.378951,1.50037,0.559675,0.730574,-0.0574846,-0.00597509,-0.959601,0.00520051,-0.00454858,0.00901264,2.66339,5,0.1,5,1.9,1.15313,3.39677,0.648757,-0.393238,-0.505606,0.00289977,-0.221178,-0.783116,-0.0989214,0.00946834,1.10706,5,0.1,6,1.9,-0.638549,-1.60335,0.719116,0.25433,0.865884,0.0238465,-0.0458322,-0.00562519,-0.00695139,0.0293118,1.54275,5,0.1,7,1.9,3.56676,1.41905,0.573046,-0.316777,0.865533,0.0207182,0.0727624,-0.0196993,-0.00590831,0.0144434,1.52416,5,0.1,8,1.9,-0.878645,-3.82498,0.679814,-0.866026,0.262273,-0.0357683,3.72529e-06,-0.0246763,-0.0187643,0.00909674,2.22766,5,0.1,9,1.9,1.53612,-1.79104,0.595949,-0.107594,0.866025,0.00205999,0.0649169,1.49012e-05,-0.000242144,0.0244206,2.26492,5,0.1,10,1.9,0.0142091,-0.534788,0.610283,-0.319045,0.395305,-0.0104472,0.291822,-0.278454,0.00954419,0.0123616,0.185516,5,0.1,11,1.9,0.260428,-0.965732,0.558851,0.866026,0.412273,0.00382513,-2.68221e-06,0.0166968,0.00152737,0.01195,2.16357,5,0.1,12,1.9,3.29628,3.57303,0.598842,-0.395818,-0.124944,0.0011716,0.916734,0.114352,-0.00107288,0.0171523,0.444995,5,0.1,13,1.9,0.185632,2.52131,0.586586,-0.0684269,-0.336492,-0.0650831,0.0351444,0.172794,0.0334457,0.00755478,0.0312492,5,0.1,14,1.9,3.36941,2.74153,0.601574,-0.448176,0.262447,-0.00160038,0.4085,-0.240117,0.00145286,0.0156706,0.296063,5,0.1,15,1.9,-1.66658,0.382934,0.616109,0.00542365,0.740523,-0.0101608,0.0215471,-0.561002,-0.00240281,0.00928295,0.295851,5,0.1,16,1.9,-0.253204,-1.94141,0.73244,0.204487,0.210849,0.0261791,-0.399677,-0.145771,-0.0180826,0.00867825,0.138593,5,0.1,17,1.9,1.72616,2.50279,0.581686,-0.404611,-0.104368,0.0185922,0.117011,0.0953674,-0.0170395,0.0116913,0.139646,5,0.1,18,1.9,0.568747,-1.49625,0.580467,-0.84335,-0.472965,0.0191262,0.114935,0.146255,-0.0163615,0.011749,0.867272,5,0.1,19,1.9,1.24669,0.109889,0.633598,-0.079699,-0.772342,0.0409232,0.0661537,0.304117,-0.0339597,0.00804026,0.415235,5,0.1,20,1.9,1.69017,3.2723,0.533451,0.329603,-0.0303917,-0.0126863,-0.115611,0.0291169,0.00608712,0.00773899,0.0516302,5,0.1,21,1.9,-0.357532,-2.66183,0.606244,0.0247187,0.865883,0.00164006,-0.0581127,-0.00572205,-0.0436977,0.0284256,2.2787,5,0.1,22,1.9,-1.96437,-3.34227,0.597846,0.355463,0.217422,0.00243103,-0.156321,-0.095576,-0.00104681,0.0309858,0.0851405,5,0.1,23,1.9,0.233784,2.85526,0.50005,0.191112,-0.399235,-1.19209e-05,0.300119,-0.18166,-0.000536442,0.0115776,1.08347,5,0.1,24,1.9,-1.58477,-1.24749,0.596197,-0.865946,-0.195712,0.0359132,0.00318885,0.0546947,-0.0100248,0.016813,1.61535,5,0.1,25,1.9,-1.97644,3.10291,0.608579,0.194173,-0.635977,-0.00742162,-0.137769,0.498638,0.00828877,0.0163387,0.37968,5,0.1,26,1.9,-2.64398,2.87178,0.726485,0.728388,-0.449358,0.0223978,-0.36262,0.32483,-0.0162013,0.0127858,0.419781,5,0.1,27,1.9,-1.63674,1.08798,0.5979,-0.188821,0.285772,0.00237729,0.210248,-0.0827089,-0.00105053,0.00858922,0.174029,5,0.1,28,1.9,-3.44353,-1.8694,0.743308,0.347863,0.098411,0.0715785,-0.155613,-0.582024,0.146002,0.0356721,0.952807,5,0.1,29,1.9,-2.04368,2.69,0.590601,0.247446,-0.446778,0.00954801,-0.226304,0.408649,-0.00872836,0.0119269,0.10358,5,0.1
0,2,-1.13088,2.05984,0.618669,0.126532,-0.866026,-0.0344604,-0.0350475,0,0.00953674,0.0084568,2.26147,5,0.1,1,2,0.213517,-3.46675,0.500073,0.838043,0.157005,7.45058e-05,-0.241443,-0.125051,-0.00110269,0.00899487,0.552287,5,0.1,2,2,-3.18547,-1.69953,0.584426,-0.114453,-0.0102729,0.0149667,0.138402,0.20504,-0.0230074,0.00753733,0.712654,5,0.1,3,2,-3.52178,-1.13658,0.676028,-0.152904,0.594759,0.0330389,0.419617,1.02293,-0.110805,0.0183472,2.47802,5,0.1,4,2,-0.310776,1.49465,0.559059,0.633451,-0.0565946,-0.00629723,-0.931829,0.0147223,-0.00172853,0.00839154,2.83388,5,0.1,5,2,1.11287,3.34269,0.648582,-0.40983,-0.571501,-0.00608563,-0.0926256,-0.504732,-0.0792146,0.00914297,0.802375,5,0.1,6,2,-0.61341,-1.51684,0.721461,0.247586,0.86377,0.022988,-0.0966191,-0.0451207,-0.0109076,0.0281454,1.16601,5,0.1,7,2,3.53552,1.50535,0.575084,-0.307041,0.858149,0.0199854,0.131249,-0.157654,-0.00935793,0.0154149,1.25016,5,0.1,8,2,-0.965248,-3.79891,0.67616,-0.866026,0.258386,-0.0371084,0,-0.0636578,-0.00655651,0.00787843,2.22997,5,0.1,9,2,1.52566,-1.70444,0.596154,-0.101578,0.866026,0.00203401,0.0602603,0,-0.000447035,0.0234055,2.26557,5,0.1,10,2,-0.0162378,-0.496584,0.609286,-0.289737,0.369006,-0.00948757,0.300911,-0.263259,0.00983477,0.0133073,0.132287,5,0.1,11,2,0.34703,-0.924491,0.55924,0.866025,0.411373,0.00394583,1.43051e-05,-0.0529587,0.000655651,0.0121457,2.16542,5,0.1,12,2,3.26134,3.56111,0.598954,-0.302839,-0.113457,0.00106394,0.925183,0.117779,-0.00113249,0.0160828,0.268438,5,0.1,13,2,0.178984,2.48862,0.580262,-0.064313,-0.316262,-0.0611693,0.0483543,0.237823,0.0460148,0.0118748,0.22789,5,0.1,14,2,3.32692,2.76658,0.601421,-0.398999,0.238335,-0.00145435,0.56386,-0.247717,0.00151992,0.0206738,0.277725,5,0.1,15,2,-1.66594,0.454172,0.615084,0.00725091,0.683659,-0.0102833,0.0146627,-0.595047,0.000357628,0.00858196,0.202318,5,0.1,16,2,-0.234835,-1.92107,0.734966,0.162327,0.195754,0.0243068,-0.434741,-0.161648,-0.020057,0.0117753,0.129066,5,0.1,17,2,1.68637,2.49283,0.58346,-0.390166,-0.0947893,0.0168815,0.18394,0.0983477,-0.0175536,0.0143573,0.166259,5,0.1,18,2,0.485192,-1.54271,0.582298,-0.824989,-0.455067,0.0174746,0.279665,0.225246,-0.0171363,0.0158772,0.376647,5,0.1,19,2,1.23905,0.0343267,0.637519,-0.0729501,-0.736862,0.0374585,0.0705719,0.425632,-0.03618,0.00889881,0.282353,5,0.1,20,2,1.72252,3.26941,0.532214,0.316542,-0.0275493,-0.0120386,-0.157475,0.0286102,0.00733137,0.0218471,0.0230611,5,0.1,21,2,-0.355396,-2.57532,0.606197,0.0176594,0.863737,-0.002487,-0.0790656,-0.0457764,-0.0378191,0.0518079,2.38185,5,0.1,22,2,-1.92965,-3.32103,0.598084,0.338465,0.207025,0.00231564,-0.194907,-0.119209,-0.0013113,0.0335341,0.122466,5,0.1,23,2,0.254309,2.81439,0.500046,0.218134,-0.417876,-5.66244e-05,0.22462,-0.159383,-0.000357628,0.0142692,0.867884,5,0.1,24,2,-1.67132,-1.26674,0.59973,-0.86475,-0.188902,0.0346646,0.0254512,0.0873208,-0.0160038,0.0101916,1.23141,5,0.1,25,2,-1.95773,3.04186,0.607878,0.179833,-0.58434,-0.00660717,-0.153422,0.546575,0.00810623,0.0114156,0.287799,5,0.1,26,2,-2.57307,2.82851,0.728641,0.688088,-0.415468,0.0207081,-0.461459,0.362754,-0.01809,0.0099345,0.282488,5,0.1,27,2,-1.65442,1.11609,0.598132,-0.163528,0.275794,0.00226349,0.287831,-0.126183,-0.0013411,0.00820164,0.150872,5,0.1,28,2,-3.40949,-1.86244,0.751153,0.33291,0.0413984,0.0847295,-0.159025,-0.543594,0.110656,0.00853148,0.563707,5,0.1,29,2,-2.02006,2.64736,0.591512,0.224715,-0.405735,0.00867099,-0.233412,0.421405,-0.0090003,0.0131445,0.118439,5,0.1
0,2.1,-1.11835,1.97324,0.615257,0.124291,-0.866026,-0.0338509,-0.0167862,0,0.00457093,0.0084568,2.26147,5,0.1,1,2.1,0.296243,-3.45164,0.500075,0.816878,0.145404,-2.13273e-05,-0.216071,-0.111595,-0.000808388,0.00899487,0.552287,5,0.1,2,2.1,-3.19618,-1.69973,0.585705,-0.0994202,0.00423938,0.00974564,0.159964,0.0821203,-0.074815,0.00753733,0.712654,5,0.1,3,2.1,-3.53487,-1.07167,0.678872,-0.108141,0.704687,0.0246779,0.462353,1.09919,-0.0602789,0.0183472,2.47802,5,0.1,4,2.1,-0.252039,1.48905,0.55842,0.545432,-0.0556286,-0.00646161,-0.698263,0.00762939,-0.00125542,0.00839154,2.83388,5,0.1,5,2.1,1.0714,3.28308,0.647593,-0.419199,-0.619049,-0.0134856,-0.0742376,-0.412345,-0.0671335,0.00914297,0.802375,5,0.1,6,2.1,-0.589101,-1.43049,0.723709,0.238685,0.864171,0.0219928,-0.0904314,0.0143275,-0.00982732,0.0281454,1.16601,5,0.1,7,2.1,3.50543,1.58946,0.577039,-0.295012,0.816468,0.0191333,0.120491,-0.617452,-0.00841916,0.0154149,1.25016,5,0.1,8,2.1,-1.05185,-3.77329,0.672409,-0.866026,0.254703,-0.0379239,0,-0.0248253,-0.00762567,0.00787843,2.22997,5,0.1,9,2.1,1.51573,-1.61784,0.596357,-0.0976712,0.866026,0.00202507,0.0249296,0,0.000119209,0.0234055,2.26557,5,0.1,10,2.1,-0.0437959,-0.460833,0.608384,-0.26211,0.347249,-0.008584,0.259648,-0.189144,0.00849366,0.0133073,0.132287,5,0.1,11,2.1,0.433633,-0.883457,0.55964,0.866025,0.410269,0.0040492,-3.57628e-06,0.00590459,0.00113994,0.0121457,2.16542,5,0.1,12,2.1,3.23558,3.55032,0.599055,-0.213875,-0.102643,0.000960566,0.841513,0.101626,-0.000968575,0.0160828,0.268438,5,0.1,13,2.1,0.172673,2.4577,0.57467,-0.0628926,-0.305854,-0.0481853,-0.0111302,0.00603497,0.196017,0.0118748,0.22789,5,0.1,14,2.1,3.29008,2.78925,0.601283,-0.335852,0.215594,-0.00131493,0.682667,-0.213683,0.00131503,0.0206738,0.277725,5,0.1,15,2.1,-1.66514,0.519769,0.614057,0.00856388,0.62976,-0.0102619,0.0111684,-0.505094,0.000521541,0.00858196,0.202318,5,0.1,16,2.1,-0.220785,-1.90228,0.737299,0.118809,0.179956,0.0223463,-0.426609,-0.158437,-0.0196621,0.0117753,0.129066,5,0.1,17,2.1,1.64795,2.48377,0.585073,-0.380554,-0.087006,0.0154928,0.0386089,0.0627488,-0.011187,0.0143573,0.166259,5,0.1,18,2.1,0.404384,-1.58692,0.583935,-0.788076,-0.427425,0.0150582,0.464534,0.328168,-0.0298172,0.0158772,0.376647,5,0.1,19,2.1,1.23209,-0.0373562,0.641094,-0.0664443,-0.697418,0.0341224,0.0615716,0.387582,-0.0315793,0.00889881,0.282353,5,0.1,20,2.1,1.75339,3.26679,0.531046,0.300758,-0.0248455,-0.011319,-0.166953,0.026077,0.00738725,0.0218471,0.0230611,5,0.1,21,2.1,-0.354374,-2.48925,0.605929,-0.000101142,0.855983,-0.0013954,-0.252444,-0.13724,0.0501461,0.0518079,2.38185,5,0.1,22,2.1,-1.89673,-3.3008,0.598309,0.319924,0.198434,0.00219075,-0.186145,-0.0651181,-0.00125542,0.0335341,0.122466,5,0.1,23,2.1,0.277175,2.77138,0.500039,0.238169,-0.445344,-8.09319e-05,0.16503,-0.341594,-0.000145286,0.0142692,0.867884,5,0.1,24,2.1,-1.75779,-1.28523,0.603123,-0.865002,-0.180965,0.0332101,-0.00363588,0.0783429,-0.014361,0.0101916,1.23141,5,0.1,25,2.1,-1.94047,2.986,0.607255,0.165629,-0.533967,-0.00587236,-0.135846,0.477478,0.00678003,0.0114156,0.287799,5,0.1,26,2.1,-2.50644,2.78867,0.730627,0.645297,-0.38189,0.0190338,-0.415981,0.320628,-0.0159889,0.0099345,0.282488,5,0.1,27,2.1,-1.66925,1.14306,0.598352,-0.132335,0.263506,0.00213645,0.327937,-0.127979,-0.00127405,0.00820164,0.150872,5,0.1,28,2.1,-3.37813,-1.86113,0.760412,0.284442,-0.0157911,0.102207,-0.746489,-0.577956,0.21733,0.00853148,0.563707,5,0.1,29,2.1,-1.99859,2.60858,0.592341,0.206243,-0.372386,0.00795862,-0.148922,0.268862,-0.00574812,0.0131445,0.118439,5,0.1
0,2.2,-1.10602,1.88664,0.611899,0.121972,-0.866026,-0.0332206,-0.0345111,5.96046e-05,0.00944734,0.0081484,1.95511,5,0.1,1,2.2,0.376663,-3.43766,0.500069,0.789063,0.133914,-8.79169e-05,-0.363678,-0.121593,-0.000536442,0.00854796,0.380368,5,0.1,2,2.2,-3.2053,-1.69911,0.586264,-0.0828862,0.00607669,0.00117868,0.1688,-0.0429749,-0.0914037,0.0105256,1.56276,5,0.1,3,2.2,-3.54339,-0.996094,0.681096,-0.0627756,0.801685,0.0202864,0.435114,0.788093,-0.0307262,0.0168931,2.3269,5,0.1,4,2.2,-0.2,1.48353,0.557771,0.505166,-0.0545502,-0.00649691,-0.123687,0.0160933,0.000715256,0.00708416,2.73432,5,0.1,5,2.2,1.02928,3.21949,0.64594,-0.421232,-0.648308,-0.0192389,0.0475347,-0.150084,-0.0468493,0.00944632,0.55671,5,0.1,6,2.2,-0.565735,-1.34415,0.725856,0.227983,0.860476,0.0208825,-0.129759,-0.110924,-0.012964,0.0299251,0.852954,5,0.1,7,2.2,3.47659,1.66764,0.578907,-0.28106,0.744048,0.0181809,0.166059,-0.795662,-0.0111759,0.0154561,1.02965,5,0.1,8,2.2,-1.13845,-3.74798,0.668591,-0.866026,0.250882,-0.0382721,0,-0.0618696,0.00217557,0.00926994,2.22753,5,0.1,9,2.2,1.50608,-1.53123,0.59656,-0.0953674,0.866026,0.00203252,0.0263453,-5.96046e-05,-0.000119209,0.0267478,1.47759,5,0.1,10,2.2,-0.0687235,-0.427047,0.607567,-0.236445,0.328217,-0.00774413,0.259262,-0.203863,0.00846386,0.0163201,0.162633,5,0.1,11,2.2,0.520235,-0.842471,0.560049,0.866026,0.408284,0.00412762,0,-0.0633299,0.000238419,0.00861845,1.85621,5,0.1,12,2.2,3.21818,3.54055,0.599146,-0.136596,-0.0925899,0.000865757,0.696063,0.101328,-0.000953674,0.0165228,0.26384,5,0.1,13,2.2,0.16629,2.42701,0.570959,-0.064991,-0.308806,-0.0251174,-0.0241995,-0.0382662,0.251502,0.00992219,0.207115,5,0.1,14,2.2,3.25999,2.80975,0.601158,-0.265437,0.194472,-0.00118613,0.712395,-0.213265,0.0013113,0.0116664,0.270074,5,0.1,15,2.2,-1.66424,0.58022,0.613037,0.00941455,0.578874,-0.010103,0.00542402,-0.528097,0.00301003,0.00807539,0.611523,5,0.1,16,2.2,-0.210963,-1.8851,0.739432,0.0785317,0.163391,0.0202909,-0.372685,-0.175476,-0.0218153,0.0115498,0.0165374,5,0.1,17,2.2,1.61005,2.47536,0.586571,-0.377193,-0.0812948,0.0144735,0.0509024,0.0555515,-0.00986457,0.0109358,0.0994836,5,0.1,18,2.2,0.328241,-1.62785,0.58528,-0.731331,-0.389481,0.01176,0.671953,0.429571,-0.0350475,0.0104312,0.346512,5,0.1,19,2.2,1.22575,-0.105061,0.644349,-0.0602901,-0.655254,0.0309661,0.0628829,0.472289,-0.0323057,0.0103176,0.190117,5,0.1,20,2.2,1.78256,3.26443,0.529953,0.281721,-0.0222266,-0.0105098,-0.219405,0.0265837,0.0090301,0.00852214,0.0135953,5,0.1,21,2.2,-0.355771,-2.40468,0.606121,-0.0286259,0.831699,0.00584275,-0.299722,-0.366449,0.0871122,0.0304988,2.50783,5,0.1,22,2.2,-1.86573,-3.28128,0.598521,0.299528,0.191849,0.00205189,-0.228703,-0.0756979,-0.00154972,0.0187901,0.265166,5,0.1,23,2.2,0.301645,2.72516,0.500031,0.249322,-0.477809,-8.79169e-05,0.0508726,-0.272274,2.98023e-05,0.00974965,0.663946,5,0.1,24,2.2,-1.84418,-1.3029,0.606366,-0.861108,-0.172064,0.0315785,0.0982881,0.104308,-0.0191629,0.00755349,0.910662,5,0.1,25,2.2,-1.92459,2.93498,0.6067,0.151792,-0.486034,-0.00521988,-0.144482,0.492573,0.0064075,0.0108343,0.220229,5,0.1,26,2.2,-2.44406,2.7521,0.73245,0.601244,-0.349331,0.0174105,-0.479937,0.338435,-0.0168681,0.0116702,0.189328,5,0.1,27,2.2,-1.68083,1.16871,0.598559,-0.0993818,0.248799,0.00199825,0.324845,-0.171602,-0.00151992,0.00750925,0.310774,5,0.1,28,2.2,-3.35395,-1.86551,0.771749,0.195068,-0.0703454,0.124429,-0.990272,-0.496805,0.210971,0.00738928,0.321166,5,0.1,29,2.2,-1.97865,2.57259,0.59311,0.192687,-0.347918,0.00743419,-0.131667,0.237823,-0.00506639,0.0107728,0.0712982,5,0.1
0,2.3,-1.09397,1.80003,0.608615,0.119415,-0.866025,-0.0325203,-0.0226498,-1.49012e-05,0.00619888,0.0081484,1.95511,5,0.1,1,2.3,0.453871,-3.42484,0.500058,0.755562,0.12271,-0.000124052,-0.334313,-0.10632,-0.000208616,0.00854796,0.380368,5,0.1,2,2.3,-3.21268,-1.69869,0.585922,-0.0642024,0.000181049,-0.00799056,0.198931,-0.154689,-0.0890195,0.0105256,1.56276,5,0.1,3,2.3,-3.54751,-0.912881,0.683024,-0.0198048,0.854144,0.0187355,0.414118,0.285529,-0.0035353,0.0168931,2.3269,5,0.1,4,2.3,-0.148669,1.47814,0.557124,0.533039,-0.0534154,-0.00644326,0.574386,0.00943244,0.000648201,0.00708416,2.73432,5,0.1,5,2.3,0.987373,3.15396,0.643796,-0.416629,-0.661066,-0.0234556,0.0611059,-0.0778884,-0.0362061,0.00944632,0.55671,5,0.1,6,2.3,-0.543549,-1.25844,0.727883,0.215907,0.854755,0.0196857,-0.11922,-0.0481978,-0.0116602,0.0299251,0.852954,5,0.1,7,2.3,3.44926,1.73778,0.580673,-0.265664,0.658576,0.0171501,0.151053,-0.816099,-0.0100434,0.0154561,1.02965,5,0.1,8,2.3,-1.22506,-3.72301,0.664712,-0.866026,0.249955,-0.0397917,0,0.0230223,-0.0271648,0.00926994,2.22753,5,0.1,9,2.3,1.49663,-1.44463,0.596763,-0.0938404,0.865871,0.0020382,0.00983477,-0.00613183,0.000108033,0.0267478,1.47759,5,0.1,10,2.3,-0.0912644,-0.394904,0.606829,-0.215946,0.317308,-0.00707461,0.164519,-0.042906,0.00538304,0.0163201,0.162633,5,0.1,11,2.3,0.606825,-0.802305,0.560428,0.865394,0.391758,0.00316119,-0.0252537,-0.259742,-0.0175498,0.00861845,1.85621,5,0.1,12,2.3,3.2077,3.53177,0.599229,-0.0759508,-0.0833515,0.000779238,0.514403,0.086084,-0.000800937,0.0165228,0.26384,5,0.1,13,2.3,0.159435,2.39572,0.569749,-0.0739671,-0.318456,0.00110064,-0.137088,-0.127271,0.263356,0.00992219,0.207115,5,0.1,14,2.3,3.23696,2.8282,0.601046,-0.195781,0.175035,-0.00106664,0.670865,-0.181019,0.00111386,0.0116664,0.270074,5,0.1,15,2.3,-1.66327,0.636116,0.61204,0.00985935,0.544319,-0.00982042,0.00311434,-0.211,0.00301003,0.00807539,0.611523,5,0.1,16,2.3,-0.204837,-1.86987,0.741324,0.0453486,0.139306,0.017298,-0.291052,-0.291683,-0.0362322,0.0115498,0.0165374,5,0.1,17,2.3,1.57249,2.46748,0.587974,-0.374464,-0.0766035,0.013641,0.0234023,0.0418872,-0.00743195,0.0109358,0.0994836,5,0.1,18,2.3,0.258783,-1.66467,0.586221,-0.654946,-0.346988,0.00658212,0.844547,0.423916,-0.0641607,0.0104312,0.346512,5,0.1,19,2.3,1.22002,-0.168359,0.647294,-0.0545358,-0.611509,0.0280102,0.0539199,0.422797,-0.0276901,0.0103176,0.190117,5,0.1,20,2.3,1.80965,3.26234,0.528946,0.260124,-0.0197187,-0.00963127,-0.219338,0.0240803,0.00878796,0.00852214,0.0135953,5,0.1,21,2.3,-0.360562,-2.32311,0.607203,-0.0705218,0.800883,0.0162289,-0.500834,-0.286147,0.113834,0.0304988,2.50783,5,0.1,22,2.3,-1.83689,-3.26267,0.598719,0.277137,0.178651,0.0018998,-0.225529,-0.181794,-0.00153109,0.0187901,0.265166,5,0.1,23,2.3,0.326739,2.6758,0.500022,0.251483,-0.510594,-8.028e-05,-0.0133086,-0.342131,0.000119209,0.00974965,0.663946,5,0.1,24,2.3,-1.93005,-1.31962,0.609434,-0.857601,-0.162443,0.0298113,0.0191033,0.0938252,-0.0172257,0.00755349,0.910662,5,0.1,25,2.3,-1.91011,2.88861,0.606207,0.138004,-0.443232,-0.00466751,-0.134498,0.382453,0.00485405,0.0108343,0.220229,5,0.1,26,2.3,-2.3862,2.71876,0.734112,0.556897,-0.31823,0.0158606,-0.425026,0.293508,-0.0146255,0.0116702,0.189328,5,0.1,27,2.3,-1.68914,1.19268,0.598751,-0.0669938,0.230042,0.00183601,0.311926,-0.204958,-0.00173599,0.00750925,0.310774,5,0.1,28,2.3,-3.33945,-1.87503,0.78544,0.0950892,-0.11973,0.150702,-0.983313,-0.472374,0.290729,0.00738928,0.321166,5,0.1,29,2.3,-1.95997,2.539,0.593831,0.181569,-0.323541,0.00700606,-0.0992268,0.2556,-0.00382587,0.0107728,0.0712982,5,0.1
0,2.4,-1.08216,1.71343,0.6054,0.116417,-0.866026,-0.0317022,-0.0414848,5.96046e-05,0.0113547,0.00954318,1.52907,5,0.1,1,2.4,0.527618,-3.41311,0.500045,0.717498,0.111991,-0.00013262,-0.446022,-0.110626,2.98023e-05,0.0100546,0.258419,5,0.1,2,2.4,-3.2181,-1.7,0.584702,-0.0441551,-0.031808,-0.0161186,0.197291,-0.47487,-0.0714362,0.00826094,2.58559,5,0.1,3,2.4,-3.54752,-0.826633,0.684903,0.0183105,0.866026,0.0190035,0.341058,0,0.0063777,0.0182345,2.27212,5,0.1,4,2.4,-0.0920644,1.47285,0.556484,0.601258,-0.0521779,-0.00631809,0.708925,0.017345,0.00202656,0.0110131,2.47541,5,0.1,5,2.4,0.946148,3.08777,0.641296,-0.406238,-0.659364,-0.0262707,0.157833,0.129819,-0.0192821,0.0108674,0.375197,5,0.1,6,2.4,-0.522587,-1.1734,0.729791,0.202888,0.843251,0.0184372,-0.14618,-0.213087,-0.0138581,0.0273294,0.603534,5,0.1,7,2.4,3.42349,1.8,0.582335,-0.24929,0.590605,0.0160709,0.18239,-0.543177,-0.0119507,0.0149631,0.834904,5,0.1,8,2.4,-1.31166,-3.69789,0.660585,-0.866026,0.251979,-0.0427589,0,0.00274181,-0.028193,0.00893587,2.22521,5,0.1,9,2.4,1.48731,-1.35813,0.596967,-0.0924349,0.863567,0.00203401,0.0223517,-0.0491142,-0.000298023,0.0224753,0.89726,5,0.1,10,2.4,-0.1121,-0.363315,0.606147,-0.201137,0.31466,-0.00658929,0.141889,-0.0312179,0.00464916,0.0119878,0.110349,5,0.1,11,2.4,0.693036,-0.764699,0.560641,0.855924,0.357828,0.000979006,-0.20203,-0.411361,-0.0244975,0.0128943,1.59406,5,0.1,12,2.4,3.20237,3.52386,0.599303,-0.0338078,-0.074929,0.000700355,0.329971,0.0844002,-0.000804663,0.0143257,0.424859,5,0.1,13,2.4,0.15129,2.36327,0.571131,-0.0892047,-0.32953,0.0259131,-0.153862,-0.0743866,0.225961,0.00536557,0.198562,5,0.1,14,2.4,3.2206,2.84482,0.600944,-0.132924,0.157326,-0.000958145,0.579238,-0.177145,0.00107288,0.0135634,0.264858,5,0.1,15,2.4,-1.66228,0.689693,0.611076,0.0099808,0.528282,-0.0094384,-0.000953674,-0.145644,0.00488758,0.01638,0.942816,5,0.1,16,2.4,-0.201624,-1.85749,0.742861,0.0202425,0.10761,0.0133604,-0.211783,-0.331223,-0.0411272,0.0102963,0.250108,5,0.1,17,2.4,1.53525,2.46003,0.589301,-0.36917,-0.0723064,0.0128776,0.0963211,0.0466108,-0.00828505,0.0156192,0.166265,5,0.1,18,2.4,0.197717,-1.69724,0.58654,-0.564587,-0.30413,-0.000301003,0.952162,0.435293,-0.0701547,0.0141985,0.306045,5,0.1,19,2.4,1.21483,-0.227343,0.649958,-0.0492185,-0.567291,0.0252783,0.0536442,0.475384,-0.0275671,0.0129756,0.138387,5,0.1,20,2.4,1.83452,3.26049,0.528028,0.236773,-0.017333,-0.00870973,-0.25177,0.0240803,0.00971556,0.0104349,0.00423142,5,0.1,21,2.4,-0.370197,-2.24457,0.609393,-0.12223,0.76831,0.0274271,-0.50506,-0.390649,0.105113,0.0317155,2.4945,5,0.1,22,2.4,-1.81035,-3.24584,0.598901,0.253367,0.156718,0.00173748,-0.254095,-0.251055,-0.00172853,0.0154831,0.254192,5,0.1,23,2.4,0.351677,2.62319,0.500015,0.245775,-0.539166,-6.55651e-05,-0.104055,-0.199914,0.000149012,0.0113237,0.499697,5,0.1,24,2.4,-2.01553,-1.33537,0.612325,-0.849247,-0.152338,0.0279561,0.18096,0.112116,-0.0205636,0.00830926,0.649504,5,0.1,25,2.4,-1.89698,2.84615,0.605764,0.124356,-0.406265,-0.00421405,-0.140667,0.370264,0.00441074,0.0111027,0.311432,5,0.1,26,2.4,-2.33266,2.68839,0.735625,0.513196,-0.288939,0.0144005,-0.461459,0.299215,-0.0149012,0.0104987,0.126953,5,0.1,27,2.4,-1.69437,1.2146,0.598925,-0.0387728,0.207627,0.00164807,0.24581,-0.243783,-0.00196695,0.00677429,0.480751,5,0.1,28,2.4,-3.33467,-1.8892,0.801935,0.00289679,-0.161678,0.178459,-0.841737,-0.353694,0.247031,0.00723494,0.229416,5,0.1,29,2.4,-1.94231,2.508,0.594513,0.171384,-0.29586,0.00661314,-0.110507,0.301361,-0.00423193,0.0105333,0.19405,5,0.1
0,2.5,-1.0707,1.62683,0.60228,0.112843,-0.865905,-0.0307243,-0.0348538,0.00479817,0.00952184,0.00954318,1.52907,5,0.1,1,2.5,0.597265,-3.40243,0.500033,0.676121,0.101861,-0.000121631,-0.404608,-0.0952184,0.000178814,0.0100546,0.258419,5,0.1,2,2.5,-3.22141,-1.70645,0.582608,-0.0211705,-0.104361,-0.0267189,0.250682,-0.903845,-0.129901,0.00826094,2.58559,5,0.1,3,2.5,-3.54402,-0.74003,0.686864,0.0510037,0.866026,0.0204511,0.304192,-3.72529e-06,0.0197664,0.0182345,2.27212,5,0.1,4,2.5,-0.0277094,1.46771,0.555861,0.690409,-0.0508916,-0.0061498,0.985287,0.0110269,0.0016205,0.0110131,2.47541,5,0.1,5,2.5,0.906279,3.02248,0.638582,-0.391153,-0.645764,-0.0278839,0.157498,0.164464,-0.0119545,0.0108674,0.375197,5,0.1,6,2.5,-0.502989,-1.09,0.731569,0.189318,0.825184,0.0171583,-0.131413,-0.184186,-0.012286,0.0273294,0.603534,5,0.1,7,2.5,3.39947,1.85712,0.583886,-0.230949,0.558222,0.0149677,0.188872,-0.160657,-0.0106096,0.0149631,0.834904,5,0.1,8,2.5,-1.39826,-3.67254,0.656133,-0.866026,0.255931,-0.046529,0,0.0573993,-0.0423826,0.00893587,2.22521,5,0.1,9,2.5,1.47799,-1.27183,0.597169,-0.0952357,0.862982,0.00201343,-0.063993,-0.0070855,-0.000212342,0.0224753,0.89726,5,0.1,10,2.5,-0.131589,-0.332204,0.605508,-0.189265,0.305598,-0.00619963,0.104718,-0.149313,0.00344217,0.0119878,0.110349,5,0.1,11,2.5,0.777473,-0.731618,0.560512,0.830851,0.298336,-0.00442751,-0.318248,-0.739526,-0.0763163,0.0128943,1.59406,5,0.1,12,2.5,3.20041,3.51676,0.599369,-0.00760593,-0.0672817,0.000627898,0.195369,0.0707507,-0.000670552,0.0143257,0.424859,5,0.1,13,2.5,0.141336,2.32991,0.57482,-0.111886,-0.337775,0.0474115,-0.27463,-0.0721961,0.19801,0.00536557,0.198562,5,0.1,14,2.5,3.21001,2.85972,0.600854,-0.081123,0.141278,-0.000860915,0.453964,-0.14846,0.00090152,0.0135634,0.264858,5,0.1,15,2.5,-1.66123,0.741969,0.610158,0.0115136,0.518283,-0.00890773,0.0276044,-0.0820905,0.00587851,0.01638,0.942816,5,0.1,16,2.5,-0.200453,-1.84822,0.744012,0.00503969,0.0794172,0.00985973,-0.0999207,-0.237495,-0.0294894,0.0102963,0.250108,5,0.1,17,2.5,1.49853,2.45302,0.59055,-0.367355,-0.0679787,0.0121087,-0.0298917,0.0422448,-0.00751019,0.0156192,0.166265,5,0.1,18,2.5,0.14597,-1.72535,0.586137,-0.470909,-0.257189,-0.00789957,0.917981,0.494748,-0.0782497,0.0141985,0.306045,5,0.1,19,2.5,1.21034,-0.281577,0.65239,-0.039362,-0.516179,0.0237,0.13385,0.547548,-0.00679865,0.0129756,0.138387,5,0.1,20,2.5,1.85694,3.25887,0.527206,0.211416,-0.0150092,-0.00773948,-0.257462,0.0225902,0.00977516,0.0104349,0.00423142,5,0.1,21,2.5,-0.384787,-2.16862,0.612485,-0.167726,0.758947,0.0328238,-0.394102,0.117704,0.00969693,0.0317155,2.4945,5,0.1,22,2.5,-1.78625,-3.23151,0.599066,0.228612,0.129079,0.00156863,-0.245012,-0.294551,-0.00167266,0.0154831,0.254192,5,0.1,23,2.5,0.375708,2.56855,0.500009,0.234439,-0.550632,-4.96395e-05,-0.127623,-0.0195205,0.000160187,0.0113237,0.499697,5,0.1,24,2.5,-2.0997,-1.35008,0.615024,-0.834677,-0.141985,0.0260574,0.148311,0.099659,-0.0182725,0.00830926,0.649504,5,0.1,25,2.5,-1.88521,2.80725,0.605363,0.111562,-0.372418,-0.00380063,-0.118762,0.318944,0.00395253,0.0111027,0.311432,5,0.1,26,2.5,-2.28353,2.66091,0.736998,0.470233,-0.26125,0.0131129,-0.411659,0.262097,-0.0114255,0.0104987,0.126953,5,0.1,27,2.5,-1.69705,1.23415,0.599081,-0.0158837,0.183605,0.00145491,0.189565,-0.238352,-0.00190735,0.00677429,0.480751,5,0.1,28,2.5,-3.33828,-1.90712,0.821135,-0.0716746,-0.196074,0.206145,-0.643939,-0.318021,0.284366,0.00723494,0.229416,5,0.1,29,2.5,-1.92569,2.48012,0.595154,0.161127,-0.259839,0.00621956,-0.100121,0.409067,-0.0038445,0.0105333,0.19405,5,0.1
0,2.6,-1.05961,1.5403,0.599261,0.108626,-0.864103,-0.0295743,-0.0528097,0.0385046,0.0143945,0.00897249,1.16159,5,0.1,1,2.6,0.662769,-3.39271,0.500021,0.632693,0.0923991,-0.000101328,-0.479758,-0.0964403,0.000298023,0.00901622,0.208606,5,0.1,2,2.6,-3.22227,-1.72162,0.579263,0.00392199,-0.199834,-0.0402257,0.242233,-0.950575,-0.132203,0.0104442,2.1914,5,0.1,3,2.6,-3.53752,-0.653428,0.689012,0.0776947,0.866026,0.022468,0.223875,0,0.0184774,0.0218975,2.26488,5,0.1,4,2.6,0.0461145,1.46268,0.555256,0.782953,-0.0495225,-0.00594854,0.800774,0.0181794,0.00265241,0.00825802,2.36701,5,0.1,5,2.6,0.868041,2.95893,0.635753,-0.372463,-0.622773,-0.028494,0.225395,0.309944,0.00038743,0.0115117,0.248856,5,0.1,6,2.6,-0.484731,-1.0086,0.733223,0.175564,0.80035,0.0158831,-0.147909,-0.337124,-0.0135899,0.0321203,0.416818,5,0.1,7,2.6,3.37736,1.91239,0.585329,-0.21081,0.548628,0.0138655,0.216961,-0.0735521,-0.0118017,0.0199004,0.646077,5,0.1,8,2.6,-1.48486,-3.6467,0.651277,-0.866026,0.26021,-0.0504017,0,0.0146627,-0.0315905,0.00879158,2.22274,5,0.1,9,2.6,1.4681,-1.1858,0.597369,-0.102717,0.854614,0.00197589,-0.0747442,-0.191212,-0.000625849,0.023478,0.735648,5,0.1,10,2.6,-0.149992,-0.302579,0.604905,-0.178627,0.285062,-0.0058502,0.114553,-0.259489,0.00375509,0.0136642,0.142039,5,0.1,11,2.6,0.858651,-0.705758,0.559652,0.789268,0.216913,-0.0129879,-0.5247,-0.858039,-0.089258,0.00871965,1.41307,5,0.1,12,2.6,3.20042,3.51038,0.599428,0.0056982,-0.0604033,0.000563264,0.0735521,0.0685453,-0.000625849,0.0138899,0.617395,5,0.1,13,2.6,0.128745,2.29589,0.580465,-0.139741,-0.340891,0.0645116,-0.263687,0.0225306,0.139982,0.010624,0.194397,5,0.1,14,2.6,3.20394,2.87312,0.600772,-0.0424385,0.126839,-0.00077337,0.3196,-0.143647,0.00089407,0.0201958,0.428071,5,0.1,15,2.6,-1.65992,0.793306,0.609299,0.0147939,0.507133,-0.00823885,0.0349283,-0.160545,0.00751019,0.0086642,1.09935,5,0.1,16,2.6,-0.200315,-1.84134,0.744866,-0.00113025,0.0592232,0.00735372,-0.0297204,-0.17041,-0.0211895,0.0130563,0.246616,5,0.1,17,2.6,1.46164,2.44644,0.591722,-0.369942,-0.063467,0.0113055,0,0.0495911,-0.00879169,0.0134873,0.141531,5,0.1,18,2.6,0.103388,-1.74856,0.584967,-0.38164,-0.206777,-0.0153318,0.86435,0.506341,-0.0677705,0.00992884,0.611576,5,0.1,19,2.6,1.20714,-0.330336,0.654741,-0.0241697,-0.457805,0.0234261,0.162363,0.619009,-0.000804663,0.0131415,0.234909,5,0.1,20,2.6,1.87677,3.25748,0.526481,0.18498,-0.0127852,-0.00674427,-0.272095,0.0218153,0.0101924,0.0101613,0.0013068,5,0.1,21,2.6,-0.403275,-2.09188,0.615705,-0.199313,0.776869,0.0306219,-0.231028,0.176787,-0.0480413,0.0307831,2.38064,5,0.1,22,2.6,-1.76463,-3.2201,0.599215,0.203708,0.0990927,0.00139773,-0.255644,-0.299454,-0.00172853,0.0154032,0.249722,5,0.1,23,2.6,0.398442,2.51375,0.500005,0.219455,-0.54158,-3.42727e-05,-0.175029,0.205278,0.000149012,0.00892556,0.437284,5,0.1,24,2.6,-2.18222,-1.36377,0.617537,-0.813198,-0.13161,0.0241533,0.30756,0.111222,-0.0203848,0.00775179,0.451155,5,0.1,25,2.6,-1.87463,2.7716,0.605003,0.0999987,-0.340384,-0.00340641,-0.115097,0.33021,0.00396371,0.0109291,0.277774,5,0.1,26,2.6,-2.23858,2.63609,0.738254,0.428516,-0.235242,0.0120148,-0.432014,0.263095,-0.0109375,0.0139194,0.164206,5,0.1,27,2.6,-1.69792,1.25132,0.599217,-0.00396073,0.15969,0.00126362,0.0402927,-0.240862,-0.00190735,0.00851964,0.659766,5,0.1,28,2.6,-3.3483,-1.92815,0.843082,-0.125057,-0.222549,0.231503,-0.420928,-0.20045,0.206769,0.00994502,0.182107,5,0.1,29,2.6,-1.9101,2.45629,0.595756,0.150436,-0.215894,0.00580698,-0.117481,0.461221,-0.00450015,0.0121754,0.187913,5,0.1
0,2.7,-1.04899,1.45391,0.59637,0.103829,-0.864509,-0.028267,-0.04711,-0.0106692,0.0128262,0.00897249,1.16159,5,0.1,1,2.7,0.723775,-3.38377,0.500013,0.588293,0.0880618,-7.26432e-05,-0.427447,-0.00290573,0.000268221,0.00901622,0.208606,5,0.1,2,2.7,-3.22082,-1.74703,0.574647,0.0234615,-0.312889,-0.0513792,0.150993,-1.23147,-0.0895038,0.0104442,2.1914,5,0.1,3,2.7,-3.52866,-0.566825,0.691367,0.0989236,0.866026,0.0247478,0.192791,-1.78814e-06,0.0246167,0.0218975,2.26488,5,0.1,4,2.7,0.127622,1.4578,0.554672,0.839331,-0.0481574,-0.00573052,0.328746,0.0116453,0.00197813,0.00825802,2.36701,5,0.1,5,2.7,0.831869,2.89816,0.632909,-0.351204,-0.592776,-0.0283032,0.211105,0.308514,0.00428781,0.0115117,0.248856,5,0.1,6,2.7,-0.467872,-0.930125,0.734747,0.161906,0.769496,0.0146331,-0.130417,-0.309244,-0.0118911,0.0321203,0.416818,5,0.1,7,2.7,3.35751,1.96727,0.58666,-0.184913,0.551591,0.0127798,0.293568,0.0891015,-0.0103265,0.0199004,0.646077,5,0.1,8,2.7,-1.57147,-3.6205,0.646056,-0.866026,0.264542,-0.0541414,0,0.0541657,-0.0387616,0.00879158,2.22274,5,0.1,9,2.7,1.45774,-1.10136,0.597896,-0.101997,0.83278,0.0113565,0.0776872,-0.269376,0.167187,0.023478,0.735648,5,0.1,10,2.7,-0.167368,-0.275598,0.604336,-0.169492,0.252518,-0.00555031,0.0775959,-0.381779,0.00255555,0.0136642,0.142039,5,0.1,11,2.7,0.93457,-0.688197,0.557787,0.725495,0.136116,-0.0252224,-0.741769,-0.749204,-0.144456,0.00871965,1.41307,5,0.1,12,2.7,3.20132,3.50465,0.599482,0.0114758,-0.0542231,0.000507012,0.022009,0.0569224,-0.000521541,0.0138899,0.617395,5,0.1,13,2.7,0.11322,2.26197,0.587594,-0.172347,-0.336826,0.0777043,-0.359944,0.0685453,0.118375,0.010624,0.194397,5,0.1,14,2.7,3.20112,2.88514,0.600699,-0.0156436,0.113887,-0.000692904,0.214413,-0.119239,0.000737607,0.0201958,0.428071,5,0.1,15,2.7,-1.6581,0.843138,0.608514,0.0228062,0.488456,-0.00744266,0.113532,-0.223394,0.00841543,0.0086642,1.09935,5,0.1,16,2.7,-0.20052,-1.83617,0.745508,-0.00246705,0.0451287,0.00560135,9.03383e-05,-0.115059,-0.0143051,0.0130563,0.246616,5,0.1,17,2.7,1.4246,2.44035,0.592807,-0.370746,-0.0582315,0.0103763,0.0013262,0.0555813,-0.00987574,0.0134873,0.141531,5,0.1,18,2.7,0.0703659,-1.76648,0.58276,-0.272209,-0.149887,-0.0315417,1.26097,0.609823,-0.232458,0.00992884,0.611576,5,0.1,19,2.7,1.20552,-0.372898,0.657176,-0.00828374,-0.392413,0.0260523,0.151969,0.680799,0.0463575,0.0131415,0.234909,5,0.1,20,2.7,1.89391,3.25631,0.525857,0.158025,-0.010683,-0.00573993,-0.26685,0.0202507,0.00989437,0.0101613,0.0013068,5,0.1,21,2.7,-0.423797,-2.01272,0.618501,-0.206,0.810439,0.0250935,0.0766795,0.420049,-0.0606589,0.0307831,2.38064,5,0.1,22,2.7,-1.7455,-3.21166,0.599346,0.179115,0.0701502,0.00123084,-0.238776,-0.274956,-0.00163168,0.0154032,0.249722,5,0.1,23,2.7,0.419471,2.4613,0.500002,0.200692,-0.501438,-2.01166e-05,-0.20106,0.563517,0.00012666,0.00892556,0.437284,5,0.1,24,2.7,-2.26213,-1.37641,0.619856,-0.78529,-0.121374,0.022277,0.281364,0.0974312,-0.017859,0.00775179,0.451155,5,0.1,25,2.7,-1.86517,2.73926,0.604682,0.0896603,-0.306131,-0.00301655,-0.0948012,0.355855,0.0038594,0.0109291,0.277774,5,0.1,26,2.7,-2.19782,2.61386,0.739454,0.387124,-0.209371,0.0124495,-0.404283,0.256881,0.0160784,0.0139194,0.164206,5,0.1,27,2.7,-1.69828,1.26613,0.599334,-0.00608806,0.136861,0.00108304,-0.128694,-0.217475,-0.00171736,0.00851964,0.659766,5,0.1,28,2.7,-3.36267,-1.95136,0.867353,-0.15983,-0.241061,0.25423,-0.271887,-0.157215,0.226583,0.00994502,0.182107,5,0.1,29,2.7,-1.89563,2.43705,0.596315,0.139082,-0.168798,0.00537103,-0.113085,0.472263,-0.00435486,0.0121754,0.187913,5,0.1
0,2.8,-1.03886,1.36755,0.593612,0.0985384,-0.860676,-0.0268266,-0.0613928,0.10699,0.0167191,0.01202,0.854445,5,0.1,1,2.8,0.780426,-3.37491,0.500007,0.543965,0.0896037,-4.76837e-05,-0.472337,0.0240803,0.000238419,0.0107252,0.144887,5,0.1,2,2.8,-3.21785,-1.7844,0.569141,0.0346124,-0.432372,-0.0579298,0.0743866,-1.09971,-0.0409782,0.00922695,0.225777,5,0.1,3,2.8,-3.51791,-0.480223,0.693958,0.11493,0.866025,0.0269607,0.121951,1.43051e-05,0.0178218,0.0158173,1.84403,5,0.1,4,2.8,0.212433,1.45305,0.55411,0.849326,-0.0467688,-0.00550598,-0.124551,0.0180006,0.00265241,0.0113424,2.53736,5,0.1,5,2.8,0.797856,2.84054,0.630113,-0.328346,-0.557983,-0.0274986,0.253618,0.39959,0.0123382,0.00876336,0.27468,5,0.1,6,2.8,-0.452339,-0.854871,0.73615,0.148608,0.733577,0.0134259,-0.139117,-0.429094,-0.0126064,0.0331769,0.443127,5,0.1,7,2.8,3.34056,2.02285,0.587886,-0.153458,0.558901,0.0117302,0.329018,0.0253916,-0.0109673,0.0198334,0.465771,5,0.1,8,2.8,-1.65807,-3.59383,0.640466,-0.866026,0.267988,-0.0573963,0,0.00214577,-0.0231564,0.00773574,1.76005,5,0.1,9,2.8,1.4481,-1.01972,0.600002,-0.0892788,0.796829,0.0316724,0.167072,-0.464827,0.222772,0.0244774,0.564339,5,0.1,10,2.8,-0.183927,-0.252389,0.603794,-0.161494,0.210526,-0.00528693,0.0890419,-0.449471,0.00292063,0.0165726,0.130681,5,0.1,11,2.8,1.00312,-0.678094,0.554526,0.642741,0.0684902,-0.0399575,-0.904024,-0.597864,-0.142038,0.0090303,0.70622,5,0.1,12,2.8,3.20237,3.49951,0.59953,0.0074625,-0.0487089,0.000457466,-0.108957,0.0547171,-0.000536442,0.019081,0.810591,5,0.1,13,2.8,0.0942193,2.22877,0.595884,-0.20679,-0.325596,0.0872687,-0.307996,0.162005,0.0692606,0.0139903,0.271002,5,0.1,14,2.8,3.20045,2.89595,0.600633,0.000303984,0.102323,-0.000621378,0.105023,-0.114679,0.000685453,0.0161816,0.875265,5,0.1,15,2.8,-1.65521,0.890695,0.607813,0.0354171,0.460793,-0.00655502,0.12964,-0.336111,0.00926852,0.00765962,0.964426,5,0.1,16,2.8,-0.200737,-1.83217,0.746005,-0.00162646,0.0355661,0.00441372,0.0144616,-0.0792146,-0.00986457,0.0148033,0.24579,5,0.1,17,2.8,1.38765,2.43482,0.593793,-0.366744,-0.0522792,0.00931919,0.0904799,0.0634193,-0.0113249,0.0114675,0.168198,5,0.1,18,2.8,0.0496734,-1.7784,0.578334,-0.140665,-0.0886381,-0.057587,1.32103,0.59855,-0.270128,0.00678689,0.374744,5,0.1,19,2.8,1.20541,-0.40869,0.660044,0.00564754,-0.323146,0.0314683,0.124335,0.697538,0.0565946,0.0102465,0.225543,5,0.1,20,2.8,1.90839,3.25534,0.525332,0.131673,-0.00873208,-0.00476688,-0.259817,0.0188351,0.00953674,0.00875323,0.000776619,5,0.1,21,2.8,-0.443647,-1.92966,0.620699,-0.187783,0.848326,0.0188246,0.270203,0.286818,-0.0632703,0.0353729,2.12795,5,0.1,22,2.8,-1.72877,-3.20595,0.599461,0.155535,0.0448287,0.0010699,-0.234425,-0.228643,-0.00157952,0.00790818,0.503023,5,0.1,23,2.8,0.438488,2.41434,0.500001,0.179156,-0.434911,-8.9407e-06,-0.229746,0.740647,8.9407e-05,0.0109164,0.395329,5,0.1,24,2.8,-2.33909,-1.38805,0.621994,-0.751752,-0.111455,0.0204578,0.410438,0.103712,-0.0189841,0.0108793,0.307605,5,0.1,25,2.8,-1.85666,2.71047,0.6044,0.080505,-0.269115,-0.00263005,-0.0905395,0.38445,0.00393391,0.00860624,0.424901,5,0.1,26,2.8,-2.16114,2.59422,0.7408,0.346261,-0.183457,0.0146016,-0.418544,0.262856,0.0242293,0.010319,0.237068,5,0.1,27,2.8,-1.7,1.27875,0.599434,-0.0328362,0.115895,0.000917912,-0.391781,-0.203013,-0.00163913,0.0118456,1.0914,5,0.1,28,2.8,-3.37975,-1.9761,0.893799,-0.179112,-0.251898,0.273205,-0.113368,-0.05126,0.137955,0.0387312,0.560719,5,0.1,29,2.8,-1.8823,2.42249,0.596829,0.127244,-0.122929,0.00491589,-0.126004,0.438809,-0.00488758,0.00594662,0.344042,5,0.1
0,2.9,-1.0293,1.28179,0.591008,0.0928836,-0.855678,-0.0252869,-0.0549629,0.0385344,0.0149608,0.01202,0.854445,5,0.1,1,2.9,0.832599,-3.36574,0.500003,0.500461,0.0943229,-2.72878e-05,-0.413798,0.0606179,0.000175089,0.0107252,0.144887,5,0.1,2,2.9,-3.21421,-1.83234,0.56329,0.0365373,-0.518462,-0.0577529,-0.0274926,-0.621483,0.038784,0.00922695,0.225777,5,0.1,3,2.9,-3.50584,-0.39362,0.696749,0.126043,0.866025,0.0288666,0.093922,-1.78814e-06,0.0183098,0.0158173,1.84403,5,0.1,4,2.9,0.295504,1.44844,0.553571,0.802233,-0.0454353,-0.00529364,-0.719794,0.0111088,0.00185519,0.0113424,2.53736,5,0.1,5,2.9,0.766226,2.7865,0.627425,-0.304647,-0.524592,-0.0262391,0.229746,0.293523,0.0135601,0.00876336,0.27468,5,0.1,6,2.9,-0.438184,-0.783507,0.737446,0.134335,0.694571,0.0126292,-0.147324,-0.376835,-0.00451878,0.0331769,0.443127,5,0.1,7,2.9,3.32688,2.07905,0.589007,-0.120205,0.565921,0.0107257,0.33094,0.0806451,-0.00946969,0.0198334,0.465771,5,0.1,8,2.9,-1.74467,-3.56696,0.634602,-0.865999,0.269472,-0.059862,0.00107288,0.0133216,-0.0226535,0.00773574,1.76005,5,0.1,9,2.9,1.44016,-0.94252,0.604367,-0.068412,0.745345,0.056124,0.239402,-0.572417,0.252914,0.0244774,0.564339,5,0.1,10,2.9,-0.199647,-0.233658,0.603279,-0.15295,0.163644,-0.00500642,0.0868654,-0.477375,0.00285357,0.0165726,0.130681,5,0.1,11,2.9,1.06185,-0.674595,0.549751,0.523535,-0.00115354,-0.0559533,-1.41364,-0.75642,-0.167534,0.0090303,0.70622,5,0.1,12,2.9,3.20248,3.49489,0.599573,-0.00786632,-0.0437945,0.000409596,-0.24882,0.0451207,-0.000432134,0.019081,0.810591,5,0.1,13,2.9,0.072879,2.19786,0.604548,-0.212252,-0.285488,0.0824687,0.158653,0.592262,-0.143606,0.0139903,0.271002,5,0.1,14,2.9,3.20101,2.90565,0.600574,0.0101887,0.0920203,-0.000559725,0.064671,-0.0946075,0.000566244,0.0161816,0.875265,5,0.1,15,2.9,-1.65079,0.935284,0.607203,0.0547182,0.432377,-0.0056698,0.236616,-0.252377,0.00850484,0.00765962,0.964426,5,0.1,16,2.9,-0.200827,-1.82895,0.746404,-0.000205101,0.0292614,0.00362871,0.013466,-0.0494421,-0.00615045,0.0148033,0.24579,5,0.1,17,2.9,1.35114,2.42989,0.594671,-0.365634,-0.0464201,0.00827303,-0.0377968,0.0550151,-0.00981614,0.0114675,0.168198,5,0.1,18,2.9,0.0421852,-1.78441,0.571215,-0.0102221,-0.0333218,-0.0846095,1.25458,0.502236,-0.25896,0.00678689,0.374744,5,0.1,19,2.9,1.20644,-0.437556,0.663537,0.01339,-0.254731,0.0388577,0.036709,0.664469,0.0840612,0.0102465,0.225543,5,0.1,20,2.9,1.92029,3.25456,0.524902,0.106545,-0.00694431,-0.00384739,-0.241838,0.016883,0.00882521,0.00875323,0.000776619,5,0.1,21,2.9,-0.460845,-1.84386,0.622262,-0.154267,0.86408,0.0124365,0.384912,0.0610426,-0.0631139,0.0353729,2.12795,5,0.1,22,2.9,-1.71464,-3.20261,0.599463,0.124921,0.0224169,-0.00183368,-0.360817,-0.207797,-0.0503398,0.00790818,0.503023,5,0.1,23,2.9,0.455155,2.37481,0.5,0.153363,-0.354189,-2.23517e-06,-0.280021,0.830352,4.47035e-05,0.0109164,0.395329,5,0.1,24,2.9,-2.41233,-1.39871,0.62395,-0.713747,-0.101951,0.0187176,0.374928,0.0896379,-0.0164248,0.0108793,0.307605,5,0.1,25,2.9,-1.84834,2.68599,0.6038,0.0919003,-0.216401,-0.0123536,0.272185,0.636876,-0.175782,0.00860624,0.424901,5,0.1,26,2.9,-2.12867,2.57696,0.742431,0.30236,-0.163615,0.0184061,-0.456288,0.14782,0.0474006,0.010319,0.237068,5,0.1,27,2.9,-1.70564,1.28938,0.599518,-0.0830019,0.0971016,0.000766572,-0.576459,-0.174567,-0.00139698,0.0118456,1.0914,5,0.1,28,2.9,-3.39737,-2.00043,0.9212,-0.166004,-0.225012,0.269315,0.332132,0.529759,-0.192318,0.0387312,0.560719,5,0.1,29,2.9,-1.86962,2.41229,0.596918,0.131221,-0.0821367,-0.00632433,0.167117,0.372916,-0.195909,0.00594662,0.344042,5,0.1
0,3,-1.02029,1.19661,0.588557,0.0869989,-0.84523,-0.0236854,-0.0650883,0.202358,0.0177026,0.00870101,0.606954,5,0.1,1,3,0.880566,-3.35601,0.500001,0.458492,0.100046,-1.3411e-05,-0.436664,0.0468493,0.000119209,0.00949348,0.183225,5,0.1,2,3,-3.2108,-1.88651,0.557801,0.0306427,-0.556991,-0.0512272,-0.0836849,-0.153065,0.0869334,0.00877651,0.103508,5,0.1,3,3,-3.49285,-0.307018,0.699715,0.132662,0.866025,0.0302851,0.0343323,1.43051e-05,0.00867248,0.0174155,1.4299,5,0.1,4,3,0.371763,1.44396,0.553051,0.720829,-0.0441313,-0.00508875,-0.851154,0.0166297,0.00238419,0.00726116,2.43995,5,0.1,5,3,0.736933,2.7355,0.624875,-0.280817,-0.494951,-0.0246704,0.25326,0.317574,0.018239,0.00826596,0.19679,5,0.1,6,3,-0.425507,-0.716019,0.738692,0.119002,0.65385,0.0123128,-0.159755,-0.455379,-0.00268221,0.0284974,0.343043,5,0.1,7,3,3.31648,2.1359,0.590033,-0.0881553,0.569171,0.00977665,0.305891,-0.0398159,-0.00971556,0.0159184,0.35862,5,0.1,8,3,-1.83126,-3.54002,0.628527,-0.865597,0.268251,-0.0613362,0.00852346,-0.0478029,-0.00435114,0.0073255,1.347,5,0.1,9,3,1.43456,-0.871073,0.611203,-0.0433326,0.681256,0.0799462,0.253797,-0.712782,0.213772,0.00655301,0.754931,5,0.1,10,3,-0.214478,-0.219653,0.602794,-0.143286,0.116941,-0.0046894,0.10974,-0.448562,0.00360608,0.0116131,0.0165444,5,0.1,11,3,1.10675,-0.678493,0.543346,0.371897,-0.0760466,-0.0716776,-1.56671,-0.712454,-0.139356,0.00641223,0.386839,5,0.1,12,3,3.2,3.49073,0.599612,-0.0459194,-0.0394225,0.000368059,-0.497103,0.0433922,-0.000417233,0.0224932,0.955173,5,0.1,13,3,0.0529454,2.17266,0.611871,-0.182254,-0.215656,0.0623927,0.409456,0.767589,-0.241041,0.0139002,0.145253,5,0.1,14,3,3.20212,2.91439,0.600521,0.00939369,0.0828505,-0.000503659,-0.0911951,-0.0910759,0.000536442,0.0117229,2.18559,5,0.1,15,3,-1.64409,0.977263,0.606678,0.0792772,0.406861,-0.00484139,0.239491,-0.272334,0.00807643,0.00964544,3.01679,5,0.1,16,3,-0.200786,-1.82624,0.74674,0.000984594,0.0252217,0.00312626,0.00999868,-0.0333786,-0.00414252,0.0095912,0.245464,5,0.1,17,3,1.31438,2.42552,0.59545,-0.369039,-0.0410616,0.00731796,-0.00798702,0.0529289,-0.00944734,0.0112718,0.101128,5,0.1,18,3,0.047101,-1.78543,0.561554,0.104578,0.0109255,-0.107449,1.01796,0.379264,-0.1899,0.00753023,0.288142,5,0.1,19,3,1.20786,-0.459805,0.667841,0.0141233,-0.191347,0.047043,-0.0169873,0.59858,0.0743568,0.0113842,0.17797,5,0.1,20,3,1.92977,3.25394,0.52456,0.0834674,-0.00535846,-0.00300705,-0.219047,0.0149012,0.00795722,0.0102167,0.000701778,5,0.1,21,3,-0.474262,-1.7573,0.6232,-0.113529,0.866026,0.00644177,0.417769,-5.96046e-05,-0.0557601,0.0112957,0.5983,5,0.1,22,3,-1.70405,-3.20129,0.598989,0.0864208,0.00510812,-0.00790507,-0.395954,-0.131965,-0.0663102,0.0150914,0.623175,5,0.1,23,3,0.469051,2.34342,0.5,0.124266,-0.275618,1.49012e-06,-0.296906,0.717044,0,0.0110346,0.363673,5,0.1,24,3,-2.48172,-1.40846,0.62574,-0.672519,-0.0929683,0.0170723,0.466943,0.0923276,-0.0169575,0.00974909,0.207417,5,0.1,25,3,-1.83751,2.66772,0.601543,0.126743,-0.147629,-0.033766,0.38892,0.712633,-0.234962,0.00642502,0.297935,5,0.1,26,3,-2.10076,2.56124,0.744517,0.255632,-0.151455,0.0233009,-0.475049,0.105739,0.0471473,0.00951928,0.174084,5,0.1,27,3,-1.71689,1.29825,0.599588,-0.141892,0.0806868,0.000634789,-0.574112,-0.155032,-0.0012219,0.0076646,0.987648,5,0.1,28,3,-3.41187,-2.01973,0.946786,-0.120491,-0.156593,0.239058,0.543237,0.79155,-0.393122,0.0340269,0.402003,5,0.1,29,3,-1.85544,2.40581,0.595154,0.153869,-0.0489771,-0.029999,0.25636,0.288367,-0.258952,0.00719814,0.305183,5,0.1
0,3.1,-1.0119,1.11295,0.586272,0.0809977,-0.828338,-0.0220533,-0.0576451,0.172086,0.0156723,0.00870101,0.606954,5,0.1,1,3.1,0.924592,-3.34587,0.5,0.424913,0.101687,-4.56348e-06,-0.262864,-0.0131577,5.58794e-05,0.00949348,0.183225,5,0.1,2,3.1,-3.20824,-1.94258,0.553169,0.0201155,-0.560379,-0.0409563,-0.120655,0.0872537,0.11434,0.00877651,0.103508,5,0.1,3,3.1,-3.47944,-0.220419,0.702788,0.135393,0.865837,0.0311595,0.0151396,-0.00754923,0.00724569,0.0174155,1.4299,5,0.1,4,3.1,0.439512,1.43962,0.552552,0.634405,-0.0428116,-0.00489112,-0.83825,0.0118539,0.00179559,0.00726116,2.43995,5,0.1,5,3.1,0.710115,2.68758,0.622512,-0.255475,-0.463452,-0.0224903,0.257235,0.323653,0.025019,0.00826596,0.19679,5,0.1,6,3.1,-0.414509,-0.653028,0.73996,0.100108,0.60468,0.0134551,-0.211528,-0.532866,0.0219606,0.0284974,0.343043,5,0.1,7,3.1,3.30913,2.19271,0.590965,-0.0595916,0.56728,0.0088905,0.262454,-0.0253916,-0.00829622,0.0159184,0.35862,5,0.1,8,3.1,-1.91781,-3.5134,0.622368,-0.865515,0.264207,-0.0618025,0.00545382,-0.0444949,-0.00217929,0.0073255,1.347,5,0.1,9,3.1,1.43216,-0.807683,0.62011,0.000826642,0.576585,0.0966344,0.580952,-1.31178,0.120126,0.00655301,0.754931,5,0.1,10,3.1,-0.228018,-0.21009,0.602351,-0.125472,0.0755011,-0.00410536,0.232697,-0.377734,0.00762567,0.0116131,0.0165444,5,0.1,11,3.1,1.13631,-0.6897,0.535668,0.221822,-0.14779,-0.0801366,-1.41448,-0.694875,-0.0342801,0.00641223,0.386839,5,0.1,12,3.1,3.1922,3.48699,0.599647,-0.115589,-0.0355344,0.000331085,-0.833973,0.0356585,-0.000339001,0.0224932,0.955173,5,0.1,13,3.1,0.037039,2.15508,0.616806,-0.133749,-0.134894,0.0355979,0.537528,0.822097,-0.283293,0.0139002,0.145253,5,0.1,14,3.1,3.20257,2.92225,0.600473,-0.00374429,0.0746876,-0.000455324,-0.279382,-0.0748634,0.00044331,0.0117229,2.18559,5,0.1,15,3.1,-1.63461,1.01752,0.606231,0.11277,0.406041,-0.00411849,0.393085,0.194207,0.00647455,0.00964544,3.01679,5,0.1,16,3.1,-0.200649,-1.82386,0.747035,0.00164025,0.0226788,0.0028111,0.00350736,-0.0192523,-0.00238419,0.0095912,0.245464,5,0.1,17,3.1,1.27736,2.42166,0.596137,-0.371495,-0.0361245,0.00643712,-0.021413,0.0466555,-0.0083223,0.0112718,0.101128,5,0.1,18,3.1,0.0623816,-1.78264,0.550144,0.19788,0.0428554,-0.118101,0.829506,0.259951,-0.0307746,0.00753023,0.288142,5,0.1,19,3.1,1.20914,-0.47658,0.672813,0.0111541,-0.149731,0.0514225,-0.03957,0.263348,0.0156648,0.0113842,0.17797,5,0.1,20,3.1,1.93706,3.25348,0.524298,0.0628153,-0.00397302,-0.00225836,-0.193171,0.0127703,0.00699237,0.0102167,0.000701778,5,0.1,21,3.1,-0.48447,-1.67211,0.623225,-0.0987428,0.825023,-0.00874894,-0.0703819,-0.765175,-0.224996,0.0112957,0.5983,5,0.1,22,3.1,-1.69717,-3.20139,0.597928,0.0532277,-0.00601858,-0.0127441,-0.273019,-0.0700057,-0.0319816,0.0150914,0.623175,5,0.1,23,3.1,0.479999,2.3192,0.5,0.0948704,-0.212321,1.39698e-06,-0.286987,0.509679,-3.72529e-06,0.0110346,0.363673,5,0.1,24,3.1,-2.54677,-1.41733,0.627368,-0.629242,-0.0845462,0.0155251,0.419542,0.0788569,-0.0144914,0.00974909,0.207417,5,0.1,25,3.1,-1.82267,2.65654,0.596824,0.171505,-0.076177,-0.0617953,0.475124,0.699103,-0.306398,0.00642502,0.297935,5,0.1,26,3.1,-2.07726,2.5463,0.747041,0.216941,-0.149975,0.0267555,-0.314027,-0.0527203,0.0222512,0.00951928,0.174084,5,0.1,27,3.1,-1.73347,1.3056,0.599645,-0.18582,0.0665911,0.000524055,-0.334874,-0.128418,-0.00100955,0.0076646,0.987648,5,0.1,28,3.1,-3.42093,-2.03108,0.968504,-0.0585236,-0.0679523,0.193508,0.666469,0.940979,-0.501323,0.0340269,0.402003,5,0.1,29,3.1,-1.83857,2.40219,0.590696,0.184976,-0.0248376,-0.0602737,0.338621,0.195786,-0.327036,0.00719814,0.305183,5,0.1
0,3.2,-1.00409,1.03118,0.584146,0.0750154,-0.804639,-0.020425,-0.0638962,0.32708,0.017345,0.00874894,0.420307,5,0.1,1,3.2,0.965868,-3.33586,0.5,0.401065,0.0976324,0,-0.234663,-0.0668764,2.98023e-05,0.0102631,0.127344,5,0.1,2,3.2,-3.20685,-1.99777,0.549662,0.00761151,-0.53947,-0.029099,-0.124812,0.329614,0.119537,0.0110859,0.11229,5,0.1,3,3.2,-3.46589,-0.133933,0.705928,0.134844,0.863006,0.0314683,-0.0295639,-0.060395,-0.00208616,0.018411,1.07682,5,0.1,4,3.2,0.499014,1.4354,0.552073,0.558598,-0.0414044,-0.0046894,-0.662804,0.0177026,0.00235438,0.00843253,2.18031,5,0.1,5,3.2,0.685884,2.64294,0.620397,-0.228786,-0.428367,-0.0197321,0.278682,0.385046,0.0298023,0.00817942,0.651248,5,0.1,6,3.2,-0.405596,-0.595382,0.741432,0.0778891,0.5466,0.0160754,-0.227526,-0.630587,0.027746,0.0264928,0.287257,5,0.1,7,3.2,3.30439,2.24915,0.591813,-0.0361085,0.559473,0.00806749,0.205636,-0.149846,-0.00834465,0.0164212,0.257228,5,0.1,8,3.2,-2.00424,-3.48728,0.6162,-0.86171,0.257427,-0.0613034,0.0864267,-0.0987053,0.0141263,0.00943976,1.00139,5,0.1,9,3.2,1.43536,-0.757101,0.630221,0.0642926,0.431274,0.104077,0.651181,-1.53959,0.0297129,0.00691329,0.516111,5,0.1,10,3.2,-0.239293,-0.204295,0.601982,-0.0991885,0.0417586,-0.00324398,0.282399,-0.295959,0.00923872,0.0116577,0.250654,5,0.1,11,3.2,1.15181,-0.707738,0.527625,0.0924289,-0.210325,-0.0793934,-1.15943,-0.536412,0.0450015,0.00637431,0.305303,5,0.1,12,3.2,3.17634,3.48361,0.599678,-0.201762,-0.0320792,0.000299513,-0.842571,0.0345707,-0.000327826,0.0168331,1.03184,5,0.1,13,3.2,0.026406,2.14562,0.618958,-0.0788237,-0.0556767,0.00775158,0.543334,0.743628,-0.265062,0.0119727,0.101476,5,0.1,14,3.2,3.2,2.92935,0.60043,-0.0554383,0.0674307,-0.000411272,-0.736356,-0.0724792,0.000417233,0.0113375,3.23181,5,0.1,15,3.2,-1.62137,1.05944,0.605849,0.151509,0.434685,-0.0035271,0.355184,0.33021,0.00539422,0.00760566,2.78704,5,0.1,16,3.2,-0.200475,-1.82167,0.747306,0.00175871,0.0210643,0.00261217,-0.000797212,-0.0144839,-0.00178814,0.0129231,0.245274,5,0.1,17,3.2,1.24022,2.41828,0.59674,-0.369987,-0.0315905,0.00562966,0.0652075,0.0444651,-0.00795722,0.0103406,0.0781168,5,0.1,18,3.2,0.0858816,-1.77725,0.53839,0.267458,0.0631183,-0.115055,0.550412,0.146568,0.0848174,0.00601082,0.250867,5,0.1,19,3.2,1.21004,-0.490589,0.677953,0.00671148,-0.133371,0.0506461,-0.0471473,0.0873208,-0.0289679,0.0120553,0.185444,5,0.1,20,3.2,1.94243,3.25314,0.524105,0.0449687,-0.00280738,-0.0016138,-0.163317,0.0106096,0.00587106,0.00992582,0.00053612,5,0.1,21,3.2,-0.495151,-1.59432,0.621103,-0.118387,0.723109,-0.0344723,-0.281975,-1.2266,-0.271678,0.00650553,0.190373,5,0.1,22,3.2,-1.69304,-3.20212,0.59654,0.0308543,-0.0061512,-0.0145882,-0.178814,0.0739098,-0.00625849,0.0142743,1.09644,5,0.1,23,3.2,0.488095,2.3,0.5,0.0675626,-0.176638,1.49012e-06,-0.256211,0.213742,-2.98023e-05,0.00998298,0.309578,5,0.1,24,3.2,-2.60754,-1.42539,0.628849,-0.585085,-0.0767261,0.014089,0.478029,0.079453,-0.0146031,0.00728755,0.139163,5,0.1,25,3.2,-1.80321,2.65228,0.589124,0.216371,-0.0107884,-0.0916973,0.39947,0.596285,-0.27743,0.00699168,0.400889,5,0.1,26,3.2,-2.05698,2.53093,0.749789,0.190121,-0.157887,0.0278279,-0.234008,-0.0878572,-0.000417233,0.0108336,0.119402,5,0.1,27,3.2,-1.75352,1.31165,0.599693,-0.213405,0.054729,0.000430644,-0.231862,-0.109971,-0.000864267,0.00755773,2.2712,5,0.1,28,3.2,-3.42344,-2.03319,0.985283,0.00761151,0.0245512,0.14175,0.633836,0.879049,-0.520796,0.0319796,0.524067,5,0.1,29,3.2,-1.81842,2.40055,0.583053,0.216901,-0.00944734,-0.0920132,0.279963,0.114202,-0.293344,0.00611882,0.265605,5,0.1
