id,t,px,py,pz,vx,vy,vz,ax,ay,az,planning_time,qp_cost,planning_report,size,id,t,px,py,pz,vx,vy,vz,ax,ay,az,planning_time,qp_cost,planning_report,size,id,t,px,py,pz,vx,vy,vz,ax,ay,az,planning_time,qp_cost,planning_report,size,id,t,px,py,pz,vx,vy,vz,ax,ay,az,planning_time,qp_cost,planning_report,size,id,t,px,py,pz,vx,vy,vz,ax,ay,az,planning_time,qp_cost,planning_report,size,id,t,px,py,pz,vx,vy,vz,ax,ay,az,planning_time,qp_cost,planning_report,size,id,t,px,py,pz,vx,vy,vz,ax,ay,az,planning_time,qp_cost,planning_report,size,id,t,px,py,pz,vx,vy,vz,ax,ay,az,planning_time,qp_cost,planning_report,size,id,t,px,py,pz,vx,vy,vz,ax,ay,az,planning_time,qp_cost,planning_report,size,id,t,px,py,pz,vx,vy,vz,ax,ay,az,planning_time,qp_cost,planning_report,size,id,t,px,py,pz,vx,vy,vz,ax,ay,az,planning_time,qp_cost,planning_report,size,id,t,px,py,pz,vx,vy,vz,ax,ay,az,planning_time,qp_cost,planning_report,size,id,t,px,py,pz,vx,vy,vz,ax,ay,az,planning_time,qp_cost,planning_report,size,id,t,px,py,pz,vx,vy,vz,ax,ay,az,planning_time,qp_cost,planning_report,size,id,t,px,py,pz,vx,vy,vz,ax,ay,az,planning_time,qp_cost,planning_report,size,id,t,px,py,pz,vx,vy,vz,ax,ay,az,planning_time,qp_cost,planning_report,size,id,t,px,py,pz,vx,vy,vz,ax,ay,az,planning_time,qp_cost,planning_report,size,id,t,px,py,pz,vx,vy,vz,ax,ay,az,planning_time,qp_cost,planning_report,size,id,t,px,py,pz,vx,vy,vz,ax,ay,az,planning_time,qp_cost,planning_report,size,id,t,px,py,pz,vx,vy,vz,ax,ay,az,planning_time,qp_cost,planning_report,size,id,t,px,py,pz,vx,vy,vz,ax,ay,az,planning_time,qp_cost,planning_report,size,id,t,px,py,pz,vx,vy,vz,ax,ay,az,planning_time,qp_cost,planning_report,size,id,t,px,py,pz,vx,vy,vz,ax,ay,az,planning_time,qp_cost,planning_report,size,id,t,px,py,pz,vx,vy,vz,ax,ay,az,planning_time,qp_cost,planning_report,size,id,t,px,py,pz,vx,vy,vz,ax,ay,az,planning_time,qp_cost,planning_report,size,id,t,px,py,pz,vx,vy,vz,ax,ay,az,planning_time,qp_cost,planning_report,size,id,t,px,py,pz,vx,vy,vz,ax,ay,az,planning_time,qp_cost,planning_report,size,id,t,px,py,pz,vx,vy,vz,ax,ay,az,planning_time,qp_cost,planning_report,size,id,t,px,py,pz,vx,vy,vz,ax,ay,az,planning_time,qp_cost,planning_report,size,id,t,px,py,pz,vx,vy,vz,ax,ay,az,planning_time,qp_cost,planning_report,size
0,0,0.733424,-3.7088,0.546395,0,0,0,0,0,0,0.0258814,1.08699,5,0.1,1,0,3.82302,-3.65686,0.625287,0,0,0,0,0,0,0.0278528,3.5122,5,0.1,2,0,3.9147,4.26214,0.627087,0,0,0,0,0,0,0.0270975,3.38689,5,0.1,3,0,1.23063,-0.362681,0.553504,0,0,0,0,0,0,0.00814376,0.761808,5,0.1,4,0,3.76011,2.9105,0.597266,0,0,0,0,0,0,0.0155854,1.29282,5,0.1,5,0,2.2757,-4.27264,0.674433,0,0,0,0,0,0,0.0122304,3.5122,5,0.1,6,0,1.55209,0.717788,0.552942,0,0,0,0,0,0,0.0190319,1.32988,5,0.1,7,0,0.452914,3.41028,0.59231,0,0,0,0,0,0,0.0108687,3.5122,5,0.1,8,0,3.98555,0.250721,0.623033,0,0,0,0,0,0,0.00916208,3.51219,5,0.1,9,0,1.78875,-2.75666,0.690001,0,0,0,0,0,0,0.00954385,1.11881,5,0.1,10,0,3.58332,2.27941,0.500311,0,0,0,0,0,0,0.014623,0.623297,5,0.1,11,0,-1.90846,2.65998,0.553826,0,0,0,0,0,0,0.0126581,2.34548,5,0.1,12,0,0.64358,-1.17634,0.543761,0,0,0,0,0,0,0.0110535,1.70946,5,0.1,13,0,-2.56777,3.9862,0.5618,0,0,0,0,0,0,0.0144292,3.16564,5,0.1,14,0,-4.10138,-1.80455,0.691712,0,0,0,0,0,0,0.0144927,3.51219,5,0.1,15,0,-3.33138,-1.44361,0.533566,0,0,0,0,0,0,0.00925645,2.34375,5,0.1,16,0,-2.1474,-4.22998,0.542719,0,0,0,0,0,0,0.036956,3.5122,5,0.1,17,0,0.107825,1.58331,0.630137,0,0,0,0,0,0,0.00690394,1.98676,5,0.1,18,0,4.37064,1.37787,0.649384,0,0,0,0,0,0,0.0160057,3.5122,5,0.1,19,0,-3.46751,0.559803,0.678668,0,0,0,0,0,0,0.00724407,0.784093,5,0.1,20,0,-1.10637,-1.62271,0.657853,0,0,0,0,0,0,0.0116515,3.51219,5,0.1,21,0,-3.42118,-2.63302,0.505297,0,0,0,0,0,0,0.0131655,0.915751,5,0.1,22,0,3.45421,-2.57369,0.551003,0,0,0,0,0,0,0.00863908,3.5122,5,0.1,23,0,-1.281,-3.61602,0.510821,0,0,0,0,0,0,0.00861193,3.5122,5,0.1,24,0,-1.17383,-0.164026,0.671523,0,0,0,0,0,0,0.0341844,2.93762,5,0.1,25,0,1.91895,-0.989407,0.519288,0,0,0,0,0,0,0.0132212,3.5122,5,0.1,26,0,0.247662,2.22084,0.549566,0,0,0,0,0,0,0.0068679,0.71573,5,0.1,27,0,-0.172486,4.39493,0.600231,0,0,0,0,0,0,0.0135387,3.5122,5,0.1,28,0,-0.419361,-2.32163,0.513178,0,0,0,0,0,0,0.0135216,3.51219,5,0.1,29,0,-3.41912,3.58461,0.600187,0,0,0,0,0,0,0.0100135,3.5122,5,0.1
0,0.1,0.732345,-3.70837,0.546451,-0.0306245,0.012115,0.00158837,-0.544436,0.215366,0.0282414,0.0258814,1.08699,5,0.1,1,0.1,3.82286,-3.65478,0.625326,-0.00464134,0.0590753,0.0011066,-0.0825077,1.05025,0.019677,0.0278528,3.5122,5,0.1,2,0.1,3.91328,4.26066,0.627058,-0.0404418,-0.0418462,-0.000802521,-0.718981,-0.743955,-0.0142716,0.0270975,3.38689,5,0.1,3,0.1,1.23159,-0.362518,0.553467,0.0271937,0.00462234,-0.00103079,0.483446,0.0821762,-0.0183284,0.00814376,0.761808,5,0.1,4,0.1,3.75885,2.91059,0.597268,-0.0358608,0.00265203,8.10251e-05,-0.637516,0.0471622,0.00143796,0.0155854,1.29282,5,0.1,5,0.1,2.27533,-4.27059,0.674407,-0.0105903,0.0583105,-0.000732765,-0.188291,1.03661,-0.0130236,0.0122304,3.5122,5,0.1,6,0.1,1.55125,0.718761,0.552991,-0.0237694,0.0276253,0.00139456,-0.422575,0.49112,0.0247955,0.0190319,1.32988,5,0.1,7,0.1,0.45228,3.40829,0.592317,-0.0180119,-0.0564642,0.000183936,-0.320213,-1.0038,0.00326708,0.0108687,3.5122,5,0.1,8,0.1,3.98497,0.252728,0.623017,-0.0164118,0.0569488,-0.00045253,-0.29178,1.01242,-0.0080429,0.00916208,3.51219,5,0.1,9,0.1,1.78782,-2.75738,0.690063,-0.0263376,-0.0205461,0.00177799,-0.468217,-0.365272,0.0316091,0.00954385,1.11881,5,0.1,10,0.1,3.58286,2.28016,0.500309,-0.0128411,0.0213537,-7.57165e-05,-0.228286,0.379607,-0.00134483,0.014623,0.623297,5,0.1,11,0.1,-1.90756,2.66143,0.553874,0.0254398,0.041192,0.00136849,0.452258,0.732303,0.0243261,0.0126581,2.34548,5,0.1,12,0.1,0.642595,-1.17527,0.54382,-0.0279621,0.0304151,0.00166679,-0.497099,0.540704,0.0296272,0.0110535,1.70946,5,0.1,13,0.1,-2.56697,3.98439,0.56184,0.0227526,-0.0514507,0.00113202,0.404477,-0.914663,0.0201277,0.0144292,3.16564,5,0.1,14,0.1,-4.10082,-1.80254,0.691746,0.0157349,0.0571335,0.000963826,0.279754,1.01572,0.0171401,0.0144927,3.51219,5,0.1,15,0.1,-3.32984,-1.44288,0.533689,0.0437222,0.0205021,0.00347495,0.777304,0.364482,0.0617802,0.00925645,2.34375,5,0.1,16,0.1,-2.14658,-4.22806,0.542744,0.0230312,0.0546046,0.000714045,0.409454,0.970751,0.0126995,0.036956,3.5122,5,0.1,17,0.1,0.108606,1.58466,0.630008,0.0221642,0.0385016,-0.00366839,0.39403,0.68447,-0.0652187,0.00690394,1.98676,5,0.1,18,0.1,4.36938,1.37954,0.649333,-0.0356264,0.0473442,-0.00144141,-0.633329,0.84167,-0.0256263,0.0160057,3.5122,5,0.1,19,0.1,-3.4682,0.559114,0.678541,-0.0197005,-0.0195734,-0.00360124,-0.350252,-0.347972,-0.0640228,0.00724407,0.784093,5,0.1,20,0.1,-1.10676,-1.62066,0.65782,-0.0112943,0.0581745,-0.00094194,-0.200793,1.03422,-0.0167489,0.0116515,3.51219,5,0.1,21,0.1,-3.42089,-2.63199,0.505252,0.00803657,0.0291318,-0.00128718,0.142857,0.517875,-0.0228845,0.0131655,0.915751,5,0.1,22,0.1,3.45455,-2.57163,0.551021,0.00988506,0.058436,0.000518095,0.175729,1.03886,0.00921264,0.00863908,3.5122,5,0.1,23,0.1,-1.27892,-3.61608,0.510856,0.0592329,-0.00178069,0.00099251,1.05304,-0.0316501,0.0176467,0.00861193,3.5122,5,0.1,24,0.1,-1.17277,-0.162445,0.671448,0.0303404,0.0448669,-0.0021195,0.539385,0.797634,-0.0376776,0.0341844,2.93762,5,0.1,25,0.1,1.9183,-0.987424,0.519236,-0.0185279,0.0562786,-0.00147726,-0.329383,1.0005,-0.0262633,0.0132212,3.5122,5,0.1,26,0.1,0.246934,2.22025,0.549619,-0.0206746,-0.0169165,0.00149477,-0.367549,-0.300735,0.0265688,0.0068679,0.71573,5,0.1,27,0.1,-0.171972,4.3929,0.600231,0.0145745,-0.0574484,-4.19095e-06,0.259101,-1.02133,-7.82311e-05,0.0135387,3.5122,5,0.1,28,0.1,-0.418298,-2.31983,0.513112,0.0301811,0.0509735,-0.00187056,0.536555,0.906184,-0.0332557,0.0135216,3.51219,5,0.1,29,0.1,-3.41743,3.58337,0.600187,0.0478331,-0.0349957,-5.40167e-06,0.850365,-0.622168,-9.68575e-05,0.0100135,3.5122,5,0.1
0,0.2,0.726125,-3.70591,0.546774,-0.096789,0.03829,0.00502169,-0.725925,0.287056,0.0376105,0.0246208,0.89182,5,0.1,1,0.2,3.82192,-3.64278,0.625551,-0.0146687,0.186706,0.0034973,-0.11003,1.40047,0.0262558,0.0276908,2.92608,5,0.1,2,0.2,3.90506,4.25216,0.626895,-0.127816,-0.132263,-0.00253618,-0.958562,-0.991821,-0.0190437,0.02598,2.77878,5,0.1,3,0.2,1.23711,-0.361579,0.553258,0.0859439,0.0146091,-0.00325739,0.644624,0.109553,-0.0244081,0.00776763,0.625024,5,0.1,4,0.2,3.75156,2.91113,0.597285,-0.113338,0.00838041,0.0002563,-0.849962,0.0629425,0.00190735,0.0173048,1.0607,5,0.1,5,0.2,2.27317,-4.25874,0.674258,-0.033468,0.184286,-0.00231713,-0.251174,1.38235,-0.017345,0.0202798,2.92577,5,0.1,6,0.2,1.54643,0.724373,0.553275,-0.0751227,0.0873104,0.00440627,-0.563383,0.654787,0.0330806,0.0195897,1.0911,5,0.1,7,0.2,0.448621,3.39683,0.592354,-0.0569262,-0.178456,0.000581145,-0.426963,-1.33848,0.00435114,0.0112818,2.92579,5,0.1,8,0.2,3.98163,0.264295,0.622925,-0.051868,0.179987,-0.00143051,-0.389099,1.34988,-0.010699,0.0109226,2.92579,5,0.1,9,0.2,1.78247,-2.76156,0.690424,-0.0832379,-0.0649393,0.00561923,-0.624299,-0.48697,0.0421703,0.00940027,0.917932,5,0.1,10,0.2,3.58026,2.2845,0.500293,-0.0405848,0.0674903,-0.000238419,-0.304341,0.506163,-0.00181794,0.0119494,0.511833,5,0.1,11,0.2,-1.9024,2.6698,0.554152,0.0804007,0.130188,0.00432432,0.60308,0.976324,0.0324547,0.0125743,1.92435,5,0.1,12,0.2,0.636915,-1.16909,0.544158,-0.0883743,0.0961274,0.00526607,-0.662833,0.720918,0.0395477,0.00935596,1.40253,5,0.1,13,0.2,-2.56235,3.97393,0.56207,0.071907,-0.162607,0.00357777,0.539303,-1.21963,0.0268221,0.0167328,2.59725,5,0.1,14,0.2,-4.09763,-1.79094,0.691942,0.0497341,0.180569,0.00304729,0.372648,1.35428,0.0228286,0.0131588,2.9258,5,0.1,15,0.2,-3.32096,-1.43872,0.534395,0.138187,0.0647962,0.0109836,1.03641,0.486016,0.0823438,0.00806053,1.92292,5,0.1,16,0.2,-2.14191,-4.21696,0.54289,0.0727952,0.172579,0.00225604,0.545859,1.29437,0.0169575,0.0341161,2.92579,5,0.1,17,0.2,0.113108,1.59249,0.629263,0.0700498,0.121683,-0.0115946,0.525378,0.912607,-0.0869632,0.00819176,1.63195,5,0.1,18,0.2,4.36214,1.38915,0.64904,-0.112593,0.149632,-0.00455528,-0.844479,1.12218,-0.0341535,0.0140422,2.9258,5,0.1,19,0.2,-3.47221,0.555138,0.677809,-0.062263,-0.0618622,-0.011383,-0.467062,-0.463933,-0.085324,0.00932986,0.643308,5,0.1,20,0.2,-1.10906,-1.60885,0.657628,-0.0356942,0.183859,-0.00297725,-0.267804,1.37895,-0.0223219,0.0153091,2.92579,5,0.1,21,0.2,-3.41926,-2.62608,0.504991,0.0253975,0.0920653,-0.00406802,0.190496,0.690579,-0.0305176,0.0138144,3.18565,5,0.1,22,0.2,3.45656,-2.55976,0.551127,0.0312448,0.184685,0.00163764,0.234127,1.38521,0.0122786,0.0120065,2.92579,5,0.1,23,0.2,-1.26689,-3.61644,0.511058,0.187206,-0.00562668,0.0031352,1.40405,-0.0422001,0.0235736,0.00934802,2.92579,5,0.1,24,0.2,-1.1666,-0.153332,0.671018,0.095892,0.141801,-0.00669807,0.71919,1.06352,-0.0502467,0.0328839,2.41017,5,0.1,25,0.2,1.91453,-0.975992,0.518936,-0.0585586,0.177866,-0.00466853,-0.439167,1.33404,-0.0350475,0.0111421,2.92579,5,0.1,26,0.2,0.242734,2.21681,0.549922,-0.065342,-0.0534654,0.00472367,-0.490069,-0.400901,0.0354052,0.0297695,0.587223,5,0.1,27,0.2,-0.169012,4.38123,0.60023,0.0460621,-0.181568,-1.49012e-05,0.345476,-1.36185,-5.96046e-05,0.0243258,2.92872,5,0.1,28,0.2,-0.412167,-2.30948,0.512732,0.0953875,0.161099,-0.00591278,0.715405,1.20842,-0.0443161,0.0115129,2.92626,5,0.1,29,0.2,-3.40771,3.57626,0.600186,0.151175,-0.110602,-1.78814e-05,1.1338,-0.829697,-0.000119209,0.0117242,2.90093,5,0.1
0,0.3,0.712416,-3.70049,0.547485,-0.18006,0.0712223,0.00933753,-0.888292,0.35134,0.0460483,0.0246208,0.89182,5,0.1,1,0.3,3.81987,-3.61631,0.625999,-0.0263222,0.347847,0.00515934,-0.117421,1.72246,0.00812858,0.0276908,2.92608,5,0.1,2,0.3,3.88696,4.23343,0.626536,-0.237776,-0.24604,-0.00471994,-1.17302,-1.21376,-0.0232905,0.02598,2.77878,5,0.1,3,0.3,1.24928,-0.35951,0.552797,0.159888,0.0271765,-0.00605807,0.788793,0.134068,-0.0298843,0.00776763,0.625024,5,0.1,4,0.3,3.73551,2.91232,0.597321,-0.21084,0.0155978,0.00047544,-1.04013,0.0769794,0.00234321,0.0173048,1.0607,5,0.1,5,0.3,2.26843,-4.23263,0.67393,-0.0623502,0.343261,-0.00431295,-0.308603,1.69876,-0.021331,0.0202798,2.92577,5,0.1,6,0.3,1.53579,0.736738,0.553899,-0.139751,0.162423,0.00820002,-0.689417,0.801269,0.0404678,0.0195897,1.0911,5,0.1,7,0.3,0.440554,3.37154,0.592437,-0.10603,-0.332391,0.00108201,-0.524718,-1.64494,0.00535697,0.0112818,2.92579,5,0.1,8,0.3,3.97428,0.289801,0.622723,-0.0966154,0.335236,-0.002662,-0.478148,1.65898,-0.0131615,0.0109226,2.92579,5,0.1,9,0.3,1.77069,-2.77075,0.69122,-0.154852,-0.120802,0.0104557,-0.763945,-0.595927,0.0515841,0.00940027,0.917932,5,0.1,10,0.3,3.57451,2.29405,0.500261,-0.0754971,0.125553,-0.000384729,-0.372425,0.619411,-0.00111386,0.0119494,0.511833,5,0.1,11,0.3,-1.89101,2.68824,0.554765,0.149578,0.242186,0.00804644,0.737935,1.19475,0.0397041,0.0125743,1.92435,5,0.1,12,0.3,0.624399,-1.15548,0.544904,-0.164408,0.178826,0.00980115,-0.811078,0.882186,0.0483729,0.00935596,1.40253,5,0.1,13,0.3,-2.55216,3.9509,0.562577,0.133771,-0.30251,0.00665486,0.659928,-1.4924,0.0328273,0.0167328,2.59725,5,0.1,14,0.3,-4.09058,-1.76535,0.692373,0.092604,0.336323,0.00567352,0.458151,1.66437,0.0280701,0.0131588,2.9258,5,0.1,15,0.3,-3.30139,-1.42954,0.53595,0.257075,0.120546,0.0204301,1.26821,0.594705,0.10078,0.00806053,1.92292,5,0.1,16,0.3,-2.13159,-4.19251,0.543209,0.135576,0.321445,0.0042052,0.67088,1.59073,0.0208206,0.0341161,2.92579,5,0.1,17,0.3,0.123041,1.60959,0.627625,0.130645,0.222674,-0.0214362,0.648738,1.05107,-0.104029,0.00819176,1.63195,5,0.1,18,0.3,4.34619,1.41036,0.648395,-0.209714,0.278694,-0.0084836,-1.03784,1.37915,-0.041984,0.0140422,2.9258,5,0.1,19,0.3,-3.48103,0.546376,0.676197,-0.115838,-0.115081,-0.0211719,-0.571474,-0.567723,-0.104435,0.00932986,0.643308,5,0.1,20,0.3,-1.11412,-1.58279,0.657207,-0.0664914,0.342452,-0.00554482,-0.32907,1.6947,-0.0274368,0.0153091,2.92579,5,0.1,21,0.3,-3.41589,-2.61197,0.504451,0.0409227,0.201596,-0.00652652,0.120625,1.38393,-0.0188127,0.0138144,3.18565,5,0.1,22,0.3,3.46099,-2.53359,0.551359,0.0581779,0.343994,0.0030499,0.287831,1.70235,0.0150949,0.0120065,2.92579,5,0.1,23,0.3,-1.24036,-3.61724,0.511502,0.348685,-0.0104807,0.00584451,1.72554,-0.051856,0.0289418,0.00934802,2.92579,5,0.1,24,0.3,-1.15302,-0.133248,0.670069,0.178391,0.263798,-0.0124617,0.880048,1.3014,-0.0614785,0.0328839,2.41017,5,0.1,25,0.3,1.90623,-0.950787,0.518274,-0.109067,0.331292,-0.00869846,-0.539728,1.63949,-0.0430532,0.0111421,2.92579,5,0.1,26,0.3,0.23348,2.20924,0.550591,-0.121558,-0.0994563,0.008786,-0.599684,-0.490636,0.0433363,0.0297695,0.587223,5,0.1,27,0.3,-0.162484,4.35567,0.600228,0.0857947,-0.33344,-2.32831e-05,0.424577,-1.58933,-0.000104308,0.0243258,2.92872,5,0.1,28,0.3,-0.398715,-2.28661,0.511901,0.175808,0.301134,-0.0108152,0.846183,1.50385,-0.0510029,0.0115129,2.92626,5,0.1,29,0.3,-3.3863,3.56059,0.600184,0.281383,-0.205881,-3.18512e-05,1.39005,-1.01711,-0.000156462,0.0117242,2.90093,5,0.1
0,0.4,0.690048,-3.69164,0.548645,-0.265548,0.105035,0.0137702,-0.783712,0.309944,0.0406206,0.0243787,0.705619,5,0.1,1,0.4,3.81668,-3.57306,0.626534,-0.0371873,0.513834,0.00533462,-0.0959635,1.52361,-0.00363588,0.0253648,2.51536,5,0.1,2,0.4,3.85742,4.20287,0.62595,-0.350666,-0.362849,-0.00696182,-1.03486,-1.07098,-0.0205338,0.0240545,2.19861,5,0.1,3,0.4,1.26915,-0.356134,0.552044,0.235799,0.0400797,-0.00893325,0.695884,0.118271,-0.0264049,0.00746122,0.494526,5,0.1,4,0.4,3.70932,2.91426,0.59738,-0.310946,0.0230014,0.000700355,-0.917554,0.0679493,0.00208616,0.0176407,0.83924,5,0.1,5,0.4,2.26068,-4.18995,0.673394,-0.0920773,0.506938,-0.00636876,-0.272989,1.5018,-0.0188649,0.0160006,2.51262,5,0.1,6,0.4,1.51843,0.756916,0.554918,-0.206101,0.239538,0.0120938,-0.608206,0.706881,0.0357032,0.0212753,0.863294,5,0.1,7,0.4,0.427372,3.33021,0.592571,-0.156585,-0.490874,0.0015974,-0.463948,-1.45435,0.00473857,0.0169604,2.51009,5,0.1,8,0.4,3.96227,0.331479,0.622392,-0.142682,0.495075,-0.00393093,-0.422835,1.46683,-0.0116527,0.0122647,2.51035,5,0.1,9,0.4,1.75145,-2.78576,0.692519,-0.228372,-0.178158,0.0154212,-0.67395,-0.525594,0.0454783,0.0111594,0.72628,5,0.1,10,0.4,3.56513,2.30965,0.500219,-0.111341,0.185162,-0.000463426,-0.328541,0.546455,-0.000476837,0.0176084,0.405491,5,0.1,11,0.4,-1.87243,2.71832,0.555764,0.220594,0.357169,0.0118673,0.651062,1.05405,0.0350177,0.0144819,1.52257,5,0.1,12,0.4,0.603974,-1.13327,0.546122,-0.242464,0.263727,0.0144541,-0.715554,0.778258,0.0427067,0.0163549,1.1097,5,0.1,13,0.4,-2.53554,3.91332,0.563403,0.197285,-0.446135,0.0098139,0.582099,-1.31667,0.0289977,0.0162206,2.05497,5,0.1,14,0.4,-4.07907,-1.72354,0.693079,0.136757,0.496683,0.00837892,0.405073,1.47158,0.0247955,0.0148418,2.51054,5,0.1,15,0.4,-3.26945,-1.41457,0.538488,0.379127,0.17778,0.0301287,1.11878,0.52464,0.0889301,0.00858772,1.52144,5,0.1,16,0.4,-2.11474,-4.15254,0.543732,0.200218,0.474703,0.0062108,0.593185,1.40667,0.018388,0.0355014,2.51007,5,0.1,17,0.4,0.139296,1.63696,0.624973,0.193227,0.322166,-0.0313893,0.574969,0.897646,-0.0906587,0.00927036,1.30337,5,0.1,18,0.4,4.32012,1.445,0.64734,-0.309706,0.411573,-0.0125289,-0.917673,1.21945,-0.0371337,0.0136559,2.36124,5,0.1,19,0.4,-3.49542,0.53208,0.673567,-0.170839,-0.169718,-0.0312239,-0.504136,-0.500888,-0.092119,0.00817899,0.50899,5,0.1,20,0.4,-1.12238,-1.54022,0.656517,-0.0981957,0.505731,-0.00818819,-0.29093,1.49846,-0.0242591,0.0116871,2.51232,5,0.1,21,0.4,-3.4113,-2.58453,0.503722,0.0496805,0.348413,-0.0078693,0.0557899,1.46401,-0.00822544,0.0105816,2.70957,5,0.1,22,0.4,3.46822,-2.49082,0.551738,0.0859141,0.508016,0.00450313,0.254631,1.50502,0.0133514,0.00975805,2.51298,5,0.1,23,0.4,-1.19701,-3.61854,0.512229,0.514936,-0.0154793,0.00863224,1.52564,-0.0458956,0.0255704,0.00998888,2.51554,5,0.1,24,0.4,-1.13086,-0.100477,0.668521,0.263086,0.389043,-0.0183791,0.77641,1.14814,-0.0542104,0.0304571,1.90695,5,0.1,25,0.4,1.89267,-0.909599,0.517193,-0.161073,0.489251,-0.0128463,-0.477135,1.44958,-0.0380576,0.0114831,2.5458,5,0.1,26,0.4,0.218379,2.19688,0.551683,-0.179271,-0.146669,0.0129566,-0.529066,-0.432968,0.0382364,0.00749401,0.464619,5,0.1,27,0.4,-0.151818,4.31459,0.600226,0.126702,-0.48449,-3.42727e-05,0.375398,-1.36828,-8.9407e-05,0.0144415,2.80293,5,0.1,28,0.4,-0.377005,-2.24909,0.510572,0.256503,0.446498,-0.0156417,0.733346,1.33801,-0.0435412,0.0115664,2.16231,5,0.1,29,0.4,-3.35133,3.53501,0.60018,0.41523,-0.303817,-4.61936e-05,1.22738,-0.898004,-0.000149012,0.00998039,2.29574,5,0.1
0,0.5,0.659503,-3.67956,0.550229,-0.345062,0.136483,0.0178924,-0.767574,0.303596,0.039801,0.0243787,0.705619,5,0.1,1,0.5,3.81248,-3.51407,0.627034,-0.0467621,0.664066,0.0045578,-0.0909269,1.41264,-0.0110902,0.0253648,2.51536,5,0.1,2,0.5,3.81709,4.16113,0.625149,-0.455664,-0.471509,-0.00904538,-1.01359,-1.04889,-0.0201091,0.0240545,2.19861,5,0.1,3,0.5,1.29627,-0.351524,0.551016,0.306403,0.0520798,-0.0116117,0.681557,0.115843,-0.0258535,0.00746122,0.494526,5,0.1,4,0.5,3.67355,2.9169,0.597461,-0.404043,0.0298936,0.000911765,-0.898719,0.0665337,0.00204146,0.0176407,0.83924,5,0.1,5,0.5,2.25007,-4.1317,0.67266,-0.120163,0.656813,-0.00831047,-0.274301,1.42491,-0.0189655,0.0160006,2.51262,5,0.1,6,0.5,1.49472,0.784469,0.556309,-0.26781,0.311259,0.0157156,-0.595719,0.69236,0.0349618,0.0212753,0.863294,5,0.1,7,0.5,0.409328,3.27366,0.592755,-0.204326,-0.640114,0.00208495,-0.466324,-1.45423,0.00476465,0.0169604,2.51009,5,0.1,8,0.5,3.94583,0.388476,0.621939,-0.186191,0.644484,-0.0051301,-0.424951,1.44658,-0.0117123,0.0122647,2.51035,5,0.1,9,0.5,1.72518,-2.80625,0.694293,-0.296752,-0.23149,0.0200359,-0.660099,-0.51485,0.044547,0.0111594,0.72628,5,0.1,10,0.5,3.55232,2.33095,0.500171,-0.144676,0.240605,-0.000476185,-0.32182,0.535205,0.000175089,0.0176084,0.405491,5,0.1,11,0.5,-1.84705,2.75941,0.557129,0.286649,0.464115,0.0154202,0.637636,1.03238,0.0342913,0.0144819,1.52257,5,0.1,12,0.5,0.576085,-1.10293,0.547785,-0.315064,0.34269,0.0187857,-0.700828,0.762276,0.0418052,0.0163549,1.1097,5,0.1,13,0.5,-2.51285,3.86201,0.564532,0.256348,-0.579721,0.0127555,0.570148,-1.28955,0.0283904,0.0162206,2.05497,5,0.1,14,0.5,-4.06331,-1.66637,0.694044,0.178447,0.646155,0.0109315,0.407249,1.44365,0.0249371,0.0148418,2.51054,5,0.1,15,0.5,-3.22584,-1.39412,0.541954,0.49264,0.231009,0.0391516,1.09579,0.513837,0.087101,0.00858772,1.52144,5,0.1,16,0.5,-2.09166,-4.09784,0.544448,0.261261,0.61945,0.00810316,0.596255,1.41382,0.0184812,0.0355014,2.51007,5,0.1,17,0.5,0.161615,1.67373,0.621374,0.253516,0.412879,-0.0405516,0.597919,0.871986,-0.0881217,0.00927036,1.30337,5,0.1,18,0.5,4.28446,1.49239,0.645897,-0.403185,0.535796,-0.0163113,-0.905454,1.20327,-0.0366382,0.0136559,2.36124,5,0.1,19,0.5,-3.51507,0.512558,0.669976,-0.221988,-0.220538,-0.0405712,-0.49375,-0.490582,-0.0902414,0.00817899,0.50899,5,0.1,20,0.5,-1.1337,-1.48209,0.655574,-0.128132,0.65557,-0.0106845,-0.292413,1.42716,-0.0243858,0.0116871,2.51232,5,0.1,21,0.5,-3.40611,-2.54186,0.502915,0.0534918,0.507708,-0.0080971,0.0204593,1.63136,0.00294298,0.0105816,2.70957,5,0.1,22,0.5,3.47812,-2.43245,0.552257,0.112117,0.657935,0.00587683,0.255972,1.42296,0.0134185,0.00975805,2.51298,5,0.1,23,0.5,-1.13791,-3.62033,0.513224,0.665139,-0.0202008,0.0112631,1.41035,-0.0461042,0.0256933,0.00998888,2.51554,5,0.1,24,0.5,-1.1006,-0.0557269,0.666407,0.34186,0.505533,-0.0238799,0.760436,1.12451,-0.0531115,0.0304571,1.90695,5,0.1,25,0.5,1.87458,-0.853542,0.5157,-0.196989,0.629291,-0.017119,-0.245228,1.29477,-0.0445917,0.0114831,2.5458,5,0.1,26,0.5,0.197758,2.18001,0.553173,-0.232949,-0.190596,0.0168364,-0.518178,-0.424042,0.0374541,0.00749401,0.464619,5,0.1,27,0.5,-0.137218,4.2608,0.600222,0.165326,-0.577369,-4.42378e-05,0.377235,-0.535339,-0.000100583,0.0144415,2.80293,5,0.1,28,0.5,-0.348508,-2.19766,0.508841,0.305719,0.581324,-0.0185176,0.270106,1.29427,-0.0151955,0.0115664,2.16231,5,0.1,29,0.5,-3.30356,3.50005,0.600174,0.53981,-0.394964,-6.1281e-05,1.20306,-0.880197,-0.000149012,0.00998039,2.29574,5,0.1
0,0.6,0.621448,-3.66451,0.552202,-0.412421,0.163132,0.0213861,-0.552148,0.218272,0.0286102,0.0218083,0.525315,5,0.1,1,0.6,3.80739,-3.44124,0.627428,-0.0545919,0.785083,0.00326335,-0.0623465,0.963211,-0.0141859,0.029152,2.33303,5,0.1,2,0.6,3.76684,4.10913,0.624151,-0.544608,-0.56355,-0.0108108,-0.729322,-0.754595,-0.0144541,0.0225972,1.63681,5,0.1,3,0.6,1.33006,-0.34578,0.549736,0.366214,0.0622459,-0.0138804,0.490308,0.0833273,-0.0185966,0.00715763,0.397768,5,0.1,4,0.6,3.62899,2.9202,0.597561,-0.482911,0.035733,0.00109076,-0.646472,0.0476837,0.00146031,0.0144373,0.624801,5,0.1,5,0.6,2.23678,-4.05949,0.67174,-0.144476,0.780118,-0.00999123,-0.201583,0.993967,-0.0139773,0.0133781,2.31921,5,0.1,6,0.6,1.46518,0.818795,0.558042,-0.320086,0.372016,0.0187844,-0.428617,0.498086,0.0251234,0.0201573,0.642706,5,0.1,7,0.6,0.386725,3.20289,0.592986,-0.245658,-0.768733,0.00250787,-0.342935,-1.06478,0.00348687,0.0198823,2.29184,5,0.1,8,0.6,3.92523,0.459621,0.621371,-0.223857,0.771718,-0.00616908,-0.312448,1.04614,-0.00858307,0.014206,2.29863,5,0.1,9,0.6,1.69245,-2.83178,0.696502,-0.354677,-0.276673,0.0239447,-0.47487,-0.370383,0.0320673,0.0106342,0.540706,5,0.1,10,0.6,3.53637,2.35749,0.500125,-0.172913,0.287575,-0.000436604,-0.231624,0.384927,0.000625849,0.0155403,0.396191,5,0.1,11,0.6,-1.81544,2.81059,0.55883,0.342602,0.554711,0.0184298,0.458777,0.742674,0.0246465,0.0128995,1.13352,5,0.1,12,0.6,0.541339,-1.06514,0.549857,-0.376564,0.409582,0.0224531,-0.504166,0.548363,0.0300705,0.0141852,0.826143,5,0.1,13,0.6,-2.48458,3.79807,0.565939,0.306386,-0.692886,0.0152469,0.410199,-0.927687,0.0204146,0.0175679,1.52995,5,0.1,14,0.6,-4.04357,-1.59508,0.695253,0.214553,0.772858,0.0131428,0.299454,1.03903,0.0183284,0.0204777,2.30131,5,0.1,15,0.6,-3.17151,-1.36864,0.546272,0.588804,0.276101,0.0467941,0.788212,0.369668,0.0626743,0.0105816,1.13268,5,0.1,16,0.6,-2.06276,-4.02932,0.545344,0.314105,0.74476,0.00974089,0.438571,1.03962,0.0135899,0.0410581,2.25968,5,0.1,17,0.6,0.189772,1.71904,0.616912,0.307178,0.488967,-0.0482559,0.451863,0.618637,-0.0628233,0.0159135,0.981636,5,0.1,18,0.6,4.23995,1.55154,0.644096,-0.482881,0.641707,-0.0195369,-0.65589,0.87142,-0.0264943,0.0265793,1.76174,5,0.1,19,0.6,-3.53955,0.488236,0.665502,-0.265318,-0.263589,-0.0484914,-0.355124,-0.352919,-0.0649095,0.0128162,0.37893,5,0.1,20,0.6,-1.14787,-1.40999,0.654392,-0.154051,0.779277,-0.0128463,-0.214994,0.999212,-0.017941,0.0130806,2.31708,5,0.1,21,0.6,-3.40072,-2.48327,0.502133,0.053817,0.659066,-0.00741482,-0.0137091,1.33014,0.010103,0.0158387,2.40109,5,0.1,22,0.6,3.49053,-2.36015,0.552907,0.134802,0.780886,0.00706613,0.188231,0.989199,0.00986457,0.010174,2.32124,5,0.1,23,0.6,-1.06498,-3.62256,0.51447,0.785798,-0.0242889,0.0135407,0.958741,-0.0339746,0.0188649,0.0128888,2.33442,5,0.1,24,0.6,-1.0629,2.4855e-05,0.663773,0.40859,0.604214,-0.0285402,0.547111,0.808946,-0.0382066,0.0375418,1.41968,5,0.1,25,0.6,1.85401,-0.784774,0.513773,-0.211015,0.738713,-0.0212789,-0.0402331,0.855118,-0.0365973,0.0142411,2.42184,5,0.1,26,0.6,0.172068,2.15899,0.55503,-0.278422,-0.227809,0.0201225,-0.372767,-0.305057,0.0269711,0.0108848,0.345896,5,0.1,27,0.6,-0.11893,4.20145,0.600217,0.198758,-0.599885,-5.36442e-05,0.277359,0.0479221,-8.9407e-05,0.020023,2.8387,5,0.1,28,0.6,-0.317218,-2.13356,0.506951,0.314204,0.694424,-0.018914,-0.082761,0.922799,0.00610948,0.0159953,1.69075,5,0.1,29,0.6,-3.24401,3.45649,0.600167,0.645417,-0.47223,-7.45058e-05,0.866294,-0.633717,-8.9407e-05,0.0135432,1.70956,5,0.1
0,0.7,0.577493,-3.64712,0.554481,-0.465429,0.184091,0.0241336,-0.477713,0.188902,0.0247695,0.0218083,0.525315,5,0.1,1,0.7,3.80161,-3.35897,0.627679,-0.0607695,0.850225,0.00173189,-0.0570267,0.366271,-0.0158697,0.029152,2.33303,5,0.1,2,0.7,3.70879,4.04907,0.622999,-0.614623,-0.635993,-0.0121987,-0.63099,-0.65282,-0.0125058,0.0225972,1.63681,5,0.1,3,0.7,1.36861,-0.338975,0.548277,0.399535,0.0751202,-0.0150654,0.179745,0.158755,-0.0054203,0.00715763,0.397768,5,0.1,4,0.7,3.57752,2.92401,0.597678,-0.544977,0.0403125,0.00123102,-0.559375,0.0412613,0.0012666,0.0144373,0.624801,5,0.1,5,0.7,2.22131,-3.97756,0.67067,-0.164708,0.848499,-0.0113938,-0.190318,0.39582,-0.0131875,0.0133781,2.31921,5,0.1,6,0.7,1.43107,0.858445,0.560044,-0.361234,0.419835,0.0211964,-0.370838,0.430949,0.0217371,0.0201573,0.642706,5,0.1,7,0.7,0.360422,3.12172,0.593254,-0.280082,-0.844553,0.00285804,-0.323826,-0.463501,0.00330061,0.0198823,2.29184,5,0.1,8,0.7,3.90126,0.540989,0.620711,-0.255219,0.845586,-0.00703139,-0.295028,0.445776,-0.00811741,0.014206,2.29863,5,0.1,9,0.7,1.65465,-2.86127,0.699054,-0.400267,-0.312232,0.0270231,-0.410847,-0.320494,0.0277385,0.0106342,0.540706,5,0.1,10,0.7,3.51778,2.38813,0.500085,-0.199594,0.324531,-0.000362564,-0.279397,0.333056,0.00083074,0.0155403,0.396191,5,0.1,11,0.7,-1.77893,2.86971,0.560794,0.386643,0.626011,0.0207962,0.396885,0.642568,0.0213236,0.0128995,1.13352,5,0.1,12,0.7,0.501205,-1.02148,0.55225,-0.424966,0.462227,0.0253391,-0.436196,0.474457,0.0259988,0.0141852,0.826143,5,0.1,13,0.7,-2.45193,3.72426,0.567564,0.345767,-0.78105,0.0172067,0.354916,-0.786588,0.0176579,0.0175679,1.52995,5,0.1,14,0.7,-4.0206,-1.51363,0.69666,0.244616,0.845981,0.0149833,0.282809,0.438988,0.0173226,0.0204777,2.30131,5,0.1,15,0.7,-3.10876,-1.33921,0.551259,0.664477,0.31159,0.0528107,0.681981,0.319824,0.0542216,0.0105816,1.13268,5,0.1,16,0.7,-2.02913,-3.9504,0.546387,0.358128,0.825889,0.0111052,0.414141,0.574306,0.0128336,0.0410581,2.25968,5,0.1,17,0.7,0.222663,1.77107,0.611774,0.349246,0.551091,-0.0543999,0.368903,0.582695,-0.0563078,0.0159135,0.981636,5,0.1,18,0.7,4.18843,1.62,0.642012,-0.546011,0.725587,-0.0220876,-0.570685,0.758268,-0.023067,0.0265793,1.76174,5,0.1,19,0.7,-3.56782,0.460143,0.660333,-0.299412,-0.29747,-0.0547238,-0.307262,-0.30534,-0.0561699,0.0128162,0.37893,5,0.1,20,0.7,-1.16437,-1.32812,0.653016,-0.17563,0.848209,-0.0146471,-0.202961,0.400797,-0.0169352,0.0130806,2.31708,5,0.1,21,0.7,-3.39542,-2.41127,0.50145,0.0518795,0.774596,-0.00618864,-0.0256151,0.947192,0.0139028,0.0158387,2.40109,5,0.1,22,0.7,3.50496,-2.27817,0.553663,0.153695,0.848767,0.00805622,0.177726,0.391245,0.0093095,0.010174,2.32124,5,0.1,23,0.7,-0.982667,-3.62516,0.515919,0.850472,-0.0276968,0.0154343,0.362024,-0.0320375,0.0178069,0.0128888,2.33442,5,0.1,24,0.7,-1.01935,0.0644214,0.660732,0.461113,0.681876,-0.0322084,0.473343,0.699894,-0.033062,0.0375418,1.41968,5,0.1,25,0.7,1.83339,-0.706952,0.511505,-0.19525,0.813584,-0.0236677,0.321768,0.608828,-0.0119284,0.0142411,2.42184,5,0.1,26,0.7,0.142394,2.13471,0.557175,-0.314209,-0.257095,0.0227115,-0.322514,-0.263914,0.0233315,0.0108848,0.345896,5,0.1,27,0.7,-0.0976515,4.14285,0.600211,0.226519,-0.563313,-6.25849e-05,0.260469,0.58049,-8.9407e-05,0.020023,2.8387,5,0.1,28,0.7,-0.286765,-2.05962,0.505122,0.289974,0.782055,-0.0173987,-0.375994,0.781029,0.0227802,0.0159953,1.69075,5,0.1,29,0.7,-3.17521,3.40615,0.60016,0.728605,-0.533085,-8.32602e-05,0.749961,-0.548601,-8.19564e-05,0.0135432,1.70956,5,0.1
0,0.8,0.528887,-3.6279,0.557001,-0.502883,0.198901,0.026077,-0.25086,0.0991821,0.0129938,0.0286507,0.370906,5,0.1,1,0.8,3.79529,-3.27285,0.627774,-0.0652909,0.866026,0.000187755,-0.0305176,0,-0.0145733,0.0338932,2.26881,5,0.1,2,0.8,3.6446,3.98265,0.621725,-0.664091,-0.687176,-0.0131801,-0.331402,-0.342846,-0.00655651,0.0271894,1.15585,5,0.1,3,0.8,1.40897,-0.330649,0.546763,0.403085,0.0913046,-0.0150293,-0.103176,0.153393,0.00578165,0.00895936,0.338446,5,0.1,4,0.8,3.52061,2.92822,0.597806,-0.588834,0.0435531,0.00133067,-0.293732,0.0215769,0.000655651,0.0176913,0.483985,5,0.1,5,0.8,2.20399,-3.8915,0.669472,-0.180376,0.866026,-0.0124797,-0.114322,0,-0.00792742,0.0164792,2.24688,5,0.1,6,0.8,1.39334,0.902289,0.562257,-0.390306,0.453623,0.0229001,-0.194788,0.226319,0.0114143,0.020537,0.494797,5,0.1,7,0.8,0.330972,3.03581,0.593555,-0.306749,-0.866026,0.00313073,-0.19449,0,0.00196695,0.0159212,2.20134,5,0.1,8,0.8,3.87443,0.626943,0.619972,-0.27951,0.866026,-0.00770092,-0.177145,-2.98023e-05,-0.00485778,0.0127415,2.21296,5,0.1,9,0.8,1.61285,-2.89388,0.701877,-0.432479,-0.337362,0.0291973,-0.215769,-0.168324,0.0145733,0.0109544,0.527608,5,0.1,10,0.8,3.4965,2.42203,0.500053,-0.224906,0.350642,-0.000275671,-0.210643,0.17488,0.000864267,0.0128658,0.289541,5,0.1,11,0.8,-1.73855,2.93509,0.562966,0.41776,0.676394,0.0224695,0.208437,0.337362,0.0111759,0.0164129,0.941856,5,0.1,12,0.8,0.456825,-0.973213,0.554896,-0.459164,0.499427,0.0273764,-0.229046,0.249118,0.0136793,0.0117996,0.583303,5,0.1,13,0.8,-2.41582,3.64278,0.569361,0.373596,-0.842047,0.0185907,0.186324,-0.400782,0.00926852,0.019113,1.09335,5,0.1,14,0.8,-3.99488,-1.42767,0.698236,0.267911,0.866026,0.0164106,0.169754,0,0.0103712,0.0178791,2.21745,5,0.1,15,0.8,-3.03937,-1.30667,0.556774,0.71795,0.336665,0.0570625,0.358105,0.167906,0.0284612,0.0113136,0.799738,5,0.1,16,0.8,-1.99147,-3.86572,0.547555,0.392231,0.86,0.0121623,0.248849,0.120521,0.007689,0.0470267,2.16066,5,0.1,17,0.8,0.259158,1.82876,0.606088,0.377533,0.598544,-0.0588834,0.18318,0.337899,-0.0308454,0.0109311,0.702819,5,0.1,18,0.8,4.13136,1.69584,0.639704,-0.590968,0.785318,-0.0239044,-0.303984,0.403941,-0.0122786,0.0191094,1.24623,5,0.1,19,0.8,-3.59909,0.429078,0.654619,-0.323504,-0.32141,-0.0591278,-0.16129,-0.160336,-0.0295043,0.0109522,0.267547,5,0.1,20,0.8,-1.18283,-1.24207,0.651476,-0.192341,0.866026,-0.0160411,-0.121891,0,-0.0101924,0.0167719,2.24346,5,0.1,21,0.8,-3.39039,-2.3299,0.500903,0.0486195,0.844234,-0.00472665,-0.0400543,0.435829,0.014931,0.0195878,2.29081,5,0.1,22,0.8,3.52112,-2.1921,0.554511,0.168324,0.866026,0.00882298,0.106812,0,0.00560284,0.015355,2.25013,5,0.1,23,0.8,-0.896539,-3.62808,0.517542,0.866024,-0.0303328,0.0169009,2.98023e-05,-0.0191927,0.0106692,0.0101553,2.27099,5,0.1,24,0.8,-0.971195,0.135631,0.657368,0.498223,0.736749,-0.0348017,0.248551,0.367529,-0.017345,0.0300016,1.00237,5,0.1,25,0.8,1.81584,-0.623168,0.509114,-0.15277,0.855446,-0.023815,0.500679,0.211596,0.00825524,0.0113523,2.33069,5,0.1,26,0.8,0.10958,2.10786,0.559547,-0.339495,-0.277787,0.0245422,-0.169352,-0.138521,0.012219,0.00683232,0.595329,5,0.1,27,0.8,-0.073842,4.08965,0.600204,0.247911,-0.499988,-7.00355e-05,0.155367,0.627279,-5.96046e-05,0.013852,2.89388,5,0.1,28,0.8,-0.259955,-1.97806,0.503514,0.243694,0.842497,-0.0146151,-0.528529,0.395298,0.0317097,0.0111573,1.3189,5,0.1,29,0.8,-3.09911,3.35047,0.600151,0.787437,-0.576127,-8.9407e-05,0.394583,-0.288486,-5.96046e-05,0.0122417,1.20728,5,0.1
0,0.9,0.477403,-3.60754,0.559671,-0.525614,0.20789,0.027255,-0.179688,0.0710636,0.00932068,0.0286507,0.370906,5,0.1,1,0.9,3.7886,-3.18625,0.62772,-0.0684932,0.866026,-0.0012544,-0.0294447,0,-0.0138395,0.0338932,2.26881,5,0.1,2,0.9,3.57665,3.9123,0.620376,-0.692981,-0.718242,-0.0137744,-0.21711,-0.245571,-0.00470132,0.0271894,1.15585,5,0.1,3,0.9,1.44834,-0.321018,0.545308,0.380471,0.0988485,-0.0139066,-0.33547,0.00601076,0.0159107,0.00895936,0.338446,5,0.1,4,0.9,3.46097,2.93268,0.597942,-0.597341,0.0455104,0.00139028,0.110894,0.0154674,0.000476837,0.0176913,0.483985,5,0.1,5,0.9,2.18536,-3.8049,0.668183,-0.192195,0.866026,-0.0132988,-0.109896,0,-0.00761822,0.0164792,2.24688,5,0.1,6,0.9,1.35399,0.948731,0.564602,-0.390771,0.474131,0.0239343,0.165984,0.162113,0.00817701,0.020537,0.494797,5,0.1,7,0.9,0.299285,2.9492,0.593878,-0.326836,-0.866026,0.00333451,-0.186613,0,0.0018999,0.0159212,2.20134,5,0.1,8,0.9,3.84556,0.713545,0.619176,-0.29781,0.866025,-0.00820374,-0.170037,3.72529e-06,-0.00467524,0.0127415,2.21296,5,0.1,9,0.9,1.56842,-2.92841,0.704866,-0.456476,-0.352616,0.0305179,-0.233583,-0.12061,0.0104345,0.0109544,0.527608,5,0.1,10,0.9,3.47292,2.45792,0.50003,-0.246532,0.36649,-0.000191294,-0.204325,0.125289,0.000804663,0.0128658,0.289541,5,0.1,11,0.9,-1.69562,3.00434,0.565266,0.441091,0.706965,0.0234825,0.228301,0.241667,0.0080131,0.0164129,0.941856,5,0.1,12,0.9,0.409816,-0.922082,0.557699,-0.479919,0.522002,0.0286151,-0.164064,0.178453,0.00978261,0.0117996,0.583303,5,0.1,13,0.9,-2.37757,3.55724,0.571264,0.390482,-0.86314,0.0194304,0.133485,-0.0635833,0.00663847,0.019113,1.09335,5,0.1,14,0.9,-3.9672,-1.34106,0.699931,0.285459,0.866026,0.0174835,0.163138,0,0.00998378,0.0178791,2.21745,5,0.1,15,0.9,-2.96586,-1.27221,0.562616,0.750401,0.35188,0.0596416,0.256538,0.120267,0.0203885,0.0113136,0.799738,5,0.1,16,0.9,-1.95095,-3.77935,0.548811,0.417984,0.865649,0.0129586,0.239708,0.0150651,0.00741333,0.0470267,2.16066,5,0.1,17,0.9,0.297666,1.89028,0.600051,0.390745,0.630679,-0.0617404,0.0705589,0.272319,-0.023324,0.0109311,0.702819,5,0.1,18,0.9,4.07081,1.77631,0.637255,-0.618617,0.822062,-0.0250218,-0.220358,0.292882,-0.00890717,0.0191094,1.24623,5,0.1,19,0.9,-3.63221,0.396172,0.648565,-0.33812,-0.335939,-0.0618019,-0.115529,-0.114851,-0.021141,0.0109522,0.267547,5,0.1,20,0.9,-1.2027,-1.15547,0.649819,-0.204927,0.866026,-0.017093,-0.116907,0,-0.00976399,0.0167719,2.24346,5,0.1,21,0.9,-3.38572,-2.24414,0.500504,0.0447374,0.864664,-0.00327369,-0.0386089,0.0544786,0.0138395,0.0195878,2.29081,5,0.1,22,0.9,3.53851,-2.1055,0.555422,0.179362,0.866026,0.00940189,0.102594,0,0.00537932,0.015355,2.25013,5,0.1,23,0.9,-0.809936,-3.63121,0.519288,0.866026,-0.0323102,0.0180009,0,-0.0183284,0.0102036,0.0101553,2.27099,5,0.1,24,0.9,-0.920187,0.211059,0.653805,0.520745,0.770052,-0.0363735,0.178024,0.26326,-0.0124276,0.0300016,1.00237,5,0.1,25,0.9,1.8027,-0.536976,0.506806,-0.113482,0.865364,-0.0220484,0.296228,0.026446,0.0258572,0.0113523,2.33069,5,0.1,26,0.9,0.0751202,2.08083,0.561871,-0.346404,-0.2504,0.0203203,0.0287287,0.610337,-0.0859201,0.00683232,0.595329,5,0.1,27,0.9,-0.0482535,4.0428,0.600197,0.263653,-0.440542,-7.59028e-05,0.143541,0.433087,-5.58794e-05,0.013852,2.89388,5,0.1,28,0.9,-0.238395,-1.8925,0.502217,0.186431,0.863187,-0.0112691,-0.593524,0.0605732,0.0342987,0.0111573,1.3189,5,0.1,29,0.9,-3.01849,3.29148,0.600142,0.823205,-0.60228,-9.47155e-05,0.283048,-0.206947,-4.09782e-05,0.0122417,1.20728,5,0.1
0,1,0.424221,-3.5865,0.562429,-0.534818,0.211537,0.0277326,0.0115633,-0.00464916,-0.000596046,0.0211433,0.319698,5,0.1,1,1,3.78163,-3.09965,0.62753,-0.0704944,0.866026,-0.00250787,-0.00762939,0,-0.0109076,0.0276728,2.26859,5,0.1,2,1,3.50665,3.83962,0.618982,-0.702679,-0.730824,-0.0140145,0.0422001,0.015974,0.000298023,0.0217738,0.896902,5,0.1,3,1,1.48443,-0.311288,0.544008,0.338572,0.0940971,-0.0119865,-0.490427,-0.0936687,0.0217855,0.00764761,0.272279,5,0.1,4,1,3.40236,2.93728,0.598083,-0.569224,0.0463009,0.00141412,0.438452,-0.000953674,-2.98023e-05,0.0144241,0.427539,5,0.1,5,1,2.16568,-3.7183,0.666821,-0.200307,0.866026,-0.0138611,-0.0436306,0,-0.00303984,0.0153388,2.24423,5,0.1,6,1,1.3162,0.996703,0.567023,-0.360793,0.482434,0.024353,0.416338,-0.0103712,-0.000536442,0.0173621,0.278367,5,0.1,7,1,0.26582,2.8626,0.59422,-0.340582,-0.866026,0.00347495,-0.0740516,0,0.000745058,0.00794929,1.98167,5,0.1,8,1,3.81506,0.800148,0.618336,-0.310338,0.866026,-0.00854731,-0.0674725,0,-0.00187755,0.0114606,2.20691,5,0.1,9,1,1.52178,-2.96409,0.707954,-0.473994,-0.358796,0.0310525,-0.0955462,0.0077486,-0.000685453,0.00977632,0.437818,5,0.1,10,1,3.44737,2.49501,0.500014,-0.262803,0.372905,-0.000119209,-0.108957,-0.00798702,0.000685453,0.00992966,0.204245,5,0.1,11,1,-1.65054,3.07587,0.567642,0.458342,0.719345,0.0238925,0.0956655,-0.0154972,-0.000536442,0.00934442,0.656383,5,0.1,12,1,0.361258,-0.869266,0.560594,-0.488322,0.531143,0.0291154,0.01055,-0.0114739,-0.000625849,0.0128155,0.39667,5,0.1,13,1,-2.33806,3.47095,0.57323,0.397319,-0.8596,0.0197709,-0.00858307,0.128508,-0.000447035,0.0125298,0.761043,5,0.1,14,1,-3.93797,-1.25446,0.701721,0.297487,0.866026,0.0182196,0.0649691,0,0.00399351,0.0154271,2.21177,5,0.1,15,1,-2.88994,-1.2366,0.568651,0.763541,0.358039,0.0606865,-0.0164509,-0.0077486,-0.0013411,0.00854544,0.543858,5,0.1,16,1,-1.90815,-3.69276,0.550138,0.435689,0.866026,0.0135064,0.0960827,0,0.00298023,0.032772,2.21566,5,0.1,17,1,0.336838,1.95438,0.593792,0.389987,0.647575,-0.0630513,-0.0917912,0.0436902,-0.000923872,0.00785249,0.518936,5,0.1,18,1,4.00817,1.85954,0.634721,-0.630289,0.837564,-0.0254929,0.00619888,-0.00798702,0.000238419,0.0179513,0.848651,5,0.1,19,1,-3.66642,0.362182,0.642312,-0.344038,-0.341821,-0.0628859,0.00751019,0.00736117,0.00137091,0.00932414,0.181944,5,0.1,20,1,-1.22368,-1.06886,0.648069,-0.213537,0.866026,-0.0178114,-0.0462532,-2.98023e-05,-0.0039041,0.0124122,2.24058,5,0.1,21,1,-3.38144,-2.15756,0.500242,0.0407279,0.866026,-0.00200719,-0.0424385,0,0.0113547,0.0143449,2.27148,5,0.1,22,1,3.55687,-2.01889,0.556385,0.186932,0.866026,0.009799,0.0407696,-5.96046e-05,0.00214577,0.00767524,2.24785,5,0.1,23,1,-0.723334,-3.63452,0.52113,0.866026,-0.0336528,0.0187501,0,-0.00727177,0.00402331,0.00851646,2.27091,5,0.1,24,1,-0.867498,0.288973,0.650125,0.529863,0.783537,-0.0370115,-0.0114441,-0.0169277,0.000834465,0.0268708,0.681644,5,0.1,25,1,1.79257,-0.450386,0.504751,-0.0914037,0.866025,-0.0188738,0.155389,1.43051e-05,0.0365376,0.00741048,1.10647,5,0.1,26,1,0.0409318,2.05956,0.563385,-0.334373,-0.169367,0.00928044,0.208079,0.949979,-0.126421,0.00899553,0.274621,5,0.1,27,1,-0.0212968,4,0.600189,0.273932,-0.424582,-8.04663e-05,0.0510991,-0.097394,-2.98023e-05,0.0136131,2.74454,5,0.1,28,1,-0.222673,-1.80622,0.50126,0.128903,0.859198,-0.00791252,-0.541113,-0.136554,0.0321865,0.0112306,2.73209,5,0.1,29,1,-2.93519,3.23054,0.600132,0.837767,-0.612921,-9.68575e-05,-0.0168085,0.0122786,-2.98023e-05,0.0112756,0.821119,5,0.1
0,1.1,0.37082,-3.56522,0.565198,-0.532473,0.215051,0.0276117,0.054916,0.0572801,-0.00283867,0.0211433,0.319698,5,0.1,1,1.1,3.77453,-3.01305,0.627225,-0.0716425,0.866026,-0.00355318,-0.0112653,0,-0.00964105,0.0276728,2.26859,5,0.1,2,1.1,3.43759,3.76665,0.617583,-0.669582,-0.727605,-0.0139535,0.583872,0.0751466,0.00143424,0.0217738,0.896902,5,0.1,3,1.1,1.51593,-0.302465,0.542916,0.292642,0.0814374,-0.00991048,-0.422619,-0.149358,0.0192411,0.00764761,0.272279,5,0.1,4,1.1,3.3483,2.9419,0.598224,-0.506303,0.0461016,0.00140788,0.780046,-0.00472367,-0.000145286,0.0144241,0.427539,5,0.1,5,1.1,2.14538,-3.63169,0.665417,-0.205649,0.866026,-0.0142323,-0.0511855,0,-0.00355393,0.0153388,2.24423,5,0.1,6,1.1,1.28254,1.04487,0.569455,-0.30956,0.480323,0.0242452,0.588574,-0.0494942,-0.00250712,0.0173621,0.278367,5,0.1,7,1.1,0.231721,2.77608,0.594591,-0.338242,-0.8627,0.00410844,0.115975,0.0956804,0.0105128,0.00794929,1.98167,5,0.1,8,1.1,3.78363,0.88675,0.61747,-0.318488,0.866026,-0.00877399,-0.0771582,-3.72529e-06,-0.00214577,0.0114606,2.20691,5,0.1,9,1.1,1.47461,-2.99992,0.711054,-0.462829,-0.357224,0.0309151,0.2959,0.0368059,-0.0031963,0.00977632,0.437818,5,0.1,10,1.1,3.42059,2.53215,0.500005,-0.272285,0.368748,-6.1281e-05,-0.0692308,-0.0831783,0.000476837,0.00992966,0.204245,5,0.1,11,1.1,-1.60419,3.14769,0.570027,0.468471,0.716195,0.0237862,0.0832304,-0.0738204,-0.00246614,0.00934442,0.656383,5,0.1,12,1.1,0.312499,-0.816231,0.563501,-0.486181,0.528815,0.0289872,0.0501368,-0.0545271,-0.00299513,0.0128155,0.39667,5,0.1,13,1.1,-2.29839,3.38553,0.575204,0.395578,-0.848884,0.0196827,-0.0407845,0.122696,-0.00204518,0.0125298,0.761043,5,0.1,14,1.1,-3.90784,-1.16786,0.703567,0.305367,0.866026,0.0187038,0.074923,0,0.00460446,0.0154271,2.21177,5,0.1,15,1.1,-2.8137,-1.20085,0.57471,0.760198,0.356468,0.0604181,-0.0783503,-0.0367761,-0.00625104,0.00854544,0.543858,5,0.1,16,1.1,-1.86401,-3.6064,0.551507,0.447458,0.858083,0.0138715,0.11301,-0.176847,0.00350922,0.032772,2.21566,5,0.1,17,1.1,0.374859,2.01934,0.587485,0.365756,0.650784,-0.0630156,-0.37289,-0.00570714,0.00404939,0.00785249,0.518936,5,0.1,18,1.1,3.9452,1.94322,0.632174,-0.628246,0.834872,-0.0254116,0.0579059,-0.0767782,0.00232831,0.0179513,0.848651,5,0.1,19,1.1,-3.70077,0.328051,0.636033,-0.342523,-0.340324,-0.0626095,0.0353456,0.0350792,0.0064522,0.00932414,0.181944,5,0.1,20,1.1,-1.24531,-0.982261,0.646265,-0.219139,0.866025,-0.0182822,-0.0531003,3.72529e-06,-0.00445545,0.0124122,2.24058,5,0.1,21,1.1,-3.37757,-2.07096,0.500093,0.0369184,0.866026,-0.00103768,-0.0350475,0,0.00800937,0.0143449,2.27148,5,0.1,22,1.1,3.57581,-1.93229,0.557377,0.191908,0.866025,0.0100603,0.0475645,1.49012e-05,0.00249594,0.00767524,2.24785,5,0.1,23,1.1,-0.636731,-3.63793,0.523029,0.866026,-0.0345856,0.0192269,-3.72529e-06,-0.00929832,0.00442192,0.00851646,2.27091,5,0.1,24,1.1,-0.814592,0.367208,0.646429,0.52754,0.780101,-0.0368467,-0.0544079,-0.0804475,0.0038147,0.0268708,0.681644,5,0.1,25,1.1,1.7851,-0.365784,0.503059,-0.0506973,0.808369,-0.0148788,0.601269,-1.06104,0.0420883,0.00741048,1.10647,5,0.1,26,1.1,0.00836292,2.0465,0.563798,-0.318264,-0.0996489,4.02331e-05,0.131958,0.47709,-0.0622571,0.00899553,0.274621,5,0.1,27,1.1,0.00638736,3.95572,0.600066,0.279724,-0.471666,-0.00334494,0.0500125,-0.74026,-0.0580028,0.0136131,2.74454,5,0.1,28,1.1,-0.212544,-1.72057,0.500622,0.0744741,0.856633,-0.00494812,-0.495575,0.0287294,0.0266954,0.0112306,2.73209,5,0.1,29,1.1,-2.85153,3.16934,0.600122,0.834217,-0.610325,-9.90927e-05,-0.0848621,0.0620931,-7.45058e-06,0.0112756,0.821119,5,0.1
0,1.2,0.318049,-3.54345,0.567934,-0.520591,0.219953,0.0269979,0.195563,0.0280142,-0.0101626,0.0214264,0.221051,5,0.1,1,1.2,3.76733,-2.92644,0.626826,-0.0720501,0.866026,-0.00437647,0.00584126,0,-0.00658631,0.0253878,2.26857,5,0.1,2,1.2,3.3742,3.69454,0.6162,-0.592583,-0.711358,-0.013642,0.925303,0.267148,0.0050962,0.0236403,0.718264,5,0.1,3,1.2,1.54322,-0.295094,0.542014,0.254613,0.0658937,-0.00820309,-0.337958,-0.155017,0.0147521,0.00744439,0.238677,5,0.1,4,1.2,3.30187,2.94647,0.598364,-0.420243,0.045079,0.00137687,0.910997,-0.0169277,-0.000506639,0.0137161,0.395434,5,0.1,5,1.2,2.12463,-3.54509,0.663981,-0.208497,0.866026,-0.0144303,0.0025034,0,0.000178814,0.0123072,2.24355,5,0.1,6,1.2,1.25468,1.09248,0.571858,-0.246653,0.46961,0.0237033,0.653565,-0.17643,-0.00888109,0.0177945,0.147732,5,0.1,7,1.2,0.198755,2.69064,0.595061,-0.318424,-0.842088,0.00532866,0.274874,0.335455,0.0127852,0.0102202,1.61485,5,0.1,8,1.2,3.7515,0.973353,0.616585,-0.322646,0.866026,-0.00889003,0.00655651,0,0.000178814,0.00906237,2.20597,5,0.1,9,1.2,1.4303,-3.03532,0.714118,-0.419125,-0.349253,0.0302255,0.557959,0.131011,-0.0113845,0.00753086,0.381456,5,0.1,10,1.2,3.39315,2.56843,0.500001,-0.274748,0.355005,-2.38419e-05,0.0274181,-0.196218,0.000268221,0.0111983,0.147756,5,0.1,11,1.2,-1.5571,3.21867,0.572385,0.471002,0.700217,0.0232562,-0.048697,-0.262976,-0.00876188,0.0130741,0.445121,5,0.1,12,1.2,0.264316,-0.763823,0.566374,-0.475333,0.517017,0.028339,0.178553,-0.194192,-0.0106692,0.00853683,0.263766,5,0.1,13,1.2,-2.25918,3.30149,0.577155,0.386757,-0.82885,0.0192419,-0.145316,0.302911,-0.00721216,0.0127872,0.521203,5,0.1,14,1.2,-3.87703,-1.08126,0.705454,0.309467,0.866026,0.0189573,-0.00536442,0,-0.000357628,0.0143775,2.21065,5,0.1,15,1.2,-2.73836,-1.16553,0.580698,0.74324,0.348514,0.0590697,-0.279069,-0.130892,-0.0222325,0.00761941,0.361638,5,0.1,16,1.2,-1.81884,-3.52189,0.552907,0.45383,0.827819,0.0140697,-0.0038147,-0.43869,-0.000119209,0.0336678,2.55603,5,0.1,17,1.2,0.409244,2.08413,0.581228,0.319108,0.642085,-0.0618443,-0.543058,-0.185847,0.0210404,0.00743482,0.3859,5,0.1,18,1.2,3.88291,2.026,0.629654,-0.614858,0.81709,-0.02487,0.225425,-0.299215,0.00905991,0.0183103,0.564811,5,0.1,19,1.2,-3.73472,0.294323,0.629828,-0.334877,-0.332732,-0.0612125,0.125766,0.124976,0.0229776,0.00809181,0.120986,5,0.1,20,1.2,-1.26742,-0.895658,0.64442,-0.222009,0.866026,-0.0185236,0.00447035,0,0.00038743,0.0109253,2.24008,5,0.1,21,1.2,-3.37405,-1.98436,0.500024,0.0334859,0.866026,-0.000402331,-0.0343323,-5.96046e-05,0.00476837,0.0121902,2.27165,5,0.1,22,1.2,3.59518,-1.84569,0.558393,0.194544,0.866026,0.0101998,-0.0026226,-5.96046e-05,-0.000178814,0.00933,2.2473,5,0.1,23,1.2,-0.550129,-3.64142,0.524967,0.866026,-0.0351489,0.019452,0,-0.000596046,-0.000715256,0.00897687,2.31624,5,0.1,24,1.2,-0.76231,0.444521,0.642778,0.515768,0.762697,-0.0360236,-0.193745,-0.286535,0.0135303,0.0300606,0.453256,5,0.1,25,1.2,1.78338,-0.291373,0.501782,0.0186324,0.67056,-0.0106797,0.740707,-1.61982,0.0408888,0.0101374,0.407229,5,0.1,26,1.2,-0.0228096,2.03837,0.56357,-0.30491,-0.067997,-0.00388473,0.147992,0.182748,-0.0195205,0.00644079,0.200749,5,0.1,27,1.2,0.0345095,3.9045,0.599395,0.28145,-0.554347,-0.0103921,-0.02563,-0.834346,-0.0773072,0.0133687,2.46986,5,0.1,28,1.2,-0.207184,-1.63487,0.500249,0.0372879,0.855243,-0.00263304,-0.225045,-0.0968575,0.0194311,0.0122953,2.72039,5,0.1,29,1.2,-2.76885,3.10885,0.600112,0.815707,-0.596786,-9.83477e-05,-0.305533,0.223398,2.98023e-05,0.00878117,0.548135,5,0.1
0,1.3,0.266946,-3.52125,0.570585,-0.501259,0.224395,0.0259941,0.207263,0.0469834,-0.0107512,0.0214264,0.221051,5,0.1,1,1.3,3.76013,-2.83984,0.626357,-0.0720315,0.866026,-0.00500418,-0.0013411,0,-0.00564009,0.0253878,2.26857,5,0.1,2,1.3,3.31996,3.62471,0.614861,-0.489165,-0.684947,-0.0131377,1.11298,0.283152,0.00541285,0.0236403,0.718264,5,0.1,3,1.3,1.56728,-0.289296,0.541254,0.228834,0.0499929,-0.00710404,-0.195317,-0.159899,0.00793859,0.00744439,0.238677,5,0.1,4,1.3,3.26453,2.9509,0.598499,-0.326164,0.043406,0.00132648,0.928998,-0.0179261,-0.000540167,0.0137161,0.395434,5,0.1,5,1.3,2.10373,-3.45849,0.662534,-0.209758,0.866026,-0.014517,-0.0156462,0,-0.00107661,0.0123072,2.24355,5,0.1,6,1.3,1.23327,1.13858,0.574185,-0.182032,0.452169,0.0228249,0.628211,-0.186972,-0.00942126,0.0177945,0.147732,5,0.1,7,1.3,0.168493,2.60806,0.595663,-0.284964,-0.809537,0.00675125,0.385646,0.342533,0.0147112,0.0102202,1.61485,5,0.1,8,1.3,3.71918,1.05996,0.615695,-0.324102,0.866026,-0.00893073,-0.0175834,0,-0.000495464,0.00906237,2.20597,5,0.1,9,1.3,1.39151,-3.06961,0.717085,-0.353866,-0.3363,0.0291007,0.72553,0.138909,-0.012055,0.00753086,0.381456,5,0.1,10,1.3,3.36587,2.6028,0.5,-0.270225,0.330962,-3.63216e-06,0.0698119,-0.283495,0.000137836,0.0111983,0.147756,5,0.1,11,1.3,-1.51022,3.28741,0.574667,0.466484,0.674221,0.0223908,-0.0607744,-0.278726,-0.00927225,0.0130741,0.445121,5,0.1,12,1.3,0.217656,-0.713071,0.569156,-0.457682,0.49782,0.0272841,0.189241,-0.205815,-0.0113063,0.00853683,0.263766,5,0.1,13,1.3,-2.22122,3.22002,0.579044,0.372393,-0.800734,0.0185286,-0.153989,0.2895,-0.00765547,0.0127872,0.521203,5,0.1,14,1.3,-3.84602,-0.994654,0.707353,0.311039,0.866026,0.0190516,0.0192225,-3.72529e-06,0.00116602,0.0143775,2.21065,5,0.1,15,1.3,-2.6654,-1.13131,0.586496,0.715651,0.335575,0.056873,-0.295818,-0.13873,-0.0235401,0.00761941,0.361638,5,0.1,16,1.3,-1.77335,-3.44229,0.554317,0.456751,0.75585,0.0141604,0.0358596,-0.944674,0.00111759,0.0336678,2.55603,5,0.1,17,1.3,0.438264,2.14744,0.575146,0.259938,0.623658,-0.0597633,-0.624917,-0.204176,0.0225678,0.00743482,0.3859,5,0.1,18,1.3,3.82253,2.10625,0.627212,-0.592548,0.78747,-0.0239724,0.239983,-0.318691,0.0096634,0.0183103,0.564811,5,0.1,19,1.3,-3.76759,0.261661,0.623819,-0.322444,-0.320377,-0.0589411,0.133276,0.132462,0.0243522,0.00809181,0.120986,5,0.1,20,1.3,-1.28966,-0.809055,0.642565,-0.223055,0.866026,-0.0186095,-0.0128374,-3.72529e-06,-0.00105798,0.0109253,2.24008,5,0.1,21,1.3,-3.37085,-1.89776,0.500003,0.0305627,0.866025,-5.83008e-05,-0.0255555,1.49012e-05,0.00227243,0.0121902,2.27165,5,0.1,22,1.3,3.61467,-1.75909,0.559415,0.19567,0.866025,0.0102554,0.0139326,1.49012e-05,0.00070408,0.00933,2.2473,5,0.1,23,1.3,-0.463535,-3.64543,0.526888,0.865583,-0.0491131,0.0187824,-0.0177099,-0.246301,-0.0121407,0.00897687,2.31624,5,0.1,24,1.3,-0.711681,0.519389,0.639242,0.496615,0.734371,-0.0346863,-0.205349,-0.303667,0.0143312,0.0300606,0.453256,5,0.1,25,1.3,1.78924,-0.232371,0.50091,0.100384,0.510461,-0.0068563,0.85225,-1.5623,0.0349469,0.0101374,0.407229,5,0.1,26,1.3,-0.0526656,2.03204,0.563142,-0.292892,-0.0622433,-0.00417158,0.106651,-0.0428706,0.0108704,0.00644079,0.200749,5,0.1,27,1.3,0.0625819,3.84428,0.598041,0.280196,-0.654,-0.0160043,-0.0134064,-1.07239,-0.0367127,0.0133687,2.46986,5,0.1,28,1.3,-0.204193,-1.5495,0.500069,0.0282699,0.854024,-0.00108266,0.110407,0.0206754,0.0117831,0.0122953,2.72039,5,0.1,29,1.3,-2.68891,3.05022,0.600104,0.781766,-0.575743,-5.31785e-05,-0.390381,0.218347,0.000786036,0.00878117,0.548135,5,0.1
0,1.4,0.217983,-3.49863,0.573124,-0.476451,0.226992,0.0247076,0.299603,-0.00464916,-0.015527,0.0213632,0.150256,5,0.1,1,1.4,3.75294,-2.75324,0.625832,-0.0716209,0.866026,-0.00545084,0.012517,0,-0.00301003,0.0242707,2.26866,5,0.1,2,1.4,3.27671,3.55781,0.613577,-0.37536,-0.651056,-0.0124887,1.13928,0.409484,0.00783801,0.0248763,0.623958,5,0.1,3,1.4,1.5893,-0.285083,0.540577,0.212449,0.0344597,-0.00649095,-0.145793,-0.148401,0.00488758,0.00699635,0.198076,5,0.1,4,1.4,3.23633,2.95514,0.598629,-0.240833,0.0412583,0.00126213,0.755429,-0.0259876,-0.000804663,0.0074232,0.364842,5,0.1,5,1.4,2.08273,-3.37189,0.661081,-0.20957,0.866026,-0.0145033,0.027895,0,0.00193715,0.011677,2.24393,5,0.1,6,1.4,1.21809,1.18274,0.576414,-0.122818,0.429788,0.0216961,0.548542,-0.270188,-0.0136197,0.0200204,0.286476,5,0.1,7,1.4,0.142047,2.52901,0.596408,-0.242919,-0.769085,0.00810474,0.447679,0.484228,0.0117123,0.0077239,1.33095,5,0.1,8,1.4,3.68677,1.14656,0.614801,-0.323087,0.866026,-0.00890195,0.0506639,0,0.0013411,0.00813965,2.20799,5,0.1,9,1.4,1.35988,-3.10246,0.719927,-0.277928,-0.319666,0.027658,0.775933,0.200868,-0.0173748,0.0067896,0.35565,5,0.1,10,1.4,3.33931,2.63435,0.5,-0.259703,0.298631,4.47035e-06,0.144839,-0.361204,2.98023e-05,0.0122391,0.196785,5,0.1,11,1.4,-1.46402,3.35327,0.576855,0.455651,0.640851,0.0212818,-0.168741,-0.402808,-0.0133812,0.0120017,0.297042,5,0.1,12,1.4,0.172949,-0.664444,0.571821,-0.43503,0.473185,0.025931,0.273556,-0.297546,-0.0163019,0.00970007,0.173616,5,0.1,13,1.4,-2.18484,3.14157,0.580854,0.353962,-0.765908,0.0176117,-0.222564,0.427365,-0.0110567,0.0113355,0.351191,5,0.1,14,1.4,-3.8149,-0.908051,0.709259,0.310326,0.866026,0.0190064,-0.0458956,0,-0.00280142,0.0147942,2.21212,5,0.1,15,1.4,-2.59549,-1.09854,0.592051,0.680238,0.318965,0.0540569,-0.427604,-0.20051,-0.0340044,0.00868447,0.238033,5,0.1,16,1.4,-1.7276,-3.37188,0.555735,0.456515,0.648671,0.0141516,-0.0591278,-1.15693,-0.00178814,0.033222,2.87425,5,0.1,17,1.4,0.461104,2.20861,0.569298,0.196872,0.59768,-0.0569999,-0.624344,-0.329733,0.0339448,0.00717803,0.30027,5,0.1,18,1.4,3.76462,2.1832,0.624869,-0.563669,0.749105,-0.0228062,0.350356,-0.465393,0.0141263,0.0175725,0.37392,5,0.1,19,1.4,-3.79909,0.230366,0.618061,-0.306487,-0.304521,-0.0560254,0.192642,0.191473,0.0351965,0.00898987,0.135623,5,0.1,20,1.4,-1.31197,-0.722453,0.640703,-0.222442,0.866026,-0.0185564,0.0338554,0,0.00283122,0.0103381,2.24093,5,0.1,21,1.4,-3.36792,-1.81115,0.500005,0.0281215,0.866026,8.19564e-05,-0.0241995,-5.96046e-05,0.000625849,0.0132865,2.27176,5,0.1,22,1.4,3.63426,-1.67248,0.560441,0.19542,0.866026,0.0102401,-0.0267029,-5.96046e-05,-0.00140071,0.00935634,2.24769,5,0.1,23,1.4,-0.377207,-3.65176,0.528691,0.858943,-0.0786602,0.0171259,-0.14165,-0.319719,-0.0204742,0.00834743,2.28887,5,0.1,24,1.4,-0.663171,0.591122,0.635853,0.472036,0.698026,-0.0329703,-0.296831,-0.438958,0.0207126,0.0274849,0.298342,5,0.1,25,1.4,1.80344,-0.188904,0.500386,0.181785,0.361564,-0.00378489,0.74476,-1.40084,0.0261664,0.0105004,0.260767,5,0.1,26,1.4,-0.0813942,2.0254,0.562809,-0.281143,-0.0721455,-0.00223368,0.13842,-0.136018,0.0256002,0.00865829,0.154146,5,0.1,27,1.4,0.0904612,3.7737,0.596312,0.276404,-0.753909,-0.0180736,-0.0720954,-0.862956,-0.00625849,0.0125265,2.28649,5,0.1,28,1.4,-0.2,-1.46415,0.500009,0.063305,0.850528,-0.000225008,0.563912,-0.127375,0.00566244,0.0109576,2.12074,5,0.1,29,1.4,-2.61293,2.99387,0.600103,0.734895,-0.54962,4.17233e-05,-0.557423,0.31817,0.00107288,0.0117381,0.37547,5,0.1
0,1.5,0.171778,-3.47592,0.57552,-0.447873,0.22724,0.0232268,0.285495,-0.00143051,-0.0147894,0.0213632,0.150256,5,0.1,1,1.5,3.74581,-2.66664,0.625271,-0.0710499,0.866026,-0.00575054,0.00305474,0,-0.00265986,0.0242707,2.26866,5,0.1,2,1.5,3.24477,3.49483,0.612367,-0.264772,-0.60759,-0.0117091,1.05245,0.468552,0.0080429,0.0248763,0.623958,5,0.1,3,1.5,1.61015,-0.282264,0.539937,0.207241,0.0229666,-0.00643339,0.0165477,-0.0855718,-0.00265986,0.00699635,0.198076,5,0.1,4,1.5,3.21558,2.95967,0.599008,-0.178245,0.0537891,0.0084783,0.510305,0.241682,0.128772,0.0074232,0.364842,5,0.1,5,1.5,2.06184,-3.28528,0.659635,-0.208666,0.866026,-0.0144402,0.00233948,0,0.000167638,0.011677,2.24393,5,0.1,6,1.5,1.20837,1.22442,0.578518,-0.0734488,0.404014,0.0203966,0.434421,-0.257492,-0.0129901,0.0200204,0.286476,5,0.1,7,1.5,0.120055,2.45421,0.597277,-0.196503,-0.729118,0.00925129,0.472811,0.350744,0.0105537,0.0077239,1.33095,5,0.1,8,1.5,3.65461,1.23316,0.613915,-0.320612,0.866026,-0.00883844,0.016585,0,0.000417233,0.00813965,2.20799,5,0.1,9,1.5,1.33592,-3.13346,0.72261,-0.201891,-0.300503,0.0260005,0.732407,0.19145,-0.0165626,0.0067896,0.35565,5,0.1,10,1.5,3.31403,2.66235,0.500001,-0.245931,0.260855,5.40167e-06,0.138491,-0.391603,-7.45058e-06,0.0122391,0.196785,5,0.1,11,1.5,-1.41926,3.41541,0.578918,0.439604,0.602426,0.0200056,-0.167839,-0.383899,-0.0127479,0.0120017,0.297042,5,0.1,12,1.5,0.130761,-0.618556,0.574335,-0.408937,0.444803,0.0243755,0.260676,-0.283532,-0.0155419,0.00970007,0.173616,5,0.1,13,1.5,-2.15052,3.067,0.582562,0.332734,-0.725974,0.0165566,-0.212073,0.396103,-0.0105463,0.0113355,0.351191,5,0.1,14,1.5,-3.784,-0.821449,0.711152,0.308343,0.866026,0.0188862,-0.0111908,-3.72529e-06,-0.000674278,0.0147942,2.21212,5,0.1,15,1.5,-2.52953,-1.0676,0.597293,0.639448,0.299838,0.0508139,-0.407517,-0.191092,-0.0323951,0.00868447,0.238033,5,0.1,16,1.5,-1.68209,-3.31322,0.557146,0.454588,0.522802,0.0140957,-0.00564009,-1.27386,-0.000145286,0.033222,2.87425,5,0.1,17,1.5,0.477739,2.26679,0.563761,0.136806,0.566166,-0.0537593,-0.566814,-0.318378,0.0325218,0.00717803,0.30027,5,0.1,18,1.5,3.71004,2.25579,0.622666,-0.527358,0.702273,-0.0211836,0.385523,-0.487208,0.0183694,0.0175725,0.37392,5,0.1,19,1.5,-3.82897,0.200675,0.612599,-0.292673,-0.29079,-0.053502,0.102654,0.102051,0.0187494,0.00898987,0.135623,5,0.1,20,1.5,-1.33412,-0.63585,0.638856,-0.220905,0.866026,-0.0184274,0.00929832,-3.72529e-06,0.000786036,0.0103381,2.24093,5,0.1,21,1.5,-3.36521,-1.72455,0.500015,0.0261795,0.866025,0.000106357,-0.0161082,1.49012e-05,-7.45058e-05,0.0132865,2.27176,5,0.1,22,1.5,3.65374,-1.58588,0.561462,0.194481,0.866025,0.0101909,-0.00332296,1.49012e-05,-0.000171363,0.00935634,2.24769,5,0.1,23,1.5,-0.291497,-3.66093,0.530323,0.858941,-0.101931,0.015698,0.0811265,-0.151426,-0.00952929,0.00834743,2.28887,5,0.1,24,1.5,-0.617395,0.658815,0.632656,0.443722,0.656155,-0.0309945,-0.282861,-0.418272,0.0197403,0.0274849,0.298342,5,0.1,25,1.5,1.82524,-0.158941,0.500121,0.252722,0.245219,-0.00166716,0.649907,-0.949053,0.0163428,0.0105004,0.260767,5,0.1,26,1.5,-0.108888,2.01732,0.562737,-0.269158,-0.0908628,0.000974443,0.11281,-0.219524,0.0363924,0.00865829,0.154146,5,0.1,27,1.5,0.117843,3.69449,0.594508,0.271869,-0.824809,-0.0176976,-0.033911,-0.533804,0.012517,0.0125265,2.28649,5,0.1,28,1.5,-0.189893,-1.37968,0.500008,0.146367,0.838607,0.000150409,1.01721,-0.144668,0.00209734,0.0109576,2.12074,5,0.1,29,1.5,-2.54236,2.94039,0.600115,0.675137,-0.520477,0.000214297,-0.641868,0.283599,0.0021942,0.0117381,0.37547,5,0.1
0,1.6,0.128485,-3.45328,0.577765,-0.417091,0.224847,0.021632,0.339217,-0.0538826,-0.0175834,0.0216234,0.100997,5,0.1,1,1.6,3.73873,-2.58003,0.624686,-0.0703096,0.866026,-0.00592768,0.0149012,0,-0.000655651,0.0258775,2.26877,5,0.1,2,1.6,3.22328,3.43656,0.611239,-0.168145,-0.555998,-0.0108331,0.867367,0.568151,0.00962615,0.0240782,0.599596,5,0.1,3,1.6,1.63105,-0.280319,0.539275,0.211358,0.0165969,-0.00683367,0.0468493,-0.0452101,-0.00452995,0.00698331,0.157015,5,0.1,4,1.6,3.2,2.96646,0.600602,-0.136167,0.0834048,0.0241116,0.343442,0.323772,0.171155,0.00707074,0.337975,5,0.1,5,1.6,2.04102,-3.19868,0.658195,-0.207037,0.866026,-0.0143275,0.0389814,0,0.00271201,0.0115017,2.24476,5,0.1,6,1.6,1.20298,1.26348,0.58049,-0.0365019,0.376251,0.018996,0.303268,-0.305951,-0.0154376,0.0190884,0.690903,5,0.1,7,1.6,0.102757,2.38307,0.598249,-0.149758,-0.692827,0.010103,0.455924,0.400543,0.00602007,0.00872927,0.603843,5,0.1,8,1.6,3.6227,1.31976,0.613035,-0.316745,0.866026,-0.00873506,0.0734329,0,0.00202656,0.00961184,1.9189,5,0.1,9,1.6,1.31924,-3.16251,0.725123,-0.133529,-0.279856,0.0242144,0.626445,0.227451,-0.0196993,0.00836378,0.524702,5,0.1,10,1.6,3.29017,2.68645,0.500001,-0.230688,0.220841,4.47035e-06,0.171661,-0.405908,-2.98023e-05,0.011951,0.179651,5,0.1,11,1.6,-1.37624,3.47365,0.580852,0.419471,0.561029,0.0186309,-0.245452,-0.456095,-0.0151396,0.0102658,0.196844,5,0.1,12,1.6,0.0912318,-0.575559,0.576692,-0.380831,0.414234,0.0226989,0.309726,-0.336915,-0.0184476,0.00966985,0.114112,5,0.1,13,1.6,-2.11835,2.9965,0.584162,0.309867,-0.682521,0.0154197,-0.252008,0.489712,-0.012517,0.00641183,0.528355,5,0.1,14,1.6,-3.75328,-0.734846,0.713034,0.305116,0.866026,0.0186905,-0.0654459,0,-0.00402331,0.0131382,2.2148,5,0.1,15,1.6,-2.46771,-1.03862,0.602205,0.59551,0.279233,0.0473216,-0.484347,-0.227034,-0.0385046,0.00934176,0.156446,5,0.1,16,1.6,-1.63675,-3.26696,0.558552,0.450915,0.407034,0.0139847,-0.0863075,-0.996709,-0.00268221,0.0338061,3.00734,5,0.1,17,1.6,0.488748,2.32172,0.558557,0.0851534,0.531018,-0.0502184,-0.459954,-0.39649,0.0393689,0.00733008,0.240054,5,0.1,18,1.6,3.65936,2.32344,0.620646,-0.485015,0.649047,-0.0191331,0.467181,-0.587344,0.0226498,0.0147775,0.364912,5,0.1,19,1.6,-3.85775,0.172086,0.607338,-0.282675,-0.28085,-0.0516757,0.111103,0.110455,0.0202954,0.00966238,0.0785847,5,0.1,20,1.6,-1.35612,-0.549248,0.63702,-0.218469,0.866026,-0.0182226,0.0481606,0,0.00399351,0.0093989,2.24242,5,0.1,21,1.6,-3.36267,-1.63795,0.500025,0.0246465,0.866026,7.7486e-05,-0.0156164,-5.96046e-05,-0.000447035,0.0119609,2.27184,5,0.1,22,1.6,3.67313,-1.49928,0.562478,0.192839,0.866026,0.0101045,-0.0374317,-5.96046e-05,-0.00193715,0.0107616,2.24849,5,0.1,23,1.6,-0.205218,-3.67164,0.531853,0.865433,-0.110066,0.0149682,0.011847,-0.0168085,-0.00616908,0.00806062,1.90859,5,0.1,24,1.6,-0.574503,0.722241,0.62966,0.413224,0.611056,-0.0288665,-0.336051,-0.496924,0.0234842,0.0267781,0.196089,5,0.1,25,1.6,1.85345,-0.138575,0.500021,0.307742,0.167518,-0.000467896,0.434399,-0.624344,0.00801682,0.0070373,0.221751,5,0.1,26,1.6,-0.135205,2.00712,0.56302,-0.256624,-0.112772,0.00466257,0.145904,-0.204623,0.0357628,0.00715907,0.203016,5,0.1,27,1.6,0.144821,3.60999,0.592823,0.267011,-0.858718,-0.0158027,-0.0740516,-0.146151,0.0242591,0.0144548,2.23185,5,0.1,28,1.6,-0.169965,-1.29679,0.50003,0.252658,0.815967,0.000239909,1.04785,-0.330806,-8.9407e-05,0.00989411,1.64533,5,0.1,29,1.6,-2.47822,2.88983,0.600148,0.605989,-0.489718,0.000448525,-0.742435,0.344634,0.00235438,0.0102006,0.272846,5,0.1
0,1.7,0.0883915,-3.43104,0.579844,-0.385291,0.219975,0.0199838,0.308173,-0.0524372,-0.015974,0.0216234,0.100997,5,0.1,1,1.7,3.73175,-2.49343,0.624089,-0.0695597,0.866026,-0.00601867,0.00421703,0,-0.00083819,0.0258775,2.26877,5,0.1,2,1.7,3.21046,3.38422,0.610184,-0.0921141,-0.48738,-0.0104317,0.64142,0.783175,-0.000208616,0.0240782,0.599596,5,0.1,3,1.7,1.65262,-0.2788,0.538561,0.221315,0.0145176,-0.00750581,0.130139,-0.00104494,-0.00799075,0.00698331,0.157015,5,0.1,4,1.7,3.18769,2.97623,0.604005,-0.113732,0.110197,0.0449261,0.126451,0.210151,0.230268,0.00707074,0.337975,5,0.1,5,1.7,2.02043,-3.11208,0.65677,-0.205239,0.866026,-0.014202,0.00912696,0,0.000644475,0.0115017,2.24476,5,0.1,6,1.7,1.20069,1.2998,0.582316,-0.0110624,0.352015,0.0175485,0.202484,-0.198945,-0.0140294,0.0190884,0.690903,5,0.1,7,1.7,0.0890666,2.31691,0.599359,-0.13257,-0.620488,0.0126786,-0.0570254,0.990495,0.0404455,0.00872927,0.603843,5,0.1,8,1.7,3.59131,1.40636,0.61217,-0.311425,0.865948,-0.00858828,0.0484884,-0.00310689,0.0013411,0.00961184,1.9189,5,0.1,9,1.7,1.30881,-3.18941,0.727451,-0.0773242,-0.25853,0.0223679,0.491686,0.206694,-0.0178926,0.00836378,0.524702,5,0.1,10,1.7,3.26817,2.7068,0.500002,-0.207684,0.188802,1.58325e-06,0.279635,-0.250146,-2.6077e-05,0.011951,0.179651,5,0.1,11,1.7,-1.33546,3.52758,0.582643,0.396348,0.518269,0.0172118,-0.229977,-0.414416,-0.0137538,0.0102658,0.196844,5,0.1,12,1.7,0.0546238,-0.53574,0.578874,-0.351796,0.382651,0.020969,0.281382,-0.306072,-0.0167675,0.00966985,0.114112,5,0.1,13,1.7,-2.08812,2.93185,0.585583,0.298994,-0.60054,0.0125044,-0.0025481,1.08923,-0.0423156,0.00641183,0.528355,5,0.1,14,1.7,-3.72298,-0.648244,0.71489,0.301446,0.866026,0.0184649,-0.0251085,-3.72529e-06,-0.001546,0.0131382,2.2148,5,0.1,15,1.7,-2.41047,-1.01178,0.606754,0.550104,0.257949,0.0437127,-0.440016,-0.206288,-0.034973,0.00934176,0.156446,5,0.1,16,1.7,-1.59193,-3.23078,0.559942,0.446422,0.324092,0.0138449,-0.0290126,-0.559166,-0.00090152,0.0338061,3.00734,5,0.1,17,1.7,0.495141,2.37293,0.553722,0.0447274,0.493764,-0.0465239,-0.339676,-0.363573,0.0359155,0.00733008,0.240054,5,0.1,18,1.7,3.61316,2.3854,0.618865,-0.439124,0.5899,-0.0163344,0.457883,-0.603169,0.0322126,0.0147775,0.364912,5,0.1,19,1.7,-3.88553,0.144484,0.60226,-0.273312,-0.271542,-0.0499655,0.088498,0.0879895,0.0161715,0.00966238,0.0785847,5,0.1,20,1.7,-1.3778,-0.462645,0.635212,-0.215696,0.866026,-0.0179932,0.0195131,-3.57628e-06,0.00161678,0.0093989,2.24242,5,0.1,21,1.7,-3.36027,-1.55135,0.50003,0.0234939,0.866025,3.25032e-05,-0.00888109,1.49012e-05,-0.000435859,0.0119609,2.27184,5,0.1,22,1.7,3.6923,-1.41268,0.563483,0.191022,0.866025,0.0100114,-0.0101179,1.49012e-05,-0.000510365,0.0107616,2.24849,5,0.1,23,1.7,-0.118639,-3.68259,0.533331,0.865988,-0.107644,0.0146793,0.00148207,0.0613034,-0.00076741,0.00806062,1.90859,5,0.1,24,1.7,-0.534781,0.78098,0.626885,0.381721,0.564472,-0.0266653,-0.305314,-0.451457,0.021331,0.0267781,0.196089,5,0.1,25,1.7,1.88625,-0.124269,0.500005,0.34635,0.124579,5.4203e-05,0.321314,-0.2649,0.00284612,0.0070373,0.221751,5,0.1,26,1.7,-0.160358,1.99453,0.563696,-0.248122,-0.141164,0.00909986,0.0439556,-0.33401,0.0496916,0.00715907,0.203016,5,0.1,27,1.7,0.171253,3.52367,0.591377,0.262261,-0.865569,-0.0130238,-0.0357321,-0.0182688,0.0304207,0.0144548,2.23185,5,0.1,28,1.7,-0.139166,-1.21677,0.500052,0.364726,0.78459,0.00019148,1.13289,-0.324309,-0.000804663,0.00989411,1.64533,5,0.1,29,1.7,-2.42133,2.8425,0.600206,0.531896,-0.457375,0.000706594,-0.741392,0.316501,0.00266358,0.0102006,0.272846,5,0.1
0,1.8,0.0514275,-3.40936,0.581762,-0.35354,0.21286,0.0183389,0.334604,-0.0958443,-0.0173748,0.00648873,0.415212,5,0.1,1,1.8,3.72482,-2.40683,0.623484,-0.068754,0.866026,-0.00603944,0.0146627,0,0.000655651,0.0246692,2.26889,5,0.1,2,1.8,3.20402,3.3396,0.609133,-0.0412226,-0.403237,-0.010629,0.374794,0.882387,-0.00268221,0.00974441,0.634493,5,0.1,3,1.8,1.67539,-0.277313,0.537771,0.233552,0.0155546,-0.00827312,0.0984669,0.0181198,-0.00664592,0.00787063,0.208951,5,0.1,4,1.8,3.17673,2.98811,0.609646,-0.107086,0.125206,0.0675738,0.0230074,0.0897646,0.211686,0.00700446,0.330687,5,0.1,5,1.8,1.99999,-3.02548,0.655355,-0.203133,0.866026,-0.0140563,0.0415444,0,0.00292063,0.0111775,2.2457,5,0.1,6,1.8,1.20041,1.33405,0.584,0.00368059,0.332975,0.0161022,0.092268,-0.196397,-0.015229,0.0168987,0.636623,5,0.1,7,1.8,0.0750521,2.26041,0.600852,-0.151336,-0.504845,0.0173017,-0.275174,1.27697,0.0481606,0.00680425,1.1107,5,0.1,8,1.8,3.56047,1.49292,0.611319,-0.304413,0.864786,-0.00839382,0.102401,-0.0249147,0.00280142,0.0102744,1.58206,5,0.1,9,1.8,1.30328,-3.21421,0.729596,-0.0359952,-0.237238,0.0205249,0.332832,0.22459,-0.0194311,0.0104905,0.724489,5,0.1,10,1.8,3.24891,2.72458,0.500002,-0.176382,0.168109,-1.49012e-06,0.339031,-0.175357,0,0.0151047,0.155826,5,0.1,11,1.8,-1.29704,3.5773,0.584295,0.371304,0.475568,0.0157952,-0.279665,-0.450015,-0.0149608,0.0125033,0.130376,5,0.1,12,1.8,0.0208734,-0.49903,0.580885,-0.322805,0.351117,0.0192419,0.305518,-0.332296,-0.018239,0.00949001,0.148041,5,0.1,13,1.8,-2.05807,2.87781,0.586597,0.302851,-0.475645,0.00757724,0.051856,1.35946,-0.0534952,0.00889989,0.306089,5,0.1,14,1.8,-3.69301,-0.561641,0.716725,0.297165,0.866026,0.0182018,-0.0728369,0,-0.00444055,0.0147254,2.21793,5,0.1,15,1.8,-2.35769,-0.98703,0.610948,0.504768,0.236695,0.0401109,-0.477672,-0.224024,-0.037998,0.00737994,0.103226,5,0.1,16,1.8,-1.54751,-3.2,0.56132,0.44077,0.302732,0.0136688,-0.102043,0.104427,-0.00318885,0.0322423,2.82098,5,0.1,17,1.8,0.498165,2.42044,0.549253,0.0183083,0.455797,-0.0428021,-0.186682,-0.406146,0.0394285,0.00780744,0.192632,5,0.1,18,1.8,3.57156,2.4413,0.617401,-0.392258,0.527227,-0.0128895,0.484109,-0.654459,0.035733,0.0158782,0.291845,5,0.1,19,1.8,-3.91237,0.117815,0.597352,-0.26288,-0.261173,-0.0480592,0.128746,0.127922,0.023514,0.00791266,0.0596123,5,0.1,20,1.8,-1.39924,-0.376043,0.633423,-0.212482,0.866025,-0.0177264,0.0534058,1.43051e-05,0.00447035,0.011178,2.24412,5,0.1,21,1.8,-3.35796,-1.46474,0.500031,0.0226259,0.866026,-7.45058e-06,-0.00977516,-5.96046e-05,-0.00038743,0.013113,2.27191,5,0.1,22,1.8,3.71132,-1.32607,0.56448,0.188905,0.866026,0.00990182,-0.0404119,-5.96046e-05,-0.00211596,0.00857309,2.2494,5,0.1,23,1.8,-0.0320367,-3.69295,0.534796,0.866025,-0.0985563,0.0146136,0,0.116944,-0.00143051,0.0105786,1.49007,5,0.1,24,1.8,-0.498159,0.835135,0.624327,0.350264,0.517958,-0.0244677,-0.331506,-0.490189,0.0231564,0.0271978,0.129385,5,0.1,25,1.8,1.92219,-0.112749,0.500019,0.369319,0.10906,0.000177324,0.127673,-0.0697747,-8.9407e-05,0.00690725,0.188744,5,0.1,26,1.8,-0.184985,1.97873,0.564856,-0.244392,-0.174484,0.0140265,0.0452101,-0.31054,0.046432,0.00880612,0.12985,5,0.1,27,1.8,0.197265,3.43708,0.59023,0.257337,-0.866026,-0.00988096,-0.0732243,0,0.0317395,0.0111108,1.73932,5,0.1,28,1.8,-0.0972976,-1.14011,0.500066,0.468805,0.746492,9.53674e-05,0.905004,-0.456214,-0.00110269,0.0148019,1.22689,5,0.1,29,1.8,-2.37185,2.79839,0.600289,0.457454,-0.424021,0.000955164,-0.747919,0.36025,0.00223517,0.010939,0.200333,5,0.1
0,1.9,0.0184012,-3.38859,0.583634,-0.301399,0.202134,0.0201459,0.670616,-0.122428,0.0453703,0.00648873,0.415212,5,0.1,1,1.9,3.71799,-2.32023,0.622882,-0.0680424,0.866026,-0.0060183,0.00369549,0,0.000100583,0.0246692,2.26889,5,0.1,2,1.9,3.20162,3.30467,0.608077,-0.00821725,-0.287493,-0.0102974,0.28491,1.35943,0.00850856,0.00974441,0.634493,5,0.1,3,1.9,1.6996,-0.275579,0.536896,0.253363,0.0198208,-0.00933791,0.262275,0.0604596,-0.0131838,0.00787063,0.208951,5,0.1,4,1.9,3.16586,3.00095,0.617559,-0.112459,0.130425,0.0912713,-0.109538,0.0145733,0.246853,0.00700446,0.330687,5,0.1,5,1.9,1.9798,-2.93887,0.653958,-0.201168,0.866026,-0.0139166,0.00985712,0,0.000707805,0.0111775,2.2457,5,0.1,6,1.9,1.20118,1.3665,0.585538,0.0106074,0.317103,0.0146909,0.0290424,-0.13715,-0.0134334,0.0168987,0.636623,5,0.1,7,1.9,0.0588576,2.21516,0.602772,-0.169539,-0.410242,0.020611,-0.0943299,0.668824,0.0190847,0.00680425,1.1107,5,0.1,8,1.9,3.53049,1.57837,0.610492,-0.2955,0.836737,-0.00815,0.0883341,-0.481755,0.00242144,0.0102744,1.58206,5,0.1,9,1.9,1.3012,-3.23687,0.731557,-0.00738297,-0.216431,0.0187248,0.217758,0.197992,-0.0171289,0.0104905,0.724489,5,0.1,10,1.9,3.23302,2.74081,0.500001,-0.141114,0.159008,-1.86265e-06,0.35961,-0.0270456,-7.45058e-06,0.0151047,0.155826,5,0.1,11,1.9,-1.26123,3.62273,0.585803,0.34521,0.433874,0.0144095,-0.253052,-0.396803,-0.0131838,0.0125033,0.130376,5,0.1,12,1.9,-0.00996194,-0.465333,0.582723,-0.2945,0.324776,0.0175521,0.269364,-0.213947,-0.0160784,0.00949001,0.148041,5,0.1,13,1.9,-2.02723,2.83709,0.587076,0.315937,-0.339203,0.00195233,0.177562,1.34432,-0.0569709,0.00889989,0.306089,5,0.1,14,1.9,-3.66355,-0.475039,0.71853,0.292853,0.866026,0.0179397,-0.0302196,-3.57628e-06,-0.00183284,0.0147254,2.21793,5,0.1,15,1.9,-2.30948,-0.96442,0.614779,0.460512,0.215939,0.0365915,-0.421166,-0.197519,-0.0334829,0.00737994,0.103226,5,0.1,16,1.9,-1.50379,-3.16777,0.562676,0.434567,0.35351,0.0134744,-0.0462383,0.805333,-0.00145286,0.0322423,2.82098,5,0.1,17,1.9,0.499279,2.4641,0.54516,0.00645802,0.418079,-0.0391447,-0.0395682,-0.360802,0.0348873,0.00780744,0.192632,5,0.1,18,1.9,3.53472,2.4908,0.616306,-0.345049,0.463175,-0.00889804,0.463694,-0.630856,0.0425577,0.0158782,0.291845,5,0.1,19,1.9,-3.93811,0.0922475,0.592647,-0.252386,-0.250746,-0.0461425,0.0940114,0.0934126,0.0171773,0.00791266,0.0596123,5,0.1,20,1.9,-1.4203,-0.28944,0.631666,-0.209252,0.866025,-0.0174555,0.0231341,-1.78814e-06,0.00194833,0.011178,2.24412,5,0.1,21,1.9,-3.35574,-1.37814,0.500029,0.0219915,0.866025,-3.75323e-05,-0.00430644,1.49012e-05,-0.000219792,0.013113,2.27191,5,0.1,22,1.9,3.73009,-1.23947,0.565463,0.186875,0.866025,0.00979556,-0.0113398,1.49012e-05,-0.000592321,0.00857309,2.2494,5,0.1,23,1.9,0.054563,-3.70217,0.536256,0.865886,-0.0854924,0.0146248,-0.00555679,0.14168,0.000741333,0.0105786,1.49007,5,0.1,24,1.9,-0.464701,0.884612,0.62199,0.319551,0.472544,-0.0223224,-0.292283,-0.432186,0.0204109,0.0271978,0.129385,5,0.1,25,1.9,1.95973,-0.10183,0.500035,0.380846,0.112299,0.000126567,0.0857338,0.109293,-0.000815839,0.00690725,0.188744,5,0.1,26,1.9,-0.209269,1.95969,0.566492,-0.241652,-0.20616,0.018678,0.0225492,-0.304036,0.0444725,0.00880612,0.12985,5,0.1,27,1.9,0.222454,3.35048,0.589411,0.244742,-0.865673,-0.00644578,-0.175473,0.0141114,0.0357814,0.0111108,1.73932,5,0.1,28,1.9,-0.0458873,-1.06763,0.500071,0.558247,0.703598,-1.95578e-06,0.83723,-0.42453,-0.000845641,0.0148019,1.22689,5,0.1,29,1.9,-2.32938,2.75774,0.600393,0.396078,-0.389382,0.00108127,-0.504613,0.341937,0.00038743,0.010939,0.200333,5,0.1
0,2,-0.00808807,-3.36905,0.585924,-0.22618,0.18779,0.0259683,0.803751,-0.166535,0.0648201,0.0209853,0.288926,5,0.1,1,2,3.71122,-2.23362,0.622282,-0.0673115,0.866026,-0.00596344,0.0137091,0,0.0012219,0.0256666,2.269,5,0.1,2,2,3.20207,3.28301,0.607103,0.0157475,-0.144309,-0.00907481,0.194788,1.4478,0.0152886,0.0100047,0.383135,5,0.1,3,2,1.72628,-0.27327,0.535895,0.279838,0.0264592,-0.0106558,0.240862,0.0671893,-0.0120401,0.00786751,0.134004,5,0.1,4,2,3.15399,3.01394,0.627875,-0.125319,0.128192,0.114284,-0.131726,-0.0582933,0.202179,0.00737771,0.274358,5,0.1,5,2,1.95976,-2.85227,0.652572,-0.199091,0.866026,-0.0137717,0.0403523,0,0.00280142,0.0104735,2.2466,5,0.1,6,2,1.20218,1.39752,0.58694,0.00726283,0.302789,0.013341,-0.10103,-0.160694,-0.0138283,0.0187371,0.56957,5,0.1,7,2,0.0416924,2.17684,0.604888,-0.171298,-0.361472,0.021328,0.0536385,0.348926,-0.00375509,0.00913717,1.3502,5,0.1,8,2,3.50144,1.65923,0.609691,-0.284636,0.77706,-0.00784993,0.137687,-0.679851,0.00375509,0.00757357,1.30764,5,0.1,9,2,1.30124,-3.25753,0.733344,0.00473261,-0.19654,0.0170037,0.0180602,0.204086,-0.017643,0.00845842,1.21927,5,0.1,10,2,3.2207,2.75669,0.500001,-0.105649,0.159121,-2.98023e-06,0.344515,0.0138283,0,0.00740548,0.374475,5,0.1,11,2,-1.228,3.66413,0.587178,0.318873,0.394017,0.0130862,-0.281096,-0.409007,-0.0136197,0.00958227,0.149049,5,0.1,12,2,-0.0380665,-0.433861,0.584398,-0.267447,0.304957,0.0159383,0.277756,-0.196755,-0.0165701,0.0100599,0.186366,5,0.1,13,2,-1.99476,2.80969,0.586994,0.332773,-0.211132,-0.00346452,0.13572,1.19853,-0.0498593,0.00897317,0.232621,5,0.1,14,2,-3.63446,-0.388436,0.720313,0.288248,0.866025,0.0176594,-0.0737906,1.43051e-05,-0.00450015,0.0153161,2.22114,5,0.1,15,2,-2.26553,-0.943813,0.618271,0.418216,0.196101,0.0332281,-0.434399,-0.203639,-0.0344813,0.00745153,0.118032,5,0.1,16,2,-1.46063,-3.12795,0.564014,0.427389,0.445151,0.0132501,-0.114381,0.946879,-0.00354648,0.0321639,2.51781,5,0.1,17,2,0.5,2.5041,0.54142,0.0105023,0.381511,-0.0356257,0.110775,-0.379324,0.0362694,0.00845331,0.151396,5,0.1,18,2,3.50252,2.53397,0.61563,-0.298941,0.400382,-0.00464916,0.460744,-0.627279,0.0412464,0.0155677,0.247885,5,0.1,19,2,-3.96285,0.0676683,0.588124,-0.241899,-0.240322,-0.0442266,0.124812,0.12395,0.0228286,0.00729088,0.0265746,5,0.1,20,2,-1.44108,-0.202838,0.629933,-0.205815,0.866025,-0.0171676,0.0540018,0,0.00450015,0.00970111,2.24586,5,0.1,21,2,-3.35356,-1.29154,0.500024,0.0215232,0.866026,-5.21541e-05,-0.00607967,0,-0.000119209,0.0130281,2.27196,5,0.1,22,2,3.74869,-1.15287,0.566438,0.184733,0.866026,0.00968426,-0.0394583,-5.96046e-05,-0.00208616,0.00850719,2.25028,5,0.1,23,2,0.141079,-3.70999,0.53772,0.863803,-0.070709,0.0146061,-0.0444651,0.151873,-0.00178814,0.00834764,1.13039,5,0.1,24,2,-0.434206,0.929708,0.619859,0.290197,0.429139,-0.0202715,-0.301391,-0.445664,0.0210106,0.0273223,0.151957,5,0.1,25,2,1.99806,-0.0899289,0.500043,0.383615,0.126468,3.27826e-05,-0.0417233,0.154834,-0.00101328,0.00861532,0.172158,5,0.1,26,2,-0.233272,1.9377,0.568565,-0.237683,-0.232077,0.0225604,0.0658557,-0.201046,0.0316501,0.00850289,0.160359,5,0.1,27,2,0.245905,3.2641,0.588944,0.222912,-0.860387,-0.00293404,-0.257663,0.112891,0.0335872,0.0116107,1.42399,5,0.1,28,2,0.0136984,-0.99949,0.500067,0.628376,0.657746,-7.15256e-05,0.533191,-0.507951,-0.000596046,0.00961326,0.874845,5,0.1,29,2,-2.29206,2.72054,0.6005,0.35212,-0.354081,0.00105202,-0.393748,0.370383,-0.000864267,0.0104451,0.142767,5,0.1
0,2.1,-0.0274443,-3.35126,0.588771,-0.167685,0.166608,0.0302732,0.398629,-0.249863,0.0229329,0.0209853,0.288926,5,0.1,1,2.1,3.70452,-2.14702,0.62169,-0.066689,0.866026,-0.00589667,0.00278652,0,0.00045076,0.0256666,2.269,5,0.1,2,2.1,3.2046,3.27585,0.606206,0.0344481,0.000358,-0.00940682,0.173941,1.40487,-0.0178777,0.0100047,0.383135,5,0.1,3,2.1,1.75553,-0.270268,0.534767,0.30538,0.0336843,-0.0119064,0.246935,0.0728648,-0.0120178,0.00786751,0.134004,5,0.1,4,2.1,3.14088,3.02698,0.640351,-0.136114,0.136624,0.135268,-0.0798851,0.191405,0.204325,0.00737771,0.274358,5,0.1,5,2.1,1.93997,-2.76567,0.651203,-0.19726,0.866026,-0.0136442,0.0082925,0,0.000573695,0.0104735,2.2466,5,0.1,6,2.1,1.20227,1.42709,0.588209,-0.00776332,0.289132,0.012071,-0.231378,-0.125401,-0.0119396,0.0187371,0.56957,5,0.1,7,2.1,0.0248649,2.14149,0.607442,-0.16483,-0.353174,0.0334411,0.0787747,-0.11985,0.217479,0.00913717,1.3502,5,0.1,8,2.1,3.47361,1.73316,0.608924,-0.272052,0.700909,-0.00750609,0.124231,-0.736579,0.00340492,0.00757357,1.30764,5,0.1,9,2.1,1.30163,-3.27622,0.734961,-0.000527315,-0.177802,0.0153837,-0.189893,0.176117,-0.0152253,0.00845842,1.21927,5,0.1,10,2.1,3.21179,2.77287,0.500001,-0.0731077,0.166067,-2.8871e-06,0.302687,0.105396,3.72529e-06,0.00740548,0.374475,5,0.1,11,2.1,-1.19729,3.70179,0.588429,0.297331,0.361648,0.0120086,-0.16889,-0.260994,-0.00868365,0.00958227,0.149049,5,0.1,12,2.1,-0.0636288,-0.403958,0.585921,-0.245467,0.296211,0.0146267,0.177207,-0.00923686,-0.0105761,0.0100599,0.186366,5,0.1,13,2.1,-1.96065,2.79428,0.586404,0.350362,-0.100251,-0.00824463,0.188455,1.0092,-0.0444353,0.00897317,0.232621,5,0.1,14,2.1,-3.60589,-0.301834,0.722063,0.283814,0.866025,0.0173897,-0.0312179,-1.78814e-06,-0.0018999,0.0153161,2.22114,5,0.1,15,2.1,-2.22556,-0.92507,0.621447,0.383839,0.179985,0.0305001,-0.277162,-0.129938,-0.0219867,0.00745153,0.118032,5,0.1,16,2.1,-1.41831,-3.07808,0.565326,0.419888,0.556317,0.0130176,-0.0587553,1.1905,-0.00182167,0.0321639,2.51781,5,0.1,17,2.1,0.501879,2.54046,0.538028,0.0292943,0.346602,-0.0322914,0.243906,-0.32948,0.0313967,0.00845331,0.151396,5,0.1,18,2.1,3.4748,2.57099,0.615374,-0.256453,0.340854,-0.000467245,0.394762,-0.567108,0.0411309,0.0155677,0.247885,5,0.1,19,2.1,-3.98642,0.0442496,0.583815,-0.229438,-0.227946,-0.0419475,0.131041,0.130173,0.0239685,0.00729088,0.0265746,5,0.1,20,2.1,-1.46147,-0.116235,0.628232,-0.202507,0.866025,-0.0168919,0.023745,0,0.00197813,0.00970111,2.24586,5,0.1,21,2.1,-3.35143,-1.20494,0.500019,0.0212032,0.866026,-5.75557e-05,-0.00165403,0,7.45058e-06,0.0130281,2.27196,5,0.1,22,2.1,3.76705,-1.06627,0.5674,0.182807,0.866025,0.00958173,-0.0100732,1.11759e-05,-0.000540167,0.00850719,2.25028,5,0.1,23,2.1,0.227432,-3.7163,0.539175,0.864204,-0.0555895,0.014503,0.0139654,0.148773,-0.0010021,0.00834764,1.13039,5,0.1,24,2.1,-0.406648,0.970724,0.617922,0.261258,0.39387,-0.018609,-0.282751,-0.284333,0.0134073,0.0273223,0.151957,5,0.1,25,2.1,2.0363,-0.0763516,0.500042,0.381348,0.146132,-4.6473e-05,-0.0228882,0.21865,-0.000592321,0.00861532,0.172158,5,0.1,26,2.1,-0.256991,1.91354,0.57097,-0.238856,-0.250078,0.0254212,-0.0639483,-0.147238,0.0242516,0.00850289,0.160359,5,0.1,27,2.1,0.266418,3.17877,0.588853,0.183199,-0.844116,0.00138115,-0.506709,0.234157,0.0496358,0.0116107,1.42399,5,0.1,28,2.1,0.0791268,-0.936123,0.500057,0.678497,0.610423,-0.000113156,0.432633,-0.457637,-0.000257045,0.00961326,0.874845,5,0.1,29,2.1,-2.25854,2.6869,0.6006,0.320704,-0.319333,0.000924245,-0.254452,0.332683,-0.00161678,0.0104451,0.142767,5,0.1
0,2.2,-0.042668,-3.33594,0.591855,-0.140607,0.139147,0.0308752,0.168917,-0.292897,-0.00932813,0.0197976,0.246655,5,0.1,1,2.2,3.69788,-2.06042,0.621103,-0.0660539,0.866026,-0.00581741,0.0127554,-5.96046e-05,0.00143051,0.0268635,2.2691,5,0.1,2,2.2,3.20884,3.28256,0.605149,0.0496566,0.1297,-0.0119299,0.1266,1.15299,-0.0294745,0.00825904,0.258883,5,0.1,3,2.2,1.78716,-0.266556,0.533523,0.325313,0.0402696,-0.0128984,0.13572,0.0556409,-0.00715256,0.00842001,0.0777243,5,0.1,4,2.2,3.12698,3.04177,0.654814,-0.140619,0.160199,0.152908,-0.00786781,0.253081,0.139266,0.00778424,0.221533,5,0.1,5,2.2,1.92031,-2.67907,0.649844,-0.195378,0.866026,-0.0135139,0.0377893,0,0.0025928,0.0104168,2.24742,5,0.1,6,2.2,1.2,1.45534,0.589357,-0.0407755,0.275502,0.0108898,-0.41461,-0.156343,-0.0119507,0.0165443,0.480726,5,0.1,7,2.2,0.00883714,2.10523,0.612045,-0.155065,-0.374305,0.0597611,0.118252,-0.254393,0.286818,0.00753813,2.84233,5,0.1,8,2.2,3.44708,1.8,0.608191,-0.25807,0.640374,-0.00712276,0.162363,-0.474453,0.00450015,0.00747736,1.0588,5,0.1,9,2.2,1.3,-3.29313,0.736424,-0.0380963,-0.160396,0.0138775,-0.543416,0.175953,-0.0151694,0.00781948,3.38266,5,0.1,10,2.2,3.2059,2.79002,0.500001,-0.0456929,0.176775,-2.98023e-06,0.243306,0.0940561,0,0.0113658,0.278313,5,0.1,11,2.2,-1.16834,3.73675,0.58959,0.281772,0.337887,0.0112191,-0.156462,-0.230789,-0.0076592,0.0101267,0.086285,5,0.1,12,2.2,-0.0873522,-0.374283,0.587335,-0.229338,0.297683,0.0136644,0.156704,0.0154823,-0.00935793,0.0108513,0.119649,5,0.1,13,2.2,-1.92477,2.78892,0.585375,0.36574,-0.0108778,-0.012131,0.0994802,0.772357,-0.0324249,0.00656879,0.189809,5,0.1,14,2.2,-3.5777,-0.215231,0.72379,0.279212,0.866025,0.0171095,-0.0724792,0,-0.00444055,0.0132163,1.99106,5,0.1,15,2.2,-2.18846,-0.907675,0.624395,0.358611,0.168158,0.0285,-0.245094,-0.114918,-0.0194609,0.0100937,0.0682017,5,0.1,16,2.2,-1.37668,-3.01667,0.566616,0.411695,0.668383,0.0127643,-0.121415,0.988245,-0.00378489,0.0340428,2.28726,5,0.1,17,2.2,0.506104,2.57348,0.534954,0.0555515,0.313818,-0.029178,0.265121,-0.333548,0.0315607,0.00738088,0.203755,5,0.1,18,2.2,3.45106,2.60231,0.615524,-0.218999,0.286329,0.00335872,0.358462,-0.52619,0.0345409,0.0132373,0.340753,5,0.1,19,2.2,-4.00865,0.0221595,0.57975,-0.214601,-0.213207,-0.0392333,0.169992,0.168816,0.031054,0.0143191,0.0100243,5,0.1,20,2.2,-1.48158,-0.0296326,0.626555,-0.199082,0.866025,-0.0166059,0.0529885,-1.19209e-06,0.00441074,0.00795413,2.24756,5,0.1,21,2.2,-3.34932,-1.11833,0.500013,0.020951,0.866026,-5.36442e-05,-0.00405312,0,8.9407e-05,0.0122216,2.27202,5,0.1,22,2.2,3.78525,-0.979665,0.568355,0.180835,0.866026,0.00947863,-0.0373125,0,-0.00199676,0.0105224,2.2511,5,0.1,23,2.2,0.313773,-3.72113,0.540617,0.860497,-0.0412703,0.0142828,-0.110567,0.136495,-0.0039041,0.00717884,0.829477,5,0.1,24,2.2,-0.381941,1.00879,0.616123,0.232758,0.36799,-0.0173897,-0.290766,-0.251412,0.0118911,0.0270898,0.106331,5,0.1,25,2.2,2.07422,-0.0606734,0.500035,0.375772,0.166775,-8.64267e-05,-0.101805,0.179773,-0.000268221,0.00656618,0.165373,5,0.1,26,2.2,-0.28124,1.88797,0.573613,-0.246059,-0.25959,0.0271961,-0.0613332,-0.0353456,0.0103712,0.00686699,0.151572,5,0.1,27,2.2,0.281997,3.09587,0.589245,0.126924,-0.810069,0.00645071,-0.595108,0.460029,0.0494421,0.0117332,1.10508,5,0.1,28,2.2,0.148729,-0.877412,0.500045,0.708792,0.562999,-0.00012517,0.148782,-0.503927,-5.96046e-05,0.0104183,0.602105,5,0.1,29,2.2,-2.22764,2.65662,0.600683,0.297767,-0.28618,0.000743568,-0.218987,0.336051,-0.00199676,0.00858713,0.159624,5,0.1
0,2.3,-0.0562328,-3.32353,0.59486,-0.133597,0.108884,0.0289172,-0.00608969,-0.306159,-0.0285506,0.0197976,0.246655,5,0.1,1,2.3,3.69131,-1.97382,0.620526,-0.0655126,0.866025,-0.00573602,0.00207126,1.49012e-05,0.000536442,0.0268635,2.2691,5,0.1,2,2.3,3.21454,3.30099,0.603677,0.0649933,0.235137,-0.0185912,0.167921,0.934809,-0.0939704,0.00825904,0.258883,5,0.1,3,2.3,1.82032,-0.262259,0.5322,0.337124,0.0455078,-0.0135277,0.0861511,0.0463221,-0.0048466,0.00842001,0.0777243,5,0.1,4,2.3,3.11291,3.05931,0.670874,-0.140402,0.192602,0.168635,0.0162125,0.36402,0.16018,0.00778424,0.221533,5,0.1,5,2.3,1.90088,-2.59246,0.648499,-0.193773,0.866026,-0.0134048,0.00619143,0,0.000413507,0.0104168,2.24742,5,0.1,6,2.3,1.19343,1.48218,0.59039,-0.0938147,0.261641,0.0098004,-0.60536,-0.131406,-0.010144,0.0165443,0.480726,5,0.1,7,2.3,-0.00609277,2.06536,0.619168,-0.143589,-0.432461,0.0800029,0.114792,-0.812024,0.12501,0.00753813,2.84233,5,0.1,8,2.3,3.42203,1.86248,0.6075,-0.243073,0.615703,-0.00670711,0.145987,-0.0813454,0.00404939,0.00747736,1.0588,5,0.1,9,2.3,1.29344,-3.30914,0.737623,-0.0930728,-0.167029,0.00913078,-0.54536,-0.253677,-0.0726841,0.00781948,3.38266,5,0.1,10,2.3,3.20244,2.80815,0.5,-0.0247121,0.185474,-2.6077e-06,0.175506,0.0709146,7.45058e-06,0.0113658,0.278313,5,0.1,11,2.3,-1.14085,3.76951,0.590678,0.268653,0.318396,0.0105727,-0.118516,-0.173986,-0.00576302,0.0101267,0.086285,5,0.1,12,2.3,-0.109592,-0.344516,0.58866,-0.216106,0.296663,0.0128742,0.118086,-0.0434704,-0.00704825,0.0108513,0.119649,5,0.1,13,2.3,-1.88761,2.79147,0.584006,0.377671,0.0594579,-0.0151788,0.115857,0.625134,-0.0273921,0.00656879,0.189809,5,0.1,14,2.3,-3.55005,-0.128628,0.725484,0.274239,0.866025,0.0168048,-0.0414848,1.49012e-07,-0.00254065,0.0132163,1.99106,5,0.1,15,2.3,-2.15368,-0.891368,0.627159,0.337916,0.158454,0.0268571,-0.184685,-0.0866093,-0.0146553,0.0100937,0.0682017,5,0.1,16,2.3,-1.33597,-2.94495,0.567879,0.403611,0.76419,0.0125122,-0.0627562,0.873387,-0.00195578,0.0340428,2.28726,5,0.1,17,2.3,0.51332,2.60345,0.532171,0.0912871,0.28753,-0.0266855,0.417948,-0.210568,0.0199936,0.00738088,0.203755,5,0.1,18,2.3,3.43067,2.62839,0.616034,-0.191239,0.236098,0.00681765,0.212431,-0.478894,0.0333712,0.0132373,0.340753,5,0.1,19,2.3,-4.02925,0.00169427,0.575984,-0.197187,-0.195911,-0.0360512,0.181198,0.179967,0.0331141,0.0143191,0.0100243,5,0.1,20,2.3,-1.5013,0.0569699,0.62491,-0.195809,0.866025,-0.0163332,0.0236928,4.47035e-07,0.0019744,0.00795413,2.24756,5,0.1,21,2.3,-3.34723,-1.03173,0.500008,0.0207908,0.866026,-4.31202e-05,-0.000447035,-3.72529e-06,0.000115484,0.0122216,2.27202,5,0.1,22,2.3,3.80322,-0.893062,0.569296,0.179093,0.866026,0.00938401,-0.00837445,-3.72529e-06,-0.000461936,0.0105224,2.2511,5,0.1,23,2.3,0.399488,-3.7246,0.542028,0.854845,-0.0282891,0.0139414,-0.0472534,0.121981,-0.0035055,0.00717884,0.829477,5,0.1,24,2.3,-0.360236,1.04448,0.614437,0.20035,0.34676,-0.0163858,-0.350609,-0.189468,0.00895932,0.0270898,0.106331,5,0.1,25,2.3,2.11142,-0.0430134,0.500025,0.368923,0.186808,-9.68575e-05,-0.055328,0.203321,2.98023e-05,0.00656618,0.165373,5,0.1,26,2.3,-0.305799,1.86199,0.576364,-0.241858,-0.258303,0.027628,0.134753,0.0624806,-0.00186637,0.00686699,0.151572,5,0.1,27,2.3,0.291817,3.01662,0.590124,0.0706705,-0.779101,0.0109808,-0.523061,0.212029,0.0401922,0.0117332,1.10508,5,0.1,28,2.3,0.220298,-0.823491,0.500033,0.721281,0.51643,-0.000120513,0.0715871,-0.443473,0.000141561,0.0104183,0.602105,5,0.1,29,2.3,-2.19879,2.62944,0.600747,0.280492,-0.259585,0.000534486,-0.142291,0.212654,-0.00212714,0.00858713,0.159624,5,0.1
0,2.4,-0.0697587,-3.31415,0.597587,-0.137833,0.079,0.025405,-0.0613219,-0.286937,-0.0406206,0.0204797,0.223971,5,0.1,1,2.4,3.68478,-1.88721,0.619956,-0.0649512,0.866026,-0.00565201,0.0120401,-5.96046e-05,0.0013411,0.028743,2.26918,5,0.1,2,2.4,3.22186,3.32867,0.601308,0.081116,0.313252,-0.0289991,0.145674,0.614524,-0.106752,0.00603436,0.232262,5,0.1,3,2.4,1.85429,-0.257511,0.53083,0.340167,0.0490673,-0.0137702,-0.0345707,0.0230223,0.00038743,0.00876704,0.0552862,5,0.1,4,2.4,3.09902,3.08037,0.688472,-0.136733,0.227636,0.182365,0.0598431,0.313997,0.103742,0.00759239,0.187624,5,0.1,5,2.4,1.88156,-2.50586,0.647163,-0.192109,0.866026,-0.0132903,0.0354052,0,0.00241399,0.0104449,2.24816,5,0.1,6,2.4,1.18098,1.50766,0.59132,-0.154704,0.247437,0.00880659,-0.581741,-0.160038,-0.00989437,0.0160042,0.381475,5,0.1,7,2.4,-0.0198602,2.01778,0.627575,-0.131525,-0.519741,0.0860959,0.12878,-0.860572,0.00315905,0.00858788,2.56887,5,0.1,8,2.4,3.39848,1.92387,0.60685,-0.227457,0.613198,-0.00627488,0.172257,-0.015378,0.00476837,0.00751671,0.813711,5,0.1,9,2.4,1.28148,-3.32745,0.738126,-0.145093,-0.201392,0.000602007,-0.485063,-0.391126,-0.0923574,0.00793547,3.19914,5,0.1,10,2.4,3.20073,2.82696,0.5,-0.0105917,0.189453,-1.49012e-06,0.107884,0.00274181,0,0.0110919,0.264569,5,0.1,11,2.4,-1.1146,3.80048,0.591706,0.255924,0.300539,0.0099808,-0.144899,-0.193715,-0.0064075,0.00882756,0.156755,5,0.1,12,2.4,-0.130608,-0.315214,0.589912,-0.203986,0.287784,0.0121504,0.131488,-0.138566,-0.00783801,0.0115621,0.100706,5,0.1,13,2.4,-1.84939,2.80024,0.582367,0.384966,0.112689,-0.0174209,0.0137091,0.433683,-0.0166595,0.00805831,0.16555,5,0.1,14,2.4,-3.52288,-0.0420259,0.727149,0.268441,0.866025,0.0164494,-0.0845194,1.19209e-06,-0.0051558,0.0109866,1.54963,5,0.1,15,2.4,-2.12082,-0.875958,0.629771,0.318962,0.149566,0.0253513,-0.205755,-0.0964403,-0.0163019,0.0082576,0.0530948,5,0.1,16,2.4,-1.29597,-2.86471,0.569119,0.395301,0.834376,0.0122532,-0.119328,0.497699,-0.00369549,0.0321572,2.2005,5,0.1,17,2.4,0.524576,2.63123,0.529595,0.133608,0.268507,-0.024882,0.404716,-0.183344,0.0173151,0.0101864,0.13261,5,0.1,18,2.4,3.41247,2.64968,0.616872,-0.173753,0.19049,0.00981688,0.149488,-0.433683,0.0257492,0.012774,0.455711,5,0.1,19,2.4,-4.04803,-0.0169602,0.572551,-0.17792,-0.176768,-0.0325292,0.205755,0.204481,0.0376105,0.00798651,0.00506423,5,0.1,20,2.4,-1.52073,0.143572,0.623289,-0.192431,0.866026,-0.0160515,0.0517964,-7.15256e-06,0.00429153,0.00962348,1.794,5,0.1,21,2.4,-3.34516,-0.945129,0.500005,0.0206411,0.866026,-2.98023e-05,-0.00357628,0,8.9407e-05,0.0114588,2.27208,5,0.1,22,2.4,3.82107,-0.80646,0.570231,0.1773,0.866026,0.00928938,-0.0350475,0,-0.00187755,0.00919006,2.25185,5,0.1,23,2.4,0.484541,-3.72685,0.543401,0.843444,-0.0170708,0.0134826,-0.212044,0.101447,-0.00607967,0.00891214,0.588107,5,0.1,24,2.4,-0.342005,1.0782,0.612843,0.163885,0.327316,-0.0154659,-0.372976,-0.211,0.00998378,0.0225499,0.213926,5,0.1,25,2.4,2.14797,-0.0233954,0.500016,0.36127,0.204435,-8.49366e-05,-0.112176,0.136735,0.000208616,0.00955952,0.162224,5,0.1,26,2.4,-0.329061,1.83664,0.579097,-0.221115,-0.246972,0.0268117,0.27062,0.163972,-0.0143945,0.0079833,0.262011,5,0.1,27,2.4,0.296434,2.93972,0.591401,0.0234567,-0.758553,0.0143304,-0.416696,0.237226,0.0262558,0.00649142,1.08047,5,0.1,28,2.4,0.29246,-0.774072,0.500021,0.718229,0.471592,-0.000101328,-0.152037,-0.46435,0.000238419,0.0101198,0.40505,5,0.1,29,2.4,-2.17143,2.60445,0.60079,0.266588,-0.240707,0.000327826,-0.147343,0.177383,-0.00199676,0.0107797,0.206464,5,0.1
0,2.5,-0.0839692,-3.30762,0.599913,-0.147198,0.0523038,0.0210422,-0.110873,-0.243932,-0.0457279,0.0204797,0.223971,5,0.1,1,2.5,3.67832,-1.80061,0.619395,-0.0644654,0.866025,-0.00558011,0.00163913,1.49012e-05,0.000432134,0.028743,2.26918,5,0.1,2,2.5,3.23083,3.36216,0.597734,0.099032,0.348223,-0.0435179,0.196949,0.115365,-0.170305,0.00603436,0.232262,5,0.1,3,2.5,1.88816,-0.252487,0.529454,0.337216,0.0513498,-0.0137418,-0.039652,0.0196993,0.000808388,0.00876704,0.0552862,5,0.1,4,2.5,3.08557,3.10474,0.707331,-0.132814,0.259499,0.195404,0.0270456,0.3023,0.139918,0.00759239,0.187624,5,0.1,5,2.5,1.86245,-2.41926,0.64584,-0.190694,0.866026,-0.0131954,0.00458211,0,0.000290573,0.0104449,2.24816,5,0.1,6,2.5,1.16249,1.53166,0.592155,-0.215426,0.232938,0.00790991,-0.601761,-0.138581,-0.00829995,0.0160042,0.381475,5,0.1,7,2.5,-0.0325921,1.9612,0.636057,-0.124952,-0.613466,0.0822685,0.0180997,-0.947237,-0.0742339,0.00858788,2.56887,5,0.1,8,2.5,3.37671,1.9855,0.606245,-0.206919,0.62207,-0.00583483,0.235185,0.14428,0.0042282,0.00751671,0.813711,5,0.1,9,2.5,1.2651,-3.34991,0.737683,-0.178576,-0.250288,-0.00972478,-0.24078,-0.543937,-0.108805,0.00793547,3.19914,5,0.1,10,2.5,3.20012,2.84588,0.5,-0.00238493,0.188519,-1.11759e-06,0.0586212,-0.0268966,7.45058e-06,0.0110919,0.264569,5,0.1,11,2.5,-1.08989,3.82962,0.592674,0.236946,0.282556,0.00938587,-0.231087,-0.17558,-0.00581145,0.00882756,0.156755,5,0.1,12,2.5,-0.150387,-0.287453,0.59109,-0.191782,0.264528,0.0114228,0.119143,-0.313556,-0.00710413,0.0115621,0.100706,5,0.1,13,2.5,-1.81077,2.8136,0.580542,0.387648,0.153502,-0.0190409,0.0201315,0.3694,-0.014551,0.00805831,0.16555,5,0.1,14,2.5,-3.49641,0.0445739,0.728772,0.261361,0.865887,0.0160175,-0.068754,-0.00551969,-0.0041984,0.0109866,1.54963,5,0.1,15,2.5,-2.08981,-0.861415,0.632236,0.302348,0.141778,0.0240353,-0.142932,-0.0670105,-0.0113212,0.0082576,0.0530948,5,0.1,16,2.5,-1.25688,-2.77955,0.57033,0.387595,0.862356,0.0120148,-0.0570193,0.112951,-0.00176579,0.0321572,2.2005,5,0.1,17,2.5,0.540004,2.65727,0.527183,0.174847,0.253147,-0.0234319,0.399478,-0.135988,0.012815,0.0101864,0.13261,5,0.1,18,2.5,3.39548,2.66662,0.617983,-0.169018,0.148844,0.0123758,-0.0295788,-0.397131,0.0242218,0.012774,0.455711,5,0.1,19,2.5,-4.06481,-0.0336284,0.569484,-0.157702,-0.156677,-0.0288333,0.200808,0.199503,0.0367053,0.00798651,0.00506423,5,0.1,20,2.5,-1.53976,0.230175,0.621701,-0.1884,0.866025,-0.0157173,0.037834,0,0.00314787,0.00962348,1.794,5,0.1,21,2.5,-3.3431,-0.858526,0.500002,0.020507,0.866026,-1.9744e-05,-0.000357628,-3.72529e-06,0.000104308,0.0114588,2.27208,5,0.1,22,2.5,3.83869,-0.719857,0.571155,0.175733,0.866026,0.00920426,-0.00695884,-3.72529e-06,-0.00038743,0.00919006,2.25185,5,0.1,23,2.5,0.567965,-3.72807,0.544721,0.825493,-0.007708,0.0129221,-0.18299,0.0849813,-0.00560284,0.00891214,0.588107,5,0.1,24,2.5,-0.327487,1.10993,0.611344,0.126576,0.307731,-0.0145393,-0.367673,-0.191182,0.00904128,0.0225499,0.213926,5,0.1,25,2.5,2.18368,-0.00218282,0.500009,0.353631,0.22021,-6.10948e-05,-0.0603795,0.160891,0.00025332,0.00955952,0.162224,5,0.1,26,2.5,-0.349635,1.81275,0.581706,-0.188808,-0.230858,0.0253574,0.364473,0.164144,-0.015337,0.0079833,0.262011,5,0.1,27,2.5,0.296438,2.86701,0.593065,-0.0252219,-0.678385,0.0197559,-0.528637,1.26445,0.0745244,0.00649142,1.08047,5,0.1,28,2.5,0.363524,-0.729096,0.500013,0.702431,0.428983,-7.55303e-05,-0.188027,-0.401285,0.000271946,0.0101198,0.40505,5,0.1,29,2.5,-2.1452,2.58092,0.600813,0.260421,-0.232743,0.000115298,-0.00177324,0.00828505,-0.00216812,0.0107797,0.206464,5,0.1
0,2.6,-0.0992233,-3.30352,0.601787,-0.157399,0.0306666,0.0164226,-0.0821725,-0.187039,-0.0458956,0.0192236,0.207124,5,0.1,1,2.6,3.67189,-1.71401,0.61884,-0.0639498,0.866026,-0.00550896,0.0114441,-5.96046e-05,0.0012219,0.0276086,2.26926,5,0.1,2,2.6,3.2417,3.39694,0.592516,0.117791,0.341868,-0.0607342,0.166774,-0.217199,-0.164032,0.00632751,0.22333,5,0.1,3,2.6,1.92158,-0.247279,0.528089,0.329703,0.0525188,-0.0135049,-0.120759,0.00172108,0.00438094,0.00824716,0.0237197,5,0.1,4,2.6,3.07242,3.13204,0.727515,-0.129867,0.284547,0.207414,0.0382662,0.18394,0.0880063,0.00818118,0.169704,5,0.1,5,2.6,1.84343,-2.33266,0.644524,-0.189191,0.866026,-0.0130937,0.0337958,0,0.00235438,0.00985716,2.24884,5,0.1,6,2.6,1.13812,1.55424,0.592905,-0.269756,0.21826,0.00710189,-0.462711,-0.160933,-0.00804663,0.0161115,0.287187,5,0.1,7,2.6,-0.0450753,1.89542,0.643823,-0.125195,-0.697747,0.0722602,-0.0112653,-0.690818,-0.121295,0.00799988,2.53737,5,0.1,8,2.6,3.35728,2.04837,0.605683,-0.181067,0.633699,-0.0053972,0.278473,0.0532866,0.00467896,0.0069669,0.625529,5,0.1,9,2.6,1.2461,-3.37762,0.736176,-0.201517,-0.302744,-0.0202239,-0.244558,-0.47338,-0.0971556,0.00895019,3.16607,5,0.1,10,2.6,3.20011,2.86451,0.5,0.00157952,0.183189,0,0.022769,-0.0830889,0,0.0112905,0.254876,5,0.1,11,2.6,-1.06746,3.85696,0.593582,0.210428,0.263804,0.00876486,-0.295579,-0.205994,-0.00679493,0.0113687,0.141073,5,0.1,12,2.6,-0.168946,-0.262767,0.592195,-0.179058,0.227485,0.0106648,0.139788,-0.416204,-0.00831485,0.00987617,0.132922,5,0.1,13,2.6,-1.77203,2.83061,0.578577,0.385648,0.184369,-0.0201344,-0.0736713,0.239253,-0.0064671,0.0130239,0.691325,5,0.1,14,2.6,-3.47067,0.131091,0.730349,0.252712,0.863817,0.0154883,-0.111938,-0.0441527,-0.00685453,0.0165215,1.17179,5,0.1,15,2.6,-2.06029,-0.847575,0.634582,0.287575,0.13485,0.0228629,-0.164151,-0.0769496,-0.0129938,0.00894064,0.0241212,5,0.1,16,2.6,-1.21845,-2.69304,0.571522,0.380093,0.866026,0.0117838,-0.108838,0,-0.00339746,0.035402,2.18467,5,0.1,17,2.6,0.559338,2.6819,0.524904,0.209998,0.239229,-0.0221267,0.289112,-0.151157,0.0141263,0.00862814,0.0785543,5,0.1,18,2.6,3.37831,2.67959,0.619331,-0.175226,0.111425,0.0144571,-0.0755787,-0.34976,0.0165403,0.0134001,0.391838,5,0.1,19,2.6,-4.07957,-0.0482932,0.566785,-0.137436,-0.136537,-0.0251278,0.205755,0.20444,0.0376105,0.00781249,0.00156598,5,0.1,20,2.6,-1.55838,0.316778,0.620148,-0.183335,0.866025,-0.015296,0.0696182,1.43051e-05,0.00581145,0.00867328,1.38529,5,0.1,21,2.6,-3.34106,-0.771924,0.500001,0.0203609,0.866026,-1.04308e-05,-0.00369549,0,8.9407e-05,0.0141752,2.27215,5,0.1,22,2.6,3.85621,-0.633254,0.572072,0.174087,0.866026,0.00911653,-0.0334978,0,-0.00175834,0.0090939,2.25255,5,0.1,23,2.6,0.649406,-3.72845,0.545983,0.800772,-0.000202656,0.01228,-0.33617,0.0647306,-0.00753999,0.00776482,0.432204,5,0.1,24,2.6,-0.316621,1.13971,0.609937,0.0913128,0.287312,-0.0135735,-0.333473,-0.224292,0.0105798,0.0216052,0.419351,5,0.1,25,2.6,2.21869,0.0205623,0.500004,0.34582,0.233561,-3.72529e-05,-0.109792,0.0934786,0.000238419,0.0111137,3.59116,5,0.1,26,2.6,-0.366615,1.79052,0.584159,-0.150225,-0.213179,0.0236392,0.398248,0.193238,-0.0194609,0.00873665,0.253814,5,0.1,27,2.6,0.29128,2.8065,0.595441,-0.0773378,-0.524008,0.0278741,-0.492603,1.74141,0.0819564,0.0103526,1.76881,5,0.1,28,2.6,0.432608,-0.688189,0.500006,0.676624,0.38905,-4.91738e-05,-0.344038,-0.406742,0.000238419,0.00988682,0.349179,5,0.1,29,2.6,-2.1191,2.55759,0.600814,0.261748,-0.234437,-9.38773e-05,0.00905991,-0.0222921,-0.00190735,0.00925523,0.128893,5,0.1
0,2.7,-0.115387,-3.30128,0.603202,-0.165751,0.0150803,0.0119204,-0.0751866,-0.125155,-0.0435561,0.0192236,0.207124,5,0.1,1,2.7,3.66552,-1.62741,0.618293,-0.063505,0.866025,-0.00544796,0.0013411,1.49012e-05,0.0003241,0.0276086,2.26926,5,0.1,2,2.7,3.25442,3.42952,0.5855,0.137229,0.305525,-0.0804136,0.205353,-0.464797,-0.214294,0.00632751,0.22333,5,0.1,3,2.7,1.9539,-0.242031,0.526762,0.316141,0.052256,-0.0129978,-0.157714,-0.00838004,0.00606105,0.00824716,0.0237197,5,0.1,4,2.7,3.05952,3.1614,0.748803,-0.1289,0.302096,0.218965,-0.00822544,0.150815,0.125147,0.00818118,0.169704,5,0.1,5,2.7,1.8246,-2.24605,0.643221,-0.187889,0.866026,-0.0130022,0.00376999,0,0.000275671,0.00985716,2.24884,5,0.1,6,2.7,1.10884,1.57531,0.593578,-0.314934,0.20356,0.00637639,-0.416979,-0.140198,-0.00668317,0.0161115,0.287187,5,0.1,7,2.7,-0.0572518,1.82272,0.650439,-0.114847,-0.750553,0.060053,0.198368,-0.349753,-0.121817,0.00799988,2.53737,5,0.1,8,2.7,3.34065,2.11182,0.60516,-0.150843,0.633234,-0.00513112,0.319168,-0.0781715,0.00116602,0.0069669,0.625529,5,0.1,9,2.7,1.22467,-3.40933,0.733923,-0.228481,-0.322992,-0.0225932,-0.32185,0.0362545,0.037428,0.00895019,3.16607,5,0.1,10,2.7,3.2004,2.88235,0.5,0.00427477,0.172836,0,0.0254065,-0.124484,0,0.0112905,0.254876,5,0.1,11,2.7,-1.04802,3.88234,0.594425,0.177475,0.243894,0.00810744,-0.355393,-0.198305,-0.00656024,0.0113687,0.141073,5,0.1,12,2.7,-0.186211,-0.242194,0.593224,-0.166652,0.18329,0.00992687,0.115221,-0.458253,-0.00685826,0.00987617,0.132922,5,0.1,13,2.7,-1.73437,2.84903,0.576587,0.362521,0.173613,-0.0191455,-0.367761,-0.39281,0.0236742,0.0130239,0.691325,5,0.1,14,2.7,-3.44591,0.217446,0.731866,0.242604,0.864219,0.0148693,-0.0997037,0.0138023,-0.00610948,0.0165215,1.17179,5,0.1,15,2.7,-2.03233,-0.834462,0.636806,0.271772,0.127441,0.0216111,-0.16059,-0.0753067,-0.0127368,0.00894064,0.0241212,5,0.1,16,2.7,-1.18082,-2.60643,0.572688,0.37349,0.866026,0.0115774,-0.0452772,0,-0.00141189,0.035402,2.18467,5,0.1,17,2.7,0.581711,2.70512,0.522757,0.236406,0.225253,-0.0208233,0.226282,-0.136197,0.0126697,0.00862814,0.0785543,5,0.1,18,2.7,3.36011,2.68916,0.62084,-0.191085,0.0815451,0.0155292,-0.21334,-0.252575,0.00504777,0.0134001,0.391838,5,0.1,19,2.7,-4.0923,-0.0609391,0.564457,-0.117286,-0.116514,-0.0214438,0.197589,0.196335,0.0361316,0.00781249,0.00156598,5,0.1,20,2.7,-1.5764,0.403376,0.618645,-0.177178,0.865802,-0.0147819,0.0608042,-0.00892937,0.00507757,0.00867328,1.38529,5,0.1,21,2.7,-3.33903,-0.685321,0.5,0.0202026,0.866026,-3.25963e-06,-0.000670552,-3.72529e-06,5.58794e-05,0.0141752,2.27215,5,0.1,22,2.7,3.87352,-0.546652,0.572978,0.172621,0.866026,0.00904007,-0.00627339,-3.57628e-06,-0.0003241,0.0090939,2.25255,5,0.1,23,2.7,0.727663,-3.72856,0.547078,0.762631,-0.00544861,0.00883695,-0.439569,-0.145704,-0.0556186,0.00776482,0.432204,5,0.1,24,2.7,-0.309163,1.16736,0.608631,0.0581346,0.265634,-0.0125508,-0.316501,-0.215903,0.0101887,0.0216052,0.419351,5,0.1,25,2.7,2.25098,0.0455964,0.500001,0.285117,0.276959,-1.74157e-05,-1.00484,0.685952,0.000160187,0.0111137,3.59116,5,0.1,26,2.7,-0.379649,1.77016,0.586426,-0.11069,-0.194222,0.0217014,0.385223,0.189543,-0.0196882,0.00873665,0.253814,5,0.1,27,2.7,0.281878,2.76079,0.598542,-0.103562,-0.40798,0.0332518,-0.0639334,0.674307,0.028044,0.0103526,1.76881,5,0.1,28,2.7,0.498606,-0.651032,0.500003,0.643377,0.356399,-2.72878e-05,-0.340965,-0.267427,0.00019744,0.00988682,0.349179,5,0.1,29,2.7,-2.09279,2.53393,0.600795,0.265077,-0.239182,-0.000277814,0.0406355,-0.0562221,-0.00172481,0.00925523,0.128893,5,0.1
0,2.8,-0.132262,-3.3003,0.604184,-0.170804,0.00543594,0.00781566,-0.0192225,-0.0693798,-0.0381172,0.017911,0.290475,5,0.1,1,2.8,3.65919,-1.5408,0.61775,-0.063014,0.866026,-0.00538826,0.0110865,-5.96046e-05,0.00113249,0.0282109,2.26934,5,0.1,2,2.8,3.26912,3.45763,0.576408,0.155997,0.256145,-0.100948,0.158191,-0.495195,-0.185162,0.00615049,0.234409,5,0.1,3,2.8,1.98462,-0.236873,0.525498,0.297013,0.05062,-0.0122458,-0.229299,-0.0251755,0.00911951,0.00846459,0.012938,5,0.1,4,2.8,3.04659,3.1922,0.771267,-0.129664,0.311995,0.229383,0.000834465,0.0362396,0.0704229,0.0183367,0.425519,5,0.1,5,2.8,1.80586,-2.15945,0.641924,-0.186467,0.866026,-0.0129029,0.0329018,0,0.00226498,0.00997124,2.2495,5,0.1,6,2.8,1.0755,1.59495,0.594183,-0.349134,0.189015,0.00572801,-0.250578,-0.155687,-0.0064373,0.0165072,0.20516,5,0.1,7,2.8,-0.0675342,1.74658,0.655841,-0.0891078,-0.765395,0.048086,0.300396,0.0603795,-0.116706,0.00766324,2.54558,5,0.1,8,2.8,3.32718,2.17444,0.60465,-0.118464,0.615585,-0.00507087,0.323057,-0.284076,0.00038743,0.00764281,0.50971,5,0.1,9,2.8,1.2,-3.44083,0.731989,-0.266647,-0.30145,-0.0149637,-0.421941,0.367045,0.105292,0.00889167,2.93139,5,0.1,10,2.8,3.20093,2.89894,0.5,0.00576973,0.158256,0,0.0013113,-0.166655,0,0.0116587,1.17167,5,0.1,11,2.8,-1.03209,3.90571,0.595203,0.140813,0.22313,0.00742078,-0.371099,-0.220895,-0.00736117,0.00985011,0.198505,5,0.1,12,2.8,-0.202295,-0.22616,0.594182,-0.154845,0.137529,0.00922233,0.125691,-0.449479,-0.00745058,0.00964894,0.0193723,5,0.1,13,2.8,-1.7003,2.8638,0.574823,0.316006,0.116891,-0.0158682,-0.544548,-0.692368,0.0397563,0.0145817,2.90957,5,0.1,14,2.8,-3.42219,0.303787,0.73332,0.231171,0.860506,0.0141695,-0.135303,-0.110388,-0.00831485,0.0109289,0.921707,5,0.1,15,2.8,-2.00601,-0.822119,0.638899,0.254011,0.119111,0.0202015,-0.200391,-0.0939667,-0.0159144,0.00798106,0.0146988,5,0.1,16,2.8,-1.14374,-2.51983,0.573837,0.367263,0.866026,0.011383,-0.0950098,0,-0.00292063,0.0333039,2.18927,5,0.1,17,2.8,0.606294,2.72693,0.520741,0.253147,0.210673,-0.0194684,0.100225,-0.160933,0.0148714,0.0108982,0.0568579,5,0.1,18,2.8,3.3399,2.69618,0.6224,-0.212961,0.0600338,0.0155032,-0.203133,-0.181675,-0.00530481,0.0127049,0.211995,5,0.1,19,2.8,-4.10305,-0.0716207,0.562491,-0.0978708,-0.0972373,-0.0178963,0.19002,0.189207,0.0348091,0.00914349,0.000806482,5,0.1,20,2.8,-1.59378,0.48984,0.617195,-0.169945,0.862454,-0.014177,0.0888705,-0.0714064,0.00739098,0.00856684,1.03907,5,0.1,21,2.8,-3.33702,-0.598719,0.5,0.0200212,0.866026,1.49012e-06,-0.00393391,0,0,0.0137792,2.48512,5,0.1,22,2.8,3.89073,-0.460049,0.57388,0.171047,0.866025,0.00895858,-0.0327826,1.43051e-05,-0.00172853,0.0091727,2.25324,5,0.1,23,2.8,0.801474,-3.73002,0.547643,0.710842,-0.0250638,0.00217259,-0.603467,-0.227928,-0.0731647,0.00979016,0.298154,5,0.1,24,2.8,-0.304816,1.19281,0.607428,0.0301749,0.243029,-0.0114843,-0.234663,-0.240624,0.0113845,0.0210678,0.354807,5,0.1,25,2.8,2.27367,0.0770995,0.5,0.162661,0.355135,-4.47035e-06,-1.36578,0.809941,5.96046e-05,0.0136039,2.99572,5,0.1,26,2.8,-0.388862,1.7517,0.588495,-0.0744037,-0.174677,0.0196382,0.335485,0.203609,-0.0218451,0.00825349,0.249964,5,0.1,27,2.8,0.271691,2.72224,0.601935,-0.0959672,-0.372076,0.0339478,0.189468,0.119209,-0.0119209,0.0101078,1.4977,5,0.1,28,2.8,0.561111,-0.616642,0.500001,0.60509,0.331888,-1.19209e-05,-0.438094,-0.238448,0.000149012,0.00927333,0.240596,5,0.1,29,2.8,-2.06614,2.50979,0.600759,0.266993,-0.242889,-0.000430644,-0.0141859,-0.00619888,-0.0012517,0.0103763,0.0905296,5,0.1
0,2.9,-0.149473,-3.30003,0.60478,-0.173505,0.0008028,0.00415752,-0.0247285,-0.0259429,-0.0344552,0.017911,0.290475,5,0.1,1,2.9,3.65292,-1.4542,0.617215,-0.0625864,0.866025,-0.00533527,0.0012815,1.49012e-05,0.000257045,0.0282109,2.26934,5,0.1,2,2.9,3.28561,3.48081,0.565506,0.174426,0.209026,-0.115832,0.192732,-0.408038,-0.110187,0.00615049,0.234409,5,0.1,3,2.9,2.01317,-0.231944,0.524319,0.273727,0.0478831,-0.0113129,-0.241898,-0.030621,0.00976399,0.00846459,0.012938,5,0.1,4,2.9,3.0333,3.22274,0.794146,-0.138763,0.29134,0.224461,-0.156954,-0.409707,-0.15422,0.0183367,0.425519,5,0.1,5,2.9,1.7873,-2.07285,0.64064,-0.185208,0.866026,-0.0128167,0.00360608,0,0.000238419,0.00997124,2.2495,5,0.1,6,2.9,1.03938,1.61313,0.594726,-0.372399,0.174772,0.00514966,-0.195906,-0.135086,-0.00531226,0.0165072,0.20516,5,0.1,7,2.9,-0.0746109,1.67044,0.660095,-0.0497822,-0.755819,0.037279,0.459564,0.153646,-0.0996292,0.00766324,2.54558,5,0.1,8,2.9,3.31691,2.23431,0.604134,-0.0874273,0.579259,-0.00533601,0.294715,-0.44167,-0.00480935,0.00764281,0.50971,5,0.1,9,2.9,1.17008,-3.46899,0.731034,-0.340752,-0.260682,-0.00411486,-0.964694,0.434041,0.106949,0.00889167,2.93139,5,0.1,10,2.9,3.20168,2.91393,0.5,0.0100378,0.141387,0,0.0423044,-0.171572,0,0.0116587,1.17167,5,0.1,11,2.9,-1.01985,3.92698,0.59591,0.104408,0.202802,0.00674371,-0.351883,-0.192225,-0.00640005,0.00985011,0.198505,5,0.1,12,2.9,-0.216898,-0.21459,0.595052,-0.135062,0.0946421,0.00804691,0.255184,-0.4034,-0.0151806,0.00964894,0.0193723,5,0.1,13,2.9,-1.67144,2.87047,0.573456,0.261203,0.00376292,-0.0113207,-0.546552,-1.45526,0.0493117,0.0145817,2.90957,5,0.1,14,2.9,-3.39955,0.389505,0.734698,0.223158,0.854887,0.0134042,-0.0426173,-0.0468138,-0.00747293,0.0109289,0.921707,5,0.1,15,2.9,-1.98158,-0.810665,0.640842,0.234611,0.110013,0.0186601,-0.19443,-0.0911914,-0.0154562,0.00798106,0.0146988,5,0.1,16,2.9,-1.10733,-2.43323,0.574966,0.361936,0.866026,0.0112201,-0.0332445,0,-0.00100955,0.0333039,2.18927,5,0.1,17,2.9,0.632104,2.74727,0.518862,0.262626,0.196443,-0.018155,0.0759065,-0.131935,0.0121668,0.0108982,0.0568579,5,0.1,18,2.9,3.31778,2.70156,0.623892,-0.227458,0.0499591,0.0140553,-0.0842065,-0.0344813,-0.0220984,0.0127049,0.211995,5,0.1,19,2.9,-4.11191,-0.0804217,0.560872,-0.0795707,-0.079024,-0.0145451,0.175595,0.174679,0.0321455,0.00914349,0.000806482,5,0.1,20,2.9,-1.61036,0.576022,0.615812,-0.161801,0.862833,-0.013499,0.0799745,0.0287965,0.00666082,0.00856684,1.03907,5,0.1,21,2.9,-3.33489,-0.51301,0.5,0.0237666,0.840068,1.49012e-06,0.0689328,-0.485892,0,0.0137792,2.48512,5,0.1,22,2.9,3.90774,-0.373447,0.57477,0.169604,0.866025,0.00888249,-0.00633299,-1.78814e-06,-0.000331551,0.0091727,2.25324,5,0.1,23,2.9,0.86983,-3.73343,0.547558,0.658437,-0.0411302,-0.00329744,-0.47284,-0.099957,-0.0380725,0.00979016,0.298154,5,0.1,24,2.9,-0.302853,1.21589,0.606337,0.0106396,0.218385,-0.0103187,-0.143049,-0.253476,0.011988,0.0210678,0.354807,5,0.1,25,2.9,2.28241,0.117049,0.5,0.0072144,0.446093,-1.86265e-07,-1.6641,0.945986,2.98023e-05,0.0136039,2.99572,5,0.1,26,2.9,-0.394748,1.73523,0.590352,-0.0445838,-0.154965,0.0175058,0.259597,0.192925,-0.0210442,0.00825349,0.249964,5,0.1,27,2.9,0.263544,2.68466,0.605227,-0.062805,-0.387448,0.0315008,0.440136,-0.354126,-0.0352822,0.0101078,1.4977,5,0.1,28,2.9,0.619525,-0.584473,0.5,0.563711,0.31278,-1.30385e-06,-0.406317,-0.160556,6.70552e-05,0.00927333,0.240596,5,0.1,29,2.9,-2.03951,2.4858,0.60071,0.265466,-0.233774,-0.000543427,-0.0270307,0.177458,-0.000972301,0.0103763,0.0905296,5,0.1
0,3,-0.166889,-3.30003,0.605033,-0.174053,-0.000411272,0.00102371,0.0206605,-0.00214577,-0.027895,0.0189049,0.362292,5,0.1,1,3,3.64667,-1.3676,0.616683,-0.062108,0.866026,-0.00528097,0.0110865,-5.96046e-05,0.00101328,0.0276607,2.26942,5,0.1,2,3,3.30395,3.5,0.553511,0.191516,0.178117,-0.12266,0.136495,-0.213742,-0.025481,0.0228028,1.12997,5,0.1,3,3,2.03927,-0.227324,0.523239,0.247782,0.0443332,-0.0102594,-0.279903,-0.040926,0.0114143,0.0108983,0.00381783,5,0.1,4,3,3.01855,3.24936,0.815551,-0.156516,0.237244,0.201257,-0.178576,-0.640035,-0.297278,0.0138284,0.344571,5,0.1,5,3,1.76882,-1.98625,0.639361,-0.183806,0.866026,-0.0127196,0.0324249,-5.96046e-05,0.00223517,0.0105761,2.25016,5,0.1,6,3,1.00137,1.62992,0.595215,-0.385176,0.160998,0.00463575,-0.0471175,-0.144541,-0.005126,0.0169875,0.141819,5,0.1,7,3,-0.0772092,1.59593,0.663352,-0.00188835,-0.730991,0.028123,0.477936,0.357151,-0.0837147,0.00957573,0.376935,5,0.1,8,3,3.30957,2.28977,0.603574,-0.0600219,0.527591,-0.00588,0.251532,-0.588894,-0.00542402,0.00862555,0.713853,5,0.1,9,3,1.13093,-3.49287,0.731128,-0.442815,-0.217044,0.0056386,-1.0044,0.429153,0.0850558,0.00671284,0.997931,5,0.1,10,3,3.20271,2.92719,0.5,0.00818968,0.123823,0,-0.0981092,-0.180125,0,0.00858212,3.63235,5,0.1,11,3,-1.0111,3.94631,0.596552,0.071311,0.183582,0.00610352,-0.306427,-0.196815,-0.00655651,0.00949227,0.324383,5,0.1,12,3,-0.229014,-0.207035,0.595774,-0.106416,0.0576317,0.00634193,0.306472,-0.333823,-0.0182688,0.0107981,0.252082,5,0.1,13,3,-1.64802,2.86309,0.572573,0.207603,-0.153834,-0.00633746,-0.521421,-1.60849,0.0488758,0.0119238,1.66894,5,0.1,14,3,-3.37741,0.474564,0.735999,0.219584,0.843532,0.0125945,-0.0419617,-0.211537,-0.0090301,0.011605,0.657479,5,0.1,15,3,-1.95913,-0.800136,0.642628,0.214022,0.100356,0.0170231,-0.221431,-0.103861,-0.0176132,0.00927765,0.00470738,5,0.1,16,3,-1.07135,-2.34663,0.576082,0.356892,0.866026,0.0110641,-0.0830293,0,-0.0025332,0.0330363,2.19311,5,0.1,17,3,0.658616,2.76624,0.517108,0.266093,0.182891,-0.0169054,-0.0154674,-0.144958,0.0133812,0.00980355,0.0248551,5,0.1,18,3,3.29482,2.70653,0.62517,-0.229478,0.0505149,0.0113666,0.0444651,0.0342131,-0.0304282,0.0135489,0.193166,5,0.1,19,3,-4.11901,-0.0874776,0.559573,-0.0628233,-0.062372,-0.0114799,0.158787,0.158027,0.0290871,0.00864405,0.000675582,5,0.1,20,3,-1.62611,0.662279,0.614498,-0.152943,0.85969,-0.0127614,0.101149,-0.12666,0.00846386,0.00724224,0.750147,5,0.1,21,3,-3.33211,-0.432012,0.5,0.0320494,0.774772,1.49012e-06,0.0890493,-0.794067,0,0.0162479,2.7827,5,0.1,22,3,3.92464,-0.286844,0.575656,0.168025,0.866025,0.00880063,-0.0324249,1.43051e-05,-0.00169873,0.00942919,2.25393,5,0.1,23,3,0.933336,-3.73788,0.547083,0.611439,-0.046283,-0.00578314,-0.487238,-0.00858307,-0.013262,0.00748723,0.208591,5,0.1,24,3,-0.302279,1.23643,0.605367,0.0031814,0.192174,-0.00907928,-0.00295043,-0.271142,0.012815,0.0246283,1.80394,5,0.1,25,3,2.27486,0.166186,0.5,-0.156331,0.533428,1.49012e-06,-1.54757,0.754914,0,0.0124747,2.55018,5,0.1,26,3,-0.398041,1.72069,0.591997,-0.0226066,-0.13572,0.0153899,0.180021,0.193417,-0.0214279,0.00836221,0.421077,5,0.1,27,3,0.259649,2.64386,0.608174,-0.0139214,-0.430155,0.0272125,0.511348,-0.44477,-0.0489652,0.0120463,1.19737,5,0.1,28,3,0.673805,-0.553982,0.5,0.521006,0.296874,2.98023e-06,-0.459164,-0.169754,2.98023e-05,0.0093717,0.165467,5,0.1,29,3,-2.01319,2.46354,0.600652,0.259805,-0.209463,-0.000618398,-0.0934005,0.298858,-0.000566244,0.0127117,0.0976421,5,0.1
0,3.1,-0.184089,-3.30016,0.60501,-0.168923,-0.00263453,-0.00135973,0.0818195,-0.0327528,-0.0198185,0.0189049,0.362292,5,0.1,1,3.1,3.64049,-1.281,0.616158,-0.0616681,0.866025,-0.00523748,0.00147521,1.49012e-05,0.000175089,0.0276607,2.26942,5,0.1,2,3.1,3.32262,3.51596,0.541365,0.171691,0.134442,-0.118032,-0.47107,-0.610813,0.108104,0.0228028,1.12997,5,0.1,3,3.1,2.06264,-0.223102,0.522271,0.21943,0.0400398,-0.00909893,-0.288308,-0.045157,0.0118427,0.0108983,0.00381783,5,0.1,4,3.1,3.00188,3.26958,0.834042,-0.177723,0.164989,0.167351,-0.225738,-0.776112,-0.370458,0.0138284,0.344571,5,0.1,5,3.1,1.75053,-1.89964,0.638095,-0.182549,0.866025,-0.0126333,0.00383705,1.49012e-05,0.000257045,0.0105761,2.25016,5,0.1,6,3.1,0.962647,1.64525,0.595655,-0.388723,0.145177,0.00417642,-0.00863895,-0.170983,-0.00420958,0.0169875,0.141819,5,0.1,7,3.1,-0.0745374,1.52543,0.665948,0.0588917,-0.671813,0.0255274,0.693134,0.793517,0.0203997,0.00957573,0.376935,5,0.1,8,3.1,3.30475,2.33958,0.60295,-0.0373721,0.468461,-0.00667982,0.199914,-0.596479,-0.009574,0.00862555,0.713853,5,0.1,9,3.1,1.08376,-3.51174,0.732508,-0.481571,-0.154692,0.0251479,0.142775,0.769705,0.277497,0.00671284,0.997931,5,0.1,10,3.1,3.20308,2.93868,0.5,-0.00476204,0.106033,0,-0.311479,-0.17558,0,0.00858212,3.63235,5,0.1,11,3.1,-1.0054,3.96369,0.59713,0.0437761,0.164014,0.00545196,-0.242583,-0.196263,-0.00653416,0.00949227,0.324383,5,0.1,12,3.1,-0.2383,-0.202758,0.596327,-0.0808951,0.0296912,0.00482053,0.209983,-0.22646,-0.0125244,0.0107981,0.252082,5,0.1,13,3.1,-1.62988,2.83954,0.572185,0.155161,-0.316911,-0.00145584,-0.518724,-1.58979,0.0474676,0.0119238,1.66894,5,0.1,14,3.1,-3.35557,0.557999,0.737216,0.218071,0.825636,0.0117608,-0.00216067,-0.182435,-0.00803545,0.011605,0.657479,5,0.1,15,3.1,-1.93883,-0.79062,0.644242,0.191805,0.0899356,0.0152556,-0.225261,-0.105649,-0.0179261,0.00927765,0.00470738,5,0.1,16,3.1,-1.03593,-2.26002,0.57718,0.352585,0.866026,0.0109341,-0.0243783,0,-0.000730157,0.0330363,2.19311,5,0.1,17,3.1,0.68508,2.78382,0.515482,0.262338,0.168813,-0.0156067,-0.0659078,-0.140816,0.0129864,0.00980355,0.0248551,5,0.1,18,3.1,3.27243,2.71189,0.626143,-0.215513,0.057869,0.00800127,0.221968,0.100896,-0.0356622,0.0135489,0.193166,5,0.1,19,3.1,-4.12453,-0.0929549,0.558565,-0.047861,-0.0474898,-0.00874046,0.139952,0.139165,0.0256225,0.00864405,0.000675582,5,0.1,20,3.1,-1.64087,0.747786,0.613261,-0.141888,0.851094,-0.01198,0.12105,-0.0865124,0.00757724,0.00724224,0.750147,5,0.1,21,3.1,-3.32839,-0.359275,0.5,0.042833,0.674728,1.39698e-06,0.118241,-1.11276,-3.72529e-06,0.0162479,2.7827,5,0.1,22,3.1,3.94135,-0.200242,0.576531,0.166567,0.866025,0.00872454,-0.00678003,-2.98023e-07,-0.000346452,0.00942919,2.25393,5,0.1,23,3.1,0.992257,-3.74244,0.54647,0.568511,-0.043983,-0.00619153,-0.394329,0.0497997,0.00372157,0.00748723,0.208591,5,0.1,24,3.1,-0.301769,1.25514,0.604481,0.00922838,0.18898,-0.00898056,0.127915,0.154741,-0.00820309,0.0246283,1.80394,5,0.1,25,3.1,2.25135,0.223423,0.5,-0.313634,0.611194,1.39698e-06,-1.53635,0.748504,-3.72529e-06,0.0124747,2.55018,5,0.1,26,3.1,-0.399465,1.70807,0.59343,-0.00663465,-0.116815,0.0132854,0.133969,0.185162,-0.0207014,0.00836221,0.421077,5,0.1,27,3.1,0.260973,2.59822,0.610638,0.0413622,-0.485007,0.0219598,0.569215,-0.596747,-0.0548661,0.0120463,1.19737,5,0.1,28,3.1,0.723727,-0.525035,0.500001,0.478233,0.282804,4.28408e-06,-0.410482,-0.125179,0,0.0093717,0.165467,5,0.1,29,3.1,-1.98762,2.44423,0.600587,0.251692,-0.175569,-0.000668783,-0.080131,0.369713,-0.000406057,0.0127117,0.0976421,5,0.1
0,3.2,-0.200473,-3.30057,0.604787,-0.157785,-0.0054121,-0.00295639,0.140131,-0.0169277,-0.0121295,0.0230321,1.06582,5,0.1,1,3.2,3.63434,-1.19439,0.615636,-0.0611722,0.866026,-0.00519156,0.0110865,-5.96046e-05,0.000983477,0.038962,2.2695,5,0.1,2,3.2,3.33685,3.52603,0.530255,0.108427,0.064683,-0.102869,-0.745177,-0.746012,0.186831,0.022385,0.940495,5,0.1,3,3.2,2.08312,-0.219332,0.521421,0.189978,0.0352789,-0.00788569,-0.300765,-0.0500828,0.0124276,0.00735297,0.00132213,5,0.1,4,3.2,2.98303,3.28217,0.848875,-0.198257,0.0871301,0.129031,-0.170588,-0.758886,-0.387669,0.0157516,0.267412,5,0.1,5,3.2,1.73232,-1.81304,0.636835,-0.181133,0.866026,-0.0125349,0.0323057,-5.96046e-05,0.00223517,0.0113291,2.25083,5,0.1,6,3.2,0.923896,1.65888,0.596052,-0.384384,0.127,0.0037685,0.105441,-0.19145,-0.00405312,0.0164861,0.169018,5,0.1,7,3.2,-0.0651294,1.46271,0.668697,0.128936,-0.57838,0.0301704,0.674263,1.04707,0.0635684,0.00905898,0.56885,5,0.1,8,3.2,3.30191,2.38342,0.602234,-0.0202239,0.40791,-0.00762194,0.142932,-0.615716,-0.00855327,0.00793741,0.657586,5,0.1,9,3.2,1.03762,-3.52313,0.73654,-0.430045,-0.0716627,0.0562504,0.816405,0.8533,0.323355,0.0114666,3.00375,5,0.1,10,3.2,3.2,2.94842,0.5,-0.0671446,0.0887334,0,-0.916004,-0.170231,0,0.0104822,3.18142,5,0.1,11,3.2,-1.00212,3.9791,0.597642,0.0229985,0.144076,0.00478774,-0.172615,-0.203609,-0.00673532,0.00887801,0.487948,5,0.1,12,3.2,-0.245458,-0.200757,0.596753,-0.063324,0.0119179,0.00377297,0.146352,-0.131756,-0.00873208,0.0107637,0.247987,5,0.1,13,3.2,-1.6169,2.80036,0.572266,0.105381,-0.460964,0.00293255,-0.47034,-1.24645,0.0394285,0.0120112,1.38897,5,0.1,14,3.2,-3.3338,0.639458,0.738351,0.21677,0.800967,0.0109211,-0.0338554,-0.335693,-0.00905991,0.0125943,0.457259,5,0.1,15,3.2,-1.9208,-0.782164,0.645676,0.168628,0.0790641,0.013411,-0.239432,-0.112265,-0.0190437,0.00910352,0.00141176,5,0.1,16,3.2,-1.00084,-2.17342,0.578268,0.348374,0.866026,0.0108048,-0.0749826,0,-0.00229478,0.0355024,2.22806,5,0.1,17,3.2,0.71086,2.79998,0.513989,0.251922,0.15403,-0.0142425,-0.146002,-0.157595,0.0145137,0.00996349,0.0136448,5,0.1,18,3.2,3.25219,2.71821,0.626764,-0.187469,0.068599,0.004448,0.327826,0.104547,-0.0344515,0.00729908,0.348224,5,0.1,19,3.2,-4.12865,-0.0970424,0.557812,-0.0348926,-0.0346104,-0.00637025,0.118732,0.118155,0.0217557,0.00877807,0.000517251,5,0.1,20,3.2,-1.65441,0.832253,0.612102,-0.128579,0.835405,-0.0111774,0.145495,-0.255793,0.00876188,0.00733771,0.528575,5,0.1,21,3.2,-3.32353,-0.297302,0.500001,0.0542343,0.56676,0,0.103712,-0.995233,2.98023e-05,0.013365,2.80341,5,0.1,22,3.2,3.95795,-0.113639,0.5774,0.164956,0.866026,0.00864118,-0.0324249,-3.57628e-06,-0.00169873,0.013674,2.25463,5,0.1,23,3.2,1.04714,-3.74653,0.545889,0.528648,-0.0371993,-0.00528842,-0.41914,0.082016,0.0132918,0.00713992,0.145485,5,0.1,24,3.2,-0.3,1.27516,0.603525,0.027962,0.213811,-0.010252,0.234678,0.301361,-0.0151992,0.0233698,1.54522,5,0.1,25,3.2,2.21274,0.287926,0.5,-0.452971,0.674307,1.49012e-06,-1.20628,0.477433,-2.98023e-05,0.00950449,2.23793,5,0.1,26,3.2,-0.399568,1.6973,0.594656,0.00340566,-0.0986218,0.0112414,0.0644922,0.178874,-0.0201166,0.00749508,0.87112,5,0.1,27,3.2,0.267881,2.54686,0.612558,0.0955656,-0.539911,0.0164568,0.496387,-0.461221,-0.0542104,0.0124095,0.919002,5,0.1,28,3.2,0.769484,-0.497397,0.500001,0.436516,0.26953,2.98023e-06,-0.433594,-0.149891,0,0.00862316,0.113615,5,0.1,29,3.2,-1.96291,2.42857,0.600519,0.241885,-0.137216,-0.000695884,-0.12362,0.389814,-5.96046e-05,0.00983391,0.0423822,5,0.1
0,3.3,-0.215524,-3.30134,0.604439,-0.142974,-0.0104472,-0.00392403,0.156462,-0.0450611,-0.00725687,0.0230321,1.06582,5,0.1,1,3.3,3.62826,-1.10779,0.61512,-0.0607178,0.866025,-0.00514956,0.00166893,1.49012e-05,0.000167638,0.038962,2.2695,5,0.1,2,3.3,3.34353,3.52851,0.52099,0.0219483,-0.0167038,-0.0817252,-0.938401,-0.845358,0.228889,0.022385,0.940495,5,0.1,3,3.3,2.10063,-0.216056,0.520694,0.160252,0.0302355,-0.00665551,-0.293016,-0.0506155,0.0121407,0.00735297,0.00132213,5,0.1,4,3.3,2.96232,3.28706,0.859986,-0.215997,0.0109967,0.0945774,-0.168845,-0.74245,-0.303943,0.0157516,0.267412,5,0.1,5,3.3,1.71429,-1.72644,0.635588,-0.179844,0.866025,-0.0124455,0.00437349,1.49012e-05,0.000301749,0.0113291,2.25083,5,0.1,6,3.3,0.885741,1.67057,0.596412,-0.380448,0.106435,0.00346173,0.00105426,-0.215955,-0.00233203,0.0164861,0.169018,5,0.1,7,3.3,-0.0489325,1.41092,0.672122,0.193763,-0.450722,0.0389914,0.600648,1.44535,0.103977,0.00905898,0.56885,5,0.1,8,3.3,3.30051,2.42127,0.601424,-0.00871867,0.350357,-0.00858027,0.0881255,-0.541657,-0.00978261,0.00793741,0.657586,5,0.1,9,3.3,0.996893,-3.52741,0.743344,-0.39978,-0.0259988,0.0758463,-0.105083,0.12365,0.0840835,0.0114666,3.00375,5,0.1,10,3.3,3.18766,2.95671,0.5,-0.18761,0.0793323,0,-1.39682,-0.0329912,0,0.0104822,3.18142,5,0.1,11,3.3,-1.00064,3.9925,0.598088,0.00722446,0.124019,0.00412371,-0.135988,-0.197738,-0.00655651,0.00887801,0.487948,5,0.1,12,3.3,-0.251157,-0.200092,0.597093,-0.0515473,0.00254791,0.00307001,0.0935234,-0.0606328,-0.00558048,0.0107637,0.247987,5,0.1,13,3.3,-1.6084,2.74828,0.572741,0.0674458,-0.57696,0.00641989,-0.297882,-1.03307,0.0299402,0.0120112,1.38897,5,0.1,14,3.3,-3.31223,0.717997,0.739401,0.214722,0.770257,0.010087,-0.0181347,-0.307877,-0.00794977,0.0125943,0.457259,5,0.1,15,3.3,-1.90512,-0.774816,0.646923,0.144888,0.0679326,0.0115226,-0.235461,-0.110406,-0.0187345,0.00910352,0.00141176,5,0.1,16,3.3,-0.96641,-2.08682,0.579606,0.339514,0.866026,0.0182017,-0.111494,0,0.1329,0.0355024,2.22806,5,0.1,17,3.3,0.735292,2.81462,0.512635,0.236311,0.138861,-0.0128453,-0.170913,-0.149116,0.0137351,0.00996349,0.0136448,5,0.1,18,3.3,3.23528,2.72597,0.627171,-0.149151,0.0895437,0.00483133,0.42361,0.284359,0.0345036,0.00729908,0.348224,5,0.1,19,3.3,-4.13158,-0.0999447,0.557278,-0.0239842,-0.0237625,-0.00437265,0.0991523,0.0985474,0.0181459,0.00877807,0.000517251,5,0.1,20,3.3,-1.66646,0.914638,0.611026,-0.111595,0.812672,-0.0103693,0.18952,-0.232231,0.00774115,0.00733771,0.528575,5,0.1,21,3.3,-3.31756,-0.245381,0.500001,0.0651993,0.477159,1.76951e-06,0.108629,-0.678251,1.11759e-05,0.013365,2.80341,5,0.1,22,3.3,3.97435,-0.0270367,0.578259,0.163446,0.866025,0.00856249,-0.00753999,-5.96046e-07,-0.000383705,0.013674,2.25463,5,0.1,23,3.3,1.09807,-3.7498,0.545439,0.49124,-0.027917,-0.00359751,-0.347845,0.100151,0.0195131,0.00713992,0.145485,5,0.1,24,3.3,-0.295318,1.29862,0.602447,0.071437,0.259721,-0.0111133,0.582008,0.563048,-0.002563,0.0233698,1.54522,5,0.1,25,3.3,2.16143,0.357825,0.5,-0.571654,0.723292,-5.58794e-07,-1.1137,0.455655,-7.45058e-06,0.00950449,2.23793,5,0.1,26,3.3,-0.398855,1.6883,0.595683,0.0105669,-0.0817539,0.00933884,0.0484604,0.159152,-0.0180043,0.00749508,0.87112,5,0.1,27,3.3,0.27992,2.49045,0.613935,0.144743,-0.588481,0.011123,0.468146,-0.467107,-0.0516102,0.0124095,0.919002,5,0.1,28,3.3,0.81109,-0.471119,0.500001,0.396534,0.256513,2.42144e-06,-0.378024,-0.121377,-1.49012e-05,0.00862316,0.113615,5,0.1,29,3.3,-1.93979,2.41679,0.600451,0.21643,-0.0988215,-0.000653882,-0.360571,0.371814,0.000823289,0.00983391,0.0423822,5,0.1
