id,t,px,py,pz,vx,vy,vz,ax,ay,az,planning_time,qp_cost,planning_report,size,id,t,px,py,pz,vx,vy,vz,ax,ay,az,planning_time,qp_cost,planning_report,size,id,t,px,py,pz,vx,vy,vz,ax,ay,az,planning_time,qp_cost,planning_report,size,id,t,px,py,pz,vx,vy,vz,ax,ay,az,planning_time,qp_cost,planning_report,size,id,t,px,py,pz,vx,vy,vz,ax,ay,az,planning_time,qp_cost,planning_report,size,id,t,px,py,pz,vx,vy,vz,ax,ay,az,planning_time,qp_cost,planning_report,size,id,t,px,py,pz,vx,vy,vz,ax,ay,az,planning_time,qp_cost,planning_report,size,id,t,px,py,pz,vx,vy,vz,ax,ay,az,planning_time,qp_cost,planning_report,size,id,t,px,py,pz,vx,vy,vz,ax,ay,az,planning_time,qp_cost,planning_report,size,id,t,px,py,pz,vx,vy,vz,ax,ay,az,planning_time,qp_cost,planning_report,size,id,t,px,py,pz,vx,vy,vz,ax,ay,az,planning_time,qp_cost,planning_report,size,id,t,px,py,pz,vx,vy,vz,ax,ay,az,planning_time,qp_cost,planning_report,size,id,t,px,py,pz,vx,vy,vz,ax,ay,az,planning_time,qp_cost,planning_report,size,id,t,px,py,pz,vx,vy,vz,ax,ay,az,planning_time,qp_cost,planning_report,size,id,t,px,py,pz,vx,vy,vz,ax,ay,az,planning_time,qp_cost,planning_report,size,id,t,px,py,pz,vx,vy,vz,ax,ay,az,planning_time,qp_cost,planning_report,size,id,t,px,py,pz,vx,vy,vz,ax,ay,az,planning_time,qp_cost,planning_report,size,id,t,px,py,pz,vx,vy,vz,ax,ay,az,planning_time,qp_cost,planning_report,size,id,t,px,py,pz,vx,vy,vz,ax,ay,az,planning_time,qp_cost,planning_report,size,id,t,px,py,pz,vx,vy,vz,ax,ay,az,planning_time,qp_cost,planning_report,size
0,0,2.23564,0.200575,0.538569,0,0,0,0,0,0,0.0149083,3.28298,5,0.1,1,0,-0.99019,-0.853091,0.6549,0,0,0,0,0,0,0.0170567,2.27489,5,0.1,2,0,1.65982,1.14127,0.676756,0,0,0,0,0,0,0.00787578,1.66658,5,0.1,3,0,4.12095,4.00886,0.550325,0,0,0,0,0,0,0.0188213,1.10417,5,0.1,4,0,-3.87997,-3.87756,0.56358,0,0,0,0,0,0,0.0231756,3.51219,5,0.1,5,0,1.11606,-3.70715,0.610488,0,0,0,0,0,0,0.0202231,0.693255,5,0.1,6,0,-1.39374,-1.97929,0.553257,0,0,0,0,0,0,0.0351473,3.51219,5,0.1,7,0,4.16413,2.98196,0.553181,0,0,0,0,0,0,0.0114379,3.25734,5,0.1,8,0,-3.26348,3.18302,0.675368,0,0,0,0,0,0,0.00920569,2.42382,5,0.1,9,0,3.72304,0.184202,0.693834,0,0,0,0,0,0,0.0214567,3.5122,5,0.1,10,0,-4.20908,0.712406,0.594483,0,0,0,0,0,0,0.0527604,1.34184,5,0.1,11,0,-0.403399,-0.598917,0.597006,0,0,0,0,0,0,0.0095744,3.26607,5,0.1,12,0,-2.88288,3.83648,0.584718,0,0,0,0,0,0,0.0162425,1.30326,5,0.1,13,0,-2.82577,-1.37975,0.57507,0,0,0,0,0,0,0.0119383,0.988564,5,0.1,14,0,2.09552,-2.30084,0.511274,0,0,0,0,0,0,0.0141617,3.5122,5,0.1,15,0,-1.63492,3.94044,0.541213,0,0,0,0,0,0,0.0151976,3.5122,5,0.1,16,0,-3.6082,-1.27564,0.616639,0,0,0,0,0,0,0.0190595,3.5122,5,0.1,17,0,-2.35935,4.34387,0.547358,0,0,0,0,0,0,0.00937632,2.1599,5,0.1,18,0,2.21702,-0.500659,0.56593,0,0,0,0,0,0,0.0232269,3.51219,5,0.1,19,0,-3.80079,4.29848,0.578464,0,0,0,0,0,0,0.0126901,3.5122,5,0.1
0,0.1,2.23516,0.198613,0.53855,-0.0134386,-0.0557008,-0.00053579,-0.238895,-0.990238,-0.00952557,0.0149083,3.28298,5,0.1,1,0.1,-0.989469,-0.851574,0.654843,0.0204532,0.043061,-0.00162693,0.363614,0.765532,-0.0289194,0.0170567,2.27489,5,0.1,2,0.1,1.6584,1.14149,0.676832,-0.0402972,0.00618547,0.00217054,-0.716388,0.109971,0.0385866,0.00787578,1.66658,5,0.1,3,0.1,4.11993,4.00828,0.550377,-0.0287734,-0.0165612,0.00147196,-0.511497,-0.294447,0.0261702,0.0188213,1.10417,5,0.1,4,0.1,-3.87932,-3.87558,0.5636,0.0185631,0.0562832,0.000572857,0.330031,1.00058,0.0101887,0.0231756,3.51219,5,0.1,5,0.1,1.11631,-3.70625,0.610477,0.00693239,0.0254001,-0.000310969,0.123233,0.45158,-0.00552461,0.0202231,0.693255,5,0.1,6,0.1,-1.39284,-1.9774,0.553295,0.0256367,0.0534253,0.0010957,0.455767,0.949793,0.0194795,0.0351473,3.51219,5,0.1,7,0.1,4.16343,2.98008,0.553262,-0.0198297,-0.0534736,0.00229403,-0.352532,-0.950634,0.0407845,0.0114379,3.25734,5,0.1,8,0.1,-3.26195,3.1822,0.675446,0.0433691,-0.0232041,0.00221161,0.770986,-0.412524,0.039313,0.00920569,2.42382,5,0.1,9,0.1,3.72273,0.186266,0.693875,-0.00880361,0.0585991,0.0011689,-0.156492,1.04176,0.0207759,0.0214567,3.5122,5,0.1,10,0.1,-4.20797,0.713072,0.594489,0.0313841,0.0188946,0.000163447,0.557929,0.335906,0.00290945,0.0527604,1.34184,5,0.1,11,0.1,-0.405403,-0.598715,0.596998,-0.0568648,0.00573648,-0.000227988,-1.01093,0.101987,-0.00405312,0.0095744,3.26607,5,0.1,12,0.1,-2.88305,3.83522,0.584651,-0.00488013,-0.0357222,-0.00188984,-0.0867546,-0.635043,-0.0335947,0.0162425,1.30326,5,0.1,13,0.1,-2.8247,-1.38003,0.575096,0.0303973,-0.00800882,0.000738632,0.54042,-0.142373,0.0131316,0.0119383,0.988564,5,0.1,14,0.1,2.09391,-2.2995,0.511233,-0.0454795,0.037986,-0.0011635,-0.808522,0.675321,-0.0206791,0.0141617,3.5122,5,0.1,15,0.1,-1.63443,3.93841,0.541262,0.01381,-0.0576202,0.00138814,0.245512,-1.02438,0.0246726,0.0151976,3.5122,5,0.1,16,0.1,-3.60787,-1.27357,0.616627,0.0091698,0.0585536,-0.000332948,0.163034,1.04094,-0.00591949,0.0190595,3.5122,5,0.1,17,0.1,-2.35931,4.34224,0.547346,0.0011906,-0.0464633,-0.000348873,0.0211895,-0.826001,-0.00619888,0.00937632,2.1599,5,0.1,18,0.1,2.2152,-0.501691,0.565946,-0.0515178,-0.0293002,0.000453833,-0.915855,-0.520889,0.00806525,0.0232269,3.51219,5,0.1,19,0.1,-3.79928,4.29704,0.57848,0.0429925,-0.0407949,0.000462867,0.764295,-0.72521,0.00822544,0.0126901,3.5122,5,0.1
0,0.2,2.23243,0.187298,0.538441,-0.0424743,-0.176042,-0.00169277,-0.318527,-1.32032,-0.0126958,0.0085235,2.69352,5,0.1,1,0.2,-0.985314,-0.842827,0.654512,0.0646412,0.136094,-0.00514239,0.484824,1.02073,-0.0385344,0.026516,1.90673,5,0.1,2,0.2,1.65022,1.14275,0.677273,-0.12736,0.0195473,0.006859,-0.955164,0.146687,0.0514686,0.0102004,1.36734,5,0.1,3,0.2,4.11409,4.00491,0.550676,-0.0909328,-0.0523448,0.00465214,-0.682116,-0.392556,0.0348985,0.0188437,0.905912,5,0.1,4,0.2,-3.87555,-3.86414,0.563716,0.0586689,0.177884,0.00181198,0.440001,1.33407,0.0135601,0.0253803,2.9258,5,0.1,5,0.2,1.11772,-3.70109,0.610414,0.0219107,0.0802815,-0.000981987,0.16433,0.602007,-0.00736117,0.0249301,0.568784,5,0.1,6,0.2,-1.38763,-1.96655,0.553518,0.0810236,0.168851,0.00346303,0.607729,1.26636,0.0259578,0.0313583,2.92579,5,0.1,7,0.2,4.1594,2.96921,0.553728,-0.0626683,-0.169003,0.0072524,-0.469923,-1.26743,0.0543296,0.0120957,2.6725,5,0.1,8,0.2,-3.25314,3.17749,0.675895,0.137067,-0.0733376,0.00699013,1.02806,-0.550032,0.0524223,0.0105816,1.98862,5,0.1,9,0.2,3.72094,0.19817,0.694112,-0.0278294,0.185202,0.003694,-0.208497,1.38902,0.0277162,0.0213576,2.92579,5,0.1,10,0.2,-4.2016,0.71691,0.594522,0.099194,0.0597164,0.00051707,0.743866,0.447839,0.0038445,0.0485973,1.10092,5,0.1,11,0.2,-0.416953,-0.59755,0.596952,-0.179721,0.0181302,-0.000721216,-1.34791,0.135958,-0.00539422,0.00910779,2.81056,5,0.1,12,0.2,-2.88404,3.82796,0.584267,-0.0154257,-0.112903,-0.00597239,-0.115752,-0.846624,-0.0447929,0.0131869,1.06927,5,0.1,13,0.2,-2.81853,-1.38166,0.575246,0.0960708,-0.0253111,0.00233501,0.720501,-0.189841,0.0175238,0.0150586,0.811071,5,0.1,14,0.2,2.08468,-2.29179,0.510997,-0.143743,0.120056,-0.00367612,-1.07789,0.900507,-0.027597,0.0161054,2.9258,5,0.1,15,0.2,-1.63162,3.92671,0.541543,0.0436455,-0.182104,0.0043869,0.327408,-1.3659,0.0329018,0.0205595,2.92579,5,0.1,16,0.2,-3.60601,-1.26168,0.616559,0.0289798,0.185061,-0.00105202,0.217438,1.38789,-0.00789762,0.0234301,2.92579,5,0.1,17,0.2,-2.35907,4.3328,0.547275,0.00376105,-0.146842,-0.00110269,0.0282526,-1.10126,-0.00825524,0.0101049,1.7721,5,0.1,18,0.2,2.20474,-0.507643,0.566038,-0.162822,-0.0926018,0.00143498,-1.22106,-0.694543,0.0107288,0.0252849,2.9258,5,0.1,19,0.2,-3.79055,4.28876,0.578574,0.135875,-0.128925,0.0014618,1.01924,-0.967026,0.0109971,0.0233905,2.92578,5,0.1
0,0.3,2.22642,0.162365,0.538202,-0.0790134,-0.327497,-0.00314908,-0.389785,-1.61564,-0.0155382,0.0085235,2.69352,5,0.1,1,0.3,-0.976721,-0.823763,0.653811,0.104319,0.247215,-0.00879057,0.309952,1.14295,-0.0334233,0.026516,1.90673,5,0.1,2,0.3,1.63218,1.14552,0.678245,-0.236929,0.0363719,0.0127623,-1.16882,0.179455,0.0629723,0.0102004,1.36734,5,0.1,3,0.3,4.10121,3.9975,0.551335,-0.169177,-0.0973757,0.00865515,-0.834614,-0.480369,0.0426993,0.0188437,0.905912,5,0.1,4,0.3,-3.86724,-3.83894,0.563973,0.109274,0.331316,0.00337213,0.540778,1.63956,0.0166818,0.0253803,2.9258,5,0.1,5,0.3,1.12082,-3.68972,0.610275,0.0407608,0.149341,-0.00182642,0.201084,0.736713,-0.00901148,0.0249301,0.568784,5,0.1,6,0.3,-1.37615,-1.94262,0.554009,0.150917,0.314495,0.00644894,0.746869,1.55634,0.0319071,0.0313583,2.92579,5,0.1,7,0.3,4.15053,2.94528,0.554755,-0.116576,-0.314394,0.0134865,-0.575095,-1.55099,0.0665188,0.0120957,2.6725,5,0.1,8,0.3,-3.23373,3.1671,0.676885,0.254995,-0.136432,0.0130036,1.25797,-0.673071,0.0641532,0.0105816,1.98862,5,0.1,9,0.3,3.717,0.224414,0.694636,-0.0518147,0.344952,0.00688136,-0.256345,1.70707,0.0340566,0.0213576,2.92579,5,0.1,10,0.3,-4.18755,0.725367,0.594595,0.184528,0.11109,0.000959262,0.910312,0.548031,0.00472367,0.0485973,1.10092,5,0.1,11,0.3,-0.441395,-0.594604,0.596801,-0.305616,0.0444821,-0.00273427,-1.13874,0.357587,-0.0313856,0.00910779,2.81056,5,0.1,12,0.3,-2.88623,3.81197,0.583421,-0.0287011,-0.210025,-0.0111106,-0.141621,-1.03609,-0.0548176,0.0131869,1.06927,5,0.1,13,0.3,-2.80492,-1.38524,0.575577,0.178722,-0.0470879,0.0043449,0.881702,-0.232302,0.021439,0.0150586,0.811071,5,0.1,14,0.3,2.06431,-2.27477,0.510476,-0.267714,0.223619,-0.00684923,-1.32477,1.10666,-0.0338964,0.0161054,2.9258,5,0.1,15,0.3,-1.62544,3.9009,0.542165,0.0812981,-0.339192,0.00817105,0.402346,-1.67859,0.0404343,0.0205595,2.92579,5,0.1,16,0.3,-3.6019,-1.23546,0.61641,0.053985,0.344682,-0.00196034,0.267193,1.70571,-0.00970438,0.0234301,2.92579,5,0.1,17,0.3,-2.35854,4.312,0.547119,0.00700131,-0.27317,-0.00205012,0.0345707,-1.34763,-0.0101142,0.0101049,1.7721,5,0.1,18,0.3,2.18167,-0.520765,0.566242,-0.303258,-0.17248,0.00267001,-1.50073,-0.853561,0.0132062,0.0252849,2.9258,5,0.1,19,0.3,-3.77129,4.27049,0.578781,0.253091,-0.24014,0.0027257,1.25253,-1.1884,0.0134967,0.0233905,2.92578,5,0.1
0,0.4,2.2166,0.121681,0.537811,-0.116527,-0.482984,-0.00464618,-0.343919,-1.42538,-0.0136793,0.00935152,2.13115,5,0.1,1,0.4,-0.965018,-0.793522,0.65278,0.126985,0.354528,-0.0116602,0.145614,0.960499,-0.0232756,0.0197211,1.65402,5,0.1,2,0.4,1.60274,1.15003,0.67983,-0.349417,0.0536412,0.0188231,-1.03116,0.15831,0.0555217,0.014769,1.08186,5,0.1,3,0.4,4.08019,3.9854,0.55241,-0.249505,-0.143605,0.0127658,-0.736237,-0.423789,0.0376403,0.0135172,0.716763,5,0.1,4,0.4,-3.85365,-3.79774,0.564392,0.16138,0.489283,0.00497848,0.478029,1.44982,0.014782,0.0285204,2.51008,5,0.1,5,0.4,1.12588,-3.67117,0.610048,0.0601113,0.220245,-0.00269413,0.177443,0.649929,-0.00795722,0.0191549,0.450031,5,0.1,6,0.4,-1.35739,-1.90353,0.55481,0.222874,0.464442,0.00952333,0.66036,1.37615,0.0282228,0.0358951,2.51008,5,0.1,7,0.4,4.13604,2.90622,0.55643,-0.171924,-0.463665,0.0198886,-0.507593,-1.36828,0.0586808,0.0120437,2.11452,5,0.1,8,0.4,-3.20205,3.15016,0.6785,0.376058,-0.201207,0.0191763,1.10984,-0.593662,0.0566244,0.0197064,1.57342,5,0.1,9,0.4,3.71056,0.2673,0.695491,-0.0765145,0.509423,0.0101626,-0.226736,1.50937,0.0301003,0.0464471,2.51345,5,0.1,10,0.4,-4.16463,0.739168,0.594714,0.272131,0.163832,0.00141412,0.803232,0.483483,0.00417233,0.0640667,0.871059,5,0.1,11,0.4,-0.477095,-0.588229,0.596351,-0.402293,0.0837311,-0.00638217,-0.774264,0.401735,-0.0388622,0.00867693,2.67802,5,0.1,12,0.4,-2.88979,3.78588,0.582041,-0.0423253,-0.309736,-0.0163853,-0.125051,-0.914097,-0.0483692,0.00979308,0.846019,5,0.1,13,0.4,-2.78272,-1.39109,0.576117,0.263578,-0.0694424,0.0064075,0.777841,-0.20498,0.0188947,0.0168357,0.641729,5,0.1,14,0.4,2.03102,-2.24697,0.509625,-0.395358,0.33024,-0.0101164,-1.17141,0.97847,-0.0299513,0.0136968,2.51011,5,0.1,15,0.4,-1.61533,3.85873,0.543181,0.120062,-0.500923,0.0120655,0.355721,-1.48404,0.0357926,0.0136791,2.51119,5,0.1,16,0.4,-3.59519,-1.1926,0.616166,0.0797272,0.509024,-0.00289381,0.236273,1.50824,-0.00861287,0.019188,2.51331,5,0.1,17,0.4,-2.35767,4.27807,0.546864,0.0103235,-0.402856,-0.00302345,0.0306368,-1.18923,-0.00891089,0.0118708,1.4021,5,0.1,18,0.4,2.14397,-0.542209,0.566574,-0.447845,-0.254719,0.00394285,-1.32704,-0.754684,0.0116527,0.0291694,2.51008,5,0.1,19,0.4,-3.73983,4.24063,0.57912,0.373763,-0.354648,0.0040248,1.10745,-1.05047,0.0119507,0.0154551,2.51007,5,0.1
0,0.5,2.2032,0.0661345,0.537276,-0.151262,-0.62734,-0.00603953,-0.334024,-1.39137,-0.0134893,0.00935152,2.13115,5,0.1,1,0.5,-0.952179,-0.753262,0.651549,0.124631,0.449585,-0.0125222,-0.165164,0.896919,0.00401586,0.0197211,1.65402,5,0.1,2,0.5,1.56255,1.1562,0.681995,-0.454039,0.0697024,0.0244567,-1.00996,0.155032,0.0543892,0.014769,1.08186,5,0.1,3,0.5,4.05149,3.96888,0.553879,-0.324204,-0.186604,0.0165855,-0.721127,-0.415072,0.0368766,0.0135172,0.716763,5,0.1,4,0.5,-3.83505,-3.74136,0.564966,0.210573,0.638469,0.00649905,0.480548,1.45718,0.0148527,0.0285204,2.51008,5,0.1,5,0.5,1.1328,-3.64584,0.609738,0.0781137,0.286189,-0.0035014,0.173777,0.636607,-0.00779331,0.0191549,0.450031,5,0.1,6,0.5,-1.33171,-1.85,0.555908,0.290826,0.606052,0.0124276,0.663735,1.38321,0.0283718,0.0358951,2.51008,5,0.1,7,0.5,4.11627,2.85289,0.558718,-0.22342,-0.602492,0.0258431,-0.497073,-1.34017,0.0574887,0.0120437,2.11452,5,0.1,8,0.5,-3.1588,3.12701,0.680706,0.48866,-0.261442,0.0249207,1.08698,-0.581503,0.0554472,0.0197064,1.57342,5,0.1,9,0.5,3.70174,0.325818,0.696662,-0.0998482,0.659409,0.0132601,-0.227928,1.42043,0.0302531,0.0464471,2.51345,5,0.1,10,0.5,-4.13332,0.758013,0.594877,0.353625,0.212887,0.00183797,0.786632,0.473544,0.00409409,0.0640667,0.871059,5,0.1,11,0.5,-0.520163,-0.577655,0.595418,-0.449379,0.128947,-0.0130726,-0.192944,0.474896,-0.0871941,0.00867693,2.67802,5,0.1,12,0.5,-2.89466,3.75025,0.580156,-0.0550091,-0.402481,-0.0212927,-0.122398,-0.895306,-0.0473745,0.00979308,0.846019,5,0.1,13,0.5,-2.7524,-1.39908,0.576854,0.342498,-0.0902386,0.00832491,0.761867,-0.200741,0.0185072,0.0168357,0.641729,5,0.1,14,0.5,1.98546,-2.20892,0.508474,-0.5159,0.430926,-0.0127623,-1.17745,0.983477,-0.0223517,0.0136968,2.51011,5,0.1,15,0.5,-1.6015,3.80112,0.544572,0.156666,-0.65056,0.0157475,0.357538,-1.43589,0.0359565,0.0136791,2.51119,5,0.1,16,0.5,-3.58601,-1.13413,0.615833,0.104038,0.658996,-0.00377949,0.237435,1.42116,-0.00864267,0.019188,2.51331,5,0.1,17,0.5,-2.35648,4.23173,0.546516,0.0134286,-0.523509,-0.00392795,0.0299364,-1.16467,-0.00873953,0.0118708,1.4021,5,0.1,18,0.5,2.09236,-0.571561,0.567028,-0.5844,-0.332379,0.00514295,-1.33382,-0.758566,0.0117347,0.0291694,2.51008,5,0.1,19,0.5,-3.69675,4.19977,0.579584,0.487721,-0.462751,0.00525378,1.1131,-1.05596,0.0120029,0.0154551,2.51007,5,0.1
0,0.6,2.18654,-0.00302607,0.53661,-0.180477,-0.749281,-0.00722557,-0.238657,-0.99804,-0.00977516,0.0134177,1.61027,5,0.1,1,0.6,-0.940867,-0.704218,0.650348,0.0989363,0.526512,-0.011225,-0.326395,0.611365,0.0202656,0.0186465,1.32481,5,0.1,2,0.6,1.51248,1.16389,0.684692,-0.542668,0.0833064,0.0292286,-0.726581,0.11158,0.0391603,0.0107679,0.188284,5,0.1,3,0.6,4.01574,3.9483,0.555708,-0.387478,-0.223023,0.0198215,-0.518918,-0.298738,0.0265539,0.0223681,0.533617,5,0.1,4,0.6,-3.81176,-3.67073,0.565685,0.253165,0.767618,0.00781566,0.353456,1.07157,0.0109076,0.028342,2.28692,5,0.1,5,0.6,1.14141,-3.61428,0.609352,0.0933617,0.342053,-0.00418574,0.125051,0.458002,-0.00560284,0.0160802,0.335041,5,0.1,6,0.6,-1.29954,-1.78296,0.557283,0.349656,0.728646,0.0149414,0.488102,1.01727,0.0208914,0.0339754,2.2438,5,0.1,7,0.6,4.09163,2.78644,0.561568,-0.267041,-0.720102,0.0308886,-0.357628,-0.964046,0.0413656,0.010642,1.57957,5,0.1,8,0.6,-3.1049,3.09818,0.683455,0.584048,-0.312471,0.0297874,0.781894,-0.418425,0.0398755,0.0187527,1.17137,5,0.1,9,0.6,3.6907,0.398249,0.698129,-0.12005,0.781891,0.0159413,-0.167727,0.983,0.0222623,0.0274119,2.32389,5,0.1,10,0.6,-4.09433,0.781491,0.595079,0.422668,0.254443,0.00219792,0.565529,0.3407,0.00295043,0.0523882,0.648477,5,0.1,11,0.6,-0.565283,-0.562453,0.593648,-0.445765,0.173914,-0.0224531,0.241935,0.404179,-0.094533,0.0139357,2.57119,5,0.1,12,0.6,-2.90073,3.70587,0.577808,-0.0657499,-0.481051,-0.0254497,-0.0880957,-0.644088,-0.0340641,0.0164399,0.629842,5,0.1,13,0.6,-2.71463,-1.40903,0.577772,0.409353,-0.107858,0.00994951,0.548124,-0.144303,0.0132918,0.0156683,0.477754,5,0.1,14,0.6,1.9284,-2.16125,0.507103,-0.620264,0.518095,-0.0144884,-0.865877,0.723243,-0.0118017,0.0183427,2.21939,5,0.1,15,0.6,-1.58417,3.72945,0.546314,0.188357,-0.775856,0.0189349,0.262916,-1.02043,0.0264347,0.0188814,2.30852,5,0.1,16,0.6,-3.5745,-1.06173,0.615415,0.12508,0.781614,-0.00454485,0.174761,0.984669,-0.00634789,0.0273415,2.32313,5,0.1,17,0.6,-2.355,4.17399,0.546083,0.0160575,-0.625718,-0.00469387,0.0214577,-0.837564,-0.00631809,0.0107443,1.04381,5,0.1,18,0.6,2.02771,-0.608329,0.567597,-0.70262,-0.399612,0.00618249,-0.980914,-0.55784,0.00864267,0.020831,2.22711,5,0.1,19,0.6,-3.6428,4.14858,0.580165,0.586373,-0.55635,0.0063166,0.81861,-0.776529,0.00882149,0.0207622,2.24619,5,0.1
0,0.7,2.16731,-0.0822483,0.535839,-0.203475,-0.827846,-0.00816146,-0.207901,-0.560814,-0.00841543,0.0134177,1.61027,5,0.1,1,0.7,-0.932519,-0.648303,0.649334,0.0690106,0.592493,-0.00901101,-0.266984,0.655096,0.0230037,0.0186465,1.32481,5,0.1,2,0.7,1.45572,1.17288,0.687847,-0.581756,0.0971531,0.0340882,-0.0833049,0.152148,0.053402,0.0107679,0.188284,5,0.1,3,0.7,3.97444,3.92453,0.55782,-0.437294,-0.2517,0.0223708,-0.448927,-0.258431,0.0229739,0.0223681,0.533617,5,0.1,4,0.7,-3.78457,-3.58964,0.566521,0.290858,0.844153,0.00890279,0.373125,0.470161,0.0101589,0.028342,2.28692,5,0.1,5,0.7,1.15136,-3.57782,0.608906,0.105366,0.386023,-0.00472357,0.108168,0.396267,-0.0048466,0.0160802,0.335041,5,0.1,6,0.7,-1.2621,-1.70558,0.558883,0.398652,0.812878,0.0170379,0.46093,0.645995,0.019718,0.0339754,2.2438,5,0.1,7,0.7,4.06317,2.70999,0.56486,-0.301372,-0.804294,0.0348602,-0.309408,-0.687078,0.0357963,0.010642,1.57957,5,0.1,8,0.7,-3.04266,3.06488,0.686629,0.659113,-0.352641,0.0336155,0.676513,-0.362024,0.0345036,0.0187527,1.17137,5,0.1,9,0.7,3.67784,0.4803,0.699836,-0.136881,0.849116,0.0181751,-0.15831,0.385253,0.0210106,0.0274119,2.32389,5,0.1,10,0.7,-4.04928,0.808609,0.595314,0.476966,0.287151,0.00248132,0.489339,0.294764,0.00255182,0.0523882,0.648477,5,0.1,11,0.7,-0.608098,-0.543672,0.59086,-0.405659,0.195921,-0.0338032,0.535857,0.0565015,-0.124257,0.0139357,2.57119,5,0.1,12,0.7,-2.90774,3.6546,0.575095,-0.0742055,-0.542886,-0.0287202,-0.0761747,-0.557274,-0.0294708,0.0164399,0.629842,5,0.1,13,0.7,-2.671,-1.42053,0.578832,0.461975,-0.121713,0.011226,0.474215,-0.124872,0.0115037,0.0156683,0.477754,5,0.1,14,0.7,1.86198,-2.10577,0.505626,-0.707183,0.590695,-0.0147653,-0.817686,0.68298,0.00524893,0.0183427,2.21939,5,0.1,15,0.7,-1.564,3.6478,0.548341,0.214744,-0.847022,0.0215878,0.248209,-0.421166,0.0249483,0.0188814,2.30852,5,0.1,16,0.7,-3.5611,-0.979701,0.614928,0.142616,0.849019,-0.00518169,0.164881,0.38692,-0.00599027,0.0273415,2.32313,5,0.1,17,0.7,-2.35328,4.1073,0.545583,0.0181168,-0.706128,-0.00530006,0.018537,-0.724643,-0.005465,0.0107443,1.04381,5,0.1,18,0.7,1.9528,-0.651117,0.568259,-0.791887,-0.455609,0.0070503,-0.762239,-0.526786,0.00816584,0.020831,2.22711,5,0.1,19,0.7,-3.58036,4.08936,0.580846,0.658895,-0.624224,0.00732699,0.601441,-0.554174,0.0105537,0.0207622,2.24619,5,0.1
0,0.8,2.14607,-0.167063,0.534987,-0.219816,-0.860805,-0.00882,-0.109911,-0.104413,-0.00441074,0.010521,1.17886,5,0.1,1,0.8,-0.926823,-0.586064,0.648546,0.0462756,0.648463,-0.00679195,-0.18549,0.426769,0.0207126,0.0114324,0.820789,5,0.1,2,0.8,1.398,1.18334,0.691515,-0.564733,0.111455,0.0391081,0.397861,0.124216,0.0436008,0.00968592,0.253298,5,0.1,3,0.8,3.92877,3.89825,0.560157,-0.472486,-0.271964,0.0241712,-0.235915,-0.13566,0.0120997,0.0139282,0.376753,5,0.1,4,0.8,-3.75377,-3.50374,0.567457,0.323129,0.866026,0.00973344,0.252962,0,0.00602007,0.0288815,2.18864,5,0.1,5,0.8,1.16237,-3.53751,0.608412,0.113848,0.417095,-0.00510365,0.0567436,0.20802,-0.0025332,0.0165644,0.249789,5,0.1,6,0.8,-1.22018,-1.62178,0.560674,0.43661,0.855622,0.0186607,0.276804,0.20808,0.0118613,0.0315245,2.13855,5,0.1,7,0.8,4.03169,2.62679,0.568501,-0.325632,-0.852722,0.0376672,-0.162363,-0.266075,0.0188053,0.010935,1.14302,5,0.1,8,0.8,-2.97382,3.02805,0.69014,0.71215,-0.381029,0.0363186,0.355244,-0.19002,0.0181496,0.0144559,0.827054,5,0.1,9,0.8,3.66345,0.56638,0.701747,-0.149912,0.866026,0.019905,-0.095129,-2.98023e-05,0.0126362,0.022801,2.25439,5,0.1,10,0.8,-3.99947,0.838597,0.595573,0.515336,0.310263,0.00268221,0.257015,0.154763,0.0013411,0.0565783,0.457876,5,0.1,11,0.8,-0.645667,-0.52423,0.586865,-0.343063,0.189035,-0.0458762,0.695646,-0.176579,-0.111133,0.0121909,2.34261,5,0.1,12,0.8,-2.91549,3.5979,0.572096,-0.0801742,-0.586581,-0.0310317,-0.0399351,-0.29254,-0.0154674,0.016895,0.444702,5,0.1,13,0.8,-2.62275,-1.43324,0.580004,0.499153,-0.131503,0.0121295,0.249147,-0.0655651,0.00602007,0.0119435,0.337321,5,0.1,14,0.8,1.78762,-2.04366,0.504197,-0.774524,0.646937,-0.0136286,-0.491083,0.410199,0.0165999,0.0213548,2.08913,5,0.1,15,0.8,-1.54142,3.5618,0.550611,0.235182,-0.866026,0.0236407,0.148952,0.000119209,0.0149906,0.0177448,2.22527,5,0.1,16,0.8,-3.54611,-0.893625,0.614383,0.156188,0.866026,-0.00567436,0.0990629,0,-0.00357628,0.0164414,2.2532,5,0.1,17,0.8,-2.35139,4.03356,0.545029,0.0195682,-0.762951,-0.00572801,0.00977516,-0.380278,-0.00286102,0.0136826,0.736988,5,0.1,18,0.8,1.87043,-0.699023,0.569,-0.848576,-0.498991,0.00772327,-0.348985,-0.316411,0.00491738,0.0232573,2.10843,5,0.1,19,0.8,-3.51202,4.02471,0.581629,0.701702,-0.662845,0.00828356,0.235677,-0.201583,0.00795722,0.0162726,2.1912,5,0.1
0,0.9,2.12356,-0.253456,0.534084,-0.229819,-0.865332,-0.00921823,-0.0795573,0.00163078,-0.00313669,0.010521,1.17886,5,0.1,1,0.9,-0.923949,-0.520831,0.648161,0.00439789,0.640538,0.000681449,-0.595793,-0.513557,0.116285,0.0114324,0.820789,5,0.1,2,0.9,1.34424,1.19502,0.695615,-0.504122,0.121376,0.0425909,0.779003,0.0710562,0.0249445,0.00968592,0.253298,5,0.1,3,0.9,3.8804,3.8704,0.562631,-0.493859,-0.284256,0.0252672,-0.168949,-0.0971407,0.00866503,0.0139282,0.376753,5,0.1,4,0.9,-3.72012,-3.41714,0.568461,0.350004,0.866026,0.010353,0.259236,0,0.00572577,0.0288815,2.18864,5,0.1,5,0.9,1.17402,-3.49516,0.60789,0.11899,0.42588,-0.00533331,0.0406429,-0.029549,-0.00181794,0.0165644,0.249789,5,0.1,6,0.9,-1.17508,-1.53558,0.562602,0.465244,0.865375,0.0198869,0.266403,0.02601,0.0113994,0.0315245,2.13855,5,0.1,7,0.9,3.99836,2.54071,0.572357,-0.340344,-0.864786,0.0393716,-0.116274,-0.0169128,0.0134744,0.010935,1.14302,5,0.1,8,0.9,-2.90092,2.98904,0.693858,0.744341,-0.398248,0.0379628,0.254452,-0.136122,0.0129938,0.0144559,0.827054,5,0.1,9,0.9,3.64796,0.652982,0.703803,-0.159716,0.866025,0.0212069,-0.0908971,3.72529e-06,0.0120737,0.022801,2.25439,5,0.1,10,0.9,-3.94671,0.870361,0.595847,0.538627,0.324287,0.00280403,0.184134,0.110861,0.000961125,0.0565783,0.457876,5,0.1,11,0.9,-0.676616,-0.506929,0.581718,-0.277957,0.151209,-0.0568661,0.574529,-0.5247,-0.100303,0.0121909,2.34261,5,0.1,12,0.9,-2.92369,3.53785,0.568919,-0.083793,-0.613091,-0.0324334,-0.0285804,-0.209555,-0.0110827,0.016895,0.444702,5,0.1,13,0.9,-2.57165,-1.4467,0.581246,0.521728,-0.137444,0.0126754,0.178456,-0.0469759,0.00431761,0.0119435,0.337321,5,0.1,14,0.9,1.70826,-1.97683,0.502931,-0.807058,0.689436,-0.011584,-0.147909,0.395969,0.0234619,0.0213548,2.08913,5,0.1,15,0.9,-1.51703,3.4752,0.553049,0.253313,-0.866024,0.0250766,0.191756,-2.98023e-05,0.0123829,0.0177448,2.22527,5,0.1,16,0.9,-3.52997,-0.807022,0.613797,0.166399,0.866026,-0.00604335,0.0946969,-3.72529e-06,-0.00342727,0.0164414,2.2532,5,0.1,17,0.9,-2.34939,3.95545,0.544443,0.020453,-0.797413,-0.00598719,0.00698864,-0.272423,-0.00205263,0.0136826,0.736988,5,0.1,18,0.9,1.78451,-0.750571,0.569798,-0.864935,-0.53176,0.00823243,-0.0436231,-0.305198,0.00474229,0.0232573,2.10843,5,0.1,19,0.9,-3.4408,3.95787,0.582509,0.720665,-0.669525,0.00939891,0.116602,0.0725091,0.0130311,0.0162726,2.1912,5,0.1
0,1,2.1003,-0.339824,0.533151,-0.233954,-0.860152,-0.00937879,0.0038147,0.117481,0.000268221,0.0113457,0.860845,5,0.1,1,1,-0.926783,-0.460406,0.648883,-0.0629097,0.558872,0.01425,-0.706911,-1.06028,0.145435,0.010693,0.319365,5,0.1,2,1,1.29811,1.20741,0.699961,-0.415382,0.125185,0.0439286,0.966728,0.00333786,0.00116229,0.0116497,0.228812,5,0.1,3,1,3.83043,3.84164,0.565188,-0.502521,-0.289232,0.0257105,0.0109673,0.00619888,-0.000506639,0.0176106,0.38924,5,0.1,4,1,-3.68399,-3.33053,0.56952,0.370681,0.866026,0.0107706,0.136495,0,0.00214577,0.0371122,2.17456,5,0.1,5,1,1.18606,-3.45309,0.60735,0.121072,0.411892,-0.005427,-0.00268221,-0.24569,0.000149012,0.0159755,0.215604,5,0.1,6,1,-1.12744,-1.449,0.564638,0.484911,0.866026,0.020729,0.106454,0,0.00452995,0.0334703,1.9483,5,0.1,7,1,3.96392,2.45438,0.576341,-0.346297,-0.859487,0.0400618,0.00751019,0.130892,-0.000834465,0.009545,0.814704,5,0.1,8,1,-2.8256,2.94875,0.697699,0.757372,-0.405216,0.0386283,-0.0163317,0.00858307,-0.000804663,0.0134254,0.562432,5,0.1,9,1,3.63161,0.739585,0.705974,-0.166398,0.866026,0.0220954,-0.0357628,0,0.00470877,0.0207259,2.25271,5,0.1,10,1,-3.89221,0.903173,0.596131,0.548059,0.329965,0.00285357,-0.0118017,-0.00715256,-5.96046e-05,0.0511552,0.311381,5,0.1,11,1,-0.701925,-0.494642,0.575602,-0.232424,0.093437,-0.0646234,0.325471,-0.592515,-0.0500977,0.0133173,2.13961,5,0.1,12,1,-2.93217,3.47582,0.565638,-0.0852525,-0.623822,-0.0330016,0.00190735,0.0134706,0.000745058,0.0200185,0.302419,5,0.1,13,1,-2.51886,-1.46061,0.582528,0.530869,-0.13985,0.012897,-0.0114441,0.00298023,-0.000298023,0.00952218,0.229386,5,0.1,14,1,1.62745,-1.90623,0.501895,-0.802481,0.718719,-0.00908673,0.244081,0.159383,0.0258088,0.0220571,2.33033,5,0.1,15,1,-1.49082,3.38859,0.555605,0.269774,-0.866026,0.0258923,0.121772,0,0.00306964,0.0138983,2.21573,5,0.1,16,1,-3.51294,-0.72042,0.613178,0.17336,0.866026,-0.00629574,0.0373125,0,-0.0013113,0.0254613,2.2514,5,0.1,17,1,-2.34732,3.87477,0.543837,0.020808,-0.811362,-0.00609159,-0.000357628,0.017643,0.000119209,0.0197074,0.501197,5,0.1,18,1,1.69792,-0.805028,0.570641,-0.866026,-0.554319,0.00858307,5.96046e-05,-0.122637,0.00193715,0.0185725,2.0699,5,0.1,19,1,-3.36853,3.89176,0.583513,0.72059,-0.647879,0.0106603,-0.135422,0.360727,0.0112653,0.0172567,2.22931,5,0.1
0,1.1,2.07693,-0.425469,0.532215,-0.233065,-0.853784,-0.00933139,0.0225902,0.0543758,0.001017,0.0113457,0.860845,5,0.1,1,1.1,-0.936802,-0.409891,0.651178,-0.138483,0.451092,0.0327051,-0.767954,-1.08076,0.209577,0.010693,0.319365,5,0.1,2,1.1,1.26151,1.2199,0.704346,-0.316076,0.124312,0.0436218,0.996962,-0.0234917,-0.00825152,0.0116497,0.228812,5,0.1,3,1.1,3.7801,3.81276,0.567755,-0.504753,-0.287967,0.0256014,-0.0273436,0.0296533,-0.00261888,0.0176106,0.38924,5,0.1,4,1.1,-3.64615,-3.24393,0.57061,0.386298,0.866026,0.0110361,0.151426,0,0.00252202,0.0371122,2.17456,5,0.1,5,1.1,1.19815,-3.41363,0.606808,0.120536,0.372938,-0.00540083,-0.0124797,-0.50585,0.00057742,0.0159755,0.215604,5,0.1,6,1.1,-1.07834,-1.36239,0.566738,0.496884,0.86592,0.0212578,0.106156,-0.00423193,0.00485778,0.0334703,1.9483,5,0.1,7,1.1,3.92934,2.36892,0.580341,-0.344776,-0.850246,0.0398887,0.0355989,0.0945479,-0.00409037,0.009545,0.814704,5,0.1,8,1.1,-2.74998,2.90828,0.701557,0.754054,-0.403454,0.038461,-0.0777394,0.0414997,-0.00395626,0.0134254,0.562432,5,0.1,9,1.1,3.61476,0.826187,0.708212,-0.170683,0.866026,0.0226612,-0.0401735,-3.72529e-06,0.00530854,0.0207259,2.25271,5,0.1,10,1.1,-3.83749,0.936119,0.596416,0.54566,0.328517,0.00284137,-0.0562072,-0.033889,-0.000286847,0.0511552,0.311381,5,0.1,11,1.1,-0.724576,-0.488348,0.568949,-0.2293,0.0320589,-0.0678144,-0.198279,-0.615174,-0.0134222,0.0133173,2.13961,5,0.1,12,1.1,-2.94068,3.41353,0.562343,-0.0848725,-0.621088,-0.0328545,0.00882149,0.0640303,0.00340492,0.0200185,0.302419,5,0.1,13,1.1,-2.46585,-1.47457,0.583816,0.528543,-0.139241,0.0128389,-0.0545084,0.0143349,-0.00132993,0.00952218,0.229386,5,0.1,14,1.1,1.54952,-1.83339,0.501115,-0.746461,0.738396,-0.00654673,0.83033,0.190385,0.024531,0.0220571,2.33033,5,0.1,15,1.1,-1.46313,3.30199,0.558213,0.28428,-0.866026,0.0262641,0.147864,0,0.00303611,0.0138983,2.21573,5,0.1,16,1.1,-3.49538,-0.633817,0.612541,0.177837,0.866026,-0.00645472,0.0420511,-3.72529e-06,-0.00150129,0.0254613,2.2514,5,0.1,17,1.1,-2.34524,3.79376,0.543228,0.0207234,-0.807796,-0.00606608,-0.00210106,0.0833571,0.000618398,0.0197074,0.501197,5,0.1,18,1.1,1.61132,-0.861256,0.571511,-0.865908,-0.571109,0.00881143,0.00465661,-0.175748,0.00212342,0.0185725,2.0699,5,0.1,19,1.1,-3.29674,3.82871,0.584643,0.717984,-0.613165,0.0119642,0.0329316,0.352293,0.0136085,0.0172567,2.22931,5,0.1
0,1.2,2.05383,-0.510382,0.53129,-0.228006,-0.841725,-0.00911802,0.0841618,0.217825,0.00348687,0.0143195,0.60813,5,0.1,1,1.2,-0.954344,-0.370119,0.655506,-0.210187,0.345317,0.0537008,-0.639558,-1.02328,0.199795,0.00948275,0.215291,5,0.1,2,1.2,1.23478,1.23215,0.708645,-0.219864,0.120059,0.0421286,0.910878,-0.0630617,-0.0221133,0.00794311,0.43001,5,0.1,3,1.2,3.72961,3.78422,0.570293,-0.503182,-0.281543,0.0250325,0.0783205,0.105858,-0.00938773,0.0204315,0.274696,5,0.1,4,1.2,-3.6069,-3.15733,0.571723,0.396818,0.866026,0.0111684,0.0420809,0,-0.000327826,0.037645,2.17852,5,0.1,5,1.2,1.21009,-3.37911,0.606273,0.117841,0.315589,-0.00527799,-0.0442863,-0.620008,0.00196695,0.0203151,0.532542,5,0.1,6,1.2,-1.02831,-1.27586,0.56888,0.501609,0.864333,0.0214994,-0.0302196,-0.0338554,-0.000864267,0.0275341,1.5025,5,0.1,7,1.2,3.89517,2.28458,0.584294,-0.337082,-0.833708,0.0390008,0.126719,0.264287,-0.0146329,0.00926456,0.566648,5,0.1,8,1.2,-2.67525,2.8683,0.705368,0.737232,-0.394464,0.0376046,-0.276923,0.148177,-0.0141561,0.0178957,0.373983,5,0.1,9,1.2,3.59755,0.91279,0.710497,-0.172782,0.866026,0.0229374,0.00500679,0,-0.000655651,0.0216091,2.2526,5,0.1,10,1.2,-3.78341,0.968677,0.596698,0.533491,0.321187,0.00277907,-0.200391,-0.120699,-0.00107288,0.0414309,0.327797,5,0.1,11,1.2,-0.748923,-0.488121,0.562163,-0.260605,-0.0261553,-0.0672936,-0.377864,-0.534549,0.023663,0.00974138,1.82998,5,0.1,12,1.2,-2.94909,3.35197,0.559087,-0.0829697,-0.607234,-0.0321209,0.0311136,0.228167,0.0120997,0.0151303,0.201095,5,0.1,13,1.2,-2.41347,-1.48837,0.585088,0.516748,-0.136137,0.0125527,-0.194073,0.0510812,-0.00473857,0.0110263,0.152527,5,0.1,14,1.2,1.47968,-1.75884,0.500577,-0.644845,0.749364,-0.00425875,1.1636,-0.00154972,0.0209808,0.0127344,2.7146,5,0.1,15,1.2,-1.43406,3.21539,0.560846,0.295851,-0.866026,0.0262737,0.0690818,0,-0.00378489,0.019396,2.04892,5,0.1,16,1.2,-3.47745,-0.547215,0.61189,0.180048,0.866026,-0.00653416,-0.00500679,0,0.000208616,0.0174614,2.25124,5,0.1,17,1.2,-2.34319,3.7137,0.542627,0.0202656,-0.789773,-0.00593066,-0.0077486,0.296831,0.00220537,0.0140096,0.333281,5,0.1,18,1.2,1.52479,-0.919082,0.5724,-0.86416,-0.583091,0.00892282,0.0373721,-0.0375211,-0.000238419,0.017772,2.05969,5,0.1,19,1.2,-3.22484,3.76927,0.585903,0.718516,-0.574297,0.0131756,-0.058651,0.437737,0.00968575,0.0158638,2.17938,5,0.1
0,1.3,2.03144,-0.593605,0.530396,-0.219685,-0.823211,-0.00877399,0.0893772,0.188239,0.00368059,0.0143195,0.60813,5,0.1,1,1.3,-0.978407,-0.340107,0.661957,-0.269087,0.260369,0.0757657,-0.519983,-0.696033,0.22804,0.00948275,0.215291,5,0.1,2,1.3,1.2171,1.24389,0.712763,-0.136523,0.114929,0.0403301,0.745527,-0.0452176,-0.0158586,0.00794311,0.43001,5,0.1,3,1.3,3.67961,3.75659,0.57275,-0.497109,-0.271079,0.0241037,0.0658035,0.112161,-0.00996143,0.0204315,0.274696,5,0.1,4,1.3,-3.56699,-3.07073,0.572842,0.401061,0.866026,0.0112235,0.0245869,0,0.000771135,0.037645,2.17852,5,0.1,5,1.3,1.22166,-3.35087,0.605755,0.113464,0.248284,-0.00508344,-0.0469163,-0.681832,0.00208989,0.0203151,0.532542,5,0.1,6,1.3,-0.978093,-1.1897,0.571043,0.503844,0.857132,0.0218877,0.0430271,-0.137091,0.00669435,0.0275341,1.5025,5,0.1,7,1.3,3.86209,2.20241,0.588123,-0.324556,-0.810063,0.0375541,0.134259,0.241473,-0.0155121,0.00926456,0.566648,5,0.1,8,1.3,-2.60288,2.82958,0.70906,0.709856,-0.379816,0.0362054,-0.293493,0.157058,-0.0149943,0.0178957,0.373983,5,0.1,9,1.3,3.58025,0.999392,0.712793,-0.173353,0.866025,0.0230141,-0.00694394,0,0.000931323,0.0216091,2.2526,5,0.1,10,1.3,-3.73088,1.00021,0.59697,0.518128,0.309256,0.00267373,-0.13335,-0.1279,-0.00112131,0.0414309,0.327797,5,0.1,11,1.3,-0.7776,-0.493237,0.555606,-0.318461,-0.074276,-0.063339,-0.711486,-0.42139,0.0539832,0.00974138,1.82998,5,0.1,12,1.3,-2.95724,3.29237,0.555934,-0.0798922,-0.58468,-0.0309255,0.0330061,0.241771,0.0128075,0.0151303,0.201095,5,0.1,13,1.3,-2.36275,-1.50173,0.586321,0.497562,-0.131086,0.0120852,-0.205696,0.0541583,-0.00500679,0.0110263,0.152527,5,0.1,14,1.3,1.42141,-1.68451,0.500248,-0.517635,0.731646,-0.00240477,1.33664,-0.345387,0.0159331,0.0127344,2.7146,5,0.1,15,1.3,-1.40406,3.12879,0.563459,0.304435,-0.866026,0.0260118,0.0841543,0,-0.00269711,0.019396,2.04892,5,0.1,16,1.3,-3.45942,-0.460612,0.611236,0.180681,0.866026,-0.00655521,0.0077039,-3.57628e-06,-0.000268221,0.0174614,2.25124,5,0.1,17,1.3,-2.3412,3.63617,0.542045,0.0195019,-0.760434,-0.00571236,-0.00816584,0.314489,0.00234693,0.0140096,0.333281,5,0.1,18,1.3,1.4384,-0.977778,0.573293,-0.864633,-0.591869,0.0089624,-0.0203177,-0.101037,0.000517815,0.017772,2.05969,5,0.1,19,1.3,-3.15284,3.71317,0.587259,0.724419,-0.554579,0.0138424,0.12213,0.0202358,0.00345707,0.0158638,2.17938,5,0.1
0,1.4,2.00997,-0.674795,0.529539,-0.208944,-0.798042,-0.00833571,0.130057,0.339717,0.00527501,0.0113473,0.419425,5,0.1,1,1.4,-1.0076,-0.317147,0.670629,-0.311142,0.202422,0.0969887,-0.309229,-0.47943,0.186682,0.0116136,0.203571,5,0.1,2,1.4,1.20684,1.25515,0.716714,-0.072217,0.110039,0.0386149,0.536501,-0.0565648,-0.0198483,0.00776696,0.418538,5,0.1,3,1.4,3.63036,3.73011,0.575104,-0.486207,-0.257653,0.0229105,0.167727,0.162005,-0.0143945,0.0170265,0.189128,5,0.1,4,1.4,-3.52691,-2.98412,0.573965,0.39869,0.866026,0.0112116,-0.084281,0,-0.00149012,0.0261851,2.1817,5,0.1,5,1.4,1.23275,-3.32927,0.605259,0.107846,0.186002,-0.00483394,-0.0677705,-0.540257,0.00303984,0.0134672,0.49221,5,0.1,6,1.4,-0.927587,-1.10502,0.573265,0.50476,0.832504,0.0225037,-0.0472665,-0.372648,0.00420213,0.0259232,1.11899,5,0.1,7,1.4,3.83038,2.12279,0.591791,-0.30849,-0.779885,0.0356972,0.194073,0.384688,-0.022471,0.00794943,0.389623,5,0.1,8,1.4,-2.53354,2.79248,0.712596,0.674725,-0.361019,0.0344113,-0.424266,0.227094,-0.0216663,0.00960172,0.246162,5,0.1,9,1.4,3.56293,1.08599,0.715093,-0.172549,0.866026,0.0229076,0.0295639,0,-0.0039041,0.0190959,2.07739,5,0.1,10,1.4,-3.6798,1.03041,0.597231,0.502312,0.293949,0.00254065,-0.201583,-0.184834,-0.00160933,0.0583562,0.230235,5,0.1,11,1.4,-0.813095,-0.502541,0.549582,-0.391053,-0.109413,-0.0567809,-0.689596,-0.277609,0.0758469,0.00856117,1.49386,5,0.1,12,1.4,-2.96504,3.23525,0.552913,-0.0759363,-0.555742,-0.029394,0.0476837,0.349402,0.0184774,0.00962944,0.132367,5,0.1,13,1.4,-2.31414,-1.51454,0.587501,0.472939,-0.124604,0.0114858,-0.297427,0.0783801,-0.00721216,0.0138644,0.100394,5,0.1,14,1.4,1.37632,-1.61358,0.500078,-0.385064,0.681943,-0.00108927,1.28317,-0.639617,0.0103712,0.0118952,2.99915,5,0.1,15,1.4,-1.37329,3.04218,0.56604,0.309551,-0.866026,0.0255227,0.00524521,0,-0.00792742,0.0147864,1.59155,5,0.1,16,1.4,-3.44136,-0.37401,0.610581,0.179905,0.866025,-0.00652671,-0.0305176,1.43051e-05,0.00110269,0.0156035,2.25204,5,0.1,17,1.4,-2.33929,3.5619,0.541487,0.0185251,-0.722796,-0.00542998,-0.0115633,0.454545,0.00339746,0.0166633,0.219384,5,0.1,18,1.4,1.35189,-1.03733,0.57419,-0.864822,-0.596988,0.00893921,0.0241995,0.0247359,-0.0013113,0.0132931,2.06153,5,0.1,19,1.4,-3.07986,3.65755,0.588649,0.733536,-0.559103,0.0138402,0.0209808,-0.0628233,-0.00360608,0.0163072,1.69755,5,0.1
0,1.5,1.98971,-0.753022,0.528731,-0.196536,-0.766954,-0.0078327,0.124067,0.311196,0.00501797,0.0113473,0.419425,5,0.1,1,1.5,-1.04004,-0.298717,0.681313,-0.335384,0.171271,0.116867,-0.167221,-0.174221,0.197966,0.0116136,0.203571,5,0.1,2,1.5,1.20192,1.26588,0.720481,-0.0297584,0.10474,0.0367553,0.320867,-0.0530705,-0.0186227,0.00776696,0.418538,5,0.1,3,1.5,3.58251,3.70512,0.577326,-0.470898,-0.2422,0.0215369,0.15685,0.154376,-0.0137277,0.0170265,0.189128,5,0.1,4,1.5,-3.48738,-2.89752,0.575083,0.392449,0.866026,0.0111639,-0.0595003,0,-0.000119209,0.0261851,2.1817,5,0.1,5,1.5,1.2432,-3.3131,0.60479,0.101381,0.141297,-0.00454392,-0.0645891,-0.313655,0.00289828,0.0134672,0.49221,5,0.1,6,1.5,-0.877401,-1.02312,0.575528,0.498034,0.809231,0.0226625,-0.102602,-0.147056,-0.00153109,0.0259232,1.11899,5,0.1,7,1.5,3.80057,2.04675,0.595239,-0.287146,-0.740344,0.0331708,0.23526,0.424288,-0.0282191,0.00794943,0.389623,5,0.1,8,1.5,-2.46811,2.75747,0.715933,0.634256,-0.339358,0.0323448,-0.404283,0.216365,-0.0206381,0.00960172,0.246162,5,0.1,9,1.5,3.54557,1.17259,0.717398,-0.176499,0.865809,0.0234487,-0.0868887,-0.00866503,0.0118166,0.0190959,2.07739,5,0.1,10,1.5,-3.63046,1.05892,0.597478,0.48512,0.276319,0.00238763,-0.163555,-0.176132,-0.00152364,0.0583562,0.230235,5,0.1,11,1.5,-0.856146,-0.514406,0.544353,-0.473187,-0.123649,-0.0472161,-0.885081,-0.023596,0.111002,0.00856117,1.49386,5,0.1,12,1.5,-2.97241,3.18136,0.550062,-0.0713862,-0.522413,-0.0276318,0.0454485,0.332937,0.0176057,0.00962944,0.132367,5,0.1,13,1.5,-2.26828,-1.52662,0.588615,0.444568,-0.117128,0.010798,-0.28342,0.0746846,-0.00687316,0.0138644,0.100394,5,0.1,14,1.5,1.34415,-1.54807,0.500012,-0.260492,0.632414,-0.000313763,1.15074,-0.389531,0.00522658,0.0118952,2.99915,5,0.1,15,1.5,-1.34228,2.95558,0.568557,0.310734,-0.865888,0.0248137,0.00373274,0.00551343,-0.00726059,0.0147864,1.59155,5,0.1,16,1.5,-3.42347,-0.287407,0.609932,0.178249,0.866025,-0.00646748,-0.0123084,-1.78814e-06,0.000439584,0.0156035,2.25204,5,0.1,17,1.5,-2.3375,3.4918,0.54096,0.0174202,-0.67944,-0.00510542,-0.0110567,0.433087,0.00324473,0.0166633,0.219384,5,0.1,18,1.5,1.26541,-1.09705,0.575081,-0.865309,-0.5982,0.00889944,-0.0137761,-0.0163764,-2.6077e-05,0.0132931,2.06153,5,0.1,19,1.5,-3.00665,3.60102,0.590025,0.727762,-0.573528,0.0137663,-0.150651,-0.181958,0.00102445,0.0163072,1.69755,5,0.1
0,1.6,1.9707,-0.828014,0.527974,-0.183135,-0.730899,-0.00729263,0.147939,0.429839,0.00596046,0.0108247,0.284661,5,0.1,1,1.6,-1.07413,-0.282164,0.693921,-0.343308,0.162122,0.134373,0.0131726,-0.0326931,0.142962,0.0102042,0.200682,5,0.1,2,1.6,1.20025,1.27607,0.724057,-0.00635087,0.0988126,0.034675,0.155985,-0.0680089,-0.0238419,0.0144154,0.359183,5,0.1,3,1.6,3.53631,3.68171,0.579408,-0.45175,-0.225556,0.0200555,0.238538,0.183463,-0.0162721,0.0145505,0.566914,5,0.1,4,1.6,-3.44851,-2.81092,0.576197,0.383574,0.866026,0.0110775,-0.13113,0,-0.00205636,0.0343946,2.18866,5,0.1,5,1.6,1.253,-3.3,0.604351,0.0944167,0.125986,-0.00423193,-0.0767708,-0.00584126,0.00342727,0.01348,0.655153,5,0.1,6,1.6,-0.828303,-0.942923,0.577774,0.481725,0.79374,0.0221193,-0.233352,-0.20209,-0.00965595,0.0221787,0.811163,5,0.1,7,1.6,3.77311,1.97502,0.598405,-0.261092,-0.692064,0.0300348,0.286818,0.552893,-0.0344813,0.0101572,0.274814,5,0.1,8,1.6,-2.4068,2.72466,0.719059,0.590664,-0.31603,0.0301197,-0.480413,0.257015,-0.0244975,0.012105,0.161794,5,0.1,9,1.6,3.52744,1.25906,0.719808,-0.186139,0.86256,0.0247627,-0.0898838,-0.0693202,0.0122786,0.0284329,1.63079,5,0.1,10,1.6,-3.58285,1.08563,0.597709,0.465989,0.257331,0.00222325,-0.233889,-0.209332,-0.00181794,0.0465343,0.158778,5,0.1,11,1.6,-0.907753,-0.526582,0.540214,-0.556307,-0.117174,-0.0353798,-0.727654,0.139147,0.12219,0.0124989,1.15136,5,0.1,12,1.6,-2.97931,3.13086,0.547391,-0.0664771,-0.486511,-0.0257328,0.0538826,0.395536,0.0208914,0.00970918,0.148735,5,0.1,13,1.6,-2.22531,-1.53794,0.589659,0.414008,-0.109076,0.0100583,-0.336647,0.0887513,-0.00819564,0.0110893,0.18749,5,0.1,14,1.6,1.32329,-1.48663,0.5,-0.163326,0.597289,0,0.76592,-0.341892,0.00140071,0.0160438,3.06867,5,0.1,15,1.6,-1.31129,2.86907,0.570996,0.307819,-0.86382,0.0239015,-0.072062,0.0441074,-0.0116825,0.0137361,1.20091,5,0.1,16,1.6,-3.40574,-0.200805,0.609289,0.175792,0.866025,-0.00637919,-0.0437498,0,0.00157952,0.0159176,1.89943,5,0.1,17,1.6,-2.33581,3.42612,0.540467,0.0162303,-0.632745,-0.00475645,-0.0132322,0.514507,0.0039041,0.0114945,0.144199,5,0.1,18,1.6,1.17885,-1.1568,0.575969,-0.865504,-0.594726,0.00884086,0.0104308,0.10854,-0.00146031,0.00687275,1.07992,5,0.1,19,1.6,-2.935,3.54285,0.591407,0.701225,-0.587988,0.0138536,-0.387907,-0.0755787,-8.9407e-05,0.011581,1.36807,5,0.1
0,1.7,1.95309,-0.899081,0.527273,-0.169264,-0.691068,-0.00673411,0.134513,0.390794,0.0054054,0.0108247,0.284661,5,0.1,1,1.7,-1.10822,-0.265712,0.708136,-0.336857,0.170153,0.150205,0.118583,0.162174,0.159863,0.0102042,0.200682,5,0.1,2,1.7,1.20027,1.2856,0.727399,0.00547208,0.0914318,0.0320867,0.0797808,-0.0802949,-0.0281632,0.0144154,0.359183,5,0.1,3,1.7,3.49179,3.66003,0.581336,-0.442903,-0.208357,0.0185292,-0.0168681,0.166684,-0.0148043,0.0145505,0.566914,5,0.1,4,1.7,-3.41069,-2.72432,0.577298,0.373783,0.866026,0.01098,-0.0840276,0,-0.000532717,0.0343946,2.18866,5,0.1,5,1.7,1.26208,-3.28723,0.603944,0.0872198,0.131096,-0.00391034,-0.0697523,0.0902712,0.00311807,0.01348,0.655153,5,0.1,6,1.7,-0.781285,-0.864283,0.579935,0.458429,0.780717,0.0210726,-0.245471,-0.101339,-0.011716,0.0221787,0.811163,5,0.1,7,1.7,3.74853,1.90841,0.601225,-0.229857,-0.641236,0.0262731,0.33401,0.484973,-0.0402145,0.0101572,0.274814,5,0.1,8,1.7,-2.35002,2.69428,0.721955,0.545628,-0.291935,0.0278231,-0.43644,0.233501,-0.0222549,0.012105,0.161794,5,0.1,9,1.7,3.50848,1.34526,0.722332,-0.191969,0.86295,0.0255615,-0.0229478,0.0297353,0.00320375,0.0284329,1.63079,5,0.1,10,1.7,-3.53733,1.11037,0.597922,0.444941,0.237709,0.0020531,-0.204414,-0.190154,-0.00164285,0.0465343,0.158778,5,0.1,11,1.7,-0.96715,-0.537406,0.537301,-0.631549,-0.0976366,-0.0228145,-0.724751,0.23957,0.125904,0.0124989,1.15136,5,0.1,12,1.7,-2.98573,3.08386,0.544905,-0.062342,-0.456169,-0.0241307,0.0327229,0.239834,0.0126623,0.00970918,0.148735,5,0.1,13,1.7,-2.18535,-1.54859,0.590626,0.386893,-0.105202,0.00929041,-0.22684,0.00159442,-0.00743195,0.0110893,0.18749,5,0.1,14,1.7,1.31023,-1.42801,0.500005,-0.105762,0.579832,8.50298e-05,0.296965,-0.0586435,0.000376254,0.0160438,3.06867,5,0.1,15,1.7,-1.28084,2.78271,0.573331,0.301168,-0.864222,0.0228203,-0.0728592,-0.0137836,-0.0107698,0.0137361,1.20091,5,0.1,16,1.7,-3.38834,-0.114202,0.608657,0.172408,0.866025,-0.00625718,-0.0321567,0,0.00115484,0.0159176,1.89943,5,0.1,17,1.7,-2.33425,3.3653,0.54001,0.0149898,-0.584514,-0.00439072,-0.0120401,0.46742,0.0035353,0.0114945,0.144199,5,0.1,18,1.7,1.0936,-1.21388,0.577022,-0.828176,-0.530596,0.013687,0.691526,1.07666,0.0868849,0.00687275,1.07992,5,0.1,19,1.7,-2.8672,3.48362,0.592818,0.65127,-0.596422,0.0145492,-0.603497,-0.0638813,0.0118576,0.011581,1.36807,5,0.1
0,1.8,1.93685,-0.966138,0.526627,-0.155392,-0.6487,-0.00617802,0.146389,0.472963,0.00590086,0.0145752,0.191474,5,0.1,1,1.8,-1.14112,-0.247775,0.723891,-0.319257,0.18909,0.163983,0.233948,0.193052,0.105888,0.00738488,0.202292,5,0.1,2,1.8,1.20109,1.29431,0.730458,0.00964701,0.0826597,0.0290096,0.00476837,-0.0954866,-0.0334978,0.0102583,0.778882,5,0.1,3,1.8,3.44729,3.64004,0.583114,-0.447315,-0.191188,0.0170022,-0.0382662,0.181079,-0.0160635,0.0201907,0.463807,5,0.1,4,1.8,-3.37378,-2.63771,0.578392,0.363469,0.866026,0.0108615,-0.135899,0,-0.00229478,0.022174,2.21724,5,0.1,5,1.8,1.27045,-3.27363,0.603568,0.0800312,0.140929,-0.00358969,-0.0756979,0.0932217,0.00339746,0.0206293,0.644493,5,0.1,6,1.8,-0.736775,-0.78684,0.581978,0.430499,0.76614,0.0197038,-0.321567,-0.220507,-0.0159144,0.0286879,0.574012,5,0.1,7,1.8,3.72726,1.84674,0.603646,-0.195038,-0.591466,0.022094,0.358939,0.525296,-0.0428855,0.0109929,0.194088,5,0.1,8,1.8,-2.29767,2.66628,0.724624,0.500661,-0.267881,0.0255302,-0.473857,0.253677,-0.0241697,0.0116015,0.106759,5,0.1,9,1.8,3.4893,1.43155,0.724886,-0.190169,0.86059,0.0253305,0.0607967,-0.108719,-0.00801682,0.0208334,1.42993,5,0.1,10,1.8,-3.49392,1.13317,0.598119,0.422186,0.218117,0.00188351,-0.262856,-0.206411,-0.00175834,0.0431531,0.208126,5,0.1,11,1.8,-1.03357,-0.545889,0.535633,-0.692344,-0.0714213,-0.0107586,-0.454426,0.275195,0.112832,0.0103426,0.846641,5,0.1,12,1.8,-2.99181,3.03937,0.542552,-0.0592649,-0.433606,-0.0229388,0.0318289,0.231981,0.0122488,0.0143657,0.0857811,5,0.1,13,1.8,-2.14776,-1.55916,0.591517,0.364983,-0.106502,0.00852495,-0.226855,-0.0178218,-0.00807643,0.00918745,0.138199,5,0.1,14,1.8,1.3,-1.37019,0.500014,-0.109872,0.576615,8.9407e-05,-0.350177,-0.0437498,-0.000238419,0.0155159,2.6099,5,0.1,15,1.8,-1.25117,2.69637,0.575556,0.291249,-0.860506,0.0216082,-0.133514,0.110269,-0.0140071,0.0102074,0.877399,5,0.1,16,1.8,-3.3713,-0.0275995,0.608038,0.167972,0.866025,-0.00609756,-0.0623465,-1.19209e-06,0.00226498,0.0148947,1.47808,5,0.1,17,1.8,-2.33282,3.30922,0.539589,0.0137508,-0.536352,-0.00402629,-0.0129938,0.507474,0.0038147,0.0137739,0.0951482,5,0.1,18,1.8,1.01506,-1.26062,0.578893,-0.735508,-0.396931,0.0241771,1.12331,1.51861,0.114083,0.00948138,0.219722,5,0.1,19,1.8,-2.80539,3.42388,0.594337,0.582123,-0.595856,0.0158474,-0.771284,0.0953674,0.0125468,0.0171289,1.14013,5,0.1
0,1.9,1.922,-1.02878,0.526037,-0.141827,-0.604908,-0.00563199,0.129141,0.422809,0.00518933,0.0145752,0.191474,5,0.1,1,1.9,-1.17174,-0.227658,0.740901,-0.291717,0.214951,0.176672,0.313595,0.295147,0.132747,0.00738488,0.202292,5,0.1,2,1.9,1.20214,1.30211,0.733194,0.0112556,0.0732722,0.0257161,-0.000342727,-0.0930354,-0.0326484,0.0102583,0.778882,5,0.1,3,1.9,3.40264,3.62178,0.584738,-0.442858,-0.174414,0.0155131,0.129133,0.159621,-0.0141822,0.0201907,0.463807,5,0.1,4,1.9,-3.33834,-2.55111,0.579471,0.343102,0.866026,0.0107506,-0.267327,0,-0.000566244,0.022174,2.21724,5,0.1,5,1.9,1.27809,-3.25932,0.603226,0.0730176,0.14296,-0.00327481,-0.0667572,-0.0444651,0.00299886,0.0206293,0.644493,5,0.1,6,1.9,-0.695276,-0.711161,0.58387,0.399757,0.748227,0.0181444,-0.304233,-0.172187,-0.0156611,0.0286879,0.574012,5,0.1,7,1.9,3.70933,1.79001,0.605668,-0.165382,-0.544722,0.018579,0.244707,0.430495,-0.0286847,0.0109929,0.194088,5,0.1,8,1.9,-2.24985,2.64069,0.727063,0.45676,-0.244381,0.0232909,-0.417784,0.223637,-0.0213087,0.0116015,0.106759,5,0.1,9,1.9,3.47063,1.51601,0.727374,-0.182861,0.819333,0.0243604,0.0886768,-0.670992,-0.0118166,0.0208334,1.42993,5,0.1,10,1.9,-3.45278,1.15401,0.598299,0.402548,0.198994,0.00172053,-0.154018,-0.18198,-0.00154972,0.0431531,0.208126,5,0.1,11,1.9,-1.10507,-0.551604,0.535111,-0.736576,-0.0425871,0.000153482,-0.389025,0.292715,0.103049,0.0103426,0.846641,5,0.1,12,1.9,-2.9976,2.99704,0.540312,-0.0565529,-0.413849,-0.0218958,0.0249445,0.181809,0.0096038,0.0143657,0.0857811,5,0.1,13,1.9,-2.11225,-1.56998,0.592331,0.346291,-0.110479,0.0077772,-0.163957,-0.0517592,-0.00711158,0.00918745,0.138199,5,0.1,14,1.9,1.28601,-1.31245,0.500022,-0.180082,0.580205,5.82077e-05,-0.959896,0.0749081,-0.000368804,0.0155159,2.6099,5,0.1,15,1.9,-1.22267,2.61065,0.57765,0.2787,-0.854901,0.0203076,-0.127248,0.0466853,-0.0126921,0.0102074,0.877399,5,0.1,16,1.9,-3.35478,0.0589999,0.607439,0.162442,0.865867,-0.00589676,-0.0549108,-0.0063549,0.00198931,0.0148947,1.47808,5,0.1,17,1.9,-2.3315,3.25799,0.539204,0.012546,-0.489336,-0.00367286,-0.0114739,0.447437,0.00336394,0.0137739,0.0951482,5,0.1,18,1.9,0.946767,-1.29286,0.581977,-0.633357,-0.249854,0.0382029,0.937339,1.40117,0.155833,0.00948138,0.219722,5,0.1,19,1.9,-2.75114,3.36469,0.596007,0.501788,-0.588123,0.0177233,-0.827998,0.0853986,0.0225157,0.0171289,1.14013,5,0.1
0,2,1.90847,-1.0871,0.5255,-0.12885,-0.560781,-0.0051111,0.133395,0.473559,0.00530481,0.0111456,0.128354,5,0.1,1,2,-1.19923,-0.204714,0.759175,-0.257212,0.243093,0.187941,0.373185,0.246465,0.081867,0.0184075,2.94249,5,0.1,2,2,1.20309,1.30897,0.735602,0.00569522,0.0639319,0.0224382,-0.121891,-0.0942945,-0.0330806,0.00758661,1.29621,5,0.1,3,2,3.35929,3.60513,0.586219,-0.421393,-0.158387,0.014089,0.299335,0.164628,-0.0146627,0.0176975,0.445385,5,0.1,4,2,-3.30556,-2.46451,0.580542,0.310862,0.866026,0.0106364,-0.373006,0,-0.00217557,0.0246537,2.25183,5,0.1,5,2,1.28506,-3.24541,0.602913,0.0663131,0.133556,-0.00297427,-0.0688434,-0.136852,0.00309944,0.0116417,0.892458,5,0.1,6,2,-0.656866,-0.637349,0.585604,0.367825,0.725871,0.0165075,-0.341773,-0.298798,-0.017345,0.0228892,0.397657,5,0.1,7,2,3.6939,1.73767,0.607397,-0.144231,-0.501797,0.016132,0.186563,0.442803,-0.0212789,0.00786726,0.135317,5,0.1,8,2,-2.20626,2.61737,0.729285,0.414807,-0.221926,0.0211507,-0.430942,0.230551,-0.0219643,0.0092803,0.12376,5,0.1,9,2,3.45285,1.59397,0.729741,-0.171906,0.734493,0.0228986,0.132203,-0.990152,-0.0176728,0.00834436,0.661888,5,0.1,10,2,-3.41327,1.173,0.598464,0.387228,0.180718,0.00156313,-0.170112,-0.187695,-0.00157952,0.0472845,0.152434,5,0.1,11,2,-1.18029,-0.554429,0.53561,-0.763237,-0.0144079,0.0094533,-0.116289,0.264317,0.0813007,0.0173371,0.596033,5,0.1,12,2,-3.00312,2.95661,0.538173,-0.0538409,-0.39407,-0.0208512,0.0311136,0.226855,0.0120103,0.00949518,0.0655627,5,0.1,13,2,-2.07845,-1.58127,0.593073,0.329286,-0.115138,0.00706166,-0.188231,-0.0341535,-0.00730157,0.0133624,0.173727,5,0.1,14,2,1.26283,-1.25413,0.500026,-0.285244,0.584617,1.93715e-05,-1.07133,-0.015676,-0.00038743,0.0143907,2.07625,5,0.1,15,2,-1.19549,2.52559,0.579615,0.264165,-0.843567,0.0189543,-0.170231,0.211477,-0.0148118,0.0113206,0.909783,5,0.1,16,2,-3.33884,0.145504,0.60686,0.155872,0.863483,-0.00565797,-0.0811815,-0.0508428,0.00292063,0.01218,1.11715,5,0.1,17,2,-2.33031,3.21129,0.538853,0.0113964,-0.444394,-0.00333488,-0.0119209,0.46134,0.00345707,0.0139804,0.108794,5,0.1,18,2,0.887928,-1.31118,0.586574,-0.544986,-0.120395,0.0534967,0.843018,1.17272,0.142217,0.00738471,0.203268,5,0.1,19,2,-2.70515,3.30646,0.597892,0.417918,-0.574386,0.0199243,-0.842571,0.207305,0.0196993,0.0145044,0.969611,5,0.1
0,2.1,1.89621,-1.14095,0.525013,-0.116601,-0.517123,-0.00462402,0.115164,0.416242,0.00457466,0.0111456,0.128354,5,0.1,1,2.1,-1.22189,-0.178087,0.778032,-0.1858,0.298113,0.186051,0.978142,0.768217,-0.107847,0.0184075,2.94249,5,0.1,2,2.1,1.20299,1.31491,0.737686,-0.0104176,0.0550056,0.0193064,-0.274591,-0.0850037,-0.0298284,0.00758661,1.29621,5,0.1,3,2.1,3.31908,3.59007,0.587559,-0.378918,-0.143275,0.0127425,0.530452,0.142008,-0.0126511,0.0176975,0.445385,5,0.1,4,2.1,-3.27655,-2.37791,0.581599,0.267376,0.866026,0.0105317,-0.484064,0,-0.000555068,0.0246537,2.25183,5,0.1,5,2.1,1.29137,-3.23298,0.60263,0.0599921,0.113212,-0.00268985,-0.0594109,-0.248015,0.00266731,0.0116417,0.892458,5,0.1,6,2.1,-0.621712,-0.566129,0.587171,0.335811,0.699104,0.0148653,-0.307817,-0.264481,-0.0158437,0.0228892,0.397657,5,0.1,7,2.1,3.68028,1.68954,0.60892,-0.129299,-0.462138,0.0144578,0.120446,0.367567,-0.0132136,0.00786726,0.135317,5,0.1,8,2.1,-2.16681,2.5961,0.731297,0.375244,-0.205205,0.0191341,-0.371799,0.119895,-0.018958,0.0092803,0.12376,5,0.1,9,2.1,3.43581,1.66144,0.732285,-0.173198,0.606444,0.0308284,-0.122532,-1.50498,0.154156,0.00834436,0.661888,5,0.1,10,2.1,-3.37537,1.19019,0.598612,0.370829,0.163486,0.00141775,-0.170112,-0.161946,-0.00137463,0.0472845,0.152434,5,0.1,11,2.1,-1.25718,-0.554564,0.536944,-0.773532,0.0113839,0.0170243,-0.0566095,0.245035,0.0683479,0.0173371,0.596033,5,0.1,12,2.1,-3.00837,2.91818,0.53614,-0.0512924,-0.375492,-0.0198676,0.0225157,0.164136,0.0086911,0.00949518,0.0655627,5,0.1,13,2.1,-2.04613,-1.59312,0.593748,0.319592,-0.123043,0.00648433,-0.0340194,-0.107877,-0.00465289,0.0133624,0.173727,5,0.1,14,2.1,1.22852,-1.1956,0.500026,-0.403477,0.58663,-1.32248e-05,-1.22209,0.0237897,-0.000268221,0.0143907,2.07625,5,0.1,15,2.1,-1.16973,2.44199,0.581441,0.252688,-0.830123,0.0175836,-0.0773072,0.103325,-0.0131726,0.0113206,0.909783,5,0.1,16,2.1,-3.32364,0.231816,0.606308,0.148419,0.863879,-0.00538966,-0.0733137,0.0174826,0.00264123,0.01218,1.11715,5,0.1,17,2.1,-2.32922,3.16881,0.538535,0.0104524,-0.407887,-0.00306135,-0.00762939,0.294328,0.00220165,0.0139804,0.108794,5,0.1,18,2.1,0.837101,-1.3182,0.592628,-0.476226,-0.0278266,0.0673633,0.562813,0.700943,0.129007,0.00738471,0.203268,5,0.1,19,2.1,-2.66738,3.24986,0.599993,0.339357,-0.558776,0.0221436,-0.731781,0.133827,0.0226535,0.0145044,0.969611,5,0.1
0,2.2,1.88512,-1.19057,0.524574,-0.105214,-0.474718,-0.00417233,0.115097,0.44328,0.00458956,0.0109434,0.148412,5,0.1,1,2.2,-1.2351,-0.144154,0.795867,-0.0752926,0.381664,0.168574,1.17189,0.837789,-0.231445,0.0178398,2.39926,5,0.1,2,2.2,1.2,1.31999,0.739471,-0.0550151,0.0467986,0.0164255,-0.601113,-0.0796914,-0.0279248,0.00783046,2.18996,5,0.1,3,2.2,3.28409,3.57644,0.58877,-0.318927,-0.129235,0.0114918,0.652671,0.141621,-0.0126064,0.0184882,0.263154,5,0.1,4,2.2,-3.25233,-2.2913,0.582648,0.216347,0.866026,0.0104189,-0.526071,0,-0.00217557,0.0219434,2.2711,5,0.1,5,2.2,1.29707,-3.22294,0.602374,0.054118,0.0876427,-0.00242591,-0.0593066,-0.24879,0.00265241,0.0159403,0.862969,5,0.1,6,2.2,-0.589676,-0.49767,0.588579,0.30469,0.668265,0.0132814,-0.321001,-0.371456,-0.0160933,0.0205853,0.271227,5,0.1,7,2.2,3.6679,1.64515,0.610306,-0.118679,-0.425351,0.0133157,0.0981092,0.380218,-0.0104606,0.0105091,0.163932,5,0.1,8,2.2,-2.13112,2.57611,0.733117,0.338489,-0.195152,0.0172615,-0.371099,0.0933409,-0.0189543,0.00879169,0.155419,5,0.1,9,2.2,3.4177,1.71416,0.736272,-0.190151,0.4453,0.0498116,-0.189424,-1.66583,0.208408,0.00647342,0.309558,5,0.1,10,2.2,-3.33922,1.20573,0.598747,0.351167,0.14748,0.0012815,-0.231266,-0.161767,-0.00140071,0.0513054,0.438786,5,0.1,11,2.2,-1.3345,-0.552277,0.538955,-0.769055,0.0334978,0.0228286,0.168204,0.192732,0.046581,0.0170169,0.406342,5,0.1,12,2.2,-3.01338,2.88148,0.534198,-0.0488818,-0.35795,-0.0189394,0.0272989,0.200272,0.0106096,0.00963789,0.0293551,5,0.1,13,2.2,-2.01428,-1.60598,0.594375,0.31755,-0.133917,0.0060603,-0.0277758,-0.0977516,-0.00411272,0.0140185,0.213064,5,0.1,14,2.2,1.1823,-1.13697,0.500023,-0.517362,0.58392,-3.57628e-05,-1.00386,-0.100493,-0.000119209,0.0146735,1.58145,5,0.1,15,2.2,-1.14481,2.35963,0.583132,0.245583,-0.81507,0.0162244,-0.0779033,0.230312,-0.0143945,0.012477,0.655288,5,0.1,16,2.2,-3.30918,0.318137,0.605783,0.140291,0.860307,-0.0050962,-0.0929832,-0.114396,0.00336766,0.0183727,0.816008,5,0.1,17,2.2,-2.32821,3.12939,0.538239,0.00975728,-0.381094,-0.00286102,-0.00667572,0.260234,0.00196695,0.0130091,0.0628618,5,0.1,18,2.2,0.792036,-1.3181,0.599947,-0.42704,0.0239581,0.0782683,0.444055,0.354171,0.084877,0.0201397,3.09009,5,0.1,19,2.2,-2.63694,3.19472,0.602312,0.270993,-0.542682,0.0241071,-0.63777,0.208616,0.0151694,0.0109204,0.830585,5,0.1
0,2.3,1.87509,-1.23619,0.524176,-0.0961164,-0.440756,-0.00380976,0.0730082,0.26501,0.00290945,0.0109434,0.148412,5,0.1,1,2.3,-1.23638,-0.101412,0.811439,0.0521164,0.475392,0.141822,1.31899,0.971556,-0.295248,0.0178398,2.39926,5,0.1,2,2.3,1.19029,1.3243,0.740982,-0.148761,0.0394259,0.0138413,-1.17738,-0.0685006,-0.0240132,0.00783046,2.18996,5,0.1,3,2.3,3.25555,3.56418,0.58986,-0.251283,-0.116326,0.0103427,0.686511,0.120208,-0.0107065,0.0184882,0.263154,5,0.1,4,2.3,-3.23332,-2.2047,0.583683,0.164011,0.866026,0.0103142,-0.512511,0,-0.000536442,0.0219434,2.2711,5,0.1,5,2.3,1.30221,-3.21548,0.602144,0.0487119,0.0619456,-0.00218423,-0.050351,-0.231802,0.0022538,0.0159403,0.862969,5,0.1,6,2.3,-0.560724,-0.432581,0.58983,0.27502,0.634119,0.0117875,-0.280321,-0.334369,-0.0140853,0.0205853,0.271227,5,0.1,7,2.3,3.65635,1.60415,0.611606,-0.113836,-0.397799,0.0128616,0.0117272,0.200026,-0.000178814,0.0105091,0.163932,5,0.1,8,2.3,-2.09885,2.55674,0.734762,0.309149,-0.194605,0.0157628,-0.235453,-0.0574738,-0.0120327,0.00879169,0.155419,5,0.1,9,2.3,3.39797,1.75102,0.742442,-0.202186,0.29825,0.0745919,-0.0527799,-1.28369,0.26948,0.00647342,0.309558,5,0.1,10,2.3,-3.30559,1.21972,0.598869,0.318448,0.132737,0.00115354,-0.409156,-0.137299,-0.00119209,0.0513054,0.438786,5,0.1,11,2.3,-1.41058,-0.547999,0.541456,-0.75219,0.0515531,0.0270015,0.196047,0.163455,0.0354871,0.0170169,0.406342,5,0.1,12,2.3,-3.01814,2.84666,0.532356,-0.046204,-0.338311,-0.0178992,0.0276566,0.202641,0.0107251,0.00963789,0.0293551,5,0.1,13,2.3,-1.98256,-1.61984,0.594963,0.317413,-0.142919,0.0057132,0.00647455,-0.0749454,-0.00310317,0.0140185,0.213064,5,0.1,14,2.3,1.12549,-1.07899,0.500019,-0.617971,0.57583,-4.33996e-05,-0.95363,-0.0870824,-3.72529e-05,0.0146735,1.58145,5,0.1,15,2.3,-1.12058,2.27909,0.584687,0.239325,-0.796449,0.014899,-0.0585169,0.178874,-0.0125878,0.012477,0.655288,5,0.1,16,2.3,-3.29559,0.403803,0.60529,0.1317,0.853956,-0.00478495,-0.0833273,-0.0565648,0.00301749,0.0183727,0.816008,5,0.1,17,2.3,-2.32726,3.09243,0.537961,0.00919402,-0.359119,-0.00269515,-0.00503659,0.196129,0.00147894,0.0130091,0.0628618,5,0.1,18,2.3,0.75004,-1.31526,0.608021,-0.425466,0.0215562,0.0815837,-0.313666,-0.33059,-0.013113,0.0201397,3.09009,5,0.1,19,2.3,-2.61272,3.14129,0.604801,0.216041,-0.527233,0.0256737,-0.471786,0.128612,0.0145473,0.0109204,0.830585,5,0.1
0,2.4,1.86581,-1.27904,0.523808,-0.0895441,-0.416675,-0.00354797,0.0630021,0.238121,0.0025034,0.0108812,0.0864937,5,0.1,1,2.4,-1.22472,-0.0492342,0.824097,0.178549,0.564736,0.111033,1.16736,0.768158,-0.313759,0.0142789,1.87387,5,0.1,2,2.4,1.16923,1.32791,0.74225,-0.273505,0.0329733,0.0115782,-1.24407,-0.0611544,-0.0214577,0.010746,2.16409,5,0.1,3,2.4,3.23382,3.55314,0.590842,-0.184029,-0.104564,0.00929385,0.647902,0.117779,-0.0104308,0.0170245,0.261001,5,0.1,4,2.4,-3.21941,-2.1181,0.58471,0.11524,0.866026,0.0102058,-0.45681,0,-0.00208616,0.0227278,0.132613,5,0.1,5,2.4,1.30683,-3.21021,0.601937,0.0437856,0.0460327,-0.00196397,-0.0493526,-0.0721216,0.00220537,0.0120827,1.08011,5,0.1,6,2.4,-0.534609,-0.370932,0.59094,0.247282,0.597532,0.0104144,-0.279963,-0.413045,-0.0136197,0.0194405,0.183233,5,0.1,7,2.4,3.64497,1.56527,0.612898,-0.114059,-0.38026,0.0130087,-0.00631809,0.172317,0.00193715,0.0135453,0.0982058,5,0.1,8,2.4,-2.06902,2.53692,0.736283,0.287956,-0.202274,0.0146806,-0.203133,-0.0772476,-0.0103414,0.0103183,0.0962051,5,0.1,9,2.4,3.3777,1.775,0.751229,-0.201088,0.186878,0.100629,0.0722408,-0.952065,0.23821,0.025932,1.49834,5,0.1,10,2.4,-3.27599,1.23232,0.598979,0.271916,0.119302,0.00103861,-0.509501,-0.134289,-0.0012219,0.0496471,0.259658,5,0.1,11,2.4,-1.4846,-0.542108,0.544306,-0.725359,0.0653729,0.0296995,0.358582,0.109673,0.017643,0.0106298,0.271575,5,0.1,12,2.4,-3.02261,2.81392,0.530623,-0.043124,-0.315756,-0.0167057,0.0348091,0.254989,0.0135005,0.00787503,0.0111879,5,0.1,13,2.4,-1.95085,-1.63442,0.595519,0.315684,-0.147688,0.00539422,-0.0540018,-0.0156164,-0.00345707,0.00746369,0.173832,5,0.1,14,2.4,1.05937,-1.022,0.500015,-0.698817,0.562157,-4.32134e-05,-0.625372,-0.203967,0,0.0197837,1.14472,5,0.1,15,2.4,-1.09699,2.2005,0.586114,0.231969,-0.773054,0.0136271,-0.0964403,0.314236,-0.0131726,0.0127822,0.473922,5,0.1,16,2.4,-3.28285,0.488717,0.604827,0.122863,0.841538,-0.00446439,-0.0964403,-0.222399,0.00351667,0.0107496,0.580164,5,0.1,17,2.4,-2.32637,3.05751,0.537699,0.00867844,-0.338984,-0.00254214,-0.00560284,0.218391,0.00160933,0.0192945,0.0489304,5,0.1,18,2.4,0.705345,-1.3154,0.615989,-0.472283,-0.0293374,0.0766695,-0.546604,-0.630736,-0.0804365,0.0161187,2.71768,5,0.1,19,2.4,-2.59327,3.08927,0.60743,0.174755,-0.512141,0.0267446,-0.362515,0.193238,0.00569224,0.0134775,0.704526,5,0.1
0,2.5,1.85713,-1.31967,0.523465,-0.084272,-0.396925,-0.00333879,0.0465214,0.176005,0.00184029,0.0108812,0.0864937,5,0.1,1,2.5,-1.20102,0.0111499,0.83362,0.294425,0.642345,0.0794436,1.10693,0.733656,-0.312138,0.0142789,1.87387,5,0.1,2,2.5,1.13512,1.33092,0.743308,-0.411921,0.0274135,0.00962699,-1.4415,-0.0507012,-0.0177957,0.010746,2.16409,5,0.1,3,2.5,3.21852,3.54323,0.591723,-0.123459,-0.0938945,0.00834828,0.556514,0.0987053,-0.00875816,0.0170245,0.261001,5,0.1,4,2.5,-3.21009,-2.03213,0.585723,0.0720438,0.847261,0.0100581,-0.402763,-0.37013,-0.00136346,0.0227278,0.132613,5,0.1,5,2.5,1.31098,-3.2058,0.601751,0.0393145,0.0457726,-0.00176402,-0.0413656,0.127167,0.00185147,0.0120827,1.08011,5,0.1,6,2.5,-0.511195,-0.313123,0.591917,0.221661,0.559393,0.00916757,-0.239154,-0.368683,-0.0115782,0.0194405,0.183233,5,0.1,7,2.5,3.63347,1.52796,0.614216,-0.116266,-0.366882,0.0133853,-0.0292212,0.114486,0.00456721,0.0135453,0.0982058,5,0.1,8,2.5,-2.04112,2.51629,0.737706,0.270959,-0.210142,0.0138155,-0.149906,-0.06859,-0.00763312,0.0103183,0.0962051,5,0.1,9,2.5,3.35824,1.78942,0.76216,-0.185516,0.106091,0.114991,0.226796,-0.671551,0.058122,0.025932,1.49834,5,0.1,10,2.5,-3.25144,1.24363,0.599077,0.218469,0.107135,0.000928529,-0.548646,-0.112563,-0.00101328,0.0496471,0.259658,5,0.1,11,2.5,-1.55541,-0.535056,0.547355,-0.690966,0.0752393,0.0311471,0.351608,0.0838116,0.0101887,0.0106298,0.271575,5,0.1,12,2.5,-3.02675,2.78363,0.529021,-0.0395838,-0.289831,-0.0153336,0.0366122,0.268012,0.0141822,0.00787503,0.0111879,5,0.1,13,2.5,-1.91954,-1.64904,0.596042,0.310296,-0.14273,0.00507319,-0.0654832,0.107296,-0.00313297,0.00746369,0.173832,5,0.1,14,2.5,0.986428,-0.966726,0.500011,-0.75829,0.543465,-4.03263e-05,-0.521246,-0.190817,4.84288e-05,0.0197837,1.14472,5,0.1,15,2.5,-1.07452,2.12463,0.587414,0.214999,-0.744927,0.0124206,-0.233367,0.278175,-0.0113584,0.0127822,0.473922,5,0.1,16,2.5,-3.27103,0.571719,0.604397,0.113558,0.817481,-0.00412939,-0.0924915,-0.283075,0.00329688,0.0107496,0.580164,5,0.1,17,2.5,-2.32552,3.02455,0.537452,0.00822507,-0.321348,-0.00241203,-0.0038892,0.151783,0.00112131,0.0192945,0.0489304,5,0.1,18,2.5,0.654728,-1.32212,0.623188,-0.544644,-0.109967,0.0667329,-0.823721,-0.921279,-0.114735,0.0161187,2.71768,5,0.1,19,2.5,-2.57727,3.03881,0.610129,0.148383,-0.498626,0.0271786,-0.182554,0.105351,0.0019744,0.0134775,0.704526,5,0.1
0,2.6,1.84894,-1.35846,0.52314,-0.0795454,-0.378209,-0.0031516,0.0510216,0.211775,0.00202656,0.00975183,0.0673876,5,0.1,1,2.6,-1.16644,0.0786572,0.840046,0.392586,0.702937,0.0496343,0.826061,0.443227,-0.279665,0.0170513,1.37414,5,0.1,2,2.6,1.08696,1.33342,0.744186,-0.547487,0.0227183,0.00797808,-1.20944,-0.0436902,-0.0153482,0.00725407,0.195368,5,0.1,3,2.6,3.20876,3.53433,0.592515,-0.0737965,-0.0842929,0.00749677,0.432968,0.0953674,-0.00849366,0.0147344,0.508993,5,0.1,4,2.6,-3.20478,-1.94982,0.58672,0.0354052,0.793293,0.00984669,-0.327229,-0.701368,-0.00315905,0.0249521,1.58315,5,0.1,5,2.6,1.31471,-3.2,0.601583,0.0352919,0.0757277,-0.00158399,-0.0399351,0.454307,0.00178814,0.0117375,1.55335,5,0.1,6,2.6,-0.490202,-0.25908,0.592778,0.198308,0.520599,0.00805557,-0.232652,-0.42019,-0.010848,0.0236237,0.12324,5,0.1,7,2.6,3.62172,1.49187,0.615574,-0.118428,-0.354075,0.0137463,-0.00786781,0.15527,0.00187755,0.00778349,0.0782684,5,0.1,8,2.6,-2.01477,2.49502,0.739049,0.255734,-0.214058,0.0130385,-0.164092,-0.00190735,-0.00831485,0.00834875,0.10542,5,0.1,9,2.6,3.34099,1.79708,0.773715,-0.158006,0.0510037,0.113967,0.313044,-0.437915,-0.0705123,0.022695,1.44338,5,0.1,10,2.6,-3.23232,1.25379,0.599165,0.164104,0.096187,0.000831485,-0.530243,-0.108838,-0.000983477,0.0412454,0.257865,5,0.1,11,2.6,-1.62261,-0.527181,0.5505,-0.651309,0.0815034,0.0315562,0.456393,0.0390708,-0.00274181,0.0157391,0.179798,5,0.1,12,2.6,-3.03052,2.75603,0.527561,-0.0357091,-0.26145,-0.0138313,0.0413656,0.302434,0.0160038,0.00788865,0.00573981,5,0.1,13,2.6,-1.88894,-1.66263,0.596533,0.300628,-0.127634,0.00473708,-0.135601,0.187993,-0.00366569,0.00927668,0.149169,5,0.1,14,2.6,0.908452,-0.913452,0.500007,-0.795898,0.520472,-3.27826e-05,-0.20209,-0.283301,5.96046e-05,0.0214793,0.795234,5,0.1,15,2.6,-1.05435,2.05167,0.5886,0.187081,-0.712395,0.0112891,-0.31662,0.393093,-0.0115633,0.009833,0.171446,5,0.1,16,2.6,-3.26015,0.651791,0.604001,0.103897,0.780922,-0.00378489,-0.102758,-0.463724,0.00360608,0.015997,0.474507,5,0.1,17,2.6,-2.32472,2.99318,0.537216,0.00782013,-0.305653,-0.00229627,-0.00441074,0.174403,0.0013113,0.0113855,0.0235229,5,0.1,18,2.6,0.596207,-1.3378,0.629256,-0.62369,-0.202978,0.0543714,-0.700712,-0.893354,-0.129551,0.0157047,2.42538,5,0.1,19,2.6,-2.56316,2.98951,0.612844,0.1351,-0.486219,0.0269726,-0.0967979,0.16284,-0.00673532,0.00921802,0.586992,5,0.1
0,2.7,1.8412,-1.39538,0.522833,-0.0754764,-0.361401,-0.00299029,0.0345632,0.144191,0.00137091,0.00975183,0.0673876,5,0.1,1,2.7,-1.12317,0.151137,0.843805,0.470768,0.745321,0.0273235,0.704236,0.364805,-0.172205,0.0170513,1.37414,5,0.1,2,2.7,1.02724,1.3355,0.744915,-0.636217,0.0190118,0.00667553,-0.574566,-0.0314787,-0.0110641,0.00725407,0.195368,5,0.1,3,2.7,3.20331,3.5263,0.593229,-0.0375204,-0.076858,0.00683386,0.294745,0.0585318,-0.00522286,0.0147344,0.508993,5,0.1,4,2.7,-3.20257,-1.87293,0.58769,0.0116311,0.753138,0.00957046,-0.158429,-0.179239,-0.00276417,0.0249521,1.58315,5,0.1,5,2.7,1.31805,-3.18914,0.601433,0.0316901,0.14965,-0.0014226,-0.0331625,0.942975,0.00148639,0.0117375,1.55335,5,0.1,6,2.7,-0.471459,-0.208997,0.593533,0.177183,0.481878,0.00707274,-0.195473,-0.369989,-0.00902638,0.0236237,0.12324,5,0.1,7,2.7,3.60978,1.45709,0.616965,-0.120624,-0.342591,0.0140966,-0.0272542,0.094302,0.00407919,0.00778349,0.0782684,5,0.1,8,2.7,-1.9899,2.47389,0.740318,0.24265,-0.206046,0.0123754,-0.111125,0.154167,-0.00563264,0.00834875,0.10542,5,0.1,9,2.7,3.32682,1.8002,0.784618,-0.124941,0.0136407,0.102847,0.340551,-0.302441,-0.145387,0.022695,1.44338,5,0.1,10,2.7,-3.21848,1.2629,0.599243,0.113884,0.0863723,0.000743289,-0.468224,-0.0903755,-0.000808388,0.0412454,0.257865,5,0.1,11,2.7,-1.68556,-0.518857,0.553638,-0.608316,0.0846925,0.0311397,0.422142,0.0216104,-0.00651926,0.0157391,0.179798,5,0.1,12,2.7,-3.03388,2.73138,0.526257,-0.0316575,-0.231829,-0.0122641,0.0401139,0.293404,0.0155233,0.00788865,0.00573981,5,0.1,13,2.7,-1.85957,-1.67435,0.596989,0.286538,-0.1059,0.00438206,-0.153422,0.239126,-0.00353903,0.00927668,0.149169,5,0.1,14,2.7,0.827909,-0.86274,0.500004,-0.813501,0.494119,-2.5332e-05,-0.115655,-0.261009,8.19564e-05,0.0214793,0.795234,5,0.1,15,2.7,-1.03731,1.98243,0.589675,0.152978,-0.671816,0.0102354,-0.357628,0.433072,-0.00984222,0.009833,0.171446,5,0.1,16,2.7,-3.25017,0.727305,0.60364,0.0967387,0.726746,-0.00342513,-0.0484139,-0.620484,0.00363961,0.015997,0.474507,5,0.1,17,2.7,-2.32387,2.9635,0.536983,0.00989176,-0.287655,-0.00247145,0.040099,0.19215,-0.00407919,0.0113855,0.0235229,5,0.1,18,2.7,0.530085,-1.36285,0.634038,-0.699652,-0.299696,0.0412489,-0.756532,-0.987254,-0.130642,0.0157047,2.42538,5,0.1,19,2.7,-2.54984,2.94151,0.615503,0.133942,-0.475019,0.0261563,0.052914,0.0880957,-0.010293,0.00921802,0.586992,5,0.1
0,2.8,1.83383,-1.43078,0.522541,-0.071913,-0.345999,-0.0028491,0.0396371,0.177801,0.00154972,0.00782639,0.0306748,5,0.1,1,2.8,-1.07299,0.227098,0.845815,0.527859,0.769259,0.0141487,0.415206,0.0872099,-0.0960827,0.0224108,0.960496,5,0.1,2,2.8,0.961726,1.33725,0.745532,-0.664586,0.0162393,0.00570118,-0.00527501,-0.0246763,-0.00867248,0.00867447,0.148513,5,0.1,3,2.8,3.20082,3.51888,0.593888,-0.0142813,-0.0716805,0.00637174,0.173688,0.0488758,-0.00438094,0.0139572,0.421467,5,0.1,4,2.8,-3.20199,-1.79818,0.588631,0.00183582,0.743863,0.00922531,-0.0462532,-0.0647306,-0.00441074,0.0213938,2.35276,5,0.1,5,2.8,1.32106,-3.1692,0.601298,0.0284731,0.25003,-0.00127852,-0.0318885,1.00303,0.00143051,0.0130094,1.26086,5,0.1,6,2.8,-0.454694,-0.162681,0.594197,0.158247,0.443935,0.00621378,-0.187248,-0.399761,-0.00834465,0.0235168,0.142892,5,0.1,7,2.8,3.59761,1.42334,0.618391,-0.12238,-0.331831,0.0143811,-0.00166893,0.134885,0.000923872,0.0109923,0.0364652,5,0.1,8,2.8,-1.96619,2.45425,0.741527,0.2312,-0.18478,0.0117928,-0.127554,0.263691,-0.0064671,0.0128737,0.0840053,5,0.1,9,2.8,3.31602,1.80031,0.794097,-0.0912547,-0.00861585,0.086081,0.32711,-0.140965,-0.184536,0.0222094,1.39518,5,0.1,10,2.8,-3.20929,1.2711,0.599314,0.0714123,0.0776082,0.000666082,-0.377655,-0.0870228,-0.000745058,0.0468472,0.427814,5,0.1,11,2.8,-1.74422,-0.510329,0.556707,-0.563747,0.0853181,0.0301018,0.481844,-0.0110567,-0.0148118,0.0168513,0.118818,5,0.1,12,2.8,-3.03685,2.70967,0.525108,-0.0276148,-0.202239,-0.010699,0.0411272,0.300288,0.0158846,0.0123917,0.0017657,5,0.1,13,2.8,-1.83176,-1.68371,0.597409,0.268763,-0.0811577,0.00401139,-0.206649,0.249803,-0.00399351,0.0105965,0.309249,5,0.1,14,2.8,0.746352,-0.814711,0.500002,-0.813325,0.465372,-1.63913e-05,0.141889,-0.32559,5.96046e-05,0.0166789,0.537511,5,0.1,15,2.8,-1.02382,1.91757,0.59065,0.116959,-0.623414,0.00926405,-0.356615,0.544012,-0.00983477,0.0126296,0.261159,5,0.1,16,2.8,-3.2407,0.796617,0.603317,0.0928164,0.656947,-0.00305027,-0.0360012,-0.773609,0.0038743,0.0126152,0.363159,5,0.1,17,2.8,-2.32265,2.93577,0.536711,0.0148237,-0.266165,-0.00298321,0.054121,0.241756,-0.00560284,0.0103916,0.433093,5,0.1,18,2.8,0.456662,-1.39755,0.637523,-0.764406,-0.391158,0.0286385,-0.494659,-0.803053,-0.119895,0.0200639,2.19619,5,0.1,19,2.8,-2.53607,2.89451,0.618057,0.142002,-0.463998,0.0248045,0.0925064,0.151277,-0.0171363,0.011763,0.476255,5,0.1
0,2.9,1.82683,-1.46452,0.522264,-0.0681093,-0.328644,-0.00270018,0.038676,0.179738,0.00151619,0.00782639,0.0306748,5,0.1,1,2.9,-1.01825,0.304436,0.846855,0.565216,0.776447,0.00760322,0.305515,0.0246586,-0.0391342,0.0224108,0.960496,5,0.1,2,2.9,0.895533,1.33876,0.746061,-0.656154,0.0139838,0.00490826,0.182234,-0.0207946,-0.00730902,0.00867447,0.148513,5,0.1,3,2.9,3.20016,3.51195,0.594504,8.82894e-05,-0.0668142,0.00593606,0.110462,0.0499636,-0.00447035,0.0139572,0.421467,5,0.1,4,2.9,-3.20218,-1.7236,0.589533,-0.00594296,0.751327,0.00882084,-0.0689179,0.153713,-0.00400469,0.0213938,2.35276,5,0.1,5,2.9,1.32376,-3.13885,0.601177,0.0256075,0.358667,-0.00114972,-0.0263229,1.10835,0.00118092,0.0130094,1.26086,5,0.1,6,2.9,-0.439666,-0.119941,0.594782,0.14347,0.413617,0.00554305,-0.11779,-0.234149,-0.00542402,0.0235168,0.142892,5,0.1,7,2.9,3.58537,1.39081,0.619833,-0.122159,-0.318422,0.0144208,0.0107139,0.143737,-0.000678003,0.0109923,0.0364652,5,0.1,8,2.9,-1.94369,2.43724,0.742675,0.218965,-0.154235,0.0111714,-0.124373,0.337347,-0.00632554,0.0128737,0.0840053,5,0.1,9,2.9,3.30846,1.79883,0.801744,-0.0607193,-0.0193737,0.0665967,0.280768,-0.0457168,-0.200544,0.0222094,1.39518,5,0.1,10,2.9,-3.20385,1.27846,0.599377,0.0390295,0.0697892,0.000599492,-0.27068,-0.0717938,-0.000614673,0.0468472,0.427814,5,0.1,11,2.9,-1.79831,-0.50186,0.559644,-0.5189,0.083908,0.0286158,0.430778,-0.0197142,-0.0156909,0.0168513,0.118818,5,0.1,12,2.9,-3.03941,2.69092,0.524116,-0.0235923,-0.172853,-0.00914475,0.0393987,0.28801,0.0152327,0.0123917,0.0017657,5,0.1,13,2.9,-1.80597,-1.69054,0.59779,0.246414,-0.0554256,0.00360282,-0.241295,0.253633,-0.0041984,0.0105965,0.309249,5,0.1,14,2.9,0.66573,-0.769713,0.500001,-0.798366,0.435131,-9.40636e-06,0.185344,-0.293553,7.07805e-05,0.0166789,0.537511,5,0.1,15,2.9,-1.01386,1.85772,0.59153,0.0827303,-0.575264,0.00837194,-0.323392,0.44167,-0.00828132,0.0126296,0.261159,5,0.1,16,2.9,-3.23169,0.858332,0.603031,0.0866435,0.576348,-0.00267187,-0.0844896,-0.833992,0.00371411,0.0126152,0.363159,5,0.1,17,2.9,-2.32011,2.91083,0.536089,0.0423878,-0.228536,-0.0119306,0.445187,0.484213,-0.154249,0.0103916,0.433093,5,0.1,18,2.9,0.377606,-1.44078,0.639803,-0.816728,-0.473353,0.0171569,-0.497451,-0.794247,-0.108216,0.0200639,2.19619,5,0.1,19,2.9,-2.52115,2.84876,0.620441,0.158333,-0.451615,0.0227762,0.211075,0.118405,-0.0234544,0.011763,0.476255,5,0.1
0,3,1.82022,-1.49641,0.522002,-0.0638068,-0.308332,-0.00253022,0.0489354,0.233352,0.00187755,0.0114498,0.0118937,5,0.1,1,3,-0.960555,0.381888,0.847485,0.584593,0.768884,0.00554025,0.0647902,-0.197098,-0.00557303,0.0134235,0.649393,5,0.1,2,3,0.831191,1.34006,0.746517,-0.626957,0.0120193,0.00421852,0.405222,-0.0188351,-0.00664592,0.00771498,0.290327,5,0.1,3,3,3.2006,3.50553,0.595074,0.00741482,-0.0614464,0.00545681,0.0354052,0.0584126,-0.00521541,0.015273,0.616436,5,0.1,4,3,-3.20291,-1.64774,0.590394,-0.00613332,0.764203,0.00836849,0.0828505,0.0600815,-0.00527501,0.0168176,2.82323,5,0.1,5,3,1.32619,-3.09769,0.601068,0.0230551,0.461113,-0.00103563,-0.025332,0.896215,0.00113249,0.0168128,0.159046,5,0.1,6,3,-0.425857,-0.0796619,0.595312,0.133031,0.39232,0.0050649,-0.0980645,-0.212083,-0.00441074,0.017389,0.235782,5,0.1,7,3,3.57326,1.35977,0.621265,-0.119472,-0.301361,0.0141531,0.0457764,0.204325,-0.00497699,0.0110557,0.0143549,5,0.1,8,3,-1.92245,2.42356,0.743758,0.205129,-0.119084,0.0104666,-0.157118,0.357389,-0.00801682,0.00732666,0.277579,5,0.1,9,3,3.3037,1.79699,0.807407,-0.0355422,-0.0140458,0.0467867,0.221491,0.160992,-0.192106,0.0203592,0.722102,5,0.1,10,3,-3.20113,1.28509,0.599434,0.0170112,0.0628322,0.000540912,-0.171661,-0.0690818,-0.000596046,0.0076818,0.35844,5,0.1,11,3,-1.84802,-0.4936,0.562421,-0.474945,0.0809535,0.026834,0.459135,-0.041008,-0.0204146,0.0146662,0.135327,5,0.1,12,3,-3.04157,2.67506,0.523277,-0.0197232,-0.144559,-0.00764728,0.0379086,0.277758,0.0146627,0.00894018,0.000869866,5,0.1,13,3,-1.7826,-1.69488,0.598128,0.220409,-0.0322551,0.00316948,-0.278711,0.202775,-0.00450015,0.00976732,0.479055,5,0.1,14,3,0.587079,-0.72771,0.5,-0.771597,0.404254,-2.98023e-06,0.368565,-0.333816,5.96046e-05,0.0149717,0.35801,5,0.1,15,3,-1.00712,1.80239,0.592327,0.0530303,-0.531206,0.00756085,-0.267684,0.455678,-0.00816584,0.0103568,1.92853,5,0.1,16,3,-3.2235,0.91173,0.602782,0.0764728,0.491048,-0.00230372,-0.11611,-0.867367,0.00369549,0.0163846,0.189618,5,0.1,17,3,-2.31335,2.89061,0.534009,0.0946522,-0.174111,-0.0304461,0.559807,0.582814,-0.201285,0.0102055,0.33105,5,0.1,18,3,0.293805,-1.49176,0.641007,-0.854743,-0.542077,0.0072524,-0.225656,-0.547469,-0.0888109,0.0126506,2.18216,5,0.1,19,3,-2.50422,2.80428,0.622591,0.180161,-0.436616,0.020124,0.207782,0.196576,-0.0295341,0.00960517,0.373767,5,0.1
0,3.1,1.81409,-1.52606,0.521758,-0.0588428,-0.284484,-0.00233827,0.0513792,0.24832,0.00200048,0.0114498,0.0118937,5,0.1,1,3.1,-0.901833,0.457814,0.848061,0.588671,0.749174,0.00642166,-0.00467151,-0.223221,0.0199527,0.0134235,0.649393,5,0.1,2,3.1,0.770281,1.34117,0.746908,-0.592922,0.0103202,0.00361912,0.303313,-0.0154674,-0.00544637,0.00771498,0.290327,5,0.1,3,3.1,3.20154,3.49967,0.595594,0.0108652,-0.0558734,0.00495967,0.0108182,0.0543594,-0.00485033,0.015273,0.616436,5,0.1,4,3.1,-3.20299,-1.57074,0.591205,0.00812225,0.777344,0.00785971,0.290379,0.152692,-0.00512227,0.0168176,2.82323,5,0.1,5,3.1,1.32838,-3.04785,0.60097,0.0207841,0.52798,-0.000934023,-0.0208169,0.443339,0.000935048,0.0168128,0.159046,5,0.1,6,3.1,-0.413037,-0.0412038,0.595797,0.123363,0.379008,0.00464059,-0.0980496,-0.0814311,-0.00418723,0.017389,0.235782,5,0.1,7,3.1,3.56156,1.33068,0.622653,-0.114129,-0.280111,0.0135587,0.0631064,0.225358,-0.00715628,0.0110557,0.0143549,5,0.1,8,3.1,-1.90273,2.41342,0.744764,0.189189,-0.0839222,0.00965269,-0.165008,0.33842,-0.00843033,0.00732666,0.277579,5,0.1,9,3.1,3.30114,1.79668,0.811136,-0.0167228,0.0113126,0.0279959,0.156641,0.364214,-0.180423,0.0203592,0.722102,5,0.1,10,3.1,-3.20015,1.29189,0.599476,0.00418015,0.0804212,0.000230037,-0.0882596,0.3656,-0.00505894,0.0076818,0.35844,5,0.1,11,3.1,-1.89358,-0.485664,0.565018,-0.439006,0.0780746,0.0252321,0.287294,-0.0214241,-0.0130907,0.0146662,0.135327,5,0.1,12,3.1,-3.04336,2.66196,0.522584,-0.0160728,-0.117812,-0.00623474,0.0350326,0.256673,0.0135638,0.00894018,0.000869866,5,0.1,13,3.1,-1.76193,-1.6971,0.598424,0.193014,-0.0129286,0.00273585,-0.270575,0.160739,-0.00420213,0.00976732,0.479055,5,0.1,14,3.1,0.511703,-0.688859,0.5,-0.735904,0.373405,9.31323e-07,0.368589,-0.295103,2.23517e-05,0.0149717,0.35801,5,0.1,15,3.1,-1.00311,1.75043,0.593045,0.0279335,-0.517198,0.00682306,-0.22582,-0.0976548,-0.00681728,0.0103568,1.92853,5,0.1,16,3.1,-3.21655,0.956593,0.602569,0.0617959,0.407165,-0.00196779,-0.170112,-0.809424,0.00308082,0.0163846,0.189618,5,0.1,17,3.1,-2.30093,2.87633,0.530093,0.154548,-0.110003,-0.0465385,0.607088,0.674799,-0.12159,0.0102055,0.33105,5,0.1,18,3.1,0.207644,-1.54777,0.641308,-0.865088,-0.569198,-0.00102008,-0.0189379,-0.0157952,-0.0754409,0.0126506,2.18216,5,0.1,19,3.1,-2.48485,2.76168,0.624424,0.209634,-0.414465,0.0162737,0.348046,0.253022,-0.0453778,0.00960517,0.373767,5,0.1
0,3.2,1.80847,-1.55321,0.521535,-0.053367,-0.25793,-0.00212342,0.0587702,0.285566,0.00229478,0.0113027,0.00615862,5,0.1,1,3.2,-0.843247,0.531398,0.848823,0.580123,0.719896,0.00895411,-0.180244,-0.379682,0.0281334,0.0170912,0.430732,5,0.1,2,3.2,0.712523,1.34213,0.747244,-0.561537,0.00887513,0.00310987,0.344187,-0.0137687,-0.00482798,0.0118619,0.747219,5,0.1,3,3.2,3.2025,3.49436,0.596066,0.00646114,-0.05036,0.00446886,-0.107527,0.0568628,-0.00506639,0.0122543,1.09103,5,0.1,4,3.2,-3.2,-1.49243,0.591964,0.0587225,0.786197,0.00730604,0.701547,-0.0111461,-0.00607967,0.0265083,2.61726,5,0.1,5,3.2,1.33036,-2.99357,0.600881,0.0187606,0.55058,-0.000843406,-0.0200868,0.0144243,0.00089407,0.0137337,0.125752,5,0.1,6,3.2,-0.401209,-0.00367798,0.596239,0.112966,0.371312,0.00421107,-0.111654,-0.0924486,-0.00452995,0.0201647,0.174991,5,0.1,7,3.2,3.55051,1.30386,0.623967,-0.106537,-0.255561,0.0126839,0.0898838,0.2684,-0.0104308,0.0123837,0.00737041,5,0.1,8,3.2,-1.88467,2.40664,0.745686,0.171599,-0.0526249,0.00875443,-0.188708,0.282764,-0.00962615,0.0129123,0.273753,5,0.1,9,3.2,3.30015,1.8,0.813075,-0.0038743,0.0583321,0.0112638,0.102162,0.553489,-0.151902,0.0256129,0.420157,5,0.1,10,3.2,-3.20006,1.3021,0.59947,-0.00143647,0.12615,-0.000372529,-0.0286102,0.506282,-0.00652671,0.00775959,0.268372,5,0.1,11,3.2,-1.93614,-0.477964,0.567478,-0.412685,0.0758335,0.023964,0.259519,-0.0268966,-0.0133812,0.0143616,0.078247,5,0.1,12,3.2,-3.0448,2.65142,0.522026,-0.0127316,-0.093317,-0.00494123,0.0318289,0.232816,0.0123382,0.00851558,0.000716139,5,0.1,13,3.2,-1.74398,-1.6978,0.598676,0.166082,-0.00331998,0.00232607,-0.268698,0.0223517,-0.00402331,0.00965274,0.65803,5,0.1,14,3.2,0.44011,-0.653009,0.5,-0.694001,0.343215,1.49012e-06,0.484989,-0.316888,2.98023e-05,0.0160053,0.311854,5,0.1,15,3.2,-1.00132,1.69783,0.593694,0.00915527,-0.537026,0.00615865,-0.145376,-0.23967,-0.00667572,0.0138572,1.60723,5,0.1,16,3.2,-3.21126,0.993365,0.602387,0.0437617,0.329345,-0.00167936,-0.184894,-0.746071,0.00274181,0.0163634,0.280518,5,0.1,17,3.2,-2.28257,2.86869,0.524956,0.210732,-0.0434637,-0.0550106,0.494242,0.637531,-0.0492334,0.0089625,0.279154,5,0.1,18,3.2,0.121199,-1.60403,0.640859,-0.862318,-0.549307,-0.00763685,0.0741601,0.393689,-0.0561774,0.0150684,2.3911,5,0.1,19,3.2,-2.46214,2.72163,0.625813,0.243914,-0.384998,0.0114232,0.312924,0.339866,-0.0500083,0.00738787,0.281469,5,0.1
0,3.3,1.80342,-1.5776,0.521334,-0.0476098,-0.229876,-0.00189738,0.0571534,0.279084,0.0022538,0.0113027,0.00615862,5,0.1,1,3.3,-0.786134,0.601561,0.849879,0.561673,0.683514,0.0122967,-0.2065,-0.369638,0.0362583,0.0170912,0.430732,5,0.1,2,3.3,0.657453,1.34296,0.747532,-0.544915,0.00764672,0.00267932,0.0404231,-0.0110492,-0.00387803,0.0118619,0.747219,5,0.1,3,3.3,3.20256,3.48959,0.596489,-0.00784807,-0.0450522,0.00399631,-0.247493,0.0504255,-0.00448525,0.0122543,1.09103,5,0.1,4,3.3,-3.18964,-1.41364,0.592666,0.156102,0.790461,0.00674808,1.16044,0.0516251,-0.00530109,0.0265083,2.61726,5,0.1,5,3.3,1.33214,-2.93864,0.600801,0.0169622,0.545729,-0.000762939,-0.016503,-0.121191,0.000737607,0.0137337,0.125752,5,0.1,6,3.3,-0.39045,0.0331419,0.596639,0.10236,0.366043,0.00378629,-0.102878,-0.0344663,-0.00405684,0.0201647,0.174991,5,0.1,7,3.3,3.54031,1.27964,0.625183,-0.0973463,-0.228994,0.0116119,0.095427,0.266455,-0.0111833,0.0123837,0.00737041,5,0.1,8,3.3,-1.86846,2.40267,0.746513,0.152686,-0.0280652,0.00778921,-0.190742,0.206247,-0.00973791,0.0129123,0.273753,5,0.1,9,3.3,3.30021,1.80889,0.81347,0.00431016,0.121526,-0.00301665,0.0629127,0.672653,-0.131313,0.0256129,0.420157,5,0.1,10,3.3,-3.20029,1.31754,0.599397,-0.00259764,0.184453,-0.00110138,0.0025779,0.62076,-0.00765175,0.00775959,0.268372,5,0.1,11,3.3,-1.97626,-0.470501,0.569814,-0.390781,0.0734904,0.0227906,0.196792,-0.0231043,-0.0110492,0.0143616,0.078247,5,0.1,12,3.3,-3.04592,2.64321,0.521592,-0.00973344,-0.0713721,-0.00377847,0.0280738,0.205457,0.0108816,0.00851558,0.000716139,5,0.1,13,3.3,-1.72866,-1.69817,0.59889,0.140655,-0.0068048,0.00194991,-0.241406,-0.138558,-0.00352785,0.00965274,0.65803,5,0.1,14,3.3,0.37303,-0.620021,0.5,-0.648132,0.318541,2.8871e-06,0.451911,-0.196476,3.72529e-06,0.0160053,0.311854,5,0.1,15,3.3,-1.00108,1.64244,0.594279,-0.00326484,-0.574277,0.00555748,-0.0848174,-0.445433,-0.00553951,0.0138572,1.60723,5,0.1,16,3.3,-3.20769,1.02319,0.602231,0.028722,0.272502,-0.00145398,-0.119448,-0.420123,0.00185519,0.0163634,0.280518,5,0.1,17,3.3,-2.25916,2.86765,0.519345,0.255903,0.023073,-0.0559592,0.393599,0.668108,0.0254773,0.0089625,0.279154,5,0.1,18,3.3,0.035036,-1.65629,0.63983,-0.862714,-0.489762,-0.0127514,-0.0333725,0.761285,-0.0450946,0.0150684,2.3911,5,0.1,19,3.3,-2.43608,2.68481,0.626698,0.277667,-0.351356,0.006242,0.336289,0.339061,-0.0520833,0.00738787,0.281469,5,0.1
0,3.4,1.79895,-1.59918,0.521156,-0.0418127,-0.201559,-0.00166744,0.0591874,0.289202,0.00232458,0.00825682,0.00186316,5,0.1,1,3.4,-0.731161,0.667937,0.851287,0.535887,0.642347,0.0157788,-0.320822,-0.468194,0.0315309,0.0193955,0.283445,5,0.1,2,3.4,0.603014,1.34367,0.747782,-0.544351,0.0066191,0.00231862,0.00968575,-0.00971556,-0.00339746,0.0088361,1.06222,5,0.1,3,3.4,3.2,3.48534,0.596866,-0.0484407,-0.0400841,0.00355393,-0.549674,0.0497103,-0.00441074,0.0168701,1.56907,5,0.1,4,3.4,-3.16805,-1.33454,0.593315,0.275785,0.788909,0.00620633,1.16825,-0.114143,-0.00563264,0.0239139,2.17308,5,0.1,5,3.4,1.33376,-2.88496,0.600728,0.0153571,0.524867,-0.000691414,-0.0160336,-0.301361,0.000715256,0.0117914,0.156639,5,0.1,6,3.4,-0.38073,0.0695251,0.596997,0.0919864,0.360735,0.00338405,-0.106215,-0.0869966,-0.00408292,0.0197139,0.126248,5,0.1,7,3.4,3.53107,1.25809,0.626286,-0.0872195,-0.201729,0.0104204,0.107646,0.280738,-0.0127554,0.00923407,0.0021865,5,0.1,8,3.4,-1.85415,2.40076,0.747243,0.133279,-0.0115454,0.00679791,-0.198007,0.124454,-0.010103,0.0134556,0.27134,5,0.1,9,3.4,3.3009,1.82435,0.812562,0.0089705,0.186306,-0.0146002,0.0318289,0.595033,-0.0987947,0.021921,0.198859,5,0.1,10,3.4,-3.2005,1.33901,0.59925,-0.00142455,0.243539,-0.00183433,0.0184774,0.532448,-0.00667572,0.00772379,0.212254,5,0.1,11,3.4,-2.01434,-0.463282,0.572035,-0.370216,0.0706829,0.0215933,0.227332,-0.0351667,-0.0135899,0.00993236,0.0605531,5,0.1,12,3.4,-3.04676,2.63705,0.521266,-0.00713468,-0.0523329,-0.00277013,0.0239611,0.174999,0.00929832,0.0153013,0.000552923,5,0.1,13,3.4,-1.71577,-1.7,0.599068,0.11754,-0.0342697,0.00161529,-0.222087,-0.396609,-0.00315905,0.0092401,1.09029,5,0.1,14,3.4,0.310552,-0.589084,0.500001,-0.600349,0.300471,2.98023e-06,0.516907,-0.179559,-2.98023e-05,0.016414,0.215587,5,0.1,15,3.4,-1.00162,1.58285,0.594807,-0.00538826,-0.615752,0.00501722,0.048399,-0.340402,-0.00536442,0.0124795,1.30248,5,0.1,16,3.4,-3.20533,1.04868,0.602094,0.0192165,0.240085,-0.00129342,-0.0735521,-0.251293,0.00149012,0.0177126,0.26379,5,0.1,17,3.4,-2.23187,2.87317,0.513967,0.286895,0.0858188,-0.050804,0.216365,0.568509,0.0735223,0.00898995,0.243892,5,0.1,18,3.4,-0.0512571,-1.7011,0.638354,-0.860835,-0.403553,-0.0164926,0.103803,0.933647,-0.0290573,0.0108794,2.62072,5,0.1,19,3.4,-2.40677,2.65141,0.627069,0.306755,-0.316203,0.00127256,0.226974,0.367761,-0.0461936,0.0120473,0.204982,5,0.1
0,3.5,1.79506,-1.61791,0.521,-0.0359999,-0.173153,-0.00143824,0.0572279,0.279583,0.0022687,0.00825682,0.00186316,5,0.1,1,3.5,-0.679124,0.729938,0.853027,0.50497,0.598289,0.019023,-0.312399,-0.43115,0.0314713,0.0193955,0.283445,5,0.1,2,3.5,0.548009,1.34429,0.747998,-0.560379,0.00576004,0.00201808,-0.269789,-0.0076741,-0.00268593,0.0088361,1.06222,5,0.1,3,3.5,3.19142,3.48156,0.597201,-0.13102,-0.0355106,0.00314834,-1.0208,0.0427216,-0.00378862,0.0168701,1.56907,5,0.1,4,3.5,-3.1343,-1.25606,0.593909,0.400707,0.781269,0.00569634,1.26289,-0.0766665,-0.00476092,0.0239139,2.17308,5,0.1,5,3.5,1.33522,-2.83387,0.600662,0.013922,0.497543,-0.000627153,-0.0131801,-0.263795,0.000588596,0.0117914,0.156639,5,0.1,6,3.5,-0.372036,0.10525,0.597317,0.0820989,0.354177,0.00300752,-0.093624,-0.0613388,-0.00352785,0.0197139,0.126248,5,0.1,7,3.5,3.52289,1.23931,0.627264,-0.076364,-0.174006,0.0091318,0.109613,0.274315,-0.0130311,0.00923407,0.0021865,5,0.1,8,3.5,-1.8418,2.4001,0.747873,0.113886,-0.00280701,0.00580819,-0.190049,0.054583,-0.00970438,0.0134556,0.27134,5,0.1,9,3.5,3.30192,1.84585,0.810636,0.0110596,0.242117,-0.0235874,0.0109673,0.502333,-0.0791326,0.021921,0.198859,5,0.1,10,3.5,-3.20055,1.36608,0.599033,0.000507385,0.297505,-0.00250489,0.0194311,0.517555,-0.00642985,0.00772379,0.212254,5,0.1,11,3.5,-2.05038,-0.456368,0.574134,-0.351838,0.0677352,0.0204479,0.15913,-0.0270661,-0.0103191,0.00993236,0.0605531,5,0.1,12,3.5,-3.04736,2.63265,0.521032,-0.00493377,-0.0362448,-0.00191601,0.0199974,0.146389,0.00776723,0.0153013,0.000552923,5,0.1,13,3.5,-1.70507,-1.70579,0.599214,0.0970164,-0.0844004,0.00132564,-0.189953,-0.571959,-0.00265986,0.0092401,1.09029,5,0.1,14,3.5,0.252971,-0.559788,0.500001,-0.552144,0.286517,4.65661e-07,0.46363,-0.115324,-1.86265e-05,0.016414,0.215587,5,0.1,15,3.5,-1.00177,1.51939,0.595284,0.00490751,-0.654135,0.00453498,0.186928,-0.380643,-0.00444055,0.0124795,1.30248,5,0.1,16,3.5,-3.20373,1.07188,0.601971,0.0131696,0.227891,-0.00118315,-0.0487268,-0.023365,0.000812113,0.0177126,0.26379,5,0.1,17,3.5,-2.20227,2.88466,0.509309,0.303089,0.143956,-0.041899,0.100419,0.569209,0.100616,0.00898995,0.243892,5,0.1,18,3.5,-0.137171,-1.73658,0.636571,-0.859561,-0.304782,-0.0190277,-0.0250718,1.00451,-0.0208318,0.0108794,2.62072,5,0.1,19,3.5,-2.37494,2.62157,0.626969,0.329427,-0.281234,-0.00321157,0.206247,0.337139,-0.0423566,0.0120473,0.204982,5,0.1
0,3.6,1.79175,-1.63384,0.520868,-0.0303447,-0.145561,-0.00121295,0.0559092,0.272334,0.00223517,0.0080441,0.000866958,5,0.1,1,3.6,-0.630274,0.787552,0.855074,0.47093,0.553069,0.0217512,-0.37834,-0.485539,0.0217557,0.0201654,0.186495,5,0.1,2,3.6,0.490569,1.34483,0.748187,-0.587805,0.00504553,0.00176877,-0.234097,-0.00673532,-0.00238419,0.0104373,2.12743,5,0.1,3,3.6,3.17298,3.47822,0.597497,-0.238329,-0.0313699,0.00278205,-1.06347,0.0406504,-0.00363588,0.0179703,1.27484,5,0.1,4,3.6,-3.08822,-1.17851,0.594455,0.516784,0.767142,0.00521839,1.01018,-0.23222,-0.00488758,0.0236228,1.62843,5,0.1,5,3.6,1.33654,-2.7855,0.600602,0.0126332,0.468946,-0.000569224,-0.0128746,-0.320911,0.000566244,0.0121976,0.543664,5,0.1,6,3.6,-0.364287,0.140288,0.5976,0.0729069,0.345552,0.00266433,-0.0916868,-0.123121,-0.00339746,0.0164112,0.153032,5,0.1,7,3.6,3.51581,1.22327,0.628111,-0.065285,-0.146803,0.00781268,0.111938,0.269771,-0.0133216,0.00793456,0.000985677,5,0.1,8,3.6,-1.83135,2.40001,0.748406,0.0952512,0.000280142,0.00485778,-0.182688,0.0118017,-0.00935793,0.0100779,0.270347,5,0.1,9,3.6,3.30305,1.87229,0.807926,0.0113606,0.283638,-0.0301316,-0.00405312,0.315726,-0.0506341,0.0250003,0.157238,5,0.1,10,3.6,-3.2004,1.39819,0.598752,0.0023365,0.342071,-0.00306964,0.0165701,0.353277,-0.00464916,0.00867411,0.177271,5,0.1,11,3.6,-2.08476,-0.449738,0.576126,-0.335169,0.064715,0.0193596,0.187397,-0.0356138,-0.0120997,0.0165319,0.0273851,5,0.1,12,3.6,-3.04776,2.6297,0.520877,-0.0031352,-0.0231087,-0.00121891,0.0157356,0.116467,0.00616908,0.0127606,0.000332983,5,0.1,13,3.6,-1.69627,-1.71714,0.599334,0.0792772,-0.142607,0.00108033,-0.165939,-0.565708,-0.00232458,0.00990031,2.05202,5,0.1,14,3.6,0.200096,-0.531713,0.500001,-0.504853,0.274694,0,0.493474,-0.132531,-2.98023e-05,0.0106592,0.148828,5,0.1,15,3.6,-1,1.45232,0.595716,0.0335604,-0.683942,0.00410229,0.37235,-0.182748,-0.00435114,0.0126054,1.00825,5,0.1,16,3.6,-3.20262,1.09473,0.601856,0.00922084,0.229988,-0.0011161,-0.031352,0.0419021,0.000625849,0.010498,0.297612,5,0.1,17,3.6,-2.1717,2.90174,0.50564,0.305897,0.195378,-0.0313833,-0.0481606,0.441551,0.106603,0.00973697,0.216999,5,0.1,18,3.6,-0.223108,-1.76216,0.634584,-0.856745,-0.20887,-0.0205293,0.119209,0.888705,-0.00873208,0.016012,2.7785,5,0.1,19,3.6,-2.34114,2.59511,0.62645,0.344598,-0.247854,-0.00700802,0.0833273,0.334144,-0.0327229,0.00991031,0.143917,5,0.1
0,3.7,1.78899,-1.64706,0.520757,-0.0249397,-0.119253,-0.000996329,0.0521094,0.253335,0.00209361,0.0080441,0.000866958,5,0.1,1,3.7,-0.584989,0.840558,0.857357,0.435288,0.507926,0.0238596,-0.347078,-0.432599,0.0189431,0.0201654,0.186495,5,0.1,2,3.7,0.429732,1.3453,0.748197,-0.635564,0.00445414,-0.00288552,-0.634618,-0.00528246,-0.0808872,0.0104373,2.12743,5,0.1,3,3.7,3.14353,3.47527,0.597758,-0.352326,-0.0276715,0.00245152,-1.15515,0.0341535,-0.00304356,0.0179703,1.27484,5,0.1,4,3.7,-3.03148,-1.10284,0.594954,0.616607,0.746537,0.00477526,0.934556,-0.210583,-0.00413507,0.0236228,1.62843,5,0.1,5,3.7,1.33775,-2.73963,0.600548,0.0114799,0.452869,-0.000518188,-0.0106096,-0.0456572,0.000469387,0.0121976,0.543664,5,0.1,6,3.7,-0.357399,0.174532,0.597852,0.0653157,0.341615,0.00238586,-0.0637975,0.0148992,-0.00230968,0.0164112,0.153032,5,0.1,7,3.7,3.50983,1.20991,0.628827,-0.0542946,-0.120652,0.00650287,0.107527,0.252672,-0.0128299,0.00793456,0.000985677,5,0.1,8,3.7,-1.82271,2.40007,0.748846,0.0777641,0.000699982,0.0039625,-0.16693,-0.00165403,-0.00854209,0.0100779,0.270347,5,0.1,9,3.7,3.30431,1.90214,0.804681,0.0149101,0.311925,-0.0345343,0.0659227,0.235178,-0.0359826,0.0250003,0.157238,5,0.1,10,3.7,-3.2001,1.43417,0.598422,0.00367314,0.376968,-0.00352934,0.010252,0.319541,-0.00426918,0.00867411,0.177271,5,0.1,11,3.7,-2.11737,-0.443444,0.578003,-0.317003,0.0611468,0.018176,0.185862,-0.0374205,-0.0120886,0.0165319,0.0273851,5,0.1,12,3.7,-3.048,2.62793,0.520784,-0.00173301,-0.0127349,-0.0006699,0.0123084,0.0910014,0.00480935,0.0127606,0.000332983,5,0.1,13,3.7,-1.68912,-1.73364,0.599432,0.0642229,-0.182803,0.000871439,-0.136569,-0.289552,-0.00188127,0.00990031,2.05202,5,0.1,14,3.7,0.151939,-0.504815,0.500001,-0.459304,0.263836,-1.86265e-06,0.431365,-0.0972711,-1.49012e-05,0.0106592,0.148828,5,0.1,15,3.7,-0.994372,1.38295,0.596106,0.0821081,-0.703157,0.00371179,0.560049,-0.164688,-0.00358745,0.0126054,1.00825,5,0.1,16,3.7,-3.20184,1.11814,0.601747,0.00657514,0.239886,-0.00107428,-0.0220239,0.132315,0.000286847,0.010498,0.297612,5,0.1,17,3.7,-2.14146,2.92353,0.503024,0.297682,0.240444,-0.0211039,-0.119999,0.435039,0.0968464,0.00973697,0.216999,5,0.1,18,3.7,-0.308506,-1.77876,0.632491,-0.853126,-0.125821,-0.0212666,0.00395253,0.725619,-0.0051707,0.016012,2.7785,5,0.1,19,3.7,-2.30627,2.57192,0.625592,0.352423,-0.216783,-0.0100614,0.0570714,0.292182,-0.0274815,0.00991031,0.143917,5,0.1
0,3.8,1.78675,-1.65776,0.520668,-0.0199407,-0.0949919,-0.000795722,0.0477433,0.231504,0.00190735,0.0134315,0.000710699,5,0.1,1,3.8,-0.543227,0.889174,0.859823,0.399408,0.463969,0.0252932,-0.379056,-0.457048,0.00873208,0.0109438,0.123258,5,0.1,2,3.8,0.362926,1.34572,0.747441,-0.699669,0.00396073,-0.0126645,-0.583336,-0.00476837,-0.10702,0.0106887,1.61779,5,0.1,3,3.8,3.10278,3.47267,0.597989,-0.458795,-0.0243902,0.00215918,-0.930071,0.0318289,-0.00283122,0.0141159,0.164321,5,0.1,4,3.8,-2.96562,-1.02941,0.595411,0.694954,0.719851,0.00436306,0.596881,-0.344157,-0.00420213,0.0188101,1.18201,5,0.1,5,3.8,1.33884,-2.69442,0.600498,0.0104427,0.45194,-0.000472367,-0.01055,-0.0064373,0.000476837,0.0117572,1.79219,5,0.1,6,3.8,-0.351165,0.208797,0.59808,0.0595093,0.343423,0.00217706,-0.05503,-0.000357628,-0.00193715,0.0216345,0.0926107,5,0.1,7,3.8,3.50493,1.19908,0.629414,-0.0438511,-0.0963777,0.00525713,0.10097,0.23216,-0.0120997,0.00778728,0.000825184,5,0.1,8,3.8,-1.81574,2.40012,0.749201,0.0618875,0.0002563,0.00315011,-0.150442,-0.00607967,-0.0076592,0.0113594,0.268089,5,0.1,9,3.8,3.30618,1.93428,0.801081,0.0229239,0.328228,-0.0370994,0.0872612,0.0813603,-0.0143945,0.024284,0.158731,5,0.1,10,3.8,-3.19969,1.47324,0.59805,0.00440478,0.40175,-0.00387877,0.00441074,0.158906,-0.0025034,0.00719344,0.180654,5,0.1,11,3.8,-2.14807,-0.43753,0.579757,-0.296342,0.0569582,0.0168577,0.23365,-0.0474453,-0.0146627,0.0113507,0.0105761,5,0.1,12,3.8,-3.04811,2.62707,0.520739,-0.000673532,-0.0048995,-0.0002563,0.0089407,0.0660419,0.00351667,0.013678,0.000152412,5,0.1,13,3.8,-1.68335,-1.75323,0.59951,0.051707,-0.208169,0.000700355,-0.114799,-0.242949,-0.00157952,0.0097296,2.25588,5,0.1,14,3.8,0.108155,-0.478944,0.500001,-0.416231,0.253084,-1.49012e-06,0.439711,-0.126719,-2.98023e-05,0.0167778,0.10255,5,0.1,15,3.8,-0.983313,1.31208,0.59646,0.138815,-0.710672,0.0033617,0.545025,0.0395179,-0.00348687,0.0127623,1.17362,5,0.1,16,3.8,-3.20128,1.14278,0.601641,0.00473261,0.252342,-0.00104606,-0.015378,0.0994205,0.000327826,0.0136107,0.255557,5,0.1,17,3.8,-2.11244,2.94958,0.501368,0.281328,0.278175,-0.012356,-0.208616,0.302315,0.0768304,0.00912807,0.519407,5,0.1,18,3.8,-0.393649,-1.78826,0.63035,-0.847282,-0.0702471,-0.0214219,0.148892,0.367403,0.0025332,0.0116635,2.78623,5,0.1,19,3.8,-2.27089,2.55166,0.624463,0.353318,-0.188583,-0.012362,-0.0498295,0.275373,-0.0179112,0.0128144,0.169541,5,0.1
0,3.9,1.78498,-1.66614,0.520598,-0.015422,-0.0731099,-0.000614673,0.0424981,0.205457,0.00170618,0.0134315,0.000710699,5,0.1,1,3.9,-0.505083,0.933416,0.862394,0.364192,0.421867,0.0260866,-0.335889,-0.397854,0.00596419,0.0109438,0.123258,5,0.1,2,3.9,0.289782,1.34608,0.745507,-0.764234,0.00300203,-0.0270324,-0.645781,-0.013344,-0.168212,0.0106887,1.61779,5,0.1,3,3.9,3.05303,3.47038,0.598191,-0.528571,-0.0215184,0.00190381,-0.467733,0.0263005,-0.00233203,0.0141159,0.164321,5,0.1,4,3.9,-2.89353,-0.959307,0.59583,0.742529,0.680343,0.00404892,0.332952,-0.453994,-0.00236556,0.0188101,1.18201,5,0.1,5,3.9,1.33984,-2.64821,0.600453,0.00949781,0.480815,-0.000429433,-0.00869483,0.499472,0.000398606,0.0117572,1.79219,5,0.1,6,3.9,-0.345462,0.243222,0.598289,0.0547627,0.345405,0.00201194,-0.0423435,0.020843,-0.00145659,0.0216345,0.0926107,5,0.1,7,3.9,3.50103,1.19056,0.629881,-0.0341997,-0.0743786,0.00410015,0.0916421,0.207074,-0.0109859,0.00778728,0.000825184,5,0.1,8,3.9,-1.81027,2.4002,0.749479,0.0478029,0.00182241,0.0024328,-0.131145,0.0281036,-0.00667572,0.0113594,0.268089,5,0.1,9,3.9,3.30879,1.96769,0.797285,0.0280473,0.341223,-0.0388847,0.019446,0.151016,-0.0184886,0.024284,0.158731,5,0.1,10,3.9,-3.19923,1.51385,0.597649,0.00463054,0.406705,-0.00414671,0.000268221,-0.057891,-0.00256673,0.00719344,0.180654,5,0.1,11,3.9,-2.17653,-0.432074,0.581369,-0.272622,0.0521158,0.0153796,0.245288,-0.0501182,-0.0151284,0.0113507,0.0105761,5,0.1,12,3.9,-3.04814,2.62688,0.520729,8.56817e-05,0.000706315,4.1537e-05,0.00625849,0.0463128,0.00245869,0.013678,0.000152412,5,0.1,13,3.9,-1.67871,-1.77506,0.599573,0.0414658,-0.229435,0.000560842,-0.0912547,-0.288099,-0.00122935,0.0097296,2.25588,5,0.1,14,3.9,0.068597,-0.454206,0.5,-0.375974,0.242044,-2.51457e-06,0.377092,-0.104304,3.72529e-06,0.0167778,0.10255,5,0.1,15,3.9,-0.966594,1.24086,0.59678,0.195921,-0.716022,0.00304868,0.567902,-0.0971109,-0.00287965,0.0127623,1.17362,5,0.1,16,3.9,-3.20088,1.1686,0.601537,0.00340268,0.264376,-0.00102427,-0.0113845,0.122763,0.000171363,0.0136107,0.255557,5,0.1,17,3.9,-2.08629,2.97762,0.500564,0.233508,0.271462,-0.00337157,-0.69119,-0.374123,0.0978187,0.00912807,0.519407,5,0.1,18,3.9,-0.477916,-1.79394,0.628219,-0.839675,-0.0500645,-0.0211767,0.0503881,-0.0294149,0.00320747,0.0116635,2.78623,5,0.1,19,3.9,-2.23569,2.53407,0.623115,0.351365,-0.164209,-0.0147491,-0.00955164,0.218317,-0.0273921,0.0128144,0.169541,5,0.1
0,4,1.78364,-1.67247,0.520544,-0.011465,-0.0540107,-0.000455976,0.0365973,0.176191,0.00146031,0.00912403,0.000562815,5,0.1,1,4,-0.470342,0.973626,0.865021,0.330433,0.382213,0.0262916,-0.346586,-0.404179,-0.00268221,0.0203339,0.150519,5,0.1,2,4,0.210444,1.3463,0.741944,-0.818211,0.00148118,-0.0441805,-0.389785,-0.0162721,-0.165552,0.00847558,0.726488,5,0.1,3,4,2.99858,3.46836,0.598371,-0.553161,-0.0190079,0.00168085,-0.0298023,0.0243187,-0.00214577,0.014893,0.37584,5,0.1,4,4,-2.81819,-0.893775,0.596224,0.758129,0.627877,0.00384003,-0.0331402,-0.599146,-0.00199676,0.0267026,0.919744,5,0.1,5,4,1.34075,-2.59736,0.600412,0.00864267,0.537014,-0.00039041,-0.00858307,0.56088,0.00038743,0.0113248,1.41634,5,0.1,6,4,-0.340193,0.277773,0.598483,0.0506215,0.344342,0.00186861,-0.0422448,-0.0554174,-0.00149012,0.02583,0.160974,5,0.1,7,4,3.49805,1.18411,0.630238,-0.0256002,-0.0550866,0.00306964,0.0801086,0.178218,-0.00962615,0.0104901,0.000673666,5,0.1,8,4,-1.80612,2.40052,0.749691,0.0356704,0.00437498,0.00181496,-0.111401,0.0170469,-0.00566244,0.0111067,0.253139,5,0.1,9,4,3.31161,2.0025,0.793317,0.027597,0.353706,-0.0403151,-0.0247955,0.0790358,-0.00810623,0.0233752,0.60169,5,0.1,10,4,-3.19877,1.55389,0.597223,0.00448823,0.390738,-0.00434369,-0.00298023,-0.25779,-0.00119209,0.00716119,0.265267,5,0.1,11,4,-2.20252,-0.427122,0.582829,-0.246572,0.0468239,0.013794,0.278354,-0.0561178,-0.0166595,0.0133178,0.00548849,5,0.1,12,4,-3.04811,2.62715,0.520744,0.000596046,0.00442266,0.000238419,0.00369549,0.028491,0.00151992,0.0160615,5.29379e-05,5,0.1,13,4,-1.67499,-1.8,0.599623,0.0332326,-0.274825,0.000451505,-0.0743866,-0.604212,-0.00101328,0.0108895,1.92122,5,0.1,14,4,0.0328591,-0.430555,0.5,-0.338828,0.230488,-1.49012e-06,0.374034,-0.133902,2.98023e-05,0.0178053,0.136894,5,0.1,15,4,-0.944322,1.16888,0.597071,0.247385,-0.721619,0.00276715,0.440478,0.020504,-0.00283122,0.0125349,0.87031,5,0.1,16,4,-3.20059,1.19557,0.601436,0.00242591,0.273734,-0.00100285,-0.00846386,0.0514984,0.000298023,0.0152645,0.346815,5,0.1,17,4,-2.06681,3.00221,0.500716,0.153172,0.214583,0.00632703,-0.871181,-0.713348,0.0924468,0.00995202,0.349112,5,0.1,18,4,-0.561478,-1.8,0.626124,-0.829163,-0.0797302,-0.0206396,0.193089,-0.534236,0.00810623,0.0143896,2.46152,5,0.1,19,4,-2.20067,2.51869,0.621504,0.347954,-0.143844,-0.017418,-0.0731945,0.193477,-0.0241697,0.0073506,0.115122,5,0.1
0,4.1,1.78267,-1.67704,0.520506,-0.00808574,-0.0377689,-0.000320841,0.0308901,0.148222,0.00124052,0.00912403,0.000562815,5,0.1,1,4.1,-0.438934,1.00991,0.867695,0.298474,0.344091,0.0276574,-0.301559,-0.366691,0.0253282,0.0203339,0.150519,5,0.1,2,4.1,0.127009,1.34661,0.736849,-0.846556,0.00682194,-0.0562608,-0.153633,0.108071,-0.0787973,0.00847558,0.726488,5,0.1,3,4.1,2.94301,3.46657,0.598529,-0.558444,-0.0168275,0.00148853,-0.0464469,0.0198632,-0.00174716,0.014893,0.37584,5,0.1,4,4.1,-2.74295,-0.834374,0.596605,0.742304,0.556697,0.00382541,-0.286505,-0.806618,0.00119582,0.0267026,0.919744,5,0.1,5,4.1,1.34157,-2.54044,0.600375,0.00787321,0.603921,-0.0003553,-0.0071004,0.712484,0.0003241,0.0113248,1.41634,5,0.1,6,4.1,-0.335329,0.312206,0.598663,0.0467585,0.346321,0.00173301,-0.0366084,0.0652671,-0.0012815,0.02583,0.160974,5,0.1,7,4.1,3.49588,1.17945,0.630499,-0.0181511,-0.0386246,0.00217464,0.0685751,0.150546,-0.00823289,0.0104901,0.000673666,5,0.1,8,4.1,-1.80308,2.40112,0.749846,0.0254797,0.007708,0.00129668,-0.0924245,0.0245124,-0.00469759,0.0111067,0.253139,5,0.1,9,4.1,3.31421,2.03873,0.789265,0.0241239,0.374328,-0.0405092,-0.042811,0.287652,0.00481308,0.0233752,0.60169,5,0.1,10,4.1,-3.19834,1.59124,0.596781,0.00415035,0.352439,-0.00450956,-0.0037998,-0.488877,-0.00179186,0.00716119,0.265267,5,0.1,11,4.1,-2.22581,-0.422716,0.584127,-0.219309,0.0413223,0.0121689,0.270367,-0.0544507,-0.016015,0.0133178,0.00548849,5,0.1,12,4.1,-3.04803,2.62771,0.520774,0.000877678,0.00658855,0.000353437,0.00196695,0.015229,0.000808388,0.0160615,5.29379e-05,5,0.1,13,4.1,-1.672,-1.83138,0.599664,0.0267083,-0.359403,0.000363775,-0.0571385,-1.0026,-0.000759959,0.0108895,1.92122,5,0.1,14,4.1,0.000725271,-0.407968,0.5,-0.304811,0.222863,9.31323e-07,0.31608,-0.0368264,1.49012e-05,0.0178053,0.136894,5,0.1,15,4.1,-0.917394,1.09665,0.597334,0.290477,-0.72375,0.00251317,0.398863,-0.0240281,-0.00233576,0.0125349,0.87031,5,0.1,16,4.1,-3.2004,1.22323,0.601337,0.00126734,0.279524,-0.000978913,-0.0132918,0.049673,0.000227243,0.0152645,0.346815,5,0.1,17,4.1,-2.05608,3.01967,0.501807,0.0600714,0.131433,0.0153765,-0.954404,-0.907898,0.0855774,0.00995202,0.349112,5,0.1,18,4.1,-0.643642,-1.8117,0.624098,-0.8152,-0.162721,-0.0198935,0.126846,-1.0393,0.00756606,0.0143896,2.46152,5,0.1,19,4.1,-2.16635,2.50524,0.619617,0.33717,-0.125363,-0.0204822,-0.147358,0.17795,-0.0341535,0.0073506,0.115122,5,0.1
0,4.2,1.78201,-1.68012,0.520479,-0.00529885,-0.02442,-0.000208616,0.0248551,0.118494,0.000983477,0.00791054,0.000346832,5,0.1,1,4.2,-0.41058,1.04249,0.870602,0.268603,0.307462,0.0305384,-0.302047,-0.371575,0.028789,0.0191407,2.31396,5,0.1,2,4.2,0.0421294,1.34794,0.730953,-0.845214,0.0204206,-0.0604838,0.194216,0.15223,-0.00837445,0.010697,0.907996,5,0.1,3,4.2,2.8871,3.46498,0.598669,-0.55747,-0.0149369,0.00132173,0.0863075,0.0183582,-0.00160933,0.0149836,2.61612,5,0.1,4,4.2,-2.67059,-0.782956,0.596995,0.700599,0.469869,0.00398904,-0.546694,-0.914633,0.00172853,0.0183309,0.755483,5,0.1,5,4.2,1.34232,-2.47667,0.600341,0.00717342,0.668353,-0.000324845,-0.00709295,0.529528,0.000357628,0.012629,2.41664,5,0.1,6,4.2,-0.330837,0.347164,0.598829,0.0430301,0.352259,0.00160187,-0.0391006,0.0318438,-0.00140071,0.024741,0.0971013,5,0.1,7,4.2,3.49438,1.17629,0.630678,-0.0119269,-0.0250429,0.00142753,0.0556707,0.120759,-0.00670552,0.00964106,0.000425344,5,0.1,8,4.2,-1.80096,2.40187,0.749953,0.0171721,0.00572801,0.000873208,-0.0737309,-0.0745058,-0.00375509,0.0105575,0.214977,5,0.1,9,4.2,3.31639,2.07763,0.785263,0.0193715,0.403279,-0.0392646,-0.0509024,0.257611,0.0202954,0.0246916,0.490295,5,0.1,10,4.2,-3.19795,1.62379,0.596323,0.00373125,0.296521,-0.00464618,-0.00452995,-0.613272,-0.000745058,0.00873686,0.366512,5,0.1,11,4.2,-2.24638,-0.418857,0.585264,-0.191969,0.0358514,0.0105634,0.278473,-0.0552535,-0.0161827,0.0118252,0.00167184,5,0.1,12,4.2,-3.04794,2.62843,0.520812,0.00100136,0.00755191,0.000403821,0.000596046,0.00429153,0.000208616,0.0112993,1.60061e-05,5,0.1,13,4.2,-1.6696,-1.87242,0.599696,0.0216216,-0.460535,0.000298023,-0.0455379,-0.956595,-0.000625849,0.00700775,1.21178,5,0.1,14,4.2,-0.028206,-0.385828,0.5,-0.273941,0.219955,2.98023e-06,0.308259,-0.0347942,-2.98023e-05,0.0132788,0.177563,5,0.1,15,4.2,-0.886572,1.02434,0.597574,0.323361,-0.71979,0.00228435,0.243396,0.130534,-0.00232458,0.0214064,0.62013,5,0.1,16,4.2,-3.20034,1.25133,0.60124,1.19209e-05,0.2812,-0.000950694,-0.0110865,-0.0262856,0.00038743,0.0131242,0.486931,5,0.1,17,4.2,-2.05474,3.02823,0.503742,-0.0314116,0.0403225,0.0229448,-0.848532,-0.883102,0.063777,0.0117028,0.173987,5,0.1,18,4.2,-0.724365,-1.83342,0.622151,-0.796892,-0.272405,-0.018999,0.267744,-1.0888,0.010848,0.01476,1.92451,5,0.1,19,4.2,-2.13352,2.49358,0.617402,0.317764,-0.10795,-0.0237361,-0.243068,0.171542,-0.028789,0.0104946,0.156012,5,0.1
0,4.3,1.78159,-1.68201,0.520463,-0.00307243,-0.0138292,-0.000120234,0.0196472,0.0932589,0.000778586,0.00791054,0.000346832,5,0.1,1,4.3,-0.385279,1.07145,0.874003,0.236969,0.272176,0.0391514,-0.329075,-0.339314,0.128511,0.0191407,2.31396,5,0.1,2,4.3,-0.0416905,1.35055,0.72475,-0.832734,0.0300707,-0.0644512,0.0998545,0.0473782,-0.0611953,0.010697,0.907996,5,0.1,3,4.3,2.83047,3.46357,0.598794,-0.585709,-0.0132993,0.00117831,-0.548378,0.0148714,-0.00130385,0.0149836,2.61612,5,0.1,4,4.3,-2.60314,-0.740664,0.597407,0.649213,0.37517,0.00427077,-0.500277,-0.962522,0.00343844,0.0183309,0.755483,5,0.1,5,4.3,1.34301,-2.40652,0.60031,0.00653397,0.739222,-0.000292808,-0.00592321,0.802591,0.000290573,0.012629,2.41664,5,0.1,6,4.3,-0.326722,0.382612,0.598983,0.0393265,0.356844,0.00146935,-0.0359975,0.0406597,-0.00128523,0.024741,0.0971013,5,0.1,7,4.3,3.49345,1.17435,0.630789,-0.00691079,-0.0142291,0.000823662,0.0445396,0.0954121,-0.00535697,0.00964106,0.000425344,5,0.1,8,4.3,-1.79958,2.40196,0.750023,0.0106085,-0.00621155,0.000538863,-0.0576824,-0.198752,-0.00294298,0.0105575,0.214977,5,0.1,9,4.3,3.31791,2.11943,0.781444,0.0096146,0.433576,-0.0370347,-0.133052,0.312909,0.0248589,0.0246916,0.490295,5,0.1,10,4.3,-3.19759,1.65027,0.595851,0.00335053,0.232471,-0.00479929,-0.00324845,-0.653274,-0.00192225,0.00873686,0.366512,5,0.1,11,4.3,-2.2642,-0.415544,0.58624,-0.164675,0.0304557,0.00898615,0.268087,-0.0527333,-0.0153929,0.0118252,0.00167184,5,0.1,12,4.3,-3.04783,2.62919,0.520853,0.00100918,0.00759028,0.000404008,-0.000402331,-0.00308454,-0.000186265,0.0112993,1.60061e-05,5,0.1,13,4.3,-1.66764,-1.92337,0.599723,0.0177005,-0.558244,0.000245124,-0.0337437,-0.942752,-0.000447035,0.00700775,1.21178,5,0.1,14,4.3,-0.0542955,-0.363675,0.5,-0.249789,0.225699,5.58794e-07,0.191375,0.120787,-1.49012e-05,0.0132788,0.177563,5,0.1,15,4.3,-0.85306,0.952909,0.597792,0.346012,-0.709075,0.00207592,0.191882,0.115145,-0.0019148,0.0214064,0.62013,5,0.1,16,4.3,-3.20046,1.27934,0.601147,-0.00284128,0.27891,-0.000916328,-0.0363737,-0.031285,0.000339001,0.0131242,0.486931,5,0.1,17,4.3,-2.06188,3.02801,0.50632,-0.108695,-0.042852,0.0282696,-0.68514,-0.764877,0.0420175,0.0117028,0.173987,5,0.1,18,4.3,-0.80286,-1.86644,0.620302,-0.77362,-0.389706,-0.01799,0.23048,-1.19192,0.00995398,0.01476,1.92451,5,0.1,19,4.3,-2.10315,2.48341,0.614851,0.288098,-0.0975262,-0.0275039,-0.344157,0.0511259,-0.0426657,0.0104946,0.156012,5,0.1
0,4.4,1.78137,-1.68297,0.520455,-0.00136793,-0.00576079,-5.21541e-05,0.0144839,0.0682473,0.000596046,0.00938266,0.00016268,5,0.1,1,4.4,-0.36326,1.09699,0.878624,0.203119,0.238734,0.053601,-0.346184,-0.333011,0.149041,0.013283,0.566734,5,0.1,2,4.4,-0.124322,1.35367,0.717978,-0.817659,0.0311196,-0.071013,0.23304,-0.0209212,-0.0627339,0.00925737,0.718222,5,0.1,3,4.4,2.7688,3.46231,0.598905,-0.649124,-0.0118792,0.00105351,-0.6423,0.0138283,-0.0012219,0.0217007,2.44964,5,0.1,4,4.4,-2.54077,-0.707923,0.597851,0.59731,0.280361,0.00459701,-0.550866,-0.920534,0.00271201,0.0144714,0.616784,5,0.1,5,4.4,1.34363,-2.32871,0.600283,0.00594854,0.814199,-0.000263751,-0.00596046,0.635386,0.000268221,0.0158596,0.394216,5,0.1,6,4.4,-0.322971,0.418386,0.599123,0.0356592,0.357146,0.00133663,-0.0380576,-0.0478923,-0.0013411,0.0175759,0.164099,5,0.1,7,4.4,3.49296,1.17336,0.630847,-0.00302792,-0.00596046,0.000357628,0.0331402,0.0699759,-0.00399351,0.00916767,0.000203292,5,0.1,8,4.4,-1.79878,2.4,0.750064,0.00560284,-0.0360668,0.000284612,-0.0426769,-0.38445,-0.00220537,0.0112878,0.153401,5,0.1,9,4.4,3.31814,2.16421,0.777876,-0.00525713,0.459808,-0.0342056,-0.155449,0.186324,0.0320375,0.0342528,0.366731,5,0.1,10,4.4,-3.19727,1.67028,0.595362,0.00305176,0.168404,-0.00496209,-0.00286102,-0.617266,-0.00101328,0.00975939,0.449222,5,0.1,11,4.4,-2.27934,-0.412758,0.587063,-0.138265,0.0252984,0.00748038,0.260234,-0.0504404,-0.0147223,0.00688307,0.440279,5,0.1,12,4.4,-3.04774,2.62993,0.520892,0.000935793,0.00700951,0.000371039,-0.00107288,-0.00810623,-0.000417233,0.0126571,8.55577e-06,5,0.1,13,4.4,-1.66602,-1.98352,0.599746,0.0147223,-0.639755,0.000207126,-0.0264645,-0.649095,-0.000357628,0.00724689,0.667395,5,0.1,14,4.4,-0.0783988,-0.340439,0.5,-0.232771,0.23907,0,0.161335,0.125125,-2.98023e-05,0.00953426,0.123493,5,0.1,15,4.4,-0.817703,0.882762,0.59799,0.358781,-0.691473,0.00188649,0.0516772,0.258386,-0.00187755,0.0105618,0.801569,5,0.1,16,4.4,-3.20091,1.30699,0.601057,-0.00572205,0.272965,-0.000876188,-0.015378,-0.0955462,0.000447035,0.0201142,1.93874,5,0.1,17,4.4,-2.07582,3.0202,0.509317,-0.166512,-0.110078,0.0312492,-0.463963,-0.569463,0.0172853,0.011026,0.130298,5,0.1,18,4.4,-0.878912,-1.9111,0.618555,-0.745258,-0.499547,-0.0169039,0.359327,-0.957608,0.0121593,0.0173534,1.4429,5,0.1,19,4.4,-2.07618,2.47381,0.611891,0.250107,-0.0952244,-0.0315934,-0.409722,0.00596046,-0.0362694,0.0111587,0.12787,5,0.1
0,4.5,1.7813,-1.68324,0.520452,-0.000127032,6.37025e-05,-1.02445e-06,0.0103712,0.0484586,0.000428408,0.00938266,0.00016268,5,0.1,1,4.5,-0.345359,1.1184,0.884897,0.149265,0.18275,0.0730941,-0.68526,-0.735253,0.223413,0.013283,0.566734,5,0.1,2,4.5,-0.204112,1.35659,0.710519,-0.771289,0.0265442,-0.0784139,0.645204,-0.0657141,-0.077758,0.00925737,0.718222,5,0.1,3,4.5,2.70008,3.46156,0.599005,-0.729327,-9.90927e-05,0.000931229,-0.877947,0.198722,-0.00122562,0.0217007,2.44964,5,0.1,4,4.5,-2.48334,-0.68405,0.598322,0.554835,0.201239,0.0048005,-0.334144,-0.672396,0.00122562,0.0144714,0.616784,5,0.1,5,4.5,1.3442,-2.24483,0.600257,0.00541452,0.856188,-0.000239722,-0.00492483,0.201061,0.000223517,0.0158596,0.394216,5,0.1,6,4.5,-0.319589,0.454125,0.59925,0.0320203,0.359503,0.00120755,-0.0353772,0.0653509,-0.00125915,0.0175759,0.164099,5,0.1,7,4.5,3.49281,1.17308,0.630865,-0.000172481,2.5332e-05,1.38767e-05,0.0240356,0.0499338,-0.0028871,0.00916767,0.000203292,5,0.1,8,4.5,-1.79842,2.39412,0.750082,0.00194777,-0.0840478,9.61125e-05,-0.0306442,-0.538558,-0.00157952,0.0112878,0.153401,5,0.1,9,4.5,3.31692,2.21118,0.774614,-0.0183534,0.47952,-0.0310512,-0.106826,0.18011,0.0315756,0.0342528,0.366731,5,0.1,10,4.5,-3.19698,1.68417,0.594857,0.00293069,0.110853,-0.00518365,4.47035e-05,-0.526436,-0.00290945,0.00975939,0.449222,5,0.1,11,4.5,-2.2912,-0.409793,0.58771,-0.0933703,0.0397689,0.0052263,0.592843,0.296736,-0.02845,0.00688307,0.440279,5,0.1,12,4.5,-3.04765,2.63058,0.520926,0.000806898,0.00603013,0.000319816,-0.00146031,-0.0111312,-0.000588596,0.0126571,8.55577e-06,5,0.1,13,4.5,-1.66467,-2.05054,0.599765,0.0124888,-0.697904,0.000177696,-0.0189021,-0.480995,-0.000238419,0.00724689,0.667395,5,0.1,14,4.5,-0.100973,-0.316117,0.5,-0.21947,0.245248,-1.39698e-06,0.115719,-0.00183098,-3.72529e-06,0.00953426,0.123493,5,0.1,15,4.5,-0.781591,0.814501,0.59817,0.362819,-0.676626,0.0017181,0.014782,0.0838637,-0.00155717,0.0105618,0.801569,5,0.1,16,4.5,-3.20178,1.33383,0.600972,-0.0125322,0.263772,-0.000833627,-0.0671297,-0.0975728,0.000428408,0.0201142,1.93874,5,0.1,17,4.5,-2.09465,3.00645,0.512512,-0.208392,-0.163484,0.0324705,-0.360906,-0.482619,0.00632182,0.011026,0.130298,5,0.1,18,4.5,-0.951768,-1.96586,0.616922,-0.712426,-0.594518,-0.015775,0.324097,-0.891626,0.0109337,0.0173534,1.4429,5,0.1,19,4.5,-2.05321,2.46423,0.608546,0.209419,-0.0968281,-0.0352768,-0.402212,-0.0291616,-0.0347868,0.0111587,0.12787,5,0.1
0,4.6,1.78133,-1.68302,0.520454,0.000715256,0.00398755,3.27826e-05,0.00667572,0.0302196,0.000298023,0.0140799,5.74745e-05,5,0.1,1,4.6,-0.334108,1.13268,0.893329,0.0741877,0.100845,0.0952497,-0.780731,-0.862658,0.206769,0.00847137,0.350922,5,0.1,2,4.6,-0.277649,1.35887,0.702315,-0.696612,0.0188559,-0.0852719,0.817581,-0.0842214,-0.0540316,0.00847614,0.578058,5,0.1,3,4.6,2.62293,3.46269,0.599092,-0.810283,0.0237644,0.000807643,-0.680685,0.260711,-0.0012517,0.0166699,2.31741,5,0.1,4,4.6,-2.42941,-0.666949,0.598805,0.524318,0.143923,0.00482053,-0.302315,-0.482947,-0.000923872,0.0186988,0.486202,5,0.1,5,4.6,1.34472,-2.15893,0.600235,0.00493228,0.85451,-0.000217557,-0.00494719,-0.230312,0.000208616,0.0137172,2.29564,5,0.1,6,4.6,-0.316564,0.490389,0.599365,0.0284746,0.365096,0.00107884,-0.0359714,0.0249296,-0.0012815,0.0174999,0.160333,5,0.1,7,4.6,3.4929,1.1733,0.630854,0.0017941,0.00407398,-0.000220537,0.015378,0.0314116,-0.00187755,0.0083504,7.32576e-05,5,0.1,8,4.6,-1.79836,2.38302,0.750085,-0.000572205,-0.137424,-3.42727e-05,-0.0199676,-0.50199,-0.00101328,0.0070826,0.0931002,5,0.1,9,4.6,3.31463,2.25984,0.771669,-0.0267208,0.49113,-0.0278056,-0.0611544,0.0329018,0.033617,0.0256206,0.265758,5,0.1,10,4.6,-3.19668,1.69282,0.594324,0.00298619,0.064221,-0.00545382,0.000715256,-0.402331,-0.00217557,0.00867463,0.490098,5,0.1,11,4.6,-2.29733,-0.404052,0.588081,-0.0276566,0.0769883,0.00212938,0.686646,0.414193,-0.0319779,0.00974494,0.302732,5,0.1,12,4.6,-3.04758,2.63113,0.520955,0.000649691,0.00485182,0.0002563,-0.00154972,-0.0122786,-0.000625849,0.0136885,7.94373e-06,5,0.1,13,4.6,-1.66351,-2.12224,0.599782,0.0108212,-0.730532,0.000156462,-0.0149608,-0.150204,-0.000178814,0.00695367,0.113306,5,0.1,14,4.6,-0.122343,-0.291812,0.5,-0.207737,0.238796,-1.49012e-06,0.126787,-0.126004,0,0.0121422,0.155657,5,0.1,15,4.6,-0.745392,0.747274,0.598334,0.359364,-0.666897,0.00156313,-0.0932217,0.143379,-0.00151992,0.0111582,0.582724,5,0.1,16,4.6,-3.20313,1.35965,0.60089,-0.0113606,0.251907,-0.000786781,0.114679,-0.145912,0.000596046,0.0136886,1.79339,5,0.1,17,4.6,-2.11704,2.98794,0.515767,-0.23663,-0.203955,0.0323907,-0.19598,-0.316381,-0.00840425,0.0145984,0.0615594,5,0.1,18,4.6,-1.02127,-2.02932,0.615401,-0.675929,-0.669378,-0.01463,0.424087,-0.571132,0.0122786,0.00836635,1.04115,5,0.1,19,4.6,-2.03426,2.45441,0.604864,0.17001,-0.0995278,-0.0381082,-0.384331,-0.0181198,-0.0199974,0.00802886,0.160795,5,0.1
0,4.7,1.78143,-1.6825,0.520458,0.00123587,0.0063194,5.59725e-05,0.00382215,0.0168011,0.000167638,0.0140799,5.74745e-05,5,0.1,1,4.7,-0.330285,1.13825,0.904133,0.00537853,0.00947975,0.122636,-0.593955,-0.929475,0.315148,0.00847137,0.350922,5,0.1,2,4.7,-0.342961,1.36031,0.693505,-0.609254,0.00968054,-0.0909146,0.848379,-0.0956953,-0.0529513,0.00847614,0.578058,5,0.1,3,4.7,2.53927,3.46626,0.599166,-0.855749,0.0465482,0.000691228,-0.247896,0.194699,-0.00109524,0.0166699,2.31741,5,0.1,4,4.7,-2.37823,-0.654292,0.599277,0.501225,0.115154,0.00457708,-0.187829,-0.126339,-0.00378489,0.0186988,0.486202,5,0.1,5,4.7,1.34519,-2.0739,0.600214,0.0044886,0.851586,-0.000198744,-0.00408292,0.100017,0.000171363,0.0137172,2.29564,5,0.1,6,4.7,-0.313895,0.527052,0.59931,0.0249214,0.368005,-0.00349423,-0.0352357,0.0161063,-0.0803061,0.0174999,0.160333,5,0.1,7,4.7,3.49314,1.17384,0.630824,0.00300445,0.00650845,-0.000367872,0.0089556,0.017643,-0.00108778,0.0083504,7.32576e-05,5,0.1,8,4.7,-1.7985,2.36677,0.750077,-0.00209995,-0.186785,-0.000114646,-0.0109524,-0.464022,-0.000607222,0.0070826,0.0931002,5,0.1,9,4.7,3.31176,2.30914,0.76905,-0.0297707,0.49462,-0.0246173,-0.00496209,0.0146478,0.0306293,0.0256206,0.265758,5,0.1,10,4.7,-3.19637,1.69746,0.593762,0.00338927,0.0308927,-0.00584414,0.0064373,-0.265464,-0.00494346,0.00867463,0.490098,5,0.1,11,4.7,-2.29674,-0.393927,0.588121,0.0383016,0.128093,-0.0013968,0.6174,0.569465,-0.0368655,0.00974494,0.302732,5,0.1,12,4.7,-3.04752,2.63155,0.520978,0.000490621,0.0036031,0.000191666,-0.00159442,-0.0124574,-0.000648201,0.0136885,7.94373e-06,5,0.1,13,4.7,-1.66249,-2.19546,0.599797,0.0095835,-0.72817,0.000142213,-0.0103489,0.194505,-0.000115484,0.00695367,0.113306,5,0.1,14,4.7,-0.142585,-0.26882,0.5,-0.197826,0.218675,-4.65661e-07,0.0828095,-0.267102,1.11759e-05,0.0121422,0.155657,5,0.1,15,4.7,-0.709917,0.681086,0.598483,0.349855,-0.658118,0.00142623,-0.108711,0.0680909,-0.0012666,0.0111582,0.582724,5,0.1,16,4.7,-3.20344,1.38415,0.600815,0.00937693,0.238267,-0.000732765,0.365779,-0.134937,0.00051409,0.0136886,1.79339,5,0.1,17,4.7,-2.14152,2.96613,0.518951,-0.251017,-0.23015,0.0311461,-0.0865608,-0.200242,-0.0167228,0.0145984,0.0615594,5,0.1,18,4.7,-1.0866,-2.09898,0.613998,-0.629037,-0.721452,-0.0134436,0.518672,-0.434875,0.0117645,0.00836635,1.04115,5,0.1,19,4.7,-2.01892,2.44441,0.600978,0.138817,-0.0997499,-0.0393742,-0.251666,0.0160336,-0.00480935,0.00802886,0.160795,5,0.1
0,4.8,1.78157,-1.6818,0.520465,0.0014931,0.00742078,6.70552e-05,0.00143051,0.00566244,5.96046e-05,0.0198139,1.73156e-05,5,0.1,1,4.8,-0.332399,1.13468,0.917977,-0.04448,-0.0789523,0.153786,-0.403464,-0.813425,0.288725,0.012264,0.413504,5,0.1,2,4.8,-0.4,1.3608,0.68419,-0.535344,0.000345707,-0.0948668,0.626967,-0.0883937,-0.0220537,0.0122331,0.464506,5,0.1,3,4.8,2.45297,3.47178,0.59923,-0.866026,0.0626743,0.000587106,0,0.127673,-0.000983477,0.0164755,2.28084,5,0.1,4,4.8,-2.32905,-0.64305,0.599712,0.481898,0.112584,0.00409484,-0.218987,0.0481308,-0.00572205,0.0137984,0.366675,5,0.1,5,4.8,1.34562,-1.98817,0.600195,0.0040859,0.862512,-0.000181794,-0.00405312,0.0702739,0.000178814,0.0224456,2.2741,5,0.1,6,4.8,-0.311578,0.563804,0.598496,0.0214078,0.365438,-0.0132278,-0.0351071,-0.0791252,-0.106633,0.0106316,0.57699,5,0.1,7,4.8,3.49348,1.17456,0.630783,0.003618,0.00767708,-0.000441074,0.00345707,0.00613928,-0.000447035,0.0115749,2.18731e-05,5,0.1,8,4.8,-1.79875,2.34598,0.750063,-0.0028342,-0.226671,-0.000157952,-0.00411272,-0.319123,-0.000268221,0.00993252,0.123785,5,0.1,9,4.8,3.30882,2.35849,0.76674,-0.0285983,0.490332,-0.0216007,0.0244379,-0.115395,0.0300407,0.0230498,0.188312,5,0.1,10,4.8,-3.19599,1.69944,0.593153,0.00411272,0.0106275,-0.00632256,0.00762939,-0.143468,-0.00411272,0.00837568,0.499725,5,0.1,11,4.8,-2.29004,-0.378274,0.587801,0.0932872,0.184183,-0.00495017,0.47195,0.523776,-0.0329614,0.0146722,0.25835,5,0.1,12,4.8,-3.04748,2.63185,0.520994,0.000333786,0.00240803,0.00012964,-0.00143051,-0.0112057,-0.000625849,0.00774064,6.45138e-06,5,0.1,13,4.8,-1.66158,-2.26676,0.59981,0.00865757,-0.692517,0.00013262,-0.00864267,0.512838,-0.000119209,0.0107772,0.320599,5,0.1,14,4.8,-0.16195,-0.248456,0.5,-0.189234,0.187151,0,0.0970811,-0.354961,2.98023e-05,0.016189,0.140244,5,0.1,15,4.8,-0.675579,0.61573,0.59862,0.335672,-0.647162,0.00130087,-0.182748,0.176281,-0.0012815,0.0117175,0.412307,5,0.1,16,4.8,-3.2,1.40727,0.600744,0.0658214,0.223568,-0.000679493,0.737786,-0.164509,0.000536442,0.0136777,1.54589,5,0.1,17,4.8,-2.16684,2.94236,0.521967,-0.253177,-0.242889,0.02902,0.0456572,-0.0505447,-0.0258982,0.0131672,0.0227849,5,0.1,18,4.8,-1.14672,-2.17284,0.612713,-0.571525,-0.750476,-0.0122249,0.63318,-0.12207,0.0127852,0.011642,0.737523,5,0.1,19,4.8,-2.00616,2.43459,0.597045,0.117552,-0.0959754,-0.0389993,-0.182867,0.0603199,0.0125468,0.00797875,0.131824,5,0.1
0,4.9,1.78173,-1.68104,0.520471,0.00154916,0.00758283,6.91041e-05,-0.000230968,-0.00201166,-1.49012e-05,0.0198139,1.73156e-05,5,0.1,1,4.9,-0.338002,1.12365,0.934344,-0.0599642,-0.13307,0.169342,0.0534076,-0.299878,0.0361949,0.012264,0.413504,5,0.1,2,4.9,-0.451033,1.3604,0.674589,-0.490575,-0.00842214,-0.0970503,0.310659,-0.0842959,-0.0169501,0.0122331,0.464506,5,0.1,3,4.9,2.36637,3.47849,0.599284,-0.866026,0.0698555,0.000499561,0,0.0313669,-0.000789762,0.0164755,2.28084,5,0.1,4,4.9,-2.28179,-0.631237,0.600091,0.46419,0.126155,0.00347868,-0.157759,0.197515,-0.00648946,0.0137984,0.366675,5,0.1,5,4.9,1.34592,-1.9017,0.600177,0.00122264,0.865806,-0.000163354,-0.047788,0.00878423,0.000193715,0.0224456,2.2741,5,0.1,6,4.9,-0.309564,0.5992,0.596749,0.0192781,0.335864,-0.0206959,-0.010781,-0.476893,-0.0458434,0.0106316,0.57699,5,0.1,7,4.9,3.49385,1.17534,0.630737,0.00376515,0.00787359,-0.000460632,-0.000342727,-0.00179559,3.72529e-05,0.0115749,2.18731e-05,5,0.1,8,4.9,-1.79904,2.32166,0.750047,-0.00296235,-0.259721,-0.000173226,0.00117719,-0.319287,-5.21541e-05,0.00993252,0.123785,5,0.1,9,4.9,3.30613,2.40698,0.764723,-0.0247885,0.479286,-0.0188128,0.04448,-0.123605,0.0261404,0.0230498,0.188312,5,0.1,10,4.9,-3.19554,1.69994,0.592491,0.0048358,0.000782125,-0.00697952,0.00648201,-0.0596568,-0.00807643,0.00837568,0.499725,5,0.1,11,4.9,-2.27876,-0.357373,0.587135,0.128256,0.232089,-0.00838013,0.235438,0.4193,-0.0340529,0.0146722,0.25835,5,0.1,12,4.9,-3.04745,2.63203,0.521004,0.000195578,0.00134185,7.01286e-05,-0.0012964,-0.00995398,-0.000555068,0.00774064,6.45138e-06,5,0.1,13,4.9,-1.66075,-2.33372,0.599823,0.00795145,-0.648766,0.000123214,-0.00592321,0.391647,-7.07805e-05,0.0107772,0.320599,5,0.1,14,4.9,-0.180406,-0.231623,0.5,-0.179915,0.148699,1.30385e-06,0.0953749,-0.403296,0,0.016189,0.140244,5,0.1,15,4.9,-0.642895,0.551764,0.598744,0.318079,-0.632746,0.00118539,-0.178922,0.140823,-0.00107288,0.0117175,0.412307,5,0.1,16,4.9,-3.1889,1.42885,0.600678,0.162429,0.20827,-0.000630412,1.1171,-0.14817,0.000465661,0.0136777,1.54589,5,0.1,17,4.9,-2.1918,2.91797,0.524733,-0.244779,-0.24338,0.026226,0.123262,0.0427514,-0.029929,0.0131672,0.0227849,5,0.1,18,4.9,-1.20074,-2.24847,0.611552,-0.50897,-0.761037,-0.0110218,0.623345,-0.0571907,0.0115484,0.011642,0.737523,5,0.1,19,4.9,-1.99495,2.4254,0.593278,0.10984,-0.0868972,-0.0357241,0.00505894,0.117436,0.0495873,0.00797875,0.131824,5,0.1
