id,t,px,py,pz,vx,vy,vz,ax,ay,az,planning_time,qp_cost,planning_report,size,id,t,px,py,pz,vx,vy,vz,ax,ay,az,planning_time,qp_cost,planning_report,size,id,t,px,py,pz,vx,vy,vz,ax,ay,az,planning_time,qp_cost,planning_report,size,id,t,px,py,pz,vx,vy,vz,ax,ay,az,planning_time,qp_cost,planning_report,size,id,t,px,py,pz,vx,vy,vz,ax,ay,az,planning_time,qp_cost,planning_report,size,id,t,px,py,pz,vx,vy,vz,ax,ay,az,planning_time,qp_cost,planning_report,size,id,t,px,py,pz,vx,vy,vz,ax,ay,az,planning_time,qp_cost,planning_report,size,id,t,px,py,pz,vx,vy,vz,ax,ay,az,planning_time,qp_cost,planning_report,size,id,t,px,py,pz,vx,vy,vz,ax,ay,az,planning_time,qp_cost,planning_report,size,id,t,px,py,pz,vx,vy,vz,ax,ay,az,planning_time,qp_cost,planning_report,size,id,t,px,py,pz,vx,vy,vz,ax,ay,az,planning_time,qp_cost,planning_report,size,id,t,px,py,pz,vx,vy,vz,ax,ay,az,planning_time,qp_cost,planning_report,size,id,t,px,py,pz,vx,vy,vz,ax,ay,az,planning_time,qp_cost,planning_report,size,id,t,px,py,pz,vx,vy,vz,ax,ay,az,planning_time,qp_cost,planning_report,size,id,t,px,py,pz,vx,vy,vz,ax,ay,az,planning_time,qp_cost,planning_report,size,id,t,px,py,pz,vx,vy,vz,ax,ay,az,planning_time,qp_cost,planning_report,size,id,t,px,py,pz,vx,vy,vz,ax,ay,az,planning_time,qp_cost,planning_report,size,id,t,px,py,pz,vx,vy,vz,ax,ay,az,planning_time,qp_cost,planning_report,size,id,t,px,py,pz,vx,vy,vz,ax,ay,az,planning_time,qp_cost,planning_report,size,id,t,px,py,pz,vx,vy,vz,ax,ay,az,planning_time,qp_cost,planning_report,size
0,0,0.800595,3.80342,0.564974,0,0,0,0,0,0,0.0185036,2.65679,5,0.1,1,0,-0.740492,-2.5651,0.569011,0,0,0,0,0,0,0.00921124,1.42179,5,0.1,2,0,2.28824,-2.77038,0.542674,0,0,0,0,0,0,0.00890639,2.48607,5,0.1,3,0,2.04674,2.9613,0.505829,0,0,0,0,0,0,0.0178637,3.51219,5,0.1,4,0,-3.63367,-3.28999,0.566161,0,0,0,0,0,0,0.0449721,3.5122,5,0.1,5,0,4.04128,-0.481855,0.564915,0,0,0,0,0,0,0.0190328,3.5122,5,0.1,6,0,2.07309,-0.0290637,0.61333,0,0,0,0,0,0,0.0125446,3.51219,5,0.1,7,0,-1.4939,2.57301,0.5102,0,0,0,0,0,0,0.0127286,2.09167,5,0.1,8,0,4.22104,4.25599,0.627355,0,0,0,0,0,0,0.0132737,3.5122,5,0.1,9,0,3.70729,-3.7369,0.526341,0,0,0,0,0,0,0.0278614,3.5122,5,0.1,10,0,-1.38461,-2.1482,0.649356,0,0,0,0,0,0,0.0436891,3.5122,5,0.1,11,0,-1.19873,-1.49062,0.56762,0,0,0,0,0,0,0.019905,3.5122,5,0.1,12,0,0.530043,2.6462,0.616614,0,0,0,0,0,0,0.0105153,0.877249,5,0.1,13,0,-0.0345325,3.10286,0.619883,0,0,0,0,0,0,0.0161388,3.23861,5,0.1,14,0,-3.31791,3.34229,0.668094,0,0,0,0,0,0,0.00932132,3.51219,5,0.1,15,0,1.58435,1.31987,0.521486,0,0,0,0,0,0,0.0163501,1.33673,5,0.1,16,0,-1.66948,3.49021,0.694395,0,0,0,0,0,0,0.0129359,1.71467,5,0.1,17,0,0.633977,-4.29063,0.545118,0,0,0,0,0,0,0.0180069,3.51219,5,0.1,18,0,3.43831,-2.30061,0.528194,0,0,0,0,0,0,0.0135907,3.51219,5,0.1,19,0,4.12125,-1.69408,0.560838,0,0,0,0,0,0,0.022261,3.51219,5,0.1
0,0.1,0.800229,3.80164,0.565011,-0.0103896,-0.0504788,0.00103787,-0.1847,-0.897422,0.0184551,0.0185036,2.65679,5,0.1,1,0.1,-0.740046,-2.56635,0.569116,0.0126468,-0.0354018,0.00296552,0.224836,-0.62938,0.0527203,0.00921124,1.42179,5,0.1,2,0.1,2.28664,-2.77109,0.542734,-0.0455838,-0.0201397,0.00169864,-0.8104,-0.358045,0.0302009,0.00890639,2.48607,5,0.1,3,0.1,2.04482,2.96047,0.505783,-0.0544168,-0.0234496,-0.00129454,-0.967413,-0.41689,-0.0230148,0.0178637,3.51219,5,0.1,4,0.1,-3.63159,-3.2898,0.566183,0.0590429,0.00513569,0.000599213,1.04964,0.0913143,0.0106543,0.0449721,3.5122,5,0.1,5,0.1,4.04085,-0.479813,0.564935,-0.0123411,0.0579664,0.000584219,-0.219405,1.03051,0.0103824,0.0190328,3.5122,5,0.1,6,0.1,2.07141,-0.0303124,0.61332,-0.0474989,-0.0354468,-0.000266731,-0.844419,-0.630165,-0.00474602,0.0125446,3.51219,5,0.1,7,0.1,-1.49344,2.57455,0.510137,0.0131547,0.0437696,-0.00178386,0.233859,0.778124,-0.0317171,0.0127286,2.09167,5,0.1,8,0.1,4.21944,4.25464,0.627329,-0.045348,-0.0381552,-0.000742357,-0.806183,-0.678331,-0.0131987,0.0132737,3.5122,5,0.1,9,0.1,3.7072,-3.73481,0.526366,-0.00248216,0.0592116,0.000710879,-0.0441223,1.05266,0.0126325,0.0278614,3.5122,5,0.1,10,0.1,-1.38372,-2.14632,0.649316,0.0252908,0.0535887,-0.00115084,0.449605,0.952676,-0.0204556,0.0436891,3.5122,5,0.1,11,0.1,-1.19807,-1.48864,0.567638,0.0187675,0.0562159,0.000506919,0.333644,0.999399,0.00901148,0.019905,3.5122,5,0.1,12,0.1,0.529959,2.64516,0.616597,-0.0023718,-0.0295211,-0.000492483,-0.0421666,-0.524834,-0.00875443,0.0105153,0.877249,5,0.1,13,0.1,-0.0337136,3.10103,0.619862,0.023249,-0.0519447,-0.000588968,0.413315,-0.923455,-0.0104755,0.0161388,3.23861,5,0.1,14,0.1,-3.31618,3.34111,0.668042,0.0489939,-0.033319,-0.0014713,0.871018,-0.592321,-0.0261515,0.00932132,3.51219,5,0.1,15,0.1,1.58317,1.32038,0.521411,-0.0336157,0.0142282,-0.00211829,-0.597604,0.252955,-0.037659,0.0163501,1.33673,5,0.1,16,0.1,-1.66962,3.48876,0.694453,-0.00386778,-0.0411984,0.00164788,-0.0687614,-0.732407,0.0292957,0.0129359,1.71467,5,0.1,17,0.1,0.631953,-4.29012,0.545146,-0.0574687,0.0144713,0.000801869,-1.02167,0.257283,0.014253,0.0180069,3.51219,5,0.1,18,0.1,3.43836,-2.29852,0.528199,0.00141859,0.0592519,0.000141561,0.0252128,1.05335,0.0025183,0.0135907,3.51219,5,0.1,19,0.1,4.12089,-1.69203,0.560855,-0.010214,0.0583798,0.000487175,-0.181586,1.03785,0.0086613,0.022261,3.51219,5,0.1
0,0.2,0.798118,3.79139,0.565222,-0.0328362,-0.159538,0.00327975,-0.246286,-1.19662,0.0246167,0.0158642,2.17976,5,0.1,1,0.2,-0.737477,-2.57354,0.569718,0.0399694,-0.111884,0.00937134,0.299811,-0.839233,0.0703335,0.011019,1.16651,5,0.1,2,0.2,2.27738,-2.77518,0.543079,-0.14407,-0.0636518,0.00536889,-1.08051,-0.477314,0.0402927,0.010087,2.0397,5,0.1,3,0.2,2.03377,2.95571,0.50552,-0.171983,-0.0741124,-0.00409186,-1.28984,-0.555873,-0.0306666,0.0135926,2.92592,5,0.1,4,0.2,-3.6196,-3.28876,0.566304,0.186604,0.0162303,0.00189394,1.39952,0.121713,0.0142157,0.0478183,2.92628,5,0.1,5,0.2,4.03834,-0.468039,0.565054,-0.0390053,0.183202,0.00184625,-0.292301,1.37404,0.0138283,0.0180343,2.9258,5,0.1,6,0.2,2.06176,-0.0375126,0.613266,-0.150126,-0.112029,-0.000843406,-1.12581,-0.840219,-0.00631809,0.016931,2.9258,5,0.1,7,0.2,-1.49076,2.58344,0.509775,0.0415742,0.13833,-0.0056386,0.311852,1.0376,-0.0422597,0.0146136,1.71618,5,0.1,8,0.2,4.21023,4.24689,0.627178,-0.143313,-0.120592,-0.00234544,-1.07503,-0.904322,-0.0176132,0.0189193,2.92579,5,0.1,9,0.2,3.7067,-3.72278,0.526511,-0.00784397,0.187141,0.0022456,-0.0588894,1.40345,0.0168681,0.0252338,2.9258,5,0.1,10,0.2,-1.37859,-2.13543,0.649082,0.0799298,0.169373,-0.00363737,0.599563,1.27017,-0.0272989,0.0380391,2.92579,5,0.1,11,0.2,-1.19426,-1.47722,0.567741,0.0593156,0.17767,0.00160187,0.444889,1.33252,0.0120401,0.0250057,2.92579,5,0.1,12,0.2,0.529477,2.63916,0.616497,-0.00749677,-0.0933051,-0.00155568,-0.056237,-0.699759,-0.0116825,0.0118718,0.719738,5,0.1,13,0.2,-0.0289911,3.09048,0.619742,0.0734781,-0.164169,-0.00186265,0.551087,-1.23131,-0.0139475,0.0152882,2.65712,5,0.1,14,0.2,-3.30623,3.33435,0.667743,0.154847,-0.105304,-0.00464916,1.16134,-0.789762,-0.0348687,0.0101893,2.92579,5,0.1,15,0.2,1.57634,1.32327,0.520981,-0.106242,0.0449657,-0.00669658,-0.796795,0.337303,-0.0501871,0.0164757,1.09672,5,0.1,16,0.2,-1.67041,3.48039,0.694787,-0.0122249,-0.1302,0.00520796,-0.0916719,-0.976682,0.0390708,0.0139042,1.40679,5,0.1,17,0.2,0.620279,-4.28718,0.545309,-0.18163,0.0457287,0.00253469,-1.3622,0.343323,0.0189841,0.0160076,2.92579,5,0.1,18,0.2,3.43865,-2.28649,0.528228,0.00448227,0.187266,0.000447035,0.033617,1.4044,0.00333786,0.01222,2.9258,5,0.1,19,0.2,4.11882,-1.68017,0.560954,-0.0322819,0.184509,0.00153929,-0.242233,1.38378,0.0115335,0.0309857,2.92579,5,0.1
0,0.3,0.793468,3.76879,0.565687,-0.0610874,-0.296801,0.00610324,-0.301365,-1.46422,0.0301115,0.0158642,2.17976,5,0.1,1,0.3,-0.731816,-2.58938,0.571046,0.07436,-0.208151,0.0174381,0.366852,-1.02691,0.0860393,0.011019,1.16651,5,0.1,2,0.3,2.25697,-2.78419,0.54384,-0.268017,-0.118408,0.00999011,-1.32221,-0.584126,0.049293,0.010087,2.0397,5,0.1,3,0.3,2.0094,2.9452,0.504974,-0.320328,-0.138042,-0.00668447,-1.5852,-0.683129,-0.0210777,0.0135926,2.92592,5,0.1,4,0.3,-3.59322,-3.28646,0.566573,0.345691,0.0302296,0.00352878,1.68671,0.149593,0.0174642,0.0478183,2.92628,5,0.1,5,0.3,4.03281,-0.442077,0.565315,-0.0726297,0.341227,0.00343723,-0.359356,1.68864,0.017006,0.0180343,2.9258,5,0.1,6,0.3,2.04049,-0.0533881,0.613147,-0.279609,-0.208662,-0.0015704,-1.38365,-1.03261,-0.00777096,0.016931,2.9258,5,0.1,7,0.3,-1.48488,2.60303,0.509002,0.0773454,0.257351,-0.009738,0.381581,1.26962,-0.0384115,0.0146136,1.71618,5,0.1,8,0.3,4.18992,4.2298,0.626845,-0.266946,-0.224601,-0.0043707,-1.32111,-1.11145,-0.0216365,0.0189193,2.92579,5,0.1,9,0.3,3.70558,-3.69626,0.526829,-0.0146151,0.348553,0.00418471,-0.0723302,1.72487,0.0207163,0.0252338,2.9258,5,0.1,10,0.3,-1.36726,-2.11143,0.648566,0.148882,0.315457,-0.00677649,0.736795,1.56108,-0.0335351,0.0380391,2.92579,5,0.1,11,0.3,-1.18585,-1.45204,0.567968,0.110481,0.330922,0.00298563,0.546753,1.63765,0.014782,0.0250057,2.92579,5,0.1,12,0.3,0.528416,2.62594,0.616276,-0.0139474,-0.173575,-0.00289548,-0.0688098,-0.856265,-0.0142902,0.0118718,0.719738,5,0.1,13,0.3,-0.0185843,3.06723,0.619478,0.136694,-0.305413,-0.00346331,0.674353,-1.50672,-0.0170805,0.0152882,2.65712,5,0.1,14,0.3,-3.28429,3.31942,0.667084,0.288411,-0.196134,-0.00865944,1.42726,-0.970602,-0.0428483,0.0101893,2.92579,5,0.1,15,0.3,1.56129,1.32963,0.520033,-0.197644,0.0836566,-0.0124547,-0.975035,0.412717,-0.0614263,0.0164757,1.09672,5,0.1,16,0.3,-1.67214,3.46195,0.695525,-0.0227412,-0.242231,0.00968939,-0.112183,-1.19506,0.0478067,0.0139042,1.40679,5,0.1,17,0.3,0.594541,-4.2807,0.545668,-0.338297,0.0852033,0.00471873,-1.67413,0.421762,0.0233464,0.0160076,2.92579,5,0.1,18,0.3,3.43929,-2.25995,0.528292,0.00834875,0.348788,0.000831485,0.0413209,1.72602,0.00411272,0.01222,2.9258,5,0.1,19,0.3,4.11424,-1.65402,0.561172,-0.0601366,0.343658,0.00286633,-0.297606,1.70065,0.0141822,0.0309857,2.92579,5,0.1
0,0.4,0.785879,3.73192,0.566445,-0.0900894,-0.437719,0.00900179,-0.265896,-1.29175,0.0265539,0.0189559,1.72464,5,0.1,1,0.4,-0.722579,-2.61524,0.573212,0.109664,-0.306976,0.0257179,0.323653,-0.905871,0.0758767,0.0110813,0.92295,5,0.1,2,0.4,2.22368,-2.7989,0.545081,-0.395262,-0.174624,0.0147328,-1.16658,-0.515461,0.0434816,0.016209,1.61383,5,0.1,3,0.4,1.96958,2.92804,0.504216,-0.473061,-0.20386,-0.00829846,-1.40154,-0.604153,-0.0111461,0.0167371,2.51047,5,0.1,4,0.4,-3.55039,-3.2827,0.567011,0.507361,0.0446439,0.00521094,1.47653,0.132322,0.0154376,0.0365097,2.90531,5,0.1,5,0.4,4.02378,-0.399655,0.565743,-0.107253,0.503924,0.00507683,-0.31805,1.49307,0.0150204,0.0264604,2.51186,5,0.1,6,0.4,2.00573,-0.0793298,0.612951,-0.412923,-0.308152,-0.00231862,-1.22339,-0.913013,-0.00688434,0.0211173,2.51008,5,0.1,7,0.4,-1.47527,2.635,0.507852,0.114068,0.379539,-0.0130981,0.336647,1.12009,-0.027895,0.0261038,1.35833,5,0.1,8,0.4,4.15673,4.20188,0.626302,-0.394225,-0.331688,-0.00645369,-1.16825,-0.982523,-0.0191629,0.0199349,2.51008,5,0.1,9,0.4,3.70377,-3.65293,0.527349,-0.0215828,0.514746,0.006181,-0.0640154,1.52504,0.0182986,0.0241151,2.51547,5,0.1,10,0.4,-1.34875,-2.07221,0.647724,0.21987,0.465864,-0.0100076,0.651419,1.38032,-0.0296533,0.0505818,2.51008,5,0.1,11,0.4,-1.17212,-1.4109,0.568339,0.163156,0.488704,0.00441074,0.483453,1.44798,0.0130236,0.0211766,2.51008,5,0.1,12,0.4,0.526683,2.60438,0.615917,-0.0205681,-0.255984,-0.00426918,-0.0607371,-0.755429,-0.0126362,0.0134591,0.615446,5,0.1,13,0.4,-0.00160299,3.02929,0.619048,0.201593,-0.450414,-0.00510663,0.594936,-1.3293,-0.01508,0.0103415,2.1181,5,0.1,14,0.4,-3.24843,3.29504,0.666007,0.425923,-0.289649,-0.0127882,1.26195,-0.858188,-0.0379086,0.0175066,2.51008,5,0.1,15,0.4,1.53674,1.34003,0.518486,-0.291479,0.123376,-0.0183672,-0.860274,0.364125,-0.0542104,0.0124833,0.867765,5,0.1,16,0.4,-1.67496,3.43186,0.696729,-0.0335366,-0.35724,0.0142887,-0.0990033,-1.05429,0.0422001,0.0160767,1.11306,5,0.1,17,0.4,0.552483,-4.27011,0.546255,-0.499596,0.125837,0.00696778,-1.48022,0.372648,0.020653,0.0187178,2.51095,5,0.1,18,0.4,3.44033,-2.21659,0.528395,0.0123262,0.515085,0.00122786,0.0367165,1.52612,0.00363588,0.0302044,2.51561,5,0.1,19,0.4,4.10676,-1.6113,0.561529,-0.0888109,0.507513,0.00423342,-0.262976,1.50365,0.012517,0.0692068,2.51283,5,0.1
0,0.5,0.775516,3.68157,0.56748,-0.117066,-0.568779,0.0116961,-0.260413,-1.26518,0.02601,0.0189559,1.72464,5,0.1,1,0.5,-0.709964,-2.65055,0.57617,0.142501,-0.398886,0.0334163,0.316985,-0.88723,0.0743158,0.0110813,0.92295,5,0.1,2,0.5,2.17821,-2.81899,0.546775,-0.513622,-0.22692,0.0191439,-1.14255,-0.504836,0.0425801,0.016209,1.61383,5,0.1,3,0.5,1.91506,2.90455,0.503353,-0.617286,-0.266025,-0.00875965,-1.40879,-0.607207,0.00117719,0.0167371,2.51047,5,0.1,4,0.5,-3.49393,-3.27756,0.567612,0.606247,0.0582591,0.00679931,0.542536,0.132978,0.0155158,0.0365097,2.90531,5,0.1,5,0.5,4.01142,-0.34172,0.566328,-0.139977,0.653688,0.00662319,-0.31966,1.43045,0.0151098,0.0264604,2.51186,5,0.1,6,0.5,1.95815,-0.11484,0.612684,-0.538815,-0.402103,-0.00302671,-1.22971,-0.917706,-0.00691786,0.0211173,2.51008,5,0.1,7,0.5,-1.46215,2.67866,0.506442,0.148224,0.493182,-0.0147426,0.329711,1.09701,-0.00609085,0.0261038,1.35833,5,0.1,8,0.5,4.1113,4.16366,0.625558,-0.514436,-0.432799,-0.00842446,-1.17418,-0.987679,-0.0192411,0.0199349,2.51008,5,0.1,9,0.5,3.70128,-3.59385,0.528061,-0.0281688,0.66494,0.00806395,-0.0643283,1.41069,0.0183955,0.0241151,2.51547,5,0.1,10,0.5,-1.32341,-2.01853,0.646571,0.286902,0.607904,-0.0130586,0.654757,1.38742,-0.0297949,0.0505818,2.51008,5,0.1,11,0.5,-1.15331,-1.35459,0.568847,0.212903,0.637706,0.00575148,0.485912,1.45542,0.0131056,0.0211766,2.51008,5,0.1,12,0.5,0.524317,2.5756,0.615425,-0.0267294,-0.313865,-0.00555031,-0.0594743,-0.406995,-0.0123605,0.0134591,0.615446,5,0.1,13,0.5,0.0212887,2.97771,0.618461,0.253535,-0.578758,-0.00662226,0.433009,-1.18591,-0.0145137,0.0103415,2.1181,5,0.1,14,0.5,-3.19935,3.26166,0.664534,0.555782,-0.377959,-0.0166886,1.26846,-0.862598,-0.0380985,0.0175066,2.51008,5,0.1,15,0.5,1.50321,1.35422,0.516389,-0.378761,0.160319,-0.0234067,-0.842541,0.356622,-0.0449009,0.0124833,0.867765,5,0.1,16,0.5,-1.67882,3.39077,0.698372,-0.0435812,-0.464207,0.0185696,-0.0969544,-1.03259,0.0413209,0.0160767,1.11306,5,0.1,17,0.5,0.495007,-4.25561,0.547058,-0.649186,0.164184,0.00909297,-1.43834,0.374556,0.020761,0.0187178,2.51095,5,0.1,18,0.5,3.44175,-2.15747,0.528536,0.0161003,0.665296,0.00160234,0.0368208,1.4101,0.00366196,0.0302044,2.51561,5,0.1,19,0.5,4.09653,-1.55298,0.562017,-0.115874,0.657418,0.00552218,-0.264376,1.42389,0.0125989,0.0692068,2.51283,5,0.1
0,0.6,0.762606,3.61885,0.56877,-0.139919,-0.679803,0.0139773,-0.187337,-0.910163,0.0187457,0.0184682,1.28395,5,0.1,1,0.6,-0.694249,-2.69454,0.579855,0.170317,-0.476748,0.0399381,0.228018,-0.638247,0.0534356,0.0420556,0.687114,5,0.1,2,0.6,2.12157,-2.84402,0.548887,-0.613886,-0.271219,0.0228807,-0.821829,-0.363231,0.0306368,0.0292704,1.48361,5,0.1,3,0.6,1.84678,2.87512,0.502498,-0.742149,-0.319839,-0.00820011,-1.03611,-0.446558,0.00935793,0.0117644,2.25534,5,0.1,4,0.6,-3.43185,-3.27111,0.568364,0.623733,0.0700414,0.00817478,-0.155926,0.0978708,0.0113845,0.0492683,3.09449,5,0.1,5,0.6,3.99594,-0.269781,0.56706,-0.168306,0.777992,0.00796318,-0.235081,1.00719,0.0110865,0.0236425,2.31383,5,0.1,6,0.6,1.89854,-0.159321,0.612349,-0.647807,-0.483442,-0.00363886,-0.904381,-0.674888,-0.0050962,0.0160064,2.21916,5,0.1,7,0.6,-1.4458,2.73305,0.504965,0.177157,0.589448,-0.0145212,0.237167,0.789165,0.00950694,0.0188046,1.01183,5,0.1,8,0.6,4.05439,4.11578,0.624626,-0.618505,-0.520349,-0.0101298,-0.863314,-0.726223,-0.0141561,0.0211939,2.13105,5,0.1,9,0.6,3.69816,-3.52094,0.528953,-0.0338674,0.785661,0.0096947,-0.0472069,0.959516,0.0135005,0.0287351,2.33405,5,0.1,10,0.6,-1.29168,-1.95128,0.645126,0.344935,0.730875,-0.0156999,0.481486,1.02031,-0.0219047,0.0471931,2.24574,5,0.1,11,0.6,-1.12976,-1.28404,0.569484,0.255972,0.766703,0.00691265,0.35733,1.07032,0.00962615,0.0306065,2.28797,5,0.1,12,0.6,0.521369,2.54272,0.614813,-0.0319481,-0.338489,-0.006634,-0.0427961,-0.0921488,-0.00891089,0.0123302,0.563266,5,0.1,13,0.6,0.0484676,2.91449,0.617732,0.286478,-0.678915,-0.00788867,0.219597,-0.781775,-0.010252,0.0135929,1.66165,5,0.1,14,0.6,-3.13787,3.21985,0.662688,0.668204,-0.454414,-0.0200659,0.932932,-0.634313,-0.0279844,0.00957543,2.21926,5,0.1,15,0.6,1.46144,1.3719,0.513851,-0.4527,0.191614,-0.0270694,-0.60606,0.256479,-0.0272989,0.0161183,0.678895,5,0.1,16,0.6,-1.68363,3.33957,0.70042,-0.0520885,-0.554818,0.0221953,-0.0697374,-0.742793,0.0297129,0.0146864,0.828639,5,0.1,17,0.6,0.423456,-4.23744,0.548064,-0.774923,0.197387,0.010933,-1.02623,0.275373,0.0152886,0.0125644,2.30624,5,0.1,18,0.6,3.44353,-2.08453,0.528714,0.0193655,0.785905,0.00192672,0.0269413,0.958085,0.00268221,0.00949568,2.33473,5,0.1,19,0.6,4.08371,-1.48072,0.562627,-0.139308,0.780535,0.00663847,-0.194311,0.991404,0.00926852,0.0213964,2.32034,5,0.1
0,0.7,0.747693,3.54639,0.57026,-0.157904,-0.767181,0.0157763,-0.162076,-0.787452,0.0162087,0.0184682,1.28395,5,0.1,1,0.7,-0.676097,-2.74535,0.584112,0.192207,-0.538022,0.0450687,0.197276,-0.552222,0.0462346,0.0420556,0.687114,5,0.1,2,0.7,2.05598,-2.87292,0.551325,-0.697231,-0.306089,0.0258215,-0.790067,-0.314251,0.0265017,0.0292704,1.48361,5,0.1,3,0.7,1.7681,2.84077,0.501734,-0.823871,-0.367745,-0.00699824,-0.587203,-0.476465,0.0141226,0.0117644,2.25534,5,0.1,4,0.7,-3.37152,-3.26361,0.569239,0.572447,0.0798393,0.00931527,-0.79371,0.0919551,0.0107139,0.0492683,3.09449,5,0.1,5,0.7,3.97792,-0.187993,0.567913,-0.191898,0.847763,0.00907686,-0.221878,0.40845,0.010483,0.0236425,2.31383,5,0.1,6,0.7,1.82918,-0.211085,0.61196,-0.738591,-0.551189,-0.00415007,-0.854023,-0.637312,-0.00480935,0.0160064,2.21916,5,0.1,7,0.7,-1.42692,2.79587,0.503582,0.199926,0.665211,-0.0129663,0.205189,0.682756,0.020545,0.0188046,1.01183,5,0.1,8,0.7,3.98819,4.06009,0.623542,-0.704401,-0.59261,-0.0115376,-0.801608,-0.674456,-0.0131354,0.0211939,2.13105,5,0.1,9,0.7,3.69454,-3.43864,0.529991,-0.0386056,0.850422,0.0110502,-0.0445694,0.362858,0.0127517,0.0287351,2.33405,5,0.1,10,0.7,-1.25474,-1.87368,0.643445,0.393268,0.814672,-0.0178986,0.454679,0.636026,-0.0206791,0.0471931,2.24574,5,0.1,11,0.7,-1.10235,-1.20303,0.570224,0.291841,0.843674,0.00787955,0.337437,0.477336,0.00910461,0.0306065,2.28797,5,0.1,12,0.7,0.517964,2.50911,0.614106,-0.0360562,-0.327644,-0.00748858,-0.0370145,0.274107,-0.00769645,0.0123302,0.563266,5,0.1,13,0.7,0.0777041,2.84296,0.616894,0.293512,-0.748051,-0.00884794,-0.0649308,-0.567168,-0.00841171,0.0135929,1.66165,5,0.1,14,0.7,-3.06636,3.1712,0.660539,0.76084,-0.518088,-0.0228753,0.862867,-0.599012,-0.0264347,0.00957543,2.21926,5,0.1,15,0.7,1.41382,1.39232,0.511067,-0.493145,0.216237,-0.0280466,-0.213489,0.221916,0.00587851,0.0161183,0.678895,5,0.1,16,0.7,-1.68918,3.28044,0.702786,-0.0587832,-0.626129,0.0250475,-0.0603348,-0.642642,0.0256971,0.0146864,0.828639,5,0.1,17,0.7,0.341873,-4.21631,0.549234,-0.846698,0.225029,0.0124671,-0.426714,0.260025,0.014428,0.0125644,2.30624,5,0.1,18,0.7,3.4456,-2.00221,0.52892,0.0220705,0.850509,0.00219634,0.0254363,0.361383,0.00253692,0.00949568,2.33473,5,0.1,19,0.7,4.0688,-1.39876,0.563338,-0.158814,0.848646,0.00756904,-0.183523,0.393324,0.00875443,0.0213964,2.32034,5,0.1
0,0.8,0.731203,3.46628,0.571907,-0.170609,-0.828922,0.0170469,-0.0851154,-0.413418,0.00852346,0.0216779,0.910078,5,0.1,1,0.8,-0.656024,-2.80154,0.588818,0.207675,-0.581318,0.048694,0.103593,-0.290036,0.0242889,0.00880242,0.485142,5,0.1,2,0.8,1.98273,-2.90489,0.554022,-0.762582,-0.330728,0.0278994,-0.478745,-0.164866,0.0139177,0.00889727,1.07395,5,0.1,3,0.8,1.68356,2.8018,0.501109,-0.859398,-0.409132,-0.00547767,-0.132561,-0.326276,0.0158548,0.0111123,2.14504,5,0.1,4,0.8,-3.31878,-3.25522,0.570218,0.478208,0.0873983,0.0101939,-1.03509,0.0548363,0.0064373,0.0492413,3.33479,5,0.1,5,0.8,3.95774,-0.101961,0.568867,-0.210166,0.866025,0.00994056,-0.133276,1.19209e-06,0.00628829,0.021395,2.23817,5,0.1,6,0.8,1.75152,-0.269041,0.611523,-0.808924,-0.603672,-0.00454485,-0.512898,-0.382781,-0.00292063,0.0151743,2.05045,5,0.1,7,0.8,-1.40604,2.86534,0.502399,0.216013,0.718743,-0.0106037,0.107706,0.358462,0.0258684,0.0169842,0.715129,5,0.1,8,0.8,3.9142,3.99784,0.62233,-0.769883,-0.647706,-0.0126094,-0.471473,-0.396729,-0.0077486,0.0176469,1.53637,5,0.1,9,0.8,3.69048,-3.35251,0.531153,-0.0422776,0.866026,0.0121012,-0.0267029,0,0.00762939,0.0288595,2.27043,5,0.1,10,0.8,-1.21339,-1.78977,0.641563,0.430712,0.856224,-0.0196025,0.273108,0.19604,-0.0123978,0.0510151,2.14146,5,0.1,11,0.8,-1.07167,-1.11714,0.571052,0.319627,0.866026,0.00862926,0.202715,0,0.00545382,0.0232039,2.19538,5,0.1,12,0.8,0.514198,2.47808,0.613324,-0.0389576,-0.289816,-0.00809282,-0.0194311,0.456095,-0.00402331,0.00948769,0.520194,5,0.1,13,0.8,0.106358,2.7659,0.615974,0.276157,-0.786823,-0.00948608,-0.269517,-0.186682,-0.00399351,0.0183626,1.25528,5,0.1,14,0.8,-2.98645,3.11672,0.658134,0.831211,-0.567418,-0.0250518,0.505924,-0.359893,-0.0158846,0.0256118,2.07205,5,0.1,15,0.8,1.36401,1.4149,0.508334,-0.49749,0.233635,-0.0262439,0.116348,0.116527,0.0285506,0.0134958,0.552315,5,0.1,16,0.8,-1.69532,3.21505,0.705402,-0.0635117,-0.676507,0.0270635,-0.0317693,-0.337601,0.0134706,0.0121997,0.585062,5,0.1,17,0.8,0.25588,-4.19265,0.550545,-0.866025,0.246441,0.0136539,0,0.156164,0.00870228,0.0186173,2.2257,5,0.1,18,0.8,3.44792,-1.91608,0.529151,0.0241637,0.866026,0.00240654,0.0152588,0,0.00149012,0.0197121,2.27147,5,0.1,19,0.8,4.0521,-1.3127,0.564134,-0.173914,0.866026,0.00829101,-0.110388,0,0.00524521,0.0313287,2.24869,5,0.1
0,0.9,0.713736,3.38171,0.573653,-0.178322,-0.858149,0.0178188,-0.0609644,-0.164345,0.00609457,0.0216779,0.910078,5,0.1,1,0.9,-0.634763,-2.86106,0.593804,0.217062,-0.607599,0.050895,0.0741966,-0.207752,0.0174008,0.00880242,0.485142,5,0.1,2,0.9,1.90411,-2.93875,0.556878,-0.808503,-0.345668,0.0291602,-0.396386,-0.118092,0.00996515,0.00889727,1.07395,5,0.1,3,0.9,1.59721,2.75915,0.500641,-0.865611,-0.443949,-0.0039055,-0.0165701,-0.337422,0.0152402,0.0111123,2.14504,5,0.1,4,0.9,-3.27649,-3.24627,0.571271,0.366556,0.0910826,0.0108455,-1.10666,0.0174046,0.00594184,0.0492413,3.33479,5,0.1,5,0.9,3.93603,-0.0153584,0.569894,-0.223926,0.866025,0.0105906,-0.127792,1.49012e-07,0.00604242,0.021395,2.23817,5,0.1,6,0.9,1.66836,-0.331403,0.611053,-0.85073,-0.643331,-0.00484651,-0.300035,-0.369513,-0.00280514,0.0151743,2.05045,5,0.1,7,0.9,-1.38392,2.93892,0.501471,0.225773,0.751225,-0.00794958,0.0771508,0.256777,0.0265688,0.0169842,0.715129,5,0.1,8,0.9,3.83491,3.93113,0.621031,-0.814371,-0.685144,-0.0133397,-0.376508,-0.316858,-0.00617653,0.0176469,1.53637,5,0.1,9,0.9,3.68611,-3.26591,0.532403,-0.0450399,0.866026,0.0128909,-0.0256747,0,0.00735,0.0288595,2.27043,5,0.1,10,0.9,-1.1689,-1.70354,0.639538,0.458962,0.865413,-0.0208854,0.262804,0.024505,-0.0119396,0.0510151,2.14146,5,0.1,11,0.9,-1.03865,-1.03054,0.571943,0.340591,0.866026,0.00919411,0.194997,-3.72529e-06,0.00525638,0.0232039,2.19538,5,0.1,12,0.9,0.51021,2.45165,0.612496,-0.0407179,-0.237259,-0.00845706,-0.0139065,0.552014,-0.0028722,0.00948769,0.520194,5,0.1,13,0.9,0.13263,2.68614,0.615006,0.249241,-0.808594,-0.00984445,-0.271856,-0.202596,-0.00273436,0.0183626,1.25528,5,0.1,14,0.9,-2.90151,3.0581,0.655546,0.86147,-0.604701,-0.0266976,0.134632,-0.347331,-0.015337,0.0256118,2.07205,5,0.1,15,0.9,1.31557,1.43882,0.50588,-0.465665,0.244195,-0.0225809,0.467747,0.0834689,0.0430755,0.0134958,0.552315,5,0.1,16,0.9,-1.70182,3.14579,0.708172,-0.0663897,-0.707097,0.0282841,-0.0227466,-0.241816,0.0096485,0.0121997,0.585062,5,0.1,17,0.9,0.169277,-4.16719,0.551956,-0.866025,0.262582,0.0145522,-1.19209e-06,0.150084,0.00834092,0.0186173,2.2257,5,0.1,18,0.9,3.45042,-1.82948,0.529399,0.0257418,0.866026,0.0025617,0.0146925,0,0.00144541,0.0197121,2.27147,5,0.1,19,0.9,4.03413,-1.2261,0.56499,-0.185318,0.866026,0.00883341,-0.105977,0,0.00504404,0.0313287,2.24869,5,0.1
0,1,0.695694,3.29551,0.575456,-0.181444,-0.861788,0.0181317,0.00393391,0.0846386,-0.00038743,0.0138393,2.2895,5,0.1,1,1,-0.612801,-2.92253,0.598953,0.220862,-0.618243,0.051786,-0.00479817,0.0133514,-0.00110269,0.0101804,0.329912,5,0.1,2,1,1.8217,-2.97372,0.559828,-0.834611,-0.351715,0.0296712,-0.0964999,0.00762939,-0.000685453,0.0175463,0.977748,5,0.1,3,1,1.51062,2.71327,0.500323,-0.866026,-0.471061,-0.00248551,5.96046e-05,-0.182152,0.0129044,0.0136304,2.04135,5,0.1,4,1,-3.24492,-3.23714,0.57238,0.27054,0.0906646,0.0112712,-0.768423,-0.026226,0.00214577,0.0507784,3.36454,5,0.1,5,1,3.9131,0.0712441,0.570978,-0.23334,0.866025,0.0110358,-0.0506639,0,0.00241399,0.0212988,2.23474,5,0.1,6,1,1.58227,-0.397288,0.610557,-0.866026,-0.670658,-0.00505298,0,-0.148758,-0.00116229,0.0144045,2.16798,5,0.1,7,1,-1.36108,3.01493,0.500805,0.229722,0.76437,-0.00540018,-0.00494719,-0.0164509,0.0239313,0.01557,0.48712,5,0.1,8,1,3.75203,3.8614,0.619674,-0.838202,-0.7052,-0.0137299,-0.0720024,-0.0607967,-0.00119209,0.0184757,1.06215,5,0.1,9,1,3.6815,-3.17931,0.533723,-0.0469327,0.866026,0.0134334,-0.010252,0,0.00292063,0.0271771,2.27027,5,0.1,10,1,-1.1219,-1.61695,0.6374,0.47836,0.866026,-0.0217661,0.104964,0,-0.00476837,0.0443657,1.98776,5,0.1,11,1,-1.00377,-0.943939,0.572885,0.354981,0.866026,0.00958294,0.0778735,0,0.00208616,0.0274343,2.18053,5,0.1,12,1,0.50609,2.43057,0.61164,-0.0414312,-0.186026,-0.00860393,0.000953674,0.449538,0.000208616,0.0131575,0.479309,5,0.1,13,1,0.156171,2.60455,0.614013,0.221305,-0.81954,-0.00995994,-0.288598,0.0158548,0.000685453,0.0127025,0.454772,5,0.1,14,1,-2.81502,2.99618,0.652812,0.866026,-0.630385,-0.0278309,0,-0.139832,-0.00619888,0.0100748,2.02135,5,0.1,15,1,1.27158,1.46353,0.50385,-0.412399,0.248471,-0.0179246,0.56541,-0.00536442,0.048697,0.0211135,0.458014,5,0.1,16,1,-1.70854,3.07425,0.711034,-0.0675529,-0.719482,0.0287786,0.00137091,0.0156164,-0.000655651,0.009792,0.397853,5,0.1,17,1,0.0826747,-4.14031,0.553446,-0.866026,0.273645,0.0151679,5.96046e-06,0.0596046,0.00330806,0.0227008,2.22086,5,0.1,18,1,3.45305,-1.74288,0.529662,0.0268221,0.866026,0.0026688,0.00596046,-5.96046e-05,0.000566244,0.0130088,2.27142,5,0.1,19,1,4.01516,-1.1395,0.565895,-0.193131,0.866026,0.00920594,-0.0422001,-5.96046e-05,0.00199676,0.0253482,2.24627,5,0.1
0,1.1,0.677075,3.20944,0.577257,-0.194892,-0.861467,0.017798,-0.234608,-0.0264645,-0.00638887,0.0138393,2.2895,5,0.1,1,1.1,-0.590748,-2.98426,0.604124,0.219891,-0.615533,0.0515603,-0.0226982,0.0634789,-0.00530109,0.0101804,0.329912,5,0.1,2,1.1,1.73779,-3.00884,0.562791,-0.842473,-0.350171,0.0295374,-0.0263453,0.0361204,-0.00308082,0.0175463,0.977748,5,0.1,3,1.1,1.42401,2.66528,0.500133,-0.866025,-0.487815,-0.0013615,-1.49012e-05,-0.13043,0.00951812,0.0136304,2.04135,5,0.1,4,1.1,-3.22116,-3.22833,0.573519,0.213134,0.0845429,0.0115127,-0.277609,-0.0914186,0.00208244,0.0507784,3.36454,5,0.1,5,1.1,3.88947,0.157847,0.572096,-0.239472,0.866025,0.0113276,-0.0580996,8.9407e-07,0.00276789,0.0212988,2.23474,5,0.1,6,1.1,1.49674,-0.465249,0.610045,-0.834914,-0.68904,-0.00519445,0.579134,-0.177976,-0.00135973,0.0144045,2.16798,5,0.1,7,1.1,-1.33814,3.09125,0.500377,0.228716,0.761023,-0.00324491,-0.0235811,-0.0784397,0.0189766,0.01557,0.48712,5,0.1,8,1.1,3.66788,3.7906,0.618295,-0.843588,-0.709752,-0.0138187,-0.00202656,-0.00189245,-3.35276e-05,0.0184757,1.06215,5,0.1,9,1.1,3.67675,-3.0927,0.535084,-0.0481844,0.866026,0.013791,-0.0119805,0,0.00342727,0.0271771,2.27027,5,0.1,10,1.1,-1.07346,-1.53035,0.635196,0.490477,0.865996,-0.0223169,0.110187,-0.00117719,-0.00500679,0.0443657,1.98776,5,0.1,11,1.1,-0.967718,-0.857337,0.573852,0.367104,0.866026,0.00973204,0.137452,-3.72529e-06,0.000555068,0.0274343,2.18053,5,0.1,12,1.1,0.501954,2.41402,0.610781,-0.0412446,-0.148349,-0.00856426,0.00429712,0.261784,0.00090152,0.0131575,0.479309,5,0.1,13,1.1,0.177207,2.52293,0.61302,0.202318,-0.809859,-0.00989474,-0.113123,0.192434,0.00102073,0.0127025,0.454772,5,0.1,14,1.1,-2.72843,2.93227,0.649996,0.865806,-0.648451,-0.0284628,-0.00877678,-0.181288,-0.00504032,0.0100748,2.02135,5,0.1,15,1.1,1.23326,1.48834,0.502301,-0.354983,0.247382,-0.0130831,0.522003,-0.0255033,0.0471883,0.0211135,0.458014,5,0.1,16,1.1,-1.71528,3.00241,0.713907,-0.0672631,-0.71632,0.0286498,0.00689924,0.0739396,-0.00297651,0.009792,0.397853,5,0.1,17,1.1,-0.00392782,-4.11259,0.554983,-0.866025,0.280897,0.0155699,1.49012e-07,0.069052,0.0038296,0.0227008,2.22086,5,0.1,18,1.1,3.45577,-1.65627,0.529932,0.027547,0.866025,0.00273921,0.00691414,1.49012e-05,0.000678003,0.0130088,2.27142,5,0.1,19,1.1,3.99559,-1.05289,0.566827,-0.198266,0.866025,0.00944976,-0.0489503,1.11759e-05,0.00233203,0.0253482,2.24627,5,0.1
0,1.2,0.656278,3.12332,0.578995,-0.221638,-0.858247,0.0168458,-0.271291,0.127673,-0.012666,0.014444,2.32882,5,0.1,1,1.2,-0.568955,-3.04527,0.609234,0.214984,-0.601798,0.0504106,-0.0807643,0.22614,-0.0189543,0.0124878,0.219374,5,0.1,2,1.2,1.65375,-3.04354,0.565718,-0.834164,-0.342351,0.0288755,0.215352,0.128508,-0.010848,0.00760191,0.864149,5,0.1,3,1.2,1.33741,2.61608,0.500039,-0.866026,-0.493389,-0.000585616,0,0.0338554,0.00602007,0.0112296,1.61607,5,0.1,4,1.2,-3.2,-3.2204,0.574677,0.221807,0.073266,0.0115842,0.417113,-0.129938,-0.00101328,0.0410745,1.64021,5,0.1,5,1.2,3.86531,0.244449,0.573239,-0.242615,0.866025,0.0114784,0.00488758,1.43051e-05,-0.000208616,0.0149569,2.23415,5,0.1,6,1.2,1.41681,-0.534817,0.60952,-0.757918,-0.699313,-0.00527352,0.926495,0.00104308,0,0.0109676,2.36489,5,0.1,7,1.2,-1.31548,3.16668,0.500138,0.223613,0.744045,-0.00163019,-0.0839233,-0.279427,0.0132322,0.0126068,0.324741,5,0.1,8,1.2,3.58385,3.71991,0.616919,-0.833011,-0.700873,-0.013645,0.235915,0.198483,0.0038743,0.0162328,0.774318,5,0.1,9,1.2,3.67188,-3.0061,0.536475,-0.048852,0.866026,0.0139803,0.000596046,0,-0.000149012,0.0231988,2.27023,5,0.1,10,1.2,-1.02404,-1.44377,0.632947,0.495803,0.865555,-0.0225589,-0.0224411,-0.00941753,0.00101328,0.044797,1.50763,5,0.1,11,1.2,-0.930405,-0.770734,0.574823,0.377823,0.866026,0.00963807,0.0575483,0,-0.0026226,0.0182833,2.17661,5,0.1,12,1.2,0.497866,2.4,0.609932,-0.0403211,-0.136721,-0.00836998,0.0151843,-0.017643,0.00312924,0.0082814,0.412,5,0.1,13,1.2,0.197014,2.4433,0.612039,0.194806,-0.778741,-0.00968724,-0.0538677,0.438333,0.00336766,0.00742757,0.871186,5,0.1,14,1.2,-2.64196,2.86672,0.647136,0.862509,-0.659806,-0.0286028,-0.0700951,-0.0177622,0.00318885,0.00905626,2.01334,5,0.1,15,1.2,1.2,1.51286,0.50122,-0.313896,0.241861,-0.00864565,0.3016,-0.0907779,0.0409186,0.0136795,0.373418,5,0.1,16,1.2,-1.72195,2.93142,0.716747,-0.0657678,-0.700331,0.0280082,0.0247359,0.263095,-0.0105202,0.014506,0.264549,5,0.1,17,1.2,-0.0905304,-4.08424,0.556553,-0.866025,0.284696,0.0157788,0,-0.00476837,-0.000238419,0.0103944,2.21983,5,0.1,18,1.2,3.45855,-1.56967,0.530208,0.0279307,0.866026,0.00277758,-0.000357628,-5.96046e-05,-2.98023e-05,0.019314,2.27141,5,0.1,19,1.2,3.97559,-0.96629,0.567781,-0.200963,0.866026,0.00957698,0.00309944,0,-0.000119209,0.0180828,2.24573,5,0.1
0,1.3,0.632502,3.03828,0.580609,-0.255597,-0.840503,0.0153715,-0.374597,0.248268,-0.0166595,0.014444,2.32882,5,0.1,1,1.3,-0.547852,-3.10434,0.614182,0.207,-0.579444,0.0485374,-0.085596,0.23964,-0.0200793,0.0124878,0.219374,5,0.1,2,1.3,1.57246,-3.07715,0.568553,-0.782336,-0.329646,0.0278032,0.782177,0.136226,-0.0114925,0.00760191,0.864149,5,0.1,3,1.3,1.25083,2.5676,0.500005,-0.865267,-0.470079,-0.00014184,0.0292212,0.407815,0.00303611,0.0112296,1.61607,5,0.1,4,1.3,-3.17647,-3.21376,0.57584,0.242103,0.0592545,0.0117592,0.0136048,-0.146806,0.00343844,0.0410745,1.64021,5,0.1,5,1.3,3.84101,0.331052,0.574389,-0.243753,0.866025,0.0115343,-0.0139475,-1.78814e-06,0.000674278,0.0149569,2.23415,5,0.1,6,1.3,1.34633,-0.605043,0.608992,-0.647091,-0.706987,-0.00530146,1.20709,-0.107739,-0.000275671,0.0109676,2.36489,5,0.1,7,1.3,-1.29353,3.23971,0.500032,0.215315,0.71642,-0.000597443,-0.0889823,-0.29619,0.00763312,0.0126068,0.324741,5,0.1,8,1.3,3.50246,3.65079,0.615573,-0.788035,-0.681056,-0.0132577,0.642866,0.221148,0.00432134,0.0162328,0.774318,5,0.1,9,1.3,3.66699,-2.9195,0.537877,-0.0491437,0.866026,0.0140657,-0.00362098,0,0.00104681,0.0231988,2.27023,5,0.1,10,1.3,-0.974526,-1.35722,0.630694,0.494268,0.865489,-0.0224898,-0.0300445,-0.00498444,0.00135601,0.044797,1.50763,5,0.1,11,1.3,-0.892235,-0.684132,0.575776,0.385968,0.866026,0.0094248,0.0822358,-3.72529e-06,-0.00207871,0.0182833,2.17661,5,0.1,12,1.3,0.494014,2.38577,0.60911,-0.0358108,-0.15169,-0.00806591,0.0695866,-0.246048,0.00322238,0.0082814,0.412,5,0.1,13,1.3,0.214985,2.36886,0.611109,0.15406,-0.699214,-0.00872202,-0.688462,1.09127,0.0148341,0.00742757,0.871186,5,0.1,14,1.3,-2.55577,2.80044,0.644285,0.862963,-0.666879,-0.028442,0.0385046,-0.0834912,0.00148267,0.00905626,2.01334,5,0.1,15,1.3,1.16958,1.5366,0.500545,-0.298997,0.232885,-0.00502234,0.0338256,-0.0962391,0.0313409,0.0136795,0.373418,5,0.1,16,1.3,-1.7284,2.86267,0.719496,-0.0633223,-0.674323,0.0269683,0.0262186,0.278845,-0.0111535,0.014506,0.264549,5,0.1,17,1.3,-0.177133,-4.05572,0.558134,-0.866025,0.286198,0.0158639,-8.9407e-07,0.0185966,0.00103936,0.0103944,2.21983,5,0.1,18,1.3,3.46135,-1.48307,0.530487,0.0280969,0.866025,0.00279509,0.00205636,1.49012e-05,0.000216067,0.019314,2.27141,5,0.1,19,1.3,3.95545,-0.879687,0.568741,-0.202067,0.866026,0.00963211,-0.0136346,-3.72529e-06,0.000678003,0.0180828,2.24573,5,0.1
0,1.4,0.605123,2.95581,0.582057,-0.290802,-0.805199,0.0135466,-0.305206,0.470519,-0.0196695,0.01258,2.42441,5,0.1,1,1.4,-0.527632,-3.16094,0.618923,0.196753,-0.550765,0.046134,-0.12368,0.346422,-0.0290275,0.0115002,0.144399,5,0.1,2,1.4,1.4988,-3.10935,0.571268,-0.684994,-0.313336,0.0264272,1.13118,0.196934,-0.0166297,0.0101215,0.79649,5,0.1,3,1.4,1.16467,2.52308,0.500002,-0.854787,-0.416398,5.51343e-05,0.220358,0.644445,0.00107288,0.0149208,1.21861,5,0.1,4,1.4,-3.15269,-3.20858,0.577033,0.22912,0.0445247,0.0120863,-0.252008,-0.145078,0.00235438,0.0344756,0.303485,5,0.1,5,1.4,3.81662,0.417654,0.575543,-0.243074,0.866025,0.0115052,0.0369549,1.43051e-05,-0.00178814,0.0156225,2.23517,5,0.1,6,1.4,1.28759,-0.676145,0.608462,-0.52948,-0.712855,-0.00527948,1.09822,0.0236332,0.00089407,0.0113569,2.41487,5,0.1,7,1.4,-1.27249,3.30969,0.500002,0.204661,0.680965,-5.81145e-05,-0.128627,-0.428081,0.00339746,0.0110722,0.214595,5,0.1,8,1.4,3.4274,3.58398,0.614273,-0.708419,-0.652778,-0.0127062,0.93019,0.359774,0.00703335,0.0222038,0.626238,5,0.1,9,1.4,3.66207,-2.8329,0.539285,-0.0490904,0.866026,0.0140533,0.00655651,0,-0.00187755,0.023909,2.27026,5,0.1,10,1.4,-0.925407,-1.27079,0.628459,0.486137,0.861675,-0.0221193,-0.147402,-0.0869036,0.00667572,0.0358592,1.11124,5,0.1,11,1.4,-0.853341,-0.597529,0.576706,0.39034,0.866026,0.00914931,-0.0109375,0,-0.00369549,0.0212214,2.17482,5,0.1,12,1.4,0.490834,2.36923,0.608322,-0.0273846,-0.179648,-0.00768155,0.0945628,-0.286102,0.00470877,0.0152782,0.347076,5,0.1,13,1.4,0.226395,2.30505,0.610322,0.0700779,-0.571555,-0.0069201,-0.934102,1.41215,0.0203252,0.00618062,0.36595,5,0.1,14,1.4,-2.46936,2.73349,0.641455,0.863868,-0.669658,-0.0280604,-0.0431538,0.0561476,0.00721216,0.0119523,1.39798,5,0.1,15,1.4,1.13966,1.55935,0.500182,-0.300542,0.221363,-0.00239611,-0.036478,-0.139177,0.0211298,0.0169491,0.287868,5,0.1,16,1.4,-1.73459,2.7968,0.72213,-0.0601858,-0.640947,0.0256345,0.0379086,0.403047,-0.0161231,0.00871133,0.17413,5,0.1,17,1.4,-0.263735,-4.02708,0.559722,-0.866025,0.285637,0.0158325,-1.43051e-05,-0.041008,-0.00226498,0.0153253,2.22091,5,0.1,18,1.4,3.46416,-1.39647,0.530767,0.0280678,0.866026,0.00279397,-0.00369549,-5.96046e-05,-0.00038743,0.0123021,2.27141,5,0.1,19,1.4,3.93523,-0.793085,0.569705,-0.201732,0.866026,0.00961721,0.028491,0,-0.0013113,0.0232195,2.24622,5,0.1
0,1.5,0.574165,2.87761,0.583313,-0.330765,-0.758657,0.0115696,-0.450961,0.480309,-0.0197887,0.01258,2.42441,5,0.1,1,1.5,-0.508552,-3.21435,0.623397,0.184955,-0.517722,0.0433655,-0.117876,0.330061,-0.0276566,0.0115002,0.144399,5,0.1,2,1.5,1.43635,-3.13974,0.573831,-0.561019,-0.294549,0.0248413,1.31534,0.187695,-0.0158437,0.0101215,0.79649,5,0.1,3,1.5,1.08064,2.48492,0.500012,-0.822142,-0.344579,0.000111666,0.437953,0.772029,0.000130385,0.0149208,1.21861,5,0.1,4,1.5,-3.13134,-3.20483,0.578258,0.195154,0.0307027,0.0124343,-0.40938,-0.129417,0.00376254,0.0344756,0.303485,5,0.1,5,1.5,3.79242,0.504257,0.576688,-0.24139,0.866025,0.0114227,0.0102669,1.78814e-06,-0.000506639,0.0156225,2.23517,5,0.1,6,1.5,1.23991,-0.747454,0.607937,-0.429364,-0.713781,-0.00523413,0.799775,-0.0055097,0.000309199,0.0113569,2.41487,5,0.1,7,1.5,-1.25265,3.37573,0.500009,0.192391,0.640129,0.000156462,-0.122599,-0.407994,0.00106543,0.0110722,0.214595,5,0.1,8,1.5,3.36174,3.52044,0.613036,-0.60026,-0.618326,-0.012033,1.19148,0.348628,0.00681356,0.0222038,0.626238,5,0.1,9,1.5,3.65717,-2.74629,0.540686,-0.0488728,0.866026,0.0139912,0.000625849,0,-0.000175089,0.023909,2.27026,5,0.1,10,1.5,-0.877486,-1.18478,0.626279,0.47228,0.86006,-0.0214913,-0.147477,0.00530481,0.00669435,0.0358592,1.11124,5,0.1,11,1.5,-0.814239,-0.510927,0.577606,0.392335,0.866026,0.00886247,0.0278354,-3.57628e-06,-0.00249594,0.0212214,2.17482,5,0.1,12,1.5,0.488654,2.34956,0.607576,-0.0155509,-0.215738,-0.00722958,0.134936,-0.402272,0.00454858,0.0152782,0.347076,5,0.1,13,1.5,0.228441,2.25469,0.609735,-0.0309263,-0.438548,-0.00479361,-1.04159,1.24481,0.0216328,0.00618062,0.36595,5,0.1,14,1.5,-2.38355,2.66738,0.63863,0.848594,-0.647172,-0.0288902,-0.273049,0.382558,-0.0194088,0.0119523,1.39798,5,0.1,15,1.5,1.10917,1.58081,0.500032,-0.310975,0.208086,-0.000765268,-0.14326,-0.132643,0.0117682,0.0169491,0.287868,5,0.1,16,1.5,-1.74043,2.73465,0.724616,-0.0565706,-0.602501,0.0240966,0.036113,0.384063,-0.0153668,0.00871133,0.17413,5,0.1,17,1.5,-0.350338,-3.99862,0.561299,-0.866025,0.283988,0.0157413,1.78814e-06,-0.00818074,-0.000458211,0.0153253,2.22091,5,0.1,18,1.5,3.46696,-1.30986,0.531045,0.0279497,0.866025,0.00278084,-0.000312924,1.49012e-05,-3.35276e-05,0.0123021,2.27141,5,0.1,19,1.5,3.91513,-0.706482,0.570663,-0.200647,0.866026,0.00956943,0.00475347,-3.72529e-06,-0.00019744,0.0232195,2.24622,5,0.1
0,1.6,0.538884,2.80429,0.584372,-0.37353,-0.705838,0.00960529,-0.372767,0.588894,-0.0194013,0.0103737,2.32692,5,0.1,1,1.6,-0.490673,-3.2644,0.627589,0.172246,-0.482136,0.0403836,-0.140086,0.392199,-0.0328422,0.012786,0.0949115,5,0.1,2,1.6,1.3869,-3.16821,0.576232,-0.427815,-0.274312,0.0231341,1.32298,0.22316,-0.0188351,0.00844514,0.776915,5,0.1,3,1.6,1.001,2.4544,0.500022,-0.766562,-0.265563,9.38773e-05,0.674456,0.792503,-0.000357628,0.00895891,0.937795,5,0.1,4,1.6,-3.11401,-3.20237,0.579517,0.150478,0.0189602,0.0126973,-0.469923,-0.104189,0.000923872,0.0432086,0.326812,5,0.1,5,1.6,3.76838,0.590859,0.577826,-0.238711,0.866026,0.0112951,0.0526905,0,-0.0025332,0.0183169,2.23695,5,0.1,6,1.6,1.2,-0.818662,0.607416,-0.378388,-0.707753,-0.00516772,0.235319,0.151426,0.00119209,0.00978558,1.97079,5,0.1,7,1.6,-1.23405,3.43761,0.500027,0.179172,0.596142,0.000184774,-0.145733,-0.484824,-0.000298023,0.0141704,0.189734,5,0.1,8,1.6,3.30783,3.46046,0.611869,-0.477368,-0.579822,-0.0112817,1.23537,0.434518,0.00849366,0.0143866,0.537638,5,0.1,9,1.6,3.6523,-2.65969,0.542081,-0.0484824,0.866026,0.0138789,0.00917912,0,-0.0026226,0.019724,2.27031,5,0.1,10,1.6,-0.831113,-1.09893,0.624168,0.453672,0.854334,-0.020647,-0.23669,-0.154614,0.0107884,0.0493003,0.790818,5,0.1,11,1.6,-0.774957,-0.424324,0.578478,0.391993,0.866025,0.00857413,-0.0509024,1.43051e-05,-0.00357628,0.0156981,2.17352,5,0.1,12,1.6,0.487791,2.32601,0.606877,-0.00166371,-0.254303,-0.00673681,0.137314,-0.344515,0.00545382,0.0153775,0.271344,5,0.1,13,1.6,0.220264,2.21676,0.609362,-0.130535,-0.323093,-0.00269413,-0.917926,1.06227,0.019908,0.0061779,0.2529,5,0.1,14,1.6,-2.3005,2.60503,0.63563,0.807726,-0.595391,-0.0311717,-0.549078,0.641465,-0.0228882,0.0104757,1.26863,5,0.1,15,1.6,1.07738,1.60093,0.500001,-0.32419,0.193787,3.42727e-05,-0.0998378,-0.157654,0.00470877,0.0184338,0.216256,5,0.1,16,1.6,-1.74589,2.67641,0.726945,-0.0526756,-0.561088,0.0224397,0.0427961,0.456214,-0.0182092,0.0118798,0.114523,5,0.1,17,1.6,-0.436941,-3.97032,0.562868,-0.866025,0.281245,0.0155881,-1.43051e-05,-0.0580549,-0.00321865,0.0121917,2.22296,5,0.1,18,1.6,3.46975,-1.22326,0.531322,0.0277281,0.866026,0.0027582,-0.005126,-5.96046e-05,-0.000506639,0.0172718,2.27143,5,0.1,19,1.6,3.89512,-0.61988,0.571618,-0.198817,0.866026,0.00948459,0.0399351,0,-0.00190735,0.0170332,2.24716,5,0.1
0,1.7,0.500005,2.73617,0.585241,-0.400538,-0.660423,0.00783382,-0.162421,0.360206,-0.0161864,0.0103737,2.32692,5,0.1,1,1.7,-0.474115,-3.31074,0.631471,0.159114,-0.445371,0.0373049,-0.127269,0.356287,-0.0298321,0.012786,0.0949115,5,0.1,2,1.7,1.35061,-3.19458,0.578456,-0.299767,-0.253393,0.0213685,1.21434,0.20273,-0.0171028,0.00844514,0.776915,5,0.1,3,1.7,0.927519,2.43184,0.50003,-0.704575,-0.185842,5.28991e-05,0.588045,0.786513,-0.000447035,0.00895891,0.937795,5,0.1,4,1.7,-3.10157,-3.20094,0.580805,0.0965051,0.0100125,0.0131594,-0.585049,-0.0743717,0.00692159,0.0432086,0.326812,5,0.1,5,1.7,3.74469,0.677462,0.578947,-0.235663,0.866026,0.0111479,0.0215769,-3.72529e-06,-0.00104308,0.0183169,2.23695,5,0.1,6,1.7,1.16216,-0.888773,0.606904,-0.388159,-0.694638,-0.00507263,-0.348322,0.140369,0.000942498,0.00978558,1.97079,5,0.1,7,1.7,-1.21667,3.49491,0.500044,0.169955,0.550691,0.000132155,-0.0533834,-0.440493,-0.000696629,0.0141704,0.189734,5,0.1,8,1.7,3.26624,3.40455,0.610781,-0.355591,-0.538963,-0.0104832,1.1611,0.398889,0.00778958,0.0143866,0.537638,5,0.1,9,1.7,3.64748,-2.57309,0.543462,-0.0480536,0.866026,0.0137566,0.00225008,0,-0.00064075,0.019724,2.27031,5,0.1,10,1.7,-0.786871,-1.01411,0.622155,0.431398,0.842623,-0.019632,-0.223406,-0.11903,0.0101812,0.0493003,0.790818,5,0.1,11,1.7,-0.735842,-0.337722,0.579322,0.391356,0.866025,0.00832928,0.0133589,-1.78814e-06,-0.00181422,0.0156981,2.17352,5,0.1,12,1.7,0.488238,2.29878,0.60623,0.00989353,-0.290502,-0.00622384,0.0943094,-0.353768,0.00498444,0.0153775,0.271344,5,0.1,13,1.7,0.202735,2.18917,0.60919,-0.218224,-0.234111,-0.000795443,-0.809615,0.735208,0.0177361,0.0061779,0.2529,5,0.1,14,1.7,-2.2231,2.54919,0.632275,0.734762,-0.517215,-0.0369019,-0.886485,0.895336,-0.0820123,0.0104757,1.26863,5,0.1,15,1.7,1.04435,1.61956,0.500022,-0.336741,0.179008,0.000314973,-0.128567,-0.143223,0.00117719,0.0184338,0.216256,5,0.1,16,1.7,-1.75094,2.62248,0.729105,-0.0480304,-0.517933,0.0208146,0.0501499,0.421375,-0.0150912,0.0118798,0.114523,5,0.1,17,1.7,-0.523543,-3.94238,0.564417,-0.866026,0.278153,0.0154162,1.93715e-06,-0.0198185,-0.00111014,0.0121917,2.22296,5,0.1,18,1.7,3.47251,-1.13666,0.531597,0.0274941,0.866025,0.00273539,-0.00119209,1.49012e-05,-0.000108033,0.0172718,2.27143,5,0.1,19,1.7,3.87537,-0.533277,0.57256,-0.196783,0.866026,0.00938727,0.012219,-3.57628e-06,-0.000584871,0.0170332,2.24716,5,0.1
0,1.8,0.459518,2.67183,0.585948,-0.405381,-0.626743,0.00634044,0.066936,0.343561,-0.0137985,0.01371,2.046,5,0.1,1,1.8,-0.45885,-3.35347,0.63505,0.146001,-0.408667,0.0342309,-0.138164,0.386834,-0.0323951,0.00765512,0.107464,5,0.1,2,1.8,1.32637,-3.21889,0.580506,-0.188783,-0.232506,0.0196069,0.990689,0.22006,-0.0185668,0.0094881,1.01998,5,0.1,3,1.8,0.86001,2.41707,0.500033,-0.645098,-0.11093,7.45058e-06,0.617325,0.700355,-0.000417233,0.00962765,0.792759,5,0.1,4,1.8,-3.09486,-3.20026,0.582156,0.0377774,0.00408292,0.0138387,-0.570893,-0.0444651,0.00563264,0.043019,0.305545,5,0.1,5,1.8,3.72127,0.764064,0.580054,-0.232118,0.866026,0.0109792,0.058651,0,-0.00277162,0.0188675,2.239,5,0.1,6,1.8,1.12119,-0.957357,0.606403,-0.433519,-0.674713,-0.00493973,-0.49597,0.278294,0.00190735,0.0103097,1.52647,5,0.1,7,1.8,-1.19989,3.54775,0.500053,0.165915,0.50531,5.51343e-05,-0.0383258,-0.478387,-0.000834465,0.0152791,0.132002,5,0.1,8,1.8,3.23612,3.35269,0.609773,-0.251043,-0.497317,-0.00967085,0.910282,0.445127,0.00867248,0.014028,0.464486,5,0.1,9,1.8,3.64269,-2.48649,0.544832,-0.0475526,0.866026,0.0136122,0.00989437,0,-0.00280142,0.0240818,2.27037,5,0.1,10,1.8,-0.744923,-0.930647,0.620246,0.406539,0.823864,-0.0184998,-0.283688,-0.283331,0.0129044,0.0383178,0.750794,5,0.1,11,1.8,-0.6967,-0.251119,0.580145,0.390418,0.866025,0.0081256,-0.0497997,0,-0.0025928,0.01677,2.18368,5,0.1,12,1.8,0.489632,2.26812,0.605633,0.0173129,-0.320667,-0.00571012,0.0547469,-0.231624,0.00545382,0.0115983,0.194949,5,0.1,13,1.8,0.17722,2.16901,0.609193,-0.288062,-0.172788,0.000798702,-0.569403,0.505805,0.0139177,0.00695224,0.194438,5,0.1,14,1.8,-2.15444,2.50218,0.628143,0.634885,-0.421196,-0.0458688,-1.09041,1.00303,-0.0899732,0.0125384,1.06734,5,0.1,15,1.8,1.01014,1.63673,0.500055,-0.346051,0.164253,0.000317395,-0.0417233,-0.155449,-0.00089407,0.0164728,0.159293,5,0.1,16,1.8,-1.75548,2.57283,0.731111,-0.0426561,-0.474393,0.0192866,0.0572801,0.459194,-0.0160336,0.00889335,0.174464,5,0.1,17,1.8,-0.610146,-3.91471,0.56595,-0.866026,0.274545,0.0152156,0,-0.0636578,-0.00354648,0.010501,2.22532,5,0.1,18,1.8,3.47525,-1.05006,0.531869,0.0272095,0.866026,0.00270903,-0.00548363,-2.98023e-05,-0.000536442,0.0159606,2.27145,5,0.1,19,1.8,3.85578,-0.446675,0.573494,-0.194412,0.866025,0.00927299,0.0431538,1.43051e-05,-0.00202656,0.0175043,2.24823,5,0.1
0,1.9,0.419104,2.61122,0.586527,-0.404306,-0.582197,0.00538239,-0.0179987,0.530526,-0.0061281,0.01371,2.046,5,0.1,1,1.9,-0.444835,-3.3927,0.638336,0.135146,-0.378278,0.0316859,-0.0872947,0.244364,-0.020463,0.00765512,0.107464,5,0.1,2,1.9,1.31212,-3.2411,0.582379,-0.1003,-0.212118,0.0178871,0.749797,0.194013,-0.0163652,0.0094881,1.01998,5,0.1,3,1.9,0.798488,2.40898,0.500032,-0.586007,-0.0555314,-2.71015e-05,0.577718,0.422269,-0.000271946,0.00962765,0.792759,5,0.1,4,1.9,-3.09394,-3.20003,0.583571,-0.0188436,0.000942126,0.014461,-0.545606,-0.0201315,0.00590831,0.043019,0.305545,5,0.1,5,1.9,3.69826,0.850667,0.581143,-0.228547,0.866026,0.0108111,0.0258088,-3.72529e-06,-0.00120327,0.0188675,2.239,5,0.1,6,1.9,1.07488,-1.02353,0.605917,-0.496022,-0.64894,-0.00476809,-0.691116,0.261247,0.00171736,0.0103097,1.52647,5,0.1,7,1.9,-1.18339,3.59601,0.500055,0.164689,0.46099,-1.66707e-05,0.00222027,-0.421748,-0.000599772,0.0152791,0.132002,5,0.1,8,1.9,3.21512,3.30507,0.608847,-0.174395,-0.455964,-0.00886535,0.592381,0.395596,0.00770018,0.014028,0.464486,5,0.1,9,1.9,3.63796,-2.39988,0.546185,-0.0470746,0.866026,0.0134779,0.00248849,0,-0.000692904,0.0240818,2.27037,5,0.1,10,1.9,-0.705615,-0.849399,0.618457,0.380039,0.802808,-0.0172944,-0.25849,-0.179626,0.0117607,0.0383178,0.750794,5,0.1,11,1.9,-0.657834,-0.164517,0.580947,0.387162,0.866025,0.00792015,-0.0340268,1.19209e-06,-0.00189245,0.01677,2.18368,5,0.1,12,1.9,0.49153,2.23489,0.605088,0.0196965,-0.343444,-0.00520442,-0.00269897,-0.203773,0.00481308,0.0115983,0.194949,5,0.1,13,1.9,0.145673,2.15391,0.60934,-0.341221,-0.132614,0.00210861,-0.471438,0.311881,0.0119768,0.00695224,0.194438,5,0.1,14,1.9,-2.09657,2.46511,0.623001,0.521437,-0.320542,-0.0577426,-1.16026,0.992775,-0.136249,0.0125384,1.06734,5,0.1,15,1.9,0.975282,1.65227,0.500081,-0.35111,0.145628,0.00020219,-0.0415333,-0.212125,-0.00133738,0.0164728,0.159293,5,0.1,16,1.9,-1.75948,2.52804,0.732975,-0.0376992,-0.418584,0.0181149,0.0435561,0.635043,-0.0086613,0.00889335,0.174464,5,0.1,17,1.9,-0.696748,-3.88747,0.56746,-0.866026,0.270993,0.0150171,3.72529e-06,-0.0231564,-0.00130013,0.010501,2.22532,5,0.1,18,1.9,3.47795,-0.963453,0.532139,0.0269514,0.866025,0.00268444,-0.0012964,3.72529e-06,-0.000119209,0.0159606,2.27145,5,0.1,19,1.9,3.83648,-0.360072,0.574415,-0.192134,0.866025,0.00916673,0.0137538,-1.78814e-06,-0.000637025,0.0175043,2.24823,5,0.1
0,2,0.378628,2.55585,0.587042,-0.404267,-0.523537,0.00497997,0.0385046,0.630498,-0.0025034,0.00988699,1.8554,5,0.1,1,2,-0.431729,-3.42938,0.641409,0.127091,-0.355732,0.0297993,-0.0799596,0.223875,-0.0187755,0.0108862,0.0619541,5,0.1,2,2,1.30527,-3.26134,0.584086,-0.0426531,-0.192636,0.0162438,0.393987,0.200152,-0.0168681,0.0144501,1.58158,5,0.1,3,2,0.742797,2.40518,0.500028,-0.527357,-0.0237644,-4.76837e-05,0.604123,0.225425,-0.000149012,0.00996003,0.993372,5,0.1,4,2,-3.0984,-3.20001,0.585041,-0.0686288,-0.00026226,0.0148669,-0.438929,-0.00548363,0.00160933,0.0460758,0.284394,5,0.1,5,2,3.67557,0.93727,0.582216,-0.224739,0.866026,0.010632,0.0596046,2.98023e-05,-0.00280142,0.0166354,2.2411,5,0.1,6,2,1.02192,-1.08698,0.60545,-0.560851,-0.618419,-0.00456572,-0.559568,0.365615,0.0025034,0.0133008,1.14671,5,0.1,7,2,-1.16692,3.64001,0.500051,0.164372,0.418633,-6.70552e-05,-0.0169873,-0.434875,-0.000357628,0.0108095,0.159634,5,0.1,8,2,3.2,3.26146,0.607999,-0.134134,-0.415885,-0.00808537,0.22769,0.415325,0.00807643,0.0139213,0.375417,5,0.1,9,2,3.63328,-2.31328,0.547527,-0.0465751,0.866026,0.013335,0.00965595,0,-0.00271201,0.0256291,2.27042,5,0.1,10,2,-0.668943,-0.770125,0.616789,0.352795,0.780807,-0.0160545,-0.294745,-0.289887,0.013411,0.0375303,0.531802,5,0.1,11,2,-0.619387,-0.077914,0.581728,0.380449,0.866026,0.00768155,-0.113189,-5.96046e-06,-0.00309944,0.01762,2.18623,5,0.1,12,2,0.493421,2.1997,0.604591,0.01757,-0.358033,-0.00472069,-0.0362247,-0.0742674,0.00494719,0.00975429,0.137596,5,0.1,13,2,0.109505,2.14198,0.609605,-0.378637,-0.107849,0.00314415,-0.262092,0.194669,0.00852346,0.00750597,0.163073,5,0.1,14,2,-2.05022,2.43788,0.616545,0.406116,-0.225616,-0.0711575,-1.13165,0.892997,-0.123769,0.0135556,0.874863,5,0.1,15,2,0.940083,1.66571,0.500095,-0.351334,0.122741,6.4075e-05,0.0493824,-0.241458,-0.00143051,0.0109597,0.185537,5,0.1,16,2,-1.76305,2.4895,0.734747,-0.0336498,-0.351232,0.017333,0.0386238,0.695586,-0.00789762,0.00807603,0.468471,5,0.1,17,2,-0.783351,-3.86052,0.568953,-0.866026,0.267214,0.0148058,0,-0.0636578,-0.00354648,0.0173398,2.22769,5,0.1,18,2,3.48064,-0.87685,0.532406,0.0266731,0.866026,0.00265837,-0.00536442,0,-0.000536442,0.0140275,2.27146,5,0.1,19,2,3.81736,-0.27347,0.575327,-0.189722,0.866025,0.00905246,0.0425577,0,-0.00202656,0.0138604,2.24928,5,0.1
0,2.1,0.33829,2.50704,0.587535,-0.402973,-0.450431,0.00493219,0.00889413,0.772059,0.000972301,0.00988699,1.8554,5,0.1,1,2.1,-0.419375,-3.46396,0.644305,0.120294,-0.336705,0.0282038,-0.0614822,0.172094,-0.0144243,0.0108862,0.0619541,5,0.1,2,2.1,1.30254,-3.27966,0.585631,-0.0181168,-0.17426,0.014695,0.0290126,0.172675,-0.014551,0.0144501,1.58158,5,0.1,3,2.1,0.692697,2.40371,0.500022,-0.477823,-0.00746995,-5.65313e-05,0.413518,0.107557,-3.35276e-05,0.00996003,0.993372,5,0.1,4,2.1,-3.10736,-3.20005,0.586534,-0.109183,-0.000495464,0.0149732,-0.362441,0.000238419,-4.84288e-05,0.0460758,0.284394,5,0.1,5,2.1,3.6533,1.02387,0.583269,-0.221053,0.866026,0.0104594,0.0267625,-7.45058e-06,-0.00124797,0.0166354,2.2411,5,0.1,6,2.1,0.962895,-1.1471,0.605005,-0.619955,-0.584358,-0.00433503,-0.573799,0.3355,0.00226125,0.0133008,1.14671,5,0.1,7,2.1,-1.15037,3.68002,0.500042,0.168228,0.384219,-9.34117e-05,0.0752211,-0.277445,-0.000167638,0.0108095,0.159634,5,0.1,8,2.1,3.18708,3.22183,0.607228,-0.129773,-0.377656,-0.0073419,-0.101238,0.360787,0.00702217,0.0139213,0.375417,5,0.1,9,2.1,3.62865,-2.22668,0.548853,-0.0461254,0.866026,0.0132104,0.00213087,0,-0.000581145,0.0256291,2.27042,5,0.1,10,2.1,-0.635056,-0.693315,0.615246,0.325476,0.756323,-0.0148114,-0.261825,-0.233438,0.0119135,0.0375303,0.531802,5,0.1,11,2.1,-0.58176,0.00868857,0.582484,0.373026,0.866025,0.00746204,-0.0563413,-1.49012e-07,-0.00171736,0.01762,2.18623,5,0.1,12,2.1,0.494952,2.16354,0.604142,0.0126862,-0.364825,-0.00426611,-0.0582207,-0.0454783,0.00427291,0.00975429,0.137596,5,0.1,13,2.1,0.0703304,2.13208,0.609962,-0.40427,-0.0909995,0.00396753,-0.227176,0.146464,0.00759587,0.00750597,0.163073,5,0.1,14,2.1,-2.01507,2.41951,0.608739,0.298976,-0.144723,-0.0853585,-1.0026,0.721425,-0.148602,0.0135556,0.874863,5,0.1,15,2.1,0.904905,1.67671,0.500094,-0.354337,0.0967542,-6.6217e-05,-0.0782833,-0.271536,-0.00114366,0.0109597,0.185537,5,0.1,16,2.1,-1.76534,2.45811,0.736763,-0.00484232,-0.274565,0.0256774,0.481881,0.814214,0.153858,0.00807603,0.468471,5,0.1,17,2.1,-0.869953,-3.83401,0.570422,-0.866026,0.263657,0.0146071,3.72529e-06,-0.0229478,-0.00128523,0.0173398,2.22769,5,0.1,18,2.1,3.48329,-0.790248,0.53267,0.0264302,0.866026,0.00263425,-0.00110269,-3.72529e-06,-0.000108033,0.0140275,2.27146,5,0.1,19,2.1,3.79852,-0.186867,0.576226,-0.187509,0.866025,0.00894684,0.0129044,5.96046e-07,-0.000618398,0.0138604,2.24928,5,0.1
0,2.2,0.298132,2.46572,0.588035,-0.398836,-0.37815,0.00507236,0.0888407,0.642776,0.00140071,0.00949811,0.249144,5,0.1,1,2.2,-0.40766,-3.49675,0.647052,0.113855,-0.318688,0.0266925,-0.0711828,0.199318,-0.0166595,0.00826241,0.0477947,5,0.1,2,2.2,1.3,-3.29624,0.587029,-0.0411212,-0.157195,0.0132561,-0.463963,0.172496,-0.0145137,0.00990919,3.46723,5,0.1,3,2.2,0.646848,2.40336,0.500017,-0.439955,-0.000941753,-5.51343e-05,0.363737,0.0293255,5.96046e-05,0.0109354,1.30549,5,0.1,4,2.2,-3.1199,-3.2001,0.588025,-0.139517,-0.000315905,0.0147641,-0.237942,0.00274181,-0.00450015,0.0413933,0.266776,5,0.1,5,2.2,3.63136,1.11047,0.584308,-0.217229,0.866026,0.0102803,0.058651,0,-0.00277162,0.0184608,2.10034,5,0.1,6,2.2,0.898334,-1.20377,0.604584,-0.667325,-0.547978,-0.0040859,-0.339508,0.40561,0.00280142,0.0108434,0.826715,5,0.1,7,2.2,-1.13314,3.71715,0.500032,0.176129,0.358969,-0.000101328,0.0688434,-0.245333,-2.98023e-05,0.00829545,0.097193,5,0.1,8,2.2,3.17332,3.18585,0.606529,-0.147414,-0.341779,-0.00664443,-0.221133,0.365019,0.00709295,0.0137045,0.294131,5,0.1,9,2.2,3.62405,-2.14008,0.550169,-0.0456691,0.866026,0.0130817,0.00905991,0,-0.0025928,0.0233629,2.27047,5,0.1,10,2.2,-0.603831,-0.618981,0.613826,0.298712,0.728421,-0.0135943,-0.280499,-0.347883,0.0127852,0.0454808,0.368961,5,0.1,11,2.2,-0.544787,0.0952911,0.583221,0.365578,0.866025,0.00726581,-0.107557,0,-0.0025332,0.0212476,2.19918,5,0.1,12,2.2,0.495915,2.12698,0.603737,0.00649914,-0.364441,-0.0038445,-0.063017,0.0638962,0.00426173,0.00930331,0.177635,5,0.1,13,2.2,0.0289818,2.12366,0.610393,-0.420146,-0.0778317,0.00460446,-0.0744754,0.120044,0.00494719,0.0166841,2.20239,5,0.1,14,2.2,-1.98992,2.40834,0.599498,0.206968,-0.0817299,-0.0988841,-0.832438,0.537753,-0.113636,0.00766936,0.970643,5,0.1,15,2.2,0.869079,1.68503,0.500083,-0.361605,0.0696331,-0.000159442,-0.0442863,-0.265777,-0.000745058,0.0113254,0.161285,5,0.1,16,2.2,-1.76306,2.43476,0.740225,0.0528365,-0.192571,0.044395,0.628412,0.807285,0.204295,0.016132,0.312415,5,0.1,17,2.2,-0.956556,-3.8078,0.571874,-0.866026,0.259978,0.0144005,0,-0.0616312,-0.00339746,0.0113064,2.22998,5,0.1,18,2.2,3.48592,-0.703645,0.532933,0.0261784,0.866026,0.00260919,-0.005126,0,-0.000506639,0.0120358,2.27148,5,0.1,19,2.2,3.77986,-0.100265,0.577117,-0.185233,0.866026,0.00883788,0.0406504,-3.57628e-06,-0.00193715,0.0235348,2.25163,5,0.1
0,2.3,0.258482,2.43148,0.588763,-0.395588,-0.303893,0.0112556,0.00286475,0.815243,0.10848,0.00949811,0.249144,5,0.1,1,2.3,-0.396581,-3.52776,0.64965,0.108053,-0.302444,0.0253348,-0.050582,0.141591,-0.0118315,0.00826241,0.0477947,5,0.1,2,2.3,1.29346,-3.31146,0.588307,-0.0905419,-0.150233,0.0125135,-0.511937,-0.00931323,-0.00200048,0.00990919,3.46723,5,0.1,3,2.3,0.604273,2.40341,0.500012,-0.414733,0.00191554,-4.71249e-05,0.172358,0.0219941,9.68575e-05,0.0109354,1.30549,5,0.1,4,2.3,-3.13492,-3.20013,0.589477,-0.159691,-0.000375137,0.0142503,-0.159979,-0.00287592,-0.0061132,0.0413933,0.266776,5,0.1,5,2.3,3.60971,1.19708,0.585325,-0.217587,0.866026,0.0100873,-0.0446737,0,-0.00161678,0.0184608,2.10034,5,0.1,6,2.3,0.829883,-1.25665,0.604188,-0.700925,-0.510331,-0.00382671,-0.294164,0.363871,0.00251457,0.0108434,0.826715,5,0.1,7,2.3,-1.11514,3.75196,0.500023,0.18415,0.338254,-9.48086e-05,0.0792816,-0.184864,0.000141561,0.00829545,0.097193,5,0.1,8,2.3,3.1572,3.15339,0.605898,-0.176939,-0.308432,-0.00599641,-0.339553,0.311583,0.00604987,0.0137045,0.294131,5,0.1,9,2.3,3.61951,-2.05347,0.55147,-0.045272,0.866026,0.012968,0.00163913,0,-0.000473112,0.0233629,2.27047,5,0.1,10,2.3,-0.57528,-0.547738,0.612526,0.272898,0.697146,-0.012418,-0.244327,-0.304969,0.0111274,0.0454808,0.368961,5,0.1,11,2.3,-0.508689,0.181894,0.583939,0.356753,0.866025,0.00712471,-0.0851918,8.9407e-07,-0.000763685,0.0212476,2.19918,5,0.1,12,2.3,0.49634,2.0906,0.603371,0.0027861,-0.364932,-0.00350634,-0.0153463,-0.0448376,0.00272319,0.00930331,0.177635,5,0.1,13,2.3,-0.01151,2.11569,0.610857,-0.373303,-0.0879988,0.00448767,0.910828,-0.274688,-0.00627339,0.0166841,2.20239,5,0.1,14,2.3,-1.97252,2.40256,0.58918,0.148598,-0.0368107,-0.10612,-0.372157,0.35952,-0.03241,0.00766936,0.970643,5,0.1,15,2.3,0.832668,1.69079,0.500064,-0.366464,0.0467153,-0.000200234,-0.035245,-0.195079,-0.000111759,0.0113254,0.161285,5,0.1,16,2.3,-1.75445,2.41935,0.745928,0.120427,-0.117655,0.07147,0.690065,0.68599,0.313785,0.016132,0.312415,5,0.1,17,2.3,-1.04316,-3.782,0.573303,-0.866026,0.256557,0.0142123,0,-0.0218898,-0.00120327,0.0113064,2.22998,5,0.1,18,2.3,3.48852,-0.617043,0.533192,0.0259578,0.866026,0.00258768,-0.00089407,-3.72529e-06,-8.56817e-05,0.0120358,2.27148,5,0.1,19,2.3,3.76147,-0.0136621,0.578094,-0.183162,0.866025,0.0115683,0.0117123,-2.98023e-07,0.0497401,0.0235348,2.25163,5,0.1
0,2.4,0.218975,2.40526,0.590514,-0.393672,-0.219935,0.0243217,0.0546134,0.842571,0.142157,0.00805102,0.184847,5,0.1,1,2.4,-0.386033,-3.55729,0.652123,0.102766,-0.287652,0.0240967,-0.0591576,0.165582,-0.0138283,0.0122017,0.0215498,5,0.1,2,2.4,1.28186,-3.32666,0.589557,-0.141069,-0.154835,0.0125617,-0.486732,-0.0642538,0.00169873,0.00838992,3.32997,5,0.1,3,2.4,0.563559,2.40367,0.500007,-0.399974,0.00258088,-3.72529e-05,0.14624,-0.0114441,0.000119209,0.0115902,1.16479,5,0.1,4,2.4,-3.15152,-3.20018,0.590866,-0.17063,-0.000709295,0.0134856,-0.0556707,-0.00321865,-0.00935793,0.040911,0.252165,5,0.1,5,2.4,3.5877,1.28368,0.586324,-0.222498,0.866026,0.00986755,-0.0380278,0,-0.00321865,0.0154651,1.64423,5,0.1,6,2.4,0.758651,-1.30583,0.603818,-0.719714,-0.472417,-0.00356287,-0.0555217,0.405788,0.00289083,0.0126716,0.575304,5,0.1,7,2.4,-1.09639,3.78486,0.500014,0.189894,0.319278,-7.59959e-05,0.0270605,-0.205755,0.000238419,0.0107019,0.0881386,5,0.1,8,2.4,3.13781,3.12408,0.605328,-0.210142,-0.277811,-0.00540018,-0.302315,0.307679,0.00596046,0.0124964,0.225906,5,0.1,9,2.4,3.615,-1.96687,0.552762,-0.0448644,0.866026,0.0128523,0.00834465,0,-0.00244379,0.0279951,2.27052,5,0.1,10,2.4,-0.549209,-0.47966,0.61134,0.248399,0.66281,-0.0113025,-0.251621,-0.400558,0.0114739,0.04491,0.25215,5,0.1,11,2.4,-0.473511,0.268496,0.584648,0.345787,0.866025,0.00703037,-0.145406,1.43051e-05,-0.00143051,0.0148555,2.21298,5,0.1,12,2.4,0.496593,2.0539,0.603033,0.00269264,-0.368428,-0.00326037,0.0101924,-0.00429153,0.00232458,0.0133988,0.200261,5,0.1,13,2.4,-0.0433453,2.1052,0.611262,-0.256051,-0.124127,0.00353158,1.354,-0.409961,-0.0120699,0.00931369,1.82645,5,0.1,14,2.4,-1.95901,2.40038,0.57853,0.125831,-0.00953674,-0.105673,-0.11301,0.189781,0.0396073,0.0101244,1.01615,5,0.1,15,2.4,0.795978,1.69458,0.500044,-0.365686,0.0301391,-0.000190735,0.0628233,-0.138581,0.000268221,0.0156897,0.1735,5,0.1,16,2.4,-1.73908,2.41078,0.754666,0.185093,-0.0561655,0.103061,0.579178,0.540614,0.300497,0.010583,0.235509,5,0.1,17,2.4,-1.12976,-3.75649,0.574716,-0.866026,0.253028,0.0140175,0,-0.0596046,-0.00330806,0.0108019,2.22653,5,0.1,18,2.4,3.49111,-0.53044,0.53345,0.0257313,0.866026,0.00256598,-0.00476837,0,-0.000476837,0.0217037,2.27149,5,0.1,19,2.4,3.74324,0.0729404,0.579539,-0.181019,0.866025,0.0175804,0.0389814,0,0.0651777,0.0151481,2.2613,5,0.1
0,2.5,0.179677,2.38723,0.593734,-0.39364,-0.143308,0.0405941,-0.0267962,0.68903,0.173025,0.00805102,0.184847,5,0.1,1,2.5,-0.376044,-3.58525,0.654465,0.0970308,-0.271602,0.0227553,-0.0585504,0.163838,-0.0137053,0.0122017,0.0215498,5,0.1,2,2.5,1.26585,-3.34265,0.590835,-0.175268,-0.16607,0.0130799,-0.256382,-0.141159,0.00730157,0.00838992,3.32997,5,0.1,3,2.5,0.524051,2.40392,0.500004,-0.391897,0.00255629,-2.58908e-05,0.0420287,-0.0111759,0.000104308,0.0115902,1.16479,5,0.1,4,2.5,-3.16878,-3.20034,0.592167,-0.17348,-0.0029929,0.0125189,0.00168383,-0.0326335,-0.0101738,0.040911,0.252165,5,0.1,5,2.5,3.56516,1.37028,0.587297,-0.228928,0.865923,0.00959756,-0.0741184,-0.00411272,-0.00261143,0.0154651,1.64423,5,0.1,6,2.5,0.686397,-1.35115,0.603476,-0.72463,-0.434968,-0.00329651,-0.0120439,0.357032,0.00254065,0.0126716,0.575304,5,0.1,7,2.5,-1.07745,3.8159,0.500007,0.187116,0.302665,-5.22472e-05,-0.0801086,-0.142977,0.000234693,0.0107019,0.0881386,5,0.1,8,2.5,3.1152,3.09773,0.604816,-0.242305,-0.249876,-0.0048588,-0.318035,0.259131,0.00502542,0.0124964,0.225906,5,0.1,9,2.5,3.61054,-1.88027,0.554041,-0.0445258,0.866026,0.0127505,0.00114739,0,-0.000368804,0.0279951,2.27052,5,0.1,10,2.5,-0.52555,-0.415251,0.610264,0.225389,0.626079,-0.0102538,-0.215754,-0.356529,0.00983104,0.04491,0.25215,5,0.1,11,2.5,-0.439785,0.355099,0.585347,0.327421,0.866025,0.00697933,-0.223314,-1.78814e-06,-4.47035e-05,0.0148555,2.21298,5,0.1,12,2.5,0.496591,2.01704,0.603006,-0.00543208,-0.368255,0.00515254,-0.152746,0.0223666,0.147704,0.0133988,0.200261,5,0.1,13,2.5,-0.0614922,2.09043,0.611547,-0.101912,-0.173386,0.00209892,1.65432,-0.538409,-0.0158437,0.00931369,1.82645,5,0.1,14,2.5,-1.94636,2.40017,0.568256,0.132527,0.00332482,-0.0989272,0.205256,0.0753254,0.0923015,0.0101244,1.01615,5,0.1,15,2.5,0.759897,1.69696,0.500027,-0.354151,0.017925,-0.000153016,0.169631,-0.106171,0.000458211,0.0156897,0.1735,5,0.1,16,2.5,-1.71776,2.40758,0.766622,0.240019,-0.0107039,0.136971,0.499293,0.372663,0.354894,0.010583,0.235509,5,0.1,17,2.5,-1.21636,-3.73125,0.576107,-0.866026,0.253464,0.0138226,0,0.045374,-0.00138208,0.0108019,2.22653,5,0.1,18,2.5,3.49367,-0.443838,0.533706,0.0255406,0.866026,0.00254679,-0.000625849,-3.57628e-06,-5.96046e-05,0.0217037,2.27149,5,0.1,19,2.5,3.72526,0.159543,0.581877,-0.178971,0.866025,0.031248,0.0124872,8.9407e-07,0.189442,0.0151481,2.2613,5,0.1
0,2.6,0.140227,2.37608,0.59864,-0.394369,-0.0822067,0.0571474,0.0316501,0.533104,0.150472,0.00916718,0.173664,5,0.1,1,2.6,-0.366652,-3.61154,0.656668,0.0905588,-0.253493,0.0212401,-0.0728667,0.203848,-0.0170767,0.00986328,0.0130147,5,0.1,2,2.6,1.24706,-3.35995,0.592179,-0.200966,-0.179714,0.013788,-0.284731,-0.11766,0.00581145,0.00851901,3.1417,5,0.1,3,2.6,0.485079,2.40399,0.500002,-0.386962,-0.00275373,-1.63913e-05,0.075981,-0.103593,8.9407e-05,0.0092438,1.01303,5,0.1,4,2.6,-3.186,-3.20079,0.593366,-0.169843,-0.00565648,0.0114173,0.07236,-0.014782,-0.0119209,0.0457072,0.61942,5,0.1,5,2.6,3.54194,1.45682,0.588242,-0.234509,0.864381,0.00927299,-0.0255108,-0.0329018,-0.00417233,0.0164043,1.24976,5,0.1,6,2.6,0.61415,-1.39285,0.603159,-0.716986,-0.398672,-0.00303537,0.185579,0.37837,0.00274181,0.00903647,0.390501,5,0.1,7,2.6,-1.0593,3.84545,0.500003,0.174433,0.287884,-3.12924e-05,-0.170469,-0.16427,0.000208616,0.0160556,0.146947,5,0.1,8,2.6,3.08951,3.07402,0.604355,-0.269836,-0.224596,-0.00436902,-0.216365,0.252128,0.00491738,0.0159631,0.166099,5,0.1,9,2.6,3.60609,-1.79367,0.555312,-0.044167,0.866026,0.0126451,0.00798702,-5.96046e-05,-0.00232458,0.0210465,2.27056,5,0.1,10,2.6,-0.504078,-0.354503,0.609287,0.204031,0.587715,-0.00928044,-0.216454,-0.426143,0.00983477,0.0374852,0.170725,5,0.1,11,2.6,-0.408296,0.441701,0.586044,0.300993,0.866025,0.00694394,-0.305131,1.43051e-05,-0.00101328,0.019182,2.24938,5,0.1,12,2.6,0.495151,1.98047,0.604376,-0.0243098,-0.361526,0.0230417,-0.209302,0.121891,0.195891,0.0136321,0.247141,5,0.1,13,2.6,-0.0634222,2.07044,0.611677,0.061763,-0.225413,0.000493228,1.56314,-0.47493,-0.0157058,0.0159026,1.52041,5,0.1,14,2.6,-1.93184,2.40074,0.558891,0.159505,0.00696778,-0.0877842,0.302255,0.00417233,0.127822,0.0131185,0.909715,5,0.1,15,2.6,0.725516,1.69827,0.500014,-0.3316,0.00880659,-0.000104308,0.281274,-0.0767112,0.000447035,0.00676747,0.575089,5,0.1,16,2.6,-1.69152,2.40812,0.78203,0.281605,0.0191867,0.170101,0.319004,0.229239,0.291139,0.0129873,0.189019,5,0.1,17,2.6,-1.30297,-3.70566,0.57748,-0.866026,0.258112,0.0136063,0,0.030756,-0.00345707,0.0136057,2.22231,5,0.1,18,2.6,3.49622,-0.357235,0.53396,0.025332,0.866025,0.00252724,-0.00441074,1.43051e-05,-0.000447035,0.011523,2.2715,5,0.1,19,2.6,3.70745,0.246146,0.586027,-0.176728,0.866025,0.0521615,0.0398159,1.43051e-05,0.214487,0.0171528,2.25433,5,0.1
0,2.7,0.100772,2.37018,0.605135,-0.395833,-0.0389252,0.0728101,-0.0347564,0.341132,0.154067,0.00916718,0.173664,5,0.1,1,2.7,-0.357951,-3.63589,0.658709,0.0834884,-0.233713,0.0195828,-0.0708979,0.198349,-0.016626,0.00986328,0.0130147,5,0.1,2,2.7,1.22563,-3.3786,0.593594,-0.229738,-0.193586,0.0145369,-0.399135,-0.143722,0.00802055,0.00851901,3.1417,5,0.1,3,2.7,0.446536,2.40311,0.500001,-0.385482,-0.0169396,-9.12696e-06,-0.0189021,-0.216037,5.96046e-05,0.0092438,1.01303,5,0.1,4,2.7,-3.20255,-3.2015,0.594447,-0.160267,-0.008706,0.0101889,0.118822,-0.0194907,-0.012666,0.0457072,0.61942,5,0.1,5,2.7,3.51832,1.54324,0.58915,-0.238085,0.864777,0.00889655,-0.0330359,0.00761449,-0.00370294,0.0164043,1.24976,5,0.1,6,2.7,0.543346,-1.43094,0.602868,-0.698803,-0.363953,-0.00278372,0.203202,0.327565,0.00237674,0.00903647,0.390501,5,0.1,7,2.7,-1.04288,3.87339,0.500001,0.15247,0.270476,-1.44355e-05,-0.259832,-0.188649,0.000130385,0.0160556,0.146947,5,0.1,8,2.7,3.06144,3.05273,0.603941,-0.291261,-0.201819,-0.00392487,-0.194266,0.210211,0.00410154,0.0159631,0.166099,5,0.1,9,2.7,3.6017,-1.70706,0.55657,-0.0438534,0.866025,0.0125521,0.000953674,1.49012e-05,-0.000301749,0.0210465,2.27056,5,0.1,10,2.7,-0.484687,-0.297733,0.608405,0.184345,0.548481,-0.00838609,-0.183269,-0.377127,0.00832602,0.0374852,0.170725,5,0.1,11,2.7,-0.379957,0.528304,0.586737,0.263774,0.866026,0.00692736,-0.427224,-1.93715e-06,0.000238419,0.019182,2.24938,5,0.1,12,2.7,0.491855,1.94537,0.607574,-0.0398936,-0.336526,0.0400082,-0.106713,0.361092,0.142012,0.0136321,0.247141,5,0.1,13,2.7,-0.0498598,2.04559,0.611637,0.20459,-0.270458,-0.00134856,1.2704,-0.406578,-0.0200421,0.0159026,1.52041,5,0.1,14,2.7,-1.91404,2.40141,0.550791,0.198911,0.00599883,-0.0739021,0.448979,-0.0209063,0.146963,0.0131185,0.909715,5,0.1,15,2.7,0.694724,1.69812,0.500006,-0.276069,-0.0171646,-6.0536e-05,0.773016,-0.399634,0.000402331,0.00676747,0.575089,5,0.1,16,2.7,-1.66187,2.41099,0.800577,0.310109,0.0363152,0.201127,0.23628,0.118032,0.308376,0.0129873,0.189019,5,0.1,17,2.7,-1.38957,-3.67954,0.578828,-0.866026,0.265362,0.0133961,0,0.0930876,-0.00150874,0.0136057,2.22231,5,0.1,18,2.7,3.49874,-0.270633,0.534211,0.0251677,0.866025,0.00251047,-0.000402331,-1.78814e-06,-4.47035e-05,0.011523,2.2715,5,0.1,19,2.7,3.68983,0.332748,0.592092,-0.176677,0.866025,0.0670388,-0.0238717,-1.78814e-06,0.0885427,0.0171528,2.25433,5,0.1
0,2.8,0.0610805,2.36774,0.613134,-0.396845,-0.012368,0.0864744,0.0331169,0.19753,0.11307,0.0114159,0.166007,5,0.1,1,2.8,-0.349969,-3.65824,0.660581,0.0760011,-0.212765,0.0178277,-0.0802875,0.22471,-0.0188351,0.0101414,0.00413353,5,0.1,2,2.8,1.2,-3.39861,0.595084,-0.289357,-0.205708,0.0151962,-0.77039,-0.0873804,0.00438094,0.00983058,2.8332,5,0.1,3,2.8,0.407921,2.4,0.5,-0.38601,-0.0482678,-2.98023e-06,0.0281483,-0.397444,0,0.0133943,0.840674,5,0.1,4,2.8,-3.21791,-3.20232,0.595401,-0.146204,-0.00576377,0.00888407,0.161529,0.089407,-0.0134408,0.0399303,2.18876,5,0.1,5,2.8,3.49442,1.62962,0.590019,-0.238913,0.860849,0.00847429,0.0255108,-0.103593,-0.00497699,0.0169761,0.920776,5,0.1,6,2.8,0.474677,-1.46571,0.602602,-0.672156,-0.331193,-0.00254363,0.346512,0.335634,0.00247359,0.01156,0.332805,5,0.1,7,2.8,-1.02902,3.89942,0.5,0.1241,0.249404,-4.47035e-06,-0.300109,-0.235558,5.96046e-05,0.010781,0.204825,5,0.1,8,2.8,3.0315,3.03357,0.603568,-0.30567,-0.181395,-0.0035271,-0.0817776,0.203013,0.00396371,0.0137113,0.200291,5,0.1,9,2.8,3.59733,-1.62046,0.557822,-0.0435114,0.866026,0.0124529,0.0077486,-5.96046e-05,-0.00220537,0.0237844,2.2706,5,0.1,10,2.8,-0.467154,-0.244814,0.607607,0.166354,0.50915,-0.0075683,-0.180766,-0.422299,0.00822544,0.0486954,0.115082,5,0.1,11,2.8,-0.355834,0.614906,0.58743,0.217751,0.866026,0.00691414,-0.4832,0,-0.000834465,0.0117734,2.26807,5,0.1,12,2.8,0.487472,1.9138,0.612186,-0.0464737,-0.292468,0.0512406,-0.028789,0.505507,0.0821054,0.0144727,0.185321,5,0.1,13,2.8,-0.0236864,2.01675,0.611403,0.312128,-0.303489,-0.00332445,0.866212,-0.240982,-0.0186861,0.0113563,1.28673,5,0.1,14,2.8,-1.89191,2.40188,0.544147,0.24288,0.00326633,-0.0589103,0.403285,-0.0317097,0.150561,0.00871053,1.21253,5,0.1,15,2.8,0.67141,1.69417,0.500002,-0.187087,-0.0634819,-2.5332e-05,0.962049,-0.493467,0.000238419,0.00888925,0.383642,5,0.1,16,2.8,-1.62991,2.41506,0.822119,0.326434,0.0436902,0.228186,0.0806451,0.033617,0.217944,0.0105784,0.164509,5,0.1,17,2.8,-1.47617,-3.65258,0.580159,-0.866026,0.273085,0.0131741,0,0.0462532,-0.00351667,0.00911375,1.92862,5,0.1,18,2.8,3.50125,-0.18403,0.534462,0.0249863,0.866025,0.00249147,-0.00441074,0,-0.000417233,0.0133086,2.27151,5,0.1,19,2.8,3.67204,0.419351,0.599068,-0.178927,0.866025,0.0709176,-0.0100136,1.43051e-05,-0.00599027,0.0150841,2.25007,5,0.1
0,2.9,0.0213991,2.36728,0.622381,-0.397758,0.00112616,0.0985962,-0.0260608,0.0804812,0.120174,0.0114159,0.166007,5,0.1,1,2.9,-0.34277,-3.67839,0.66227,0.0679548,-0.190245,0.0159401,-0.0814274,0.227913,-0.0190996,0.0101414,0.00413353,5,0.1,2,2.9,1.16615,-3.41967,0.596629,-0.39555,-0.215525,0.0157289,-1.25164,-0.0950694,0.00528246,0.00983058,2.8332,5,0.1,3,2.9,0.369169,2.39276,0.5,-0.391115,-0.0998281,-1.49012e-06,-0.0972468,-0.592649,2.23517e-05,0.0133943,0.840674,5,0.1,4,2.9,-3.23171,-3.2025,0.596224,-0.129692,0.00486448,0.0075845,0.168905,0.242621,-0.0125915,0.0399303,2.18876,5,0.1,5,2.9,3.47063,1.71529,0.590844,-0.236887,0.852942,0.00801645,0.0254512,-0.082612,-0.00447035,0.0169761,0.920776,5,0.1,6,2.9,0.409123,-1.49741,0.602359,-0.639121,-0.305006,-0.0023176,0.334985,0.207663,0.00211969,0.01156,0.332805,5,0.1,7,2.9,-1.01812,3.92322,0.5,0.0937635,0.226782,-6.51926e-07,-0.300787,-0.222191,1.86265e-05,0.010781,0.204825,5,0.1,8,2.9,3.00026,3.01629,0.603232,-0.32075,-0.165677,-0.00322033,-0.188679,0.122726,0.00239909,0.0137113,0.200291,5,0.1,9,2.9,3.593,-1.53386,0.559061,-0.0432104,0.866025,0.0123678,0.000923872,1.49012e-05,-0.00025332,0.0237844,2.2706,5,0.1,10,2.9,-0.451361,-0.195883,0.606889,0.149989,0.470331,-0.00682371,-0.151537,-0.369543,0.00689551,0.0486954,0.115082,5,0.1,11,2.9,-0.336499,0.701509,0.58812,0.168898,0.866026,0.00690809,-0.485702,-3.72529e-06,0.000271946,0.0117734,2.26807,5,0.1,12,2.9,0.483078,1.88682,0.617551,-0.0379935,-0.249397,0.0545062,0.175774,0.368744,-0.0105798,0.0144727,0.185321,5,0.1,13,2.9,0.0110814,1.98523,0.610958,0.375716,-0.326013,-0.00570621,0.415655,-0.192419,-0.027068,0.0113563,1.28673,5,0.1,14,2.9,-1.86542,2.40208,0.538966,0.287784,0.00102222,-0.0451354,0.461362,-0.0151992,0.125416,0.00871053,1.21253,5,0.1,15,2.9,0.657652,1.6852,0.5,-0.0874515,-0.116679,-5.96046e-06,0.999671,-0.543103,0.00013411,0.00888925,0.383642,5,0.1,16,2.9,-1.5969,2.41952,0.846102,0.332994,0.04481,0.251693,0.0373721,-0.00917912,0.231542,0.0105784,0.164509,5,0.1,17,2.9,-1.56277,-3.62495,0.581462,-0.866026,0.279918,0.0129217,0,0.0724941,-0.00219047,0.00911375,1.92862,5,0.1,18,2.9,3.50374,-0.0974275,0.53471,0.0248186,0.866025,0.00247657,-0.000476837,1.49012e-07,-2.98023e-05,0.0133086,2.27151,5,0.1,19,2.9,3.654,0.505953,0.606031,-0.182621,0.866026,0.0674295,-0.0500083,-1.93715e-06,-0.0601523,0.0150841,2.25007,5,0.1
0,3,-0.0184348,2.36765,0.632792,-0.397732,0.00520349,0.108941,0.0445092,0.0077486,0.0802279,0.014028,0.160375,5,0.1,1,3,-0.336389,-3.69626,0.663767,0.0595994,-0.166857,0.0139803,-0.0860691,0.240803,-0.020206,0.00866302,0.00125248,5,0.1,2,3,1.12024,-3.44161,0.598223,-0.52188,-0.222367,0.0160843,-1.19883,-0.0318289,0.00113249,0.00781142,2.48968,5,0.1,3,3,0.329586,2.37977,0.5,-0.39976,-0.159603,0,-0.0516623,-0.571966,0,0.0107468,0.660597,5,0.1,4,3,-3.24382,-3.2,0.59692,-0.112426,0.053221,0.00635833,0.176191,0.709891,-0.0118911,0.0421416,1.90812,5,0.1,5,3,3.44714,1.8,0.591622,-0.232071,0.838807,0.00753254,0.0780821,-0.227213,-0.00539422,0.0173031,0.660381,5,0.1,6,3,0.347005,-1.52695,0.602138,-0.601681,-0.286257,-0.00210553,0.427783,0.181854,0.00214577,0.0096597,0.229239,5,0.1,7,3,-1.01021,3.94477,0.5,0.0649482,0.20408,1.49012e-06,-0.271142,-0.2352,-2.98023e-05,0.0102699,0.326043,5,0.1,8,3,2.96728,3.00028,0.602921,-0.338024,-0.154859,-0.00300854,-0.134349,0.102162,0.00196695,0.0149248,0.121993,5,0.1,9,3,3.58869,-1.44726,0.560295,-0.0428736,0.866026,0.0122726,0.00762939,-5.96046e-05,-0.00214577,0.0249785,2.27064,5,0.1,10,3,-0.437105,-0.150714,0.60624,0.135192,0.432623,-0.00614971,-0.147983,-0.395316,0.00670552,0.0397926,0.167687,5,0.1,11,3,-0.321986,0.788111,0.588811,0.122035,0.866026,0.00689477,-0.445455,0,-0.000834465,0.0144567,0.0939618,5,0.1,12,3,0.480342,1.86359,0.622838,-0.0153601,-0.216457,0.0502706,0.259116,0.299692,-0.0688732,0.0108018,0.237395,5,0.1,13,3,0.0500588,1.95187,0.610251,0.397384,-0.339127,-0.00840873,0.0288635,-0.0584126,-0.0255704,0.00888006,1.09164,5,0.1,14,3,-1.83447,2.40212,0.535041,0.329411,-0.000119209,-0.0337347,0.347197,-0.00905991,0.103086,0.0152464,1.07642,5,0.1,15,3,0.653757,1.67092,0.5,0.0074774,-0.167376,1.49012e-06,0.876129,-0.451088,5.96046e-05,0.00778318,0.298798,5,0.1,16,3,-1.56358,2.4239,0.872313,0.33173,0.0422537,0.270976,-0.0712276,-0.0402927,0.139594,0.0140426,0.725546,5,0.1,17,3,-1.64938,-3.59667,0.582741,-0.866026,0.284529,0.0126228,0,0.00691414,-0.00426173,0.0103828,1.48979,5,0.1,18,3,3.50622,-0.010825,0.534957,0.0246346,0.866025,0.00246018,-0.00441074,-1.19209e-06,-0.000447035,0.0131657,2.27153,5,0.1,19,3,3.63551,0.592556,0.612408,-0.186545,0.866026,0.0595599,-0.0185966,0,-0.0940859,0.0161805,2.24797,5,0.1
0,3.1,-0.0581431,2.36817,0.64415,-0.397376,0.00465922,0.118577,-0.0126921,-0.016138,0.101615,0.014028,0.160375,5,0.1,1,3.1,-0.330856,-3.71175,0.665064,0.0510795,-0.143017,0.0119805,-0.084348,0.236034,-0.0197962,0.00866302,0.00125248,5,0.1,2,3.1,1.06165,-3.46405,0.599841,-0.651872,-0.226563,0.0162835,-1.31786,-0.0394136,0.00194833,0.00781142,2.48968,5,0.1,3,3.1,0.289164,2.36084,0.5,-0.409803,-0.219313,0,-0.119814,-0.591457,0,0.0107468,0.660597,5,0.1,4,3.1,-3.2542,-3.19011,0.597499,-0.0954416,0.152623,0.00524363,0.163987,1.18989,-0.0104569,0.0421416,1.90812,5,0.1,5,3.1,3.4243,1.88293,0.59235,-0.224809,0.82061,0.00703456,0.0756681,-0.174887,-0.0048019,0.0173031,0.660381,5,0.1,6,3.1,0.288874,-1.55482,0.601937,-0.561499,-0.272256,-0.00191033,0.393259,0.113688,0.00182539,0.0096597,0.229239,5,0.1,7,3.1,-1.00507,3.96401,0.5,0.0383489,0.18054,0,-0.249803,-0.23663,-7.45058e-06,0.0102699,0.326043,5,0.1,8,3.1,2.93277,2.98523,0.602629,-0.352,-0.146557,-0.00284892,-0.12517,0.071466,0.00137836,0.0149248,0.121993,5,0.1,9,3.1,3.58442,-1.36065,0.561517,-0.0425737,0.866025,0.0121898,0.000968575,1.49012e-05,-0.000257045,0.0249785,2.27064,5,0.1,10,3.1,-0.424273,-0.109149,0.605656,0.121845,0.400857,-0.00554472,-0.123115,-0.262796,0.00558048,0.0397926,0.167687,5,0.1,11,3.1,-0.311886,0.873858,0.589505,0.0812638,0.840827,0.00704667,-0.368468,-0.484537,0.00308082,0.0144567,0.0939618,5,0.1,12,3.1,0.48003,1.84312,0.627413,0.00830279,-0.195492,0.0403374,0.210294,0.139885,-0.122692,0.0108018,0.237395,5,0.1,13,3.1,0.0895735,1.91762,0.609275,0.389389,-0.345854,-0.0111363,-0.182291,-0.0579655,-0.0274219,0.00888006,1.09164,5,0.1,14,3.1,-1.79964,2.40216,0.532181,0.367767,0.00138022,-0.0235335,0.386752,0.0276715,0.0992827,0.0152464,1.07642,5,0.1,15,3.1,0.658737,1.65197,0.5,0.0901665,-0.210587,4.19095e-06,0.759859,-0.395566,3.72529e-06,0.00778318,0.298798,5,0.1,16,3.1,-1.53144,2.42708,0.899637,0.304927,0.0143468,0.271157,-0.432819,-0.465274,-0.121303,0.0140426,0.725546,5,0.1,17,3.1,-1.73597,-3.56814,0.583985,-0.865828,0.286126,0.0122591,0.00791997,0.0107884,-0.0035502,0.0103828,1.48979,5,0.1,18,3.1,3.50867,0.0757776,0.535202,0.0244629,0.866025,0.00244239,-0.000521541,7.45058e-07,-5.58794e-05,0.0131657,2.27153,5,0.1,19,3.1,3.61668,0.679158,0.617865,-0.190479,0.866026,0.0493538,-0.0469983,-3.72529e-06,-0.10775,0.0161805,2.24797,5,0.1
0,3.2,-0.0978729,2.36853,0.656478,-0.396054,0.00241995,0.1274,0.0565988,-0.0268221,0.0671148,0.0130915,0.160762,5,0.1,1,3.2,-0.326167,-3.72488,0.666164,0.0427365,-0.119668,0.0100225,-0.0823885,0.230551,-0.0193417,0.00768834,0.000682638,5,0.1,2,3.2,0.990234,-3.48684,0.601474,-0.771172,-0.228107,0.0163198,-1.00851,0.0174046,-0.00187755,0.00881033,2.3078,5,0.1,3,3.2,0.24767,2.33612,0.5,-0.418689,-0.272626,0,-0.03694,-0.452995,0,0.011727,0.494374,5,0.1,4,3.2,-3.26294,-3.1687,0.597973,-0.0795484,0.275689,0.00425875,0.153899,1.20461,-0.00929832,0.0362361,1.547,5,0.1,5,3.2,3.40225,1.96395,0.593028,-0.215507,0.79737,0.00653267,0.115871,-0.316381,-0.00539422,0.0153164,0.462225,5,0.1,6,3.2,0.234749,-1.58149,0.601755,-0.52011,-0.260845,-0.00173002,0.446297,0.125706,0.00181794,0.00685189,0.157097,5,0.1,7,3.2,-1.00237,3.98087,0.5,0.016728,0.156611,0,-0.176251,-0.242233,0,0.0110478,0.478315,5,0.1,8,3.2,2.89709,2.97093,0.602351,-0.359684,-0.139272,-0.00270754,-0.0149012,0.079751,0.00151992,0.0171611,0.0673832,5,0.1,9,3.2,3.58017,-1.27405,0.562733,-0.0422418,0.866026,0.0120968,0.0077486,-5.96046e-05,-0.00220537,0.0243764,2.27068,5,0.1,10,3.2,-0.412691,-0.070312,0.605129,0.109855,0.376118,-0.00500083,-0.119656,-0.248663,0.00542402,0.041128,0.234839,5,0.1,11,3.2,-0.305465,0.954855,0.590226,0.0485398,0.772959,0.00737309,-0.285551,-0.853807,0.00286102,0.0177902,0.651015,5,0.1,12,3.2,0.481806,1.82414,0.630793,0.0261024,-0.184929,0.0269949,0.143602,0.0867248,-0.13867,0.00877187,0.309965,5,0.1,13,3.2,0.127299,1.88286,0.608032,0.36226,-0.347656,-0.0136256,-0.353433,0.0345111,-0.0212491,0.00961151,0.976604,5,0.1,14,3.2,-1.76109,2.40242,0.530307,0.401086,0.00359416,-0.0141665,0.256062,0.00953674,0.0869036,0.0152862,0.942124,5,0.1,15,3.2,0.671241,1.62915,0.500001,0.156489,-0.243542,2.98023e-06,0.55474,-0.25177,0,0.00711466,0.246532,5,0.1,16,3.2,-1.50349,2.42585,0.925816,0.250992,-0.0414491,0.249477,-0.619709,-0.609398,-0.299364,0.0160058,0.594326,5,0.1,17,3.2,-1.82245,-3.53956,0.585191,-0.862858,0.284278,0.0118241,0.0633597,-0.0574589,-0.00557303,0.0129037,1.11749,5,0.1,18,3.2,3.51111,0.16238,0.535445,0.024271,0.866025,0.00242293,-0.00417233,0,-0.000417233,0.0142148,2.27154,5,0.1,19,3.2,3.59744,0.765761,0.622255,-0.193703,0.866026,0.0384226,-0.00834465,0,-0.109047,0.014075,2.25235,5,0.1
0,3.3,-0.137341,2.36873,0.669643,-0.394173,0.00247434,0.136473,0.00454627,0.0225604,0.101421,0.0130915,0.160762,5,0.1,1,3.3,-0.322297,-3.73572,0.667072,0.0347613,-0.0973489,0.00815056,-0.0768621,0.215128,-0.0180379,0.00768834,0.000682638,5,0.1,2,3.3,0.908999,-3.50962,0.603101,-0.844317,-0.227758,0.0162411,-0.458352,0.00172853,-0.000569969,0.00881033,2.3078,5,0.1,3,3.3,0.205531,2.30661,0.5,-0.424338,-0.316859,0,-0.0528217,-0.407949,0,0.011727,0.494374,5,0.1,4,3.3,-3.27016,-3.13481,0.598355,-0.0651553,0.403489,0.00340641,0.134587,1.28461,-0.00780076,0.0362361,1.547,5,0.1,5,3.3,3.38136,2.04224,0.593656,-0.201399,0.769086,0.00603609,0.165939,-0.280239,-0.00473857,0.0153164,0.462225,5,0.1,6,3.3,0.184851,-1.60704,0.601591,-0.478639,-0.250725,-0.00156509,0.397716,0.089094,0.00153109,0.00685189,0.157097,5,0.1,7,3.3,-1.00152,3.99534,0.5,0.00137445,0.132932,0,-0.112079,-0.231341,0,0.0110478,0.478315,5,0.1,8,3.3,2.86109,2.95742,0.602087,-0.359632,-0.130891,-0.00256812,0.0283122,0.0903308,0.00135973,0.0171611,0.0673832,5,0.1,9,3.3,3.57597,-1.18745,0.563936,-0.0419229,0.866025,0.0120064,0.00119209,1.49012e-05,-0.000327826,0.0243764,2.27068,5,0.1,10,3.3,-0.402261,-0.0336162,0.604654,0.0990942,0.36035,-0.00451272,-0.0990219,-0.0947793,0.00449643,0.041128,0.234839,5,0.1,11,3.3,-0.301912,1.02856,0.590975,0.0238772,0.706749,0.00757175,-0.204578,-0.518121,0.000905246,0.0177902,0.651015,5,0.1,12,3.3,0.484895,1.80611,0.632828,0.0336705,-0.175362,0.0140369,0.0220463,0.107668,-0.119187,0.00877187,0.309965,5,0.1,13,3.3,0.161667,1.84815,0.606561,0.324245,-0.347346,-0.0157713,-0.404824,-0.00777841,-0.0203587,0.00961151,0.976604,5,0.1,14,3.3,-1.71973,2.40286,0.529196,0.425401,0.00492074,-0.00918116,0.207931,-0.00275671,0.0188351,0.0152862,0.942124,5,0.1,15,3.3,0.689513,1.60359,0.500001,0.207084,-0.26668,1.86265e-06,0.443354,-0.196978,-1.49012e-05,0.00711466,0.246532,5,0.1,16,3.3,-1.48172,2.41835,0.949091,0.182793,-0.110522,0.214521,-0.721067,-0.732586,-0.389487,0.0160058,0.594326,5,0.1,17,3.3,-1.90869,-3.51139,0.586347,-0.863243,0.279139,0.0113189,-0.0243559,-0.0568479,-0.00496209,0.0129037,1.11749,5,0.1,18,3.3,3.51352,0.248983,0.535687,0.0241134,0.866025,0.00240719,-0.000461936,-8.9407e-07,-4.84288e-05,0.0142148,2.27154,5,0.1,19,3.3,3.57805,0.852363,0.625555,-0.193886,0.866026,0.0276289,0.0116825,-3.72529e-06,-0.105184,0.014075,2.25235,5,0.1
0,3.4,-0.176664,2.36914,0.683767,-0.391133,0.00597239,0.145465,0.072844,0.043273,0.0691414,0.00814706,0.169828,5,0.1,1,3.4,-0.319194,-3.74441,0.667799,0.0274107,-0.0767708,0.00642687,-0.0699461,0.195861,-0.0164509,0.0162843,0.000607133,5,0.1,2,3.4,0.823103,-3.53233,0.604719,-0.865953,-0.225693,0.016059,-0.00143051,0.0479221,-0.00372529,0.0096048,2.24107,5,0.1,3,3.4,0.162962,2.27312,0.5,-0.425321,-0.350213,0,0.0492632,-0.243068,0,0.0117512,0.35335,5,0.1,4,3.4,-3.27603,-3.08835,0.598659,-0.0525177,0.521135,0.00268817,0.118375,1.02031,-0.00658631,0.0389966,1.18673,5,0.1,5,3.4,3.36213,2.1176,0.594236,-0.18245,0.736111,0.00555217,0.212073,-0.400424,-0.0050962,0.0155135,0.322128,5,0.1,6,3.4,0.138993,-1.63164,0.601442,-0.438103,-0.240907,-0.00141561,0.42304,0.11605,0.00154972,0.00792604,0.107115,5,0.1,7,3.4,-1.00173,4.00749,0.5,-0.00318587,0.11034,0,0.0270605,-0.219822,0,0.0159325,1.2075,5,0.1,8,3.4,2.82542,2.94481,0.601837,-0.351989,-0.120813,-0.00241995,0.13268,0.112653,0.00169873,0.0123075,0.110696,5,0.1,9,3.4,3.57179,-1.10085,0.565133,-0.0415683,0.866026,0.011906,0.00751019,-5.96046e-05,-0.00220537,0.0235971,2.27072,5,0.1,10,3.4,-0.392836,0.00200972,0.604225,0.0894584,0.352281,-0.00407547,-0.096187,-0.0873369,0.00438094,0.0473543,0.176268,5,0.1,11,3.4,-0.300398,1.09688,0.591732,0.00787601,0.661001,0.00752062,-0.116035,-0.432253,-0.00208616,0.0108599,2.90259,5,0.1,12,3.4,0.488266,1.78917,0.633677,0.0329435,-0.162923,0.00337213,-0.0265539,0.142813,-0.0932813,0.0105818,0.293743,5,0.1,13,3.4,0.191998,1.81344,0.604893,0.281738,-0.345704,-0.0174761,-0.442929,0.0550747,-0.012815,0.0135365,0.870701,5,0.1,14,3.4,-1.67637,2.4032,0.5283,0.438938,0.000321865,-0.00931472,0.0478029,-0.0966787,-0.0166595,0.0232717,0.800445,5,0.1,15,3.4,0.712162,1.57612,0.500001,0.242904,-0.280613,0,0.264287,-0.0724196,0,0.0181811,0.212173,5,0.1,16,3.4,-1.46705,2.4037,0.968518,0.110877,-0.181109,0.173448,-0.699341,-0.650048,-0.423521,0.0234715,0.482606,5,0.1,17,3.4,-1.99497,-3.48384,0.587452,-0.859934,0.270981,0.0107586,0.121951,-0.114083,-0.00658631,0.0103579,0.808427,5,0.1,18,3.4,3.51593,0.335585,0.535927,0.0239313,0.866025,0.00238866,-0.00417233,1.43051e-05,-0.000417233,0.0207188,2.27155,5,0.1,19,3.4,3.55879,0.938966,0.627809,-0.190204,0.866026,0.0176713,0.0662804,0,-0.0927746,0.0376829,2.25376,5,0.1
0,3.5,-0.215385,2.37013,0.698761,-0.3827,0.015321,0.155052,0.107654,0.130817,0.10816,0.00814706,0.169828,5,0.1,1,3.5,-0.31679,-3.75114,0.668363,0.0208048,-0.0582721,0.00487398,-0.0619181,0.173405,-0.0145435,0.0162843,0.000607133,5,0.1,2,3.5,0.736503,-3.55473,0.606312,-0.866021,-0.222716,0.0158223,-0.000186265,0.0236183,-0.00186637,0.0096048,2.24107,5,0.1,3,3.5,0.120627,2.23693,0.5,-0.421406,-0.372772,0,0.0476557,-0.189349,0,0.0117512,0.35335,5,0.1,4,3.5,-3.28073,-3.03115,0.598897,-0.0416834,0.621572,0.00209557,0.0989586,0.93706,-0.00531599,0.0389966,1.18673,5,0.1,5,3.5,3.34507,2.18934,0.594767,-0.157554,0.699297,0.00508502,0.276804,-0.361219,-0.00441074,0.0155135,0.322128,5,0.1,6,3.5,0.0971761,-1.65521,0.601307,-0.399133,-0.230913,-0.00127601,0.368647,0.0938401,0.00128523,0.00792604,0.107115,5,0.1,7,3.5,-1.00186,4.01747,0.5,0.00336245,0.0896111,0,0.182703,-0.195086,0,0.0159325,1.2075,5,0.1,8,3.5,2.79093,2.93338,0.601604,-0.337265,-0.106961,-0.00225548,0.169277,0.160277,0.00164658,0.0123075,0.110696,5,0.1,9,3.5,3.56765,-1.01424,0.566318,-0.0412595,0.866025,0.0118128,0.00114739,1.11759e-05,-0.000368804,0.0235971,2.27072,5,0.1,10,3.5,-0.384335,0.0369705,0.603838,0.0808254,0.348059,-0.00368208,-0.0793394,-0.0191759,0.00361353,0.0473543,0.176268,5,0.1,11,3.5,-0.30021,1.16188,0.592588,-0.00397172,0.647654,0.0105477,-0.107925,0.0849441,0.0551902,0.0108599,2.90259,5,0.1,12,3.5,0.491321,1.77358,0.633576,0.0276505,-0.148856,-0.00509564,-0.0579227,0.141278,-0.0751242,0.0105818,0.293743,5,0.1,13,3.5,0.218179,1.77892,0.603084,0.24382,-0.346169,-0.0186382,-0.326483,-0.0380799,-0.00951439,0.0135365,0.870701,5,0.1,14,3.5,-1.63211,2.40266,0.527386,0.446905,-0.0129323,-0.00809925,0.0843778,-0.206515,0.0354908,0.0232717,0.800445,5,0.1,15,3.5,0.737726,1.54769,0.500001,0.267525,-0.287633,-4.65661e-07,0.213217,-0.0541583,-1.11759e-05,0.0181811,0.212173,5,0.1,16,3.5,-1.45946,2.38229,0.983727,0.0413429,-0.246738,0.130732,-0.674367,-0.632554,-0.42367,0.0234715,0.482606,5,0.1,17,3.5,-2.08054,-3.45728,0.588497,-0.852212,0.260311,0.0101527,0.0748336,-0.108689,-0.00589341,0.0103579,0.808427,5,0.1,18,3.5,3.51831,0.422188,0.536164,0.0237677,0.866025,0.00237226,-0.000551343,-3.57628e-06,-5.21541e-05,0.0207188,2.27155,5,0.1,19,3.5,3.54008,1.02557,0.629126,-0.184239,0.866026,0.00883564,0.0603944,0,-0.0826791,0.0376829,2.25376,5,0.1
0,3.6,-0.252981,2.37237,0.714774,-0.367662,0.029856,0.164613,0.200689,0.149965,0.0726879,0.0156477,1.63057,5,0.1,1,3.6,-0.315004,-3.75614,0.668781,0.0150681,-0.042212,0.00352859,-0.0526458,0.147581,-0.0123978,0.0203875,0.000473874,5,0.1,2,3.6,0.6499,-3.57684,0.607882,-0.866026,-0.218922,0.0155389,0,0.0609159,-0.00438094,0.0157345,2.2431,5,0.1,3,3.6,0.0788462,2.19892,0.5,-0.412658,-0.384969,0,0.140002,-0.0419617,0,0.0197958,0.24401,5,0.1,4,3.6,-3.28443,-2.96479,0.599082,-0.0326097,0.699884,0.00161678,0.0828505,0.593781,-0.00432134,0.0553885,0.858575,5,0.1,5,3.6,3.33075,2.25736,0.595254,-0.128675,0.659603,0.00464171,0.294089,-0.450134,-0.00455976,0.0247763,0.223898,5,0.1,6,3.6,0.0590978,-1.67781,0.601186,-0.362293,-0.220439,-0.00115037,0.376695,0.122607,0.0012517,0.00754083,0.140265,5,0.1,7,3.6,-1,4.02549,0.5,0.0398174,0.0712633,0,0.53224,-0.172615,0,0.0128189,3.30439,5,0.1,8,3.6,2.75816,2.92354,0.601387,-0.316942,-0.0895143,-0.00207871,0.241637,0.185132,0.00187755,0.0214218,0.138733,5,0.1,9,3.6,3.56354,-0.927641,0.567496,-0.0409067,0.866026,0.0117093,0.00762939,0,-0.00220537,0.0303676,2.27076,5,0.1,10,3.6,-0.376641,0.0716447,0.603487,0.0730991,0.344656,-0.00332892,-0.0772327,-0.0646967,0.00348687,0.0428982,0.128548,5,0.1,11,3.6,-0.301051,1.22738,0.593962,-0.0116996,0.663897,0.0172392,-0.0395328,0.17941,0.0728369,0.0182573,2.86634,5,0.1,12,3.6,0.493875,1.75942,0.632727,0.0244878,-0.134221,-0.0115022,0.00457466,0.153303,-0.0524819,0.00956217,0.651653,5,0.1,13,3.6,0.241046,1.74414,0.601184,0.214487,-0.348788,-0.0192285,-0.268683,0.00464916,-0.00169873,0.010515,0.7539,5,0.1,14,3.6,-1.58712,2.4,0.526803,0.451192,-0.043565,-0.0031963,-0.0177026,-0.393867,0.0582039,0.0150523,0.649214,5,0.1,15,3.6,0.765361,1.51878,0.500001,0.283065,-0.289127,-1.49012e-06,0.087738,0.0335574,0,0.00781811,0.192759,5,0.1,16,3.6,-1.45854,2.35468,0.99473,-0.0210881,-0.302517,0.0899643,-0.562072,-0.461936,-0.386268,0.0150744,0.358427,5,0.1,17,3.6,-2.16518,-3.43185,0.589482,-0.837803,0.247663,0.00951886,0.242829,-0.150561,-0.00700355,0.0121055,0.567386,5,0.1,18,3.6,3.52068,0.50879,0.536401,0.0235796,0.866026,0.00235438,-0.00429153,0,-0.000447035,0.00844317,2.27156,5,0.1,19,3.6,3.52199,1.11217,0.629622,-0.176883,0.866026,0.00134706,0.0916719,0,-0.0662506,0.0217967,1.98665,5,0.1
0,3.7,-0.288351,2.37457,0.731341,-0.33623,0.00116676,0.164317,0.411751,-0.632763,-0.0710897,0.0156477,1.63057,5,0.1,1,3.7,-0.313746,-3.75967,0.669075,0.0102289,-0.0286479,0.00239043,-0.0439938,0.123277,-0.0103377,0.0203875,0.000473874,5,0.1,2,3.7,0.563298,-3.59851,0.609419,-0.866026,-0.21488,0.0152494,1.78814e-06,0.0317544,-0.0022538,0.0157345,2.2431,5,0.1,3,3.7,0.0382337,2.16023,0.5,-0.399667,-0.388047,0,0.134979,-0.00447035,0,0.0197958,0.24401,5,0.1,4,3.7,-3.2873,-2.89192,0.599224,-0.0251688,0.755509,0.00123559,0.0665486,0.478372,-0.00334904,0.0553885,0.858575,5,0.1,5,3.7,3.31936,2.3212,0.595697,-0.0991572,0.618019,0.00422532,0.286505,-0.402525,-0.00390038,0.0247763,0.223898,5,0.1,6,3.7,0.0246359,-1.6993,0.601077,-0.32784,-0.209728,-0.00103777,0.322668,0.100404,0.00103191,0.00754083,0.140265,5,0.1,7,3.7,-0.991716,4.0318,0.5,0.139156,0.0553638,0,1.33323,-0.145853,0,0.0128189,3.30439,5,0.1,8,3.7,2.72763,2.91553,0.601188,-0.293737,-0.0705797,-0.00190595,0.230655,0.190601,0.00164285,0.0214218,0.138733,5,0.1,9,3.7,3.55947,-0.841038,0.56866,-0.040577,0.866026,0.0116134,0.00141561,-3.72529e-06,-0.000409782,0.0303676,2.27076,5,0.1,10,3.7,-0.369688,0.105878,0.60317,0.0661753,0.340475,-0.0030159,-0.0636186,-0.0364674,0.00287965,0.0428982,0.128548,5,0.1,11,3.7,-0.302466,1.29511,0.596033,-0.0161102,0.693427,0.0239584,-0.0128169,0.351623,0.0597276,0.0182573,2.86634,5,0.1,12,3.7,0.496355,1.74673,0.631335,0.0268892,-0.119677,-0.0161009,0.103701,0.140049,-0.0387579,0.00956217,0.651653,5,0.1,13,3.7,0.26154,1.70915,0.599262,0.198728,-0.351866,-0.0191167,-0.068062,-0.0420511,0.00430644,0.010515,0.7539,5,0.1,14,3.7,-1.54202,2.39324,0.526813,0.450845,-0.0948552,0.0036804,-0.0108704,-0.590965,0.0752434,0.0150523,0.649214,5,0.1,15,3.7,0.794159,1.48997,0.500001,0.292973,-0.287304,-1.49012e-06,0.0929497,0.0175834,0,0.00781811,0.192759,5,0.1,16,3.7,-1.46338,2.32217,1.002,-0.0744438,-0.346724,0.0574166,-0.492372,-0.398934,-0.269547,0.0150744,0.358427,5,0.1,17,3.7,-2.24787,-3.40779,0.590401,-0.816491,0.233588,0.00887308,0.217557,-0.138745,-0.00621378,0.0121055,0.567386,5,0.1,18,3.7,3.52303,0.595393,0.536635,0.0234015,0.866026,0.00233511,-0.000685453,-3.72529e-06,-7.82311e-05,0.00844317,2.27156,5,0.1,19,3.7,3.50473,1.19877,0.62944,-0.168689,0.866026,-0.0047911,0.0788718,0,-0.0555143,0.0217967,1.98665,5,0.1
0,3.8,-0.319679,2.37085,0.747232,-0.288309,-0.0804722,0.15182,0.532895,-0.928879,-0.172079,0.0114833,1.33492,5,0.1,1,3.8,-0.312928,-3.76196,0.669266,0.00628978,-0.0176072,0.00146478,-0.0347644,0.097394,-0.00810623,0.0090002,0.000281415,5,0.1,2,3.8,0.476695,-3.6198,0.610931,-0.866025,-0.210547,0.0149429,-1.43051e-05,0.0631809,-0.00444055,0.0110183,2.34373,5,0.1,3,3.8,-0.000965439,2.12157,0.5,-0.383121,-0.383359,0,0.206209,0.108242,0,0.010406,0.17469,5,0.1,4,3.8,-3.28951,-2.81444,0.599332,-0.0191927,0.788832,0.000940263,0.053525,0.161171,-0.0026226,0.0506231,0.59365,5,0.1,5,3.8,3.31081,2.38093,0.5961,-0.0728667,0.575566,0.00383854,0.234246,-0.460982,-0.00396371,0.0161258,0.155965,5,0.1,6,3.8,-0.0065554,-1.71974,0.600978,-0.296004,-0.198865,-0.000938773,0.321293,0.123084,0.00104308,0.0154929,0.233939,5,0.1,7,3.8,-0.970636,4.03665,0.5,0.285032,0.0420094,0,1.49131,-0.121832,0,0.0168409,2.78778,5,0.1,8,3.8,2.69945,2.90941,0.601005,-0.269455,-0.0519216,-0.00173897,0.260353,0.180006,0.00172853,0.0227225,0.250732,5,0.1,9,3.8,3.55543,-0.754436,0.569818,-0.0402033,0.866026,0.0115067,0.00762939,0,-0.00223517,0.0370462,2.27081,5,0.1,10,3.8,-0.363382,0.139672,0.602883,0.059969,0.334381,-0.00273436,-0.0622123,-0.0977069,0.00283122,0.0625174,0.157291,5,0.1,11,3.8,-0.303885,1.36609,0.598694,-0.00930503,0.723964,0.0288844,0.162661,0.216246,0.0376105,0.0352763,2.91591,5,0.1,12,3.8,0.5,1.73546,0.629559,0.0503138,-0.105798,-0.0191405,0.355452,0.139236,-0.0216365,0.0244551,0.830036,5,0.1,13,3.8,0.281256,1.67383,0.597384,0.196967,-0.353113,-0.018312,0.015378,0.0338554,0.0119507,0.0379649,0.628882,5,0.1,14,3.8,-1.49713,2.38075,0.527557,0.445366,-0.154579,0.0111371,-0.113547,-0.572801,0.0708103,0.0280959,0.500017,5,0.1,15,3.8,0.823812,1.4614,0.500001,0.2987,-0.283128,-1.49012e-06,0.00944734,0.0761747,0,0.0328455,0.603545,5,0.1,16,3.8,-1.47309,2.28576,1.00656,-0.117445,-0.378412,0.0351429,-0.359178,-0.219107,-0.180125,0.0375607,0.253998,5,0.1,17,3.8,-2.32825,-3.38516,0.591256,-0.78854,0.218612,0.00822693,0.365019,-0.166178,-0.00694394,0.0369231,0.389523,5,0.1,18,3.8,3.52536,0.681995,0.536868,0.0231981,0.866026,0.00231415,-0.00441074,0,-0.000447035,0.0320806,2.27157,5,0.1,19,3.8,3.48828,1.28538,0.628708,-0.159979,0.866026,-0.00959337,0.100017,0,-0.0399053,0.0253212,1.57866,5,0.1
0,3.9,-0.345741,2.35758,0.761458,-0.232169,-0.189114,0.131889,0.578459,-1.17561,-0.221375,0.0114833,1.33492,5,0.1,1,3.9,-0.31246,-3.76327,0.669375,0.00320049,-0.00895299,0.000744592,-0.0270009,0.0756234,-0.00629202,0.0090002,0.000281415,5,0.1,2,3.9,0.390343,-3.64048,0.612373,-0.858031,-0.202215,0.013643,0.178697,0.105828,-0.0201426,0.0110183,2.34373,5,0.1,3,3.9,-0.0381906,2.08404,0.5,-0.360681,-0.364675,0,0.24807,0.260681,0,0.010406,0.17469,5,0.1,4,3.9,-3.29119,-2.73481,0.599414,-0.0144783,0.80222,0.000714045,0.0412613,0.0741482,-0.00194088,0.0506231,0.59365,5,0.1,5,3.9,3.30459,2.43632,0.596465,-0.0526045,0.533067,0.0034784,0.163183,-0.406459,-0.00335649,0.0161258,0.155965,5,0.1,6,3.9,-0.0347953,-1.73884,0.600889,-0.270799,-0.181442,-0.000859424,0.200491,0.218764,0.000603497,0.0154929,0.233939,5,0.1,7,3.9,-0.934095,4.04028,0.5,0.449201,0.0309005,0,1.69856,-0.100553,0,0.0168409,2.78778,5,0.1,8,3.9,2.67382,2.90509,0.60084,-0.242775,-0.0349108,-0.00156518,0.274822,0.157878,0.00175834,0.0227225,0.250732,5,0.1,9,3.9,3.55143,-0.667833,0.570962,-0.0398628,0.866026,0.0114053,0.00157952,-3.72529e-06,-0.000473112,0.0370462,2.27081,5,0.1,10,3.9,-0.357642,0.172928,0.602621,0.0552905,0.33303,-0.00252109,-0.0353456,0.0407518,0.00161678,0.0625174,0.157291,5,0.1,11,3.9,-0.303709,1.43866,0.601894,0.0160902,0.718887,0.036087,0.35619,-0.295408,0.0963621,0.0352763,2.91591,5,0.1,12,3.9,0.506938,1.72554,0.62755,0.0892016,-0.0928663,-0.0208959,0.401895,0.121579,-0.0128746,0.0244551,0.830036,5,0.1,13,3.9,0.301604,1.63877,0.59563,0.214618,-0.347139,-0.0166026,0.29302,0.0936836,0.0214837,0.0379649,0.628882,5,0.1,14,3.9,-1.45311,2.36231,0.529033,0.435075,-0.214598,0.0183678,-0.109777,-0.596493,0.0707172,0.0280959,0.500017,5,0.1,15,3.9,0.852893,1.43434,0.500001,0.275575,-0.250544,-1.49012e-06,-0.431374,0.529513,0,0.0328455,0.603545,5,0.1,16,3.9,-1.48653,2.24688,1.00929,-0.150311,-0.398257,0.0207804,-0.288382,-0.159323,-0.110924,0.0375607,0.253998,5,0.1,17,3.9,-2.4054,-3.36409,0.592046,-0.754908,0.20317,0.00758832,0.335515,-0.149146,-0.00607595,0.0369231,0.389523,5,0.1,18,3.9,3.52767,0.768598,0.537098,0.023004,0.866026,0.00229441,-0.000849366,-3.72529e-06,-8.9407e-05,0.0320806,2.27157,5,0.1,19,3.9,3.47274,1.37191,0.627562,-0.150854,0.863485,-0.0131672,0.0879616,-0.0759587,-0.0308082,0.0253212,1.57866,5,0.1
0,4,-0.366069,2.33284,0.773495,-0.17466,-0.303692,0.108498,0.562757,-1.06514,-0.242144,0.0176982,0.598346,5,0.1,1,4,-0.312262,-3.76382,0.669421,0.000886619,-0.00247359,0.000205636,-0.0193268,0.054121,-0.00450015,0.0119872,0.000125938,5,0.1,2,4,0.305852,-3.66009,0.613621,-0.827328,-0.189036,0.0111714,0.446103,0.158787,-0.0281632,0.0117816,2.53539,5,0.1,3,4,-0.0729138,2.04909,0.5,-0.332655,-0.332218,0,0.315476,0.383258,0,0.0139777,0.144062,5,0.1,4,4,-3.29244,-2.65458,0.599477,-0.010848,0.798285,0.000545382,0.0318289,-0.174284,-0.00143051,0.0608427,0.398503,5,0.1,5,4,3.3,2.48756,0.596797,-0.04071,0.491327,0.00314862,0.0777245,-0.440359,-0.00333786,0.025537,0.107958,5,0.1,6,4,-0.0609532,-1.75578,0.600805,-0.252827,-0.156361,-0.000806153,0.172053,0.277042,0.000476837,0.0150841,0.21117,5,0.1,7,4,-0.880973,4.0429,0.5,0.60858,0.0218511,0,1.42086,-0.0810623,0,0.0137374,2.43787,5,0.1,8,4,2.65095,2.90234,0.600692,-0.214267,-0.0207186,-0.00138432,0.295877,0.124693,0.00187755,0.0210408,0.244685,5,0.1,9,4,3.54745,-0.58123,0.572098,-0.0394821,0.866026,0.0112936,0.00786781,0,-0.00223517,0.055023,2.27085,5,0.1,10,4,-0.352272,0.206462,0.602376,0.052204,0.337343,-0.00237972,-0.0293404,0.0235581,0.0013411,0.0793745,0.0957472,5,0.1,11,4,-0.3,1.50838,0.606013,0.0608183,0.669217,0.0463858,0.516266,-0.677049,0.101984,0.0285704,3.04517,5,0.1,12,4,0.517805,1.71685,0.625414,0.127152,-0.08111,-0.0216231,0.342101,0.115156,-0.0013113,0.0279009,3.10661,5,0.1,13,4,0.324687,1.60468,0.594088,0.24773,-0.333089,-0.0141546,0.33544,0.191987,0.0268221,0.0185848,0.498191,5,0.1,14,4,-1.41026,2.33804,0.531202,0.420469,-0.268555,0.0247538,-0.194192,-0.460267,0.0547767,0.0135318,0.36865,5,0.1,15,4,0.877843,1.41237,0.5,0.219771,-0.185505,-1.49012e-06,-0.651747,0.734329,0,0.028684,0.507111,5,0.1,16,4,-1.50282,2.20648,1.01091,-0.173521,-0.407219,0.0122607,-0.169516,-0.00762939,-0.0626445,0.0247479,0.172698,5,0.1,17,4,-2.47907,-3.34453,0.592775,-0.716746,0.187689,0.00697076,0.446796,-0.164986,-0.0064671,0.0282959,0.263644,5,0.1,18,4,3.52996,0.8552,0.537327,0.0227928,0.866026,0.00227392,-0.00441074,0,-0.000476837,0.0315958,2.27159,5,0.1,19,4,3.45811,1.45757,0.626112,-0.141466,0.845915,-0.0156313,0.103831,-0.299513,-0.0180304,0.0464445,1.42484,5,0.1
0,4.1,-0.380816,2.29744,0.783165,-0.121369,-0.400919,0.0852616,0.497509,-0.852898,-0.221539,0.0176982,0.598346,5,0.1,1,4.1,-0.31226,-3.76383,0.669421,-0.000742683,0.00208877,-0.000173599,-0.013331,0.0373274,-0.00309944,0.0119872,0.000125938,5,0.1,2,4.1,0.225869,-3.67818,0.614549,-0.767467,-0.172734,0.0069919,0.737791,0.169203,-0.0519566,0.0117816,2.53539,5,0.1,3,4.1,-0.104694,2.01802,0.5,-0.303618,-0.287168,0,0.274726,0.504494,0,0.0139777,0.144062,5,0.1,4,4.1,-3.29338,-2.57562,0.599525,-0.00810735,0.780188,0.000425242,0.0233799,-0.214249,-0.00100583,0.0608427,0.398503,5,0.1,5,4.1,3.29616,2.53463,0.597096,-0.037308,0.450894,0.00284677,-0.00077486,-0.382856,-0.00279769,0.025537,0.107958,5,0.1,6,4.1,-0.0854829,-1.76996,0.600727,-0.238537,-0.126733,-0.000768248,0.125471,0.308752,0.00031665,0.0150841,0.21117,5,0.1,7,4.1,-0.813391,4.04471,0.5,0.738035,0.0147261,0,1.12254,-0.061959,0,0.0137374,2.43787,5,0.1,8,4.1,2.63099,2.90089,0.600563,-0.185297,-0.008329,-0.00120196,0.284433,0.114888,0.00178069,0.0210408,0.244685,5,0.1,9,4.1,3.54353,-0.494628,0.573221,-0.03911,0.866026,0.0111888,0.00189245,-3.57628e-06,-0.000525266,0.055023,2.27085,5,0.1,10,4.1,-0.347175,0.240394,0.602144,0.0498809,0.341611,-0.00227317,-0.0197608,0.0423612,0.000908971,0.0793745,0.0957472,5,0.1,11,4.1,-0.290576,1.5713,0.611363,0.133583,0.583873,0.0621851,0.872849,-0.997074,0.196312,0.0285704,3.04517,5,0.1,12,4.1,0.531665,1.70897,0.623281,0.145267,-0.0793736,-0.0207253,0.0548884,-0.0594407,0.0179186,0.0279009,3.10661,5,0.1,13,4.1,0.351442,1.57241,0.592814,0.289404,-0.311297,-0.0112671,0.458714,0.245966,0.0302047,0.0185848,0.498191,5,0.1,14,4.1,-1.36913,2.3089,0.533947,0.402337,-0.313591,0.0300341,-0.182807,-0.416502,0.0484623,0.0135318,0.36865,5,0.1,15,4.1,0.896266,1.39779,0.5,0.146501,-0.103962,-1.39698e-06,-0.78395,0.862665,3.72529e-06,0.028684,0.507111,5,0.1,16,4.1,-1.52095,2.16574,1.01189,-0.18821,-0.406874,0.00797454,-0.116497,0.0295192,-0.0259653,0.0247479,0.172698,5,0.1,17,4.1,-2.54864,-3.32654,0.593441,-0.675297,0.172462,0.00637835,0.405237,-0.145018,-0.00558421,0.0282959,0.263644,5,0.1,18,4.1,3.53223,0.941803,0.537553,0.0225931,0.866026,0.00225129,-0.000923872,0,-0.000115484,0.0315958,2.27159,5,0.1,19,4.1,3.44445,1.53966,0.624467,-0.131941,0.78707,-0.0171518,0.0912249,-0.827894,-0.0117645,0.0464445,1.42484,5,0.1
0,4.2,-0.39061,2.25361,0.790625,-0.0760488,-0.469929,0.0643715,0.405535,-0.510573,-0.195533,0.0194297,0.331068,5,0.1,1,4.2,-0.312391,-3.76346,0.669391,-0.00179857,0.00503659,-0.000418723,-0.00785291,0.0221729,-0.00184774,0.0118642,4.2766e-05,5,0.1,2,4.2,0.153198,-3.69458,0.614972,-0.682409,-0.154907,0.00139475,0.950307,0.188351,-0.0573099,0.0162975,2.42536,5,0.1,3,4.2,-0.133686,1.99194,0.5,-0.276106,-0.23374,0,0.282094,0.553131,0,0.0233956,0.19648,5,0.1,4,4.2,-3.29409,-2.49892,0.599563,-0.00609159,0.751019,0.000341237,0.0171661,-0.386596,-0.000745058,0.0529278,0.263319,5,0.1,5,4.2,3.29236,2.5778,0.597367,-0.0392735,0.412285,0.00257194,-0.0317097,-0.39947,-0.00274181,0.0180727,0.222485,5,0.1,6,4.2,-0.108708,-1.78108,0.600651,-0.225727,-0.0958174,-0.000734627,0.139076,0.304341,0.000357628,0.00982475,0.197687,5,0.1,7,4.2,-0.734754,4.0459,0.5,0.826329,0.00936985,0,0.621438,-0.0455379,0,0.0122991,0.31776,5,0.1,8,4.2,2.61386,2.90057,0.600452,-0.157255,0.000977516,-0.00102669,0.276923,0.0667572,0.00175834,0.0149728,1.22511,5,0.1,9,4.2,3.53963,-0.408025,0.574336,-0.0387013,0.866025,0.0110731,0.00798702,1.43051e-05,-0.00223517,0.0232204,2.2709,5,0.1,10,4.2,-0.342288,0.274668,0.601921,0.0477992,0.342519,-0.00217706,-0.0237375,-0.0377297,0.00107288,0.0357257,0.164147,5,0.1,11,4.2,-0.272714,1.6244,0.618599,0.223765,0.475773,0.0825465,0.880763,-1.13797,0.197589,0.0141122,2.92506,5,0.1,12,4.2,0.546219,1.70059,0.62132,0.143954,-0.0892669,-0.0182882,-0.0575483,-0.121951,0.0297129,0.0081646,2.95454,5,0.1,13,4.2,0.382614,1.54261,0.591839,0.332663,-0.283626,-0.00824183,0.377744,0.308037,0.0297129,0.0125917,0.388363,5,0.1,14,4.2,-1.32989,2.27569,0.537166,0.3815,-0.347811,0.0340477,-0.243664,-0.251532,0.0301898,0.01102,0.260251,5,0.1,15,4.2,0.906981,1.39169,0.5,0.068216,-0.0189096,-1.49012e-06,-0.759125,0.812888,0,0.0140323,0.426625,5,0.1,16,4.2,-1.54022,2.12536,1.0126,-0.195557,-0.398833,0.00654459,-0.0255704,0.141025,-0.00500679,0.0181321,0.114519,5,0.1,17,4.2,-2.61406,-3.31002,0.594051,-0.631821,0.157768,0.0058189,0.479937,-0.152588,-0.00575185,0.00859718,0.177121,5,0.1,18,4.2,3.53448,1.02841,0.537777,0.0223696,0.866026,0.00222772,-0.00429153,-5.96046e-05,-0.000447035,0.0180039,2.29792,5,0.1,19,4.2,3.43173,1.61369,0.622708,-0.122458,0.689098,-0.0178859,0.101566,-1.09351,-0.002563,0.0146959,1.34241,5,0.1
0,4.3,-0.396363,2.2044,0.796465,-0.040778,-0.51045,0.0556956,0.299627,-0.286952,0.00142679,0.0194297,0.331068,5,0.1,1,4.3,-0.312604,-3.76286,0.669341,-0.00237906,0.0066746,-0.000555161,-0.00387803,0.0109524,-0.000912696,0.0118642,4.2766e-05,5,0.1,2,4.3,0.0898949,-3.70925,0.614783,-0.582129,-0.139447,-0.0054948,1.04182,0.128806,-0.0761151,0.0162975,2.42536,5,0.1,3,4.3,-0.160169,1.97089,0.5,-0.25583,-0.190971,0,0.144459,0.320464,0,0.0233956,0.19648,5,0.1,4,4.3,-3.29462,-2.42569,0.599594,-0.0046581,0.713659,0.000281073,0.0118613,-0.382736,-0.000476837,0.0529278,0.263319,5,0.1,5,4.3,3.28783,2.61736,0.597613,-0.0549775,0.381571,0.00236118,-0.251606,-0.240088,-0.0016354,0.0180727,0.222485,5,0.1,6,4.3,-0.130628,-1.78919,0.60058,-0.212917,-0.0667864,-0.000701752,0.124688,0.272416,0.000331551,0.00982475,0.197687,5,0.1,7,4.3,-0.64999,4.04664,0.5,0.860375,0.00551492,0,0.101827,-0.0320673,0,0.0122991,0.31776,5,0.1,8,4.3,2.59839,2.90096,0.600358,-0.161783,0.00605583,-0.000858027,-0.298187,0.023365,0.00161305,0.0149728,1.22511,5,0.1,9,4.3,3.53579,-0.321423,0.575436,-0.0383079,0.866025,0.0109647,0.00217557,-1.78814e-06,-0.000584871,0.0232204,2.2709,5,0.1,10,4.3,-0.337619,0.309002,0.601709,0.0456184,0.346116,-0.00207806,-0.0215787,0.0797864,0.000979751,0.0357257,0.164147,5,0.1,11,4.3,-0.245258,1.66657,0.627753,0.330048,0.371915,0.099532,1.16494,-0.88577,0.137497,0.0141122,2.92506,5,0.1,12,4.3,0.559981,1.69101,0.619656,0.129554,-0.102429,-0.0148633,-0.164926,-0.131689,0.0375882,0.0081646,2.95454,5,0.1,13,4.3,0.417574,1.51578,0.591183,0.364264,-0.253228,-0.004726,0.241773,0.302881,0.038784,0.0125917,0.388363,5,0.1,14,4.3,-1.29289,2.23969,0.540716,0.358769,-0.371213,0.0368228,-0.222839,-0.197619,0.0234395,0.01102,0.260251,5,0.1,15,4.3,0.910084,1.3938,0.5,-0.004985,0.0600364,-1.02445e-06,-0.689343,0.745848,1.11759e-05,0.0140323,0.426625,5,0.1,16,4.3,-1.55987,2.08617,1.01326,-0.19689,-0.384768,0.0069797,0.00527501,0.152633,0.0115186,0.0181321,0.114519,5,0.1,17,4.3,-2.67498,-3.29496,0.594606,-0.587406,0.143771,0.00529429,0.427514,-0.13189,-0.00491366,0.00859718,0.177121,5,0.1,18,4.3,3.53692,1.115,0.537972,0.0284974,0.865554,0.00145575,0.111476,-0.0188053,-0.013452,0.0180039,2.29792,5,0.1,19,4.3,3.4198,1.67668,0.620911,-0.117587,0.568128,-0.0179944,0.00947714,-1.25331,0.000905246,0.0146959,1.34241,5,0.1
0,4.4,-0.399116,2.15238,0.802227,-0.0159904,-0.525355,0.06098,0.197694,-0.00441074,0.0881553,0.0192225,0.218031,5,0.1,1,4.4,-0.312855,-3.76216,0.669282,-0.00259876,0.00729561,-0.000606477,-0.000625849,0.00190735,-0.000149012,0.00886497,0.394847,5,0.1,2,4.4,0.0369479,-3.72259,0.613851,-0.476533,-0.127751,-0.0130653,1.05871,0.110984,-0.0720322,0.0133721,2.36544,5,0.1,3,4.4,-0.185116,1.95314,0.5,-0.24356,-0.166336,0,0.11646,0.187159,0,0.0161093,0.262267,5,0.1,4,4.4,-3.29504,-2.35637,0.59962,-0.00366569,0.670785,0.000241399,0.00834465,-0.489473,-0.000327826,0.0368578,0.191817,5,0.1,5,4.4,3.28092,2.65441,0.597841,-0.0841558,0.359881,0.00221729,-0.308394,-0.212431,-0.00140071,0.0177684,0.15189,5,0.1,6,4.4,-0.15127,-1.79458,0.600511,-0.199516,-0.0419557,-0.000666082,0.148512,0.221789,0.000447035,0.0121417,0.410216,5,0.1,7,4.4,-0.56413,4.04705,0.5,0.849809,0.00287294,0,-0.324265,-0.0214577,0,0.0126331,2.33498,5,0.1,8,4.4,2.58024,2.90154,0.60028,-0.204575,0.00417233,-0.000701845,-0.503778,-0.064373,0.00146031,0.015352,1.0198,5,0.1,9,4.4,3.53197,-0.23482,0.576528,-0.0378847,0.866025,0.0108466,0.00810623,0,-0.00229478,0.0292944,2.27119,5,0.1,10,4.4,-0.333173,0.344006,0.601506,0.0431977,0.353314,-0.00196844,-0.0279844,0.0424385,0.0013113,0.0406725,0.0990258,5,0.1,11,4.4,-0.2065,1.7,0.638265,0.442885,0.303295,0.109334,1.03306,-0.493288,0.0560582,0.00937738,0.837914,5,0.1,12,4.4,0.572332,1.68016,0.618362,0.120522,-0.113958,-0.0109866,0.0143647,-0.0920296,0.0390112,0.00773113,2.86048,5,0.1,13,4.4,0.454902,1.49198,0.590907,0.379027,-0.222585,-0.000804663,0.0461042,0.311792,0.0382364,0.0119193,0.322025,5,0.1,14,4.4,-1.25817,2.2018,0.544491,0.334933,-0.384188,0.0384256,-0.261962,-0.0491142,0.00739098,0.0132879,0.177783,5,0.1,15,4.4,0.906359,1.40329,0.5,-0.0670254,0.126842,0,-0.540733,0.576258,0,0.0225942,0.664833,5,0.1,16,4.4,-1.57944,2.04856,1.01403,-0.193468,-0.366247,0.0084579,0.0673532,0.225782,0.0164509,0.0131793,0.128915,5,0.1,17,4.4,-2.73154,-3.28124,0.595111,-0.543082,0.130624,0.00480711,0.472069,-0.134468,-0.00494719,0.00981712,0.118716,5,0.1,18,4.4,3.54042,1.20131,0.538039,0.0419378,0.858498,-0.000189245,0.145435,-0.150502,-0.018239,0.0252064,2.35337,5,0.1,19,4.4,3.40803,1.72742,0.619125,-0.118166,0.449681,-0.0176236,-0.0107288,-1.07574,0.00685453,0.0308417,1.22265,5,0.1
0,4.5,-0.399866,2.09996,0.808968,-0.000317441,-0.521127,0.0753938,0.119174,0.100911,0.182267,0.0192225,0.218031,5,0.1,1,4.5,-0.314024,-3.76153,0.669367,-0.0283568,0.00412278,0.00351118,-0.456892,-0.058189,0.0732876,0.00886497,0.394847,5,0.1,2,4.5,-0.0055924,-3.73507,0.612156,-0.376128,-0.123892,-0.0210017,0.947533,-0.0158995,-0.0821948,0.0133721,2.36544,5,0.1,3,4.5,-0.208947,1.9369,0.5,-0.233376,-0.162981,0,0.0972888,-0.0847578,0,0.0161093,0.262267,5,0.1,4,4.5,-3.29521,-2.29164,0.599642,0.00144541,0.624557,0.000216532,0.0842512,-0.453666,-0.000182539,0.0368578,0.191817,5,0.1,5,4.5,3.27112,2.68947,0.598057,-0.110163,0.34231,0.00210349,-0.20878,-0.155672,-0.000983477,0.0177684,0.15189,5,0.1,6,4.5,-0.170499,-1.79768,0.600447,-0.18516,-0.0205165,-0.000622589,0.143399,0.196494,0.000435859,0.0121417,0.410216,5,0.1,7,4.5,-0.479815,4.04686,0.5,0.843887,-0.00959635,0,0.121216,-0.204444,0,0.0126331,2.33498,5,0.1,8,4.5,2.55681,2.90155,0.600217,-0.26739,-0.0055898,-0.00056522,-0.699997,-0.152066,0.00127032,0.015352,1.0198,5,0.1,9,4.5,3.52813,-0.148218,0.577602,-0.0398658,0.866025,0.0106308,-0.0401735,1.3411e-06,-0.00243261,0.0292944,2.27119,5,0.1,10,4.5,-0.32899,0.379608,0.601316,0.0404604,0.358821,-0.00184076,-0.0278335,0.0484157,0.00129268,0.0406725,0.0990258,5,0.1,11,4.5,-0.158764,1.72688,0.649673,0.496161,0.226002,0.120302,0.0919262,-0.986882,0.144802,0.00937738,0.837914,5,0.1,12,4.5,0.584872,1.66861,0.617652,0.133637,-0.114228,-0.00162842,0.216432,0.0745654,0.135232,0.00773113,2.86048,5,0.1,13,4.5,0.492736,1.47104,0.591054,0.374714,-0.198269,0.00400841,-0.130024,0.189133,0.0546277,0.0119193,0.322025,5,0.1,14,4.5,-1.22592,2.16316,0.548367,0.310635,-0.387947,0.0390057,-0.233933,-0.0108331,0.00270456,0.0132879,0.177783,5,0.1,15,4.5,0.897579,1.41835,0.500461,-0.10284,0.169727,0.0130845,-0.195891,0.290297,0.232615,0.0225942,0.664833,5,0.1,16,4.5,-1.5986,2.01302,1.01497,-0.190876,-0.344645,0.0104535,-0.000312924,0.216618,0.0218004,0.0131793,0.128915,5,0.1,17,4.5,-2.78363,-3.26881,0.595569,-0.499602,0.11836,0.00435747,0.413537,-0.114605,-0.00418723,0.00981712,0.118716,5,0.1,18,4.5,3.5457,1.28667,0.537905,0.0664622,0.850089,-0.00267783,0.316411,-0.0638142,-0.0294559,0.0252064,2.35337,5,0.1,19,4.5,3.39607,1.76737,0.617398,-0.121595,0.355012,-0.0168975,-0.0472814,-0.746101,0.00810251,0.0308417,1.22265,5,0.1
0,4.6,-0.399408,2.04861,0.817453,0.00848696,-0.503284,0.094305,0.0599325,0.262976,0.182569,0.00748135,0.567519,5,0.1,1,4.6,-0.319506,-3.76146,0.670143,-0.0837415,-0.00306964,0.0124142,-0.60609,-0.0801086,0.0975728,0.014122,0.285531,5,0.1,2,4.6,-0.038665,-3.74763,0.609659,-0.287331,-0.12778,-0.028725,0.827219,-0.0482798,-0.0690222,0.016907,2.18457,5,0.1,3,4.6,-0.231762,1.91997,0.5,-0.2224,-0.177047,0,0.129156,-0.169456,0,0.00993716,0.193543,5,0.1,4,4.6,-3.29458,-2.23151,0.599663,0.0114739,0.576937,0.000201166,0.108838,-0.511289,-0.000119209,0.0799543,0.129352,5,0.1,5,4.6,3.25924,2.72291,0.598262,-0.125498,0.325906,0.00200272,-0.0966787,-0.184298,-0.00113249,0.0290502,0.118716,5,0.1,6,4.6,-0.188275,-1.79886,0.600387,-0.170041,-0.00427961,-0.000576675,0.162132,0.122368,0.000536442,0.0150094,0.785053,5,0.1,7,4.6,-0.394652,4.04474,0.5,0.859436,-0.0338435,0,0.12821,-0.262022,0,0.0163646,2.27853,5,0.1,8,4.6,2.5266,2.9,0.600166,-0.335443,-0.0274122,-0.000447035,-0.622392,-0.274897,0.00113249,0.0207195,0.818454,5,0.1,9,4.6,3.52391,-0.0616152,0.57865,-0.0445902,0.866025,0.0102907,-0.0487566,1.19209e-06,-0.00467896,0.027957,2.26995,5,0.1,10,4.6,-0.32509,0.415613,0.601138,0.0374541,0.359739,-0.00170171,-0.0329763,-0.0433028,0.00151992,0.054895,0.165612,5,0.1,11,4.6,-0.109834,1.74417,0.662449,0.472263,0.117609,0.135073,-0.519425,-1.12969,0.136882,0.00892723,0.267369,5,0.1,12,4.6,0.599438,1.65775,0.618236,0.158264,-0.101262,0.0137672,0.252187,0.174582,0.162661,0.0141266,2.81732,5,0.1,13,4.6,0.529285,1.45205,0.591732,0.353618,-0.182194,0.00952631,-0.288308,0.143468,0.0531077,0.00722784,0.262232,5,0.1,14,4.6,-1.19604,2.12448,0.552263,0.286475,-0.383824,0.0387162,-0.256062,0.103235,-0.00941753,0.0118588,0.118972,5,0.1,15,4.6,0.886745,1.43637,0.503119,-0.109965,0.186655,0.0413552,0.0360608,0.0569224,0.310123,0.00796864,0.534367,5,0.1,16,4.6,-1.6177,1.9797,1.01612,-0.190899,-0.321198,0.0125289,0.0110269,0.25934,0.0184774,0.00861745,0.158606,5,0.1,17,4.6,-2.83151,-3.25754,0.595984,-0.457674,0.10705,0.00394583,0.436306,-0.114202,-0.00417233,0.00920457,0.117433,5,0.1,18,4.6,3.55401,1.37119,0.537486,0.100183,0.837877,-0.00571609,0.33617,-0.212908,-0.0297725,0.0201144,2.3918,5,0.1,19,4.6,3.38369,1.8,0.615754,-0.125802,0.305891,-0.0159338,-0.0290871,-0.253439,0.0115037,0.0138483,1.03373,5,0.1
0,4.7,-0.398398,2.00064,0.828247,0.0105087,-0.446985,0.125119,-0.012733,0.808761,0.395648,0.00748135,0.567519,5,0.1,1,4.7,-0.331178,-3.76215,0.671966,-0.151392,-0.0103123,0.0247614,-0.707865,-0.0637174,0.139866,0.014122,0.285531,5,0.1,2,4.7,-0.0640321,-3.7608,0.60648,-0.226823,-0.136846,-0.0344426,0.417778,-0.116661,-0.0445284,0.016907,2.18457,5,0.1,3,4.7,-0.253376,1.90124,0.5,-0.209888,-0.198664,0,0.127482,-0.239462,0,0.00993716,0.193543,5,0.1,4,4.7,-3.29284,-2.17625,0.599683,0.0238143,0.529315,0.000193249,0.130743,-0.45681,-4.84288e-05,0.0799543,0.129352,5,0.1,5,4.7,3.24648,2.75463,0.598457,-0.127194,0.308724,0.00189915,0.0536442,-0.170052,-0.00101328,0.0290502,0.118716,5,0.1,6,4.7,-0.204453,-1.79869,0.600332,-0.153339,0.006954,-0.000521261,0.172779,0.0762641,0.000569969,0.0150094,0.785053,5,0.1,7,4.7,-0.308311,4.03989,0.5,0.865569,-0.0641562,0,0.0173637,-0.325233,0,0.0163646,2.27853,5,0.1,8,4.7,2.48982,2.8956,0.600127,-0.400379,-0.062643,-0.000343844,-0.636131,-0.40251,0.000938773,0.0207195,0.818454,5,0.1,9,4.7,3.51916,0.0249873,0.579658,-0.050832,0.866025,0.00989502,-0.0696033,0,-0.00368431,0.027957,2.26995,5,0.1,10,4.7,-0.321507,0.451631,0.600976,0.0342192,0.362454,-0.00155298,-0.0323858,0.0678767,0.00148639,0.054895,0.165612,5,0.1,11,4.7,-0.0652547,1.75036,0.67684,0.418821,0.00739321,0.15418,-0.549329,-1.04907,0.222918,0.00892723,0.267369,5,0.1,12,4.7,0.616407,1.64883,0.620478,0.179756,-0.0745658,0.031371,0.171121,0.337467,0.180617,0.0141266,2.81732,5,0.1,13,4.7,0.563264,1.43437,0.592926,0.326341,-0.172745,0.0140992,-0.266332,0.0594631,0.037875,0.00722784,0.262232,5,0.1,14,4.7,-1.1686,2.0866,0.556087,0.262873,-0.373343,0.0377337,-0.224262,0.118896,-0.0114739,0.0118588,0.118972,5,0.1,15,4.7,0.877006,1.45488,0.508258,-0.0757063,0.179791,0.0565616,0.584021,-0.175916,0.0175312,0.00796864,0.534367,5,0.1,16,4.7,-1.637,1.94866,1.01749,-0.19722,-0.301287,0.015052,-0.11304,0.15761,0.0293404,0.00861745,0.158606,5,0.1,17,4.7,-2.87523,-3.24731,0.596359,-0.417698,0.0980891,0.00356846,0.376612,-0.071317,-0.00350177,0.00920457,0.117433,5,0.1,18,4.7,3.56535,1.45399,0.5368,0.123104,0.818242,-0.00767959,0.130951,-0.205345,-0.0105463,0.0201144,2.3918,5,0.1,19,4.7,3.37094,1.83031,0.614217,-0.129097,0.308452,-0.0148149,-0.0297129,0.237897,0.0112429,0.0138483,1.03373,5,0.1
0,4.8,-0.397485,1.96052,0.842831,0.00715479,-0.351328,0.166756,-0.0489652,1.06066,0.408441,0.0145568,0.910518,5,0.1,1,4.8,-0.349761,-3.76346,0.675147,-0.218554,-0.0156522,0.0387281,-0.606805,-0.0425577,0.132382,0.0106727,0.22193,5,0.1,2,4.8,-0.0850652,-3.77507,0.602859,-0.197525,-0.148273,-0.0375152,0.195842,-0.099659,-0.0165999,0.0118445,1.96771,5,0.1,3,4.8,-0.273687,1.88022,0.5,-0.195844,-0.220889,0,0.157595,-0.187993,0,0.0304589,0.161075,5,0.1,4,4.8,-3.28982,-2.12561,0.599702,0.0363708,0.482923,0.000187755,0.114799,-0.481606,-5.96046e-05,0.0626582,0.150799,5,0.1,5,4.8,3.23422,2.7846,0.598642,-0.116462,0.290102,0.00178814,0.152946,-0.209808,-0.0012219,0.0226292,0.263386,5,0.1,6,4.8,-0.2189,-1.79784,0.600283,-0.13537,0.00741184,-0.000460446,0.186868,-0.0767708,0.000596046,0.00994688,3.26308,5,0.1,7,4.8,-0.221718,4.03187,0.5,0.866025,-0.0955701,0,0,-0.28944,0,0.0152851,2.26156,5,0.1,8,4.8,2.44685,2.8873,0.600097,-0.455809,-0.103152,-0.00025928,-0.443935,-0.387073,0.00077486,0.0265558,0.620433,5,0.1,9,4.8,3.51374,0.11159,0.580628,-0.0573874,0.866026,0.00947863,-0.0568628,-4.76837e-06,-0.00494719,0.0323586,2.26882,5,0.1,10,4.8,-0.31825,0.488199,0.600828,0.0308678,0.368191,-0.00140071,-0.0350624,0.0253022,0.00163913,0.0397822,0.0991286,5,0.1,11,4.8,-0.026166,1.74616,0.693364,0.36251,-0.0878662,0.175779,-0.575842,-0.83822,0.192672,0.0177338,3.59596,5,0.1,12,4.8,0.635061,1.64318,0.624489,0.191455,-0.0376642,0.0483707,0.0590384,0.383496,0.152916,0.0155547,2.6544,5,0.1,13,4.8,0.594543,1.41735,0.594497,0.298828,-0.167871,0.0170335,-0.290066,0.048399,0.0205934,0.0150655,0.209378,5,0.1,14,4.8,-1.14344,2.04997,0.559792,0.240216,-0.357962,0.0362158,-0.234663,0.196934,-0.0196993,0.0150558,0.134569,5,0.1,15,4.8,0.872818,1.47172,0.513679,-0.00476092,0.154817,0.0491276,0.78401,-0.308394,-0.147074,0.00916637,0.329855,5,0.1,16,4.8,-1.65733,1.91927,1.01914,-0.209254,-0.28643,0.017935,-0.109673,0.153244,0.0263453,0.0184521,0.097719,5,0.1,17,4.8,-2.91513,-3.23783,0.596699,-0.380081,0.0916898,0.00322461,0.385165,-0.0613928,-0.00342727,0.00906371,0.09357,5,0.1,18,4.8,3.57803,1.53463,0.536004,0.128043,0.792393,-0.0080213,-0.0243187,-0.330389,0.00280142,0.0181619,2.60815,5,0.1,19,4.8,3.35793,1.8627,0.612793,-0.13054,0.341681,-0.0136226,0.00560284,0.375628,0.012815,0.0177362,0.827772,5,0.1
0,4.9,-0.397007,1.92974,0.861406,0.00249925,-0.272632,0.203057,-0.0434052,0.554726,0.307467,0.0145568,0.910518,5,0.1,1,4.9,-0.374654,-3.76514,0.679749,-0.278626,-0.0169538,0.0537128,-0.566937,0.0119507,0.157442,0.0106727,0.22193,5,0.1,2,4.9,-0.104533,-3.7905,0.599056,-0.19761,-0.160871,-0.0382264,-0.151805,-0.136971,0.00238046,0.0118445,1.96771,5,0.1,3,4.9,-0.292754,1.85741,0.5,-0.187685,-0.233017,0,0.0256598,-0.0540018,0,0.0304589,0.161075,5,0.1,4,4.9,-3.2855,-2.07937,0.599721,0.0505671,0.4449,0.000188593,0.157773,-0.306472,5.58794e-05,0.0626582,0.150799,5,0.1,5,4.9,3.22346,2.81259,0.598815,-0.0976641,0.269652,0.00166912,0.214741,-0.205904,-0.00120699,0.0226292,0.263386,5,0.1,6,4.9,-0.232211,-1.79745,0.600274,-0.136778,-0.00295099,0.000584312,-0.170669,-0.265203,0.0181124,0.00994688,3.26308,5,0.1,7,4.9,-0.135115,4.02081,0.5,0.866025,-0.125782,0,1.49012e-07,-0.298619,0,0.0152851,2.26156,5,0.1,8,4.9,2.39905,2.87497,0.600074,-0.499214,-0.143573,-0.000190176,-0.392824,-0.400722,0.000610948,0.0265558,0.620433,5,0.1,9,4.9,3.50768,0.198192,0.581555,-0.0637691,0.866025,0.00908077,-0.064984,2.98023e-07,-0.00346452,0.0323586,2.26882,5,0.1,10,4.9,-0.315335,0.5252,0.600696,0.0274694,0.371885,-0.00124276,-0.0333209,0.0294261,0.00154227,0.0397822,0.0991286,5,0.1,11,4.9,0.00845635,1.7355,0.711508,0.340504,-0.105072,0.18344,0.0599007,0.376791,-0.0272915,0.0177338,3.59596,5,0.1,12,4.9,0.654639,1.64117,0.630088,0.201014,-0.00409707,0.0634392,0.114046,0.287712,0.141982,0.0155547,2.6544,5,0.1,13,4.9,0.623326,1.40091,0.596274,0.279695,-0.159905,0.0182222,-0.117805,0.109494,0.00372902,0.0150655,0.209378,5,0.1,14,4.9,-1.1204,2.01493,0.563337,0.222039,-0.344547,0.0348622,-0.143327,0.0942647,-0.00965595,0.0150558,0.134569,5,0.1,15,4.9,0.876524,1.48579,0.517678,0.0804639,0.127647,0.0294067,0.879917,-0.239812,-0.233404,0.00916637,0.329855,5,0.1,16,4.9,-1.67878,1.89131,1.02107,-0.219447,-0.273354,0.0206092,-0.0833794,0.120543,0.0254288,0.0184521,0.097719,5,0.1,17,4.9,-2.95152,-3.22904,0.597007,-0.350242,0.0834938,0.00296114,0.234738,-0.0999123,-0.00204518,0.00906371,0.09357,5,0.1,18,4.9,3.59056,1.61137,0.535231,0.120954,0.736132,-0.00728508,-0.111729,-0.717595,0.0111572,0.0181619,2.60815,5,0.1,19,4.9,3.34508,1.89916,0.611492,-0.124761,0.390252,-0.0124121,0.103712,0.544801,0.0117123,0.0177362,0.827772,5,0.1
0,5,-0.39696,1.90469,0.883015,-0.00140145,-0.232929,0.226618,-0.0341535,0.272453,0.157535,0.00871184,0.286957,5,0.1,1,5,-0.405099,-3.76672,0.685882,-0.327256,-0.0140846,0.0685126,-0.386477,0.041604,0.131309,0.00839797,0.184557,5,0.1,2,5,-0.125317,-3.80723,0.595276,-0.219799,-0.173032,-0.0370577,-0.256829,-0.095129,0.0208318,0.0138622,1.7256,5,0.1,3,5,-0.311477,1.83406,0.5,-0.187194,-0.231728,0,-0.000730157,0.0786781,0,0.0202901,0.268624,5,0.1,4,5,-3.27966,-2.0363,0.59974,0.0659466,0.416827,0.000196695,0.141501,-0.275254,2.98023e-05,0.0664052,0.0887639,5,0.1,5,5,3.21481,2.83849,0.598975,-0.0749946,0.2478,0.00154078,0.2321,-0.235438,-0.00140071,0.0238117,0.251743,5,0.1,6,5,-0.247031,-1.8,0.600437,-0.161639,-0.0573516,0.00277311,-0.292242,-0.805259,0.0239313,0.0153019,2.81861,5,0.1,7,5,-0.0485129,4.00683,0.5,0.866025,-0.152528,0,1.19209e-06,-0.22459,0,0.0164333,2.25012,5,0.1,8,5,2.34746,2.85873,0.600058,-0.529099,-0.179756,-0.000135601,-0.183463,-0.308275,0.000476837,0.0168732,0.447222,5,0.1,9,5,3.50101,0.284795,0.582445,-0.0693917,0.866026,0.00870675,-0.043273,-1.43051e-05,-0.00432134,0.0574761,2.26797,5,0.1,10,5,-0.312754,0.562414,0.600579,0.0241347,0.370848,-0.00108927,-0.0336319,-0.0633001,0.00151992,0.0547701,0.0757661,5,0.1,11,5,0.0433416,1.72808,0.729436,0.361046,-0.0335902,0.172605,0.292301,0.959337,-0.178784,0.0143593,2.99568,5,0.1,12,5,0.67528,1.64204,0.63708,0.211142,0.0199199,0.0756711,0.0754297,0.193238,0.0981688,0.0136966,2.49335,5,0.1,13,5,0.650821,1.38556,0.598091,0.270852,-0.146288,0.0178903,-0.0779331,0.161052,-0.00983477,0.0150218,0.16293,5,0.1,14,5,-1.09886,1.98093,0.566777,0.209036,-0.335151,0.0338912,-0.127316,0.110269,-0.0114441,0.0163921,0.0810554,5,0.1,15,5,0.888853,1.49744,0.519404,0.164191,0.106004,0.00490993,0.764847,-0.196636,-0.245839,0.00921583,0.252091,5,0.1,16,5,-1.70103,1.86461,1.02324,-0.224131,-0.260237,0.0227302,-0.00303984,0.150383,0.0157952,0.0100463,0.105642,5,0.1,17,5,-2.98546,-3.22124,0.597294,-0.329113,0.0721991,0.00278056,0.204802,-0.123501,-0.00175834,0.0127919,0.131647,5,0.1,18,5,3.60199,1.68124,0.534567,0.106764,0.660831,-0.00592768,-0.167012,-0.746191,0.0153184,0.011521,2.75074,5,0.1,19,5,3.33324,1.94084,0.61031,-0.110966,0.441813,-0.011225,0.166535,0.449002,0.012219,0.00959591,0.28834,5,0.1
