id,t,px,py,pz,vx,vy,vz,ax,ay,az,planning_time,qp_cost,planning_report,size,id,t,px,py,pz,vx,vy,vz,ax,ay,az,planning_time,qp_cost,planning_report,size,id,t,px,py,pz,vx,vy,vz,ax,ay,az,planning_time,qp_cost,planning_report,size,id,t,px,py,pz,vx,vy,vz,ax,ay,az,planning_time,qp_cost,planning_report,size,id,t,px,py,pz,vx,vy,vz,ax,ay,az,planning_time,qp_cost,planning_report,size,id,t,px,py,pz,vx,vy,vz,ax,ay,az,planning_time,qp_cost,planning_report,size,id,t,px,py,pz,vx,vy,vz,ax,ay,az,planning_time,qp_cost,planning_report,size,id,t,px,py,pz,vx,vy,vz,ax,ay,az,planning_time,qp_cost,planning_report,size,id,t,px,py,pz,vx,vy,vz,ax,ay,az,planning_time,qp_cost,planning_report,size,id,t,px,py,pz,vx,vy,vz,ax,ay,az,planning_time,qp_cost,planning_report,size,id,t,px,py,pz,vx,vy,vz,ax,ay,az,planning_time,qp_cost,planning_report,size,id,t,px,py,pz,vx,vy,vz,ax,ay,az,planning_time,qp_cost,planning_report,size,id,t,px,py,pz,vx,vy,vz,ax,ay,az,planning_time,qp_cost,planning_report,size,id,t,px,py,pz,vx,vy,vz,ax,ay,az,planning_time,qp_cost,planning_report,size,id,t,px,py,pz,vx,vy,vz,ax,ay,az,planning_time,qp_cost,planning_report,size,id,t,px,py,pz,vx,vy,vz,ax,ay,az,planning_time,qp_cost,planning_report,size,id,t,px,py,pz,vx,vy,vz,ax,ay,az,planning_time,qp_cost,planning_report,size,id,t,px,py,pz,vx,vy,vz,ax,ay,az,planning_time,qp_cost,planning_report,size,id,t,px,py,pz,vx,vy,vz,ax,ay,az,planning_time,qp_cost,planning_report,size,id,t,px,py,pz,vx,vy,vz,ax,ay,az,planning_time,qp_cost,planning_report,size
0,0,3.51786,-1.76103,0.550858,0,0,0,0,0,0,0.015606,3.5122,5,0.1,1,0,2.02616,-3.32862,0.52255,0,0,0,0,0,0,0.0118223,3.5122,5,0.1,2,0,2.11641,3.02546,0.660391,0,0,0,0,0,0,0.00659958,3.5122,5,0.1,3,0,1.98504,-1.88158,0.684583,0,0,0,0,0,0,0.00867312,0.777286,5,0.1,4,0,3.76199,-0.680713,0.640251,0,0,0,0,0,0,0.0168456,3.5122,5,0.1,5,0,0.00803375,2.71959,0.557297,0,0,0,0,0,0,0.0155859,3.5122,5,0.1,6,0,-1.3975,-2.35891,0.562947,0,0,0,0,0,0,0.00783431,3.5122,5,0.1,7,0,1.78093,-2.572,0.55375,0,0,0,0,0,0,0.0257668,3.5122,5,0.1,8,0,-3.54213,-3.5913,0.57609,0,0,0,0,0,0,0.023136,3.51219,5,0.1,9,0,-4.27956,3.98097,0.615151,0,0,0,0,0,0,0.0139006,3.5122,5,0.1,10,0,-0.498574,1.31255,0.508498,0,0,0,0,0,0,0.00920039,2.53787,5,0.1,11,0,1.16918,-0.41333,0.692782,0,0,0,0,0,0,0.00753701,2.10497,5,0.1,12,0,3.83434,1.1132,0.629355,0,0,0,0,0,0,0.0172686,3.5122,5,0.1,13,0,4.31072,-0.0244455,0.532052,0,0,0,0,0,0,0.0145599,3.51219,5,0.1,14,0,-1.25911,2.22723,0.530789,0,0,0,0,0,0,0.00825694,3.5122,5,0.1,15,0,1.05821,-3.67973,0.537023,0,0,0,0,0,0,0.00993593,3.5122,5,0.1,16,0,-2.47237,4.29496,0.571297,0,0,0,0,0,0,0.0108885,3.51219,5,0.1,17,0,1.3997,4.18994,0.64286,0,0,0,0,0,0,0.0149286,3.5122,5,0.1,18,0,0.794322,3.18872,0.525274,0,0,0,0,0,0,0.0158016,1.14977,5,0.1,19,0,-3.4643,3.65516,0.606745,0,0,0,0,0,0,0.0112903,3.5122,5,0.1
0,0.1,3.51783,-1.75894,0.550882,-0.00096634,0.0592563,0.000699889,-0.0171959,1.05344,0.0124387,0.015606,3.5122,5,0.1,1,0.1,2.02409,-3.32882,0.522632,-0.0589579,-0.00559576,0.00233026,-1.04815,-0.0994653,0.041429,0.0118223,3.5122,5,0.1,2,0.1,2.11849,3.02564,0.660376,0.0590522,0.005031,-0.000440702,1.04983,0.0894219,-0.00783801,0.00659958,3.5122,5,0.1,3,0.1,1.98407,-1.88149,0.684651,-0.0277089,0.00241771,0.00193873,-0.49261,0.0429749,0.0344627,0.00867312,0.777286,5,0.1,4,0.1,3.76173,-0.678641,0.640229,-0.00738055,0.0588032,-0.000643171,-0.13122,1.04539,-0.0114366,0.0168456,3.5122,5,0.1,5,0.1,0.0101139,2.71977,0.557324,0.0590495,0.00502989,0.000765827,1.04977,0.089407,0.0136159,0.0155859,3.5122,5,0.1,6,0.1,-1.39734,-2.35683,0.562954,0.00447687,0.0590991,0.000208244,0.0795946,1.05064,0.00370294,0.00783431,3.5122,5,0.1,7,0.1,1.78047,-2.56996,0.553786,-0.013056,0.0578035,0.00103945,-0.2321,1.0276,0.0184812,0.0257668,3.5122,5,0.1,8,0.1,-3.54179,-3.58924,0.576111,0.00959076,0.0584848,0.000584684,0.170514,1.03971,0.0103936,0.023136,3.51219,5,0.1,9,0.1,-4.27779,3.97985,0.61514,0.0499733,-0.0318632,-0.000305288,0.888437,-0.566453,-0.00542402,0.0139006,3.5122,5,0.1,10,0.1,-0.498366,1.31431,0.508437,0.00588465,0.0500059,-0.00173328,0.104614,0.888996,-0.0308193,0.00920039,2.53787,5,0.1,11,0.1,1.16936,-0.414934,0.692841,0.00535883,-0.0455379,0.00169566,0.0952631,-0.809565,0.0301413,0.00753701,2.10497,5,0.1,12,0.1,3.83362,1.11516,0.629325,-0.0202056,0.055711,-0.000866875,-0.359222,0.990406,-0.0154078,0.0172686,3.5122,5,0.1,13,0.1,4.30997,-0.0224968,0.532096,-0.0212319,0.0553211,0.00124276,-0.377446,0.983486,0.0220984,0.0145599,3.51219,5,0.1,14,0.1,-1.25921,2.22515,0.530801,-0.00298228,-0.0591919,0.000350922,-0.0530109,-1.05232,0.00623614,0.00825694,3.5122,5,0.1,15,0.1,1.05614,-3.67997,0.53706,-0.0588749,-0.00673495,0.00105128,-1.04667,-0.119731,0.0186861,0.00993593,3.5122,5,0.1,16,0.1,-2.47172,4.29298,0.571325,0.0185102,-0.0562988,0.000790134,0.329077,-1.00085,0.0140518,0.0108885,3.51219,5,0.1,17,0.1,1.39878,4.18807,0.642819,-0.0260541,-0.053221,-0.0011757,-0.463195,-0.946105,-0.0209063,0.0149286,3.5122,5,0.1,18,0.1,0.793963,3.18759,0.525352,-0.0102038,-0.0322632,0.0022145,-0.181399,-0.573575,0.0393689,0.0158016,1.14977,5,0.1,19,0.1,-3.46223,3.65548,0.606739,0.0585776,0.00901967,-0.000153948,1.04137,0.160366,-0.00273809,0.0112903,3.5122,5,0.1
0,0.2,3.51763,-1.74691,0.551024,-0.00305772,0.187281,0.00221133,-0.022769,1.40452,0.0165999,0.0158882,2.9258,5,0.1,1,0.2,2.01211,-3.32996,0.523106,-0.18633,-0.0176787,0.00736564,-1.39767,-0.132799,0.0552535,0.00971445,2.92578,5,0.1,2,0.2,2.13048,3.02666,0.660286,0.186634,0.0159025,-0.00139326,1.39976,0.119209,-0.0104308,0.00992584,2.9258,5,0.1,3,0.2,1.97844,-1.881,0.685045,-0.0875771,0.00763834,0.00612736,-0.656724,0.0573993,0.0459254,0.0102668,0.637727,5,0.1,4,0.2,3.76023,-0.666697,0.640098,-0.0233233,0.185847,-0.00203103,-0.175118,1.39388,-0.0152886,0.0201126,2.92579,5,0.1,5,0.2,0.0221084,2.72079,0.55748,0.186626,0.0158966,0.00242144,1.39969,0.119209,0.0181496,0.015225,2.92579,5,0.1,6,0.2,-1.39644,-2.34483,0.562996,0.0141501,0.186777,0.000658631,0.106037,1.40095,0.00491738,0.00951264,2.92579,5,0.1,7,0.2,1.77782,-2.55822,0.553998,-0.0412613,0.182688,0.00328422,-0.309527,1.37007,0.0246465,0.0248311,2.93166,5,0.1,8,0.2,-3.53984,-3.57736,0.576229,0.030309,0.18484,0.00184923,0.227332,1.38628,0.0138283,0.0242875,2.9335,5,0.1,9,0.2,-4.26764,3.97338,0.615078,0.15794,-0.100702,-0.000965595,1.1847,-0.75531,-0.00721216,0.0165242,2.92578,5,0.1,10,0.2,-0.497171,1.32446,0.508085,0.0185981,0.158045,-0.00547916,0.139475,1.18536,-0.0410974,0.00863618,2.08236,5,0.1,11,0.2,1.17045,-0.424184,0.693186,0.0169367,-0.143922,0.00535846,0.127017,-1.07941,0.0402033,0.00888402,1.72702,5,0.1,12,0.2,3.82952,1.12648,0.629148,-0.0638604,0.176075,-0.00273883,-0.478983,1.32054,-0.0205636,0.0190479,2.90434,5,0.1,13,0.2,4.30566,-0.0112595,0.532348,-0.067091,0.174842,0.00392795,-0.50354,1.31132,0.0294745,0.0145285,2.92578,5,0.1,14,0.2,-1.25982,2.21312,0.530872,-0.00942349,-0.187075,0.00110865,-0.0707507,-1.40309,0.00828505,0.00870275,2.92579,5,0.1,15,0.2,1.04418,-3.68134,0.537274,-0.186074,-0.0212848,0.00332147,-1.39558,-0.15974,0.0249445,0.0105318,2.92579,5,0.1,16,0.2,-2.46796,4.28154,0.571485,0.058502,-0.177932,0.00249743,0.43869,-1.33443,0.0187159,0.0103243,2.9258,5,0.1,17,0.2,1.39349,4.17726,0.64258,-0.0823438,-0.168216,-0.00371635,-0.617623,-1.26123,-0.0278652,0.0193906,2.92581,5,0.1,18,0.2,0.79189,3.18103,0.525801,-0.0322491,-0.101966,0.00699908,-0.241846,-0.764847,0.0524819,0.0158598,0.943323,5,0.1,19,0.2,-3.45033,3.65731,0.606708,0.185132,0.0285089,-0.000487268,1.38855,0.213742,-0.00363588,0.0150563,2.92579,5,0.1
0,0.3,3.5172,-1.72037,0.551338,-0.00568107,0.348816,0.00412017,-0.0280738,1.72617,0.0203922,0.0158882,2.9258,5,0.1,1,0.3,1.98571,-3.33246,0.52415,-0.347069,-0.0329461,0.0137197,-1.7176,-0.163093,0.0678971,0.00971445,2.92578,5,0.1,2,0.3,2.15693,3.02891,0.660089,0.347619,0.0296142,-0.00259345,1.72026,0.146553,-0.0128262,0.00992584,2.9258,5,0.1,3,0.3,1.96604,-1.87992,0.685913,-0.162914,0.0142191,0.0113965,-0.803679,0.0701845,0.0562184,0.0102668,0.637727,5,0.1,4,0.3,3.75693,-0.64036,0.63981,-0.0434574,0.346156,-0.00378778,-0.215098,1.71304,-0.0187568,0.0201126,2.92579,5,0.1,5,0.3,0.048555,2.72304,0.557823,0.347603,0.0296067,0.00450909,1.72019,0.146523,0.022307,0.015225,2.92579,5,0.1,6,0.3,-1.39443,-2.31836,0.563089,0.0263479,0.347895,0.00122488,0.130355,1.72167,0.00605732,0.00951264,2.92579,5,0.1,7,0.3,1.77191,-2.53255,0.554447,-0.0787828,0.334071,0.00566822,-0.41458,1.57377,0.0222847,0.0248311,2.93166,5,0.1,8,0.3,-3.53555,-3.55144,0.576491,0.0564545,0.336592,0.00344068,0.279367,1.56741,0.0170171,0.0242875,2.9335,5,0.1,9,0.3,-4.24526,3.95911,0.614941,0.294186,-0.187568,-0.00179578,1.45584,-0.928223,-0.00888109,0.0165242,2.92578,5,0.1,10,0.3,-0.494537,1.34685,0.507346,0.0345977,0.294018,-0.00912119,0.17068,1.45048,-0.0312328,0.00863618,2.08236,5,0.1,11,0.3,1.17285,-0.444567,0.693945,0.031507,-0.267743,0.0099699,0.155419,-1.32085,0.049185,0.00888402,1.72702,5,0.1,12,0.3,3.82047,1.15142,0.62876,-0.118878,0.327759,-0.00510011,-0.587404,1.61953,-0.0252053,0.0190479,2.90434,5,0.1,13,0.3,4.29615,0.0135172,0.532905,-0.124995,0.325655,0.00731722,-0.618666,1.61157,0.0362098,0.0145285,2.92578,5,0.1,14,0.3,-1.26115,2.18661,0.531029,-0.0175582,-0.348444,0.00206232,-0.086911,-1.72436,0.0101998,0.00870275,2.92579,5,0.1,15,0.3,1.01781,-3.68435,0.537745,-0.346578,-0.0396531,0.00618938,-1.71512,-0.196263,0.0306368,0.0105318,2.92579,5,0.1,16,0.3,-2.45967,4.25633,0.571839,0.108958,-0.331403,0.00465065,0.539199,-1.64002,0.0230074,0.0103243,2.9258,5,0.1,17,0.3,1.38182,4.15342,0.642053,-0.153374,-0.313281,-0.00692131,-0.759028,-1.55026,-0.0342466,0.0193906,2.92581,5,0.1,18,0.3,0.787323,3.16659,0.526793,-0.0599923,-0.189699,0.0130196,-0.295959,-0.935882,0.0642277,0.0158598,0.943323,5,0.1,19,0.3,-3.4241,3.66135,0.606639,0.344827,0.0530925,-0.000906084,1.70648,0.262722,-0.00448152,0.0150563,2.92579,5,0.1
0,0.4,3.51649,-1.677,0.55185,-0.00838637,0.51513,0.00608414,-0.0249147,1.52624,0.0180304,0.018142,2.51563,5,0.1,1,0.4,1.94256,-3.33656,0.525855,-0.512552,-0.0486553,0.0202611,-1.51873,-0.144243,0.0600517,0.0132285,2.51455,5,0.1,2,0.4,2.20015,3.03259,0.659767,0.513363,0.0437319,-0.0038296,1.52099,0.12958,-0.0113547,0.00835858,2.74938,5,0.1,3,0.4,1.9458,-1.87815,0.687328,-0.240257,0.0209719,0.0168055,-0.709116,0.0619292,0.0496507,0.0135552,0.504579,5,0.1,4,0.4,3.75152,-0.597325,0.639339,-0.0641823,0.511202,-0.00559539,-0.190139,1.51461,-0.0165701,0.0203725,2.51406,5,0.1,5,0.4,0.0917702,2.72672,0.558384,0.513339,0.043726,0.00665784,1.52095,0.129461,0.0197589,0.0216003,2.64162,5,0.1,6,0.4,-1.39116,-2.27511,0.563242,0.0389099,0.513774,0.001809,0.115275,1.5223,0.00533462,0.00914947,2.51504,5,0.1,7,0.4,1.76196,-2.4915,0.555117,-0.119591,0.482929,0.007613,-0.381827,1.34218,0.0161231,0.0308306,2.67633,5,0.1,8,0.4,-3.52853,-3.5102,0.576919,0.083375,0.48424,0.0050813,0.246882,1.3262,0.0150502,0.0255018,2.8384,5,0.1,9,0.4,-4.20869,3.93579,0.614718,0.434458,-0.277007,-0.00265241,1.28722,-0.820518,-0.00783801,0.0135372,2.51006,5,0.1,10,0.4,-0.490239,1.38337,0.506298,0.0510246,0.433609,-0.0116438,0.150561,1.27965,-0.0189841,0.00994174,1.50252,5,0.1,11,0.4,1.17677,-0.477829,0.695183,0.0464648,-0.39486,0.0147045,0.13715,-1.16532,0.0433624,0.00802505,1.36644,5,0.1,12,0.4,3.8057,1.19215,0.628127,-0.175446,0.483713,-0.00752807,-0.51868,1.43039,-0.0222325,0.0200073,2.29853,5,0.1,13,0.4,4.28061,0.0540038,0.533815,-0.184596,0.480926,0.0108063,-0.546932,1.42492,0.0320077,0.0132549,2.51007,5,0.1,14,0.4,-1.26334,2.14329,0.531286,-0.025931,-0.514579,0.0030458,-0.0768304,-1.52469,0.0090301,0.00833989,2.51538,5,0.1,15,0.4,0.974721,-3.68928,0.538514,-0.511825,-0.0585616,0.00914037,-1.51646,-0.17345,0.0270903,0.0122301,2.51429,5,0.1,16,0.4,-2.44613,4.21513,0.572417,0.160909,-0.489414,0.00686795,0.476718,-1.45006,0.020355,0.010848,2.51009,5,0.1,17,0.4,1.36275,4.11447,0.641193,-0.226504,-0.462639,-0.0102222,-0.671089,-1.37091,-0.0302494,0.0192926,2.51011,5,0.1,18,0.4,0.77987,3.14302,0.52841,-0.0884742,-0.27976,0.0192001,-0.261128,-0.825763,0.056684,0.0141112,0.75479,5,0.1,19,0.4,-3.38123,3.66795,0.606526,0.509238,0.0784099,-0.00133663,1.50883,0.23222,-0.00399351,0.0121569,2.51338,5,0.1
0,0.5,3.51553,-1.61788,0.552551,-0.0109505,0.665342,0.00793943,-0.0250489,1.41001,0.0181235,0.018142,2.51563,5,0.1,1,0.5,1.88371,-3.34217,0.52819,-0.662669,-0.0634942,0.0264399,-1.41474,-0.144914,0.0603497,0.0132285,2.51455,5,0.1,2,0.5,2.2578,3.03763,0.659325,0.627071,0.0570662,-0.00499813,0.769347,0.130266,-0.0114106,0.00835858,2.74938,5,0.1,3,0.5,1.91816,-1.87574,0.689262,-0.312204,0.0272535,0.0218422,-0.694513,0.0606179,0.0486113,0.0135552,0.504579,5,0.1,4,0.5,3.74413,-0.538619,0.638694,-0.083746,0.661258,-0.00730008,-0.191092,1.41718,-0.016652,0.0203725,2.51406,5,0.1,5,0.5,0.150042,2.73113,0.559168,0.644774,0.0392117,0.00918601,1.08298,-0.18695,0.0286624,0.0216003,2.64162,5,0.1,6,0.5,-1.38667,-2.21613,0.56345,0.0507735,0.663937,0.00235876,0.115886,1.41251,0.00537559,0.00914947,2.51504,5,0.1,7,0.5,1.74773,-2.4372,0.555852,-0.167629,0.595849,0.00617625,-0.539698,0.899896,-0.0389181,0.0308306,2.67633,5,0.1,8,0.5,-3.51892,-3.45664,0.577504,0.108776,0.573013,0.00663018,0.248104,0.496969,0.0151284,0.0255018,2.8384,5,0.1,9,0.5,-4.15862,3.90387,0.614412,0.566917,-0.361445,-0.00345977,1.29381,-0.824824,-0.00788644,0.0135372,2.51006,5,0.1,10,0.5,-0.48437,1.43184,0.505071,0.0663011,0.523464,-0.0125865,0.147473,0.542581,-0.00089407,0.00994174,1.50252,5,0.1,11,0.5,1.18211,-0.523248,0.696874,0.0603799,-0.513093,0.0191046,0.134319,-1.14133,0.0424832,0.00802505,1.36644,5,0.1,12,0.5,3.78551,1.24781,0.62726,-0.228098,0.628905,-0.00978513,-0.508502,1.40215,-0.0218041,0.0200073,2.29853,5,0.1,13,0.5,4.25934,0.109424,0.53506,-0.240874,0.627556,0.0141,-0.549704,1.43225,0.0321716,0.0132549,2.51007,5,0.1,14,0.5,-1.26632,2.08423,0.531637,-0.0338364,-0.664773,0.00397544,-0.0772178,-1.41104,0.00908226,0.00833989,2.51538,5,0.1,15,0.5,0.915949,-3.69603,0.539568,-0.661906,-0.0764105,0.0119277,-1.41604,-0.174329,0.0272207,0.0122301,2.51429,5,0.1,16,0.5,-2.42758,4.15873,0.573209,0.209967,-0.638596,0.00896258,0.479206,-1.45689,0.020463,0.010848,2.51009,5,0.1,17,0.5,1.33665,4.06116,0.640015,-0.295561,-0.60371,-0.0133359,-0.674546,-1.37796,-0.030417,0.0192926,2.51011,5,0.1,18,0.5,0.769917,3.111,0.530614,-0.108622,-0.359023,0.0248254,-0.142924,-0.728428,0.0532828,0.0141112,0.75479,5,0.1,19,0.5,-3.32273,3.67699,0.606372,0.659218,0.102308,-0.00174716,1.42077,0.233456,-0.00400841,0.0121569,2.51338,5,0.1
0,0.6,3.51431,-1.54494,0.55343,-0.0131667,0.785935,0.00954568,-0.0184774,0.957906,0.0132918,0.0194296,2.33482,5,0.1,1,0.6,1.81099,-3.34919,0.531115,-0.784114,-0.0763357,0.0317886,-0.969231,-0.106573,0.0443757,0.0096148,2.39718,5,0.1,2,0.6,2.32322,3.04395,0.658772,0.670642,0.0686109,-0.00600964,0.119805,0.0957251,-0.00837445,0.0124493,2.83199,5,0.1,3,0.6,1.88373,-1.87274,0.691671,-0.373149,0.0325739,0.0261083,-0.499666,0.0435114,0.0349879,0.0122682,0.376138,5,0.1,4,0.6,3.73486,-0.466028,0.637887,-0.100684,0.783151,-0.00877529,-0.140429,0.975177,-0.0122488,0.0184122,2.32722,5,0.1,5,0.6,0.219047,2.73382,0.56023,0.726097,0.012207,0.0120163,0.52987,-0.326991,0.0263453,0.0172175,2.69444,5,0.1,6,0.6,-1.38105,-2.14331,0.563711,0.0610441,0.784981,0.00283569,0.0852942,0.963807,0.00396371,0.0103315,2.33214,5,0.1,7,0.6,1.72827,-2.37395,0.556224,-0.220689,0.660521,0.000891089,-0.492394,0.386119,-0.062108,0.0301346,2.68708,5,0.1,8,0.6,-3.50689,-3.39791,0.578238,0.130755,0.592214,0.00797063,0.182509,-0.0749826,0.0111163,0.0266396,2.89074,5,0.1,9,0.6,-4.09591,3.86389,0.61403,0.681579,-0.434554,-0.0041604,0.951767,-0.606537,-0.00578165,0.0119154,2.22081,5,0.1,10,0.6,-0.477058,1.48586,0.503831,0.0792429,0.547075,-0.0120148,0.106081,-0.0460744,0.0115037,0.00969696,1.07445,5,0.1,11,0.6,1.18877,-0.579833,0.698981,0.0721663,-0.61325,0.022833,0.0966191,-0.821054,0.0305474,0.00889474,1.01728,5,0.1,12,0.6,3.76035,1.31719,0.626181,-0.272733,0.752002,-0.0116989,-0.36633,1.00958,-0.0157058,0.0165638,1.73749,5,0.1,13,0.6,4.23269,0.178844,0.53662,-0.289595,0.754499,0.0169516,-0.404119,1.05329,0.023663,0.0150534,2.27132,5,0.1,14,0.6,-1.27007,2.01133,0.532076,-0.0406802,-0.78555,0.00478029,-0.0568032,-0.96029,0.00667572,0.00980699,2.33372,5,0.1,15,0.6,0.843303,-3.70448,0.540887,-0.783592,-0.0918627,0.0143409,-0.97245,-0.12815,0.0199974,0.00933319,2.32841,5,0.1,16,0.6,-2.40436,4.08809,0.5742,0.252438,-0.767708,0.010775,0.352502,-1.07098,0.01508,0.0129092,2.11324,5,0.1,17,0.6,1.30395,3.99438,0.63854,-0.355348,-0.725842,-0.0160322,-0.49603,-1.0134,-0.0223815,0.0150059,2.08877,5,0.1,18,0.6,0.758527,3.07183,0.53334,-0.117353,-0.420237,0.0294253,-0.0335574,-0.474691,0.0369847,0.0159781,0.672066,5,0.1,19,0.6,-3.25032,3.6883,0.606179,0.781757,0.123006,-0.00210106,0.983953,0.171542,-0.00298023,0.0139872,2.32356,5,0.1
0,0.7,3.5129,-1.46261,0.554451,-0.0150207,0.850519,0.0108804,-0.0174195,0.361204,0.012558,0.0194296,2.33482,5,0.1,1,0.7,1.7288,-3.35736,0.534519,-0.849441,-0.0870291,0.036242,-0.350647,-0.100568,0.0418872,0.0096148,2.39718,5,0.1,2,0.7,2.38949,3.05129,0.658129,0.642664,0.0781178,-0.0068414,-0.605807,0.0885725,-0.00775233,0.0124493,2.83199,5,0.1,3,0.7,1.84399,-1.8692,0.694464,-0.420368,0.0384485,0.0297816,-0.418954,0.0678077,0.0358559,0.0122682,0.376138,5,0.1,4,0.7,3.72409,-0.383893,0.636947,-0.114778,0.849553,-0.0100044,-0.132561,0.377759,-0.0115596,0.0184122,2.32722,5,0.1,5,0.7,0.29325,2.73282,0.561585,0.748386,-0.0368096,0.0152139,-0.0452948,-0.607073,0.0350028,0.0172175,2.69444,5,0.1,6,0.7,-1.37452,-2.06105,0.564015,0.0696024,0.850188,0.00323392,0.0804886,0.366881,0.00374764,0.0103315,2.33214,5,0.1,7,0.7,1.70334,-2.30661,0.55582,-0.280663,0.67997,-0.0104601,-0.658043,0.0051111,-0.151534,0.0301346,2.68708,5,0.1,8,0.7,-3.49289,-3.34018,0.579091,0.148987,0.55369,0.00908151,0.170782,-0.591889,0.0104085,0.0266396,2.89074,5,0.1,9,0.7,-4.02307,3.81736,0.613584,0.773043,-0.495443,-0.00474174,0.825793,-0.57283,-0.00547618,0.0119154,2.22081,5,0.1,10,0.7,-0.468613,1.53937,0.502702,0.0894275,0.51448,-0.0104335,0.0917893,-0.565208,0.0192858,0.00969696,1.07445,5,0.1,11,0.7,1.19646,-0.645193,0.701415,0.0814421,-0.692074,0.0257662,0.0835881,-0.710364,0.0264347,0.00889474,1.01728,5,0.1,12,0.7,3.73128,1.39669,0.624934,-0.307911,0.830429,-0.0132073,-0.317141,0.549152,-0.0135973,0.0165638,1.73749,5,0.1,13,0.7,4.20169,0.258699,0.538435,-0.330163,0.833877,0.0193269,-0.381619,0.532413,0.022348,0.0150534,2.27132,5,0.1,14,0.7,-1.27442,1.92904,0.532588,-0.0463799,-0.850386,0.00545066,-0.0535995,-0.363491,0.00630319,0.00980699,2.33372,5,0.1,15,0.7,0.761138,-3.71432,0.542422,-0.849707,-0.104725,0.016348,-0.375137,-0.120997,0.0188835,0.00933319,2.32841,5,0.1,16,0.7,-2.37735,4.00699,0.575353,0.287221,-0.844169,0.0122624,0.322178,-0.46964,0.0137724,0.0129092,2.11324,5,0.1,17,0.7,1.26593,3.91726,0.636824,-0.404393,-0.810657,-0.0182454,-0.455126,-0.659257,-0.0205375,0.0150059,2.08877,5,0.1,18,0.7,0.747152,3.02808,0.536445,-0.105561,-0.448591,0.0324225,0.241771,-0.101835,0.0220835,0.0159781,0.672066,5,0.1,19,0.7,-3.16827,3.70147,0.605954,0.849072,0.140226,-0.00239909,0.386029,0.161991,-0.00279397,0.0139872,2.32356,5,0.1
0,0.8,3.51132,-1.37648,0.555595,-0.0164568,0.866026,0.011915,-0.0103712,0,0.00751019,0.0201649,2.2716,5,0.1,1,0.8,1.64302,-3.36651,0.538329,-0.857469,-0.0953078,0.0396907,0.171006,-0.0603199,0.0251532,0.00912224,2.69892,5,0.1,2,0.8,2.45003,3.05949,0.657411,0.562364,0.0853419,-0.00747442,-0.94521,0.0517368,-0.00450015,0.00703207,2.64538,5,0.1,3,0.8,1.80016,-1.86502,0.697606,-0.452638,0.0450641,0.0328332,-0.209272,0.0599623,0.023365,0.0101397,0.281881,5,0.1,4,0.8,3.71202,-0.297797,0.635895,-0.125694,0.866026,-0.0109553,-0.0796318,-7.15256e-06,-0.00691414,0.0192362,2.25968,5,0.1,5,0.8,0.367163,2.72596,0.563278,0.7236,-0.101048,0.0185624,-0.42364,-0.6423,0.0301003,0.0175129,2.78729,5,0.1,6,0.8,-1.3672,-1.97493,0.564355,0.0762284,0.866026,0.00354201,0.0482798,0,0.00226498,0.0069454,2.26744,5,0.1,7,0.8,1.67205,-2.23919,0.55396,-0.343788,0.662321,-0.0270486,-0.56839,-0.352383,-0.169963,0.0294961,2.73979,5,0.1,8,0.8,-3.47724,-3.28797,0.580045,0.162989,0.490075,0.00993609,0.101447,-0.621557,0.00616908,0.0267765,2.94747,5,0.1,9,0.8,-3.94219,3.76526,0.613086,0.83828,-0.542617,-0.00519305,0.445843,-0.344038,-0.00330806,0.0113237,2.08525,5,0.1,10,0.8,-0.459274,1.58741,0.501762,0.0966243,0.441486,-0.00830889,0.0481904,-0.860691,0.0225306,0.00902557,0.755493,5,0.1,11,0.8,1.20497,-0.717467,0.704106,0.0879943,-0.747769,0.0278383,0.0439286,-0.373036,0.0139177,0.0119523,0.718255,5,0.1,12,0.8,3.69912,1.48169,0.623555,-0.332791,0.861734,-0.0142738,-0.166893,0.0858307,-0.00718236,0.0168861,1.26941,5,0.1,13,0.8,4.16697,0.343922,0.540467,-0.361586,0.862769,0.0211671,-0.229359,0.0651193,0.013411,0.0155326,2.17544,5,0.1,14,0.8,-1.2793,1.84291,0.533161,-0.0507921,-0.866026,0.00596941,-0.0321865,5.96046e-05,0.0038147,0.00791687,2.2699,5,0.1,15,0.8,0.675037,-3.72533,0.544141,-0.866026,-0.114691,0.0179023,2.98023e-05,-0.0725985,0.0113547,0.00928375,2.26154,5,0.1,16,0.8,-2.34721,3.92109,0.57664,0.313336,-0.866026,0.0133798,0.185609,0,0.00789762,0.0129967,1.58743,5,0.1,17,0.8,1.22348,3.83361,0.634909,-0.441352,-0.854927,-0.0199139,-0.263572,-0.221968,-0.0118911,0.0148037,1.55123,5,0.1,18,0.8,0.738071,2.98326,0.539768,-0.0739694,-0.44257,0.0337079,0.367999,0.211835,0.00315905,0.0185793,0.614052,5,0.1,19,0.8,-3.0822,3.71622,0.605701,0.866026,0.153559,-0.00263005,0,0.097394,-0.00163913,0.0129551,2.25385,5,0.1
0,0.9,3.50962,-1.28988,0.556826,-0.0175286,0.866026,0.0126914,-0.00996888,0,0.00721589,0.0201649,2.2716,5,0.1,1,0.9,1.55948,-3.37636,0.542429,-0.801773,-0.101537,0.0422877,0.871509,-0.0578612,0.0241213,0.00912224,2.69892,5,0.1,2,0.9,2.50103,3.06828,0.656641,0.455023,0.0902161,-0.00789911,-1.11118,0.041157,-0.00359118,0.00703207,2.64538,5,0.1,3,0.9,1.75411,-1.85997,0.701088,-0.465456,0.0578366,0.0374427,-0.0392497,0.176594,0.0616312,0.0101397,0.281881,5,0.1,4,0.9,3.69903,-0.211195,0.634764,-0.133913,0.866025,-0.0116694,-0.0763088,-2.98023e-07,-0.00662729,0.0192362,2.25968,5,0.1,5,0.9,0.4366,2.71272,0.56528,0.661646,-0.162372,0.0213957,-0.6484,-0.565574,0.0252016,0.0175129,2.78729,5,0.1,6,0.9,-1.35933,-1.88833,0.564721,0.0811992,0.866026,0.00377502,0.0460371,0,0.00216067,0.0069454,2.26744,5,0.1,7,0.9,1.63442,-2.17454,0.550291,-0.411308,0.631998,-0.047088,-0.723056,-0.278458,-0.216477,0.0294961,2.73979,5,0.1,8,0.9,-3.46042,-3.24206,0.58107,0.173153,0.431898,0.0105546,0.091657,-0.412986,0.00557676,0.0267765,2.94747,5,0.1,9,0.9,-3.85684,3.70921,0.612549,0.862928,-0.578254,-0.00553578,0.096634,-0.331953,-0.0031963,0.0113237,2.08525,5,0.1,10,0.9,-0.449381,1.627,0.501045,0.100992,0.348451,-0.00605574,0.0345241,-0.972807,0.0220574,0.00902557,0.755493,5,0.1,11,0.9,1.21397,-0.794024,0.706956,0.0919744,-0.781571,0.0290995,0.0314564,-0.267204,0.0099726,0.0119523,0.718255,5,0.1,12,0.9,3.66504,1.56812,0.622093,-0.347921,0.865394,-0.0149247,-0.119746,-0.0038147,-0.00515208,0.0168861,1.26941,5,0.1,13,0.9,4.12962,0.430399,0.542653,-0.385303,0.865822,0.0225543,-0.220567,0.00813991,0.0129081,0.0155326,2.17544,5,0.1,14,0.9,-1.28455,1.75631,0.533778,-0.054113,-0.866025,0.00636261,-0.0308231,-1.49012e-05,0.00364333,0.00791687,2.2699,5,0.1,15,0.9,0.588434,-3.73718,0.545991,-0.866025,-0.122194,0.019075,-3.72529e-06,-0.0697523,0.0108927,0.00928375,2.26154,5,0.1,16,0.9,-2.31497,3.83449,0.578017,0.330712,-0.865857,0.0141195,0.145346,0.00673532,0.00618771,0.0129967,1.58743,5,0.1,17,0.9,1.17806,3.74744,0.63286,-0.466074,-0.865104,-0.0210296,-0.207387,-0.0186414,-0.00935793,0.0148037,1.55123,5,0.1,18,0.9,0.732472,2.94058,0.543141,-0.0385916,-0.406246,0.0336153,0.333987,0.492856,-0.00562519,0.0185793,0.614052,5,0.1,19,0.9,-2.99559,3.73208,0.60543,0.866026,0.163594,-0.00279928,0,0.093013,-0.00156835,0.0129551,2.25385,5,0.1
0,1,3.50783,-1.20328,0.558125,-0.0182629,0.866026,0.0132233,-0.00393391,-5.96046e-05,0.00283122,0.0199237,2.27157,5,0.1,1,1,1.48433,-3.38675,0.546759,-0.695705,-0.105798,0.0440642,1.19591,-0.022769,0.00953674,0.00712129,3.03014,5,0.1,2,1,2.54127,3.07746,0.655838,0.353891,0.0928044,-0.00812411,-0.864148,0.00751019,-0.000655651,0.00684775,2.44313,5,0.1,3,1,1.7077,-1.85324,0.705155,-0.459343,0.0770569,0.0439018,0.165105,0.193477,0.0621378,0.00773307,0.530282,5,0.1,4,1,3.68532,-0.124592,0.633569,-0.139529,0.866026,-0.0121564,-0.03016,-3.57628e-06,-0.0026226,0.0191032,2.25846,5,0.1,5,1,0.5,2.69391,0.567528,0.611813,-0.211036,0.0233755,-0.336319,-0.395179,0.0134706,0.0151762,2.7428,5,0.1,6,1,-1.35101,-1.80172,0.565107,0.084579,0.866026,0.00393391,0.017941,-5.96046e-05,0.000864267,0.0102942,2.17134,5,0.1,7,1,1.58981,-2.11277,0.54452,-0.478268,0.602406,-0.0678718,-0.573814,-0.330925,-0.188828,0.0289137,2.78998,5,0.1,8,1,-3.44273,-3.2,0.582149,0.179601,0.418615,0.0109479,0.0302792,0.129819,0.00184774,0.0253606,2.78298,5,0.1,9,1,-3.77031,3.64999,0.611982,0.866026,-0.6028,-0.00577271,0,-0.133514,-0.0012815,0.0108407,2.0426,5,0.1,10,1,-0.439163,1.65698,0.500545,0.10276,0.251693,-0.00397563,-0.00220537,-0.941932,0.0191629,0.0102182,0.517159,5,0.1,11,1,1.22328,-0.873103,0.7099,0.0935853,-0.795257,0.0296116,-0.00196695,0.0171661,-0.000655651,0.014938,0.488439,5,0.1,12,1,3.62983,1.65449,0.620583,-0.354087,0.860208,-0.0151902,0.00703335,-0.116348,0.000298023,0.0190215,0.924512,5,0.1,13,1,4.09016,0.516997,0.544963,-0.40158,0.866026,0.0235066,-0.0882149,0,0.0051558,0.0150752,2.16415,5,0.1,14,1,-1.29009,1.66971,0.53443,-0.05638,-0.866026,0.00663102,-0.0121593,0,0.00143051,0.00658966,2.2697,5,0.1,15,1,0.501832,-3.74969,0.547944,-0.866026,-0.127333,0.0198781,0,-0.0276566,0.00435114,0.0103528,2.26048,5,0.1,16,1,-2.28135,3.74799,0.579452,0.339633,-0.863332,0.0144988,0.0221729,0.0538826,0.000923872,0.0114182,1.19036,5,0.1,17,1,1.13067,3.661,0.630721,-0.478908,-0.862384,-0.0216082,-0.0334382,0.0727177,-0.00154972,0.0123424,1.14014,5,0.1,18,1,0.730188,2.90273,0.546456,-0.00811517,-0.34802,0.0324875,0.271678,0.653267,-0.0171959,0.00705522,0.533197,5,0.1,19,1,-2.90899,3.74883,0.605143,0.866026,0.170428,-0.00291318,0,0.036478,-0.000625849,0.0135302,2.25216,5,0.1
0,1.1,3.50598,-1.11668,0.559465,-0.0187412,0.866025,0.013568,-0.00452995,1.49012e-05,0.00328198,0.0199237,2.27157,5,0.1,1,1.1,1.42128,-3.39747,0.551222,-0.562514,-0.10855,0.0452146,1.36895,-0.0260174,0.0108704,0.00712129,3.03014,5,0.1,2,1.1,2.57279,3.08677,0.655022,0.283748,0.0933539,-0.00817236,-0.447452,-0.00025332,1.49012e-05,0.00684775,2.44313,5,0.1,3,1.1,1.66366,-1.84413,0.71018,-0.412323,0.108608,0.0592181,0.721253,0.40064,0.219919,0.00773307,0.530282,5,0.1,4,1.1,3.67119,-0.0379896,0.632338,-0.143176,0.866025,-0.0124737,-0.0345409,-5.96046e-07,-0.00300631,0.0191032,2.25846,5,0.1,5,1.1,0.560796,2.67111,0.569926,0.614688,-0.241785,0.0244685,0.300687,-0.204414,0.00723079,0.0151762,2.7428,5,0.1,6,1.1,-1.34245,-1.71512,0.565505,0.0866404,0.866025,0.00403235,0.0185445,1.49012e-05,0.000882894,0.0102942,2.17134,5,0.1,7,1.1,1.53955,-2.05406,0.536914,-0.522009,0.572841,-0.0828736,-0.277676,-0.273839,-0.106387,0.0289137,2.78998,5,0.1,8,1.1,-3.4246,-3.15613,0.583254,0.182871,0.469528,0.0111478,0.0260323,0.782266,0.0015907,0.0253606,2.78298,5,0.1,9,1.1,-3.68371,3.58891,0.611397,0.865883,-0.619224,-0.00593038,-0.00570714,-0.158399,-0.00152364,0.0108407,2.0426,5,0.1,10,1.1,-0.428902,1.67764,0.500237,0.102311,0.163756,-0.00226824,-0.010537,-0.804588,0.0147931,0.0102182,0.517159,5,0.1,11,1.1,1.23263,-0.952509,0.712857,0.093179,-0.791771,0.0294805,-0.009574,0.0816509,-0.00304729,0.014938,0.488439,5,0.1,12,1.1,3.59448,1.74015,0.619066,-0.352594,0.854113,-0.0151265,0.0358075,-0.0504479,0.00153482,0.0190215,0.924512,5,0.1,13,1.1,4.04948,0.6036,0.547344,-0.412297,0.866026,0.0241332,-0.102133,-3.72529e-06,0.00597537,0.0150752,2.16415,5,0.1,14,1.1,-1.2958,1.5831,0.535101,-0.0578515,-0.866026,0.00680415,-0.0139177,0,0.00164285,0.00658966,2.2697,5,0.1,15,1.1,0.415229,-3.76259,0.549957,-0.866026,-0.130704,0.020407,3.57628e-06,-0.0321716,0.00504032,0.0103528,2.26048,5,0.1,16,1.1,-2.24729,3.6617,0.580906,0.341097,-0.863725,0.0145595,-0.00628829,-0.019148,-0.000286847,0.0114182,1.19036,5,0.1,17,1.1,1.08271,3.57508,0.628561,-0.478922,-0.855318,-0.0215082,0.0470728,0.103116,0.00394508,0.0123424,1.14014,5,0.1,18,1.1,0.73122,2.87195,0.549509,0.0326145,-0.261434,0.0276285,0.504073,1.02447,-0.0737868,0.00705522,0.533197,5,0.1,19,1.1,-2.82239,3.76608,0.604848,0.866026,0.174782,-0.00298768,0,0.0406504,-0.000700355,0.0135302,2.25216,5,0.1
0,1.2,3.50409,-1.03007,0.560833,-0.0189841,0.866024,0.0137448,0.000357628,2.98023e-05,-0.000268221,0.0183251,2.27157,5,0.1,1,1.2,1.37154,-3.40842,0.555782,-0.437027,-0.109941,0.0457957,1.08862,0.0026226,-0.00104308,0.0101648,3.17367,5,0.1,2,1.2,2.6,3.09607,0.654208,0.270766,0.0921428,-0.008066,0.160456,-0.0264645,0.00229478,0.00966363,2.09213,5,0.1,3,1.2,1.62658,-1.83118,0.717297,-0.324863,0.15071,0.0836104,0.984311,0.413656,0.249386,0.0079184,0.364773,5,0.1,4,1.2,3.65675,0.048613,0.63108,-0.14503,0.866025,-0.0126362,0.00298023,-1.19209e-06,0.000298023,0.0181665,2.25827,5,0.1,5,1.2,0.624187,2.64631,0.572391,0.655465,-0.249928,0.0246391,0.443071,0.046134,-0.00441074,0.0155729,2.52816,5,0.1,6,1.2,-1.33373,-1.62852,0.565912,0.0874877,0.866026,0.00407398,-0.00494719,-5.96046e-05,-0.000238419,0.00983244,1.71973,5,0.1,7,1.2,1.4866,-1.99814,0.52826,-0.530457,0.545153,-0.0885054,0.11903,-0.291228,-0.00461936,0.0272203,2.81861,5,0.1,8,1.2,-3.40626,-3.10491,0.584372,0.183278,0.556415,0.0111729,-0.0240803,0.874996,-0.00146031,0.0229524,2.27404,5,0.1,9,1.2,-3.5972,3.5264,0.610798,0.863743,-0.628269,-0.00601858,-0.0456572,0.00286102,5.96046e-05,0.0135552,2.03662,5,0.1,10,1.2,-0.418763,1.6903,0.500076,0.100029,0.0926256,-0.00103861,-0.0375509,-0.611782,0.00977516,0.00628868,0.73624,5,0.1,11,1.2,1.24186,-1.03098,0.715778,0.0910997,-0.774106,0.0288218,-0.0341535,0.290751,-0.0108182,0.00974387,2.52802,5,0.1,12,1.2,3.55953,1.82512,0.617567,-0.344777,0.8425,-0.0147909,0.129104,-0.213265,0.00554323,0.0211485,0.651597,5,0.1,13,1.2,4.00788,0.690202,0.549779,-0.41793,0.866026,0.0244632,0.00619888,0,-0.000357628,0.0150295,2.16184,5,0.1,14,1.2,-1.30163,1.4965,0.535788,-0.0586003,-0.866026,0.00689179,0.0013113,0,-0.000119209,0.0101822,2.26967,5,0.1,15,1.2,0.328627,-3.77577,0.552016,-0.866025,-0.132477,0.0206843,-1.43051e-05,0.00202656,-0.000327826,0.010122,2.26024,5,0.1,16,1.2,-2.21335,3.57539,0.582355,0.336158,-0.86022,0.0143468,-0.101566,0.116348,-0.00432134,0.00889115,0.862959,5,0.1,17,1.2,1.03528,3.49035,0.626441,-0.467247,-0.835985,-0.0207588,0.195116,0.306487,0.0112355,0.0157742,0.941421,5,0.1,18,1.2,0.737122,2.85118,0.551852,0.0858575,-0.152725,0.018841,0.531226,1.10781,-0.0969768,0.00755545,0.390661,5,0.1,19,1.2,-2.73579,3.78371,0.604547,0.866026,0.176877,-0.00302196,0,-0.00560284,5.96046e-05,0.0123416,1.86424,5,0.1
0,1.3,3.50219,-0.943471,0.56221,-0.0190772,0.866026,0.0138121,-0.00116229,0,0.000827014,0.0183251,2.27157,5,0.1,1,1.3,1.33279,-3.41943,0.560368,-0.346165,-0.110346,0.0459684,0.617288,-0.00469387,0.00198185,0.0101648,3.17367,5,0.1,2,1.3,2.62912,3.10515,0.653413,0.321704,0.0895023,-0.00783661,0.764176,-0.0294149,0.00255927,0.00966363,2.09213,5,0.1,3,1.3,1.59929,-1.81411,0.727159,-0.219025,0.189509,0.115462,1.09771,0.348166,0.3605,0.0079184,0.364773,5,0.1,4,1.3,3.64222,0.135216,0.629814,-0.145698,0.866025,-0.0126912,-0.00818074,7.45058e-07,-0.000689179,0.0181665,2.25827,5,0.1,5,1.3,0.692731,2.62216,0.574821,0.720949,-0.227838,0.0238441,0.777595,0.365913,-0.0116006,0.0155729,2.52816,5,0.1,6,1.3,-1.325,-1.54192,0.566318,0.087115,0.866025,0.00405591,-0.00631064,1.49012e-05,-0.000298023,0.00983244,1.71973,5,0.1,7,1.3,1.43518,-1.94449,0.519633,-0.488684,0.53258,-0.0818781,0.668004,-0.0106394,0.124697,0.0272203,2.81861,5,0.1,8,1.3,-3.38803,-3.04436,0.585483,0.181134,0.657755,0.0110429,-0.0263602,1.06935,-0.00159442,0.0229524,2.27404,5,0.1,9,1.3,-3.51086,3.4634,0.610195,0.864211,-0.632619,-0.00605807,0.0251234,-0.0531226,-0.000499189,0.0135552,2.03662,5,0.1,10,1.3,-0.408943,1.69683,0.500012,0.0963169,0.041295,-0.000305288,-0.0398066,-0.414632,0.00514835,0.00628868,0.73624,5,0.1,11,1.3,1.25071,-1.10703,0.718744,0.0850232,-0.747265,0.0316185,-0.0842139,0.274353,0.0572689,0.00974387,2.52802,5,0.1,12,1.3,3.52568,1.90844,0.616115,-0.332012,0.824495,-0.0142427,0.136897,-0.182904,0.00587851,0.0211485,0.651597,5,0.1,13,1.3,3.966,0.776805,0.552231,-0.420179,0.866026,0.0245955,-0.0273734,-3.72529e-06,0.00160933,0.0150295,2.16184,5,0.1,14,1.3,-1.3075,1.4099,0.536478,-0.0588624,-0.866026,0.00692531,-0.0032559,0,0.000402331,0.0101822,2.26967,5,0.1,15,1.3,0.242024,-3.78905,0.554089,-0.866025,-0.133209,0.0207972,0,-0.009045,0.00140071,0.010122,2.26024,5,0.1,16,1.3,-2.18023,3.48975,0.583768,0.326039,-0.853528,0.013916,-0.111848,0.0610501,-0.00476092,0.00889115,0.862959,5,0.1,17,1.3,0.989544,3.40901,0.624482,-0.446988,-0.783955,-0.0179066,0.221845,0.712007,0.0424795,0.0157742,0.941421,5,0.1,18,1.3,0.748197,2.84127,0.553186,0.133725,-0.0477124,0.0073621,0.416916,0.975594,-0.12628,0.00755545,0.390661,5,0.1,19,1.3,-2.64918,3.80139,0.604245,0.866026,0.176755,-0.00302261,0,-0.0051111,7.07805e-05,0.0123416,1.86424,5,0.1
0,1.4,3.50028,-0.856869,0.563592,-0.0190318,0.866026,0.0137776,0.00286102,0,-0.00205636,0.0202238,2.27157,5,0.1,1,1.4,1.3,-3.43045,0.564963,-0.321767,-0.109857,0.0457644,-0.099957,0.0188351,-0.00780821,0.00910538,2.94781,5,0.1,2,1.4,2.66547,3.11393,0.652644,0.407016,0.0857532,-0.00751019,0.870466,-0.0475645,0.00414252,0.0106882,1.68069,5,0.1,3,1.4,1.58283,-1.79362,0.740507,-0.111413,0.217992,0.150982,1.02836,0.212193,0.329763,0.00857318,0.287507,5,0.1,4,1.4,3.62765,0.221818,0.628545,-0.145274,0.866025,-0.0126526,0.0224113,-7.15256e-06,0.00196695,0.0182081,2.25865,5,0.1,5,1.4,0.768665,2.60153,0.577135,0.795549,-0.18214,0.0223085,0.649065,0.523806,-0.0191033,0.0130108,2.35464,5,0.1,6,1.4,-1.31634,-1.45531,0.566721,0.0855863,0.866026,0.00398457,-0.0268221,-5.96046e-05,-0.0012517,0.00872242,1.32522,5,0.1,7,1.4,1.39023,-1.89116,0.512197,-0.40566,0.534239,-0.065805,0.952899,0.0063777,0.186771,0.029323,2.73734,5,0.1,8,1.4,-3.37011,-2.97348,0.586576,0.17674,0.756073,0.010775,-0.066638,0.837326,-0.00402331,0.0251423,1.75531,5,0.1,9,1.4,-3.42437,3.40002,0.609588,0.864661,-0.632638,-0.00605732,-0.0272989,0.0784397,0.00077486,0.0124389,1.80384,5,0.1,10,1.4,-0.399535,1.69921,0.500002,0.091552,0.00944734,3.8743e-05,-0.0575632,-0.225067,0.00199676,0.0093172,1.28675,5,0.1,11,1.4,1.25873,-1.18023,0.72224,0.0748575,-0.714487,0.0385985,-0.116467,0.400424,0.0750721,0.00962851,2.88679,5,0.1,12,1.4,3.49325,1.98979,0.614723,-0.315613,0.799829,-0.0135392,0.198126,-0.335097,0.00849366,0.0222942,0.448659,5,0.1,13,1.4,3.92395,0.863407,0.554692,-0.419354,0.866026,0.0245482,0.0605583,0,-0.00354648,0.0155159,2.16424,5,0.1,14,1.4,-1.31339,1.3233,0.537171,-0.0586867,-0.866026,0.00690669,0.0090003,0,-0.00107288,0.00915675,2.26973,5,0.1,15,1.4,0.155422,-3.80238,0.556171,-0.866025,-0.132996,0.0207633,0,0.0187159,-0.00295043,0.0101381,2.26045,5,0.1,16,1.4,-2.14827,3.4049,0.585132,0.311959,-0.840622,0.0133172,-0.176907,0.227332,-0.00756979,0.00782392,0.606524,5,0.1,17,1.4,0.946077,3.33469,0.622933,-0.420947,-0.697809,-0.0128612,0.306487,0.99051,0.0557899,0.0136296,0.792603,5,0.1,18,1.4,0.763404,2.84104,0.553285,0.167766,0.0395954,-0.00530332,0.258327,0.759244,-0.122309,0.0151417,0.79224,5,0.1,19,1.4,-2.56258,3.81898,0.603944,0.866026,0.174469,-0.0029847,0,-0.0463724,0.00077486,0.0117861,1.79668,5,0.1
0,1.5,3.49838,-0.770266,0.564964,-0.0189066,0.866026,0.0136885,0.000715256,-3.72529e-06,-0.000495464,0.0202238,2.27157,5,0.1,1,1.5,1.26579,-3.44138,0.569513,-0.374852,-0.108744,0.0453037,-0.849202,0.00916421,-0.00379607,0.00910538,2.94781,5,0.1,2,1.5,2.71098,3.12228,0.651913,0.505938,0.0811987,-0.00711326,1.03635,-0.0460446,0.00402331,0.0106882,1.68069,5,0.1,3,1.5,1.57679,-1.77105,0.757384,-0.0103932,0.230632,0.187225,0.967398,0.0436157,0.370614,0.00857318,0.287507,5,0.1,4,1.5,3.61318,0.308421,0.627285,-0.144236,0.866025,-0.012561,0.0064671,8.9407e-07,0.000569969,0.0182081,2.25865,5,0.1,5,1.5,0.851018,2.58614,0.57927,0.846562,-0.12399,0.0203819,0.353388,0.617176,-0.019718,0.0130108,2.35464,5,0.1,6,1.5,-1.30791,-1.36872,0.567114,0.0830617,0.865774,0.00386685,-0.0267625,-0.0100285,-0.00124425,0.00872242,1.32522,5,0.1,7,1.5,1.35459,-1.8383,0.506592,-0.30615,0.51745,-0.0461167,1.01118,-0.326201,0.198774,0.029323,2.73734,5,0.1,8,1.5,-3.35275,-2.89414,0.587635,0.170461,0.825496,0.0103954,-0.0651032,0.527963,-0.00394136,0.0251423,1.75531,5,0.1,9,1.5,-3.33791,3.33698,0.608985,0.865047,-0.629025,-0.00602109,0.00861287,0.0274032,0.000271946,0.0124389,1.80384,5,0.1,10,1.5,-0.390657,1.69911,0.500013,0.0860612,-0.00971556,0.000153854,-0.0548512,-0.128135,0.000432134,0.0093172,1.28675,5,0.1,11,1.5,1.26548,-1.24926,0.727009,0.0589279,-0.662218,0.0611523,-0.192024,0.635058,0.338517,0.00962851,2.88679,5,0.1,12,1.5,3.46264,2.06822,0.61341,-0.296713,0.769204,-0.0127288,0.188857,-0.30677,0.00809878,0.0222942,0.448659,5,0.1,13,1.5,3.88218,0.95001,0.557137,-0.416825,0.866025,0.0244,0.0136346,-7.45058e-06,-0.000800937,0.0155159,2.16424,5,0.1,14,1.5,-1.31923,1.23669,0.537858,-0.058274,-0.866026,0.00685696,0.0025332,0,-0.000305474,0.00915675,2.26973,5,0.1,15,1.5,0.0688191,-3.81563,0.558239,-0.866025,-0.13229,0.0206508,-2.98023e-07,0.00301003,-0.000491738,0.0101381,2.26045,5,0.1,16,1.5,-2.11793,3.32184,0.586427,0.295029,-0.821001,0.0125933,-0.170842,0.200167,-0.00730529,0.00782392,0.606524,5,0.1,17,1.5,0.905088,3.2699,0.621967,-0.402199,-0.597706,-0.00612047,0.10284,1.00675,0.0751838,0.0136296,0.792603,5,0.1,18,1.5,0.78071,2.84741,0.552289,0.171582,0.0755638,-0.0132971,-0.148494,0.0227988,-0.042811,0.0151417,0.79224,5,0.1,19,1.5,-2.47598,3.83622,0.603649,0.866026,0.170203,-0.0029128,0,-0.0456274,0.00077486,0.0117861,1.79668,5,0.1
0,1.6,3.4965,-0.683664,0.566328,-0.0187099,0.866026,0.0135452,0.00405312,0,-0.00286102,0.0712059,2.27159,5,0.1,1,1.6,1.22359,-3.45218,0.574015,-0.471759,-0.10705,0.0445977,-1.00309,0.0288486,-0.0120103,0.0111098,2.59464,5,0.1,2,1.6,2.76655,3.13015,0.651223,0.601923,0.0761151,-0.00666976,0.831485,-0.0572205,0.00500679,0.0153603,1.29081,5,0.1,3,1.6,1.58032,-1.74802,0.777862,0.0778735,0.227389,0.220899,0.780582,-0.104606,0.285268,0.0211894,0.450829,5,0.1,4,1.6,3.59882,0.395023,0.626034,-0.14261,0.866025,-0.0124201,0.0318289,1.43051e-05,0.00280142,0.021779,2.2593,5,0.1,5,1.6,0.936875,2.57683,0.581207,0.864992,-0.0625789,0.0183195,0.0206828,0.594139,-0.0217259,0.0129424,2.29249,5,0.1,6,1.6,-1.29976,-1.28227,0.567493,0.0797123,0.862011,0.00371039,-0.0422001,-0.0803471,-0.00196695,0.0111203,0.991957,5,0.1,7,1.6,1.32895,-1.78862,0.50294,-0.207937,0.472075,-0.0274017,0.934184,-0.566423,0.170261,0.0282276,2.67143,5,0.1,8,1.6,-3.33606,-2.80959,0.588652,0.162685,0.859034,0.00992417,-0.094533,0.139832,-0.00575185,0.024837,1.32658,5,0.1,9,1.6,-3.25146,3.27436,0.608385,0.862646,-0.62145,-0.00594854,-0.0674725,0.147581,0.00140071,0.0141277,1.33386,5,0.1,10,1.6,-0.382338,1.69784,0.500028,0.0801466,-0.0121802,0.000146031,-0.0651777,0.0886917,-0.000476837,0.00621563,2.78719,5,0.1,11,1.6,1.27036,-1.31199,0.734997,0.0382602,-0.589466,0.0996724,-0.213504,0.810027,0.403076,0.0113956,0.563748,5,0.1,12,1.6,3.43396,2.14345,0.61218,-0.276339,0.733531,-0.0118554,0.224352,-0.426888,0.00965595,0.0182402,0.304165,5,0.1,13,1.6,3.84065,1.03661,0.559569,-0.412607,0.866026,0.0241533,0.0872612,0,-0.0050962,0.0142632,2.16893,5,0.1,14,1.6,-1.32503,1.15009,0.538541,-0.0576258,-0.866026,0.00678003,0.012815,0,-0.00151992,0.0109508,2.26984,5,0.1,15,1.6,-0.0177835,-3.82882,0.560298,-0.866026,-0.1311,0.0204623,3.57628e-06,0.026226,-0.00408292,0.00692779,2.26086,5,0.1,16,1.6,-2.08933,3.24093,0.587648,0.276262,-0.794673,0.0117913,-0.210643,0.350356,-0.0090003,0.0090784,0.416855,5,0.1,17,1.6,0.865278,3.21516,0.621737,-0.394392,-0.497407,0.00149906,0.0788271,0.994563,0.074327,0.0149464,0.891603,5,0.1,18,1.6,0.796683,2.85429,0.550841,0.144158,0.055474,-0.0148296,-0.372559,-0.37384,0.00780821,0.00828389,0.408985,5,0.1,19,1.6,-2.38937,3.85296,0.603362,0.866026,0.164217,-0.00281036,0,-0.0785589,0.0013411,0.0106065,1.38923,5,0.1
0,1.7,3.49464,-0.597061,0.567673,-0.0184838,0.866026,0.0133875,0.00153482,-3.72529e-06,-0.00105426,0.0712059,2.27159,5,0.1,1,1.7,1.17074,-3.46278,0.578429,-0.58937,-0.105023,0.0437537,-1.25845,0.017181,-0.00716001,0.0111098,2.59464,5,0.1,2,1.7,2.83099,3.13749,0.65058,0.686442,0.0707351,-0.0061987,0.803649,-0.0525117,0.00459701,0.0153603,1.29081,5,0.1,3,1.7,1.59077,-1.72612,0.800816,0.120123,0.207898,0.233018,0.115544,-0.271387,-0.0249594,0.0211894,0.450829,5,0.1,4,1.7,3.58467,0.481626,0.624802,-0.140759,0.866025,-0.012257,0.0131428,-1.78814e-06,0.00116229,0.021779,2.2593,5,0.1,5,1.7,1.02344,2.57357,0.582935,0.865961,-0.00279471,0.0162927,0.00258535,0.584215,-0.0192001,0.0129424,2.29249,5,0.1,6,1.7,-1.29199,-1.19618,0.567855,0.0757402,0.861495,0.00352524,-0.0397936,0.0195131,-0.00185519,0.0111203,0.991957,5,0.1,7,1.7,1.31282,-1.74446,0.500968,-0.115254,0.409487,-0.0129119,0.899784,-0.673771,0.118222,0.0282276,2.67143,5,0.1,8,1.7,-3.32024,-2.72326,0.589617,0.153809,0.865374,0.00938391,-0.0880808,0.00888109,-0.00536814,0.024837,1.32658,5,0.1,9,1.7,-3.16525,3.21285,0.607796,0.863024,-0.609163,-0.00583213,0.0256747,0.125155,0.00118464,0.0141277,1.33386,5,0.1,10,1.7,-0.374633,1.69716,0.50004,0.0740366,0.00293721,8.83825e-05,-0.0592116,0.328131,-0.000644475,0.00621563,2.78719,5,0.1,11,1.7,1.27309,-1.36685,0.747014,0.0163613,-0.507487,0.140545,-0.217892,0.825837,0.395719,0.0113956,0.563748,5,0.1,12,1.7,3.40739,2.2148,0.61104,-0.255303,0.693982,-0.0109505,0.203922,-0.388265,0.00876933,0.0182402,0.304165,5,0.1,13,1.7,3.79967,1.12321,0.561967,-0.407751,0.866026,0.0238702,0.0330508,0,-0.0019297,0.0142632,2.16893,5,0.1,14,1.7,-1.33075,1.06349,0.539214,-0.0568859,-0.866026,0.00669202,0.00521541,3.72529e-06,-0.000622123,0.0109508,2.26984,5,0.1,15,1.7,-0.104386,-3.84185,0.562332,-0.866025,-0.129775,0.0202562,-2.98023e-07,0.00785291,-0.00121817,0.00692779,2.26086,5,0.1,16,1.7,-2.06271,3.16309,0.588784,0.256465,-0.7625,0.0109457,-0.193,0.321746,-0.00823662,0.0090784,0.416855,5,0.1,17,1.7,0.826082,3.16969,0.622217,-0.390466,-0.418108,0.00769477,0.0225976,0.625148,0.0498742,0.0149464,0.891603,5,0.1,18,1.7,0.809092,2.85727,0.549243,0.102959,-0.00159629,-0.018419,-0.43663,-0.713691,-0.069432,0.00828389,0.408985,5,0.1,19,1.7,-2.30278,3.86901,0.603088,0.865811,0.156856,-0.00268435,-0.00856817,-0.074178,0.00127032,0.0106065,1.38923,5,0.1
0,1.8,3.4928,-0.510459,0.569004,-0.0182271,0.866026,0.0132024,0.00452995,0,-0.00312924,0.019365,2.27161,5,0.1,1,1.8,1.1057,-3.47318,0.582761,-0.707757,-0.102675,0.0427753,-1.04314,0.0334978,-0.0139773,0.0067172,2.35504,5,0.1,2,1.8,2.90324,3.1443,0.649984,0.753284,0.0652492,-0.00571907,0.494719,-0.0584126,0.005126,0.00770309,0.939699,5,0.1,3,1.8,1.60261,-1.70687,0.823604,0.110281,0.175652,0.219259,-0.270486,-0.362039,-0.234604,0.0149949,3.76306,5,0.1,4,1.8,3.57068,0.568228,0.623584,-0.138623,0.866026,-0.0120699,0.0352859,0,0.00306964,0.0201604,2.26005,5,0.1,5,1.8,1.11004,2.57608,0.58447,0.866026,0.0512898,0.0144109,-5.96046e-05,0.484943,-0.0186861,0.0123191,2.2692,5,0.1,6,1.8,-1.28463,-1.1101,0.568197,0.0713259,0.8573,0.00331998,-0.0503063,-0.139117,-0.00235438,0.00844228,0.713866,5,0.1,7,1.8,1.3056,-1.70697,0.500176,-0.0313669,0.33946,-0.00381321,0.763774,-0.716925,0.0644624,0.00653342,0.613295,5,0.1,8,1.8,-3.30533,-2.6368,0.590527,0.144213,0.862586,0.00879914,-0.107408,-0.0686646,-0.00655651,0.0209949,1.31995,5,0.1,9,1.8,-3.079,3.1527,0.607221,0.859404,-0.591868,-0.0056684,-0.132322,0.239134,0.00226498,0.0125429,0.952464,5,0.1,10,1.8,-0.36753,1.7,0.500046,0.0679359,0.0626087,2.23517e-05,-0.0642985,0.842452,-0.000655651,0.0085607,3.19624,5,0.1,11,1.8,1.27368,-1.41347,0.76291,-0.00418127,-0.425038,0.175637,-0.188172,0.819623,0.292957,0.00734446,0.969942,5,0.1,12,1.8,3.3829,2.28216,0.60999,-0.234288,0.651807,-0.0100479,0.221491,-0.471711,0.00953674,0.0235893,0.280444,5,0.1,13,1.8,3.75913,1.20982,0.564341,-0.402027,0.866026,0.0235349,0.0976324,0,-0.00569224,0.0124125,2.17484,5,0.1,14,1.8,-1.33641,0.976887,0.539879,-0.0560343,-0.866026,0.00659078,0.0141263,0,-0.00166893,0.00762768,2.26996,5,0.1,15,1.8,-0.190989,-3.85477,0.564348,-0.866025,-0.128239,0.0200152,0,0.0283718,-0.00438094,0.0098064,2.26133,5,0.1,16,1.8,-2.03805,3.0886,0.589837,0.236374,-0.725514,0.0100866,-0.2141,0.437617,-0.00908971,0.00816208,0.282328,5,0.1,17,1.8,0.787209,3.13062,0.623198,-0.385956,-0.366384,0.0115424,0.0837743,0.435948,0.0275075,0.0118689,0.726231,5,0.1,18,1.8,0.8172,2.85335,0.546995,0.0594422,-0.0777662,-0.026916,-0.422478,-0.768304,-0.092715,0.00779873,0.287557,5,0.1,19,1.8,-2.21631,3.8843,0.602826,0.862592,0.148463,-0.00253916,-0.0684261,-0.0976324,0.00163913,0.0105143,1.04342,5,0.1
0,1.9,3.491,-0.423856,0.570314,-0.0179626,0.866026,0.0130227,0.00181794,-3.57628e-06,-0.0012219,0.019365,2.27161,5,0.1,1,1.9,1.03014,-3.48331,0.586984,-0.798278,-0.100279,0.0417749,-0.735201,0.0197887,-0.00826642,0.0067172,2.35504,5,0.1,2,1.9,2.98101,3.15054,0.649436,0.800826,0.0598215,-0.00524288,0.412643,-0.0519454,0.00455603,0.00770309,0.939699,5,0.1,3,1.9,1.61127,-1.69137,0.844421,0.0543233,0.132405,0.197583,-0.780359,-0.482991,-0.204585,0.0149949,3.76306,5,0.1,4,1.9,3.55694,0.654831,0.622388,-0.136473,0.866026,-0.0118832,0.0155121,-3.72529e-06,0.00133738,0.0201604,2.26005,5,0.1,5,1.9,1.19664,2.5836,0.585825,0.866025,0.0984404,0.012739,1.49012e-05,0.443265,-0.0151917,0.0123191,2.2692,5,0.1,6,1.9,-1.27773,-1.02491,0.568518,0.0666281,0.847268,0.00310037,-0.0457838,-0.101846,-0.00213832,0.00844228,0.713866,5,0.1,7,1.9,1.30581,-1.67737,0.500042,0.0310171,0.246554,0.000445731,0.491723,-1.08489,0.0238791,0.00653342,0.613295,5,0.1,8,1.9,-3.29126,-2.5506,0.591376,0.138651,0.863016,0.00818837,-0.0179559,0.0344217,-0.00592321,0.0209949,1.31995,5,0.1,9,1.9,-2.99355,3.09462,0.606664,0.850117,-0.570053,-0.00546193,-0.0942051,0.219136,0.00207499,0.0125429,0.952464,5,0.1,10,1.9,-0.360999,1.71185,0.500132,0.0631731,0.185217,0.00243541,-0.0354555,1.49467,0.0434294,0.0085607,3.19624,5,0.1,11,1.9,1.27213,-1.45245,0.781954,-0.0281958,-0.359735,0.204881,-0.271372,0.510842,0.271603,0.00734446,0.969942,5,0.1,12,1.9,3.36052,2.34511,0.609343,-0.213764,0.608127,-0.000274368,0.195369,-0.421971,0.166446,0.0235893,0.280444,5,0.1,13,1.9,3.71926,1.29642,0.566667,-0.396166,0.866026,0.0229737,0.042066,0,-0.0063628,0.0124125,2.17484,5,0.1,14,1.9,-1.34196,0.890284,0.540532,-0.0551825,-0.866026,0.00649011,0.00605732,3.72529e-06,-0.00071153,0.00762768,2.26996,5,0.1,15,1.9,-0.277591,-3.8675,0.566336,-0.866025,-0.126754,0.0197873,8.9407e-07,0.00882149,-0.00134856,0.0098064,2.26133,5,0.1,16,1.9,-2.01543,3.01811,0.590802,0.216494,-0.684934,0.00924207,-0.189967,0.397578,-0.00807643,0.00816208,0.282328,5,0.1,17,1.9,0.749141,3.09537,0.624435,-0.374146,-0.345372,0.0126994,0.158392,0.035882,-0.00220165,0.0118689,0.726231,5,0.1,18,1.9,0.821352,2.84159,0.543719,0.0265642,-0.157719,-0.0395082,-0.244852,-0.795439,-0.147536,0.00779873,0.287557,5,0.1,19,1.9,-2.13011,3.89868,0.60258,0.86298,0.13935,-0.0023854,0.0272244,-0.0891984,0.00150874,0.0105143,1.04342,5,0.1
0,2,3.48921,-0.337253,0.571608,-0.0176847,0.866025,0.0128284,0.00429153,1.43051e-05,-0.00312924,0.0190309,2.27163,5,0.1,1,2,0.947331,-3.49323,0.591114,-0.850743,-0.0977933,0.0407398,-0.305653,0.0334978,-0.0140369,0.011171,2.27537,5,0.1,2,2,3.06273,3.15627,0.648935,0.828534,0.0545621,-0.00478029,0.112176,-0.0545979,0.00476837,0.00807774,0.654933,5,0.1,3,2,1.61242,-1.6806,0.863169,-0.0336587,0.0825882,0.17738,-0.926316,-0.497878,-0.203401,0.00837331,0.572913,5,0.1,4,2,3.54339,0.741433,0.621208,-0.134194,0.866026,-0.0116855,0.0355244,0,0.00306964,0.0170799,2.27361,5,0.1,5,2,1.28324,2.5955,0.587025,0.866026,0.137442,0.0112951,0,0.326395,-0.0140071,0.0111116,2.2523,5,0.1,6,2,-1.27131,-0.940896,0.568817,0.061813,0.830108,0.00287592,-0.0520349,-0.269175,-0.00244379,0.0110467,0.499109,5,0.1,7,2,1.31098,-1.65836,0.50016,0.0685245,0.132477,0.00153184,0.266016,-1.15311,0.000417233,0.0238179,2.66318,5,0.1,8,2,-3.27743,-2.46424,0.592165,0.138146,0.862604,0.00757128,-0.0026226,-0.0683069,-0.00661612,0.0223777,0.983392,5,0.1,9,2,-2.90922,3.03882,0.606129,0.833666,-0.544351,-0.0052169,-0.263095,0.309944,0.00292063,0.0139867,0.662291,5,0.1,10,2,-0.354842,1.73814,0.500628,0.0600599,0.341308,0.00773221,-0.03016,1.53977,0.0582635,0.00891346,2.70984,5,0.1,11,2,1.26795,-1.48621,0.80363,-0.0549018,-0.318411,0.226597,-0.247955,0.335813,0.149488,0.00744351,0.828556,5,0.1,12,2,3.34012,2.40376,0.610274,-0.194144,0.564027,0.0197753,0.201583,-0.473619,0.219405,0.0179343,0.19954,5,0.1,13,2,3.67992,1.38302,0.568926,-0.389761,0.866026,0.0221238,0.101686,0,-0.0111461,0.0116205,2.18043,5,0.1,14,2,-1.34744,0.803681,0.541177,-0.0542819,-0.866026,0.00638366,0.0141859,0,-0.00166893,0.00733006,2.27008,5,0.1,15,2,-0.364194,-3.88012,0.568305,-0.866025,-0.125194,0.0195444,-1.43051e-05,0.027895,-0.00432134,0.00853542,2.26179,5,0.1,16,2,-1.99473,2.95169,0.591686,0.197282,-0.642025,0.00842512,-0.198662,0.476599,-0.00846386,0.00958905,0.189722,5,0.1,17,2,0.71268,3.0607,0.625659,-0.353369,-0.3501,0.0114977,0.260234,-0.0908375,-0.0199676,0.0122468,0.568051,5,0.1,18,2,0.823011,2.82204,0.539019,0.00867099,-0.230795,-0.0543967,-0.121325,-0.64075,-0.141531,0.00679621,0.247724,5,0.1,19,2,-2.04384,3.91216,0.602349,0.859773,0.129855,-0.00222325,-0.124872,-0.103831,0.00175834,0.0115414,0.7544,5,0.1
0,2.1,3.48746,-0.250651,0.572881,-0.0174396,0.866025,0.012648,0.00163913,0,-0.00121817,0.0190309,2.27163,5,0.1,1,2.1,0.861321,-3.50288,0.595134,-0.86507,-0.0954714,0.0397657,-0.0382029,0.0182837,-0.00767037,0.011171,2.27537,5,0.1,2,2.1,3.14612,3.16146,0.648479,0.838087,0.049537,-0.00434127,0.0439584,-0.0474304,0.00414252,0.00807774,0.654933,5,0.1,3,2.1,1.60602,-1.67504,0.879857,-0.0801755,0.0271449,0.156101,-0.0756755,-0.585653,-0.221036,0.00837331,0.572913,5,0.1,4,2.1,3.5301,0.828036,0.620324,-0.131962,0.866026,-0.00372464,0.0165701,-3.72529e-06,0.139538,0.0170799,2.27361,5,0.1,5,2.1,1.36985,2.61084,0.588092,0.866026,0.168845,0.0100853,0,0.288069,-0.0106394,0.0111116,2.2523,5,0.1,6,2.1,-1.26537,-0.859109,0.569093,0.0569921,0.806013,0.00264989,-0.0461787,-0.245374,-0.00215694,0.0110467,0.499109,5,0.1,7,2.1,1.31945,-1.64959,0.500265,0.102721,0.0552226,0.000239257,0.37168,-0.418797,-0.0192262,0.0238179,2.66318,5,0.1,8,2.1,-3.26369,-2.37806,0.592891,0.13615,0.862216,0.00695977,-0.0391901,0.0119954,-0.0058338,0.0223777,0.983392,5,0.1,9,2.1,-2.82705,2.98585,0.605622,0.810181,-0.515635,-0.00494588,-0.239611,0.282452,0.00267476,0.0139867,0.662291,5,0.1,10,2.1,-0.348949,1.78043,0.501727,0.0580614,0.506756,0.014467,-0.0136346,1.67967,0.0722036,0.00891346,2.70984,5,0.1,11,2.1,1.26147,-1.5172,0.826622,-0.072482,-0.30814,0.229412,-0.109382,-0.075981,-0.0806265,0.00744351,0.828556,5,0.1,12,2.1,3.32165,2.45794,0.613462,-0.175635,0.520352,0.0447445,0.173971,-0.416622,0.265338,0.0179343,0.19954,5,0.1,13,2.1,3.6413,1.46963,0.571088,-0.383604,0.866026,0.0211474,0.0435412,0,-0.00925735,0.0116205,2.18043,5,0.1,14,2.1,-1.35282,0.717079,0.541809,-0.0534214,-0.866026,0.00628242,0.00610948,3.72529e-06,-0.000718981,0.00733006,2.27008,5,0.1,15,2.1,-0.450796,-3.89255,0.570246,-0.866026,-0.123762,0.0193233,1.93715e-06,0.00816584,-0.00125915,0.00853542,2.26179,5,0.1,16,2.1,-1.97594,2.88974,0.592489,0.179005,-0.597902,0.00764588,-0.172354,0.425473,-0.00735,0.00958905,0.189722,5,0.1,17,2.1,0.678701,3.02481,0.62668,-0.325587,-0.370713,0.00867685,0.298034,-0.278085,-0.0344552,0.0122468,0.568051,5,0.1,18,2.1,0.823722,2.79589,0.53301,0.00939555,-0.290129,-0.0644553,0.110619,-0.525832,-0.0617541,0.00679621,0.247724,5,0.1,19,2.1,-1.95831,3.92465,0.602135,0.851496,0.120225,-0.00205962,-0.082314,-0.0925511,0.00158325,0.0115414,0.7544,5,0.1
0,2.2,3.48572,-0.164048,0.574138,-0.017184,0.866025,0.0124604,0.00417233,0,-0.00306964,0.0239469,2.27164,5,0.1,1,2.2,0.774738,-3.51232,0.599068,-0.866026,-0.0932276,0.038825,0,0.0305176,-0.0126958,0.0138939,2.26573,5,0.1,2,2.2,3.2298,3.16618,0.648066,0.831515,0.0448227,-0.00392944,-0.198483,-0.0479221,0.00420213,0.00696103,0.443112,5,0.1,3,2.2,1.59854,-1.67523,0.894342,-0.0617415,-0.0301182,0.13341,0.386596,-0.540793,-0.231534,0.0102067,0.38014,5,0.1,4,2.2,3.51701,0.914638,0.620761,-0.129604,0.866026,0.0132635,0.035882,0,0.187278,0.0188528,2.27468,5,0.1,5,2.2,1.45645,2.62901,0.58905,0.866026,0.192779,0.00908971,0,0.181437,-0.00962615,0.0102841,1.92143,5,0.1,6,2.2,-1.2599,-0.779913,0.569348,0.0522792,0.775538,0.00242889,-0.0493526,-0.386387,-0.00226498,0.0102339,0.34166,5,0.1,7,2.2,1.33146,-1.64516,0.500202,0.13549,0.0426441,-0.00129789,0.256181,0.133157,-0.00840425,0.0287203,2.33959,5,0.1,8,2.2,-3.25034,-2.29197,0.593557,0.130028,0.856739,0.00636876,-0.0840425,-0.15533,-0.00616908,0.0192178,0.714378,5,0.1,9,2.2,-2.74741,2.93577,0.605141,0.780195,-0.484824,-0.00465214,-0.3829,0.346065,0.00327826,0.0141155,0.451927,5,0.1,10,2.2,-0.34321,1.83913,0.503529,0.0566728,0.661823,0.0214398,-0.0168979,1.35696,0.0641048,0.00741761,2.3995,5,0.1,11,2.2,1.25386,-1.5487,0.848867,-0.0778735,-0.323996,0.212844,-0.00375509,-0.199556,-0.23964,0.00841566,0.642036,5,0.1,12,2.2,3.30495,2.50787,0.61924,-0.158441,0.477874,0.0702992,0.173807,-0.444651,0.234962,0.0179035,0.184193,5,0.1,13,2.2,3.60321,1.55623,0.573153,-0.377274,0.866026,0.020121,0.0985861,0,-0.0118315,0.0132267,2.15215,5,0.1,14,2.2,-1.35812,0.630476,0.542433,-0.0525355,-0.866026,0.00617802,0.0137687,0,-0.00160933,0.00853464,2.2702,5,0.1,15,2.2,-0.537399,-3.90487,0.572169,-0.866026,-0.122297,0.0190958,0,0.0263453,-0.00414252,0.00959442,2.26221,5,0.1,16,2.2,-1.95889,2.83212,0.593217,0.161886,-0.553626,0.00691712,-0.173807,0.473619,-0.00745058,0.00673882,0.127157,5,0.1,17,2.2,0.647711,2.98633,0.627365,-0.293395,-0.398189,0.0049606,0.346899,-0.239611,-0.0383258,0.0144962,2.48678,5,0.1,18,2.2,0.825426,2.76458,0.526372,0.0262946,-0.332642,-0.0671834,0.207603,-0.311375,0.00497699,0.0082009,0.233183,5,0.1,19,2.2,-1.87378,3.9362,0.601937,0.836265,0.110698,-0.00189692,-0.251174,-0.100613,0.00172853,0.0085943,0.529239,5,0.1
0,2.3,3.48402,-0.0774459,0.575373,-0.0169467,0.866025,0.0122835,0.00156462,4.47035e-07,-0.00118837,0.0239469,2.27164,5,0.1,1,2.3,0.688135,-3.52153,0.602904,-0.866026,-0.0912227,0.0379917,3.72529e-06,0.0148416,-0.00617281,0.0138939,2.26573,5,0.1,2,2.3,3.31198,3.17044,0.647693,0.811591,0.0404444,-0.00354555,-0.228539,-0.0409335,0.00359118,0.00696103,0.443112,5,0.1,3,2.3,1.59497,-1.68078,0.906573,-0.0042228,-0.0789564,0.111672,0.711627,-0.428826,-0.204571,0.0102067,0.38014,5,0.1,4,2.3,3.50417,1.00124,0.622699,-0.127352,0.866025,0.0225914,0.0164658,0,0.0135712,0.0188528,2.27468,5,0.1,5,2.3,1.54305,2.64917,0.589915,0.866026,0.209767,0.00826903,0,0.146896,-0.00717491,0.0102841,1.92143,5,0.1,6,2.3,-1.25491,-0.704171,0.56958,0.047739,0.739804,0.00222037,-0.0429377,-0.355043,-0.00197068,0.0102339,0.34166,5,0.1,7,2.3,1.34577,-1.63867,0.50007,0.145911,0.100028,-0.00106432,-0.0279695,0.910491,0.00861287,0.0287203,2.33959,5,0.1,8,2.3,-3.23789,-2.20693,0.594165,0.117715,0.844663,0.00580251,-0.156283,-0.125051,-0.00533462,0.0192178,0.714378,5,0.1,9,2.3,-2.67119,2.88892,0.604691,0.744795,-0.452766,-0.00434788,-0.352129,0.310093,0.0029467,0.0141155,0.451927,5,0.1,10,2.3,-0.3376,1.91147,0.506004,0.0556962,0.777843,0.0280803,-0.00606664,0.934795,0.0652224,0.00741761,2.3995,5,0.1,11,2.3,1.24627,-1.58229,0.868868,-0.0719851,-0.348747,0.186426,0.111021,-0.264682,-0.284515,0.00841566,0.642036,5,0.1,12,2.3,3.28976,2.55357,0.626994,-0.147045,0.437078,0.0807255,0.0685006,-0.385284,-0.00793114,0.0179035,0.184193,5,0.1,13,2.3,3.56583,1.64283,0.575113,-0.371254,0.866026,0.0191259,0.0431091,0,-0.00895932,0.0132267,2.15215,5,0.1,14,2.3,-1.36333,0.543874,0.543045,-0.0517,-0.866026,0.00608051,0.00593066,3.57628e-06,-0.000689179,0.00853464,2.2702,5,0.1,15,2.3,-0.624001,-3.91702,0.574066,-0.866026,-0.120993,0.0188898,3.72529e-06,0.00698864,-0.00111759,0.00959442,2.26221,5,0.1,16,2.3,-1.94352,2.77899,0.593873,0.146014,-0.509979,0.00623669,-0.148229,0.415698,-0.00634789,0.00673882,0.127157,5,0.1,17,2.3,0.620079,2.94421,0.628288,-0.259449,-0.452892,0.018708,0.334874,-0.761613,0.275232,0.0144962,2.48678,5,0.1,18,2.3,0.829426,2.72994,0.519795,0.0563062,-0.357867,-0.0633295,0.364047,-0.182047,0.067424,0.0082009,0.233183,5,0.1,19,2.3,-1.79129,3.9468,0.601756,0.814036,0.101429,-0.00173748,-0.227042,-0.0879467,0.00151992,0.0085943,0.529239,5,0.1
0,2.4,3.48234,0.00915667,0.576594,-0.0166953,0.866025,0.0121012,0.00393391,-1.19209e-06,-0.00298023,0.0176878,2.27274,5,0.1,1,2.4,0.601533,-3.53057,0.606668,-0.866026,-0.0893533,0.0372142,0,0.026226,-0.0109375,0.00653148,2.26614,5,0.1,2,2.4,3.39176,3.17428,0.647356,0.781059,0.0364244,-0.00319332,-0.40102,-0.0402927,0.00354648,0.00615677,0.294778,5,0.1,3,2.4,1.59829,-1.69059,0.916754,0.0713825,-0.114748,0.0922695,0.760615,-0.282884,-0.184447,0.00795811,0.281641,5,0.1,4,2.4,3.49154,1.08784,0.624836,-0.125068,0.866026,0.0185668,0.0344515,0,-0.082463,0.0187301,2.07493,5,0.1,5,2.4,1.62965,2.67075,0.590708,0.866026,0.220257,0.00758767,0,0.0553131,-0.00676513,0.00893439,1.48971,5,0.1,6,2.4,-1.25035,-0.632092,0.569792,0.0434369,0.700034,0.00202209,-0.044167,-0.458598,-0.00205636,0.0089771,0.230814,5,0.1,7,2.4,1.35989,-1.62354,0.500008,0.133532,0.206301,-0.000210106,-0.203013,1.13451,0.00658631,0.0289469,1.91144,5,0.1,8,2.4,-3.22698,-2.12329,0.594719,0.0998557,0.825167,0.00527054,-0.19598,-0.291467,-0.00545382,0.0217648,0.196768,5,0.1,9,2.4,-2.5986,2.84523,0.604272,0.70523,-0.420284,-0.00403821,-0.457644,0.349879,0.00333786,0.0123249,0.304885,5,0.1,10,2.4,-0.332066,1.99307,0.509116,0.0548698,0.845426,0.0338882,-0.0128895,0.411987,0.0485182,0.00936896,2.28654,5,0.1,11,2.4,1.23975,-1.61839,0.886044,-0.0575751,-0.371656,0.156726,0.168681,-0.171304,-0.305802,0.00698263,0.606704,5,0.1,12,2.4,3.27532,2.59536,0.634752,-0.142217,0.398445,0.0720873,0.0391006,-0.397205,-0.149637,0.0152871,0.185627,5,0.1,13,2.4,3.52897,1.72943,0.57698,-0.365019,0.866026,0.0181779,0.0969172,0,-0.0106096,0.0129015,1.67783,5,0.1,14,2.4,-1.36846,0.457271,0.543649,-0.0508428,-0.866025,0.00598133,0.0133514,-1.43051e-05,-0.00157952,0.00738401,2.29868,5,0.1,15,2.4,-0.710604,-3.92906,0.575947,-0.866026,-0.119656,0.0186771,0,0.025034,-0.0038743,0.0103884,2.26261,5,0.1,16,2.4,-1.92965,2.73008,0.594466,0.131461,-0.467712,0.00561327,-0.146151,0.440717,-0.00625849,0.0106435,0.179591,5,0.1,17,2.4,0.595807,2.89488,0.631794,-0.225964,-0.534236,0.0532389,0.336528,-0.795364,0.385672,0.0108462,1.97972,5,0.1,18,2.4,0.836941,2.69353,0.51387,0.0940874,-0.367296,-0.0545621,0.369966,-0.000238419,0.10398,0.00602591,0.227757,5,0.1,19,2.4,-1.7112,3.9565,0.60159,0.785196,0.092566,-0.00158399,-0.372887,-0.0915527,0.00154972,0.0118122,0.363158,5,0.1
0,2.5,3.48058,0.0957592,0.57779,-0.0192784,0.866025,0.0118121,-0.048399,7.45058e-07,-0.00323728,0.0176878,2.27274,5,0.1,1,2.5,0.51493,-3.53941,0.610351,-0.866026,-0.0877447,0.0365435,3.57628e-06,0.0111461,-0.00463799,0.00653148,2.26614,5,0.1,2,2.5,3.46794,3.17774,0.647053,0.742592,0.0327654,-0.00287136,-0.392035,-0.0339448,0.00298396,0.00615677,0.294778,5,0.1,3,2.5,1.6094,-1.70322,0.92511,0.151561,-0.135404,0.0753354,0.805952,-0.133209,-0.155553,0.00795811,0.281641,5,0.1,4,2.5,3.47916,1.17445,0.626131,-0.122684,0.866026,0.00611488,0.0197589,0,-0.155352,0.0187301,2.07493,5,0.1,5,2.5,1.71625,2.69303,0.591436,0.865856,0.224927,0.00700681,-0.00678003,0.0289232,-0.00516698,0.00893439,1.48971,5,0.1,6,2.5,-1.24621,-0.564253,0.569984,0.0393992,0.657482,0.00183424,-0.0378415,-0.414576,-0.00176206,0.0089771,0.230814,5,0.1,7,2.5,1.37201,-1.59667,0.500012,0.107134,0.334673,0.000219233,-0.310503,1.35452,0.00230968,0.0289469,1.91144,5,0.1,8,2.5,-3.21805,-2.04243,0.59522,0.0780255,0.789863,0.00477321,-0.233561,-0.426397,-0.00464916,0.0217648,0.196768,5,0.1,9,2.5,-2.53023,2.80485,0.603884,0.662761,-0.388007,-0.00372976,-0.414073,0.308171,0.00295043,0.0123249,0.304885,5,0.1,10,2.5,-0.326621,2.07887,0.512752,0.0541808,0.864738,0.0387979,-0.00412576,0.0514984,0.046555,0.00936896,2.28654,5,0.1,11,2.5,1.23491,-1.65579,0.900194,-0.0385957,-0.370632,0.126414,0.2032,0.172645,-0.297796,0.00698263,0.606704,5,0.1,12,2.5,3.26134,2.63354,0.641132,-0.137073,0.36773,0.0548809,0.0659972,-0.241339,-0.187684,0.0152871,0.185627,5,0.1,13,2.5,3.49286,1.81603,0.57875,-0.357455,0.865929,0.0172486,0.0713915,-0.00386685,-0.0086911,0.0129015,1.67783,5,0.1,14,2.5,-1.37373,0.370679,0.544233,-0.0565039,-0.865522,0.00563245,-0.109307,0.0201593,-0.0051707,0.00738401,2.29868,5,0.1,15,2.5,-0.797206,-3.94095,0.577803,-0.866026,-0.118451,0.0184913,3.72529e-06,0.00621378,-0.0009574,0.0103884,2.26261,5,0.1,16,2.5,-1.91718,2.68523,0.594998,0.118197,-0.431748,0.00504544,-0.122972,0.302106,-0.00526384,0.0106435,0.179591,5,0.1,17,2.5,0.574828,2.83712,0.63928,-0.194182,-0.622943,0.0980847,0.301968,-0.910193,0.482619,0.0108462,1.97972,5,0.1,18,2.5,0.848397,2.65693,0.50897,0.136284,-0.363228,-0.0431633,0.446275,0.0881106,0.120349,0.00602591,0.227757,5,0.1,19,2.5,-1.63443,3.96533,0.601438,0.750778,0.0841837,-0.00144159,-0.343002,-0.0787824,0.00134483,0.0118122,0.363158,5,0.1
0,2.6,3.47837,0.182362,0.578951,-0.0251055,0.866025,0.01138,-0.0624657,0,-0.00563264,0.0143914,2.27133,5,0.1,1,2.6,0.428328,-3.54812,0.613978,-0.866025,-0.0862479,0.0359178,-1.43051e-05,0.022769,-0.00944734,0.00768499,2.26647,5,0.1,2,2.6,3.54009,3.18085,0.64678,0.698704,0.0294507,-0.00257939,-0.501633,-0.0331402,0.00289083,0.00916075,0.194764,5,0.1,3,2.6,1.62841,-1.7172,0.931905,0.226203,-0.142038,0.0609249,0.660241,-0.00286102,-0.133723,0.00866891,0.220968,5,0.1,4,2.6,3.46701,1.26105,0.625922,-0.120002,0.866026,-0.0105202,0.0385046,0,-0.168711,0.0165147,1.61555,5,0.1,5,2.6,1.80275,2.71556,0.592112,0.863317,0.224525,0.00649989,-0.0542998,-0.0431538,-0.0051856,0.0113254,1.12194,5,0.1,6,2.6,-1.24246,-0.500652,0.570159,0.0356585,0.613394,0.00165999,-0.0379682,-0.482292,-0.00175834,0.0076124,0.156976,5,0.1,7,2.6,1.38109,-1.5566,0.500041,0.074017,0.463605,0.000306964,-0.340521,1.16658,-0.000268221,0.0292794,1.50468,5,0.1,8,2.6,-3.21143,-1.96587,0.595675,0.0544012,0.738099,0.00431538,-0.233531,-0.615001,-0.00464916,0.0215427,0.205931,5,0.1,9,2.6,-2.4661,2.76761,0.603526,0.618649,-0.356537,-0.00342876,-0.483394,0.329733,0.00318885,0.0099608,0.204597,5,0.1,10,2.6,-0.321231,2.16545,0.516841,0.0534914,0.866026,0.0426695,-0.0119805,0,0.0287294,0.0073865,2.2687,5,0.1,11,2.6,1.23207,-1.69155,0.911378,-0.0182897,-0.34073,0.0976384,0.197053,0.408471,-0.275642,0.0102248,0.383654,5,0.1,12,2.6,3.24802,2.6692,0.645665,-0.128686,0.345963,0.0357583,0.102878,-0.211954,-0.189453,0.0151127,0.142464,5,0.1,13,2.6,3.45755,1.90258,0.580429,-0.347853,0.864479,0.0163168,0.132322,-0.0309348,-0.0104308,0.0121141,0.509845,5,0.1,14,2.6,-1.38001,0.284389,0.544766,-0.069654,-0.857963,0.00498891,-0.140488,0.161269,-0.00751019,0.0102057,2.13122,5,0.1,15,2.6,-0.883809,-3.95275,0.579644,-0.866026,-0.117189,0.0182956,0,0.0238419,-0.00372529,0.00659235,2.26298,5,0.1,16,2.6,-1.90596,2.64349,0.595477,0.10621,-0.403208,0.00453293,-0.119567,0.285983,-0.005126,0.00762881,0.130257,5,0.1,17,2.6,0.556881,2.77055,0.651468,-0.16509,-0.704503,0.144781,0.28187,-0.671744,0.430197,0.0133622,1.76029,5,0.1,18,2.6,0.864195,2.62124,0.505257,0.17855,-0.348681,-0.0311315,0.378817,0.206232,0.11754,0.00524315,0.23879,5,0.1,19,2.6,-1.5612,3.97336,0.601301,0.711972,0.0763535,-0.00130683,-0.451863,-0.0795126,0.0013411,0.0100913,2.5122,5,0.1
0,2.7,3.4755,0.268964,0.580064,-0.0326805,0.866025,0.0108923,-0.0830293,-8.9407e-07,-0.00458583,0.0143914,2.27133,5,0.1,1,2.7,0.341725,-3.55667,0.617537,-0.866025,-0.0849385,0.0353755,1.78814e-06,0.00847876,-0.00350177,0.00768499,2.26647,5,0.1,2,2.7,3.60757,3.18364,0.646536,0.651466,0.0264566,-0.00231816,-0.462964,-0.0276119,0.00241026,0.00916075,0.194764,5,0.1,3,2.7,1.65431,-1.73121,0.937369,0.290821,-0.136265,0.0487328,0.604145,0.110917,-0.111014,0.00866891,0.220968,5,0.1,4,2.7,3.45518,1.34764,0.624138,-0.116789,0.865593,-0.0240869,0.0309795,-0.0172928,-0.104088,0.0165147,1.61555,5,0.1,5,2.7,1.88904,2.7378,0.592738,0.863707,0.219951,0.00604801,0.0193492,-0.0558197,-0.00410527,0.0113254,1.12194,5,0.1,6,2.7,-1.23897,-0.441676,0.57032,0.0351166,0.56627,0.00159033,0.0196174,-0.472996,0.000119209,0.0076124,0.156976,5,0.1,7,2.7,1.38674,-1.50431,0.500069,0.0387402,0.581495,0.000234786,-0.354446,1.13133,-0.00107661,0.0292794,1.50468,5,0.1,8,2.7,-3.20703,-1.89498,0.596085,0.0348601,0.680896,0.00389367,-0.16053,-0.549957,-0.00391901,0.0215427,0.205931,5,0.1,9,2.7,-2.40652,2.7335,0.603198,0.573938,-0.32627,-0.00313623,-0.429422,0.286028,0.00276789,0.0099608,0.204597,5,0.1,10,2.7,-0.31592,2.25205,0.521257,0.0528447,0.866026,0.045641,-0.00405312,0,0.0277534,0.0073865,2.2687,5,0.1,11,2.7,1.23123,-1.72327,0.919809,0.00146274,-0.291059,0.0714744,0.192307,0.566304,-0.245996,0.0102248,0.383654,5,0.1,12,2.7,3.23578,2.70287,0.648293,-0.115022,0.328404,0.0168913,0.165209,-0.155255,-0.183422,0.0151127,0.142464,5,0.1,13,2.7,3.4237,1.98877,0.582013,-0.326437,0.857556,0.015379,0.288039,-0.13449,-0.00890717,0.0121141,0.509845,5,0.1,14,2.7,-1.38828,0.199184,0.545212,-0.100483,-0.847171,0.00380734,-0.431336,0.0974695,-0.0151359,0.0102057,2.13122,5,0.1,15,2.7,-0.970411,-3.9644,0.581463,-0.866026,-0.116059,0.0181189,0,0.00572205,-0.00090152,0.00659235,2.26298,5,0.1,16,2.7,-1.8959,2.60442,0.595906,0.0954123,-0.379591,0.00407044,-0.099577,0.205219,-0.00426173,0.00762881,0.130257,5,0.1,17,2.7,0.541708,2.69816,0.668143,-0.139053,-0.729949,0.188621,0.241529,0.11991,0.424802,0.0133622,1.76029,5,0.1,18,2.7,0.884077,2.58752,0.502709,0.219704,-0.32457,-0.020116,0.41699,0.276357,0.100948,0.00524315,0.23879,5,0.1,19,2.7,-1.49089,3.98059,0.601177,0.705252,0.0683237,-0.00117095,0.216492,-0.0815541,0.00138953,0.0100913,2.5122,5,0.1
0,2.8,3.47182,0.355567,0.581129,-0.0406563,0.866025,0.0103831,-0.07236,1.43051e-05,-0.00593066,0.0176203,2.2701,5,0.1,1,2.8,0.255122,-3.56511,0.621053,-0.866025,-0.0836849,0.0348568,0,0.0201464,-0.00840425,0.00801963,2.26676,5,0.1,2,2.8,3.67033,3.18615,0.646316,0.602782,0.0237763,-0.00208467,-0.524163,-0.0267029,0.00235438,0.00879678,0.128695,5,0.1,3,2.8,1.68613,-1.74414,0.941718,0.342309,-0.121233,0.0385612,0.406444,0.183284,-0.0931323,0.011778,4.32403,5,0.1,4,2.8,3.44368,1.43398,0.621305,-0.112915,0.859112,-0.0316396,0.0500679,-0.138342,-0.0485182,0.0193283,1.4245,5,0.1,5,2.8,1.97535,2.75944,0.593323,0.860202,0.212115,0.00563562,-0.116229,-0.105977,-0.00435114,0.00938102,0.816468,5,0.1,6,2.8,-1.23531,-0.387483,0.570481,0.0382543,0.516682,0.00163913,0.0373721,-0.52707,0.000685453,0.0128875,0.107564,5,0.1,7,2.8,1.38889,-1.44097,0.500086,0.00496209,0.679687,0.000108778,-0.313222,0.790536,-0.00137091,0.0278802,1.11617,5,0.1,8,2.8,-3.20425,-1.82967,0.596455,0.0217021,0.624582,0.00351071,-0.105619,-0.590622,-0.0038147,0.0193606,1.7461,5,0.1,9,2.8,-2.35131,2.7023,0.602898,0.529623,-0.297558,-0.00285804,-0.469685,0.29552,0.00283122,0.0132322,0.137207,5,0.1,10,2.8,-0.310664,2.33865,0.525939,0.0521511,0.866026,0.0477225,-0.0119954,0,0.0118017,0.00738042,1.92456,5,0.1,11,2.8,1.23229,-1.74941,0.925787,0.0191987,-0.230843,0.0487164,0.15837,0.623047,-0.208139,0.00732256,0.42986,5,0.1,12,2.8,3.22517,2.73492,0.649105,-0.0966072,0.312179,-0.000159442,0.198483,-0.180602,-0.154465,0.0155526,0.114776,5,0.1,13,2.8,3.3927,2.0735,0.583505,-0.291777,0.833154,0.0144348,0.397682,-0.370741,-0.0103712,0.0115897,0.333957,5,0.1,14,2.8,-1.40066,0.115136,0.545511,-0.148025,-0.831192,0.00213832,-0.485361,0.252008,-0.017494,0.00884762,1.66776,5,0.1,15,2.8,-1.05701,-3.97596,0.583267,-0.866026,-0.114852,0.0179291,0,0.023365,-0.00366569,0.00864191,2.26335,5,0.1,16,2.8,-1.88684,2.56748,0.596292,0.0857413,-0.358921,0.00365674,-0.0960231,0.221729,-0.00411272,0.00677228,0.194198,5,0.1,17,2.8,0.528961,2.62678,0.688973,-0.11632,-0.688577,0.226027,0.215083,0.669956,0.307947,0.00998098,1.5821,5,0.1,18,2.8,0.908011,2.55656,0.501163,0.257272,-0.293458,-0.0112191,0.314832,0.34523,0.0761151,0.0153858,0.388293,5,0.1,19,2.8,-1.41886,3.98701,0.601067,0.73753,0.0599682,-0.00102818,0.3528,-0.0857115,0.00149012,0.00933895,2.58073,5,0.1
0,2.9,3.46737,0.442169,0.582142,-0.0484407,0.866025,0.00989493,-0.0780821,-3.57628e-06,-0.00431389,0.0176203,2.2701,5,0.1,1,2.9,0.16852,-3.57341,0.624511,-0.866025,-0.0825845,0.0343974,-1.19209e-06,0.00676513,-0.00283495,0.00801963,2.26676,5,0.1,2,2.9,3.72813,3.1884,0.646118,0.554021,0.0213742,-0.00187298,-0.467718,-0.0220835,0.00194833,0.00879678,0.128695,5,0.1,3,2.9,1.71983,-1.75526,0.945051,0.309429,-0.100358,0.0276375,-0.928216,0.227764,-0.12039,0.011778,4.32403,5,0.1,4,2.9,3.43262,1.51817,0.617958,-0.108406,0.815599,-0.0347264,0.0443608,-0.687063,-0.0142381,0.0193283,1.4245,5,0.1,5,2.9,2.06099,2.78014,0.593866,0.853498,0.201839,0.00525033,-0.061363,-0.105798,-0.00355765,0.00938102,0.816468,5,0.1,6,2.9,-1.23136,-0.338256,0.570647,0.0403965,0.469355,0.0016625,0.00620633,-0.436267,-0.000204891,0.0128875,0.107564,5,0.1,7,2.9,1.38785,-1.36912,0.500091,-0.0254456,0.755367,-1.16415e-05,-0.287071,0.676408,-0.00103191,0.0278802,1.11617,5,0.1,8,2.9,-3.20265,-1.76921,0.596788,0.0102863,0.592343,0.00316603,-0.111729,-0.121102,-0.00319257,0.0193606,1.7461,5,0.1,9,2.9,-2.30057,2.67394,0.602625,0.486001,-0.270339,-0.00259774,-0.417411,0.25709,0.00245497,0.0132322,0.137207,5,0.1,10,2.9,-0.305494,2.42526,0.530773,0.0513077,0.866026,0.0489378,-0.00747666,0,0.0100359,0.00738042,1.92456,5,0.1,11,2.9,1.23506,-1.76939,0.929644,0.0365011,-0.169108,0.0287621,0.178427,0.600196,-0.188176,0.00732256,0.42986,5,0.1,12,2.9,3.21653,2.76528,0.648349,-0.075949,0.295392,-0.01458,0.210255,-0.165462,-0.131212,0.0155526,0.114776,5,0.1,13,2.9,3.36571,2.15497,0.5849,-0.246497,0.795822,0.013491,0.492945,-0.398561,-0.0089854,0.0115897,0.333957,5,0.1,14,2.9,-1.41745,0.0325246,0.545654,-0.183611,-0.826696,0.000856817,-0.232667,-0.0892597,-0.00868738,0.00884762,1.66776,5,0.1,15,2.9,-1.14362,-3.98737,0.585049,-0.866026,-0.113732,0.0177523,0,0.00585616,-0.000931323,0.00864191,2.26335,5,0.1,16,2.9,-1.87867,2.53283,0.596641,0.0783108,-0.332774,0.00333879,-0.0579804,0.30072,-0.00248104,0.00677228,0.194198,5,0.1,17,2.9,0.518336,2.56217,0.713092,-0.0967888,-0.596272,0.255676,0.177912,1.1141,0.268113,0.00998098,1.5821,5,0.1,18,2.9,0.934227,2.5288,0.500373,0.257407,-0.262865,-0.00505252,-0.263467,0.276595,0.0479557,0.0153858,0.388293,5,0.1,19,2.9,-1.34407,3.9926,0.600971,0.751206,0.0519484,-0.000888854,-0.0722557,-0.0756979,0.0013113,0.00933895,2.58073,5,0.1
0,3,3.46217,0.528772,0.583109,-0.0553668,0.866026,0.00943691,-0.0566244,0,-0.005126,0.0181223,2.26914,5,0.1,1,3,0.0819174,-3.58163,0.627932,-0.866026,-0.0814855,0.0339404,5.96046e-06,0.0185966,-0.0077486,0.00644589,2.26703,5,0.1,2,3,3.78117,3.19043,0.645941,0.506419,0.0192285,-0.00168532,-0.495672,-0.0211,0.00187755,0.00881149,0.14685,5,0.1,3,3,1.74486,-1.76413,0.947201,0.181055,-0.0768393,0.0153601,-1.53106,0.237465,-0.121355,0.0100275,3.52898,5,0.1,4,3,3.42202,1.59569,0.614464,-0.103319,0.729695,-0.0346944,0.0600815,-0.996053,0.0138283,0.019621,1.28268,5,0.1,5,3,2.14584,2.79975,0.594373,0.840551,0.189912,0.00488758,-0.227809,-0.136852,-0.0038147,0.00986725,0.587937,5,0.1,6,3,-1.22733,-0.293464,0.570811,0.039649,0.426557,0.00160038,-0.0203848,-0.431627,-0.00104308,0.0108178,0.127964,5,0.1,7,3,1.38396,-1.2907,0.500085,-0.0511259,0.807148,-9.83477e-05,-0.221074,0.327647,-0.000685453,0.0283605,0.786672,5,0.1,8,3,-3.20212,-1.71026,0.597089,0.00109673,0.588605,0.00285506,-0.0658035,-0.00429153,-0.00309944,0.0176221,3.06461,5,0.1,9,3,-2.25407,2.64818,0.602378,0.443661,-0.244749,-0.00235438,-0.439405,0.260592,0.0025034,0.0136876,0.175275,5,0.1,10,3,-0.300411,2.51186,0.535698,0.0502124,0.866026,0.0493124,-0.0162572,0,-0.00417233,0.00659651,1.504,5,0.1,11,3,1.23958,-1.78342,0.931631,0.0532836,-0.11273,0.0115469,0.150561,0.519454,-0.154197,0.00693681,0.422851,5,0.1,12,3,3.20998,2.79395,0.646291,-0.055331,0.277358,-0.0259519,0.198483,-0.202179,-0.0944138,0.016641,0.263016,5,0.1,13,3,3.34358,2.23236,0.586203,-0.195819,0.749707,0.0125557,0.509262,-0.538707,-0.0100434,0.0100963,0.222351,5,0.1,14,3,-1.4366,-0.0506636,0.545707,-0.195873,-0.836404,0.000299513,-0.0194907,-0.0513411,-0.00292063,0.00843133,1.18457,5,0.1,15,3,-1.23022,-3.9987,0.586817,-0.866026,-0.112522,0.0175625,0,0.0231266,-0.00366569,0.00826489,2.26372,5,0.1,16,3,-1.87111,2.50118,0.596964,0.0732034,-0.298989,0.0031203,-0.0481606,0.373483,-0.00202656,0.00947159,0.187893,5,0.1,17,3,0.509501,2.50843,0.739821,-0.0803187,-0.476545,0.276811,0.153273,1.23501,0.143111,0.00939244,1.47486,5,0.1,18,3,0.958028,2.50385,0.500067,0.213413,-0.23641,-0.00145733,-0.576764,0.259638,0.0249147,0.0152302,0.313411,5,0.1,19,3,-1.26996,3.99742,0.600889,0.724694,0.0446618,-0.000761449,-0.448823,-0.0705719,0.00119209,0.010321,2.93731,5,0.1
0,3.1,3.45633,0.615374,0.584031,-0.0613242,0.866026,0.00903457,-0.0576973,-3.72529e-06,-0.00339746,0.0181223,2.26914,5,0.1,1,3.1,-0.00468516,-3.58972,0.631301,-0.866025,-0.0804901,0.0335255,1.49012e-07,0.00607967,-0.00252947,0.00644589,2.26703,5,0.1,2,3.1,3.82972,3.19227,0.64578,0.467526,0.0176106,-0.00154153,-0.311553,-0.0125021,0.00111014,0.00881149,0.14685,5,0.1,3,3.1,1.75491,-1.7706,0.948078,0.0177011,-0.0523841,0.00181263,-1.67155,0.245653,-0.143196,0.0100275,3.52898,5,0.1,4,3.1,3.41197,1.66312,0.611089,-0.097793,0.615154,-0.0325517,0.0539273,-1.21964,0.0283606,0.019621,1.28268,5,0.1,5,3.1,2.22855,2.81809,0.594845,0.81141,0.176968,0.00454551,-0.368997,-0.127271,-0.00320002,0.00986725,0.587937,5,0.1,6,3.1,-1.22349,-0.252583,0.570965,0.0370208,0.394184,0.00148704,-0.0318885,-0.244137,-0.00124052,0.0108178,0.127964,5,0.1,7,3.1,1.37779,-1.20843,0.500072,-0.0717491,0.836567,-0.000146125,-0.185415,0.22354,-0.000286847,0.0283605,0.786672,5,0.1,8,3.1,-3.2025,-1.65081,0.59736,-0.00908971,0.605084,0.00256784,-0.0871122,0.271581,-0.00271946,0.0176221,3.06461,5,0.1,9,3.1,-2.21183,2.62499,0.602154,0.401623,-0.219331,-0.00213301,-0.410438,0.251278,0.00200793,0.0136876,0.175275,5,0.1,10,3.1,-0.295462,2.59846,0.54061,0.0488136,0.865894,0.0489161,-0.0138227,-0.00527501,-0.00574812,0.00659651,1.504,5,0.1,11,3.1,1.24564,-1.79228,0.932057,0.0677584,-0.0665862,-0.00256673,0.13306,0.400364,-0.126481,0.00693681,0.422851,5,0.1,12,3.1,3.20539,2.8207,0.643262,-0.0368718,0.257692,-0.0342234,0.168905,-0.197649,-0.069458,0.016641,0.263016,5,0.1,13,3.1,3.32652,2.30473,0.587412,-0.145912,0.69805,0.0116384,0.476688,-0.513628,-0.00870228,0.0100963,0.222351,5,0.1,14,3.1,-1.45651,-0.132254,0.545651,-0.203902,-0.775162,-0.00199694,-0.118501,1.16498,-0.0384375,0.00843133,1.18457,5,0.1,15,3.1,-1.31682,-4.00988,0.588562,-0.866026,-0.111385,0.0173805,0,0.00619888,-0.00100583,0.00826489,2.26372,5,0.1,16,3.1,-1.86399,2.47333,0.597267,0.0692926,-0.256379,0.00295574,-0.0336319,0.467852,-0.00141189,0.00947159,0.187893,5,0.1,17,3.1,0.50218,2.46704,0.768186,-0.0666064,-0.352084,0.289835,0.123015,1.19251,0.103917,0.00939244,1.47486,5,0.1,18,3.1,0.976061,2.4815,0.500019,0.143927,-0.210529,0.000258069,-0.77714,0.259787,0.0103749,0.0152302,0.313411,5,0.1,19,3.1,-1.20072,4.00157,0.600818,0.652062,0.0383969,-0.000655279,-0.941679,-0.0561029,0.000953674,0.010321,2.93731,5,0.1
0,3.2,3.44994,0.701977,0.584917,-0.0660896,0.866026,0.00867546,-0.0340939,0,-0.00414252,0.0183612,2.26853,5,0.1,1,3.2,-0.0912877,-3.59772,0.634636,-0.866025,-0.079459,0.0330955,0,0.0180006,-0.00748038,0.00967647,2.26728,5,0.1,2,3.2,3.87502,3.19397,0.645631,0.439006,0.0165105,-0.00144392,-0.280499,-0.010252,0.000923872,0.00950573,0.0849081,5,0.1,3,3.2,1.74853,-1.77463,0.947551,-0.142056,-0.0287563,-0.0121608,-1.47605,0.222564,-0.131488,0.0118388,3.28405,5,0.1,4,3.2,3.40247,1.71864,0.607995,-0.0919402,0.497499,-0.0291541,0.0654459,-1.09118,0.0389516,0.0163503,1.19978,5,0.1,5,3.2,2.30752,2.83513,0.595283,0.764579,0.163573,0.00421852,-0.575185,-0.144124,-0.00342727,0.00871989,0.538083,5,0.1,6,3.2,-1.21996,-0.214266,0.571107,0.0333399,0.372796,0.00135005,-0.0415444,-0.204667,-0.00149012,0.0113957,0.0756769,5,0.1,7,3.2,1.36978,-1.12407,0.500057,-0.0872165,0.845674,-0.000159442,-0.119984,-0.0660419,0,0.0276108,0.534955,5,0.1,8,3.2,-3.20357,-1.5889,0.597603,-0.00904202,0.63211,0.00229925,0.110388,0.2231,-0.00268221,0.0212195,2.86933,5,0.1,9,3.2,-2.17373,2.60432,0.60195,0.360066,-0.19393,-0.00193864,-0.426531,0.259161,0.00196695,0.0144993,0.250419,5,0.1,10,3.2,-0.29066,2.68498,0.545457,0.0470936,0.863922,0.0478297,-0.0220239,-0.0422001,-0.017345,0.00719521,1.14148,5,0.1,11,3.2,1.25302,-1.79715,0.931224,0.0789106,-0.0329792,-0.013493,0.0860095,0.271618,-0.0911355,0.00755524,0.414286,5,0.1,12,3.2,3.20249,2.84545,0.639544,-0.0218272,0.23675,-0.0395998,0.131011,-0.225186,-0.0371635,0.0187055,0.250877,5,0.1,13,3.2,3.31418,2.37188,0.588532,-0.102359,0.643778,0.0107467,0.387788,-0.584722,-0.00938773,0.00967134,0.15087,5,0.1,14,3.2,-1.4775,-0.202698,0.545232,-0.21565,-0.623543,-0.00657737,-0.0998974,1.77725,-0.0496209,0.00746164,1.4508,5,0.1,15,3.2,-1.40342,-4.02097,0.590293,-0.866026,-0.110149,0.017184,0,0.023365,-0.00363588,0.00816386,2.2641,5,0.1,16,3.2,-1.85723,2.45011,0.597555,0.0658602,-0.207406,0.00281185,-0.0375509,0.502586,-0.00160933,0.0103504,0.185462,5,0.1,17,3.2,0.496098,2.43734,0.797535,-0.0553548,-0.247258,0.29536,0.103608,0.873446,-0.00226498,0.0100153,1.34932,5,0.1,18,3.2,0.986481,2.46176,0.500079,0.0643179,-0.184178,0.000795722,-0.787467,0.267982,0.0012815,0.0155463,0.267877,5,0.1,19,3.2,-1.14062,4.00514,0.600757,0.54712,0.0331998,-0.000566244,-1.11169,-0.0488758,0.000804663,0.00972096,3.23587,5,0.1
0,3.3,3.44315,0.78858,0.585768,-0.0697959,0.866026,0.00836691,-0.0354797,-3.72529e-06,-0.00249967,0.0183612,2.26853,5,0.1,1,3.3,-0.17789,-3.60561,0.637922,-0.866025,-0.0784811,0.0326893,-8.9407e-07,0.00615418,-0.00255927,0.00967647,2.26728,5,0.1,2,3.3,3.91768,3.19558,0.64549,0.415317,0.0156846,-0.0013697,-0.212625,-0.00707805,0.000637025,0.00950573,0.0849081,5,0.1,3,3.3,1.72778,-1.77629,0.945681,-0.264401,-0.00363458,-0.0250938,-0.973418,0.267543,-0.122901,0.0118388,3.28405,5,0.1,4,3.3,3.39343,1.76323,0.605281,-0.0903454,0.39931,-0.0250839,-0.0207871,-0.796661,0.0420436,0.0163503,1.19978,5,0.1,5,3.3,2.38038,2.8508,0.595689,0.686021,0.150138,0.00390848,-0.96184,-0.129029,-0.00290945,0.00871989,0.538083,5,0.1,6,3.3,-1.21684,-0.177853,0.571235,0.0290431,0.356564,0.00120029,-0.0441521,-0.138703,-0.00151247,0.0113957,0.0756769,5,0.1,7,3.3,1.3605,-1.03986,0.500041,-0.0979362,0.837589,-0.000149198,-0.0896975,-0.125937,0.000193715,0.0276108,0.534955,5,0.1,8,3.3,-3.20367,-1.52418,0.59782,0.0116002,0.664839,0.00203978,0.366315,0.374444,-0.0025332,0.0212195,2.86933,5,0.1,9,3.3,-2.13996,2.58601,0.601766,0.314486,-0.173858,-0.00174744,-0.480264,0.155345,0.00188872,0.0144993,0.250419,5,0.1,10,3.3,-0.286052,2.77135,0.550158,0.0450865,0.864323,0.0461734,-0.0198316,0.0126809,-0.0174157,0.00719521,1.14148,5,0.1,11,3.3,1.2613,-1.7993,0.929459,0.0863403,-0.0119491,-0.0213945,0.0590384,0.154816,-0.0660643,0.00755524,0.414286,5,0.1,12,3.3,3.20096,2.86802,0.635428,-0.00892952,0.214805,-0.0423876,0.118852,-0.217766,-0.0177734,0.0187055,0.250877,5,0.1,13,3.3,3.30571,2.43342,0.589561,-0.0688996,0.587416,0.0098573,0.275984,-0.555545,-0.00866503,0.00967134,0.15087,5,0.1,14,3.3,-1.49915,-0.258024,0.54438,-0.213536,-0.499338,-0.00994438,0.127591,0.794844,-0.0193901,0.00746164,1.4508,5,0.1,15,3.3,-1.49003,-4.03191,0.592,-0.866026,-0.108953,0.0169984,0,0.00697374,-0.00108406,0.00816386,2.2641,5,0.1,16,3.3,-1.85082,2.43189,0.597829,0.0624293,-0.157293,0.00266498,-0.0333712,0.491634,-0.00142679,0.0103504,0.185462,5,0.1,17,3.3,0.491039,2.41643,0.827047,-0.0462144,-0.177972,0.294463,0.0809114,0.455692,-0.0265911,0.0100153,1.34932,5,0.1,18,3.3,0.988895,2.44475,0.500159,-0.0161743,-0.155371,0.000735279,-0.795834,0.302836,-0.00214204,0.0155463,0.267877,5,0.1,19,3.3,-1.09179,4.00825,0.600704,0.428542,0.0292413,-0.000500772,-1.17226,-0.0321567,0.000532717,0.00972096,3.23587,5,0.1
0,3.4,3.43602,0.875182,0.586592,-0.0724196,0.866026,0.0080958,-0.0135899,0,-0.00324845,0.0173377,2.26826,5,0.1,1,3.4,-0.264493,-3.61342,0.641173,-0.866025,-0.0774384,0.0322565,-1.43051e-05,0.0178814,-0.00748038,0.00948188,2.26754,5,0.1,2,3.4,3.95813,3.19711,0.645357,0.39317,0.0149548,-0.00130534,-0.243902,-0.00798702,0.000685453,0.00789828,0.0658382,5,0.1,3,3.4,1.69729,-1.77533,0.9426,-0.337589,0.0225991,-0.0360161,-0.496268,0.247836,-0.092566,0.00931504,3.31575,5,0.1,4,3.4,3.38423,1.8,0.602985,-0.0938535,0.344267,-0.0208244,-0.0396967,-0.319004,0.0428259,0.0164512,1.01271,5,0.1,5,3.4,2.44376,2.86517,0.596065,0.578451,0.137019,0.00361204,-1.1611,-0.136375,-0.00309944,0.0079888,0.509588,5,0.1,6,3.4,-1.21416,-0.142906,0.571347,0.0245631,0.34185,0.00104755,-0.0452995,-0.168883,-0.00160933,0.00777363,0.0601008,5,0.1,7,3.4,1.35034,-0.957029,0.500028,-0.104386,0.815462,-0.00012517,-0.0362396,-0.336528,0.000298023,0.028442,0.356331,5,0.1,8,3.4,-3.2,-1.45596,0.598011,0.0680208,0.69719,0.00178814,0.736356,0.231564,-0.002563,0.0215427,2.64291,5,0.1,9,3.4,-2.11096,2.56932,0.601601,0.264937,-0.160563,-0.00155568,-0.506401,0.120163,0.00196695,0.0112269,0.214586,5,0.1,10,3.4,-0.281651,2.8577,0.554677,0.0428386,0.860566,0.0440717,-0.0262856,-0.109196,-0.02563,0.00983336,0.838307,5,0.1,11,3.4,1.27016,-1.79988,0.927036,0.0901431,-0.000923872,-0.0265852,0.0149012,0.0709295,-0.0374019,0.00838234,0.359254,5,0.1,12,3.4,3.20059,2.8884,0.631138,0.000685453,0.192529,-0.043036,0.0691414,-0.230193,0.00524521,0.0152549,1.54164,5,0.1,13,3.4,3.3,2.48934,0.590503,-0.0473022,0.530511,0.0089705,0.15986,-0.591278,-0.00926852,0.0137133,0.105824,5,0.1,14,3.4,-1.51959,-0.305009,0.543328,-0.192839,-0.448813,-0.0107661,0.273824,0.285268,0.00151992,0.00707724,1.12506,5,0.1,15,3.4,-1.57663,-4.04276,0.593692,-0.866026,-0.107658,0.0167966,0,0.0238419,-0.00369549,0.00772946,2.26448,5,0.1,16,3.4,-1.84475,2.41854,0.598088,0.058794,-0.110465,0.00250936,-0.0408888,0.439167,-0.00172853,0.0118264,0.274736,5,0.1,17,3.4,0.486796,2.4,0.856247,-0.0388697,-0.159323,0.288233,0.0672787,-0.0581741,-0.105172,0.00851455,1.14239,5,0.1,18,3.4,0.983464,2.43075,0.500218,-0.0902802,-0.12458,0.000429153,-0.667036,0.308633,-0.00372529,0.0154111,0.159984,5,0.1,19,3.4,-1.05435,4.01103,0.600656,0.325757,0.0264287,-0.000452995,-0.840068,-0.0252724,0.000417233,0.0111185,2.19961,5,0.1
0,3.5,3.42869,0.961785,0.587389,-0.0741731,0.866026,0.00786744,-0.0170916,0,-0.00177324,0.0173377,2.26826,5,0.1,1,3.5,-0.351095,-3.6211,0.644374,-0.866025,-0.076431,0.0318344,1.78814e-06,0.00667572,-0.00280514,0.00948188,2.26754,5,0.1,2,3.5,3.9964,3.19857,0.645229,0.373445,0.0143487,-0.00125365,-0.170633,-0.00499189,0.000420958,0.00789828,0.0658382,5,0.1,3,3.5,1.66179,-1.77149,0.938543,-0.365514,0.0568021,-0.0449458,-0.0802204,0.406355,-0.0822544,0.00931504,3.31575,5,0.1,4,3.5,3.37457,1.83381,0.601113,-0.0998929,0.340036,-0.016658,-0.0712574,0.168644,0.0402629,0.0164512,1.01271,5,0.1,5,3.5,2.49557,2.87823,0.596412,0.456182,0.124438,0.00333041,-1.24957,-0.118971,-0.00264496,0.0079888,0.509588,5,0.1,6,3.5,-1.21193,-0.109408,0.571444,0.0201399,0.329197,0.000894628,-0.0429675,-0.103506,-0.00146031,0.00777363,0.0601008,5,0.1,7,3.5,1.33974,-0.877121,0.500017,-0.107217,0.782479,-9.38773e-05,-0.0165775,-0.348199,0.000320375,0.028442,0.356331,5,0.1,8,3.5,-3.18858,-1.3849,0.598178,0.167473,0.724626,0.00155447,1.16873,0.270754,-0.00214949,0.0215427,2.64291,5,0.1,9,3.5,-2.08699,2.55371,0.601455,0.214729,-0.152923,-0.0013737,-0.49381,0.0455081,0.00170618,0.0112269,0.214586,5,0.1,10,3.5,-0.27749,2.94343,0.558962,0.040412,0.855167,0.0416524,-0.0236575,-0.0438839,-0.0241138,0.00983336,0.838307,5,0.1,11,3.5,1.27919,-1.79964,0.924229,0.0898194,0.00524651,-0.0291851,-0.0216365,0.0476316,-0.014808,0.00838234,0.359254,5,0.1,12,3.5,3.20115,2.90666,0.626887,0.0107732,0.173961,-0.0417041,0.0869781,-0.151768,0.0212491,0.0152549,1.54164,5,0.1,13,3.5,3.29591,2.5395,0.591355,-0.036025,0.472957,0.00807792,0.0730157,-0.566661,-0.00873953,0.0137133,0.105824,5,0.1,14,3.5,-1.53735,-0.349386,0.542284,-0.161106,-0.446224,-0.00988133,0.350483,-0.166085,0.0149533,0.00707724,1.12506,5,0.1,15,3.5,-1.66323,-4.05345,0.595359,-0.866026,-0.106379,0.0165991,0,0.00795722,-0.00122935,0.00772946,2.26448,5,0.1,16,3.5,-1.83906,2.40957,0.598331,0.0552205,-0.070402,0.0023583,-0.0330135,0.358522,-0.00140071,0.0118264,0.274736,5,0.1,17,3.5,0.483215,2.38284,0.884556,-0.0330124,-0.19142,0.277819,0.051273,-0.517815,-0.112116,0.00851455,1.14239,5,0.1,18,3.5,0.971088,2.41981,0.500242,-0.156731,-0.0944901,6.09085e-05,-0.637002,0.290021,-0.00351667,0.0154111,0.159984,5,0.1,19,3.5,-1.02537,4.01356,0.600613,0.261973,0.024467,-0.000420213,-0.370175,-0.015527,0.00026077,0.0111185,2.19961,5,0.1
0,3.6,3.42121,1.04839,0.588166,-0.0750959,0.866026,0.00766367,0.00166893,0,-0.0026226,0.0162071,2.14403,5,0.1,1,3.6,-0.437698,-3.6287,0.647538,-0.866025,-0.0753462,0.0313804,-1.43051e-05,0.0183582,-0.00759959,0.0084012,2.07513,5,0.1,2,3.6,4.03288,3.19998,0.645106,0.355613,0.0138104,-0.00120848,-0.199795,-0.00619888,0.000536442,0.0114679,0.0298172,5,0.1,3,3.6,1.6254,-1.76372,0.93368,-0.357088,0.0986218,-0.0518322,0.2321,0.407577,-0.0528991,0.00629272,0.706225,5,0.1,4,3.6,3.36424,1.86902,0.599642,-0.106412,0.36639,-0.012815,-0.0517368,0.308096,0.0363886,0.0152286,0.805033,5,0.1,5,3.6,2.53503,2.89008,0.596732,0.33446,0.112587,0.00306368,-1.1605,-0.120521,-0.00280142,0.00973239,0.498748,5,0.1,6,3.6,-1.21012,-0.0770271,0.571527,0.0160009,0.317856,0.000753999,-0.0395775,-0.13693,-0.00137091,0.00800899,0.0278601,5,0.1,7,3.6,1.329,-0.8008,0.500009,-0.107077,0.74165,-6.25849e-05,0.0217557,-0.484973,0.000268221,0.0262854,0.379056,5,0.1,8,3.6,-3.16585,-1.31133,0.598323,0.287026,0.743452,0.00135005,1.15919,0.0732541,-0.00196695,0.0208262,2.37583,5,0.1,9,3.6,-2.06794,2.53861,0.601326,0.166881,-0.14922,-0.00120848,-0.459909,0.0379086,0.00163913,0.0106749,0.184782,5,0.1,10,3.6,-0.273572,3.02853,0.563,0.0378691,0.844133,0.0390232,-0.0281483,-0.208259,-0.0294149,0.00835579,0.594765,5,0.1,11,3.6,1.288,-1.79895,0.921272,0.0858158,0.0079006,-0.0296041,-0.0582337,0.00327826,0.00610948,0.0109561,0.541235,5,0.1,12,3.6,3.20242,2.92335,0.622848,0.0115216,0.160319,-0.0388309,-0.0920296,-0.128746,0.0359118,0.00600352,0.301932,5,0.1,13,3.6,3.29257,2.58396,0.592119,-0.0313878,0.41607,0.00719726,0.0255108,-0.575423,-0.0089705,0.0122349,0.252854,5,0.1,14,3.6,-1.55166,-0.395128,0.541384,-0.124609,-0.470185,-0.00799745,0.371218,-0.262082,0.0216961,0.00854503,0.887075,5,0.1,15,3.6,-1.74983,-4.06403,0.597011,-0.866026,-0.105,0.0163853,0,0.0240803,-0.00372529,0.00894875,2.26489,5,0.1,16,3.6,-1.83371,2.40416,0.59856,0.0517786,-0.0392556,0.00221282,-0.0374913,0.262976,-0.00160933,0.00621153,0.272545,5,0.1,17,3.6,0.480153,2.3608,0.911706,-0.0283666,-0.251204,0.264314,0.0427067,-0.626922,-0.164002,0.00948699,0.937792,5,0.1,18,3.6,0.952448,2.41176,0.500232,-0.213432,-0.0671208,-0.00025332,-0.479549,0.255227,-0.00271201,0.0178386,0.235129,5,0.1,19,3.6,-1,4.01594,0.600572,0.254993,0.0230551,-0.000396371,0.197858,-0.0138283,0.000268221,0.00895949,1.51362,5,0.1
0,3.7,3.4137,1.13499,0.588922,-0.0753421,0.866026,0.00748029,-0.0025481,0,-0.00145659,0.0162071,2.14403,5,0.1,1,3.7,-0.5243,-3.63617,0.650649,-0.866026,-0.0741318,0.0308782,1.93715e-06,0.00989437,-0.00409782,0.0084012,2.07513,5,0.1,2,3.7,4.06747,3.20133,0.644987,0.336268,0.0132062,-0.00115642,-0.197738,-0.00631809,0.000547618,0.0114679,0.0298172,5,0.1,3,3.7,1.59225,-1.75223,0.928405,-0.293781,0.127264,-0.0521185,0.951983,0.174917,0.0399053,0.00629272,0.706225,5,0.1,4,3.7,3.35342,1.90761,0.598535,-0.109256,0.408413,-0.00939788,-0.00415742,0.482053,0.0318103,0.0152286,0.805033,5,0.1,5,3.7,2.56289,2.90061,0.597025,0.225749,0.0971142,0.00280933,-0.984162,-0.182226,-0.00238046,0.00973239,0.498748,5,0.1,6,3.7,-1.20871,-0.0459079,0.571595,0.0122556,0.304448,0.000624638,-0.0351891,-0.141453,-0.00122562,0.00800899,0.0278601,5,0.1,7,3.7,1.31841,-0.728806,0.500004,-0.104606,0.699986,-3.69735e-05,0.0308156,-0.379186,0.000234693,0.0262854,0.379056,5,0.1,8,3.7,-3.13099,-1.23646,0.598449,0.411941,0.754531,0.00118064,1.26965,0.10623,-0.00147894,0.0208262,2.37583,5,0.1,9,3.7,-2.05343,2.52374,0.601212,0.124349,-0.149263,-0.00106599,-0.390887,-0.0249743,0.00125915,0.0106749,0.184782,5,0.1,10,3.7,-0.269918,3.11204,0.566763,0.0352696,0.826595,0.036276,-0.0250135,-0.178739,-0.0266619,0.00835579,0.594765,5,0.1,11,3.7,1.29627,-1.79809,0.918359,0.0794057,0.00912827,-0.0284873,-0.0704229,-0.00167638,0.0161603,0.0109561,0.541235,5,0.1,12,3.7,3.20292,2.93944,0.61927,-0.00289418,0.167124,-0.0316793,-0.182107,0.218138,0.0996441,0.00600352,0.301932,5,0.1,13,3.7,3.28922,2.62278,0.592797,-0.0385456,0.361098,0.00639623,-0.146329,-0.529021,-0.00728294,0.0122349,0.252854,5,0.1,14,3.7,-1.56224,-0.443854,0.540702,-0.0871995,-0.506993,-0.00558933,0.369646,-0.422237,0.0255741,0.00854503,0.887075,5,0.1,15,3.7,-1.83644,-4.07445,0.598637,-0.866026,-0.103656,0.0161778,0,0.00885129,-0.00136346,0.00894875,2.26489,5,0.1,16,3.7,-1.82871,2.40139,0.598773,0.0481166,-0.0178564,0.00205571,-0.0369996,0.166073,-0.00158325,0.00621153,0.272545,5,0.1,17,3.7,0.477509,2.3329,0.937349,-0.0246919,-0.304719,0.248661,0.0319332,-0.490114,-0.156589,0.00948699,0.937792,5,0.1,18,3.7,0.928555,2.40625,0.500196,-0.265107,-0.0440091,-0.000442099,-0.520915,0.206679,-0.00113621,0.0178386,0.235129,5,0.1,19,3.7,-0.972517,4.01819,0.600533,0.302582,0.0219904,-0.000375323,0.675,-0.00867248,0.000178814,0.00895949,1.51362,5,0.1
0,3.8,3.40617,1.22159,0.589662,-0.0749171,0.866026,0.00730008,0.0135899,0,-0.00241399,0.0180856,1.69625,5,0.1,1,3.8,-0.610903,-3.64352,0.653711,-0.866026,-0.0726879,0.0302792,0,0.0216961,-0.0090301,0.00694552,1.63569,5,0.1,2,3.8,4.10004,3.20262,0.644875,0.314319,0.0124753,-0.00109226,-0.248432,-0.00870228,0.000745058,0.00916741,0.0115387,5,0.1,3,3.8,1.56826,-1.73894,0.923496,-0.181371,0.135452,-0.0451773,1.23143,-0.00220537,0.0929534,0.00719734,0.404365,5,0.1,4,3.8,3.34255,1.95081,0.597746,-0.107127,0.454086,-0.00647604,0.04673,0.394583,0.0266135,0.0176036,0.154786,5,0.1,5,3.8,2.58101,2.90936,0.597294,0.141805,0.0773668,0.00257194,-0.682354,-0.207305,-0.00247359,0.0105854,0.461993,5,0.1,6,3.8,-1.20766,-0.0162454,0.571652,0.0089854,0.287874,0.00050813,-0.03016,-0.1967,-0.00107288,0.0118092,0.01098,5,0.1,7,3.8,1.30814,-0.660735,0.500001,-0.100392,0.660546,-1.78814e-05,0.0554323,-0.431389,0.000178814,0.0268768,0.266367,5,0.1,8,3.8,-3.08374,-1.1607,0.59856,0.528997,0.757563,0.00104457,1.02115,-0.074923,-0.0012815,0.0158798,1.59201,5,0.1,9,3.8,-2.04284,2.50867,0.601112,0.0886559,-0.151825,-0.000949204,-0.323296,-0.0160933,0.00113249,0.0123979,0.156223,5,0.1,10,3.8,-0.266519,3.19362,0.570254,0.0326686,0.802273,0.0335008,-0.0277907,-0.332713,-0.0296235,0.00941947,0.41148,5,0.1,11,3.8,1.30384,-1.79733,0.915607,0.0716805,0.0043571,-0.0263959,-0.0842214,-0.102758,0.0254512,0.0080767,0.993632,5,0.1,12,3.8,3.20167,2.95749,0.616654,-0.0223994,0.195694,-0.0202388,-0.197172,0.317574,0.123203,0.00655802,0.240762,5,0.1,13,3.8,3.2845,2.65629,0.593402,-0.0566959,0.309438,0.00569969,-0.199556,-0.507236,-0.00679493,0.0169342,0.18402,5,0.1,14,3.8,-1.56917,-0.49658,0.540271,-0.0519603,-0.545681,-0.00303984,0.329733,-0.313864,0.0247657,0.00750056,0.674321,5,0.1,15,3.8,-1.92304,-4.08475,0.600245,-0.866026,-0.102198,0.0159532,0,0.0243187,-0.0038147,0.00707951,2.2653,5,0.1,16,3.8,-1.82409,2.40029,0.598971,0.044173,-0.00562072,0.00188798,-0.0426173,0.0817776,-0.00184774,0.00944913,0.270749,5,0.1,17,3.8,0.47519,2.3,0.961394,-0.0217788,-0.352883,0.231735,0.0271648,-0.463128,-0.18692,0.00879506,1.00336,5,0.1,18,3.8,0.899594,2.4028,0.500148,-0.311951,-0.0258088,-0.000496209,-0.392407,0.157356,-2.98023e-05,0.0146475,0.192431,5,0.1,19,3.8,-0.938631,4.02034,0.600497,0.37612,0.0211,-0.000357628,0.735879,-0.00977516,0.000178814,0.0113954,0.48936,5,0.1
0,3.9,3.39873,1.30819,0.590382,-0.0737891,0.866013,0.00710413,0.012219,-0.00051409,-0.00183284,0.0180856,1.69625,5,0.1,1,3.9,-0.697504,-3.65069,0.6567,-0.865976,-0.0708867,0.029529,0.00199303,0.0175387,-0.00729784,0.00694552,1.63569,5,0.1,2,3.9,4.13022,3.20382,0.644769,0.289118,0.0115793,-0.00101523,-0.260442,-0.00943244,0.000815839,0.00916741,0.0115387,5,0.1,3,3.9,1.55655,-1.72546,0.919481,-0.0514308,0.133624,-0.0348372,1.31985,-0.0364631,0.11041,0.00719734,0.404365,5,0.1,4,3.9,3.33221,1.99786,0.597224,-0.0986136,0.483387,-0.00404194,0.118017,0.182107,0.0219941,0.0176036,0.154786,5,0.1,5,3.9,2.59226,2.91603,0.59754,0.0887476,0.0560153,0.00234786,-0.353128,-0.214949,-0.00208616,0.0105854,0.461993,5,0.1,6,3.9,-1.2069,0.0115397,0.571698,0.00621211,0.267521,0.000407547,-0.02525,-0.215003,-0.000938773,0.0118092,0.01098,5,0.1,7,3.9,1.29837,-0.596649,0.5,-0.0949446,0.622412,-4.37722e-06,0.0561774,-0.35641,9.31323e-05,0.0268768,0.266367,5,0.1,8,3.9,-3.02576,-1.08533,0.598659,0.629026,0.749194,0.000941847,0.928819,-0.120081,-0.00083074,0.0158798,1.59201,5,0.1,9,3.9,-2.03543,2.49329,0.601022,0.0611033,-0.156597,-0.000856072,-0.231937,-0.0652075,0.00077486,0.0123979,0.156223,5,0.1,10,3.9,-0.263383,3.2723,0.573464,0.0301108,0.771861,0.0307586,-0.024341,-0.305012,-0.0261664,0.00941947,0.41148,5,0.1,11,3.9,1.31059,-1.79744,0.913099,0.0633653,-0.00893697,-0.0237297,-0.0826418,-0.230476,0.0279024,0.0080767,0.993632,5,0.1,12,3.9,3.1984,2.97893,0.615255,-0.0432681,0.234769,-0.00774208,-0.21024,0.42887,0.123195,0.00655802,0.240762,5,0.1,13,3.9,3.27767,2.68513,0.593944,-0.0810683,0.271281,0.00520628,-0.269026,-0.280753,-0.00350922,0.0169342,0.18402,5,0.1,14,3.9,-1.57276,-0.55286,0.540091,-0.0204001,-0.580317,-0.000570063,0.296175,-0.338486,0.0239797,0.00750056,0.674321,5,0.1,15,3.9,-2.00964,-4.09489,0.601828,-0.866026,-0.100779,0.0157301,0,0.00980496,-0.001546,0.00707951,2.2653,5,0.1,16,3.9,-1.81985,2.40003,0.59915,0.0410223,-0.00045374,0.00170404,-0.0234321,0.0268817,-0.00185892,0.00944913,0.270749,5,0.1,17,3.9,0.473134,2.26195,0.983677,-0.0194596,-0.411186,0.214205,0.0201482,-0.646457,-0.170022,0.00879506,1.00336,5,0.1,18,3.9,0.866498,2.40093,0.5001,-0.348826,-0.0122651,-0.000453461,-0.324313,0.111431,0.000793487,0.0146475,0.192431,5,0.1,19,3.9,-0.89745,4.02241,0.600462,0.44562,0.0203073,-0.00034282,0.623614,-0.00703335,0.000130385,0.0113954,0.48936,5,0.1
0,4,3.39144,1.39479,0.591082,-0.0719249,0.86582,0.00687689,0.0270605,-0.00411272,-0.00292063,0.0159754,1.52365,5,0.1,1,4,-0.784076,-3.65768,0.65961,-0.865228,-0.0686407,0.0285953,0.0159442,0.0294447,-0.0123382,0.00774591,1.25331,5,0.1,2,4,4.15778,3.20493,0.644672,0.261486,0.010556,-0.000926852,-0.295639,-0.0109673,0.000953674,0.0127687,0.0060047,5,0.1,3,4,1.55783,-1.71235,0.916555,0.0743508,0.127843,-0.0237048,1.16092,-0.0801086,0.109613,0.00852441,4.14437,5,0.1,4,4,3.32302,2.0467,0.596922,-0.0845432,0.489146,-0.00209063,0.158906,-0.0714064,0.0170767,0.0155779,0.496249,5,0.1,5,4,2.6,2.92058,0.597764,0.0719368,0.0352204,0.00213981,-0.0013113,-0.197291,-0.00211596,0.00896473,0.393296,5,0.1,6,4,-1.2064,0.0371566,0.571734,0.00394285,0.244143,0.000318885,-0.0200272,-0.255221,-0.000804663,0.00871789,0.0057058,5,0.1,7,4,1.28917,-0.536233,0.5,-0.0887156,0.584997,1.49012e-06,0.0701547,-0.409409,2.98023e-05,0.0255309,0.184912,5,0.1,8,4,-2.9587,-1.01126,0.59875,0.706232,0.728956,0.000868738,0.580311,-0.30297,-0.000715256,0.0181708,1.12541,5,0.1,9,4,-2.03036,2.47732,0.60094,0.0415027,-0.162441,-0.000783801,-0.163555,-0.0411272,0.000655651,0.0120245,0.21022,5,0.1,10,4,-0.260494,3.34781,0.576409,0.0276357,0.736302,0.0281081,-0.0258535,-0.426173,-0.0275671,0.00811069,0.279819,5,0.1,11,4,1.31651,-1.8,0.910869,0.0550717,-0.0471175,-0.0208169,-0.0836849,-0.519514,0.0302792,0.00871751,1.8177,5,0.1,12,4,3.19307,3.00449,0.615073,-0.0627339,0.275397,0.00378937,-0.172019,0.358224,0.104904,0.00828026,0.199494,5,0.1,13,4,3.26823,2.71106,0.59445,-0.107229,0.248903,0.00492036,-0.240088,-0.185966,-0.0025332,0.0109795,0.142375,5,0.1,14,4,-1.57341,-0.612354,0.540148,0.00638366,-0.606513,0.0016436,0.235975,-0.157118,0.0198185,0.008166,0.489575,5,0.1,15,4,-2.09624,-4.10491,0.603391,-0.866026,-0.0992417,0.0154883,0,0.0247955,-0.0038743,0.00919423,1.82213,5,0.1,16,4,-1.81585,2.40006,0.599311,0.0389636,0.000679493,0.00151396,-0.0200868,-0.000119209,-0.00199676,0.00712259,0.267837,5,0.1,17,4,0.471283,2.21768,1.00423,-0.0175878,-0.472397,0.196663,0.0179559,-0.536442,-0.185132,0.00902256,0.772181,5,0.1,18,4,0.830245,2.40018,0.500059,-0.373352,-0.00370145,-0.000351667,-0.15232,0.0602007,0.00113249,0.0171219,0.127421,5,0.1,19,4,-0.85016,4.0244,0.600428,0.495751,0.0195146,-0.000329316,0.358522,-0.00929832,0.000178814,0.00769788,0.212901,5,0.1
0,4.1,3.38437,1.4803,0.591756,-0.0694294,0.834638,0.00661733,0.0254661,-0.58607,-0.00254437,0.0159754,1.52365,5,0.1,1,4.1,-0.87059,-3.66441,0.662413,-0.865291,-0.0659835,0.0274825,0.00148267,0.0262707,-0.0109933,0.00774591,1.25331,5,0.1,2,4.1,4.18248,3.20593,0.644584,0.232548,0.00947155,-0.000832323,-0.286818,-0.0108629,0.000949949,0.0127687,0.0060047,5,0.1,3,4.1,1.56874,-1.6996,0.914683,0.123245,0.130344,-0.0142028,-0.0742599,0.103951,0.0811405,0.00852441,4.14437,5,0.1,4,4.1,3.31539,2.09559,0.596792,-0.067671,0.490844,-0.000568852,0.174627,0.0673831,0.0133142,0.0155779,0.496249,5,0.1,5,4.1,2.60781,2.92314,0.597968,0.0894975,0.0161279,0.00194814,0.310227,-0.181124,-0.00178069,0.00896473,0.393296,5,0.1,6,4.1,-1.2061,0.060308,0.571762,0.00214726,0.218923,0.000244658,-0.0158399,-0.252683,-0.000681728,0.00871789,0.0057058,5,0.1,7,4.1,1.28064,-0.479627,0.5,-0.0820505,0.548134,2.8871e-06,0.0654086,-0.348423,3.72529e-06,0.0255309,0.184912,5,0.1,8,4.1,-2.88527,-0.939837,0.598834,0.760347,0.699475,0.000812393,0.46216,-0.309486,-0.000458211,0.0181708,1.12541,5,0.1,9,4.1,-2.02681,2.46109,0.600864,0.0312395,-0.160224,-0.000741519,-0.0532866,0.0806898,0.00026077,0.0120245,0.21022,5,0.1,10,4.1,-0.257852,3.41944,0.57909,0.0252669,0.696806,0.025576,-0.022335,-0.388026,-0.0238717,0.00811069,0.279819,5,0.1,11,4.1,1.32162,-1.80843,0.908936,0.0471346,-0.130349,-0.0178697,-0.0756532,-1.05688,0.0287443,0.00871751,1.8177,5,0.1,12,4.1,3.18596,3.03392,0.615949,-0.0790451,0.313403,0.0134162,-0.147954,0.373602,0.0859909,0.00828026,0.199494,5,0.1,13,4.1,3.2566,2.73524,0.594932,-0.122553,0.236387,0.00475189,-0.0732243,-0.0825524,-0.00115111,0.0109795,0.142375,5,0.1,14,4.1,-1.57165,-0.673837,0.540409,0.0282085,-0.622804,0.00352804,0.196598,-0.136748,0.0173822,0.008166,0.489575,5,0.1,15,4.1,-2.18285,-4.11473,0.604924,-0.866026,-0.0973344,0.0151903,0,0.0180006,-0.00281259,0.00919423,1.82213,5,0.1,16,4.1,-1.81208,2.4002,0.599453,0.0361526,0.00250377,0.00131801,-0.035353,0.0279099,-0.0019297,0.00712259,0.267837,5,0.1,17,4.1,0.469605,2.16762,1.02302,-0.0160554,-0.5289,0.179505,0.0134408,-0.550032,-0.163369,0.00902256,0.772181,5,0.1,18,4.1,0.792262,2.40004,0.50003,-0.384842,0.000340864,-0.0002346,-0.0649691,0.0233799,0.00115857,0.0171219,0.127421,5,0.1,19,4.1,-0.799052,4.02631,0.600396,0.523428,0.0187077,-0.000313949,0.180699,-0.0076592,0.000145286,0.00769788,0.212901,5,0.1
0,4.2,3.37757,1.5601,0.592404,-0.0663877,0.754902,0.00632405,0.0370741,-0.979185,-0.00351667,0.0199277,1.43549,5,0.1,1,4.2,-0.957002,-3.67086,0.665101,-0.861447,-0.0629485,0.0262141,0.0915825,0.0362396,-0.01508,0.00696117,0.932043,5,0.1,2,4.2,4.20429,3.20683,0.644506,0.20355,0.00835657,-0.000736117,-0.294924,-0.0114441,0.00104308,0.00897597,0.0018264,5,0.1,3,4.2,1.57939,-1.68591,0.913626,0.0791311,0.14402,-0.00733584,-0.720561,0.149608,0.0568926,0.00923763,3.46463,5,0.1,4,4.2,3.3095,2.14498,0.596795,-0.0503123,0.496072,0.000566244,0.169396,0.00953674,0.00935793,0.0184328,0.375752,5,0.1,5,4.2,2.61854,2.92389,0.598154,0.126487,-0.000417233,0.00177175,0.397086,-0.147343,-0.00178814,0.00795961,0.319061,5,0.1,6,4.2,-1.20595,0.080919,0.571783,0.00077486,0.193064,0.000181794,-0.0115633,-0.266407,-0.000566244,0.0115349,0.00170314,5,0.1,7,4.2,1.27277,-0.426592,0.500001,-0.0752538,0.511825,2.98023e-06,0.0720024,-0.392064,-2.98023e-05,0.0253213,0.138269,5,0.1,8,4.2,-2.80739,-0.871599,0.598913,0.792032,0.663257,0.0007689,0.145078,-0.430048,-0.000447035,0.0157187,0.768028,5,0.1,9,4.2,-2.02385,2.44564,0.600791,0.0288248,-0.147265,-0.000721216,-0.0038147,0.173807,0.000208616,0.0103108,0.196738,5,0.1,10,4.2,-0.255436,3.48708,0.581529,0.0230297,0.654614,0.0231981,-0.0229627,-0.472665,-0.0242293,0.010057,0.188416,5,0.1,11,4.2,1.32596,-1.82703,0.907291,0.0398427,-0.242943,-0.0150561,-0.0705719,-1.12766,0.027597,0.00679792,1.83049,5,0.1,12,4.2,3.1774,3.06697,0.617679,-0.0912726,0.345296,0.0207201,-0.0923872,0.244379,0.0591278,0.00828255,0.173369,5,0.1,13,4.2,3.24421,2.75852,0.595402,-0.123191,0.229234,0.00463575,0.0540018,-0.0739098,-0.00143051,0.0129161,0.170289,5,0.1,14,4.2,-1.56793,-0.736554,0.540841,0.0450552,-0.628486,0.00503659,0.137925,0.0449419,0.012517,0.00947723,0.341992,5,0.1,15,4.2,-2.26945,-4.12435,0.606426,-0.866026,-0.0948548,0.0148028,0,0.0350475,-0.00548363,0.00612734,1.41398,5,0.1,16,4.2,-1.80866,2.40058,0.599575,0.0320435,0.00485778,0.00112504,-0.0459552,0.0139475,-0.00187755,0.00833314,0.252768,5,0.1,17,4.2,0.468064,2.11225,1.04016,-0.01477,-0.574982,0.163081,0.0128001,-0.341177,-0.168681,0.00839765,0.565598,5,0.1,18,4.2,0.75368,2.40015,0.500012,-0.384325,0.0014782,-0.00012815,0.0829697,0.00154972,0.000923872,0.0141774,0.221824,5,0.1,19,4.2,-0.746194,4.02814,0.600365,0.529647,0.0178456,-0.000298023,-0.0644922,-0.0100136,0.000178814,0.00829595,0.237945,5,0.1
0,4.3,3.37111,1.63,0.59302,-0.0629317,0.637474,0.00600228,0.0341982,-1.31345,-0.00314042,0.0199277,1.43549,5,0.1,1,4.3,-1.04296,-3.67699,0.667652,-0.859059,-0.059611,0.0248254,0.00463799,0.0326484,-0.0135787,0.00696117,0.932043,5,0.1,2,4.3,4.22319,3.2076,0.644437,0.174645,0.0072252,-0.000633858,-0.283927,-0.0112206,0.00100583,0.00897597,0.0018264,5,0.1,3,4.3,1.58203,-1.67106,0.913138,-0.0401082,0.150205,-0.00278279,-1.53949,-0.0172928,0.0351742,0.00923763,3.46463,5,0.1,4,4.3,3.30528,2.19479,0.596894,-0.0343088,0.500918,0.00137193,0.148609,0.0574738,0.0067167,0.0184328,0.375752,5,0.1,5,4.3,2.63341,2.92315,0.598323,0.172449,-0.0141598,0.00161007,0.490114,-0.124961,-0.00149757,0.00795961,0.319061,5,0.1,6,4.3,-1.20593,0.0989051,0.571799,-0.000212714,0.166759,0.000130478,-0.00821054,-0.260345,-0.000458211,0.0115349,0.00170314,5,0.1,7,4.3,1.26558,-0.377558,0.500001,-0.0685338,0.467067,5.58794e-07,0.0643283,-0.499398,-1.49012e-05,0.0253213,0.138269,5,0.1,8,4.3,-2.72752,-0.807333,0.598988,0.803811,0.62247,0.000733044,0.0584424,-0.404764,-0.000309199,0.0157187,0.768028,5,0.1,9,4.3,-2.02093,2.43192,0.600719,0.030002,-0.125851,-0.000708457,0.0213385,0.246435,9.31323e-05,0.0103108,0.196738,5,0.1,10,4.3,-0.253241,3.55031,0.583735,0.0209353,0.610838,0.0209868,-0.0196062,-0.423029,-0.0206679,0.010057,0.188416,5,0.1,11,4.3,1.32961,-1.85748,0.905918,0.0333073,-0.369191,-0.0124605,-0.0606999,-1.32076,0.0244305,0.00679792,1.83049,5,0.1,12,4.3,3.16785,3.10278,0.620026,-0.0989757,0.37101,0.0259857,-0.0582039,0.244379,0.0448264,0.00828255,0.173369,5,0.1,13,4.3,3.23234,2.78124,0.595861,-0.112752,0.226489,0.00456506,0.147954,0.000566244,-0.000309199,0.0129161,0.170289,5,0.1,14,4.3,-1.56279,-0.79921,0.541404,0.0573622,-0.624288,0.00618203,0.10518,0.0647642,0.0100099,0.00947723,0.341992,5,0.1,15,4.3,-2.35605,-4.13368,0.607881,-0.865833,-0.0917532,0.014318,0.007689,0.0307262,-0.00480562,0.00612734,1.41398,5,0.1,16,4.3,-1.8057,2.40121,0.599678,0.027198,0.00783838,0.000943523,-0.0502616,0.0208169,-0.00175461,0.00833314,0.252768,5,0.1,17,4.3,0.466644,2.05303,1.05567,-0.0136678,-0.608635,0.147589,0.00985153,-0.297658,-0.145674,0.00839765,0.565598,5,0.1,18,4.3,0.715752,2.4003,0.500003,-0.373148,0.00155233,-5.2806e-05,0.147816,-0.000312924,0.00057742,0.0141774,0.221824,5,0.1,19,4.3,-0.693505,4.02988,0.600336,0.524017,0.0169419,-0.000282004,-0.0702068,-0.00867248,0.000149012,0.00829595,0.237945,5,0.1
0,4.4,3.36499,1.687,0.593604,-0.0591874,0.501874,0.00565946,0.0423193,-1.35785,-0.0038743,0.0180463,1.37903,5,0.1,1,4.4,-1.12866,-3.68278,0.670063,-0.852263,-0.0560641,0.0233486,0.165224,0.0398159,-0.0165701,0.0068495,0.667424,5,0.1,2,4.4,4.23925,3.20827,0.644379,0.146675,0.00610948,-0.000534952,-0.275612,-0.0110865,0.000983477,0.00995608,0.000849651,5,0.1,3,4.4,1.56981,-1.65635,0.913007,-0.206718,0.142184,-0.000114739,-1.69694,-0.135422,0.0191033,0.0122226,2.9904,5,0.1,4,4.4,3.30255,2.24505,0.59706,-0.0209153,0.502473,0.00190586,0.118256,-0.0473261,0.00396371,0.0157313,0.27655,5,0.1,5,4.4,2.65304,2.92116,0.598477,0.218958,-0.0249863,0.00146329,0.416756,-0.0897646,-0.00151992,0.00889588,0.24876,5,0.1,6,4.4,-1.20598,0.114286,0.57181,-0.000876188,0.140921,8.9407e-05,-0.00506639,-0.256512,-0.000357628,0.00964106,0.000756391,5,0.1,7,4.4,1.25905,-0.333498,0.500001,-0.0620663,0.412733,-1.49012e-06,0.0664592,-0.583082,0,0.0256623,0.245999,5,0.1,8,4.4,-2.64721,-0.747195,0.599059,0.798404,0.579113,0.000700355,-0.187516,-0.475228,-0.000327826,0.0136474,0.512683,5,0.1,9,4.4,-2.01782,2.42063,0.600649,0.0320792,-0.0994503,-0.000695884,0.0160933,0.275016,0.000208616,0.0120141,0.190131,5,0.1,10,4.4,-0.251244,3.60923,0.585732,0.0189923,0.566614,0.0189498,-0.0197142,-0.475407,-0.020504,0.00928973,0.127306,5,0.1,11,4.4,1.33265,-1.90081,0.904789,0.0275999,-0.493842,-0.0101507,-0.0537634,-1.11634,0.0218153,0.00638171,0.471275,5,0.1,12,4.4,3.15775,3.14093,0.622816,-0.102359,0.389844,0.029467,-0.00751019,0.11456,0.0239611,0.00718426,0.159559,5,0.1,13,4.4,3.22191,2.80389,0.596316,-0.0948846,0.226182,0.00451803,0.203252,-0.0201464,-0.000864267,0.0154134,0.339639,5,0.1,14,4.4,-1.5566,-0.861111,0.542066,0.0655979,-0.611225,0.00697672,0.0576973,0.213772,0.00560284,0.00706959,0.232539,5,0.1,15,4.4,-2.44253,-4.14268,0.609286,-0.86295,-0.0880837,0.0137433,0.061512,0.0457764,-0.00715256,0.00660087,1.0655,5,0.1,16,4.4,-1.80323,2.40196,0.599764,0.0221193,0.00551343,0.00077337,-0.0507236,-0.0777245,-0.00160933,0.011501,0.214571,5,0.1,17,4.4,0.465326,1.99098,1.06971,-0.0126958,-0.628754,0.133181,0.0100285,-0.0814199,-0.145674,0.00921954,0.396967,5,0.1,18,4.4,0.679331,2.40045,0.5,-0.353625,0.00138283,-1.19209e-05,0.246674,-0.00333786,0.000268221,0.0131789,0.420326,5,0.1,19,4.4,-0.641611,4.03153,0.600309,0.511897,0.0159979,-0.000266731,-0.187188,-0.0107288,0.000208616,0.011045,2.89389,5,0.1
0,4.5,3.35927,1.7304,0.594152,-0.055255,0.367773,0.0053023,0.0381172,-1.26627,-0.00344589,0.0180463,1.37903,5,0.1,1,4.5,-1.21321,-3.6882,0.67232,-0.839398,-0.0523873,0.0218186,0.130847,0.0354648,-0.0147633,0.0068495,0.667424,5,0.1,2,4.5,4.25257,3.20883,0.64433,0.120085,0.00503287,-0.000439864,-0.255764,-0.010401,0.000912696,0.00995608,0.000849651,5,0.1,3,4.5,1.54132,-1.64291,0.913069,-0.35633,0.125568,0.00117142,-1.28515,-0.191703,0.00739098,0.0122226,2.9904,5,0.1,4,4.5,3.301,2.29514,0.597268,-0.0106931,0.499615,0.00222251,0.0856817,-0.0336915,0.00233948,0.0157313,0.27655,5,0.1,5,4.5,2.67707,2.91828,0.598616,0.261483,-0.031846,0.00132648,0.409201,-0.0481904,-0.00126287,0.00889588,0.24876,5,0.1,6,4.5,-1.20609,0.127121,0.571817,-0.00126474,0.116043,5.76489e-05,-0.00277162,-0.240533,-0.000279397,0.00964106,0.000756391,5,0.1,7,4.5,1.25313,-0.295409,0.500001,-0.0567203,0.346987,-1.49012e-06,0.0438616,-0.707621,0,0.0256623,0.245999,5,0.1,8,4.5,-2.5683,-0.691543,0.599128,0.779044,0.534694,0.000672601,-0.225976,-0.429176,-0.00026077,0.0136474,0.512683,5,0.1,9,4.5,-2.01454,2.41207,0.60058,0.0333771,-0.0718862,-0.000676699,0.00739098,0.269979,0.000201166,0.0120141,0.190131,5,0.1,10,4.5,-0.249377,3.66358,0.587531,0.018921,0.520799,0.017071,0.0139009,-0.453323,-0.0175983,0.00928973,0.127306,5,0.1,11,4.5,1.33516,-1.95522,0.903877,0.0227105,-0.588493,-0.00814479,-0.0445396,-0.757575,0.0184178,0.00638171,0.471275,5,0.1,12,4.5,3.1475,3.18058,0.62588,-0.102303,0.403312,0.0317366,0.0114292,0.129953,0.0196807,0.00718426,0.159559,5,0.1,13,4.5,3.2135,2.82664,0.596762,-0.0728242,0.230619,0.00440115,0.230432,0.0854731,-0.00156835,0.0154134,0.339639,5,0.1,14,4.5,-1.54978,-0.921215,0.542789,0.0703886,-0.590817,0.00745971,0.0356734,0.215467,0.00375509,0.00706959,0.232539,5,0.1,15,4.5,-2.52878,-4.15128,0.610627,-0.863337,-0.0838883,0.0130879,-0.0233501,0.0412166,-0.0064373,0.00660087,1.0655,5,0.1,16,4.5,-1.80127,2.40201,0.599834,0.0171458,-0.00667088,0.00062082,-0.0482425,-0.200465,-0.00144541,0.011501,0.214571,5,0.1,17,4.5,0.464102,1.9277,1.08235,-0.0118188,-0.636112,0.119899,0.00800379,-0.0383034,-0.123747,0.00921954,0.396967,5,0.1,18,4.5,0.645242,2.40067,0.5,-0.327644,0.00373162,4.74975e-06,0.277083,0.037536,7.82311e-05,0.0131789,0.420326,5,0.1,19,4.5,-0.590651,4.03374,0.600291,0.51284,0.0338845,-2.64496e-05,0.146784,0.326008,0.00411272,0.011045,2.89389,5,0.1
0,4.6,3.35394,1.76136,0.594664,-0.051266,0.257173,0.00493973,0.0431538,-0.917971,-0.00396371,0.0156738,1.28286,5,0.1,1,4.6,-1.2963,-3.69325,0.674426,-0.819537,-0.0486672,0.0202715,0.293076,0.0399351,-0.0166893,0.00786852,0.464914,5,0.1,2,4.6,4.26334,3.20928,0.644291,0.0956178,0.00402927,-0.000351667,-0.233412,-0.00953674,0.000834465,0.0172556,0.000690196,5,0.1,3,4.6,1.50001,-1.63137,0.91321,-0.462148,0.104797,0.00150651,-0.825346,-0.219226,-5.96046e-05,0.0115745,2.88354,5,0.1,4,4.6,3.3003,2.3448,0.597499,-0.00382662,0.491703,0.00237077,0.0519753,-0.140786,0.000566244,0.0163031,0.199096,5,0.1,5,4.6,2.70509,2.91492,0.598742,0.296617,-0.0347853,0.00120252,0.276327,-0.0116825,-0.0012517,0.011648,0.19058,5,0.1,6,4.6,-1.20623,0.137553,0.571822,-0.00143945,0.0929151,3.27826e-05,-0.00089407,-0.221513,-0.000208616,0.00954457,0.000620705,5,0.1,7,4.6,1.24767,-0.264292,0.5,-0.0527054,0.275373,-1.49012e-06,0.0389218,-0.707261,0,0.0262023,0.239585,5,0.1,8,4.6,-2.49177,-0.64025,0.599194,0.748837,0.490578,0.00064373,-0.395417,-0.464112,-0.000357628,0.0186732,0.3386,5,0.1,9,4.6,-2.01119,2.40618,0.600514,0.0331759,-0.0465155,-0.000651181,-0.0128746,0.233293,0.000327826,0.0121642,0.182425,5,0.1,10,4.6,-0.247389,3.71335,0.589151,0.0209961,0.473887,0.0153422,0.0242293,-0.493288,-0.017345,0.0089412,0.192724,5,0.1,11,4.6,1.33722,-2.01714,0.90315,0.0185996,-0.642437,-0.00644624,-0.0380874,-0.311017,0.0156462,0.00848291,0.432288,5,0.1,12,4.6,3.13737,3.22142,0.629133,-0.0996172,0.411618,0.0331089,0.043869,0.0188351,0.00661612,0.00838402,0.154176,5,0.1,13,4.6,3.20736,2.85015,0.597193,-0.0501037,0.239211,0.00418872,0.218511,0.0691414,-0.00274181,0.0129404,0.456787,5,0.1,14,4.6,-1.54262,-0.979076,0.543549,0.0723392,-0.564611,0.00767857,0.00178814,0.322878,0.00038743,0.00976763,0.155629,5,0.1,15,4.6,-2.61506,-4.15945,0.611902,-0.859988,-0.0793099,0.0123739,0.120759,0.0522137,-0.00816584,0.00625449,0.774018,5,0.1,16,4.6,-1.79979,2.4,0.599889,0.0125587,-0.036633,0.000484288,-0.0432134,-0.384927,-0.0012815,0.00868269,0.153093,5,0.1,17,4.6,0.46296,1.86415,1.09373,-0.0110112,-0.631836,0.107786,0.00852346,0.142097,-0.121176,0.0101537,0.270296,5,0.1,18,4.6,0.613939,2.40122,0.500001,-0.297579,0.00684261,7.45058e-06,0.326335,0.0166893,-2.98023e-05,0.015064,0.352305,5,0.1,19,4.6,-0.538483,4.03903,0.600312,0.530902,0.0736594,0.000470877,0.170186,0.436544,0.00542402,0.0107547,2.7787,5,0.1
0,4.7,3.34902,1.78306,0.595139,-0.0472806,0.184313,0.00457484,0.0380576,-0.484481,-0.00347942,0.0156738,1.28286,5,0.1,1,4.7,-1.37691,-3.69793,0.676375,-0.793066,-0.0449874,0.0187344,0.267811,0.0351369,-0.014659,0.00786852,0.464914,5,0.1,2,4.7,4.27177,3.20964,0.644259,0.0735737,0.00312328,-0.000272691,-0.206858,-0.00855327,0.000745058,0.0172556,0.000690196,5,0.1,3,4.7,1.45098,-1.62199,0.91335,-0.507636,0.0827737,0.00121035,-0.171833,-0.218377,-0.00528246,0.0115745,2.88354,5,0.1,4,4.7,3.30014,2.39333,0.597738,0.00032261,0.479009,0.00238782,0.0280142,-0.132382,-0.000257045,0.0163031,0.199096,5,0.1,5,4.7,2.73611,2.91153,0.598857,0.323246,-0.0316925,0.00109002,0.237063,0.0659227,-0.00104308,0.011648,0.19058,5,0.1,6,4.7,-1.20638,0.145775,0.571824,-0.00145752,0.0719099,1.47149e-05,0.000454485,-0.19788,-0.000149012,0.00954457,0.000620705,5,0.1,7,4.7,1.24259,-0.24025,0.5,-0.0488047,0.206474,-1.49012e-06,0.0400394,-0.647691,0,0.0262023,0.239585,5,0.1,8,4.7,-2.41879,-0.593385,0.599257,0.710667,0.447654,0.000611972,-0.389904,-0.407875,-0.000301749,0.0186732,0.3386,5,0.1,9,4.7,-2.00792,2.40261,0.60045,0.032511,-0.0258904,-0.000618584,-0.00412762,0.176921,0.000342727,0.0121642,0.182425,5,0.1,10,4.7,-0.245098,3.75813,0.590608,0.0253917,0.420472,0.0138871,0.0576414,-0.570357,-0.0124723,0.0089412,0.192724,5,0.1,11,4.7,1.3389,-2.08279,0.902579,0.015191,-0.668481,-0.00503501,-0.0305325,-0.183955,0.0126921,0.00848291,0.432288,5,0.1,12,4.7,3.12761,3.2628,0.632488,-0.0957213,0.416561,0.034042,0.0379682,0.0550151,0.00980869,0.00838402,0.154176,5,0.1,13,4.7,3.20344,2.87433,0.597597,-0.0285413,0.243285,0.00387728,0.202939,0.00630319,-0.00349432,0.0129404,0.456787,5,0.1,14,4.7,-1.53539,-1.034,0.544318,0.0720363,-0.534135,0.0076781,-0.00987947,0.304118,-0.000651926,0.00976763,0.155629,5,0.1,15,4.7,-2.70065,-4.16713,0.613101,-0.852474,-0.0744872,0.0116199,0.0720918,0.0468194,-0.00730902,0.00625449,0.774018,5,0.1,16,4.7,-1.79874,2.39406,0.599931,0.00850242,-0.0846148,0.000365451,-0.037618,-0.53817,-0.00109524,0.00868269,0.153093,5,0.1,17,4.7,0.461898,1.80166,1.10394,-0.0102545,-0.61775,0.0968043,0.00701286,0.161991,-0.101626,0.0101537,0.270296,5,0.1,18,4.7,0.585842,2.40198,0.500002,-0.264069,0.00786968,4.37722e-06,0.343975,-0.0110716,-3.35276e-05,0.015064,0.352305,5,0.1,19,4.7,-0.483568,4.04858,0.600387,0.574904,0.11671,0.00102781,0.623191,0.403225,0.00545382,0.0107547,2.7787,5,0.1
0,4.8,3.34449,1.8,0.595579,-0.0433981,0.163224,0.00421852,0.0405312,0.0373721,-0.00378489,0.0186674,1.09682,5,0.1,1,4.8,-1.45471,-3.70225,0.678174,-0.76068,-0.0413954,0.0172347,0.401378,0.0377893,-0.0157058,0.0104255,0.317514,5,0.1,2,4.8,4.27815,3.20991,0.644236,0.0543594,0.00232458,-0.000204146,-0.177145,-0.00739098,0.000685453,0.0167276,0.000542474,5,0.1,3,4.8,1.39989,-1.61479,0.91344,-0.510269,0.0616282,0.000554323,0.0690222,-0.202298,-0.00736117,0.0122127,2.82275,5,0.1,4,4.8,3.30026,2.44045,0.597974,0.00142455,0.461984,0.00231564,-0.00679493,-0.221252,-0.0012219,0.0184853,0.141317,5,0.1,5,4.8,2.76943,2.90877,0.598961,0.340807,-0.0229776,0.000989437,0.101209,0.102401,-0.00104308,0.011532,0.138981,5,0.1,6,4.8,-1.20652,0.15202,0.571825,-0.00136197,0.0534561,2.98023e-06,0.00149012,-0.170738,-0.000119209,0.0104334,0.000504144,5,0.1,7,4.8,1.23792,-0.222601,0.5,-0.0445426,0.149217,0,0.0457764,-0.48665,-2.98023e-05,0.0290787,0.221514,5,0.1,8,4.8,-2.34981,-0.550655,0.599316,0.667202,0.406715,0.000578165,-0.494003,-0.420213,-0.000327826,0.0144454,0.223141,5,0.1,9,4.8,-2.0047,2.4008,0.60039,0.0317514,-0.0113785,-0.000579655,-0.0134706,0.11313,0.000447035,0.0135542,0.165134,5,0.1,10,4.8,-0.242256,3.79723,0.591938,0.0314649,0.360751,0.0127241,0.0592619,-0.619411,-0.0113547,0.0110668,0.139269,5,0.1,11,4.8,1.34028,-2.15018,0.902134,0.0124127,-0.674969,-0.0038892,-0.025332,0.0704527,0.0103414,0.00669341,0.168241,5,0.1,12,4.8,3.11824,3.30462,0.635931,-0.091362,0.418365,0.0346899,0.0519753,-0.036478,0.00157952,0.0175734,3.66781,5,0.1,13,4.8,3.20152,2.89854,0.597966,-0.0110626,0.239521,0.00348985,0.141144,-0.084877,-0.00423193,0.0124295,2.34894,5,0.1,14,4.8,-1.52827,-1.08581,0.545079,0.0700355,-0.500864,0.0075087,-0.0315309,0.373065,-0.00292063,0.00880783,0.103436,5,0.1,15,4.8,-2.78533,-4.17434,0.614225,-0.838363,-0.0695229,0.0108451,0.239849,0.054121,-0.00849366,0.00742893,0.544823,5,0.1,16,4.8,-1.79807,2.38291,0.599962,0.0050813,-0.137919,0.000265241,-0.0306368,-0.501156,-0.000923872,0.0101832,0.092882,5,0.1,17,4.8,0.460908,1.74087,1.11313,-0.00953972,-0.59571,0.0869155,0.00756979,0.293732,-0.0983477,0.00771966,0.180737,5,0.1,18,4.8,0.561184,2.40258,0.500002,-0.228825,0.00264049,1.49012e-06,0.36034,-0.0984669,-2.98023e-05,0.0142602,0.507707,5,0.1,19,4.8,-0.422801,4.06207,0.600515,0.640368,0.150836,0.00151694,0.62108,0.265598,0.00417233,0.00811649,0.951931,5,0.1
0,4.9,3.34034,1.81749,0.595983,-0.0396755,0.194731,0.00387151,0.0351816,0.522956,-0.00327826,0.0186674,1.09682,5,0.1,1,4.9,-1.52889,-3.70622,0.679824,-0.72353,-0.0379287,0.015794,0.367455,0.0327826,-0.0136234,0.0104255,0.317514,5,0.1,2,4.9,4.28274,3.21011,0.644219,0.0380374,0.00163987,-0.000141654,-0.148863,-0.00628829,0.000569969,0.0167276,0.000542474,5,0.1,3,4.9,1.34961,-1.6096,0.913455,-0.494947,0.04248,-0.000285078,0.0983998,-0.179149,-0.00898913,0.0122127,2.82275,5,0.1,4,4.9,3.30033,2.48561,0.598199,-0.00058189,0.44141,0.0021806,-0.0391901,-0.206053,-0.00151247,0.0184853,0.141317,5,0.1,5,4.9,2.80382,2.90698,0.599055,0.344865,-0.012894,0.000896771,-0.0242293,0.0973046,-0.000845641,0.011532,0.138981,5,0.1,6,4.9,-1.20665,0.156555,0.571824,-0.00118297,0.0376706,-6.33299e-06,0.00203401,-0.144506,-6.70552e-05,0.0104334,0.000504144,5,0.1,7,4.9,1.23368,-0.20985,0.5,-0.040164,0.109078,-1.02445e-06,0.0426397,-0.293181,3.72529e-06,0.0290787,0.221514,5,0.1,8,4.9,-2.28545,-0.511959,0.599373,0.620579,0.368175,0.000547804,-0.456885,-0.361972,-0.000298023,0.0144454,0.223141,5,0.1,9,4.9,-2.00146,2.40012,0.600335,0.0339242,-0.00310689,-0.00053579,0.0468716,0.0545084,0.00044331,0.0135542,0.165134,5,0.1,10,4.9,-0.238991,3.83051,0.593161,0.0322887,0.307668,0.0117894,-0.0341348,-0.455573,-0.00794977,0.0110668,0.139269,5,0.1,11,4.9,1.3414,-2.21711,0.901793,0.0101797,-0.661274,-0.00297381,-0.0196993,0.214875,0.00806525,0.00669341,0.168241,5,0.1,12,4.9,3.10749,3.34501,0.639324,-0.139472,0.378501,0.0324198,-0.893518,-0.696808,-0.0430979,0.0175734,3.66781,5,0.1,13,4.9,3.2013,2.92204,0.598294,0.00714958,0.230052,0.00306861,0.164092,-0.109702,-0.0042133,0.0124295,2.34894,5,0.1,14,4.9,-1.52142,-1.13412,0.545815,0.06679,-0.466013,0.00721011,-0.035122,0.338525,-0.0032559,0.00880783,0.103436,5,0.1,15,4.9,-2.8681,-4.18104,0.615269,-0.817377,-0.0645272,0.010062,0.214219,0.0478923,-0.00750273,0.00742893,0.544823,5,0.1,16,4.9,-1.7977,2.36662,0.599985,0.00231694,-0.187178,0.000181701,-0.0245348,-0.46286,-0.000748783,0.0101832,0.092882,5,0.1,17,4.9,0.459989,1.68271,1.12136,-0.00886009,-0.56761,0.0780454,0.00635348,0.28678,-0.0816956,0.00771966,0.180737,5,0.1,18,4.9,0.540061,2.4023,0.500002,-0.194025,-0.00984371,-1.02445e-06,0.336464,-0.194401,-1.86265e-05,0.0142602,0.507707,5,0.1,19,4.9,-0.357873,4.07875,0.600707,0.638482,0.184784,0.00245925,-0.563106,0.381738,0.0132993,0.00811649,0.951931,5,0.1
