id,t,px,py,pz,vx,vy,vz,ax,ay,az,planning_time,qp_cost,planning_report,size,id,t,px,py,pz,vx,vy,vz,ax,ay,az,planning_time,qp_cost,planning_report,size,id,t,px,py,pz,vx,vy,vz,ax,ay,az,planning_time,qp_cost,planning_report,size,id,t,px,py,pz,vx,vy,vz,ax,ay,az,planning_time,qp_cost,planning_report,size,id,t,px,py,pz,vx,vy,vz,ax,ay,az,planning_time,qp_cost,planning_report,size,id,t,px,py,pz,vx,vy,vz,ax,ay,az,planning_time,qp_cost,planning_report,size,id,t,px,py,pz,vx,vy,vz,ax,ay,az,planning_time,qp_cost,planning_report,size,id,t,px,py,pz,vx,vy,vz,ax,ay,az,planning_time,qp_cost,planning_report,size,id,t,px,py,pz,vx,vy,vz,ax,ay,az,planning_time,qp_cost,planning_report,size,id,t,px,py,pz,vx,vy,vz,ax,ay,az,planning_time,qp_cost,planning_report,size,id,t,px,py,pz,vx,vy,vz,ax,ay,az,planning_time,qp_cost,planning_report,size,id,t,px,py,pz,vx,vy,vz,ax,ay,az,planning_time,qp_cost,planning_report,size,id,t,px,py,pz,vx,vy,vz,ax,ay,az,planning_time,qp_cost,planning_report,size,id,t,px,py,pz,vx,vy,vz,ax,ay,az,planning_time,qp_cost,planning_report,size,id,t,px,py,pz,vx,vy,vz,ax,ay,az,planning_time,qp_cost,planning_report,size,id,t,px,py,pz,vx,vy,vz,ax,ay,az,planning_time,qp_cost,planning_report,size,id,t,px,py,pz,vx,vy,vz,ax,ay,az,planning_time,qp_cost,planning_report,size,id,t,px,py,pz,vx,vy,vz,ax,ay,az,planning_time,qp_cost,planning_report,size,id,t,px,py,pz,vx,vy,vz,ax,ay,az,planning_time,qp_cost,planning_report,size,id,t,px,py,pz,vx,vy,vz,ax,ay,az,planning_time,qp_cost,planning_report,size
0,0,1.15301,3.88464,0.548716,0,0,0,0,0,0,0.00809154,1.4045,5,0.1,1,0,1.70406,-3.47925,0.639617,0,0,0,0,0,0,0.0298956,3.5122,5,0.1,2,0,-3.95077,-2.99561,0.578221,0,0,0,0,0,0,0.0122222,3.5122,5,0.1,3,0,0.950123,-1.50636,0.667657,0,0,0,0,0,0,0.0116206,0.317236,5,0.1,4,0,-3.98071,3.82052,0.578638,0,0,0,0,0,0,0.0201837,3.5122,5,0.1,5,0,-0.969574,0.69022,0.611717,0,0,0,0,0,0,0.0115696,1.73663,5,0.1,6,0,-0.816899,-3.1614,0.523632,0,0,0,0,0,0,0.0101715,3.51219,5,0.1,7,0,-1.00085,-0.439363,0.586653,0,0,0,0,0,0,0.00873311,1.83814,5,0.1,8,0,-3.53038,-1.71138,0.555133,0,0,0,0,0,0,0.042823,1.44452,5,0.1,9,0,0.334971,-4.0814,0.619045,0,0,0,0,0,0,0.0226817,1.38115,5,0.1,10,0,3.61782,2.13256,0.632728,0,0,0,0,0,0,0.012744,3.5122,5,0.1,11,0,-2.05319,3.54831,0.585388,0,0,0,0,0,0,0.0123523,1.53652,5,0.1,12,0,-3.22356,1.47689,0.676976,0,0,0,0,0,0,0.0159249,1.79822,5,0.1,13,0,1.93989,1.10332,0.615938,0,0,0,0,0,0,0.0161575,3.5122,5,0.1,14,0,-3.04248,-3.61726,0.507369,0,0,0,0,0,0,0.0368443,1.89715,5,0.1,15,0,0.212563,-1.25086,0.573545,0,0,0,0,0,0,0.0144606,3.26371,5,0.1,16,0,4.15362,2.88494,0.533645,0,0,0,0,0,0,0.0111709,3.5122,5,0.1,17,0,2.22145,-0.250992,0.552185,0,0,0,0,0,0,0.0291298,3.16872,5,0.1,18,0,-0.992628,1.34188,0.657473,0,0,0,0,0,0,0.0296337,3.21313,5,0.1,19,0,0.216573,3.98654,0.681459,0,0,0,0,0,0,0.0203016,1.41623,5,0.1
0,0.1,1.15203,3.88376,0.54872,-0.0279326,-0.0249896,0.000110734,-0.496581,-0.444248,0.00197068,0.00809154,1.4045,5,0.1,1,0.1,1.70387,-3.47718,0.639596,-0.00552833,0.0590071,-0.000618771,-0.0982732,1.04901,-0.0109971,0.0298956,3.5122,5,0.1,2,0.1,-3.9487,-2.99593,0.578243,0.058591,-0.00891387,0.00063777,1.04164,-0.158459,0.0113398,0.0122222,3.5122,5,0.1,3,0.1,0.950541,-1.50682,0.667587,0.0118501,-0.0131473,-0.00200486,0.210669,-0.233725,-0.0356473,0.0116206,0.317236,5,0.1,4,0.1,-3.97896,3.81938,0.578655,0.04966,-0.0323486,0.000486616,0.882849,-0.575081,0.0086464,0.0201837,3.5122,5,0.1,5,0.1,-0.968713,0.689031,0.611735,0.0244486,-0.0337471,0.000532437,0.434641,-0.599947,0.00946596,0.0115696,1.73663,5,0.1,6,0.1,-0.817844,-3.15954,0.523738,-0.0268123,0.0527706,0.00302605,-0.47667,0.938132,0.0538006,0.0101715,3.51219,5,0.1,7,0.1,-1.00092,-0.440868,0.586755,-0.00208523,-0.0427287,0.00288617,-0.0370666,-0.759622,0.0513121,0.00873311,1.83814,5,0.1,8,0.1,-3.52904,-1.71131,0.55518,0.0379432,0.00181887,0.00132956,0.674561,0.032343,0.0236407,0.042823,1.44452,5,0.1,9,0.1,0.334308,-4.08027,0.619025,-0.0188168,0.0320479,-0.000564475,-0.334524,0.569701,-0.0100322,0.0226817,1.38115,5,0.1,10,0.1,3.61795,2.13048,0.632743,0.00370629,-0.0591516,0.000407454,0.065878,-1.05157,0.00724569,0.012744,3.5122,5,0.1,11,0.1,-2.05292,3.54696,0.585404,0.00750348,-0.0384744,0.000432972,0.133395,-0.683978,0.00770018,0.0123523,1.53652,5,0.1,12,0.1,-3.22208,1.47676,0.677052,0.0421863,-0.00376031,0.00216402,0.74999,-0.0668615,0.0384748,0.0159249,1.79822,5,0.1,13,0.1,1.93873,1.10158,0.615929,-0.0329265,-0.0492793,-0.000270456,-0.58537,-0.876084,-0.00481308,0.0161575,3.5122,5,0.1,14,0.1,-3.04103,-3.61678,0.507309,0.0412647,0.0138469,-0.00170013,0.733599,0.246167,-0.0302233,0.0368443,1.89715,5,0.1,15,0.1,0.214574,-1.2509,0.573486,0.0570987,-0.00106171,-0.00168057,1.01509,-0.0188798,-0.0298806,0.0144606,3.26371,5,0.1,16,0.1,4.1516,2.88546,0.533674,-0.0574514,0.0145394,0.000827946,-1.02133,0.258461,0.0147223,0.0111709,3.5122,5,0.1,17,0.1,2.22038,-0.249321,0.552235,-0.0302698,0.047444,0.00141701,-0.538126,0.84345,0.0251867,0.0291298,3.16872,5,0.1,18,0.1,-0.990965,1.34298,0.657413,0.0471962,0.0313567,-0.00170311,0.839043,0.557445,-0.0302754,0.0296337,3.21313,5,0.1,19,0.1,0.215251,3.9866,0.68153,-0.0375338,0.0018809,0.00203103,-0.667268,0.0334233,0.0361055,0.0203016,1.41623,5,0.1
0,0.2,1.14635,3.87869,0.548742,-0.0882804,-0.0789762,0.000348687,-0.662088,-0.59247,0.00265241,0.00978888,1.15232,5,0.1,1,0.2,1.70275,-3.46519,0.63947,-0.0174731,0.186491,-0.00195503,-0.131011,1.39856,-0.0146329,0.0296709,2.92581,5,0.1,2,0.2,-3.9368,-2.99774,0.578373,0.185174,-0.0281751,0.00201613,1.38891,-0.21112,0.0151098,0.0168985,2.92579,5,0.1,3,0.2,0.952948,-1.50949,0.667179,0.0374526,-0.0415504,-0.00633597,0.280857,-0.311613,-0.0475347,0.013438,0.260277,5,0.1,4,0.2,-3.96888,3.81281,0.578754,0.156951,-0.102234,0.0015378,1.17707,-0.766873,0.0115335,0.0170789,2.92579,5,0.1,5,0.2,-0.963747,0.682176,0.611844,0.07727,-0.106658,0.00168234,0.579506,-0.799954,0.0126362,0.00728227,1.42482,5,0.1,6,0.2,-0.82329,-3.14882,0.524353,-0.0847399,0.166774,0.00956506,-0.635564,1.25098,0.0717044,0.0115966,2.92578,5,0.1,7,0.2,-1.00135,-0.449548,0.587341,-0.00658631,-0.135044,0.009121,-0.0495315,-1.01283,0.0684261,0.00865164,1.5081,5,0.1,8,0.2,-3.52134,-1.71095,0.55545,0.119919,0.00574887,0.00420213,0.899315,0.0430942,0.0315309,0.0424496,1.18517,5,0.1,9,0.2,0.330486,-4.07376,0.61891,-0.0594705,0.10128,-0.00178367,-0.446022,0.759602,-0.0133812,0.0232912,1.13317,5,0.1,10,0.2,3.6187,2.11847,0.632826,0.0117183,-0.186944,0.00128746,0.087738,-1.40214,0.00968575,0.0166797,2.92579,5,0.1,11,0.2,-2.0514,3.53914,0.585492,0.0237107,-0.121599,0.00136793,0.177979,-0.911951,0.0102818,0.0166918,1.26064,5,0.1,12,0.2,-3.21351,1.476,0.677491,0.13333,-0.0118822,0.00683963,0.999928,-0.0892282,0.0512898,0.0165979,1.47535,5,0.1,13,0.2,1.93204,1.09157,0.615874,-0.104064,-0.15575,-0.000855327,-0.780523,-1.16807,-0.0064075,0.0188519,2.92579,5,0.1,14,0.2,-3.03265,-3.61396,0.506963,0.130415,0.0437617,-0.00537336,0.978231,0.328302,-0.0402927,0.041296,1.55674,5,0.1,15,0.2,0.226173,-1.25112,0.573145,0.18046,-0.00335872,-0.00531226,1.35345,-0.0250936,-0.0398159,0.00777807,2.67771,5,0.1,16,0.2,4.13993,2.88841,0.533842,-0.181568,0.0459552,0.00261813,-1.36209,0.344515,0.0196099,0.0145865,2.92577,5,0.1,17,0.2,2.21424,-0.239684,0.552523,-0.0956655,0.149947,0.00447929,-0.717521,1.1246,0.0335574,0.0365838,2.59978,5,0.1,18,0.2,-0.981378,1.34935,0.657067,0.149164,0.0991017,-0.0053823,1.11872,0.74333,-0.0403821,0.0504645,2.63621,5,0.1,19,0.2,0.207627,3.98699,0.681943,-0.118626,0.00594258,0.00642091,-0.889689,0.0445843,0.0481009,0.0255964,1.16195,5,0.1
0,0.3,1.13385,3.8675,0.548792,-0.16423,-0.146935,0.000651926,-0.810198,-0.724927,0.0032261,0.00978888,1.15232,5,0.1,1,0.3,1.70027,-3.43876,0.639193,-0.0325415,0.347342,-0.00363924,-0.161037,1.71888,-0.0180006,0.0296709,2.92581,5,0.1,2,0.3,-3.91056,-3.00173,0.578659,0.344907,-0.0524618,0.00375416,1.70687,-0.259578,0.0185743,0.0168985,2.92579,5,0.1,3,0.3,0.958252,-1.51538,0.666282,0.0696711,-0.0772968,-0.0117885,0.343695,-0.381321,-0.0581592,0.013438,0.260277,5,0.1,4,0.3,-3.94663,3.79832,0.578972,0.292326,-0.190428,0.00286438,1.44662,-0.942394,0.014171,0.0170789,2.92579,5,0.1,5,0.3,-0.952803,0.66707,0.612082,0.143746,-0.198421,0.00313111,0.709143,-0.978868,0.0154525,0.00728227,1.42482,5,0.1,6,0.3,-0.835299,-3.12519,0.525708,-0.157835,0.310643,0.0178125,-0.781085,1.53734,0.0881404,0.0115966,2.92578,5,0.1,7,0.3,-1.00228,-0.468674,0.588633,-0.012264,-0.251227,0.0169697,-0.0605434,-1.23938,0.0837259,0.00865164,1.5081,5,0.1,8,0.3,-3.50435,-1.71013,0.556045,0.223083,0.0106927,0.00781864,1.10053,0.0527501,0.0385791,0.0424496,1.18517,5,0.1,9,0.3,0.322063,-4.05942,0.618658,-0.110634,0.188415,-0.00331858,-0.545792,0.929534,-0.0163727,0.0232912,1.13317,5,0.1,10,0.3,3.62036,2.09197,0.633008,0.0218131,-0.348201,0.00240039,0.107914,-1.72319,0.0118911,0.0166797,2.92579,5,0.1,11,0.3,-2.04804,3.52192,0.585686,0.0441223,-0.226211,0.00254679,0.217706,-1.11596,0.0125691,0.0166918,1.26064,5,0.1,12,0.3,-3.19463,1.47431,0.67846,0.248033,-0.0221146,0.0127232,1.22361,-0.109129,0.0627637,0.0165979,1.47535,5,0.1,13,0.3,1.9173,1.0695,0.615752,-0.19383,-0.29009,-0.00159238,-0.959225,-1.43556,-0.00787526,0.0188519,2.92579,5,0.1,14,0.3,-3.01418,-3.60777,0.506248,0.242626,0.0814196,-0.00870991,1.19697,0.401691,-0.0264496,0.041296,1.55674,5,0.1,15,0.3,0.251731,-1.25159,0.572392,0.335716,-0.00624005,-0.00988031,1.65619,-0.0307485,-0.048738,0.00777807,2.67771,5,0.1,16,0.3,4.1142,2.89492,0.534213,-0.338209,0.0855818,0.00487408,-1.67382,0.423491,0.0241064,0.0145865,2.92577,5,0.1,17,0.3,2.20069,-0.218447,0.553157,-0.177972,0.27895,0.00832956,-0.877991,1.37615,0.0410825,0.0365838,2.59978,5,0.1,18,0.3,-0.960252,1.36339,0.656305,0.277493,0.184368,-0.010014,1.36895,0.909567,-0.0494085,0.0504645,2.63621,5,0.1,19,0.3,0.190826,3.98783,0.682852,-0.220683,0.011057,0.0119401,-1.08869,0.0545532,0.0588894,0.0255964,1.16195,5,0.1
0,0.4,1.11345,3.84925,0.548873,-0.2422,-0.216699,0.000962615,-0.714839,-0.639558,0.00283122,0.0126116,0.911723,5,0.1,1,0.4,1.69622,-3.39558,0.638741,-0.0480562,0.512952,-0.00537336,-0.142336,1.5198,-0.0159442,0.0307884,2.51475,5,0.1,2,0.4,-3.86768,-3.00825,0.579125,0.509357,-0.0774741,0.00554323,1.50919,-0.229478,0.0164509,0.011629,1.95749,5,0.1,3,0.4,0.966907,-1.52498,0.664817,0.102748,-0.113997,-0.0173852,0.303239,-0.336349,-0.0513196,0.010305,0.205935,5,0.1,4,0.4,-3.91029,3.77464,0.579328,0.431705,-0.281227,0.00422895,1.27912,-0.833273,0.0125468,0.0205133,2.51007,5,0.1,5,0.4,-0.934946,0.64242,0.612471,0.211993,-0.292626,0.00461936,0.62564,-0.863612,0.0135899,0.0131368,1.12733,5,0.1,6,0.4,-0.854921,-3.08657,0.527923,-0.233091,0.458759,0.026305,-0.690609,1.35934,0.0779331,0.00878348,2.51006,5,0.1,7,0.4,-1.0038,-0.499884,0.590741,-0.018087,-0.370503,0.0250265,-0.0534654,-1.0934,0.07388,0.0120372,1.19323,5,0.1,8,0.4,-3.47664,-1.7088,0.557016,0.329,0.0157714,0.0115305,0.97084,0.0464916,0.0340343,0.0496461,0.992132,5,0.1,9,0.4,0.308319,-4.03601,0.618245,-0.163161,0.277865,-0.00489354,-0.481501,0.820398,-0.0144839,0.0224862,0.896573,5,0.1,10,0.4,3.62307,2.04868,0.633307,0.0322104,-0.514221,0.00354499,0.0954866,-1.52361,0.0105202,0.0119009,2.51523,5,0.1,11,0.4,-2.04256,3.49382,0.586002,0.0650704,-0.333613,0.00375658,0.192046,-0.98443,0.0110865,0.0109043,0.997432,5,0.1,12,0.4,-3.16381,1.47156,0.680041,0.365794,-0.0326157,0.018765,1.07956,-0.0962019,0.0553429,0.0176501,1.16731,5,0.1,13,0.4,1.8932,1.03344,0.615554,-0.286248,-0.428405,-0.0023514,-0.848055,-1.26922,-0.00697374,0.015038,2.51008,5,0.1,14,0.4,-2.98404,-3.59765,0.505267,0.357819,0.120074,-0.0106782,1.05596,0.354409,-0.0130236,0.0409688,1.23219,5,0.1,15,0.4,0.293437,-1.25237,0.571165,0.495104,-0.00919998,-0.0145718,1.46116,-0.0271797,-0.0429749,0.0117953,2.11864,5,0.1,16,0.4,4.07215,2.90556,0.534819,-0.499475,0.126386,0.00719726,-1.47986,0.374436,0.0213385,0.0110783,2.5109,5,0.1,17,0.4,2.17858,-0.183793,0.554192,-0.262475,0.411389,0.012283,-0.774503,1.21409,0.0362694,0.0311927,2.05697,5,0.1,18,0.4,-0.92578,1.38629,0.655061,0.40924,0.271901,-0.01477,1.20774,0.802398,-0.043571,0.0323153,2.08579,5,0.1,19,0.4,0.163411,3.9892,0.684335,-0.325457,0.0163078,0.0176072,-0.960484,0.0480413,0.0520051,0.0176356,0.919347,5,0.1
0,0.5,1.08559,3.82432,0.548984,-0.314727,-0.281586,0.00124993,-0.700109,-0.626355,0.00276789,0.0126116,0.911723,5,0.1,1,0.5,1.69069,-3.33669,0.638121,-0.0627046,0.663078,-0.00701398,-0.143088,1.414,-0.0160262,0.0307884,2.51475,5,0.1,2,0.5,-3.8092,-3.01717,0.579764,0.658449,-0.100824,0.00721645,1.40658,-0.225946,0.0161901,0.011629,1.95749,5,0.1,3,0.5,0.978726,-1.53809,0.662818,0.133515,-0.148125,-0.0225918,0.297002,-0.329457,-0.0502616,0.010305,0.205935,5,0.1,4,0.5,-3.86054,3.74224,0.579815,0.56333,-0.366971,0.00551976,1.28569,-0.837505,0.0126064,0.0205133,2.51007,5,0.1,5,0.5,-0.910561,0.608761,0.613002,0.27547,-0.380247,0.00599902,0.612769,-0.845827,0.0133216,0.0131368,1.12733,5,0.1,6,0.5,-0.881782,-3.0337,0.530954,-0.304157,0.598636,0.0343248,-0.694159,1.36629,0.0783429,0.00878348,2.51006,5,0.1,7,0.5,-1.00588,-0.542501,0.59362,-0.023509,-0.48144,0.0325219,-0.0523105,-1.07091,0.0723489,0.0120372,1.19323,5,0.1,8,0.5,-3.43952,-1.70699,0.558343,0.407092,0.0204897,0.0149833,0.588745,0.0455603,0.0333339,0.0496461,0.992132,5,0.1,9,0.5,0.289551,-4.00405,0.617682,-0.212014,0.361095,-0.00636205,-0.471601,0.803381,-0.0141636,0.0224862,0.896573,5,0.1,10,0.5,3.62678,1.98966,0.633715,0.0420362,-0.664401,0.004627,0.0959635,-1.41168,0.0105649,0.0119009,2.51523,5,0.1,11,0.5,-2.03507,3.45544,0.586434,0.084554,-0.433496,0.00488134,0.188068,-0.964224,0.0108518,0.0109043,0.997432,5,0.1,12,0.5,-3.12174,1.46781,0.682199,0.475326,-0.0423767,0.0243809,1.05734,-0.09422,0.0542179,0.0176501,1.16731,5,0.1,13,0.5,1.86021,0.984069,0.615283,-0.373517,-0.559015,-0.00306889,-0.852421,-1.27578,-0.00700355,0.015038,2.51008,5,0.1,14,0.5,-2.94288,-3.58384,0.504163,0.464955,0.156031,-0.0111531,1.03422,0.347078,0.00255927,0.0409688,1.23219,5,0.1,15,0.5,0.350387,-1.25343,0.569489,0.643354,-0.011958,-0.0189328,1.43109,-0.0266358,-0.042107,0.0117953,2.11864,5,0.1,16,0.5,4.01469,2.92013,0.535648,-0.64906,0.164918,0.00939304,-1.43859,0.376374,0.0214465,0.0110783,2.5109,5,0.1,17,0.5,2.14839,-0.136473,0.555604,-0.341058,0.53457,0.0159627,-0.758603,1.18911,0.0355244,0.0311927,2.05697,5,0.1,18,0.5,-0.878707,1.41757,0.653362,0.531777,0.353313,-0.019191,1.18289,0.785887,-0.0426769,0.0323153,2.08579,5,0.1,19,0.5,0.125975,3.99108,0.686361,-0.422908,0.0211839,0.0228833,-0.94072,0.0470728,0.0509322,0.0176356,0.919347,5,0.1
0,0.6,1.05088,3.79327,0.549121,-0.376165,-0.336546,0.0014931,-0.503659,-0.45073,0.00199676,0.0117259,0.678749,5,0.1,1,0.6,1.68375,-3.26394,0.637345,-0.075388,0.784391,-0.00843406,-0.105202,0.967503,-0.0118017,0.0271561,2.33061,5,0.1,2,0.6,-3.73694,-3.0283,0.58056,0.779492,-0.120699,0.00863969,0.968218,-0.163198,0.0116825,0.0116471,1.48468,5,0.1,3,0.6,0.99345,-1.55443,0.660326,0.159578,-0.177038,-0.0270009,0.213683,-0.236988,-0.03618,0.0128023,0.153316,5,0.1,4,0.6,-3.79823,3.70164,0.580426,0.677282,-0.4412,0.00663549,0.945568,-0.615954,0.00929832,0.0179682,2.2201,5,0.1,5,0.6,-0.880181,0.566826,0.613663,0.329244,-0.454472,0.00716746,0.440776,-0.608474,0.00959635,0.00712182,0.839266,5,0.1,6,0.6,-0.915428,-2.96748,0.534751,-0.365683,0.719726,0.0412688,-0.510484,1.00482,0.0576377,0.0108719,2.2368,5,0.1,7,0.6,-1.00848,-0.595595,0.597206,-0.0280976,-0.575417,0.0388697,-0.0376105,-0.77042,0.0520647,0.00768603,0.888328,5,0.1,8,0.6,-3.39651,-1.70473,0.559995,0.446701,0.0244886,0.0179067,0.205159,0.0327229,0.0240207,0.0406221,0.903473,5,0.1,9,0.6,0.26617,-3.96422,0.616981,-0.2534,0.431591,-0.00760555,-0.339247,0.577927,-0.0101924,0.026498,0.667461,5,0.1,10,0.6,3.63143,1.9168,0.634227,0.0505447,-0.785294,0.0055626,0.0705719,-0.9619,0.00777841,0.00990127,2.33303,5,0.1,11,0.6,-2.02575,3.40764,0.586972,0.10106,-0.518113,0.0058338,0.135183,-0.69356,0.00780821,0.0179244,0.74257,5,0.1,12,0.6,-3.06932,1.46314,0.684888,0.56811,-0.0506431,0.0291392,0.760674,-0.0678301,0.0389814,0.0130353,0.869035,5,0.1,13,0.6,1.81889,0.922231,0.614944,-0.449073,-0.672092,-0.00369102,-0.626802,-0.938237,-0.005126,0.0200139,2.21952,5,0.1,14,0.6,-2.8916,-3.56663,0.503079,0.555718,0.186485,-0.0103459,0.743866,0.249743,0.0127554,0.0414894,0.917947,5,0.1,15,0.6,0.421338,-1.25474,0.567401,0.768939,-0.0142962,-0.0226274,1.02948,-0.0191331,-0.0303388,0.00861371,1.61921,5,0.1,16,0.6,3.94315,2.93837,0.536687,-0.774837,0.198281,0.0112936,-1.02675,0.276804,0.0157654,0.0145753,2.30597,5,0.1,17,0.6,2.11077,-0.0775188,0.557365,-0.40763,0.63892,0.0190794,-0.54574,0.855414,0.0255704,0.0318093,1.58263,5,0.1,18,0.6,-0.820061,1.45653,0.651245,0.635581,0.422278,-0.0229359,0.850946,0.56529,-0.0307262,0.0300397,1.63212,5,0.1,19,0.6,0.0793353,3.99341,0.688884,-0.50546,0.0253201,0.0273511,-0.67673,0.0338554,0.0366867,0.0190128,0.684431,5,0.1
0,0.7,1.01079,3.7574,0.549281,-0.424517,-0.379813,0.00168486,-0.435743,-0.389904,0.00172481,0.0117259,0.678749,5,0.1,1,0.7,1.67568,-3.18172,0.636442,-0.0859473,0.849985,-0.00961814,-0.0993311,0.370383,-0.0111312,0.0271561,2.33061,5,0.1,2,0.7,-3.65513,-3.04117,0.581482,0.847206,-0.136399,0.00976324,0.400856,-0.141829,0.0101477,0.0116471,1.48468,5,0.1,3,0.7,1.01046,-1.5733,0.657448,0.180092,-0.199791,-0.0304739,0.184868,-0.205062,-0.0312962,0.0128023,0.153316,5,0.1,4,0.7,-3.72582,3.6544,0.581136,0.769114,-0.503028,0.00756793,0.837713,-0.581607,0.00876933,0.0179682,2.2201,5,0.1,5,0.7,-0.845091,0.518389,0.614427,0.371561,-0.512887,0.00808872,0.381365,-0.526443,0.0083074,0.00712182,0.839266,5,0.1,6,0.7,-0.954583,-2.89094,0.53917,-0.416927,0.805684,0.0470541,-0.482064,0.685826,0.0544265,0.0108719,2.2368,5,0.1,7,0.7,-1.01147,-0.656923,0.601349,-0.0317071,-0.64938,0.0438676,-0.0325143,-0.666555,0.045035,0.00768603,0.888328,5,0.1,8,0.7,-3.35175,-1.70212,0.561904,0.440278,0.0276316,0.0202118,-0.289768,0.0283271,0.0207685,0.0406221,0.903473,5,0.1,9,0.7,0.239163,-3.91823,0.61617,-0.285969,0.487071,-0.00858363,-0.293522,0.499934,-0.00880659,0.026498,0.667461,5,0.1,10,0.7,3.63684,1.83452,0.634823,0.0576284,-0.850297,0.00634287,0.0666231,-0.365011,0.00733137,0.00990127,2.33303,5,0.1,11,0.7,-2.01498,3.35242,0.587594,0.114038,-0.584701,0.00658333,0.116974,-0.6001,0.00675023,0.0179244,0.74257,5,0.1,12,0.7,-3.00877,1.45774,0.687993,0.641136,-0.0571545,0.0328823,0.658125,-0.0586808,0.03374,0.0130353,0.869035,5,0.1,13,0.7,1.77081,0.850334,0.614549,-0.511995,-0.764378,-0.00420613,-0.591949,-0.852075,-0.0048466,0.0200139,2.21952,5,0.1,14,0.7,-2.83237,-3.54676,0.50212,0.627134,0.21046,-0.00874987,0.643626,0.216037,0.0184514,0.0414894,0.917947,5,0.1,15,0.7,0.502437,-1.25627,0.564989,0.843699,-0.0161335,-0.0255398,0.470776,-0.0165701,-0.0262447,0.00861371,1.61921,5,0.1,16,0.7,3.86157,2.9596,0.537897,-0.846667,0.226067,0.012876,-0.427201,0.261381,0.0148825,0.0145753,2.30597,5,0.1,17,0.7,2.06784,-0.0098682,0.55938,-0.445554,0.708413,0.0210201,-0.214934,0.515571,0.0129864,0.0318093,1.58263,5,0.1,18,0.7,-0.752321,1.50069,0.648801,0.717275,0.452652,-0.0258854,0.736229,0.0642762,-0.0265837,0.0300397,1.63212,5,0.1,19,0.7,0.0254638,3.99611,0.6918,-0.570429,0.0285715,0.030872,-0.585505,0.0292957,0.0317246,0.0190128,0.684431,5,0.1
0,0.8,0.966454,3.71773,0.549457,-0.45868,-0.410378,0.00181943,-0.228822,-0.204802,0.000923872,0.0131526,0.479223,5,0.1,1,0.8,1.66664,-3.09561,0.635431,-0.0941247,0.866026,-0.0105336,-0.0596642,0,-0.00670552,0.024664,2.26501,5,0.1,2,0.8,-3.56922,-3.05543,0.582502,0.863594,-0.147557,0.0105619,-0.0487566,-0.0752211,0.00536442,0.0148728,1.03978,5,0.1,3,0.8,1.02927,-1.59416,0.654266,0.194585,-0.21587,-0.0329271,0.097096,-0.107646,-0.0164211,0.00768832,0.18356,5,0.1,4,0.8,-3.64525,3.60151,0.581932,0.836003,-0.550926,0.00828952,0.465155,-0.349283,0.00527501,0.0184733,2.08084,5,0.1,5,0.8,-0.806288,0.464827,0.615272,0.40146,-0.554161,0.00873953,0.200301,-0.276446,0.00438094,0.0124896,0.592568,5,0.1,6,0.8,-0.998422,-2.80764,0.544118,-0.456625,0.853205,0.0515372,-0.289559,0.256419,0.0326633,0.0120312,1.8146,5,0.1,7,0.8,-1.01478,-0.724739,0.60593,-0.0342548,-0.701639,0.0473991,-0.0170469,-0.350028,0.0236034,0.0094035,0.627207,5,0.1,8,0.8,-3.30969,-1.69923,0.564015,0.396502,0.029856,0.0218406,-0.552177,0.0148416,0.0108778,0.0488536,2.24436,5,0.1,9,0.8,0.209299,-3.86736,0.615274,-0.308982,0.526267,-0.00927299,-0.154145,0.262499,-0.00464916,0.0253486,0.471252,5,0.1,10,0.8,3.6429,1.74839,0.63549,0.0631154,-0.866026,0.00694692,0.0399351,0,0.00438094,0.0161194,2.26881,5,0.1,11,0.8,-2.00307,3.29135,0.588282,0.123209,-0.63175,0.00711232,0.0614524,-0.315189,0.00354648,0.0102636,0.524308,5,0.1,12,0.8,-2.94181,1.45177,0.691427,0.692737,-0.0617534,0.0355288,0.345469,-0.0308156,0.0177026,0.0149233,0.613581,5,0.1,13,0.8,1.71698,0.770147,0.614107,-0.560743,-0.833258,-0.00460595,-0.355601,-0.48846,-0.00289083,0.0186947,2.07574,5,0.1,14,0.8,-2.76688,-3.52478,0.501341,0.677598,0.227398,-0.00678301,0.337958,0.113368,0.020355,0.0392734,0.648859,5,0.1,15,0.8,0.588317,-1.25795,0.562322,0.866026,-0.0174344,-0.027597,0,-0.00864267,-0.0137985,0.0169561,1.19278,5,0.1,16,0.8,3.77558,2.98337,0.53925,-0.866026,0.247586,0.0141025,0,0.157118,0.00891089,0.0127371,2.22525,5,0.1,17,0.8,2.02274,0.062866,0.561525,-0.451314,0.739152,0.0216439,0.0951886,0.0892675,-0.000566244,0.0293449,1.1429,5,0.1,18,0.8,-0.677415,1.54561,0.646097,0.774997,0.43937,-0.027968,0.386596,-0.309587,-0.0140071,0.0344006,1.27191,5,0.1,19,0.8,-0.0341071,3.9991,0.695024,-0.616334,0.0308692,0.0333592,-0.307461,0.015378,0.0166595,0.0193046,0.498798,5,0.1
0,0.9,0.919495,3.67572,0.549643,-0.479414,-0.428933,0.00190279,-0.163898,-0.146657,0.000659376,0.0131526,0.479223,5,0.1,1,0.9,1.65692,-3.00901,0.634343,-0.100283,0.866026,-0.0112249,-0.0571758,0,-0.00641495,0.024664,2.26501,5,0.1,2,0.9,-3.48439,-3.07054,0.583584,0.821244,-0.154395,0.0110497,-0.749871,-0.0543892,0.00387803,0.0148728,1.03978,5,0.1,3,0.9,1.04936,-1.61646,0.650865,0.208387,-0.231177,-0.0352615,0.15831,-0.175618,-0.0267737,0.00768832,0.18356,5,0.1,4,0.9,-3.56003,3.5446,0.582789,0.862458,-0.587105,0.00883518,0.108883,-0.33702,0.00507757,0.0184733,2.08084,5,0.1,5,0.9,-0.765187,0.408092,0.616167,0.41961,-0.579211,0.00913646,0.143472,-0.19801,0.00313669,0.0124896,0.592568,5,0.1,6,0.9,-1.04553,-2.72153,0.549435,-0.484945,0.865136,0.0547322,-0.249647,0.0285357,0.0281706,0.0120312,1.8146,5,0.1,7,0.9,-1.01829,-0.796572,0.610783,-0.0357991,-0.733357,0.049538,-0.0121966,-0.250719,0.0169054,0.0094035,0.627207,5,0.1,8,0.9,-3.27336,-1.69618,0.566251,0.326799,0.0312021,0.0228262,-0.757694,0.0106469,0.00778586,0.0488536,2.24436,5,0.1,9,0.9,0.177665,-3.81348,0.614324,-0.32295,0.550051,-0.00969367,-0.110416,0.187978,-0.00331923,0.0253486,0.471252,5,0.1,10,0.9,3.64942,1.66179,0.636207,0.067243,-0.866026,0.00739973,0.0383854,0,0.00420958,0.0161194,2.26881,5,0.1,11,0.9,-1.99046,3.22668,0.58901,0.128777,-0.660311,0.00743372,0.0440106,-0.225797,0.00253692,0.0102636,0.524308,5,0.1,12,0.9,-2.87089,1.44545,0.695065,0.724043,-0.0645455,0.0371336,0.247464,-0.0220686,0.0126846,0.0149233,0.613581,5,0.1,13,0.9,1.65905,0.685086,0.613631,-0.597582,-0.861891,-0.0049063,-0.343204,-0.123639,-0.00280514,0.0186947,2.07574,5,0.1,14,0.9,-2.69751,-3.5015,0.500764,0.708222,0.23767,-0.00478178,0.242084,0.0811964,0.0192523,0.0392734,0.648859,5,0.1,15,0.9,0.674913,-1.25974,0.559497,0.865683,-0.0182185,-0.0288471,-0.0136942,-0.00621378,-0.0098832,0.0169561,1.19278,5,0.1,16,0.9,3.68897,3.00895,0.540707,-0.866026,0.263827,0.0150245,0,0.151038,0.00857562,0.0127371,2.22525,5,0.1,17,0.9,1.97783,0.137418,0.563695,-0.448485,0.752657,0.0218022,-0.0077635,0.136574,0.00235811,0.0293449,1.1429,5,0.1,18,0.9,-0.598071,1.58741,0.643234,0.810029,0.391602,-0.0292365,0.276916,-0.615887,-0.0100248,0.0344006,1.27191,5,0.1,19,0.9,-0.0968222,4.00226,0.698439,-0.633281,0.0322621,0.0348683,-0.0266196,0.0110418,0.0119284,0.0193046,0.498798,5,0.1
0,1,0.870988,3.63232,0.549835,-0.487807,-0.436443,0.00193566,0.0104904,0.00941753,0,0.00872817,0.32588,5,0.1,1,1,1.64665,-2.92241,0.633193,-0.10449,0.866026,-0.0116974,-0.0226498,0,-0.0025332,0.0232015,2.26432,5,0.1,2,1,-3.40684,-3.08617,0.584702,0.722599,-0.157249,0.0112519,-1.18172,0.00202656,-0.000119209,0.0105508,0.698716,5,0.1,3,1,1.07096,-1.64041,0.647211,0.222695,-0.247049,-0.0376806,0.112951,-0.125349,-0.0191331,0.0141397,0.113534,5,0.1,4,1,-3.47352,3.48447,0.583693,0.866026,-0.61202,0.00921041,0,-0.135541,0.00205636,0.0181027,2.02141,5,0.1,5,1,-0.722731,0.349488,0.617091,0.42696,-0.589352,0.00929832,-0.00923872,0.0127268,-0.000208616,0.00805686,0.402966,5,0.1,6,1,-1.09503,-2.635,0.555021,-0.501987,0.864613,0.0566557,-0.0727177,-0.0280142,0.00816584,0.00888315,1.34605,5,0.1,7,1,-1.02191,-0.870774,0.615795,-0.0364214,-0.746198,0.0504032,0.000834465,0.0160635,-0.00110269,0.00939821,0.426523,5,0.1,8,1,-3.24428,-1.69302,0.56856,0.257832,0.0317484,0.0232249,-0.57745,-0.000715256,-0.000536442,0.0400026,1.68037,5,0.1,9,1,0.144989,-3.75783,0.613343,-0.328606,0.559682,-0.00986308,0.0070858,-0.0122786,0.000208616,0.0230593,0.320462,5,0.1,10,1,3.65631,1.57519,0.636965,0.0700712,-0.866026,0.00770986,0.0152588,5.96046e-05,0.00166893,0.0132632,2.26849,5,0.1,11,1,-1.97743,3.15987,0.589762,0.131032,-0.671881,0.00756234,-0.00286102,0.0145435,-0.000149012,0.0132851,0.356553,5,0.1,12,1,-2.79763,1.43892,0.698822,0.736713,-0.0656724,0.0377834,-0.0158548,0.00137091,-0.000804663,0.0180396,0.417263,5,0.1,13,1,1.59785,0.598587,0.613129,-0.622961,-0.866026,-0.00511259,-0.138104,0,-0.00116229,0.015861,2.03814,5,0.1,14,1,-2.62585,-3.47745,0.500378,0.720626,0.241828,-0.0029996,-0.0156164,-0.00536442,0.0160933,0.0461135,0.442053,5,0.1,15,1,0.761303,-1.26158,0.556578,0.860548,-0.0185341,-0.0293538,-0.109524,0.000357628,0.000625849,0.0105263,0.882944,5,0.1,16,1,3.60237,3.03596,0.542246,-0.866026,0.274968,0.0156567,0,0.0602007,0.00342727,0.0146055,2.40426,5,0.1,17,1,1.93298,0.213148,0.565883,-0.447565,0.758947,0.0218809,0.048399,-0.0417149,-0.00175834,0.0294526,0.82704,5,0.1,18,1,-0.516113,1.62319,0.640276,0.824213,0.3216,-0.0297502,-0.0178075,-0.759959,0.000625849,0.0283593,1.01435,5,0.1,19,1,-0.15979,4.00552,0.701967,-0.621124,0.0328302,0.0354797,0.270219,-0.000715256,-0.00077486,0.0161129,0.430275,5,0.1
0,1.1,0.82228,3.58874,0.550029,-0.485672,-0.434529,0.00193035,0.0500605,0.0448376,-0.000175089,0.00872817,0.32588,5,0.1,1,1.1,1.63607,-2.8358,0.632009,-0.107227,0.866026,-0.0120035,-0.0259057,0,-0.00289455,0.0232015,2.26432,5,0.1,2,1.1,-3.34094,-3.10188,0.585826,0.591929,-0.156694,0.0112141,-1.39512,0.0148714,-0.00105426,0.0105508,0.698716,5,0.1,3,1.1,1.0938,-1.66565,0.643346,0.233994,-0.256656,-0.039594,0.0998527,-0.0586435,-0.0169016,0.0141397,0.113534,5,0.1,4,1.1,-3.38692,3.42246,0.584627,0.865861,-0.628596,0.00946084,-0.00660121,-0.15907,0.00239536,0.0181027,2.02141,5,0.1,5,1.1,-0.680099,0.290641,0.61802,0.425087,-0.586768,0.00925688,-0.0438467,0.0605097,-0.0009574,0.00805686,0.402966,5,0.1,6,1.1,-1.14558,-2.54855,0.560727,-0.508474,0.864844,0.0573847,-0.0352263,0.00198185,0.00395253,0.00888315,1.34605,5,0.1,7,1.1,-1.02555,-0.945281,0.620828,-0.0362568,-0.742931,0.0501811,0.00378489,0.0765808,-0.00518933,0.00939821,0.426523,5,0.1,8,1.1,-3.221,-1.68985,0.570879,0.213582,0.031608,0.0231201,-0.239342,-0.00326335,-0.00240654,0.0400026,1.68037,5,0.1,9,1.1,0.112178,-3.70194,0.612358,-0.327167,0.557211,-0.00981968,0.0337273,-0.0576228,0.00101328,0.0230593,0.320462,5,0.1,10,1.1,3.66341,1.48859,0.637746,0.0719327,-0.866025,0.00791354,0.0177771,-1.49012e-05,0.00194088,0.0132632,2.26849,5,0.1,11,1.1,-1.96434,3.09278,0.590517,0.130454,-0.668935,0.00753012,-0.0134781,0.0689924,-0.00077486,0.0132851,0.356553,5,0.1,12,1.1,-2.72407,1.43236,0.702594,0.733488,-0.065388,0.0376191,-0.0756085,0.00671297,-0.00386685,0.0180396,0.417263,5,0.1,13,1.1,1.5349,0.511986,0.61261,-0.634895,-0.865917,-0.00526262,-0.0740066,0.00435293,-0.00150874,0.015861,2.03814,5,0.1,14,1.1,-2.5539,-3.4533,0.500151,0.717463,0.240756,-0.00160383,-0.0739992,-0.0249445,0.0117309,0.0461135,0.442053,5,0.1,15,1.1,0.847062,-1.26343,0.553647,0.855938,-0.0184564,-0.0292258,-0.0295714,0.0018701,0.00301003,0.0105263,0.882944,5,0.1,16,1.1,3.5166,3.06382,0.543832,-0.841723,0.282308,0.0160749,0.457287,0.0701249,0.00399724,0.0146055,2.40426,5,0.1,17,1.1,1.88833,0.288934,0.568067,-0.446322,0.756864,0.0218171,0.00178814,-0.035271,-0.000637025,0.0294526,0.82704,5,0.1,18,1.1,-0.433815,1.65142,0.637305,0.820599,0.242324,-0.0296208,-0.0846219,-0.800051,0.00305101,0.0283593,1.01435,5,0.1,19,1.1,-0.219768,4.0088,0.70551,-0.571603,0.032685,0.0353233,0.680607,-0.00336766,-0.00365451,0.0161129,0.430275,5,0.1
0,1.2,0.774147,3.54568,0.55022,-0.474837,-0.424832,0.00188798,0.178367,0.159621,-0.000685453,0.0146606,0.216685,5,0.1,1,1.2,1.62525,-2.7492,0.630798,-0.108624,0.866026,-0.0121593,0.00232458,0,0.000268221,0.0261701,2.26391,5,0.1,2,1.2,-3.28882,-3.11741,0.586938,0.450099,-0.153315,0.0109732,-1.41275,0.0565052,-0.00405312,0.012432,0.469428,5,0.1,3,1.2,1.11759,-1.69145,0.63932,0.240448,-0.257474,-0.0406861,0.020206,0.0470877,-0.00342727,0.0116493,0.21691,5,0.1,4,1.2,-3.30042,3.35901,0.585582,0.863391,-0.637573,0.00959486,-0.0528097,0.00536442,-5.96046e-05,0.0138345,1.50457,5,0.1,5,1.2,-0.637971,0.232489,0.618937,0.415602,-0.573676,0.00905097,-0.156134,0.215509,-0.00342727,0.0073243,0.267951,5,0.1,6,1.2,-1.1964,-2.46221,0.566461,-0.505397,0.859773,0.0570357,0.111341,-0.124812,-0.0125766,0.0108834,0.971725,5,0.1,7,1.2,-1.02914,-1.01891,0.625801,-0.0354469,-0.726357,0.0490606,0.013411,0.27281,-0.0184178,0.0105751,0.283612,5,0.1,8,1.2,-3.2,-1.68672,0.57317,0.21432,0.030902,0.0226021,0.229597,-0.0115633,-0.00852346,0.0737334,1.12304,5,0.1,9,1.2,0.0797535,-3.64672,0.611385,-0.319868,0.544769,-0.00959933,0.120154,-0.204802,0.00360608,0.0334966,0.335949,5,0.1,10,1.2,3.67067,1.40198,0.638544,0.0729144,-0.866026,0.0080213,-0.00107288,0,-0.000149012,0.0199461,2.26841,5,0.1,11,1.2,-1.95141,3.02648,0.591263,0.127542,-0.654012,0.00736415,-0.0479221,0.24569,-0.00280142,0.0131967,0.237094,5,0.1,12,1.2,-2.65138,1.42588,0.706323,0.717127,-0.0639319,0.0367805,-0.269413,0.0240803,-0.0137985,0.0171226,0.277456,5,0.1,13,1.2,1.47133,0.425451,0.612078,-0.633344,-0.864285,-0.00535995,0.122666,0.0347793,-0.000149012,0.0103908,0.643562,5,0.1,14,1.2,-2.48279,-3.42944,0.500042,0.701451,0.235379,-0.000658631,-0.263453,-0.0885725,0.00718236,0.0388017,0.294783,5,0.1,15,1.2,0.932326,-1.26526,0.55075,0.846654,-0.0180483,-0.0285745,-0.189006,0.00673532,0.0107586,0.0153803,0.630031,5,0.1,16,1.2,3.43528,3.09231,0.545454,-0.779718,0.286198,0.0162974,0.759959,-0.0038147,-0.000238419,0.01263,2.6922,5,0.1,17,1.2,1.8438,0.364219,0.570239,-0.442892,0.745937,0.021565,0.0846386,-0.207484,-0.0051856,0.0526591,0.580133,5,0.1,18,1.2,-0.352489,1.67175,0.634369,0.80229,0.165874,-0.0289604,-0.301375,-0.711679,0.0108778,0.0333738,0.833396,5,0.1,19,1.2,-0.273115,4.01204,0.70901,-0.492039,0.03196,0.0345334,0.879899,-0.0119209,-0.012964,0.0148,0.3838,5,0.1
0,1.3,0.727536,3.50398,0.550406,-0.457204,-0.409051,0.00181943,0.189051,0.169173,-0.000745058,0.0146606,0.216685,5,0.1,1,1.3,1.61436,-2.6626,0.629579,-0.109391,0.866026,-0.0122444,-0.0109598,0,-0.00121817,0.0261701,2.26391,5,0.1,2,1.3,-3.25071,-3.13247,0.588016,0.314265,-0.147724,0.0105722,-1.28265,0.0601113,-0.00431389,0.012432,0.469428,5,0.1,3,1.3,1.1417,-1.71661,0.63524,0.241219,-0.242783,-0.0408169,-0.0129193,0.234231,0.00218302,0.0116493,0.21691,5,0.1,4,1.3,-3.21412,3.29521,0.586542,0.863783,-0.638272,0.0096065,0.0185072,0.0101328,-0.000145286,0.0138345,1.50457,5,0.1,5,1.3,-0.597174,0.176176,0.619826,0.400168,-0.552372,0.00871262,-0.16547,0.228405,-0.00362471,0.0073243,0.267951,5,0.1,6,1.3,-1.2464,-2.37665,0.572104,-0.494279,0.852489,0.0557803,0.128806,-0.0647008,-0.0145361,0.0108834,0.971725,5,0.1,7,1.3,-1.03262,-1.09021,0.630617,-0.034122,-0.699387,0.0472396,0.0141785,0.289157,-0.0195242,0.0105751,0.283612,5,0.1,8,1.3,-3.1766,-1.68368,0.575389,0.260217,0.0297589,0.0217603,0.620931,-0.0122562,-0.00901893,0.0737334,1.12304,5,0.1,9,1.3,0.0483543,-3.59309,0.610443,-0.30799,0.52897,-0.00924254,0.127343,-0.137985,0.00382587,0.0334966,0.335949,5,0.1,10,1.3,3.67797,1.31538,0.639348,0.0733256,-0.866026,0.00806404,0.005126,0,0.000540167,0.0199461,2.26841,5,0.1,11,1.3,-1.93889,2.96228,0.591986,0.122805,-0.629725,0.00708774,-0.0507757,0.260368,-0.00295788,0.0131967,0.237094,5,0.1,12,1.3,-2.58098,1.41961,0.709933,0.690494,-0.0615522,0.0354166,-0.285536,0.0255108,-0.0146292,0.0171226,0.277456,5,0.1,13,1.3,1.40942,0.340936,0.611654,-0.597348,-0.810573,-0.00217985,0.567555,0.962792,0.056833,0.0103908,0.643562,5,0.1,14,1.3,-2.41394,-3.40634,0.500005,0.675407,0.226626,-0.000133738,-0.279233,-0.0937879,0.00353903,0.0388017,0.294783,5,0.1,15,1.3,1.0162,-1.26703,0.547945,0.831329,-0.017382,-0.0275115,-0.155099,0.00714511,0.0113919,0.0153803,0.630031,5,0.1,16,1.3,3.36189,3.12099,0.547087,-0.682704,0.287827,0.0163889,1.08854,0.0199974,0.00112504,0.01263,2.6922,5,0.1,17,1.3,1.79985,0.437857,0.572373,-0.436361,0.726917,0.0211163,0.0662655,-0.201564,-0.00469014,0.0526591,0.580133,5,0.1,18,1.3,-0.274049,1.68495,0.631527,0.764193,0.100453,-0.0278846,-0.442543,-0.572674,0.0115372,0.0333738,0.833396,5,0.1,19,1.3,-0.317653,4.01518,0.7124,-0.397264,0.0307798,0.0332515,0.968888,-0.0126958,-0.0137426,0.0148,0.3838,5,0.1
0,1.4,0.682876,3.46402,0.550583,-0.434576,-0.388801,0.00173002,0.273287,0.244498,-0.00110269,0.00931506,0.142622,5,0.1,1,1.4,1.60339,-2.576,0.628351,-0.109664,0.866026,-0.0122741,0.010252,0,0.00116229,0.0241212,2.26725,5,0.1,2,1.4,-3.22534,-3.1469,0.589049,0.197011,-0.1405,0.0100538,-1.04916,0.0876188,-0.00625849,0.0157989,0.284671,5,0.1,3,1.4,1.16565,-1.7395,0.631188,0.236535,-0.212964,-0.040023,-0.0858903,0.35125,0.0145137,0.00797534,0.197143,5,0.1,4,1.4,-3.1278,3.23164,0.587499,0.86025,-0.630581,0.00949055,-0.115514,0.163794,-0.00247359,0.0141366,1.08332,5,0.1,5,1.4,-0.558086,0.12222,0.620677,0.380363,-0.525034,0.00828058,-0.239193,0.330154,-0.00521541,0.0104024,0.176371,5,0.1,6,1.4,-1.29504,-2.29192,0.577593,-0.476676,0.839394,0.0537947,0.2352,-0.227571,-0.0265539,0.0093868,0.680467,5,0.1,7,1.4,-1.03595,-1.15853,0.635231,-0.0324279,-0.664777,0.0449032,0.0204444,0.418067,-0.0282526,0.00874604,0.186677,5,0.1,8,1.4,-3.14728,-1.68078,0.577514,0.326663,0.0282913,0.0206813,0.657082,-0.0177622,-0.0130236,0.0405522,0.660063,5,0.1,9,1.4,0.0182699,-3.54095,0.60954,-0.292748,0.512606,-0.00878423,0.18408,-0.208259,0.00554323,0.0202798,0.258972,5,0.1,10,1.4,3.68531,1.22878,0.640155,0.0732183,-0.866026,0.0080511,-0.0100136,0,-0.00113249,0.00990377,2.26847,5,0.1,11,1.4,-1.9269,2.90077,0.592678,0.116724,-0.598562,0.00673532,-0.0733137,0.376344,-0.00426173,0.0179046,0.156063,5,0.1,12,1.4,-2.51354,1.4136,0.713393,0.656325,-0.058502,0.0336647,-0.412822,0.0368357,-0.0211298,0.010896,0.182629,5,0.1,13,1.4,1.35305,0.265699,0.611767,-0.525376,-0.685726,0.00477582,0.846207,1.47085,0.07689,0.0135981,2.74461,5,0.1,14,1.4,-2.34796,-3.3842,0.500005,0.64199,0.215405,9.08971e-05,-0.403762,-0.135541,0.00113249,0.0405642,0.194888,5,0.1,15,1.4,1.09836,-1.26873,0.545258,0.809285,-0.0165224,-0.0261471,-0.311732,0.0103116,0.0164211,0.0211668,0.437786,5,0.1,16,1.4,3.29903,3.1498,0.548727,-0.57624,0.287396,0.0163645,0.990272,-0.0400543,-0.00229478,0.0154348,2.86707,5,0.1,17,1.4,1.75665,0.50936,0.574456,-0.426215,0.700817,0.0204772,0.150621,-0.339895,-0.00873208,0.0340597,0.39768,5,0.1,18,1.4,-0.2,1.69251,0.628803,0.715176,0.0546426,-0.0265047,-0.541866,-0.334442,0.0166893,0.0289098,0.688145,5,0.1,19,1.4,-0.352684,4.01818,0.715648,-0.305567,0.0292659,0.0316054,0.838682,-0.0185966,-0.0198781,0.0200753,0.352519,5,0.1
0,1.5,0.640732,3.42631,0.550751,-0.408508,-0.365478,0.00162488,0.260424,0.233024,-0.00105426,0.00931506,0.142622,5,0.1,1,1.5,1.59258,-2.48939,0.627129,-0.105617,0.866026,-0.0121616,0.0682846,0,0.00157207,0.0241212,2.26725,5,0.1,2,1.5,-3.2104,-3.16053,0.590024,0.106713,-0.13214,0.00945656,-0.755578,0.0835657,-0.00597909,0.0157989,0.284671,5,0.1,3,1.5,1.18884,-1.75891,0.627264,0.226852,-0.174117,-0.0383859,-0.112623,0.414692,0.0190474,0.00797534,0.197143,5,0.1,4,1.5,-3.04215,3.16934,0.588436,0.853693,-0.615364,0.00926033,-0.0593364,0.164479,-0.00248849,0.0141366,1.08332,5,0.1,5,1.5,-0.521199,0.071304,0.62148,0.357547,-0.493541,0.00778325,-0.227923,0.31461,-0.00496209,0.0104024,0.176371,5,0.1,6,1.5,-1.34157,-2.20898,0.582844,-0.454139,0.819867,0.0512505,0.23029,-0.19826,-0.0259876,0.0093868,0.680467,5,0.1,7,1.5,-1.0391,-1.223,0.639586,-0.0304785,-0.624899,0.0422084,0.0194758,0.398375,-0.0269152,0.00874604,0.186677,5,0.1,8,1.5,-3.1112,-1.67803,0.57952,0.395313,0.0265969,0.0194395,0.674412,-0.0169352,-0.0124052,0.0405522,0.660063,5,0.1,9,1.5,-0.01012,-3.49107,0.608688,-0.275189,0.481871,-0.00825562,0.175413,-0.399351,0.00528246,0.0202798,0.258972,5,0.1,10,1.5,3.69261,1.14218,0.640957,0.0728626,-0.866026,0.00800947,-0.0013262,0,-0.000160187,0.00990377,2.26847,5,0.1,11,1.5,-1.91558,2.84273,0.593331,0.109729,-0.562664,0.00632918,-0.0699013,0.358611,-0.00404939,0.0179046,0.156063,5,0.1,12,1.5,-2.44989,1.40792,0.716658,0.616949,-0.054989,0.0316487,-0.393346,0.0350773,-0.0201501,0.010896,0.182629,5,0.1,13,1.5,1.30505,0.202505,0.612555,-0.43214,-0.595163,0.0103001,0.993848,0.447562,0.0357293,0.0135981,2.74461,5,0.1,14,1.5,-2.2857,-3.36331,0.500018,0.603477,0.202478,0.000144821,-0.384718,-0.129104,4.09782e-05,0.0405642,0.194888,5,0.1,15,1.5,1.17785,-1.27033,0.542722,0.781002,-0.0155376,-0.0245805,-0.284471,0.00985712,0.0156574,0.0211668,0.437786,5,0.1,16,1.5,3.24618,3.17841,0.550357,-0.485934,0.285277,0.0162431,0.693053,-0.0173599,-0.000994653,0.0154348,2.86707,5,0.1,17,1.5,1.71472,0.577836,0.576463,-0.412633,0.669029,0.0196718,0.137448,-0.319384,-0.00811368,0.0340597,0.39768,5,0.1,18,1.5,-0.131014,1.69665,0.626233,0.665709,0.0325214,-0.0249128,-0.470706,-0.0819266,0.0159033,0.0289098,0.688145,5,0.1,19,1.5,-0.379333,4.02102,0.718713,-0.231375,0.0274956,0.0297089,0.605579,-0.017643,-0.0189431,0.0200753,0.352519,5,0.1
0,1.6,0.601244,3.39099,0.550908,-0.38043,-0.34036,0.00151098,0.309408,0.277042,-0.0012219,0.0117775,0.0937392,5,0.1,1,1.6,1.58244,-2.40279,0.625924,-0.096485,0.866026,-0.0118762,0.112057,0,0.00441074,0.0293543,2.30958,5,0.1,2,1.6,-3.20302,-3.17331,0.590938,0.0455916,-0.123113,0.00881106,-0.470877,0.0995398,-0.00712276,0.0109378,0.433169,5,0.1,3,1.6,1.21089,-1.77422,0.623533,0.213236,-0.131989,-0.0360817,-0.162601,0.419199,0.0275075,0.017281,0.188975,5,0.1,4,1.6,-2.95728,3.10879,0.589347,0.84098,-0.593674,0.00893176,-0.225663,0.285387,-0.00429153,0.0165384,0.757403,5,0.1,5,1.6,-0.486637,0.0235962,0.622232,0.332973,-0.45962,0.00724792,-0.270814,0.373809,-0.00590086,0.0119798,0.115922,5,0.1,6,1.6,-1.38575,-2.12817,0.587829,-0.428161,0.793791,0.0483185,0.299156,-0.347495,-0.0337362,0.0087427,0.46653,5,0.1,7,1.6,-1.04204,-1.2834,0.643666,-0.0283808,-0.581947,0.0393063,0.023067,0.47332,-0.0319779,0.0101961,0.122696,5,0.1,8,1.6,-3.06854,-1.67546,0.581399,0.454456,0.0247747,0.0181019,0.479221,-0.020206,-0.0147223,0.0486393,0.201903,5,0.1,9,1.6,-0.036721,-3.44514,0.60789,-0.256276,0.434178,-0.00768602,0.208421,-0.547171,0.00625849,0.0218515,0.237241,5,0.1,10,1.6,3.69988,1.05557,0.641756,0.0722408,-0.866026,0.00793934,-0.0141859,2.98023e-05,-0.00157952,0.0116842,2.26859,5,0.1,11,1.6,-1.90497,2.78834,0.593943,0.102192,-0.523996,0.00589341,-0.0830889,0.426173,-0.00482798,0.0139089,0.204479,5,0.1,12,1.6,-2.39025,1.40261,0.719717,0.574541,-0.0512064,0.029476,-0.4673,0.0416636,-0.0239313,0.0178435,0.120038,5,0.1,13,1.6,1.26688,0.144264,0.61371,-0.331032,-0.57714,0.0123188,1.00881,-0.0035274,0.00652671,0.0158571,2.55395,5,0.1,14,1.6,-2.22737,-3.34374,0.500031,0.562,0.188559,0.000114739,-0.457168,-0.153422,-0.000536442,0.0592133,0.128955,5,0.1,15,1.6,1.25437,-1.27184,0.540346,0.747249,-0.014475,-0.0228927,-0.411391,0.0118017,0.0186265,0.0155263,0.298562,5,0.1,16,1.6,3.2,3.20679,0.551973,-0.447959,0.28137,0.0160202,0.0859499,-0.0712872,-0.00405312,0.0145365,2.75033,5,0.1,17,1.6,1.67423,0.643019,0.578386,-0.39596,0.632992,0.0187322,0.207186,-0.417322,-0.0112057,0.0350871,0.268646,5,0.1,18,1.6,-0.0668342,1.7,0.623825,0.617104,0.0391752,-0.0231996,-0.51748,0.198007,0.0189245,0.0265315,0.549468,5,0.1,19,1.6,-0.4,4.02368,0.721585,-0.187411,0.0255942,0.027667,0.283703,-0.0207424,-0.0225306,0.01759,0.296876,5,0.1
0,1.7,0.564675,3.35827,0.551053,-0.351424,-0.314391,0.00139615,0.281096,0.251621,-0.00111386,0.0117775,0.0937392,5,0.1,1,1.7,1.57378,-2.31619,0.62476,-0.0731638,0.865752,-0.0113919,0.327908,-0.0109524,0.00554323,0.0293543,2.30958,5,0.1,2,1.7,-3.20044,-3.18515,0.591785,0.00962466,-0.113779,0.00814283,-0.255764,0.0905097,-0.00647828,0.0109378,0.433169,5,0.1,3,1.7,1.23139,-1.78537,0.620065,0.19655,-0.0917835,-0.0332585,-0.173979,0.378795,0.0294447,0.017281,0.188975,5,0.1,4,1.7,-2.87417,3.05078,0.59022,0.821545,-0.566847,0.00852821,-0.19823,0.270814,-0.00407919,0.0165384,0.757403,5,0.1,5,1.7,-0.45463,-0.0205856,0.622929,0.307586,-0.424578,0.006695,-0.246022,0.3396,-0.00535324,0.0119798,0.115922,5,0.1,6,1.7,-1.42713,-2.05041,0.5925,-0.39999,0.761946,0.0451415,0.27658,-0.31817,-0.0311919,0.0087427,0.46653,5,0.1,7,1.7,-1.04477,-1.33934,0.647444,-0.0262184,-0.537576,0.0363087,0.0209585,0.429988,-0.0290424,0.0101961,0.122696,5,0.1,8,1.7,-3.02102,-1.67308,0.583139,0.492443,0.0228817,0.016722,0.267953,-0.0183359,-0.0133701,0.0486393,0.201903,5,0.1,9,1.7,-0.061356,-3.40475,0.607152,-0.236738,0.371276,-0.00709938,0.189347,-0.693366,0.00568852,0.0218515,0.237241,5,0.1,10,1.7,3.70706,0.968972,0.642545,0.0715423,-0.866025,0.00786111,-0.00397861,-3.72529e-06,-0.000447035,0.0116842,2.26859,5,0.1,11,1.7,-1.89515,2.73781,0.594509,0.0944026,-0.488491,0.00544144,-0.0755042,0.308126,-0.00437722,0.0139089,0.204479,5,0.1,12,1.7,-2.33502,1.39768,0.722551,0.530736,-0.0473009,0.0272321,-0.424519,0.0378415,-0.0217557,0.0178435,0.120038,5,0.1,13,1.7,1.23872,0.0853549,0.614938,-0.233676,-0.610322,0.0118976,0.923291,-0.56268,-0.0132918,0.0158571,2.55395,5,0.1,14,1.7,-2.17335,-3.32562,0.50004,0.519146,0.174179,5.74626e-05,-0.415295,-0.139341,-0.000584871,0.0592133,0.128955,5,0.1,15,1.7,1.32716,-1.27323,0.538146,0.709172,-0.0133689,-0.0211465,-0.375226,0.0107139,0.0169165,0.0155263,0.298562,5,0.1,16,1.7,3.15419,3.23466,0.553559,-0.479886,0.276563,0.0157474,-0.618294,-0.0396073,-0.00225008,0.0145365,2.75033,5,0.1,17,1.7,1.6356,0.704342,0.580206,-0.376789,0.594068,0.0176908,0.189722,-0.380691,-0.0102334,0.0350871,0.268646,5,0.1,18,1.7,-0.00754638,1.70544,0.621595,0.569805,0.0737913,-0.0214262,-0.447777,0.453353,0.017181,0.0265315,0.549468,5,0.1,19,1.7,-0.417932,4.02614,0.724245,-0.17637,0.0236481,0.0255551,-0.0255927,-0.0188351,-0.0204667,0.01759,0.296876,5,0.1
0,1.8,0.53096,3.32811,0.551187,-0.322463,-0.288469,0.0012815,0.305206,0.273108,-0.0012517,0.0149634,0.106132,5,0.1,1,1.8,1.56827,-2.22976,0.623652,-0.0356257,0.861645,-0.0107259,0.402093,-0.087738,0.00792742,0.0368603,2.81276,5,0.1,2,1.8,-3.20046,-3.19606,0.592567,-0.00707507,-0.104445,0.00747591,-0.0860691,0.0984669,-0.00709295,0.0162561,0.87244,5,0.1,3,1.8,1.25014,-1.79276,0.616892,0.177991,-0.0572145,-0.0301182,-0.198722,0.308752,0.0336468,0.0162947,0.405829,5,0.1,4,1.8,-2.7932,2.99555,0.591051,0.7954,-0.536215,0.008066,-0.348806,0.355244,-0.00533462,0.0157417,0.518663,5,0.1,5,1.8,-0.425121,-0.0613185,0.623571,0.282238,-0.389589,0.00614226,-0.267103,0.368727,-0.00578165,0.00895979,0.137653,5,0.1,6,1.8,-1.46571,-1.97595,0.596854,-0.37078,0.725314,0.0418469,0.315964,-0.433981,-0.0356436,0.0103092,0.31552,5,0.1,7,1.8,-1.04729,-1.39091,0.650927,-0.0240594,-0.493273,0.033316,0.022769,0.466824,-0.0315309,0.0131006,0.138913,5,0.1,8,1.8,-2.97087,-1.67089,0.584743,0.506127,0.0209957,0.0153437,-0.000953674,-0.019908,-0.0144839,0.0459068,0.119634,5,0.1,9,1.8,-0.0840681,-3.37121,0.606471,-0.217229,0.298685,-0.0065133,0.205587,-0.743985,0.00616908,0.0266034,0.226643,5,0.1,10,1.8,3.71418,0.882369,0.643328,0.0707269,-0.866026,0.00777096,-0.0151396,0,-0.00166893,0.0117366,2.26872,5,0.1,11,1.8,-1.88609,2.69047,0.595031,0.0866234,-0.458205,0.00499189,-0.082016,0.314951,-0.00473857,0.0134031,0.146252,5,0.1,12,1.8,-2.28411,1.39315,0.725163,0.486994,-0.0434041,0.0249892,-0.460744,0.0411272,-0.0236034,0.0142619,0.135902,5,0.1,13,1.8,1.21973,0.0212456,0.616039,-0.148833,-0.672611,0.00995994,0.764072,-0.609893,-0.0240505,0.0149458,2.02818,5,0.1,14,1.8,-2.12354,-3.30891,0.500043,0.47636,0.159824,0,-0.45085,-0.151277,-0.000506639,0.0337164,0.14818,5,0.1,15,1.8,1.3961,-1.27451,0.536117,0.66798,-0.0122666,-0.0194028,-0.465751,0.0116229,0.0183582,0.00842109,0.201349,5,0.1,16,1.8,3.10267,3.26207,0.55512,-0.552917,0.270939,0.0154287,-0.761628,-0.0833273,-0.00476837,0.00997871,2.48311,5,0.1,17,1.8,1.59894,0.761776,0.581922,-0.35575,0.553574,0.0165835,0.240266,-0.442505,-0.0122786,0.0405175,0.180126,5,0.1,18,1.8,0.047182,1.71523,0.619539,0.524283,0.122628,-0.0196576,-0.47605,0.492096,0.0186265,0.0408675,0.424659,5,0.1,19,1.8,-0.435955,4.02841,0.726696,-0.185923,0.021708,0.023447,-0.136659,-0.020504,-0.0222027,0.018747,0.23639,5,0.1
0,1.9,0.500006,3.30042,0.55131,-0.298484,-0.267013,0.00118269,0.192834,0.172541,-0.000793487,0.0149634,0.106132,5,0.1,1,1.9,1.56641,-2.14381,0.622624,-0.00458639,0.858447,-0.00978056,0.227623,-0.022158,0.0108331,0.0368603,2.81276,5,0.1,2,1.9,-3.20155,-3.20604,0.593281,-0.01381,-0.0953209,0.00681914,-0.0249594,0.0868589,-0.00624359,0.0162561,0.87244,5,0.1,3,1.9,1.26695,-1.79701,0.614047,0.158377,-0.0286661,-0.0267975,-0.195265,0.253171,0.0330582,0.0162947,0.405829,5,0.1,4,1.9,-2.71528,2.94362,0.591832,0.763385,-0.503007,0.0075669,-0.320211,0.325248,-0.00489131,0.0157417,0.518663,5,0.1,5,1.9,-0.398262,-0.0987164,0.624161,0.254602,-0.360621,0.00568824,-0.286764,0.232959,-0.00364706,0.00895979,0.137653,5,0.1,6,1.9,-1.50129,-1.90546,0.600869,-0.341376,0.685098,0.03853,0.282452,-0.394039,-0.0318624,0.0103092,0.31552,5,0.1,7,1.9,-1.0496,-1.43827,0.654126,-0.0222703,-0.456598,0.0308391,0.0143871,0.294939,-0.0199229,0.0131006,0.138913,5,0.1,8,1.9,-2.92041,-1.66888,0.586209,0.501298,0.0191526,0.0140016,-0.106454,-0.0175312,-0.0127815,0.0459068,0.119634,5,0.1,9,1.9,-0.104819,-3.34505,0.605848,-0.198182,0.225016,-0.00594184,0.18126,-0.718251,0.00543892,0.0266034,0.226643,5,0.1,10,1.9,3.7212,0.795767,0.644099,0.0699621,-0.866026,0.00768658,-0.00433624,3.72529e-06,-0.000476837,0.0117366,2.26872,5,0.1,11,1.9,-1.87782,2.64605,0.595508,0.079025,-0.431351,0.00455314,-0.0723153,0.241637,-0.0041686,0.0134031,0.146252,5,0.1,12,1.9,-2.23736,1.38898,0.727562,0.450798,-0.0401732,0.0231349,-0.291094,0.0259876,-0.0149198,0.0142619,0.135902,5,0.1,13,1.9,1.20834,-0.0495317,0.616901,-0.0823854,-0.745678,0.00716932,0.562139,-0.776557,-0.0305474,0.0149458,2.02818,5,0.1,14,1.9,-2.07781,-3.29356,0.50004,0.440942,0.147941,-4.49829e-05,-0.284821,-0.0955313,-0.000383705,0.0337164,0.14818,5,0.1,15,1.9,1.4607,-1.27568,0.534264,0.624829,-0.0111898,-0.0177018,-0.418074,0.0102445,0.0161901,0.00842109,0.201349,5,0.1,16,1.9,3.0429,3.28885,0.556645,-0.64702,0.26513,0.0150964,-1.0327,-0.0472367,-0.00269711,0.00997871,2.48311,5,0.1,17,1.9,1.56449,0.815043,0.583522,-0.333472,0.512553,0.015445,0.216469,-0.39421,-0.0109933,0.0405175,0.180126,5,0.1,18,1.9,0.0973823,1.73012,0.617662,0.480832,0.176314,-0.0179322,-0.408988,0.550658,0.0164136,0.0408675,0.424659,5,0.1,19,1.9,-0.455498,4.03048,0.728936,-0.20689,0.0198074,0.02139,-0.254219,-0.01809,-0.0195764,0.018747,0.23639,5,0.1
0,2,0.47106,3.27452,0.551425,-0.280691,-0.251091,0.00110865,0.176609,0.158072,-0.000685453,0.00988702,0.0611841,5,0.1,1,2,1.56686,-2.05827,0.621704,0.0115603,0.849408,-0.00858754,0.102937,-0.190794,0.0129044,0.00721597,1.14321,5,0.1,2,2,-3.20282,-3.21514,0.593931,-0.00893474,-0.0865877,0.00619143,0.130296,0.0896454,-0.0064075,0.0184062,2.6246,5,0.1,3,2,1.28181,-1.79876,0.611533,0.13867,-0.00793934,-0.0234619,-0.199854,0.15682,0.0338554,0.0177064,0.349319,5,0.1,4,2,-2.64069,2.895,0.592564,0.726527,-0.468421,0.00704676,-0.436544,0.377655,-0.00569224,0.0200767,0.350531,5,0.1,5,2,-0.374275,-0.133688,0.624712,0.224745,-0.339124,0.00535101,-0.310645,0.213363,-0.00333786,0.0130581,0.0965709,5,0.1,6,2,-1.534,-1.83901,0.604561,-0.312543,0.642514,0.0352755,0.301301,-0.473797,-0.0339448,0.0120049,0.211882,5,0.1,7,2,-1.05176,-1.48254,0.657116,-0.0209421,-0.429383,0.0290021,0.0131726,0.270188,-0.0182688,0.0160852,0.0800812,5,0.1,8,2,-2.87106,-1.66705,0.587545,0.483137,0.0173897,0.0127181,-0.262737,-0.0180006,-0.0132024,0.0500274,0.15715,5,0.1,9,2,-0.123731,-3.32602,0.605281,-0.179978,0.156945,-0.00539422,0.186901,-0.635266,0.00557303,0.0386245,0.430431,5,0.1,10,2,3.72817,0.709164,0.644865,0.0691533,-0.866026,0.0075981,-0.0150204,0,-0.00160933,0.0194476,2.26885,5,0.1,11,2,-1.87028,2.60413,0.595943,0.071764,-0.406539,0.00413507,-0.0745654,0.26834,-0.00429153,0.0168446,0.198513,5,0.1,12,2,-2.19364,1.38508,0.729806,0.423938,-0.0377774,0.0217572,-0.26679,0.0237823,-0.0136793,0.0108367,0.14586,5,0.1,13,2,1.20256,-0.127753,0.617463,-0.03649,-0.815043,0.00406504,0.357568,-0.556841,-0.0306368,0.0212821,2.79026,5,0.1,14,2,-2.03505,-3.27922,0.500034,0.414664,0.139129,-7.59959e-05,-0.26083,-0.0876188,-0.000238419,0.0481907,0.0875428,5,0.1,15,2,1.52103,-1.27675,0.532574,0.580862,-0.0101626,-0.0160754,-0.475585,0.0106096,0.0166595,0.0177716,0.1351,5,0.1,16,2,2.97318,3.31509,0.558139,-0.744265,0.259042,0.0147477,-0.848174,-0.0846386,-0.00479817,0.0107571,2.2962,5,0.1,17,2,1.53226,0.864298,0.58501,-0.310579,0.471984,0.0142992,0.249088,-0.428349,-0.0122488,0.0342603,0.120515,5,0.1,18,2,0.143425,1.7504,0.61595,0.439763,0.227416,-0.016284,-0.423596,0.448883,0.0169277,0.0261367,0.317777,5,0.1,19,2,-0.47746,4.03237,0.730977,-0.231817,0.0179887,0.0194237,-0.223264,-0.0185966,-0.0201464,0.0220279,0.183346,5,0.1
0,2.1,0.443776,3.25012,0.551533,-0.265679,-0.237656,0.00105025,0.135791,0.121504,-0.000532717,0.00988702,0.0611841,5,0.1,1,2.1,1.56912,-1.97635,0.62094,0.0382939,0.771062,-0.00643861,0.391103,-1.27351,0.0281036,0.00721597,1.14321,5,0.1,2,2.1,-3.20309,-3.22338,0.594521,0.00682585,-0.0783551,0.00560302,0.308737,0.0774115,-0.00553578,0.0184062,2.6246,5,0.1,3,2.1,1.29469,-1.79888,0.609354,0.119059,0.00395123,-0.0201405,-0.192612,0.0698492,0.0326149,0.0177064,0.349319,5,0.1,4,2.1,-2.57009,2.84994,0.593241,0.68605,-0.433376,0.00651842,-0.396654,0.3369,-0.00507757,0.0200767,0.350531,5,0.1,5,2.1,-0.35348,-0.166653,0.625233,0.190176,-0.320989,0.00506705,-0.369625,0.164047,-0.00256673,0.0130581,0.0965709,5,0.1,6,2.1,-1.56383,-1.777,0.607929,-0.284761,0.598659,0.0321447,0.26305,-0.422992,-0.0296496,0.0120049,0.211882,5,0.1,7,2.1,-1.05379,-1.52428,0.659935,-0.0198225,-0.406417,0.0274495,0.0101253,0.207745,-0.0140406,0.0160852,0.0800812,5,0.1,8,2.1,-2.82393,-1.6654,0.588755,0.460223,0.0157371,0.0115059,-0.214949,-0.0155419,-0.0113919,0.0500274,0.15715,5,0.1,9,2.1,-0.140934,-3.3133,0.604766,-0.165187,0.0994094,-0.00495315,0.119242,-0.511706,0.00356138,0.0386245,0.430431,5,0.1,10,2.1,3.73504,0.622562,0.64562,0.0684079,-0.866026,0.00751978,-0.00400841,3.72529e-06,-0.000413507,0.0194476,2.26885,5,0.1,11,2.1,-1.86342,2.56483,0.596338,0.0658629,-0.37935,0.00379588,-0.047572,0.283495,-0.00273436,0.0168446,0.198513,5,0.1,12,2.1,-2.15244,1.38127,0.731912,0.400945,-0.039777,0.0203498,-0.210539,-0.0532195,-0.0148639,0.0108367,0.14586,5,0.1,13,2.1,1.20053,-0.211511,0.617716,-0.00610147,-0.854869,0.00100369,0.242509,-0.243157,-0.0297762,0.0212821,2.79026,5,0.1,14,2.1,-1.99475,-3.26569,0.500026,0.392494,0.131685,-8.67993e-05,-0.200532,-0.0673234,0,0.0481907,0.0875428,5,0.1,15,2.1,1.57688,-1.27772,0.531045,0.536966,-0.00918917,-0.0145453,-0.419661,0.00913441,0.0143833,0.0177716,0.1351,5,0.1,16,2.1,2.89489,3.34067,0.559595,-0.816949,0.253243,0.0144194,-0.576466,-0.0454932,-0.00256673,0.0107571,2.2962,5,0.1,17,2.1,1.50238,0.909479,0.586383,-0.287566,0.43253,0.0131694,0.220463,-0.374369,-0.0107698,0.0342603,0.120515,5,0.1,18,2.1,0.185421,1.7754,0.614402,0.401198,0.27218,-0.0147303,-0.361042,0.422619,0.0145994,0.0261367,0.317777,5,0.1,19,2.1,-0.501852,4.03408,0.732825,-0.256391,0.0162795,0.0175736,-0.246236,-0.0160336,-0.0173859,0.0220279,0.183346,5,0.1
0,2.2,0.417901,3.22697,0.551635,-0.251459,-0.22493,0.000993907,0.157177,0.140548,-0.000625849,0.0107505,0.0471954,5,0.1,1,2.2,1.5751,-1.9067,0.620449,0.0825912,0.613266,-0.00331998,0.463605,-1.79946,0.0327826,0.0158779,0.477341,5,0.1,2,2.2,-3.2,-3.23083,0.595053,0.0633955,-0.0706971,0.00505596,0.804424,0.0772476,-0.00554323,0.0101761,3.2029,5,0.1,3,2.2,1.30564,-1.79835,0.607502,0.100121,0.00471473,-0.0169337,-0.186205,-0.0567436,0.0315011,0.00893083,1.00212,5,0.1,4,2.2,-2.50356,2.80832,0.593867,0.643212,-0.398737,0.00599623,-0.476241,0.365138,-0.00551343,0.0200222,0.235328,5,0.1,5,2.2,-0.336333,-0.197915,0.625726,0.152739,-0.30381,0.00479668,-0.371054,0.1899,-0.00298023,0.0111697,0.102858,5,0.1,6,2.2,-1.591,-1.71929,0.610996,-0.258458,0.554591,0.0291795,0.269115,-0.471771,-0.0303686,0.00688527,0.141985,5,0.1,7,2.2,-1.05572,-1.56386,0.662609,-0.0187606,-0.384665,0.0259802,0.0116825,0.240445,-0.0162423,0.0147537,0.0617713,5,0.1,8,2.2,-2.77903,-1.6639,0.589849,0.436854,0.0142008,0.0103801,-0.265956,-0.0155568,-0.0114143,0.0389156,0.109118,5,0.1,9,2.2,-0.156898,-3.30569,0.604287,-0.154334,0.0550866,-0.0046283,0.105448,-0.373602,0.00312924,0.0221852,0.414998,5,0.1,10,2.2,3.74185,0.535959,0.646368,0.0676453,-0.866026,0.00743866,-0.0140667,0,-0.00154972,0.00835416,2.26897,5,0.1,11,2.2,-1.85705,2.52839,0.596705,0.0615329,-0.348538,0.00354648,-0.0420809,0.337601,-0.00238419,0.00831877,0.189311,5,0.1,12,2.2,-2.11342,1.37697,0.733869,0.378841,-0.0465572,0.0187233,-0.243664,-0.0742078,-0.017941,0.0160597,0.182421,5,0.1,13,2.2,1.2009,-0.29776,0.617674,0.011006,-0.866026,-0.00175089,0.0972748,0,-0.0247657,0.0129495,2.79307,5,0.1,14,2.2,-1.95652,-3.25287,0.500017,0.371492,0.124639,-7.89762e-05,-0.2321,-0.0779629,0.000149012,0.0367299,0.073709,5,0.1,15,2.2,1.62845,-1.27859,0.529662,0.494,-0.00828803,-0.013122,-0.451684,0.00911951,0.0143349,0.0119619,0.156111,5,0.1,16,2.2,2.81092,3.36574,0.561023,-0.856054,0.247532,0.014095,-0.199437,-0.0787973,-0.00444055,0.0131431,2.23954,5,0.1,17,2.2,1.47474,0.950859,0.587645,-0.264916,0.3948,0.0120729,0.239015,-0.389725,-0.0113845,0.0275002,0.143228,5,0.1,18,2.2,0.22375,1.80453,0.613001,0.365282,0.307909,-0.0132859,-0.366673,0.275493,0.0145435,0.0203825,0.227916,5,0.1,19,2.2,-0.528612,4.03563,0.734496,-0.277311,0.0146866,0.0158533,-0.156581,-0.015974,-0.017345,0.0148971,0.135569,5,0.1
0,2.3,0.393433,3.20509,0.551732,-0.238647,-0.213474,0.000942498,0.11169,0.0998527,-0.000447035,0.0107505,0.0471954,5,0.1,1,2.3,1.58601,-1.85443,0.620302,0.138074,0.432279,0.000546128,0.607036,-1.78558,0.0423044,0.0158779,0.477341,5,0.1,2,2.3,-3.18823,-3.23757,0.59553,0.183052,-0.064455,0.00446849,1.47298,0.0513792,-0.00616163,0.0101761,3.2029,5,0.1,3,2.3,1.31476,-1.79818,0.60596,0.0825254,-0.00362415,-0.0139572,-0.1662,-0.18359,0.0281185,0.00893083,1.00212,5,0.1,4,2.3,-2.44149,2.77016,0.594441,0.599121,-0.36509,0.00548828,-0.42522,0.319228,-0.00482053,0.0200222,0.235328,5,0.1,5,2.3,-0.322937,-0.227476,0.626193,0.115441,-0.28833,0.00455342,-0.357069,0.134941,-0.00212342,0.0111697,0.102858,5,0.1,6,2.3,-1.61558,-1.66605,0.613771,-0.233829,0.511112,0.0264,0.230774,-0.414245,-0.0260472,0.00688527,0.141985,5,0.1,7,2.3,-1.05755,-1.60129,0.665137,-0.0178082,-0.365064,0.0246563,0.0083074,0.170857,-0.0115372,0.0147537,0.0617713,5,0.1,8,2.3,-2.73657,-1.66255,0.590834,0.412941,0.0127831,0.00934023,-0.228152,-0.0132099,-0.00968575,0.0389156,0.109118,5,0.1,9,2.3,-0.171865,-3.30189,0.603838,-0.14543,0.0228666,-0.00436353,0.0794642,-0.266165,0.00236556,0.0221852,0.414998,5,0.1,10,2.3,3.74857,0.449356,0.647108,0.0669815,-0.866026,0.00736536,-0.00327826,3.57628e-06,-0.000361353,0.00835416,2.26897,5,0.1,11,2.3,-1.85109,2.49548,0.597049,0.0579797,-0.307403,0.00334503,-0.0317097,0.472859,-0.00179932,0.00831877,0.189311,5,0.1,12,2.3,-2.07641,1.37176,0.73566,0.364055,-0.059047,0.0171834,-0.081718,-0.159845,-0.0136383,0.0160597,0.182421,5,0.1,13,2.3,1.20245,-0.384353,0.617379,0.0189539,-0.865581,-0.00409,0.0266731,0.0177938,-0.0214502,0.0129495,2.79307,5,0.1,14,2.3,-1.92037,-3.24088,0.50001,0.352572,0.114386,-6.09085e-05,-0.164934,-0.124782,0.000201166,0.0367299,0.073709,5,0.1,15,2.3,1.67598,-1.27938,0.52841,0.459531,-0.00756737,-0.0119883,-0.26805,0.0057742,0.00910833,0.0119619,0.156111,5,0.1,16,2.3,2.72471,3.3902,0.562416,-0.865402,0.242403,0.0138067,-0.0249296,-0.0378191,-0.00212342,0.0131431,2.23954,5,0.1,17,2.3,1.44922,0.98851,0.588799,-0.24739,0.359119,0.0110282,0.129163,-0.335321,-0.00986457,0.0275002,0.143228,5,0.1,18,2.3,0.258567,1.83666,0.61174,0.331996,0.334006,-0.0119603,-0.31016,0.227794,0.0123493,0.0203825,0.227916,5,0.1,19,2.3,-0.557148,4.03702,0.736,-0.293184,0.0132278,0.0142719,-0.143658,-0.0135899,-0.0147335,0.0148971,0.135569,5,0.1
0,2.4,0.370136,3.18425,0.551823,-0.226973,-0.203037,0.00089705,0.130638,0.116825,-0.000566244,0.00892483,0.0212771,5,0.1,1,2.4,1.60283,-1.81987,0.620569,0.197205,0.262177,0.00474751,0.546873,-1.59067,0.0400543,0.0101246,0.291628,5,0.1,2,2.4,-3.16224,-3.24377,0.595945,0.337619,-0.0597596,0.0038296,1.53053,0.0452995,-0.00652671,0.00949475,2.71566,5,0.1,3,2.4,1.32221,-1.8,0.6047,0.066793,-0.038138,-0.0112966,-0.148773,-0.49448,0.025183,0.00826378,2.67003,5,0.1,4,2.4,-2.38375,2.73525,0.594966,0.554848,-0.332946,0.00500381,-0.473738,0.331283,-0.00500679,0.0194217,0.157702,5,0.1,5,2.4,-0.313045,-0.255623,0.626638,0.0839651,-0.274226,0.00433177,-0.2639,0.157818,-0.0025034,0.00831907,0.0716575,5,0.1,6,2.4,-1.63782,-1.61703,0.616283,-0.21106,0.468963,0.0238284,0.229776,-0.44018,-0.0258982,0.0106377,0.0952652,5,0.1,7,2.4,-1.05929,-1.63693,0.667544,-0.0169367,-0.347206,0.02345,0.00965595,0.199795,-0.0134706,0.0116174,0.0278482,5,0.1,8,2.4,-2.69646,-1.66134,0.59172,0.388545,0.0114918,0.00839382,-0.270724,-0.0129342,-0.00947714,0.0380281,3.14459,5,0.1,9,2.4,-0.186008,-3.30073,0.603414,-0.137274,0.00241995,-0.00411868,0.088498,-0.14174,0.0026226,0.0170711,0.785962,5,0.1,10,2.4,3.75524,0.362754,0.647841,0.0662982,-0.866025,0.00728965,-0.0132322,-1.43051e-05,-0.00143051,0.0118221,2.26908,5,0.1,11,2.4,-1.84545,2.46724,0.597374,0.054726,-0.256228,0.00316054,-0.0352859,0.540257,-0.00202656,0.00923803,0.185812,5,0.1,12,2.4,-2.04035,1.36502,0.737312,0.357336,-0.0757664,0.0158608,-0.0743866,-0.162721,-0.0133812,0.00967677,0.218864,5,0.1,13,2.4,1.20416,-0.47068,0.616872,0.0116408,-0.85891,-0.00594705,-0.184834,0.14232,-0.0152886,0.017057,2.73235,5,0.1,14,2.4,-1.88595,-3.23012,0.500005,0.335333,0.100142,-4.02331e-05,-0.192881,-0.157595,0.000178814,0.0369796,0.154164,5,0.1,15,2.4,1.72069,-1.28011,0.527254,0.435123,-0.00704825,-0.0111669,-0.242412,0.00500679,0.00783801,0.0109762,0.0910154,5,0.1,16,2.4,2.63812,3.41422,0.563784,-0.866026,0.237566,0.0135332,0,-0.068903,-0.0038743,0.0129417,2.23845,5,0.1,17,2.4,1.42506,1.02276,0.589853,-0.236011,0.325793,0.0100404,0.11152,-0.33921,-0.010103,0.0231318,0.180471,5,0.1,18,2.4,0.290235,1.871,0.610605,0.301354,0.35035,-0.0107512,-0.310555,0.0866055,0.0120699,0.0224527,0.157761,5,0.1,19,2.4,-0.587048,4.03828,0.737355,-0.303137,0.0118971,0.0128299,-0.043571,-0.0133514,-0.0144541,0.0146039,0.19644,5,0.1
0,2.5,0.348073,3.16451,0.55191,-0.214308,-0.191712,0.000843033,0.129303,0.115618,-0.000536442,0.00892483,0.0212771,5,0.1,1,2.5,1.62541,-1.8009,0.621255,0.254684,0.124167,0.00904463,0.570253,-1.1761,0.0437275,0.0101246,0.291628,5,0.1,2,2.5,-3.12036,-3.24956,0.596297,0.50257,-0.0561804,0.003203,1.6785,0.0294447,-0.00601262,0.00949475,2.71566,5,0.1,3,2.5,1.32818,-1.80775,0.603689,0.0530733,-0.128678,-0.0089745,-0.12622,-1.20746,0.0213645,0.00826378,2.67003,5,0.1,4,2.5,-2.33049,2.70351,0.595443,0.511186,-0.302608,0.00454551,-0.415906,0.285029,-0.00430271,0.0194217,0.157702,5,0.1,5,2.5,-0.305816,-0.28228,0.627059,0.0626596,-0.258926,0.00408906,-0.143996,0.156213,-0.00248104,0.00831907,0.0716575,5,0.1,6,2.5,-1.65786,-1.5722,0.618544,-0.190163,0.428601,0.0214725,0.194304,-0.380807,-0.0219159,0.0106377,0.0952652,5,0.1,7,2.5,-1.06093,-1.67068,0.669823,-0.0159986,-0.327836,0.0221437,0.00959635,0.197776,-0.013344,0.0116174,0.0278482,5,0.1,8,2.5,-2.65799,-1.65867,0.592511,0.388919,0.0552403,0.00741445,0.20951,0.787742,-0.0100881,0.0380281,3.14459,5,0.1,9,2.5,-0.199274,-3.30113,0.603015,-0.127825,-0.00933595,-0.00383761,0.102103,-0.0706166,0.00304729,0.0170711,0.785962,5,0.1,10,2.5,3.76184,0.276151,0.648566,0.0656992,-0.866025,0.00722557,-0.00274181,1.78814e-06,-0.000283122,0.0118221,2.26908,5,0.1,11,2.5,-1.84014,2.44437,0.597681,0.0514511,-0.200885,0.00297232,-0.031963,0.556454,-0.00183657,0.00923803,0.185812,5,0.1,12,2.5,-2.00487,1.35669,0.738836,0.352844,-0.0903625,0.0146442,-0.0348687,-0.124216,-0.0114627,0.00967677,0.218864,5,0.1,13,2.5,1.2042,-0.556163,0.616204,-0.0148736,-0.852514,-0.00736713,-0.412896,0.0346768,-0.0126064,0.017057,2.73235,5,0.1,14,2.5,-1.85336,-3.22094,0.500002,0.316632,0.0832226,-2.30037e-05,-0.190958,-0.177994,0.000160187,0.0369796,0.154164,5,0.1,15,2.5,1.76314,-1.28079,0.526172,0.415028,-0.0066299,-0.0105103,-0.179455,0.00368059,0.00580028,0.0109762,0.0910154,5,0.1,16,2.5,2.55151,3.43758,0.565124,-0.866026,0.229102,0.0132999,0,-0.10097,-0.00158325,0.0129417,2.23845,5,0.1,17,2.5,1.40167,1.05391,0.590814,-0.234436,0.299381,0.0092566,-0.0521392,-0.208698,-0.00617653,0.0231318,0.180471,5,0.1,18,2.5,0.318924,1.90644,0.609586,0.273242,0.357827,-0.00965716,-0.260934,0.0479743,0.0101291,0.0224527,0.157761,5,0.1,19,2.5,-0.617837,4.03914,0.738577,-0.314448,0.00294596,0.011693,-0.152726,-0.148714,-0.00905618,0.0146039,0.19644,5,0.1
0,2.6,0.32733,3.14595,0.551992,-0.200014,-0.178927,0.000783801,0.160918,0.143886,-0.000625849,0.00979389,0.0128478,5,0.1,1,2.6,1.65355,-1.79373,0.62237,0.305703,0.0255495,0.0131205,0.427008,-0.803828,0.0362694,0.0271976,3.89385,5,0.1,2,2.6,-3.06207,-3.25503,0.596588,0.657803,-0.0533223,0.00262409,1.36101,0.0300407,-0.00551343,0.0108092,2.40273,5,0.1,3,2.6,1.33289,-1.82709,0.602893,0.0414401,-0.260404,-0.00700653,-0.10699,-1.34373,0.0181198,0.0151035,2.84647,5,0.1,4,2.6,-2.28147,2.67466,0.595876,0.468898,-0.274312,0.00411868,-0.441551,0.28789,-0.00435114,0.0172484,0.10584,5,0.1,5,2.6,-0.3,-0.307341,0.627454,0.0562258,-0.241657,0.0038147,0.0077188,0.194415,-0.00303984,0.0134549,0.044286,5,0.1,6,2.6,-1.67592,-1.53124,0.620584,-0.171155,0.39047,0.0193283,0.190258,-0.391483,-0.0214875,0.0140113,0.110824,5,0.1,7,2.6,-1.06248,-1.70241,0.671966,-0.0149339,-0.305972,0.0206679,0.0119805,0.246108,-0.0165999,0.0169863,0.0107283,5,0.1,8,2.6,-2.61772,-1.64857,0.593201,0.418353,0.151235,0.00638217,0.326872,1.05435,-0.0105202,0.0484056,2.72178,5,0.1,9,2.6,-0.211513,-3.30217,0.602648,-0.116609,-0.0086844,-0.00350177,0.123061,0.0910759,0.00369549,0.0318339,2.04555,5,0.1,10,2.6,3.76838,0.189549,0.649286,0.0650704,-0.866025,0.00715703,-0.0126362,0,-0.00137091,0.0120162,2.26918,5,0.1,11,2.6,-1.83516,2.42702,0.597968,0.0480354,-0.146717,0.00277609,-0.0374317,0.519156,-0.00217557,0.0110253,0.275339,5,0.1,12,2.6,-1.96983,1.34712,0.740243,0.347054,-0.099799,0.0134811,-0.094533,-0.0614524,-0.0121593,0.0116693,0.176842,5,0.1,13,2.6,1.2,-0.641089,0.615412,-0.0751853,-0.843596,-0.00838637,-0.768363,0.178397,-0.00742078,0.0227614,2.53129,5,0.1,14,2.6,-1.82271,-3.21352,0.500001,0.29552,0.0650644,-8.9407e-06,-0.237763,-0.182509,8.9407e-05,0.0400678,0.138054,5,0.1,15,2.6,1.80372,-1.28144,0.52515,0.395828,-0.00625849,-0.00992119,-0.21863,0.00405312,0.0064075,0.0158642,0.0708023,5,0.1,16,2.6,2.46491,3.45993,0.566445,-0.866026,0.217205,0.0130817,0,-0.138164,-0.00333786,0.0123856,2.24623,5,0.1,17,2.6,1.37789,1.08289,0.591711,-0.241569,0.280628,0.0086993,-0.0697374,-0.1809,-0.00545382,0.0272255,0.111004,5,0.1,18,2.6,0.344964,1.9423,0.60867,0.247586,0.357461,-0.00867248,-0.258759,-0.0650883,0.00980496,0.0312688,0.106602,5,0.1,19,2.6,-0.650024,4.03858,0.739704,-0.328515,-0.0148296,0.0108868,-0.106871,-0.193357,-0.007689,0.0186296,0.103917,5,0.1
0,2.7,0.308113,3.12876,0.552067,-0.184399,-0.164964,0.000723079,0.156572,0.140041,-0.000610948,0.00979389,0.0128478,5,0.1,1,2.7,1.68513,-1.79281,0.623807,0.315935,0.0134602,0.0151093,-0.176892,0.435099,0.00542775,0.0271976,3.89385,5,0.1,2,2.7,-2.99009,-3.26024,0.596824,0.775019,-0.0511304,0.00212165,0.952482,0.0168979,-0.00457838,0.0108092,2.40273,5,0.1,3,2.7,1.33696,-1.86053,0.602342,0.0436619,-0.412708,-0.00351779,0.12441,-1.60822,0.047639,0.0151035,2.84647,5,0.1,4,2.7,-2.23665,2.64858,0.596267,0.428414,-0.248099,0.00372278,-0.381857,0.244394,-0.00368431,0.0172484,0.10584,5,0.1,5,2.7,-0.294079,-0.330529,0.627821,0.0643027,-0.221962,0.00350587,0.134215,0.203136,-0.0031963,0.0134549,0.044286,5,0.1,6,2.7,-1.69223,-1.49383,0.622426,-0.156285,0.360182,0.0176485,0.117548,-0.238024,-0.0132881,0.0140113,0.110824,5,0.1,7,2.7,-1.06391,-1.73177,0.67395,-0.0137191,-0.281038,0.0189855,0.0125468,0.257172,-0.0173561,0.0169863,0.0107283,5,0.1,8,2.7,-2.57378,-1.62755,0.593789,0.463771,0.273321,0.00538649,0.525013,1.31001,-0.00945106,0.0484056,2.72178,5,0.1,9,2.7,-0.222569,-3.30255,0.602316,-0.104574,0.00423901,-0.00314023,0.119193,0.271782,0.00358373,0.0318339,2.04555,5,0.1,10,2.7,3.77485,0.102946,0.649998,0.0645109,-0.866025,0.00709686,-0.00247359,0,-0.00026077,0.0120162,2.26918,5,0.1,11,2.7,-1.83053,2.41483,0.598236,0.0447128,-0.0983257,0.00258302,-0.0308752,0.443444,-0.00179186,0.0110253,0.275339,5,0.1,12,2.7,-1.93558,1.33703,0.741533,0.337859,-0.100296,0.0123326,-0.101663,0.0454038,-0.0111386,0.0116693,0.176842,5,0.1,13,2.7,1.18774,-0.724812,0.614538,-0.176757,-0.832255,-0.00906698,-1.18018,0.0927411,-0.0057295,0.0227614,2.53129,5,0.1,14,2.7,-1.79435,-3.20793,0.5,0.271433,0.0469528,-2.23517e-06,-0.248432,-0.176102,4.47035e-05,0.0400678,0.138054,5,0.1,15,2.7,1.84238,-1.28205,0.524185,0.378472,-0.00593644,-0.00940952,-0.149176,0.00273436,0.00435114,0.0158642,0.0708023,5,0.1,16,2.7,2.37831,3.48082,0.567742,-0.866026,0.200013,0.0128968,0,-0.178561,-0.00113994,0.0123856,2.24623,5,0.1,17,2.7,1.35328,1.11016,0.592558,-0.251105,0.265632,0.00824658,-0.102676,-0.132024,-0.00400469,0.0272255,0.111004,5,0.1,18,2.7,0.368519,1.97772,0.607848,0.224222,0.350608,-0.00778809,-0.21621,-0.0842139,0.00815094,0.0312688,0.106602,5,0.1,19,2.7,-0.683452,4.03633,0.740759,-0.339988,-0.0282504,0.0102501,-0.103328,-0.0813305,-0.00555813,0.0186296,0.103917,5,0.1
0,2.8,0.290482,3.11299,0.552136,-0.167863,-0.15018,0.000658631,0.177309,0.158787,-0.000685453,0.0142921,0.00407991,5,0.1,1,2.8,1.71515,-1.7881,0.625307,0.278643,0.0898361,0.0145599,-0.531197,0.992,-0.0147521,0.0383815,3.21084,5,0.1,2,2.8,-2.90867,-3.26527,0.597015,0.844508,-0.0494123,0.00170022,0.430346,0.0196695,-0.0038445,0.0155133,2.28952,5,0.1,3,2.8,1.34214,-1.90964,0.60225,0.061512,-0.565726,0.001809,0.211596,-1.38301,0.0557899,0.0185301,2.47033,5,0.1,4,2.8,-2.19571,2.62497,0.596622,0.390196,-0.224054,0.0033617,-0.392079,0.241876,-0.00366569,0.0150561,0.129789,5,0.1,5,2.8,-0.286901,-0.351672,0.628155,0.0796333,-0.200456,0.0031665,0.157624,0.22912,-0.00357628,0.00921961,0.0357143,5,0.1,6,2.8,-1.70732,-1.45891,0.62413,-0.145829,0.33873,0.0164673,0.0993013,-0.208497,-0.0112653,0.0115374,0.0646558,5,0.1,7,2.8,-1.06522,-1.75854,0.675758,-0.0123888,-0.253811,0.0171483,0.0141263,0.290096,-0.0196099,0.0118815,0.00556829,5,0.1,8,2.8,-2.52483,-1.59377,0.594282,0.513572,0.399786,0.00448376,0.42963,1.16211,-0.00867248,0.0471024,2.40276,5,0.1,9,2.8,-0.232427,-3.3,0.60202,-0.0925165,0.0543475,-0.00277758,0.122912,0.712872,0.00372529,0.0192135,3.2389,5,0.1,10,2.8,3.78128,0.0163437,0.650705,0.0639081,-0.866025,0.00703186,-0.0122786,1.19209e-06,-0.00137091,0.0109095,2.26928,5,0.1,11,2.8,-1.82621,2.40706,0.598485,0.0415474,-0.0588298,0.00240058,-0.0336766,0.343919,-0.00196695,0.0133653,0.273397,5,0.1,12,2.8,-1.90239,1.32736,0.74271,0.324667,-0.0918686,0.0111982,-0.17035,0.117898,-0.0117719,0.0137655,0.150578,5,0.1,13,2.8,1.16405,-0.807418,0.613609,-0.296688,-0.817506,-0.00945628,-1.15591,0.233382,-0.00178814,0.0175262,1.78984,5,0.1,14,2.8,-1.7685,-3.20408,0.5,0.245133,0.030458,0,-0.280201,-0.151277,2.98023e-05,0.0352232,0.25319,5,0.1,15,2.8,1.87945,-1.28263,0.523266,0.362477,-0.00565648,-0.00896156,-0.18537,0.00309944,0.00497699,0.011034,0.0321929,5,0.1,16,2.8,2.29171,3.5,0.569024,-0.866026,0.184298,0.0127211,0,-0.135064,-0.00292063,0.0107118,2.25036,5,0.1,17,2.8,1.32773,1.13606,0.593362,-0.258979,0.251997,0.00783056,-0.0417233,-0.150025,-0.00458956,0.0277243,0.07533,5,0.1,18,2.8,0.389879,2.01225,0.607109,0.203027,0.33859,-0.00699908,-0.213131,-0.164151,0.00786781,0.0200183,0.124577,5,0.1,19,2.8,-0.717833,4.03324,0.741757,-0.345933,-0.0322819,0.00968724,-0.00235438,-0.00429153,-0.00602007,0.0131539,0.0775899,5,0.1
0,2.9,0.274582,3.09876,0.552199,-0.150093,-0.13427,0.000589807,0.17984,0.160962,-0.000696629,0.0142921,0.00407991,5,0.1,1,2.9,1.73984,-1.77315,0.626669,0.210869,0.216924,0.0125002,-0.786372,1.45201,-0.0252798,0.0383815,3.21084,5,0.1,2,2.9,-2.82291,-3.27014,0.597167,0.864681,-0.0481512,0.0013642,0.0537932,0.00856817,-0.00292808,0.0155133,2.28952,5,0.1,3,2.9,1.34955,-1.97306,0.602731,0.0880796,-0.700241,0.0079507,0.298321,-1.24517,0.0639185,0.0185301,2.47033,5,0.1,4,2.9,-2.15869,2.60363,0.59694,0.349984,-0.203943,0.00302298,-0.413775,0.17108,-0.00320002,0.0150561,0.129789,5,0.1,5,2.9,-0.27805,-0.370591,0.628454,0.0979806,-0.17804,0.00281539,0.193307,0.221958,-0.00348687,0.00921961,0.0357143,5,0.1,6,2.9,-1.72147,-1.42595,0.625728,-0.137651,0.321464,0.0155392,0.0711828,-0.152521,-0.0080727,0.0115374,0.0646558,5,0.1,7,2.9,-1.06639,-1.7825,0.677377,-0.0110054,-0.22543,0.0152297,0.0137165,0.281043,-0.018999,0.0118815,0.00556829,5,0.1,8,2.9,-2.47109,-1.54779,0.59469,0.562534,0.520059,0.00370033,0.500768,1.17999,-0.00709295,0.0471024,2.40276,5,0.1,9,2.9,-0.24106,-3.28951,0.601761,-0.0801162,0.167259,-0.00240235,0.124796,1.42759,0.00376627,0.0192135,3.2389,5,0.1,10,2.9,3.78764,-0.0702588,0.651405,0.0633646,-0.866025,0.0069702,-0.00239909,-4.47035e-07,-0.000283122,0.0109095,2.26928,5,0.1,11,2.9,-1.82222,2.40271,0.598716,0.0382787,-0.0298783,0.00220994,-0.032641,0.235111,-0.00189617,0.0133653,0.273397,5,0.1,12,2.9,-1.87078,1.31886,0.743773,0.307319,-0.0773245,0.0100733,-0.184201,0.166588,-0.0109412,0.0137655,0.150578,5,0.1,13,2.9,1.12835,-0.888004,0.612655,-0.418145,-0.793589,-0.00959504,-1.21042,0.270657,-0.000618398,0.0175262,1.78984,5,0.1,14,2.9,-1.7454,-3.20173,0.5,0.216618,0.0171501,1.76951e-06,-0.290342,-0.114217,1.11759e-05,0.0352232,0.25319,5,0.1,15,2.9,1.9148,-1.28318,0.522393,0.344349,-0.00535939,-0.00848435,-0.188053,0.00301749,0.00485033,0.011034,0.0321929,5,0.1,16,2.9,2.2051,3.51797,0.570287,-0.866026,0.176874,0.0125709,0,-0.0303686,-0.000845641,0.0107118,2.25036,5,0.1,17,2.9,1.30193,1.16055,0.594123,-0.253977,0.238118,0.0074042,0.133827,-0.135943,-0.00419468,0.0277243,0.07533,5,0.1,18,2.9,0.409285,2.04531,0.606446,0.186486,0.322692,-0.00629202,-0.129992,-0.163957,0.00648946,0.0200183,0.124577,5,0.1,19,2.9,-0.752405,4.02988,0.742697,-0.344878,-0.0358902,0.00913525,0.0354089,-0.0592172,-0.00534579,0.0131539,0.0775899,5,0.1
0,3,0.260487,3.08616,0.552254,-0.131638,-0.117755,0.00051856,0.190064,0.170112,-0.00077486,0.0115425,0.00123658,5,0.1,1,3,1.75683,-1.7441,0.627783,0.128114,0.363126,0.00971258,-0.839174,1.39862,-0.0295341,0.0215982,2.73181,5,0.1,2,3,-2.73633,-3.27491,0.59729,0.866026,-0.047183,0.00110418,0,0.013113,-0.00229478,0.0121338,2.2705,5,0.1,3,3,1.35985,-2.04867,0.603838,0.117442,-0.804657,0.0140503,0.27293,-0.804186,0.0557899,0.00862786,2.30369,5,0.1,4,3,-2.1258,2.58405,0.597227,0.307238,-0.187981,0.00270754,-0.441432,0.156164,-0.00315905,0.012984,0.206837,5,0.1,5,3,-0.267333,-0.38728,0.628718,0.11559,-0.155634,0.00246167,0.14782,0.227705,-0.00357628,0.00907594,0.0177004,5,0.1,6,3,-1.73488,-1.39458,0.627241,-0.130409,0.305545,0.0147179,0.0786185,-0.177026,-0.00888109,0.0104136,0.0507172,5,0.1,7,3,-1.06742,-1.80363,0.678804,-0.00962019,-0.197062,0.0133127,0.0140667,0.288427,-0.0194907,0.00925998,0.00170117,5,0.1,8,3,-2.41254,-1.49028,0.595026,0.605363,0.624955,0.00304878,0.321031,0.873148,-0.00602007,0.044804,2.17285,5,0.1,9,3,-0.248447,-3.26527,0.60154,-0.0676233,0.319111,-0.00202507,0.124671,1.51968,0.00372529,0.0150434,2.7412,5,0.1,10,3,3.79395,-0.156861,0.652099,0.0627697,-0.866026,0.00690371,-0.0121593,7.15256e-06,-0.00137091,0.00946531,2.26938,5,0.1,11,3,-1.81856,2.40073,0.598927,0.0348657,-0.0115812,0.00201315,-0.0363588,0.133276,-0.00211596,0.0128093,0.27107,5,0.1,12,3,-1.84104,1.312,0.744725,0.286579,-0.0596911,0.00897497,-0.235379,0.181019,-0.0111759,0.0101853,0.202812,5,0.1,13,3,1.08082,-0.965778,0.611697,-0.527993,-0.759114,-0.00952035,-0.941634,0.43571,0.00238419,0.0149053,1.32404,5,0.1,14,3,-1.72521,-3.20052,0.5,0.187069,0.00766516,2.98023e-06,-0.300288,-0.0754595,-2.98023e-05,0.0352282,0.422819,5,0.1,15,3,1.94822,-1.2837,0.521571,0.323072,-0.00502467,-0.00794679,-0.244617,0.0038743,0.00613928,0.0109449,0.0124583,5,0.1,16,3,2.1185,3.53557,0.571538,-0.866026,0.175267,0.0124231,0,-0.0145435,-0.00268221,0.0118727,2.24916,5,0.1,17,3,1.27744,1.18365,0.594842,-0.233757,0.223398,0.00694841,0.263155,-0.164151,-0.0050962,0.0314374,0.213434,5,0.1,18,3,0.427338,2.07669,0.605848,0.174882,0.304109,-0.00566393,-0.111222,-0.214577,0.00625849,0.0266603,0.189693,5,0.1,19,3,-0.786575,4.02596,0.743583,-0.336885,-0.0425935,0.00856221,0.132203,-0.0684261,-0.00634789,0.0144859,0.0690786,5,0.1
0,3.1,0.248267,3.07522,0.552302,-0.112823,-0.100917,0.000442658,0.186285,0.166655,-0.000748783,0.0115425,0.00123658,5,0.1,1,3.1,1.76546,-1.7003,0.628586,0.04516,0.515536,0.00618724,-0.800423,1.56128,-0.0391565,0.0215982,2.73181,5,0.1,2,3.1,-2.64973,-3.27959,0.59739,0.866026,-0.0464965,0.000913162,0,0.00356138,-0.00158325,0.0121338,2.2705,5,0.1,3,3.1,1.37304,-2.13216,0.605528,0.146725,-0.856017,0.0197354,0.294544,-0.259221,0.0552796,0.00862786,2.30369,5,0.1,4,3.1,-2.09735,2.56586,0.597484,0.261328,-0.177084,0.00244379,-0.471801,0.0753999,-0.00225008,0.012984,0.206837,5,0.1,5,3.1,-0.255067,-0.401721,0.628946,0.129201,-0.133339,0.00211056,0.116096,0.218725,-0.00344962,0.00907594,0.0177004,5,0.1,6,3.1,-1.74759,-1.36477,0.628676,-0.124268,0.291559,0.014024,0.051327,-0.118919,-0.005804,0.0104136,0.0507172,5,0.1,7,3.1,-1.06832,-1.82191,0.680039,-0.00824202,-0.168824,0.0114048,0.0135228,0.27702,-0.0187159,0.00925998,0.00170117,5,0.1,8,3.1,-2.35022,-1.42334,0.595304,0.641581,0.713122,0.00252649,0.358284,0.833794,-0.0045374,0.044804,2.17285,5,0.1,9,3.1,-0.254611,-3.22525,0.601355,-0.055873,0.484051,-0.00167359,0.110765,1.68782,0.00331551,0.0150434,2.7412,5,0.1,10,3.1,3.80019,-0.243464,0.652786,0.0622198,-0.866025,0.00684056,-0.002563,1.78814e-06,-0.000305474,0.00946531,2.26938,5,0.1,11,3.1,-1.81523,2.40009,0.599118,0.0320967,-0.00253208,0.00180425,-0.0212938,0.0541061,-0.00208244,0.0128093,0.27107,5,0.1,12,3.1,-1.81351,1.30697,0.74557,0.264523,-0.0407401,0.00794698,-0.214003,0.188723,-0.00961125,0.0101853,0.202812,5,0.1,13,3.1,1.02333,-1.03958,0.610757,-0.620252,-0.717116,-0.00927215,-0.855144,0.425767,0.00287965,0.0149053,1.32404,5,0.1,14,3.1,-1.70798,-3.20014,0.5,0.157706,-0.000164285,5.58794e-07,-0.286676,-0.07312,-1.49012e-05,0.0352282,0.422819,5,0.1,15,3.1,1.97929,-1.28418,0.520807,0.298059,-0.0046324,-0.00732513,-0.260539,0.00405312,0.00642613,0.0109449,0.0124583,5,0.1,16,3.1,2.0319,3.55316,0.572772,-0.866026,0.17764,0.0122901,0,0.046581,-0.000715256,0.0118727,2.24916,5,0.1,17,3.1,1.25558,1.20513,0.59551,-0.201587,0.205872,0.00640368,0.368588,-0.188045,-0.00585243,0.0314374,0.213434,5,0.1,18,3.1,0.444137,2.10623,0.605308,0.159873,0.28822,-0.00518532,-0.184387,-0.121653,0.00367686,0.0266603,0.189693,5,0.1,19,3.1,-0.819645,4.02143,0.744411,-0.324609,-0.0472046,0.0080049,0.126082,-0.0239909,-0.0051409,0.0144859,0.0690786,5,0.1
0,3.2,0.23791,3.06596,0.552343,-0.0943981,-0.08443,0.000369549,0.182003,0.162721,-0.000745058,0.0107576,0.000674298,5,0.1,1,3.2,1.76617,-1.64127,0.629006,-0.0286341,0.66016,0.0022009,-0.661612,1.26731,-0.0391603,0.0247556,2.36033,5,0.1,2,3.2,-2.56312,-3.28422,0.597475,0.866026,-0.0459611,0.000777841,0,0.00917912,-0.00119209,0.011562,2.27313,5,0.1,3,3.2,1.3891,-2.21848,0.607759,0.173235,-0.866026,0.0246584,0.222623,0,0.0413358,0.0100819,2.24348,5,0.1,4,3.2,-2.07359,2.54849,0.597718,0.213802,-0.170535,0.00223517,-0.474453,0.0658035,-0.00199676,0.0162751,0.174751,5,0.1,5,3.2,-0.241673,-0.413973,0.62914,0.137467,-0.111821,0.00177026,0.0441,0.211805,-0.00336766,0.0103623,0.00733845,5,0.1,6,3.2,-1.75976,-1.33622,0.630049,-0.118923,0.278994,0.01342,0.0604987,-0.143826,-0.00682473,0.00733538,0.0232162,5,0.1,7,3.2,-1.06907,-1.83743,0.681087,-0.00690818,-0.141573,0.00956208,0.0130534,0.268161,-0.01809,0.00874986,0.000804353,5,0.1,8,3.2,-2.28451,-1.34831,0.595535,0.669354,0.782153,0.00212193,0.165462,0.507772,-0.00363588,0.0425036,2.03144,5,0.1,9,3.2,-0.259664,-3.16874,0.601204,-0.0453956,0.640935,-0.00136048,0.0990778,1.38354,0.00298023,0.0166945,2.41481,5,0.1,10,3.2,3.80639,-0.330066,0.653467,0.0616133,-0.866025,0.00677109,-0.0121593,-1.43051e-05,-0.0013113,0.0114442,2.26948,5,0.1,11,3.2,-1.81212,2.40002,0.599288,0.0302106,0.000411272,0.00159293,-0.0181198,0.0103712,-0.00220537,0.0102584,0.267731,5,0.1,12,3.2,-1.78814,1.30379,0.746318,0.242397,-0.0234544,0.00701249,-0.234008,0.151277,-0.00917912,0.0104818,0.478736,5,0.1,13,3.2,0.957501,-1.10904,0.609847,-0.690863,-0.670379,-0.00889301,-0.523806,0.523269,0.00488758,0.0153553,0.936731,5,0.1,14,3.2,-1.69362,-3.20047,0.5,0.129807,-0.00571012,-1.49012e-06,-0.271082,-0.0331402,2.98023e-05,0.033114,1.17058,5,0.1,15,3.2,2.00773,-1.28462,0.520108,0.2702,-0.00420213,-0.00664145,-0.299692,0.00458956,0.00733137,0.0102104,0.00643633,5,0.1,16,3.2,1.94529,3.57115,0.573996,-0.866026,0.181913,0.0121534,5.96046e-05,0.0275373,-0.0025332,0.0106011,2.24707,5,0.1,17,3.2,1.23736,1.22473,0.596119,-0.16216,0.185552,0.00577122,0.410497,-0.218928,-0.00682473,0.0292149,0.413102,5,0.1,18,3.2,0.459114,2.13447,0.604806,0.138878,0.276583,-0.00486374,-0.231355,-0.124454,0.00301003,0.0195147,0.162309,5,0.1,19,3.2,-0.851401,4.01666,0.745185,-0.309542,-0.047493,0.00747591,0.183791,0.0174046,-0.00572205,0.0123553,0.203634,5,0.1
0,3.3,0.229361,3.05831,0.552376,-0.0767803,-0.0686783,0.000298303,0.16979,0.151798,-0.000674278,0.0107576,0.000674298,5,0.1,1,3.3,1.76009,-1.56936,0.629025,-0.0916978,0.772595,-0.00182828,-0.584029,0.942454,-0.0399984,0.0247556,2.36033,5,0.1,2,3.3,-2.47652,-3.28884,0.597559,0.866011,-0.0470527,0.00100918,-0.000596046,-0.0249147,0.00505149,0.011562,2.27313,5,0.1,3,3.3,1.40758,-2.30508,0.610434,0.196394,-0.866026,0.0287969,0.224084,0,0.0390485,0.0100819,2.24348,5,0.1,4,3.3,-2.05453,2.53163,0.597932,0.16793,-0.167701,0.00206362,-0.440434,0.00450015,-0.00152737,0.0162751,0.174751,5,0.1,5,3.3,-0.227775,-0.424121,0.629301,0.139725,-0.0914057,0.00144541,-0.00213087,0.19615,-0.00312179,0.0103623,0.00733845,5,0.1,6,3.3,-1.77136,-1.30902,0.631358,-0.113105,0.265039,0.0127636,0.0596642,-0.143871,-0.00672787,0.00733538,0.0232162,5,0.1,7,3.3,-1.0697,-1.85027,0.681955,-0.00564847,-0.115726,0.00781808,0.0121221,0.248343,-0.0167638,0.00874986,0.000804353,5,0.1,8,3.3,-2.21656,-1.26758,0.595732,0.690458,0.830908,0.00182232,0.212908,0.423402,-0.00246987,0.0425036,2.03144,5,0.1,9,3.3,-0.26374,-3.09824,0.601081,-0.0364257,0.762954,-0.00109086,0.0811294,1.01924,0.00244007,0.0166945,2.41481,5,0.1,10,3.3,3.81252,-0.416669,0.65414,0.0610452,-0.866025,0.00671074,-0.00284612,3.57628e-06,-0.000298023,0.0114442,2.26948,5,0.1,11,3.3,-1.8092,2.40016,0.599436,0.0278238,0.00287369,0.00137789,-0.0290275,0.0308454,-0.00210479,0.0102584,0.267731,5,0.1,12,3.3,-1.76511,1.30223,0.746973,0.217735,-0.00808015,0.00610044,-0.259116,0.131458,-0.00907108,0.0104818,0.478736,5,0.1,13,3.3,0.885882,-1.17358,0.608982,-0.739682,-0.621059,-0.00842018,-0.414439,0.48127,0.0048168,0.0153553,0.936731,5,0.1,14,3.3,-1.68194,-3.20133,0.5,0.104253,-0.0117175,3.72529e-07,-0.240184,-0.0481308,1.49012e-05,0.033114,1.17058,5,0.1,15,3.3,2.03327,-1.28502,0.51948,0.240754,-0.0037523,-0.00592377,-0.292942,0.0044778,0.00712276,0.0102104,0.00643633,5,0.1,16,3.3,1.85869,3.58958,0.575204,-0.866025,0.187244,0.012029,-1.49012e-05,0.0647902,-0.000670552,0.0106011,2.24707,5,0.1,17,3.3,1.2232,1.24225,0.596664,-0.121251,0.165318,0.00514006,0.400633,-0.190258,-0.00594184,0.0292149,0.413102,5,0.1,18,3.3,0.471781,2.16159,0.604332,0.113958,0.266051,-0.0046229,-0.261489,-0.0982434,0.00205636,0.0195147,0.162309,5,0.1,19,3.3,-0.881419,4.01207,0.745905,-0.290488,-0.0437222,0.00692019,0.203352,0.0556409,-0.00556931,0.0123553,0.203634,5,0.1
0,3.4,0.222508,3.05218,0.552403,-0.0605423,-0.0541568,0.000232458,0.154503,0.138044,-0.000566244,0.0120675,0.000598833,5,0.1,1,3.4,1.74824,-1.48816,0.62865,-0.142816,0.843149,-0.00555366,-0.427783,0.452459,-0.0335276,0.022933,1.82748,5,0.1,2,3.4,-2.38993,-3.29368,0.59769,0.865793,-0.0498712,0.00164956,-0.00476837,-0.0269413,0.00718236,0.0134337,2.34537,5,0.1,3,3.4,1.42823,-2.39168,0.613489,0.215247,-0.866026,0.0320643,0.141442,0,0.0246763,0.0077901,2.23481,5,0.1,4,3.4,-2.03987,2.51487,0.598131,0.126159,-0.167286,0.00191331,-0.392914,0.0137091,-0.00151992,0.01336,0.148126,5,0.1,5,3.4,-0.213909,-0.43231,0.62943,0.136571,-0.0726566,0.00114739,-0.0624284,0.178516,-0.00283122,0.00852975,0.00252262,5,0.1,6,3.4,-1.78235,-1.28329,0.632598,-0.106359,0.248799,0.0120029,0.0777245,-0.186563,-0.00879169,0.00787126,0.537133,5,0.1,7,3.4,-1.07021,-1.86064,0.682656,-0.00449121,-0.0919908,0.00621527,0.0110865,0.226021,-0.0152588,0.0118845,0.000653559,5,0.1,8,3.4,-2.14667,-1.1828,0.595903,0.704497,0.859731,0.00160784,0.0371933,0.125885,-0.00190735,0.0436723,1.98017,5,0.1,9,3.4,-0.267002,-3.01768,0.600984,-0.0290245,0.839639,-0.000868738,0.067547,0.500917,0.00205636,0.0209555,2.29634,5,0.1,10,3.4,3.8186,-0.503271,0.654809,0.0604212,-0.866026,0.00664443,-0.0123978,0,-0.00137091,0.0101197,2.26958,5,0.1,11,3.4,-1.80658,2.40059,0.599564,0.0245184,0.00528693,0.00116974,-0.0365376,0.0127554,-0.00202656,0.00892245,0.252585,5,0.1,12,3.4,-1.74468,1.3019,0.747538,0.190648,-0.000676513,0.00519603,-0.28199,0.00607967,-0.0090003,0.0117684,0.657532,5,0.1,13,3.4,0.810277,-1.23322,0.608165,-0.767395,-0.571087,-0.00788569,-0.114411,0.530481,0.00599027,0.0148417,0.640236,5,0.1,14,3.4,-1.67267,-3.20254,0.500001,0.0817299,-0.00978112,0,-0.210404,0.103712,2.98023e-05,0.035202,3.58155,5,0.1,15,3.4,2.05587,-1.28537,0.518923,0.211036,-0.00329912,-0.005202,-0.303388,0.00464916,0.00739098,0.00945477,0.308119,5,0.1,16,3.4,1.77209,3.60859,0.576402,-0.866026,0.192416,0.0118971,0,0.028491,-0.0025332,0.00969651,2.24521,5,0.1,17,3.4,1.21301,1.25785,0.597149,-0.0832438,0.146732,0.00455827,0.354409,-0.184596,-0.00572205,0.0278986,0.406751,5,0.1,18,3.4,0.481858,2.18766,0.603881,0.0875808,0.254893,-0.00441074,-0.26162,-0.133157,0.00232458,0.0226983,0.216061,5,0.1,19,3.4,-0.909379,4.00802,0.746568,-0.267902,-0.0368118,0.0063315,0.251949,0.0798702,-0.00628829,0.0125239,0.193101,5,0.1
0,3.5,0.217198,3.04743,0.552423,-0.0459506,-0.0411171,0.000178628,0.136768,0.122234,-0.000506639,0.0120675,0.000598833,5,0.1,1,3.5,1.73192,-1.40245,0.62793,-0.182096,0.864533,-0.00879774,-0.345781,0.0584573,-0.0302829,0.022933,1.82748,5,0.1,2,3.5,-2.30342,-3.29919,0.597947,0.863131,-0.063318,0.00395905,-0.0787973,-0.215113,0.0351742,0.0134337,2.34537,5,0.1,3,3.5,1.4505,-2.47829,0.616823,0.230236,-0.866026,0.0345806,0.142805,0,0.0233874,0.0077901,2.23481,5,0.1,4,3.5,-2.02909,2.4981,0.598315,0.0906322,-0.168835,0.00177789,-0.31887,-0.0314265,-0.00125915,0.01336,0.148126,5,0.1,5,3.5,-0.200622,-0.438716,0.629531,0.1286,-0.0558099,0.0008801,-0.0972897,0.15793,-0.00251085,0.00852975,0.00252262,5,0.1,6,3.5,-1.79157,-1.25991,0.633829,-0.0693712,0.214053,0.0132242,0.598639,-0.476897,0.0282899,0.00787126,0.537133,5,0.1,7,3.5,-1.0706,-1.86875,0.683204,-0.00344478,-0.0706617,0.00477508,0.00980496,0.199959,-0.0135005,0.0118845,0.000653559,5,0.1,8,3.5,-2.0758,-1.09645,0.596056,0.713945,0.865357,0.0014645,0.108108,0.00470877,-0.00107661,0.0436723,1.98017,5,0.1,9,3.5,-0.269596,-2.93214,0.600906,-0.0231254,0.864041,-0.000689272,0.0513867,0.072673,0.0015609,0.0209555,2.29634,5,0.1,10,3.5,3.8246,-0.589874,0.655469,0.0598136,-0.866026,0.00657709,-0.00329316,3.72529e-06,-0.000368804,0.0101197,2.26958,5,0.1,11,3.5,-1.80432,2.40125,0.599671,0.0207033,0.00805855,0.000975002,-0.0392497,0.0181496,-0.00187382,0.00892245,0.252585,5,0.1,12,3.5,-1.727,1.30173,0.748014,0.163146,-0.00539217,0.00433968,-0.268564,-0.147812,-0.00815466,0.0117684,0.657532,5,0.1,13,3.5,0.73302,-1.28782,0.607405,-0.776424,-0.521771,-0.00731964,-0.0354461,0.471137,0.00554323,0.0148417,0.640236,5,0.1,14,3.5,-1.66472,-3.20299,0.500001,0.0841627,0.0045307,1.76951e-06,0.210233,0.315696,1.11759e-05,0.035202,3.58155,5,0.1,15,3.5,2.07605,-1.28519,0.518291,0.197422,0.0111278,-0.0086911,-0.00545382,0.252619,-0.0676662,0.00945477,0.308119,5,0.1,16,3.5,1.68549,3.62806,0.577583,-0.866026,0.197256,0.0117685,0,0.0548661,-0.000733882,0.00969651,2.24521,5,0.1,17,3.5,1.20642,1.27164,0.597578,-0.0491655,0.129488,0.00402285,0.315331,-0.163272,-0.00507757,0.0278986,0.406751,5,0.1,18,3.5,0.48934,2.21258,0.603449,0.0624621,0.244025,-0.00423566,-0.237709,-0.0967234,0.00143051,0.0226983,0.216061,5,0.1,19,3.5,-0.934894,4.00478,0.74717,-0.242191,-0.0278793,0.00570631,0.264533,0.0948012,-0.00629947,0.0125239,0.193101,5,0.1
0,3.6,0.213253,3.0439,0.552439,-0.0332799,-0.0297904,0.00013113,0.116304,0.103951,-0.000417233,0.0117738,0.000466885,5,0.1,1,3.6,1.7122,-1.31588,0.626912,-0.20999,0.866026,-0.0114292,-0.204325,-5.96046e-05,-0.0216067,0.0244453,1.38743,5,0.1,2,3.6,-2.21783,-3.30672,0.598539,0.84483,-0.0881493,0.00800341,-0.308752,-0.26083,0.0427961,0.0128655,2.33158,5,0.1,3,3.6,1.47414,-2.56489,0.62038,0.241175,-0.866026,0.0363603,0.0652671,0,0.0106692,0.00798125,1.90854,5,0.1,4,3.6,-2.02151,2.48107,0.598487,0.0621378,-0.171286,0.00164956,-0.252366,-0.00810623,-0.0013411,0.013129,0.200738,5,0.1,5,3.6,-0.188307,-0.443545,0.629607,0.117124,-0.0411481,0.000648201,-0.131838,0.135005,-0.00214577,0.0120303,0.000903025,5,0.1,6,3.6,-1.79508,-1.24115,0.63532,0.00208616,0.159079,0.0167891,0.78094,-0.597477,0.0391901,0.00969957,0.398964,5,0.1,7,3.6,-1.0709,-1.87487,0.683617,-0.00253618,-0.0520974,0.00352114,0.00840425,0.170946,-0.0115633,0.00878841,0.000510164,5,0.1,8,3.6,-2.00404,-1.01002,0.596197,0.718674,0.861618,0.00137389,-0.0442863,-0.0882149,-0.000804663,0.0355234,1.97833,5,0.1,9,3.6,-0.271671,-2.84558,0.600845,-0.0185758,0.866026,-0.000552833,0.0403374,0,0.0012517,0.0176751,2.27183,5,0.1,10,3.6,3.83056,-0.676477,0.656124,0.0591576,-0.866026,0.00650436,-0.0126362,0,-0.00137091,0.008645,2.26969,5,0.1,11,3.6,-1.80244,2.40201,0.599759,0.0167608,0.00545979,0.000795722,-0.0391603,-0.0803471,-0.00172853,0.0105191,0.214289,5,0.1,12,3.6,-1.71201,1.3,0.748409,0.136867,-0.0336051,0.00356138,-0.257254,-0.402689,-0.00745058,0.0121574,1.09005,5,0.1,13,3.6,0.655535,-1.33764,0.606702,-0.769389,-0.474271,-0.00674129,0.196427,0.489354,0.00619888,0.0122502,0.428073,5,0.1,14,3.6,-1.65489,-3.2,0.500001,0.115082,0.0646412,1.49012e-06,0.370145,0.866055,-2.98023e-05,0.0380005,3.12157,5,0.1,15,3.6,2.09601,-1.28261,0.517024,0.203478,0.0416726,-0.0170484,0.0983477,0.334084,-0.092119,0.0118634,0.0312085,5,0.1,16,3.6,1.59888,3.64801,0.578755,-0.866026,0.201088,0.0116289,0,0.0120401,-0.00247359,0.0116319,2.24417,5,0.1,17,3.6,1.20294,1.28379,0.597955,-0.0220209,0.113574,0.0035271,0.220895,-0.157058,-0.00488758,0.0243597,0.742403,5,0.1,18,3.6,0.494457,2.23647,0.603033,0.0405461,0.233424,-0.00408292,-0.198588,-0.124216,0.00181794,0.0182142,0.326732,5,0.1,19,3.6,-0.957756,4.00246,0.747708,-0.214663,-0.0185132,0.00506043,0.287116,0.089407,-0.00667572,0.0152151,0.318296,5,0.1
0,3.7,0.210476,3.04142,0.55245,-0.0225898,-0.0202339,9.22009e-05,0.0971779,0.0868887,-0.000357628,0.0117738,0.000466885,5,0.1,1,3.7,1.69026,-1.22928,0.625665,-0.227778,0.865777,-0.0134341,-0.141867,-0.00991672,-0.0176579,0.0244453,1.38743,5,0.1,2,3.7,-2.13406,-3.31685,0.599532,0.836849,-0.114186,0.0116326,0.0725091,-0.247866,0.0295192,0.0128655,2.33158,5,0.1,3,3.7,1.49861,-2.65149,0.624072,0.248097,-0.866026,0.037446,0.0600144,0,0.00912324,0.00798125,1.90854,5,0.1,4,3.7,-2.01635,2.46409,0.598646,0.0427235,-0.166647,0.00154041,-0.144765,0.0973642,-0.000923872,0.013129,0.200738,5,0.1,5,3.7,-0.177282,-0.44702,0.629662,0.103113,-0.0287183,0.000450481,-0.147363,0.113295,-0.00179932,0.0120303,0.000903025,5,0.1,6,3.7,-1.79098,-1.22873,0.637248,0.0793722,0.0852732,0.0221658,0.741109,-0.834532,0.0630915,0.00969957,0.398964,5,0.1,7,3.7,-1.07111,-1.87927,0.683914,-0.00176337,-0.0363586,0.00245683,0.0070408,0.143446,-0.00970066,0.00878841,0.000510164,5,0.1,8,3.7,-1.93213,-0.923953,0.596332,0.721039,0.862038,0.00132686,0.047572,0.0467412,-0.000242144,0.0355234,1.97833,5,0.1,9,3.7,-0.27335,-2.75898,0.600795,-0.0152028,0.866026,-0.000448432,0.0280757,0,0.000867993,0.0176751,2.27183,5,0.1,10,3.7,3.83644,-0.763079,0.65677,0.0585113,-0.866026,0.0064346,-0.00376999,3.72529e-06,-0.000398606,0.008645,2.26969,5,0.1,11,3.7,-1.80096,2.40204,0.59983,0.0129374,-0.00694431,0.000632834,-0.0369474,-0.202194,-0.00152364,0.0105191,0.214289,5,0.1,12,3.7,-1.69956,1.29425,0.748729,0.112642,-0.0842005,0.00287099,-0.22807,-0.575334,-0.00638887,0.0121574,1.09005,5,0.1,13,3.7,0.57957,-1.38276,0.606057,-0.749337,-0.429237,-0.00616452,0.229854,0.424266,0.00551715,0.0122502,0.428073,5,0.1,14,3.7,-1.64119,-3.188,0.500001,0.161442,0.184825,-9.31323e-07,0.519499,1.43237,-1.49012e-05,0.0380005,3.12157,5,0.1,15,3.7,2.11642,-1.27717,0.514976,0.200981,0.0636293,-0.0228442,-0.132009,0.118606,-0.0278875,0.0118634,0.0312085,5,0.1,16,3.7,1.51228,3.66825,0.57991,-0.866026,0.204081,0.0115,0,0.0349879,-0.00077486,0.0116319,2.24417,5,0.1,17,3.7,1.20175,1.29485,0.598284,-0.00320077,0.111675,0.00305297,0.136703,0.088647,-0.00462309,0.0243597,0.742403,5,0.1,18,3.7,0.497522,2.25916,0.602634,0.0210292,0.219874,-0.00388222,-0.181744,-0.150174,0.0022687,0.0182142,0.326732,5,0.1,19,3.7,-0.977784,4.00111,0.748181,-0.185885,-0.00819862,0.0043951,0.288114,0.105619,-0.00663102,0.0152151,0.318296,5,0.1
0,3.8,0.208669,3.0398,0.552457,-0.0138871,-0.0124454,5.96046e-05,0.0767484,0.0685453,-0.000298023,0.0108682,0.000277135,5,0.1,1,3.8,1.66694,-1.14283,0.624245,-0.2368,0.86205,-0.0148222,-0.0324845,-0.0793934,-0.00959635,0.0225852,1.03355,5,0.1,2,3.8,-2.0499,-3.32941,0.600819,0.846028,-0.135684,0.0138715,0.054419,-0.173807,0.0151992,0.0106994,2.28393,5,0.1,3,3.8,1.52362,-2.73809,0.627847,0.250959,-0.866026,0.0378624,-0.0118613,0,-0.00211596,0.0150722,1.47713,5,0.1,4,3.8,-2.01268,2.44806,0.598795,0.0316203,-0.152546,0.00144988,-0.0838041,0.18096,-0.000983477,0.0125825,0.186799,5,0.1,5,3.8,-0.167726,-0.449363,0.629699,0.0878617,-0.0185274,0.000289083,-0.156589,0.0904202,-0.00143051,0.0119409,0.000558813,5,0.1,6,3.8,-1.77956,-1.22447,0.639784,0.146276,-5.36442e-05,0.028491,0.580311,-0.838518,0.0594556,0.00615976,0.333832,5,0.1,7,3.8,-1.07126,-1.88223,0.684115,-0.00112951,-0.0234574,0.00158399,0.00554323,0.114501,-0.0077486,0.011339,0.000311339,5,0.1,8,3.8,-1.85993,-0.837621,0.596464,0.720671,0.862677,0.00130832,-0.0860095,-0.066936,-0.000268221,0.0348002,1.97745,5,0.1,9,3.8,-0.274744,-2.67238,0.600754,-0.0127904,0.866026,-0.000374019,0.0209212,0,0.000625849,0.0168696,2.27185,5,0.1,10,3.8,3.84226,-0.849682,0.657411,0.0578165,-0.866026,0.00635833,-0.0127554,0,-0.00137091,0.0114731,2.2698,5,0.1,11,3.8,-1.79985,2.4,0.599886,0.00943542,-0.0370324,0.000490248,-0.0329018,-0.385404,-0.0013411,0.00958351,0.152849,5,0.1,12,3.8,-1.68939,1.2829,0.748986,0.0911117,-0.142649,0.0022769,-0.203192,-0.567198,-0.00548363,0.0130124,2.9797,5,0.1,13,3.8,0.506009,-1.42358,0.605468,-0.719226,-0.387225,-0.00560731,0.38898,0.4251,0.00578165,0.0170555,0.360392,5,0.1,14,3.8,-1.62246,-3.16213,0.500001,0.21244,0.332624,-1.49012e-06,0.472546,1.44398,0,0.0337742,2.65927,5,0.1,15,3.8,2.13559,-1.27048,0.512631,0.180066,0.0678688,-0.023374,-0.27287,-0.0224113,0.0138879,0.0122145,0.0185066,5,0.1,16,3.8,1.42568,3.68878,0.581054,-0.866026,0.205892,0.0113577,5.96046e-05,-0.00798702,-0.0025332,0.0109873,2.24406,5,0.1,17,3.8,1.20187,1.30666,0.598566,0.00286102,0.125915,0.00259876,-0.0213981,0.172615,-0.00444055,0.0250975,0.664601,5,0.1,18,3.8,0.498808,2.28033,0.602258,0.00576079,0.202864,-0.003618,-0.117987,-0.191927,0.00306964,0.0258432,0.305146,5,0.1,19,3.8,-0.994933,4.00078,0.748588,-0.157128,0.000810623,0.00373423,0.286371,0.0674725,-0.00658631,0.014599,0.697879,5,0.1
0,3.9,0.207635,3.03887,0.552462,-0.0070666,-0.0063505,3.26894e-05,0.0596195,0.0533015,-0.000234693,0.0108682,0.000277135,5,0.1,1,3.9,1.64314,-1.05673,0.622719,-0.238604,0.861662,-0.0156597,0.00423193,0.0210069,-0.00648573,0.0225852,1.03355,5,0.1,2,3.9,-1.96477,-3.34358,0.60225,0.857978,-0.145454,0.014458,0.136375,-0.0271648,-0.00246614,0.0106994,2.28393,5,0.1,3,3.9,1.54867,-2.82469,0.631624,0.249939,-0.865842,0.0376581,-0.0191182,0.00734627,-0.00351295,0.0150722,1.47713,5,0.1,4,3.9,-2.00982,2.43384,0.598936,0.0267904,-0.130621,0.00136187,-0.0207275,0.250101,-0.00083074,0.0125825,0.186799,5,0.1,5,3.9,-0.159723,-0.450796,0.629721,0.0722249,-0.0104555,0.000161305,-0.154829,0.0709854,-0.00112504,0.0119409,0.000558813,5,0.1,6,3.9,-1.76258,-1.22891,0.642931,0.188173,-0.0899715,0.034377,0.268623,-0.918977,0.0552461,0.00615976,0.333832,5,0.1,7,3.9,-1.07134,-1.88405,0.684237,-0.000634417,-0.0132363,0.000892393,0.00435114,0.0898838,-0.00607967,0.011339,0.000311339,5,0.1,8,3.9,-1.78801,-0.751413,0.596594,0.719559,0.863101,0.00130665,0.0194758,0.032559,0.00013411,0.0348002,1.97745,5,0.1,9,3.9,-0.275935,-2.58578,0.600719,-0.01116,0.866026,-0.000325497,0.0125822,0,0.000376254,0.0168696,2.27185,5,0.1,10,3.9,3.848,-0.936284,0.658042,0.0571392,-0.866026,0.00628643,-0.00414252,0,-0.000439584,0.0114731,2.2698,5,0.1,11,3.9,-1.79906,2.39402,0.599929,0.00635516,-0.0850249,0.000366755,-0.0284985,-0.537977,-0.00113249,0.00958351,0.152849,5,0.1,12,3.9,-1.68124,1.26647,0.749188,0.0724211,-0.181001,0.00177873,-0.171542,-0.26501,-0.00451133,0.0130124,2.9797,5,0.1,13,3.9,0.435965,-1.46047,0.604935,-0.68177,-0.352862,-0.00507515,0.381188,0.282921,0.00501424,0.0170555,0.360392,5,0.1,14,3.9,-1.59873,-3.12125,0.500001,0.262428,0.486816,-1.49012e-06,0.496961,1.55751,0,0.0337742,2.65927,5,0.1,15,3.9,2.15206,-1.26399,0.510417,0.147998,0.0603527,-0.0204378,-0.35578,-0.11763,0.041727,0.0122145,0.0185066,5,0.1,16,3.9,1.33908,3.7094,0.582182,-0.866025,0.206853,0.011218,-1.49012e-05,0.0148714,-0.000908971,0.0109873,2.24406,5,0.1,17,3.9,1.20186,1.32032,0.598805,-0.00575911,0.148699,0.00218106,-0.181668,0.259914,-0.00393763,0.0250975,0.664601,5,0.1,18,3.9,0.498816,2.29965,0.601912,-0.00480218,0.183469,-0.00330573,-0.0720806,-0.197962,0.00322238,0.0258432,0.305146,5,0.1,19,3.9,-1.00925,4.00123,0.748929,-0.129543,0.00803843,0.00309898,0.265066,0.0501573,-0.0061132,0.014599,0.697879,5,0.1
0,4,0.207198,3.03848,0.552464,-0.00195801,-0.00178218,1.19209e-05,0.0426546,0.038147,-0.000178814,0.0124157,0.000124145,5,0.1,1,4,1.61941,-0.970631,0.62113,-0.234672,0.857618,-0.0160113,0.0793934,-0.137597,-8.9407e-05,0.0219422,0.741084,5,0.1,2,4,-1.87845,-3.35806,0.603662,0.866023,-0.142217,0.0135645,5.96046e-05,0.0869036,-0.0145137,0.0116926,2.28051,5,0.1,3,4,1.57349,-2.91118,0.63536,0.245363,-0.863087,0.0369012,-0.0795722,0.0588894,-0.012666,0.013219,1.11055,5,0.1,4,4,-2.00719,2.4221,0.599068,0.0261068,-0.103897,0.00127405,0.00119209,0.278234,-0.000983477,0.0116789,0.168424,5,0.1,5,4,-0.153262,-0.451519,0.629732,0.0571337,-0.00432208,6.4075e-05,-0.145935,0.0518113,-0.000804663,0.0104351,0.000475104,5,0.1,6,4,-1.74286,-1.24235,0.646618,0.202149,-0.176784,0.0390306,0.0213385,-0.787377,0.0357628,0.00794785,0.34848,5,0.1,7,4,-1.07139,-1.88496,0.684299,-0.00025928,-0.00547171,0.000366569,0.00321865,0.0656247,-0.00441074,0.00959102,0.00014468,5,0.1,8,4,-1.71608,-0.665052,0.596725,0.71699,0.862311,0.00131726,-0.102282,-0.0742972,0,0.0340051,2.04936,5,0.1,9,4,-0.276995,-2.49917,0.600688,-0.0101171,0.866026,-0.000296533,0.0089705,0,0.000298023,0.0134882,2.27186,5,0.1,10,4,3.85369,-1.02289,0.658668,0.0564098,-0.866026,0.00620782,-0.0127554,0,-0.00140071,0.00869128,2.26991,5,0.1,11,4,-1.79856,2.38283,0.59996,0.00376999,-0.138289,0.000263751,-0.023067,-0.50056,-0.000953674,0.0174874,0.092698,5,0.1,12,4,-1.67481,1.24715,0.749345,0.0566363,-0.205362,0.00136942,-0.144958,-0.254095,-0.00369549,0.0100003,3.20174,5,0.1,13,4,0.36982,-1.49443,0.604452,-0.639482,-0.32703,-0.00457913,0.478595,0.249147,0.00503659,0.0121715,0.246498,5,0.1,14,4,-1.57017,-3.06515,0.5,0.306648,0.629961,-1.49012e-06,0.365853,1.24586,0,0.032738,2.33449,5,0.1,15,4,2.16503,-1.25863,0.508606,0.111151,0.0461698,-0.0155807,-0.371456,-0.158072,0.0529587,0.016658,0.014917,5,0.1,16,4,1.25247,3.73012,0.583297,-0.866026,0.206757,0.0110641,0,-0.0253916,-0.0025928,0.0145805,1.92158,5,0.1,17,4,1.2,1.33647,0.599004,-0.0350147,0.173879,0.00180751,-0.388265,0.226498,-0.00354648,0.024571,0.560981,5,0.1,18,4,0.498176,2.31699,0.601598,-0.00578314,0.162971,-0.00296831,0.0599921,-0.213027,0.00357628,0.0189096,0.26476,5,0.1,19,4,-1.02092,4.0021,0.749209,-0.104165,0.00706911,0.00251234,0.242233,-0.0801086,-0.00566244,0.0119021,3.58609,5,0.1
0,4.1,0.207193,3.03847,0.552464,0.00163827,0.0014361,-3.25963e-06,0.0294344,0.0263602,-0.000122935,0.0124157,0.000124145,5,0.1,1,4.1,1.59635,-0.885393,0.61953,-0.226374,0.847746,-0.0159589,0.0931323,-0.100262,0.00168011,0.0219422,0.741084,5,0.1,2,4.1,-1.79185,-3.37167,0.604934,0.866026,-0.128367,0.0117849,7.45058e-06,0.181839,-0.0204556,0.0116926,2.28051,5,0.1,3,4.1,1.59764,-2.99744,0.638989,0.237787,-0.863474,0.0356872,-0.0805929,-0.0218749,-0.0128821,0.013219,1.11055,5,0.1,4,4.1,-2.00443,2.41311,0.599191,0.0303362,-0.0758458,0.00118148,0.0718087,0.276133,-0.00090152,0.0116789,0.168424,5,0.1,5,4.1,-0.14826,-0.451718,0.629735,0.0431306,9.30857e-05,-4.74975e-06,-0.133055,0.0366736,-0.000569969,0.0104351,0.000475104,5,0.1,6,4.1,-1.72332,-1.26258,0.650559,0.181782,-0.215234,0.0385677,-0.384763,-0.0420064,-0.0384375,0.00794785,0.34848,5,0.1,7,4.1,-1.0714,-1.88521,0.684316,1.47149e-05,0.000119954,-9.40636e-06,0.00227243,0.0464469,-0.00312552,0.00959102,0.00014468,5,0.1,8,4.1,-1.64459,-0.579568,0.596858,0.714629,0.843405,0.00133701,0.0105947,-0.31149,0.000290573,0.0340051,2.04936,5,0.1,9,4.1,-0.277973,-2.41257,0.60066,-0.00952496,0.866026,-0.000276789,0.00368617,0,0.00012666,0.0134882,2.27186,5,0.1,10,4.1,3.85929,-1.10949,0.659284,0.0557084,-0.866026,0.00613052,-0.00451505,0,-0.000499189,0.00869128,2.26991,5,0.1,11,4.1,-1.79829,2.3665,0.599982,0.00169277,-0.187474,0.000178162,-0.018388,-0.462025,-0.000756234,0.0174874,0.092698,5,0.1,12,4.1,-1.66983,1.22548,0.749465,0.0433937,-0.229879,0.00103572,-0.120401,-0.356846,-0.00299886,0.0100003,3.20174,5,0.1,13,4.1,0.308158,-1.52607,0.604018,-0.594366,-0.306962,-0.00411961,0.441393,0.168756,0.00428408,0.0121715,0.246498,5,0.1,14,4.1,-1.53763,-2.99616,0.5,0.344023,0.746188,-1.39698e-06,0.355162,1.02934,3.72529e-06,0.032738,2.33449,5,0.1,15,4.1,2.17428,-1.25485,0.507328,0.0738118,0.0289345,-0.00989651,-0.366792,-0.179671,0.05861,0.016658,0.014917,5,0.1,16,4.1,1.16587,3.75071,0.584394,-0.866026,0.205389,0.0108818,0,-0.0124872,-0.00160933,0.0145805,1.92158,5,0.1,17,4.1,1.19411,1.35506,0.599168,-0.0862317,0.197957,0.00148127,-0.594549,0.237256,-0.00300631,0.024571,0.560981,5,0.1,18,4.1,0.498057,2.33224,0.601319,0.0058474,0.142187,-0.00261748,0.202455,-0.203863,0.00346079,0.0189096,0.26476,5,0.1,19,4.1,-1.03094,4.0025,0.749433,-0.103147,-0.0023447,0.00198288,-0.173703,-0.25633,-0.00493601,0.0119021,3.58609,5,0.1
0,4.2,0.207484,3.03873,0.552464,0.00396818,0.00352263,-1.3411e-05,0.0173673,0.0157356,-8.9407e-05,0.0118234,4.20966e-05,5,0.1,1,4.2,1.57424,-0.801328,0.617949,-0.214967,0.830732,-0.0155866,0.139236,-0.267982,0.00613928,0.019723,0.570355,5,0.1,2,4.2,-1.70525,-3.3835,0.606005,0.866026,-0.107366,0.0095889,-5.96046e-05,0.231385,-0.0230074,0.011339,2.2768,5,0.1,3,4.2,1.62096,-3.08374,0.642485,0.227803,-0.860065,0.0341132,-0.125051,0.118971,-0.0194609,0.0109841,0.806076,5,0.1,4,4.2,-2.00099,2.40686,0.599304,0.0384569,-0.0497818,0.00108629,0.0821948,0.240684,-0.000983477,0.0112453,0.14252,5,0.1,5,4.2,-0.144583,-0.451549,0.629732,0.0307024,0.00305548,-5.06639e-05,-0.114776,0.0228286,-0.000357628,0.0126025,0.000351981,5,0.1,6,4.2,-1.70744,-1.28349,0.654146,0.132978,-0.196037,0.0325218,-0.557423,0.377893,-0.0772476,0.0112671,0.169975,5,0.1,7,4.2,-1.07139,-1.885,0.684301,0.000196695,0.00387132,-0.00026226,0.00143051,0.0289083,-0.00190735,0.0115403,5.08518e-05,5,0.1,8,4.2,-1.57319,-0.497225,0.596993,0.711501,0.798994,0.00135899,-0.104785,-0.579268,5.96046e-05,0.0369901,2.34641,5,0.1,9,4.2,-0.27891,-2.32597,0.600633,-0.00923723,0.866026,-0.000268221,0.00268221,0,8.9407e-05,0.020051,2.27186,5,0.1,10,4.2,3.86483,-1.19609,0.659894,0.0549495,-0.866026,0.00604689,-0.0128746,0,-0.00143051,0.0107496,2.27002,5,0.1,11,4.2,-1.7982,2.34565,0.599997,0.000101328,-0.227147,0.000111759,-0.0133514,-0.317097,-0.000596046,0.0108746,0.1234,5,0.1,12,4.2,-1.66605,1.2,0.749554,0.0324607,-0.286707,0.00076592,-0.0987649,-0.758886,-0.00241399,0.00962837,2.88314,5,0.1,13,4.2,0.250985,-1.55594,0.603627,-0.548239,-0.290424,-0.00369996,0.493132,0.173926,0.00420213,0.0120828,0.168287,5,0.1,14,4.2,-1.50164,-2.91707,0.5,0.373188,0.828111,-1.49012e-06,0.209749,0.581384,0,0.0303694,2.19828,5,0.1,15,4.2,2.17989,-1.25285,0.506626,0.0392556,0.0114352,-0.0042215,-0.318527,-0.165284,0.0534058,0.014356,0.0104404,5,0.1,16,4.2,1.07927,3.77114,0.585472,-0.866026,0.202483,0.0106484,0,-0.0531673,-0.00345707,0.00845493,1.49458,5,0.1,17,4.2,1.18245,1.37594,0.599302,-0.146645,0.21829,0.00120252,-0.582397,0.15682,-0.0026226,0.0250571,0.863216,5,0.1,18,4.2,0.5,2.34545,0.601075,0.0362262,0.122011,-0.00227094,0.39047,-0.200152,0.00345707,0.0159199,0.208489,5,0.1,19,4.2,-1.04248,4,0.749608,-0.130337,-0.0573814,0.00152588,-0.332594,-0.828147,-0.00426173,0.0161238,3.13378,5,0.1
0,4.3,0.207952,3.03914,0.552462,0.0052524,0.00468902,-2.02097e-05,0.00858586,0.00782311,-4.84288e-05,0.0118234,4.20966e-05,5,0.1,1,4.3,1.55326,-0.719473,0.616421,-0.205919,0.806755,-0.0149689,0.057146,-0.244271,0.00666454,0.019723,0.570355,5,0.1,2,4.3,-1.61864,-3.39304,0.606848,0.866025,-0.0831872,0.00727009,1.49012e-05,0.246972,-0.0229925,0.011339,2.2768,5,0.1,3,4.3,1.64315,-3.16935,0.645803,0.216001,-0.852861,0.0322739,-0.118136,0.0680089,-0.0183806,0.0109841,0.806076,5,0.1,4,4.3,-1.99652,2.403,0.599408,0.0528213,-0.028393,0.000992324,0.186056,0.184909,-0.000920147,0.0112453,0.14252,5,0.1,5,4.3,-0.142059,-0.451147,0.629725,0.0200655,0.00481149,-7.8138e-05,-0.0973269,0.0125878,-0.00019744,0.0126025,0.000351981,5,0.1,6,4.3,-1.6971,-1.30073,0.656971,0.0728197,-0.14485,0.023661,-0.62266,0.610955,-0.0961944,0.0112671,0.169975,5,0.1,7,4.3,-1.07136,-1.88449,0.684267,0.000306405,0.00609439,-0.000408944,0.000782311,0.0159368,-0.00105426,0.0115403,5.08518e-05,5,0.1,8,4.3,-1.50226,-0.421086,0.59713,0.70898,0.716473,0.0013818,0.0100136,-1.01897,0.000301749,0.0369901,2.34641,5,0.1,9,4.3,-0.279828,-2.23937,0.600606,-0.0091685,0.866026,-0.000265893,-0.000558794,0,-1.86265e-05,0.020051,2.27186,5,0.1,10,4.3,3.87028,-1.28269,0.660493,0.0542119,-0.866026,0.00596428,-0.00500679,0,-0.000569969,0.0107496,2.27002,5,0.1,11,4.3,-1.79825,2.32129,0.600005,-0.00102259,-0.259999,6.03497e-05,-0.00916421,-0.31738,-0.000439584,0.0108746,0.1234,5,0.1,12,4.3,-1.66326,1.16642,0.74962,0.0236167,-0.393295,0.000551995,-0.0785962,-1.26808,-0.00188127,0.00962837,2.88314,5,0.1,13,4.3,0.198499,-1.58423,0.603276,-0.502367,-0.276007,-0.00331895,0.439213,0.127666,0.00352785,0.0120828,0.168287,5,0.1,14,4.3,-1.46322,-2.83223,0.5,0.395299,0.861445,-1.02445e-06,0.207439,0.139013,1.11759e-05,0.0303694,2.19828,5,0.1,15,4.3,2.18229,-1.25251,0.506465,0.0094112,-0.00452176,0.000908319,-0.273511,-0.149757,0.0479557,0.014356,0.0104404,5,0.1,16,4.3,0.99267,3.79116,0.586521,-0.865869,0.197902,0.0103514,0.00626221,-0.0469089,-0.00292435,0.00845493,1.49458,5,0.1,17,4.3,1.1646,1.39887,0.59941,-0.212253,0.242716,0.000965782,-0.688426,0.297993,-0.00213087,0.0250571,0.863216,5,0.1,18,4.3,0.505723,2.35668,0.600864,0.0791173,0.102931,-0.00193939,0.444382,-0.182211,0.00318885,0.0159199,0.208489,5,0.1,19,4.3,-1.05751,3.98887,0.74974,-0.172825,-0.175013,0.00113733,-0.480436,-1.41802,-0.00351667,0.0161238,3.13378,5,0.1
0,4.4,0.208508,3.03964,0.55246,0.00573881,0.00513792,-2.23517e-05,0.00141561,0.0013113,-2.98023e-05,0.00909344,1.27183e-05,5,0.1,1,4.4,1.53293,-0.640198,0.614961,-0.200859,0.776373,-0.0141799,0.0553727,-0.385761,0.00947714,0.0196009,0.395042,5,0.1,2,4.4,-1.53204,-3.40013,0.607462,0.866026,-0.0589013,0.00505596,-5.96046e-05,0.234723,-0.0209808,0.00974755,2.27465,5,0.1,3,4.4,1.66412,-3.25409,0.648934,0.202975,-0.839186,0.0302613,-0.147104,0.2352,-0.0225604,0.00957033,0.567122,5,0.1,4,4.4,-1.99026,2.40098,0.599502,0.0723541,-0.0130475,0.00089705,0.190437,0.121713,-0.000953674,0.0140214,0.214807,5,0.1,5,4.4,-0.140507,-0.450618,0.629717,0.0113342,0.00563189,-9.08971e-05,-0.0769794,0.00412762,-5.96046e-05,0.00984145,0.000204379,5,0.1,6,4.4,-1.69288,-1.31201,0.658851,0.0124604,-0.0800133,0.0139475,-0.567615,0.658989,-0.0951886,0.00785497,0.116891,5,0.1,7,4.4,-1.07133,-1.88382,0.684222,0.000357628,0.0071317,-0.000476837,0.000238419,0.00524521,-0.000357628,0.0110727,1.54256e-05,5,0.1,8,4.4,-1.43142,-0.354909,0.597269,0.705913,0.604317,0.00140369,-0.102937,-1.18515,2.98023e-05,0.0305824,2.62767,5,0.1,9,4.4,-0.280748,-2.15276,0.600579,-0.00922009,0.866026,-0.000268221,7.45058e-05,0,0,0.0163185,2.27186,5,0.1,10,4.4,3.87566,-1.3693,0.661086,0.0534117,-0.866026,0.00587553,-0.013113,0,-0.00146031,0.00814125,2.06877,5,0.1,11,4.4,-1.79839,2.29386,0.600009,-0.00174344,-0.286788,2.38419e-05,-0.00530481,-0.202656,-0.000327826,0.0102683,0.196167,5,0.1,12,4.4,-1.66127,1.12062,0.749666,0.0166476,-0.521991,0.00038743,-0.061214,-1.22738,-0.00146031,0.0113062,2.52299,5,0.1,13,4.4,0.150468,-1.61118,0.602962,-0.457881,-0.262621,-0.00297576,0.460767,0.149488,0.00336766,0.0103628,0.118394,5,0.1,14,4.4,-1.42282,-2.74574,0.5,0.410432,0.866026,0,0.0780225,0,0,0.0323843,2.18306,5,0.1,15,4.4,2.18197,-1.25366,0.506779,-0.0146687,-0.0178397,0.00516772,-0.205159,-0.113964,0.0363886,0.0136039,0.00561532,5,0.1,16,4.4,0.906164,3.81067,0.58754,-0.863522,0.191671,0.00998676,0.0500977,-0.0835657,-0.00464916,0.0169607,2.25458,5,0.1,17,4.4,1.14003,1.42464,0.599496,-0.277179,0.27203,0.00077188,-0.579774,0.263393,-0.00178814,0.0290083,0.671814,5,0.1,18,4.4,0.51579,2.36608,0.600686,0.12113,0.0854373,-0.00163168,0.379056,-0.168204,0.00301003,0.0192444,0.192976,5,0.1,19,4.4,-1.07719,3.96403,0.749838,-0.220028,-0.322264,0.000818074,-0.436306,-1.44625,-0.00280142,0.0185238,2.66731,5,0.1
0,4.5,0.20908,3.04015,0.552457,0.00562482,0.00503995,-2.36556e-05,-0.0034105,-0.00299513,0,0.00909344,1.27183e-05,5,0.1,1,4.5,1.51303,-0.56437,0.613589,-0.197776,0.740699,-0.0132718,0.0184327,-0.354521,0.00906363,0.0196009,0.395042,5,0.1,2,4.5,-1.44544,-3.40487,0.607866,0.866025,-0.0361659,0.00305912,1.49012e-05,0.216544,-0.0187196,0.00974755,2.27465,5,0.1,3,4.5,1.68372,-3.33696,0.651853,0.189225,-0.8187,0.0281522,-0.133857,0.209123,-0.0204965,0.00957033,0.567122,5,0.1,4,4.5,-1.98201,2.40017,0.599587,0.0930587,-0.00405833,0.000801496,0.21065,0.0617206,-0.000961125,0.0140214,0.214807,5,0.1,5,4.5,-0.13973,-0.450044,0.629707,0.00447554,0.00573802,-9.21078e-05,-0.05998,-0.00169314,3.35276e-05,0.00984145,0.000204379,5,0.1,6,4.5,-1.69441,-1.31665,0.659772,-0.0420144,-0.0127958,0.00455314,-0.50851,0.663616,-0.0903942,0.00785497,0.116891,5,0.1,7,4.5,-1.07129,-1.88309,0.684173,0.000361912,0.00726692,-0.000486523,-0.00012666,-0.00214577,0.00013411,0.0110727,1.54256e-05,5,0.1,8,4.5,-1.36105,-0.300708,0.59741,0.703213,0.478635,0.00142185,0.00558794,-1.25278,0.000242144,0.0305824,2.62767,5,0.1,9,4.5,-0.281675,-2.06616,0.600552,-0.00934955,0.866026,-0.000272691,-0.00197068,0,-6.70552e-05,0.0163185,2.27186,5,0.1,10,4.5,3.88096,-1.4559,0.661668,0.0525311,-0.866026,0.00577718,-0.00730157,0,-0.000812113,0.00814125,2.06877,5,0.1,11,4.5,-1.79859,2.26395,0.60001,-0.00214018,-0.312809,-2.8871e-06,-0.00268221,-0.286058,-0.000212342,0.0102683,0.196167,5,0.1,12,4.5,-1.6598,1.06191,0.749698,0.0136269,-0.653786,0.000261329,-0.00482053,-1.32629,-0.00108033,0.0113062,2.52299,5,0.1,13,4.5,0.107035,-1.63675,0.60268,-0.410237,-0.249222,-0.0026647,0.493118,0.128217,0.00292808,0.0103628,0.118394,5,0.1,14,4.5,-1.38148,-2.65915,0.5,0.415218,0.865418,0,0.00456721,-0.0243038,0,0.0323843,2.18306,5,0.1,15,4.5,2.17956,-1.25597,0.507464,-0.0326145,-0.0279434,0.00838768,-0.151768,-0.0861883,0.0274405,0.0136039,0.00561532,5,0.1,16,4.5,0.819849,3.82947,0.588487,-0.864105,0.184739,0.00870405,-0.0312962,-0.0636131,-0.0194646,0.0169607,2.25458,5,0.1,17,4.5,1.10937,1.45327,0.599565,-0.335735,0.30108,0.000613276,-0.559673,0.291631,-0.00140443,0.0290083,0.671814,5,0.1,18,4.5,0.529373,2.37386,0.600537,0.146545,0.0708614,-0.00134883,0.140056,-0.126526,0.00266358,0.0192444,0.192976,5,0.1,19,4.5,-1.10149,3.92415,0.749907,-0.26629,-0.47728,0.000567827,-0.459738,-1.57075,-0.00221655,0.0185238,2.66731,5,0.1
0,4.6,0.209619,3.04064,0.552455,0.00510998,0.00457764,-2.38419e-05,-0.00663102,-0.00572205,5.96046e-05,0.0118078,7.33442e-06,5,0.1,1,4.6,1.49336,-0.492199,0.612309,-0.195092,0.700964,-0.0123024,0.0440478,-0.458419,0.0105202,0.0264786,0.269647,5,0.1,2,4.6,-1.35884,-3.40746,0.608084,0.866026,-0.0161827,0.00135154,-5.96046e-05,0.18096,-0.015229,0.0139909,2.27291,5,0.1,3,4.6,1.70195,-3.4176,0.654563,0.175202,-0.791532,0.0260144,-0.15074,0.357866,-0.0228584,0.0151609,0.390029,5,0.1,4,4.6,-1.9717,2.4,0.599663,0.11225,-1.19209e-05,0.000703335,0.163853,0.0222921,-0.00101328,0.0150449,0.300084,5,0.1,5,4.6,-0.139553,-0.449486,0.629698,-0.000638887,0.00535324,-8.64267e-05,-0.042282,-0.00573695,0.000119209,0.0117387,9.23e-05,5,0.1,6,4.6,-1.70096,-1.31475,0.659798,-0.0870049,0.0489801,-0.00373721,-0.382364,0.556409,-0.0738204,0.0127688,0.0691575,5,0.1,7,4.6,-1.07126,-1.88239,0.684126,0.000336766,0.00678003,-0.000454485,-0.000357628,-0.00727177,0.000476837,0.0168854,7.7566e-06,5,0.1,8,4.6,-1.29081,-0.258749,0.597553,0.699612,0.365226,0.00143498,-0.10848,-0.976436,-2.98023e-05,0.0349202,2.68084,5,0.1,9,4.6,-0.282618,-1.97956,0.600525,-0.00949502,0.866026,-0.000278652,-0.000476837,-5.96046e-05,-2.98023e-05,0.0181163,2.21459,5,0.1,10,4.6,3.88616,-1.5425,0.662241,0.0514805,-0.866026,0.00565946,-0.0157356,0,-0.00172853,0.0134893,1.63079,5,0.1,11,4.6,-1.79881,2.23131,0.600009,-0.0022918,-0.338542,-2.08616e-05,-0.000417233,-0.205636,-8.9407e-05,0.0100883,0.119986,5,0.1,12,4.6,-1.65841,0.990293,0.74972,0.0146806,-0.773203,0.000169873,0.0213385,-1.00386,-0.00077486,0.0130463,2.0396,5,0.1,13,4.6,0.0685353,-1.661,0.602428,-0.35918,-0.235334,-0.00237823,0.527782,0.156164,0.00289083,0.0756434,0.15322,5,0.1,14,4.6,-1.34014,-2.57292,0.5,0.40921,0.856304,0,-0.133038,-0.19443,0,0.051973,2.38835,5,0.1,15,4.6,2.17564,-1.25914,0.508422,-0.0447392,-0.0347883,0.0105694,-0.0898838,-0.0495911,0.0158846,0.0304556,0.00224275,5,0.1,16,4.6,0.733315,3.8476,0.589246,-0.866026,0.177485,0.00637323,0,-0.0872612,-0.025928,0.0149568,2.25475,5,0.1,17,4.6,1.07324,1.48471,0.59962,-0.383735,0.325912,0.000488758,-0.378251,0.186563,-0.00116229,0.0266696,0.497462,5,0.1,18,4.6,0.544407,2.38037,0.600415,0.151192,0.059557,-0.00109673,-0.0374317,-0.101924,0.00235438,0.0168676,0.177561,5,0.1,19,4.6,-1.13026,3.86893,0.749953,-0.306979,-0.62207,0.000374019,-0.333309,-1.26505,-0.00169873,0.0142645,2.05294,5,0.1
0,4.7,0.210093,3.04106,0.552453,0.00434206,0.00390708,-1.79745e-05,-0.00848249,-0.00745058,5.58794e-05,0.0118078,7.33442e-06,5,0.1,1,4.7,1.47402,-0.424266,0.611129,-0.191973,0.658427,-0.0113141,0.0279993,-0.414491,0.00956655,0.0264786,0.269647,5,0.1,2,4.7,-1.27223,-3.40821,0.608147,0.866025,0.00073649,-5.39236e-05,1.49012e-05,0.154898,-0.012707,0.0139909,2.27291,5,0.1,3,4.7,1.71876,-3.49508,0.657056,0.161235,-0.758607,0.023897,-0.133604,0.328854,-0.0202283,0.0151609,0.390029,5,0.1,4,4.7,-1.95961,2.40007,0.599728,0.129784,0.00099577,0.000607036,0.173606,0.000491738,-0.000923872,0.0150449,0.300084,5,0.1,5,4.7,-0.139806,-0.448984,0.62969,-0.00418234,0.00464427,-7.29226e-05,-0.0286717,-0.0081677,0.000145286,0.0117387,9.23e-05,5,0.1,6,4.7,-1.71143,-1.3072,0.659076,-0.120751,0.100641,-0.010488,-0.286087,0.464961,-0.0599846,0.0127688,0.0691575,5,0.1,7,4.7,-1.07123,-1.88175,0.684083,0.000292435,0.00588149,-0.00039516,-0.000521541,-0.0103414,0.000689179,0.0168854,7.7566e-06,5,0.1,8,4.7,-1.22116,-0.226646,0.597697,0.694945,0.28394,0.00144355,-0.0246465,-0.561478,0.000119209,0.0349202,2.68084,5,0.1,9,4.7,-0.283574,-1.89296,0.600497,-0.00964096,0.866025,-0.000284519,-0.00180677,1.49012e-05,-7.07805e-05,0.0181163,2.21459,5,0.1,10,4.7,3.89124,-1.6291,0.662799,0.0501659,-0.865975,0.00551501,-0.0128001,0.00204146,-0.00141189,0.0134893,1.63079,5,0.1,11,4.7,-1.79904,2.19643,0.600007,-0.00226218,-0.358695,-2.71015e-05,0.000961125,-0.17722,-3.35276e-05,0.0100883,0.119986,5,0.1,12,4.7,-1.65686,0.908902,0.749733,0.0159767,-0.845259,0.000110175,0.0051409,-0.445195,-0.00044331,0.0130463,2.0396,5,0.1,13,4.7,0.0350155,-1.68392,0.602203,-0.313275,-0.224441,-0.00212137,0.403747,0.0770912,0.00232458,0.0756434,0.15322,5,0.1,14,4.7,-1.30004,-2.48872,0.5,0.391154,0.823063,0,-0.230521,-0.469625,0,0.051973,2.38835,5,0.1,15,4.7,2.17079,-1.26283,0.509545,-0.0515264,-0.0384891,0.0117583,-0.0457019,-0.0239387,0.00775605,0.0304556,0.00224275,5,0.1,16,4.7,0.646712,3.86498,0.589743,-0.866026,0.170577,0.00350634,3.72529e-06,-0.0596046,-0.0302382,0.0149568,2.25475,5,0.1,17,4.7,1.03301,1.51812,0.599664,-0.419923,0.340838,0.000387896,-0.320755,0.100479,-0.000875443,0.0266696,0.497462,5,0.1,18,4.7,0.559011,2.38582,0.600317,0.138121,0.0495944,-0.000878796,-0.202999,-0.0970811,0.00201166,0.0168676,0.177561,5,0.1,19,4.7,-1.16263,3.80062,0.749983,-0.339857,-0.740587,0.000226125,-0.30157,-1.05523,-0.0012666,0.0142645,2.05294,5,0.1
0,4.8,0.210484,3.04141,0.552451,0.00345707,0.00312328,-1.3411e-05,-0.00902265,-0.00810623,8.9407e-05,0.0111313,6.9751e-06,5,0.1,1,4.8,1.455,-0.36057,0.610046,-0.187847,0.614335,-0.0103354,0.0612736,-0.4825,0.010252,0.0188172,0.182353,5,0.1,2,4.8,-1.18563,-3.40742,0.608083,0.866026,0.0143766,-0.0011608,-5.96046e-05,0.116229,-0.00938773,0.0111173,2.27169,5,0.1,3,4.8,1.73421,-3.56916,0.659344,0.147638,-0.721008,0.0218451,-0.141859,0.442386,-0.0213087,0.00990017,0.264271,5,0.1,4,4.8,-1.94583,2.40015,0.599784,0.144729,0.000536442,0.00051707,0.116169,-0.00751019,-0.000864267,0.0144795,0.285476,5,0.1,5,4.8,-0.140345,-0.448563,0.629684,-0.00640005,0.0037685,-5.81145e-05,-0.0158697,-0.00913441,0.000149012,0.0106127,3.34508e-05,5,0.1,6,4.8,-1.72474,-1.29504,0.657758,-0.143206,0.140035,-0.0155389,-0.159383,0.315309,-0.0402927,0.0119847,0.0327418,5,0.1,7,4.8,-1.0712,-1.88122,0.684047,0.000238419,0.00477135,-0.000321865,-0.000596046,-0.0115633,0.00077486,0.00801672,7.14669e-06,5,0.1,8,4.8,-1.15191,-0.2,0.597842,0.687897,0.259221,0.00144541,-0.144303,0.0421929,-0.000208616,0.0386544,2.21201,5,0.1,9,4.8,-0.284545,-1.80635,0.600468,-0.00974834,0.866026,-0.000289083,0.000119209,-5.96046e-05,-2.98023e-05,0.00722164,0.994443,5,0.1,10,4.8,3.89619,-1.71567,0.663343,0.048542,-0.865209,0.0053376,-0.0212193,0.0162721,-0.00235438,0.0106439,1.24959,5,0.1,11,4.8,-1.79926,2.15985,0.600004,-0.00210702,-0.370586,-2.83122e-05,0.00196695,-0.0470877,-2.98023e-05,0.0117393,0.183002,5,0.1,12,4.8,-1.65526,0.822965,0.749742,0.0158191,-0.866026,7.7486e-05,-0.00780821,0,-0.000208616,0.0110505,0.346015,5,0.1,13,4.8,0.00559195,-1.70601,0.602003,-0.276085,-0.217247,-0.0018999,0.350085,0.0780225,0.00217557,0.0106405,0.249007,5,0.1,14,4.8,-1.26225,-2.40921,0.5,0.362828,0.76285,0,-0.336468,-0.730515,0,0.024219,2.7643,5,0.1,15,4.8,2.16548,-1.26675,0.510745,-0.0539064,-0.0395268,0.0121072,-0.00202656,0.00321865,-0.00077486,0.0132577,0.000655071,5,0.1,16,4.8,0.560109,3.88173,0.589944,-0.866026,0.164074,0.000531971,0,-0.0767708,-0.028342,0.0121698,2.25663,5,0.1,17,4.8,0.989678,1.55248,0.599698,-0.443742,0.344151,0.000309944,-0.138879,-0.0411868,-0.000655651,0.02976,0.390354,5,0.1,18,4.8,0.571674,2.3903,0.600238,0.114211,0.0401855,-0.000691414,-0.259906,-0.0905991,0.00169873,0.0208859,0.246919,5,0.1,19,4.8,-1.19792,3.72196,0.75,-0.363466,-0.825107,0.000117719,-0.155091,-0.605226,-0.000923872,0.0118624,1.53581,5,0.1
0,4.9,0.210784,3.04168,0.55245,0.00254754,0.00230484,-5.7742e-06,-0.00899099,-0.00809133,6.70552e-05,0.0111313,6.9751e-06,5,0.1,1,4.9,1.43649,-0.301412,0.609061,-0.182549,0.569715,-0.0093855,0.0524968,-0.42835,0.00902265,0.0188172,0.182353,5,0.1,2,4.9,-1.09903,-3.40543,0.607923,0.866025,0.025019,-0.00200886,1.49012e-05,0.0944436,-0.00742078,0.0111173,2.27169,5,0.1,3,4.9,1.74831,-3.63917,0.661429,0.134592,-0.679974,0.0198863,-0.123248,0.401601,-0.0184886,0.00990017,0.264271,5,0.1,4,4.9,-1.93083,2.40017,0.599832,0.154819,-9.90927e-05,0.000435021,0.0787452,-0.00506639,-0.000778586,0.0144795,0.285476,5,0.1,5,4.9,-0.141049,-0.448233,0.629679,-0.00751596,0.00283308,-4.32134e-05,-0.00669435,-0.00937283,0.000149012,0.0106127,3.34508e-05,5,0.1,6,4.9,-1.73972,-1.27962,0.656025,-0.154953,0.166452,-0.0188819,-0.0734106,0.207871,-0.0260957,0.0119847,0.0327418,5,0.1,7,4.9,-1.07118,-1.8808,0.684019,0.000177696,0.00358708,-0.000242423,-0.000596046,-0.0118762,0.000793487,0.00801672,7.14669e-06,5,0.1,8,4.9,-1.08371,-0.172661,0.597985,0.676802,0.297368,0.00143098,-0.109397,0.633052,-0.000145286,0.0386544,2.21201,5,0.1,9,4.9,-0.286378,-1.72168,0.600435,-0.0341007,0.810519,-0.000407267,-0.432223,-1.02281,-0.00206754,0.00722164,0.994443,5,0.1,10,4.9,3.90094,-1.80219,0.663866,0.0466254,-0.86528,0.00512525,-0.0189394,0.00128895,-0.00209361,0.0106439,1.24959,5,0.1,11,4.9,-1.79946,2.12234,0.600001,-0.00185128,-0.380984,-2.91504e-05,0.00303239,-0.130787,1.11759e-05,0.0117393,0.183002,5,0.1,12,4.9,-1.65373,0.736622,0.749749,0.014684,-0.857778,6.53788e-05,-0.0145137,0.183191,-5.21541e-05,0.0110505,0.346015,5,0.1,13,4.9,-0.0205947,-1.72713,0.601822,-0.250391,-0.203152,-0.0017358,0.185043,0.196882,0.0012368,0.0106405,0.249007,5,0.1,14,4.9,-1.2276,-2.33695,0.5,0.330438,0.679056,0,-0.318609,-0.930175,0,0.024219,2.7643,5,0.1,15,4.9,2.16013,-1.27066,0.511943,-0.052657,-0.0383234,0.0117524,0.026226,0.0205562,-0.00622123,0.0132577,0.000655071,5,0.1,16,4.9,0.473507,3.89782,0.589854,-0.866026,0.158296,-0.00232831,3.57628e-06,-0.0474453,-0.0279173,0.0121698,2.25663,5,0.1,17,4.9,0.944644,1.58621,0.599726,-0.456086,0.326045,0.000254158,-0.0882335,-0.303067,-0.000473112,0.02976,0.390354,5,0.1,18,4.9,0.581668,2.39388,0.600177,0.0852584,0.0315372,-0.000537001,-0.286404,-0.0820309,0.00139326,0.0208859,0.246919,5,0.1,19,4.9,-1.23502,3.63729,0.750007,-0.377925,-0.860804,4.014e-05,-0.116087,-0.155583,-0.000637025,0.0118624,1.53581,5,0.1
