id,t,px,py,pz,vx,vy,vz,ax,ay,az,planning_time,qp_cost,planning_report,size,id,t,px,py,pz,vx,vy,vz,ax,ay,az,planning_time,qp_cost,planning_report,size,id,t,px,py,pz,vx,vy,vz,ax,ay,az,planning_time,qp_cost,planning_report,size,id,t,px,py,pz,vx,vy,vz,ax,ay,az,planning_time,qp_cost,planning_report,size,id,t,px,py,pz,vx,vy,vz,ax,ay,az,planning_time,qp_cost,planning_report,size,id,t,px,py,pz,vx,vy,vz,ax,ay,az,planning_time,qp_cost,planning_report,size,id,t,px,py,pz,vx,vy,vz,ax,ay,az,planning_time,qp_cost,planning_report,size,id,t,px,py,pz,vx,vy,vz,ax,ay,az,planning_time,qp_cost,planning_report,size,id,t,px,py,pz,vx,vy,vz,ax,ay,az,planning_time,qp_cost,planning_report,size,id,t,px,py,pz,vx,vy,vz,ax,ay,az,planning_time,qp_cost,planning_report,size,id,t,px,py,pz,vx,vy,vz,ax,ay,az,planning_time,qp_cost,planning_report,size,id,t,px,py,pz,vx,vy,vz,ax,ay,az,planning_time,qp_cost,planning_report,size,id,t,px,py,pz,vx,vy,vz,ax,ay,az,planning_time,qp_cost,planning_report,size,id,t,px,py,pz,vx,vy,vz,ax,ay,az,planning_time,qp_cost,planning_report,size,id,t,px,py,pz,vx,vy,vz,ax,ay,az,planning_time,qp_cost,planning_report,size,id,t,px,py,pz,vx,vy,vz,ax,ay,az,planning_time,qp_cost,planning_report,size,id,t,px,py,pz,vx,vy,vz,ax,ay,az,planning_time,qp_cost,planning_report,size,id,t,px,py,pz,vx,vy,vz,ax,ay,az,planning_time,qp_cost,planning_report,size,id,t,px,py,pz,vx,vy,vz,ax,ay,az,planning_time,qp_cost,planning_report,size,id,t,px,py,pz,vx,vy,vz,ax,ay,az,planning_time,qp_cost,planning_report,size
0,0,-3.45642,3.08094,0.645822,0,0,0,0,0,0,0.0075121,3.36193,5,0.1,1,0,-3.7638,-2.43913,0.557936,0,0,0,0,0,0,0.0219236,3.5122,5,0.1,2,0,0.249085,1.63847,0.568108,0,0,0,0,0,0,0.015961,0.434427,5,0.1,3,0,-3.60207,4.14238,0.620691,0,0,0,0,0,0,0.0102565,3.5122,5,0.1,4,0,-0.187368,-3.56604,0.582105,0,0,0,0,0,0,0.0107929,3.51219,5,0.1,5,0,0.46263,3.28059,0.528142,0,0,0,0,0,0,0.00720411,0.531632,5,0.1,6,0,-3.81176,0.851819,0.616783,0,0,0,0,0,0,0.00920637,2.70129,5,0.1,7,0,2.07132,-2.27006,0.642346,0,0,0,0,0,0,0.00651111,0.862198,5,0.1,8,0,-3.89134,-3.50304,0.647083,0,0,0,0,0,0,0.010468,3.49953,5,0.1,9,0,2.3872,-4.09232,0.599161,0,0,0,0,0,0,0.00820114,3.20309,5,0.1,10,0,3.87792,3.67068,0.641012,0,0,0,0,0,0,0.0112787,2.14118,5,0.1,11,0,-2.47986,3.44308,0.673216,0,0,0,0,0,0,0.0102948,1.66039,5,0.1,12,0,3.52668,-2.68462,0.545189,0,0,0,0,0,0,0.015607,3.51219,5,0.1,13,0,4.34852,-3.90034,0.523936,0,0,0,0,0,0,0.0150905,3.5122,5,0.1,14,0,1.92492,-2.8569,0.68263,0,0,0,0,0,0,0.00840788,1.27503,5,0.1,15,0,-1.90736,4.04079,0.500618,0,0,0,0,0,0,0.00822812,0.467554,5,0.1,16,0,1.34168,-3.76281,0.511177,0,0,0,0,0,0,0.01583,2.01285,5,0.1,17,0,-2.17971,-3.86765,0.60755,0,0,0,0,0,0,0.0291542,3.51219,5,0.1,18,0,-0.153844,-1.43281,0.618542,0,0,0,0,0,0,0.00748429,3.11694,5,0.1,19,0,3.74825,-4.3113,0.535468,0,0,0,0,0,0,0.00947346,3.5122,5,0.1
0,0.1,-3.45444,3.08043,0.645777,0.0561401,-0.0144605,-0.00127899,0.99805,-0.25706,-0.0227429,0.0075121,3.36193,5,0.1,1,0.1,-3.76238,-2.43759,0.557967,0.0400774,0.0436559,0.0008584,0.712484,0.776112,0.0152625,0.0219236,3.5122,5,0.1,2,0.1,0.248512,1.63801,0.568141,-0.0162717,-0.0129936,0.000945106,-0.289273,-0.231005,0.0168011,0.015961,0.434427,5,0.1,3,0.1,-3.60057,4.14093,0.620674,0.0426065,-0.0411943,-0.000489224,0.757471,-0.732362,-0.00869855,0.0102565,3.5122,5,0.1,4,0.1,-0.187522,-3.56396,0.582115,-0.00435316,0.0591073,0.000296626,-0.0773882,1.05079,0.00527129,0.0107929,3.51219,5,0.1,5,0.1,0.461978,3.28011,0.528216,-0.0184939,-0.0136133,0.00209026,-0.328779,-0.24201,0.037156,0.00720411,0.531632,5,0.1,6,0.1,-3.81013,0.852652,0.616765,0.0462811,0.0236535,-0.000497419,0.822768,0.420503,-0.00884011,0.00920637,2.70129,5,0.1,7,0.1,2.07041,-2.26957,0.642302,-0.0258211,0.0139296,-0.00125496,-0.45906,0.247657,-0.0223108,0.00651111,0.862198,5,0.1,8,0.1,-3.89057,-3.50111,0.647034,0.0219692,0.0549134,-0.00139531,0.390545,0.97622,-0.024803,0.010468,3.49953,5,0.1,9,0.1,2.3853,-4.0917,0.599227,-0.0538208,0.0174195,0.00187596,-0.956804,0.309646,0.0333525,0.00820114,3.20309,5,0.1,10,0.1,3.87653,3.66982,0.640969,-0.0393517,-0.0243198,-0.00121519,-0.69958,-0.432357,-0.0216067,0.0112787,2.14118,5,0.1,11,0.1,-2.47915,3.44183,0.673139,0.0201475,-0.0353556,-0.0021697,0.358179,-0.628546,-0.0385754,0.0102948,1.66039,5,0.1,12,0.1,3.52664,-2.68253,0.545211,-0.000893697,0.0592586,0.000638887,-0.0158995,1.05347,0.0113547,0.015607,3.51219,5,0.1,13,0.1,4.3482,-3.89828,0.523914,-0.00890344,0.0585925,-0.000627898,-0.15825,1.04164,-0.011161,0.0150905,3.5122,5,0.1,14,0.1,1.92432,-2.8558,0.682701,-0.0170369,0.0313211,0.00199648,-0.302881,0.556812,0.0354908,0.00840788,1.27503,5,0.1,15,0.1,-1.90689,4.04021,0.50077,0.0132602,-0.0165276,0.00431798,0.235736,-0.293821,0.0767633,0.00822812,0.467554,5,0.1,16,0.1,1.34169,-3.76123,0.511113,0.000246242,0.0448301,-0.00181301,0.00438094,0.797004,-0.0322349,0.01583,2.01285,5,0.1,17,0.1,-2.17863,-3.86586,0.607546,0.0306021,0.0507563,-0.000123028,0.544026,0.902325,-0.00218675,0.0291542,3.51219,5,0.1,18,0.1,-0.151901,-1.43311,0.6185,0.0551699,-0.00850428,-0.00117058,0.9808,-0.15118,-0.0208057,0.00748429,3.11694,5,0.1,19,0.1,3.74816,-4.30921,0.535474,-0.00242144,0.0592187,0.000151899,-0.0430644,1.05274,0.00270084,0.00947346,3.5122,5,0.1
0,0.2,-3.44304,3.07749,0.645517,0.177431,-0.0457048,-0.00404119,1.33073,-0.342727,-0.0303388,0.00725716,2.7583,5,0.1,1,0.2,-3.75424,-2.42872,0.558141,0.126666,0.137973,0.0027135,0.949979,1.03474,0.0203252,0.0214162,2.9258,5,0.1,2,0.2,0.245207,1.63537,0.568333,-0.0514265,-0.0410676,0.00298768,-0.385702,-0.307918,0.0223815,0.0147091,0.356427,5,0.1,3,0.2,-3.59191,4.13257,0.620574,0.134659,-0.1302,-0.00154674,1.00994,-0.976562,-0.0115931,0.0113618,2.92579,5,0.1,4,0.2,-0.188406,-3.55195,0.582175,-0.0137582,0.186813,0.000937283,-0.103183,1.40095,0.00703335,0.0103344,3.15734,5,0.1,5,0.2,0.458222,3.27735,0.528641,-0.0584498,-0.0430226,0.00660717,-0.438377,-0.3227,0.0495315,0.0128542,0.436177,5,0.1,6,0.2,-3.80073,0.857457,0.616664,0.14627,0.0747561,-0.00157207,1.09708,0.560671,-0.0117719,0.0122101,2.21627,5,0.1,7,0.2,2.06517,-2.26674,0.642047,-0.0816047,0.044024,-0.00396669,-0.61214,0.33021,-0.0297427,0.0109489,0.707386,5,0.1,8,0.2,-3.88611,-3.48996,0.64675,0.0694335,0.173557,-0.00440925,0.520706,1.30153,-0.0330806,0.0311219,2.8712,5,0.1,9,0.2,2.37437,-4.08816,0.599609,-0.1701,0.0550508,0.00592917,-1.27578,0.412941,0.0444651,0.0196614,2.62797,5,0.1,10,0.2,3.86854,3.66488,0.640722,-0.124371,-0.0768661,-0.00384152,-0.932813,-0.576377,-0.028789,0.0202135,1.75673,5,0.1,11,0.2,-2.47505,3.43465,0.672698,0.0636697,-0.111741,-0.00685751,0.477672,-0.838161,-0.0514388,0.0115052,1.36226,5,0.1,12,0.2,3.52646,-2.67049,0.545341,-0.00282526,0.187284,0.00201911,-0.0212193,1.40464,0.0151396,0.0163848,2.92579,5,0.1,13,0.2,4.34639,-3.88638,0.523786,-0.0281453,0.18518,-0.00198334,-0.210762,1.38891,-0.0149012,0.0157077,2.92579,5,0.1,14,0.2,1.92086,-2.84944,0.683106,-0.0538468,0.0989854,0.00630915,-0.403821,0.742555,0.0473261,0.00837156,1.04609,5,0.1,15,0.2,-1.9042,4.03685,0.501648,0.041911,-0.0522375,0.013648,0.314295,-0.391722,0.102341,0.00863323,0.383604,5,0.1,16,0.2,1.34174,-3.75213,0.510745,0.000777841,0.141686,-0.0057295,0.00590086,1.06263,-0.0429749,0.0175214,1.65149,5,0.1,17,0.2,-2.17241,-3.85555,0.607521,0.0967205,0.160414,-0.00038743,0.725269,1.20318,-0.00295043,0.0317454,2.92579,5,0.1,18,0.2,-0.140694,-1.43483,0.618263,0.174364,-0.0268757,-0.00369996,1.30773,-0.201643,-0.027746,0.00874559,2.55729,5,0.1,19,0.2,3.74767,-4.29718,0.535504,-0.00765324,0.187159,0.000479817,-0.0573397,1.40381,0.00360608,0.00873773,2.92578,5,0.1
0,0.3,-3.41791,3.07102,0.644944,0.330081,-0.0850201,-0.00752071,1.6284,-0.419408,-0.0371151,0.00725716,2.7583,5,0.1,1,0.3,-3.73629,-2.40917,0.558525,0.235923,0.256978,0.00505196,1.16751,1.27171,0.024993,0.0214162,2.9258,5,0.1,2,0.3,0.237923,1.62955,0.568756,-0.0956707,-0.0763919,0.0055558,-0.471974,-0.376835,0.0273995,0.0147091,0.356427,5,0.1,3,0.3,-3.57283,4.11411,0.620355,0.250811,-0.242511,-0.00288021,1.24121,-1.20011,-0.014253,0.0113618,2.92579,5,0.1,4,0.3,-0.190356,-3.52697,0.582308,-0.0256253,0.305831,0.00174604,-0.12681,0.974745,0.00864267,0.0103344,3.15734,5,0.1,5,0.3,0.449943,3.27126,0.529576,-0.108736,-0.0800394,0.0122896,-0.536429,-0.394881,0.0606216,0.0128542,0.436177,5,0.1,6,0.3,-3.78001,0.868045,0.616442,0.272116,0.139071,-0.00292286,1.34246,0.686079,-0.0144169,0.0122101,2.21627,5,0.1,7,0.3,2.05361,-2.2605,0.641486,-0.15182,0.0819016,-0.00737868,-0.749022,0.404045,-0.0363961,0.0109489,0.707386,5,0.1,8,0.3,-3.87627,-3.46537,0.646126,0.129166,0.322861,-0.00820374,0.637203,1.59274,-0.0404753,0.0311219,2.8712,5,0.1,9,0.3,2.35028,-4.08037,0.600448,-0.316445,0.102417,0.0110299,-1.56111,0.505269,0.0544153,0.0196614,2.62797,5,0.1,10,0.3,3.85093,3.65399,0.640178,-0.231373,-0.142986,-0.00714464,-1.14143,-0.705361,-0.0352375,0.0202135,1.75673,5,0.1,11,0.3,-2.46604,3.41883,0.671727,0.118461,-0.207883,-0.0127578,0.584453,-1.02559,-0.0629425,0.0115052,1.36226,5,0.1,12,0.3,3.52606,-2.64395,0.545627,-0.00526458,0.34883,0.0037604,-0.026077,1.72625,0.0186078,0.0163848,2.92579,5,0.1,13,0.3,4.34241,-3.86013,0.523505,-0.0523947,0.344915,-0.00369633,-0.259191,1.7069,-0.0183024,0.0157077,2.92579,5,0.1,14,0.3,1.91323,-2.83542,0.684,-0.10017,0.184159,0.0117381,-0.49416,0.908569,0.0579096,0.00837156,1.04609,5,0.1,15,0.3,-1.89826,4.02946,0.50358,0.0779651,-0.0971742,0.0253881,0.384614,-0.47937,0.125241,0.00863323,0.383604,5,0.1,16,0.3,1.34185,-3.73206,0.509953,0.00145286,0.263583,-0.0100947,0.00718236,1.30033,-0.0425465,0.0175214,1.65149,5,0.1,17,0.3,-2.15871,-3.83282,0.607466,0.180138,0.298788,-0.000725407,0.891402,1.47866,-0.00360236,0.0317454,2.92579,5,0.1,18,0.3,-0.115999,-1.43864,0.617739,0.324376,-0.0500044,-0.00688294,1.60024,-0.246711,-0.033956,0.00874559,2.55729,5,0.1,19,0.3,3.74659,-4.27066,0.535572,-0.01425,0.348605,0.000894442,-0.0705123,1.72514,0.0044331,0.00873773,2.92578,5,0.1
0,0.4,-3.3769,3.06046,0.64401,0.486797,-0.125384,-0.0110924,1.43647,-0.370026,-0.0327229,0.00830273,2.1824,5,0.1,1,0.4,-3.70696,-2.37722,0.559153,0.348407,0.379503,0.00746101,1.03223,1.1245,0.0220835,0.0239,2.51008,5,0.1,2,0.4,0.226038,1.62006,0.569446,-0.141092,-0.112662,0.00819415,-0.416398,-0.332415,0.0241399,0.0277262,0.28201,5,0.1,3,0.4,-3.54165,4.08396,0.619997,0.370401,-0.35814,-0.00425279,1.09732,-1.0612,-0.0126064,0.0149278,2.51007,5,0.1,4,0.4,-0.193541,-3.49224,0.582525,-0.0378434,0.381291,0.0025779,-0.112124,0.534415,0.0076592,0.0119097,3.21871,5,0.1,5,0.4,0.436435,3.26131,0.531103,-0.160362,-0.118041,0.0181228,-0.473261,-0.34833,0.053525,0.00985429,0.345108,5,0.1,6,0.4,-3.74621,0.885321,0.616078,0.401312,0.2051,-0.00431091,1.18434,0.605255,-0.0127256,0.0116026,1.75354,5,0.1,7,0.4,2.03475,-2.25033,0.640569,-0.223899,0.120789,-0.0108823,-0.660896,0.356436,-0.0320673,0.0102448,0.559688,5,0.1,8,0.4,-3.86023,-3.42527,0.645106,0.19049,0.476146,-0.0120983,0.562072,1.40512,-0.035733,0.0131844,2.27174,5,0.1,9,0.4,2.31097,-4.06764,0.601819,-0.466686,0.15105,0.0162661,-1.37722,0.445604,0.0480115,0.0123549,2.07928,5,0.1,10,0.4,3.82218,3.63623,0.639291,-0.341225,-0.210875,-0.0105366,-1.00708,-0.622153,-0.0310838,0.0157461,1.38994,5,0.1,11,0.4,-2.45132,3.393,0.670142,0.174707,-0.306582,-0.0188142,0.515461,-0.904679,-0.0555515,0.0138494,1.07783,5,0.1,12,0.4,3.52541,-2.60058,0.546095,-0.00777245,0.515157,0.00555366,-0.0230074,1.52624,0.0164509,0.0167066,2.51563,5,0.1,13,0.4,4.33589,-3.81725,0.523045,-0.0773787,0.509369,-0.00545979,-0.228882,1.50919,-0.0161529,0.0187013,2.51342,5,0.1,14,0.4,1.90079,-2.81254,0.685458,-0.14773,0.271595,0.0173107,-0.435889,0.801563,0.051111,0.00893238,0.827674,5,0.1,15,0.4,-1.88858,4.01739,0.506734,0.114977,-0.143301,0.0374407,0.339389,-0.423193,0.110507,0.00995421,0.303511,5,0.1,16,0.4,1.34203,-3.69931,0.508744,0.00214279,0.38873,-0.0139356,0.0063777,1.14703,-0.033021,0.0252523,1.31027,5,0.1,17,0.4,-2.13631,-3.79567,0.607376,0.266021,0.441247,-0.00107288,0.788331,1.30749,-0.00315905,0.0430789,2.51007,5,0.1,18,0.4,-0.0757023,-1.44485,0.616884,0.478381,-0.0737458,-0.0101492,1.41179,-0.217676,-0.0299811,0.0107787,2.02336,5,0.1,19,0.4,3.74481,-4.22732,0.535684,-0.0210464,0.514829,0.00132173,-0.0623465,1.52516,0.0039041,0.00852888,2.51547,5,0.1
0,0.5,-3.32091,3.04604,0.642734,0.632545,-0.162927,-0.0144127,1.40698,-0.362411,-0.0320487,0.00830273,2.1824,5,0.1,1,0.5,-3.66681,-2.33349,0.560013,0.454628,0.495216,0.00973428,1.03757,1.13027,0.0222139,0.0239,2.51008,5,0.1,2,0.5,0.209809,1.6071,0.570389,-0.18334,-0.146391,0.0106445,-0.407826,-0.325613,0.023663,0.0277262,0.28201,5,0.1,3,0.5,-3.49897,4.04269,0.619507,0.483322,-0.467339,-0.00554994,1.103,-1.06663,-0.0126734,0.0149278,2.51007,5,0.1,4,0.5,-0.197846,-3.45261,0.582828,-0.0477777,0.401251,0.0035204,-0.0841925,-0.0776798,0.0104383,0.0119097,3.21871,5,0.1,5,0.5,0.417989,3.24774,0.533188,-0.208379,-0.153383,0.0235528,-0.463521,-0.341177,0.0524074,0.00985429,0.345108,5,0.1,6,0.5,-3.70005,0.908913,0.615583,0.521476,0.266509,-0.00560228,1.15997,0.592809,-0.0124648,0.0116026,1.75354,5,0.1,7,0.5,2.00899,-2.23644,0.639317,-0.29095,0.156953,-0.0141366,-0.647224,0.349119,-0.0314228,0.0102448,0.559688,5,0.1,8,0.5,-3.83832,-3.3705,0.643715,0.247521,0.618711,-0.0157231,0.550568,1.37626,-0.0349917,0.0131844,2.27174,5,0.1,9,0.5,2.25729,-4.05027,0.60369,-0.606421,0.196265,0.0211371,-1.34888,0.436485,0.0470206,0.0123549,2.07928,5,0.1,10,0.5,3.78293,3.61197,0.638079,-0.4434,-0.274003,-0.0136908,-0.986338,-0.609428,-0.0304505,0.0157461,1.38994,5,0.1,11,0.5,-2.43123,3.35774,0.667978,0.227008,-0.398372,-0.0244497,0.504881,-0.886083,-0.054393,0.0138494,1.07783,5,0.1,12,0.5,3.52451,-2.54146,0.546735,-0.0101406,0.665364,0.00724653,-0.0231415,1.40995,0.0165366,0.0167066,2.51563,5,0.1,13,0.5,4.32698,-3.75874,0.522416,-0.100943,0.659352,-0.0071222,-0.230223,1.42051,-0.0162423,0.0187013,2.51342,5,0.1,14,0.5,1.88379,-2.7813,0.687449,-0.191958,0.352918,0.022496,-0.426963,0.785023,0.0500567,0.00893238,0.827674,5,0.1,15,0.5,-1.87535,4.0009,0.511041,0.14941,-0.186232,0.0486525,0.332393,-0.414386,0.108235,0.00995421,0.303511,5,0.1,16,0.5,1.34228,-3.65477,0.507228,0.00278819,0.50022,-0.0159829,0.00622123,1.03673,-0.00905618,0.0252523,1.31027,5,0.1,17,0.5,-2.10566,-3.74482,0.607252,0.347143,0.575788,-0.00139801,0.792354,1.31413,-0.00317767,0.0430789,2.51007,5,0.1,18,0.5,-0.0206763,-1.45333,0.615716,0.621621,-0.0958296,-0.0131905,1.38274,-0.213169,-0.0293553,0.0107787,2.02336,5,0.1,19,0.5,3.74239,-4.16823,0.535836,-0.0274632,0.665017,0.00172378,-0.0626892,1.41051,0.00393018,0.00852888,2.51547,5,0.1
0,0.6,-3.25115,3.02807,0.641145,0.756013,-0.194728,-0.0172257,1.01209,-0.26083,-0.0230372,0.0108099,1.65361,5,0.1,1,0.6,-3.61652,-2.27871,0.56109,0.546587,0.595397,0.0117019,0.763178,0.831127,0.0163913,0.0244102,2.23518,5,0.1,2,0.6,0.18959,1.59096,0.571563,-0.219129,-0.174966,0.0127211,-0.293374,-0.234246,0.0170469,0.020697,0.209952,5,0.1,3,0.6,-3.4455,3.991,0.618893,0.581092,-0.561875,-0.00667274,0.810981,-0.784278,-0.00929832,0.0142913,2.21915,5,0.1,4,0.6,-0.202983,-3.4135,0.583232,-0.0543024,0.375766,0.00453591,-0.0448599,-0.389576,0.00932813,0.010361,3.30733,5,0.1,5,0.6,0.395009,3.23082,0.535785,-0.249055,-0.183326,0.0281528,-0.333428,-0.245333,0.0376701,0.00960401,0.256925,5,0.1,6,0.6,-3.64254,0.938304,0.614965,0.623268,0.318533,-0.00669658,0.834346,0.426412,-0.0089705,0.0116806,1.07445,5,0.1,7,0.6,1.9769,-2.21913,0.637758,-0.347745,0.187588,-0.0168949,-0.465572,0.251174,-0.02262,0.022758,0.416667,5,0.1,8,0.6,-3.81102,-3.30226,0.641981,0.295836,0.739491,-0.0187919,0.396132,0.989914,-0.0252128,0.0268323,1.70698,5,0.1,9,0.6,2.19041,-4.02863,0.606021,-0.724792,0.234568,0.0252634,-0.970364,0.313997,0.0338554,0.0127824,1.55533,5,0.1,10,0.6,3.73403,3.58176,0.636569,-0.529957,-0.327492,-0.0163645,-0.709414,-0.438333,-0.0218749,0.0165902,1.03478,5,0.1,11,0.6,-2.40619,3.3138,0.665282,0.271314,-0.476128,-0.0292227,0.363111,-0.637531,-0.0391304,0.015811,0.802424,5,0.1,12,0.6,3.52339,-2.46851,0.547536,-0.0121891,0.785953,0.00871271,-0.0169277,0.957727,0.0121593,0.0159958,2.33484,5,0.1,13,0.6,4.31581,-3.68631,0.521628,-0.121367,0.781852,-0.00856221,-0.169039,0.983238,-0.0119507,0.0206051,2.32378,5,0.1,14,0.6,1.86262,-2.74238,0.68993,-0.229424,0.421804,0.0268877,-0.307202,0.564814,0.0360012,0.00855546,0.616192,5,0.1,15,0.6,-1.85887,3.98036,0.516407,0.178578,-0.222594,0.0581503,0.239074,-0.298142,0.0778437,0.0106685,0.225948,5,0.1,16,0.6,1.34259,-3.60006,0.505616,0.0033319,0.58831,-0.0159636,0.00447035,0.69344,0.00843406,0.0230235,2.85764,5,0.1,17,0.6,-2.06726,-3.68113,0.607097,0.41737,0.69226,-0.00167936,0.582695,0.966549,-0.00232458,0.0374615,2.30509,5,0.1,18,0.6,0.047878,-1.4639,0.614261,0.742963,-0.114536,-0.0157669,0.994707,-0.153303,-0.0211,0.0112071,1.52449,5,0.1,19,0.6,3.73935,-4.09531,0.536027,-0.033015,0.78572,0.00207275,-0.0462532,0.959158,0.00286102,0.0110211,2.33416,5,0.1
0,0.7,-3.17127,3.00731,0.639309,0.833585,-0.219767,-0.0194376,0.532001,-0.225648,-0.0199378,0.0108099,1.65361,5,0.1,1,0.7,-3.55838,-2.21496,0.562343,0.61245,0.678829,0.0133464,0.529647,0.784859,0.0154674,0.0244102,2.23518,5,0.1,2,0.7,0.166235,1.57231,0.572919,-0.247294,-0.197456,0.0143577,-0.253825,-0.202686,0.0147484,0.020697,0.209952,5,0.1,3,0.7,-3.38328,3.93083,0.618179,0.662505,-0.640603,-0.0076063,0.76592,-0.740603,-0.00878423,0.0142913,2.21915,5,0.1,4,0.7,-0.208623,-3.37846,0.583735,-0.0582836,0.321319,0.00555534,-0.0321474,-0.609949,0.0103712,0.010361,3.30733,5,0.1,5,0.7,0.368465,3.21128,0.538786,-0.281065,-0.206881,0.0317696,-0.288485,-0.212312,0.0325963,0.00960401,0.256925,5,0.1,6,0.7,-3.57664,0.972253,0.614251,0.688312,0.359471,-0.00755778,0.454187,0.368942,-0.00775978,0.0116806,1.07445,5,0.1,7,0.7,1.93984,-2.19913,0.635958,-0.392441,0.211701,-0.0190668,-0.402786,0.217319,-0.0195727,0.022758,0.416667,5,0.1,8,0.7,-3.77949,-3.22396,0.639978,0.333867,0.820071,-0.0212112,0.342742,0.602931,-0.0217967,0.0268323,1.70698,5,0.1,9,0.7,2.11351,-4.00363,0.608713,-0.808067,0.264714,0.028513,-0.666156,0.271693,0.0292808,0.0127824,1.55533,5,0.1,10,0.7,3.67755,3.54685,0.634825,-0.598064,-0.369577,-0.0184652,-0.613779,-0.379324,-0.0189431,0.0165902,1.03478,5,0.1,11,0.7,-2.37727,3.26306,0.662167,0.306177,-0.537333,-0.0329791,0.314206,-0.551566,-0.033848,0.015811,0.802424,5,0.1,12,0.7,3.52209,-2.38619,0.548469,-0.0138901,0.850525,0.00993302,-0.0160038,0.361115,0.0114776,0.0159958,2.33484,5,0.1,13,0.7,4.30282,-3.60427,0.520712,-0.138348,0.849102,-0.00976175,-0.15983,0.385493,-0.0112876,0.0206051,2.32378,5,0.1,14,0.7,1.83817,-2.69743,0.692796,-0.258954,0.475724,0.030358,-0.26647,0.483289,0.0314005,0.00855546,0.616192,5,0.1,15,0.7,-1.83984,3.95664,0.522604,0.20153,-0.251212,0.0656237,0.20685,-0.257879,0.067357,0.0106685,0.225948,5,0.1,16,0.7,1.34294,-3.53915,0.504086,0.00362396,0.617389,-0.01442,0.00143051,-0.0545084,0.0212714,0.0230235,2.85764,5,0.1,17,0.7,-2.02257,-3.60788,0.606918,0.475861,0.764399,-0.00191312,0.550248,0.47034,-0.00219792,0.0374615,2.30509,5,0.1,18,0.7,0.126512,-1.47611,0.612581,0.822917,-0.129254,-0.0177926,0.588023,-0.132643,-0.0182576,0.0112071,1.52449,5,0.1,19,0.7,3.73581,-4.01301,0.536248,-0.0376549,0.850443,0.00236062,-0.0436157,0.362501,0.00270829,0.0110211,2.33416,5,0.1
0,0.8,-3.08606,2.98436,0.637279,0.862819,-0.237459,-0.0210002,0.0641346,-0.118494,-0.0104904,0.00992529,1.21123,5,0.1,1,0.8,-3.49503,-2.14358,0.563747,0.648588,0.743467,0.014621,0.178099,0.471354,0.00926852,0.0239796,2.28114,5,0.1,2,0.8,0.14041,1.55169,0.574418,-0.267194,-0.213349,0.0155151,-0.133283,-0.106454,0.0077486,0.0210463,0.2302,5,0.1,3,0.8,-3.31362,3.86348,0.617379,0.725579,-0.701594,-0.00833124,0.460148,-0.44477,-0.00524521,0.013769,2.04193,5,0.1,4,0.8,-0.214573,-3.34919,0.58434,-0.0603009,0.267273,0.00649393,-0.00650436,-0.42522,0.00786781,0.0120612,3.26891,5,0.1,5,0.8,0.339113,3.18968,0.542103,-0.303683,-0.223523,0.0343248,-0.15147,-0.11158,0.0171065,0.00682459,0.181406,5,0.1,6,0.8,-3.50624,1.00979,0.613462,0.712383,0.388399,-0.00816584,0.0220537,0.193715,-0.00408292,0.0113666,0.913076,5,0.1,7,0.8,1.89886,-2.17702,0.633967,-0.424019,0.228739,-0.0206023,-0.211477,0.114083,-0.0102818,0.00815827,0.294185,5,0.1,8,0.8,-3.74462,-3.13968,0.637762,0.360733,0.858134,-0.0229195,0.180125,0.157833,-0.0114441,0.0145523,1.24167,5,0.1,9,0.8,2.03005,-3.97598,0.611691,-0.853986,0.286019,0.0308082,-0.240803,0.142574,0.0154078,0.0117223,1.12808,5,0.1,10,0.8,3.6151,3.50826,0.632896,-0.646186,-0.399315,-0.0199497,-0.322342,-0.199318,-0.00995398,0.0166263,0.731871,5,0.1,11,0.8,-2.3453,3.20694,0.658723,0.330812,-0.580579,-0.0356317,0.164986,-0.289559,-0.017792,0.0173332,0.566555,5,0.1,12,0.8,3.52063,-2.30006,0.549514,-0.0152111,0.866026,0.0108793,-0.00953674,0,0.00685453,0.0170384,2.27165,5,0.1,13,0.8,4.28827,-3.51819,0.519685,-0.151503,0.866026,-0.0106916,-0.0963211,0,-0.00676513,0.0196867,2.25418,5,0.1,14,0.8,1.81112,-2.64778,0.695968,-0.279874,0.513387,0.0328317,-0.140488,0.249386,0.0166893,0.0110866,0.441857,5,0.1,15,0.8,-1.81879,3.9304,0.529457,0.217748,-0.271428,0.0709042,0.1086,-0.135422,0.0353754,0.0107106,0.159524,5,0.1,16,0.8,1.3433,-3.47854,0.502764,0.0036329,0.587559,-0.0119209,-0.0012517,-0.497937,0.0277758,0.0197741,3.01935,5,0.1,17,0.8,-1.97253,-3.52995,0.606717,0.521171,0.785804,-0.00209361,0.330567,-0.041604,-0.0013113,0.0280082,2.53793,5,0.1,18,0.8,0.210991,-1.48961,0.610723,0.859124,-0.139654,-0.019224,0.138037,-0.0695586,-0.00959635,0.00742531,1.11432,5,0.1,19,0.8,3.73185,-3.92688,0.536496,-0.0412464,0.866026,0.00258535,-0.026226,0,0.00160933,0.0107773,2.2706,5,0.1
0,0.9,-2.99959,2.96005,0.635129,0.865464,-0.248195,-0.0219507,-0.0064522,-0.084877,-0.00751019,0.00992529,1.21123,5,0.1,1,0.9,-3.43039,-2.06672,0.565258,0.634136,0.79407,0.0156162,-0.428542,0.486419,0.00956655,0.0239796,2.28114,5,0.1,2,0.9,0.113055,1.52969,0.576006,-0.279272,-0.227441,0.0162175,-0.0954705,-0.155292,0.00555068,0.0210463,0.2302,5,0.1,3,0.9,-3.23867,3.791,0.616518,0.773255,-0.747677,-0.0088756,0.444219,-0.429377,-0.00507757,0.013769,2.04193,5,0.1,4,0.9,-0.220625,-3.3243,0.585028,-0.0605837,0.236576,0.00726525,0.00278838,-0.0795722,0.00706315,0.0120612,3.26891,5,0.1,5,0.9,0.308022,3.16679,0.545617,-0.317409,-0.233634,0.0358751,-0.108499,-0.0799149,0.0122562,0.00682459,0.181406,5,0.1,6,0.9,-3.43603,1.04956,0.612626,0.681639,0.405953,-0.00853585,-0.594512,0.138767,-0.00292435,0.0113666,0.913076,5,0.1,7,0.9,1.85545,-2.15361,0.631857,-0.443181,0.239077,-0.0215341,-0.15147,0.0817329,-0.0073649,0.00815827,0.294185,5,0.1,8,0.9,-3.70769,-3.05339,0.635416,0.377054,0.865149,-0.023956,0.129029,0.00439584,-0.00818819,0.0145523,1.24167,5,0.1,9,0.9,1.94392,-3.9467,0.614845,-0.864871,0.29894,0.0322038,-0.0140071,0.102133,0.0110269,0.0117223,1.12808,5,0.1,10,0.9,3.54905,3.46738,0.630854,-0.672306,-0.417377,-0.020852,-0.176102,-0.142783,-0.00713393,0.0166263,0.731871,5,0.1,11,0.9,-2.31143,3.1475,0.655075,0.345763,-0.606818,-0.0372435,0.118196,-0.207424,-0.0127368,0.0173332,0.566555,5,0.1,12,0.9,3.51905,-2.21346,0.550637,-0.0161991,0.866026,0.0115884,-0.00920892,0,0.00659376,0.0170384,2.27165,5,0.1,13,0.9,4.27262,-3.43158,0.518581,-0.161465,0.866026,-0.0113914,-0.0926852,0,-0.00651181,0.0196867,2.25418,5,0.1,14,0.9,1.78245,-2.59549,0.699346,-0.292965,0.529334,0.0347815,-0.107139,0.0598282,0.0197589,0.0110866,0.441857,5,0.1,15,0.9,-1.7965,3.90261,0.536716,0.227589,-0.283696,0.0741096,0.0777915,-0.0969619,0.0253394,0.0107106,0.159524,5,0.1,16,0.9,1.34366,-3.42311,0.501715,0.0034567,0.515199,-0.00903672,-0.00227988,-0.849247,0.0291653,0.0197741,3.01935,5,0.1,17,0.9,-1.91865,-3.4528,0.6065,0.556621,0.745975,-0.0022348,0.340454,-0.707537,-0.00135601,0.0280082,2.53793,5,0.1,18,0.9,0.297318,-1.5039,0.608755,0.865215,-0.145957,-0.0200934,0.00210032,-0.0498369,-0.00687316,0.00742531,1.11432,5,0.1,19,0.9,3.72759,-3.84028,0.536763,-0.0439554,0.866026,0.00275262,-0.025183,0,0.00156462,0.0107773,2.2706,5,0.1
0,1,-2.91321,2.93494,0.632908,0.860232,-0.252545,-0.0223368,-0.115633,0.00548363,0.000506639,0.00785353,0.905763,5,0.1,1,1,-3.36985,-1.98522,0.566861,0.570059,0.831535,0.0163525,-0.819802,0.225008,0.00441074,0.0176538,2.43843,5,0.1,2,1,0.0847982,1.50623,0.577647,-0.284162,-0.240952,0.016503,0.00613928,-0.100493,-0.000357628,0.0158394,0.166016,5,0.1,3,1,-3.15948,3.71443,0.61561,0.806105,-0.779432,-0.00925213,0.178933,-0.172853,-0.00202656,0.0112347,1.69451,5,0.1,4,1,-0.226642,-3.3,0.585786,-0.0594273,0.259393,0.0078246,0.0215769,0.506878,0.00375509,0.00887819,2.96676,5,0.1,5,1,0.275907,3.14315,0.549247,-0.322966,-0.237733,0.0365019,0.00697374,0.005126,-0.00077486,0.00653133,0.123363,5,0.1,6,1,-3.37156,1.09063,0.611762,0.601351,0.413063,-0.00868589,-0.975251,-0.0090003,0.000208616,0.00819752,0.580701,5,0.1,7,1,1.81061,-2.12942,0.629678,-0.450936,0.243258,-0.0219122,0.00971556,-0.005126,0.000476837,0.00726703,0.200055,5,0.1,8,1,-3.66954,-2.96704,0.632992,0.383669,0.859898,-0.0243753,-0.00834465,-0.122666,0.000536442,0.0135457,0.896075,5,0.1,9,1,1.85759,-3.91645,0.618104,-0.859588,0.304168,0.0327677,0.128746,-0.0064373,-0.000655651,0.0102485,0.80803,5,0.1,10,1,3.48134,3.42515,0.628744,-0.677502,-0.424695,-0.0212193,0.0872612,0.00905991,0.000476837,0.0259207,0.574971,5,0.1,11,1,-2.27645,3.0861,0.651307,0.351822,-0.617439,-0.0378966,-0.0077486,0.0133514,0.000834465,0.015481,0.385283,5,0.1,12,1,3.5174,-2.12686,0.551824,-0.0168741,0.866026,0.0120729,-0.00369549,0,0.00265241,0.0211755,2.27162,5,0.1,13,1,4.25609,-3.34498,0.517415,-0.1683,0.866026,-0.0118718,-0.0374317,0,-0.0026226,0.0169947,2.25228,5,0.1,14,1,1.75277,-2.54263,0.702911,-0.298929,0.523913,0.0363484,-0.0026226,-0.17333,0.00977516,0.0104328,0.318667,5,0.1,15,1,-1.77347,3.87391,0.544215,0.231573,-0.288659,0.0754088,-0.00506639,0.00619888,-0.00163913,0.00983184,0.183694,5,0.1,16,1,1.34399,-3.37579,0.500954,0.00317693,0.433159,-0.00621676,-0.00315905,-0.73719,0.0266731,0.0201432,3.0941,5,0.1,17,1,-1.86152,-3.38251,0.606271,0.582814,0.65307,-0.00233948,0.156999,-1.11043,-0.000625849,0.033481,2.90063,5,0.1,18,1,0.383678,-1.51867,0.606722,0.859965,-0.148508,-0.0204459,-0.121206,0.00321865,0.000447035,0.00898677,0.811949,5,0.1,19,1,3.72309,-3.75367,0.537045,-0.0458121,0.866026,0.00286698,-0.0100136,0,0.000655651,0.0117805,2.27046,5,0.1
0,1.1,-2.82795,2.90973,0.630675,0.842722,-0.251164,-0.022319,-0.25396,0.0307858,0.000849366,0.00785353,0.905763,5,0.1,1,1.1,-3.31741,-1.90088,0.568522,0.474943,0.854809,0.0168898,-1.04935,0.202425,0.00529364,0.0176538,2.43843,5,0.1,2,1.1,0.0564248,1.48158,0.579295,-0.282916,-0.252047,0.0164308,0.0291748,-0.105664,-0.00169128,0.0158394,0.166016,5,0.1,3,1.1,-3.07792,3.63563,0.614672,0.824452,-0.795516,-0.00949465,0.147179,-0.11301,-0.00227988,0.0112347,1.69451,5,0.1,4,1.1,-0.232465,-3.27019,0.586584,-0.0568927,0.347336,0.00811489,0.030091,1.14188,0.00178441,0.00887819,2.96676,5,0.1,5,1.1,0.243658,3.11942,0.552892,-0.321551,-0.236692,0.036343,0.0331542,0.0243783,-0.00373274,0.00653133,0.123363,5,0.1,6,1.1,-3.3167,1.13188,0.610895,0.492821,0.411247,-0.00864612,-1.16369,-0.042446,0.000905246,0.00819752,0.580701,5,0.1,7,1.1,1.76558,-2.10513,0.627491,-0.44896,0.242202,-0.021816,0.0462979,-0.0248998,0.00224635,0.00726703,0.200055,5,0.1,8,1.1,-3.63123,-2.88146,0.630558,0.381982,0.852476,-0.0242674,-0.0394285,-0.068903,0.00251457,0.0135457,0.896075,5,0.1,9,1.1,1.7721,-3.88608,0.621376,-0.850799,0.302847,0.0326277,0.0882745,-0.0311136,-0.00334159,0.0102485,0.80803,5,0.1,10,1.1,3.41493,3.38274,0.626625,-0.642556,-0.422844,-0.0211252,0.572428,0.0435114,0.00218302,0.0259207,0.574971,5,0.1,11,1.1,-2.24132,3.02445,0.647523,0.350269,-0.614731,-0.0377291,-0.03618,0.0634044,0.00390783,0.015481,0.385283,5,0.1,12,1.1,3.51569,-2.04025,0.553047,-0.0173245,0.866026,0.0123949,-0.00430644,0,0.00306591,0.0211755,2.27162,5,0.1,13,1.1,4.23903,-3.25838,0.516212,-0.172865,0.866026,-0.0121919,-0.04372,0,-0.00306964,0.0169947,2.25228,5,0.1,14,1.1,1.7229,-2.49131,0.70661,-0.298022,0.500531,0.0377176,0.0308752,-0.297382,0.0148863,0.0104328,0.318667,5,0.1,15,1.1,-1.75019,3.84488,0.551797,0.235162,-0.293139,0.0765784,0.057973,-0.0722557,0.0188798,0.00983184,0.183694,5,0.1,16,1.1,1.34429,-3.33594,0.500458,0.00286382,0.369498,-0.00379682,-0.0031516,-0.415727,0.0214651,0.0201432,3.0941,5,0.1,17,1.1,-1.80236,-3.32318,0.606034,0.600426,0.530491,-0.0024098,0.161313,-1.30518,-0.000644475,0.033481,2.90063,5,0.1,18,1.1,0.469273,-1.5335,0.60468,0.852867,-0.147856,-0.0203556,-0.064332,0.0152439,0.00210479,0.00898677,0.811949,5,0.1,19,1.1,3.71845,-3.66707,0.537336,-0.047037,0.866026,0.00294643,-0.0117421,0,0.000756234,0.0117805,2.27046,5,0.1
0,1.2,-2.7453,2.88487,0.628454,0.806355,-0.244969,-0.0219986,-0.484943,0.0989437,0.00622869,0.0103093,0.697875,5,0.1,1,1.2,-3.27532,-1.81467,0.570232,0.36611,0.866026,0.0172332,-1.10114,0,0.000834465,0.0219469,2.72578,5,0.1,2,1.2,0.0283863,1.45594,0.580924,-0.276603,-0.259417,0.0160635,0.103907,-0.0308156,-0.00599027,0.0183317,0.11659,5,0.1,3,1.2,-2.99506,3.55585,0.613715,0.828683,-0.796056,-0.00961572,-0.0902414,0.126362,0.000208616,0.0171464,1.22063,5,0.1,4,1.2,-0.237983,-3.22945,0.5874,-0.0532571,0.468433,0.00813901,0.0431761,1.19662,-0.00143051,0.0115055,2.58726,5,0.1,5,1.2,0.211791,3.09596,0.556494,-0.314377,-0.231409,0.0355318,0.118092,0.0869036,-0.0132918,0.0116936,0.139204,5,0.1,6,1.2,-3.27333,1.17263,0.610038,0.374269,0.402069,-0.00845343,-1.18268,-0.151038,0.00321865,0.0092704,0.532921,5,0.1,7,1.2,1.72109,-2.08112,0.625328,-0.438944,0.236809,-0.0213295,0.164926,-0.0890493,0.00801682,0.00781922,0.352728,5,0.1,8,1.2,-3.59337,-2.79676,0.628153,0.373459,0.83881,-0.0237241,-0.140309,-0.234485,0.0089407,0.0119376,0.627607,5,0.1,9,1.2,1.68767,-3.85607,0.62461,-0.83496,0.296098,0.0319019,0.257015,-0.111222,-0.0119805,0.0101629,0.563812,5,0.1,10,1.2,3.35407,3.34083,0.624532,-0.570059,-0.413418,-0.020653,0.846028,0.15533,0.0077486,0.0160255,0.463917,5,0.1,11,1.2,-2.20661,2.96353,0.643784,0.342447,-0.601012,-0.0368863,-0.128627,0.225663,0.0138879,0.0118795,0.256198,5,0.1,12,1.2,3.51394,-1.95365,0.554297,-0.0175595,0.866026,0.0125647,0.000238419,-5.96046e-05,-0.000208616,0.0168575,2.27162,5,0.1,13,1.2,4.22158,-3.17178,0.514981,-0.175321,0.866026,-0.012365,0.00143051,0,0.000149012,0.0164875,2.25176,5,0.1,14,1.2,1.69337,-2.44296,0.710447,-0.291091,0.464076,0.0388622,0.114262,-0.432134,0.00602007,0.0131242,0.239529,5,0.1,15,1.2,-1.72641,3.81524,0.559542,0.239915,-0.29906,0.0781268,0.0234842,-0.0292063,0.0076592,0.0136066,0.109421,5,0.1,16,1.2,1.34456,-3.3,0.500175,0.00254214,0.359672,-0.00195801,-0.00333786,0.195384,0.0152588,0.0223059,2.88273,5,0.1,17,1.2,-1.74173,-3.27673,0.60579,0.609344,0.398421,-0.00244677,-0.00649691,-1.30844,5.96046e-05,0.0344985,3.37681,5,0.1,18,1.2,0.55404,-1.54815,0.602663,0.83971,-0.144556,-0.0199005,-0.22915,0.0542998,0.00748038,0.00894903,0.57293,5,0.1,19,1.2,3.7137,-3.58047,0.537633,-0.0476897,0.866026,0.00298917,0.000476837,0,0,0.0102595,2.27043,5,0.1
0,1.3,-2.66723,2.86095,0.626283,0.753557,-0.232423,-0.0214303,-0.579879,0.153258,0.00598282,0.0103093,0.697875,5,0.1,1,1.3,-3.24423,-1.72808,0.571961,0.256398,0.865509,0.0173192,-1.06157,-0.0206605,0.000122935,0.0219469,2.72578,5,0.1,2,1.3,0.0012341,1.42991,0.582501,-0.266332,-0.260401,0.0154707,0.110123,0.0184327,-0.00636652,0.0183317,0.11659,5,0.1,3,1.3,-2.91273,3.47712,0.612752,0.816565,-0.775968,-0.00965241,-0.177324,0.288382,-0.000417233,0.0171464,1.22063,5,0.1,4,1.3,-0.24309,-3.17609,0.588204,-0.0488406,0.601602,0.0079331,0.0457922,1.37842,-0.00284985,0.0115055,2.58726,5,0.1,5,1.3,0.180746,3.07311,0.560003,-0.307959,-0.226687,0.0348109,0.0319099,0.0234544,-0.00357255,0.0116936,0.139204,5,0.1,6,1.3,-3.24168,1.2121,0.609208,0.260628,0.387139,-0.00813622,-1.07239,-0.160053,0.00339001,0.0092704,0.532921,5,0.1,7,1.3,1.67878,-2.05736,0.623057,-0.400572,0.242725,-0.0255739,0.566907,0.166982,-0.080958,0.00781922,0.352728,5,0.1,8,1.3,-3.55671,-2.71392,0.625825,0.359589,0.818463,-0.0228404,-0.148699,-0.207201,0.00946596,0.0119376,0.627607,5,0.1,9,1.3,1.60533,-3.827,0.627741,-0.812116,0.285104,0.0307169,0.233181,-0.117868,-0.0127107,0.0101629,0.563812,5,0.1,10,1.3,3.30171,3.30025,0.622504,-0.474532,-0.398063,-0.0198871,1.01221,0.164613,0.00821054,0.0160255,0.463917,5,0.1,11,1.3,-2.17299,2.90453,0.640163,0.329732,-0.578701,-0.0355139,-0.136316,0.239208,0.0147074,0.0118795,0.256198,5,0.1,12,1.3,3.51218,-1.86705,0.555556,-0.0176594,0.866025,0.0126324,-0.0012219,1.49012e-05,0.000845641,0.0168575,2.27162,5,0.1,13,1.3,4.20401,-3.08517,0.513742,-0.176455,0.866026,-0.0124409,-0.0138879,0,-0.000949949,0.0164875,2.25176,5,0.1,14,1.3,1.66485,-2.39871,0.714371,-0.278842,0.420981,0.0396475,0.137493,-0.43568,0.00744313,0.0131242,0.239529,5,0.1,15,1.3,-1.70227,3.78515,0.567402,0.242762,-0.302601,0.0790549,0.0213534,-0.0264794,0.00695884,0.0136066,0.109421,5,0.1,16,1.3,1.3448,-3.26164,0.500044,0.00223629,0.418881,-0.000758562,-0.00284612,0.879154,0.00895932,0.0223059,2.88273,5,0.1,17,1.3,-1.68092,-3.24339,0.605546,0.605728,0.269805,-0.00242973,-0.0847429,-1.22744,0.000361353,0.0344985,3.37681,5,0.1,18,1.3,0.637001,-1.56234,0.600709,0.819953,-0.139188,-0.019161,-0.201076,0.0575483,0.00792742,0.00894903,0.57293,5,0.1,19,1.3,3.70892,-3.49387,0.537933,-0.0479896,0.866026,0.00301059,-0.00371039,0,0.00025332,0.0102595,2.27043,5,0.1
0,1.4,-2.59498,2.83858,0.624175,0.689054,-0.214177,-0.020659,-0.71454,0.211477,0.0100136,0.0130997,0.554862,5,0.1,1,1.4,-3.22362,-1.64179,0.573687,0.158942,0.857764,0.0171304,-0.867724,-0.165284,-0.00438094,0.0200972,2.88331,5,0.1,2,1.4,-0.0247811,1.40409,0.584012,-0.253151,-0.25456,0.0147074,0.159186,0.102878,-0.00920892,0.0201282,0.177881,5,0.1,3,1.4,-2.83227,3.40131,0.611787,0.789088,-0.736398,-0.00960976,-0.388503,0.509858,0.00163913,0.013856,0.907676,5,0.1,4,1.4,-0.247737,-3.10934,0.58898,-0.0439994,0.728881,0.00754595,0.0513792,1.10316,-0.00503659,0.0117566,1.10082,5,0.1,5,1.4,0.150112,3.05056,0.563466,-0.304266,-0.22397,0.0343964,0.057593,0.0424385,-0.00652671,0.00707999,0.0814925,5,0.1,6,1.4,-3.22068,1.24992,0.608414,0.162679,0.367978,-0.00773072,-0.875473,-0.231266,0.00485778,0.0104649,0.973246,5,0.1,7,1.4,1.64197,-2.0321,0.620029,-0.332046,0.263119,-0.0354081,0.774384,0.210404,-0.106543,0.00688064,0.237842,5,0.1,8,1.4,-3.52159,-2.63329,0.623594,0.341791,0.791514,-0.021708,-0.214934,-0.355721,0.0136793,0.0123979,0.430119,5,0.1,9,1.4,1.52547,-3.79915,0.630741,-0.782713,0.270993,0.0291958,0.377595,-0.17035,-0.0183582,0.00994079,0.385305,5,0.1,10,1.4,3.25925,3.26137,0.620562,-0.375926,-0.378364,-0.0189051,0.929236,0.237942,0.0118911,0.0149668,0.39733,5,0.1,11,1.4,-2.14078,2.84801,0.636694,0.313419,-0.550067,-0.0337541,-0.197053,0.345945,0.0212491,0.0110901,0.168634,5,0.1,12,1.4,3.51041,-1.78045,0.556821,-0.0176311,0.866026,0.0126094,0.00238419,-5.96046e-05,-0.00175834,0.0179123,2.27162,5,0.1,13,1.4,4.18634,-2.99857,0.512496,-0.17637,0.866026,-0.0124335,0.0228882,0,0.00163913,0.0177637,2.25199,5,0.1,14,1.4,1.63774,-2.35883,0.71836,-0.26249,0.375986,0.0399709,0.193715,-0.46742,-0.0025332,0.0128036,0.182204,5,0.1,15,1.4,-1.67797,3.75487,0.575315,0.242144,-0.30182,0.078854,-0.0419617,0.0523329,-0.0136793,0.0112181,0.0589207,5,0.1,16,1.4,1.34501,-3.21497,0.500005,0.00196397,0.516218,-0.000117719,-0.00268221,0.984192,0.00411272,0.0236981,2.55099,5,0.1,17,1.4,-1.62102,-3.22217,0.605306,0.589299,0.158811,-0.00236183,-0.255883,-0.970244,0.00101328,0.0344495,3.52422,5,0.1,18,1.4,0.717803,-1.57594,0.598838,0.793579,-0.132301,-0.0182122,-0.350446,0.0832081,0.0114739,0.0102962,0.39481,5,0.1,19,1.4,3.70412,-3.40726,0.538235,-0.0479519,0.866026,0.00301003,0.00607967,0,-0.000357628,0.01045,2.27044,5,0.1
0,1.5,-2.52948,2.81828,0.622158,0.622411,-0.191014,-0.0196925,-0.635058,0.24952,0.0099428,0.0130997,0.554862,5,0.1,1,1.5,-3.21182,-1.55655,0.575381,0.0806127,0.848831,0.0167718,-0.655994,-0.0611618,-0.00354648,0.0200972,2.88331,5,0.1,2,1.5,-0.0494638,1.37944,0.585446,-0.241734,-0.235784,0.0140472,0.0848389,0.261471,-0.00490621,0.0201282,0.177881,5,0.1,3,1.5,-2.75535,3.33042,0.610832,0.748332,-0.679493,-0.00950424,-0.44319,0.629768,0.000949949,0.013856,0.907676,5,0.1,4,1.5,-0.251907,-3.03164,0.589714,-0.0396295,0.817584,0.00715377,0.0379272,0.654966,-0.00320747,0.0117566,1.10082,5,0.1,5,1.5,0.119919,3.02833,0.566879,-0.299785,-0.220669,0.0338882,0.0459966,0.0338554,-0.00521541,0.00707999,0.0814925,5,0.1,6,1.5,-3.2084,1.2856,0.607664,0.0866964,0.345917,-0.00726767,-0.641167,-0.220396,0.00462681,0.0104649,0.973246,5,0.1,7,1.5,1.61266,-2.00451,0.615839,-0.254367,0.29022,-0.0492486,0.767633,0.299983,-0.158157,0.00688064,0.237842,5,0.1,8,1.5,-3.48844,-2.5558,0.621489,0.321288,0.758827,-0.0204033,-0.204802,-0.326365,0.0130273,0.0123979,0.430119,5,0.1,9,1.5,1.44897,-3.77287,0.633573,-0.747831,0.254742,0.0274444,0.347316,-0.162348,-0.0175014,0.00994079,0.385305,5,0.1,10,1.5,3.22608,3.22468,0.618728,-0.291234,-0.355669,-0.0177712,0.719726,0.226721,0.0113286,0.0149668,0.39733,5,0.1,11,1.5,-2.11039,2.79466,0.633421,0.294624,-0.517069,-0.0317276,-0.187784,0.329658,0.0202358,0.0110901,0.168634,5,0.1,12,1.5,3.50865,-1.69384,0.558077,-0.0175454,0.866025,0.0125434,0.000327826,1.49012e-05,-0.000283122,0.0179123,2.27162,5,0.1,13,1.5,4.16875,-2.91197,0.511256,-0.175682,0.866026,-0.0123833,0.00110269,0,9.31323e-05,0.0177637,2.25199,5,0.1,14,1.5,1.6124,-2.3232,0.722321,-0.244565,0.339742,0.038998,0.172831,-0.281617,-0.0169277,0.0128036,0.182204,5,0.1,15,1.5,-1.65398,3.72496,0.583127,0.237302,-0.295779,0.0772758,-0.0624061,0.0778586,-0.0203289,0.0112181,0.0589207,5,0.1,16,1.5,1.34519,-3.15782,0.500009,0.00172984,0.630669,0.000148639,-0.00206381,1.2157,0.00140816,0.0236981,2.55099,5,0.1,17,1.5,-1.56329,-3.21083,0.605075,0.565591,0.0723459,-0.00226777,-0.239089,-0.706911,0.000946224,0.0344495,3.52422,5,0.1,18,1.5,0.795529,-1.58877,0.597072,0.761419,-0.124365,-0.0171182,-0.321377,0.0792816,0.0109263,0.0102962,0.39481,5,0.1,19,1.5,3.69934,-3.32066,0.538535,-0.0477761,0.866026,0.00300072,0.000238419,0,0,0.01045,2.27044,5,0.1
0,1.6,-2.47039,2.80048,0.620242,0.559205,-0.164717,-0.0185654,-0.640512,0.274062,0.0129938,0.0101874,0.446699,5,0.1,1,1.6,-3.20644,-1.47212,0.577037,0.0335336,0.837386,0.0162944,-0.270844,-0.201523,-0.00661612,0.0233626,2.87191,5,0.1,2,1.6,-0.0732303,1.35736,0.586827,-0.233472,-0.204346,0.013569,0.0918138,0.357568,-0.00533462,0.0147556,0.154685,5,0.1,3,1.6,-2.68293,3.26582,0.609888,0.697774,-0.610393,-0.00933707,-0.578284,0.751376,0.00271201,0.0131234,0.718247,5,0.1,4,1.6,-0.25569,-2.94743,0.590413,-0.0360824,0.8582,0.00683367,0.0344217,0.156522,-0.00342727,0.00897401,2.27461,5,0.1,5,1.6,0.0902448,3.00649,0.570233,-0.292709,-0.215453,0.0330865,0.105135,0.0772476,-0.0118911,0.00688172,0.0615669,5,0.1,6,1.6,-3.20254,1.31904,0.606961,0.0346303,0.322148,-0.0067696,-0.401497,-0.261843,0.00551343,0.00740846,1.9447,5,0.1,7,1.6,1.59097,-1.97405,0.61012,-0.180548,0.31766,-0.0649303,0.700057,0.226021,-0.146419,0.0062529,0.197697,5,0.1,8,1.6,-3.45739,-2.48169,0.619516,0.299209,0.721467,-0.018999,-0.243425,-0.440121,0.0154674,0.00824773,0.290714,5,0.1,9,1.6,1.37605,-3.74825,0.636226,-0.708663,0.237238,0.025557,0.454605,-0.192881,-0.020802,0.00723452,0.259953,5,0.1,10,1.6,3.2,3.19029,0.617011,-0.235713,-0.331223,-0.0165507,0.398278,0.269294,0.0134706,0.0105012,0.321953,5,0.1,11,1.6,-2.08191,2.74468,0.630354,0.274378,-0.481528,-0.0295445,-0.223041,0.391603,0.0239909,0.00979165,0.2704,5,0.1,12,1.6,3.5069,-1.60724,0.559328,-0.0173926,0.866026,0.0124305,0.00345707,-5.96046e-05,-0.00247359,0.0149126,2.27164,5,0.1,13,1.6,4.15122,-2.82537,0.510021,-0.174391,0.866026,-0.012292,0.0317097,0,0.00226498,0.0131035,2.25253,5,0.1,14,1.6,1.58883,-2.29049,0.726112,-0.226563,0.315434,0.0366017,0.192642,-0.222683,-0.0308752,0.00750954,0.191066,5,0.1,15,1.6,-1.63065,3.69588,0.590725,0.228426,-0.284714,0.0743836,-0.119925,0.149727,-0.039041,0.0100914,0.0396477,5,0.1,16,1.6,1.34536,-3.08889,0.500027,0.0015378,0.743961,0.000199676,-0.00184774,0.985265,-0.000238419,0.0161351,2.34406,5,0.1,17,1.6,-1.50804,-3.20639,0.604853,0.537983,0.0243902,-0.00215769,-0.32711,-0.234842,0.0012815,0.0284844,3.39042,5,0.1,18,1.6,0.869922,-1.60079,0.595417,0.724488,-0.115818,-0.0159413,-0.436693,0.0942349,0.0129938,0.00724284,0.267817,5,0.1,19,1.6,3.69457,-3.23406,0.538834,-0.0474274,0.866026,0.00298023,0.00870228,0,-0.000536442,0.0080744,2.27048,5,0.1
0,1.7,-2.41729,2.78534,0.618449,0.50596,-0.138413,-0.0173016,-0.451356,0.25259,0.0127293,0.0101874,0.446699,5,0.1,1,1.7,-3.20394,-1.38912,0.578638,0.0234563,0.824074,0.0157436,0.134841,-0.108778,-0.00511855,0.0233626,2.87191,5,0.1,2,1.7,-0.0961753,1.33882,0.588161,-0.225735,-0.165675,0.0131191,0.0731368,0.406101,-0.00425801,0.0147556,0.154685,5,0.1,3,1.7,-2.61601,3.20855,0.608966,0.640791,-0.534971,-0.00910927,-0.574097,0.758007,0.00225008,0.0131234,0.718247,5,0.1,4,1.7,-0.259129,-2.86113,0.591079,-0.0327252,0.865537,0.00646459,0.0333264,0.0195652,-0.00407174,0.00897401,2.27461,5,0.1,5,1.7,0.061414,2.98527,0.573492,-0.284389,-0.209341,0.0321453,0.0758469,0.0557452,-0.00857934,0.00688172,0.0615669,5,0.1,6,1.7,-3.20095,1.35001,0.606311,-0.000531226,0.297599,-0.00625309,-0.263304,-0.237919,0.00500679,0.00740846,1.9447,5,0.1,7,1.7,1.5762,-1.94106,0.602813,-0.116932,0.342515,-0.081704,0.571512,0.245124,-0.17675,0.0062529,0.197697,5,0.1,8,1.7,-3.42862,-2.41162,0.61769,0.276391,0.680659,-0.0175491,-0.221103,-0.399426,0.0140443,0.00824773,0.290714,5,0.1,9,1.7,1.30733,-3.72544,0.638682,-0.666476,0.219155,0.0236068,0.411689,-0.175253,-0.0189021,0.00723452,0.259953,5,0.1,10,1.7,3.1778,3.15846,0.61542,-0.213605,-0.305977,-0.0152885,0.080362,0.244677,0.0122301,0.0105012,0.321953,5,0.1,11,1.7,-2.055,2.69894,0.62758,0.26848,-0.429173,-0.025427,0.063926,0.633776,0.0549927,0.00979165,0.2704,5,0.1,12,1.7,3.50518,-1.52064,0.560563,-0.0172175,0.866025,0.0123054,0.00104308,1.49012e-05,-0.000745058,0.0149126,2.27164,5,0.1,13,1.7,4.13387,-2.73876,0.508798,-0.173004,0.866026,-0.012192,0.0063777,0,0.000465661,0.0131035,2.25253,5,0.1,14,1.7,1.56693,-2.25985,0.729612,-0.213257,0.298976,0.0333179,0.090085,-0.125512,-0.0349209,0.00750954,0.191066,5,0.1,15,1.7,-1.60837,3.66811,0.59798,0.217261,-0.270774,0.0707489,-0.111431,0.139087,-0.0362843,0.0100914,0.0396477,5,0.1,16,1.7,1.3455,-3.01021,0.500045,0.00138897,0.822748,0.000148639,-0.00121444,0.575781,-0.000722706,0.0161351,2.34406,5,0.1,17,1.7,-1.45572,-3.20451,0.604643,0.509331,0.0215642,-0.00204518,-0.267118,0.254363,0.00105053,0.0284844,3.39042,5,0.1,18,1.7,0.940314,-1.61193,0.593885,0.684006,-0.106985,-0.0147237,-0.396561,0.0855848,0.011798,0.00724284,0.267817,5,0.1,19,1.7,3.68985,-3.14746,0.539131,-0.0470411,0.866026,0.00295686,0.00183284,0,-0.000108033,0.0080744,2.27048,5,0.1
0,1.8,-2.36882,2.77273,0.616785,0.464237,-0.114113,-0.0159472,-0.402927,0.234008,0.0146925,0.00744062,0.354665,5,0.1,1,1.8,-3.2,-1.3074,0.580184,0.0638783,0.808123,0.015147,0.641823,-0.24122,-0.00727177,0.01595,2.48801,5,0.1,2,1.8,-0.118346,1.32429,0.589449,-0.217116,-0.124857,0.0126183,0.106339,0.402629,-0.00619888,0.0145553,0.210447,5,0.1,3,1.8,-2.55488,3.15886,0.608069,0.580877,-0.458735,-0.00881851,-0.632048,0.766516,0.0038147,0.0109047,0.598744,5,0.1,4,1.8,-0.262233,-2.77454,0.591703,-0.0293188,0.866026,0.0060007,0.0352114,0,-0.00530481,0.00952032,2.27162,5,0.1,5,1.8,0.0334032,2.96465,0.576658,-0.275076,-0.202495,0.0310928,0.12046,0.0886917,-0.0136495,0.00670564,0.0274416,5,0.1,6,1.8,-3.20187,1.37856,0.605711,-0.0128806,0.273085,-0.00573695,0.0292063,-0.258446,0.00539422,0.00745291,1.79893,5,0.1,7,1.8,1.56715,-1.90572,0.593792,-0.0663042,0.362271,-0.0981569,0.441074,0.131726,-0.143409,0.00740216,0.174993,5,0.1,8,1.8,-3.40211,-2.34563,0.616007,0.253606,0.637639,-0.0161022,-0.239968,-0.476718,0.0152588,0.00884329,0.195094,5,0.1,9,1.8,1.24282,-3.70442,0.640947,-0.622532,0.2011,0.0216603,0.482619,-0.190377,-0.0205338,0.00729693,0.174297,5,0.1,10,1.8,3.15656,3.1291,0.613953,-0.21317,-0.280768,-0.014028,-0.043273,0.265718,0.013262,0.0124875,0.249089,5,0.1,11,1.8,-2.02764,2.65945,0.62534,0.279921,-0.35876,-0.019151,0.133634,0.756383,0.0678003,0.00648552,0.190411,5,0.1,12,1.8,3.50346,-1.43404,0.561788,-0.0170171,0.866026,0.0121593,0.0038147,-5.96046e-05,-0.00268221,0.0170366,2.27165,5,0.1,13,1.8,4.11663,-2.65216,0.507583,-0.171351,0.866026,-0.0120759,0.033617,0,0.00241399,0.0139721,2.25201,5,0.1,14,1.8,1.54599,-2.23055,0.732762,-0.205654,0.287026,0.0296071,0.074327,-0.127196,-0.0392795,0.00865031,0.948172,5,0.1,15,1.8,-1.58724,3.64178,0.60486,0.204793,-0.255221,0.0666887,-0.14323,0.178814,-0.0466406,0.00827146,0.0160986,5,0.1,16,1.8,1.34564,-2.92579,0.500056,0.00127852,0.858557,6.70552e-05,-0.000953674,0.149369,-0.000923872,0.0210174,0.35773,5,0.1,17,1.8,-1.40617,-3.2,0.604444,0.480956,0.078845,-0.00193268,-0.31513,0.851035,0.0012517,0.0285993,3.06935,5,0.1,18,1.8,1.00664,-1.62219,0.592472,0.641206,-0.0981659,-0.0135094,-0.475526,0.092864,0.0127852,0.0082086,0.183995,5,0.1,19,1.8,3.68516,-3.06085,0.539426,-0.046587,0.866026,0.00292808,0.00929832,0,-0.000596046,0.00694242,2.27053,5,0.1
0,1.9,-2.32406,2.76235,0.615261,0.43378,-0.094546,-0.0145579,-0.234708,0.163123,0.0134706,0.00744062,0.354665,5,0.1,1,1.9,-3.18935,-1.2276,0.581666,0.157478,0.788877,0.0145147,1.14143,-0.180885,-0.00599027,0.01595,2.48801,5,0.1,2,1.9,-0.1396,1.31376,0.590684,-0.208448,-0.0864349,0.0121128,0.0776495,0.36028,-0.00452995,0.0145553,0.210447,5,0.1,3,1.9,-2.49984,3.11663,0.607205,0.520708,-0.38748,-0.00846144,-0.582248,0.665233,0.00363588,0.0109047,0.598744,5,0.1,4,1.9,-0.265,-2.68794,0.592278,-0.0261049,0.866026,0.0055044,0.0298508,0,-0.00477955,0.00952032,2.27162,5,0.1,5,1.9,0.00650323,2.94484,0.579699,-0.262677,-0.193366,0.0296884,0.13493,0.0993609,-0.01527,0.00670564,0.0274416,5,0.1,6,1.9,-3.20265,1.40465,0.605163,0.00249594,0.24914,-0.00523683,0.335842,-0.227869,0.00476092,0.00745291,1.79893,5,0.1,7,1.9,1.56255,-1.86877,0.583193,-0.0273226,0.376924,-0.114178,0.338517,0.138283,-0.16439,0.00740216,0.174993,5,0.1,8,1.9,-3.37788,-2.28412,0.614469,0.231374,0.593515,-0.0146887,-0.211552,-0.42519,0.0134446,0.00884329,0.195094,5,0.1,9,1.9,1.18285,-3.68521,0.643016,-0.577884,0.183463,0.0197581,0.429094,-0.167862,-0.0181012,0.00729693,0.174297,5,0.1,10,1.9,3.13474,3.10228,0.612613,-0.225416,-0.25615,-0.0127993,-0.173658,0.234291,0.0116937,0.0124875,0.249089,5,0.1,11,1.9,-1.99873,2.62713,0.623768,0.299997,-0.289639,-0.0122892,0.236563,0.631332,0.0678599,0.00648552,0.190411,5,0.1,12,1.9,3.50177,-1.34743,0.562995,-0.0168152,0.866025,0.0120185,0.0012219,1.49012e-05,-0.000841916,0.0170366,2.27165,5,0.1,13,1.9,4.09957,-2.56556,0.506384,-0.170647,0.866026,-0.0119217,-0.00745058,0,0.0012964,0.0139721,2.25201,5,0.1,14,1.9,1.52522,-2.20189,0.735372,-0.2146,0.290842,0.0213204,-0.210561,0.158742,-0.116751,0.00865031,0.948172,5,0.1,15,1.9,-1.56748,3.61716,0.611295,0.190268,-0.237095,0.0619587,-0.151098,0.188529,-0.0492074,0.00827146,0.0160986,5,0.1,16,1.9,1.34576,-2.83958,0.500058,0.00127852,0.861604,-1.25729e-05,0.000715256,-0.0964403,-0.000674278,0.0210174,0.35773,5,0.1,17,1.9,-1.35966,-3.18656,0.604257,0.448795,0.200085,-0.00180453,-0.336811,1.46273,0.0013411,0.0285993,3.06935,5,0.1,18,1.9,1.06834,-1.63152,0.591189,0.592047,-0.0883199,-0.0121199,-0.515841,0.103965,0.0149235,0.0082086,0.183995,5,0.1,19,1.9,3.68053,-2.97425,0.539717,-0.0461645,0.866026,0.00290051,0.00193715,0,-0.00013411,0.00694242,2.27053,5,0.1
0,2,-2.28177,2.75364,0.613873,0.412357,-0.0804543,-0.0131905,-0.214934,0.123262,0.0141561,0.00840578,0.274906,5,0.1,1,2,-3.16767,-1.14977,0.583086,0.27656,0.76564,0.0138447,1.17278,-0.309646,-0.00786781,0.0166521,1.95403,5,0.1,2,2,-0.160033,1.30682,0.591872,-0.199784,-0.0536889,0.0116065,0.103042,0.291228,-0.00599027,0.0138886,0.325589,5,0.1,3,2,-2.45067,3.08108,0.606379,0.46261,-0.324535,-0.00804067,-0.586987,0.59855,0.00497699,0.0116144,0.51002,5,0.1,4,2,-0.267465,-2.60134,0.592804,-0.0232138,0.866026,0.00501722,0.0285208,0,-0.00503659,0.0108613,2.27171,5,0.1,5,2,-0.0190172,2.92606,0.582583,-0.246882,-0.181735,0.0279009,0.185628,0.136614,-0.0209808,0.00756676,0.0102672,5,0.1,6,2,-3.2,1.42842,0.604663,0.0571787,0.226253,-0.00475794,0.729322,-0.234962,0.00491738,0.00732466,1.55132,5,0.1,7,2,1.56135,-1.83053,0.571003,0.00146031,0.386021,-0.128871,0.237763,0.0278354,-0.120461,0.00707149,0.172803,5,0.1,8,2,-3.3558,-2.22694,0.613067,0.210118,0.549316,-0.0133395,-0.218034,-0.472069,0.0138879,0.008579,0.130652,5,0.1,9,2,1.12724,-3.6677,0.644901,-0.533545,0.166607,0.017941,0.470519,-0.172973,-0.0186563,0.00734814,0.116705,5,0.1,10,2,3.1113,3.07784,0.611391,-0.243026,-0.232619,-0.0116259,-0.157952,0.241518,0.0120997,0.0120282,0.189854,5,0.1,11,2,-1.96759,2.60115,0.622868,0.321829,-0.231546,-0.0058502,0.177264,0.534773,0.0597537,0.00609888,0.178353,5,0.1,12,2,3.5001,-1.26083,0.564191,-0.0166059,0.866026,0.0118703,0.0038147,-5.96046e-05,-0.00268221,0.0170269,2.27166,5,0.1,13,2,4.08248,-2.47896,0.505201,-0.170767,0.866026,-0.0117108,0.0135899,0,0.00339746,0.015988,2.25162,5,0.1,14,2,1.50252,-2.17184,0.736859,-0.240254,0.310916,0.00798702,-0.270009,0.208855,-0.142366,0.010216,0.755059,5,0.1,15,2,-1.54925,3.59444,0.617232,0.173956,-0.216752,0.0566468,-0.177562,0.221372,-0.0578165,0.0104361,0.00871241,5,0.1,16,2,1.34589,-2.75438,0.500054,0.00137985,0.837219,-6.70552e-05,0.00113249,-0.403881,-0.000447035,0.0207952,2.47576,5,0.1,17,2,-1.31656,-3.15898,0.604084,0.41219,0.35187,-0.00165701,-0.400662,1.48892,0.00157952,0.0297196,2.63444,5,0.1,18,2,1.12484,-1.63982,0.590055,0.536761,-0.0774115,-0.0105456,-0.594318,0.113904,0.0165105,0.0071018,0.141517,5,0.1,19,2,3.67593,-2.88765,0.540006,-0.0457168,0.866026,0.00287145,0.00882149,0,-0.000566244,0.0101277,2.27057,5,0.1
0,2.1,-2.2413,2.74607,0.612622,0.399152,-0.0720907,-0.0118461,-0.0780672,0.0522584,0.0129864,0.00840578,0.274906,5,0.1,1,2.1,-3.13383,-1.07461,0.584434,0.401792,0.738168,0.0131352,1.26474,-0.26989,-0.00682473,0.0166521,1.95403,5,0.1,2,2.1,-0.179464,1.30283,0.593,-0.188438,-0.0269756,0.0109468,0.126718,0.235349,-0.00736862,0.0138886,0.325589,5,0.1,3,2.1,-2.40718,3.05132,0.605599,0.408567,-0.273319,-0.00755526,-0.504807,0.439376,0.00493228,0.0116144,0.51002,5,0.1,4,2.1,-0.269656,-2.51473,0.593283,-0.0207213,0.866026,0.00457074,0.0221897,0,-0.00406802,0.0108613,2.27171,5,0.1,5,2.1,-0.0427564,2.90858,0.585266,-0.22761,-0.16755,0.0257229,0.20294,0.149369,-0.0229366,0.00756676,0.0102672,5,0.1,6,2.1,-3.18979,1.44994,0.60421,0.153492,0.204681,-0.00430625,1.11906,-0.202753,0.00424683,0.00732466,1.55132,5,0.1,7,2.1,1.56263,-1.79171,0.557738,0.023645,0.39066,-0.134314,0.201695,0.043422,0.00640377,0.00707149,0.172803,5,0.1,8,2.1,-3.33582,-2.17423,0.611798,0.190098,0.505821,-0.0120648,-0.188172,-0.414073,0.0119768,0.008579,0.130652,5,0.1,9,2.1,1.0761,-3.65185,0.646608,-0.490233,0.150725,0.0162281,0.411399,-0.14928,-0.0160933,0.00734814,0.116705,5,0.1,10,2.1,3.0861,3.05571,0.610286,-0.261659,-0.210444,-0.0105154,-0.193045,0.208393,0.0104308,0.0120282,0.189854,5,0.1,11,2.1,-1.93443,2.58027,0.622569,0.341679,-0.189503,-0.000274088,0.195473,0.324175,0.0509731,0.00609888,0.178353,5,0.1,12,2.1,3.49845,-1.17423,0.56537,-0.0164066,0.866025,0.011731,0.00114739,1.49012e-05,-0.000800937,0.0170269,2.27166,5,0.1,13,2.1,4.06538,-2.39235,0.504059,-0.171829,0.866026,-0.0110174,-0.0226796,0,0.0100657,0.015988,2.25162,5,0.1,14,2.1,1.47704,-2.13962,0.736911,-0.269953,0.333846,-0.00712778,-0.299118,0.22535,-0.153728,0.010216,0.755059,5,0.1,15,2.1,-1.53273,3.57385,0.622612,0.156535,-0.195037,0.0509741,-0.1738,0.216633,-0.0565946,0.0104361,0.00871241,5,0.1,16,2.1,1.34599,-2.67263,0.500046,0.000190735,0.797761,-9.75095e-05,-0.0221282,-0.409678,-0.000175089,0.0207952,2.47576,5,0.1,17,2.1,-1.27722,-3.11591,0.603925,0.375335,0.511716,-0.00151144,-0.348069,1.62083,0.00138208,0.0297196,2.63444,5,0.1,18,2.1,1.17547,-1.64705,0.589101,0.475059,-0.0678446,-0.00837669,-0.638194,0.0810921,0.02563,0.0071018,0.141517,5,0.1,19,2.1,3.67139,-2.80105,0.540291,-0.0453427,0.866026,0.00284696,0.00143051,0,-0.000100583,0.0101277,2.27057,5,0.1
0,2.2,-2.20175,2.73906,0.611502,0.391746,-0.0685513,-0.01055,-0.0914335,0.0249147,0.0131428,0.00915097,0.205249,5,0.1,1,2.2,-3.08763,-1.00228,0.585712,0.517946,0.706576,0.0123948,1.0103,-0.382572,-0.00834465,0.0239257,1.46844,5,0.1,2,2.2,-0.197617,1.30117,0.594055,-0.174002,-0.00776052,0.0101089,0.163548,0.145257,-0.00953674,0.0226604,0.304779,5,0.1,3,2.2,-2.36878,3.02602,0.604869,0.359768,-0.234252,-0.00701845,-0.478864,0.352621,0.00593066,0.0223381,0.604084,5,0.1,4,2.2,-0.271622,-2.42813,0.59372,-0.0186272,0.866026,0.00417233,0.0203252,0,-0.00399351,0.00959903,2.27176,5,0.1,5,2.2,-0.0644542,2.89261,0.587718,-0.205815,-0.151509,0.0232592,0.234615,0.172734,-0.0264943,0.00790913,0.0050911,5,0.1,6,2.2,-3.16873,1.46941,0.6038,0.267339,0.184637,-0.00388622,1.09911,-0.202417,0.00423193,0.0142372,1.25118,5,0.1,7,2.2,1.56592,-1.75254,0.544512,0.0411004,0.39106,-0.128603,0.14466,-0.0503063,0.102937,0.0110934,0.502684,5,0.1,8,2.2,-3.31774,-2.12573,0.610651,0.171494,0.46376,-0.0108823,-0.187874,-0.438452,0.0119507,0.012506,0.151108,5,0.1,9,2.2,1.02914,-3.63752,0.648151,-0.448608,0.13597,0.0146374,0.431836,-0.149131,-0.0160635,0.0111962,0.135051,5,0.1,10,2.2,3.05906,3.0357,0.609286,-0.277925,-0.189841,-0.00948459,-0.116944,0.20802,0.010401,0.020847,0.13934,5,0.1,11,2.2,-1.89941,2.56272,0.622777,0.356799,-0.16349,0.00421256,0.0900626,0.210524,0.0382364,0.00753261,0.173356,5,0.1,12,2.2,3.49682,-1.08763,0.566537,-0.0162065,0.866026,0.0115901,0.00357628,-5.96046e-05,-0.0025332,0.026977,2.27167,5,0.1,13,2.2,4.0481,-2.30575,0.503016,-0.173223,0.866026,-0.00977218,0.00405312,0,0.0144541,0.0174071,2.25123,5,0.1,14,2.2,1.44866,-2.10525,0.735453,-0.29583,0.351828,-0.0216827,-0.200689,0.117421,-0.132889,0.0157002,0.662618,5,0.1,15,2.2,-1.51795,3.55545,0.627423,0.13873,-0.172853,0.0451773,-0.18388,0.229359,-0.0599325,0.0112566,0.00260583,5,0.1,16,2.2,1.34588,-2.59507,0.500035,-0.00254512,0.751227,-0.000104308,-0.0303984,-0.537157,0,0.0314447,2.64648,5,0.1,17,2.2,-1.24142,-3.05701,0.603781,0.340602,0.661027,-0.0013724,-0.354648,1.30236,0.00140071,0.0451419,2.33495,5,0.1,18,2.2,1.21973,-1.65346,0.588398,0.409502,-0.0605583,-0.00564009,-0.670731,0.0675321,0.0281036,0.0276245,0.212496,5,0.1,19,2.2,3.66687,-2.71444,0.540575,-0.0449598,0.866026,0.00282228,0.00834465,0,-0.000536442,0.0114242,2.27061,5,0.1
0,2.3,-2.16287,2.73226,0.61051,0.386751,-0.0679888,-0.00932813,-0.0312924,-0.00727177,0.0115186,0.00915097,0.205249,5,0.1,1,2.3,-3.03078,-0.933404,0.586912,0.617712,0.671535,0.0116321,0.933379,-0.342891,-0.0073202,0.0239257,1.46844,5,0.1,2,2.3,-0.214194,1.30106,0.595018,-0.157434,0.00463743,0.00914335,0.169449,0.0830367,-0.00986457,0.0226604,0.304779,5,0.1,3,2.3,-2.33508,3.00395,0.604196,0.315351,-0.21042,-0.00645053,-0.416949,0.147969,0.00558794,0.0223381,0.604084,5,0.1,4,2.3,-0.273395,-2.34153,0.594119,-0.0169261,0.866026,0.00383342,0.0145622,0,-0.00296906,0.00959903,2.27176,5,0.1,5,2.3,-0.0838742,2.87832,0.589913,-0.18264,-0.134447,0.0206416,0.231207,0.170216,-0.0261143,0.00790913,0.0050911,5,0.1,6,2.3,-3.13627,1.48692,0.603432,0.382766,0.166188,-0.00350028,1.15049,-0.171833,0.00359863,0.0142372,1.25118,5,0.1,7,2.3,1.57144,-1.71463,0.532319,0.0750996,0.358834,-0.113935,0.485137,-0.548385,0.182819,0.0110934,0.502684,5,0.1,8,2.3,-3.30139,-2.08118,0.609614,0.15664,0.430089,-0.00993768,-0.119239,-0.263244,0.00757352,0.012506,0.151108,5,0.1,9,2.3,0.986084,-3.62456,0.649546,-0.415338,0.124179,0.0133673,0.260867,-0.0946522,-0.0101924,0.0111962,0.135051,5,0.1,10,2.3,3.03064,3.01769,0.608386,-0.290294,-0.170879,-0.00853688,-0.113457,0.176623,0.00882149,0.020847,0.13934,5,0.1,11,2.3,-1.86322,2.54709,0.623381,0.367122,-0.151758,0.00776406,0.0952855,0.0450909,0.0319779,0.00753261,0.173356,5,0.1,12,2.3,3.49521,-1.00102,0.567688,-0.0160277,0.866025,0.0114636,0.000983477,1.11759e-05,-0.000689179,0.026977,2.27167,5,0.1,13,2.3,4.03072,-2.21915,0.502117,-0.174864,0.866026,-0.0081609,-0.0251234,0,0.0173487,0.0174071,2.25123,5,0.1,14,2.3,1.41862,-2.06972,0.73266,-0.29992,0.356034,-0.0337113,0.102326,-0.0351816,-0.105284,0.0157002,0.662618,5,0.1,15,2.3,-1.50499,3.5393,0.631644,0.120572,-0.150213,0.0392605,-0.179976,0.224367,-0.0586361,0.0112566,0.00260583,5,0.1,16,2.3,1.34576,-2.52247,0.500025,0.00263117,0.701677,-9.68575e-05,0.116751,-0.477508,0.00013411,0.0314447,2.64648,5,0.1,17,2.3,-1.20876,-2.98491,0.603649,0.315611,0.774901,-0.00127358,-0.171393,0.940099,0.000674278,0.0451419,2.33495,5,0.1,18,2.3,1.25761,-1.65939,0.58798,0.350773,-0.0598058,-0.00269217,-0.518404,-0.0387579,0.0298955,0.0276245,0.212496,5,0.1,19,2.3,3.66239,-2.62784,0.540856,-0.0446297,0.866026,0.00280077,0.000983477,0,-7.07805e-05,0.0114242,2.27061,5,0.1
0,2.4,-2.12441,2.72541,0.609633,0.381589,-0.068903,-0.00820607,-0.0882149,-0.00607967,0.0110269,0.00847395,0.148837,5,0.1,1,2.4,-2.96481,-0.868064,0.588038,0.695902,0.633843,0.01086,0.594974,-0.427842,-0.00837445,0.0279919,1.05132,5,0.1,2,2.4,-0.22907,1.30173,0.595882,-0.139865,0.00623763,0.00812113,0.182778,-0.0574589,-0.0106096,0.0225136,0.264621,5,0.1,3,2.4,-2.30557,2.98348,0.60358,0.275105,-0.200433,-0.00587255,-0.393271,0.0700951,0.00602007,0.0173847,0.51559,5,0.1,4,2.4,-0.275018,-2.25493,0.594488,-0.0155635,0.866026,0.00354648,0.0133067,0,-0.00286102,0.0147085,2.27179,5,0.1,5,2.4,-0.100973,2.86573,0.591845,-0.159222,-0.117207,0.0179961,0.238337,0.175476,-0.0269115,0.0100672,0.00157649,5,0.1,6,2.4,-3.09255,1.5027,0.603099,0.487322,0.149372,-0.00314713,0.898123,-0.168145,0.00354648,0.0096686,0.953734,5,0.1,7,2.4,1.5816,-1.682,0.521919,0.129271,0.289682,-0.0934258,0.559747,-0.797451,0.221074,0.00914537,0.290116,5,0.1,8,2.4,-3.28627,-2.03939,0.608655,0.145906,0.406194,-0.0092566,-0.102997,-0.235677,0.00652671,0.0115046,0.0880272,5,0.1,9,2.4,0.945756,-3.61257,0.650836,-0.391695,0.115663,0.0124499,0.2321,-0.0816584,-0.00882149,0.0108132,0.0786676,5,0.1,10,2.4,3.00117,3.00146,0.607576,-0.297737,-0.153595,-0.0076741,-0.0238419,0.172853,0.00864267,0.0173552,0.16903,5,0.1,11,2.4,-1.82617,2.53201,0.624301,0.372288,-0.15077,0.0104725,-0.00649691,-0.00917912,0.0217259,0.00807503,0.168045,5,0.1,12,2.4,3.49361,-0.914421,0.56883,-0.0158429,0.866026,0.0113338,0.00321865,0,-0.00235438,0.0409459,2.27168,5,0.1,13,2.4,4.01314,-2.13255,0.501389,-0.176239,0.866026,-0.00637919,0.00596046,0,0.017941,0.0188795,2.25341,5,0.1,14,2.4,1.38953,-2.03456,0.728824,-0.278482,0.344634,-0.0423521,0.311732,-0.192404,-0.0661016,0.0130316,0.110351,5,0.1,15,2.4,-1.49383,3.52539,0.635277,0.102639,-0.127858,0.0334188,-0.178933,0.222921,-0.0582933,0.0192531,0.00102733,5,0.1,16,2.4,1.34674,-2.45475,0.500016,0.0177443,0.651729,-7.89762e-05,0.172138,-0.537634,0.000178814,0.0295151,2.83505,5,0.1,17,2.4,-1.17793,-2.90352,0.603525,0.301734,0.844282,-0.00121891,-0.125885,0.434875,0.000536442,0.0604946,2.23168,5,0.1,18,2.4,1.29025,-1.66565,0.587856,0.303277,-0.065881,0.000171363,-0.442445,-0.0721216,0.0266433,0.00946478,0.152689,5,0.1,19,2.4,3.65794,-2.54124,0.541135,-0.0442863,0.866026,0.00277758,0.00762939,0,-0.000447035,0.0155523,2.27064,5,0.1
0,2.5,-2.0866,2.71846,0.608864,0.37499,-0.0703543,-0.0071954,-0.0619739,-0.0179708,0.00938773,0.00847395,0.148837,5,0.1,1,2.5,-2.89233,-0.80669,0.589084,0.751793,0.594384,0.0100919,0.482291,-0.381697,-0.0073351,0.0279919,1.05132,5,0.1,2,2.5,-0.242158,1.3019,0.596642,-0.122014,-0.00533257,0.00708485,0.175219,-0.20311,-0.0101738,0.0225136,0.264621,5,0.1,3,2.5,-2.27986,2.96345,0.603022,0.240668,-0.202751,-0.00529038,-0.305295,-0.089556,0.00572577,0.0173847,0.51559,5,0.1,4,2.5,-0.276518,-2.16832,0.594831,-0.0145087,0.866026,0.00331476,0.00862963,0,-0.00195205,0.0147085,2.27179,5,0.1,5,2.5,-0.115719,2.85487,0.593512,-0.135825,-0.0999816,0.0153534,0.22985,0.169218,-0.0259653,0.0100672,0.00157649,5,0.1,6,2.5,-3.03935,1.51685,0.602801,0.57529,0.134138,-0.00282563,0.815809,-0.14095,0.00297278,0.0096686,0.953734,5,0.1,7,2.5,1.59754,-1.65698,0.513703,0.190834,0.211416,-0.0708119,0.635304,-0.757605,0.226196,0.00914537,0.290116,5,0.1,8,2.5,-3.27214,-1.9998,0.607758,0.137286,0.38664,-0.00871066,-0.0760257,-0.17406,0.00481308,0.0115046,0.0880272,5,0.1,9,2.5,0.9076,-3.60137,0.652042,-0.372428,0.10883,0.0117121,0.171237,-0.0602454,-0.00650436,0.0108132,0.0786676,5,0.1,10,2.5,2.97101,2.98684,0.606845,-0.307207,-0.140003,-0.00699488,-0.136212,0.108197,0.0054054,0.0173552,0.16903,5,0.1,11,2.5,-1.78888,2.51667,0.625458,0.373709,-0.157627,0.012657,0.0146106,-0.107929,0.0207834,0.00807503,0.168045,5,0.1,12,2.5,3.49204,-0.827818,0.569956,-0.0156909,0.866026,0.0112209,0.000745058,-3.72529e-06,-0.00057742,0.0409459,2.27168,5,0.1,13,2.5,3.99552,-2.04594,0.500839,-0.176154,0.866026,-0.00463445,0.00411272,0,0.0167042,0.0188795,2.25341,5,0.1,14,2.5,1.36351,-2.00127,0.724731,-0.239533,0.319152,-0.0354587,0.451557,-0.311822,0.177715,0.0130316,0.110351,5,0.1,15,2.5,-1.48445,3.5137,0.638333,0.0852423,-0.106186,0.027752,-0.168763,0.210196,-0.0549592,0.0192531,0.00102733,5,0.1,16,2.5,1.34963,-2.39211,0.500009,0.0421077,0.60212,-5.88596e-05,0.292942,-0.473991,0.000208616,0.0295151,2.83505,5,0.1,17,2.5,-1.14814,-2.81776,0.603405,0.296083,0.864667,-0.0011934,-0.0112429,0.0543594,6.70552e-05,0.0604946,2.23168,5,0.1,18,2.5,1.3188,-1.67255,0.587979,0.271348,-0.07158,0.00201166,-0.222325,-0.0401139,0.0111386,0.00946478,0.152689,5,0.1,19,2.5,3.65353,-2.45464,0.541412,-0.0440169,0.866026,0.00276333,0.000491738,0,-1.11759e-05,0.0155523,2.27064,5,0.1
0,2.6,-2.04949,2.71135,0.60819,0.366104,-0.0716448,-0.00629574,-0.128269,-0.00429153,0.00873208,0.0165228,0.181116,5,0.1,1,2.6,-2.8152,-0.74922,0.590056,0.785595,0.55407,0.00933558,0.166655,-0.438601,-0.00801682,0.014993,0.724465,5,0.1,2,2.6,-0.253489,1.3,0.5973,-0.104669,-0.0358105,0.00607818,0.172228,-0.391543,-0.0100136,0.0163036,0.20842,5,0.1,3,2.6,-2.25724,2.94264,0.602521,0.212336,-0.213629,-0.00471175,-0.268459,-0.107765,0.00590086,0.0149567,0.428056,5,0.1,4,2.6,-0.277928,-2.08172,0.595153,-0.0136919,0.866026,0.00312477,0.00832975,0,-0.00193715,0.0137505,2.27181,5,0.1,5,2.6,-0.128165,2.84571,0.594919,-0.113237,-0.0833511,0.0128016,0.221819,0.163317,-0.0250638,0.0132305,0.000847315,5,0.1,6,2.6,-2.97818,1.52958,0.602533,0.642824,0.120428,-0.00253618,0.503898,-0.136375,0.00286102,0.0125349,0.686534,5,0.1,7,2.6,1.61968,-1.63949,0.507727,0.250077,0.139937,-0.0490516,0.523329,-0.664532,0.205398,0.00984628,0.233552,5,0.1,8,2.6,-3.25879,-1.96203,0.606911,0.129569,0.368199,-0.00822246,-0.0833273,-0.207901,0.00527501,0.0126661,0.0703997,5,0.1,9,2.6,0.871233,-3.59079,0.653181,-0.354376,0.102711,0.0110522,0.202507,-0.0659227,-0.00712276,0.0128877,0.0614053,5,0.1,10,2.6,2.93962,2.97333,0.60617,-0.31991,-0.130355,-0.00651479,-0.0964403,0.0915527,0.00458956,0.0238064,0.102987,5,0.1,11,2.6,-1.75154,2.50034,0.626818,0.371769,-0.168866,0.0144288,-0.0675917,-0.102162,0.0138581,0.00950286,0.16636,5,0.1,12,2.6,3.49048,-0.741216,0.571074,-0.015533,0.866026,0.0111029,0.00321865,0,-0.00226498,0.0242884,2.27169,5,0.1,13,2.6,3.97798,-1.95934,0.500456,-0.173998,0.866026,-0.00308156,0.0445843,0,0.0142157,0.0196926,2.25385,5,0.1,14,2.6,1.34194,-1.97107,0.722297,-0.191006,0.283349,-0.0115037,0.506163,-0.398815,0.280619,0.00640033,0.582127,5,0.1,15,2.6,-1.47675,3.50411,0.64084,0.0689417,-0.0858843,0.0224426,-0.156999,0.195622,-0.0510812,0.00897813,0.000785907,5,0.1,16,2.6,1.35535,-2.3343,0.500005,0.0724375,0.55365,-3.72529e-05,0.296772,-0.508785,0.000178814,0.0221118,3.00522,5,0.1,17,2.6,-1.11856,-2.73119,0.603285,0.295308,0.866026,-0.00118762,-0.0219941,0,8.9407e-05,0.0291983,2.2111,5,0.1,18,2.6,1.34501,-1.67984,0.588216,0.254199,-0.0736356,0.00257939,-0.140607,-5.96046e-05,0.000983477,0.0105359,0.102742,5,0.1,19,2.6,3.64914,-2.36803,0.541688,-0.04372,0.866026,0.00274628,0.00727177,0,-0.000447035,0.00860045,2.27067,5,0.1
0,2.7,-2.0132,2.70408,0.607599,0.362123,-0.0743296,-0.00557676,0.0174195,-0.0411421,0.00598282,0.0165228,0.181116,5,0.1,1,2.7,-2.73587,-0.695876,0.590952,0.799575,0.51366,0.00860104,0.0803769,-0.386529,-0.00696257,0.014993,0.724465,5,0.1,2,2.7,-0.263122,1.29431,0.597859,-0.0882463,-0.078829,0.00512358,0.156878,-0.445783,-0.00911951,0.0163036,0.20842,5,0.1,3,2.7,-2.23714,2.92049,0.602079,0.191446,-0.231158,-0.00414066,-0.16287,-0.215322,0.00557303,0.0149567,0.428056,5,0.1,4,2.7,-0.279264,-1.99512,0.595457,-0.01308,0.866026,0.00297707,0.00470877,0,-0.00119209,0.0137505,2.27181,5,0.1,5,2.7,-0.138406,2.83817,0.596077,-0.0918679,-0.0676189,0.0103866,0.205043,0.150964,-0.023175,0.0132305,0.000847315,5,0.1,6,2.7,-2.91146,1.54098,0.602293,0.689787,0.108131,-0.00227802,0.39959,-0.113241,0.00237674,0.0125349,0.686534,5,0.1,7,2.7,1.64731,-1.62842,0.50379,0.301686,0.0850867,-0.0303399,0.482753,-0.442803,0.166714,0.00984628,0.233552,5,0.1,8,2.7,-3.2463,-1.92609,0.606111,0.119696,0.351699,-0.00780234,-0.113875,-0.141397,0.0035651,0.0126661,0.0703997,5,0.1,9,2.7,0.836653,-3.58079,0.654256,-0.338307,0.0974551,0.0104846,0.137512,-0.0446439,-0.0048168,0.0128877,0.0614053,5,0.1,10,2.7,2.9071,2.9607,0.605539,-0.330503,-0.122774,-0.00613518,-0.0965148,0.0661761,0.00330806,0.0238064,0.102987,5,0.1,11,2.7,-1.71459,2.48297,0.62834,0.36792,-0.178206,0.016052,-0.0295565,-0.0772476,0.017006,0.00950286,0.16636,5,0.1,12,2.7,3.48893,-0.654613,0.572177,-0.0153791,0.866026,0.0109953,0.000789762,-3.72529e-06,-0.000547618,0.0242884,2.27169,5,0.1,13,2.7,3.96074,-1.87274,0.500213,-0.171074,0.866026,-0.00182595,0.0232309,0,0.0108555,0.0196926,2.25385,5,0.1,14,2.7,1.32537,-1.9455,0.72281,-0.140733,0.221721,0.0237273,0.490293,-0.784017,0.399359,0.00640033,0.582127,5,0.1,15,2.7,-1.47061,3.49647,0.642837,0.0540037,-0.0672732,0.0175819,-0.141293,0.175998,-0.0459775,0.00897813,0.000785907,5,0.1,16,2.7,1.3643,-2.28115,0.500002,0.107881,0.511935,-2.04891e-05,0.386655,-0.352874,0.000149012,0.0221118,3.00522,5,0.1,17,2.7,-1.08896,-2.64459,0.603166,0.297952,0.866026,-0.00119805,0.0523478,0,-0.000208616,0.0291983,2.2111,5,0.1,18,2.7,1.37004,-1.68714,0.588457,0.248766,-0.0717564,0.00203187,0.0063628,0.0365749,-0.0106357,0.0105359,0.102742,5,0.1,19,2.7,3.64478,-2.28143,0.541961,-0.043476,0.866026,0.00273166,0.000283122,0,-1.86265e-05,0.00860045,2.27067,5,0.1
0,2.8,-1.97687,2.69644,0.607069,0.364172,-0.0784457,-0.00504255,0.000655651,-0.0350475,0.00497699,0.00964289,0.109914,5,0.1,1,2.8,-2.65587,-0.646469,0.591777,0.79627,0.473905,0.00789613,-0.168204,-0.420272,-0.00739098,0.0198636,0.486888,5,0.1,2,2.8,-0.271184,1.28427,0.598327,-0.0731848,-0.120986,0.00424832,0.144765,-0.380516,-0.00840425,0.02164,0.192878,5,0.1,3,2.8,-2.21872,2.89631,0.601693,0.177383,-0.251925,-0.0035882,-0.128508,-0.179648,0.00548363,0.018642,0.342244,5,0.1,4,2.8,-0.280549,-1.90852,0.595749,-0.0126116,0.866026,0.00285655,0.00524521,0,-0.0013411,0.0129274,2.02104,5,0.1,5,2.8,-0.1466,2.83214,0.597003,-0.0723246,-0.0532329,0.00817776,0.185385,0.136495,-0.0209808,0.00915723,0.000724546,5,0.1,6,2.8,-2.8409,1.55125,0.602077,0.716776,0.0971526,-0.00204593,0.116587,-0.109017,0.00226498,0.0100311,0.473099,5,0.1,7,2.8,1.67965,-1.62183,0.501513,0.342229,0.049457,-0.0159994,0.310183,-0.278711,0.119299,0.00902219,0.208744,5,0.1,8,2.8,-3.23495,-1.89165,0.605349,0.106889,0.336635,-0.00743419,-0.141621,-0.173569,0.00405312,0.0108613,0.178881,5,0.1,9,2.8,0.803527,-3.57127,0.65528,-0.323704,0.0928521,0.00998825,0.167638,-0.0511408,-0.00548363,0.0121707,0.0279907,5,0.1,10,2.8,2.87369,2.94875,0.604942,-0.336021,-0.116074,-0.00580102,-0.000715256,0.07236,0.00363588,0.0156062,0.0826732,5,0.1,11,2.8,-1.67802,2.46485,0.630025,0.362423,-0.18307,0.0175565,-0.0944734,-0.0146627,0.0119209,0.0111552,0.181371,5,0.1,12,2.8,3.4874,-0.568011,0.573272,-0.0152171,0.866026,0.0108808,0.00309944,0,-0.00220537,0.024843,2.2717,5,0.1,13,2.8,3.94378,-1.78614,0.500079,-0.167763,0.866026,-0.000914931,0.0494719,-5.96046e-05,0.00742078,0.0191404,2.25494,5,0.1,14,2.8,1.31366,-1.92755,0.727208,-0.0944734,0.135407,0.0640497,0.428557,-0.903308,0.388503,0.0133658,0.289693,5,0.1,15,2.8,-1.46589,3.49059,0.644374,0.0407636,-0.0507832,0.013274,-0.123203,0.153542,-0.0401139,0.0150312,0.000655425,5,0.1,16,2.8,1.37699,-2.23164,0.5,0.145346,0.478351,-7.45058e-06,0.343859,-0.338793,8.9407e-05,0.0288787,3.10804,5,0.1,17,2.8,-1.05893,-2.55798,0.603046,0.301903,0.866026,-0.00121295,0.010252,0,-5.96046e-05,0.0412627,2.20855,5,0.1,18,2.8,1.39502,-1.69408,0.588596,0.25101,-0.0665486,0.000685453,0.0195503,0.0665188,-0.0152588,0.0181475,0.0915921,5,0.1,19,2.8,3.64044,-2.19483,0.542234,-0.0432014,0.866026,0.00271499,0.00703335,0,-0.000447035,0.0211458,2.27089,5,0.1
0,2.9,-1.94036,2.6884,0.606587,0.366356,-0.0823349,-0.00462001,0.0227094,-0.0374019,0.00369176,0.00964289,0.109914,5,0.1,1,2.9,-2.57708,-0.601053,0.592532,0.778776,0.435322,0.0072212,-0.208408,-0.365511,-0.00634417,0.0198636,0.486888,5,0.1,2,2.9,-0.277844,1.27069,0.598712,-0.0605965,-0.146525,0.0034621,0.109661,-0.141099,-0.00735372,0.02164,0.192878,5,0.1,3,2.9,-2.20136,2.87005,0.601361,0.172106,-0.274399,-0.00305427,0.00275671,-0.243381,0.00520423,0.018642,0.342244,5,0.1,4,2.9,-0.281789,-1.82191,0.596029,-0.0122362,0.866026,0.00275504,0.00295788,0,-0.000841916,0.0129274,2.02104,5,0.1,5,2.9,-0.152941,2.82748,0.59772,-0.054867,-0.0403807,0.00620224,0.163199,0.120133,-0.01847,0.00915723,0.000724546,5,0.1,6,2.9,-2.76869,1.56045,0.601883,0.726087,0.0873581,-0.00184206,0.0408441,-0.0899285,0.00187382,0.0100311,0.473099,5,0.1,7,2.9,1.7154,-1.61793,0.500426,0.371952,0.0316221,-0.00653993,0.262484,-0.0934899,0.0711158,0.00902219,0.208744,5,0.1,8,2.9,-3.22503,-1.85862,0.604626,0.0908669,0.325728,-0.00700243,-0.174716,-0.0677258,0.00470132,0.0108613,0.178881,5,0.1,9,2.9,0.771971,-3.56223,0.656252,-0.307385,0.087944,0.00946196,0.168554,-0.049904,-0.00535324,0.0121707,0.0279907,5,0.1,10,2.9,2.84,2.93759,0.604377,-0.33809,-0.106439,-0.00551557,-0.0210404,0.117972,0.00238791,0.0156062,0.0826732,5,0.1,11,2.9,-1.64212,2.44675,0.631854,0.356334,-0.176878,0.019116,-0.0472069,0.117332,0.0173077,0.0111552,0.181371,5,0.1,12,2.9,3.48589,-0.481408,0.574354,-0.0150688,0.866026,0.0107754,0.00077486,-3.57628e-06,-0.000543892,0.024843,2.2717,5,0.1,13,2.9,3.92718,-1.69953,0.500019,-0.164596,0.866025,-0.000340864,0.0233054,1.49012e-05,0.00420958,0.0191404,2.25494,5,0.1,14,2.9,1.30622,-1.91754,0.73517,-0.0558566,0.073437,0.0915682,0.339508,-0.375956,0.171863,0.0133658,0.289693,5,0.1,15,2.9,-1.4624,3.48624,0.645511,0.0293244,-0.0365298,0.0095496,-0.105232,0.131115,-0.0342652,0.0150312,0.000655425,5,0.1,16,2.9,1.39289,-2.18535,0.5,0.169041,0.448557,-8.3819e-07,0.136219,-0.275239,4.09782e-05,0.0288787,3.10804,5,0.1,17,2.9,-1.02855,-2.47138,0.602924,0.30664,0.866026,-0.00123344,0.0631623,0,-0.00026077,0.0412627,2.20855,5,0.1,18,2.9,1.42044,-1.70038,0.588576,0.259012,-0.0592126,-0.00118427,0.114679,0.0793561,-0.0208542,0.0181475,0.0915921,5,0.1,19,2.9,3.63611,-2.10823,0.542505,-0.0438076,0.866026,0.00273632,-0.0146478,0,0.000629574,0.0211458,2.27089,5,0.1
0,3,-1.90371,2.68001,0.606143,0.365275,-0.0850141,-0.00426471,-0.0585318,-0.012517,0.00354648,0.00866741,0.0608941,5,0.1,1,3,-2.50049,-0.559352,0.593223,0.75016,0.398411,0.0065878,-0.38147,-0.382572,-0.00652671,0.0184407,0.32295,5,0.1,2,3,-0.283395,1.25565,0.599023,-0.0507809,-0.151256,0.00277311,0.0886917,0.0367165,-0.0064373,0.0405464,0.17754,5,0.1,3,3,-2.18405,2.84146,0.601081,0.174403,-0.296056,-0.00254512,0.0277758,-0.170469,0.00491738,0.0141344,0.259942,5,0.1,4,3,-0.282997,-1.73531,0.5963,-0.0119008,0.866026,0.00266284,0.00424683,-5.96046e-05,-0.00113249,0.0125752,1.58941,5,0.1,5,3,-0.157652,2.82401,0.598253,-0.0397749,-0.0292659,0.00449568,0.138305,0.101686,-0.015676,0.0101642,0.0005525,5,0.1,6,3,-2.6962,1.56875,0.601707,0.720167,0.0786453,-0.0016585,-0.178218,-0.0865459,0.00178814,0.0109844,0.316994,5,0.1,7,3,1.75368,-1.61504,0.500058,0.391081,0.0279665,-0.00145733,0.105321,0.00786781,0.0324547,0.009918,0.189606,5,0.1,8,3,-3.21684,-1.82636,0.603951,0.0726879,0.31909,-0.00647306,-0.18537,-0.0818968,0.00596046,0.0117107,0.224355,5,0.1,9,3,0.742142,-3.55371,0.65717,-0.28837,0.0823915,0.00886619,0.218153,-0.0630617,-0.00676513,0.0117772,0.0108791,5,0.1,10,3,2.80619,2.92759,0.603837,-0.336909,-0.0929475,-0.00527054,0.0579357,0.149369,0.00280142,0.0148487,0.154683,5,0.1,11,3,-1.60677,2.42973,0.633848,0.349587,-0.162923,0.0206813,-0.101805,0.149727,0.0125766,0.00745641,0.195936,5,0.1,12,3,3.48439,-0.394805,0.575427,-0.0149131,0.866025,0.0106618,0.00321865,1.43051e-05,-0.00220537,0.0253585,2.27171,5,0.1,13,3,3.91086,-1.61293,0.500002,-0.161481,0.866026,-4.32134e-05,0.0455379,-5.96046e-05,0.00187755,0.0294199,2.25591,5,0.1,14,3,1.30216,-1.91148,0.744897,-0.0271261,0.0529945,0.100313,0.233769,-0.0653267,0.0119209,0.00858461,0.299138,5,0.1,15,3,-1.45996,3.4832,0.646305,0.0197679,-0.0246286,0.0064373,-0.0857711,0.106931,-0.0279248,0.0146547,0.000433432,5,0.1,16,3,1.41017,-2.14189,0.5,0.173837,0.420213,1.49012e-06,-0.0340939,-0.30458,0,0.0313559,3.24015,5,0.1,17,3,-0.997622,-2.38478,0.602799,0.310878,0.866026,-0.00125021,0.0064373,0,-5.96046e-05,0.0291306,2.20655,5,0.1,18,3,1.4469,-1.70589,0.588353,0.269505,-0.0508428,-0.00326484,0.0766516,0.087142,-0.0197291,0.00962211,0.0477961,5,0.1,19,3,3.63165,-2.02162,0.542782,-0.0453472,0.866026,0.00279695,-0.0128746,0,0.000417233,0.00892377,2.27328,5,0.1
0,3.1,-1.86748,2.67145,0.605733,0.359008,-0.0859551,-0.00394518,-0.0795648,-0.00295043,0.00299141,0.00866741,0.0608941,5,0.1,1,3.1,-2.42732,-0.521304,0.593851,0.713288,0.363439,0.00599409,-0.378206,-0.328653,-0.00554696,0.0184407,0.32295,5,0.1,2,3.1,-0.288037,1.24104,0.59927,-0.0421357,-0.138235,0.00218078,0.0840016,0.202686,-0.00543147,0.0405464,0.17754,5,0.1,3,3.1,-2.16635,2.81095,0.60085,0.180498,-0.314295,-0.00208197,0.0784844,-0.173643,0.00435486,0.0141344,0.259942,5,0.1,4,3.1,-0.284169,-1.64871,0.596562,-0.0115616,0.86595,0.00256952,0.00309385,-0.00299513,-0.000856817,0.0125752,1.58941,5,0.1,5,3.1,-0.160976,2.82156,0.598628,-0.0270857,-0.0199351,0.00305809,0.115165,0.0847131,-0.0130385,0.0101642,0.0005525,5,0.1,6,3.1,-2.62507,1.57622,0.60155,0.701895,0.0708891,-0.00149766,-0.210911,-0.0711158,0.00148639,0.0109844,0.316994,5,0.1,7,3.1,1.79336,-1.61201,0.500034,0.402322,0.0342639,0.000618305,0.0977963,0.104301,0.0107922,0.009918,0.189606,5,0.1,8,3.1,-3.2105,-1.79478,0.603335,0.0542954,0.313113,-0.00584498,-0.17947,-0.0534058,0.00660866,0.0117107,0.224355,5,0.1,9,3.1,0.714407,-3.54579,0.658023,-0.266095,0.0759918,0.00817934,0.23181,-0.0662655,-0.00711158,0.0117772,0.0108791,5,0.1,10,3.1,2.77282,2.91908,0.603324,-0.329726,-0.0769466,-0.00500306,0.0956357,0.167966,0.00271946,0.0148487,0.154683,5,0.1,11,3.1,-1.57219,2.41426,0.635996,0.342938,-0.14696,0.0223997,-0.0506788,0.130937,0.0194721,0.00745641,0.195936,5,0.1,12,3.1,3.48291,-0.308203,0.576486,-0.0147507,0.866025,0.010553,0.00089407,-1.78814e-06,-0.000596046,0.0253585,2.27171,5,0.1,13,3.1,3.89487,-1.52633,0.500004,-0.15877,0.866025,7.6741e-05,0.0181049,1.49012e-05,0.000618398,0.0294199,2.25591,5,0.1,14,3.1,1.30042,-1.90611,0.754837,-0.00923406,0.0577893,0.0971055,0.12923,0.135913,-0.0709146,0.00858461,0.299138,5,0.1,15,3.1,-1.45839,3.48124,0.646818,0.012034,-0.0149895,0.00391947,-0.0687912,0.0857264,-0.0224002,0.0146547,0.000433432,5,0.1,16,3.1,1.42702,-2.10137,0.5,0.159864,0.390185,1.39698e-06,-0.228137,-0.304848,-3.72529e-06,0.0313559,3.24015,5,0.1,17,3.1,-0.966378,-2.29818,0.602673,0.314713,0.866026,-0.00126818,0.0498369,0,-0.000219792,0.0291306,2.20655,5,0.1,18,3.1,1.47424,-1.71054,0.587928,0.277003,-0.0420904,-0.00520973,0.0590384,0.0871494,-0.0184141,0.00962211,0.0477961,5,0.1,19,3.1,3.62695,-1.93502,0.543069,-0.0495728,0.866026,0.00298787,-0.0627786,0,0.00293553,0.00892377,2.27328,5,0.1
0,3.2,-1.8321,2.66288,0.605353,0.347245,-0.0850558,-0.00364184,-0.163972,0.0232458,0.00315905,0.0073672,0.042454,5,0.1,1,3.2,-2.35802,-0.486593,0.594423,0.670815,0.330675,0.00544339,-0.485778,-0.334874,-0.00554323,0.0119409,0.213332,5,0.1,2,3.2,-0.29184,1.22837,0.599462,-0.0340208,-0.114343,0.00168234,0.0781268,0.259936,-0.00455976,0.0175162,0.246874,5,0.1,3,3.2,-2.14793,2.77878,0.600663,0.187409,-0.327289,-0.00167191,0.0482798,-0.0718832,0.0038743,0.00880411,0.189502,5,0.1,4,3.2,-0.285308,-1.56215,0.596814,-0.0111878,0.864822,0.0024721,0.00476837,-0.0241399,-0.0012219,0.00869673,1.21456,5,0.1,5,3.2,-0.163149,2.81996,0.598873,-0.0167817,-0.012356,0.00189245,0.0908226,0.0667572,-0.0103116,0.00713142,0.000324595,5,0.1,6,3.2,-2.55614,1.58296,0.601407,0.674063,0.0639915,-0.00135452,-0.361443,-0.0687242,0.00149012,0.00723109,0.209323,5,0.1,7,3.2,1.83392,-1.60799,0.500126,0.406983,0.0463933,0.00101328,-0.0193715,0.127733,-0.00154972,0.00744787,0.179099,5,0.1,8,3.2,-3.20594,-1.76379,0.602785,0.0373065,0.305736,-0.00514984,-0.158191,-0.105262,0.00724196,0.00818478,1.09865,5,0.1,9,3.2,0.689008,-3.53853,0.658803,-0.241306,0.0689328,0.00742078,0.266522,-0.0759363,-0.00813603,0.00926773,0.00564902,5,0.1,10,3.2,2.74046,2.91224,0.602838,-0.316179,-0.059855,-0.00469983,0.181437,0.171542,0.00351667,0.00977442,0.133445,5,0.1,11,3.2,-1.5382,2.4,0.638329,0.33612,-0.140327,0.0241742,-0.0994802,0.00429153,0.0143647,0.00770788,0.194845,5,0.1,12,3.2,3.48144,-0.2216,0.577537,-0.0145853,0.866025,0.0104353,0.00321865,0,-0.00220537,0.014966,2.27172,5,0.1,13,3.2,3.8791,-1.43973,0.500014,-0.156242,0.866026,9.68575e-05,0.0392199,-5.96046e-05,-0.000149012,0.0148119,2.25669,5,0.1,14,3.2,1.30001,-1.89949,0.764092,-0.000277162,0.075689,0.0870943,0.0547171,0.202417,-0.124842,0.00809861,0.270986,5,0.1,15,3.2,-1.4575,3.48013,0.647107,0.00601411,-0.0074923,0.0019595,-0.0516176,0.064373,-0.0168085,0.00936128,0.00021786,5,0.1,16,3.2,1.44166,-2.06393,0.5,0.131342,0.357777,1.49012e-06,-0.328124,-0.348926,-2.98023e-05,0.0223984,3.34769,5,0.1,17,3.2,-0.934723,-2.21157,0.602546,0.317355,0.866026,-0.00128001,-0.0115037,0,2.98023e-05,0.0274577,2.20587,5,0.1,18,3.2,1.50211,-1.71432,0.587322,0.278938,-0.0335515,-0.00682175,-0.0297427,0.0829101,-0.0133514,0.00972935,0.0212244,5,0.1,19,3.2,3.62165,-1.84842,0.543384,-0.0563502,0.866026,0.00330508,-0.0661612,-5.96046e-05,0.00301003,0.00778321,2.2775,5,0.1
0,3.3,-1.79813,2.65448,0.605003,0.3324,-0.0829615,-0.00336748,-0.146471,0.0222027,0.00248104,0.0073672,0.042454,5,0.1,1,3.3,-2.29327,-0.455091,0.594942,0.624926,0.300193,0.00494029,-0.450641,-0.28461,-0.00468642,0.0119409,0.213332,5,0.1,2,3.3,-0.294864,1.21836,0.599609,-0.0265885,-0.0853801,0.00127163,0.070272,0.286557,-0.00367314,0.0175162,0.246874,5,0.1,3,3.3,-2.1289,2.74568,0.600514,0.193487,-0.334591,-0.00131587,0.0610352,-0.0577569,0.00326708,0.00880411,0.189502,5,0.1,4,3.3,-0.286405,-1.47568,0.597056,-0.0107697,0.865044,0.00236463,0.0040438,0.00289828,-0.00102073,0.00869673,1.21456,5,0.1,5,3.3,-0.164407,2.81904,0.599015,-0.00871916,-0.00642799,0.000977889,0.0704164,0.0517815,-0.00797957,0.00713142,0.000324595,5,0.1,6,3.3,-2.49048,1.58904,0.601279,0.639225,0.0578413,-0.00122124,-0.355035,-0.0563785,0.00121817,0.00723109,0.209323,5,0.1,7,3.3,1.87463,-1.60263,0.500213,0.40779,0.0614703,0.000682846,0.0126362,0.162512,-0.00458956,0.00744787,0.179099,5,0.1,8,3.3,-3.20304,-1.73321,0.602305,0.0205148,0.309977,-0.00444315,-0.165209,0.147745,0.00691414,0.00818478,1.09865,5,0.1,9,3.3,0.666191,-3.53201,0.659505,-0.21513,0.0614952,0.0066231,0.26039,-0.0738353,-0.00793114,0.00926773,0.00564902,5,0.1,10,3.3,2.7098,2.90711,0.602386,-0.296314,-0.0428699,-0.00434322,0.219867,0.164688,0.00369921,0.00977442,0.133445,5,0.1,11,3.3,-1.50494,2.38563,0.640839,0.329853,-0.149896,0.0261613,-0.0452027,-0.167459,0.022646,0.00770788,0.194845,5,0.1,12,3.3,3.47999,-0.134998,0.578574,-0.0144191,0.866025,0.0103231,0.000983477,1.49012e-07,-0.000651926,0.014966,2.27172,5,0.1,13,3.3,3.86361,-1.35312,0.500022,-0.154138,0.866025,6.97561e-05,0.0122488,1.49012e-05,-0.000361353,0.0148119,2.25669,5,0.1,14,3.3,1.30018,-1.89075,0.772125,0.00308566,0.100183,0.0731438,0.0154674,0.268288,-0.150565,0.00809861,0.270986,5,0.1,15,3.3,-1.45713,3.47968,0.647227,0.00154711,-0.00192411,0.00050487,-0.0378191,0.0471026,-0.0123121,0.00936128,0.00021786,5,0.1,16,3.3,1.45309,-2.02979,0.5,0.0969419,0.325882,-5.58794e-07,-0.351317,-0.299506,-7.45058e-06,0.0223984,3.34769,5,0.1,17,3.3,-0.902928,-2.12497,0.602417,0.319213,0.866026,-0.00128839,0.028953,0,-0.000119209,0.0274577,2.20587,5,0.1,18,3.3,1.52979,-1.71727,0.586578,0.273917,-0.0255967,-0.00799131,-0.0774264,0.0756457,-0.00967085,0.00972935,0.0212244,5,0.1,19,3.3,3.61559,-1.76182,0.543735,-0.0655655,0.865934,0.00375286,-0.10787,-0.00363588,0.00538677,0.00778321,2.2775,5,0.1
0,3.4,-1.76568,2.64632,0.604679,0.315681,-0.0800252,-0.0031203,-0.197053,0.0388622,0.002563,0.00817469,0.0177347,5,0.1,1,3.4,-2.23309,-0.426478,0.595413,0.577563,0.272074,0.00447929,-0.509381,-0.284731,-0.00467896,0.0130682,0.141182,5,0.1,2,3.4,-0.297186,1.2111,0.599719,-0.020007,-0.0618637,0.000941753,0.0611991,0.168204,-0.00295043,0.0145875,0.209685,5,0.1,3,3.4,-2.1093,2.71206,0.600398,0.19753,-0.336087,-0.00101626,0.0113249,0.0388622,0.00274181,0.00939402,0.133162,5,0.1,4,3.4,-0.28746,-1.38929,0.597287,-0.0103034,0.861159,0.00225008,0.00560284,-0.0973344,-0.0013113,0.0113874,0.900124,5,0.1,5,3.4,-0.164961,2.81863,0.599077,-0.00268556,-0.0019908,0.000295043,0.0504032,0.0370741,-0.00569224,0.00730966,0.00014447,5,0.1,6,3.4,-2.42845,1.59455,0.601163,0.599772,0.0523597,-0.00110269,-0.447273,-0.0548363,0.00116229,0.00701318,0.137607,5,0.1,7,3.4,1.91537,-1.59569,0.500257,0.405625,0.0769407,0.000174344,-0.0719428,0.13864,-0.0051856,0.00714911,4.33882,5,0.1,8,3.4,-3.20175,-1.70135,0.601895,0.00624657,0.32787,-0.00376254,-0.112653,0.178397,0.00667572,0.00955896,3.2633,5,0.1,9,3.4,0.645991,-3.52623,0.660128,-0.188704,0.0540078,0.0058189,0.26992,-0.0765324,-0.00825524,0.0122476,0.00170733,5,0.1,10,3.4,2.68136,2.90361,0.601971,-0.2716,-0.0275075,-0.00394881,0.276566,0.140429,0.00429153,0.0115071,0.248879,5,0.1,11,3.4,-1.47222,2.36971,0.643564,0.323772,-0.168866,0.0282332,-0.0901222,-0.190616,0.0167787,0.00857385,3.24587,5,0.1,12,3.4,3.47855,-0.0483952,0.579601,-0.0142455,0.866025,0.0102013,0.00309944,1.19209e-06,-0.00223517,0.0186888,2.27173,5,0.1,13,3.4,3.84827,-1.26652,0.500027,-0.152189,0.866026,2.98023e-05,0.0334978,-5.96046e-05,-0.000447035,0.014509,2.25732,5,0.1,14,3.4,1.30053,-1.87941,0.778669,0.00334978,0.126019,0.0576317,-0.007689,0.234246,-0.156701,0.0105677,0.389315,5,0.1,15,3.4,-1.45715,3.47969,0.647223,-0.00157654,0.00196695,-0.0005126,-0.0248551,0.0309944,-0.00810623,0.00949273,8.25537e-05,5,0.1,16,3.4,1.46105,-1.99869,0.5,0.0625819,0.296089,-1.49012e-06,-0.329256,-0.303745,0,0.0216373,3.40987,5,0.1,17,3.4,-0.870927,-2.03837,0.602288,0.319779,0.866026,-0.00129044,-0.0315607,0,0.000149012,0.0257589,2.20662,5,0.1,18,3.4,1.55667,-1.71946,0.585739,0.262386,-0.0185102,-0.00869483,-0.157177,0.0656843,-0.00417233,0.00830037,0.372083,5,0.1,19,3.4,3.6085,-1.67527,0.544137,-0.076133,0.864565,0.00428408,-0.0958443,-0.0291467,0.00479817,0.00939187,2.28286,5,0.1
0,3.5,-1.73511,2.63852,0.604379,0.295606,-0.0758927,-0.00287574,-0.211045,0.0454634,0.00240654,0.00817469,0.0177347,5,0.1,1,3.5,-2.17775,-0.400598,0.595839,0.530111,0.246258,0.0040561,-0.455394,-0.239812,-0.00392646,0.0130682,0.141182,5,0.1,2,3.5,-0.298896,1.20557,0.5998,-0.0143446,-0.0515722,0.000680424,0.0519305,0.00153482,-0.00229478,0.0145875,0.209685,5,0.1,3,3.5,-2.08947,2.67863,0.600309,0.199128,-0.332338,-0.000769179,0.0108778,0.0493824,0.00221655,0.00939402,0.133162,5,0.1,4,3.5,-0.288465,-1.30341,0.597506,-0.00979383,0.857813,0.00213115,0.0049565,-0.0170022,-0.00114366,0.0113874,0.900124,5,0.1,5,3.5,-0.165004,2.8186,0.599081,0.00156336,0.0011351,-0.000184309,0.0347868,0.0256151,-0.00391528,0.00730966,0.00014447,5,0.1,6,3.5,-2.37061,1.59953,0.601058,0.55759,0.0474548,-0.000998564,-0.412926,-0.0449941,0.000953674,0.00701318,0.137607,5,0.1,7,3.5,1.95372,-1.58724,0.500252,0.345283,0.0924902,-0.000229105,-1.03159,0.160895,-0.00298023,0.00714911,4.33882,5,0.1,8,3.5,-3.20182,-1.66675,0.601577,-0.00770278,0.371148,-0.00239741,-0.117585,0.611037,0.0190213,0.00955896,3.2633,5,0.1,9,3.5,0.628454,-3.52121,0.660669,-0.162188,0.0464935,0.00500856,0.261035,-0.0739545,-0.00797585,0.0122476,0.00170733,5,0.1,10,3.5,2.65563,2.9015,0.601598,-0.242608,-0.0152558,-0.00350969,0.302896,0.104278,0.00449643,0.0115071,0.248879,5,0.1,11,3.5,-1.44085,2.35018,0.646383,0.298895,-0.235734,0.0273773,-0.382945,-1.02726,-0.0299998,0.00857385,3.24587,5,0.1,12,3.5,3.47714,0.0382073,0.580614,-0.0140831,0.866025,0.0100826,0.000953674,0,-0.000726432,0.0186888,2.27173,5,0.1,13,3.5,3.83315,-1.17992,0.500028,-0.150594,0.866025,-8.28877e-06,0.00761449,1.49012e-05,-0.00031665,0.014509,2.25732,5,0.1,14,3.5,1.30083,-1.8656,0.783648,0.00269078,0.150262,0.0420085,-0.00622869,0.23593,-0.153247,0.0105677,0.389315,5,0.1,15,3.5,-1.45741,3.48002,0.647137,-0.00356399,0.00444315,-0.00116071,-0.0151098,0.0188202,-0.00492856,0.00949273,8.25537e-05,5,0.1,16,3.5,1.4658,-1.97038,0.5,0.0336152,0.271763,-1.11759e-06,-0.250921,-0.198931,7.45058e-06,0.0216373,3.40987,5,0.1,17,3.5,-0.838991,-1.95177,0.60216,0.319594,0.866026,-0.00128746,0.00876561,0,-1.49012e-05,0.0257589,2.20662,5,0.1,18,3.5,1.58205,-1.72016,0.585128,0.244321,0.0114547,-0.00119694,-0.204951,0.479899,0.136919,0.00830037,0.372083,5,0.1,19,3.5,3.60033,-1.58883,0.544594,-0.0875816,0.865022,0.00488292,-0.122696,0.0118166,0.00657886,0.00939187,2.28286,5,0.1
0,3.6,-1.70667,2.63118,0.604104,0.272408,-0.0706613,-0.00262558,-0.256896,0.0602007,0.00268221,0.00608168,0.23906,5,0.1,1,3.6,-2.12703,-0.377152,0.596225,0.483835,0.222709,0.00367016,-0.48089,-0.236988,-0.0038445,0.0170149,0.0939181,5,0.1,2,3.6,-0.300087,1.2,0.599857,-0.00963807,-0.063765,0.000478327,0.0421554,-0.231445,-0.00175834,0.0221902,0.148383,5,0.1,3,3.6,-2.06957,2.64575,0.600242,0.198066,-0.323999,-0.000570714,-0.038743,0.126243,0.00175834,0.00857941,0.155746,5,0.1,4,3.6,-0.289418,-1.21789,0.597713,-0.00925064,0.849691,0.00200719,0.00618398,-0.178754,-0.00140071,0.00874974,0.642901,5,0.1,5,3.6,-0.164698,2.81882,0.599045,0.00432134,0.00317097,-0.000494719,0.0206456,0.0151396,-0.00232458,0.00730966,4.85654e-05,5,0.1,6,3.6,-2.31697,1.60406,0.600963,0.514406,0.0430644,-0.000905991,-0.461817,-0.0439882,0.000953674,0.00705857,0.155343,5,0.1,7,3.6,1.98221,-1.57722,0.500217,0.217834,0.107145,-0.000441074,-1.4354,0.123978,-0.0012815,0.00858742,3.72545,5,0.1,8,3.6,-3.20289,-1.62639,0.601442,-0.0102997,0.436729,-0.000244379,0.0867844,0.643313,0.0227988,0.00833458,3.00159,5,0.1,9,3.6,0.613529,-3.51693,0.66113,-0.136419,0.0391901,0.0042215,0.254482,-0.07236,-0.00780821,0.0101438,0.000787322,5,0.1,10,3.6,2.63292,2.90044,0.601269,-0.211155,-0.00665188,-0.00304878,0.325322,0.0679493,0.00470877,0.0112439,1.22569,5,0.1,11,3.6,-1.41319,2.3209,0.64892,0.25166,-0.353181,0.0229418,-0.541389,-1.23012,-0.0554919,0.0157414,2.76684,5,0.1,12,3.6,3.47574,0.12481,0.581617,-0.0139058,0.866026,0.00995398,0.00309944,-4.76837e-06,-0.00223517,0.017283,2.27303,5,0.1,13,3.6,3.81815,-1.09332,0.500026,-0.149083,0.866026,-3.42727e-05,0.0293255,-5.96046e-05,-0.000208616,0.0152509,2.25783,5,0.1,14,3.6,1.30106,-1.84949,0.787106,0.00198781,0.170702,0.0274196,-0.00822544,0.162482,-0.136673,0.010362,0.74471,5,0.1,15,3.6,-1.45783,3.48054,0.647001,-0.0046432,0.00578761,-0.00151396,-0.00685453,0.00834465,-0.00217557,0.0145849,2.49653e-05,5,0.1,16,3.6,1.46803,-1.94413,0.5,0.012207,0.253496,0,-0.178397,-0.178337,0,0.0183251,3.37292,5,0.1,17,3.6,-0.80705,-1.86516,0.602031,0.318275,0.866026,-0.00128001,-0.0486672,-5.96046e-05,0.000208616,0.0277191,2.02664,5,0.1,18,3.6,1.60537,-1.7163,0.585808,0.22133,0.0679374,0.0156283,-0.254631,0.608087,0.186175,0.00989383,0.26079,5,0.1,19,3.6,3.59099,-1.50235,0.545114,-0.0988662,0.86346,0.00549555,-0.0954866,-0.0513792,0.00527501,0.00988991,2.28754,5,0.1
0,3.7,-1.68009,2.62446,0.603867,0.264275,-0.0632755,-0.00199759,0.0516698,0.0855029,0.00909343,0.00608168,0.23906,5,0.1,1,3.7,-2.08092,-0.355984,0.596574,0.43949,0.201294,0.00332296,-0.419244,-0.198156,-0.0032112,0.0170149,0.0939181,5,0.1,2,3.7,-0.300854,1.19205,0.599897,-0.00585169,-0.0984771,0.000326056,0.0335649,-0.425465,-0.00130013,0.0221902,0.148383,5,0.1,3,3.7,-2.0498,2.61375,0.600193,0.19857,-0.31762,-0.000417791,0.031814,0.025034,0.00131875,0.00857941,0.155746,5,0.1,4,3.7,-0.290314,-1.13367,0.597907,-0.00868253,0.835363,0.00187913,0.0054799,-0.145808,-0.00123307,0.00874974,0.642901,5,0.1,5,3.7,-0.16418,2.8192,0.598986,0.00585327,0.00429526,-0.000666548,0.0103172,0.00756979,-0.00115111,0.00730966,4.85654e-05,5,0.1,6,3.7,-2.26748,1.60818,0.600876,0.478374,0.03978,-0.000834558,-0.288472,-0.0245944,0.000540167,0.00705857,0.155343,5,0.1,7,3.7,1.99665,-1.56567,0.500169,0.0704899,0.125549,-0.000505056,-1.46598,0.222221,-8.56817e-05,0.00858742,3.72545,5,0.1,8,3.7,-3.20322,-1.57911,0.60154,0.00809319,0.511091,0.0022592,0.34602,0.782453,0.0260547,0.00833458,3.00159,5,0.1,9,3.7,0.601131,-3.51336,0.661514,-0.11183,0.0321981,0.00346722,0.236835,-0.0673681,-0.00726059,0.0101438,0.000787322,5,0.1,10,3.7,2.61232,2.90011,0.600988,-0.21014,4.4331e-05,-0.00258591,-0.236541,0.0602752,0.0045374,0.0112439,1.22569,5,0.1,11,3.7,-1.39089,2.27877,0.650905,0.193036,-0.493679,0.0165001,-0.6143,-1.48641,-0.0705384,0.0157414,2.76684,5,0.1,12,3.7,3.47425,0.211412,0.582602,-0.016683,0.866025,0.00973046,-0.0513047,2.98023e-07,-0.00258535,0.017283,2.27303,5,0.1,13,3.7,3.80333,-1.00671,0.500022,-0.14784,0.866025,-4.81494e-05,0.00464916,1.11759e-05,-7.07805e-05,0.0152509,2.25783,5,0.1,14,3.7,1.30131,-1.83142,0.789071,0.00345632,0.191932,0.0111746,0.0265092,0.238612,-0.179254,0.010362,0.74471,5,0.1,15,3.7,-1.45832,3.48115,0.646842,-0.00502095,0.00624172,-0.00163252,-0.000968575,0.00105798,-0.000279397,0.0145849,2.49653e-05,5,0.1,16,3.7,1.46859,-1.91927,0.5,0.0010686,0.246979,0,-0.0540242,0.0179037,0,0.0183251,3.37292,5,0.1,17,3.7,-0.775369,-1.77856,0.601903,0.315852,0.866025,-0.00126902,-0.0171065,1.49012e-05,8.19564e-05,0.0277191,2.02664,5,0.1,18,3.7,1.62629,-1.70639,0.58843,0.197587,0.130159,0.0377158,-0.225343,0.610463,0.241093,0.00989383,0.26079,5,0.1,19,3.7,3.58058,-1.41604,0.545694,-0.109641,0.863898,0.00611087,-0.11003,0.024505,0.00643358,0.00988991,2.28754,5,0.1
0,3.8,-1.65318,2.61859,0.603718,0.275248,-0.0539303,-0.000946224,0.135362,0.0995398,0.0113547,0.00706637,0.215504,5,0.1,1,3.8,-2.03905,-0.336827,0.596891,0.397736,0.181908,0.00300705,-0.4251,-0.19443,-0.00312924,0.0147991,0.108572,5,0.1,2,3.8,-0.301286,1.18001,0.599924,-0.00292063,-0.142345,0.000214577,0.0250936,-0.424147,-0.000953674,0.0257934,0.0898589,5,0.1,3,3.8,-2.02978,2.58211,0.600157,0.201494,-0.314903,-0.000303984,0.0141859,0.0464916,0.000983477,0.0119236,0.0936655,5,0.1,4,3.8,-0.291154,-1.05106,0.598089,-0.00810325,0.814116,0.00175089,0.00631809,-0.305444,-0.00140071,0.0110175,0.446972,5,0.1,5,3.8,-0.163558,2.81966,0.598916,0.0064496,0.00473857,-0.000733137,0.00193715,0.0013113,-0.000178814,0.0075607,1.47911e-05,5,0.1,6,3.8,-2.221,1.61205,0.600795,0.451577,0.0376374,-0.000788271,-0.269294,-0.0203848,0.000447035,0.00694605,0.089558,5,0.1,7,3.8,1.99663,-1.55199,0.50012,-0.0674963,0.147778,-0.000472367,-1.26046,0.206113,0.000655651,0.0097334,3.45845,5,0.1,8,3.8,-3.2,-1.52427,0.601893,0.0628412,0.582632,0.00475347,0.7236,0.603974,0.022918,0.00903516,2.69992,5,0.1,9,3.8,0.5911,-3.51047,0.661826,-0.0891402,0.0257432,0.00277013,0.216544,-0.0618696,-0.00661612,0.00951151,0.0006431,5,0.1,10,3.8,2.58966,2.90037,0.600752,-0.24631,0.00452399,-0.0021413,-0.433922,0.0261068,0.00432134,0.013367,1.02806,5,0.1,11,3.8,-1.37467,2.22217,0.652196,0.131777,-0.634289,0.00932962,-0.597954,-1.25754,-0.0706911,0.00992018,2.43672,5,0.1,12,3.8,3.47229,0.298015,0.583559,-0.0228643,0.866026,0.00938028,-0.066638,-1.43051e-05,-0.00470877,0.0157915,2.27152,5,0.1,13,3.8,3.78859,-0.92011,0.500017,-0.146598,0.866026,-5.21541e-05,0.0268221,0,5.96046e-05,0.0144277,2.25828,5,0.1,14,3.8,1.30177,-1.81107,0.789283,0.00550747,0.214359,-0.00685453,0.00786781,0.192642,-0.174493,0.00829313,0.683703,5,0.1,15,3.8,-1.45881,3.48177,0.64668,-0.00488758,0.00606179,-0.00158697,0.00339746,-0.00417233,0.00113249,0.00839923,1.01772e-05,5,0.1,16,3.8,1.46856,-1.89437,0.5,-0.000351667,0.251797,0,0.0178218,0.0558496,0,0.0173048,3.28006,5,0.1,17,3.8,-0.743933,-1.69196,0.601777,0.311911,0.866026,-0.0012517,-0.0739098,-5.96046e-05,0.000298023,0.0261845,1.57513,5,0.1,18,3.8,1.64494,-1.6905,0.5934,0.175399,0.1856,0.0613242,-0.222027,0.479937,0.220358,0.00681172,0.27204,5,0.1,19,3.8,3.5691,-1.32962,0.546335,-0.119168,0.862989,0.0066787,-0.0733137,-0.0606179,0.00452995,0.00867309,2.29032,5,0.1
0,3.9,-1.62468,2.6138,0.603682,0.296934,-0.0408389,0.000223517,0.263967,0.154316,0.0116304,0.00706637,0.215504,5,0.1,1,3.9,-2.00109,-0.319448,0.597178,0.364099,0.166992,0.00276808,-0.270642,-0.115467,-0.00184029,0.0147991,0.108572,5,0.1,2,3.9,-0.301464,1.16361,0.599941,-0.000754418,-0.185311,0.000134669,0.0183042,-0.413194,-0.000663102,0.0257934,0.0898589,5,0.1,3,3.9,-2.00952,2.55087,0.600132,0.203773,-0.309398,-0.000220351,0.0204146,0.0736862,0.000700355,0.0119236,0.0936655,5,0.1,4,3.9,-0.291935,-0.971054,0.598257,-0.00752229,0.786418,0.00162255,0.00555441,-0.279367,-0.0012219,0.0110175,0.446972,5,0.1,5,3.9,-0.162914,2.82013,0.598843,0.00634333,0.00465252,-0.000717677,-0.00372529,-0.00278652,0.000447035,0.0075607,1.47911e-05,5,0.1,6,3.9,-2.17703,1.61573,0.600718,0.428652,0.0360353,-0.000753161,-0.208676,-0.0135824,0.000294298,0.00694605,0.089558,5,0.1,7,3.9,1.98394,-1.53562,0.500076,-0.182128,0.184081,-0.000385754,-1.01407,0.472195,0.00102073,0.0097334,3.45845,5,0.1,8,3.9,-3.18918,-1.46288,0.602458,0.160764,0.645057,0.00630831,1.15207,0.595964,0.00887737,0.00903516,2.69992,5,0.1,9,3.9,0.58323,-3.5082,0.662071,-0.0686664,0.0198931,0.00214363,0.192299,-0.0549853,-0.00589713,0.00951151,0.0006431,5,0.1,10,3.9,2.5624,2.90096,0.600558,-0.302131,0.0068862,-0.00173263,-0.630498,0.00728667,0.0038594,0.013367,1.02806,5,0.1,11,3.9,-1.36446,2.15273,0.652771,0.0727467,-0.75053,0.00215955,-0.570655,-1.01939,-0.0706017,0.00992018,2.43672,5,0.1,12,3.9,3.46962,0.384617,0.584476,-0.0308897,0.866025,0.00896873,-0.0877529,0,-0.00390038,0.0157915,2.27152,5,0.1,13,3.9,3.774,-0.833508,0.500012,-0.145543,0.866026,-4.46104e-05,0.00318885,-3.72529e-06,8.56817e-05,0.0144277,2.25828,5,0.1,14,3.9,1.30241,-1.78861,0.787707,0.00707395,0.23495,-0.0246665,0.000923872,0.200987,-0.175033,0.00829313,0.683703,5,0.1,15,3.9,-1.45928,3.48235,0.646528,-0.00439826,0.00545681,-0.00142595,0.00614673,-0.00759959,0.00200793,0.00839923,1.01772e-05,5,0.1,16,3.9,1.46871,-1.86855,0.5,0.00408702,0.267274,0,0.0644922,0.219293,0,0.0173048,3.28006,5,0.1,17,3.9,-0.713054,-1.60536,0.601653,0.305907,0.865887,-0.00122739,-0.0600331,-0.00551343,0.000242144,0.0261845,1.57513,5,0.1,18,3.9,1.66127,-1.66994,0.60076,0.150369,0.221573,0.0867057,-0.272796,0.242695,0.270065,0.00681172,0.27204,5,0.1,19,3.9,3.55679,-1.24338,0.547028,-0.127299,0.863426,0.00719447,-0.0801384,0.0299215,0.00522286,0.00867309,2.29032,5,0.1
0,4,-1.59368,2.61053,0.60376,0.322089,-0.0244796,0.0013113,0.213981,0.166655,0.00977516,0.00881662,0.0744951,5,0.1,1,4,-1.96593,-0.303273,0.597447,0.339603,0.156798,0.00260472,-0.236213,-0.0970215,-0.00154972,0.0109454,0.0630543,5,0.1,2,4,-0.301458,1.14318,0.599951,0.000756979,-0.221267,8.04663e-05,0.0120401,-0.290692,-0.000417233,0.0153745,0.123658,5,0.1,3,4,-1.9891,2.52041,0.600113,0.20372,-0.298512,-0.000160933,-0.0290275,0.150442,0.000506639,0.00913873,0.102456,5,0.1,4,4,-0.292659,-0.893972,0.598413,-0.00695065,0.753053,0.00149757,0.00607967,-0.409067,-0.0013113,0.00901852,0.304892,5,0.1,5,4,-0.162305,2.82057,0.598774,0.00576824,0.00422597,-0.000649691,-0.00749528,-0.00548363,0.000864267,0.00704897,8.53882e-06,5,0.1,6,4,-2.13524,1.61926,0.600644,0.406528,0.0345945,-0.000722706,-0.247478,-0.0166297,0.000357628,0.00720043,0.0908848,5,0.1,7,4,1.96118,-1.51473,0.500043,-0.267407,0.233841,-0.000277162,-0.680387,0.48691,0.00107288,0.00838261,3.13849,5,0.1,8,4,-3.16719,-1.39573,0.603115,0.278729,0.693581,0.00666082,1.14477,0.34076,-0.0012517,0.00825389,2.39009,5,0.1,9,4,0.57728,-3.50647,0.662257,-0.0507832,0.014776,0.00159591,0.165015,-0.0472069,-0.0050962,0.00868715,0.000510207,5,0.1,10,4,2.52906,2.90157,0.600404,-0.363368,0.0041008,-0.00136942,-0.555992,-0.0679493,0.00342727,0.00918982,0.838847,5,0.1,11,4,-1.35991,2.07328,0.652648,0.0197053,-0.830948,-0.00442713,-0.481546,-0.564575,-0.0596046,0.00960592,2.30563,5,0.1,12,4,3.4661,0.47122,0.585352,-0.039345,0.866025,0.00853688,-0.0767708,1.43051e-05,-0.00500679,0.0176392,2.27019,5,0.1,13,4,3.75948,-0.746905,0.500008,-0.144428,0.866026,-3.57628e-05,0.0255108,0,8.9407e-05,0.013945,2.2587,5,0.1,14,4,1.30297,-1.76421,0.78441,0.0025481,0.251454,-0.040707,-0.100315,0.116408,-0.141025,0.00746932,0.605446,5,0.1,15,4,-1.45969,3.48285,0.646397,-0.00370741,0.00459552,-0.00119954,0.00762939,-0.00941753,0.00244379,0.00866534,8.64603e-06,5,0.1,16,4,1.46948,-1.84069,0.5,0.0114024,0.289661,0,0.0767708,0.202894,0,0.0167966,3.16034,5,0.1,17,4,-0.682833,-1.51884,0.601532,0.297561,0.863817,-0.00119358,-0.116497,-0.0442266,0.000476837,0.0256402,1.18951,5,0.1,18,4,1.6749,-1.64694,0.610747,0.1219,0.234899,0.112355,-0.291765,0.0283122,0.230372,0.00709378,0.284034,5,0.1,19,4,3.54371,-1.15699,0.547771,-0.133634,0.862819,0.00762641,-0.0401735,-0.0640154,0.00301003,0.00845969,2.29196,5,0.1
0,4.1,-1.56124,2.60877,0.603926,0.319449,-0.0118174,0.00186656,-0.23213,0.0914633,0.0019297,0.00881662,0.0744951,5,0.1,1,4.1,-1.93301,-0.28801,0.597701,0.319745,0.148942,0.00247937,-0.176191,-0.0677593,-0.00108033,0.0109454,0.0630543,5,0.1,2,4.1,-0.301331,1.11952,0.599958,0.00171601,-0.252283,4.68455e-05,0.00726245,-0.306368,-0.000264496,0.0153745,0.123658,5,0.1,3,4.1,-1.96882,2.49161,0.600099,0.202246,-0.27479,-0.000120513,-0.0118688,0.31358,0.000312924,0.00913873,0.102456,5,0.1,4,4.1,-0.293325,-0.820589,0.598557,-0.0063932,0.715177,0.00137761,0.00527687,-0.373792,-0.00113249,0.00901852,0.304892,5,0.1,5,4.1,-0.16177,2.82097,0.598714,0.00489587,0.00358857,-0.00054948,-0.00966527,-0.00707805,0.00110269,0.00704897,8.53882e-06,5,0.1,6,4.1,-2.09577,1.62292,0.600573,0.383199,0.0409665,-0.000690296,-0.231579,0.125147,0.000320375,0.00720043,0.0908848,5,0.1,7,4.1,1.93055,-1.48857,0.500021,-0.348702,0.291587,-0.000173412,-0.887878,0.614315,0.000968575,0.00838261,3.13849,5,0.1,8,4.1,-3.13326,-1.32458,0.603763,0.401586,0.72934,0.00620615,1.2451,0.330441,-0.00735372,0.00825389,2.39009,5,0.1,9,4.1,0.572984,-3.50521,0.662392,-0.0355662,0.0104189,0.0011256,0.138927,-0.0398159,-0.00429899,0.00868715,0.000510207,5,0.1,10,4.1,2.48981,2.90156,0.600283,-0.421967,-0.00576451,-0.00105342,-0.576064,-0.151515,0.00289455,0.00918982,0.838847,5,0.1,11,4.1,-1.36028,1.98826,0.651911,-0.0261433,-0.862121,-0.0102232,-0.425875,-0.121936,-0.0545792,0.00960592,2.30563,5,0.1,12,4.1,3.46176,0.557823,0.586184,-0.0475734,0.866026,0.00812067,-0.0824332,-1.93715e-06,-0.00369921,0.0176392,2.27019,5,0.1,13,4.1,3.74511,-0.660303,0.500005,-0.143455,0.866026,-2.68221e-05,0.00275671,-3.72529e-06,8.9407e-05,0.013945,2.2587,5,0.1,14,4.1,1.30261,-1.73848,0.779646,-0.011787,0.263082,-0.0542968,-0.2205,0.101812,-0.12565,0.00746932,0.605446,5,0.1,15,4.1,-1.46002,3.48326,0.646289,-0.00290703,0.00360534,-0.000942405,0.00818819,-0.0101626,0.00263378,0.00866534,8.64603e-06,5,0.1,16,4.1,1.47087,-1.81042,0.5,0.0152731,0.317527,0,0.00614673,0.318825,0,0.0167966,3.16034,5,0.1,17,4.1,-0.653613,-1.43249,0.601415,0.287017,0.864217,-0.00115046,-0.105653,0.0138134,0.000428408,0.0256402,1.18951,5,0.1,18,4.1,1.68598,-1.62369,0.623205,0.102653,0.226582,0.137108,-0.110954,-0.180349,0.248488,0.00709378,0.284034,5,0.1,19,4.1,3.53011,-1.07076,0.548551,-0.138304,0.863254,0.00798022,-0.0448525,0.0319853,0.0035353,0.00845969,2.29196,5,0.1
0,4.2,-1.53095,2.60796,0.604113,0.281948,-0.00531077,0.00180751,-0.489652,0.0424385,-0.00265241,0.00874797,0.0500178,5,0.1,1,4.2,-1.90192,-0.273458,0.597943,0.30176,0.141932,0.00236481,-0.194371,-0.0778884,-0.0012219,0.0104995,0.109951,5,0.1,2,4.2,-0.30113,1.09289,0.599961,0.00223517,-0.278574,2.5332e-05,0.00323355,-0.203073,-0.000149012,0.0150005,0.198704,5,0.1,3,4.2,-1.9487,2.46589,0.600088,0.199416,-0.237781,-9.68575e-05,-0.0525117,0.417471,0.000208616,0.00901403,0.192641,5,0.1,4,4.2,-0.293938,-0.751051,0.598689,-0.00585914,0.67403,0.00126213,0.00555813,-0.466406,-0.00116229,0.0105157,0.205615,5,0.1,5,4.2,-0.16133,2.82129,0.598664,0.0038866,0.00285506,-0.000435114,-0.0102967,-0.00762939,0.00116229,0.00660106,8.07294e-06,5,0.1,6,4.2,-2.05866,1.62775,0.600506,0.358123,0.0562757,-0.000652671,-0.278354,0.166416,0.00038743,0.00782298,0.0762498,5,0.1,7,4.2,1.89129,-1.45648,0.500008,-0.434852,0.347617,-8.9407e-05,-0.79143,0.469208,0.000745058,0.00779913,2.81633,5,0.1,8,4.2,-3.08716,-1.2503,0.60434,0.516164,0.752226,0.00528246,0.997901,0.0969768,-0.0107884,0.00862971,2.17208,5,0.1,9,4.2,0.570076,-3.50436,0.662485,-0.0230521,0.00683069,0.000736117,0.111252,-0.0321865,-0.00342727,0.00777415,0.000316181,5,0.1,10,4.2,2.44497,2.9,0.600191,-0.471771,-0.0275016,-0.000788271,-0.391722,-0.274062,0.00238419,0.00965144,0.649355,5,0.1,11,4.2,-1.36487,1.90175,0.650636,-0.0638694,-0.866026,-0.0150472,-0.322104,5.96046e-05,-0.04071,0.0108598,2.2666,5,0.1,12,4.2,3.45661,0.644425,0.586977,-0.0549197,0.866026,0.00772923,-0.0604391,0,-0.00435114,0.0165956,2.26915,5,0.1,13,4.2,3.7308,-0.5737,0.500003,-0.142378,0.866026,-1.78814e-05,0.0251532,0,8.9407e-05,0.0133555,2.25912,5,0.1,14,4.2,1.3,-1.71178,0.773648,-0.0436246,0.269407,-0.064975,-0.402927,0.014782,-0.08443,0.0103363,0.505287,5,0.1,15,4.2,-1.46027,3.48357,0.646208,-0.00210106,0.00260472,-0.000682473,0.00780821,-0.00965595,0.0025034,0.00776889,7.67352e-06,5,0.1,16,4.2,1.47235,-1.77713,0.5,0.0136316,0.347272,0,-0.0343919,0.249982,0,0.0164289,3.04584,5,0.1,17,4.2,-0.625497,-1.34615,0.601302,0.274533,0.860506,-0.00109971,-0.151694,-0.110388,0.000625849,0.0231117,1.1336,5,0.1,18,4.2,1.69587,-1.60218,0.638079,0.0965387,0.201476,0.15928,-0.0252128,-0.309706,0.183374,0.00768194,0.481197,5,0.1,19,4.2,3.51611,-0.984375,0.549364,-0.14118,0.862797,0.00824034,-0.00679493,-0.0645518,0.0013411,0.00966933,2.29332,5,0.1
0,4.3,-1.50553,2.60757,0.604274,0.224,-0.00301786,0.00136886,-0.643529,0.00686944,-0.00569224,0.00874797,0.0500178,5,0.1,1,4.3,-1.87266,-0.259655,0.598174,0.283787,0.134021,0.00225147,-0.174925,-0.083752,-0.00112876,0.0104995,0.109951,5,0.1,2,4.3,-0.300897,1.06378,0.599963,0.00237208,-0.305021,1.46218e-05,-0.000279397,-0.293635,-7.07805e-05,0.0150005,0.198704,5,0.1,3,4.3,-1.92908,2.44434,0.600079,0.192425,-0.19237,-8.028e-05,-0.090234,0.478625,0.00012666,0.00901403,0.192641,5,0.1,4,4.3,-0.294498,-0.685848,0.59881,-0.00535138,0.6308,0.00115568,0.0047721,-0.419211,-0.0010021,0.0105157,0.205615,5,0.1,5,4.3,-0.160994,2.82154,0.598627,0.00284789,0.0020884,-0.000317674,-0.0102706,-0.00756979,0.00115857,0.00660106,8.07294e-06,5,0.1,6,4.3,-2.02414,1.63433,0.600443,0.33316,0.0760946,-0.000618771,-0.23412,0.214353,0.000312924,0.00782298,0.0762498,5,0.1,7,4.3,1.8432,-1.4198,0.500002,-0.531426,0.38138,-3.27826e-05,-1.06282,0.192627,0.000394881,0.00779913,2.81633,5,0.1,8,4.3,-3.03043,-1.17445,0.604811,0.618226,0.765255,0.00410359,0.984341,0.121318,-0.0124425,0.00862971,2.17208,5,0.1,9,4.3,0.568288,-3.50383,0.662542,-0.0131047,0.00395142,0.000428781,0.08763,-0.0254065,-0.00271946,0.00777415,0.000316181,5,0.1,10,4.3,2.39583,2.8956,0.600123,-0.510336,-0.0626631,-0.000573136,-0.348389,-0.401944,0.0019297,0.00965144,0.649355,5,0.1,11,4.3,-1.37281,1.81515,0.648932,-0.0940394,-0.866025,-0.0189516,-0.272751,-1.49012e-05,-0.0357963,0.0108598,2.2666,5,0.1,12,4.3,3.45081,0.731028,0.587732,-0.061246,0.866026,0.00738353,-0.061214,-3.72529e-06,-0.00294298,0.0165956,2.26915,5,0.1,13,4.3,3.71662,-0.487098,0.500001,-0.141399,0.866026,-1.02445e-05,0.00303984,-3.57628e-06,6.70552e-05,0.0133555,2.25912,5,0.1,14,4.3,1.2932,-1.68476,0.766747,-0.0955189,0.270732,-0.0727626,-0.594355,0.000208616,-0.067316,0.0103363,0.505287,5,0.1,15,4.3,-1.46044,3.48379,0.646152,-0.0013452,0.00166856,-0.000439491,0.00719726,-0.00889599,0.00231341,0.00776889,7.67352e-06,5,0.1,16,4.3,1.47321,-1.74092,0.5,0.00090804,0.378301,0,-0.198908,0.334471,0,0.0164289,3.04584,5,0.1,17,4.3,-0.59878,-1.26033,0.601195,0.259817,0.857801,-0.00104075,-0.150342,0.00499189,0.000584871,0.0231117,1.1336,5,0.1,18,4.3,1.70486,-1.58414,0.654995,0.0788268,0.154747,0.179308,-0.298172,-0.588089,0.20067,0.00768194,0.481197,5,0.1,19,4.3,3.50192,-0.898153,0.550197,-0.142584,0.863229,0.00843005,-0.0134856,0.0321642,0.00193343,0.00966933,2.29332,5,0.1
0,4.4,-1.48642,2.60727,0.604381,0.157771,-0.0033319,0.000743568,-0.661552,-0.010252,-0.0064671,0.00750119,0.039676,5,0.1,1,4.4,-1.84519,-0.246704,0.598393,0.265124,0.124624,0.0021264,-0.205159,-0.106342,-0.00146031,0.0109618,0.141682,5,0.1,2,4.4,-0.300665,1.03188,0.599964,0.00221878,-0.331745,1.04308e-05,-0.0025779,-0.217557,-2.98023e-05,0.0171373,0.122274,5,0.1,3,4.4,-1.91037,2.42751,0.600072,0.180933,-0.144213,-6.85453e-05,-0.141144,0.475168,5.96046e-05,0.00776753,0.278342,5,0.1,4,4.4,-0.295009,-0.624926,0.59892,-0.00487491,0.58665,0.001055,0.00487268,-0.478208,-0.00104308,0.00827274,0.137941,5,0.1,5,4.4,-0.160759,2.82171,0.598601,0.00186749,0.00137091,-0.000208616,-0.00917912,-0.00679493,0.00107288,0.0066229,6.4441e-06,5,0.1,6,4.4,-1.99201,1.64298,0.600382,0.309068,0.0964552,-0.000584126,-0.256717,0.181615,0.00038743,0.00794188,0.14039,5,0.1,7,4.4,1.78482,-1.38123,0.5,-0.633824,0.384557,-7.45058e-06,-0.926435,-0.131369,0.000149012,0.00822915,2.48582,5,0.1,8,4.4,-2.96411,-1.09756,0.605159,0.702995,0.769326,0.00285655,0.669599,-0.0691414,-0.0122488,0.00841939,2.03483,5,0.1,9,4.4,0.567377,-3.50355,0.662573,-0.00552088,0.00175238,0.000192225,0.0641942,-0.0187159,-0.00199676,0.00764212,0.000148714,5,0.1,10,4.4,2.34333,2.8873,0.600075,-0.536203,-0.103122,-0.000400841,-0.147581,-0.386834,0.00154972,0.00947474,0.853716,5,0.1,11,4.4,-1.38344,1.72855,0.646877,-0.117004,-0.866026,-0.0219405,-0.180781,0,-0.0229776,0.00961427,2.289,5,0.1,12,4.4,3.44441,0.81763,0.588455,-0.066328,0.866026,0.00707358,-0.0369549,0,-0.00351667,0.0149596,2.26849,5,0.1,13,4.4,3.70252,-0.400495,0.5,-0.140297,0.866025,-4.47035e-06,0.0251532,1.43051e-05,2.98023e-05,0.0144378,2.25956,5,0.1,14,4.4,1.28064,-1.65779,0.759189,-0.155386,0.267524,-0.0777736,-0.572443,-0.072062,-0.0302196,0.00813001,0.397144,5,0.1,15,4.4,-1.46054,3.48391,0.646119,-0.000685453,0.000846386,-0.000226498,0.00602007,-0.00751019,0.00193715,0.00733538,5.20609e-06,5,0.1,16,4.4,1.47218,-1.70152,0.5,-0.0223905,0.407955,0,-0.250638,0.232637,0,0.0145747,3.15954,5,0.1,17,4.4,-0.573599,-1.17467,0.601094,0.243184,0.852743,-0.000976026,-0.187486,-0.142455,0.000715256,0.0210269,0.835903,5,0.1,18,4.4,1.71101,-1.57181,0.673846,0.0424176,0.0904083,0.196594,-0.405729,-0.669897,0.133336,0.00837469,0.311861,5,0.1,19,4.4,3.48764,-0.811772,0.551047,-0.142556,0.86275,0.00854135,0.0194311,-0.0655055,-0.000119209,0.00885032,2.29511,5,0.1
0,4.5,-1.47397,2.60686,0.604421,0.0914592,-0.00506416,6.67758e-05,-0.647902,-0.0221431,-0.0067912,0.00750119,0.039676,5,0.1,1,4.5,-1.81962,-0.234852,0.598599,0.246974,0.111679,0.00199769,-0.168212,-0.150505,-0.00119954,0.0109618,0.141682,5,0.1,2,4.5,-0.300459,0.997609,0.599965,0.0018877,-0.353209,9.49949e-06,-0.0038892,-0.191152,7.45058e-06,0.0171373,0.122274,5,0.1,3,4.5,-1.89298,2.4154,0.600065,0.166846,-0.0989545,-6.47269e-05,-0.14396,0.423297,1.86265e-05,0.00776753,0.278342,5,0.1,4,4.5,-0.295474,-0.568515,0.599021,-0.00443142,0.542496,0.0009601,0.00414252,-0.42237,-0.000890344,0.00827274,0.137941,5,0.1,5,4.5,-0.160616,2.82181,0.598585,0.000998797,0.000729412,-0.000107754,-0.00807084,-0.00593066,0.000927597,0.0066229,6.4441e-06,5,0.1,6,4.5,-1.9624,1.65328,0.600326,0.282764,0.107159,-0.000542961,-0.272796,0.0388473,0.000439584,0.00794188,0.14039,5,0.1,7,4.5,1.71656,-1.34388,0.500025,-0.732029,0.358613,0.000699703,-0.968166,-0.371054,0.0124462,0.00822915,2.48582,5,0.1,8,4.5,-2.89035,-1.02076,0.605383,0.771936,0.76776,0.00163643,0.653535,-0.00432879,-0.0118949,0.00841939,2.03483,5,0.1,9,4.5,0.567114,-3.50346,0.662583,-3.88362e-05,0.000151619,2.08616e-05,0.045646,-0.0133663,-0.00143796,0.00764212,0.000148714,5,0.1,10,4.5,2.28868,2.87497,0.600042,-0.558716,-0.143525,-0.000264216,-0.258043,-0.400588,0.00119582,0.00947474,0.853716,5,0.1,11,4.5,-1.39601,1.64196,0.644569,-0.133911,-0.865364,-0.0241632,-0.14919,0.0264868,-0.019975,0.00961427,2.289,5,0.1,12,4.5,3.43758,0.904233,0.589148,-0.0703037,0.866026,0.00680722,-0.0379384,-3.72529e-06,-0.00218302,0.0149596,2.26849,5,0.1,13,4.5,3.68856,-0.313893,0.5,-0.139282,0.866025,-1.95578e-06,0.00360608,-1.78814e-06,1.86265e-05,0.0144378,2.25956,5,0.1,14,4.5,1.26212,-1.63138,0.751274,-0.215234,0.260509,-0.0803275,-0.593722,-0.077635,-0.017643,0.00813001,0.397144,5,0.1,15,4.5,-1.46058,3.48396,0.646106,-0.000134856,0.00015907,-4.88013e-05,0.00493228,-0.00615418,0.00159442,0.00733538,5.20609e-06,5,0.1,16,4.5,1.46889,-1.66003,0.5,-0.0414658,0.417336,0,-0.135154,-0.0388846,0,0.0145747,3.15954,5,0.1,17,4.5,-0.550259,-1.09011,0.601,0.223162,0.83769,-0.000904687,-0.214361,-0.188217,0.000730157,0.0210269,0.835903,5,0.1,18,4.5,1.71321,-1.56642,0.6943,0.00176858,0.015446,0.213235,-0.395693,-0.793569,0.179365,0.00837469,0.311861,5,0.1,19,4.5,3.47344,-0.725555,0.551903,-0.141522,0.863179,0.00859788,0.00868738,0.032369,0.000741333,0.00885032,2.29511,5,0.1
0,4.6,-1.46793,2.60624,0.604396,0.0310242,-0.00736713,-0.000567734,-0.549078,-0.0224113,-0.00575185,0.00908948,0.0260148,5,0.1,1,4.6,-1.79577,-0.224494,0.598793,0.229731,0.0949599,0.00187159,-0.18394,-0.181548,-0.0013411,0.0108484,0.251932,5,0.1,2,4.6,-0.30029,0.961514,0.599966,0.00147,-0.366518,1.19209e-05,-0.00436604,-0.0610054,0,0.0181284,0.0672477,5,0.1,3,4.6,-1.87704,2.40749,0.600059,0.151598,-0.0606239,-6.25849e-05,-0.163198,0.33927,0,0.00773424,0.274472,5,0.1,4,4.6,-0.295897,-0.516402,0.599112,-0.00402182,0.499217,0.000871718,0.00417233,-0.45529,-0.000923872,0.0092678,0.192495,5,0.1,5,4.6,-0.160554,2.82186,0.598578,0.000273436,0.000196695,-2.38419e-05,-0.00635535,-0.00464916,0.000685453,0.00689349,3.81727e-06,5,0.1,6,4.6,-1.93554,1.664,0.600274,0.253981,0.10545,-0.000493228,-0.304699,-0.0671744,0.000506639,0.00837387,0.194838,5,0.1,7,4.6,1.63891,-1.31015,0.500167,-0.815815,0.313416,0.00220835,-0.660479,-0.518799,0.0165403,0.00988465,1.11823,5,0.1,8,4.6,-2.81028,-0.94418,0.60549,0.824273,0.761296,0.000524521,0.354409,-0.154436,-0.0101924,0.00859971,1.96786,5,0.1,9,4.6,0.567309,-3.5035,0.662579,0.00365824,-0.000929832,-9.53674e-05,0.02864,-0.00858307,-0.000923872,0.0111962,5.30111e-05,5,0.1,10,4.6,2.23163,2.85873,0.600021,-0.58015,-0.179702,-0.000160933,-0.13864,-0.308156,0.000864267,0.010508,0.636473,5,0.1,11,4.6,-1.41004,1.55576,0.642068,-0.145486,-0.855431,-0.0256836,-0.0767708,0.211895,-0.00941753,0.00827153,2.22602,5,0.1,12,4.6,3.43039,0.990835,0.589817,-0.0731289,0.866026,0.0065729,-0.0156164,0,-0.00277162,0.0149871,2.26819,5,0.1,13,4.6,3.67467,-0.22729,0.5,-0.138128,0.866025,0,0.0252724,0,0,0.012783,2.26001,5,0.1,14,4.6,1.2378,-1.60579,0.743195,-0.268853,0.250429,-0.0807703,-0.456631,-0.130236,0.010848,0.00697162,0.296887,5,0.1,15,4.6,-1.46057,3.48395,0.646108,0.000292063,-0.000369549,8.9407e-05,0.00351667,-0.00452995,0.00116229,0.00784491,2.59825e-06,5,0.1,16,4.6,1.46423,-1.61889,0.5,-0.0502497,0.401503,0,-0.0445247,-0.270784,0,0.0164726,3.07983,5,0.1,17,4.6,-0.529067,-1.00756,0.600914,0.200132,0.810178,-0.000827014,-0.246704,-0.3815,0.000804663,0.0188427,0.624312,5,0.1,18,4.6,1.71151,-1.5688,0.716461,-0.0347406,-0.0620633,0.229008,-0.326276,-0.729918,0.121713,0.0129,0.206124,5,0.1,19,4.6,3.45937,-0.639181,0.552765,-0.139564,0.862598,0.00860244,0.0357628,-0.0685453,-0.00101328,0.00737246,2.29772,5,0.1
0,4.7,-1.46745,2.60539,0.604311,-0.0199985,-0.00965968,-0.0011052,-0.462264,-0.0221133,-0.00485405,0.00908948,0.0260148,5,0.1,1,4.7,-1.77373,-0.215961,0.598973,0.210867,0.0752916,0.00173096,-0.196122,-0.20616,-0.00149012,0.0108484,0.251932,5,0.1,2,4.7,-0.300165,0.924621,0.599968,0.00104192,-0.37039,1.30385e-05,-0.00411831,-0.00380725,1.49012e-05,0.0181284,0.0672477,5,0.1,3,4.7,-1.86269,2.40296,0.600052,0.135313,-0.031621,-6.28643e-05,-0.163838,0.239521,-3.72529e-06,0.00773424,0.274472,5,0.1,4,4.7,-0.296279,-0.468464,0.599195,-0.00364361,0.461836,0.000788178,0.00351667,-0.316842,-0.000771135,0.0092678,0.192495,5,0.1,5,4.7,-0.160557,2.82186,0.598579,-0.000294973,-0.000218302,3.74392e-05,-0.00495743,-0.00360608,0.000536442,0.00689349,3.81727e-06,5,0.1,6,4.7,-1.91162,1.67407,0.600227,0.224794,0.0947531,-0.000443682,-0.283048,-0.141025,0.000491738,0.00837387,0.194838,5,0.1,7,4.7,1.55654,-1.28077,0.500453,-0.809309,0.27959,0.00336943,0.684507,-0.194624,0.00714883,0.00988465,1.11823,5,0.1,8,4.7,-2.72624,-0.868554,0.605492,0.854434,0.752809,-0.000458304,0.224516,-0.0579357,-0.00923499,0.00859971,1.96786,5,0.1,9,4.7,0.567796,-3.50363,0.662565,0.00587236,-0.00159629,-0.000167917,0.0159889,-0.00487268,-0.000532717,0.0111962,5.30111e-05,5,0.1,10,4.7,2.1728,2.83923,0.600009,-0.596768,-0.209802,-8.67993e-05,-0.158668,-0.277922,0.000625849,0.010508,0.636473,5,0.1,11,4.7,-1.42495,1.47235,0.639453,-0.152397,-0.803539,-0.0265701,-0.0545382,0.773422,-0.0070408,0.00827153,2.22602,5,0.1,12,4.7,3.42298,1.07744,0.590464,-0.0750624,0.866026,0.00637351,-0.0186265,0,-0.0015758,0.0149871,2.26819,5,0.1,13,4.7,3.66093,-0.140688,0.5,-0.137063,0.866025,0,0.00430644,1.49012e-07,0,0.012783,2.26001,5,0.1,14,4.7,1.20865,-1.58137,0.735176,-0.313478,0.238037,-0.0794968,-0.412114,-0.125386,0.017263,0.00697162,0.296887,5,0.1,15,4.7,-1.46053,3.48389,0.646122,0.000593066,-0.000755489,0.000188872,0.00248849,-0.00315905,0.000819564,0.00784491,2.59825e-06,5,0.1,16,4.7,1.45957,-1.57962,0.5,-0.0380391,0.388007,0,0.251748,-0.0301749,0,0.0164726,3.07983,5,0.1,17,4.7,-0.510321,-0.928495,0.600835,0.174497,0.770152,-0.000747479,-0.264356,-0.436753,0.000797212,0.0188427,0.624312,5,0.1,18,4.7,1.70674,-1.57829,0.739032,-0.0574697,-0.123976,0.214268,-0.138521,-0.506379,-0.368878,0.0129,0.206124,5,0.1,19,4.7,3.44555,-0.552984,0.553623,-0.137097,0.863021,0.00858447,0.020802,0.03355,0.000137836,0.00737246,2.29772,5,0.1
0,4.8,-1.47156,2.60432,0.604179,-0.0599653,-0.0115693,-0.00151396,-0.331759,-0.015378,-0.00324845,0.00790169,0.0129905,5,0.1,1,4.8,-1.75366,-0.209465,0.599138,0.190079,0.0547241,0.00156909,-0.221193,-0.20089,-0.00172853,0.0123149,0.246069,5,0.1,2,4.8,-0.300081,0.887741,0.599969,0.000658631,-0.365214,1.63913e-05,-0.00347197,0.115424,0,0.0144253,0.0452574,5,0.1,3,4.8,-1.84999,2.40082,0.600046,0.118628,-0.0126958,-6.25849e-05,-0.170588,0.14019,0,0.00789392,0.271463,5,0.1,4,4.8,-0.296627,-0.4238,0.59927,-0.00329837,0.431611,0.000712276,0.00348687,-0.305504,-0.00077486,0.011332,0.14002,5,0.1,5,4.8,-0.160608,2.82182,0.598585,-0.000709668,-0.00051856,8.19564e-05,-0.00331551,-0.00238419,0.000357628,0.00879439,1.66936e-06,5,0.1,6,4.8,-1.89054,1.68276,0.600185,0.19671,0.0783205,-0.000393391,-0.281096,-0.182569,0.000506639,0.00829782,0.190293,5,0.1,7,4.8,1.48052,-1.2535,0.500814,-0.698268,0.267962,0.00372678,1.44875,-0.0663996,0.000417233,0.00706859,0.359337,5,0.1,8,4.8,-2.64003,-0.793689,0.605403,0.866026,0.742434,-0.00128448,0,-0.179648,-0.00715256,0.00769173,1.51099,5,0.1,9,4.8,0.568445,-3.50381,0.662547,0.00692755,-0.00192523,-0.000204146,0.00548363,-0.00178814,-0.000208616,0.00839431,1.59672e-05,5,0.1,10,4.8,2.11254,2.81702,0.600003,-0.605929,-0.232601,-3.42727e-05,-0.000238419,-0.167131,0.000417233,0.00878525,0.454812,5,0.1,11,4.8,-1.44038,1.39644,0.636773,-0.155243,-0.709999,-0.0268817,0.00208616,1.05733,0.00163913,0.00771708,2.05184,5,0.1,12,4.8,3.4154,1.16404,0.591093,-0.0761032,0.866026,0.0061959,0.000715256,0,-0.00223517,0.0155032,1.8391,5,0.1,13,4.8,3.64727,-0.054085,0.5,-0.135857,0.866025,0,0.0257492,1.19209e-06,0,0.0125083,2.26048,5,0.1,14,4.8,1.17547,-1.55824,0.727341,-0.347275,0.224048,-0.0768825,-0.247419,-0.159502,0.0368059,0.00751975,0.211137,5,0.1,15,4.8,-1.46046,3.4838,0.646145,0.000783801,-0.00100732,0.00025332,0.00143051,-0.00154972,0.000476837,0.0076845,9.10536e-07,5,0.1,16,4.8,1.45726,-1.54078,0.5,-0.00639856,0.389841,0,0.352979,0.0417233,0,0.0176311,3.08342,5,0.1,17,4.8,-0.494211,-0.853872,0.600764,0.147587,0.719947,-0.000664592,-0.272214,-0.578374,0.000804663,0.0200284,0.477076,5,0.1,18,4.8,1.70054,-1.59284,0.758129,-0.0643432,-0.163195,0.163788,-0.007689,-0.278652,-0.602782,0.0106012,0.124712,5,0.1,19,4.8,3.43196,-0.466626,0.55448,-0.134182,0.862312,0.00854135,0.0426769,-0.0742817,-0.0013411,0.0076631,2.30129,5,0.1
0,4.9,-1.47906,2.60309,0.604013,-0.0883693,-0.0128962,-0.00178302,-0.232808,-0.01055,-0.00207499,0.00790169,0.0129905,5,0.1,1,4.9,-1.73575,-0.205026,0.599286,0.168288,0.0340533,0.00139708,-0.216283,-0.201555,-0.00172481,0.0123149,0.246069,5,0.1,2,4.9,-0.300031,0.851768,0.599971,0.000353344,-0.354164,1.7602e-05,-0.00263005,0.119127,1.86265e-05,0.0144253,0.0452574,5,0.1,3,4.9,-1.83897,2.40011,0.60004,0.10192,-0.00299327,-6.20261e-05,-0.163905,0.0596792,1.49012e-05,0.00789392,0.271463,5,0.1,4,4.9,-0.296957,-0.382057,0.599338,-0.00346065,0.403971,0.000642706,-0.00555255,-0.262059,-0.000644475,0.011332,0.14002,5,0.1,5,4.9,-0.160694,2.82176,0.598595,-0.000980566,-0.000712276,0.000111107,-0.00209268,-0.00149012,0.000227243,0.00879439,1.66936e-06,5,0.1,6,4.9,-1.87224,1.68964,0.600148,0.16968,0.0589192,-0.000343844,-0.261284,-0.199273,0.000491738,0.00829782,0.190293,5,0.1,7,4.9,1.41817,-1.22656,0.501184,-0.547257,0.274611,0.00363132,1.54041,0.160374,-0.00218675,0.00706859,0.359337,5,0.1,8,4.9,-2.55344,-0.720164,0.60524,0.865522,0.728948,-0.00195131,-0.0201315,-0.125587,-0.00600517,0.00769173,1.51099,5,0.1,9,4.9,0.569152,-3.504,0.662526,0.00709482,-0.00199191,-0.000212993,-0.00175834,0.000342727,1.86265e-05,0.00839431,1.59672e-05,5,0.1,10,4.9,2.05188,2.79295,0.600001,-0.607047,-0.248125,-2.79397e-07,0.00592321,-0.130787,0.000271946,0.00878525,0.454812,5,0.1,11,4.9,-1.45589,1.33125,0.634093,-0.154644,-0.590629,-0.0266919,0.0155121,1.24674,0.0031814,0.00771708,2.05184,5,0.1,12,4.9,3.40779,1.25064,0.591703,-0.0762086,0.866026,0.00601914,0.000759959,0,-0.00159442,0.0155032,1.8391,5,0.1,13,4.9,3.63375,0.0325175,0.5,-0.134713,0.866025,0,0.00521541,0,0,0.0125083,2.26048,5,0.1,14,4.9,1.13955,-1.53659,0.719833,-0.370265,0.209078,-0.0732672,-0.193641,-0.146396,0.0377037,0.00751975,0.211137,5,0.1,15,4.9,-1.46037,3.4837,0.646172,0.00088606,-0.00111572,0.000287686,0.000618398,-0.000610948,0.000212342,0.0076845,9.10536e-07,5,0.1,16,4.9,1.45877,-1.50118,0.5,0.0394523,0.405256,0,0.529483,0.223786,0,0.0176311,3.08342,5,0.1,17,4.9,-0.480767,-0.784659,0.600702,0.121728,0.664959,-0.000589341,-0.245458,-0.539482,0.000715256,0.0200284,0.477076,5,0.1,18,4.9,1.69423,-1.61028,0.771199,-0.0604121,-0.183067,0.0954651,0.0786111,-0.120498,-0.732068,0.0106012,0.124712,5,0.1,19,4.9,3.41871,-0.380464,0.555332,-0.131167,0.862726,0.00850307,0.0247061,0.0361203,4.84288e-05,0.0076631,2.30129,5,0.1
