id,t,px,py,pz,vx,vy,vz,ax,ay,az,planning_time,qp_cost,planning_report,size,id,t,px,py,pz,vx,vy,vz,ax,ay,az,planning_time,qp_cost,planning_report,size,id,t,px,py,pz,vx,vy,vz,ax,ay,az,planning_time,qp_cost,planning_report,size,id,t,px,py,pz,vx,vy,vz,ax,ay,az,planning_time,qp_cost,planning_report,size,id,t,px,py,pz,vx,vy,vz,ax,ay,az,planning_time,qp_cost,planning_report,size,id,t,px,py,pz,vx,vy,vz,ax,ay,az,planning_time,qp_cost,planning_report,size,id,t,px,py,pz,vx,vy,vz,ax,ay,az,planning_time,qp_cost,planning_report,size,id,t,px,py,pz,vx,vy,vz,ax,ay,az,planning_time,qp_cost,planning_report,size,id,t,px,py,pz,vx,vy,vz,ax,ay,az,planning_time,qp_cost,planning_report,size,id,t,px,py,pz,vx,vy,vz,ax,ay,az,planning_time,qp_cost,planning_report,size,id,t,px,py,pz,vx,vy,vz,ax,ay,az,planning_time,qp_cost,planning_report,size,id,t,px,py,pz,vx,vy,vz,ax,ay,az,planning_time,qp_cost,planning_report,size,id,t,px,py,pz,vx,vy,vz,ax,ay,az,planning_time,qp_cost,planning_report,size,id,t,px,py,pz,vx,vy,vz,ax,ay,az,planning_time,qp_cost,planning_report,size,id,t,px,py,pz,vx,vy,vz,ax,ay,az,planning_time,qp_cost,planning_report,size,id,t,px,py,pz,vx,vy,vz,ax,ay,az,planning_time,qp_cost,planning_report,size,id,t,px,py,pz,vx,vy,vz,ax,ay,az,planning_time,qp_cost,planning_report,size,id,t,px,py,pz,vx,vy,vz,ax,ay,az,planning_time,qp_cost,planning_report,size,id,t,px,py,pz,vx,vy,vz,ax,ay,az,planning_time,qp_cost,planning_report,size,id,t,px,py,pz,vx,vy,vz,ax,ay,az,planning_time,qp_cost,planning_report,size
0,0,1.64604,2.68447,0.660842,0,0,0,0,0,0,0.0111394,3.51219,5,0.1,1,0,2.26229,1.32104,0.671129,0,0,0,0,0,0,0.011896,2.98332,5,0.1,2,0,-4.09267,0.404911,0.564643,0,0,0,0,0,0,0.007933,3.5122,5,0.1,3,0,-2.90025,-4.20246,0.668718,0,0,0,0,0,0,0.00778261,2.54208,5,0.1,4,0,-1.29665,2.56015,0.605835,0,0,0,0,0,0,0.0194041,0.780806,5,0.1,5,0,-1.10846,-3.14007,0.545541,0,0,0,0,0,0,0.0106496,3.51229,5,0.1,6,0,-2.13712,2.75033,0.616336,0,0,0,0,0,0,0.0124815,3.5122,5,0.1,7,0,-0.510968,1.06568,0.664147,0,0,0,0,0,0,0.0114342,3.5122,5,0.1,8,0,4.36826,4.11162,0.642314,0,0,0,0,0,0,0.0158063,3.5122,5,0.1,9,0,-0.181323,-0.422215,0.63747,0,0,0,0,0,0,0.00955896,3.5122,5,0.1,10,0,0.178154,3.6247,0.558863,0,0,0,0,0,0,0.0134392,3.5122,5,0.1,11,0,0.825558,-4.12053,0.680313,0,0,0,0,0,0,0.00796141,0.668244,5,0.1,12,0,-1.79718,-4.34165,0.581293,0,0,0,0,0,0,0.00839114,1.97301,5,0.1,13,0,4.2633,-1.68164,0.581032,0,0,0,0,0,0,0.0146291,3.5122,5,0.1,14,0,-1.515,1.76857,0.539158,0,0,0,0,0,0,0.0236424,0.529455,5,0.1,15,0,0.905645,3.8551,0.529017,0,0,0,0,0,0,0.010909,3.5122,5,0.1,16,0,3.42286,0.0342197,0.691198,0,0,0,0,0,0,0.0199023,3.5122,5,0.1,17,0,2.0018,0.626592,0.558269,0,0,0,0,0,0,0.0255242,1.02551,5,0.1,18,0,-1.06476,-2.46526,0.646625,0,0,0,0,0,0,0.00836515,3.5122,5,0.1,19,0,2.0419,4.27419,0.601023,0,0,0,0,0,0,0.00875013,3.5122,5,0.1
0,0.1,1.64409,2.68373,0.660781,-0.0554265,-0.020919,-0.00173282,-0.985362,-0.371873,-0.0308082,0.0111394,3.51219,5,0.1,1,0.1,2.2604,1.32138,0.671055,-0.0537056,0.00974871,-0.00210768,-0.954762,0.173315,-0.0374727,0.011896,2.98332,5,0.1,2,0.1,-4.09256,0.402826,0.564648,0.00312626,-0.0591857,0.000136998,0.0555515,-1.05219,0.00243261,0.007933,3.5122,5,0.1,3,0.1,-2.90066,-4.20073,0.668646,-0.0118468,0.0489689,-0.00203634,-0.210598,0.870556,-0.0361986,0.00778261,2.54208,5,0.1,4,0.1,-1.2964,2.5592,0.605829,0.00730939,-0.0269715,-0.00017304,0.129938,-0.479504,-0.00306964,0.0194041,0.780806,5,0.1,5,0.1,-1.10815,-3.13803,0.545561,0.0087373,0.0577863,0.000561308,0.15533,1.02733,0.00998005,0.0106496,3.51229,5,0.1,6,0.1,-2.13588,2.74865,0.616324,0.0350513,-0.0477906,-0.000339188,0.623137,-0.84962,-0.00603497,0.0124815,3.5122,5,0.1,7,0.1,-0.512424,1.06418,0.664113,-0.0413319,-0.0424676,-0.000950508,-0.734791,-0.754982,-0.0168979,0.0114342,3.5122,5,0.1,8,0.1,4.36655,4.11043,0.642274,-0.0486858,-0.0337809,-0.00113314,-0.865549,-0.600576,-0.0201426,0.0158063,3.5122,5,0.1,9,0.1,-0.183271,-0.422964,0.637436,-0.0553173,-0.0212547,-0.000979379,-0.983419,-0.37786,-0.017412,0.00955896,3.5122,5,0.1,10,0.1,0.180201,3.62429,0.55889,0.0581113,-0.0116281,0.000765733,1.03309,-0.206709,0.0136122,0.0134392,3.5122,5,0.1,11,0.1,0.826156,-4.11985,0.680183,0.0169578,0.0191621,-0.00368431,0.301477,0.34067,-0.0654981,0.00796141,0.668244,5,0.1,12,0.1,-1.79702,-4.34009,0.581312,0.0043612,0.044205,0.000554323,0.0775456,0.785857,0.00985712,0.00839114,1.97301,5,0.1,13,0.1,4.26288,-1.67959,0.581041,-0.0119455,0.0580518,0.000235345,-0.212342,1.03203,0.0041835,0.0146291,3.5122,5,0.1,14,0.1,-1.51421,1.76844,0.539221,0.0226704,-0.00351332,0.00180304,0.403024,-0.0624657,0.0320524,0.0236424,0.529455,5,0.1,15,0.1,0.903562,3.85523,0.529061,-0.059152,0.00348762,0.00127014,-1.05159,0.0619888,0.0225753,0.010909,3.5122,5,0.1,16,0.1,3.42289,0.0363068,0.691249,0.000679493,0.0592461,0.00147242,0.0120699,1.05326,0.0261813,0.0199023,3.5122,5,0.1,17,0.1,2.00096,0.627347,0.558312,-0.0237603,0.0214377,0.00123652,-0.422403,0.381112,0.0219829,0.0255242,1.02551,5,0.1,18,0.1,-1.06476,-2.46317,0.646603,0.000198185,0.0592653,-0.000625849,0.00351667,1.05359,-0.0111237,0.00836515,3.5122,5,0.1,19,0.1,2.04321,4.27256,0.601022,0.0370018,-0.0462987,-2.99886e-05,0.657827,-0.823051,-0.000528991,0.00875013,3.5122,5,0.1
0,0.2,1.63283,2.67949,0.660429,-0.175178,-0.0661194,-0.00547618,-1.31375,-0.495672,-0.0410974,0.0107067,2.9258,5,0.1,1,0.2,2.24949,1.32336,0.670627,-0.169736,0.0308096,-0.00666231,-1.27304,0.231087,-0.0499487,0.0110301,2.44767,5,0.1,2,0.2,-4.09193,0.390803,0.564676,0.00988245,-0.187056,0.000433624,0.0741482,-1.40291,0.00321865,0.0108554,2.92579,5,0.1,3,0.2,-2.90307,-4.19079,0.668233,-0.0374436,0.154769,-0.0064373,-0.280738,1.16062,-0.0482202,0.0104814,2.49176,5,0.1,4,0.2,-1.29491,2.55372,0.605794,0.0230998,-0.0852466,-0.000546873,0.17333,-0.6392,-0.00408292,0.023294,0.640617,5,0.1,5,0.2,-1.10637,-3.12629,0.545675,0.0276178,0.182641,0.00177324,0.207007,1.3696,0.0133514,0.0145122,2.93887,5,0.1,6,0.2,-2.12876,2.73894,0.616255,0.110781,-0.15105,-0.00107288,0.83077,-1.13261,-0.00804663,0.0146355,2.92621,5,0.1,7,0.2,-0.52082,1.05555,0.66392,-0.130628,-0.134221,-0.00300556,-0.979751,-1.0066,-0.0225008,0.0113202,2.92579,5,0.1,8,0.2,4.35666,4.10357,0.642044,-0.153875,-0.106764,-0.00358075,-1.15395,-0.800848,-0.0268519,0.0175293,2.92579,5,0.1,9,0.2,-0.194508,-0.427282,0.637237,-0.17483,-0.0671752,-0.00309497,-1.31123,-0.503838,-0.0232458,0.00850144,2.92579,5,0.1,10,0.2,0.192005,3.62193,0.559046,0.18366,-0.0367522,0.00241995,1.37746,-0.275612,0.0181496,0.0163245,2.92595,5,0.1,11,0.2,0.8296,-4.11596,0.679434,0.0535935,0.0605583,-0.0116453,0.402004,0.454426,-0.0873208,0.00941013,0.548253,5,0.1,12,0.2,-1.79614,-4.33112,0.581425,0.0137836,0.139701,0.00175238,0.103414,1.04785,0.0131428,0.00644737,1.61875,5,0.1,13,0.2,4.26045,-1.6678,0.581088,-0.0377536,0.183472,0.000742078,-0.283003,1.37603,0.00560284,0.0146482,2.9258,5,0.1,14,0.2,-1.5096,1.76773,0.539588,0.0716507,-0.0111073,0.0056982,0.537336,-0.0832081,0.0427365,0.0265015,0.434393,5,0.1,15,0.2,0.891546,3.85593,0.529319,-0.186948,0.0110209,0.00401437,-1.40214,0.0827312,0.0301301,0.00870142,2.93208,5,0.1,16,0.2,3.42303,0.0483413,0.691549,0.00215173,0.187247,0.00465363,0.015974,1.40435,0.0349283,0.0187981,2.92579,5,0.1,17,0.2,1.99613,0.631702,0.558564,-0.0750959,0.0677541,0.00390857,-0.563204,0.50813,0.0293255,0.0273488,0.841377,5,0.1,18,0.2,-1.06472,-2.45114,0.646476,0.000625849,0.187302,-0.00197738,0.00470877,1.40488,-0.0148416,0.00887108,2.92579,5,0.1,19,0.2,2.05072,4.26316,0.601016,0.116944,-0.146329,-9.53674e-05,0.877142,-1.09744,-0.000715256,0.0103942,2.92579,5,0.1
0,0.3,1.608,2.67012,0.659653,-0.326273,-0.123134,-0.0102019,-1.61461,-0.609279,-0.0504926,0.0107067,2.9258,5,0.1,1,0.3,2.22545,1.32773,0.669683,-0.315767,0.0573173,-0.0123926,-1.55777,0.282764,-0.061132,0.0110301,2.44767,5,0.1,2,0.3,-4.09053,0.364296,0.564737,0.0184081,-0.348404,0.000804756,0.0910461,-1.72415,0.00397488,0.0108554,2.92579,5,0.1,3,0.3,-2.90837,-4.16871,0.667321,-0.0696491,0.292356,-0.0119706,-0.343576,1.49933,-0.0590347,0.0104814,2.49176,5,0.1,4,0.3,-1.29164,2.54165,0.605716,0.0429802,-0.158574,-0.00101589,0.212058,-0.782236,-0.00500679,0.023294,0.640617,5,0.1,5,0.3,-1.10275,-3.10036,0.545929,0.0433499,0.341637,0.00337986,0.110842,1.70951,0.0176765,0.0145122,2.93887,5,0.1,6,0.3,-2.11306,2.71759,0.616103,0.20633,-0.279636,-0.00199815,1.02104,-1.36219,-0.00989065,0.0146355,2.92621,5,0.1,7,0.3,-0.539331,1.03653,0.663495,-0.243307,-0.24999,-0.00559455,-1.20407,-1.23712,-0.0276752,0.0113202,2.92579,5,0.1,8,0.3,4.33485,4.08844,0.641537,-0.286591,-0.198865,-0.0066692,-1.41823,-0.984132,-0.0329986,0.0175293,2.92579,5,0.1,9,0.3,-0.219283,-0.436801,0.636798,-0.325633,-0.12512,-0.0057674,-1.61146,-0.61919,-0.0285544,0.00850144,2.92579,5,0.1,10,0.3,0.218007,3.61669,0.559389,0.341402,-0.0692613,0.0045266,1.6808,-0.353128,0.0226498,0.0163245,2.92595,5,0.1,11,0.3,0.837191,-4.10738,0.677785,0.0997063,0.11268,-0.0216624,0.491895,0.555992,-0.106856,0.00941013,0.548253,5,0.1,12,0.3,-1.79418,-4.31133,0.581673,0.0256453,0.259899,0.00326,0.126526,1.28222,0.0160784,0.00644737,1.61875,5,0.1,13,0.3,4.25511,-1.6418,0.581194,-0.0703059,0.341728,0.00138544,-0.347883,1.69112,0.00686944,0.0146482,2.9258,5,0.1,14,0.3,-1.49945,1.76616,0.540395,0.13329,-0.0206549,0.0106005,0.657551,-0.101879,0.0522956,0.0265015,0.434393,5,0.1,15,0.3,0.865206,3.85768,0.529884,-0.343889,0.0256922,0.00735642,-1.64642,0.193343,0.0348352,0.00870142,2.93208,5,0.1,16,0.3,3.42333,0.0748758,0.692208,0.00399426,0.34876,0.00866987,0.0197291,1.72591,0.0429079,0.0187981,2.92579,5,0.1,17,0.3,1.9855,0.641298,0.559117,-0.139702,0.126043,0.00727214,-0.689194,0.621803,0.035882,0.0273488,0.841377,5,0.1,18,0.3,-1.06463,-2.42459,0.646196,0.00116695,0.348873,-0.00368403,0.0057742,1.72652,-0.0182353,0.00887108,2.92579,5,0.1,19,0.3,2.06729,4.24242,0.601002,0.217821,-0.272547,-0.00017751,1.07796,-1.34873,-0.000879169,0.0103942,2.92579,5,0.1
0,0.4,1.56744,2.65481,0.658385,-0.481838,-0.181842,-0.0150666,-1.42765,-0.538588,-0.0446439,0.0124188,2.50123,5,0.1,1,0.4,2.18622,1.33485,0.668144,-0.465685,0.0845313,-0.0182748,-1.37436,0.249445,-0.053972,0.0109772,1.93662,5,0.1,2,0.4,-4.08824,0.320981,0.564837,0.0271916,-0.514522,0.00118762,0.0803471,-1.52445,0.00354648,0.0168414,2.51536,5,0.1,3,0.4,-2.91703,-4.13204,0.665834,-0.102717,0.438654,-0.0176519,-0.30303,1.35827,-0.0521243,0.012281,1.98197,5,0.1,4,0.4,-1.2863,2.52195,0.60559,0.0633866,-0.233859,-0.00149757,0.187099,-0.690222,-0.00441074,0.0269101,0.506866,5,0.1,5,0.4,-1.09799,-3.05777,0.546355,0.0504136,0.507009,0.00511408,0.0334978,1.52326,0.0162423,0.0210035,2.52406,5,0.1,6,0.4,-2.08741,2.68296,0.615855,0.304705,-0.410128,-0.00295043,0.902891,-1.19102,-0.00876188,0.0120303,2.79074,5,0.1,7,0.4,-0.56958,1.00546,0.662799,-0.359316,-0.369184,-0.0082612,-1.0646,-1.09383,-0.0244677,0.0206582,2.51008,5,0.1,8,0.4,4.29922,4.06371,0.640708,-0.423241,-0.293684,-0.00984967,-1.25384,-0.870228,-0.0291765,0.0205812,2.51007,5,0.1,9,0.4,-0.259767,-0.452356,0.636081,-0.480894,-0.184778,-0.0085175,-1.42482,-0.547454,-0.0252724,0.00744292,2.51008,5,0.1,10,0.4,0.260398,3.60802,0.559954,0.503039,-0.103647,0.00671744,1.48073,-0.318766,0.0201762,0.0150896,2.51414,5,0.1,11,0.4,0.849577,-4.09338,0.675094,0.147046,0.166178,-0.0319466,0.433922,0.490427,-0.0942647,0.0106115,0.433779,5,0.1,12,0.4,-1.791,-4.27904,0.582078,0.0378221,0.383294,0.00480711,0.11158,1.1313,0.0142157,0.00658051,1.28077,5,0.1,13,0.4,4.24636,-1.59932,0.581366,-0.103819,0.504664,0.00204742,-0.307798,1.49524,0.00604987,0.0154415,2.51204,5,0.1,14,0.4,-1.48289,1.76359,0.541712,0.19657,-0.030458,0.0156328,0.580132,-0.0899434,0.0461638,0.0237159,0.343698,5,0.1,15,0.4,0.822793,3.86128,0.530789,-0.500584,0.0466287,0.0106573,-1.42127,0.212193,0.0298321,0.00802303,2.53242,5,0.1,16,0.4,3.42383,0.118235,0.693286,0.0058949,0.515047,0.0128046,0.0174046,1.52602,0.0379086,0.0182173,2.51558,5,0.1,17,0.4,1.96814,0.656956,0.560021,-0.206026,0.185885,0.0107244,-0.608087,0.548571,0.0316501,0.0307307,0.665707,5,0.1,18,0.4,-1.06448,-2.38122,0.645738,0.00172257,0.515217,-0.00544041,0.005126,1.52647,-0.0161231,0.0100156,2.51565,5,0.1,19,0.4,2.09437,4.20854,0.60098,0.32168,-0.402498,-0.00026226,0.952959,-1.19233,-0.00077486,0.0105003,2.31887,5,0.1
0,0.5,1.51192,2.63386,0.656648,-0.628661,-0.237237,-0.0196577,-1.43345,-0.540897,-0.044819,0.0124188,2.50123,5,0.1,1,0.5,2.13266,1.34457,0.666042,-0.605127,0.109841,-0.0237501,-1.34608,0.244319,-0.0528507,0.0109772,1.93662,5,0.1,2,0.5,-4.08511,0.261923,0.564974,0.0354625,-0.664711,0.00155224,0.0807941,-1.41112,0.0035651,0.0168414,2.51536,5,0.1,3,0.5,-2.92884,-4.08121,0.663804,-0.133465,0.577865,-0.0229405,-0.296846,1.35615,-0.0510514,0.012281,1.98197,5,0.1,4,0.5,-1.27901,2.49505,0.605418,0.0823677,-0.303888,-0.00194563,0.183225,-0.676036,-0.00432506,0.0269101,0.506866,5,0.1,5,0.5,-1.09286,-2.99943,0.546951,0.0514539,0.658152,0.00680545,-0.010781,1.4296,0.016693,0.0210035,2.52406,5,0.1,6,0.5,-2.05232,2.63733,0.615514,0.397004,-0.489927,-0.00387924,0.896692,-0.436619,-0.00928715,0.0120303,2.79074,5,0.1,7,0.5,-0.610986,0.962912,0.661847,-0.468867,-0.481743,-0.0107796,-1.07007,-1.09947,-0.0246055,0.0206582,2.51008,5,0.1,8,0.5,4.25045,4.02987,0.639573,-0.552269,-0.383228,-0.0128522,-1.26037,-0.874653,-0.0293292,0.0205812,2.51007,5,0.1,9,0.5,-0.315183,-0.473649,0.635099,-0.627513,-0.241113,-0.0111168,-1.43215,-0.550272,-0.0253841,0.00744292,2.51008,5,0.1,10,0.5,0.318205,3.59604,0.560729,0.652206,-0.135866,0.00878004,1.42992,-0.310197,0.0200383,0.0150896,2.51414,5,0.1,11,0.5,0.866491,-4.07427,0.671419,0.191072,0.215935,-0.0415111,0.424996,0.480264,-0.092335,0.0106115,0.433779,5,0.1,12,0.5,-1.78665,-4.23495,0.582631,0.0491435,0.498071,0.0062488,0.109293,1.10799,0.0139102,0.00658051,1.28077,5,0.1,13,0.5,4.2344,-1.5413,0.581602,-0.135491,0.654457,0.00267001,-0.309318,1.4291,0.0060834,0.0154415,2.51204,5,0.1,14,0.5,-1.46028,1.76009,0.54351,0.25543,-0.0395831,0.020316,0.568204,-0.0880808,0.0452064,0.0237159,0.343698,5,0.1,15,0.5,0.765431,3.8669,0.532011,-0.646633,0.0647597,0.0138142,-1.4229,0.148505,0.0315048,0.00802303,2.53242,5,0.1,16,0.5,3.4245,0.177349,0.694761,0.007689,0.665258,0.0167058,0.0175536,1.41017,0.038106,0.0182173,2.51558,5,0.1,17,0.5,1.94444,0.678337,0.561254,-0.267722,0.241543,0.0139353,-0.595547,0.537287,0.0309981,0.0307307,0.665707,5,0.1,18,0.5,-1.06429,-2.32209,0.645111,0.0022497,0.66543,-0.00709938,0.0051409,1.40984,-0.0162013,0.0100156,2.51565,5,0.1,19,0.5,2.1314,4.16221,0.60095,0.41847,-0.523603,-0.000340957,0.935242,-1.17016,-0.000763685,0.0105003,2.31887,5,0.1
0,0.6,1.44238,2.60762,0.654474,-0.755662,-0.285161,-0.0236288,-1.05321,-0.397444,-0.0329018,0.0142138,1.91925,5,0.1,1,0.6,2.06592,1.35668,0.663422,-0.723249,0.131279,-0.0283882,-0.968337,0.175834,-0.037998,0.011515,1.44843,5,0.1,2,0.6,-4.08119,0.189035,0.565146,0.0426292,-0.785505,0.00186712,0.0593662,-0.960566,0.00265241,0.014267,2.33362,5,0.1,3,0.6,-2.94356,-4.01712,0.661274,-0.159514,0.69797,-0.0274196,-0.213623,0.996709,-0.0367463,0.00813753,2.36509,5,0.1,4,0.6,-1.26993,2.46154,0.605203,0.098446,-0.363213,-0.00232607,0.131786,-0.486374,-0.00309944,0.0202233,0.377349,5,0.1,5,0.6,-1.08783,-2.92709,0.54771,0.0486314,0.781333,0.00830144,-0.043869,0.988126,0.0125766,0.0095551,2.33821,5,0.1,6,0.6,-2.00846,2.58718,0.615082,0.476122,-0.503528,-0.0047192,0.652909,0.13566,-0.00712276,0.0142863,2.84301,5,0.1,7,0.6,-0.662852,0.909621,0.660655,-0.563709,-0.579192,-0.012961,-0.78693,-0.808597,-0.01809,0.0111517,2.21915,5,0.1,8,0.6,4.18936,3.98748,0.638151,-0.663972,-0.46075,-0.0154525,-0.92721,-0.643253,-0.0215471,0.0174761,2.20782,5,0.1,9,0.6,-0.384598,-0.500321,0.63387,-0.754447,-0.289886,-0.0133663,-1.05321,-0.404656,-0.0186563,0.0106443,2.27127,5,0.1,10,0.6,0.390006,3.58102,0.5617,0.776827,-0.163066,0.0105485,1.01326,-0.222921,0.0146329,0.0147967,2.31654,5,0.1,11,0.6,0.887563,-4.05046,0.666842,0.228368,0.258088,-0.0496134,0.305742,0.34523,-0.0664592,0.010588,0.322933,5,0.1,12,0.6,-1.78123,-4.18002,0.58332,0.0587344,0.595307,0.00746995,0.0786185,0.796795,0.00998378,0.00758434,0.95349,5,0.1,13,0.6,4.21941,-1.4693,0.581897,-0.162911,0.778517,0.00320971,-0.227213,1.00392,0.00447035,0.0157575,2.31515,5,0.1,14,0.6,-1.43211,1.75572,0.54575,0.305292,-0.0473142,0.0242829,0.408769,-0.0633597,0.0325143,0.0251688,2.56424,5,0.1,15,0.6,0.694165,3.874,0.533541,-0.772202,0.0760436,0.0166506,-1.03566,0.0765324,0.0239611,0.0123449,2.34011,5,0.1,16,0.6,3.42536,0.250284,0.696609,0.00924468,0.785878,0.0200838,0.0129938,0.958264,0.028044,0.0177351,2.33464,5,0.1,17,0.6,1.91492,0.704975,0.562791,-0.319985,0.288694,0.016655,-0.428379,0.386506,0.0222921,0.0264787,0.495601,5,0.1,18,0.6,-1.06404,-2.24914,0.644325,0.00270307,0.786,-0.00853688,0.0038743,0.95737,-0.0118911,0.00975619,2.33493,5,0.1,19,0.6,2.17757,4.10444,0.600912,0.500619,-0.626385,-0.000408292,0.674248,-0.843763,-0.000536442,0.0108615,1.7275,5,0.1
0,0.7,1.36241,2.57737,0.651949,-0.835057,-0.317124,-0.0268152,-0.531837,-0.234276,-0.0289977,0.0142138,1.91925,5,0.1,1,0.7,1.98917,1.37067,0.660397,-0.806828,0.148159,-0.0320363,-0.673041,0.152111,-0.0328757,0.011515,1.44843,5,0.1,2,0.7,-4.07662,0.106742,0.565346,0.0485897,-0.85037,0.00213236,0.056088,-0.363758,0.00248849,0.014267,2.33362,5,0.1,3,0.7,-2.96106,-3.94259,0.658312,-0.194268,0.789055,-0.0320556,-0.438079,0.781506,-0.051491,0.00813753,2.36509,5,0.1,4,0.7,-1.25943,2.42283,0.604955,0.111097,-0.409905,-0.00262409,0.114009,-0.420794,-0.00268966,0.0202233,0.377349,5,0.1,5,0.7,-1.08321,-2.84507,0.548604,0.0435637,0.848974,0.00956897,-0.056617,0.38816,0.0119954,0.0095551,2.33821,5,0.1,6,0.7,-1.95751,2.53841,0.614575,0.542477,-0.464023,-0.00538984,0.630699,0.611678,-0.00594929,0.0142863,2.84301,5,0.1,7,0.7,-0.723211,0.847605,0.659267,-0.642703,-0.66036,-0.0147771,-0.743113,-0.763573,-0.0170916,0.0111517,2.21915,5,0.1,8,0.7,4.11827,3.93815,0.636497,-0.756937,-0.525246,-0.0176135,-0.873625,-0.60609,-0.0203177,0.0174761,2.20782,5,0.1,9,0.7,-0.464448,-0.53136,0.632438,-0.833834,-0.330506,-0.0152388,-0.532638,-0.382129,-0.0176094,0.0106443,2.27127,5,0.1,10,0.7,0.471714,3.56359,0.562828,0.847335,-0.185195,0.012011,0.415668,-0.205934,0.0136979,0.0147967,2.31654,5,0.1,11,0.7,0.911902,-4.02295,0.661554,0.25772,0.291235,-0.0559933,0.264525,0.298724,-0.0574961,0.010588,0.322933,5,0.1,12,0.7,-1.77497,-4.11658,0.584116,0.0662822,0.671804,0.00842847,0.0680238,0.689447,0.00863522,0.00758434,0.95349,5,0.1,13,0.7,4.20197,-1.38748,0.582241,-0.185722,0.847945,0.00365842,-0.214577,0.405334,0.00422448,0.0157575,2.31515,5,0.1,14,0.7,-1.39832,1.75068,0.548338,0.380096,-0.053397,0.0274043,0.985846,-0.0548288,0.0281297,0.0251688,2.56424,5,0.1,15,0.7,0.612781,3.88194,0.535328,-0.845596,0.0821628,0.01909,-0.444755,0.043571,0.023257,0.0123449,2.34011,5,0.1,16,0.7,3.42635,0.332602,0.69876,0.0105485,0.8505,0.0228977,0.0122786,0.361538,0.026457,0.0177351,2.33464,5,0.1,17,0.7,1.88081,0.735744,0.564566,-0.36111,0.3258,0.0187953,-0.370637,0.334404,0.0192933,0.0264787,0.495601,5,0.1,18,0.7,-1.06375,-2.16681,0.643412,0.00308994,0.85054,-0.00973064,0.00361353,0.360847,-0.0112355,0.00975619,2.33493,5,0.1,19,0.7,2.23095,4.03765,0.600869,0.565396,-0.707445,-0.000460166,0.584289,-0.731185,-0.000465661,0.0108615,1.7275,5,0.1
0,0.8,1.27709,2.5448,0.649141,-0.863418,-0.330889,-0.0291213,-0.0521541,-0.0371933,-0.0158846,0.0117097,1.35435,5,0.1,1,0.8,1.9058,1.38615,0.657051,-0.853571,0.160083,-0.0346139,-0.249088,0.0799298,-0.0172555,0.0110463,1.05187,5,0.1,2,0.8,-4.07151,0.0206168,0.56557,0.0532031,-0.866025,0.0023365,0.0338554,1.19209e-06,0.00151992,0.0123858,2.26973,5,0.1,3,0.8,-2.98276,-3.8604,0.654855,-0.239533,0.847644,-0.036943,-0.434756,0.367641,-0.0429749,0.0103715,2.2327,5,0.1,4,0.8,-1.24783,2.38002,0.604681,0.120035,-0.442898,-0.0028342,0.0599027,-0.220895,-0.00143051,0.0192191,0.266426,5,0.1,5,0.8,-1.07915,-2.759,0.549614,0.0374764,0.866026,0.0105694,-0.0643134,0,0.00745058,0.0125802,2.28103,5,0.1,6,0.8,-1.90044,2.49556,0.614011,0.594884,-0.388938,-0.00585169,0.387132,0.855565,-0.00312924,0.0106833,3.08712,5,0.1,7,0.8,-0.790789,0.77817,0.657713,-0.7039,-0.72324,-0.0161856,-0.446349,-0.458658,-0.010252,0.0132529,2.0419,5,0.1,8,0.8,4.03869,3.88293,0.634645,-0.828815,-0.575101,-0.0192851,-0.52321,-0.363231,-0.0121593,0.0148761,1.61407,5,0.1,9,0.8,-0.549669,-0.566112,0.630836,-0.862753,-0.361976,-0.0166878,-0.0654459,-0.229508,-0.0105798,0.0128551,2.1754,5,0.1,10,0.8,0.55773,3.54416,0.56409,0.866026,-0.201935,0.0131339,0,-0.119567,0.00810623,0.0135471,2.24127,5,0.1,11,0.8,0.938816,-3.99254,0.655706,0.278459,0.314653,-0.0605017,0.138909,0.156999,-0.03016,0.00834101,0.228014,5,0.1,12,0.8,-1.76805,-4.04642,0.584996,0.071618,0.725853,0.00910461,0.0356436,0.362039,0.00455976,0.00938583,0.673226,5,0.1,13,0.8,4.18244,-1.30144,0.582625,-0.203395,0.866026,0.00400692,-0.128746,0,0.0025034,0.0161674,2.24031,5,0.1,14,0.8,-1.35512,1.7451,0.5512,0.484654,-0.0576943,0.0296086,1.0286,-0.0288486,0.014782,0.0252751,2.24343,5,0.1,15,0.8,0.526827,3.8903,0.537342,-0.866026,0.0844061,0.0210345,0,0.000119209,0.0145733,0.0104296,2.26771,5,0.1,16,0.8,3.42746,0.418732,0.701167,0.0115573,0.866026,0.0250757,0.00739098,0,0.0158846,0.018392,2.27438,5,0.1,17,0.8,1.8431,0.769768,0.566529,-0.390169,0.352019,0.0203073,-0.194609,0.175595,0.010103,0.0278217,0.483421,5,0.1,18,0.8,-1.06342,-2.08068,0.642388,0.00338852,0.866026,-0.0106558,0.00214577,0,-0.00673532,0.0102251,2.27183,5,0.1,19,0.8,2.29001,3.96375,0.600821,0.611281,-0.764865,-0.000496209,0.308156,-0.385761,-0.000268221,0.0102239,1.30923,5,0.1
0,0.9,1.19059,2.51207,0.646152,-0.865574,-0.318868,-0.030578,0.00502914,0.25782,-0.0118054,0.0117097,1.35435,5,0.1,1,0.9,1.81968,1.40254,0.653508,-0.864843,0.167325,-0.0361776,-0.0149533,0.0572354,-0.0123605,0.0110463,1.05187,5,0.1,2,0.9,-4.06602,-0.0659857,0.565812,0.0566922,-0.866025,0.00249231,0.0323951,1.49012e-07,0.00144169,0.0123858,2.26973,5,0.1,3,0.9,-3.00911,-3.77451,0.650927,-0.288887,0.864877,-0.0416946,-0.515133,0.0459552,-0.0481009,0.0103715,2.2327,5,0.1,4,0.9,-1.23554,2.33468,0.604391,0.125462,-0.462915,-0.00296393,0.0429004,-0.15825,-0.00102445,0.0192191,0.266426,5,0.1,5,0.9,-1.07541,-2.67239,0.550708,0.0399303,0.866026,0.011291,0.0941455,0,0.00634789,0.0125802,2.28103,5,0.1,6,0.9,-1.83904,2.46127,0.613411,0.63181,-0.294822,-0.00612689,0.317767,0.981361,-0.00211224,0.0106833,3.08712,5,0.1,7,0.9,-0.863506,0.703455,0.656041,-0.750144,-0.770759,-0.0172486,-0.430871,-0.442736,-0.00990555,0.0132529,2.0419,5,0.1,8,0.9,3.95389,3.82363,0.632657,-0.860799,-0.609612,-0.020441,-0.142738,-0.295013,-0.00988692,0.0148761,1.61407,5,0.1,9,0.9,-0.636144,-0.603504,0.629112,-0.865821,-0.3857,-0.0177812,-0.00817701,-0.220578,-0.0101626,0.0128551,2.1754,5,0.1,10,0.9,0.644333,3.52335,0.565446,0.866026,-0.214214,0.0139692,-3.72529e-06,-0.112906,0.00772998,0.0135471,2.24127,5,0.1,11,0.9,0.967325,-3.96032,0.649512,0.291047,0.328879,-0.0632349,0.0994988,0.112459,-0.0216067,0.00834101,0.228014,5,0.1,12,0.9,-1.76072,-3.97211,0.585928,0.0748487,0.75866,0.00951746,0.0255331,0.259325,0.00325963,0.00938583,0.673226,5,0.1,13,0.9,4.16143,-1.21483,0.583039,-0.216708,0.866026,0.00426648,-0.123799,0,0.00241771,0.0161674,2.24031,5,0.1,14,0.9,-1.3024,1.7392,0.554232,0.56098,-0.060308,0.0309479,0.503264,-0.0206679,0.0105835,0.0252751,2.24343,5,0.1,15,0.9,0.440224,3.89874,0.539524,-0.866026,0.0842042,0.0226133,3.57628e-06,-0.00727177,0.0153705,0.0104296,2.26771,5,0.1,16,0.9,3.42852,0.505334,0.703745,0.00872053,0.866026,0.0263691,-0.0569075,-3.72529e-06,0.00906736,0.018392,2.27438,5,0.1,17,0.9,1.803,0.805807,0.568608,-0.412249,0.367931,0.0212231,-0.218429,0.125781,0.00723824,0.0278217,0.483421,5,0.1,18,0.9,-1.06307,-1.99408,0.641288,0.00360943,0.866026,-0.0113518,0.00204146,0,-0.00646338,0.0102251,2.27183,5,0.1,19,0.9,2.35172,3.88542,0.60077,0.613942,-0.79986,-0.00052033,-0.228122,-0.277385,-0.00018999,0.0102239,1.30923,5,0.1
0,1,1.10417,2.48182,0.643052,-0.861406,-0.282997,-0.0312403,0.0923872,0.442386,-0.000476837,0.00990866,1.02222,5,0.1,1,1,1.73335,1.41947,0.649847,-0.859556,0.170258,-0.0368103,0.129461,-0.00369549,0.000804663,0.0151856,0.755058,5,0.1,2,1,-4.06021,-0.152588,0.566067,0.0590801,-0.866026,0.00259727,0.0128746,7.15256e-06,0.000596046,0.0118912,2.26952,5,0.1,3,1,-3.04046,-3.68793,0.646535,-0.336152,0.866026,-0.0458851,-0.403285,0,-0.0329614,0.011659,2.24358,5,0.1,4,1,-1.22285,2.28784,0.604091,0.127658,-0.47102,-0.00301749,-0.00274181,0.010252,5.96046e-05,0.0188876,0.229714,5,0.1,5,1,-1.07082,-2.58579,0.551863,0.0528842,0.866026,0.0117332,0.149906,0,0.00202656,0.0129203,2.27084,5,0.1,6,1,-1.77461,2.4366,0.612791,0.652811,-0.200254,-0.00623018,0.0795126,0.879526,0.000208616,0.0133026,3.14373,5,0.1,7,1,-0.940329,0.62452,0.654275,-0.782008,-0.803502,-0.0179812,-0.17345,-0.178218,-0.00396371,0.00991961,1.95382,5,0.1,8,1,3.8675,3.76152,0.630574,-0.863802,-0.628763,-0.0210822,0.0442266,-0.0663996,-0.00223517,0.0144149,1.13976,5,0.1,9,1,-0.722743,-0.642999,0.627292,-0.866026,-0.401968,-0.0185296,0,-0.0878572,-0.00405312,0.0116349,2.16434,5,0.1,10,1,0.730935,3.50146,0.566875,0.866026,-0.222307,0.0145331,0,-0.0398159,0.00295043,0.0118745,2.23863,5,0.1,11,1,0.996773,-3.92705,0.643114,0.296144,0.334644,-0.0643417,-0.0064671,-0.00739098,0.00143051,0.00733482,0.155058,5,0.1,12,1,-1.75314,-3.89535,0.586891,0.0761569,0.771946,0.00968575,-0.00166893,-0.0168085,-0.000238419,0.00902988,0.457824,5,0.1,13,1,4.13924,-1.12823,0.583476,-0.225842,0.866026,0.00444502,-0.0491142,0,0.000953674,0.0143633,2.23701,5,0.1,14,1,-1.24461,1.73309,0.557363,0.586703,-0.061366,0.0314891,0.0198483,0.0012517,-0.000655651,0.028171,2.16004,5,0.1,15,1,0.353622,3.90709,0.541852,-0.866025,0.0824392,0.0238314,-1.43051e-05,-0.0299215,0.00789762,0.0102252,2.26776,5,0.1,16,1,3.42905,0.591937,0.70641,0.00146627,0.866026,0.0267416,-0.0824928,0,-0.00217557,0.0175292,2.27263,5,0.1,17,1,1.76084,0.843035,0.570755,-0.428993,0.374374,0.0215933,-0.0963807,-0.00807643,-0.000447035,0.0267734,0.343764,5,0.1,18,1,-1.0627,-1.90748,0.640126,0.00375807,0.866026,-0.0118271,0.000834465,-5.96046e-05,-0.0025928,0.0116966,2.29276,5,0.1,19,1,2.41127,3.80447,0.600717,0.570768,-0.814229,-0.000530481,-0.611067,0.0143051,0,0.00837212,1.02308,5,0.1
0,1.1,1.01823,2.45593,0.639927,-0.85888,-0.233252,-0.0312161,0.00644848,0.537485,0.00213832,0.00990866,1.02222,5,0.1,1,1.1,1.64787,1.43647,0.646172,-0.850616,0.169509,-0.0366483,0.0903606,-0.0175014,0.00378489,0.0151856,0.755058,5,0.1,2,1.1,-4.05423,-0.239191,0.56633,0.0606298,-0.866025,0.00266749,0.0146031,1.78814e-06,0.000655651,0.0118912,2.26952,5,0.1,3,1.1,-3.07621,-3.60162,0.641769,-0.37942,0.856845,-0.0494857,-0.428334,-0.198841,-0.0353716,0.011659,2.24358,5,0.1,4,1.1,-1.20994,2.24081,0.60379,0.131544,-0.468949,-0.00300473,0.0659153,0.0483841,0.000301749,0.0188876,0.229714,5,0.1,5,1.1,-1.06464,-2.49919,0.553048,0.0717212,0.866026,0.0119724,0.211224,0,0.00211969,0.0129203,2.27084,5,0.1,6,1.1,-1.70881,2.42082,0.612168,0.66348,-0.118104,-0.00623148,0.0976995,0.711188,7.45058e-05,0.0133026,3.14373,5,0.1,7,1.1,-1.01958,0.543096,0.652453,-0.803478,-0.825562,-0.0184733,-0.208165,-0.213893,-0.00477582,0.00991961,1.95382,5,0.1,8,1.1,3.7812,3.69834,0.628455,-0.862386,-0.634069,-0.021261,0.0258088,-0.0139624,-0.000476837,0.0144149,1.13976,5,0.1,9,1.1,-0.809345,-0.683716,0.625415,-0.866026,-0.412586,-0.019019,3.72529e-06,-0.100635,-0.00463054,0.0116349,2.16434,5,0.1,10,1.1,0.817538,3.47899,0.568346,0.866026,-0.227269,0.0148924,-3.72529e-06,-0.046581,0.00338256,0.0118745,2.23863,5,0.1,11,1.1,1.02634,-3.89363,0.63669,0.29484,0.333164,-0.0640566,-0.0304542,-0.0344664,0.00663102,0.00733482,0.155058,5,0.1,12,1.1,-1.74554,-3.81827,0.587858,0.0758216,0.768551,0.00964077,-0.00782311,-0.0793189,-0.001017,0.00902988,0.457824,5,0.1,13,1.1,4.11636,-1.04163,0.583926,-0.231835,0.866026,0.00456218,-0.0572205,-3.72529e-06,0.00111759,0.0143633,2.23701,5,0.1,14,1.1,-1.18689,1.72697,0.560507,0.558452,-0.0611028,0.0313528,-0.541098,0.00626594,-0.00321865,0.028171,2.16004,5,0.1,15,1.1,0.267019,3.91521,0.544283,-0.866025,0.0800051,0.024833,0,-0.0225306,0.010401,0.0102252,2.26776,5,0.1,16,1.1,3.42873,0.67854,0.709073,-0.0082463,0.866026,0.026497,-0.105917,-3.72529e-06,-0.00371411,0.0175292,2.27263,5,0.1,17,1.1,1.71742,0.880416,0.572911,-0.439258,0.372734,0.0215003,-0.0863224,-0.0384264,-0.00220537,0.0267734,0.343764,5,0.1,18,1.1,-1.06268,-1.82087,0.638927,-0.00638627,0.866025,-0.0121652,-0.181183,1.49012e-05,-0.00340864,0.0116966,2.29276,5,0.1,19,1.1,2.46472,3.72316,0.600664,0.49332,-0.810973,-0.000528898,-0.904873,0.0806749,4.84288e-05,0.00837212,1.02308,5,0.1
0,1.2,0.932554,2.43534,0.636828,-0.851889,-0.178182,-0.0306174,0.16731,0.551939,0.0105798,0.0120612,0.197156,5,0.1,1,1.2,1.56347,1.45327,0.64254,-0.834545,0.165728,-0.0358298,0.259459,-0.0623465,0.0134408,0.00994134,0.625515,5,0.1,2,1.2,-4.04811,-0.325793,0.566599,0.0614166,-0.866025,0.00270307,-0.00119209,-1.43051e-05,-8.9407e-05,0.00771536,2.26948,5,0.1,3,1.2,-3.11611,-3.51736,0.636664,-0.41607,0.823909,-0.0523344,-0.280619,-0.468135,-0.0189841,0.0087971,2.54262,5,0.1,4,1.2,-1.19645,2.19433,0.603492,0.138313,-0.458479,-0.00293851,0.058651,0.172138,0.00110269,0.0221689,0.159274,5,0.1,5,1.2,-1.05642,-2.41259,0.554252,0.092411,0.866026,0.0120491,0.190973,0,-0.00107288,0.0107304,2.2625,5,0.1,6,1.2,-1.64219,2.41198,0.611547,0.666228,-0.065285,-0.00616461,-0.0677109,0.325084,0.00146031,0.0164711,3.10318,5,0.1,7,1.2,-1.1007,0.45974,0.650587,-0.815535,-0.83795,-0.0187501,0.000298023,0.000327826,0,0.011977,1.92288,5,0.1,8,1.2,3.69534,3.63512,0.626336,-0.851595,-0.627279,-0.0210345,0.218749,0.166774,0.00557303,0.016814,0.787426,5,0.1,9,1.2,-0.895948,-0.725339,0.623496,-0.866026,-0.418048,-0.0192702,0,0.00795722,0.00038743,0.0095801,1.74724,5,0.1,10,1.2,0.90414,3.4561,0.569847,0.866026,-0.229442,0.0150666,0,0.0119209,-0.000536442,0.0156804,2.23854,5,0.1,11,1.2,1.05556,-3.86061,0.630341,0.288257,0.325727,-0.0626251,-0.108242,-0.122547,0.023514,0.00813983,0.10311,5,0.1,12,1.2,-1.73802,-3.7421,0.588814,0.0741303,0.7514,0.00942349,-0.027895,-0.282288,-0.00354648,0.00935464,0.304438,5,0.1,13,1.2,4.09297,-0.955027,0.584386,-0.235009,0.866026,0.00462383,0.0038147,0,-5.96046e-05,0.0179165,2.23625,5,0.1,14,1.2,-1.13437,1.72091,0.563615,0.486484,-0.0597417,0.0306547,-0.862181,0.0224113,-0.0115335,0.0256776,1.32546,5,0.1,15,1.2,0.180417,3.92308,0.546811,-0.866025,0.0772953,0.0256166,0,-0.0342131,0.00405312,0.00783025,2.26822,5,0.1,16,1.2,3.42738,0.765142,0.711695,-0.018692,0.866026,0.0258327,-0.0987053,0,-0.010252,0.0154472,2.2712,5,0.1,17,1.2,1.67323,0.917356,0.575042,-0.442448,0.364417,0.0210226,0.0380278,-0.136852,-0.00792742,0.024799,0.236809,5,0.1,18,1.2,-1.06437,-1.73427,0.637697,-0.0284672,0.866026,-0.0123814,-0.242949,0,-0.000327826,0.0147545,2.30135,5,0.1,19,1.2,2.50927,3.64277,0.600612,0.395763,-0.793147,-0.00051856,-1.01972,0.295639,0.000208616,0.00694115,0.841347,5,0.1
0,1.3,0.848517,2.42021,0.633818,-0.825465,-0.125411,-0.0295671,0.370204,0.497401,0.0113919,0.0120612,0.197156,5,0.1,1,1.3,1.48194,1.46969,0.639022,-0.790196,0.164011,-0.0345008,0.608131,0.0129789,0.0142567,0.00994134,0.625515,5,0.1,2,1.3,-4.04196,-0.412396,0.56687,0.0617012,-0.866025,0.0027121,0.00345707,1.78814e-06,0.000122935,0.00771536,2.26948,5,0.1,3,1.3,-3.15923,-3.43828,0.631322,-0.446461,0.749552,-0.0545469,-0.295401,-0.963479,-0.0217445,0.0087971,2.54262,5,0.1,4,1.3,-1.18227,2.14937,0.603204,0.145315,-0.440357,-0.00280626,0.0711307,0.20209,0.00157952,0.0221689,0.159274,5,0.1,5,1.3,-1.04616,-2.32598,0.555455,0.112942,0.866026,0.0120229,0.206411,0,-0.000108033,0.0107304,2.2625,5,0.1,6,1.3,-1.57598,2.40646,0.610938,0.656753,-0.0521094,-0.00600377,-0.141732,-0.09498,0.00193343,0.0164711,3.10318,5,0.1,7,1.3,-1.18251,0.375684,0.648706,-0.821924,-0.844514,-0.0188979,-0.0794008,-0.0815652,-0.00183657,0.011977,1.92288,5,0.1,8,1.3,3.61118,3.57321,0.624259,-0.831895,-0.61059,-0.0204765,0.209004,0.188082,0.00629202,0.016814,0.787426,5,0.1,9,1.3,-0.982549,-0.767157,0.621569,-0.865936,-0.418326,-0.019281,0.00357628,0.00625104,0.000305474,0.0095801,1.74724,5,0.1,10,1.3,0.990743,3.43316,0.571355,0.866025,-0.229765,0.015112,0,-0.00569224,0.000603497,0.0156804,2.23854,5,0.1,11,1.3,1.08386,-3.82864,0.624194,0.277556,0.313618,-0.0603003,-0.114731,-0.129774,0.0249222,0.00813983,0.10311,5,0.1,12,1.3,-1.73075,-3.66834,0.589739,0.0713741,0.723496,0.00907285,-0.0295267,-0.299171,-0.00375882,0.00935464,0.304438,5,0.1,13,1.3,4.06942,-0.868424,0.58485,-0.236299,0.866026,0.00465056,-0.0160635,-3.72529e-06,0.000331551,0.0179165,2.23625,5,0.1,14,1.3,-1.09045,1.71505,0.566624,0.388939,-0.0575252,0.0295145,-1.04437,0.0237823,-0.012219,0.0256776,1.32546,5,0.1,15,1.3,0.0938141,3.93068,0.549405,-0.866025,0.0748221,0.0263145,-1.49012e-07,-0.0195056,0.00804663,0.00783025,2.26822,5,0.1,16,1.3,3.425,0.851745,0.714233,-0.0290148,0.866026,0.0249357,-0.102788,-3.72529e-06,-0.00873581,0.0154472,2.2712,5,0.1,17,1.3,1.62914,0.953128,0.577106,-0.438986,0.350888,0.0202396,0.0494272,-0.145055,-0.00838563,0.024799,0.236809,5,0.1,18,1.3,-1.06833,-1.64768,0.636459,-0.0495294,0.865563,-0.0123562,-0.176452,-0.0185147,0.0012368,0.0147545,2.30135,5,0.1,19,1.3,2.54369,3.5649,0.600561,0.292736,-0.763909,-0.000497978,-1.01489,0.313818,0.000219792,0.00694115,0.841347,5,0.1
0,1.4,0.768213,2.41003,0.630926,-0.776583,-0.0796974,-0.0281766,0.611097,0.412703,0.0170171,0.00969773,0.70532,5,0.1,1,1.4,1.40641,1.48618,0.635652,-0.716513,0.165713,-0.0327945,0.84883,0.00995398,0.0206232,0.0133802,0.524804,5,0.1,2,1.4,-4.03579,-0.498998,0.567141,0.061512,-0.866025,0.00270009,-0.00953674,-1.43051e-05,-0.000417233,0.00681291,2.26955,5,0.1,3,1.4,-3.20516,-3.36859,0.625778,-0.46975,0.640917,-0.0560865,-0.148058,-1.16765,-0.00655651,0.00872797,2.51344,5,0.1,4,1.4,-1.16744,2.10647,0.602933,0.150791,-0.41613,-0.00261664,0.0311136,0.290036,0.00226498,0.0222216,0.11405,5,0.1,5,1.4,-1.0339,-2.23938,0.556654,0.131422,0.866026,0.0119179,0.153661,0,-0.0025034,0.0104255,2.25608,5,0.1,6,1.4,-1.51126,2.4,0.61035,0.63462,-0.0842869,-0.00574738,-0.31364,-0.515461,0.00327826,0.0126876,2.92957,5,0.1,7,1.4,-1.2649,0.291025,0.646812,-0.823122,-0.845743,-0.018926,0.089705,0.0921929,0.00202656,0.0122274,1.98763,5,0.1,8,1.4,3.52924,3.51326,0.622249,-0.804132,-0.586158,-0.0196591,0.36943,0.314713,0.01055,0.0166491,0.586583,5,0.1,9,1.4,-1.0691,-0.808829,0.619648,-0.864598,-0.413464,-0.0190556,0.0286102,0.104517,0.00485778,0.0110528,1.3208,5,0.1,10,1.4,1.07735,3.41021,0.572866,0.866026,-0.228435,0.0150457,0,0.0413656,-0.0025332,0.0142643,2.23983,5,0.1,11,1.4,1.11097,-3.79801,0.618304,0.263822,0.298089,-0.0573173,-0.16588,-0.187516,0.036031,0.00997121,0.115596,5,0.1,12,1.4,-1.72378,-3.59767,0.590625,0.067842,0.687695,0.00862479,-0.0426769,-0.432491,-0.00545382,0.00706006,0.511151,5,0.1,13,1.4,4.04577,-0.781821,0.585315,-0.235927,0.866026,0.00464469,0.0329018,0,-0.000655651,0.0174836,2.23688,5,0.1,14,1.4,-1.05679,1.70943,0.569507,0.285146,-0.0546783,0.0280529,-1.00034,0.0343919,-0.0176728,0.0263507,0.977565,5,0.1,15,1.4,0.0072116,3.93806,0.55207,-0.866025,0.0726581,0.026907,1.19209e-06,-0.0267029,0.00247359,0.0089184,2.06167,5,0.1,16,1.4,3.42161,0.938347,0.716678,-0.0383914,0.866026,0.0239089,-0.0813007,0,-0.012517,0.0168252,2.27002,5,0.1,17,1.4,1.58563,0.987403,0.579083,-0.429514,0.333524,0.0192359,0.15229,-0.209689,-0.0120997,0.0267584,0.159736,5,0.1,18,1.4,-1.07404,-1.56136,0.635234,-0.0634968,0.85862,-0.0120685,-0.102043,-0.148118,0.00476837,0.0130769,2.28883,5,0.1,19,1.4,2.56807,3.49028,0.600512,0.197119,-0.726283,-0.000473857,-0.880003,0.455141,0.000357628,0.0103258,0.715764,5,0.1
0,1.5,0.693193,2.40396,0.628191,-0.726998,-0.0432096,-0.0265502,0.419315,0.31361,0.0163205,0.00969773,0.70532,5,0.1,1,1.5,1.33952,1.50288,0.632472,-0.617429,0.168699,-0.0308273,1.07801,0.0380203,0.0196546,0.0133802,0.524804,5,0.1,2,1.5,-4.02966,-0.585601,0.56741,0.0610627,-0.866026,0.00268025,-0.00289083,1.93715e-06,-0.000130385,0.00681291,2.26955,5,0.1,3,1.5,-3.25294,-3.3107,0.620127,-0.485735,0.515189,-0.0569464,-0.144422,-1.26664,-0.00760332,0.00872797,2.51344,5,0.1,4,1.5,-1.15224,2.06641,0.602685,0.152525,-0.383939,-0.00230735,-0.000752509,0.354916,0.00377372,0.0222216,0.11405,5,0.1,5,1.5,-1.01996,-2.15278,0.557837,0.147424,0.866026,0.0117757,0.154451,0,-0.0010021,0.0104255,2.25608,5,0.1,6,1.5,-1.44933,2.38866,0.609792,0.604122,-0.144709,-0.00541219,-0.314914,-0.653073,0.0035502,0.0126876,2.92957,5,0.1,7,1.5,-1.34631,0.206594,0.644922,-0.800345,-0.844758,-0.0189072,0.367038,-0.0214648,-0.000510365,0.0122274,1.98763,5,0.1,8,1.5,3.45138,3.45616,0.620334,-0.746905,-0.556001,-0.0186482,0.746325,0.305936,0.0102557,0.0166491,0.586583,5,0.1,9,1.5,-1.15554,-0.849696,0.617765,-0.864908,-0.403882,-0.0186107,-0.00528991,0.103153,0.00477955,0.0110528,1.3208,5,0.1,10,1.5,1.16395,3.3875,0.574362,0.866026,-0.226161,0.014914,0,0.0165552,-0.000923872,0.0142643,2.23983,5,0.1,11,1.5,1.13669,-3.76894,0.612715,0.251926,0.284642,-0.0547337,-0.0884086,-0.0998825,0.0191964,0.00997121,0.115596,5,0.1,12,1.5,-1.7172,-3.53067,0.591461,0.0637721,0.655244,0.00810493,-0.0406504,-0.2556,-0.0051856,0.00706006,0.511151,5,0.1,13,1.5,4.02226,-0.695219,0.585778,-0.234709,0.866026,0.0046202,0.00497699,-3.72529e-06,-0.000100583,0.0174836,2.23688,5,0.1,14,1.5,-1.03312,1.70412,0.572227,0.190706,-0.0513976,0.0263674,-0.850223,0.0327751,-0.0168309,0.0263507,0.977565,5,0.1,15,1.5,-0.0783474,3.94522,0.554782,-0.835507,0.0707664,0.0273697,0.579115,-0.0150502,0.0050813,0.0089184,2.06167,5,0.1,16,1.5,3.41736,1.02495,0.719014,-0.0466216,0.866026,0.0228584,-0.078842,0,-0.00955164,0.0168252,2.27002,5,0.1,17,1.5,1.54341,1.01975,0.580948,-0.415037,0.313522,0.0180821,0.152148,-0.199832,-0.0115298,0.0267584,0.159736,5,0.1,18,1.5,-1.08079,-1.47569,0.63405,-0.0703257,0.858796,-0.0116199,-0.036329,0.0883117,0.00461936,0.0130769,2.28883,5,0.1,19,1.5,2.58364,3.41984,0.600466,0.11731,-0.682862,-0.000440702,-0.6935,0.433907,0.000320375,0.0103258,0.715764,5,0.1
0,1.6,0.622533,2.40103,0.625621,-0.686048,-0.0173926,-0.0247777,0.427693,0.201941,0.0196397,0.0112982,1.09043,5,0.1,1,1.6,1.2832,1.5199,0.629492,-0.509682,0.171307,-0.0287086,1.04409,0.00578165,0.023365,0.0107392,0.454095,5,0.1,2,1.6,-4.02358,-0.672203,0.567677,0.0603557,-0.866026,0.00264943,-0.0135899,0,-0.000625849,0.0092179,2.26967,5,0.1,3,1.6,-3.30205,-3.26518,0.614413,-0.494039,0.399768,-0.0570968,-0.00274181,-1.00005,0.00676513,0.0117578,2.24757,5,0.1,4,1.6,-1.13708,2.0299,0.602475,0.14995,-0.345063,-0.00188798,-0.0534058,0.422239,0.00450015,0.0168478,0.17105,5,0.1,5,1.6,-1.00452,-2.06618,0.559008,0.160287,0.866026,0.011605,0.094533,-5.96046e-05,-0.00292063,0.0150355,2.25192,5,0.1,6,1.6,-1.39061,2.37097,0.609269,0.568542,-0.207961,-0.0050202,-0.409186,-0.582576,0.00444055,0.0149378,2.93249,5,0.1,7,1.6,-1.42405,0.122165,0.643033,-0.74985,-0.841318,-0.0188321,0.640273,0.12642,0.00280142,0.00965701,2.28078,5,0.1,8,1.6,3.38084,3.40219,0.618524,-0.660086,-0.522041,-0.0175104,0.966549,0.385046,0.0129342,0.0152826,0.470188,5,0.1,9,1.6,-1.24193,-0.889463,0.615932,-0.861001,-0.390147,-0.0179753,0.100553,0.18242,0.00843406,0.0117588,0.969374,5,0.1,10,1.6,1.25055,3.36501,0.575846,0.866026,-0.222999,0.0147209,0,0.0553131,-0.00354648,0.0124357,2.24176,5,0.1,11,1.6,1.16146,-3.74096,0.607334,0.243315,0.274915,-0.0528634,-0.0956655,-0.108004,0.0207424,0.00787455,0.0669827,5,0.1,12,1.6,-1.71103,-3.4664,0.592245,0.0593901,0.62983,0.00754744,-0.0483394,-0.280976,-0.00616908,0.010066,0.931318,5,0.1,13,1.6,3.99886,-0.608616,0.586239,-0.232631,0.866026,0.00457913,0.0462532,0,-0.00089407,0.01466,2.23813,5,0.1,14,1.6,-1.01782,1.69916,0.574776,0.120506,-0.0478625,0.0245541,-0.537872,0.0389218,-0.0199974,0.00635238,0.365465,5,0.1,15,1.6,-0.158264,3.95221,0.557537,-0.756143,0.0689745,0.0276357,0.979997,-0.0236034,-0.000983477,0.00962589,1.60721,5,0.1,16,1.6,3.41233,1.11155,0.72125,-0.0533998,0.866026,0.0218213,-0.0536442,0,-0.0119805,0.0148156,1.97485,5,0.1,17,1.6,1.50276,1.05005,0.582696,-0.396594,0.291973,0.0168398,0.226796,-0.237405,-0.0137091,0.0263727,0.106527,5,0.1,18,1.6,-1.08791,-1.38939,0.632914,-0.0711262,0.865683,-0.0110745,0.0184178,0.00685453,0.00652671,0.011869,2.27446,5,0.1,19,1.6,2.59234,3.35382,0.600424,0.0614583,-0.636047,-0.000406802,-0.415683,0.516176,0.000357628,0.00936065,0.604042,5,0.1
0,1.7,0.555645,2.40025,0.623237,-0.65487,0.000810996,-0.0229337,0.236809,0.140026,0.0179224,0.0112982,1.09043,5,0.1,1,1.7,1.23731,1.5371,0.626733,-0.411087,0.172726,-0.0265183,0.871144,0.0133216,0.0212193,0.0107392,0.454095,5,0.1,2,1.7,-4.0176,-0.758806,0.567939,0.0595547,-0.866026,0.00261171,-0.00575185,3.72529e-06,-0.000271946,0.0092179,2.26967,5,0.1,3,1.7,-3.3515,-3.22973,0.608731,-0.494701,0.316293,-0.0565305,0.01131,-0.58651,0.0069961,0.0117578,2.24757,5,0.1,4,1.7,-1.12235,1.99753,0.602312,0.144499,-0.302067,-0.0013398,-0.0601485,0.437178,0.00618398,0.0168478,0.17105,5,0.1,5,1.7,-0.987987,-1.97957,0.560158,0.170395,0.866025,0.0114344,0.0963621,1.49012e-05,-0.00115484,0.0150355,2.25192,5,0.1,6,1.7,-1.33563,2.34753,0.60879,0.532243,-0.257852,-0.00456348,-0.337869,-0.40631,0.00473112,0.0149378,2.93249,5,0.1,7,1.7,-1.49511,0.038318,0.641156,-0.66502,-0.837778,-0.0187552,1.01954,-0.00393972,-0.000111759,0.00965701,2.28078,5,0.1,8,1.7,3.32006,3.35182,0.616835,-0.552926,-0.485814,-0.0162938,1.12601,0.354171,0.0118874,0.0152826,0.470188,5,0.1,9,1.7,-1.32777,-0.927616,0.614175,-0.857124,-0.373056,-0.0171855,0.023827,0.172555,0.00796467,0.0117588,0.969374,5,0.1,10,1.7,1.33715,3.34291,0.577306,0.866026,-0.219498,0.0144998,0,0.0268519,-0.00167638,0.0124357,2.24176,5,0.1,11,1.7,1.18538,-3.71394,0.602138,0.235253,0.265815,-0.0511152,-0.076212,-0.0860095,0.0165291,0.00787455,0.0669827,5,0.1,12,1.7,-1.70532,-3.40546,0.59297,0.0548596,0.583021,0.00696965,-0.0438914,-0.629932,-0.00558794,0.010066,0.931318,5,0.1,13,1.7,3.97574,-0.522014,0.586694,-0.230307,0.866026,0.00453489,0.0136793,-3.57628e-06,-0.000257045,0.01466,2.23813,5,0.1,14,1.7,-1.00794,1.69375,0.577028,0.0816472,-0.0669848,0.0196231,-0.260353,-0.369087,-0.0724606,0.00635238,0.365465,5,0.1,15,1.7,-0.228412,3.95901,0.5603,-0.642065,0.0670653,0.0276335,1.26597,-0.0177175,-0.000409782,0.00962589,1.60721,5,0.1,16,1.7,3.40673,1.19815,0.723379,-0.0586547,0.866026,0.0207981,-0.0477135,0,-0.00941008,0.0148156,1.97485,5,0.1,17,1.7,1.46418,1.07812,0.584315,-0.37522,0.269717,0.0155549,0.21302,-0.215702,-0.0124499,0.0263727,0.106527,5,0.1,18,1.7,-1.09522,-1.3028,0.631829,-0.077438,0.866004,-0.0107086,-0.124127,0.000856817,0.00168756,0.011869,2.27446,5,0.1,19,1.7,2.59682,3.29267,0.600385,0.0329129,-0.587654,-0.000374019,-0.131339,0.469103,0.000312924,0.00936065,0.604042,5,0.1
0,1.8,0.491302,2.4008,0.621035,-0.631617,0.00759959,-0.0210792,0.257999,-0.0122786,0.0196397,0.0100664,0.908584,5,0.1,1,1.8,1.2,1.55439,0.624188,-0.340593,0.172397,-0.0243321,0.543892,-0.0264049,0.0230372,0.0109722,0.372719,5,0.1,2,1.8,-4.01168,-0.845409,0.568199,0.058639,-0.866026,0.00256896,-0.0152588,0,-0.000685453,0.0109396,2.26981,5,0.1,3,1.8,-3.40074,-3.2,0.60313,-0.48812,0.288224,-0.0552878,0.135064,-0.000238419,0.0195205,0.009925,1.88004,5,0.1,4,1.8,-1.10824,1.96953,0.60221,0.137174,-0.257781,-0.000701845,-0.0892878,0.447512,0.0063777,0.00754018,0.258266,5,0.1,5,1.8,-0.970539,-1.89297,0.561294,0.177649,0.866026,0.0112593,0.040859,-5.96046e-05,-0.00283122,0.0116803,2.24981,5,0.1,6,1.8,-1.28412,2.32007,0.608358,0.49738,-0.287843,-0.00406802,-0.374138,-0.189066,0.00524521,0.0124304,1.91754,5,0.1,7,1.8,-1.55614,-0.0453478,0.639282,-0.552636,-0.833265,-0.0186548,1.19805,0.130922,0.00289083,0.00910939,2.57817,5,0.1,8,1.8,3.27034,3.30506,0.615266,-0.442952,-0.44874,-0.0150487,1.04356,0.397325,0.0132918,0.0160026,0.396208,5,0.1,9,1.8,-1.41318,-0.963987,0.612499,-0.848266,-0.35343,-0.016281,0.186086,0.228852,0.0105798,0.00782492,0.687758,5,0.1,10,1.8,1.42376,3.32112,0.578745,0.866026,-0.21556,0.014247,0,0.0606775,-0.0039041,0.0124483,1.98235,5,0.1,11,1.8,1.20848,-3.68783,0.597118,0.226271,0.255674,-0.0491649,-0.110805,-0.125051,0.0240207,0.0109106,0.0508118,5,0.1,12,1.8,-1.70006,-3.35071,0.593639,0.0503391,0.508523,0.00639409,-0.0476837,-0.838637,-0.00607967,0.00702613,1.89654,5,0.1,13,1.8,3.95281,-0.435411,0.587145,-0.227594,0.866025,0.00448227,0.0498295,1.43051e-05,-0.000983477,0.0191277,2.23955,5,0.1,14,1.8,-1.00077,1.68489,0.578583,0.0646278,-0.112405,0.0111625,-0.0970662,-0.498891,-0.0918806,0.00571805,0.273721,5,0.1,15,1.8,-0.286061,3.96562,0.563053,-0.509392,0.0648916,0.0273272,1.35866,-0.027895,-0.00670552,0.00806483,0.935908,5,0.1,16,1.8,3.40066,1.28476,0.725409,-0.0623167,0.866026,0.0197828,-0.022769,0,-0.0115633,0.0165329,1.58359,5,0.1,17,1.8,1.42778,1.104,0.585807,-0.351921,0.247493,0.0142723,0.261247,-0.234246,-0.0135005,0.0230617,0.267582,5,0.1,18,1.8,-1.10368,-1.2162,0.630764,-0.0923276,0.866026,-0.0105828,-0.158012,-5.96046e-05,0.00154972,0.0135596,2.28244,5,0.1,19,1.8,2.6,3.23629,0.600349,0.0357687,-0.539309,-0.000342727,0.17035,0.509739,0.000357628,0.00630657,0.428295,5,0.1
0,1.9,0.42919,2.4013,0.61902,-0.612207,-0.000301376,-0.0192577,0.162756,-0.176981,0.0173599,0.0100664,0.908584,5,0.1,1,1.9,1.16798,1.57152,0.621864,-0.305524,0.170221,-0.0221982,0.197284,-0.0245944,0.0203066,0.0109722,0.372719,5,0.1,2,1.9,-4.00587,-0.932011,0.568453,0.0576958,-0.866026,0.00252621,-0.00685453,0,-0.000309199,0.0109396,2.26981,5,0.1,3,1.9,-3.44892,-3.17,0.597693,-0.475289,0.321467,-0.0534629,0.139311,0.578985,0.0189655,0.009925,1.88004,5,0.1,4,1.9,-1.09482,1.94559,0.60216,0.132355,-0.224528,-0.000395533,-0.0192821,0.239894,0.00031665,0.00754018,0.258266,5,0.1,5,1.9,-0.952527,-1.80637,0.562411,0.18272,0.866025,0.0111016,0.0495613,1.49012e-05,-0.000987202,0.0116803,2.24981,5,0.1,6,1.9,-1.23598,2.2906,0.607975,0.467606,-0.298939,-0.00360114,-0.247262,-0.031963,0.00422075,0.0124304,1.91754,5,0.1,7,1.9,-1.60517,-0.128369,0.637424,-0.426702,-0.829339,-0.0185702,1.27908,-0.00105783,-4.47035e-05,0.00910939,2.57817,5,0.1,8,1.9,3.23104,3.26207,0.613824,-0.346615,-0.411809,-0.013813,0.836581,0.353679,0.011839,0.0160026,0.396208,5,0.1,9,1.9,-1.49722,-0.998246,0.610921,-0.833143,-0.332056,-0.0152935,0.153944,0.209536,0.00967458,0.00782492,0.687758,5,0.1,10,1.9,1.51036,3.29981,0.580154,0.866026,-0.211082,0.0139601,0,0.0395626,-0.00253692,0.0124483,1.98235,5,0.1,11,1.9,1.23063,-3.6628,0.592305,0.217239,0.245483,-0.0472064,-0.0809133,-0.0913143,0.0175498,0.0109106,0.0508118,5,0.1,12,1.9,-1.69493,-3.30446,0.594225,0.0550933,0.413471,0.00512982,0.121027,-1.01888,-0.0178181,0.00702613,1.89654,5,0.1,13,1.9,3.93021,-0.348809,0.58759,-0.225,0.866025,0.00443095,0.0153631,-1.78814e-06,-0.000309199,0.0191277,2.23955,5,0.1,14,1.9,-0.994506,1.6709,0.579221,0.0629609,-0.169133,0.00147466,0.046134,-0.599332,-0.0982434,0.00571805,0.273721,5,0.1,15,1.9,-0.330251,3.97198,0.565756,-0.375419,0.0624236,0.0267253,1.29875,-0.0240356,-0.00641868,0.00806483,0.935908,5,0.1,16,1.9,3.39432,1.37124,0.727335,-0.06442,0.861759,0.0187563,-0.0163019,-0.112422,-0.00971556,0.0165329,1.58359,5,0.1,17,1.9,1.39352,1.12764,0.58717,-0.336422,0.225791,0.0130215,0.078775,-0.206523,-0.0119023,0.0230617,0.267582,5,0.1,18,1.9,-1.11341,-1.1296,0.629708,-0.0997785,0.866025,-0.0105838,-0.000581145,1.49012e-05,-0.00083074,0.0135596,2.28244,5,0.1,19,1.9,2.60498,3.18493,0.600317,0.0683583,-0.487635,-0.000310224,0.439882,0.528544,0.000301749,0.00630657,0.428295,5,0.1
0,2,0.368844,2.4,0.617181,-0.593501,-0.029397,-0.0175089,0.234439,-0.389576,0.0179708,0.0124344,0.726743,5,0.1,1,2,1.13811,1.58837,0.619746,-0.294089,0.166225,-0.0201583,0.0618696,-0.0604391,0.0209212,0.0121574,0.288371,5,0.1,2,2,-4.00014,-1.01861,0.568704,0.0566959,-0.866026,0.00248253,-0.0151396,0,-0.000685453,0.00745685,2.26995,5,0.1,3,2,-3.49562,-3.13458,0.592454,-0.457293,0.388849,-0.0511616,0.232816,0.702858,0.0284016,0.00873661,1.48763,5,0.1,4,2,-1.08165,1.92415,0.602116,0.131196,-0.205851,-0.000536442,-0.0129938,0.15074,-0.00271201,0.00795677,0.256522,5,0.1,5,2,-0.934067,-1.71977,0.563515,0.185691,0.866026,0.0109479,0.00223517,0,-0.0025332,0.013816,2.24981,5,0.1,6,2,-1.19042,2.26081,0.607635,0.443459,-0.29425,-0.00320077,-0.254571,0.124812,0.0038743,0.00895052,1.27042,5,0.1,7,2,-1.64159,-0.211182,0.635569,-0.303796,-0.824692,-0.0184685,1.15079,0.13049,0.00295043,0.00968695,2.7898,5,0.1,8,2,3.2,3.22267,0.612503,-0.279635,-0.375921,-0.0126109,0.509381,0.372648,0.0124872,0.0171443,0.317457,5,0.1,9,2,-1.57957,-1.03036,0.609442,-0.811136,-0.309691,-0.0142619,0.31215,0.245214,0.0112951,0.00845783,0.476096,5,0.1,10,2,1.59696,3.27894,0.581535,0.866026,-0.205833,0.0136197,0,0.0730753,-0.00476837,0.0161203,1.61555,5,0.1,11,2,1.25193,-3.63874,0.587677,0.208211,0.235289,-0.0452459,-0.107408,-0.121236,0.0233054,0.00777026,0.0226515,5,0.1,12,2,-1.68868,-3.26822,0.594639,0.0706881,0.31212,0.00307709,0.174105,-0.977755,-0.0221133,0.00824453,1.82293,5,0.1,13,2,3.90782,-0.262206,0.588031,-0.222248,0.866025,0.00437647,0.0492334,0,-0.000953674,0.0153163,2.24094,5,0.1,14,2,-0.987862,1.65107,0.578891,0.0707373,-0.225982,-0.00785738,0.0958145,-0.51111,-0.0857413,0.00614527,0.215777,5,0.1,15,2,-0.361547,3.97809,0.56839,-0.253375,0.0596523,0.025861,1.1269,-0.033021,-0.0116527,0.0090033,0.666594,5,0.1,16,2,3.38782,1.45649,0.72916,-0.0650823,0.839111,0.017713,0.005126,-0.357747,-0.0117123,0.0159478,1.50275,5,0.1,17,2,1.36017,1.14919,0.588413,-0.330922,0.205049,0.0118256,0.0537038,-0.212967,-0.0122488,0.0258382,0.0800035,5,0.1,18,2,-1.1232,-1.043,0.628646,-0.09422,0.866026,-0.0106201,0.103593,-2.98023e-05,0.000655651,0.0118513,2.27248,5,0.1,19,2,2.61418,3.13887,0.600287,0.116408,-0.432879,-0.000280142,0.489354,0.569224,0.000268221,0.00766498,0.338914,5,0.1
0,2.1,0.310514,2.39466,0.615515,-0.573944,-0.0809569,-0.0158569,0.182843,-0.599816,0.0155494,0.0124344,0.726743,5,0.1,1,2.1,1.10868,1.60471,0.617828,-0.29703,0.160633,-0.0182374,-0.0899732,-0.0574812,0.018049,0.0121574,0.288371,5,0.1,2,2.1,-3.99453,-1.10522,0.56895,0.0557557,-0.866026,0.00243951,-0.00682473,0,-0.000312924,0.00745685,2.26995,5,0.1,3,2.1,-3.54024,-3.09173,0.587472,-0.435294,0.471058,-0.0484996,0.221834,0.875771,0.0264794,0.00873661,1.48763,5,0.1,4,2.1,-1.06858,1.90386,0.602042,0.130092,-0.203557,-0.00101039,-0.0147223,-0.072293,-0.00619516,0.00795677,0.256522,5,0.1,5,2.1,-0.915444,-1.63316,0.564601,0.186931,0.866026,0.0107989,0.0123978,0,-0.00105798,0.013816,2.24981,5,0.1,6,2.1,-1.14769,2.23192,0.607332,0.407968,-0.284117,-0.00288989,-0.443466,0.0914633,0.00252575,0.00895052,1.27042,5,0.1,7,2.1,-1.6664,-0.293324,0.63373,-0.195719,-0.820131,-0.0183637,0.960723,0.0102229,0.000249594,0.00968695,2.7898,5,0.1,8,2.1,3.17395,3.18683,0.6113,-0.246923,-0.341604,-0.0114609,0.180781,0.324085,0.0108629,0.0171443,0.317457,5,0.1,9,2.1,-1.65924,-1.06017,0.608069,-0.782771,-0.286938,-0.0132142,0.28567,0.218943,0.0100806,0.00845783,0.476096,5,0.1,10,2.1,1.68356,3.25852,0.582876,0.865904,-0.203992,0.0132091,-0.00488013,-0.0177622,-0.00400841,0.0161203,1.61555,5,0.1,11,2.1,1.27222,-3.61581,0.583268,0.197486,0.223181,-0.0429177,-0.112794,-0.12736,0.0244938,0.00777026,0.0226515,5,0.1,12,2.1,-1.68061,-3.24183,0.594828,0.0916515,0.217516,0.000666268,0.228673,-0.862673,-0.0250787,0.00824453,1.82293,5,0.1,13,2.1,3.88575,-0.175604,0.588466,-0.219722,0.866025,0.00432795,0.0144243,1.19209e-06,-0.000271946,0.0153163,2.24094,5,0.1,14,2.1,-0.980217,1.62587,0.577685,0.0827799,-0.27776,-0.0161173,0.133395,-0.496686,-0.077039,0.00614527,0.215777,5,0.1,15,2.1,-0.381648,3.9839,0.570921,-0.152769,0.0566363,0.0247753,0.879833,-0.0293851,-0.0109561,0.0090033,0.666594,5,0.1,16,2.1,3.38134,1.53763,0.730877,-0.0644952,0.774776,0.0166523,0.0090301,-0.887714,-0.0101142,0.0159478,1.50275,5,0.1,17,2.1,1.32763,1.16878,0.589543,-0.317251,0.188195,0.0108564,0.21366,-0.135876,-0.00781566,0.0258382,0.0800035,5,0.1,18,2.1,-1.13243,-0.956393,0.627581,-0.0932202,0.866025,-0.0107265,-0.0621527,3.72529e-06,-0.00197068,0.0118513,2.27248,5,0.1,19,2.1,2.62846,3.09835,0.60026,0.170177,-0.378202,-0.000255369,0.554606,0.529215,0.000230968,0.00766498,0.338914,5,0.1
0,2.2,0.254123,2.3835,0.614006,-0.552497,-0.142038,-0.0143185,0.264324,-0.589967,0.0156164,0.0113628,0.556376,5,0.1,1,2.2,1.07849,1.62045,0.616094,-0.306743,0.153708,-0.0164524,-0.0815392,-0.0850558,0.0180304,0.00865447,0.219467,5,0.1,2,2.2,-3.98899,-1.19182,0.569192,0.0547826,-0.866026,0.0023976,-0.014782,0,-0.000685453,0.00932451,2.27008,5,0.1,3,2.2,-3.58258,-3.0404,0.582762,-0.410473,0.552672,-0.0455901,0.284433,0.709057,0.0328124,0.00935442,1.13328,5,0.1,4,2.2,-1.05569,1.883,0.601908,0.127307,-0.214583,-0.00167638,-0.0447631,-0.12362,-0.00667572,0.00917283,0.237322,5,0.1,5,2.2,-0.89674,-1.54656,0.565674,0.186446,0.866026,0.010632,-0.0292361,-5.96046e-05,-0.00274181,0.0143078,2.2503,5,0.1,6,2.2,-1.10934,2.204,0.607055,0.356999,-0.273639,-0.00266433,-0.56535,0.127673,0.00211596,0.00936114,0.781097,5,0.1,7,2.2,-1.68178,-0.375152,0.631898,-0.118673,-0.81419,-0.0182301,0.560045,0.143707,0.00327826,0.0154634,2.81994,5,0.1,8,2.2,3.14986,3.15428,0.610208,-0.237107,-0.30933,-0.0103787,0.0431538,0.328541,0.0110269,0.0164536,0.253279,5,0.1,9,2.2,-1.73593,-1.08775,0.606799,-0.748867,-0.264364,-0.0121742,0.413179,0.238717,0.0109673,0.00763203,0.323989,5,0.1,10,2.2,1.77009,3.23801,0.584174,0.864071,-0.206178,0.0127211,-0.0389814,-0.0122786,-0.00610948,0.0120099,1.22774,5,0.1,11,2.2,1.29135,-3.59418,0.579109,0.184718,0.208759,-0.0401437,-0.146329,-0.165343,0.0318289,0.0116657,0.0133528,5,0.1,12,2.2,-1.67032,-3.22389,0.594771,0.113559,0.146973,-0.00175983,0.197411,-0.525951,-0.0226796,0.00632736,1.68379,5,0.1,13,2.2,3.86388,-0.0890012,0.588897,-0.217116,0.866026,0.00427812,0.0468493,-5.96046e-06,-0.000953674,0.0156106,2.24845,5,0.1,14,2.2,-0.971289,1.59582,0.575719,0.0954017,-0.320604,-0.0228569,0.110507,-0.340879,-0.0561178,0.00862617,0.179622,5,0.1,15,2.2,-0.392966,3.98941,0.573339,-0.0780217,0.0534236,0.0235215,0.61436,-0.036478,-0.014782,0.00773225,0.639467,5,0.1,16,2.2,3.37496,1.61007,0.73249,-0.0628769,0.669152,0.0155851,0.025034,-1.19019,-0.0116527,0.0143231,2.74395,5,0.1,17,2.2,1.29719,1.18697,0.590593,-0.289404,0.175828,0.0101462,0.337303,-0.120163,-0.00694394,0.0295361,0.216242,5,0.1,18,2.2,-1.1422,-0.869791,0.6265,-0.102857,0.866026,-0.0108764,-0.114202,0,-0.00038743,0.00995411,2.26261,5,0.1,19,2.2,2.64814,3.06314,0.600236,0.221896,-0.326222,-0.000232458,0.457168,0.513434,0.000208616,0.00923599,0.345754,5,0.1
0,2.3,0.200081,2.36622,0.612647,-0.52895,-0.204023,-0.0128942,0.227852,-0.6181,0.0132769,0.0113628,0.556376,5,0.1,1,2.3,1.04726,1.63539,0.614533,-0.318637,0.144892,-0.0148088,-0.132456,-0.0943244,0.0153109,0.00865447,0.219467,5,0.1,2,2.3,-3.98357,-1.27842,0.569429,0.0538599,-0.866026,0.0023542,-0.00675023,0,-0.000320375,0.00932451,2.27008,5,0.1,3,2.3,-3.62228,-2.98148,0.578359,-0.383848,0.625564,-0.0425331,0.260279,0.698164,0.0296906,0.00935442,1.13328,5,0.1,4,2.3,-1.04331,1.86056,0.601702,0.119113,-0.23668,-0.00246475,-0.114806,-0.283316,-0.00852719,0.00917283,0.237322,5,0.1,5,2.3,-0.878183,-1.45996,0.566728,0.185028,0.866025,0.010471,-0.00940636,1.49012e-05,-0.00108778,0.0143078,2.2503,5,0.1,6,2.3,-1.07664,2.17704,0.606796,0.295726,-0.267162,-0.00253171,-0.646316,0.0232905,0.000759959,0.00936114,0.781097,5,0.1,7,2.3,-1.69142,-0.456138,0.630085,-0.0816155,-0.807206,-0.0180689,0.114352,0.0421314,0.000979751,0.0154634,2.81994,5,0.1,8,2.3,3.12634,3.12498,0.609224,-0.233264,-0.276587,-0.00932086,0.0433922,0.329033,0.0103116,0.0164536,0.253279,5,0.1,9,2.3,-1.80888,-1.11307,0.605633,-0.710601,-0.242362,-0.0111633,0.37723,0.208966,0.00960007,0.00763203,0.323989,5,0.1,10,2.3,1.85647,3.21723,0.585418,0.864479,-0.209812,0.0121657,0.0109896,-0.0459701,-0.00546128,0.0120099,1.22774,5,0.1,11,2.3,1.30911,-3.57412,0.575251,0.170343,0.192516,-0.0370171,-0.145614,-0.164539,0.0316724,0.0116657,0.0133528,5,0.1,12,2.3,-1.65795,-3.21132,0.594482,0.133972,0.111126,-0.00401204,0.198223,-0.132322,-0.0215955,0.00632736,1.68379,5,0.1,13,2.3,3.84232,-0.00239861,0.58952,-0.214733,0.866025,0.00986364,0.0136048,-1.49012e-07,0.0998899,0.0156106,2.24845,5,0.1,14,2.3,-0.961202,1.56204,0.573159,0.106106,-0.35455,-0.0282173,0.0966899,-0.313595,-0.0488497,0.00862617,0.179622,5,0.1,15,2.3,-0.398032,3.99458,0.575621,-0.0270271,0.0500672,0.0221436,0.391932,-0.0323653,-0.0135191,0.00773225,0.639467,5,0.1,16,2.3,3.36864,1.67053,0.733994,-0.0648845,0.536521,0.0145215,-0.0533313,-1.40561,-0.0101291,0.0143231,2.74395,5,0.1,17,2.3,1.27017,1.20395,0.591573,-0.249233,0.163694,0.0094451,0.453115,-0.125796,-0.00726432,0.0295361,0.216242,5,0.1,18,2.3,-1.15322,-0.783188,0.625405,-0.118777,0.866026,-0.0110489,-0.18619,-3.72529e-06,-0.00229105,0.00995411,2.26261,5,0.1,19,2.3,2.67239,3.03289,0.600525,0.260606,-0.280606,0.00863364,0.308484,0.408843,0.157464,0.00923599,0.345754,5,0.1
0,2.4,0.148406,2.34289,0.611423,-0.503341,-0.260228,-0.0115931,0.298943,-0.483155,0.0130236,0.00954529,0.409521,5,0.1,1,2.4,1.01481,1.64937,0.613127,-0.32914,0.134346,-0.0133112,-0.0606477,-0.118375,0.0149906,0.0100462,0.156367,5,0.1,2,2.4,-3.97822,-1.36502,0.569663,0.052911,-0.866026,0.00231266,-0.0145435,0,-0.000685453,0.0100523,2.09654,5,0.1,3,2.4,-3.65932,-2.91579,0.574258,-0.356364,0.683713,-0.039421,0.297546,0.42963,0.0334382,0.00737554,0.822457,5,0.1,4,2.4,-1.03206,1.83545,0.601414,0.105155,-0.265157,-0.00328571,-0.160515,-0.260234,-0.00745058,0.00751315,0.210012,5,0.1,5,2.4,-0.859763,-1.37336,0.567768,0.182815,0.866026,0.0103101,-0.0420809,0,-0.0025928,0.0137285,2.25126,5,0.1,6,2.4,-1.05033,2.15042,0.606546,0.230217,-0.26527,-0.00247359,-0.65285,0.0303984,0.000536442,0.00882015,0.422844,5,0.1,7,2.4,-1.7,-0.536506,0.628286,-0.0993848,-0.797887,-0.0178576,-0.438869,0.176877,0.00396371,0.00907712,2.68836,5,0.1,8,2.4,3.10329,3.09899,0.608343,-0.226808,-0.243104,-0.00828505,0.092268,0.34225,0.0104904,0.0166703,0.243713,5,0.1,9,2.4,-1.87794,-1.13626,0.604565,-0.669202,-0.221282,-0.0101939,0.467837,0.217915,0.0100136,0.00731965,0.218292,5,0.1,10,2.4,1.94283,3.19606,0.586605,0.860661,-0.212896,0.0115499,-0.107408,-0.00548363,-0.00715256,0.0102904,0.903034,5,0.1,11,2.4,1.32539,-3.55572,0.571714,0.154889,0.175053,-0.0336558,-0.166178,-0.187874,0.0361502,0.00880502,0.0041553,5,0.1,12,2.4,-1.64364,-3.2,0.59398,0.151047,0.123584,-0.00594705,0.134349,0.353575,-0.0165999,0.0067533,1.44167,5,0.1,13,2.4,3.82094,0.0842039,0.591086,-0.21221,0.866025,0.0219852,0.0458956,0,0.13268,0.0176141,2.24221,5,0.1,14,2.4,-0.950177,1.52522,0.57012,0.113583,-0.379199,-0.0322521,0.0481904,-0.162661,-0.0303686,0.00793605,0.160619,5,0.1,15,2.4,-0.399215,3.99942,0.577765,-0.00109076,0.0466585,0.0206932,0.125855,-0.0371933,-0.0159442,0.00711485,0.832097,5,0.1,16,2.4,3.36183,1.71718,0.735395,-0.071454,0.397655,0.0134751,-0.0690222,-1.33216,-0.0112355,0.0144103,2.20513,5,0.1,17,2.4,1.24761,1.21966,0.592479,-0.201142,0.150135,0.00866205,0.498116,-0.147521,-0.00849366,0.0263001,0.417231,5,0.1,18,2.4,-1.16602,-0.696586,0.624291,-0.13696,0.866026,-0.0112042,-0.164211,0,-0.000208616,0.0101149,2.25377,5,0.1,19,2.4,2.69969,3.00676,0.602302,0.282282,-0.242716,0.0277668,0.120282,0.356555,0.209868,0.0109917,0.419372,5,0.1
0,2.5,0.0994652,2.31447,0.610325,-0.476047,-0.307562,-0.0104126,0.264343,-0.439152,0.01093,0.00954529,0.409521,5,0.1,1,2.5,0.981532,1.6621,0.611866,-0.336547,0.119316,-0.0119531,-0.0686683,-0.176981,0.0125654,0.0100462,0.156367,5,0.1,2,2.5,-3.97299,-1.45163,0.569891,0.0519112,-0.866026,0.00226535,-0.00822544,0,-0.00037998,0.0100523,2.09654,5,0.1,3,2.5,-3.69355,-2.84528,0.570474,-0.328752,0.725356,-0.036327,0.264913,0.363469,0.0295863,0.00737554,0.822457,5,0.1,4,2.5,-1.0224,1.80741,0.601045,0.0874255,-0.29704,-0.00410732,-0.189558,-0.344515,-0.00842661,0.00751315,0.210012,5,0.1,5,2.5,-0.841624,-1.28675,0.56879,0.18038,0.866026,0.0101659,-0.0169314,0,-0.000905246,0.0137285,2.25126,5,0.1,6,2.5,-1.0305,2.12377,0.606299,0.167396,-0.269732,-0.00249464,-0.596598,-0.092715,-0.000707805,0.00882015,0.422844,5,0.1,7,2.5,-1.7129,-0.615227,0.626521,-0.16453,-0.774304,-0.0174237,-0.798441,0.30968,0.00526011,0.00907712,2.68836,5,0.1,8,2.5,3.0813,3.07652,0.60754,-0.211133,-0.205209,-0.00800919,0.213504,0.406712,-0.003241,0.0166703,0.243713,5,0.1,9,2.5,-1.94266,-1.15736,0.603593,-0.625846,-0.201321,-0.00927635,0.420086,0.187702,0.00863522,0.00731965,0.218292,5,0.1,10,2.5,2.02859,3.1747,0.587727,0.855594,-0.214467,0.0108906,-0.0394434,-0.0144988,-0.00641122,0.0102904,0.903034,5,0.1,11,2.5,1.34004,-3.53916,0.568529,0.138179,0.156162,-0.0300215,-0.169404,-0.19148,0.0368394,0.00880502,0.0041553,5,0.1,12,2.5,-1.62787,-3.18491,0.593304,0.164112,0.185947,-0.00751913,0.117078,0.817046,-0.014253,0.0067533,1.44167,5,0.1,13,2.5,3.7998,0.170806,0.593824,-0.211626,0.866025,0.0316242,-0.0178069,8.9407e-07,0.0629574,0.0176141,2.24221,5,0.1,14,2.5,-0.938593,1.48644,0.566737,0.117816,-0.396481,-0.0353904,0.0313744,-0.159234,-0.0298098,0.00793605,0.160619,5,0.1,15,2.5,-0.398988,4.00391,0.579759,0.00146055,0.0432387,0.0192138,-0.117907,-0.0326037,-0.0142567,0.00711485,0.832097,5,0.1,16,2.5,3.35428,1.75046,0.73669,-0.0799894,0.271195,0.0124487,-0.0928044,-1.14089,-0.00971928,0.0144103,2.20513,5,0.1,17,2.5,1.22999,1.23402,0.593307,-0.151506,0.13756,0.00793803,0.486314,-0.110455,-0.0063628,0.0263001,0.417231,5,0.1,18,2.5,-1.18062,-0.609983,0.623165,-0.155484,0.866026,-0.0113427,-0.190519,-3.72529e-06,-0.00182167,0.0101149,2.25377,5,0.1,19,2.5,2.72813,2.98415,0.606424,0.282777,-0.210713,0.0569615,-0.100523,0.290364,0.347849,0.0109917,0.419372,5,0.1
0,2.6,0.053241,2.28175,0.609337,-0.447537,-0.343949,-0.00934899,0.317808,-0.271797,0.0105798,0.0080471,0.289377,5,0.1,1,2.6,0.947647,1.67309,0.610732,-0.339685,0.0999123,-0.0107303,0.0189841,-0.206649,0.0121295,0.0119445,0.191694,5,0.1,2,2.6,-3.96784,-1.53823,0.570116,0.0507951,-0.866026,0.0022158,-0.0162125,0,-0.000745058,0.0101457,1.65781,5,0.1,3,2.6,-3.72509,-2.7713,0.56699,-0.301653,0.749737,-0.0333115,0.283957,0.0970364,0.0315309,0.00764086,0.573151,5,0.1,4,2.6,-1.01462,1.77607,0.600594,0.0680566,-0.328398,-0.00487566,-0.194192,-0.258863,-0.00655651,0.00724213,0.18458,5,0.1,5,2.6,-0.823699,-1.20015,0.569801,0.177668,0.866026,0.010027,-0.0445247,0,-0.00235438,0.0141759,2.2529,5,0.1,6,2.6,-1.0166,2.09631,0.606045,0.112063,-0.279152,-0.00257045,-0.505388,-0.0756979,-0.000625849,0.00928087,0.19717,5,0.1,7,2.6,-1.73349,-0.690793,0.62481,-0.247556,-0.73362,-0.0167161,-0.81259,0.512421,0.00923872,0.00966738,2.39748,5,0.1,8,2.6,3.0614,3.05808,0.606712,-0.185561,-0.16337,-0.00862628,0.29099,0.422478,-0.00780821,0.0171313,0.235355,5,0.1,9,2.6,-2.00308,-1.17656,0.602708,-0.581688,-0.182652,-0.00841916,0.477552,0.18996,0.00879169,0.00840095,0.146457,5,0.1,10,2.6,2.11376,3.15325,0.588782,0.845051,-0.213856,0.0102028,-0.203371,0.0346899,-0.00759959,0.014982,0.652375,5,0.1,11,2.6,1.353,-3.52451,0.565714,0.12081,0.13653,-0.0262454,-0.178516,-0.201821,0.0388324,0.00680818,0.00128674,5,0.1,12,2.6,-1.61097,-3.16198,0.592489,0.172803,0.273508,-0.0086993,0.0499487,0.875831,-0.00891089,0.00790171,1.16072,5,0.1,13,2.6,3.77856,0.257409,0.597206,-0.212944,0.866025,0.035125,0.00333786,1.43051e-05,0.00965595,0.0161645,2.24043,5,0.1,14,2.6,-0.926716,1.44616,0.563067,0.119013,-0.407034,-0.0377759,-0.0107884,-0.0354648,-0.0160336,0.0063217,0.153176,5,0.1,15,2.6,-0.4,4.00807,0.581608,-0.0270434,0.0398874,0.0177383,-0.432819,-0.0355244,-0.015676,0.00634576,0.978526,5,0.1,16,2.6,3.34584,1.77253,0.737886,-0.0884891,0.177428,0.0114605,-0.0706911,-0.711024,-0.0103414,0.0142946,2.05058,5,0.1,17,2.6,1.21719,1.24724,0.59407,-0.105298,0.126925,0.00732541,0.431895,-0.106871,-0.00616908,0.0256455,0.413014,5,0.1,18,2.6,-1.19706,-0.523381,0.622024,-0.172362,0.866026,-0.0114411,-0.135779,0,0.000357628,0.0125972,2.24678,5,0.1,19,2.6,2.75561,2.96446,0.61391,0.264078,-0.183445,0.0927418,-0.264287,0.260115,0.348032,0.00668272,0.580255,5,0.1
0,2.7,0.00997824,2.24604,0.608451,-0.41833,-0.369287,-0.00839448,0.280702,-0.215769,0.00879541,0.0080471,0.289377,5,0.1,1,2.7,0.91347,1.68198,0.60971,-0.346048,0.0774425,-0.00978457,-0.113878,-0.236258,0.00744686,0.0119445,0.191694,5,0.1,2,2.7,-3.96288,-1.62483,0.570336,0.0482872,-0.865732,0.00219978,-0.0335872,0.0117421,0.000223517,0.0101457,1.65781,5,0.1,3,2.7,-3.75392,-2.69586,0.563807,-0.275501,0.758154,-0.0304135,0.247642,0.0393689,0.0273846,0.00764086,0.573151,5,0.1,4,2.7,-1.00877,1.74183,0.600072,0.0494177,-0.356794,-0.0055627,-0.176825,-0.281006,-0.0066869,0.00724213,0.18458,5,0.1,5,2.7,-0.806095,-1.11355,0.570796,0.174761,0.866026,0.00988543,-0.0231154,0,-0.00103563,0.0141759,2.2529,5,0.1,6,2.7,-1.00776,2.06786,0.605783,0.0665866,-0.290815,-0.00268864,-0.403836,-0.134245,-0.00148639,0.00928087,0.19717,5,0.1,7,2.7,-1.76225,-0.761397,0.623188,-0.326207,-0.676472,-0.0156952,-0.729591,0.63188,0.0113696,0.00966738,2.39748,5,0.1,8,2.7,3.04429,3.04391,0.60576,-0.156787,-0.119522,-0.0108209,0.283554,0.444114,-0.0323132,0.0171313,0.235355,5,0.1,9,2.7,-2.059,-1.19394,0.601907,-0.537607,-0.165345,-0.00761859,0.42139,0.161521,0.00746548,0.00840095,0.146457,5,0.1,10,2.7,2.1971,3.13213,0.589748,0.819906,-0.207411,0.00897869,-0.317961,0.0955015,-0.0160411,0.014982,0.652375,5,0.1,11,2.7,1.36419,-3.51186,0.563282,0.103141,0.116557,-0.022403,-0.174761,-0.197545,0.037998,0.00680818,0.00128674,5,0.1,12,2.7,-1.59345,-3.12993,0.591577,0.177341,0.369337,-0.00950545,0.0329167,0.982672,-0.00674278,0.00790171,1.16072,5,0.1,13,2.7,3.75717,0.344012,0.60071,-0.215555,0.866025,0.0344327,-0.0401437,-1.78814e-06,-0.0216141,0.0161645,2.24043,5,0.1,14,2.7,-0.914845,1.40517,0.559192,0.118481,-0.413009,-0.039837,-0.0057891,-0.0600666,-0.0220314,0.0063217,0.153176,5,0.1,15,2.7,-0.405662,4.01189,0.583308,-0.0924725,0.0366323,0.0162927,-0.811458,-0.0307858,-0.0137463,0.00634576,0.978526,5,0.1,16,2.7,3.3368,1.78736,0.738983,-0.0906926,0.127412,0.0105166,0.0218302,-0.226758,-0.00888482,0.0142946,2.05058,5,0.1,17,2.7,1.20869,1.25943,0.594774,-0.0662727,0.117271,0.00676801,0.346281,-0.0904575,-0.00521913,0.0256455,0.413014,5,0.1,18,2.7,-1.21503,-0.436778,0.620877,-0.187183,0.866026,-0.0115179,-0.146233,-3.57628e-06,-0.00116974,0.0125972,2.24678,5,0.1,19,2.7,2.77952,2.94747,0.624495,0.20434,-0.15596,0.114996,-0.858605,0.285774,0.109859,0.00668272,0.580255,5,0.1
0,2.8,-0.0304169,2.20825,0.607655,-0.388969,-0.383914,-0.00754297,0.316417,-0.0636578,0.00849366,0.00990074,0.198141,5,0.1,1,2.8,0.878295,1.68854,0.608766,-0.35686,0.0538141,-0.00912547,-0.0787079,-0.231266,0.00619888,0.0122707,0.134932,5,0.1,2,2.8,-3.95824,-1.71125,0.570557,0.0441551,-0.861329,0.00222623,-0.0485182,0.0939369,0.000149012,0.00683252,1.49928,5,0.1,3,2.8,-3.78023,-2.62016,0.560902,-0.250673,0.752294,-0.0276715,0.254989,-0.177979,0.0281036,0.00683399,0.486984,5,0.1,4,2.8,-1.00467,1.70489,0.599486,0.0329882,-0.379825,-0.00613034,-0.150502,-0.15986,-0.00432134,0.00620931,0.16714,5,0.1,5,2.8,-0.788762,-1.02695,0.571777,0.171424,0.866024,0.00972599,-0.0503063,2.98023e-05,-0.0025928,0.01224,2.25408,5,0.1,6,2.8,-1.00295,2.03817,0.605507,0.0312865,-0.301993,-0.00282377,-0.302494,-0.0727177,-0.00104308,0.0128747,0.145214,5,0.1,7,2.8,-1.79817,-0.825682,0.62168,-0.388283,-0.607218,-0.0144124,-0.490844,0.752121,0.0143647,0.0093501,2.08529,5,0.1,8,2.8,3.03,3.03415,0.604501,-0.129038,-0.0763655,-0.0144213,0.270605,0.411034,-0.0368953,0.0208111,0.394204,5,0.1,9,2.8,-2.11063,-1.20968,0.601182,-0.49448,-0.149438,-0.00688285,0.452995,0.160456,0.00739098,0.00800797,0.0982428,5,0.1,10,2.8,2.27719,3.11198,0.590558,0.778514,-0.194609,0.00714809,-0.521183,0.160575,-0.0198781,0.0115994,0.561152,5,0.1,11,2.8,1.37364,-3.50119,0.56123,0.0858933,0.0970602,-0.0186533,-0.169873,-0.191927,0.0368953,0.00735564,0.000764937,5,0.1,12,2.8,-1.57563,-3.0883,0.590599,0.178072,0.460029,-0.00997186,-0.0235438,0.789165,-0.00229478,0.00707915,0.889933,5,0.1,13,2.8,3.73544,0.430614,0.604006,-0.21832,0.866025,0.0311568,-0.00417233,1.43051e-05,-0.0422895,0.0144223,2.24343,5,0.1,14,2.8,-0.903058,1.36369,0.555109,0.116849,-0.414982,-0.0416428,-0.0309944,0.0372529,-0.0117719,0.00774424,0.152463,5,0.1,15,2.8,-0.419155,4.0154,0.584868,-0.178012,0.0335217,0.0149012,-0.850394,-0.0319481,-0.0144243,0.0064989,1.0585,5,0.1,16,2.8,3.32796,1.8,0.739991,-0.085032,0.135058,0.00962317,0.087142,0.347078,-0.00920892,0.0150477,1.08264,5,0.1,17,2.8,1.20363,1.27071,0.595425,-0.036332,0.108111,0.00623912,0.251949,-0.0957251,-0.00551343,0.0263206,0.765713,5,0.1,18,2.8,-1.2344,-0.350176,0.619722,-0.199151,0.866025,-0.0115529,-0.0830293,1.43051e-05,0.00101328,0.012654,2.24222,5,0.1,19,2.8,2.79517,2.93332,0.636238,0.105184,-0.127,0.11711,-1.06823,0.290275,-0.0565052,0.00534239,0.398975,5,0.1
0,2.9,-0.0678277,2.16957,0.60694,-0.3599,-0.389018,-0.00677975,0.276905,-0.0229627,0.00700727,0.00990074,0.198141,5,0.1,1,2.9,0.842151,1.6929,0.60788,-0.366131,0.0345942,-0.00861781,-0.0857785,-0.156745,0.00439212,0.0122707,0.134932,5,0.1,2,2.9,-3.95449,-1.79603,0.570815,0.0273637,-0.826246,0.00320887,-0.261068,0.583984,0.0172593,0.00683252,1.49928,5,0.1,3,2.9,-3.8038,-2.54668,0.558244,-0.218764,0.709304,-0.0257604,0.371322,-0.651866,0.0123829,0.00683399,0.486984,5,0.1,4,2.9,-1.00207,1.66602,0.598849,0.0195269,-0.397845,-0.00660541,-0.118792,-0.174589,-0.00468269,0.00620931,0.16714,5,0.1,5,2.9,-0.771805,-0.940343,0.572741,0.168158,0.866026,0.00956943,-0.0245683,0,-0.00109896,0.01224,2.25408,5,0.1,6,2.9,-1.0012,2.00754,0.605218,0.00479743,-0.310722,-0.00294792,-0.227228,-0.0835061,-0.00124797,0.0128747,0.145214,5,0.1,7,2.9,-1.83921,-0.882621,0.620312,-0.429656,-0.531324,-0.0129289,-0.321537,0.765651,0.0153445,0.0093501,2.08529,5,0.1,8,2.9,3.01805,3.02828,0.602886,-0.113507,-0.0435717,-0.0177607,0.0627935,0.253469,-0.0288785,0.0208111,0.394204,5,0.1,9,2.9,-2.15795,-1.22387,0.600528,-0.452876,-0.134888,-0.00621304,0.393584,0.134997,0.00621378,0.00800797,0.0982428,5,0.1,10,2.9,2.35205,3.09382,0.591097,0.715084,-0.164348,0.00299569,-0.738353,0.416115,-0.0580177,0.0115994,0.561152,5,0.1,11,2.9,1.3814,-3.49242,0.559546,0.0694722,0.0785079,-0.0150868,-0.157967,-0.178471,0.0343062,0.00735564,0.000764937,5,0.1,12,2.9,-1.55794,-3.03831,0.589592,0.175565,0.538883,-0.0101478,-0.0330135,0.743181,-0.000853091,0.00707915,0.889933,5,0.1,13,2.9,3.71357,0.517217,0.606892,-0.219202,0.866026,0.0264108,-0.00311434,-1.93715e-06,-0.0514388,0.0144223,2.24343,5,0.1,14,2.9,-0.891459,1.32224,0.550859,0.115604,-0.414702,-0.0435481,-0.00202656,-0.00745058,-0.0225455,0.00774424,0.152463,5,0.1,15,2.9,-0.441611,4.01861,0.58629,-0.273647,0.030601,0.0135787,-1.00384,-0.0274181,-0.0124499,0.0064989,1.0585,5,0.1,16,2.9,3.31998,1.81604,0.74091,-0.0737902,0.192092,0.00878451,0.132814,0.72711,-0.00785664,0.0150477,1.08264,5,0.1,17,2.9,1.20117,1.2815,0.596021,-0.0139536,0.11165,0.00567455,0.189371,0.135891,-0.0058338,0.0263206,0.765713,5,0.1,18,2.9,-1.25478,-0.263573,0.618567,-0.208639,0.866025,-0.0115654,-0.0930056,0,-0.000555068,0.012654,2.24222,5,0.1,19,2.9,2.80065,2.92206,0.647671,0.00747293,-0.0983685,0.111512,-0.87586,0.279129,-0.0586808,0.00534239,0.398975,5,0.1
0,3,-0.102419,2.13073,0.606296,-0.331567,-0.385946,-0.00610054,0.298023,0.0946522,0.00670552,0.00859293,0.132986,5,0.1,1,3,0.805237,1.69567,0.60704,-0.370479,0.0218034,-0.0081718,0.0133216,-0.102222,0.00485778,0.0108783,0.188269,5,0.1,2,3,-3.95323,-1.8751,0.571235,-0.0033915,-0.749117,0.00527799,-0.333428,0.936568,0.0224411,0.00932974,1.35445,5,0.1,3,3,-3.82371,-2.47959,0.555719,-0.178576,0.627542,-0.0248,0.422716,-0.957131,0.00855327,0.00801334,0.427479,5,0.1,4,3,-1.00066,1.62551,0.598168,0.00919998,-0.410339,-0.00698268,-0.0880361,-0.0572205,-0.00247359,0.00720829,0.158143,5,0.1,5,3,-0.755133,-0.853741,0.573691,0.164881,0.866026,0.00941157,-0.0477433,0,-0.00244379,0.0166514,2.2567,5,0.1,6,3,-1.00174,1.97615,0.604918,-0.0141978,-0.315586,-0.00303835,-0.153124,-0.00113249,-0.000447035,0.0102669,0.218744,5,0.1,7,3,-1.88341,-0.931906,0.619098,-0.450194,-0.454211,-0.0113398,-0.0802875,0.775516,0.0164807,0.0095978,1.84865,5,0.1,8,3,3.00682,3.02499,0.600985,-0.112438,-0.0240862,-0.0200316,-0.0238419,0.143528,-0.0159144,0.018029,0.258288,5,0.1,9,3,-2.20127,-1.2367,0.599937,-0.413305,-0.121677,-0.00560433,0.407934,0.132382,0.00607967,0.00791302,0.114084,5,0.1,10,3,2.41958,3.07969,0.591078,0.632679,-0.116509,-0.00354201,-0.900149,0.518084,-0.068754,0.0117637,0.473445,5,0.1,11,3,1.38758,-3.48543,0.558203,0.0544071,0.0614822,-0.0118151,-0.142992,-0.161529,0.031054,0.0062595,0.000689592,5,0.1,12,3,-1.54061,-2.98108,0.588578,0.170404,0.601101,-0.0100806,-0.0745058,0.470161,0.00244379,0.00762162,0.645562,5,0.1,13,3,3.6917,0.603819,0.609269,-0.217193,0.866026,0.0210866,0.0505447,0,-0.0540912,0.0172338,2.24482,5,0.1,14,3,-0.879915,1.28083,0.546399,0.115044,-0.412351,-0.0454992,-0.0149906,0.0715256,-0.0137985,0.00600422,0.154793,5,0.1,15,3,-0.473853,4.02153,0.587586,-0.368655,0.0278711,0.0123367,-0.853524,-0.0281334,-0.012666,0.00880897,0.421818,5,0.1,16,3,3.31331,1.83906,0.741749,-0.0593483,0.268796,0.00800192,0.151992,0.756502,-0.00798702,0.0159028,0.287901,5,0.1,17,3,1.20058,1.29352,0.596558,0.000655651,0.129873,0.00506341,0.100136,0.20498,-0.0064075,0.0248219,0.707674,5,0.1,18,3,-1.27604,-0.176971,0.61741,-0.21542,0.866025,-0.0115424,-0.033021,0,0.00151992,0.0110514,2.23995,5,0.1,19,3,2.7974,2.91358,0.658504,-0.0683844,-0.0717282,0.104836,-0.635505,0.251174,-0.0769496,0.00623778,0.352756,5,0.1
0,3.1,-0.134177,2.0926,0.605717,-0.304266,-0.376233,-0.00549937,0.257941,0.11228,0.0055097,0.00859293,0.132986,5,0.1,1,3.1,0.768279,1.69741,0.606246,-0.368108,0.0134818,-0.00772756,0.047151,-0.0661761,0.00430644,0.0108783,0.188269,5,0.1,2,3.1,-3.95573,-1.94528,0.571904,-0.0503808,-0.654103,0.00833021,-0.564903,0.961818,0.035841,0.00932974,1.35445,5,0.1,3,3.1,-3.83918,-2.42174,0.553254,-0.128628,0.528434,-0.024719,0.552878,-1.01283,-0.00442564,0.00801334,0.427479,5,0.1,4,3.1,-1.00012,1.58408,0.597455,0.00203308,-0.418838,-0.00730129,-0.0564829,-0.0871643,-0.00335649,0.00720829,0.158143,5,0.1,5,3.1,-0.738827,-0.767138,0.574711,0.161592,0.866026,0.0117297,-0.0267588,-3.72529e-06,0.0427924,0.0166514,2.2567,5,0.1,6,3.1,-1.00368,1.9444,0.604612,-0.0226002,-0.320717,-0.0030891,-0.0247359,-0.0769943,-0.000413507,0.0102669,0.218744,5,0.1,7,3.1,-1.92868,-0.973567,0.618046,-0.453632,-0.380158,-0.00971584,0.0229031,0.707522,0.0160001,0.0095978,1.84865,5,0.1,8,3.1,2.99535,3.02315,0.599233,-0.117841,-0.0141624,-0.0121958,-0.0720024,0.0611693,0.153046,0.018029,0.258288,5,0.1,9,3.1,-2.24089,-1.24831,0.599403,-0.381787,-0.111425,-0.00513364,0.247553,0.0802204,0.00368059,0.00791302,0.114084,5,0.1,10,3.1,2.47861,3.0708,0.590344,0.550328,-0.0601254,-0.0113981,-0.761345,0.587136,-0.0837445,0.0117637,0.473445,5,0.1,11,3.1,1.39233,-3.48006,0.557171,0.0409303,0.0462573,-0.00888845,-0.126012,-0.142351,0.0273623,0.0062595,0.000689592,5,0.1,12,3.1,-1.52393,-2.91867,0.587583,0.163186,0.645686,-0.00982024,-0.0751689,0.386417,0.00307709,0.00762162,0.645562,5,0.1,13,3.1,3.67018,0.690422,0.611108,-0.213486,0.866026,0.0157096,0.0341237,-3.72529e-06,-0.0526644,0.0172338,2.24482,5,0.1,14,3.1,-0.868386,1.2398,0.541746,0.116286,-0.409148,-0.0477895,0.0292696,0.016652,-0.027582,0.00600422,0.154793,5,0.1,15,3.1,-0.514736,4.02419,0.588761,-0.445861,0.0253119,0.0111815,-0.665646,-0.0238717,-0.0107959,0.00880897,0.421818,5,0.1,16,3.1,3.30813,1.86952,0.742512,-0.0441775,0.337763,0.0072768,0.148743,0.60197,-0.00676513,0.0159028,0.287901,5,0.1,17,3.1,1.2011,1.30772,0.597033,0.00880472,0.155418,0.00444548,0.0441074,0.282623,-0.00600889,0.0248219,0.707674,5,0.1,18,3.1,-1.2978,-0.090368,0.616259,-0.220168,0.866025,-0.0115064,-0.0485629,1.49012e-07,-0.000108033,0.0110514,2.23995,5,0.1,19,3.1,2.78778,2.9076,0.668849,-0.12008,-0.0485037,0.104061,-0.40105,0.211611,0.0440925,0.00623778,0.352756,5,0.1
0,3.2,-0.163314,2.05565,0.605194,-0.27829,-0.361383,-0.00496358,0.268519,0.193119,0.00530481,0.00942527,0.151064,5,0.1,1,3.2,0.731847,1.69847,0.605496,-0.358893,0.00820458,-0.00726283,0.145614,-0.0408888,0.00521541,0.0116608,0.156246,5,0.1,2,3.2,-3.96369,-2.00585,0.57292,-0.109076,-0.557214,0.0119627,-0.577807,0.973463,0.0348091,0.00626969,0.754834,5,0.1,3,3.2,-3.84922,-2.37397,0.550755,-0.0721276,0.427198,-0.0252485,0.559211,-1.00183,-0.00435114,0.00839974,0.369158,5,0.1,4,3.2,-1.00016,1.54188,0.59671,-0.00232756,-0.423425,-0.00756234,-0.0317097,0.0132918,-0.00149012,0.00738615,0.155142,5,0.1,5,3.2,-0.722825,-0.680536,0.576131,0.158042,0.866026,0.0169054,-0.0504553,0,0.0560582,0.0162615,2.25937,5,0.1,6,3.2,-1.00592,1.91198,0.604302,-0.0209332,-0.326768,-0.00309497,0.0500679,-0.0263453,0.000417233,0.00809244,0.339633,5,0.1,7,3.2,-1.97369,-1.00815,0.617153,-0.443804,-0.312388,-0.0081405,0.180364,0.649095,0.0154674,0.00871105,1.64993,5,0.1,8,3.2,2.98321,3.02194,0.598924,-0.124717,-0.0107229,0.00708103,-0.0565052,0.0127554,0.21714,0.0184688,0.630824,5,0.1,9,3.2,-2.27793,-1.25909,0.598906,-0.359428,-0.104311,-0.00480711,0.218153,0.0675917,0.00309944,0.00787643,0.0665357,5,0.1,10,3.2,2.52997,3.06769,0.588792,0.477922,-0.00299215,-0.0194862,-0.697494,0.538707,-0.074625,0.0127928,0.42253,5,0.1,11,3.2,1.39583,-3.47611,0.556412,0.0292927,0.0331104,-0.00636131,-0.106514,-0.120401,0.0231266,0.00594739,0.000526282,5,0.1,12,3.2,-1.50802,-2.85255,0.586619,0.154486,0.672513,-0.00941455,-0.102401,0.126362,0.00527501,0.00741542,0.448093,5,0.1,13,3.2,3.64905,0.777024,0.612423,-0.20858,0.866026,0.0106886,0.0714064,0,-0.0471175,0.0192378,2.24708,5,0.1,14,3.2,-0.856609,1.19904,0.536836,0.119071,-0.404912,-0.0502512,0.0187457,0.0852346,-0.0185072,0.00646938,0.157732,5,0.1,15,3.2,-0.562173,4.0266,0.589826,-0.497699,0.0229597,0.0101164,-0.355244,-0.0240803,-0.0107586,0.00681115,0.284035,5,0.1,16,3.2,3.30444,1.90591,0.743207,-0.0300586,0.385767,0.00660717,0.131845,0.344753,-0.00676513,0.0168715,0.158142,5,0.1,17,3.2,1.202,1.32465,0.597448,0.00700057,0.182357,0.00385195,-0.0863075,0.239074,-0.00590086,0.0239132,0.631123,5,0.1,18,3.2,-1.32,-0.0037655,0.61511,-0.222862,0.866025,-0.0114441,0.00417233,-1.19209e-06,0.00181794,0.0111069,2.23939,5,0.1,19,3.2,2.77413,2.90373,0.679557,-0.149238,-0.0296533,0.110598,-0.186086,0.164628,0.0734031,0.00719218,0.298994,5,0.1
0,3.3,-0.190025,2.02025,0.60472,-0.257734,-0.348375,-0.00456171,0.159833,0.0902936,0.00305846,0.00942527,0.151064,5,0.1,1,3.3,0.696719,1.69911,0.604795,-0.343141,0.00466146,-0.00675926,0.177339,-0.0299513,0.00504032,0.0116608,0.156246,5,0.1,2,3.3,-3.9771,-2.05555,0.574293,-0.155278,-0.427299,0.0154955,-0.348672,1.54404,0.0340864,0.00626969,0.754834,5,0.1,3,3.3,-3.85372,-2.33568,0.54821,-0.0189386,0.3439,-0.0256076,0.492752,-0.685543,-0.00164658,0.00839974,0.369158,5,0.1,4,3.3,-1.0005,1.49946,0.595942,-0.00422243,-0.425806,-0.00780718,-0.00791997,-0.0349656,-0.00282004,0.00738615,0.155142,5,0.1,5,3.3,-0.707222,-0.593933,0.578226,0.154331,0.866026,0.0259598,-0.0317656,-3.72529e-06,0.114847,0.0162615,2.25937,5,0.1,6,3.3,-1.00767,1.87893,0.603994,-0.0133229,-0.335944,-0.00305725,0.0956282,-0.128001,0.000465661,0.00809244,0.339633,5,0.1,7,3.3,-2.01722,-1.03638,0.616412,-0.427105,-0.254602,-0.00671363,0.169545,0.514731,0.0131838,0.00871105,1.64993,5,0.1,8,3.3,2.97047,3.02074,0.600479,-0.129917,-0.0150189,0.0218247,-0.0414252,-0.0862479,0.0859313,0.0184688,0.630824,5,0.1,9,3.3,-2.31292,-1.26923,0.598439,-0.34134,-0.0987878,-0.0045537,0.160187,0.0478998,0.0021942,0.00787643,0.0665357,5,0.1,10,3.3,2.57434,3.06969,0.586534,0.410147,0.0393618,-0.0250458,-0.660107,0.316754,-0.0375696,0.0127928,0.42253,5,0.1,11,3.3,1.39825,-3.47337,0.555885,0.0195298,0.0220746,-0.00424143,-0.0884533,-0.0999868,0.0192076,0.00594739,0.000526282,5,0.1,12,3.3,-1.49306,-2.7847,0.585703,0.144794,0.683233,-0.00890214,-0.0958964,0.0598133,0.00523031,0.00741542,0.448093,5,0.1,13,3.3,3.62848,0.863627,0.613264,-0.203235,0.866026,0.00620363,0.0459999,-3.72529e-06,-0.0420175,0.0192378,2.24708,5,0.1,14,3.3,-0.844492,1.15881,0.531689,0.124102,-0.400436,-0.0528552,0.0691228,0.0278652,-0.0291318,0.00646938,0.157732,5,0.1,15,3.3,-0.61355,4.02878,0.590787,-0.527633,0.0207789,0.00913981,-0.223394,-0.0202358,-0.00907481,0.00681115,0.284035,5,0.1,16,3.3,3.30205,1.94613,0.743839,-0.0182174,0.417335,0.00608852,0.104606,0.265434,-0.00401959,0.0168715,0.158142,5,0.1,17,3.3,1.20213,1.34413,0.597805,-0.00677723,0.207411,0.00329921,-0.221305,0.244036,-0.00520423,0.0239132,0.631123,5,0.1,18,3.3,-1.34233,0.082837,0.61397,-0.224205,0.866025,-0.0113795,-0.0178367,7.45058e-07,0.000156462,0.0111069,2.23939,5,0.1,19,3.3,2.75807,2.90151,0.691101,-0.17367,-0.0156581,0.121055,-0.277981,0.115305,0.121016,0.00719218,0.298994,5,0.1
0,3.4,-0.215063,1.98585,0.604277,-0.243327,-0.339314,-0.00429451,0.141032,0.107765,0.0025332,0.0130623,0.0879889,5,0.1,1,3.4,0.663395,1.69944,0.604145,-0.322147,0.00220835,-0.00622571,0.247389,-0.0191927,0.00578165,0.0120798,0.205174,5,0.1,2,3.4,-3.99401,-2.09017,0.576,-0.179434,-0.262779,0.0184804,-0.138044,1.68312,0.0244081,0.00897806,0.389454,5,0.1,3,3.4,-3.85334,-2.30434,0.545653,0.0244975,0.286204,-0.0253841,0.368595,-0.486135,0.00685453,0.00936585,0.308536,5,0.1,4,3.4,-1.00094,1.4568,0.595149,-0.00422597,-0.425997,-0.00802726,0.00649691,0.0494123,-0.00110269,0.00810732,0.155115,5,0.1,5,3.4,-0.69197,-0.507331,0.581424,0.150323,0.866026,0.0380844,-0.0540614,0,0.119925,0.0137694,2.26022,5,0.1,6,3.4,-1.0085,1.84473,0.603692,-0.00296533,-0.347331,-0.00298172,0.106514,-0.0785589,0.00116229,0.00829644,0.833719,5,0.1,7,3.4,-2.059,-1.05944,0.615804,-0.407231,-0.207999,-0.00548363,0.238776,0.423789,0.0114739,0.00844252,1.4895,5,0.1,8,3.4,2.95733,3.01873,0.60293,-0.131989,-0.025773,0.0257745,0.00417233,-0.118971,-5.96046e-05,0.00716511,0.502019,5,0.1,9,3.4,-2.34624,-1.27886,0.597994,-0.324559,-0.0938743,-0.00432879,0.187159,0.0540614,0.0025034,0.00964929,0.0520786,5,0.1,10,3.4,2.61211,3.0749,0.583896,0.345588,0.061959,-0.0272036,-0.632167,0.142932,-0.00661612,0.0102119,0.398729,5,0.1,11,3.4,1.3998,-3.47163,0.55555,0.0116408,0.0131547,-0.00252724,-0.0693202,-0.0782013,0.0150204,0.0112569,0.000303756,5,0.1,12,3.4,-1.47908,-2.71638,0.584841,0.134563,0.679791,-0.00832528,-0.111639,-0.147343,0.00652671,0.00794463,0.301997,5,0.1,13,3.4,3.60841,0.950229,0.613686,-0.197595,0.866026,0.00237972,0.0742674,0,-0.0341237,0.0158034,2.24563,5,0.1,14,3.4,-0.831739,1.11897,0.52627,0.130688,-0.395316,-0.0553161,0.0532866,0.0911355,-0.0169277,0.00789671,0.162427,5,0.1,15,3.4,-0.66708,4.03076,0.591656,-0.539117,0.0187874,0.00825077,0.00628829,-0.0197887,-0.0089407,0.00672837,0.313817,5,0.1,16,3.4,3.3007,1.98892,0.74443,-0.00916719,0.435343,0.00573099,0.0761747,0.0808835,-0.00345707,0.0152334,0.570778,5,0.1,17,3.4,1.2,1.36598,0.59811,-0.0390351,0.228107,0.00279993,-0.409603,0.157356,-0.00476837,0.025254,0.528798,5,0.1,18,3.4,-1.36479,0.16944,0.612835,-0.224182,0.866025,-0.0112936,0.0274777,0,0.00196695,0.0112834,2.23988,5,0.1,19,3.4,2.73932,2.90044,0.703791,-0.200558,-0.00649691,0.132275,-0.241518,0.0686646,0.0928342,0.00607793,0.537872,5,0.1
0,3.5,-0.238783,1.95239,0.603858,-0.231713,-0.330369,-0.00409307,0.102616,0.0862256,0.00171736,0.0130623,0.0879889,5,0.1,1,3.5,0.632372,1.69953,0.603549,-0.298556,-0.000720844,-0.00569588,0.23311,-0.0328571,0.00501052,0.0120798,0.205174,5,0.1,2,3.5,-4.0127,-2.10811,0.578025,-0.194661,-0.0976462,0.0224486,-0.151128,1.58311,0.0499561,0.00897806,0.389454,5,0.1,3,3.5,-3.84953,-2.27754,0.543169,0.0471309,0.254832,-0.0241312,0.102758,-0.176027,0.0177957,0.00936585,0.308536,5,0.1,4,3.5,-1.00131,1.41428,0.594337,-0.00298601,-0.425466,-0.00825673,0.0169501,-0.0123531,-0.00284612,0.00810732,0.155115,5,0.1,5,3.5,-0.676882,-0.420728,0.585706,0.154081,0.866026,0.0463665,0.104256,-3.57628e-06,0.0484884,0.0137694,2.26022,5,0.1,6,3.5,-1.00833,1.80921,0.6034,0.00562724,-0.365858,-0.00286698,0.0671968,-0.251055,0.0012219,0.00829644,0.833719,5,0.1,7,3.5,-2.09865,-1.07833,0.615309,-0.386482,-0.171686,-0.00444194,0.192672,0.311084,0.00945851,0.00844252,1.4895,5,0.1,8,3.5,2.94531,3.01555,0.60551,-0.0985652,-0.0377227,0.0258055,0.595897,-0.114933,-0.000506639,0.00716511,0.502019,5,0.1,9,3.5,-2.3779,-1.28803,0.597572,-0.309743,-0.0896888,-0.00413498,0.126317,0.0348166,0.00161305,0.00964929,0.0520786,5,0.1,10,3.5,2.64363,3.08171,0.581176,0.286171,0.0733502,-0.0268735,-0.558838,0.084132,0.0123754,0.0102119,0.398729,5,0.1,11,3.5,1.40064,-3.47067,0.555367,0.00550654,0.00623241,-0.00119768,-0.0533387,-0.0602305,0.0115708,0.0112569,0.000303756,5,0.1,12,3.5,-1.46615,-2.64913,0.58404,0.12414,0.664669,-0.00770874,-0.100553,-0.178188,0.00602752,0.00794463,0.301997,5,0.1,13,3.5,3.58886,1.03683,0.613763,-0.194651,0.866026,-0.000740774,0.000521541,0,-0.0279322,0.0158034,2.24563,5,0.1,14,3.5,-0.818281,1.07975,0.520739,0.139299,-0.390089,-0.0545182,0.10429,0.0360087,0.0302978,0.00789671,0.162427,5,0.1,15,3.5,-0.72104,4.03255,0.59244,-0.540222,0.0169978,0.00744248,-0.00198558,-0.0165701,-0.00746921,0.00672837,0.313817,5,0.1,16,3.5,3.30012,2.03322,0.744985,-0.00281297,0.453018,0.00537913,0.0516623,0.230305,-0.00369549,0.0152334,0.570778,5,0.1,17,3.5,1.19362,1.38958,0.598367,-0.0917558,0.243559,0.00236174,-0.60384,0.13762,-0.00404939,0.025254,0.528798,5,0.1,18,3.5,-1.38715,0.256042,0.611711,-0.22344,0.866025,-0.0112133,0.000409782,-8.9407e-07,0.000305474,0.0112834,2.23988,5,0.1,19,3.5,2.71901,2.90006,0.717626,-0.197433,-0.00160895,0.145425,0.25931,0.0317246,0.152852,0.00607793,0.537872,5,0.1
0,3.6,-0.261429,1.91984,0.603458,-0.220863,-0.319523,-0.00391454,0.122443,0.141203,0.00199676,0.00905885,0.126755,5,0.1,1,3.6,0.603716,1.69931,0.603005,-0.274085,-0.00332296,-0.00519007,0.261992,-0.0153184,0.0051856,0.0105104,0.295573,5,0.1,2,3.6,-4.03284,-2.11037,0.580528,-0.207055,0.047636,0.0275955,-0.0858307,1.29688,0.049293,0.00828243,0.261233,5,0.1,3,3.6,-3.84462,-2.25266,0.54086,0.0484705,0.244844,-0.0219077,-0.0604391,-0.0506639,0.0262558,0.00780323,0.239676,5,0.1,4,3.6,-1.00151,1.37174,0.593498,-0.00107884,-0.423953,-0.00848472,0.020206,0.0614524,-0.0012815,0.00779069,0.156132,5,0.1,5,3.6,-0.66086,-0.334126,0.590486,0.16679,0.866025,0.0483185,0.131041,1.43051e-05,-0.00682473,0.0139162,2.24743,5,0.1,6,3.6,-1.00748,1.77136,0.60312,0.0108153,-0.390443,-0.00272095,0.0380278,-0.210524,0.00169873,0.0129149,1.33338,5,0.1,7,3.6,-2.1363,-1.09407,0.61491,-0.365895,-0.144252,-0.00357479,0.230312,0.244319,0.00798702,0.00938047,1.35224,5,0.1,8,3.6,2.93895,3.01124,0.608079,-0.0250101,-0.0478923,0.025475,0.82171,-0.0849962,-0.00685453,0.00672564,0.329495,5,0.1,9,3.6,-2.40823,-1.29682,0.597166,-0.296366,-0.0860244,-0.0039652,0.153184,0.0420809,0.00193715,0.0131654,0.0237965,5,0.1,10,3.6,2.66956,3.08937,0.578576,0.233358,0.0787079,-0.0248924,-0.499249,0.0230074,0.0264943,0.0104821,0.349352,5,0.1,11,3.6,1.40095,-3.47032,0.555299,0.000959635,0.00110269,-0.000213087,-0.0375509,-0.0424385,0.00819564,0.00856268,0.000131664,5,0.1,12,3.6,-1.45425,-2.58376,0.583299,0.113824,0.640315,-0.00708103,-0.108242,-0.324011,0.00661612,0.00758096,0.200248,5,0.1,13,3.6,3.56938,1.12343,0.613562,-0.194734,0.866026,-0.0031516,0.00953674,0,-0.0200868,0.0160482,1.96761,5,0.1,14,3.6,-0.803845,1.04098,0.515499,0.149013,-0.384256,-0.049746,0.0792742,0.0966191,0.0627935,0.0261482,0.692809,5,0.1,15,3.6,-0.77491,4.03417,0.593148,-0.535057,0.015378,0.00671297,0.123501,-0.0162125,-0.00730157,0.0102373,2.70335,5,0.1,16,3.6,3.30006,2.07963,0.745504,0.00130534,0.474101,0.00497252,0.0314713,0.160456,-0.00450015,0.0148242,0.953216,5,0.1,17,3.6,1.18138,1.4145,0.598584,-0.152624,0.253266,0.00198036,-0.582695,0.0469089,-0.00354648,0.0247402,0.416336,5,0.1,18,3.6,-1.40945,0.342645,0.610593,-0.221875,0.866025,-0.0111163,0.0399947,1.43051e-05,0.00205636,0.00948921,2.24093,5,0.1,19,3.6,2.70108,2.90002,0.732915,-0.156772,0.000327826,0.159852,0.517726,0.00905991,0.123024,0.00805533,0.376389,5,0.1
0,3.7,-0.283107,1.88858,0.603076,-0.21427,-0.305608,-0.00373153,0.0275709,0.14659,0.00179932,0.00905885,0.126755,5,0.1,1,3.7,0.577669,1.69886,0.602513,-0.24633,-0.00569038,-0.00464981,0.292778,-0.0141859,0.00562891,0.0105104,0.295573,5,0.1,2,3.7,-4.05425,-2.09969,0.583597,-0.223142,0.160149,0.0342467,-0.207484,0.947624,0.0771023,0.00828243,0.261233,5,0.1,3,3.7,-3.84029,-2.22814,0.538805,0.0361275,0.24791,-0.0191377,-0.172541,0.0852197,0.0288971,0.00780323,0.239676,5,0.1,4,3.7,-1.00152,1.32947,0.592638,0.000921823,-0.42261,-0.00875741,0.0192448,-0.0077635,-0.00344962,0.00779069,0.156132,5,0.1,5,3.7,-0.643346,-0.247523,0.595228,0.184717,0.866025,0.0459889,0.205521,0,-0.0379235,0.0139162,2.24743,5,0.1,6,3.7,-1.00634,1.7311,0.602858,0.0110351,-0.415686,-0.00248915,-0.0214428,-0.261761,0.00286475,0.0129149,1.33338,5,0.1,7,3.7,-2.17187,-1.10743,0.614589,-0.346469,-0.12435,-0.00286046,0.174269,0.162005,0.00638515,0.00938047,1.35224,5,0.1,8,3.7,2.94083,3.00593,0.610647,0.0645,-0.0591107,0.0263249,0.92639,-0.128478,0.019554,0.00672564,0.329495,5,0.1,9,3.7,-2.43712,-1.30522,0.596779,-0.281484,-0.081962,-0.00377828,0.153542,0.0419319,0.00192598,0.0131654,0.0237965,5,0.1,10,3.7,2.69089,3.09707,0.576251,0.197528,0.0727907,-0.0213485,-0.242427,-0.127137,0.042595,0.0104821,0.349352,5,0.1,11,3.7,1.40088,-3.4704,0.555314,-0.00218116,-0.00244901,0.00047246,-0.0254363,-0.0287592,0.00554696,0.00856268,0.000131664,5,0.1,12,3.7,-1.44338,-2.52129,0.582623,0.10382,0.609079,-0.00646468,-0.09498,-0.319898,0.00589341,0.00758096,0.200248,5,0.1,13,3.7,3.54996,1.21004,0.613151,-0.19363,0.866026,-0.00499599,0.0201315,0,-0.0163838,0.0160482,1.96761,5,0.1,14,3.7,-0.787985,1.00386,0.510882,0.172679,-0.351058,-0.0422202,0.350233,0.528146,0.0849888,0.0261482,0.692809,5,0.1,15,3.7,-0.829173,4.03536,0.593751,-0.561283,0.0063166,0.00510272,-0.543665,-0.148594,-0.0229925,0.0102373,2.70335,5,0.1,16,3.7,3.30031,2.1283,0.745979,0.0032112,0.502567,0.00453945,0.00804663,0.356078,-0.00426918,0.0148242,0.953216,5,0.1,17,3.7,1.16309,1.44006,0.598765,-0.213522,0.25753,0.00165896,-0.604205,0.0271127,-0.00292435,0.0247402,0.416336,5,0.1,18,3.7,-1.43152,0.429247,0.609487,-0.22003,0.866025,-0.011026,0.00978261,-3.57628e-06,0.000406057,0.00948921,2.24093,5,0.1,19,3.7,2.68847,2.90019,0.749209,-0.0916541,0.00398792,0.163175,0.744909,0.0577122,-0.0473224,0.00805533,0.376389,5,0.1
0,3.8,-0.30443,1.85883,0.602712,-0.212198,-0.28863,-0.00353009,0.0272095,0.199258,0.00229478,0.0091678,0.266186,5,0.1,1,3.8,0.554547,1.69832,0.602076,-0.215651,-0.0036478,-0.00406504,0.319898,0.0624061,0.00602007,0.00838855,0.443242,5,0.1,2,3.8,-4.07761,-2.07955,0.587409,-0.243616,0.236446,0.0418603,-0.181198,0.576973,0.0702441,0.0076383,0.207208,5,0.1,3,3.8,-3.83763,-2.20288,0.537038,0.0164449,0.257224,-0.0161752,-0.210285,0.0811815,0.03016,0.0105249,0.186804,5,0.1,4,3.8,-1.00134,1.28724,0.591746,0.00267327,-0.420916,-0.00904799,0.0154376,0.0607967,-0.00187755,0.0197784,1.24173,5,0.1,5,3.8,-0.623872,-0.160921,0.599598,0.204089,0.866025,0.041081,0.16585,0,-0.058651,0.0123567,1.89362,5,0.1,6,3.8,-1.00537,1.68835,0.602625,0.00852048,-0.437224,-0.00216365,-0.0209808,-0.145793,0.00357628,0.0111798,1.72199,5,0.1,7,3.8,-2.20563,-1.11914,0.614333,-0.328302,-0.110388,-0.00228435,0.200391,0.12356,0.00521541,0.00914698,1.24109,5,0.1,8,3.8,2.9518,2.99938,0.613392,0.152969,-0.0716925,0.0286311,0.812054,-0.115275,0.023365,0.00665094,0.241383,5,0.1,9,3.8,-2.46444,-1.31319,0.596412,-0.264162,-0.0771821,-0.00355691,0.19896,0.0554919,0.0025332,0.00794385,0.245357,5,0.1,10,3.8,2.70969,3.10356,0.574343,0.180399,0.0558436,-0.0166968,-0.119567,-0.20051,0.0489652,0.00824288,0.29335,5,0.1,11,3.8,1.40055,-3.47077,0.555385,-0.00416636,-0.00469685,0.000905991,-0.0144839,-0.0163317,0.00312924,0.007166,4.3132e-05,5,0.1,12,3.8,-1.43347,-2.4621,0.582006,0.0942975,0.573146,-0.00587106,-0.097692,-0.411868,0.00613928,0.00871283,0.131977,5,0.1,13,3.8,3.53076,1.29664,0.612579,-0.189447,0.866026,-0.00635982,0.0686646,0,-0.0106692,0.0162064,2.31509,5,0.1,14,3.8,-0.768816,0.971835,0.507103,0.211354,-0.285745,-0.03324,0.389963,0.746191,0.0923872,0.0274976,0.564543,5,0.1,15,3.8,-0.888414,4.03514,0.594134,-0.625454,-0.0114202,0.00245273,-0.660688,-0.193357,-0.0284314,0.00846691,2.15174,5,0.1,16,3.8,3.30064,2.18031,0.746411,0.00317693,0.53618,0.00410378,-0.00762939,0.2774,-0.00455976,0.0147738,0.747109,5,0.1,17,3.8,1.13889,1.46584,0.598917,-0.26814,0.25681,0.0013873,-0.465989,-0.0490546,-0.0025034,0.0223135,0.311251,5,0.1,18,3.8,-1.45344,0.51585,0.608388,-0.217721,0.866026,-0.0109226,0.0454783,0,0.00214577,0.00913588,2.24222,5,0.1,19,3.8,2.68314,2.90092,0.765072,-0.0147998,0.0107348,0.152129,0.761509,0.0721216,-0.165433,0.00950145,0.315927,5,0.1
0,3.9,-0.325271,1.83096,0.60237,-0.202375,-0.268723,-0.00330601,0.161918,0.204749,0.00227988,0.0091678,0.266186,5,0.1,1,3.9,0.534557,1.69833,0.6017,-0.184394,0.00536311,-0.00347961,0.305671,0.159495,0.00569969,0.00838855,0.443242,5,0.1,2,3.9,-4.10309,-2.0535,0.591982,-0.267342,0.279712,0.0498122,-0.264496,0.291795,0.0826493,0.0076383,0.207208,5,0.1,3,3.9,-3.83711,-2.17662,0.535569,-0.00650212,0.268638,-0.0132309,-0.238299,0.126302,0.0285953,0.0105249,0.186804,5,0.1,4,3.9,-0.999908,1.24614,0.590861,0.035008,-0.394797,-0.00839047,0.562228,0.432879,0.0135973,0.0197784,1.24173,5,0.1,5,3.9,-0.602561,-0.0743181,0.603396,0.222418,0.866025,0.034728,0.182882,4.47035e-07,-0.0671707,0.0123567,1.89362,5,0.1,6,3.9,-1.00468,1.64384,0.60243,0.00507869,-0.453079,-0.00169538,-0.02487,-0.145309,0.00552088,0.0111798,1.72199,5,0.1,7,3.9,-2.23756,-1.12963,0.61413,-0.310883,-0.10014,-0.00179047,0.161216,0.086762,0.00465289,0.00914698,1.24109,5,0.1,8,3.9,2.97107,2.99149,0.616436,0.230876,-0.0869457,0.0327314,0.720531,-0.174657,0.0527166,0.00665094,0.241383,5,0.1,9,3.9,-2.49027,-1.32108,0.596022,-0.255642,-0.0845226,-0.00462672,0.00169873,-0.171967,-0.0209026,0.00794385,0.245357,5,0.1,10,3.9,2.72757,3.10794,0.572934,0.180748,0.0302088,-0.0113779,0.0954419,-0.295684,0.0556,0.00824288,0.29335,5,0.1,11,3.9,1.40008,-3.4713,0.555489,-0.00520553,-0.00586957,0.00113035,-0.00654906,-0.00742078,0.00141189,0.007166,4.3132e-05,5,0.1,12,3.9,-1.4245,-2.40676,0.581448,0.0853427,0.534282,-0.00530574,-0.0840575,-0.381485,0.00531971,0.00871283,0.131977,5,0.1,13,3.9,3.512,1.38309,0.611894,-0.18701,0.860794,-0.00729077,-0.00427663,-0.128612,-0.0076443,0.0162064,2.31509,5,0.1,14,3.9,-0.745523,0.947263,0.504238,0.255711,-0.203705,-0.0241374,0.463787,0.866141,0.0880547,0.0274976,0.564543,5,0.1,15,3.9,-0.954817,4.03296,0.594226,-0.706101,-0.0326753,-0.000664592,-0.872176,-0.220895,-0.0324994,0.00846691,2.15174,5,0.1,16,3.9,3.30094,2.23549,0.7468,0.00295974,0.568188,0.00367621,-0.000193715,0.321686,-0.00407919,0.0147738,0.747109,5,0.1,17,3.9,1.10977,1.49128,0.599045,-0.313669,0.251864,0.0011635,-0.420608,-0.0590235,-0.00201538,0.0223135,0.311251,5,0.1,18,3.9,-1.47507,0.602452,0.607302,-0.215391,0.866026,-0.0108222,0.013791,-3.72529e-06,0.000506639,0.00913588,2.24222,5,0.1,19,3.9,2.68572,2.90232,0.77932,0.0680186,0.0169583,0.131644,0.855774,0.0516772,-0.236526,0.00950145,0.315927,5,0.1
0,4,-0.344528,1.80515,0.602052,-0.181215,-0.246719,-0.0030607,0.254601,0.238955,0.00271201,0.00931059,0.254298,5,0.1,1,4,0.517625,1.7,0.60138,-0.154467,0.0314146,-0.00292212,0.292987,0.351429,0.00542402,0.0120829,0.384155,5,0.1,2,4,-4.13109,-2.02452,0.597356,-0.291538,0.295651,0.0573322,-0.198841,0.0320673,0.0633597,0.00602018,0.174058,5,0.1,3,4,-3.83893,-2.14919,0.534386,-0.0294149,0.27892,-0.01048,-0.212431,0.0644922,0.0263453,0.010058,0.140108,5,0.1,4,4,-0.993163,1.20925,0.590106,0.102849,-0.339621,-0.00658929,0.740975,0.646532,0.0212789,0.00744913,0.285878,5,0.1,5,4,-0.579496,0.0122845,0.606527,0.237623,0.866025,0.0278726,0.108629,-1.19209e-06,-0.0689328,0.0121093,2.27029,5,0.1,6,4,-1.00417,1.59798,0.60229,0.00679493,-0.461891,-0.00110865,0.0687838,-0.0130534,0.00604987,0.0111632,1.57181,5,0.1,7,4,-2.26782,-1.13924,0.613973,-0.293815,-0.0921041,-0.00135601,0.189662,0.0779033,0.00402331,0.00845419,1.10101,5,0.1,8,4,2.99744,2.98193,0.619981,0.292784,-0.103986,0.0381395,0.500441,-0.155091,0.0509918,0.00703939,0.192464,5,0.1,9,4,-2.51595,-1.33056,0.595437,-0.258523,-0.10621,-0.00720024,-0.0365973,-0.238478,-0.0282228,0.00716841,0.212846,5,0.1,10,4,2.74626,3.10944,0.572073,0.194007,-0.000375509,-0.0058949,0.146151,-0.303388,0.0526905,0.008433,0.322952,5,0.1,11,4,1.39954,-3.47191,0.555606,-0.00552833,-0.00623465,0.00120103,-0.000178814,-0.000238419,0,0.00712311,1.33998e-05,5,0.1,12,4,-1.41638,-2.35529,0.580943,0.077039,0.494146,-0.0047788,-0.0839829,-0.432014,0.00530481,0.0142039,0.149195,5,0.1,13,4,3.49326,1.46815,0.611134,-0.187594,0.836399,-0.0078395,0.00393391,-0.374258,-0.00309944,0.0159805,2.25807,5,0.1,14,4,-0.717737,0.931227,0.502246,0.298353,-0.117539,-0.0158995,0.3649,0.835389,0.0755787,0.0267912,0.327887,5,0.1,15,4,-1.0296,4.02862,0.594,-0.786075,-0.0537157,-0.00379831,-0.669181,-0.191927,-0.0291169,0.00868058,1.65981,5,0.1,16,4,3.30123,2.29371,0.747147,0.0025928,0.593519,0.00327229,-0.00929832,0.155926,-0.00402331,0.0144982,0.570457,5,0.1,17,4,1.07653,1.51609,0.599151,-0.348228,0.243476,0.000979006,-0.254154,-0.114799,-0.00172853,0.0242164,0.221227,5,0.1,18,4,-1.4965,0.689055,0.606224,-0.212801,0.866026,-0.010711,0.0470281,0,0.00217557,0.0088779,2.24358,5,0.1,19,4,2.69669,2.90424,0.791238,0.149578,0.0209749,0.106229,0.746846,0.0282526,-0.265509,0.00701272,0.510011,5,0.1
0,4.1,-0.361246,1.78166,0.601759,-0.15208,-0.223211,-0.00279509,0.319369,0.234827,0.00265241,0.00931059,0.254298,5,0.1,1,4.1,0.503586,1.70533,0.601113,-0.126849,0.0784114,-0.00241175,0.260195,0.549525,0.00479817,0.0120829,0.384155,5,0.1,2,4.1,-4.16137,-1.99501,0.603428,-0.314757,0.29224,0.0642067,-0.239134,-0.0991374,0.0684187,0.00602018,0.174058,5,0.1,3,4.1,-3.84294,-2.12093,0.533464,-0.050528,0.286504,-0.00800043,-0.202045,0.0708252,0.0231788,0.010058,0.140108,5,0.1,4,4.1,-0.979928,1.17771,0.58952,0.154835,-0.297975,-0.00542589,0.319745,0.231363,0.00374019,0.00744913,0.285878,5,0.1,5,4.1,-0.555465,0.098887,0.608981,0.240382,0.866025,0.0213184,-0.0489727,7.45058e-07,-0.0618659,0.0121093,2.27029,5,0.1,6,4.1,-1.00295,1.55203,0.602216,0.0194553,-0.454162,-0.000324473,0.177413,0.167474,0.00908971,0.0111632,1.57181,5,0.1,7,4.1,-2.29657,-1.14825,0.613853,-0.283736,-0.0898071,-0.00108024,0.0379831,-0.0183731,0.00169501,0.00845419,1.10101,5,0.1,8,4.1,3.02909,2.9708,0.624094,0.33845,-0.117905,0.0443997,0.393912,-0.117302,0.0683218,0.00703939,0.192464,5,0.1,9,4.1,-2.5422,-1.34255,0.594557,-0.268151,-0.134796,-0.0105294,-0.13037,-0.310361,-0.0360049,0.00716841,0.212846,5,0.1,10,4.1,2.76662,3.10791,0.571664,0.214704,-0.0298161,-0.003024,0.241384,-0.277653,0.00860542,0.008433,0.322952,5,0.1,11,4.1,1.39899,-3.47253,0.555725,-0.00532009,-0.00600368,0.00115307,0.00406802,0.00455976,-0.000905246,0.00712311,1.33998e-05,5,0.1,12,4.1,-1.40903,-2.30769,0.580488,0.0704236,0.460671,-0.00435635,-0.0528693,-0.266314,0.00341237,0.0142039,0.149195,5,0.1,13,4.1,3.47444,1.54892,0.610336,-0.189424,0.770183,-0.00807708,-0.0278354,-0.895321,-0.00138208,0.0159805,2.25807,5,0.1,14,4.1,-0.686189,0.923652,0.501005,0.331058,-0.0344926,-0.00922717,0.273265,0.80467,0.0575557,0.0267912,0.327887,5,0.1,15,4.1,-1.11117,4.02246,0.593475,-0.840832,-0.0679038,-0.00669789,-0.401914,-0.0993311,-0.0278056,0.00868058,1.65981,5,0.1,16,4.1,3.30144,2.35372,0.74747,0.00166073,0.60487,0.00330498,-0.0150502,0.0504106,0.00369921,0.0144982,0.570457,5,0.1,17,4.1,1.04048,1.53989,0.599241,-0.371843,0.232449,0.000826642,-0.199266,-0.113323,-0.00135601,0.0242164,0.221227,5,0.1,18,4.1,-1.51763,0.775657,0.60516,-0.210315,0.866026,-0.0106055,0.01508,-3.72529e-06,0.000558794,0.0088779,2.24358,5,0.1,19,4.1,2.71436,2.90628,0.801213,0.194448,0.0182118,0.099088,0.186622,-0.0725538,0.0833534,0.00701272,0.510011,5,0.1
0,4.2,-0.374811,1.76053,0.601493,-0.118919,-0.199166,-0.00251979,0.336841,0.248253,0.00283122,0.0100615,0.254033,5,0.1,1,4.2,0.492153,1.71598,0.600895,-0.102287,0.134477,-0.00195801,0.231639,0.542402,0.00426173,0.00960264,0.314895,5,0.1,2,4.2,-4.19393,-1.96649,0.610161,-0.334871,0.276169,0.0700414,-0.144005,-0.22006,0.0442266,0.00680146,0.161,5,0.1,3,4.2,-3.84893,-2.09202,0.532775,-0.0684917,0.290304,-0.00585318,-0.151992,-0.00596046,0.0197291,0.00923346,0.172499,5,0.1,4,4.2,-0.963397,1.14869,0.588979,0.17074,-0.285375,-0.00552982,0.0167489,0.0555515,-0.00441074,0.00817254,0.219584,5,0.1,5,4.2,-0.5319,0.18549,0.610817,0.228754,0.866025,0.0155494,-0.178814,0,-0.0533462,0.0129423,2.3386,5,0.1,6,4.2,-1,1.50774,0.60223,0.040333,-0.428629,0.000612438,0.227749,0.340879,0.00926852,0.00887413,1.38099,5,0.1,7,4.2,-2.32483,-1.15739,0.613751,-0.28168,-0.0933886,-0.000977516,0.0225306,-0.0428557,0.000476837,0.00815193,0.957456,5,0.1,8,4.2,3.0646,2.95853,0.628864,0.368434,-0.126463,0.0507876,0.193715,-0.0499487,0.0551641,0.0126187,0.182769,5,0.1,9,4.2,-2.56965,-1.35755,0.593327,-0.280178,-0.164315,-0.0139907,-0.0915527,-0.263274,-0.0315011,0.00603357,0.187649,5,0.1,10,4.2,2.78927,3.10363,0.571358,0.237703,-0.05458,-0.00347495,0.199318,-0.212431,-0.0145137,0.00862369,0.255088,5,0.1,11,4.2,1.39848,-3.4731,0.555834,-0.00476241,-0.0053823,0.00103116,0.00679493,0.0077486,-0.00149012,0.00830147,8.34032e-06,5,0.1,12,4.2,-1.40223,-2.26287,0.580068,0.0656754,0.435895,-0.00404716,-0.0455379,-0.25022,0.00292063,0.0069975,0.0861243,5,0.1,13,4.2,3.45539,1.62096,0.609526,-0.190973,0.666922,-0.00807196,0.00584126,-1.12879,0.00163913,0.0143587,1.69769,5,0.1,14,4.2,-0.651975,0.924033,0.500339,0.350384,0.0398204,-0.00441372,0.103027,0.666738,0.0387728,0.0241699,0.239969,5,0.1,15,4.2,-1.19668,4.01528,0.592675,-0.863591,-0.07478,-0.00917614,-0.048697,-0.0426769,-0.0210404,0.00872779,1.25351,5,0.1,16,4.2,3.30149,2.41415,0.747825,-0.00118017,0.600231,0.00383854,-0.043869,-0.156283,0.00625849,0.0146639,0.490442,5,0.1,17,4.2,1.00252,1.56252,0.599318,-0.384933,0.219545,0.000703335,-0.0499487,-0.149846,-0.00113249,0.022003,0.151392,5,0.1,18,4.2,-1.53856,0.86226,0.604103,-0.207666,0.866026,-0.0104889,0.04673,0,0.00214577,0.0102438,2.24494,5,0.1,19,4.2,2.73406,2.90765,0.811848,0.193542,0.00842214,0.115901,-0.174642,-0.114441,0.222266,0.0075085,0.248372,5,0.1
0,4.3,-0.385039,1.74185,0.601255,-0.0859786,-0.174418,-0.00223378,0.316728,0.247285,0.00289455,0.0100615,0.254033,5,0.1,1,4.3,0.48302,1.73197,0.60072,-0.0809657,0.183447,-0.00156593,0.195732,0.432633,0.00359863,0.00960264,0.314895,5,0.1,2,4.3,-4.22825,-1.94001,0.617412,-0.351996,0.253154,0.0750717,-0.17342,-0.242606,0.0505894,0.00680146,0.161,5,0.1,3,4.3,-3.85663,-2.06276,0.532284,-0.0860233,0.296821,-0.00400655,-0.185564,0.108182,0.0170916,0.00923346,0.172499,5,0.1,4,4.3,-0.946478,1.12,0.588384,0.165448,-0.291846,-0.0065349,-0.114825,-0.147685,-0.0140518,0.00817254,0.219584,5,0.1,5,4.3,-0.509907,0.27197,0.612182,0.211096,0.861654,0.0124209,-0.178734,-0.114287,-0.0130683,0.0129423,2.3386,5,0.1,6,4.3,-0.994452,1.46647,0.602338,0.0735475,-0.397452,0.00153519,0.404298,0.296235,0.00887364,0.00887413,1.38099,5,0.1,7,4.3,-2.35317,-1.16712,0.613652,-0.287234,-0.102393,-0.00103144,-0.105113,-0.121422,-0.00130758,0.00815193,0.957456,5,0.1,8,4.3,3.10238,2.94586,0.634248,0.386247,-0.124748,0.0570522,0.14402,0.0760108,0.0644885,0.0126187,0.182769,5,0.1,9,4.3,-2.59825,-1.37537,0.591762,-0.292373,-0.192237,-0.0173455,-0.130609,-0.276037,-0.0335202,0.00603357,0.187649,5,0.1,10,4.3,2.81408,3.09693,0.570983,0.258313,-0.0808861,-0.00361716,0.194922,-0.2933,0.00936911,0.00862369,0.255088,5,0.1,11,4.3,1.39804,-3.4736,0.555929,-0.003995,-0.00451021,0.000863615,0.00832975,0.00943244,-0.00180677,0.00830147,8.34032e-06,5,0.1,12,4.3,-1.39587,-2.22039,0.579677,0.061878,0.414644,-0.00380101,-0.0334159,-0.1937,0.00217929,0.0069975,0.0861243,5,0.1,13,4.3,3.43628,1.68163,0.608728,-0.191387,0.54457,-0.00787983,-0.00403821,-1.24505,0.00242516,0.0143587,1.69769,5,0.1,14,4.3,-0.616488,0.931249,0.500061,0.358348,0.103098,-0.00143489,0.0433289,0.58319,0.0214465,0.0241699,0.239969,5,0.1,15,4.3,-1.28319,4.00769,0.591655,-0.865568,-0.0763953,-0.0111721,0.00614673,-0.00607967,-0.018049,0.00872779,1.25351,5,0.1,16,4.3,3.30111,2.47281,0.748306,-0.00697672,0.567656,0.00633039,-0.0732541,-0.477865,0.0390708,0.0146639,0.490442,5,0.1,17,4.3,0.963801,1.58376,0.599383,-0.388747,0.205414,0.000604615,-0.0110939,-0.139095,-0.000871718,0.022003,0.151392,5,0.1,18,4.3,-1.55917,0.948862,0.603061,-0.205169,0.866026,-0.0103826,0.0153035,0,0.000596046,0.0102438,2.24494,5,0.1,19,4.3,2.75276,2.90796,0.82429,0.182198,-0.0016477,0.13048,-0.0683814,-0.0866801,0.0742488,0.0075085,0.248372,5,0.1
0,4.4,-0.392121,1.72565,0.601046,-0.056453,-0.14964,-0.00193864,0.270203,0.248492,0.00298023,0.00940873,0.42269,5,0.1,1,4.4,0.475849,1.75226,0.60058,-0.0629649,0.220105,-0.00123531,0.16506,0.296056,0.00306964,0.0113146,0.256876,5,0.1,2,4.4,-4.2642,-1.91596,0.625143,-0.365281,0.227302,0.0791728,-0.0748634,-0.275552,0.0273585,0.00728837,2.21278,5,0.1,3,4.4,-3.86613,-2.03254,0.531963,-0.103343,0.307077,-0.00245273,-0.151396,0.0764132,0.0139475,0.00985024,0.106302,5,0.1,4,4.4,-0.930671,1.08999,0.587655,0.149234,-0.308403,-0.0080511,-0.202626,-0.155747,-0.0150502,0.00990587,0.189828,5,0.1,5,4.4,-0.48972,0.357197,0.613399,0.192289,0.838779,0.0122488,-0.200242,-0.360206,0.00658631,0.0126545,2.55394,5,0.1,6,4.4,-0.985003,1.42823,0.602533,0.11553,-0.367081,0.00233352,0.410974,0.320613,0.00685453,0.0109467,1.18664,5,0.1,7,4.4,-2.38243,-1.17799,0.613541,-0.297749,-0.114912,-0.00119507,-0.084281,-0.117242,-0.00172853,0.00877742,0.812924,5,0.1,8,4.4,3.14152,2.93392,0.640254,0.394148,-0.112784,0.0627205,0.00190735,0.156403,0.0448227,0.00740078,0.18854,5,0.1,9,4.4,-2.62806,-1.39586,0.58987,-0.302583,-0.216255,-0.0203386,-0.0582933,-0.190675,-0.0248551,0.0068616,0.170171,5,0.1,10,4.4,2.84076,3.08738,0.570692,0.273639,-0.109684,-0.00201166,0.0993013,-0.267506,0.0208616,0.00808738,0.192363,5,0.1,11,4.4,1.39769,-3.474,0.556006,-0.00313818,-0.00354052,0.000676513,0.00870228,0.00977516,-0.00184774,0.00874204,8.00897e-06,5,0.1,12,4.4,-1.38985,-2.17993,0.579307,0.0584751,0.393933,-0.00357926,-0.0368357,-0.233531,0.00235438,0.00663399,0.0661898,5,0.1,13,4.4,3.41717,1.73013,0.607955,-0.190067,0.429106,-0.00755042,0.0374317,-1.0255,0.00435114,0.0157146,1.92626,5,0.1,14,4.4,-0.580621,0.944232,0.500001,0.356935,0.153849,2.98023e-05,-0.0799298,0.421315,0.00867248,0.0263427,0.16692,5,0.1,15,4.4,-1.3696,4,0.590458,-0.861135,-0.0776708,-0.0126481,0.0978708,-0.0195503,-0.0109375,0.0095211,0.932074,5,0.1,16,4.4,3.3,2.52678,0.749158,-0.0155568,0.507975,0.0108525,-0.0946522,-0.699997,0.0479221,0.0143381,0.542761,5,0.1,17,4.4,0.925037,1.60358,0.599439,-0.384626,0.190663,0.000526011,0.103593,-0.160277,-0.00077486,0.0232334,0.172701,5,0.1,18,4.4,-1.57959,1.03547,0.602027,-0.202537,0.866026,-0.0102654,0.0459552,0,0.00217557,0.00720001,2.24629,5,0.1,19,4.4,2.7707,2.90741,0.8375,0.177038,-0.00888705,0.131731,-0.04673,-0.0579357,-0.0443757,0.00748964,0.390043,5,0.1
0,4.5,-0.396461,1.71189,0.600867,-0.0310002,-0.125961,-0.00165263,0.230612,0.226013,0.00275299,0.00940873,0.42269,5,0.1,1,4.5,0.470324,1.77538,0.600471,-0.0480727,0.239738,-0.000958517,0.133712,0.139438,0.00248104,0.0113146,0.256876,5,0.1,2,4.5,-4.30013,-1.89618,0.633007,-0.344637,0.154897,0.0763927,0.443101,-1.0736,-0.074923,0.00728837,2.21278,5,0.1,3,4.5,-3.87721,-2.00139,0.531783,-0.118036,0.315868,-0.00119088,-0.134125,0.0812411,0.0112392,0.00985024,0.106302,5,0.1,4,4.5,-0.916732,1.05816,0.586762,0.129791,-0.329623,-0.00991188,-0.187844,-0.237793,-0.0205338,0.00990587,0.189828,5,0.1,5,4.5,-0.471484,0.438966,0.614753,0.172464,0.793448,0.0155978,-0.19837,-0.549538,0.0536889,0.0126545,2.55394,5,0.1,6,4.5,-0.971166,1.39276,0.602797,0.162697,-0.345152,0.00291681,0.500761,0.145651,0.00471994,0.0109467,1.18664,5,0.1,7,4.5,-2.41284,-1.19018,0.613411,-0.311713,-0.129833,-0.00143182,-0.167415,-0.165448,-0.00276417,0.00877742,0.812924,5,0.1,8,4.5,3.18101,2.92356,0.646784,0.395928,-0.0933398,0.0680748,0.013262,0.220343,0.0561774,0.00740078,0.18854,5,0.1,9,4.5,-2.65869,-1.4185,0.587703,-0.310319,-0.236594,-0.0230367,-0.077337,-0.19785,-0.0269599,0.0068616,0.170171,5,0.1,10,4.5,2.86862,3.07502,0.570614,0.28333,-0.137475,0.000581238,0.0803024,-0.272751,0.0292845,0.00808738,0.192363,5,0.1,11,4.5,1.39742,-3.4743,0.556065,-0.00226889,-0.00256412,0.000491366,0.00851601,0.00958145,-0.00181794,0.00874204,8.00897e-06,5,0.1,12,4.5,-1.38415,-2.14154,0.578959,0.0555497,0.374885,-0.00339011,-0.0247806,-0.167042,0.0016205,0.00663399,0.0661898,5,0.1,13,4.5,3.39833,1.76828,0.607221,-0.186907,0.34015,-0.00712126,0.0338852,-0.660986,0.00442564,0.0157146,1.92626,5,0.1,14,4.5,-0.545345,0.961614,0.500036,0.348136,0.192372,0.000552088,-0.106752,0.337098,0.00225753,0.0263427,0.16692,5,0.1,15,4.5,-1.45548,3.99205,0.589142,-0.857862,-0.0820059,-0.0136361,0.0152588,-0.0579506,-0.00817701,0.0095211,0.932074,5,0.1,16,4.5,3.29748,2.57394,0.750662,-0.0387605,0.434068,0.0206933,-0.335172,-0.768319,0.135671,0.0143381,0.542761,5,0.1,17,4.5,0.886855,1.62189,0.599489,-0.380676,0.175949,0.000467617,0.00279397,-0.139922,-0.000428408,0.0232334,0.172701,5,0.1,18,4.5,-1.59969,1.12207,0.601008,-0.200052,0.866026,-0.0101531,0.0154898,0,0.000670552,0.00720001,2.24629,5,0.1,19,4.5,2.78768,2.90629,0.850991,0.158267,-0.0130281,0.142529,-0.303179,-0.0261366,0.222065,0.00748964,0.390043,5,0.1
0,4.6,-0.398526,1.70039,0.600715,-0.0115938,-0.104287,-0.00138581,0.153124,0.20802,0.002563,0.0112091,0.874801,5,0.1,1,4.6,0.466139,1.8,0.600387,-0.0360496,0.252384,-0.000734627,0.107557,0.11456,0.00202656,0.0105107,0.218981,5,0.1,2,4.6,-4.33183,-1.88671,0.640158,-0.284791,0.0302106,0.065656,0.717402,-1.34271,-0.133097,0.00653122,1.83863,5,0.1,3,4.6,-3.8896,-1.96951,0.531716,-0.12877,0.320256,-0.000211596,-0.0748634,-0.00602007,0.00828505,0.0089717,0.0828632,5,0.1,4,4.6,-0.904678,1.02408,0.58567,0.1114,-0.350654,-0.0118747,-0.181019,-0.160575,-0.0175834,0.00892817,0.17438,5,0.1,5,4.6,-0.455239,0.515234,0.616613,0.152282,0.72861,0.0218019,-0.206515,-0.746697,0.0651777,0.0122206,2.82572,5,0.1,6,4.6,-0.952458,1.35887,0.603108,0.210206,-0.333118,0.00326335,0.426233,0.115514,0.00217557,0.00976941,1.56596,5,0.1,7,4.6,-2.4448,-1.20397,0.613254,-0.326478,-0.14528,-0.0017032,-0.107884,-0.132084,-0.0025332,0.0107876,0.672256,5,0.1,8,4.6,3.22056,2.91535,0.65385,0.393343,-0.0707865,0.0729144,-0.0789165,0.222087,0.0362396,0.0113276,0.191407,5,0.1,9,4.6,-2.69001,-1.44304,0.585276,-0.314814,-0.252721,-0.0253618,0.000834465,-0.111759,-0.0180304,0.00725327,0.160534,5,0.1,10,4.6,2.89723,3.06001,0.570821,0.287312,-0.16157,0.0035435,-0.010252,-0.198364,0.0286996,0.0103524,0.138638,5,0.1,11,4.6,1.39723,-3.47451,0.556105,-0.00146329,-0.00165701,0.000317395,0.00756979,0.00846386,-0.00157952,0.0070349,6.28633e-06,5,0.1,12,4.6,-1.37872,-2.10491,0.578629,0.0529885,0.357181,-0.00322312,-0.0287294,-0.200629,0.00181794,0.0076364,0.0297635,5,0.1,13,4.6,3.37985,1.8,0.606533,-0.181925,0.304091,-0.006634,0.0714064,-0.0810623,0.00545382,0.0194064,1.18538,5,0.1,14,4.6,-0.51118,0.982317,0.500095,0.333823,0.219288,0.000569224,-0.186414,0.193447,-0.00151992,0.0220908,0.188595,5,0.1,15,4.6,-1.541,3.98356,0.587746,-0.849965,-0.0876606,-0.014174,0.176132,-0.0486374,-0.00220537,0.0105401,0.667571,5,0.1,16,4.6,3.29177,2.61346,0.753465,-0.0765324,0.356114,0.0356525,-0.393987,-0.782251,0.153393,0.00565622,0.618899,5,0.1,17,4.6,0.848819,1.63878,0.599533,-0.379351,0.161678,0.000432134,0.0434816,-0.149488,-0.000298023,0.0249704,0.214674,5,0.1,18,4.6,-1.61959,1.20867,0.599997,-0.197425,0.866026,-0.01003,0.0453591,0,0.00223517,0.00707521,2.3401,5,0.1,19,4.6,2.80174,2.9049,0.866535,0.121003,-0.0143647,0.169396,-0.421524,-0.00154972,0.286013,0.0060446,0.313163,5,0.1
0,4.7,-0.398901,1.69095,0.600589,0.00346457,-0.0849791,-0.00114646,0.117412,0.179157,0.00223517,0.0112091,0.874801,5,0.1,1,4.7,0.463187,1.82598,0.600322,-0.0220928,0.268354,-0.000555441,0.162521,0.180475,0.00157207,0.0105107,0.218981,5,0.1,2,4.7,-4.35637,-1.89094,0.645988,-0.203373,-0.118427,0.050409,0.878364,-1.55613,-0.166018,0.00653122,1.83863,5,0.1,3,4.7,-3.90286,-1.93743,0.531733,-0.136416,0.32171,0.000524428,-0.0694245,0.0162572,0.00637397,0.0089717,0.0828632,5,0.1,4,4.7,-0.894377,0.988075,0.584383,0.0952045,-0.370015,-0.0139361,-0.146013,-0.199065,-0.0218824,0.00892817,0.17438,5,0.1,5,4.7,-0.441157,0.58436,0.619195,0.128433,0.653739,0.0303881,-0.263119,-0.756979,0.0989288,0.0122206,2.82572,5,0.1,6,4.7,-0.929175,1.32568,0.603446,0.256012,-0.334333,0.00348426,0.4602,-0.101082,0.00202656,0.00976941,1.56596,5,0.1,7,4.7,-2.47814,-1.21925,0.613069,-0.341256,-0.160826,-0.00200244,-0.161558,-0.163257,-0.00319257,0.0107876,0.672256,5,0.1,8,4.7,3.25965,2.90938,0.661369,0.389398,-0.0489619,0.077755,-0.0230223,0.200614,0.0535622,0.0113276,0.191407,5,0.1,9,4.7,-2.72156,-1.46895,0.582636,-0.316498,-0.265928,-0.0275151,-0.0171363,-0.133432,-0.0225864,0.00725327,0.160534,5,0.1,10,4.7,2.92592,3.04287,0.571323,0.286141,-0.180898,0.00651032,-0.0246614,-0.176117,0.0293478,0.0103524,0.138638,5,0.1,11,4.7,1.39712,-3.47464,0.556129,-0.00075195,-0.000859797,0.000167917,0.00656396,0.00736117,-0.00138953,0.0070349,6.28633e-06,5,0.1,12,4.7,-1.37356,-2.07017,0.578315,0.05023,0.337597,-0.00304831,-0.0281036,-0.201359,0.00177696,0.0076364,0.0297635,5,0.1,13,4.7,3.36219,1.83087,0.606365,-0.169794,0.320266,0.00722008,0.165507,0.340365,0.242155,0.0194064,1.18538,5,0.1,14,4.7,-0.478536,1.00533,0.500141,0.320478,0.241613,0.000341516,-0.100506,0.230707,-0.00280514,0.0220908,0.188595,5,0.1,15,4.7,-1.62527,3.97451,0.586319,-0.835945,-0.0933647,-0.0143306,0.14247,-0.0582933,-0.000402331,0.0105401,0.667571,5,0.1,16,4.7,3.2828,2.64425,0.757893,-0.0968378,0.252451,0.0535352,-0.0387877,-1.22383,0.192061,0.00565622,0.618899,5,0.1,17,4.7,0.811037,1.65409,0.599575,-0.376482,0.143532,0.00041062,0.0319667,-0.208579,-0.000160187,0.0249704,0.214674,5,0.1,18,4.7,-1.63918,1.29501,0.599001,-0.194922,0.857594,-0.00990853,0.0161082,-0.185378,0.00076741,0.00707521,2.3401,5,0.1,19,4.7,2.81159,2.90349,0.885151,0.0748925,-0.0134423,0.204576,-0.483304,0.0181794,0.386328,0.0060446,0.313163,5,0.1
0,4.8,-0.398209,1.68331,0.600485,0.0076063,-0.0682741,-0.000935793,-0.0467747,0.155747,0.00199676,0.0140426,1.78343,5,0.1,1,4.8,0.461819,1.85366,0.600274,-0.00514761,0.284281,-0.000417233,0.169426,0.120521,0.0012517,0.00932301,0.165927,5,0.1,2,4.8,-4.37227,-1.91042,0.650184,-0.114882,-0.268161,0.0334874,0.866652,-1.38384,-0.167936,0.00774702,1.48456,5,0.1,3,4.8,-3.91679,-1.90527,0.531814,-0.141197,0.320324,0.00105649,-0.0203848,-0.0568628,0.00420213,0.00894486,0.0382573,5,0.1,4,4.8,-0.88555,0.9502,0.582884,0.0816509,-0.385763,-0.0159502,-0.127465,-0.0964105,-0.0170767,0.00847845,0.165544,5,0.1,5,4.8,-0.429672,0.645893,0.622732,0.100981,0.576261,0.040257,-0.279978,-0.795871,0.0928044,0.0112678,3.00659,5,0.1,6,4.8,-0.901417,1.29164,0.603803,0.297156,-0.346577,0.0036329,0.341535,-0.114918,0.00077486,0.011548,1.2963,5,0.1,7,4.8,-2.51299,-1.23609,0.612853,-0.354314,-0.175253,-0.00229925,-0.0808239,-0.114143,-0.0025034,0.0082582,0.540291,5,0.1,8,4.8,3.29841,2.90537,0.669394,0.384808,-0.0326455,0.0824228,-0.0853539,0.119686,0.0347197,0.00888078,0.182245,5,0.1,9,4.8,-2.75321,-1.49612,0.57978,-0.315297,-0.276175,-0.0294596,0.0530481,-0.0582337,-0.0145137,0.00562112,0.156912,5,0.1,10,4.8,2.95431,3.02401,0.572113,0.28047,-0.194758,0.00919104,-0.0965595,-0.0929832,0.023365,0.00814456,0.179185,5,0.1,11,4.8,1.39708,-3.47469,0.55614,-0.000166893,-0.000202656,4.32134e-05,0.005126,0.00572205,-0.00110269,0.0114769,3.65257e-06,5,0.1,12,4.8,-1.36869,-2.03749,0.57802,0.0470906,0.315219,-0.00285208,-0.0356436,-0.253081,0.00223517,0.00789508,0.0114097,5,0.1,13,4.8,3.34615,1.86486,0.608488,-0.149906,0.360873,0.036557,0.227332,0.422955,0.321627,0.017227,0.950989,5,0.1,14,4.8,-0.446984,1.03056,0.500161,0.31027,0.261611,4.76837e-05,-0.118136,0.153303,-0.00292063,0.0238481,0.141354,5,0.1,15,4.8,-1.70796,3.96492,0.584891,-0.815022,-0.0981033,-0.0141665,0.302434,-0.0314713,0.00399351,0.011106,0.46516,5,0.1,16,4.8,3.27333,2.66311,0.764188,-0.0891447,0.123262,0.0719473,0.170827,-1.30785,0.167221,0.00592758,0.358212,5,0.1,17,4.8,0.77365,1.66734,0.599616,-0.369905,0.120866,0.000394881,0.112027,-0.240505,-0.000178814,0.0276118,0.173287,5,0.1,18,4.8,-1.65857,1.37942,0.598016,-0.192258,0.826332,-0.00977814,0.0452399,-0.449359,0.00229478,0.00785665,2.72222,5,0.1,19,4.8,2.81668,2.90226,0.907494,0.0273943,-0.0110507,0.241251,-0.453472,0.0281334,0.324309,0.00993037,0.489501,5,0.1
0,4.9,-0.397779,1.67721,0.600401,-0.0025223,-0.0541072,-0.000753161,-0.246994,0.128582,0.0016652,0.0140426,1.78343,5,0.1,1,4.9,0.46218,1.88276,0.600238,0.0124728,0.297764,-0.000309013,0.176232,0.130065,0.000923872,0.00932301,0.165927,5,0.1,2,4.9,-4.37939,-1.9442,0.652686,-0.027819,-0.406551,0.0165848,0.850618,-1.32802,-0.16588,0.00774702,1.48456,5,0.1,3,4.9,-3.93097,-1.87356,0.531938,-0.142038,0.313397,0.00139894,0.00779331,-0.0912249,0.00263378,0.00894486,0.0382573,5,0.1,4,4.9,-0.87803,0.911015,0.581191,0.0686772,-0.398524,-0.0180045,-0.13084,-0.13224,-0.0220016,0.00847845,0.165544,5,0.1,5,4.9,-0.421234,0.700023,0.627238,0.0657172,0.510439,0.0498821,-0.404403,-0.549849,0.0942461,0.0112678,3.00659,5,0.1,6,4.9,-0.870114,1.25597,0.60416,0.327311,-0.370107,0.00343416,0.246894,-0.3106,-0.00431389,0.011548,1.2963,5,0.1,7,4.9,-2.54895,-1.25428,0.612609,-0.365689,-0.188977,-0.00260714,-0.121802,-0.144139,-0.00335276,0.0082582,0.540291,5,0.1,8,4.9,3.33666,2.90257,0.677868,0.381481,-0.0250738,0.0874218,-0.00649691,0.0240356,0.0571981,0.00888078,0.182245,5,0.1,9,4.9,-2.78455,-1.52415,0.576742,-0.31195,-0.284946,-0.0314268,0.029996,-0.0969097,-0.0219457,0.00562112,0.156912,5,0.1,10,4.9,2.98189,3.00415,0.573148,0.271123,-0.201425,0.0114587,-0.0998229,-0.0349879,0.0209995,0.00814456,0.179185,5,0.1,11,4.9,1.39708,-3.47468,0.556139,0.000287965,0.000306591,-5.51343e-05,0.00393391,0.00439584,-0.000856817,0.0114769,3.65257e-06,5,0.1,12,4.9,-1.36416,-2.00724,0.577746,0.0434676,0.289515,-0.00262596,-0.0375882,-0.265621,0.00233203,0.00789508,0.0114097,5,0.1,13,4.9,3.33238,1.9034,0.613925,-0.12483,0.412276,0.0733332,0.267908,0.555992,0.39174,0.017227,0.950989,5,0.1,14,4.9,-0.416752,1.05732,0.500153,0.292425,0.271915,-0.00017602,-0.23466,0.0479519,-0.00160933,0.0238481,0.141354,5,0.1,15,4.9,-1.78807,3.95494,0.583494,-0.787632,-0.10146,-0.013752,0.276372,-0.0300407,0.00472739,0.011106,0.46516,5,0.1,16,4.9,3.26521,2.66884,0.772288,-0.073747,-0.00809655,0.0904243,0.139132,-1.28078,0.189878,0.00592758,0.358212,5,0.1,17,4.9,0.737222,1.67819,0.599654,-0.358333,0.09593,0.00037998,0.130717,-0.253409,-0.00013411,0.0276118,0.173287,5,0.1,18,4.9,-1.67764,1.45882,0.597046,-0.189669,0.753099,-0.00964692,0.0175014,-0.957347,0.000890344,0.00785665,2.72222,5,0.1,19,4.9,2.81827,2.90147,0.932554,0.0141613,-0.00341497,0.253673,0.130445,0.113353,-0.0519156,0.00993037,0.489501,5,0.1
