id,t,px,py,pz,vx,vy,vz,ax,ay,az,planning_time,qp_cost,planning_report,size,id,t,px,py,pz,vx,vy,vz,ax,ay,az,planning_time,qp_cost,planning_report,size,id,t,px,py,pz,vx,vy,vz,ax,ay,az,planning_time,qp_cost,planning_report,size,id,t,px,py,pz,vx,vy,vz,ax,ay,az,planning_time,qp_cost,planning_report,size,id,t,px,py,pz,vx,vy,vz,ax,ay,az,planning_time,qp_cost,planning_report,size,id,t,px,py,pz,vx,vy,vz,ax,ay,az,planning_time,qp_cost,planning_report,size,id,t,px,py,pz,vx,vy,vz,ax,ay,az,planning_time,qp_cost,planning_report,size,id,t,px,py,pz,vx,vy,vz,ax,ay,az,planning_time,qp_cost,planning_report,size,id,t,px,py,pz,vx,vy,vz,ax,ay,az,planning_time,qp_cost,planning_report,size,id,t,px,py,pz,vx,vy,vz,ax,ay,az,planning_time,qp_cost,planning_report,size,id,t,px,py,pz,vx,vy,vz,ax,ay,az,planning_time,qp_cost,planning_report,size,id,t,px,py,pz,vx,vy,vz,ax,ay,az,planning_time,qp_cost,planning_report,size,id,t,px,py,pz,vx,vy,vz,ax,ay,az,planning_time,qp_cost,planning_report,size,id,t,px,py,pz,vx,vy,vz,ax,ay,az,planning_time,qp_cost,planning_report,size,id,t,px,py,pz,vx,vy,vz,ax,ay,az,planning_time,qp_cost,planning_report,size,id,t,px,py,pz,vx,vy,vz,ax,ay,az,planning_time,qp_cost,planning_report,size,id,t,px,py,pz,vx,vy,vz,ax,ay,az,planning_time,qp_cost,planning_report,size,id,t,px,py,pz,vx,vy,vz,ax,ay,az,planning_time,qp_cost,planning_report,size,id,t,px,py,pz,vx,vy,vz,ax,ay,az,planning_time,qp_cost,planning_report,size,id,t,px,py,pz,vx,vy,vz,ax,ay,az,planning_time,qp_cost,planning_report,size
0,0,0.510133,-3.78679,0.61904,0,0,0,0,0,0,0.0111736,0.828371,5,0.1,1,0,-3.42856,3.00458,0.691638,0,0,0,0,0,0,0.0101983,1.87375,5,0.1,2,0,-1.40561,-2.81336,0.675656,0,0,0,0,0,0,0.0126943,3.5122,5,0.1,3,0,3.67389,-1.01598,0.685031,0,0,0,0,0,0,0.0180135,3.5122,5,0.1,4,0,0.334203,2.41857,0.613978,0,0,0,0,0,0,0.0165856,0.28156,5,0.1,5,0,-2.25831,3.90649,0.536761,0,0,0,0,0,0,0.00988893,2.01915,5,0.1,6,0,-0.516829,-4.29427,0.538713,0,0,0,0,0,0,0.0101941,3.51219,5,0.1,7,0,-2.52954,-3.65176,0.655748,0,0,0,0,0,0,0.00899378,0.903033,5,0.1,8,0,-3.70634,0.353337,0.619744,0,0,0,0,0,0,0.0163848,1.14431,5,0.1,9,0,1.28925,-0.624368,0.638173,0,0,0,0,0,0,0.00840854,3.51219,5,0.1,10,0,-3.82189,-0.45289,0.590477,0,0,0,0,0,0,0.0172888,3.5122,5,0.1,11,0,3.52219,2.3993,0.544243,0,0,0,0,0,0,0.0229874,0.558991,5,0.1,12,0,2.11606,-0.0714555,0.510172,0,0,0,0,0,0,0.0195093,2.51413,5,0.1,13,0,2.00022,-1.02813,0.616025,0,0,0,0,0,0,0.0153926,3.5122,5,0.1,14,0,4.05539,-0.128148,0.593911,0,0,0,0,0,0,0.00886285,0.706841,5,0.1,15,0,-4.28656,3.98857,0.540939,0,0,0,0,0,0,0.0141068,3.5122,5,0.1,16,0,-0.19181,3.81906,0.694681,0,0,0,0,0,0,0.0100339,0.489885,5,0.1,17,0,-1.14822,-3.77023,0.646173,0,0,0,0,0,0,0.0101973,3.51219,5,0.1,18,0,-4.09573,-2.25751,0.656271,0,0,0,0,0,0,0.00870859,1.11216,5,0.1,19,0,-2.73391,3.25479,0.61968,0,0,0,0,0,0,0.00956028,1.40773,5,0.1
0,0.1,0.51007,-3.78613,0.619803,-0.00178181,0.0188716,0.0216614,-0.0316799,0.335485,0.385094,0.0111736,0.828371,5,0.1,1,0.1,-3.42717,3.00395,0.691699,0.0393704,-0.0179157,0.00172947,0.699937,-0.318497,0.0307485,0.0101983,1.87375,5,0.1,2,0.1,-1.40411,-2.81191,0.675699,0.0426486,0.0411388,0.00121677,0.758201,0.731334,0.0216328,0.0126943,3.5122,5,0.1,3,0.1,3.67369,-1.0139,0.685065,-0.00549369,0.0590051,0.000954606,-0.0976473,1.04899,0.0169724,0.0180135,3.5122,5,0.1,4,0.1,0.334794,2.41855,0.613964,0.016767,-0.000549853,-0.000414252,0.298079,-0.00977516,-0.00736117,0.0165856,0.28156,5,0.1,5,0.1,-2.25673,3.90664,0.536827,0.0446975,0.00425316,0.00187391,0.794619,0.0756234,0.0333153,0.00988893,2.01915,5,0.1,6,0.1,-0.517205,-4.29221,0.538767,-0.0106691,0.0582807,0.00153678,-0.189673,1.03608,0.0273176,0.0101941,3.51219,5,0.1,7,0.1,-2.52862,-3.65124,0.65569,0.0260644,0.0148691,-0.00165179,0.463367,0.264347,-0.0293702,0.00899378,0.903033,5,0.1,8,0.1,-3.70576,0.354378,0.619723,0.0164866,0.0295353,-0.00058515,0.293076,0.52507,-0.0104047,0.0163848,1.14431,5,0.1,9,0.1,1.28717,-0.624415,0.638152,-0.0592502,-0.00133356,-0.000581425,-1.05334,-0.023704,-0.0103377,0.00840854,3.51219,5,0.1,10,0.1,-3.81992,-0.453561,0.590481,0.0561275,-0.0190363,0.000134576,0.997841,-0.338422,0.00239536,0.0172888,3.5122,5,0.1,11,0.1,3.52165,2.39993,0.544301,-0.0154749,0.0178006,0.00165245,-0.275105,0.316456,0.0293739,0.0229874,0.558991,5,0.1,12,0.1,2.1151,-0.0699716,0.510109,-0.0271469,0.0421236,-0.0017833,-0.482589,0.748864,-0.0317022,0.0195093,2.51413,5,0.1,13,0.1,1.99952,-1.02616,0.616013,-0.0198182,0.0558559,-0.000334438,-0.352323,0.992984,-0.00594184,0.0153926,3.5122,5,0.1,14,0.1,4.05572,-0.129023,0.593924,0.0094831,-0.0248373,0.000372808,0.168562,-0.441552,0.00662729,0.00886285,0.706841,5,0.1,15,0.1,-4.28448,3.98854,0.540958,0.0592619,-0.00076741,0.000511855,1.05351,-0.0136495,0.00909716,0.0141068,3.5122,5,0.1,16,0.1,-0.192549,3.8193,0.694739,-0.0209867,0.00684373,0.00163941,-0.373095,0.121668,0.0291504,0.0100339,0.489885,5,0.1,17,0.1,-1.14839,-3.76815,0.646157,-0.00480413,0.0590716,-0.000442006,-0.0853986,1.05016,-0.00786036,0.0101973,3.51219,5,0.1,18,0.1,-4.09474,-2.25688,0.656212,0.0280261,0.0180028,-0.00166763,0.498235,0.320047,-0.0296459,0.00870859,1.11216,5,0.1,19,0.1,-2.73294,3.2539,0.61966,0.0276756,-0.0253316,-0.000583101,0.491992,-0.450328,-0.0103675,0.00956028,1.40773,5,0.1
0,0.2,0.509708,-3.78229,0.624204,-0.00563264,0.0596404,0.0684604,-0.0422001,0.447273,0.513464,0.00823576,0.679638,5,0.1,1,0.2,-3.41917,3.00031,0.69205,0.124431,-0.0566244,0.00546575,0.93329,-0.424743,0.041008,0.0109219,1.53731,5,0.1,2,0.2,-1.39544,-2.80355,0.675946,0.13479,0.130022,0.00384599,1.01089,0.975013,0.0288486,0.0149481,2.9258,5,0.1,3,0.2,3.67258,-1.00192,0.685259,-0.0173628,0.186487,0.00301749,-0.130177,1.39862,0.02262,0.0164349,2.9258,5,0.1,4,0.2,0.3382,2.41844,0.613879,0.0529915,-0.00174046,-0.00130981,0.397444,-0.0129938,-0.00980496,0.0170824,0.231006,5,0.1,5,0.2,-2.24766,3.9075,0.537207,0.141269,0.0134408,0.00592321,1.05941,0.100732,0.0444055,0.0225293,1.65662,5,0.1,6,0.2,-0.519372,-4.28038,0.539079,-0.0337213,0.18419,0.00485629,-0.252873,1.38164,0.0364184,0.0220494,2.92577,5,0.1,7,0.2,-2.52332,-3.64822,0.655354,0.0823796,0.0469983,-0.00522137,0.617743,0.352383,-0.0391603,0.0138572,0.740897,5,0.1,8,0.2,-3.70241,0.360377,0.619605,0.0521064,0.0933461,-0.00184923,0.390887,0.700086,-0.0138581,0.0167672,0.938849,5,0.1,9,0.2,1.27513,-0.624686,0.638034,-0.18726,-0.00421405,-0.00183731,-1.40446,-0.0316203,-0.0137985,0.00991385,2.92579,5,0.1,10,0.2,-3.80851,-0.457428,0.590509,0.177389,-0.0601642,0.000426173,1.33049,-0.451237,0.00315905,0.0179387,2.92579,5,0.1,11,0.2,3.5185,2.40355,0.544636,-0.0489056,0.0562608,0.00522137,-0.366807,0.422001,0.0391901,0.0250727,0.458623,5,0.1,12,0.2,2.10959,-0.0614152,0.509747,-0.0857949,0.133131,-0.00563562,-0.643611,0.998486,-0.0422597,0.0216179,2.06279,5,0.1,13,0.2,1.9955,-1.01482,0.615945,-0.0626355,0.176531,-0.001055,-0.469744,1.32403,-0.00795722,0.0209799,2.92579,5,0.1,14,0.2,4.05765,-0.134068,0.594,0.0299692,-0.0784982,0.00118017,0.224829,-0.58873,0.00879169,0.00982545,0.579927,5,0.1,15,0.2,-4.27244,3.98838,0.541061,0.18729,-0.00242591,0.00161827,1.40476,-0.0181198,0.0121295,0.0143571,2.92616,5,0.1,16,0.2,-0.196812,3.82069,0.695072,-0.0663277,0.0216305,0.00518113,-0.497468,0.162125,0.0388324,0.0110417,0.401927,5,0.1,17,0.2,-1.14937,-3.75615,0.646067,-0.0151843,0.186694,-0.00139624,-0.113785,1.40023,-0.0104904,0.0111002,2.92579,5,0.1,18,0.2,-4.08905,-2.25322,0.655874,0.0885725,0.0568986,-0.00527054,0.664473,0.426769,-0.0395179,0.0110956,0.912467,5,0.1,19,0.2,-2.72732,3.24875,0.619541,0.0874698,-0.080061,-0.00184327,0.656009,-0.600338,-0.0138283,0.011576,1.15498,5,0.1
0,0.3,0.50891,-3.77385,0.6339,-0.0104747,0.110949,0.12736,-0.0516661,0.547349,0.628307,0.00823576,0.679638,5,0.1,1,0.3,-3.40155,2.99229,0.692825,0.231487,-0.105346,0.0101694,1.142,-0.519708,0.0501685,0.0109219,1.53731,5,0.1,2,0.3,-1.37634,-2.78513,0.676491,0.251053,0.242161,0.00716364,1.24238,1.19834,0.0354461,0.0149481,2.9258,5,0.1,3,0.3,3.67012,-0.97549,0.685686,-0.0323355,0.347342,0.00561932,-0.160009,1.71889,0.0278018,0.0164349,2.9258,5,0.1,4,0.3,0.345705,2.41819,0.613694,0.0985826,-0.00323281,-0.00243513,0.486338,-0.0159144,-0.0120066,0.0170824,0.231006,5,0.1,5,0.3,-2.22765,3.90941,0.538046,0.262798,0.0249986,0.0110176,1.29643,0.123307,0.0543483,0.0225293,1.65662,5,0.1,6,0.3,-0.52415,-4.25427,0.539767,-0.062805,0.343083,0.00904473,-0.31079,1.6979,0.0447594,0.0220494,2.92577,5,0.1,7,0.3,-2.51166,-3.64156,0.654615,0.153245,0.0874225,-0.00971332,0.755981,0.431255,-0.0479221,0.0138572,0.740897,5,0.1,8,0.3,-3.69503,0.373598,0.619343,0.0969417,0.173654,-0.00343937,0.478268,0.856688,-0.016965,0.0167672,0.938849,5,0.1,9,0.3,1.24859,-0.625283,0.637774,-0.348786,-0.00785021,-0.00342373,-1.72605,-0.0388585,-0.0169501,0.00991385,2.92579,5,0.1,10,0.3,-3.78338,-0.465954,0.590569,0.330406,-0.11206,0.000790786,1.63512,-0.554556,0.00390038,0.0179387,2.92579,5,0.1,11,0.3,3.51158,2.41152,0.545376,-0.0909828,0.104667,0.00971612,-0.448853,0.516355,0.0479445,0.0250727,0.458623,5,0.1,12,0.3,2.09743,-0.0425597,0.508975,-0.159619,0.247669,-0.00972906,-0.787497,1.22182,-0.0382997,0.0216179,2.06279,5,0.1,13,0.3,1.98662,-0.989803,0.615796,-0.11666,0.328805,-0.00196882,-0.577316,1.62717,-0.00975281,0.0209799,2.92579,5,0.1,14,0.3,4.06189,-0.145185,0.594167,0.0557557,-0.146032,0.00219038,0.275075,-0.720419,0.0107922,0.00982545,0.579927,5,0.1,15,0.3,-4.2459,3.9881,0.541308,0.348838,-0.00270903,0.00349293,1.72624,0.00974536,0.0234284,0.0143571,2.92616,5,0.1,16,0.3,-0.206206,3.82376,0.695806,-0.123392,0.040232,0.00963677,-0.608735,0.198439,0.0475347,0.0110417,0.401927,5,0.1,17,0.3,-1.15152,-3.72969,0.645869,-0.0282733,0.347732,-0.0026023,-0.139885,1.72083,-0.0128821,0.0111002,2.92579,5,0.1,18,0.3,-4.0765,-2.24516,0.655127,0.16479,0.105853,-0.00980385,0.812978,0.522211,-0.0483617,0.0110956,0.912467,5,0.1,19,0.3,-2.71493,3.23742,0.61928,0.162721,-0.148929,-0.00342941,0.80274,-0.734672,-0.016924,0.011576,1.15498,5,0.1
0,0.4,0.507609,-3.76006,0.649721,-0.015448,0.163621,0.187828,-0.0455678,0.483036,0.554323,0.014657,0.537737,5,0.1,1,0.4,-3.37279,2.9792,0.694088,0.341392,-0.15536,0.014998,1.00756,-0.458479,0.0442564,0.0220626,1.21633,5,0.1,2,0.4,-1.34513,-2.75502,0.677382,0.370756,0.357616,0.0105798,1.09845,1.05965,0.0313222,0.0165933,2.51009,5,0.1,3,0.4,3.6661,-0.932307,0.686385,-0.0477552,0.512952,0.00829846,-0.141382,1.51986,0.0245869,0.0226521,2.51473,5,0.1,4,0.4,0.357952,2.41779,0.613392,0.145387,-0.00476837,-0.00358969,0.429064,-0.0139475,-0.0106096,0.021775,0.182775,5,0.1,5,0.4,-2.195,3.91251,0.539415,0.387567,0.0368655,0.0162482,1.14369,0.108838,0.0479519,0.0117227,1.31074,5,0.1,6,0.4,-0.531959,-4.21162,0.540892,-0.0927493,0.506663,0.0133574,-0.274807,1.50132,0.0395775,0.0169121,2.51256,5,0.1,7,0.4,-2.49262,-3.6307,0.653408,0.225997,0.128931,-0.0143245,0.666976,0.380397,-0.0422895,0.0135212,0.586209,5,0.1,8,0.4,-3.68299,0.395171,0.618915,0.142968,0.2561,-0.00507236,0.422001,0.755802,-0.0149608,0.0184038,0.742825,5,0.1,9,0.4,1.20523,-0.626259,0.637348,-0.515085,-0.0115931,-0.00505596,-1.52618,-0.0343621,-0.0149906,0.00926817,2.5156,5,0.1,10,0.4,-3.7423,-0.479885,0.590667,0.487942,-0.16549,0.00116676,1.44577,-0.490338,0.00345707,0.0196652,2.51007,5,0.1,11,0.4,3.50027,2.42452,0.546583,-0.134182,0.154364,0.014329,-0.396013,0.455379,0.0423193,0.029253,0.362866,5,0.1,12,0.4,2.0776,-0.0117921,0.507826,-0.235403,0.365255,-0.0130758,-0.694752,1.07794,-0.0277162,0.0239502,1.63257,5,0.1,13,0.4,1.97212,-0.948925,0.615551,-0.172284,0.48558,-0.00290871,-0.510454,1.43868,-0.00861287,0.0207871,2.51007,5,0.1,14,0.4,4.06882,-0.163327,0.594439,0.0822306,-0.215365,0.00322908,0.24271,-0.635579,0.00953674,0.00761908,0.458843,5,0.1,15,0.4,-4.20253,3.98791,0.54178,0.515139,-0.000959635,0.00596642,1.52659,0.0228882,0.0245273,0.0151658,2.51585,5,0.1,16,0.4,-0.221535,3.82876,0.697003,-0.181976,0.0593305,0.0142112,-0.537045,0.175118,0.0419617,0.0146381,0.322524,5,0.1,17,0.4,-1.15503,-3.68646,0.645546,-0.0417531,0.51353,-0.0038445,-0.123739,1.52159,-0.0113547,0.0128763,2.51496,5,0.1,18,0.4,-4.05603,-2.23201,0.653909,0.243032,0.156105,-0.0144586,0.717163,0.460863,-0.0426769,0.0137958,0.721946,5,0.1,19,0.4,-2.69471,3.21892,0.618854,0.239974,-0.219637,-0.00505745,0.708342,-0.648141,-0.014931,0.0106234,0.913835,5,0.1
0,0.5,0.505832,-3.74124,0.671326,-0.0200721,0.212626,0.244069,-0.0446476,0.473052,0.542913,0.014657,0.537737,5,0.1,1,0.5,-3.33352,2.96133,0.695813,0.443617,-0.201877,0.0194881,0.986785,-0.449046,0.04334,0.0220626,1.21633,5,0.1,2,0.5,-1.30241,-2.71381,0.678601,0.483792,0.466657,0.0138035,1.10413,1.06511,0.0314862,0.0165933,2.51009,5,0.1,3,0.5,3.6606,-0.873416,0.687341,-0.0623062,0.663081,0.0108283,-0.142157,1.414,0.0247136,0.0226521,2.51473,5,0.1,4,0.5,0.374675,2.41724,0.612979,0.18892,-0.00618622,-0.00466611,0.420235,-0.0137091,-0.0103936,0.021775,0.182775,5,0.1,5,0.5,-2.15042,3.91675,0.541284,0.503609,0.0479087,0.0211137,1.12021,0.106603,0.0469722,0.0117227,1.31074,5,0.1,6,0.5,-0.542647,-4.15339,0.542431,-0.121028,0.656547,0.0174302,-0.276227,1.4255,0.0397824,0.0169121,2.51256,5,0.1,7,0.5,-2.46662,-3.61587,0.65176,0.293669,0.167529,-0.0186149,0.653252,0.372618,-0.0414103,0.0135212,0.586209,5,0.1,8,0.5,-3.66655,0.424629,0.618332,0.185781,0.332784,-0.0065906,0.413254,0.740252,-0.0146553,0.0184038,0.742825,5,0.1,9,0.5,1.14611,-0.627595,0.636766,-0.6653,-0.0151287,-0.00659795,-1.4101,-0.0345297,-0.0150613,0.00926817,2.5156,5,0.1,10,0.5,-3.68607,-0.498956,0.590802,0.636715,-0.215947,0.0015229,1.45316,-0.49285,0.00348687,0.0196652,2.51007,5,0.1,11,0.5,3.48484,2.44227,0.548231,-0.17436,0.20057,0.0186217,-0.387862,0.446066,0.0414364,0.029253,0.362866,5,0.1,12,0.5,2.05053,0.0302217,0.506419,-0.30589,0.474623,-0.0147063,-0.680402,1.05576,-0.00599027,0.0239502,1.63257,5,0.1,13,0.5,1.95226,-0.892969,0.615216,-0.224812,0.633624,-0.00379486,-0.513084,1.44608,-0.00865385,0.0207871,2.51007,5,0.1,14,0.5,4.07828,-0.188099,0.594811,0.106853,-0.27985,0.0041971,0.237703,-0.622504,0.00935048,0.00761908,0.458843,5,0.1,15,0.5,-4.1434,3.98795,0.542507,0.665371,0.0019446,0.00863615,1.41007,0.0331402,0.0273436,0.0151658,2.51585,5,0.1,16,0.5,-0.242266,3.83558,0.698637,-0.230763,0.0770986,0.0184686,-0.424634,0.171542,0.0410937,0.0146381,0.322524,5,0.1,17,0.5,-1.15984,-3.62751,0.645103,-0.0544868,0.663682,-0.00501359,-0.12438,1.41294,-0.0114255,0.0128763,2.51496,5,0.1,18,0.5,-4.02807,-2.21405,0.652246,0.315795,0.20286,-0.0187885,0.702396,0.451326,-0.0417978,0.0137958,0.721946,5,0.1,19,0.5,-2.66711,3.19365,0.618272,0.31184,-0.2854,-0.00657206,0.693709,-0.634849,-0.0146218,0.0106234,0.913835,5,0.1
0,0.6,0.503619,-3.71779,0.698243,-0.0239909,0.254142,0.291711,-0.0321269,0.340223,0.390589,0.0103215,0.400327,5,0.1,1,0.6,-3.2846,2.93907,0.697962,0.530213,-0.24128,0.023292,0.709772,-0.323057,0.031203,0.012623,0.90552,5,0.1,2,0.6,-1.24889,-2.66219,0.680128,0.581652,0.561059,0.0165954,0.812054,0.783324,0.0231564,0.0159621,2.21916,5,0.1,3,0.6,3.6537,-0.800668,0.688539,-0.0749052,0.784396,0.0130191,-0.104666,0.967473,0.0181794,0.0231591,2.33058,5,0.1,4,0.6,0.39551,2.41656,0.612464,0.225797,-0.00739098,-0.0055775,0.3023,-0.00989437,-0.00748038,0.0196927,0.232747,5,0.1,5,0.6,-2.09488,3.92204,0.543612,0.601912,0.0572622,0.0252351,0.805974,0.0767708,0.0337958,0.0104315,0.975825,5,0.1,6,0.6,-0.556035,-4.08121,0.544359,-0.145511,0.779939,0.0209555,-0.203103,0.995159,0.0292957,0.0137711,2.31874,5,0.1,7,0.6,-2.43424,-3.5974,0.649707,0.351,0.200224,-0.0222489,0.469804,0.268221,-0.0298023,0.0138637,0.436422,5,0.1,8,0.6,-3.64606,0.461329,0.617605,0.222045,0.397744,-0.00787824,0.297308,0.532538,-0.0105202,0.0154246,0.553011,5,0.1,9,0.6,1.07318,-0.629269,0.636036,-0.785908,-0.0181898,-0.00793338,-0.958085,-0.0253618,-0.0110567,0.00949045,2.33471,5,0.1,10,0.6,-3.61564,-0.522844,0.59097,0.765514,-0.25963,0.00183135,1.06859,-0.362426,0.002563,0.0179027,2.45363,5,0.1,11,0.6,3.46561,2.46439,0.550285,-0.208402,0.239718,0.0222564,-0.278831,0.320792,0.0298321,0.0359684,0.270147,5,0.1,12,0.6,2.01679,0.0825646,0.504947,-0.365597,0.56727,-0.0144795,-0.489473,0.759486,0.00956655,0.0252896,1.216,5,0.1,13,0.6,1.92739,-0.822877,0.614796,-0.270286,0.761795,-0.00456125,-0.377357,1.06341,-0.0063777,0.0193073,2.28099,5,0.1,14,0.6,4.09006,-0.218962,0.595274,0.127709,-0.334478,0.00501722,0.170946,-0.447825,0.00673532,0.0106103,0.341597,5,0.1,15,0.6,-4.07046,3.98831,0.543502,0.785959,0.00530481,0.0111729,0.957727,0.0325441,0.0222623,0.0175536,2.33489,5,0.1,16,0.6,-0.267186,3.84408,0.700674,-0.264604,0.0921547,0.0220761,-0.243247,0.123262,0.0295341,0.0110812,0.167734,5,0.1,17,0.6,-1.16587,-3.55471,0.644548,-0.0655085,0.784808,-0.00602603,-0.0915527,0.96488,-0.00840425,0.0120405,2.33169,5,0.1,18,0.6,-3.99325,-2.19168,0.650174,0.377429,0.242466,-0.022456,0.505447,0.324607,-0.0300705,0.0135837,0.537463,5,0.1,19,0.6,-2.63272,3.16218,0.617548,0.37272,-0.341105,-0.00785589,0.498891,-0.456929,-0.0104904,0.0116687,0.680328,5,0.1
0,0.7,0.501062,-3.69071,0.729334,-0.0270755,0.286805,0.329208,-0.0278018,0.294343,0.337921,0.0103215,0.400327,5,0.1,1,0.7,-3.22809,2.91336,0.700445,0.598354,-0.272293,0.0262871,0.614077,-0.279486,0.026986,0.012623,0.90552,5,0.1,2,0.7,-1.18661,-2.60211,0.681905,0.663167,0.639689,0.0189203,0.766821,0.739679,0.0218712,0.0159621,2.21916,5,0.1,3,0.7,3.64568,-0.718449,0.689933,-0.0854086,0.849986,0.0148434,-0.0987798,0.370357,0.0171587,0.0231591,2.33058,5,0.1,4,0.7,0.419824,2.41576,0.611862,0.261882,-0.00862107,-0.00650547,0.386851,-0.0135303,-0.0101924,0.0196927,0.232747,5,0.1,5,0.7,-2.03073,3.92814,0.546302,0.679287,0.0646312,0.0284797,0.69733,0.0664145,0.0292435,0.0104315,0.975825,5,0.1,6,0.7,-0.571615,-3.99929,0.546603,-0.165898,0.84844,0.0238951,-0.191767,0.396863,0.0276417,0.0137711,2.31874,5,0.1,7,0.7,-2.39683,-3.57606,0.647336,0.396105,0.225973,-0.0251099,0.406519,0.232041,-0.025779,0.0138637,0.436422,5,0.1,8,0.7,-3.62239,0.50372,0.616766,0.250585,0.448869,-0.00888882,0.257194,0.460746,-0.00911579,0.0154246,0.553011,5,0.1,9,0.7,0.990855,-0.631216,0.635186,-0.85051,-0.0207357,-0.00904324,-0.361353,-0.0239462,-0.0104345,0.00949045,2.33471,5,0.1,10,0.7,-3.53536,-0.550643,0.591166,0.825005,-0.296012,0.00208868,0.171825,-0.34225,0.00242516,0.0179027,2.45363,5,0.1,11,0.7,3.4434,2.48994,0.552657,-0.235173,0.270518,0.0251193,-0.24128,0.277594,0.0257939,0.0359684,0.270147,5,0.1,12,0.7,1.97783,0.143024,0.503568,-0.412587,0.640184,-0.0129228,-0.423469,0.6571,0.0205263,0.0252896,1.216,5,0.1,13,0.7,1.89845,-0.742324,0.614308,-0.308166,0.839855,-0.00520097,-0.356331,0.50104,-0.00601634,0.0193073,2.28099,5,0.1,14,0.7,4.10367,-0.25461,0.595808,0.144119,-0.37747,0.00566402,0.147909,-0.387453,0.00583008,0.0106103,0.341597,5,0.1,15,0.7,-3.98813,3.98901,0.544734,0.850527,0.00873357,0.0134508,0.36107,0.0343919,0.0219904,0.0175536,2.33489,5,0.1,16,0.7,-0.294286,3.8539,0.703027,-0.272096,0.103991,0.0249118,0.0749994,0.106692,0.0255555,0.0110812,0.167734,5,0.1,17,0.7,-1.17289,-3.47246,0.643903,-0.0746958,0.850129,-0.00686981,-0.0863969,0.36791,-0.00794232,0.0120405,2.33169,5,0.1,18,0.7,-3.95302,-2.16584,0.647781,0.42595,0.273628,-0.025343,0.43726,0.280827,-0.0260174,0.0135837,0.537463,5,0.1,19,0.7,-2.593,3.12582,0.61671,0.420616,-0.38497,-0.00886321,0.431657,-0.395313,-0.00908226,0.0116687,0.680328,5,0.1
0,0.8,0.498234,-3.66076,0.763713,-0.0292562,0.309885,0.355701,-0.0145882,0.154495,0.177473,0.0120506,0.28265,5,0.1,1,0.8,-3.1656,2.88492,0.70319,0.646502,-0.294203,0.0284031,0.322461,-0.146866,0.0141859,0.0114803,0.639347,5,0.1,2,0.8,-1.11688,-2.53485,0.683894,0.726318,0.700605,0.0207216,0.460505,0.444293,0.0131428,0.0145298,2.0419,5,0.1,3,0.8,3.6367,-0.632338,0.691494,-0.0935435,0.866026,0.0162572,-0.059247,0,0.0102818,0.0254854,2.26497,5,0.1,4,0.8,0.447866,2.41483,0.611162,0.297556,-0.00990033,-0.00746399,0.30306,-0.0109673,-0.00831485,0.0206987,0.183024,5,0.1,5,0.8,-1.95979,3.93489,0.549276,0.73396,0.0698388,0.0307724,0.366151,0.0349283,0.0153482,0.0115789,0.688985,5,0.1,6,0.8,-0.589059,-3.91323,0.549116,-0.18169,0.866026,0.0261724,-0.115156,0,0.0165701,0.0112072,2.24612,5,0.1,7,0.8,-2.35546,-3.55246,0.644714,0.427973,0.244164,-0.0271305,0.213623,0.121951,-0.0135303,0.0113653,0.308143,5,0.1,8,0.8,-3.59622,0.550597,0.615838,0.270748,0.484993,-0.0096038,0.135064,0.241935,-0.00476837,0.0159337,0.390452,5,0.1,9,0.8,0.904725,-0.633397,0.634236,-0.866026,-0.0227064,-0.00990331,0,-0.0143945,-0.00625849,0.0114892,2.27145,5,0.1,10,0.8,-3.45314,-0.581768,0.591386,0.809085,-0.324196,0.00228882,-0.448823,-0.205576,0.00146031,0.0201603,2.58991,5,0.1,11,0.8,3.41884,2.51819,0.555281,-0.254089,0.292283,0.0271425,-0.126719,0.145793,0.0135005,0.0278791,0.190748,5,0.1,12,0.8,1.93474,0.209879,0.502389,-0.445786,0.691702,-0.0105649,-0.222385,0.345051,0.0258386,0.0242321,0.859283,5,0.1,13,0.8,1.86605,-0.65669,0.613761,-0.337511,0.86484,-0.00569671,-0.213981,0.0237226,-0.00360608,0.0166243,2.18718,5,0.1,14,0.8,4.11872,-0.29403,0.5964,0.155723,-0.407848,0.0061214,0.077486,-0.20346,0.00303984,0.00945905,0.241185,5,0.1,15,0.8,-3.902,3.99005,0.546179,0.866026,0.0118971,0.0153497,0,0.0275373,0.01508,0.0162704,2.27156,5,0.1,16,0.8,-0.320722,3.86476,0.705629,-0.253046,0.112355,0.026916,0.290006,0.0560284,0.0134408,0.00885305,0.279834,5,0.1,17,0.8,-1.18074,-3.38635,0.643181,-0.0818133,0.86602,-0.0075236,-0.0517964,0.000119209,-0.00476837,0.0103219,2.26671,5,0.1,18,0.8,-3.90854,-2.13726,0.645134,0.460231,0.295645,-0.0273824,0.229597,0.147343,-0.0136793,0.0101327,0.379466,5,0.1,19,0.8,-2.54907,3.08562,0.615785,0.454456,-0.415957,-0.00957549,0.226736,-0.207782,-0.00476837,0.00964526,0.480347,5,0.1
0,0.9,0.495239,-3.62903,0.80013,-0.0305786,0.323884,0.371782,-0.0104569,0.110656,0.127114,0.0120506,0.28265,5,0.1,1,0.9,-3.09942,2.8548,0.706098,0.675722,-0.30751,0.0296882,0.230983,-0.105172,0.0101589,0.0114803,0.639347,5,0.1,2,0.9,-1.04185,-2.46248,0.686035,0.774031,0.746636,0.0220833,0.444565,0.42887,0.0126883,0.0145298,2.0419,5,0.1,3,0.9,3.62704,-0.545735,0.693173,-0.0996608,0.866026,0.0173189,-0.0568181,-3.57628e-06,0.00985712,0.0254854,2.26497,5,0.1,4,0.9,0.47856,2.41379,0.610374,0.311051,-0.0109859,-0.00828533,-0.013601,-0.00998378,-0.00754371,0.0206987,0.183024,5,0.1,5,0.9,-1.88465,3.94204,0.552427,0.767139,0.073003,0.0321632,0.262283,0.0250041,0.0109971,0.0115789,0.688985,5,0.1,6,0.9,-0.607827,-3.82663,0.551819,-0.193597,0.866026,0.0278859,-0.110742,0,0.0159405,0.0112072,2.24612,5,0.1,7,0.9,-2.31165,-3.52746,0.641936,0.44733,0.255214,-0.0283564,0.15302,0.0873208,-0.00968948,0.0113653,0.308143,5,0.1,8,0.9,-3.5685,0.60025,0.614854,0.282986,0.506915,-0.0100365,0.0967383,0.173297,-0.00341982,0.0159337,0.390452,5,0.1,9,0.9,0.818123,-0.635742,0.633213,-0.866026,-0.0241914,-0.0105493,3.72529e-06,-0.0137798,-0.00599772,0.0114892,2.27145,5,0.1,10,0.9,-3.37567,-0.615258,0.591622,0.731437,-0.345442,0.00243988,-0.995412,-0.1975,0.00140071,0.0201603,2.58991,5,0.1,11,0.9,3.39283,2.54811,0.558059,-0.265573,0.305496,0.0283656,-0.0907928,0.104457,0.00966713,0.0278791,0.190748,5,0.1,12,0.9,1.8891,0.280695,0.501464,-0.465936,0.722969,-0.00791643,-0.159264,0.24716,0.0264868,0.0242321,0.859283,5,0.1,13,0.9,1.83119,-0.570133,0.613172,-0.359631,0.865952,-0.00606934,-0.205658,0.00296354,-0.00346079,0.0166243,2.18718,5,0.1,14,0.9,4.13467,-0.335786,0.597027,0.162746,-0.426284,0.00639744,0.0554919,-0.145737,0.00218302,0.00945905,0.241185,5,0.1,15,0.9,-3.8154,3.99138,0.547792,0.866026,0.0146773,0.0168883,0,0.0266284,0.0144877,0.0162704,2.27156,5,0.1,16,0.9,-0.344321,3.87637,0.708409,-0.216745,0.120323,0.0288262,0.421075,0.0914335,0.0219084,0.00885305,0.279834,5,0.1,17,0.9,-1.18919,-3.29975,0.642404,-0.0871683,0.866025,-0.00801664,-0.0497922,1.49012e-05,-0.00458211,0.0103219,2.26671,5,0.1,18,0.9,-3.86142,-2.107,0.642331,0.481034,0.308997,-0.0286218,0.164434,0.105545,-0.00979751,0.0101327,0.379466,5,0.1,19,0.9,-2.50254,3.04303,0.614805,0.475001,-0.434782,-0.0100076,0.162408,-0.148803,-0.00341982,0.00964526,0.480347,5,0.1
0,1,0.492145,-3.59626,0.837747,-0.0311144,0.329548,0.378293,0.000655651,-0.00703335,-0.00816584,0.00786444,0.192213,5,0.1,1,1,-3.03105,2.82368,0.709102,0.687551,-0.312901,0.0302076,-0.0149012,0.00679493,-0.000625849,0.0111042,0.434777,5,0.1,2,1,-0.962579,-2.38601,0.688297,0.806908,0.778353,0.0230208,0.178993,0.172734,0.005126,0.0100299,1.95382,5,0.1,3,1,3.61684,-0.459133,0.694946,-0.103843,0.866025,0.0180453,-0.0225306,1.43051e-05,0.0038743,0.0185715,2.26428,5,0.1,4,1,0.509207,2.41265,0.609513,0.298372,-0.0117779,-0.00887662,-0.224173,-0.00500679,-0.00393391,0.0198048,0.14328,5,0.1,5,1,-1.80703,3.94943,0.555681,0.780573,0.0742853,0.0327259,-0.0168085,-0.00166893,-0.000685453,0.0100298,0.468536,5,0.1,6,1,-0.627651,-3.74003,0.554675,-0.201766,0.866026,0.0290602,-0.0441968,0,0.0063777,0.0151767,2.24338,5,0.1,7,1,-2.26638,-3.50164,0.639067,0.455177,0.259691,-0.0288531,-0.00989437,-0.00560284,0.000625849,0.011273,0.209544,5,0.1,8,1,-3.53987,0.65154,0.613839,0.287938,0.515792,-0.0102118,-0.00631809,-0.0111461,0.000238419,0.0125203,0.265519,5,0.1,9,1,0.73152,-0.638219,0.632133,-0.866026,-0.0252068,-0.0109896,0,-0.00539422,-0.00238419,0.0113386,2.2714,5,0.1,10,1,-3.30771,-0.650629,0.591872,0.627238,-0.360002,0.00254363,-1.02508,-0.0786483,0.000566244,0.0208173,2.75063,5,0.1,11,1,3.36596,2.57902,0.560929,-0.270224,0.31085,0.0288591,0.00584126,-0.00679493,-0.000625849,0.0273115,0.129721,5,0.1,12,1,1.84196,0.353845,0.500802,-0.474095,0.735629,-0.00537634,0.0103712,-0.0158989,0.0238419,0.0215953,0.585144,5,0.1,13,1,1.79436,-0.483532,0.612551,-0.374797,0.866025,-0.00632405,-0.0819564,1.43051e-05,-0.00140071,0.0169614,2.17804,5,0.1,14,1,4.15113,-0.378917,0.597674,0.165582,-0.433749,0.00650883,-0.00357628,0.00935793,-0.000119209,0.0104904,0.164017,5,0.1,15,1,-3.7288,3.99297,0.549544,0.866026,0.0169754,0.0180438,0,0.018239,0.00780821,0.0158296,2.27143,5,0.1,16,1,-0.363776,3.88884,0.711396,-0.171537,0.128585,0.0308067,0.470996,0.0653267,0.0156164,0.0153961,0.148926,5,0.1,17,1,-1.19812,-3.21314,0.641583,-0.0908405,0.866026,-0.00835657,-0.0198483,0,-0.00178814,0.0143232,2.26617,5,0.1,18,1,-3.81275,-2.07573,0.639435,0.489455,0.314397,-0.0291243,-0.0106096,-0.00679493,0.000655651,0.0121711,0.258047,5,0.1,19,1,-2.45448,2.99904,0.613792,0.483316,-0.442404,-0.010182,-0.0103712,0.00941753,0.000208616,0.0116238,0.326643,5,0.1
0,1.1,0.489038,-3.56336,0.875519,-0.0309797,0.32811,0.376634,0.00317954,-0.0337809,-0.0388399,0.00786444,0.192213,5,0.1,1,1.1,-2.9624,2.79244,0.712118,0.684532,-0.311525,0.030077,-0.0706166,0.0321567,-0.00308827,0.0111042,0.434777,5,0.1,2,1.1,-0.880809,-2.30714,0.69063,0.829064,0.79973,0.0236545,0.214815,0.207245,0.00613928,0.0100299,1.95382,5,0.1,3,1.1,3.60632,-0.37253,0.696774,-0.106571,0.866025,0.0185162,-0.0258833,-1.78814e-06,0.00447035,0.0185715,2.26428,5,0.1,4,1.1,0.53754,2.41145,0.608607,0.265407,-0.0121906,-0.00919867,-0.398535,-0.00277162,-0.00216067,0.0198048,0.14328,5,0.1,5,1.1,-1.72909,3.95684,0.558949,0.777156,0.0739548,0.032584,-0.0801086,-0.0076741,-0.00334531,0.0100298,0.468536,5,0.1,6,1.1,-0.648092,-3.65343,0.557619,-0.207168,0.866026,0.0298391,-0.051707,0,0.00745431,0.0151767,2.24338,5,0.1,7,1.1,-2.22094,-3.47571,0.636186,0.453176,0.258553,-0.0287264,-0.0467598,-0.026688,0.00296906,0.011273,0.209544,5,0.1,8,1.1,-3.51112,0.703041,0.612819,0.286667,0.51353,-0.0101657,-0.0296235,-0.052955,0.00105426,0.0125203,0.265519,5,0.1,9,1.1,0.644917,-0.640772,0.63102,-0.866026,-0.0258605,-0.0112772,3.72529e-06,-0.00618771,-0.00271946,0.0113386,2.2714,5,0.1,10,1.1,-3.25006,-0.687094,0.59213,0.530007,-0.369459,0.00261143,-0.788629,-0.0892244,0.00064075,0.0208173,2.75063,5,0.1,11,1.1,3.33897,2.61006,0.563811,-0.269039,0.309481,0.028732,0.0277311,-0.0319481,-0.00296533,0.0273115,0.129721,5,0.1,12,1.1,1.79462,0.427297,0.500376,-0.472006,0.732403,-0.00322992,0.0487715,-0.0755282,0.0188909,0.0215953,0.585144,5,0.1,13,1.1,1.75639,-0.39693,0.61191,-0.384709,0.866025,-0.00649253,-0.094004,-1.78814e-06,-0.0015907,0.0169614,2.17804,5,0.1,14,1.1,4.16766,-0.422227,0.598324,0.164857,-0.431848,0.00648238,-0.0169575,0.0445265,-0.000648201,0.0104904,0.164017,5,0.1,15,1.1,-3.6422,3.99476,0.551391,0.866026,0.0188157,0.018888,0,0.0172257,0.00791997,0.0158296,2.27143,5,0.1,16,1.1,-0.378575,3.90209,0.714571,-0.124667,0.136922,0.032801,0.45708,0.0893176,0.0213683,0.0153961,0.148926,5,0.1,17,1.1,-1.20732,-3.12654,0.640736,-0.0932654,0.866026,-0.00857683,-0.0231937,0,-0.00211224,0.0143232,2.26617,5,0.1,18,1.1,-3.76388,-2.04434,0.636527,0.487306,0.313018,-0.0289943,-0.0503063,-0.032261,0.00301003,0.0121711,0.258047,5,0.1,19,1.1,-2.40622,2.95486,0.612775,0.481202,-0.440474,-0.0101384,-0.0495762,0.0453591,0.00103563,0.0116238,0.326643,5,0.1
0,1.2,0.485968,-3.53084,0.912846,-0.0302896,0.320792,0.36823,0.0113547,-0.120401,-0.138313,0.0122987,0.127808,5,0.1,1,1.2,-2.89455,2.76157,0.715099,0.669259,-0.304574,0.029406,-0.251412,0.11456,-0.0110269,0.012106,0.621469,5,0.1,2,1.2,-0.7971,-2.22639,0.693018,0.841507,0.811738,0.0240117,-0.000327826,-0.000357628,-2.98023e-05,0.013182,1.92287,5,0.1,3,1.2,3.59557,-0.285928,0.698641,-0.107974,0.866025,0.0187576,0.00226498,1.43051e-05,-0.00038743,0.0251804,2.26416,5,0.1,4,1.2,0.562032,2.41022,0.607682,0.224462,-0.0122547,-0.00925064,-0.399023,0.00178814,0.0012815,0.0197159,0.172543,5,0.1,5,1.2,-1.65207,3.96417,0.562178,0.759822,0.0722945,0.0318587,-0.285447,-0.0270605,-0.0119507,0.0115606,0.311551,5,0.1,6,1.2,-0.668998,-3.56682,0.56063,-0.210051,0.866026,0.0302553,0.00244379,0,-0.00038743,0.0127534,2.24267,5,0.1,7,1.2,-2.17602,-3.45008,0.633339,0.443059,0.252783,-0.0280842,-0.166297,-0.0950098,0.01055,0.0100548,0.139336,5,0.1,8,1.2,-3.48271,0.753935,0.611812,0.280267,0.502072,-0.00993907,-0.1055,-0.188619,0.00372529,0.0159974,0.176557,5,0.1,9,1.2,0.558315,-0.64338,0.629882,-0.866026,-0.0261918,-0.0114232,0,0.000625849,0.000238419,0.0137939,2.27139,5,0.1,10,1.2,-3.2,-0.724361,0.592393,0.48117,-0.374243,0.00264645,-0.202417,0.00831485,-5.96046e-05,0.0165676,2.67253,5,0.1,11,1.2,3.31231,2.64073,0.566658,-0.263035,0.302577,0.0280902,0.0987053,-0.113726,-0.01055,0.0282871,0.17826,5,0.1,12,1.2,1.74784,0.499883,0.500138,-0.461465,0.716062,-0.00162423,0.17339,-0.268966,0.0132322,0.0232498,0.389927,5,0.1,13,1.2,1.71758,-0.310327,0.611255,-0.389823,0.866025,-0.00657886,0.00727177,1.43051e-05,0.000119209,0.0159806,2.17648,5,0.1,14,1.2,4.184,-0.465025,0.598966,0.161171,-0.422214,0.00633895,-0.0603199,0.158608,-0.00235438,0.0121176,0.109063,5,0.1,15,1.2,-3.55559,3.99672,0.553311,0.866026,0.0201881,0.0194326,0,0.00953674,0.00217557,0.018828,2.27137,5,0.1,16,1.2,-0.388842,3.91619,0.717948,-0.0816971,0.144386,0.0345871,0.395879,0.05126,0.0122488,0.0129838,0.257924,5,0.1,17,1.2,-1.21673,-3.03994,0.639871,-0.0945538,0.866026,-0.00869334,0.00113249,0,8.9407e-05,0.0139467,2.26603,5,0.1,18,1.2,-3.71558,-2.01332,0.633653,0.476426,0.306028,-0.0283465,-0.178933,-0.114799,0.0106692,0.0119749,0.281502,5,0.1,19,1.2,-2.35853,2.91121,0.611771,0.470471,-0.43065,-0.00991225,-0.176787,0.161767,0.00369549,0.0127312,0.217191,5,0.1
0,1.3,0.482994,-3.49935,0.948992,-0.0291669,0.308887,0.354556,0.012042,-0.127658,-0.146605,0.0122987,0.127808,5,0.1,1,1.3,-2.82854,2.73167,0.717986,0.653296,-0.293252,0.0283152,-0.108391,0.121355,-0.0117049,0.012106,0.621469,5,0.1,2,1.3,-0.712687,-2.14496,0.695427,0.848099,0.818092,0.0241984,0.0819229,0.0789762,0.00232458,0.013182,1.92287,5,0.1,3,1.3,3.58475,-0.199325,0.70052,-0.108482,0.866025,0.0188465,-0.00630319,-2.98023e-07,0.00110641,0.0251804,2.26416,5,0.1,4,1.3,0.582495,2.409,0.606763,0.18642,-0.0120815,-0.00912258,-0.307884,0.00219047,0.0016503,0.0197159,0.172543,5,0.1,5,1.3,-1.57748,3.97127,0.565306,0.731604,0.0696171,0.030677,-0.302516,-0.0287145,-0.0126734,0.0115606,0.311551,5,0.1,6,1.3,-0.690052,-3.48022,0.563662,-0.211326,0.866026,0.0304358,-0.0157692,0,0.00225008,0.0127534,2.24267,5,0.1,7,1.3,-2.13253,-3.42527,0.630582,0.426618,0.243391,-0.0270413,-0.176296,-0.100672,0.0111833,0.0100548,0.139336,5,0.1,8,1.3,-3.4552,0.80322,0.610836,0.269842,0.483427,-0.00957083,-0.111729,-0.199899,0.00394881,0.0159974,0.176557,5,0.1,9,1.3,0.471712,-0.646003,0.628738,-0.866026,-0.0263041,-0.0114748,3.57628e-06,-0.00140071,-0.000625849,0.0137939,2.27139,5,0.1,10,1.3,-3.15147,-0.761837,0.592658,0.501103,-0.375685,0.00265641,0.497997,-0.0165701,0.000115484,0.0165676,2.67253,5,0.1,11,1.3,3.28678,2.67044,0.569416,-0.245006,0.291337,0.0270472,0.251681,-0.120476,-0.011187,0.0282871,0.17826,5,0.1,12,1.3,1.70254,0.570173,0.500032,-0.444325,0.689473,-0.000594743,0.183746,-0.285067,0.00759214,0.0232498,0.389927,5,0.1,13,1.3,1.67853,-0.223725,0.610596,-0.391667,0.866025,-0.00660997,-0.0222027,0,-0.000372529,0.0159806,2.17648,5,0.1,14,1.3,4.19982,-0.506471,0.599589,0.155205,-0.406535,0.00610575,-0.0640154,0.1681,-0.00251085,0.0121176,0.109063,5,0.1,15,1.3,-3.46899,3.99879,0.55527,0.866026,0.0211988,0.0197574,0,0.00937283,0.0031963,0.018828,2.27137,5,0.1,16,1.3,-0.395173,3.93082,0.721453,-0.0464467,0.147546,0.0353415,0.305088,0.00849366,0.00202283,0.0129838,0.257924,5,0.1,17,1.3,-1.22621,-2.95334,0.638999,-0.0951221,0.866026,-0.00874698,-0.0070259,0,-0.000663102,0.0139467,2.26603,5,0.1,18,1.3,-3.66866,-1.98328,0.630871,0.46318,0.294676,-0.027292,-0.110656,-0.121742,0.0112951,0.0119749,0.281502,5,0.1,19,1.3,-2.31235,2.86894,0.610797,0.452996,-0.414656,-0.00954652,-0.187337,0.171497,0.00393018,0.0127312,0.217191,5,0.1
0,1.4,0.480145,-3.46917,0.983625,-0.0277251,0.293601,0.337009,0.0174195,-0.184417,-0.211924,0.0103295,0.143319,5,0.1,1,1.4,-2.76379,2.70303,0.720752,0.640607,-0.278729,0.0269145,-0.174284,0.175357,-0.0169277,0.0142047,0.450139,5,0.1,2,1.4,-0.627668,-2.06295,0.697852,0.849333,0.819278,0.0242323,-0.0925362,-0.0893474,-0.00265241,0.0120696,2.00476,5,0.1,3,1.4,3.5739,-0.112723,0.702406,-0.108194,0.866026,0.0187963,0.0163317,-3.57628e-06,-0.00280142,0.0239078,2.26435,5,0.1,4,1.4,0.6,2.40781,0.605862,0.167702,-0.0117362,-0.00885874,-0.072211,0.005126,0.0038445,0.0203785,0.117532,5,0.1,5,1.4,-1.50602,3.97807,0.568302,0.695395,0.066179,0.0291601,-0.437319,-0.041604,-0.0183582,0.0117662,2.53063,5,0.1,6,1.4,-0.711212,-3.39362,0.56671,-0.211136,0.866026,0.0304058,0.0281632,0,-0.00405312,0.0118946,2.24307,5,0.1,7,1.4,-2.09086,-3.40149,0.627941,0.405508,0.231344,-0.0257015,-0.254869,-0.145555,0.0161231,0.00857252,0.156188,5,0.1,8,1.4,-3.42884,0.850441,0.609901,0.256473,0.459501,-0.00909865,-0.16129,-0.288963,0.00569224,0.015108,0.116216,5,0.1,9,1.4,0.38511,-0.648634,0.62759,-0.866025,-0.0262216,-0.0114396,-1.43051e-05,0.00411272,0.00178814,0.0107245,2.27141,5,0.1,10,1.4,-3.09841,-0.799392,0.592924,0.562614,-0.374062,0.00264645,0.653744,0.0634193,-0.000476837,0.0182091,2.43508,5,0.1,11,1.4,3.26372,2.69889,0.572058,-0.214612,0.276917,0.0257075,0.347376,-0.174046,-0.0161529,0.0270549,0.13828,5,0.1,12,1.4,1.65914,0.637521,0.500002,-0.422332,0.655352,-5.96046e-05,0.265598,-0.412107,0.00336766,0.0227043,0.257509,5,0.1,13,1.4,1.63935,-0.137122,0.609935,-0.390536,0.866025,-0.00658929,0.0601411,0,0.000983477,0.0181531,1.86795,5,0.1,14,1.4,4.21499,-0.546181,0.600185,0.147533,-0.386414,0.00580549,-0.0925064,0.242978,-0.00363588,0.00957732,0.122252,5,0.1,15,1.4,-3.38239,4.00094,0.557256,0.866026,0.0218511,0.0198781,0,0.0026226,-0.00151992,0.0173275,2.27135,5,0.1,16,1.4,-0.398465,3.94553,0.724975,-0.02115,0.145555,0.0348642,0.200182,-0.0501871,-0.0120699,0.0102636,0.250512,5,0.1,17,1.4,-1.23573,-2.86673,0.638124,-0.0950277,0.866026,-0.00873953,0.0127554,0,0.00116229,0.0191313,2.26611,5,0.1,18,1.4,-3.62295,-1.95449,0.628205,0.450081,0.2801,-0.0259399,-0.1688,-0.176072,0.0163019,0.0114495,0.198545,5,0.1,19,1.4,-2.2681,2.82843,0.609865,0.430572,-0.394136,-0.00907481,-0.270724,0.248075,0.00569224,0.00957566,0.229103,5,0.1
0,1.5,0.477442,-3.44057,1.01648,-0.026476,0.279759,0.32181,0.0092797,-0.10927,-0.112962,0.0103295,0.143319,5,0.1,1,1.5,-2.70041,2.676,0.723362,0.628053,-0.262005,0.0252996,-0.109062,0.167072,-0.016138,0.0142047,0.450139,5,0.1,2,1.5,-0.54382,-1.9811,0.70027,0.821645,0.820027,0.0241544,-0.452233,0.0510961,-0.00026077,0.0120696,2.00476,5,0.1,3,1.5,3.56312,-0.0261202,0.704278,-0.107474,0.866025,0.0186741,0.00415742,-5.96046e-07,-0.000692904,0.0239078,2.26435,5,0.1,4,1.5,0.616857,2.40666,0.604997,0.173042,-0.0111721,-0.00843294,0.145007,0.0063777,0.00484288,0.0203785,0.117532,5,0.1,5,1.5,-1.43738,3.98455,0.571116,0.687829,0.0638757,0.0270125,0.190355,-0.0100285,-0.0245422,0.0117662,2.53063,5,0.1,6,1.5,-0.732258,-3.30701,0.569741,-0.210217,0.866026,0.0302738,0.00244007,0,-0.000350177,0.0118946,2.24307,5,0.1,7,1.5,-2.05132,-3.37894,0.625435,0.387231,0.220904,-0.0245454,-0.135839,-0.0775903,0.00859052,0.00857252,0.156188,5,0.1,8,1.5,-3.40397,0.895002,0.609019,0.241088,0.431938,-0.00855532,-0.153705,-0.275351,0.00543147,0.015108,0.116216,5,0.1,9,1.5,0.298507,-0.651244,0.626451,-0.866025,-0.0260274,-0.0113552,1.78814e-06,0.00122562,0.000540167,0.0107245,2.27141,5,0.1,10,1.5,-3.0382,-0.836618,0.593187,0.646263,-0.37128,0.00262456,0.933796,0.0138916,-0.000115484,0.0182091,2.43508,5,0.1,11,1.5,3.24411,2.72589,0.574564,-0.176845,0.264439,0.0245488,0.399083,-0.0927001,-0.00860915,0.0270549,0.13828,5,0.1,12,1.5,1.61819,0.701075,0.500009,-0.396998,0.616042,0.000153203,0.253089,-0.392698,0.00105426,0.0227043,0.257509,5,0.1,13,1.5,1.60052,-0.0505195,0.609279,-0.386556,0.866025,-0.00652429,0.0385121,-7.15256e-06,0.000633299,0.0181531,1.86795,5,0.1,14,1.5,4.22937,-0.583857,0.600751,0.140901,-0.368988,0.00554472,-0.049293,0.129495,-0.00193715,0.00957732,0.122252,5,0.1,15,1.5,-3.29579,4.00315,0.559242,0.866026,0.0222258,0.0198698,0,0.00360608,0.000238419,0.0173275,2.27135,5,0.1,16,1.5,-0.399745,3.95979,0.728392,-0.00598617,0.139328,0.033369,0.107996,-0.0762343,-0.0182875,0.0102636,0.250512,5,0.1,17,1.5,-1.2452,-2.78013,0.637252,-0.0946049,0.866026,-0.00870172,0.00120699,0,9.68575e-05,0.0191313,2.26611,5,0.1,18,1.5,-3.57867,-1.92733,0.625689,0.436014,0.263304,-0.0243848,-0.132337,-0.167817,0.0155345,0.0114495,0.198545,5,0.1,19,1.5,-2.22635,2.79006,0.608985,0.404748,-0.37492,-0.00853147,-0.257999,0.157341,0.00543147,0.00957566,0.229103,5,0.1
0,1.6,0.474839,-3.41313,1.04812,-0.0255726,0.268847,0.310808,0.0100583,-0.120997,-0.122249,0.00810338,0.234154,5,0.1,1,1.6,-2.63826,2.65067,0.725807,0.613302,-0.243992,0.0235602,-0.208497,0.198483,-0.0191927,0.010162,0.320026,5,0.1,2,1.6,-0.464445,-1.89897,0.702679,0.760821,0.820377,0.0239506,-0.753925,-0.0819564,-0.00479817,0.0121839,2.25732,5,0.1,3,1.6,3.55242,0.0604823,0.706138,-0.106329,0.866025,0.0184774,0.0228882,-1.19209e-06,-0.00399351,0.0167922,2.2647,5,0.1,4,1.6,0.635015,2.40558,0.60418,0.190759,-0.0104249,-0.00786334,0.18391,0.00882149,0.00664592,0.0213844,0.157528,5,0.1,5,1.6,-1.36725,3.9909,0.573685,0.716677,0.0631988,0.0242695,0.314295,-0.00762939,-0.03016,0.00780916,2.73989,5,0.1,6,1.6,-0.753228,-3.22041,0.572761,-0.208563,0.866026,0.0300363,0.0392497,0,-0.00569224,0.00979664,2.24393,5,0.1,7,1.6,-2.01325,-3.35722,0.623021,0.374001,0.213349,-0.0237077,-0.147104,-0.0840425,0.00932813,0.00809559,0.090501,5,0.1,8,1.6,-3.38067,0.936755,0.608192,0.224519,0.402251,-0.00797063,-0.182509,-0.32714,0.00649691,0.0123643,0.130591,5,0.1,9,1.6,0.211905,-0.653836,0.625321,-0.866025,-0.0257283,-0.0112236,0,0.00581145,0.0025034,0.00786028,2.27144,5,0.1,10,1.6,-2.96902,-0.873613,0.593449,0.734586,-0.367586,0.00259727,0.770092,0.0753701,-0.000566244,0.0132962,2.25711,5,0.1,11,1.6,3.22844,2.75189,0.576978,-0.136393,0.255412,0.0237092,0.402689,-0.100493,-0.00932813,0.0240114,0.168797,5,0.1,12,1.6,1.57981,0.760624,0.500027,-0.36971,0.573702,0.000183284,0.300646,-0.466615,-0.000327826,0.018407,0.170108,5,0.1,13,1.6,1.56215,0.0360829,0.608632,-0.379601,0.866022,-0.0064075,0.113845,-6.4373e-05,0.00190735,0.0135321,1.42949,5,0.1,14,1.6,4.24323,-0.620135,0.601297,0.136089,-0.356376,0.00535697,-0.0531673,0.14016,-0.00214577,0.00866539,0.0708346,5,0.1,15,1.6,-3.20918,4.00538,0.561226,0.866026,0.0223637,0.0197381,0,-0.00190735,-0.00366569,0.0143001,2.27136,5,0.1,16,1.6,-0.399922,3.97329,0.731624,0.00136495,0.130033,0.0311419,0.0432581,-0.110745,-0.0265539,0.00820642,0.494655,5,0.1,17,1.6,-1.25464,-2.69353,0.636384,-0.0938505,0.866026,-0.00863373,0.0177622,0,0.00163913,0.0122947,2.26629,5,0.1,18,1.6,-3.5358,-1.90188,0.623332,0.420249,0.245208,-0.0227094,-0.196576,-0.199378,0.0184476,0.0111218,0.137375,5,0.1,19,1.6,-2.18722,2.75334,0.60816,0.376934,-0.359046,-0.00794679,-0.306606,0.175238,0.00649691,0.00935424,0.160852,5,0.1
0,1.7,0.472326,-3.38711,1.07867,-0.024725,0.249077,0.300506,0.00801124,-0.265107,-0.0973791,0.00810338,0.234154,5,0.1,1,1.7,-2.57799,2.6272,0.728085,0.59155,-0.225934,0.0221438,-0.243708,0.170559,-0.0106283,0.010162,0.320026,5,0.1,2,1.7,-0.392877,-1.81698,0.705059,0.664372,0.821741,0.02371,-1.12456,0.0559762,-0.00140816,0.0121839,2.25732,5,0.1,3,1.7,3.54186,0.147085,0.707973,-0.105049,0.866025,0.0182537,0.00870228,7.45058e-07,-0.00152737,0.0167922,2.2647,5,0.1,4,1.7,0.655278,2.40458,0.603429,0.216388,-0.00947788,-0.00714809,0.298351,0.0101328,0.00766665,0.0213844,0.157528,5,0.1,5,1.7,-1.29505,3.99714,0.575966,0.717667,0.061116,0.0214057,-0.265338,-0.0335127,-0.0275075,0.00780916,2.73989,5,0.1,6,1.7,-0.773969,-3.13381,0.575747,-0.206749,0.866026,0.029772,0.00925735,0,-0.00135601,0.00979664,2.24393,5,0.1,7,1.7,-1.97649,-3.33625,0.620691,0.361604,0.206267,-0.0229212,-0.117183,-0.0669062,0.00743195,0.00809559,0.090501,5,0.1,8,1.7,-3.35897,0.975618,0.607422,0.210518,0.377155,-0.00747237,-0.110641,-0.198364,0.00393391,0.0123643,0.130591,5,0.1,9,1.7,0.125302,-0.656389,0.624207,-0.866025,-0.0253876,-0.0110771,-1.49012e-07,0.00243261,0.00104681,0.00786028,2.27144,5,0.1,10,1.7,-2.89185,-0.91013,0.593707,0.806311,-0.363582,0.00256654,0.620723,0.0256598,-0.000201166,0.0132962,2.25711,5,0.1,11,1.7,3.21677,2.77708,0.579316,-0.0975143,0.249504,0.0231602,0.369504,-0.0352263,-0.00328198,0.0240114,0.168797,5,0.1,12,1.7,1.54427,0.815772,0.500043,-0.341525,0.52996,0.000129268,0.273153,-0.423901,-0.000700355,0.018407,0.170108,5,0.1,13,1.7,1.5247,0.12268,0.608,-0.369585,0.865772,-0.0062393,0.101894,-0.0100058,0.00172108,0.0135321,1.42949,5,0.1,14,1.7,4.2566,-0.655159,0.601823,0.131603,-0.344565,0.00517629,-0.0424683,0.111647,-0.00169873,0.00866539,0.0708346,5,0.1,15,1.7,-3.12258,4.00761,0.563188,0.866026,0.0223301,0.0195393,0,2.98023e-05,-0.00139326,0.0143001,2.27136,5,0.1,16,1.7,-0.399526,3.98573,0.734603,0.00670939,0.118542,0.0283876,0.0525583,-0.120088,-0.0287741,0.00820642,0.494655,5,0.1,17,1.7,-1.26397,-2.60693,0.635526,-0.0930237,0.866026,-0.00855727,0.00426918,0,0.000391155,0.0122947,2.26629,5,0.1,18,1.7,-3.49468,-1.87831,0.621149,0.402696,0.226515,-0.0209795,-0.170559,-0.181161,0.0167638,0.0111218,0.137375,5,0.1,19,1.7,-2.15099,2.71819,0.607396,0.348192,-0.344828,-0.00733826,-0.278533,0.125989,0.00589341,0.00935424,0.160852,5,0.1
0,1.8,0.469897,-3.3637,1.10818,-0.0237815,0.217575,0.289032,0.0116676,-0.356793,-0.141621,0.00768468,0.222103,5,0.1,1,1.8,-2.52023,2.60546,0.73025,0.561732,-0.208545,0.0211731,-0.363708,0.182748,-0.00980496,0.011185,0.232523,5,0.1,2,1.8,-0.332336,-1.73465,0.707419,0.544702,0.822455,0.0234321,-1.23145,-0.0796318,-0.005126,0.00957724,2.49443,5,0.1,3,1.8,3.53142,0.233687,0.709787,-0.103563,0.866025,0.0179961,0.0251532,1.43051e-05,-0.00441074,0.0167773,2.26508,5,0.1,4,1.8,0.678393,2.40369,0.602754,0.24517,-0.00839829,-0.0063315,0.255018,0.0113249,0.00864267,0.0176752,0.100388,5,0.1,5,1.8,-1.22537,4.00304,0.577971,0.669134,0.0566006,0.0187024,-0.679255,-0.0555515,-0.0268221,0.0080681,3.10595,5,0.1,6,1.8,-0.794565,-3.04721,0.578713,-0.204621,0.866026,0.0294641,0.0419915,0,-0.00607967,0.00946321,2.24491,5,0.1,7,1.8,-1.94098,-3.31599,0.61844,0.347793,0.198382,-0.0220448,-0.17029,-0.0971556,0.0107884,0.00762366,0.124766,5,0.1,8,1.8,-3.33845,1.0124,0.606693,0.200111,0.358498,-0.00710189,-0.107169,-0.191987,0.00378489,0.0111571,0.0753206,5,0.1,9,1.8,0.0386997,-0.658911,0.623106,-0.866025,-0.0249967,-0.0109076,-1.19209e-06,0.0064373,0.00280142,0.00701956,2.27147,5,0.1,10,1.8,-2.80863,-0.946302,0.593962,0.852221,-0.358877,0.00253171,0.276089,0.0832081,-0.000566244,0.014298,2.20173,5,0.1,11,1.8,3.20878,2.80185,0.581615,-0.0633776,0.245363,0.0227749,0.309467,-0.0600815,-0.00560284,0.0246259,0.263278,5,0.1,12,1.8,1.51151,0.866615,0.500052,-0.313383,0.486286,5.21541e-05,0.296593,-0.460237,-0.000804663,0.021242,0.113094,5,0.1,13,1.8,1.48833,0.209127,0.607386,-0.356629,0.862008,-0.00602007,0.167787,-0.0803697,0.00283122,0.0132842,1.06794,5,0.1,14,1.8,4.26953,-0.689,0.602331,0.126588,-0.331408,0.00497699,-0.0617504,0.162333,-0.00244379,0.00749065,0.0537283,5,0.1,15,1.8,-3.03598,4.00984,0.565131,0.866026,0.022161,0.0192732,0,-0.00429153,-0.00470877,0.0141198,2.27139,5,0.1,16,1.8,-0.398647,3.99696,0.737292,0.0101477,0.10587,0.0253513,0.00999868,-0.133991,-0.0320375,0.00846946,0.404704,5,0.1,17,1.8,-1.27324,-2.52032,0.634673,-0.0920564,0.866026,-0.00846833,0.0190139,0,0.00172853,0.0108834,2.26649,5,0.1,18,1.8,-3.45533,-1.85657,0.619136,0.383419,0.20785,-0.0192523,-0.226021,-0.196755,0.0182092,0.0105733,0.187885,5,0.1,19,1.8,-2.11758,2.68437,0.606692,0.319493,-0.330973,-0.00673234,-0.302315,0.163078,0.0064075,0.00749628,0.111536,5,0.1
0,1.9,0.467583,-3.34386,1.13631,-0.0224365,0.178339,0.272701,0.0154618,-0.417069,-0.187822,0.00768468,0.222103,5,0.1,1,1.9,-2.46591,2.58546,0.732342,0.523842,-0.191834,0.0208239,-0.402734,0.157863,0.00083819,0.011185,0.232523,5,0.1,2,1.9,-0.284189,-1.65246,0.709746,0.418296,0.823585,0.0231709,-1.23134,0.0498667,-0.00148267,0.00957724,2.49443,5,0.1,3,1.9,3.52115,0.32029,0.711572,-0.102094,0.866025,0.0177377,0.0101328,-1.78814e-06,-0.00178441,0.0167773,2.26508,5,0.1,4,1.9,0.704213,2.40291,0.602164,0.27102,-0.00726953,-0.00547124,0.242449,0.0112355,0.00856444,0.0176752,0.100388,5,0.1,5,1.9,-1.16269,4.00842,0.579717,0.57766,0.0508942,0.0163021,-1.08684,-0.0588,-0.0217333,0.0080681,3.10595,5,0.1,6,1.9,-0.814901,-2.9606,0.581641,-0.202625,0.866026,0.0291745,0.0101179,0,-0.00147149,0.00946321,2.24491,5,0.1,7,1.9,-1.90703,-3.29655,0.616288,0.331231,0.191199,-0.0209953,-0.171296,-0.057593,0.0108592,0.00762366,0.124766,5,0.1,8,1.9,-3.31891,1.04739,0.606,0.190983,0.342149,-0.00677956,-0.083968,-0.150427,0.00296906,0.0111571,0.0753206,5,0.1,9,1.9,-0.0479028,-0.661388,0.622025,-0.866025,-0.024602,-0.0107357,-1.49012e-06,0.00286102,0.0012517,0.00701956,2.27147,5,0.1,10,1.9,-2.72256,-0.981913,0.594213,0.865163,-0.354213,0.00250079,0.0345111,0.0306666,-0.000193715,0.014298,2.20173,5,0.1,11,1.9,3.20386,2.82604,0.58386,-0.0362266,0.237907,0.0220804,0.232413,-0.0942945,-0.00877678,0.0246259,0.263278,5,0.1,12,1.9,1.48157,0.913067,0.500054,-0.285905,0.443647,-1.71363e-05,0.261493,-0.40577,-0.000581145,0.021242,0.113094,5,0.1,13,1.9,1.45343,0.295025,0.606808,-0.341804,0.855971,-0.00543939,0.142716,-0.078615,0.00828877,0.0132842,1.06794,5,0.1,14,1.9,4.28192,-0.721443,0.602818,0.121549,-0.318176,0.00477787,-0.0452399,0.118531,-0.00178069,0.00749065,0.0537283,5,0.1,15,1.9,-2.94938,4.01204,0.567042,0.866026,0.0219166,0.0189818,0,-0.00184774,-0.00217557,0.0141198,2.27139,5,0.1,16,1.9,-0.39761,4.00687,0.739667,0.00994229,0.092385,0.0221265,-0.0284966,-0.13563,-0.0324547,0.00846946,0.404704,5,0.1,17,1.9,-1.28239,-2.43372,0.633832,-0.0911465,0.866026,-0.00838647,0.00465661,0,0.000413507,0.0108834,2.26649,5,0.1,18,1.9,-3.41788,-1.83672,0.617297,0.367191,0.189621,-0.017565,-0.121623,-0.173487,0.0160597,0.0105733,0.187885,5,0.1,19,1.9,-2.08707,2.652,0.606049,0.291483,-0.316866,-0.00613919,-0.266552,0.13265,0.00563636,0.00749628,0.111536,5,0.1
0,2,0.465425,-3.32813,1.16255,-0.020656,0.136089,0.251064,0.0202656,-0.419497,-0.246108,0.00843971,0.417817,5,0.1,1,2,-2.41566,2.56707,0.734432,0.479823,-0.175887,0.0209957,-0.482678,0.165462,0.00113249,0.0106754,0.176916,5,0.1,2,2,-0.248109,-1.56999,0.712053,0.308263,0.823465,0.0229001,-0.936404,-0.0894666,-0.00494719,0.0100863,2.60915,5,0.1,3,2,3.511,0.406893,0.713334,-0.100535,0.866025,0.0174657,0.0253916,1.43051e-05,-0.00441074,0.0175646,2.26547,5,0.1,4,2,0.732376,2.40224,0.60166,0.290357,-0.0061512,-0.00462085,0.130773,0.0110865,0.00846386,0.0177989,0.17036,5,0.1,5,2,-1.11061,4.01321,0.581243,0.462642,0.0447989,0.0142604,-1.16807,-0.0631809,-0.0195503,0.00775339,3.38985,5,0.1,6,2,-0.835084,-2.874,0.584547,-0.200514,0.866026,0.028868,0.0407696,0,-0.00584126,0.00891011,2.24585,5,0.1,7,2,-1.87483,-3.27773,0.614247,0.311813,0.184965,-0.0197649,-0.223875,-0.0749826,0.0142157,0.00808,0.266358,5,0.1,8,2,-3.30025,1.08082,0.605337,0.181854,0.32579,-0.00645816,-0.104785,-0.187576,0.00375509,0.0110375,0.116051,5,0.1,9,2,-0.134505,-0.663831,0.62096,-0.866025,-0.0241846,-0.010553,0,0.0064373,0.00283122,0.00842961,2.2715,5,0.1,10,2,-2.63598,-1.01713,0.594462,0.866026,-0.349221,0.00246763,0,0.0837445,-0.000596046,0.0132173,2.19722,5,0.1,11,2,3.20127,2.84927,0.586016,-0.0169575,0.225663,0.0209421,0.153542,-0.15378,-0.0142753,0.0232728,0.249912,5,0.1,12,2,1.45429,0.955405,0.500049,-0.259644,0.402895,-6.55651e-05,0.269711,-0.418425,-0.000357628,0.0189847,0.134421,5,0.1,13,2,1.42001,0.379977,0.606311,-0.325722,0.83985,-0.00445396,0.188649,-0.269904,0.0110269,0.0131257,0.797759,5,0.1,14,2,4.29384,-0.752632,0.603287,0.116491,-0.304949,0.00457913,-0.0600815,0.157267,-0.00235438,0.00697346,0.0239498,5,0.1,15,2,-2.86277,4.01422,0.568926,0.866026,0.0216007,0.0186577,0,-0.00572205,-0.0050962,0.0136834,2.27143,5,0.1,16,2,-0.396904,4.01543,0.741717,0.00258908,0.0787616,0.0188679,-0.122771,-0.136614,-0.0327229,0.00953275,3.63521,5,0.1,17,2,-1.29147,-2.34712,0.632996,-0.0901878,0.866026,-0.00829846,0.0184178,0,0.00166893,0.00873599,2.26668,5,0.1,18,2,-3.38175,-1.81862,0.615621,0.355113,0.172201,-0.0159532,-0.136495,-0.178933,0.0165999,0.0104331,0.143866,5,0.1,19,2,-2.05925,2.62102,0.605464,0.26471,-0.30213,-0.00557303,-0.274897,0.171423,0.00578165,0.00927791,0.132115,5,0.1
0,2.1,0.463454,-3.31665,1.18649,-0.0187962,0.0936229,0.228473,0.0175275,-0.413582,-0.21293,0.00843971,0.417817,5,0.1,1,2.1,-2.37005,2.55028,0.736553,0.432648,-0.160258,0.0215273,-0.467941,0.151277,0.0076443,0.0106754,0.176916,5,0.1,2,2.1,-0.221483,-1.48777,0.714327,0.231247,0.822669,0.0226398,-0.527519,0.0235662,-0.0015907,0.0100863,2.60915,5,0.1,3,2.1,3.50104,0.493495,0.715066,-0.0990424,0.866026,0.0172066,0.0102073,-1.93715e-06,-0.00176579,0.0175646,2.26547,5,0.1,4,2.1,0.762286,2.40167,0.601239,0.309291,-0.00508577,-0.0038092,0.218168,0.0102222,0.00777468,0.0177989,0.17036,5,0.1,5,2.1,-1.07034,4.01739,0.582582,0.343353,0.0388637,0.0125954,-1.13577,-0.0562668,-0.0143647,0.00775339,3.38985,5,0.1,6,2.1,-0.855016,-2.7874,0.587417,-0.198654,0.866026,0.0286027,0.00852719,0,-0.00120327,0.00891011,2.24585,5,0.1,7,2.1,-1.84476,-3.25979,0.612341,0.289606,0.171975,-0.0183551,-0.226676,-0.178382,0.0143871,0.00808,0.266358,5,0.1,8,2.1,-3.28253,1.1125,0.604709,0.172852,0.307946,-0.00610156,-0.0830442,-0.179164,0.00357255,0.0110375,0.116051,5,0.1,9,2.1,-0.221108,-0.666226,0.619914,-0.866025,-0.0237871,-0.0103772,-8.9407e-07,0.00286847,0.00127405,0.00842961,2.2715,5,0.1,10,2.1,-2.54937,-1.05177,0.594707,0.866026,-0.344565,0.00243457,0,0.0296757,-0.000212342,0.0132173,2.19722,5,0.1,11,2.1,3.20029,2.87105,0.588037,-0.00336394,0.209593,0.0194502,0.11301,-0.170708,-0.0158437,0.0232728,0.249912,5,0.1,12,2.1,1.42944,0.993726,0.500041,-0.239327,0.364478,-8.9407e-05,0.153683,-0.36104,-0.00013411,0.0189847,0.134421,5,0.1,13,2.1,1.38827,0.462501,0.605941,-0.310047,0.809037,-0.00278167,0.139594,-0.364628,0.0209808,0.0131257,0.797759,5,0.1,14,2.1,4.30519,-0.782349,0.603733,0.110487,-0.289246,0.00434387,-0.0632107,0.165168,-0.00247359,0.00697346,0.0239498,5,0.1,15,2.1,-2.77617,4.01636,0.570773,0.866026,0.0212304,0.0183302,0,-0.00283122,-0.00248477,0.0136834,2.27143,5,0.1,16,2.1,-0.39701,4.02279,0.743444,-0.00710003,0.069724,0.0157173,-0.247356,-0.0533462,-0.0302978,0.00953275,3.63521,5,0.1,17,2.1,-1.30043,-2.26051,0.632171,-0.0893431,0.866026,-0.00822302,0.00389665,0,0.000342727,0.00873599,2.26668,5,0.1,18,2.1,-3.34704,-1.80225,0.614104,0.337897,0.155773,-0.0144295,-0.210479,-0.154376,0.0143126,0.0104331,0.143866,5,0.1,19,2.1,-2.03395,2.5914,0.604931,0.242954,-0.292169,-0.00511575,-0.175387,0.0511706,0.00368059,0.00927791,0.132115,5,0.1
0,2.2,0.461662,-3.30924,1.20828,-0.0170499,0.0559986,0.207254,0.0178218,-0.328779,-0.216603,0.00686376,0.355508,5,0.1,1,2.2,-2.32915,2.53501,0.738742,0.38507,-0.144947,0.0222042,-0.488043,0.157952,0.00458956,0.00980361,0.138186,5,0.1,2,2.2,-0.2,-1.40554,0.71658,0.208024,0.819632,0.0223562,0.0393242,-0.119627,-0.00506639,0.00937205,1.98073,5,0.1,3,2.2,3.4912,0.580098,0.716775,-0.0975072,0.866026,0.0169411,0.0244379,0,-0.00426173,0.0180696,2.26585,5,0.1,4,2.2,0.79425,2.40122,0.600895,0.328866,-0.00410676,-0.00306815,0.151813,0.00929832,0.00709295,0.0152183,0.103747,5,0.1,5,2.2,-1.04113,4.021,0.583774,0.247532,0.0334263,0.0112802,-0.742316,-0.0526905,-0.0123978,0.00717865,3.39875,5,0.1,6,2.2,-0.874811,-2.7008,0.590267,-0.196742,0.866026,0.0283301,0.0382662,0,-0.00548363,0.00864453,2.2467,5,0.1,7,2.2,-1.81698,-3.24361,0.610581,0.265425,0.150508,-0.0168219,-0.261128,-0.245094,0.0165701,0.008322,0.254629,5,0.1,8,2.2,-3.26568,1.14235,0.604118,0.163925,0.288317,-0.00571162,-0.101089,-0.22012,0.00438094,0.0104471,0.145167,5,0.1,9,2.2,-0.30771,-0.668587,0.618884,-0.866025,-0.0233769,-0.0101969,-1.43051e-05,0.00628829,0.00277162,0.0108008,2.27152,5,0.1,10,2.2,-2.46277,-1.08604,0.594949,0.866026,-0.339812,0.00240207,0,0.0798106,-0.000596046,0.0132999,2.20082,5,0.1,11,2.2,3.20042,2.8911,0.589898,0.00488162,0.191039,0.0177279,0.0494719,-0.201941,-0.0187457,0.0208358,0.408812,5,0.1,12,2.2,1.40619,1.02839,0.500032,-0.225928,0.328791,-9.38773e-05,0.126958,-0.360489,2.98023e-05,0.0188747,0.170931,5,0.1,13,2.2,1.35798,0.541305,0.605775,-0.295281,0.76399,-0.00051111,0.166237,-0.547409,0.0233054,0.0116861,0.617835,5,0.1,14,2.2,4.31589,-0.810379,0.604154,0.103331,-0.270545,0.00406504,-0.082016,0.214219,-0.00324845,0.00763001,0.0141167,5,0.1,15,2.2,-2.68957,4.01847,0.572591,0.866026,0.0208259,0.0179857,0,-0.00619888,-0.0051558,0.0150408,2.10507,5,0.1,16,2.2,-0.4,4.02957,0.744868,-0.0633068,0.0664592,0.0128061,-0.86467,-0.0190735,-0.0278652,0.00957723,3.25406,5,0.1,17,2.2,-1.30933,-2.17391,0.631352,-0.0884771,0.866026,-0.00814497,0.0172853,0,0.00157952,0.00884883,2.26685,5,0.1,18,2.2,-3.31444,-1.78743,0.612731,0.312674,0.140512,-0.0130147,-0.295043,-0.154078,0.0143051,0.0100809,0.435197,5,0.1,19,2.2,-2.01047,2.5624,0.604436,0.226992,-0.287837,-0.00478029,-0.155091,0.0526905,0.00324845,0.00688254,0.0802765,5,0.1
0,2.3,0.460046,-3.30515,1.22792,-0.0152659,0.027689,0.185398,0.0180025,-0.223532,-0.221856,0.00686376,0.355508,5,0.1,1,2.3,-2.29289,2.52129,0.740981,0.341745,-0.129613,0.0225043,-0.391185,0.1508,0.000678003,0.00980361,0.138186,5,0.1,2,2.3,-0.177874,-1.32414,0.718796,0.243693,0.807905,0.0219916,0.593479,-0.146188,-0.00331923,0.00937205,1.98073,5,0.1,3,2.3,3.48153,0.6667,0.718455,-0.0960816,0.866026,0.0166921,0.00967085,-3.72529e-06,-0.00169128,0.0180696,2.26585,5,0.1,4,2.3,0.827912,2.40085,0.600623,0.344069,-0.00322275,-0.00240523,0.133235,0.00835955,0.00616908,0.0152183,0.103747,5,0.1,5,2.3,-1.01942,4.02407,0.584818,0.195232,0.0280529,0.00941027,-0.236489,-0.0542402,-0.0236779,0.00717865,3.39875,5,0.1,6,2.3,-0.894377,-2.61419,0.593085,-0.195102,0.866026,0.0280963,0.00647083,0,-0.000908971,0.00864453,2.2467,5,0.1,7,2.3,-1.79172,-3.22987,0.60898,0.239827,0.123585,-0.0151978,-0.254825,-0.286356,0.016164,0.008322,0.254629,5,0.1,8,2.3,-3.24992,1.17016,0.603567,0.150182,0.268478,-0.00531739,-0.170752,-0.187099,0.00371411,0.0104471,0.145167,5,0.1,9,2.3,-0.394313,-0.670903,0.617875,-0.866025,-0.0229866,-0.0100238,1.78814e-06,0.00283495,0.00125915,0.0108008,2.27152,5,0.1,10,2.3,-2.37617,-1.11976,0.595187,0.866026,-0.335497,0.00236919,0,0.0264049,-0.000204891,0.0132999,2.20082,5,0.1,11,2.3,3.20114,2.90918,0.591575,0.00899509,0.170228,0.0157961,0.0157058,-0.214458,-0.0199117,0.0208358,0.408812,5,0.1,12,2.3,1.3839,1.05973,0.500023,-0.222723,0.300289,-8.55885e-05,-0.0360906,-0.22874,0.000122935,0.0188747,0.170931,5,0.1,13,2.3,1.32925,0.614885,0.605862,-0.279426,0.70655,0.00242759,0.159673,-0.610009,0.0333861,0.0116861,0.617835,5,0.1,14,2.3,4.32582,-0.836381,0.604545,0.0952713,-0.249499,0.00374671,-0.0816286,0.213213,-0.00321865,0.00763001,0.0141167,5,0.1,15,2.3,-2.60297,4.02052,0.57437,0.866026,0.0203803,0.0176229,0,-0.00375509,-0.00303239,0.0150408,2.10507,5,0.1,16,2.3,-0.411287,4.03611,0.746347,-0.167006,0.0642017,0.0196246,-1.14048,-0.0274777,0.143252,0.00957723,3.25406,5,0.1,17,2.3,-1.31813,-2.08731,0.630542,-0.0877334,0.866026,-0.00807717,0.00295788,0,0.000268221,0.00884883,2.26685,5,0.1,18,2.3,-3.28491,-1.7741,0.611497,0.275815,0.126468,-0.0117115,-0.429481,-0.130787,0.0121333,0.0100809,0.435197,5,0.1,19,2.3,-1.98845,2.53392,0.603973,0.213896,-0.281211,-0.0045062,-0.116885,0.0873953,0.00244752,0.00688254,0.0802765,5,0.1
0,2.4,0.45861,-3.30324,1.24533,-0.0134289,0.0130415,0.162691,0.0188351,-0.0658035,-0.232995,0.00800586,0.742394,5,0.1,1,2.4,-2.2606,2.50908,0.743224,0.304639,-0.114447,0.0222206,-0.360131,0.153542,-0.00679493,0.0109627,0.208341,5,0.1,2,2.4,-0.150169,-1.24433,0.720974,0.312497,0.785172,0.0215054,0.72093,-0.329375,-0.00718236,0.00808338,1.53056,5,0.1,3,2.4,3.47198,0.753303,0.720113,-0.0946105,0.866026,0.0164375,0.0234842,0,-0.00411272,0.016163,2.26621,5,0.1,4,2.4,0.862827,2.40057,0.600411,0.352317,-0.00244379,-0.00183433,0.0187457,0.00739098,0.00530481,0.017626,0.0791839,5,0.1,5,2.4,-1,4.02661,0.585631,0.20334,0.0226855,0.00678301,0.362545,-0.0531673,-0.0278652,0.0073316,3.3367,5,0.1,6,2.4,-0.913827,-2.52759,0.595886,-0.193407,0.866026,0.0278533,0.0359714,0,-0.0051558,0.00868061,2.24747,5,0.1,7,2.4,-1.76902,-3.21897,0.607542,0.213817,0.0944912,-0.0135496,-0.267982,-0.289798,0.0170171,0.0080117,0.249824,5,0.1,8,2.4,-3.23584,1.19606,0.603054,0.130403,0.249135,-0.00493377,-0.221491,-0.207007,0.00408292,0.0101477,0.252982,5,0.1,9,2.4,-0.480916,-0.673184,0.61688,-0.866025,-0.0225857,-0.00984669,-1.43051e-05,0.00613928,0.00268221,0.00842238,2.17632,5,0.1,10,2.4,-2.28957,-1.15313,0.595423,0.866026,-0.331122,0.0023365,0,0.0752807,-0.000536442,0.0116476,2.20418,5,0.1,11,2.4,3.20196,2.92511,0.593054,0.00572205,0.148153,0.0137463,-0.087142,-0.226855,-0.0210404,0.0212296,0.590493,5,0.1,12,2.4,1.36136,1.08871,0.500015,-0.228468,0.279698,-7.00355e-05,-0.0587702,-0.197291,0.000149012,0.0185052,0.106911,5,0.1,13,2.4,1.30215,0.682331,0.606274,-0.26187,0.640674,0.00580102,0.197291,-0.712037,0.0325143,0.0128893,0.515986,5,0.1,14,2.4,4.33493,-0.860224,0.604903,0.0866175,-0.226866,0.00340492,-0.0932217,0.243336,-0.00363588,0.00865861,0.00439238,5,0.1,15,2.4,-2.51636,4.02254,0.576114,0.866026,0.019896,0.0172213,0,-0.00691414,-0.00569224,0.0119023,1.67866,5,0.1,16,2.4,-0.433679,4.04237,0.749166,-0.279386,0.0607371,0.0377253,-1.05584,-0.0426769,0.202388,0.00949058,3.19664,5,0.1,17,2.4,-1.32688,-2.00071,0.629737,-0.0869691,0.866026,-0.00800639,0.0162721,-5.96046e-05,0.00146031,0.00991448,2.26626,5,0.1,18,2.4,-3.25961,-1.7621,0.610385,0.229096,0.113669,-0.0105247,-0.494123,-0.127912,0.0118613,0.00834057,0.258294,5,0.1,19,2.4,-1.96765,2.50634,0.603534,0.201902,-0.269121,-0.00425428,-0.130177,0.159025,0.00271201,0.0073203,0.198655,5,0.1
0,2.5,0.457359,-3.30215,1.26042,-0.01163,0.0116684,0.138766,0.0172909,0.0944734,-0.24537,0.00800586,0.742394,5,0.1,1,2.5,-2.2317,2.49839,0.745437,0.27508,-0.0996515,0.0222485,-0.246987,0.143558,0.00507012,0.0109627,0.208341,5,0.1,2,2.5,-0.114891,-1.16739,0.723092,0.395743,0.753672,0.0208808,0.88278,-0.326365,-0.00619888,0.00808338,1.53056,5,0.1,3,2.5,3.4626,0.839905,0.721743,-0.0932388,0.866026,0.0161966,0.00935793,-3.72529e-06,-0.00163913,0.016163,2.26621,5,0.1,4,2.5,0.89822,2.40036,0.600253,0.355688,-0.00176691,-0.00134911,0.0288449,0.00615418,0.00441074,0.017626,0.0791839,5,0.1,5,2.5,-0.977757,4.02838,0.585796,0.241846,0.010743,-0.00659134,0.382304,-0.170201,-0.215486,0.0073316,3.3367,5,0.1,6,2.5,-0.933069,-2.44099,0.598657,-0.191951,0.866026,0.0276456,0.00491366,0,-0.000692904,0.00868061,2.24747,5,0.1,7,2.5,-1.74895,-3.21093,0.60627,0.187962,0.066565,-0.0119084,-0.251643,-0.264555,0.0159666,0.0080117,0.249824,5,0.1,8,2.5,-3.224,1.21992,0.602582,0.105746,0.227882,-0.00451449,-0.263974,-0.220723,0.00435859,0.0101477,0.252982,5,0.1,9,2.5,-0.567518,-0.67542,0.615905,-0.866026,-0.0221816,-0.00966983,1.93715e-06,0.00317022,0.00138208,0.00842238,2.17632,5,0.1,10,2.5,-2.20296,-1.186,0.595654,0.866026,-0.327146,0.00230838,0,0.0236705,-0.000163913,0.0116476,2.20418,5,0.1,11,2.5,3.20203,2.93866,0.594325,-0.00642277,0.121769,0.0117112,-0.200793,-0.291556,-0.0197217,0.0212296,0.590493,5,0.1,12,2.5,1.33811,1.11581,0.500009,-0.237002,0.263189,-5.30854e-05,-0.0943094,-0.145614,0.000186265,0.0185052,0.106911,5,0.1,13,2.5,1.27718,0.742865,0.607032,-0.235558,0.570123,0.00944361,0.319026,-0.704542,0.0381768,0.0128893,0.515986,5,0.1,14,2.5,4.34312,-0.881692,0.605225,0.0772461,-0.202395,0.00303918,-0.0949502,0.248097,-0.00371411,0.00865861,0.00439238,5,0.1,15,2.5,-2.42976,4.0245,0.577655,0.865996,0.0193149,0.0122997,-0.00120699,-0.00554323,-0.0836067,0.0119023,1.67866,5,0.1,16,2.5,-0.466116,4.04836,0.754456,-0.361689,0.0602715,0.0721322,-0.59613,0.0236928,0.446148,0.00949058,3.19664,5,0.1,17,2.5,-1.33558,-1.9141,0.628941,-0.0877205,0.866025,-0.00791056,-0.0228733,1.49012e-05,0.000860542,0.00991448,2.26626,5,0.1,18,2.5,-3.2392,-1.75133,0.609388,0.178816,0.102079,-0.00945041,-0.502735,-0.107236,0.00993535,0.00834057,0.258294,5,0.1,19,2.5,-1.94808,2.4805,0.603122,0.189819,-0.245351,-0.00400208,-0.117958,0.305474,0.00246614,0.0073203,0.198655,5,0.1
0,2.6,0.456281,-3.3,1.27305,-0.00994578,0.0362396,0.113714,0.0164807,0.383854,-0.254691,0.00884185,0.900871,5,0.1,1,2.6,-2.20535,2.48913,0.747692,0.252479,-0.0855386,0.0228375,-0.216961,0.139356,0.00497699,0.0103004,0.163845,5,0.1,2,2.6,-0.0710493,-1.09382,0.725145,0.47847,0.715598,0.0201166,0.727158,-0.45228,-0.00965595,0.00813315,1.14668,5,0.1,3,2.6,3.45334,0.926508,0.723352,-0.091815,0.866026,0.0159472,0.0230074,0,-0.00396371,0.0166526,2.26656,5,0.1,4,2.6,0.933817,2.40021,0.600139,0.354753,-0.00120997,-0.000950694,-0.0610948,0.00500679,0.00351667,0.0166193,0.10786,5,0.1,5,2.6,-0.951798,4.02851,0.583914,0.275479,-0.00860691,-0.0320256,0.272423,-0.204802,-0.27445,0.00724103,1.90894,5,0.1,6,2.6,-0.952212,-2.35439,0.601414,-0.19041,0.866026,0.0274256,0.0342727,0,-0.00494719,0.00880382,2.24819,5,0.1,7,2.6,-1.7314,-3.20553,0.605158,0.163081,0.0422657,-0.0103295,-0.247717,-0.218749,0.015676,0.00779529,0.497473,5,0.1,8,2.6,-3.21476,1.24157,0.602153,0.0789702,0.204587,-0.00405461,-0.265479,-0.246704,0.00488758,0.0100111,0.246856,5,0.1,9,2.6,-0.654121,-0.677619,0.614946,-0.866026,-0.0217438,-0.00947863,0,0.0064373,0.00283122,0.00788797,1.72572,5,0.1,10,2.6,-2.11636,-1.21855,0.595884,0.866026,-0.32306,0.00227988,0,0.0719428,-0.000506639,0.0109862,2.37577,5,0.1,11,2.6,3.2,2.94933,0.5954,-0.0377238,0.0915051,0.00979453,-0.412941,-0.306249,-0.0186265,0.0231148,0.512412,5,0.1,12,2.6,1.314,1.1414,0.500005,-0.244319,0.248396,-3.57628e-05,-0.0394583,-0.159264,0.000178814,0.00626178,0.328171,5,0.1,13,2.6,1.25535,0.796332,0.608162,-0.199902,0.498903,0.0130624,0.385642,-0.722885,0.0326037,0.0109431,0.449718,5,0.1,14,2.6,4.35036,-0.90067,0.60551,0.0675201,-0.176957,0.00265837,-0.100136,0.261486,-0.0039041,0.00724626,0.00136044,5,0.1,15,2.6,-2.34318,4.0264,0.578401,0.865537,0.0186324,0.00212789,-0.00953674,-0.00834465,-0.112653,0.0139027,2.2737,5,0.1,16,2.6,-0.50455,4.05455,0.764034,-0.400023,0.0637889,0.119978,-0.178784,0.0391006,0.480562,0.00912431,3.0823,5,0.1,17,2.6,-1.34447,-1.8275,0.628156,-0.0900805,0.866026,-0.00776649,-0.0180602,-5.96046e-05,0.00232458,0.00976472,2.26545,5,0.1,18,2.6,-3.22379,-1.74164,0.608492,0.130081,0.0916481,-0.00848323,-0.465393,-0.103712,0.00956655,0.00964016,0.25662,5,0.1,19,2.6,-1.92971,2.45766,0.602734,0.177222,-0.210071,-0.00373721,-0.138342,0.390887,0.00286102,0.00684636,0.189299,5,0.1
0,2.7,0.455365,-3.29406,1.28314,-0.0084118,0.0856433,0.0880631,0.0143424,0.568464,-0.256695,0.00884185,0.900871,5,0.1,1,2.7,-2.18106,2.48124,0.75001,0.234254,-0.0725944,0.0235926,-0.159204,0.120893,0.00844151,0.0103004,0.163845,5,0.1,2,2.7,-0.0194738,-1.02442,0.727112,0.552754,0.672965,0.0192336,0.711401,-0.421792,-0.00872836,0.00813315,1.14668,5,0.1,3,2.7,3.44424,1.01311,0.724933,-0.0904474,0.866026,0.0157126,0.00955164,0,-0.0016354,0.0166526,2.26656,5,0.1,4,2.7,0.969144,2.40011,0.60006,0.352781,-0.000771135,-0.000636745,-0.000759959,0.00378489,0.00276789,0.0166193,0.10786,5,0.1,5,2.7,-0.923047,4.02671,0.579161,0.297707,-0.026691,-0.0643016,0.162866,-0.15527,-0.350144,0.00724103,1.90894,5,0.1,6,2.7,-0.971161,-2.26778,0.604143,-0.189073,0.866026,0.0272322,0.00404939,0,-0.000592321,0.00880382,2.24819,5,0.1,7,2.7,-1.71629,-3.2024,0.604201,0.139546,0.0206385,-0.00884002,-0.224665,-0.201508,0.0142194,0.00779529,0.497473,5,0.1,8,2.7,-3.20822,1.26081,0.601771,0.0519276,0.180305,-0.00357367,-0.263423,-0.240497,0.00476092,0.0100111,0.246856,5,0.1,9,2.7,-0.740723,-0.679766,0.614011,-0.866026,-0.0212207,-0.0092485,3.72529e-06,0.00499934,0.0021942,0.00788797,1.72572,5,0.1,10,2.7,-2.0303,-1.2504,0.596083,0.849798,-0.312753,0.00146357,-0.325084,0.138603,-0.0141971,0.0109862,2.37577,5,0.1,11,2.7,3.19368,2.95694,0.59629,-0.0922445,0.0605933,0.00804877,-0.633195,-0.305355,-0.0163652,0.0231148,0.512412,5,0.1,12,2.7,1.29001,1.16598,0.500002,-0.229899,0.247542,-1.96509e-05,0.298478,0.103012,0.000145286,0.00626178,0.328171,5,0.1,13,2.7,1.23734,0.842785,0.609633,-0.159813,0.431692,0.016333,0.408538,-0.630375,0.0311807,0.0109431,0.449718,5,0.1,14,2.7,4.35662,-0.917068,0.605756,0.0576161,-0.151076,0.00227159,-0.0979006,0.255994,-0.00383332,0.00724626,0.00136044,5,0.1,15,2.7,-2.25663,4.02815,0.578074,0.865754,0.0156499,-0.00836411,0.00604987,-0.0470579,-0.0953637,0.0139027,2.2737,5,0.1,16,2.7,-0.545649,4.06162,0.778861,-0.423143,0.0815958,0.179614,-0.250679,0.281453,0.665098,0.00912431,3.0823,5,0.1,17,2.7,-1.35364,-1.7409,0.627388,-0.093575,0.866025,-0.00761813,-0.0436977,1.49012e-05,0.00108406,0.00976472,2.26545,5,0.1,18,2.7,-3.213,-1.73296,0.607688,0.0869442,0.0822956,-0.00762036,-0.393555,-0.0861362,0.00794604,0.00964016,0.25662,5,0.1,19,2.7,-1.91266,2.43869,0.602375,0.163851,-0.168537,-0.00345949,-0.133179,0.430197,0.00277907,0.00684636,0.189299,5,0.1
0,2.8,0.454592,-3.28259,1.29067,-0.00705272,0.143594,0.0627697,0.0129342,0.562906,-0.246823,0.0214848,1.41702,5,0.1,1,2.8,-2.15841,2.47456,0.752406,0.21863,-0.0611186,0.0242382,-0.161529,0.109553,0.00327826,0.00969763,0.198496,5,0.1,2,2.8,0.0390157,-0.959323,0.728988,0.612748,0.627652,0.0182495,0.455581,-0.49895,-0.0114441,0.00812723,0.823808,5,0.1,3,2.8,3.43525,1.09971,0.726494,-0.0890136,0.866026,0.0154659,0.022769,0,-0.00393391,0.0185435,2.00757,5,0.1,4,2.8,1.00437,2.40005,0.600009,0.350767,-0.000447035,-0.000394881,-0.0554919,0.00274181,0.00211596,0.0141451,0.181047,5,0.1,5,2.8,-0.892704,4.02335,0.570997,0.30659,-0.0394106,-0.0984073,0.00935793,-0.0982285,-0.316471,0.00781333,0.202717,5,0.1,6,2.8,-0.990021,-2.18118,0.60686,-0.187619,0.866026,0.0270218,0.0332892,0,-0.00479817,0.0080818,2.24888,5,0.1,7,2.8,-1.70343,-3.20124,0.603386,0.117871,0.00388026,-0.00746846,-0.209987,-0.126719,0.0133216,0.00734336,0.872031,5,0.1,8,2.8,-3.20427,1.27763,0.601438,0.0282109,0.156242,-0.00309646,-0.203729,-0.241518,0.00476837,0.00960219,0.41118,5,0.1,9,2.8,-0.827326,-0.681859,0.613099,-0.866026,-0.020577,-0.00896603,0,0.00852346,0.00369549,0.00786118,1.33162,5,0.1,10,2.8,-1.94748,-1.28084,0.596147,0.80131,-0.294685,-0.000269711,-0.641346,0.224948,-0.0192225,0.0111599,2.5359,5,0.1,11,2.8,3.18123,2.96152,0.597016,-0.156593,0.0315905,0.00651032,-0.620484,-0.269771,-0.0145137,0.0241625,0.41404,5,0.1,12,2.8,1.26887,1.19142,0.500001,-0.189966,0.262123,-8.9407e-06,0.476301,0.158906,0.000119209,0.00604317,0.262647,5,0.1,13,2.8,1.22339,0.882895,0.611409,-0.119546,0.371277,0.0190228,0.390887,-0.584304,0.0214875,0.0117359,0.20981,5,0.1,14,2.8,4.3619,-0.930906,0.605964,0.0479579,-0.125812,0.00189245,-0.095129,0.248849,-0.00372529,0.00745732,0.000809673,5,0.1,15,2.8,-2.17003,4.02944,0.576802,0.866026,0.00997782,-0.0166446,0,-0.0627041,-0.0691116,0.0118022,2.2722,5,0.1,16,2.8,-0.589113,4.07134,0.800134,-0.444478,0.113797,0.244817,-0.152141,0.335693,0.604182,0.00702664,0.736609,5,0.1,17,2.8,-1.3632,-1.6543,0.626633,-0.0974149,0.866026,-0.00747442,-0.0272989,0,0.00211596,0.00983538,2.26459,5,0.1,18,2.8,-3.20613,-1.72515,0.606965,0.0519454,0.0739425,-0.00685006,-0.30458,-0.0829101,0.007689,0.0117002,0.4241,5,0.1,19,2.8,-1.89696,2.42399,0.602043,0.149909,-0.12573,-0.00316799,-0.148475,0.418544,0.00312924,0.00713877,0.276986,5,0.1
0,2.9,0.453948,-3.26596,1.29575,-0.00587101,0.184698,0.0392443,0.0108276,0.300437,-0.220604,0.0214848,1.41702,5,0.1,1,2.9,-2.13736,2.4687,0.754862,0.202341,-0.0586212,0.0249821,-0.168249,-0.0415742,0.00957027,0.00969763,0.198496,5,0.1,2,2.9,0.102546,-0.898924,0.730759,0.656694,0.581133,0.017192,0.386365,-0.449348,-0.0103042,0.00812723,0.823808,5,0.1,3,2.9,3.42644,1.18632,0.728026,-0.0874221,0.866026,0.0151914,0.0135899,0,-0.00234693,0.0185435,2.00757,5,0.1,4,2.9,1.03947,2.40002,0.599979,0.353625,-0.000214949,-0.000211596,0.0806749,0.00192225,0.00155717,0.0141451,0.181047,5,0.1,5,2.9,-0.861838,4.01908,0.559979,0.311762,-0.0446461,-0.118187,0.0714175,-0.0118911,-0.0911392,0.00781333,0.202717,5,0.1,6,2.9,-1.00869,-2.09458,0.609549,-0.186331,0.866026,0.026836,0.00384077,0,-0.000555068,0.0080818,2.24888,5,0.1,7,2.9,-1.69266,-3.20147,0.602704,0.0979176,-0.00762157,-0.0062027,-0.189625,-0.0762492,0.0120215,0.00734336,0.872031,5,0.1,8,2.9,-3.20241,1.29207,0.601152,0.00979155,0.13273,-0.00263201,-0.145674,-0.228956,0.00452623,0.00960219,0.41118,5,0.1,9,2.9,-0.913923,-0.683878,0.612219,-0.865782,-0.0198147,-0.00863541,0.00974163,0.00752136,0.00326335,0.00786118,1.33162,5,0.1,10,2.9,-1.87035,-1.31003,0.59601,0.742783,-0.296053,-0.00256831,-0.553682,-0.193492,-0.0252463,0.0111599,2.5359,5,0.1,11,2.9,3.16234,2.96336,0.597599,-0.221766,0.00574738,0.0051802,-0.649437,-0.242233,-0.0121668,0.0241625,0.41404,5,0.1,12,2.9,1.25236,1.21867,0.5,-0.139546,0.284649,-8.3819e-07,0.518486,0.260405,4.84288e-05,0.00604317,0.262647,5,0.1,13,2.9,1.21331,0.917581,0.613367,-0.0829265,0.326538,0.0196751,0.338748,-0.337753,-0.00661612,0.0117359,0.20981,5,0.1,14,2.9,4.36623,-0.94227,0.606135,0.0387684,-0.101757,0.00153203,-0.0883341,0.2314,-0.00347197,0.00745732,0.000809673,5,0.1,15,2.9,-2.08343,4.0301,0.574811,0.866026,0.00300333,-0.0229503,0,-0.0736415,-0.0554137,0.0118022,2.2722,5,0.1,16,2.9,-0.632634,4.08404,0.827253,-0.411219,0.136669,0.293624,0.732742,0.129938,0.367839,0.00702664,0.736609,5,0.1,17,2.9,-1.37312,-1.56769,0.625892,-0.101304,0.866026,-0.00734907,-0.0429004,0,0.000834465,0.00983538,2.26459,5,0.1,18,2.9,-3.20235,-1.71814,0.606315,0.024873,0.0664927,-0.00615921,-0.231624,-0.0684112,0.00634044,0.0117002,0.4241,5,0.1,19,2.9,-1.88267,2.41344,0.601741,0.136248,-0.086097,-0.00287937,-0.129163,0.368878,0.00273064,0.00713877,0.276986,5,0.1
0,3,0.453412,-3.24617,1.29864,-0.00486448,0.209856,0.0193387,0.00940263,0.223517,-0.173688,0.00795513,1.26213,5,0.1,1,3,-2.118,2.4625,0.757405,0.184345,-0.0662327,0.0258014,-0.194311,-0.0969172,0.00533462,0.0111599,0.160274,5,0.1,2,3,0.169786,-0.843095,0.732425,0.683823,0.534764,0.0160903,0.131197,-0.490338,-0.0121891,0.00828339,0.57102,5,0.1,3,3,3.41778,1.27292,0.72953,-0.0855148,0.866026,0.0148624,0.0275373,0,-0.00479817,0.0162814,1.59982,5,0.1,4,3,1.07525,2.40001,0.599965,0.361368,-5.96046e-05,-8.04663e-05,0.0507236,0.0013113,0.00107288,0.017505,0.110172,5,0.1,5,3,-0.830354,4.01466,0.547994,0.316983,-0.0427723,-0.118886,0.0168085,0.0445843,0.066638,0.00672571,0.263862,5,0.1,6,3,-1.02728,-2.00798,0.612226,-0.184903,0.866026,0.0266299,0.0328422,-5.96046e-05,-0.00470877,0.00873575,2.24957,5,0.1,7,3,-1.68378,-3.20237,0.602142,0.0798553,-0.00767708,-0.00505745,-0.17184,0.0849962,0.0108778,0.00710035,1.77671,5,0.1,8,3,-3.20196,1.30422,0.600911,0.00165105,0.110424,-0.00219047,-0.010252,-0.217199,0.00429153,0.00947776,1.10528,5,0.1,9,3,-1.00037,-0.685818,0.611373,-0.862128,-0.0189394,-0.00825524,0.0779033,0.01055,0.00458956,0.00820243,0.997946,5,0.1,10,3,-1.79886,-1.3409,0.595627,0.686404,-0.323021,-0.00505745,-0.591159,-0.301123,-0.0234246,0.0102185,2.18257,5,0.1,11,3,3.13709,2.9628,0.598059,-0.280726,-0.0160396,0.00406355,-0.505567,-0.190377,-0.010252,0.0230819,0.315572,5,0.1,12,3,1.24097,1.2484,0.5,-0.0886679,0.308815,1.49012e-06,0.488639,0.200212,0,0.00694695,0.231871,5,0.1,13,3,1.20661,0.948769,0.615268,-0.0522286,0.298913,0.0180379,0.273645,-0.235617,-0.0245273,0.0112356,0.162483,5,0.1,14,3,4.36967,-0.951324,0.606272,0.0303388,-0.079684,0.00120103,-0.0796318,0.209361,-0.00315905,0.00836474,0.000728827,5,0.1,15,3,-1.99683,4.03004,0.572272,0.866026,-0.00419617,-0.0274688,-5.96046e-05,-0.0681877,-0.0339746,0.010695,2.27284,5,0.1,16,3,-0.669208,4.09807,0.858039,-0.313182,0.141358,0.317901,1.16,-0.0286102,0.116915,0.00771465,0.28349,5,0.1,17,3,-1.38344,-1.48109,0.625163,-0.104699,0.866026,-0.00723153,-0.0196695,-5.96046e-05,0.00175834,0.0109359,2.3543,5,0.1,18,3,-3.20087,-1.71183,0.60573,0.00635386,0.0598639,-0.00554621,-0.136614,-0.0658631,0.00613928,0.00915453,0.620588,5,0.1,19,3,-1.86968,2.40656,0.601467,0.123334,-0.0527918,-0.00260621,-0.132203,0.294209,0.00280142,0.00636206,0.273765,5,0.1
0,3.1,0.45297,-3.22427,1.29982,-0.00401889,0.228204,0.00534635,0.00762008,0.220761,-0.101618,0.00795513,1.26213,5,0.1,1,3.1,-2.10048,2.45533,0.760008,0.166697,-0.0775509,0.0261957,-0.164375,-0.119746,0.00162423,0.0111599,0.160274,5,0.1,2,3.1,0.238797,-0.791933,0.733976,0.695376,0.489455,0.014965,0.0702477,-0.430908,-0.0108145,0.00828339,0.57102,5,0.1,3,3.1,3.40935,1.35947,0.730996,-0.0831805,0.863802,0.0144557,0.0227988,-0.0677481,-0.00396743,0.0162814,1.59982,5,0.1,4,3.1,1.11171,2.40001,0.599961,0.368062,4.35859e-05,8.00937e-06,0.0624657,0.000759959,0.000707805,0.017505,0.110172,5,0.1,5,3.1,-0.798341,4.01067,0.536619,0.324893,-0.0363939,-0.107021,0.113614,0.0791252,0.161968,0.00672571,0.263862,5,0.1,6,3.1,-1.04568,-1.92137,0.614876,-0.183614,0.866025,0.0264459,0.00411272,1.49012e-05,-0.000584871,0.00873575,2.24957,5,0.1,7,3.1,-1.67661,-3.20264,0.601688,0.0639427,0.00563897,-0.00405023,-0.147074,0.2722,0.0093095,0.00710035,1.77671,5,0.1,8,3.1,-3.20178,1.31422,0.600712,0.00455566,0.0899954,-0.00178674,0.145093,-0.191905,0.00379607,0.00947776,1.10528,5,0.1,9,3.1,-1.0865,-0.687663,0.610569,-0.861951,-0.0179706,-0.00783345,-0.0235662,0.00947714,0.0041239,0.00820243,0.997946,5,0.1,10,3.1,-1.7327,-1.37434,0.595017,0.640427,-0.342195,-0.00700187,-0.367522,-0.0833273,-0.015378,0.0102185,2.18257,5,0.1,11,3.1,3.1065,2.96029,0.598418,-0.330251,-0.0336461,0.00314191,-0.459075,-0.158131,-0.00825524,0.0230819,0.315572,5,0.1,12,3.1,1.23442,1.2804,0.5,-0.0436002,0.331883,1.39698e-06,0.409104,0.234656,-3.72529e-06,0.00694695,0.231871,5,0.1,13,3.1,1.20263,0.977789,0.616924,-0.0285717,0.283946,0.0148868,0.200905,-0.0878423,-0.0369102,0.0112356,0.162483,5,0.1,14,3.1,4.37233,-0.958285,0.606377,0.022833,-0.0599504,0.000903383,-0.0702143,0.184521,-0.00278652,0.00836474,0.000728827,5,0.1,15,3.1,-1.91022,4.02927,0.569433,0.866025,-0.0110656,-0.0285994,1.49012e-05,-0.0666976,0.00858307,0.010695,2.27284,5,0.1,16,3.1,-0.694645,4.11204,0.890527,-0.195473,0.137626,0.332381,1.16599,-0.0492334,0.14906,0.00771465,0.28349,5,0.1,17,3.1,-1.39416,-1.3947,0.624454,-0.110912,0.859264,-0.00687288,-0.0900999,-0.156708,0.00525638,0.0109359,2.3543,5,0.1,18,3.1,-3.20089,-1.70614,0.605204,-0.00579245,0.0539606,-0.00499645,-0.0838786,-0.0541285,0.00503287,0.00915453,0.620588,5,0.1,19,3.1,-1.85799,2.40261,0.60122,0.110623,-0.0276532,-0.00233678,-0.124224,0.207677,0.00263378,0.00636206,0.273765,5,0.1
0,3.2,0.452604,-3.2,1.3,-0.00332072,0.260657,0,0.0064522,0.417352,0,0.00727322,0.571604,5,0.1,1,3.2,-2.08462,2.44701,0.762623,0.15049,-0.0885129,0.0259742,-0.163555,-0.0925064,-0.00670552,0.0106674,0.213196,5,0.1,2,3.2,0.308388,-0.745144,0.735418,0.69294,0.446035,0.0138447,-0.138686,-0.447899,-0.0119507,0.00940615,0.386082,5,0.1,3,3.2,3.40116,1.44521,0.732418,-0.0803351,0.847408,0.0139609,0.036478,-0.287592,-0.00634789,0.0164239,1.50853,5,0.1,4,3.2,1.14871,2.40001,0.599965,0.370353,0.000101328,6.4075e-05,-0.0308156,0.000357628,0.000357628,0.0156778,0.0609205,5,0.1,5,3.2,-0.765311,4.00746,0.526825,0.334914,-0.0276566,-0.0880748,0.0666678,0.0927448,0.209868,0.00718913,0.1995,5,0.1,6,3.2,-1.064,-1.83477,0.617514,-0.182167,0.866026,0.0262395,0.0327826,-5.96046e-05,-0.00473857,0.00889986,2.25027,5,0.1,7,3.2,-1.67092,-3.2,0.601327,0.0503212,0.0540197,-0.00318736,-0.125945,0.677347,0.00795722,0.0072889,3.2482,5,0.1,8,3.2,-3.2,1.3223,0.600552,0.0370026,0.0719488,-0.00142902,0.490546,-0.169396,0.00333786,0.0101739,2.37569,5,0.1,9,3.2,-1.17264,-0.68941,0.609808,-0.858176,-0.0169337,-0.00738204,0.135064,0.0116825,0.0050962,0.00774144,0.718807,5,0.1,10,3.2,-1.67039,-1.40862,0.594254,0.606117,-0.340068,-0.0081256,-0.347316,0.123024,-0.00715256,0.0131606,1.88329,5,0.1,11,3.2,3.07143,2.95621,0.598694,-0.368184,-0.0470638,0.00240058,-0.28193,-0.108123,-0.00664592,0.0219638,2.84676,5,0.1,12,3.2,1.23195,1.31464,0.5,-0.0074178,0.351217,0,0.312388,0.133395,2.98023e-05,0.0081414,0.212973,5,0.1,13,3.2,1.20067,1.00583,0.618219,-0.0117481,0.277135,0.0109404,0.13715,-0.06634,-0.0408292,0.0108851,0.237583,5,0.1,14,3.2,4.37428,-0.963404,0.606454,0.0163436,-0.0429064,0.00064671,-0.0593662,0.155956,-0.00238419,0.00755897,0.000556067,5,0.1,15,3.2,-1.82362,4.02785,0.566667,0.866026,-0.0171065,-0.0262678,0,-0.0526905,0.0357032,0.0154471,2.272,5,0.1,16,3.2,-0.708545,4.1255,0.924405,-0.0848725,0.131023,0.343691,1.02535,-0.0851154,0.0604689,0.0136087,3.86843,5,0.1,17,3.2,-1.40572,-1.30995,0.623798,-0.120193,0.831237,-0.0062108,-0.0847578,-0.416756,0.00783801,0.0112581,2.64768,5,0.1,18,3.2,-3.20167,-1.70101,0.604729,-0.00738502,0.0487089,-0.00450909,0.0600815,-0.0522733,0.00485778,0.00852586,0.816039,5,0.1,19,3.2,-1.84755,2.40073,0.600999,0.0981241,-0.0112176,-0.00207126,-0.127196,0.122428,0.00271201,0.00634723,0.271265,5,0.1
0,3.3,0.452301,-3.17154,1.3,-0.00274908,0.310424,0,0.00507757,0.535667,0,0.00727322,0.571604,5,0.1,1,3.3,-2.07028,2.43785,0.765189,0.137058,-0.0930935,0.0253421,-0.114217,-0.00166893,-0.00670925,0.0106674,0.213196,5,0.1,2,3.3,0.377001,-0.702646,0.736746,0.678801,0.404955,0.0127454,-0.168275,-0.38635,-0.0104494,0.00940615,0.386082,5,0.1,3,3.3,3.39329,1.52749,0.733785,-0.0770289,0.788921,0.0133857,0.0326186,-0.840932,-0.00567734,0.0164239,1.50853,5,0.1,4,3.3,1.18558,2.40002,0.599973,0.36644,0.00012219,8.98726e-05,-0.060387,8.9407e-05,0.000167638,0.0156778,0.0609205,5,0.1,5,3.3,-0.731385,4.00517,0.51912,0.344044,-0.0179291,-0.0656541,0.0941604,0.0990033,0.232309,0.00718913,0.1995,5,0.1,6,3.3,-1.08212,-1.74817,0.620125,-0.180841,0.866025,0.026047,0.00471622,1.49012e-05,-0.000692904,0.00889986,2.25027,5,0.1,7,3.3,-1.66648,-3.1897,0.601046,0.0388153,0.164165,-0.00246018,-0.104666,1.40719,0.00661612,0.0072889,3.2482,5,0.1,8,3.3,-3.19248,1.32869,0.600425,0.124319,0.0563866,-0.00112224,1.15338,-0.142492,0.00281632,0.0101739,2.37569,5,0.1,9,3.3,-1.25794,-0.691048,0.609093,-0.848575,-0.0158553,-0.00691162,0.0975132,0.0104196,0.00454858,0.00774144,0.718807,5,0.1,10,3.3,-1.61124,-1.44237,0.593399,0.57888,-0.33759,-0.00899825,-0.22848,-0.0412315,-0.00937283,0.0131606,1.88329,5,0.1,11,3.3,3.03188,2.95088,0.598903,-0.433419,-0.0602555,0.00181124,-0.91584,-0.144973,-0.00519305,0.0219638,2.84676,5,0.1,12,3.3,1.23263,1.35053,0.500001,0.0194153,0.366913,1.39698e-06,0.224285,0.155911,3.72529e-06,0.0081414,0.212973,5,0.1,13,3.3,1.20009,1.03352,0.619103,-0.000494532,0.279148,0.00672583,0.089474,0.0778362,-0.0423118,0.0108851,0.237583,5,0.1,14,3.3,4.37563,-0.966957,0.606507,0.0109017,-0.0286102,0.000428595,-0.0493526,0.129543,-0.0019744,0.00755897,0.000556067,5,0.1,15,3.3,-1.73702,4.02588,0.564247,0.866026,-0.0222437,-0.0218878,0,-0.0479519,0.050053,0.0154471,2.272,5,0.1,16,3.3,-0.714458,4.13728,0.95833,-0.0555095,0.09683,0.328154,-0.304941,-0.544459,-0.339702,0.0136087,3.86843,5,0.1,17,3.3,-1.41767,-1.22935,0.623228,-0.114432,0.776736,-0.00507981,0.176154,-0.666432,0.014022,0.0112581,2.64768,5,0.1,18,3.3,-3.20197,-1.69638,0.604301,0.00402518,0.04403,-0.00407482,0.218883,-0.0429004,0.00397488,0.00852586,0.816039,5,0.1,19,3.3,-1.83836,2.4001,0.600805,0.0857927,-0.00269227,-0.00180863,-0.120416,0.052765,0.002563,0.00634723,0.271265,5,0.1
0,3.4,0.45205,-3.13791,1.3,-0.00228807,0.360483,0,0.00420213,0.434637,0,0.00797247,0.125944,5,0.1,1,3.4,-2.05713,2.42867,0.767684,0.126088,-0.089395,0.0244975,-0.111222,0.0728369,-0.0107288,0.0124822,0.192554,5,0.1,2,3.4,0.44383,-0.664064,0.737968,0.655262,0.366616,0.011687,-0.318571,-0.389278,-0.0110567,0.00924899,0.257406,5,0.1,3,3.4,3.38577,1.60154,0.735093,-0.0733078,0.686818,0.012739,0.043869,-1.16634,-0.00762939,0.0280789,1.44432,5,0.1,4,3.4,1.22178,2.40004,0.599983,0.356135,0.000119209,9.83477e-05,-0.154138,-0.000119209,2.98023e-05,0.0211874,0.042146,5,0.1,5,3.4,-0.696611,4.00387,0.51371,0.350042,-0.00835657,-0.0427112,0.0104904,0.0903606,0.221729,0.00834511,1.79358,5,0.1,6,3.4,-1.10016,-1.66157,0.622722,-0.179347,0.866026,0.0258297,0.0329614,-5.96046e-05,-0.00473857,0.00861528,2.27993,5,0.1,7,3.4,-1.66309,-3.16584,0.600831,0.0292957,0.314599,-0.00185817,-0.0861287,1.51098,0.00545382,0.00756223,2.7482,5,0.1,8,3.4,-3.17389,1.33366,0.600326,0.249606,0.0433296,-0.000864267,1.27375,-0.11915,0.00235438,0.0105184,2.85907,5,0.1,9,3.4,-1.3421,-0.69258,0.608426,-0.831816,-0.0147581,-0.00643283,0.265837,0.0118911,0.0051558,0.00726511,0.502875,5,0.1,10,3.4,-1.5545,-1.47639,0.592455,0.555092,-0.342709,-0.00984222,-0.269473,-0.0373125,-0.00685453,0.0106969,2.61508,5,0.1,11,3.4,2.98364,2.94414,0.59906,-0.532562,-0.0741899,0.00135154,-0.986218,-0.125647,-0.00405312,0.0242909,0.189522,5,0.1,12,3.4,1.23554,1.38787,0.500001,0.0375122,0.378218,0,0.138223,0.0530481,0,0.00695516,0.200372,5,0.1,13,3.4,1.20042,1.06187,0.61957,0.00644624,0.287694,0.00267625,0.0507832,0.071764,-0.0378191,0.0115408,0.204715,5,0.1,14,3.4,4.37649,-0.969217,0.606541,0.00650883,-0.0170529,0.00025332,-0.0388622,0.101477,-0.00151992,0.00734822,0.000321912,5,0.1,15,3.4,-1.65042,4.02344,0.56232,0.866026,-0.0263333,-0.0165865,-5.96046e-05,-0.0324249,0.0544488,0.0105607,2.28486,5,0.1,16,3.4,-0.722823,4.14385,0.989002,-0.122,0.031817,0.281519,-0.919372,-0.71311,-0.5669,0.0106657,3.15965,5,0.1,17,3.4,-1.42797,-1.15537,0.622796,-0.0892729,0.699443,-0.0035435,0.307798,-0.87136,0.0161231,0.0126185,2.74856,5,0.1,18,3.4,-3.2,-1.69219,0.603912,0.0399113,0.0398576,-0.00368804,0.483155,-0.0417233,0.0038743,0.00812289,0.961789,5,0.1,19,3.4,-1.83038,2.40001,0.600637,0.0738859,0.000280142,-0.00155568,-0.118375,0.0113249,0.0025034,0.00696991,0.270283,5,0.1
0,3.5,0.45184,-3.0999,1.3,-0.00194991,0.397353,0,0.00270456,0.287995,0,0.00797247,0.125944,5,0.1,1,3.5,-2.04503,2.42021,0.770085,0.115997,-0.0786368,0.0235373,-0.0960827,0.136301,-0.00920147,0.0124822,0.192554,5,0.1,2,3.5,0.50782,-0.629225,0.739085,0.624597,0.331138,0.0106746,-0.314791,-0.330895,-0.00952929,0.00924899,0.257406,5,0.1,3,3.5,3.37864,1.66391,0.736331,-0.0692651,0.556873,0.0120362,0.0394285,-1.38163,-0.00684708,0.0280789,1.44432,5,0.1,4,3.5,1.25668,2.40005,0.599992,0.342053,0.000100583,9.58331e-05,-0.141256,-0.000238419,-7.07805e-05,0.0211874,0.042146,5,0.1,5,3.5,-0.66041,4.00348,0.510383,0.383192,0.000464171,-0.0253578,0.566062,0.0840127,0.130702,0.00834511,1.79358,5,0.1,6,3.5,-1.11764,-1.57497,0.625296,-0.167716,0.865648,0.0257445,0.18765,-0.0150651,0.0012368,0.00861528,2.27993,5,0.1,7,3.5,-1.66056,-3.1263,0.60067,0.021535,0.479055,-0.00136653,-0.0694469,1.6865,0.00439957,0.00756223,2.7482,5,0.1,8,3.5,-3.14178,1.33765,0.60025,0.39786,0.0386022,-0.000648852,1.59334,0.0106394,0.00195578,0.0105184,2.85907,5,0.1,9,3.5,-1.42408,-0.694,0.607807,-0.808052,-0.0136624,-0.0059573,0.242263,0.0104643,0.00454485,0.00726511,0.502875,5,0.1,10,3.5,-1.49975,-1.51202,0.591463,0.544527,-0.379254,-0.0097747,0.00701845,-0.605002,0.00717118,0.0106969,2.61508,5,0.1,11,3.5,2.92634,2.93627,0.599177,-0.604503,-0.0814572,0.00100313,-0.457644,-0.0242889,-0.00296906,0.0242909,0.189522,5,0.1,12,3.5,1.2399,1.42608,0.500001,0.0487285,0.386405,0,0.0858381,0.086382,0,0.00695516,0.200372,5,0.1,13,3.5,1.20122,1.09113,0.619651,0.0084646,0.29844,-0.000988226,-0.00552833,0.120774,-0.0346266,0.0115408,0.204715,5,0.1,14,3.5,4.37696,-0.970454,0.606559,0.00307262,-0.00807112,0.000119116,-0.0298619,0.0781231,-0.00116602,0.00734822,0.000321912,5,0.1,15,3.5,-1.56382,4.02063,0.560798,0.8658,-0.0298314,-0.0150117,-0.00896305,-0.0347793,-0.0154115,0.0105607,2.28486,5,0.1,16,3.5,-0.740363,4.14331,1.01421,-0.234169,-0.0431933,0.221857,-1.24427,-0.757247,-0.613347,0.0106657,3.15965,5,0.1,17,3.5,-1.43494,-1.08912,0.622519,-0.0469791,0.631304,-0.00203215,0.501357,-0.527866,0.0138432,0.0126185,2.74856,5,0.1,18,3.5,-3.19286,-1.6884,0.603562,0.108742,0.0361245,-0.00334168,0.830621,-0.0342578,0.00317022,0.00812289,0.961789,5,0.1,19,3.5,-1.82354,2.40007,0.600494,0.0631811,0.000679493,-0.00131521,-0.0975952,-0.00160933,0.00231713,0.00696991,0.270283,5,0.1
0,3.6,0.451657,-3.05906,1.3,-0.00172183,0.415719,0,0.00198185,0.0705719,0,0.00815266,0.201088,5,0.1,1,3.6,-2.03393,2.41309,0.77239,0.105965,-0.0632346,0.022532,-0.107884,0.166774,-0.0114739,0.0123238,0.178912,5,0.1,2,3.6,0.568579,-0.59774,0.740105,0.588961,0.298628,0.00972152,-0.411332,-0.326782,-0.00974536,0.00792848,0.236736,5,0.1,3,3.6,3.37192,1.71267,0.737499,-0.0650108,0.419199,0.0112966,0.0473261,-1.33574,-0.00822544,0.018779,1.4015,5,0.1,4,3.6,1.29011,2.40006,0.600001,0.325578,7.15256e-05,8.34465e-05,-0.19747,-0.000238419,-8.9407e-05,0.0136402,0.0794831,5,0.1,5,3.6,-0.618929,4.00392,0.508387,0.448042,0.00808239,-0.0155851,0.665307,0.0669956,0.0692308,0.00978001,2.70766,5,0.1,6,3.6,-1.1333,-1.4886,0.627874,-0.144026,0.859991,0.0257656,0.276148,-0.12058,-0.00205636,0.0094935,2.35748,5,0.1,7,3.6,-1.65873,-3.0703,0.600554,0.0153363,0.636071,-0.000974536,-0.0547767,1.3876,0.00348687,0.00740053,1.08643,5,0.1,8,3.6,-3.09416,1.34168,0.600195,0.551254,0.042969,-0.000472367,1.40202,0.0657439,0.00160933,0.0102695,2.48263,5,0.1,9,3.6,-1.50349,-0.695313,0.607234,-0.777841,-0.0125885,-0.00548959,0.38445,0.0112951,0.00488758,0.00817981,0.344369,5,0.1,10,3.6,-1.44515,-1.5533,0.590537,0.547585,-0.44812,-0.00859797,0.0162721,-0.704944,0.0154972,0.0127719,1.3222,5,0.1,11,3.6,2.86444,2.92814,0.599264,-0.625432,-0.0799239,0.000749528,0.0302792,0.0506639,-0.00220537,0.0216787,0.164265,5,0.1,12,3.6,1.24511,1.46504,0.500001,0.0546813,0.391358,0,0.0334978,-0.00441074,-2.98023e-05,0.00709482,0.196521,5,0.1,13,3.6,1.20197,1.12151,0.61939,0.00622571,0.30801,-0.00410676,-0.0352859,0.0546575,-0.0271201,0.0199084,0.223987,5,0.1,14,3.6,4.37713,-0.970909,0.606566,0.000524521,-0.00141561,1.93715e-05,-0.0209808,0.0551045,-0.000834465,0.0115158,0.000139677,5,0.1,15,3.6,-1.47735,4.01749,0.559156,0.862432,-0.0328183,-0.0183225,-0.071764,-0.023365,-0.0448823,0.0161071,2.40001,5,0.1,16,3.6,-0.769997,4.13534,1.03334,-0.356938,-0.114465,0.161156,-1.15165,-0.646353,-0.590503,0.0260097,2.76675,5,0.1,17,3.6,-1.43706,-1.02831,0.622379,0.00465214,0.587282,-0.000815094,0.504553,-0.381947,0.010401,0.0342354,2.7048,5,0.1,18,3.6,-3.17768,-1.68495,0.603243,0.194991,0.0327826,-0.00303239,0.846624,-0.0334978,0.00309944,0.0167529,1.03938,5,0.1,19,3.6,-1.81769,2.40012,0.600374,0.0540435,0.000238419,-0.00109226,-0.0865459,-0.00572205,0.00217557,0.0111636,0.267922,5,0.1
0,3.7,0.451494,-3.01711,1.3,-0.00154162,0.422991,0,0.00167266,0.0545979,0,0.00815266,0.201088,5,0.1,1,3.7,-2.02384,2.40762,0.774587,0.095946,-0.0460383,0.0214051,-0.0965744,0.172034,-0.0114478,0.0123238,0.178912,5,0.1,2,3.7,0.62551,-0.569245,0.741032,0.550153,0.273448,0.00883304,-0.381611,-0.195563,-0.0083074,0.00792848,0.236736,5,0.1,3,3.7,3.36564,1.74805,0.73859,-0.0606421,0.291165,0.0105374,0.042066,-1.17419,-0.00730529,0.018779,1.4015,5,0.1,4,3.7,1.3219,2.40006,0.600009,0.311765,4.61936e-05,7.19912e-05,-0.0995472,-0.000268221,-0.000137836,0.0136402,0.0794831,5,0.1,5,3.7,-0.56989,4.0049,0.507218,0.539381,0.0100583,-0.00747433,1.06598,-0.0197887,0.0887774,0.00978001,2.70766,5,0.1,6,3.7,-1.1461,-1.40308,0.630458,-0.110282,0.850593,0.0260254,0.382289,-0.105716,0.00519305,0.0094935,2.35748,5,0.1,7,3.7,-1.65744,-3.00026,0.600472,0.0106366,0.75868,-0.000675302,-0.0398234,1.02875,0.00253692,0.00740053,1.08643,5,0.1,8,3.7,-3.03204,1.34642,0.600155,0.689265,0.0527924,-0.000329781,1.29201,0.119574,0.00125542,0.0102695,2.48263,5,0.1,9,3.7,-1.57947,-0.696519,0.606708,-0.742291,-0.0115516,-0.00504032,0.353441,0.00981241,0.00425428,0.00817981,0.344369,5,0.1,10,3.7,-1.38962,-1.60072,0.589766,0.568243,-0.491603,-0.00673225,0.330947,-0.183113,0.0209771,0.0127719,1.3222,5,0.1,11,3.7,2.80233,2.92052,0.59933,-0.613707,-0.0715241,0.000578817,0.210464,0.111371,-0.00128523,0.0216787,0.164265,5,0.1,12,3.7,1.25073,1.50413,0.500001,0.0573909,0.389902,-1.76951e-06,0.0186935,-0.0390857,-1.11759e-05,0.00709482,0.196521,5,0.1,13,3.7,1.20242,1.15265,0.61885,0.00267141,0.314775,-0.00663521,-0.0348687,0.0629947,-0.02281,0.0199084,0.223987,5,0.1,14,3.7,4.37709,-0.970805,0.606564,-0.00122786,0.00319397,-5.02914e-05,-0.0141859,0.0373311,-0.000558794,0.0115158,0.000139677,5,0.1,15,3.7,-1.39175,4.01417,0.55718,0.846564,-0.0327691,-0.0204616,-0.259191,0.0211596,-0.000905246,0.0161071,2.40001,5,0.1,16,3.7,-0.811822,4.12095,1.04689,-0.481409,-0.170269,0.113392,-1.26491,-0.463933,-0.377633,0.0260097,2.76675,5,0.1,17,3.7,-1.43465,-0.969997,0.622331,0.0383332,0.59113,-0.000317395,0.1899,0.352997,0.000454485,0.0342354,2.7048,5,0.1,18,3.7,-3.15357,-1.68183,0.602954,0.289509,0.0297841,-0.00275541,0.986323,-0.0275671,0.0025481,0.0167529,1.03938,5,0.1,19,3.7,-1.81272,2.4002,0.600275,0.0454064,0.00182763,-0.000886433,-0.0857264,0.0282526,0.00193715,0.0111636,0.267922,5,0.1
0,3.8,0.451348,-2.9747,1.3,-0.0013791,0.423223,0,0.00160933,-0.0636578,0,0.0177026,0.14009,5,0.1,1,3.8,-2.01474,2.40386,0.776667,0.0859857,-0.0296831,0.0201747,-0.105023,0.151515,-0.0135005,0.019901,0.171344,5,0.1,2,3.8,0.678555,-0.542788,0.741874,0.509827,0.256243,0.00801086,-0.436306,-0.162512,-0.00834465,0.0116374,0.164589,5,0.1,3,3.8,3.3598,1.77187,0.739606,-0.0562489,0.191671,0.00977367,0.0469685,-0.793219,-0.00813603,0.0192405,1.3042,5,0.1,4,3.8,1.3526,2.40007,0.600016,0.302085,2.38419e-05,5.66244e-05,-0.109136,-0.000357628,-0.000119209,0.013832,0.0665412,5,0.1,5,3.8,-0.510607,4.00572,0.506918,0.644611,0.00551939,0.00142902,0.967816,-0.064373,0.0861287,0.00992007,2.44331,5,0.1,6,3.8,-1.15516,-1.31879,0.633085,-0.0704914,0.832388,0.0264496,0.400662,-0.284672,0.00181794,0.0108415,2.38776,5,0.1,7,3.8,-1.65656,-2.92008,0.600416,0.00725687,0.836104,-0.000460446,-0.0283122,0.498533,0.00178814,0.0077862,0.531721,5,0.1,8,3.8,-2.95727,1.35232,0.600128,0.798798,0.0649333,-0.000222027,0.85628,0.114977,0.000983477,0.0185075,2.31996,5,0.1,9,3.8,-1.65181,-0.697625,0.606225,-0.702634,-0.0105634,-0.00460893,0.458062,0.010252,0.00441074,0.0106846,0.232686,5,0.1,10,3.8,-1.33107,-1.65007,0.589201,0.602299,-0.488365,-0.0045523,0.301421,0.229955,0.0219643,0.0151573,0.977783,5,0.1,11,3.8,2.74235,2.91398,0.599382,-0.582504,-0.0587225,0.000479817,0.415564,0.139832,-0.000745058,0.0196481,1.95046,5,0.1,12,3.8,1.25653,1.54278,0.5,0.0581026,0.381163,-2.98023e-06,-0.00578165,-0.145078,2.98023e-05,0.00691659,0.262569,5,0.1,13,3.8,1.20252,1.18433,0.618083,-0.000587106,0.317618,-0.0085637,-0.0296235,-0.0182986,-0.0152886,0.0109202,0.297458,5,0.1,14,3.8,4.37691,-0.970327,0.606557,-0.0023365,0.00610799,-9.38773e-05,-0.00810623,0.0212491,-0.000298023,0.00867114,4.58772e-05,5,0.1,15,3.8,-1.30878,4.01105,0.555181,0.808513,-0.0291586,-0.0190526,-0.509024,0.0481606,0.0264943,0.00919792,2.79499,5,0.1,16,3.8,-0.865982,4.10194,1.05661,-0.597382,-0.206411,0.0832856,-1.00204,-0.2563,-0.23514,0.0134454,2.486,5,0.1,17,3.8,-1.43024,-0.908623,0.622291,0.0464469,0.639227,-0.000560284,-0.0103116,0.528306,-0.00461936,0.0116852,2.46717,5,0.1,18,3.8,-3.11985,-1.67899,0.602691,0.382322,0.0270873,-0.00250638,0.828147,-0.0272393,0.0025034,0.00740236,0.268806,5,0.1,19,3.8,-1.8086,2.40052,0.600195,0.0369877,0.0043869,-0.000703335,-0.0822544,0.0170469,0.00169873,0.00831366,0.253039,5,0.1
0,3.9,0.451217,-2.93268,1.3,-0.00123358,0.417133,0,0.00134297,-0.0745803,0,0.0177026,0.14009,5,0.1,1,3.9,-2.00665,2.40159,0.778623,0.0758806,-0.0162657,0.0189678,-0.0994429,0.114933,-0.0111274,0.019901,0.171344,5,0.1,2,3.9,0.727468,-0.517825,0.742636,0.469187,0.24415,0.00725342,-0.390608,-0.0941884,-0.00704452,0.0116374,0.164589,5,0.1,3,3.9,3.35439,1.78768,0.740545,-0.0519235,0.131825,0.00902433,0.0412315,-0.353545,-0.00714511,0.0192405,1.3042,5,0.1,4,3.9,1.38244,2.40007,0.600021,0.296112,-9.68575e-06,4.31202e-05,-0.0315234,-0.000298023,-0.000145286,0.013832,0.0665412,5,0.1,5,3.9,-0.441187,4.00598,0.507501,0.743312,-8.9407e-06,0.0102366,0.942575,-0.0491142,0.0867508,0.00992007,2.44331,5,0.1,6,3.9,-1.16036,-1.23644,0.635749,-0.0351761,0.818224,0.0268951,0.306264,-0.0563636,0.00532717,0.0108415,2.38776,5,0.1,7,3.9,-1.65596,-2.83481,0.600378,0.0049172,0.862153,-0.000312645,-0.0189617,0.0696182,0.00119582,0.0077862,0.531721,5,0.1,8,3.9,-2.87414,1.35944,0.60011,0.854406,0.0777805,-0.000138022,0.290126,0.132523,0.000707805,0.0185075,2.31996,5,0.1,9,3.9,-1.71991,-0.698633,0.605785,-0.660129,-0.00962671,-0.00420474,0.414297,0.00879914,0.00380725,0.0106846,0.232686,5,0.1,10,3.9,-1.26905,-1.69736,0.588858,0.639626,-0.453839,-0.00231247,0.394009,0.448145,0.0222176,0.0151573,0.977783,5,0.1,11,3.9,2.68496,2.90886,0.599427,-0.575081,-0.0433553,0.000419095,-0.180036,0.159189,-0.000491738,0.0196481,1.95046,5,0.1,12,3.9,1.26233,1.57973,0.5,0.0582444,0.353866,-5.58794e-07,0.00470132,-0.384189,1.49012e-05,0.00691659,0.262569,5,0.1,13,3.9,1.20235,1.21604,0.617155,-0.00254177,0.316381,-0.00993358,-0.0112206,-0.0205785,-0.0116117,0.0109202,0.297458,5,0.1,14,3.9,4.37664,-0.96963,0.606546,-0.0029169,0.00763284,-0.000114925,-0.00366569,0.00962242,-0.00012666,0.00867114,4.58772e-05,5,0.1,15,3.9,-1.23142,4.00841,0.553442,0.730921,-0.0235051,-0.0154401,-0.985466,0.0627041,0.0435673,0.00919792,2.79499,5,0.1,16,3.9,-0.931063,4.08057,1.06352,-0.705635,-0.216075,0.0529526,-1.08762,0.0390112,-0.352301,0.0134454,2.486,5,0.1,17,3.9,-1.42592,-0.841308,0.622203,0.037607,0.712304,-0.00126315,-0.150762,0.844225,-0.00873581,0.0116852,2.46717,5,0.1,18,3.9,-3.07789,-1.6764,0.602452,0.452319,0.0246473,-0.0022823,0.557438,-0.022456,0.00206381,0.00740236,0.268806,5,0.1,19,3.9,-1.80531,2.40112,0.600133,0.0290912,0.00771806,-0.000545196,-0.0753105,0.0244677,0.00146031,0.00831366,0.253039,5,0.1
0,4,0.451101,-2.89146,1.3,-0.00110418,0.405568,0,0.0012964,-0.168085,0,0.00888109,0.164104,5,0.1,1,4,-1.99956,2.40047,0.780464,0.065732,-0.00690222,0.0178605,-0.104845,0.0718832,-0.0114441,0.00931597,0.166224,5,0.1,2,4,0.772416,-0.493867,0.743327,0.429326,0.234849,0.00656098,-0.416309,-0.102565,-0.00700355,0.00741553,0.114089,5,0.1,3,4,3.34941,1.8,0.741412,-0.0477254,0.123274,0.00829399,0.0442266,0.155509,-0.00759959,0.0204033,1.11804,5,0.1,4,4,1.41188,2.40006,0.600024,0.292149,-3.57628e-05,2.68221e-05,-0.0627041,-0.000238419,-0.000119209,0.0142649,0.105865,5,0.1,5,4,-0.362603,4.00574,0.508937,0.822723,-0.00474453,0.0182182,0.60524,-0.0474453,0.0705719,0.0104866,2.33284,5,0.1,6,4,-1.1625,-1.15491,0.638459,-0.00907183,0.811157,0.0272155,0.217021,-0.126898,-0.000208616,0.0107776,2.37184,5,0.1,7,4,-1.65555,-2.74875,0.600352,0.00337362,0.853956,-0.000214577,-0.0123382,-0.24116,0.000745058,0.00715827,0.19998,5,0.1,8,4,-2.78787,1.36784,0.600099,0.866026,0.0898123,-8.04663e-05,0,0.101328,0.000506639,0.0100695,2.26446,5,0.1,9,4,-1.78377,-0.699552,0.605383,-0.616032,-0.00875145,-0.00382513,0.482857,0.00891089,0.0038743,0.00877954,0.156176,5,0.1,10,4,-1.20331,-1.74023,0.588734,0.672349,-0.401109,-0.000214577,0.224113,0.595212,0.0192821,0.0101062,0.718653,5,0.1,11,4,2.62616,2.9053,0.599467,-0.603199,-0.0282586,0.000375509,-0.316381,0.137329,-0.00038743,0.0201493,1.24823,5,0.1,12,4,1.26817,1.61291,0.5,0.0583768,0.307438,1.49012e-06,-0.00488758,-0.530064,0,0.00663248,0.349386,5,0.1,13,4,1.20206,1.24747,0.616113,-0.00314116,0.311127,-0.0108033,-0.00202656,-0.0941753,-0.00545382,0.0103077,0.422254,5,0.1,14,4,4.37634,-0.968835,0.606534,-0.00309944,0.00810772,-0.000120699,0,0.000268221,0,0.00993959,1.42208e-05,5,0.1,15,4,-1.16366,4.00638,0.55213,0.621378,-0.0170112,-0.0107318,-1.1633,0.0658035,0.0489056,0.00984638,3.12872,5,0.1,16,4,-1.0067,4.05949,1.06699,-0.801989,-0.202847,0.0162244,-0.785708,0.206947,-0.367463,0.0109762,2.35449,5,0.1,17,4,-1.42304,-0.765936,0.622031,0.0191092,0.792651,-0.00218153,-0.206828,0.697494,-0.00911951,0.0112371,2.31674,5,0.1,18,4,-3.03041,-1.67405,0.602234,0.491613,0.0224411,-0.00207871,0.220895,-0.0222325,0.00202656,0.00725807,0.43389,5,0.1,19,4,-1.80276,2.40187,0.600086,0.0219882,0.00573397,-0.000409782,-0.0663996,-0.074625,0.0012219,0.00696188,0.214941,5,0.1
0,4.1,0.450996,-2.85146,1.3,-0.00100294,0.396607,0,0.000797212,-0.0405461,0,0.00888109,0.164104,5,0.1,1,4.1,-1.99349,2.40007,0.782197,0.0558361,-0.0017561,0.0168219,-0.0947416,0.0329018,-0.00974536,0.00931597,0.166224,5,0.1,2,4.1,0.813384,-0.470807,0.74395,0.390922,0.226929,0.00592787,-0.363663,-0.0676345,-0.00586361,0.00741553,0.114089,5,0.1,3,4.1,3.34484,1.81406,0.742206,-0.0436727,0.165769,0.00759652,0.0382215,0.624306,-0.00659749,0.0204033,1.11804,5,0.1,4,4.1,1.44101,2.40006,0.600026,0.291965,-5.55068e-05,1.49943e-05,0.0349805,-0.00013411,-0.000115484,0.0142649,0.105865,5,0.1,5,4.1,-0.278102,4.00509,0.51111,0.860059,-0.0078544,0.025149,0.173457,-0.0270605,0.0652783,0.0104866,2.33284,5,0.1,6,4.1,-1.16258,-1.0738,0.641187,0.00510868,0.815592,0.0273716,0.0767037,0.147402,0.00179559,0.0107776,2.37184,5,0.1,7,4.1,-1.65526,-2.66481,0.600334,0.00242516,0.822124,-0.000157394,-0.00701845,-0.406638,0.000424683,0.00715827,0.19998,5,0.1,8,4.1,-2.70127,1.37736,0.600093,0.866026,0.100603,-3.96743e-05,0,0.105962,0.000320375,0.0100695,2.26446,5,0.1,9,4.1,-1.8431,-0.700386,0.605019,-0.571376,-0.00794036,-0.00347178,0.428781,0.00756606,0.00330806,0.00877954,0.156176,5,0.1,10,4.1,-1.13485,-1.77727,0.588807,0.69682,-0.338964,0.00164257,0.225119,0.639625,0.0174083,0.0101062,0.718653,5,0.1,11,4.1,2.56389,2.90314,0.599503,-0.64448,-0.0154216,0.000344776,-0.452161,0.108257,-0.00025332,0.0201493,1.24823,5,0.1,12,4.1,1.27404,1.64085,0.5,0.0593161,0.250004,1.39698e-06,0.0181571,-0.60422,-3.72529e-06,0.00663248,0.349386,5,0.1,13,4.1,1.20181,1.27815,0.615009,-0.00121556,0.302339,-0.0112466,0.0309944,-0.0931025,-0.00300631,0.0103077,0.422254,5,0.1,14,4.1,4.37603,-0.968035,0.606522,-0.00297353,0.00780337,-0.000115857,0.00235438,-0.00596792,9.68575e-05,0.00993959,1.42208e-05,5,0.1,15,4.1,-1.10771,4.00503,0.551326,0.496189,-0.00994802,-0.00515068,-1.25168,0.0729561,0.0600629,0.00984638,3.12872,5,0.1,16,4.1,-1.08993,4.04052,1.0667,-0.854185,-0.174499,-0.0222083,-0.283837,0.324368,-0.386298,0.0109762,2.35449,5,0.1,17,4.1,-1.42227,-0.683698,0.621764,-0.00435952,0.846521,-0.00317888,-0.250496,0.365414,-0.0102483,0.0112371,2.31674,5,0.1,18,4.1,-2.98006,-1.67191,0.602035,0.515483,0.020447,-0.00189692,0.22468,-0.018388,0.00168383,0.00725807,0.43389,5,0.1,19,4.1,-1.80088,2.40196,0.60005,0.015806,-0.00621155,-0.000298209,-0.0570267,-0.198781,0.00101328,0.00696188,0.214941,5,0.1
0,4.2,0.450899,-2.81199,1.3,-0.000932813,0.392383,0,0.000655651,-0.0654459,0,0.0085991,0.0990894,5,0.1,1,4.2,-1.98838,2.40001,0.78383,0.0465244,0.000137091,0.015837,-0.0925064,0.00751019,-0.0103116,0.0102742,0.241014,5,0.1,2,4.2,0.850666,-0.448474,0.744514,0.354581,0.219306,0.00535548,-0.371456,-0.0932217,-0.00578165,0.00731364,0.136015,5,0.1,3,4.2,3.34067,1.83406,0.742932,-0.0398397,0.23576,0.006935,0.0394583,0.721991,-0.00685453,0.0166571,0.905454,5,0.1,4,4.2,1.47038,2.40005,0.600027,0.294989,-7.15256e-05,4.47035e-06,0.00804663,0,-0.000119209,0.0152356,0.0908843,5,0.1,5,4.2,-0.191651,4.00413,0.513924,0.866025,-0.0119209,0.0308082,0,-0.0593662,0.0459552,0.0111923,2.29686,5,0.1,6,4.2,-1.16185,-0.991515,0.643926,0.00810921,0.828841,0.0273138,-0.00840425,0.0678301,-0.00402331,0.0096166,2.32185,5,0.1,7,4.2,-1.65505,-2.58497,0.60032,0.00190139,0.77098,-0.00012517,-0.00375509,-0.621796,0.000208616,0.00723721,2.46729,5,0.1,8,4.2,-2.61467,1.3879,0.600091,0.866026,0.109556,-1.49012e-05,0,0.0669956,0.000178814,0.00968146,2.26242,5,0.1,9,4.2,-1.89806,-0.701143,0.604688,-0.527149,-0.00719428,-0.00314564,0.468433,0.00756979,0.00333786,0.00897211,0.104641,5,0.1,10,4.2,-1.06431,-1.80795,0.589052,0.710577,-0.274667,0.00319183,0.0222325,0.639558,0.0132024,0.00933325,0.513444,5,0.1,11,4.2,2.49734,2.90203,0.599536,-0.683814,-0.00814795,0.000323355,-0.293732,0.0329018,-0.000238419,0.0198227,1.07196,5,0.1,12,4.2,1.28006,1.6628,0.5,0.0610471,0.189161,0,0.012517,-0.601351,2.98023e-05,0.00821345,0.427132,5,0.1,13,4.2,1.20184,1.30784,0.613876,0.00151396,0.290582,-0.0113383,0.0177026,-0.149846,0.00140071,0.00961429,0.660278,5,0.1,14,4.2,4.37575,-0.967292,0.606511,-0.00265837,0.00698864,-0.000104308,0.0038147,-0.0100136,0.000178814,0.0083244,8.91163e-06,5,0.1,15,4.2,-1.06394,4.00439,0.551112,0.384393,-0.00283718,0.000813603,-0.939608,0.0669956,0.0572205,0.0103599,1.77158,5,0.1,16,4.2,-1.17618,4.02467,1.06262,-0.866026,-0.14348,-0.0584602,0,0.276804,-0.327826,0.0101361,2.31103,5,0.1,17,4.2,-1.42395,-0.597821,0.621397,-0.0288844,0.865184,-0.00413209,-0.231087,0.0168383,-0.00840425,0.00917632,2.48574,5,0.1,18,4.2,-2.92759,-1.66995,0.601854,0.531155,0.0186354,-0.00173151,0.066638,-0.0182986,0.00169873,0.00910644,0.476651,5,0.1,19,4.2,-1.79957,2.4,0.600025,0.0106126,-0.0360727,-0.000207126,-0.0466704,-0.384331,0.000804663,0.00796454,0.153405,5,0.1
0,4.3,0.450808,-2.773,1.3,-0.000879355,0.387819,0,0.000458211,-0.0448972,0,0.0085991,0.0990894,5,0.1,1,4.3,-1.98413,2.40004,0.785355,0.0387348,0.000507385,0.0145741,-0.0656992,0.000596046,-0.0147223,0.0102742,0.241014,5,0.1,2,4.3,0.884547,-0.426792,0.745026,0.325301,0.216004,0.00491124,-0.234786,0.00739656,-0.00344217,0.00731364,0.136015,5,0.1,3,4.3,3.33687,1.86159,0.743594,-0.03624,0.316916,0.00630943,0.0337213,0.847995,-0.00586733,0.0166571,0.905454,5,0.1,4,4.3,1.5001,2.40005,0.600027,0.300578,-7.1153e-05,-6.79865e-06,0.0792444,1.49012e-05,-0.000100583,0.0152356,0.0908843,5,0.1,5,4.3,-0.105049,4.00262,0.517233,0.866025,-0.0191525,0.0352917,0,-0.10699,0.0411868,0.0111923,2.29686,5,0.1,6,4.3,-1.16122,-0.907885,0.646646,0.00336953,0.846264,0.0271453,-0.077799,0.220321,-0.00089407,0.0096166,2.32185,5,0.1,7,4.3,-1.65487,-2.50958,0.600308,0.00166539,0.748408,-0.000112224,-0.00124425,0.069797,6.33299e-05,0.00723721,2.46729,5,0.1,8,4.3,-2.52807,1.39922,0.60009,0.866026,0.116795,-2.51457e-06,0,0.069797,7.82311e-05,0.00968146,2.26242,5,0.1,9,4.3,-1.94857,-0.701827,0.604389,-0.484045,-0.00650818,-0.00284277,0.409119,0.00636652,0.00280887,0.00897211,0.104641,5,0.1,10,4.3,-0.993091,-1.83227,0.589434,0.713438,-0.212446,0.00441652,0.00285357,0.599697,0.0109449,0.00933325,0.513444,5,0.1,11,4.3,2.42736,2.90131,0.599567,-0.716047,-0.00762939,0.000304636,-0.306234,-0.0538528,-0.000152737,0.0198227,1.07196,5,0.1,12,4.3,1.2863,1.67879,0.500001,0.0641096,0.131683,1.39698e-06,0.0416636,-0.540122,3.72529e-06,0.00821345,0.427132,5,0.1,13,4.3,1.20215,1.33634,0.61275,0.0048399,0.280957,-0.0111541,0.0235885,-0.0619963,0.0026226,0.00961429,0.660278,5,0.1,14,4.3,4.37551,-0.966647,0.606502,-0.00222772,0.00585932,-8.5216e-05,0.00470877,-0.0122413,0.00019744,0.0083244,8.91163e-06,5,0.1,15,4.3,-1.02958,4.00444,0.551487,0.310571,0.00389814,0.00672117,-0.483625,0.0655651,0.0586361,0.0103599,1.77158,5,0.1,16,4.3,-1.26278,4.01161,1.05513,-0.866026,-0.119844,-0.0910062,0,0.15372,-0.310585,0.0101361,2.31103,5,0.1,17,4.3,-1.42802,-0.512144,0.620941,-0.0525096,0.839969,-0.0049971,-0.231601,-0.48618,-0.0083968,0.00917632,2.48574,5,0.1,18,4.3,-2.87395,-1.66817,0.601689,0.542616,0.0169914,-0.00157878,0.12733,-0.0151843,0.00140816,0.00910644,0.476651,5,0.1,19,4.3,-1.79872,2.39412,0.600008,0.00640005,-0.084044,-0.000135414,-0.0375211,-0.538498,0.000633299,0.00796454,0.153405,5,0.1
0,4.4,0.450723,-2.73453,1.3,-0.00083372,0.380188,0,0.000506639,-0.121117,0,0.00761413,0.165567,5,0.1,1,4.4,-1.98056,2.40009,0.786733,0.0329614,0.000369549,0.0129357,-0.051558,-0.0026226,-0.0178814,0.00951393,0.231036,5,0.1,2,4.4,0.91599,-0.405122,0.745501,0.304031,0.217346,0.00460744,-0.205904,0.00482798,-0.00289083,0.00979766,0.186377,5,0.1,3,4.4,3.33341,1.89737,0.744195,-0.0329018,0.39618,0.00572652,0.0340939,0.698626,-0.00590086,0.0267934,0.497703,5,0.1,4,4.4,1.53051,2.40004,0.600026,0.306654,-7.15256e-05,-1.63913e-05,0.0249147,0.000119209,-5.96046e-05,0.0120021,0.0454257,5,0.1,5,4.4,-0.0184462,4,0.520943,0.866025,-0.0348866,0.0386178,-1.19209e-06,-0.201464,0.0236332,0.0110935,2.28128,5,0.1,6,4.4,-1.16132,-0.822308,0.649351,-0.00591874,0.862698,0.0268713,-0.101388,0.0665188,-0.00563264,0.0103511,2.30961,5,0.1,7,4.4,-1.65471,-2.43393,0.600297,0.00160635,0.767273,-0.000110269,-0.000119209,0.231385,2.98023e-05,0.00743289,0.341688,5,0.1,8,4.4,-2.44146,1.4112,0.60009,0.866026,0.12216,1.49012e-06,0,0.0319481,0,0.0107311,2.26137,5,0.1,9,4.4,-1.99493,-0.702446,0.604119,-0.442705,-0.00588298,-0.00256747,0.428498,0.00625849,0.00274181,0.00894464,0.121148,5,0.1,10,4.4,-0.92198,-1.85062,0.589925,0.705755,-0.155622,0.00532269,-0.178307,0.532925,0.00694394,0.0110709,0.35593,5,0.1,11,4.4,2.3545,2.9,0.599597,-0.737488,-0.0213325,0.000289083,-0.0914335,-0.213146,-0.000149012,0.0192895,0.803026,5,0.1,12,4.4,1.29292,1.68942,0.500001,0.0681549,0.0824451,0,0.0341535,-0.439644,0,0.00803693,0.467141,5,0.1,13,4.4,1.20261,1.36414,0.611652,0.00264943,0.27484,-0.0107586,-0.0780821,-0.0745654,0.00545382,0.00987544,0.591019,5,0.1,14,4.4,4.37531,-0.966124,0.606494,-0.00174046,0.0045985,-6.55651e-05,0.00452995,-0.0126958,0.000208616,0.00748793,8.55291e-06,5,0.1,15,4.4,-1,4.00515,0.55244,0.289899,0.00990629,0.0121474,0.0392497,0.0536442,0.0482202,0.00964411,0.651268,5,0.1,16,4.4,-1.34938,4,1.04459,-0.866026,-0.116086,-0.118455,0,-0.0702143,-0.229597,0.0115043,2.2781,5,0.1,17,4.4,-1.43436,-0.431174,0.620402,-0.0735253,0.774173,-0.00572652,-0.181735,-0.802428,-0.00584126,0.00910143,2.77949,5,0.1,18,4.4,-2.81919,-1.66655,0.601538,0.55061,0.0154942,-0.00144094,0.00762939,-0.0151992,0.00146031,0.00794471,0.522042,5,0.1,19,4.4,-1.79825,2.38302,0.599998,0.00311434,-0.137419,-8.04663e-05,-0.0283122,-0.501871,0.000476837,0.00890986,0.0931101,5,0.1
0,4.5,0.450642,-2.69684,1.3,-0.000787759,0.375836,0,0.000441447,0.00444055,0,0.00761413,0.165567,5,0.1,1,4.5,-1.97737,2.40011,0.787902,0.0323007,0.000112131,0.0101708,0.0284687,-0.00245869,-0.0351742,0.00951393,0.231036,5,0.1,2,4.5,0.945485,-0.383022,0.745949,0.286741,0.227286,0.00437321,-0.15356,0.163371,-0.00201538,0.00979766,0.186377,5,0.1,3,4.5,3.33028,1.94038,0.744741,-0.029806,0.462311,0.0051898,0.0288188,0.593044,-0.00500306,0.0267934,0.497703,5,0.1,4,4.5,1.56129,2.40003,0.600024,0.308543,-6.10948e-05,-2.17929e-05,-0.000298023,8.9407e-05,-4.47035e-05,0.0120021,0.0454257,5,0.1,5,4.5,0.0681563,3.99525,0.524926,0.866025,-0.0621669,0.0409977,4.47035e-07,-0.320315,0.0215285,0.0110935,2.28128,5,0.1,6,4.5,-1.16234,-0.735838,0.652026,-0.0135766,0.865626,0.0267221,-0.0537708,0.000659376,0.00077486,0.0103511,2.30961,5,0.1,7,4.5,-1.65455,-2.35637,0.600286,0.00166781,0.780268,-0.000112038,0.00111759,0.0111908,-4.84288e-05,0.00743289,0.341688,5,0.1,8,4.5,-2.35486,1.4236,0.60009,0.866026,0.126007,-1.02445e-06,0,0.0373498,-4.84288e-05,0.0107311,2.26137,5,0.1,9,4.5,-2.0374,-0.703008,0.603873,-0.409667,-0.00540065,-0.00235559,0.259183,0.00375882,0.0016503,0.00894464,0.121148,5,0.1,10,4.5,-0.852243,-1.86362,0.590489,0.688856,-0.105608,0.00593867,-0.185791,0.464037,0.00510365,0.0110709,0.35593,5,0.1,11,4.5,2.28024,2.89647,0.599625,-0.747304,-0.0519741,0.000276882,-0.0693053,-0.371203,-0.000108033,0.0192895,0.803026,5,0.1,12,4.5,1.29998,1.69566,0.500001,0.0737716,0.0444742,0,0.0692308,-0.318058,0,0.00803693,0.467141,5,0.1,13,4.5,1.20236,1.39136,0.610603,-0.00983123,0.270133,-0.0102152,-0.206165,-0.0348836,0.00570342,0.00987544,0.591019,5,0.1,14,4.5,4.37516,-0.965728,0.606489,-0.00128001,0.00332948,-4.53554e-05,0.00458956,-0.0124499,0.00018999,0.00748793,8.55291e-06,5,0.1,15,4.5,-0.970225,4.0064,0.553892,0.310203,0.0150234,0.0168234,0.316922,0.0470877,0.0435561,0.00964411,0.651268,5,0.1,16,4.5,-1.43598,3.98751,1.03161,-0.866026,-0.137984,-0.140908,0,-0.327513,-0.208192,0.0115043,2.2781,5,0.1,17,4.5,-1.44262,-0.358541,0.6198,-0.0915229,0.673253,-0.00632377,-0.16965,-1.12148,-0.00564381,0.00910143,2.77949,5,0.1,18,4.5,-2.76385,-1.66507,0.6014,0.557836,0.0141276,-0.00131009,0.0990331,-0.0126287,0.00120327,0.00794471,0.522042,5,0.1,19,4.5,-1.79807,2.36678,0.599992,0.000660308,-0.186771,-3.93949e-05,-0.0208095,-0.463963,0.000346452,0.00890986,0.0931101,5,0.1
0,4.6,0.450565,-2.65922,1.3,-0.000740588,0.37595,0,0.000536442,-0.0236034,0,0.00780914,0.14072,5,0.1,1,4.6,-1.97393,2.40011,0.78873,0.0369042,-0.000101328,0.00629872,0.0560284,-0.00190735,-0.0404716,0.011149,0.219063,5,0.1,2,4.6,0.973387,-0.359421,0.746377,0.270984,0.244685,0.00416487,-0.171334,0.161842,-0.00229478,0.00843437,0.12067,5,0.1,3,4.6,3.32744,1.9892,0.745235,-0.0269711,0.509617,0.00469834,0.0286102,0.332415,-0.00500679,0.0190832,0.521909,5,0.1,4,4.6,1.59201,2.40003,0.600022,0.304419,-5.36442e-05,-2.5332e-05,-0.0907779,0.000119209,-2.98023e-05,0.0103512,0.0809393,5,0.1,5,4.6,0.154759,3.98739,0.529113,0.866026,-0.0947833,0.042516,-7.15256e-06,-0.313878,0.00712276,0.00984735,2.26131,5,0.1,6,4.6,-1.1639,-0.649358,0.6547,-0.0170529,0.862961,0.0267044,-0.0175238,-0.0613332,-0.0025034,0.015533,2.30865,5,0.1,7,4.6,-1.65438,-2.27876,0.600274,0.00179112,0.766826,-0.000117719,0.00119209,-0.28944,-5.96046e-05,0.0165123,2.45138,5,0.1,8,4.6,-2.26826,1.43634,0.60009,0.866026,0.128335,-7.45058e-06,0,0.0038743,-2.98023e-05,0.0170261,2.20457,5,0.1,9,4.6,-2.07717,-0.703531,0.603645,-0.38619,-0.00506788,-0.00220835,0.230193,0.00318885,0.00140071,0.0142573,0.0705962,5,0.1,10,4.6,-0.784472,-1.872,0.591104,0.664225,-0.0633538,0.00629872,-0.324368,0.378966,0.00190735,0.0160398,0.24103,5,0.1,11,4.6,2.20544,2.88934,0.599652,-0.745374,-0.0905633,0.000265241,0.132203,-0.378966,-0.000149012,0.0291261,0.579681,5,0.1,12,4.6,1.3077,1.69873,0.500001,0.0804514,0.0188679,0,0.0578165,-0.195444,-2.98023e-05,0.0114889,0.46845,5,0.1,13,4.6,1.2,1.41816,0.609613,-0.0406921,0.265247,-0.00957251,-0.397444,-0.0737309,0.00739098,0.0137108,0.498052,5,0.1,14,4.6,4.37505,-0.965455,0.606485,-0.000846386,0.00214726,-2.68221e-05,0.00429153,-0.0109673,0.000149012,0.0195732,6.72862e-06,5,0.1,15,4.6,-0.9375,4.00811,0.555773,0.344551,0.0190616,0.0205651,0.332564,0.0326633,0.0301003,0.0114227,0.168204,5,0.1,16,4.6,-1.52259,3.97192,1.01659,-0.866026,-0.174505,-0.158191,0,-0.37241,-0.1297,0.0316595,2.22847,5,0.1,17,4.6,-1.45254,-0.296757,0.619143,-0.106007,0.564494,-0.00677705,-0.114024,-1.00201,-0.00309944,0.0138809,2.94334,5,0.1,18,4.6,-2.70767,-1.66372,0.601275,0.563937,0.0128806,-0.00119209,-0.00417233,-0.0126958,0.00119209,0.0115144,2.75542,5,0.1,19,4.6,-1.7981,2.34598,0.599989,-0.00106394,-0.226647,-1.04308e-05,-0.0137091,-0.319242,0.000268221,0.0166572,0.123797,5,0.1
0,4.7,0.450494,-2.6217,1.3,-0.000683544,0.374572,0,0.00061281,-0.0212789,0,0.00780914,0.14072,5,0.1,1,4.7,-1.96975,2.4001,0.789106,0.0483625,-0.000229105,0.000814814,0.156641,-0.000730157,-0.064943,0.011149,0.219063,5,0.1,2,4.7,0.999678,-0.334271,0.746782,0.255111,0.256867,0.00395412,-0.154942,0.0749398,-0.00206009,0.00843437,0.12067,5,0.1,3,4.7,3.32488,2.04188,0.745681,-0.0243828,0.543855,0.00424534,0.0239611,0.317909,-0.00419468,0.0190832,0.521909,5,0.1,4,4.7,1.62217,2.40002,0.600019,0.299831,-4.32134e-05,-2.73809e-05,-0.0210553,8.9407e-05,-7.45058e-06,0.0103512,0.0809393,5,0.1,5,4.7,0.241361,3.97624,0.533408,0.866025,-0.128942,0.0433864,-1.78814e-06,-0.349045,0.00791252,0.00984735,2.26131,5,0.1,6,4.7,-1.16569,-0.563119,0.657369,-0.0186495,0.863458,0.0267602,-0.0134706,0.0383203,0.00188872,0.015533,2.30865,5,0.1,7,4.7,-1.65366,-2.20242,0.60028,0.0168469,0.768588,0.000385009,0.266612,0.233412,0.0089854,0.0165123,2.45138,5,0.1,8,4.7,-2.18166,1.44923,0.600089,0.866026,0.129475,-1.21072e-05,0,0.0117272,-5.96046e-05,0.0170261,2.20457,5,0.1,9,4.7,-2.11479,-0.704024,0.603431,-0.367084,-0.00480795,-0.0020938,0.169694,0.0022538,0.000990927,0.0142573,0.0705962,5,0.1,10,4.7,-0.719594,-1.87655,0.591742,0.633559,-0.0287471,0.00644242,-0.310477,0.310935,0.000741333,0.0160398,0.24103,5,0.1,11,4.7,2.13151,2.87829,0.599678,-0.732872,-0.130947,0.000252295,0.146642,-0.407159,-0.000115484,0.0291261,0.579681,5,0.1,12,4.7,1.31615,1.69982,0.500001,0.089395,0.00479128,-1.76951e-06,0.108659,-0.093095,-1.11759e-05,0.0114889,0.46845,5,0.1,13,4.7,1.19351,1.44438,0.608691,-0.0923868,0.259415,-0.00886703,-0.595376,-0.0551566,0.00696257,0.0137108,0.498052,5,0.1,14,4.7,4.37499,-0.965293,0.606483,-0.000441074,0.00111442,-1.29454e-05,0.00375509,-0.00955164,0.000122935,0.0195732,6.72862e-06,5,0.1,15,4.7,-0.901386,4.0102,0.557999,0.377069,0.0227414,0.0240888,0.293933,0.0381172,0.0373647,0.0114227,0.168204,5,0.1,16,4.7,-1.60919,3.95236,1.00011,-0.866026,-0.218417,-0.171092,0,-0.471666,-0.117615,0.0316595,2.22847,5,0.1,17,4.7,-1.46373,-0.245101,0.618448,-0.117603,0.474204,-0.00712601,-0.109315,-0.680848,-0.00340864,0.0138809,2.94334,5,0.1,18,4.7,-2.65032,-1.66146,0.601241,0.59069,0.0410579,0.00117077,0.455186,0.510663,0.0410862,0.0115144,2.75542,5,0.1,19,4.7,-1.79826,2.32167,0.59999,-0.0021575,-0.259707,1.14553e-05,-0.0082925,-0.319362,0.000167638,0.0166572,0.123797,5,0.1
0,4.8,0.450429,-2.58446,1.3,-0.000616908,0.368786,0,0.000700355,-0.106335,0,0.0177077,0.169493,5,0.1,1,4.8,-1.96407,2.40007,0.788852,0.0653297,-0.00026226,-0.0059396,0.170231,0,-0.0668764,0.0158201,0.307954,5,0.1,2,4.8,1.02438,-0.308398,0.747167,0.238511,0.258602,0.00372827,-0.182927,-0.0440925,-0.0025928,0.0121544,0.100365,5,0.1,3,4.8,3.32255,2.0976,0.746085,-0.0220299,0.567377,0.00383407,0.0234842,0.128746,-0.00414252,0.0231842,0.39636,5,0.1,4,4.8,1.65202,2.40002,0.600016,0.296754,-3.57628e-05,-2.68221e-05,-0.0548363,0.000119209,-2.98023e-05,0.0165892,0.0670356,5,0.1,5,4.8,0.327964,3.96167,0.537771,0.866025,-0.161093,0.0436962,1.43051e-05,-0.279546,-0.00336766,0.0127833,2.24451,5,0.1,6,4.8,-1.16761,-0.476611,0.66005,-0.019595,0.866026,0.0267878,-0.00470877,0,-0.0026226,0.00886244,2.2945,5,0.1,7,4.8,-1.65043,-2.12415,0.600371,0.0491947,0.797558,0.00147969,0.354469,0.277638,0.0120401,0.00872843,0.489472,5,0.1,8,4.8,-2.09505,1.4622,0.600087,0.866026,0.129455,-1.78814e-05,0,-0.0172257,-5.96046e-05,0.0137959,1.74708,5,0.1,9,4.8,-2.15063,-0.704494,0.603226,-0.349224,-0.00457615,-0.0019908,0.200152,0.0026226,0.00113249,0.00803988,0.0551046,5,0.1,10,4.8,-0.657911,-1.878,0.592386,0.598526,-0.00150502,0.00641197,-0.404716,0.232756,-0.00151992,0.0104173,2.2958,5,0.1,11,4.8,2.05918,2.86326,0.599703,-0.711232,-0.168282,0.000239909,0.305772,-0.32413,-0.000149012,0.0192345,0.407103,5,0.1,12,4.8,1.32564,1.69996,0.5,0.100031,-0.0010252,-2.98023e-06,0.0950098,-0.0288486,2.98023e-05,0.00704856,0.437632,5,0.1,13,4.8,1.18125,1.46999,0.60784,-0.152567,0.25214,-0.0081405,-0.57745,-0.0988841,0.0077188,0.0118213,0.394628,5,0.1,14,4.8,4.37496,-0.965226,0.606483,-0.000107288,0.00026077,-1.49012e-06,0.00286102,-0.00748038,0.000119209,0.00827487,3.92768e-06,5,0.1,15,4.8,-0.862433,4.01265,0.560587,0.399327,0.0262022,0.027521,0.135005,0.0290871,0.0290871,0.00946303,0.248502,5,0.1,16,4.8,-1.69579,3.92823,0.982505,-0.866026,-0.26291,-0.179911,5.96046e-05,-0.39351,-0.051409,0.011578,2.18699,5,0.1,17,4.8,-1.47597,-0.2,0.617721,-0.126415,0.438508,-0.00737756,-0.0610948,-0.0541806,-0.0012815,0.00956781,2.80297,5,0.1,18,4.8,-2.58879,-1.65438,0.601596,0.640279,0.10336,0.00614077,0.473738,0.684381,0.0544488,0.0081611,2.48222,5,0.1,19,4.8,-1.79851,2.29425,0.599991,-0.00275075,-0.286686,2.38419e-05,-0.00363588,-0.204206,8.9407e-05,0.0072156,0.196569,5,0.1
0,4.9,0.450371,-2.54782,1.3,-0.000552367,0.366181,0,0.000603497,0.0240058,0,0.0177077,0.169493,5,0.1,1,4.9,-1.95656,2.40005,0.787895,0.0857182,-0.000234693,-0.0133644,0.221103,0.000476837,-0.0773929,0.0158201,0.307954,5,0.1,2,4.9,1.04734,-0.283116,0.747527,0.220821,0.243792,0.00347672,-0.176445,-0.238702,-0.00252947,0.0121544,0.100365,5,0.1,3,4.9,3.32035,2.155,0.746449,-0.0229806,0.579935,0.0034607,-0.0350475,0.0950247,-0.00344589,0.0231842,0.39636,5,0.1,4,4.9,1.68158,2.40002,0.600014,0.29525,-2.57045e-05,-2.85916e-05,0.00417978,7.45058e-05,-1.11759e-05,0.0165892,0.0670356,5,0.1,5,4.9,0.414566,3.94412,0.542135,0.866025,-0.190096,0.0436289,-3.57628e-06,-0.282377,-0.000312924,0.0127833,2.24451,5,0.1,6,4.9,-1.16986,-0.390008,0.662717,-0.0276981,0.866026,0.0265121,-0.139423,-3.57628e-06,-0.0039041,0.00886244,2.2945,5,0.1,7,4.9,-1.64407,-2.04326,0.600568,0.0749379,0.817044,0.00235084,0.168473,0.0878423,0.00566989,0.00872843,0.489472,5,0.1,8,4.9,-2.00845,1.47508,0.600085,0.866026,0.128125,-2.43075e-05,0,-0.0151619,-7.07805e-05,0.0137959,1.74708,5,0.1,9,4.9,-2.1847,-0.70494,0.603032,-0.333348,-0.00437349,-0.00190316,0.135764,0.00168383,0.000733882,0.00803988,0.0551046,5,0.1,10,4.9,-0.600138,-1.87879,0.593019,0.556168,-0.0297468,0.00624387,-0.450484,-0.69055,-0.00203028,0.0104173,2.2958,5,0.1,11,4.9,1.98951,2.84481,0.599726,-0.682228,-0.200259,0.000226591,0.297993,-0.298843,-0.000122935,0.0192345,0.407103,5,0.1,12,4.9,1.33631,1.69976,0.5,0.114915,-0.00241324,-5.58794e-07,0.183247,-0.00150502,1.49012e-05,0.00704856,0.437632,5,0.1,13,4.9,1.16298,1.49476,0.607063,-0.213052,0.243358,-0.00741798,-0.601113,-0.0866801,0.00693649,0.0118213,0.394628,5,0.1,14,4.9,4.37496,-0.965235,0.606483,0.000146776,-0.000404567,8.6613e-06,0.00223517,-0.00576675,8.56817e-05,0.00827487,3.92768e-06,5,0.1,15,4.9,-0.821768,4.0154,0.563464,0.413944,0.0284702,0.0297949,0.133634,0.015676,0.0156984,0.00946303,0.248502,5,0.1,16,4.9,-1.78239,3.89984,0.96423,-0.866025,-0.305269,-0.185605,-1.49012e-05,-0.423193,-0.0519827,0.011578,2.18699,5,0.1,17,4.9,-1.48893,-0.154953,0.616975,-0.132736,0.474338,-0.00754176,-0.0575408,0.662338,-0.00156835,0.00956781,2.80297,5,0.1,18,4.9,-2.5219,-1.64019,0.602515,0.700628,0.183517,0.012464,0.662103,0.866301,0.0680499,0.0081611,2.48222,5,0.1,19,4.9,-1.7988,2.26434,0.599994,-0.00292193,-0.312852,3.00817e-05,7.45058e-06,-0.287384,3.35276e-05,0.0072156,0.196569,5,0.1
