id,t,px,py,pz,vx,vy,vz,ax,ay,az,planning_time,qp_cost,planning_report,size,id,t,px,py,pz,vx,vy,vz,ax,ay,az,planning_time,qp_cost,planning_report,size,id,t,px,py,pz,vx,vy,vz,ax,ay,az,planning_time,qp_cost,planning_report,size,id,t,px,py,pz,vx,vy,vz,ax,ay,az,planning_time,qp_cost,planning_report,size,id,t,px,py,pz,vx,vy,vz,ax,ay,az,planning_time,qp_cost,planning_report,size,id,t,px,py,pz,vx,vy,vz,ax,ay,az,planning_time,qp_cost,planning_report,size,id,t,px,py,pz,vx,vy,vz,ax,ay,az,planning_time,qp_cost,planning_report,size,id,t,px,py,pz,vx,vy,vz,ax,ay,az,planning_time,qp_cost,planning_report,size,id,t,px,py,pz,vx,vy,vz,ax,ay,az,planning_time,qp_cost,planning_report,size,id,t,px,py,pz,vx,vy,vz,ax,ay,az,planning_time,qp_cost,planning_report,size,id,t,px,py,pz,vx,vy,vz,ax,ay,az,planning_time,qp_cost,planning_report,size,id,t,px,py,pz,vx,vy,vz,ax,ay,az,planning_time,qp_cost,planning_report,size,id,t,px,py,pz,vx,vy,vz,ax,ay,az,planning_time,qp_cost,planning_report,size,id,t,px,py,pz,vx,vy,vz,ax,ay,az,planning_time,qp_cost,planning_report,size,id,t,px,py,pz,vx,vy,vz,ax,ay,az,planning_time,qp_cost,planning_report,size,id,t,px,py,pz,vx,vy,vz,ax,ay,az,planning_time,qp_cost,planning_report,size,id,t,px,py,pz,vx,vy,vz,ax,ay,az,planning_time,qp_cost,planning_report,size,id,t,px,py,pz,vx,vy,vz,ax,ay,az,planning_time,qp_cost,planning_report,size,id,t,px,py,pz,vx,vy,vz,ax,ay,az,planning_time,qp_cost,planning_report,size,id,t,px,py,pz,vx,vy,vz,ax,ay,az,planning_time,qp_cost,planning_report,size,id,t,px,py,pz,vx,vy,vz,ax,ay,az,planning_time,qp_cost,planning_report,size,id,t,px,py,pz,vx,vy,vz,ax,ay,az,planning_time,qp_cost,planning_report,size,id,t,px,py,pz,vx,vy,vz,ax,ay,az,planning_time,qp_cost,planning_report,size,id,t,px,py,pz,vx,vy,vz,ax,ay,az,planning_time,qp_cost,planning_report,size,id,t,px,py,pz,vx,vy,vz,ax,ay,az,planning_time,qp_cost,planning_report,size,id,t,px,py,pz,vx,vy,vz,ax,ay,az,planning_time,qp_cost,planning_report,size,id,t,px,py,pz,vx,vy,vz,ax,ay,az,planning_time,qp_cost,planning_report,size,id,t,px,py,pz,vx,vy,vz,ax,ay,az,planning_time,qp_cost,planning_report,size,id,t,px,py,pz,vx,vy,vz,ax,ay,az,planning_time,qp_cost,planning_report,size,id,t,px,py,pz,vx,vy,vz,ax,ay,az,planning_time,qp_cost,planning_report,size,id,t,px,py,pz,vx,vy,vz,ax,ay,az,planning_time,qp_cost,planning_report,size,id,t,px,py,pz,vx,vy,vz,ax,ay,az,planning_time,qp_cost,planning_report,size,id,t,px,py,pz,vx,vy,vz,ax,ay,az,planning_time,qp_cost,planning_report,size,id,t,px,py,pz,vx,vy,vz,ax,ay,az,planning_time,qp_cost,planning_report,size,id,t,px,py,pz,vx,vy,vz,ax,ay,az,planning_time,qp_cost,planning_report,size,id,t,px,py,pz,vx,vy,vz,ax,ay,az,planning_time,qp_cost,planning_report,size,id,t,px,py,pz,vx,vy,vz,ax,ay,az,planning_time,qp_cost,planning_report,size,id,t,px,py,pz,vx,vy,vz,ax,ay,az,planning_time,qp_cost,planning_report,size,id,t,px,py,pz,vx,vy,vz,ax,ay,az,planning_time,qp_cost,planning_report,size,id,t,px,py,pz,vx,vy,vz,ax,ay,az,planning_time,qp_cost,planning_report,size
0,0,-3.78342,1.8802,0.582687,0,0,0,0,0,0,0.0284807,0.911868,5,0.1,1,0,3.23942,-2.25448,0.560156,0,0,0,0,0,0,0.0148703,1.11159,5,0.1,2,0,0.114837,-2.8393,0.586878,0,0,0,0,0,0,0.0359426,3.5122,5,0.1,3,0,1.92377,5.05275,0.612631,0,0,0,0,0,0,0.0482748,1.11651,5,0.1,4,0,-0.798974,2.33955,0.69012,0,0,0,0,0,0,0.0197642,1.36198,5,0.1,5,0,-4.10469,4.13598,0.542469,0,0,0,0,0,0,0.063124,3.51219,5,0.1,6,0,3.11702,-3.52417,0.560943,0,0,0,0,0,0,0.0417818,3.5122,5,0.1,7,0,-3.11449,4.35899,0.576734,0,0,0,0,0,0,0.0299966,3.51219,5,0.1,8,0,0.494627,1.80981,0.687605,0,0,0,0,0,0,0.0181544,3.5122,5,0.1,9,0,-3.74814,-2.84122,0.591071,0,0,0,0,0,0,0.0216289,3.5122,5,0.1,10,0,4.80977,-0.986639,0.533675,0,0,0,0,0,0,0.015297,0.561738,5,0.1,11,0,-2.46493,1.91933,0.570734,0,0,0,0,0,0,0.0192851,0.691296,5,0.1,12,0,1.27054,1.7792,0.661564,0,0,0,0,0,0,0.0179473,3.5122,5,0.1,13,0,-0.326064,-0.0465231,0.510203,0,0,0,0,0,0,0.0309311,3.51219,5,0.1,14,0,-1.20153,-1.07215,0.59672,0,0,0,0,0,0,0.0134975,2.74804,5,0.1,15,0,2.10468,-3.68306,0.672204,0,0,0,0,0,0,0.0165089,3.51219,5,0.1,16,0,-2.99305,-3.15938,0.574282,0,0,0,0,0,0,0.0146055,3.50216,5,0.1,17,0,-1.38605,-0.151489,0.511437,0,0,0,0,0,0,0.0200217,3.51219,5,0.1,18,0,1.14514,5.46157,0.542249,0,0,0,0,0,0,0.0274828,1.66044,5,0.1,19,0,-3.63152,-3.95847,0.541662,0,0,0,0,0,0,0.0131044,3.5122,5,0.1,20,0,1.6792,-3.02488,0.515982,0,0,0,0,0,0,0.0285183,0.879786,5,0.1,21,0,1.95112,5.67065,0.557626,0,0,0,0,0,0,0.0270027,2.4698,5,0.1,22,0,-3.48453,-5.36275,0.673656,0,0,0,0,0,0,0.0417483,3.5122,5,0.1,23,0,-1.85609,5.41105,0.639294,0,0,0,0,0,0,0.0313476,3.5122,5,0.1,24,0,0.543639,-0.0486503,0.613028,0,0,0,0,0,0,0.0124735,2.74418,5,0.1,25,0,1.93012,2.86445,0.5413,0,0,0,0,0,0,0.041342,3.5122,5,0.1,26,0,-1.62279,-5.83324,0.698476,0,0,0,0,0,0,0.0575358,3.51219,5,0.1,27,0,-0.159663,-1.22175,0.688173,0,0,0,0,0,0,0.0214019,3.5122,5,0.1,28,0,3.81239,-5.05001,0.586776,0,0,0,0,0,0,0.0548127,3.5122,5,0.1,29,0,-5.3601,-3.26429,0.678137,0,0,0,0,0,0,0.0208568,3.51219,5,0.1,30,0,-3.27517,2.25713,0.61355,0,0,0,0,0,0,0.021309,1.08985,5,0.1,31,0,-1.64622,-1.55867,0.648722,0,0,0,0,0,0,0.0203538,1.16237,5,0.1,32,0,-2.3678,-3.5991,0.51372,0,0,0,0,0,0,0.0165254,1.52366,5,0.1,33,0,-4.16893,-5.75914,0.555702,0,0,0,0,0,0,0.014366,0.963578,5,0.1,34,0,3.72376,-3.4984,0.645371,0,0,0,0,0,0,0.022737,3.5122,5,0.1,35,0,4.69887,-5.51076,0.614518,0,0,0,0,0,0,0.056223,0.869259,5,0.1,36,0,-1.6339,-4.31067,0.643772,0,0,0,0,0,0,0.0128695,3.5122,5,0.1,37,0,-4.70634,-3.51278,0.609415,0,0,0,0,0,0,0.0210275,3.5122,5,0.1,38,0,1.14762,4.61075,0.550032,0,0,0,0,0,0,0.0151228,0.624016,5,0.1,39,0,3.90412,-1.22,0.500561,0,0,0,0,0,0,0.0203301,0.843552,5,0.1
0,0.1,-3.78338,1.8809,0.583488,0.000990555,0.0198493,0.0227386,0.0175983,0.352867,0.404246,0.0284807,0.911868,5,0.1,1,0.1,3.23827,-2.25428,0.560207,-0.0328194,0.0056982,0.00146544,-0.583455,0.101298,0.0260584,0.0148703,1.11159,5,0.1,2,0.1,0.114854,-2.83721,0.586884,0.000480248,0.0592668,0.000179373,0.0085379,1.05362,0.00318885,0.0359426,3.5122,5,0.1,3,0.1,1.9238,5.05186,0.613401,0.000777468,-0.0252709,0.0218514,0.0138134,-0.44924,0.388473,0.0482748,1.11651,5,0.1,4,0.1,-0.798453,2.33836,0.690182,0.0147868,-0.0337694,0.00177436,0.262879,-0.600353,0.0315458,0.0197642,1.36198,5,0.1,5,0.1,-4.1026,4.13586,0.5425,0.0591569,-0.00353083,0.000860449,1.05169,-0.0627339,0.0152998,0.063124,3.51219,5,0.1,6,0.1,3.11602,-3.52234,0.560981,-0.0282634,0.0520844,0.00108536,-0.502452,0.925943,0.0192896,0.0417818,3.5122,5,0.1,7,0.1,-3.11243,4.35867,0.576751,0.0585683,-0.00906885,0.000459608,1.04123,-0.161231,0.00816956,0.0299966,3.51219,5,0.1,8,0.1,0.493885,1.81176,0.687663,-0.0210531,0.0553787,0.001653,-0.374276,0.984505,0.0293888,0.0181544,3.5122,5,0.1,9,0.1,-3.74615,-2.84123,0.591701,0.0565067,-0.000207126,0.0178822,1.00455,-0.00366569,0.317905,0.0216289,3.5122,5,0.1,10,0.1,4.80913,-0.987175,0.533744,-0.0180714,-0.015213,0.00196556,-0.321239,-0.270449,0.0349395,0.015297,0.561738,5,0.1,11,0.1,-2.46486,1.91889,0.571548,0.00192411,-0.0124265,0.0230928,0.0341982,-0.22091,0.410538,0.0192851,0.691296,5,0.1,12,0.1,1.26939,1.78094,0.661523,-0.0327528,0.0493819,-0.00118259,-0.582278,0.877894,-0.0210255,0.0179473,3.5122,5,0.1,13,0.1,-0.324009,-0.0468874,0.510148,0.0583386,-0.0103417,-0.00154311,1.03713,-0.183852,-0.0274368,0.0309311,3.51219,5,0.1,14,0.1,-1.20058,-1.07056,0.596723,0.0267161,0.0451077,9.74163e-05,0.474952,0.801921,0.00172853,0.0134975,2.74804,5,0.1,15,0.1,2.10468,-3.68098,0.672155,-8.9407e-05,0.0592522,-0.00138758,-0.00160933,1.05336,-0.0246726,0.0165089,3.51219,5,0.1,16,0.1,-2.99509,-3.15893,0.574368,-0.0577021,0.0129331,0.00242973,-1.02581,0.22991,0.0431947,0.0146055,3.50216,5,0.1,17,0.1,-1.38416,-0.152377,0.511464,0.053644,-0.0251889,0.000769086,0.953667,-0.447801,0.0136718,0.0200217,3.51219,5,0.1,18,0.1,1.1452,5.46041,0.543093,0.00162609,-0.0329413,0.0239369,0.0289083,-0.585645,0.425547,0.0274828,1.66044,5,0.1,19,0.1,-3.63142,-3.95639,0.541725,0.00287779,0.0591718,0.0017792,0.0511855,1.05193,0.0316277,0.0131044,3.5122,5,0.1,20,0.1,1.67838,-3.02423,0.515913,-0.023091,0.018518,-0.00195531,-0.410505,0.329211,-0.0347607,0.0285183,0.879786,5,0.1,21,0.1,1.95127,5.66911,0.558453,0.00441205,-0.0435807,0.0234815,0.0784472,-0.774771,0.417445,0.0270027,2.4698,5,0.1,22,0.1,-3.48407,-5.36071,0.673603,0.0130378,0.0577949,-0.0015134,0.231802,1.02749,-0.026904,0.0417483,3.5122,5,0.1,23,0.1,-1.85451,5.40968,0.639269,0.0449438,-0.0386298,-0.000718888,0.799,-0.686765,-0.0127815,0.0313476,3.5122,5,0.1,24,0.1,0.542758,-0.0473778,0.613014,-0.0250007,0.036122,-0.000386033,-0.444453,0.642169,-0.00686571,0.0124735,2.74418,5,0.1,25,0.1,1.9286,2.86302,0.54134,-0.0430016,-0.0407718,0.00113193,-0.764467,-0.724822,0.020124,0.041342,3.5122,5,0.1,26,0.1,-1.62262,-5.83116,0.698414,0.00490546,0.0590384,-0.00177063,0.0872016,1.04958,-0.0314787,0.0575358,3.51219,5,0.1,27,0.1,-0.159659,-1.21966,0.688197,0.000105565,0.0592647,0.000675768,0.00187755,1.05359,0.0120178,0.0214019,3.5122,5,0.1,28,0.1,3.81186,-5.04799,0.586786,-0.0151798,0.0572912,0.000302959,-0.26986,1.01855,0.0053905,0.0548127,3.5122,5,0.1,29,0.1,-5.36013,-3.26638,0.67807,-0.000970811,-0.0592306,-0.0018999,-0.0172555,-1.05298,-0.0337809,0.0208568,3.51219,5,0.1,30,0.1,-3.27629,2.25744,0.613536,-0.0318516,0.00867881,-0.000401586,-0.566259,0.154302,-0.00713766,0.021309,1.08985,5,0.1,31,0.1,-1.64653,-1.55751,0.648672,-0.00900235,0.0328541,-0.00144364,-0.160046,0.584081,-0.025671,0.0203538,1.16237,5,0.1,32,0.1,-2.36673,-3.5991,0.514593,0.0301611,-2.64496e-05,0.0247824,0.536188,-0.000461936,0.440579,0.0165254,1.52366,5,0.1,33,0.1,-4.16849,-5.75814,0.555748,0.0124142,0.0284225,0.0013127,0.220716,0.505328,0.0233389,0.014366,0.963578,5,0.1,34,0.1,3.72232,-3.49689,0.645331,-0.0409488,0.0428315,-0.00114432,-0.727996,0.761464,-0.0203438,0.022737,3.5122,5,0.1,35,0.1,4.69835,-5.50986,0.614503,-0.0147834,0.0255078,-0.000430271,-0.262797,0.453472,-0.0076443,0.056223,0.869259,5,0.1,36,0.1,-1.6352,-4.30904,0.643734,-0.0368338,0.0464208,-0.00106338,-0.654832,0.825256,-0.0189096,0.0128695,3.5122,5,0.1,37,0.1,-4.70439,-3.51205,0.60941,0.0554726,0.0208702,-0.000155531,0.986159,0.371024,-0.00276417,0.0210275,3.5122,5,0.1,38,0.1,1.14768,4.61048,0.550867,0.00155214,-0.00772849,0.0237064,0.0275895,-0.137359,0.421446,0.0151228,0.624016,5,0.1,39,0.1,3.90349,-1.2192,0.500557,-0.0179026,0.0228185,-0.000136346,-0.318274,0.405654,-0.00242889,0.0203301,0.843552,5,0.1
0,0.2,-3.78318,1.88493,0.588107,0.00312924,0.0627339,0.0718653,0.0234842,0.470459,0.539005,0.0203049,0.748142,5,0.1,1,0.2,3.2316,-2.25312,0.560505,-0.103724,0.0180066,0.00463128,-0.778079,0.135183,0.0347495,0.0165425,0.911993,5,0.1,2,0.2,0.114951,-2.82517,0.58692,0.00151787,0.187308,0.000566244,0.0113845,1.40488,0.00426173,0.0127112,2.92579,5,0.1,3,0.2,1.92396,5.04673,0.617839,0.00245571,-0.0798702,0.0690609,0.0184774,-0.598907,0.517935,0.0323098,0.916049,5,0.1,4,0.2,-0.795449,2.3315,0.690543,0.046733,-0.106728,0.0056088,0.350505,-0.80049,0.0420511,0.0306291,1.11743,5,0.1,5,0.2,-4.09059,4.13514,0.542674,0.186968,-0.011158,0.00272095,1.40214,-0.0836849,0.020355,0.0705696,2.9258,5,0.1,6,0.2,3.11028,-3.51176,0.561202,-0.0893235,0.16461,0.00343174,-0.669956,1.23453,0.0256896,0.0333512,2.9258,5,0.1,7,0.2,-3.10053,4.35683,0.576844,0.185102,-0.0286579,0.00145286,1.38843,-0.215054,0.0109076,0.0308445,2.92578,5,0.1,8,0.2,0.489608,1.82301,0.687999,-0.0665382,0.175023,0.00522435,-0.49904,1.31267,0.0391901,0.0201386,2.92579,5,0.1,9,0.2,-3.73467,-2.84127,0.595333,0.178581,-0.000649691,0.0565171,1.33955,-0.00500679,0.423849,0.0222438,2.93941,5,0.1,10,0.2,4.80546,-0.990266,0.534144,-0.0571012,-0.0480816,0.00621229,-0.428677,-0.360578,0.046581,0.0108331,0.460868,5,0.1,11,0.2,-2.46447,1.91637,0.576238,0.00607967,-0.0392735,0.0729859,0.0456572,-0.294566,0.547349,0.0160219,0.567175,5,0.1,12,0.2,1.26273,1.79097,0.661282,-0.103515,0.156072,-0.00373721,-0.77635,1.17052,-0.0280142,0.018702,2.9258,5,0.1,13,0.2,-0.312159,-0.0489881,0.509835,0.184379,-0.0326848,-0.00487566,1.38284,-0.245137,-0.0366271,0.0266801,2.92581,5,0.1,14,0.2,-1.19516,-1.0614,0.596743,0.0844359,0.142562,0.000306964,0.633299,1.06925,0.00229478,0.0191076,2.25462,5,0.1,15,0.2,2.10466,-3.66894,0.671873,-0.000286102,0.187266,-0.00438541,-0.00202656,1.40452,-0.0329018,0.0192044,2.92579,5,0.1,16,0.2,-3.00681,-3.1563,0.574861,-0.182366,0.0408709,0.00767857,-1.36769,0.306606,0.0576079,0.0164844,2.91919,5,0.1,17,0.2,-1.37326,-0.157493,0.51162,0.169539,-0.0796095,0.00243038,1.27161,-0.597067,0.018239,0.0175209,2.92579,5,0.1,18,0.2,1.14553,5.45372,0.547955,0.00513792,-0.104105,0.0756532,0.0385046,-0.780821,0.567377,0.038433,1.36231,5,0.1,19,0.2,-3.63083,-3.94437,0.542086,0.00909567,0.18701,0.0056237,0.0683069,1.40262,0.0421703,0.0101858,2.92579,5,0.1,20,0.2,1.67369,-3.02047,0.515516,-0.0729799,0.0585258,-0.00617951,-0.54729,0.438929,-0.0463724,0.0160405,0.721822,5,0.1,21,0.2,1.95217,5.66026,0.563223,0.0139415,-0.137734,0.0742123,0.104666,-1.03307,0.556588,0.0154175,2.02635,5,0.1,22,0.2,-3.48142,-5.34897,0.673295,0.0412047,0.182676,-0.00478327,0.30911,1.36971,-0.035882,0.0223371,2.92581,5,0.1,23,0.2,-1.84538,5.40184,0.639123,0.142047,-0.122082,-0.00227243,1.06525,-0.915766,-0.0170469,0.0199882,2.9258,5,0.1,24,0.2,0.53768,-0.0400404,0.612936,-0.0790134,0.114163,-0.00122041,-0.592619,0.856226,-0.00914931,0.0107914,2.50597,5,0.1,25,0.2,1.91987,2.85473,0.54157,-0.135908,-0.128859,0.00357777,-1.01924,-0.96643,0.0268221,0.0329493,2.9258,5,0.1,26,0.2,-1.62162,-5.81917,0.698054,0.0155032,0.186598,-0.00559688,0.116229,1.39928,-0.0419617,0.0439322,2.92655,5,0.1,27,0.2,-0.159638,-1.20762,0.688334,0.000334159,0.187305,0.00213534,0.00249594,1.40476,0.0160336,0.0148161,2.9258,5,0.1,28,0.2,3.80878,-5.03635,0.586848,-0.0479758,0.181067,0.000958145,-0.359774,1.35779,0.00715256,0.0396081,2.92582,5,0.1,29,0.2,-5.36033,-3.27841,0.677685,-0.00306368,-0.187194,-0.00600517,-0.0231266,-1.40405,-0.0450611,0.0135632,2.92578,5,0.1,30,0.2,-3.28276,2.2592,0.613454,-0.100666,0.0274301,-0.00126809,-0.755072,0.205755,-0.00953674,0.0130114,0.894162,5,0.1,31,0.2,-1.64836,-1.55084,0.648378,-0.0284523,0.103837,-0.00456274,-0.213385,0.778735,-0.0342429,0.0112742,0.953669,5,0.1,32,0.2,-2.36061,-3.59911,0.519627,0.0953257,-8.34465e-05,0.078325,0.715017,-0.000596046,0.587434,0.0128565,1.25008,5,0.1,33,0.2,-4.16597,-5.75236,0.556015,0.0392318,0.0898242,0.00414848,0.294447,0.674009,0.0311136,0.0534104,0.790552,5,0.1,34,0.2,3.714,-3.48819,0.645098,-0.129426,0.135368,-0.00361502,-0.970483,1.01531,-0.0271499,0.0347125,3.13728,5,0.1,35,0.2,4.69535,-5.50468,0.614415,-0.0467181,0.0806212,-0.00136048,-0.350475,0.60463,-0.0101924,0.0606684,0.713182,5,0.1,36,0.2,-1.64268,-4.29961,0.643518,-0.116414,0.146711,-0.00336021,-0.873148,1.1003,-0.0252426,0.0113376,2.92579,5,0.1,37,0.2,-4.69312,-3.50781,0.609378,0.175321,0.0659585,-0.000491738,1.31488,0.494838,-0.00369549,0.0220384,2.92579,5,0.1,38,0.2,1.14799,4.60891,0.555682,0.00490546,-0.0244141,0.074923,0.0367761,-0.183344,0.561953,0.0144629,0.511972,5,0.1,39,0.2,3.89986,-1.21456,0.500529,-0.0565827,0.0721186,-0.000430644,-0.424266,0.540793,-0.00324845,0.0126504,0.692546,5,0.1
0,0.3,-3.78274,1.89382,0.598285,0.005823,0.116702,0.133695,0.0287443,0.575706,0.659555,0.0203049,0.748142,5,0.1,1,0.3,3.21691,-2.25057,0.561161,-0.192973,0.0335094,0.00861688,-0.95202,0.165328,0.0425167,0.0165425,0.911993,5,0.1,2,0.3,0.115166,-2.79863,0.587001,0.00282717,0.348879,0.00105584,0.0139903,1.72654,0.00522658,0.0127112,2.92579,5,0.1,3,0.3,1.92431,5.03542,0.62762,0.00457335,-0.148575,0.128474,0.0225827,-0.732899,0.633799,0.0323098,0.916049,5,0.1,4,0.3,-0.78883,2.31639,0.691337,0.0869394,-0.198552,0.0104328,0.428904,-0.979528,0.0514649,0.0306291,1.11743,5,0.1,5,0.3,-4.06409,4.13356,0.54306,0.34823,-0.0207826,0.0050636,1.72326,-0.102818,0.0250414,0.0705696,2.9258,5,0.1,6,0.3,3.09763,-3.48843,0.561688,-0.166374,0.306594,0.00638766,-0.823349,1.51725,0.0316016,0.0333512,2.9258,5,0.1,7,0.3,-3.0743,4.35277,0.57705,0.344779,-0.0533871,0.0027068,1.70627,-0.264257,0.0133961,0.0308445,2.92578,5,0.1,8,0.3,0.480179,1.84781,0.68874,-0.123932,0.325992,0.00973139,-0.613304,1.61324,0.0481606,0.0201386,2.92579,5,0.1,9,0.3,-3.70962,-2.84113,0.60336,0.325378,0.00550114,0.105776,1.51716,0.113443,0.530008,0.0222438,2.93941,5,0.1,10,0.3,4.79737,-0.997075,0.535023,-0.106263,-0.0894447,0.0115559,-0.524342,-0.441249,0.0570081,0.0108331,0.460868,5,0.1,11,0.3,-2.46361,1.91081,0.586575,0.0113152,-0.0730632,0.135774,0.0558496,-0.360437,0.6698,0.0160219,0.567175,5,0.1,12,0.3,1.24806,1.81309,0.660753,-0.192803,0.290693,-0.00695977,-0.954129,1.43854,-0.0344366,0.018702,2.9258,5,0.1,13,0.3,-0.286031,-0.0536198,0.509155,0.343418,-0.0608777,-0.0087616,1.69948,-0.301267,-0.0392087,0.0266801,2.92581,5,0.1,14,0.3,-1.1832,-1.04121,0.596786,0.157082,0.265216,0.000570435,0.774927,1.3084,0.00281259,0.0191076,2.25462,5,0.1,15,0.3,2.10462,-3.6424,0.671252,-0.000523403,0.348797,-0.00816891,-0.0025481,1.72612,-0.0404306,0.0192044,2.92579,5,0.1,16,0.3,-3.03217,-3.15095,0.575916,-0.325949,0.0637118,0.0133482,-1.43704,0.15597,0.0538118,0.0164844,2.91919,5,0.1,17,0.3,-1.34924,-0.168774,0.511964,0.315784,-0.148278,0.00452772,1.56274,-0.733783,0.0224113,0.0175209,2.92579,5,0.1,18,0.3,1.14626,5.43897,0.55867,0.00955611,-0.193674,0.140738,0.0471324,-0.955433,0.694293,0.038433,1.36231,5,0.1,19,0.3,-3.62954,-3.91786,0.542883,0.016949,0.348322,0.0104738,0.0839084,1.72375,0.0518337,0.0101858,2.92579,5,0.1,20,0.3,1.66336,-3.01218,0.51464,-0.135762,0.108876,-0.011498,-0.669733,0.537127,-0.056725,0.0160405,0.721822,5,0.1,21,0.3,1.95414,5.64075,0.573734,0.0259448,-0.256239,0.138059,0.128016,-1.26415,0.681091,0.0154175,2.02635,5,0.1,22,0.3,-3.47558,-5.32309,0.672617,0.0767536,0.340214,-0.00890996,0.37986,1.68353,-0.0440925,0.0223371,2.92581,5,0.1,23,0.3,-1.82525,5.38454,0.638801,0.264564,-0.227401,-0.00423286,1.30923,-1.1254,-0.020951,0.0199882,2.9258,5,0.1,24,0.3,0.526489,-0.0249101,0.612763,-0.146993,0.182932,-0.00227001,-0.725169,0.525616,-0.0111982,0.0107914,2.50597,5,0.1,25,0.3,1.90061,2.83647,0.542077,-0.253131,-0.240007,0.00666268,-1.25266,-1.18773,0.0329688,0.0329493,2.9258,5,0.1,26,0.3,-1.61944,-5.79273,0.697353,0.0282835,0.347599,-0.00782683,0.132412,1.72096,-0.00542402,0.0439322,2.92655,5,0.1,27,0.3,-0.15959,-1.18108,0.688637,0.000621518,0.348866,0.00397889,0.0030715,1.72643,0.0196956,0.0148161,2.9258,5,0.1,28,0.3,3.80198,-5.0107,0.586984,-0.0893544,0.337232,0.0017819,-0.442192,1.66884,0.00881031,0.0396081,2.92582,5,0.1,29,0.3,-5.36076,-3.30494,0.676833,-0.00571981,-0.34867,-0.0111869,-0.028342,-1.72549,-0.0553653,0.0135632,2.92578,5,0.1,30,0.3,-3.29702,2.26309,0.613274,-0.187279,0.0510313,-0.00236137,-0.923917,0.25177,-0.0116639,0.0130114,0.894162,5,0.1,31,0.3,-1.65239,-1.53613,0.647732,-0.0529302,0.193168,-0.00849003,-0.26112,0.952952,-0.0418909,0.0112742,0.953669,5,0.1,32,0.3,-2.34711,-3.59912,0.53072,0.177343,-0.000153482,0.14571,0.874907,-0.000745058,0.718828,0.0128565,1.25008,5,0.1,33,0.3,-4.16041,-5.73964,0.556602,0.0730015,0.167131,0.00771768,0.360161,0.82463,0.0380799,0.0534104,0.790552,5,0.1,34,0.3,3.69713,-3.46843,0.644593,-0.199357,0.268561,-0.00651749,-0.451684,1.53975,-0.0294559,0.0347125,3.13728,5,0.1,35,0.3,4.68873,-5.49326,0.614223,-0.0869207,0.149979,-0.00252984,-0.428826,0.739843,-0.0124797,0.0606684,0.713182,5,0.1,36,0.3,-1.65918,-4.27882,0.643042,-0.216833,0.273255,-0.00626212,-1.07306,1.35228,-0.0310056,0.0113376,2.92579,5,0.1,37,0.3,-4.66827,-3.49846,0.609309,0.326546,0.122865,-0.000916421,1.61594,0.608057,-0.0045374,0.0220384,2.92579,5,0.1,38,0.3,1.14869,4.60545,0.566294,0.00912454,-0.0454396,0.139384,0.045009,-0.224292,0.687633,0.0144629,0.511972,5,0.1,39,0.3,3.89184,-1.20435,0.500472,-0.105254,0.134157,-0.000692252,-0.519231,0.661805,-0.00200048,0.0126504,0.692546,5,0.1
0,0.4,-3.78202,1.90831,0.614894,0.00858903,0.172108,0.197171,0.0253916,0.507891,0.581861,0.014369,0.591938,5,0.1,1,0.4,3.19294,-2.2464,0.562232,-0.284594,0.0494182,0.0127092,-0.839949,0.145912,0.0374913,0.0121693,0.721572,5,0.1,2,0.4,0.115518,-2.75526,0.587132,0.00417512,0.515223,0.00156015,0.0123717,1.52671,0.00458956,0.0109912,2.51565,5,0.1,3,0.4,1.92487,5.01696,0.64358,0.00674427,-0.219119,0.189471,0.0199676,-0.646591,0.559151,0.0247691,0.724789,5,0.1,4,0.4,-0.77803,2.29172,0.692633,0.128216,-0.29282,0.0153869,0.37843,-0.864148,0.0453591,0.015928,1.13392,5,0.1,5,0.4,-4.0208,4.13098,0.543689,0.514269,-0.0306964,0.00747591,1.52349,-0.0908375,0.0222027,0.0491467,2.51526,5,0.1,6,0.4,3.07694,-3.45031,0.562482,-0.245702,0.452775,0.00943244,-0.728011,1.34158,0.0279248,0.0449475,2.51008,5,0.1,7,0.4,-3.03143,4.34613,0.577386,0.509173,-0.078845,0.00399798,1.50859,-0.23365,0.0118315,0.0307033,2.51334,5,0.1,8,0.4,0.464772,1.88834,0.68995,-0.183023,0.481427,0.0143722,-0.542268,1.42634,0.0425577,0.026279,2.51008,5,0.1,9,0.4,-3.66974,-2.83992,0.616551,0.468302,0.0194371,0.15707,1.28353,0.154138,0.472724,0.0214888,2.54669,5,0.1,10,0.4,4.78417,-1.00819,0.536459,-0.156724,-0.131911,0.0170425,-0.462532,-0.389278,0.0502765,0.0095794,0.364635,5,0.1,11,0.4,-2.4622,1.90173,0.603442,0.0166893,-0.107753,0.200236,0.0492334,-0.317991,0.59092,0.0164514,0.448755,5,0.1,12,0.4,1.22409,1.84923,0.659888,-0.284731,0.429294,-0.0102773,-0.843644,1.2719,-0.030458,0.0132362,2.51008,5,0.1,13,0.4,-0.243336,-0.0611883,0.508091,0.507159,-0.089904,-0.0123948,1.50265,-0.266375,-0.0320375,0.0154183,2.54333,5,0.1,14,0.4,-1.16368,-1.00826,0.596857,0.231659,0.391133,0.000841916,0.683665,1.1543,0.00247359,0.0150875,1.81965,5,0.1,15,0.4,2.10456,-3.59904,0.670236,-0.00077486,0.515103,-0.0120655,-0.00214577,1.52612,-0.0357032,0.011585,2.5156,5,0.1,16,0.4,-3.07161,-3.144,0.5775,-0.458264,0.0731766,0.0181034,-1.1611,0.038743,0.0399649,0.00973121,2.36599,5,0.1,17,0.4,-1.30998,-0.187209,0.512527,0.46635,-0.218976,0.00668764,1.38175,-0.648789,0.0197887,0.0129859,2.51007,5,0.1,18,0.4,1.14744,5.41491,0.576153,0.0140935,-0.285625,0.207557,0.041604,-0.843048,0.612557,0.0224601,1.07787,5,0.1,19,0.4,-3.62743,-3.87456,0.544185,0.025034,0.514406,0.0154674,0.0741482,1.52397,0.045836,0.00980073,2.54087,5,0.1,20,0.4,1.64649,-2.99865,0.513212,-0.200215,0.160569,-0.0169575,-0.59092,0.473738,-0.0500381,0.0132046,0.571373,5,0.1,21,0.4,1.95737,5.60892,0.590885,0.0382632,-0.377893,0.203606,0.112951,-1.11532,0.600874,0.0123286,1.60546,5,0.1,22,0.4,-3.46604,-5.28079,0.67151,0.11335,0.502431,-0.0131577,0.335813,1.48821,-0.0389814,0.0232531,2.51154,5,0.1,23,0.4,-1.79236,5.35627,0.638275,0.390702,-0.335836,-0.00625104,1.1577,-0.994682,-0.018537,0.0265647,2.51008,5,0.1,24,0.4,0.508228,-0.00448974,0.612481,-0.216781,0.220642,-0.0033468,-0.639766,0.235675,-0.00989437,0.00940245,2.33628,5,0.1,25,0.4,1.86914,2.80663,0.542905,-0.373825,-0.354439,0.00983924,-1.10751,-1.05023,0.0291467,0.0305742,2.51008,5,0.1,26,0.4,-1.61597,-5.74951,0.696584,0.0407785,0.513434,-0.00718683,0.112355,1.52254,0.0159442,0.0350266,2.51551,5,0.1,27,0.4,-0.159513,-1.13771,0.689131,0.000917539,0.515205,0.00587553,0.00271946,1.52642,0.0174344,0.0155728,2.51612,5,0.1,28,0.4,3.79087,-4.96877,0.587205,-0.131959,0.498021,0.00263005,-0.391006,1.47557,0.00783801,0.031678,2.51075,5,0.1,29,0.4,-5.36148,-3.34829,0.675443,-0.00845194,-0.514913,-0.0165209,-0.025034,-1.52576,-0.0489652,0.00955153,2.51551,5,0.1,30,0.4,-3.32028,2.26943,0.612981,-0.276196,0.0752568,-0.0034824,-0.815034,0.222206,-0.0103116,0.0116156,0.707468,5,0.1,31,0.4,-1.65897,-1.51214,0.646677,-0.0780582,0.28488,-0.0125214,-0.230432,0.840664,-0.0369549,0.014576,0.754555,5,0.1,32,0.4,-2.32508,-3.59914,0.548822,0.261545,-0.000226498,0.21489,0.771761,-0.000596046,0.634164,0.0122412,0.989073,5,0.1,33,0.4,-4.15135,-5.71888,0.557561,0.10767,0.246477,0.0113815,0.317574,0.727654,0.033617,0.0138173,0.625482,5,0.1,34,0.4,3.67563,-3.43374,0.6438,-0.224215,0.424266,-0.0092566,-0.066638,1.4925,-0.0243187,0.0214896,2.64772,5,0.1,35,0.4,4.67793,-5.47463,0.613908,-0.128186,0.221181,-0.00373125,-0.37837,0.65279,-0.0109673,0.0460338,0.564277,5,0.1,36,0.4,-1.68613,-4.24485,0.642263,-0.320217,0.403547,-0.00924915,-0.948727,1.19567,-0.0273883,0.00941547,2.59888,5,0.1,37,0.4,-4.62768,-3.48319,0.609195,0.482237,0.181448,-0.00135452,1.42884,0.537634,-0.00399351,0.0185502,2.51007,5,0.1,38,0.4,1.14982,4.59981,0.583609,0.0134587,-0.0670075,0.205562,0.0396967,-0.198126,0.606656,0.0160388,0.405263,5,0.1,39,0.4,3.87877,-1.18768,0.500394,-0.155228,0.197849,-0.000834465,-0.458002,0.583947,-0.000864267,0.0144711,0.548476,5,0.1
0,0.5,-3.78103,1.92811,0.637574,0.0111639,0.22364,0.256206,0.0248551,0.497453,0.569895,0.014369,0.591938,5,0.1,1,0.5,3.1602,-2.24072,0.563693,-0.369812,0.0642199,0.0165131,-0.822619,0.142857,0.0367239,0.0121693,0.721572,5,0.1,2,0.5,0.115999,-2.69612,0.587312,0.00544818,0.66545,0.00203298,0.0124346,1.40987,0.00462309,0.0109912,2.51565,5,0.1,3,0.5,1.92565,4.99176,0.665374,0.00876822,-0.284723,0.246203,0.0195205,-0.633329,0.547655,0.0247691,0.724789,5,0.1,4,0.5,-0.763282,2.25788,0.694403,0.16661,-0.384942,0.0199904,0.370625,-0.925392,0.0444464,0.015928,1.13392,5,0.1,5,0.5,-3.96177,4.12744,0.544551,0.664435,-0.0400454,0.00975998,1.41153,-0.0913143,0.0223033,0.0491467,2.51526,5,0.1,6,0.5,3.04863,-3.39814,0.563569,-0.320616,0.590827,0.0123069,-0.731736,1.34845,0.0280812,0.0449475,2.51008,5,0.1,7,0.5,-2.97294,4.33705,0.577847,0.659146,-0.102886,0.00521559,1.42087,-0.234812,0.0118986,0.0307033,2.51334,5,0.1,8,0.5,0.443681,1.94381,0.691606,-0.238824,0.628203,0.018752,-0.545055,1.43369,0.0427812,0.026279,2.51008,5,0.1,9,0.5,-3.61612,-2.83735,0.634675,0.605557,0.0304636,0.205335,1.38065,0.0703484,0.468515,0.0214888,2.54669,5,0.1,10,0.5,4.76614,-1.02336,0.538419,-0.20365,-0.171408,0.0221441,-0.452936,-0.381276,0.0492558,0.0095794,0.364635,5,0.1,11,0.5,-2.46028,1.88934,0.626474,0.0216834,-0.140017,0.260191,0.0482202,-0.311449,0.578772,0.0164514,0.448755,5,0.1,12,0.5,1.19128,1.8987,0.658703,-0.371545,0.560178,-0.0134117,-0.847965,1.27847,-0.0306182,0.0132362,2.51008,5,0.1,13,0.5,-0.185292,-0.0719162,0.506731,0.650471,-0.127752,-0.0144542,1.30921,-0.453299,-0.0101365,0.0154183,2.54333,5,0.1,14,0.5,-1.13706,-0.963836,0.596983,0.300315,0.492235,0.00190362,0.656992,0.845872,0.0168383,0.0150875,1.81965,5,0.1,15,0.5,2.10447,-3.53992,0.668846,-0.00100024,0.665312,-0.0157403,-0.00222027,1.41005,-0.0358969,0.011585,2.5156,5,0.1,16,0.5,-3.12367,-3.13626,0.579528,-0.585106,0.0834279,0.0225612,-1.29513,0.147849,0.0461228,0.00973121,2.36599,5,0.1,17,0.5,-1.25624,-0.212443,0.513298,0.608536,-0.285739,0.00872444,1.38883,-0.652129,0.0199005,0.0129859,2.51007,5,0.1,18,0.5,1.14906,5.38206,0.600028,0.0183146,-0.37116,0.269706,0.0407547,-0.825644,0.599951,0.0224601,1.07787,5,0.1,19,0.5,-3.62482,-3.81573,0.545958,0.0249878,0.658472,0.0199179,-0.0619292,1.30501,0.0413395,0.00980073,2.54087,5,0.1,20,0.5,1.62346,-2.98019,0.511309,-0.26017,0.208637,-0.0206725,-0.578754,0.464037,-0.0247993,0.0132046,0.571373,5,0.1,21,0.5,1.96178,5.56556,0.614214,0.0500686,-0.48798,0.262,0.11678,-1.03775,0.542898,0.0123286,1.60546,5,0.1,22,0.5,-3.45297,-5.22302,0.669994,0.147906,0.65211,-0.017169,0.337556,1.43304,-0.0391789,0.0232531,2.51154,5,0.1,23,0.5,-1.74734,5.31757,0.637554,0.509832,-0.4382,-0.0081582,1.16363,-0.999928,-0.0186265,0.0265647,2.51008,5,0.1,24,0.5,0.483293,0.0180529,0.612096,-0.281692,0.224242,-0.00435039,-0.626599,-0.123546,-0.00968575,0.00940245,2.33628,5,0.1,25,0.5,1.82606,2.76579,0.544039,-0.487795,-0.46251,0.0128387,-1.11325,-1.0556,0.0292994,0.0305742,2.51008,5,0.1,26,0.5,-1.61132,-5.69056,0.695975,0.0521636,0.663657,-0.00476185,0.109665,1.4134,0.0304952,0.0350266,2.51551,5,0.1,27,0.5,-0.159407,-1.07858,0.689867,0.00119735,0.665416,0.00933278,0.0027325,1.40985,0.0470877,0.0155728,2.51612,5,0.1,28,0.5,3.77566,-4.91146,0.587508,-0.172194,0.647549,0.00343593,-0.393018,1.44121,0.00786409,0.031678,2.51075,5,0.1,29,0.5,-5.36245,-3.40739,0.673539,-0.0110261,-0.665126,-0.0215589,-0.0251234,-1.41045,-0.0491999,0.00955153,2.51551,5,0.1,30,0.5,-3.35205,2.27808,0.61258,-0.35889,0.0977989,-0.00452781,-0.79827,0.217572,-0.0100844,0.0116156,0.707468,5,0.1,31,0.5,-1.66795,-1.47937,0.645237,-0.101436,0.370176,-0.0162705,-0.225671,0.823393,-0.0361912,0.014576,0.754555,5,0.1,32,0.5,-2.29499,-3.59916,0.573539,0.339849,-0.000289455,0.279232,0.755876,-0.000610948,0.621125,0.0122412,0.989073,5,0.1,33,0.5,-4.13896,-5.69052,0.558871,0.139891,0.320296,0.0147919,0.311047,0.712574,0.0329204,0.0138173,0.625482,5,0.1,34,0.5,3.65331,-3.38348,0.642752,-0.218292,0.582547,-0.0116856,0.168711,1.58705,-0.0230931,0.0214896,2.64772,5,0.1,35,0.5,4.66319,-5.44919,0.613479,-0.166574,0.287412,-0.00484483,-0.370562,0.639379,-0.0107549,0.0460338,0.564277,5,0.1,36,0.5,-1.72255,-4.19909,0.641166,-0.40419,0.505321,-0.0129783,-0.710867,0.823736,-0.0437237,0.00941547,2.59888,5,0.1,37,0.5,-4.57211,-3.46228,0.609039,0.62927,0.236771,-0.00176569,1.43617,0.540361,-0.00401214,0.0185502,2.51007,5,0.1,38,0.5,1.15137,4.5921,0.607212,0.0174871,-0.0870995,0.265912,0.0388846,-0.193864,0.572879,0.0160388,0.405263,5,0.1,39,0.5,3.86091,-1.16492,0.500309,-0.201701,0.257096,-0.000857841,-0.448644,0.571929,0.00031665,0.0144711,0.548476,5,0.1
0,0.6,-3.7798,1.95278,0.665829,0.0133455,0.267294,0.306217,0.0177622,0.357926,0.409961,0.0146973,0.440685,5,0.1,1,0.6,3.11942,-2.23364,0.565515,-0.441998,0.0767529,0.0197366,-0.591755,0.102758,0.0264049,0.0104291,0.537184,5,0.1,2,0.6,0.116602,-2.62317,0.587537,0.00655036,0.786012,0.0024423,0.00914186,0.957489,0.00342727,0.00993545,2.33498,5,0.1,3,0.6,1.92662,4.96036,0.692527,0.0104785,-0.340307,0.294264,0.0140667,-0.455379,0.393957,0.0240181,0.539592,5,0.1,4,0.6,-0.744907,2.21502,0.696607,0.199133,-0.468814,0.023891,0.266641,-0.714302,0.0319779,0.0150273,0.860393,5,0.1,5,0.6,-3.8889,4.12301,0.545631,0.785315,-0.0481367,0.0117376,0.961661,-0.067234,0.0163913,0.0449886,2.33312,5,0.1,6,0.6,3.01316,-3.33278,0.56493,-0.385469,0.71035,0.0147969,-0.53823,0.991583,0.020653,0.0280999,2.0086,5,0.1,7,0.6,-2.90053,4.32566,0.578424,0.781715,-0.123692,0.00627041,0.983953,-0.172853,0.00873208,0.0241249,2.32336,5,0.1,8,0.6,0.417262,2.01331,0.69368,-0.287133,0.755274,0.0225455,-0.400856,1.05441,0.0314415,0.0151427,2.27233,5,0.1,9,0.6,-3.54905,-2.83406,0.657382,0.730544,0.0342548,0.246668,1.06108,0.0089407,0.341177,0.0178154,2.34451,5,0.1,10,0.6,4.74369,-1.04226,0.540861,-0.24339,-0.204867,0.026466,-0.325918,-0.274241,0.035435,0.00880035,0.271992,5,0.1,11,0.6,-2.45789,1.87389,0.655169,0.0259161,-0.167349,0.310981,0.0346899,-0.223994,0.416368,0.0128708,0.334088,5,0.1,12,0.6,1.15018,1.96067,0.65722,-0.446704,0.673491,-0.0161245,-0.623584,0.940204,-0.0225306,0.00992971,2.21965,5,0.1,13,0.6,-0.114383,-0.0870137,0.505264,0.759893,-0.174033,-0.0146106,0.842524,-0.444312,0.00610948,0.0134904,2.46841,5,0.1,14,0.6,-1.10401,-0.911038,0.597268,0.357541,0.55685,0.00386834,0.464916,0.433683,0.020951,0.0117562,1.62451,5,0.1,15,0.6,2.10436,-3.46698,0.667105,-0.00120401,0.785911,-0.018923,-0.00154972,0.958085,-0.0264049,0.00988583,2.33475,5,0.1,16,0.6,-3.18833,-3.12713,0.582004,-0.703424,0.099504,0.0267982,-1.01316,0.159979,0.0364184,0.00981443,1.82595,5,0.1,17,0.6,-1.18892,-0.244051,0.514263,0.731632,-0.343538,0.0104889,1.02133,-0.479594,0.0146329,0.012217,1.95249,5,0.1,18,0.6,1.15108,5.34112,0.629772,0.0218928,-0.443614,0.322355,0.0292659,-0.594139,0.431567,0.0265533,0.802441,5,0.1,19,0.6,-3.62277,-3.74407,0.548137,0.0150084,0.766683,0.0234261,-0.127196,0.823975,0.027597,0.0162086,2.60822,5,0.1,20,0.6,1.59477,-2.95718,0.509156,-0.310957,0.249362,-0.0220314,-0.416338,0.333786,-0.00298023,0.0156284,0.425937,5,0.1,21,0.6,1.96734,5.51203,0.642871,0.0605226,-0.577199,0.308123,0.0877976,-0.712872,0.362992,0.0130523,1.2551,5,0.1,22,0.6,-3.43661,-5.15122,0.668094,0.177824,0.776911,-0.0206411,0.248194,1.01399,-0.0288486,0.0187703,2.31125,5,0.1,23,0.6,-1.69094,5.26909,0.636652,0.612968,-0.526822,-0.00980794,0.855744,-0.735521,-0.0137091,0.0145734,2.21917,5,0.1,24,0.6,0.452227,0.0395324,0.611616,-0.336679,0.20283,-0.00520051,-0.450745,-0.275869,-0.00694394,0.0100785,2.14485,5,0.1,25,0.6,1.7721,2.71463,0.545459,-0.586465,-0.55607,0.0154361,-0.818729,-0.776291,0.0215471,0.027312,2.22051,5,0.1,26,0.6,-1.6056,-5.61776,0.695661,0.0617474,0.784802,-0.00145137,0.0779629,0.965118,0.0340641,0.0314874,2.33244,5,0.1,27,0.6,-0.159275,-1.00563,0.691054,0.00143945,0.785987,0.0144795,0.00201166,0.957608,0.0523031,0.0159109,2.33483,5,0.1,28,0.6,3.75661,-4.84005,0.587889,-0.207025,0.773799,0.00413358,-0.289083,1.03354,0.00578165,0.029143,2.30629,5,0.1,29,0.6,-5.36367,-3.48031,0.671154,-0.0132561,-0.785786,-0.0259206,-0.0183582,-0.95892,-0.0361502,0.00811655,2.33437,5,0.1,30,0.6,-3.39163,2.28887,0.612081,-0.428939,0.116897,-0.0054121,-0.57435,0.156403,-0.00727177,0.0101463,0.526692,5,0.1,31,0.6,-1.67913,-1.43854,0.643443,-0.121239,0.442433,-0.0194475,-0.162363,0.592351,-0.0259876,0.01059,0.561752,5,0.1,32,0.6,-2.25751,-3.5992,0.604334,0.406188,-0.000345707,0.333738,0.543594,-0.000476837,0.446826,0.0112486,0.736341,5,0.1,33,0.6,-4.12353,-5.6552,0.560502,0.167191,0.382817,0.0176802,0.223875,0.5126,0.023663,0.0112568,0.490145,5,0.1,34,0.6,3.6326,-3.31772,0.641478,-0.193495,0.726897,-0.0136778,0.31352,1.23811,-0.0159144,0.0278247,2.62351,5,0.1,35,0.6,4.64482,-5.41749,0.612945,-0.199091,0.343513,-0.00579059,-0.266552,0.459909,-0.0077188,0.0508322,0.586674,5,0.1,36,0.6,-1.766,-4.14516,0.639646,-0.459212,0.565898,-0.0173867,-0.377655,0.379562,-0.0418425,0.011101,2.70582,5,0.1,37,0.6,-4.5025,-3.43608,0.608843,0.75655,0.28466,-0.00212193,1.05643,0.397444,-0.00298023,0.0316641,2.27626,5,0.1,38,0.6,1.1533,4.58249,0.636427,0.0209004,-0.104105,0.315475,0.0279546,-0.139713,0.399262,0.0226006,0.342442,5,0.1,39,0.6,3.83867,-1.13657,0.500226,-0.241071,0.307283,-0.000786781,-0.3227,0.41151,0.00110269,0.0207018,0.40897,5,0.1
0,0.7,-3.77837,1.98126,0.698465,0.015052,0.301656,0.345575,0.0153929,0.309661,0.354696,0.0146973,0.440685,5,0.1,1,0.7,3.07231,-2.22546,0.567618,-0.498808,0.0866171,0.0222718,-0.511959,0.0888854,0.0228509,0.0104291,0.537184,5,0.1,2,0.7,0.117303,-2.54084,0.587798,0.00746788,0.850547,0.00278605,0.00862963,0.360727,0.00322983,0.00993545,2.33498,5,0.1,3,0.7,1.92773,4.92409,0.723889,0.0118278,-0.38403,0.332085,0.0121444,-0.394046,0.34086,0.0240181,0.539592,5,0.1,4,0.7,-0.723684,2.16456,0.699153,0.224731,-0.539361,0.0269615,0.230681,-0.655755,0.0276752,0.0150273,0.860393,5,0.1,5,0.7,-3.80662,4.11785,0.546888,0.850303,-0.0548832,0.0133827,0.364915,-0.0634491,0.0154674,0.0449886,2.33312,5,0.1,6,0.7,2.97193,-3.25713,0.566513,-0.438293,0.798173,0.0168243,-0.486851,0.728786,0.0186935,0.0280999,2.0086,5,0.1,7,0.7,-2.8185,4.31242,0.579095,0.849052,-0.141033,0.00714697,0.386342,-0.163049,0.00824779,0.0241249,2.32336,5,0.1,8,0.7,0.386518,2.09323,0.696094,-0.327372,0.834515,0.0257024,-0.378532,0.529066,0.0297017,0.0151427,2.27233,5,0.1,9,0.7,-3.47157,-2.83067,0.68377,0.810145,0.0330802,0.280704,0.53215,-0.029549,0.318307,0.0178154,2.34451,5,0.1,10,0.7,4.71775,-1.06403,0.543682,-0.274674,-0.22923,0.0298681,-0.2819,-0.202328,0.0306591,0.00880035,0.271992,5,0.1,11,0.7,-2.45513,1.85606,0.688313,0.0292461,-0.188854,0.350954,0.0300258,-0.193812,0.360247,0.0128708,0.334088,5,0.1,12,0.7,1.10235,2.0327,0.655493,-0.509301,0.765655,-0.0183859,-0.588879,0.848189,-0.0212751,0.00992971,2.21965,5,0.1,13,0.7,-0.0354284,-0.10642,0.503857,0.807569,-0.211734,-0.0133291,0.144269,-0.302994,0.0184476,0.0134904,2.46841,5,0.1,14,0.7,-1.06672,-0.854151,0.597865,0.380761,0.571848,0.00893129,0.0211075,-0.108171,0.0728704,0.0117562,1.62451,5,0.1,15,0.7,2.10423,-3.38466,0.665079,-0.00136383,0.850512,-0.0215733,-0.00153482,0.361338,-0.0249296,0.00988583,2.33475,5,0.1,16,0.7,-3.26341,-3.11622,0.584878,-0.793902,0.119784,0.0307116,-0.758141,0.226736,0.0389405,0.00981443,1.82595,5,0.1,17,0.7,-1.11125,-0.280785,0.515384,0.815372,-0.390265,0.0119147,0.63429,-0.427721,0.0130571,0.012217,1.95249,5,0.1,18,0.7,1.15342,5.29384,0.664128,0.0247031,-0.500649,0.363788,0.025332,-0.513971,0.37339,0.0265533,0.802441,5,0.1,19,0.7,-3.622,-3.66462,0.550571,-0.000507385,0.809774,0.0248076,-0.17342,0.0662655,0.0012219,0.0162086,2.60822,5,0.1,20,0.7,1.56163,-2.9306,0.506979,-0.350928,0.281409,-0.0211437,-0.360221,0.288814,0.0191294,0.0156284,0.425937,5,0.1,21,0.7,1.97386,5.45104,0.674817,0.0700831,-0.639103,0.324611,0.0963062,-0.498742,-0.00896677,0.0130523,1.2551,5,0.1,22,0.7,-3.41757,-5.0695,0.665884,0.202736,0.847391,-0.0235358,0.234336,0.414878,-0.0272244,0.0187703,2.31125,5,0.1,23,0.7,-1.62531,5.21268,0.635601,0.698868,-0.600654,-0.0111835,0.808083,-0.694573,-0.0129342,0.0145734,2.21917,5,0.1,24,0.7,0.416344,0.058128,0.611062,-0.379952,0.167562,-0.00586733,-0.389986,-0.370141,-0.00601262,0.0100785,2.14485,5,0.1,25,0.7,1.70942,2.6551,0.547107,-0.66556,-0.633582,0.0174654,-0.718206,-0.725746,0.0179671,0.027312,2.22051,5,0.1,26,0.7,-1.59903,-5.53552,0.695696,0.0695206,0.850131,0.00219895,0.0724345,0.36791,0.0373684,0.0314874,2.33244,5,0.1,27,0.7,-0.159121,-0.923301,0.692787,0.00164132,0.850538,0.0203439,0.00189804,0.360884,0.0612773,0.0159109,2.33483,5,0.1,28,0.7,3.7346,-4.75854,0.588331,-0.231693,0.846317,0.00471352,-0.195652,0.433296,0.00545755,0.029143,2.30629,5,0.1,29,0.7,-5.36509,-3.56262,0.668379,-0.0150986,-0.85047,-0.0295483,-0.0173748,-0.362068,-0.0341162,0.00811655,2.33437,5,0.1,30,0.7,-3.43735,2.30133,0.611504,-0.484077,0.131912,-0.00610938,-0.496909,0.135317,-0.00627711,0.0101463,0.526692,5,0.1,31,0.7,-1.69206,-1.39139,0.64137,-0.136825,0.499302,-0.0219431,-0.140451,0.512503,-0.0224933,0.01059,0.561752,5,0.1,32,0.7,-2.21422,-3.59923,0.639903,0.458378,-0.000392273,0.376635,0.47037,-0.000432134,0.386588,0.0112486,0.736341,5,0.1,33,0.7,-4.10572,-5.61487,0.562386,0.188682,0.418739,0.0199522,0.193685,0.207245,0.0204705,0.0112568,0.490145,5,0.1,34,0.7,3.61339,-3.23978,0.640022,-0.202694,0.822322,-0.0154816,-0.409335,0.665829,-0.0185966,0.0278247,2.62351,5,0.1,35,0.7,4.6236,-5.38072,0.612328,-0.224681,0.392113,-0.0065323,-0.23061,0.476927,-0.00669062,0.0508322,0.586674,5,0.1,36,0.7,-1.8129,-4.08742,0.637534,-0.470364,0.581864,-0.0261562,0.12704,-0.0475347,-0.121273,0.011101,2.70582,5,0.1,37,0.7,-4.42242,-3.40557,0.608622,0.836091,0.325521,-0.00225287,0.531137,0.392482,0.000178814,0.0316641,2.27626,5,0.1,38,0.7,1.15552,4.57141,0.669268,0.0235844,-0.117075,0.334933,0.0241995,-0.11304,0.0141487,0.0226006,0.342442,5,0.1,39,0.7,3.81297,-1.10382,0.500154,-0.272053,0.346788,-0.000654906,-0.279248,0.356011,0.00148267,0.0207018,0.40897,5,0.1
0,0.8,-3.7768,2.01277,0.734554,0.0162542,0.325936,0.373386,0.00822544,0.162601,0.186235,0.0138369,0.311147,5,0.1,1,0.8,3.02022,-2.21641,0.569944,-0.538945,0.0935853,0.0240639,-0.268817,0.04673,0.0119805,0.0118422,0.379275,5,0.1,2,0.8,0.118088,-2.45471,0.588091,0.0081785,0.866026,0.00305176,0.00517815,0,0.00196695,0.0107502,2.27186,5,0.1,3,0.8,1.92897,4.88398,0.758569,0.0127763,-0.41492,0.35881,0.0064373,-0.207186,0.178993,0.0288172,0.380996,5,0.1,4,0.8,-0.700215,2.10772,0.701969,0.242817,-0.593072,0.0291318,0.121117,-0.39041,0.0145435,0.0267535,0.617933,5,0.1,5,0.8,-3.7205,4.11208,0.548295,0.86602,-0.0601053,0.0146568,0.000119209,-0.038147,0.00926852,0.0519096,2.26897,5,0.1,6,0.8,2.92596,-3.17433,0.568277,-0.477546,0.850755,0.0183329,-0.276685,0.305414,0.0106096,0.0324631,1.47574,5,0.1,7,0.8,-2.73242,4.29759,0.579847,0.866026,-0.154459,0.00782609,0,-0.0977516,0.00497699,0.0263797,2.25359,5,0.1,8,0.8,0.352095,2.1785,0.698796,-0.358544,0.862992,0.0281483,-0.227347,0.0606775,0.0178516,0.0185827,1.76738,5,0.1,9,0.8,-3.38876,-2.82755,0.713252,0.837517,0.0288665,0.306743,0.0197887,-0.0523329,0.187755,0.0125901,0.792294,5,0.1,10,0.8,4.68906,-1.08777,0.546801,-0.296772,-0.243583,0.0322729,-0.148058,-0.0780225,0.0160635,0.0102205,0.214197,5,0.1,11,0.8,-2.45208,1.83634,0.724964,0.0316024,-0.204048,0.379199,0.0156164,-0.101864,0.189185,0.0126946,0.235886,5,0.1,12,0.8,1.0488,2.11299,0.65356,-0.557792,0.833994,-0.0201389,-0.353754,0.482202,-0.0127554,0.0110094,2.07709,5,0.1,13,0.8,0.0451212,-0.128831,0.502629,0.794841,-0.233616,-0.0111178,-0.371143,-0.131175,0.0249147,0.0143687,2.4354,5,0.1,14,0.8,-1.02913,-0.798225,0.599157,0.365874,0.540105,0.0171289,-0.299454,-0.503421,0.085324,0.0142212,1.34137,5,0.1,15,0.8,2.10409,-3.29853,0.66281,-0.00149012,0.866026,-0.0236258,-0.00107288,0,-0.0149608,0.0104158,2.27149,5,0.1,16,0.8,-3.34593,-3.10312,0.588128,-0.849378,0.141579,0.0340894,-0.332952,0.195146,0.0265539,0.0108167,1.4112,5,0.1,17,0.8,-1.02728,-0.321682,0.516633,0.856559,-0.424503,0.0129595,0.189304,-0.238448,0.00730157,0.0160998,1.43687,5,0.1,18,0.8,1.156,5.24156,0.702119,0.026691,-0.540948,0.393063,0.0132322,-0.269651,0.196069,0.0233465,0.566552,5,0.1,19,0.8,-3.62293,-3.58436,0.553022,-0.0179768,0.785512,0.0238955,-0.1688,-0.524044,-0.0182986,0.0117328,2.74358,5,0.1,20,0.8,1.52498,-2.90121,0.504985,-0.379166,0.304055,-0.0185028,-0.189245,0.151634,0.0323355,0.0119116,0.301436,5,0.1,21,0.8,1.98131,5.38516,0.706783,0.0785619,-0.672638,0.310712,0.0682473,-0.155926,-0.249535,0.0133936,0.96578,5,0.1,22,0.8,-3.39626,-4.98348,0.663409,0.222027,0.866032,-0.0257775,0.140786,-0.000238419,-0.0163317,0.0185128,2.23392,5,0.1,23,0.8,-1.55182,5.14953,0.634426,0.765416,-0.657856,-0.0122488,0.485361,-0.417233,-0.00777841,0.0158517,2.04192,5,0.1,24,0.8,0.376665,0.0732422,0.610449,-0.410528,0.137602,-0.00633895,-0.204787,-0.200406,-0.00312924,0.0130855,1.91783,5,0.1,25,0.8,1.63974,2.58852,0.54893,-0.722551,-0.693065,0.0188515,-0.391185,-0.430465,0.00905991,0.0298471,2.05222,5,0.1,26,0.8,-1.59176,-5.4494,0.696097,0.075379,0.866032,0.00574738,0.0411868,-0.000238419,0.0324249,0.061577,2.26762,5,0.1,27,0.8,-0.158948,-0.83717,0.695118,0.00179745,0.866026,0.0260949,0.00113994,0,0.0510216,0.024912,2.27195,5,0.1,28,0.8,3.71066,-4.67256,0.588827,-0.244778,0.86602,0.00516176,-0.0609159,0.000238419,0.00330806,0.0300753,2.25405,5,0.1,29,0.8,-5.36668,-3.64875,0.665272,-0.0165224,-0.866026,-0.0323564,-0.0104904,0,-0.0204742,0.00971963,2.46717,5,0.1,30,0.8,-3.4879,2.3151,0.610866,-0.523037,0.142521,-0.00660121,-0.26083,0.0710487,-0.00327826,0.0135867,0.37187,5,0.1,31,0.8,-1.70634,-1.33925,0.639079,-0.147837,0.539485,-0.0237063,-0.0737309,0.269175,-0.0118315,0.0119621,0.39663,5,0.1,32,0.8,-2.16635,-3.59927,0.679236,0.495255,-0.000429153,0.406946,0.247002,-0.000119209,0.202984,0.0126364,0.519907,5,0.1,33,0.8,-4.08601,-5.57245,0.56447,0.20386,0.424802,0.0215575,0.102043,-0.082016,0.0107288,0.0131792,0.438807,5,0.1,34,0.8,3.59048,-3.15517,0.638387,-0.259697,0.860578,-0.0171289,-0.662446,0.108957,-0.0132322,0.0216692,2.34162,5,0.1,35,0.8,4.60013,-5.33934,0.611646,-0.242758,0.432909,-0.00705868,-0.121117,0.314474,-0.00348687,0.0454985,0.477487,5,0.1,36,0.8,-1.85866,-4.03008,0.634265,-0.439,0.558996,-0.0394776,0.476003,-0.396609,-0.13575,0.0104645,2.97052,5,0.1,37,0.8,-4.33701,-3.37125,0.608402,0.863969,0.358516,-0.00212193,0.041008,0.248313,0.00232458,0.0177612,2.45378,5,0.1,38,0.8,1.15799,4.55923,0.70236,0.025481,-0.125599,0.322692,0.0127554,-0.0529289,-0.239342,0.0163906,0.292664,5,0.1,39,0.8,3.78456,-1.0676,0.500096,-0.293946,0.374702,-0.000499189,-0.146627,0.18692,0.00157952,0.0140364,0.291171,5,0.1
0,0.9,-3.77514,2.04614,0.772781,0.0169985,0.34067,0.390262,0.00587106,0.116453,0.133403,0.0138369,0.311147,5,0.1,1,0.9,2.96504,-2.20683,0.572407,-0.563304,0.0978183,0.0251498,-0.192538,0.0334531,0.00858307,0.0118422,0.379275,5,0.1,2,0.9,0.118933,-2.36811,0.588406,0.0087132,0.866026,0.00325404,0.00496674,0,0.00187755,0.0107502,2.27186,5,0.1,3,0.9,1.93028,4.8415,0.795304,0.0133581,-0.433693,0.375029,0.00458956,-0.148386,0.128221,0.0288172,0.380996,5,0.1,4,0.9,-0.675355,2.04651,0.704952,0.253792,-0.629682,0.0304499,0.0867434,-0.309579,0.0104196,0.0267535,0.617933,5,0.1,5,0.9,-3.6339,4.10587,0.549809,0.866025,-0.0640407,0.0156137,1.49012e-05,-0.0365376,0.00888482,0.0519096,2.26897,5,0.1,6,0.9,2.87686,-3.08833,0.570162,-0.503304,0.864783,0.0193214,-0.213638,0.0266582,0.00820309,0.0324631,1.47574,5,0.1,7,0.9,-2.64581,4.28164,0.580655,0.866026,-0.164539,0.00833897,0,-0.0935495,0.0047572,0.0263797,2.25359,5,0.1,8,0.9,0.315117,2.26499,0.701699,-0.38037,0.865759,0.0298624,-0.188731,0.00451505,0.0148229,0.0185827,1.76738,5,0.1,9,0.9,-3.30663,-2.8241,0.744522,0.789994,0.047034,0.315309,-0.895843,0.363797,-0.0127815,0.0125901,0.792294,5,0.1,10,0.9,4.65868,-1.1121,0.550105,-0.310183,-0.239178,0.0337292,-0.106007,0.151791,0.0115111,0.0102205,0.214197,5,0.1,11,0.9,-2.44884,1.81545,0.763786,0.0330187,-0.213278,0.396342,0.0112057,-0.0729635,0.135515,0.0126946,0.235886,5,0.1,12,0.9,0.991177,2.19809,0.651479,-0.594437,0.862043,-0.0214605,-0.341378,0.119686,-0.0123158,0.0110094,2.07709,5,0.1,13,0.9,0.121635,-0.152744,0.501646,0.726895,-0.243432,-0.00850772,-0.887581,-0.058393,0.0265948,0.0143687,2.4354,5,0.1,14,0.9,-0.994549,-0.746608,0.601312,0.321379,0.493229,0.0259888,-0.557099,-0.443008,0.0869446,0.0142212,1.34137,5,0.1,15,0.9,2.10393,-3.21193,0.66037,-0.00160038,0.866026,-0.0251682,-0.00101328,0,-0.0143051,0.0104158,2.27149,5,0.1,16,0.9,-3.43187,-3.08752,0.59167,-0.864169,0.17411,0.0366945,-0.0089705,0.414282,0.023365,0.0108167,1.4112,5,0.1,17,0.9,-0.94105,-0.365282,0.517964,0.865143,-0.446525,0.0136336,0.0120439,-0.180442,0.00552088,0.0160998,1.43687,5,0.1,18,0.9,1.15873,5.18618,0.74236,0.0278916,-0.565382,0.41083,0.00949204,-0.193089,0.140447,0.0233465,0.566552,5,0.1,19,0.9,-3.62477,-3.50874,0.555298,-0.0118989,0.723949,0.0214343,0.24496,-0.701472,-0.0298806,0.0117328,2.74358,5,0.1,20,0.9,1.48616,-2.87008,0.503309,-0.396313,0.317797,-0.0149211,-0.135541,0.108629,0.0381917,0.0119116,0.301436,5,0.1,21,0.9,1.98954,5.31729,0.736204,0.0859808,-0.682524,0.274692,0.0732988,-0.0210404,-0.432547,0.0133936,0.96578,5,0.1,22,0.9,-3.37332,-4.89688,0.660747,0.236554,0.866023,-0.0274629,0.134826,2.98023e-05,-0.0156425,0.0185128,2.23392,5,0.1,23,0.9,-1.47275,5.08157,0.63316,0.815703,-0.701084,-0.0130542,0.468522,-0.402719,-0.00750273,0.0158517,2.04192,5,0.1,24,0.9,0.334635,0.0862514,0.6098,-0.429084,0.12711,-0.0066231,-0.146689,0.0618929,-0.00224635,0.0130855,1.91783,5,0.1,25,0.9,1.56536,2.51696,0.550866,-0.765342,-0.73796,0.0198881,-0.413358,-0.420168,0.010293,0.0298471,2.05222,5,0.1,26,0.9,-1.58401,-5.3628,0.696835,0.0796525,0.866023,0.0089989,0.039421,2.98023e-05,0.0312962,0.061577,2.26762,5,0.1,27,0.9,-0.158762,-0.750568,0.69793,0.00191529,0.866026,0.02963,0.00109617,-3.72529e-06,0.0204146,0.024912,2.27195,5,0.1,28,0.9,3.6863,-4.58596,0.589361,-0.238777,0.866026,0.00552917,0.166386,0,0.00363216,0.0300753,2.25405,5,0.1,29,0.9,-5.36838,-3.73471,0.66193,-0.0176013,-0.846937,-0.0344637,-0.0100136,0.374436,-0.0195093,0.00971963,2.46717,5,0.1,30,0.9,-3.54145,2.3297,0.61019,-0.546673,0.148958,-0.00689784,-0.186846,0.0508875,-0.00234321,0.0135867,0.37187,5,0.1,31,0.9,-1.72148,-1.28402,0.636652,-0.154518,0.563876,-0.0247785,-0.0528023,0.192814,-0.00848249,0.0119621,0.39663,5,0.1,32,0.9,-2.11565,-3.59932,0.720899,0.517639,-0.000440702,0.42534,0.176936,-0.000104308,0.145398,0.0126364,0.519907,5,0.1,33,0.9,-4.06514,-5.53101,0.566677,0.213102,0.398217,0.02253,0.0730753,-0.424087,0.007689,0.0131792,0.438807,5,0.1,34,0.9,3.56052,-3.06879,0.636603,-0.344444,0.865078,-0.0185638,-0.959054,-0.0106841,-0.0140704,0.0216692,2.34162,5,0.1,35,0.9,4.57528,-5.29511,0.610924,-0.253733,0.445451,-0.00737524,-0.0867546,-0.0500083,-0.00250712,0.0454985,0.477487,5,0.1,36,0.9,-1.89972,-3.97631,0.629387,-0.378402,0.514867,-0.0600386,0.709869,-0.486851,-0.253908,0.0104645,2.97052,5,0.1,37,0.9,-4.25112,-3.33501,0.608212,0.846878,0.358482,-0.00158418,-0.373572,-0.216901,0.0077635,0.0177612,2.45378,5,0.1,38,0.9,1.1606,4.54662,0.733001,0.0266366,-0.124429,0.286862,0.00913441,0.0689626,-0.437226,0.0163906,0.292664,5,0.1,39,0.9,3.75459,-1.02924,0.500054,-0.303758,0.391639,-0.000345893,-0.0432581,0.133883,0.00146031,0.0140364,0.291171,5,0.1
0,1,-3.77342,2.0806,0.812268,0.0173032,0.346637,0.397095,-0.000357628,-0.00751019,-0.00858307,0.00726131,0.565964,5,0.1,1,1,2.90805,-2.19693,0.574952,-0.573158,0.0995338,0.0255898,0.0122786,-0.00226498,-0.000566244,0.0104668,0.257918,5,0.1,2,1,0.119825,-2.28151,0.58874,0.00907872,0.866026,0.0033915,0.00196695,0,0.00077486,0.0131952,2.27595,5,0.1,3,1,1.93163,4.79762,0.833249,0.0135928,-0.441301,0.381596,-0.000298023,0.00929832,-0.00819564,0.0268964,0.259091,5,0.1,4,1,-0.649677,1.98234,0.708033,0.258234,-0.649607,0.0309855,-0.00557303,-0.0674725,-0.000685453,0.013642,0.821786,5,0.1,5,1,-3.5473,4.09932,0.551407,0.866026,-0.0667334,0.0162676,0,-0.0143051,0.00351667,0.0555798,2.26867,5,0.1,6,1,2.82574,-3.00192,0.572125,-0.516135,0.861418,0.0198141,-0.0263453,-0.0921488,0.00101328,0.0317538,1.06194,5,0.1,7,1,-2.55921,4.26479,0.581509,0.866026,-0.171411,0.00868887,0,-0.0369549,0.00187755,0.0250838,2.24816,5,0.1,8,1,0.276337,2.35154,0.704744,-0.392865,0.864792,0.0308439,-0.0473708,-0.0244379,0.00372529,0.0171148,1.33301,5,0.1,9,1,-3.23311,-2.81724,0.775685,0.671941,0.092411,0.305015,-1.40357,0.503302,-0.18844,0.0188455,2.75386,5,0.1,10,1,4.62729,-1.13498,0.553518,-0.315607,-0.215897,0.0343189,0.00667572,0.301361,-0.000745058,0.0086899,0.294922,5,0.1,11,1,-2.4455,1.79387,0.803888,0.0335872,-0.217015,0.403284,-0.000715256,0.00458956,-0.00870228,0.012993,0.160411,5,0.1,12,1,0.9303,2.2846,0.649282,-0.619678,0.866026,-0.0223711,-0.137359,0,-0.00497699,0.0104727,2.03083,5,0.1,13,1,0.189668,-0.177215,0.500926,0.633149,-0.244226,-0.00591874,-0.929288,0.0464246,0.0246465,0.0140038,2.15035,5,0.1,14,1,-0.965398,-0.699462,0.604316,0.260271,0.449881,0.0336915,-0.640273,-0.431269,0.0637472,0.00797074,0.776372,5,0.1,15,1,2.10377,-3.12532,0.657793,-0.00167489,0.866026,-0.0262201,-0.000596046,0,-0.00560284,0.0105016,2.27145,5,0.1,16,1,-3.51795,-3.06796,0.595436,-0.852972,0.217217,0.0383958,0.261188,0.416875,0.00914931,0.0103871,1.03328,5,0.1,17,1,-0.85464,-0.410597,0.519348,0.861374,-0.457,0.0139549,-0.0930429,-0.0147223,0.000447035,0.0129742,1.04503,5,0.1,18,1,1.16155,5.12897,0.783928,0.0283748,-0.57528,0.418024,-0.000596046,0.0128746,-0.0090301,0.0204128,0.385277,5,0.1,19,1,-3.62436,-3.4401,0.55728,0.022918,0.64643,0.0181109,0.415802,-0.842571,-0.0357032,0.0103217,2.72283,5,0.1,20,1,1.44606,-2.83793,0.50201,-0.403258,0.323361,-0.0110611,0.00870228,-0.00691414,0.0381768,0.0128294,0.205794,5,0.1,21,1,1.99846,5.24929,0.761453,0.0920594,-0.673497,0.230297,0.043273,0.214338,-0.43267,0.0106083,0.756348,5,0.1,22,1,-3.3491,-4.81028,0.657935,0.246477,0.866032,-0.0286132,0.0531673,-0.000238419,-0.00616908,0.0164709,2.30357,5,0.1,23,1,-1.38921,5.00977,0.631823,0.85035,-0.730872,-0.0136092,0.188649,-0.162125,-0.00301003,0.0140649,1.96231,5,0.1,24,1,0.291221,0.1,0.60913,-0.436598,0.154801,-0.00673831,0.00943244,0.468798,0.000178814,0.00918903,1.64792,5,0.1,25,1,1.48707,2.4414,0.5529,-0.796518,-0.769109,0.0206754,-0.174284,-0.169873,0.00450015,0.0256948,1.96843,5,0.1,26,1,-1.57588,-5.27619,0.697881,0.0824422,0.866032,0.0117838,0.013113,-0.000238419,0.023514,0.0304063,2.26719,5,0.1,27,1,-0.158566,-0.663965,0.700949,0.00199601,0.866026,0.0303328,0.000439584,0,-0.00557303,0.0116946,2.27175,5,0.1,28,1,3.66353,-4.49936,0.58993,-0.214213,0.866032,0.00582039,0.312209,-0.000238419,0.00187755,0.0302627,1.42212,5,0.1,29,1,-5.37018,-3.81697,0.658402,-0.0183344,-0.792801,-0.0358939,-0.0038147,0.699401,-0.00759959,0.00898708,2.51388,5,0.1,30,1,-3.59676,2.34477,0.609492,-0.556237,0.151569,-0.00701845,0.0119209,-0.00345707,0.000208616,0.00962687,0.252888,5,0.1,31,1,-1.73711,-1.22696,0.634144,-0.157222,0.573754,-0.0252128,0.00345707,-0.0123978,0.000536442,0.00985121,0.269723,5,0.1,32,1,-2.06328,-3.59936,0.763935,0.526702,-0.000447035,0.432786,-0.0113249,0,-0.00932813,0.00726451,0.645201,5,0.1,33,1,-4.04358,-5.4937,0.568956,0.216842,0.344682,0.0229239,-0.00452995,-0.624657,-0.000536442,0.0108644,0.248196,5,0.1,34,1,3.52128,-2.98257,0.634685,-0.43872,0.85631,-0.0197038,-0.872016,-0.19443,-0.00777841,0.0186205,1.81066,5,0.1,35,1,4.54961,-5.25133,0.610177,-0.258172,0.425589,-0.00750422,0.00524521,-0.334263,0.000178814,0.0398203,0.630521,5,0.1,36,1,-1.93381,-3.92741,0.622065,-0.301743,0.461626,-0.0864729,0.802219,-0.576973,-0.258446,0.00886175,2.98388,5,0.1,37,1,-4.16892,-3.30079,0.608097,0.791311,0.32106,-0.000686944,-0.726938,-0.504375,0.00965595,0.0161851,2.7059,5,0.1,38,1,1.16329,4.53468,0.75943,0.0271052,-0.113177,0.241627,-0.000536442,0.149488,-0.443757,0.0136566,0.260666,5,0.1,39,1,3.72421,-0.989615,0.500026,-0.301629,0.398497,-0.000213087,0.0891685,-0.00864267,0.00119209,0.0134957,0.223952,5,0.1
0,1.1,-3.77216,2.11394,0.851697,0.00399761,0.308837,0.389101,-0.236794,-0.680134,-0.151988,0.00726131,0.565964,5,0.1,1,1.1,2.85082,-2.187,0.577507,-0.570653,0.0990871,0.0254767,0.0588,-0.0103265,-0.00263005,0.0104668,0.257918,5,0.1,2,1.1,0.120745,-2.19491,0.589248,0.0093158,0.866026,0.0081691,0.00223843,0,0.0841655,0.0131952,2.27595,5,0.1,3,1.1,1.93299,4.75356,0.871352,0.0135317,-0.439385,0.379928,-0.00141561,0.0451803,-0.0391416,0.0268964,0.259091,5,0.1,4,1.1,-0.623892,1.91676,0.711127,0.257102,-0.663611,0.0308488,-0.0265166,-0.166871,-0.00318885,0.013642,0.821786,5,0.1,5,1.1,-3.46069,4.09256,0.553055,0.866026,-0.0684693,0.0166934,0,-0.0164509,0.00403076,0.0555798,2.26867,5,0.1,6,1.1,2.77401,-2.91608,0.57411,-0.517789,0.855988,0.0198673,0.0137389,-0.0582635,-0.000715256,0.0317538,1.06194,5,0.1,7,1.1,-2.47261,4.24731,0.582389,0.866026,-0.179359,0.00890922,0,-0.104159,0.00202656,0.0250838,2.24816,5,0.1,8,1.1,0.236824,2.438,0.707846,-0.396843,0.865011,0.0311571,-0.0157617,0.00241399,0.00124797,0.0171148,1.33301,5,0.1,9,1.1,-3.17089,-2.80602,0.8055,0.589977,0.127059,0.293267,-0.348628,0.204414,-0.0691004,0.0188455,2.75386,5,0.1,10,1.1,4.59578,-1.15489,0.556788,-0.31423,-0.180839,0.0297233,0.0323355,0.387982,-0.082545,0.0086899,0.294922,5,0.1,11,1.1,-2.44215,1.7722,0.844156,0.0334416,-0.21607,0.401516,-0.00344217,0.0222251,-0.0413954,0.012993,0.160411,5,0.1,12,1.1,0.867507,2.3712,0.647015,-0.636604,0.865853,-0.0229836,-0.163469,-0.00689924,-0.00591204,0.0104727,2.03083,5,0.1,13,1.1,0.248368,-0.201364,0.500451,0.544347,-0.238207,-0.00366261,-0.732087,0.0797128,0.0201948,0.0140038,2.15035,5,0.1,14,1.1,-0.942871,-0.657966,0.608136,0.187996,0.368743,0.0437293,-0.777047,-1.11159,0.125304,0.00797074,0.776372,5,0.1,15,1.1,2.1036,-3.03872,0.655138,-0.00173897,0.866026,-0.0268936,-0.000566244,0,-0.00632554,0.0105016,2.27145,5,0.1,16,1.1,-3.60236,-3.04441,0.599322,-0.838086,0.250877,0.039273,0.089094,0.251547,0.00656024,0.0103871,1.03328,5,0.1,17,1.1,-0.768733,-0.456351,0.520745,0.857908,-0.457427,0.0139679,-0.0226162,0.023637,-0.000726432,0.0129742,1.04503,5,0.1,18,1.1,1.16438,5.07153,0.825668,0.0282522,-0.572722,0.416191,-0.00289083,0.0593662,-0.0429191,0.0204128,0.385277,5,0.1,19,1.1,-3.61985,-3.37827,0.55896,0.0680726,0.602102,0.0158826,0.464991,-0.132874,-0.011459,0.0103217,2.72283,5,0.1,20,1.1,1.4058,-2.80564,0.501089,-0.40149,0.32195,-0.00743885,0.0414029,-0.0331253,0.033699,0.0128294,0.205794,5,0.1,21,1.1,2.00789,5.18298,0.782379,0.0963427,-0.652608,0.189862,0.0371933,0.22614,-0.338662,0.0106083,0.756348,5,0.1,22,1.1,-3.32414,-4.72383,0.655037,0.252875,0.860543,-0.0293554,0.0602454,-0.133961,-0.00699237,0.0164709,2.30357,5,0.1,23,1.1,-1.30342,4.93576,0.630445,0.863292,-0.749312,-0.0139516,0.0627041,-0.165612,-0.00307709,0.0140649,1.96231,5,0.1,24,1.1,0.247627,0.117905,0.608458,-0.434684,0.203936,-0.00670636,0.0448245,0.50686,0.00071153,0.00918903,1.64792,5,0.1,25,1.1,1.40639,2.3634,0.554994,-0.81737,-0.792043,0.0212313,-0.195906,-0.237644,0.00536069,0.0256948,1.96843,5,0.1,26,1.1,-1.56756,-5.18959,0.699177,0.0841461,0.866023,0.014096,0.0161827,2.98023e-05,0.0215583,0.0304063,2.26719,5,0.1,27,1.1,-0.158364,-0.577362,0.703935,0.00204945,0.866026,0.029194,0.000509433,-1.78814e-06,-0.0170097,0.0116946,2.27175,5,0.1,28,1.1,3.64383,-4.41276,0.590522,-0.178374,0.865824,0.006017,0.392973,-0.00795722,0.00172481,0.0302627,1.42212,5,0.1,29,1.1,-5.37204,-3.89188,0.654772,-0.018733,-0.698297,-0.0366846,-0.00318885,1.13149,-0.00638515,0.00898708,2.51388,5,0.1,30,1.1,-3.6523,2.3599,0.608792,-0.553805,0.150889,-0.00698287,0.0570714,-0.015676,0.000759959,0.00962687,0.252888,5,0.1,31,1.1,-1.75281,-1.16967,0.631627,-0.156527,0.571239,-0.0251031,0.0161976,-0.0588968,0.00258535,0.00985121,0.269723,5,0.1,32,1.1,-2.01195,-3.59861,0.806711,0.488344,0.0223041,0.418465,-0.694633,0.404119,-0.265297,0.00726451,0.645201,5,0.1,33,1.1,-4.02192,-5.46254,0.571245,0.215902,0.277073,0.0228203,-0.0222027,-0.709504,-0.00237301,0.0108644,0.248196,5,0.1,34,1.1,3.47285,-2.89779,0.632674,-0.530533,0.839421,-0.0204989,-0.907391,-0.178918,-0.00699982,0.0186205,1.81066,5,0.1,35,1.1,4.52383,-5.21092,0.609428,-0.257067,0.378389,-0.00747051,0.0263155,-0.586301,0.00076741,0.0398203,0.630521,5,0.1,36,1.1,-1.95998,-3.88337,0.612088,-0.222094,0.425777,-0.113093,0.776626,-0.189468,-0.260264,0.00886175,2.98388,5,0.1,37,1.1,-4.09365,-3.27116,0.608116,0.712075,0.272128,0.00141189,-0.853211,-0.474304,0.0295267,0.0161851,2.7059,5,0.1,38,1.1,1.166,4.5242,0.781426,0.0269905,-0.0954926,0.199917,-0.00274181,0.197947,-0.350911,0.0136566,0.260666,5,0.1,39,1.1,3.69489,-0.949825,0.50001,-0.281303,0.396747,-0.000110734,0.301868,-0.0409409,0.000845641,0.0134957,0.223952,5,0.1
0,1.2,-3.77313,2.14078,0.889608,-0.0249028,0.222909,0.36675,-0.318527,-0.983834,-0.293851,0.0128209,0.239945,5,0.1,1,1.2,2.79426,-2.17718,0.580032,-0.557923,0.0968695,0.0249088,0.20957,-0.036478,-0.00938773,0.00980646,0.171496,5,0.1,2,1.2,0.121684,-2.1083,0.590552,0.00943542,0.866026,0.0183389,-0.000216067,0,0.110984,0.0123682,2.27141,5,0.1,3,1.2,1.93433,4.71001,0.909005,0.0132263,-0.429595,0.371453,-0.00494719,0.161171,-0.139505,0.0234817,0.172276,5,0.1,4,1.2,-0.598412,1.84971,0.714184,0.251365,-0.675157,0.03016,-0.0944138,-0.0315309,-0.0113249,0.0139518,0.65466,5,0.1,5,1.2,-3.37409,4.08565,0.554739,0.866026,-0.0693679,0.0169113,0,0.00190735,-0.000357628,0.040287,2.26863,5,0.1,6,1.2,2.7225,-2.831,0.576086,-0.509989,0.84269,0.0195459,0.155926,-0.236392,-0.00622869,0.0254291,0.770639,5,0.1,7,1.2,-2.38601,4.22886,0.583287,0.866026,-0.189137,0.00900924,0,-0.0784397,-0.000357628,0.0212667,2.24313,5,0.1,8,1.2,0.197223,2.52439,0.710955,-0.393282,0.860852,0.0308767,0.0979006,-0.103593,-0.00762939,0.0143051,0.976105,5,0.1,9,1.2,-3.11266,-2.79268,0.834526,0.582135,0.136065,0.287275,0.103712,-0.0114441,-0.0673532,0.0163599,2.48116,5,0.1,10,1.2,4.56464,-1.17097,0.559271,-0.307214,-0.14042,0.0193566,0.115156,0.410974,-0.117868,0.00828173,0.257524,5,0.1,11,1.2,-2.43883,1.75078,0.883949,0.0326931,-0.211254,0.392559,-0.0121593,0.0793338,-0.147462,0.0118345,0.106663,5,0.1,12,1.2,0.803238,2.45769,0.644694,-0.64598,0.863266,-0.0233233,0.00217557,-0.0553131,5.96046e-05,0.0103178,2.02472,5,0.1,13,1.2,0.3,-0.224694,0.500177,0.496854,-0.227358,-0.00192076,-0.231221,0.140749,0.0145435,0.0123784,1.8096,5,0.1,14,1.2,-0.92799,-0.627227,0.613157,0.109841,0.241859,0.0567019,-0.764519,-1.36301,0.125349,0.0114529,1.42185,5,0.1,15,1.2,2.10342,-2.95212,0.652426,-0.00177622,0.866026,-0.0272244,0,0,0.00077486,0.00998745,2.27765,5,0.1,16,1.2,-3.68565,-3.01837,0.603266,-0.826132,0.266868,0.0394031,0.187635,0.066638,-0.00524521,0.0101074,0.743272,5,0.1,17,1.2,-0.68325,-0.501796,0.522133,0.848974,-0.449379,0.0137225,-0.1885,0.148892,-0.00455976,0.0117465,0.736383,5,0.1,18,1.2,1.16718,5.01478,0.866915,0.0276268,-0.559914,0.406906,-0.0104308,0.210285,-0.152856,0.0205114,0.260615,5,0.1,19,1.2,-3.61079,-3.31815,0.560513,0.112051,0.604159,0.0153571,0.398278,0.105739,-0.00104308,0.0106802,2.5622,5,0.1,20,1.2,1.36601,-2.77373,0.500503,-0.392532,0.314772,-0.00440925,0.147462,-0.118136,0.0265837,0.0122513,0.217019,5,0.1,21,1.2,2.01767,5.11902,0.8,0.0986338,-0.624478,0.165834,0.00488758,0.351667,-0.146568,0.0112106,0.588466,5,0.1,22,1.2,-3.29864,-4.63883,0.652077,0.256068,0.835288,-0.0297263,-0.0064373,-0.386477,0.00077486,0.0171171,2.78767,5,0.1,23,1.2,-1.21701,4.86027,0.62904,0.862944,-0.757062,-0.014095,-0.0616908,0.0388622,0.000745058,0.0135407,1.95249,5,0.1,24,1.2,0.204547,0.14083,0.607793,-0.424985,0.254264,-0.00655651,0.159637,0.48764,0.0025034,0.00968114,1.40871,5,0.1,25,1.2,1.32395,2.28323,0.557137,-0.82776,-0.807917,0.0215352,0.0205636,-0.0439882,-0.000119209,0.0236438,1.93451,5,0.1,26,1.2,-1.55909,-5.10299,0.700683,0.0848711,0.866032,0.015898,-0.00506639,-0.000238419,0.0136793,0.0289608,2.26712,5,0.1,27,1.2,-0.158157,-0.49076,0.706752,0.00207759,0.866025,0.0269771,-2.23517e-05,1.43051e-05,-0.0270903,0.012603,2.29106,5,0.1,28,1.2,3.62801,-4.32628,0.59113,-0.137699,0.862825,0.00611246,0.41151,-0.0636578,-8.9407e-05,0.029256,1.44219,5,0.1,29,1.2,-5.37392,-3.95574,0.651086,-0.0188231,-0.576752,-0.036864,0.00214577,1.25611,0.00408292,0.00787517,2.69634,5,0.1,30,1.2,-3.70719,2.37485,0.6081,-0.541455,0.147516,-0.00682324,0.203371,-0.0555515,0.0025928,0.00989219,0.29228,5,0.1,31,1.2,-1.76832,-1.11306,0.629139,-0.153032,0.558496,-0.0245437,0.0575185,-0.209808,0.00920892,0.009223,0.179353,5,0.1,32,1.2,-1.9673,-3.59403,0.846891,0.398883,0.0713408,0.382015,-1.04487,0.536919,-0.452638,0.00707047,0.231941,5,0.1,33,1.2,-4.00053,-5.4384,0.573507,0.211084,0.20597,0.02231,-0.079155,-0.698328,-0.00840425,0.011383,0.235141,5,0.1,34,1.2,3.41558,-2.81496,0.630598,-0.610477,0.814539,-0.0209153,-0.651002,-0.342846,-0.000566244,0.0186898,1.31868,5,0.1,35,1.2,4.49835,-5.17626,0.608688,-0.251341,0.312603,-0.00730306,0.0941753,-0.709772,0.00271201,0.04045,0.605509,5,0.1,36,1.2,-1.97844,-3.84143,0.599566,-0.148821,0.415015,-0.136186,0.678837,-0.0633001,-0.191867,0.0103444,2.72726,5,0.1,37,1.2,-4.02688,-3.24627,0.608419,0.6217,0.226206,0.00472218,-0.949383,-0.444055,0.0345111,0.0157951,2.96544,5,0.1,38,1.2,1.16867,4.51568,0.8,0.02639,-0.0747085,0.174937,-0.00989437,0.213146,-0.153303,0.0132989,0.223412,5,0.1,39,1.2,3.66851,-0.910505,0.500003,-0.244123,0.387892,-4.32134e-05,0.428557,-0.145704,0.000506639,0.0118626,0.177175,5,0.1
0,1.3,-3.77692,2.15896,0.924969,-0.0481654,0.148231,0.341614,-0.15448,-0.540137,-0.22433,0.0128209,0.239945,5,0.1,1,1.3,2.73949,-2.16767,0.582477,-0.537205,0.0932641,0.0239817,0.222132,-0.0386238,-0.00993162,0.00980646,0.171496,5,0.1,2,1.3,0.122629,-2.0217,0.592925,0.00947909,0.866026,0.0288856,0.000553206,0,0.0968315,0.0123682,2.27141,5,0.1,3,1.3,1.93563,4.66784,0.945468,0.0127362,-0.413657,0.357662,-0.00526756,0.170916,-0.14786,0.0234817,0.172276,5,0.1,4,1.3,-0.573737,1.78262,0.717144,0.242031,-0.661116,0.0290404,-0.100072,0.303663,-0.0119992,0.0139518,0.65466,5,0.1,5,1.3,-3.28749,4.07871,0.556433,0.866026,-0.0696555,0.0169898,0,-0.00375509,0.000972301,0.040287,2.26863,5,0.1,6,1.3,2.67219,-2.7482,0.578008,-0.496468,0.810125,0.0188697,0.135586,-0.423059,-0.00780076,0.0254291,0.770639,5,0.1,7,1.3,-2.2994,4.20945,0.584188,0.866026,-0.199609,0.00902843,0,-0.11465,0.00025332,0.0212667,2.24313,5,0.1,8,1.3,0.158373,2.6102,0.714006,-0.38349,0.856623,0.0301125,0.111398,-0.0276119,-0.00871345,0.0143051,0.976105,5,0.1,9,1.3,-3.05286,-2.77939,0.863081,0.622034,0.127642,0.284961,0.600725,-0.146225,0.00128895,0.0163599,2.48116,5,0.1,10,1.3,4.53448,-1.18299,0.560718,-0.295823,-0.100427,0.0104786,0.122219,0.382528,-0.0631772,0.00828173,0.257524,5,0.1,11,1.3,-2.43562,1.73005,0.922483,0.0314895,-0.20341,0.377982,-0.0129491,0.0841022,-0.156283,0.0118345,0.106663,5,0.1,12,1.3,0.738474,2.54397,0.642354,-0.650122,0.863723,-0.0235135,-0.0481233,0.0302345,-0.00244379,0.0103178,2.02472,5,0.1,13,1.3,0.349689,-0.246729,0.500047,0.506318,-0.213247,-0.000767875,0.33457,0.146456,0.0086911,0.0123784,1.8096,5,0.1,14,1.3,-0.919778,-0.608095,0.619266,0.0637095,0.156388,0.063728,-0.205487,-0.425659,0.0209808,0.0114529,1.42185,5,0.1,15,1.3,2.10324,-2.86552,0.649701,-0.00178553,0.865858,-0.0273184,-0.000104308,-0.00669062,-0.00115111,0.00998745,2.27765,5,0.1,16,1.3,-3.76756,-2.99148,0.607181,-0.813202,0.269428,0.0388749,0.112772,-0.0197142,-0.00680238,0.0101074,0.743272,5,0.1,17,1.3,-0.599151,-0.546005,0.523483,0.833465,-0.43458,0.0132697,-0.158884,0.161454,-0.00493973,0.0117465,0.736383,5,0.1,18,1.3,1.16989,4.96001,0.906884,0.0265781,-0.533539,0.392551,-0.0113696,0.322163,-0.148565,0.0205114,0.260615,5,0.1,19,1.3,-3.59794,-3.25609,0.562085,0.141616,0.645755,0.0164047,0.198275,0.628337,0.0188202,0.0106802,2.5622,5,0.1,20,1.3,1.32747,-2.74268,0.500181,-0.377955,0.307538,-0.00217138,0.156298,-0.0461936,0.0181533,0.0122513,0.217019,5,0.1,21,1.3,2.02754,5.05818,0.816267,0.0987295,-0.593246,0.162957,-0.0064224,0.296742,0.0605881,0.0112106,0.588466,5,0.1,22,1.3,-3.27314,-4.55818,0.6491,0.252984,0.769271,-0.0298548,-0.0604093,-0.895858,-0.00166148,0.0171171,2.78767,5,0.1,23,1.3,-1.13077,4.78455,0.62763,0.863362,-0.758426,-0.0141184,0.0284463,-0.0237823,-0.000420958,0.0135407,1.95249,5,0.1,24,1.3,0.162829,0.168357,0.60715,-0.409204,0.29489,-0.00631027,0.169192,0.39637,0.00263005,0.00968114,1.40871,5,0.1,25,1.3,1.24103,2.20194,0.559297,-0.831847,-0.819425,0.0216896,-0.0543594,-0.134856,0.0019297,0.0236438,1.93451,5,0.1,26,1.3,-1.5506,-5.01639,0.702342,0.0849554,0.866023,0.0172624,0.00201911,2.98023e-05,0.0125021,0.0289608,2.26712,5,0.1,27,1.3,-0.158168,-0.404164,0.709347,-0.00411621,0.865686,0.0251722,-0.110183,-0.0135675,-0.0112876,0.012603,2.29106,5,0.1,28,1.3,3.61629,-4.24006,0.591741,-0.0971761,0.863277,0.0061065,0.389829,0.0334084,-0.000290573,0.029256,1.44219,5,0.1,29,1.3,-5.37571,-4.0069,0.647317,-0.0163749,-0.446372,-0.039346,0.0425577,1.27126,-0.0458807,0.00787517,2.69634,5,0.1,30,1.3,-3.76034,2.38949,0.607743,-0.521349,0.146472,0.00232281,0.21556,0.020206,0.16078,0.00989219,0.29228,5,0.1,31,1.3,-1.78335,-1.05824,0.62673,-0.147346,0.537755,-0.0236332,0.0609457,-0.222355,0.00976771,0.009223,0.179353,5,0.1,32,1.3,-1.93253,-3.58412,0.883129,0.298013,0.127259,0.345236,-0.963666,0.555962,-0.303511,0.00707047,0.231941,5,0.1,33,1.3,-3.97981,-5.42118,0.575696,0.203254,0.139794,0.0214797,-0.0839978,-0.615597,-0.00889227,0.011383,0.235141,5,0.1,34,1.3,3.35128,-2.73511,0.628502,-0.674447,0.782816,-0.020971,-0.584155,-0.320628,0.000350177,0.0186898,1.31868,5,0.1,35,1.3,4.47368,-5.14862,0.607927,-0.242025,0.239941,-0.0082829,0.099957,-0.728399,-0.0192635,0.04045,0.605509,5,0.1,36,1.3,-1.99004,-3.79969,0.585108,-0.084872,0.424121,-0.151677,0.581302,0.195622,-0.114225,0.0103444,2.72726,5,0.1,37,1.3,-3.96902,-3.22585,0.609075,0.53933,0.182321,0.00846609,-0.721604,-0.430048,0.0384003,0.0157951,2.96544,5,0.1,38,1.3,1.17126,4.50926,0.817156,0.0254113,-0.053829,0.171706,-0.0104904,0.200927,0.0593551,0.0132989,0.223412,5,0.1,39,1.3,3.64637,-0.872429,0.5,-0.197845,0.373488,-6.61239e-06,0.48545,-0.154424,0.000242144,0.0118626,0.177175,5,0.1
0,1.4,-3.7823,2.17161,0.95802,-0.0572681,0.109369,0.319234,-0.0343323,-0.26226,-0.234306,0.0118401,0.171002,5,0.1,1,1.4,2.68702,-2.15856,0.584819,-0.510615,0.088644,0.0227943,0.321031,-0.0557899,-0.0143647,0.0090798,0.112878,5,0.1,2,1.4,0.123578,-1.9351,0.596253,0.00945479,0.866026,0.0371814,-0.00141561,0,0.0669956,0.0126204,2.27293,5,0.1,3,1.4,1.93687,4.62743,0.980404,0.0121057,-0.393188,0.339961,-0.00762939,0.247002,-0.213712,0.0235009,0.113388,5,0.1,4,1.4,-0.550096,1.71851,0.719981,0.230053,-0.616276,0.0276044,-0.14469,0.583351,-0.017345,0.0137864,0.410677,5,0.1,5,1.4,-3.20089,4.07174,0.558132,0.866026,-0.0694394,0.0169426,0,0.0104904,-0.0025928,0.0412765,2.26871,5,0.1,6,1.4,2.62333,-2.66966,0.57985,-0.479305,0.756961,0.0179023,0.222087,-0.643492,-0.0118315,0.0250511,0.597223,5,0.1,7,1.4,-2.2128,4.18897,0.58509,0.866026,-0.20926,0.00897646,0,-0.0667572,-0.00163913,0.0201963,2.23904,5,0.1,8,1.4,0.120692,2.69554,0.716965,-0.368766,0.847393,0.0289604,0.192009,-0.189424,-0.01508,0.0138255,0.691057,5,0.1,9,1.4,-2.98747,-2.7675,0.891564,0.685936,0.108802,0.284129,0.607371,-0.221729,-0.0322163,0.0165202,1.92657,5,0.1,10,1.4,4.50558,-1.19121,0.561516,-0.281179,-0.064972,0.00608414,0.17643,0.322342,-0.0275671,0.0079586,0.239145,5,0.1,11,1.4,-2.43255,1.71018,0.959405,0.0299394,-0.193346,0.359274,-0.0188351,0.121653,-0.225872,0.0126248,0.147331,5,0.1,12,1.4,0.673386,2.63043,0.639996,-0.649333,0.864309,-0.0235707,0.0897348,-0.0342131,0.00229478,0.0113794,2.03286,5,0.1,13,1.4,0.402346,-0.267279,0.500006,0.548659,-0.19725,-0.000140071,0.447065,0.176653,0.00408292,0.0126214,1.42791,5,0.1,14,1.4,-0.913834,-0.593576,0.625611,0.0601992,0.142445,0.0619844,0.0972152,0.0831783,-0.0508428,0.0119523,1.11756,5,0.1,15,1.4,2.10306,-2.77902,0.64697,-0.00178218,0.863349,-0.0271991,0.000357628,-0.053525,0.00458956,0.0104057,2.55832,5,0.1,16,1.4,-3.84816,-2.96481,0.611022,-0.796479,0.26229,0.0377938,0.251174,-0.124931,-0.0157952,0.0106592,0.521801,5,0.1,17,1.4,-0.516799,-0.58854,0.524781,0.810919,-0.414699,0.0126615,-0.317574,0.24572,-0.00748038,0.0114381,0.506771,5,0.1,18,1.4,1.17249,4.90848,0.945308,0.0252187,-0.49479,0.374794,-0.0163913,0.454426,-0.216275,0.0238937,0.188032,5,0.1,19,1.4,-3.58308,-3.18817,0.563831,0.152773,0.712723,0.0185624,0.0302792,0.63777,0.0219643,0.0114628,2.35937,5,0.1,20,1.4,1.29056,-2.71217,0.500041,-0.359249,0.302148,-0.000762939,0.225961,-0.0758171,0.0102222,0.0127007,0.153545,5,0.1,21,1.4,2.03734,5.0004,0.833015,0.096786,-0.561106,0.172934,-0.0348091,0.362873,0.117183,0.0123214,0.448684,5,0.1,22,1.4,-3.24827,-4.48631,0.646113,0.243175,0.663161,-0.029771,-0.13864,-1.19424,0.00450015,0.0187455,3.09802,5,0.1,23,1.4,-1.04441,4.70877,0.626219,0.861993,-0.754595,-0.0140458,-0.0807345,0.129461,0.00241399,0.0143872,1.95995,5,0.1,24,1.4,0.122858,0.2,0.606533,-0.388953,0.339624,-0.00599623,0.244573,0.487677,0.00375509,0.00962976,1.14906,5,0.1,25,1.4,1.15777,2.11952,0.56147,-0.830474,-0.826126,0.021705,0.115514,0.0368357,-0.0025332,0.0254205,1.9289,5,0.1,26,1.4,-1.54212,-4.92978,0.704121,0.0844717,0.866032,0.0182122,-0.01508,-0.000238419,0.00575185,0.031236,2.26726,5,0.1,27,1.4,-0.159219,-0.317772,0.711818,-0.0175271,0.860599,0.0243217,-0.147395,-0.108525,-0.00742078,0.0114093,2.40732,5,0.1,28,1.4,3.60842,-4.15365,0.592348,-0.0612199,0.863433,0.00600964,0.323296,-0.0517368,-0.00178814,0.0293191,2.59239,5,0.1,29,1.4,-5.3771,-4.04566,0.643124,-0.0110745,-0.334454,-0.0446588,0.0603199,0.927448,-0.0544488,0.0101324,2.49757,5,0.1,30,1.4,-3.81126,2.40427,0.608908,-0.495547,0.149047,0.0218555,0.311494,0.0202656,0.214696,0.0101303,0.211667,5,0.1,31,1.4,-1.79774,-1.00571,0.624421,-0.140053,0.511143,-0.022465,0.0880957,-0.321448,0.0141561,0.0107574,0.161406,5,0.1,32,1.4,-1.90735,-3.56875,0.916243,0.207669,0.178158,0.317729,-0.836909,0.443697,-0.261843,0.0115475,0.377813,5,0.1,33,1.4,-3.95995,-5.41008,0.577795,0.193197,0.0843525,0.0204161,-0.121474,-0.487566,-0.012815,0.0123764,0.437907,5,0.1,34,1.4,3.28132,-2.65859,0.626415,-0.719863,0.745535,-0.0206947,-0.293851,-0.44477,0.00581145,0.0201177,0.925266,5,0.1,35,1.4,4.45003,-5.1282,0.606986,-0.230062,0.169528,-0.0106186,0.14472,-0.668526,-0.0250936,0.0417426,0.837382,5,0.1,36,1.4,-1.99591,-3.75621,0.569522,-0.0354588,0.445467,-0.158474,0.396907,0.193954,-0.0198483,0.0109435,2.43219,5,0.1,37,1.4,-3.91847,-3.20972,0.610107,0.473255,0.14084,0.012064,-0.617743,-0.396729,0.0321269,0.0161984,2.93397,5,0.1,38,1.4,1.17375,4.50484,0.834775,0.0241548,-0.0351191,0.181636,-0.0151992,0.170946,0.116915,0.0142604,0.181433,5,0.1,39,1.4,3.62902,-0.835947,0.500001,-0.149083,0.355004,8.9407e-06,0.480652,-0.223219,5.96046e-05,0.0151703,0.27896,5,0.1
0,1.5,-3.78805,2.18166,0.988882,-0.0565555,0.0953037,0.298781,0.0429004,-0.0422448,-0.1873,0.0118401,0.171002,5,0.1,1,1.5,2.6375,-2.14996,0.58703,-0.479991,0.0833228,0.0214248,0.305951,-0.0531375,-0.0136681,0.0090798,0.112878,5,0.1,2,1.5,0.124519,-1.8485,0.600205,0.00939469,0.866026,0.0409153,-0.000321306,0,0.0105388,0.0126204,2.27293,5,0.1,3,1.5,1.93804,4.5893,1.01337,0.0113772,-0.369623,0.319575,-0.00727922,0.235468,-0.203669,0.0235009,0.113388,5,0.1,4,1.5,-0.527786,1.66037,0.722658,0.216252,-0.541804,0.0259501,-0.137873,0.877462,-0.0165291,0.0137864,0.410677,5,0.1,5,1.5,-3.11428,4.06483,0.559819,0.866026,-0.0689737,0.0168256,0,0.00271201,-0.000692904,0.0412765,2.26871,5,0.1,6,1.5,2.57649,-2.59743,0.581575,-0.45727,0.685383,0.0165393,0.232071,-0.783235,-0.0154041,0.0250511,0.597223,5,0.1,7,1.5,-2.1262,4.16763,0.585982,0.866026,-0.217879,0.00888221,0,-0.0903606,-0.000722706,0.0201963,2.23904,5,0.1,8,1.5,0.0847395,2.77948,0.719788,-0.350365,0.831928,0.0275153,0.187174,-0.157282,-0.0147037,0.0138255,0.691057,5,0.1,9,1.5,-2.91542,-2.75766,0.919899,0.757233,0.0887319,0.283019,0.746593,-0.181794,-0.00564009,0.0165202,1.92657,5,0.1,10,1.5,4.47831,-1.19623,0.562038,-0.26434,-0.0366854,0.00479938,0.168294,0.242047,-0.000771135,0.0079586,0.239145,5,0.1,11,1.5,-2.42949,1.69127,0.994246,0.0325885,-0.186187,0.337728,0.0610799,0.0368804,-0.215251,0.0126248,0.147331,5,0.1,12,1.5,0.608905,2.71684,0.637628,-0.639652,0.864767,-0.0239534,0.126842,0.0153184,-0.00766665,0.0113794,2.03286,5,0.1,13,1.5,0.459929,-0.28615,0.500007,0.606139,-0.180347,0.000127591,0.63657,0.165746,0.00146031,0.0126214,1.42791,5,0.1,14,1.5,-0.906847,-0.578096,0.631474,0.0834463,0.173803,0.0545788,0.331998,0.484094,-0.0930913,0.0119523,1.11756,5,0.1,15,1.5,2.10289,-2.69402,0.644265,-0.00176057,0.827147,-0.0269514,0.000178814,-0.622913,0.00183284,0.0104057,2.55832,5,0.1,16,1.5,-3.9267,-2.93925,0.614725,-0.775014,0.248415,0.036276,0.211775,-0.156552,-0.0157841,0.0106592,0.521801,5,0.1,17,1.5,-0.437175,-0.628827,0.526011,0.78197,-0.391211,0.0119461,-0.291655,0.236042,-0.00718981,0.0114381,0.506771,5,0.1,18,1.5,1.17493,4.86142,0.981794,0.0236306,-0.44511,0.355448,-0.0160187,0.536025,-0.184573,0.0238937,0.188032,5,0.1,19,1.5,-3.5678,-3.11347,0.565817,0.15126,0.782112,0.0212927,-0.0578761,0.685751,0.0299625,0.0114628,2.35937,5,0.1,20,1.5,1.25572,-2.68224,0.500005,-0.337696,0.296953,-3.76254e-05,0.215299,-0.04372,0.00464916,0.0127007,0.153545,5,0.1,21,1.5,2.04684,4.94593,0.851079,0.0930149,-0.529502,0.189618,-0.0429302,0.291646,0.194386,0.0123214,0.448684,5,0.1,22,1.5,-3.2248,-4.42625,0.643151,0.224788,0.535856,-0.0295093,-0.224859,-1.32298,0.00226498,0.0187455,3.09802,5,0.1,23,1.5,-0.958286,4.63368,0.624822,0.862413,-0.748716,-0.0139359,0.041686,0.0315309,0.000596046,0.0143872,1.95995,5,0.1,24,1.5,0.0851387,0.236903,0.605952,-0.365623,0.401904,-0.00563832,0.23306,0.697846,0.00357255,0.00962976,1.14906,5,0.1,25,1.5,1.075,2.03681,0.563636,-0.826869,-0.829751,0.021661,0.00560284,-0.0594035,0.000353903,0.0254205,1.9289,5,0.1,26,1.5,-1.53372,-4.84318,0.705974,0.0836845,0.866023,0.0188428,-0.00534952,2.98023e-05,0.00577793,0.031236,2.26726,5,0.1,27,1.5,-0.161665,-0.232655,0.714204,-0.0308785,0.837785,0.0233095,-0.117229,-0.345294,-0.0130087,0.0114093,2.40732,5,0.1,28,1.5,3.604,-4.06735,0.592938,-0.027512,0.8639,0.00577411,0.307173,0.02864,-0.00299141,0.0293191,2.59239,5,0.1,29,1.5,-5.37788,-4.07503,0.638345,-0.00429749,-0.261153,-0.0511677,0.0721216,0.454247,-0.0697263,0.0101324,2.49757,5,0.1,30,1.5,-3.85932,2.41928,0.612282,-0.465832,0.151259,0.0464061,0.296876,0.0165999,0.261635,0.0101303,0.211667,5,0.1,31,1.5,-1.81148,-0.95614,0.622243,-0.136095,0.480482,-0.0211152,0.00491738,-0.306293,0.0134744,0.0107574,0.161406,5,0.1,32,1.5,-1.88988,-3.54934,0.946883,0.149571,0.204448,0.296416,-0.363722,0.100464,-0.180215,0.0115475,0.377813,5,0.1,33,1.5,-3.94111,-5.40383,0.579785,0.184481,0.0431865,0.0194977,-0.0648201,-0.336885,-0.00682101,0.0123764,0.437907,5,0.1,34,1.5,3.20801,-2.58619,0.624374,-0.744234,0.702636,-0.0200973,-0.164852,-0.433877,0.00678375,0.0201177,0.925266,5,0.1,35,1.5,4.42772,-5.11447,0.605818,-0.216255,0.106464,-0.0125573,0.137955,-0.57897,-0.0136383,0.0417426,0.837382,5,0.1,36,1.5,-1.99769,-3.71007,0.553855,-0.0032464,0.481815,-0.152344,0.223316,0.470296,0.131749,0.0109435,2.43219,5,0.1,37,1.5,-3.87282,-3.1973,0.611439,0.451659,0.11058,0.0142533,0.0964701,-0.222534,0.0123903,0.0161984,2.93397,5,0.1,38,1.5,1.17609,4.50212,0.853709,0.0227051,-0.0200309,0.198309,-0.0144765,0.12967,0.194032,0.0142604,0.181433,5,0.1,39,1.5,3.61645,-0.801333,0.500002,-0.103261,0.338995,9.96515e-06,0.429437,-0.118967,-2.6077e-05,0.0151703,0.27896,5,0.1
0,1.6,-3.7934,2.19119,1.01782,-0.0497341,0.096792,0.279632,0.0888109,0.0537634,-0.204444,0.0123484,0.230424,5,0.1,1,1.6,2.5911,-2.14191,0.589101,-0.446999,0.0775933,0.0199512,0.363469,-0.0630617,-0.0162125,0.0100795,0.126831,5,0.1,2,1.6,0.125455,-1.76189,0.604276,0.00929944,0.866026,0.0398308,-0.0019595,-5.96046e-05,-0.0297129,0.0123939,2.2723,5,0.1,3,1.6,1.93914,4.55357,1.04426,0.0105917,-0.344229,0.297612,-0.00864267,0.279903,-0.241995,0.0074343,0.181407,5,0.1,4,1.6,-0.506882,1.61086,0.725167,0.201388,-0.446016,0.0241682,-0.163823,1.01441,-0.0196695,0.0129243,0.392005,5,0.1,5,1.6,-3.02768,4.05795,0.561495,0.866026,-0.0682235,0.0166416,0,0.0145435,-0.00363588,0.0441481,2.26886,5,0.1,6,1.6,2.53203,-2.533,0.583146,-0.430661,0.601375,0.0148311,0.30899,-0.891447,-0.0186861,0.0246168,0.737071,5,0.1,7,1.6,-2.0396,4.14546,0.586865,0.866026,-0.22471,0.00874996,-5.96046e-05,-0.0352859,-0.00226498,0.0213335,2.04699,5,0.1,8,1.6,0.050705,2.86169,0.722461,-0.329468,0.809622,0.0258729,0.238225,-0.314593,-0.0186861,0.0136063,0.477547,5,0.1,9,1.6,-2.83622,-2.74964,0.948112,0.82289,0.072062,0.280339,0.515103,-0.153184,-0.058949,0.0169344,1.459,5,0.1,10,1.6,4.45276,-1.19882,0.56254,-0.246179,-0.0166535,0.00545681,0.200033,0.159025,0.0118613,0.00898011,0.439849,5,0.1,11,1.6,-2.42586,1.6728,1.02689,0.040257,-0.183293,0.314519,0.0840425,0.0322461,-0.255764,0.0130724,0.18738,5,0.1,12,1.6,0.545788,2.80332,0.635194,-0.620154,0.863594,-0.0247091,0.278324,-0.0486374,-0.00575185,0.0118282,1.81314,5,0.1,13,1.6,0.523594,-0.303345,0.500024,0.664592,-0.163379,0.000184774,0.484586,0.17646,-0.000119209,0.014092,1.19925,5,0.1,14,1.6,-0.896697,-0.55804,0.636426,0.120296,0.228697,0.0441253,0.377655,0.568002,-0.112534,0.0152105,0.902884,5,0.1,15,1.6,2.10271,-2.61504,0.641584,-0.0017345,0.747168,-0.0265807,0.000476837,-0.939965,0.00655651,0.0102149,2.87427,5,0.1,16,1.6,-4.00298,-2.91527,0.618266,-0.748432,0.23036,0.0344321,0.342846,-0.20659,-0.0218749,0.010521,0.359108,5,0.1,17,1.6,-0.360595,-0.666705,0.527168,0.7475,-0.365488,0.011161,-0.41835,0.28652,-0.00870228,0.0117143,0.34332,5,0.1,18,1.6,1.17721,4.8197,1.01638,0.0219047,-0.388265,0.335523,-0.0188351,0.597,-0.223577,0.00647324,0.587468,5,0.1,19,1.6,-3.55309,-3.03217,0.568091,0.141746,0.839394,0.0240922,-0.129461,0.419259,0.0240803,0.010596,2.28466,5,0.1,20,1.6,1.22307,-2.65281,0.500018,-0.314483,0.290745,0.000232458,0.255764,-0.0913143,0.00104308,0.0118438,0.185254,5,0.1,21,1.6,2.0559,4.89447,0.870991,0.0878215,-0.498962,0.207983,-0.0623465,0.334501,0.156701,0.0113743,0.337183,5,0.1,22,1.6,-3.20355,-4.3793,0.640218,0.199038,0.403714,-0.0290588,-0.286102,-1.29747,0.00780821,0.0174408,3.11866,5,0.1,23,1.6,-0.871945,4.5591,0.623434,0.86253,-0.740874,-0.013791,-0.0699162,0.155449,0.00295043,0.0143504,1.96909,5,0.1,24,1.6,0.0497959,0.280523,0.605407,-0.340495,0.468771,-0.00525117,0.276915,0.595346,0.00423193,0.00916593,0.884161,5,0.1,25,1.6,0.992485,1.95371,0.5658,-0.820987,-0.829497,0.021553,0.146687,0.0997186,-0.00339746,0.0228705,1.76588,5,0.1,26,1.6,-1.52539,-4.75658,0.70788,0.0826031,0.866032,0.0191867,-0.0194907,-0.000238419,0.000327826,0.0272115,2.26749,5,0.1,27,1.6,-0.165273,-0.150979,0.71646,-0.0405859,0.792068,0.0216946,-0.075452,-0.56623,-0.0192821,0.0101751,2.68255,5,0.1,28,1.6,3.60249,-3.98087,0.593498,-0.0061214,0.864536,0.00540167,0.101209,-0.0299215,-0.00452995,0.0259788,2.56241,5,0.1,29,1.6,-5.37795,-4.1,0.632895,0.00280142,-0.248957,-0.0575677,0.0674725,-0.179529,-0.0539422,0.00722421,2.13919,5,0.1,30,1.6,-3.90435,2.43444,0.618209,-0.43382,0.151134,0.0716269,0.352859,-0.0241995,0.231981,0.0093287,0.160358,5,0.1,31,1.6,-1.82511,-0.909694,0.620202,-0.13665,0.447457,-0.0196621,-0.00566244,-0.363886,0.0160038,0.00897731,0.111817,5,0.1,32,1.6,-1.87622,-3.52883,0.975652,0.127953,0.20169,0.278957,-0.0995994,-0.139594,-0.180334,0.00879239,0.279546,5,0.1,33,1.6,-3.92298,-5.40096,0.581702,0.178164,0.0165343,0.0188336,-0.0700951,-0.199318,-0.00739098,0.0103524,0.568782,5,0.1,34,1.6,3.13317,-2.51821,0.622404,-0.74811,0.655323,-0.0192299,0.105739,-0.52619,0.0109971,0.0148815,0.647629,5,0.1,35,1.6,4.40682,-5.10649,0.604513,-0.20138,0.0558734,-0.01335,0.163794,-0.425577,-0.00229478,0.0364538,1.09125,5,0.1,36,1.6,-1.99732,-3.65951,0.539456,0.00624955,0.52861,-0.134103,-0.0389218,0.419259,0.224024,0.00955226,2.07938,5,0.1,37,1.6,-3.8266,-3.18716,0.612899,0.476742,0.0937998,0.0146851,0.33617,-0.124216,-0.00309944,0.0143181,2.7067,5,0.1,38,1.6,1.17828,4.50069,0.874485,0.0211447,-0.00927448,0.216548,-0.0172257,0.0851154,0.154316,0.0128038,0.284555,5,0.1,39,1.6,3.60814,-0.768004,0.500002,-0.064224,0.327408,5.96046e-06,0.347495,-0.128746,-8.9407e-05,0.0110423,0.239199,5,0.1
0,1.7,-3.79788,2.20149,1.04484,-0.0393443,0.111948,0.261448,0.114888,0.221789,-0.169486,0.0123484,0.230424,5,0.1,1,1.7,2.54792,-2.13441,0.591028,-0.419113,0.072756,0.018708,0.220433,-0.0382513,-0.00981987,0.0100795,0.126831,5,0.1,2,1.7,0.126379,-1.67529,0.60807,0.00919332,0.866025,0.0357145,-0.000691041,1.49012e-05,-0.0507943,0.0123939,2.2723,5,0.1,3,1.7,1.93987,4.52018,1.07285,0.0016652,-0.326584,0.274356,-0.152007,0.101775,-0.230059,0.0074343,0.181407,5,0.1,4,1.7,-0.487524,1.5714,0.72749,0.186031,-0.343141,0.0223247,-0.148823,1.02422,-0.017859,0.0129243,0.392005,5,0.1,5,1.7,-2.94108,4.05118,0.563147,0.866026,-0.0674084,0.0164352,0,0.00560284,-0.00142306,0.0441481,2.26886,5,0.1,6,1.7,2.49063,-2.47737,0.584521,-0.396261,0.51074,0.0125502,0.379473,-0.914633,-0.0260435,0.0246168,0.737071,5,0.1,7,1.7,-1.95299,4.12275,0.587731,0.866025,-0.229578,0.0085867,1.49012e-05,-0.0484586,-0.00143424,0.0213335,2.04699,5,0.1,8,1.7,0.0188946,2.9412,0.724959,-0.307046,0.781021,0.0241135,0.219561,-0.287831,-0.0172295,0.0136063,0.477547,5,0.1,9,1.7,-2.75192,-2.74315,0.975901,0.857782,0.0584178,0.275616,0.194743,-0.121534,-0.0480488,0.0169344,1.459,5,0.1,10,1.7,4.42898,-1.19973,0.563195,-0.230826,-0.00212509,0.00804393,0.121444,0.123657,0.0361241,0.00898011,0.439849,5,0.1,11,1.7,-2.42123,1.65435,1.05728,0.0537839,-0.187898,0.294897,0.170574,-0.100046,-0.155091,0.0130724,0.18738,5,0.1,12,1.7,0.485114,2.88964,0.632674,-0.59332,0.864028,-0.0258235,0.277776,0.0216514,-0.0141114,0.0118282,1.81314,5,0.1,13,1.7,0.591591,-0.318842,0.500041,0.686888,-0.146872,0.000143982,-0.0231266,0.15742,-0.000633299,0.014092,1.19925,5,0.1,14,1.7,-0.882608,-0.532029,0.640255,0.162485,0.293383,0.0323192,0.439055,0.680232,-0.120599,0.0152105,0.902884,5,0.1,15,1.7,2.10254,-2.54572,0.63895,-0.00170283,0.634967,-0.0261505,0.00025332,-1.20771,0.00346079,0.0102149,2.87427,5,0.1,16,1.7,-4.07624,-2.89325,0.621605,-0.717235,0.209971,0.0323663,0.308484,-0.204846,-0.020463,0.010521,0.359108,5,0.1,17,1.7,-0.287814,-0.701888,0.528243,0.708724,-0.338587,0.010343,-0.382062,0.261597,-0.00796095,0.0117143,0.34332,5,0.1,18,1.7,1.17928,4.78496,1.04874,0.0191933,-0.297405,0.310916,-0.0338629,1.14757,-0.270575,0.00647324,0.587468,5,0.1,19,1.7,-3.5396,-2.94678,0.570632,0.127655,0.862944,0.0267634,-0.151619,0.0949204,0.0269637,0.010596,2.28466,5,0.1,20,1.7,1.19269,-2.62392,0.500043,-0.294862,0.289218,0.00023609,0.155091,0.0343174,-0.000763685,0.0118438,0.185254,5,0.1,21,1.7,2.06437,4.84609,0.892639,0.0817001,-0.469619,0.225202,-0.0620186,0.271738,0.170399,0.0113743,0.337183,5,0.1,22,1.7,-3.18527,-4.34522,0.637346,0.165189,0.280274,-0.0283932,-0.378415,-1.15508,0.00673532,0.0174408,3.11866,5,0.1,23,1.7,-0.785757,4.48548,0.622064,0.862954,-0.733286,-0.0136451,0.0347979,0.0402927,0.000786036,0.0143504,1.96909,5,0.1,24,1.7,0.0170652,0.330526,0.604902,-0.314535,0.531591,-0.00485415,0.251575,0.614772,0.00385568,0.00916593,0.884161,5,0.1,25,1.7,0.910872,1.87228,0.567945,-0.812617,-0.790013,0.0213768,0.064645,0.647008,-0.00128895,0.0228705,1.76588,5,0.1,26,1.7,-1.5172,-4.66998,0.709805,0.0814395,0.866023,0.0193284,-0.0083819,2.98023e-05,0.00144169,0.0272115,2.26749,5,0.1,27,1.7,-0.169647,-0.0754305,0.718528,-0.0462936,0.712893,0.0196299,-0.0386396,-0.930089,-0.0220016,0.0101751,2.68255,5,0.1,28,1.7,3.60209,-3.89443,0.594016,-0.00640415,0.864984,0.00496022,-0.160918,0.0116378,-0.00440329,0.0259788,2.56241,5,0.1,29,1.7,-5.37733,-4.12706,0.626857,0.00957325,-0.302508,-0.063181,0.0656545,-0.796109,-0.0536703,0.00722421,2.13919,5,0.1,30,1.7,-3.94605,2.44923,0.626551,-0.400742,0.143,0.0951283,0.320569,-0.131369,0.22687,0.0093287,0.160358,5,0.1,31,1.7,-1.83888,-0.866682,0.618312,-0.139389,0.413344,-0.0181622,-0.0383556,-0.330586,0.0145324,0.00897731,0.111817,5,0.1,32,1.7,-1.86349,-3.50963,1.00276,0.130248,0.179983,0.263944,0.116058,-0.281349,-0.132594,0.00879239,0.279546,5,0.1,33,1.7,-3.90554,-5.40019,0.583545,0.170157,5.96046e-06,0.0179891,-0.0930876,-0.127435,-0.00982359,0.0103524,0.568782,5,0.1,34,1.7,3.05912,-2.45525,0.620537,-0.730218,0.604038,-0.0181139,0.264019,-0.513181,0.0117421,0.0148815,0.647629,5,0.1,35,1.7,4.38746,-5.10289,0.603183,-0.186024,0.0182085,-0.0130923,0.148803,-0.298351,0.00700355,0.0364538,1.09125,5,0.1,36,1.7,-1.99719,-3.60432,0.527263,-0.00787508,0.576225,-0.108974,-0.288762,0.484571,0.27094,0.00955226,2.07938,5,0.1,37,1.7,-3.77624,-3.17771,0.614322,0.538161,0.101005,0.0135241,0.799447,0.224739,-0.0187457,0.0143181,2.7067,5,0.1,38,1.7,1.18034,4.50012,0.896791,0.0201102,-0.0028491,0.228188,-0.00534952,0.0448823,0.0724383,0.0128038,0.284555,5,0.1,39,1.7,3.60332,-0.735963,0.500003,-0.0338428,0.312703,-8.3819e-07,0.25782,-0.170968,-4.84288e-05,0.0110423,0.239199,5,0.1
0,1.8,-3.80122,2.21388,1.07013,-0.0274956,0.13631,0.243995,0.118971,0.244498,-0.186801,0.0110037,0.17983,5,0.1,1,1.8,2.50705,-2.12732,0.592853,-0.39838,0.0691593,0.017786,0.213265,-0.0370741,-0.00953674,0.00856673,0.073147,5,0.1,2,1.8,0.127293,-1.58869,0.611366,0.00907071,0.866026,0.030005,-0.00213087,-5.96046e-05,-0.06181,0.0117528,2.39563,5,0.1,3,1.8,1.93917,4.48793,1.09911,-0.0166327,-0.318861,0.250447,-0.200093,0.0736713,-0.252783,0.00636972,0.181638,5,0.1,4,1.8,-0.469676,1.54209,0.729632,0.170698,-0.244448,0.0204846,-0.161573,0.935614,-0.0194013,0.0116075,0.22834,5,0.1,5,1.8,-2.85448,4.04448,0.564781,0.866026,-0.0664473,0.0161961,0,0.0162125,-0.00396371,0.037283,2.26903,5,0.1,6,1.8,2.45302,-2.43086,0.58564,-0.354815,0.419706,0.0097841,0.448704,-0.900388,-0.0285804,0.00731666,0.638711,5,0.1,7,1.8,-1.86639,4.09962,0.588581,0.866026,-0.2321,0.00838786,-5.96046e-05,0.00786781,-0.00283122,0.0221648,1.60002,5,0.1,8,1.8,-0.010681,3.0177,0.727282,-0.283988,0.746942,0.0223041,0.247943,-0.414491,-0.0194609,0.0109571,0.324556,5,0.1,9,1.8,-2.66557,-2.73787,1.00316,0.866026,0.0474274,0.268608,-0.000119209,-0.0995398,-0.100672,0.0140913,1.07741,5,0.1,10,1.8,4.40647,-1.19943,0.564195,-0.219405,0.00691116,0.0120193,0.117779,0.0532269,0.040561,0.00886288,0.359665,5,0.1,11,1.8,-2.41497,1.63501,1.08604,0.0715852,-0.199065,0.280309,0.17333,-0.105083,-0.150025,0.0108558,0.118235,5,0.1,12,1.8,0.427299,2.97604,0.630024,-0.561357,0.862527,-0.0271112,0.374466,-0.0698566,-0.00989437,0.00908592,1.3967,5,0.1,13,1.8,0.659435,-0.332749,0.500052,0.663106,-0.131263,6.85453e-05,-0.436693,0.157356,-0.000834465,0.0130391,0.622599,5,0.1,14,1.8,-0.864246,-0.499411,0.642891,0.203429,0.356885,0.0205323,0.360161,0.556737,-0.112861,0.0112446,0.697675,5,0.1,15,1.8,2.10237,-2.4881,0.636357,-0.00166297,0.520456,-0.0256479,0.000357628,-1.0308,0.00756979,0.00808938,2.67558,5,0.1,16,1.8,-4.1463,-2.8733,0.624735,-0.682116,0.188792,0.0301689,0.412464,-0.221014,-0.0241697,0.00826221,0.243737,5,0.1,17,1.8,-0.218957,-0.734413,0.529236,0.666905,-0.311473,0.00951737,-0.471271,0.287503,-0.00876188,0.00995809,0.230598,5,0.1,18,1.8,1.18101,4.76137,1.07839,0.0154108,-0.171673,0.281152,-0.0405312,1.31011,-0.325263,0.00641687,0.341978,5,0.1,19,1.8,-3.52763,-2.86026,0.573432,0.111586,0.866026,0.0290781,-0.16892,0,0.017643,0.00842144,2.26951,5,0.1,20,1.8,1.16394,-2.5948,0.500061,-0.280276,0.293016,0.000116229,0.150084,0.0224113,-0.00149012,0.0111793,0.113018,5,0.1,21,1.8,2.07222,4.80052,0.915918,0.0750959,-0.441301,0.23912,-0.0714064,0.308037,0.0957847,0.0103274,0.24799,5,0.1,22,1.8,-3.17071,-4.32262,0.634547,0.125593,0.175309,-0.0275046,-0.403404,-0.934362,0.0118911,0.0151313,0.535826,5,0.1,23,1.8,-0.699396,4.41246,0.620705,0.862466,-0.725293,-0.0134945,-0.0712276,0.150442,0.00283122,0.0105438,1.64058,5,0.1,24,1.8,-0.0131105,0.38648,0.604436,-0.288616,0.583839,-0.00445694,0.273156,0.397607,0.00420213,0.00841239,0.648481,5,0.1,25,1.8,0.830092,1.79712,0.570072,-0.800578,-0.707799,0.0210971,0.206947,0.96333,-0.005126,0.0199806,1.42906,5,0.1,26,1.8,-1.50911,-4.58337,0.71174,0.0801414,0.866032,0.0192955,-0.0209212,-0.000238419,-0.00286102,0.0276218,2.26775,5,0.1,27,1.8,-0.174409,-0.00884567,0.720377,-0.0483375,0.619559,0.0173002,-0.00255555,-0.88869,-0.0244975,0.0100813,2.8438,5,0.1,28,1.8,3.6,-3.80796,0.59449,-0.0415325,0.863212,0.00450164,-0.52011,-0.0561476,-0.00479817,0.0253116,2.43884,5,0.1,29,1.8,-5.37606,-4.16166,0.620303,0.015521,-0.391364,-0.0675097,0.0514984,-0.908375,-0.0297427,0.00897389,1.72154,5,0.1,30,1.8,-3.9845,2.46275,0.637115,-0.367713,0.126183,0.115098,0.347972,-0.198841,0.164688,0.00943795,0.243478,5,0.1,31,1.8,-1.85299,-0.827026,0.616569,-0.142467,0.379284,-0.016664,-0.0153184,-0.358939,0.0157356,0.00895433,0.132981,5,0.1,32,1.8,-1.84973,-3.49318,1.02848,0.145966,0.147825,0.250268,0.175893,-0.350952,-0.149965,0.00942183,0.347984,5,0.1,33,1.8,-3.88905,-5.40069,0.585289,0.159067,-0.00847578,0.0168189,-0.130415,-0.0412464,-0.0137985,0.0101002,2.6327,5,0.1,34,1.8,2.98775,-2.39748,0.618788,-0.693494,0.550425,-0.0168115,0.47648,-0.567913,0.0145435,0.0142732,0.461667,5,0.1,35,1.8,4.36962,-5.10218,0.601921,-0.170696,0.000119209,-0.0120342,0.161886,-0.0536442,0.0137091,0.0356011,1.32116,5,0.1,36,1.8,-2,-3.54449,0.517745,-0.0536382,0.617236,-0.0812799,-0.602603,0.301242,0.276953,0.0086845,1.68211,5,0.1,37,1.8,-3.71829,-3.16621,0.615565,0.620431,0.131017,0.0111848,0.776768,0.341654,-0.0269115,0.0144323,2.43649,5,0.1,38,1.8,1.18233,4.5,0.919797,0.019747,7.15256e-05,0.230101,-0.00321865,0.0157356,-0.0374615,0.0132994,0.21228,5,0.1,39,1.8,3.60106,-0.705654,0.500002,-0.0129104,0.292335,-4.47035e-06,0.160456,-0.239611,-2.98023e-05,0.0103001,0.56744,5,0.1
0,1.9,-3.80337,2.22886,1.09366,-0.0154577,0.16408,0.227171,0.118822,0.289872,-0.158079,0.0110037,0.17983,5,0.1,1,1.9,2.46816,-2.12056,0.594589,-0.380216,0.0660013,0.0169742,0.167161,-0.0290424,-0.00746176,0.00856673,0.073147,5,0.1,2,1.9,0.128491,-1.50239,0.614124,0.0174004,0.856583,0.0257484,0.149425,-0.204399,-0.026878,0.0117528,2.39563,5,0.1,3,1.9,1.93637,4.45636,1.12307,-0.0401517,-0.31259,0.230005,-0.25522,0.0654757,-0.169352,0.00636972,0.181638,5,0.1,4,1.9,-0.453371,1.52208,0.731588,0.155729,-0.158381,0.0186875,-0.142451,0.777237,-0.0170991,0.0116075,0.22834,5,0.1,5,1.9,-2.76787,4.03789,0.566387,0.866026,-0.0654921,0.0159619,0,0.00667572,-0.00163913,0.037283,2.26903,5,0.1,6,1.9,2.41992,-2.39438,0.586458,-0.305813,0.302026,0.00644708,0.522628,-1.37998,-0.0365786,0.00731666,0.638711,5,0.1,7,1.9,-1.77979,4.07642,0.589407,0.865922,-0.231907,0.00814479,-0.00409782,0.00691414,-0.00238419,0.0221648,1.60002,5,0.1,8,1.9,-0.0379047,3.09045,0.72942,-0.260931,0.708556,0.0204941,0.221057,-0.378191,-0.0173599,0.0109571,0.324556,5,0.1,9,1.9,-2.57897,-2.73358,1.02955,0.865558,0.038702,0.25948,-0.0186116,-0.0764728,-0.0920817,0.0140913,1.07741,5,0.1,10,1.9,4.38514,-1.19854,0.56559,-0.20688,0.0100067,0.015751,0.136554,-0.0031814,0.03298,0.00886288,0.359665,5,0.1,11,1.9,-2.40691,1.6146,1.1134,0.0896879,-0.208639,0.267531,0.178307,-0.0765249,-0.117585,0.0108558,0.118235,5,0.1,12,1.9,0.372857,3.06162,0.627258,-0.528697,0.845579,-0.0281991,0.300998,-0.27661,-0.0101812,0.00908592,1.3967,5,0.1,13,1.9,0.722835,-0.345915,0.500055,0.598497,-0.138986,-4.93601e-06,-0.820596,-0.259208,-0.000629574,0.0130391,0.622599,5,0.1,14,1.9,-0.842076,-0.460879,0.644387,0.239723,0.41346,0.00951905,0.344913,0.539754,-0.105239,0.0112446,0.697675,5,0.1,15,1.9,2.10209,-2.44084,0.633827,-0.00506826,0.431046,-0.0249425,-0.060752,-0.659868,0.00748783,0.00808938,2.67558,5,0.1,16,1.9,-4.21257,-2.85549,0.627637,-0.644046,0.167807,0.0279139,0.371516,-0.202015,-0.0217892,0.00826221,0.243737,5,0.1,17,1.9,-0.154491,-0.764199,0.530147,0.623226,-0.284801,0.00870405,-0.422946,0.254452,-0.00776723,0.00995809,0.230598,5,0.1,18,1.9,1.18235,4.75083,1.10509,0.0113556,-0.0394151,0.254652,-0.0399128,1.29694,-0.219643,0.00641687,0.341978,5,0.1,19,1.9,-3.5173,-2.77365,0.576436,0.0952344,0.866026,0.031029,-0.158563,0,0.0191592,0.00842144,2.26951,5,0.1,20,1.9,1.13657,-2.56531,0.500066,-0.267494,0.297029,-1.4063e-05,0.1176,0.0406504,-0.00110641,0.0111793,0.113018,5,0.1,21,1.9,2.07934,4.75772,0.94034,0.0670958,-0.416011,0.249268,-0.0875443,0.218719,0.092715,0.0103274,0.24799,5,0.1,22,1.9,-3.16019,-4.30933,0.631852,0.0847045,0.0950299,-0.0264168,-0.405475,-0.670642,0.0108704,0.0151313,0.535826,5,0.1,23,1.9,-0.614175,4.34048,0.619366,0.835665,-0.715391,-0.0133079,-0.448275,0.0847876,0.00159815,0.0105438,1.64058,5,0.1,24,1.9,-0.04068,0.446865,0.60401,-0.263309,0.623063,-0.00406774,0.240833,0.350606,0.00370666,0.00841239,0.648481,5,0.1,25,1.9,0.750917,1.73171,0.57216,-0.783538,-0.596892,0.0206782,0.169117,1.18609,-0.00418723,0.0199806,1.42906,5,0.1,26,1.9,-1.50117,-4.49677,0.713661,0.0788564,0.866023,0.0191559,-0.00929087,2.98023e-05,-0.000979751,0.0276218,2.26775,5,0.1,27,1.9,-0.179234,0.0487204,0.721989,-0.047925,0.535875,0.0149793,0.0114432,-0.656478,-0.0221543,0.0100813,2.8438,5,0.1,28,1.9,3.59244,-3.72169,0.594917,-0.116069,0.86365,0.00406224,-0.902042,0.0268519,-0.00411272,0.0253116,2.43884,5,0.1,29,1.9,-5.37426,-4.2058,0.613402,0.0204369,-0.494228,-0.0704237,0.0450015,-1.07637,-0.0248589,0.00897389,1.72154,5,0.1,30,1.9,-4.0198,2.47429,0.649168,-0.340375,0.104043,0.123366,0.219882,-0.237554,0.00851229,0.00943795,0.243478,5,0.1,31,1.9,-1.8675,-0.790618,0.61497,-0.148938,0.351085,-0.015428,-0.0964627,-0.22677,0.0099428,0.00895433,0.132981,5,0.1,32,1.9,-1.83392,-3.48023,1.05284,0.172783,0.11077,0.237303,0.328109,-0.380725,-0.119582,0.00942183,0.347984,5,0.1,33,1.9,-3.87379,-5.40195,0.586903,0.146135,-0.0171915,0.0154511,-0.130981,-0.0734925,-0.0138544,0.0101002,2.6327,5,0.1,34,1.9,2.92077,-2.34511,0.617176,-0.646006,0.498272,-0.0154528,0.487551,-0.490397,0.0130869,0.0142732,0.461667,5,0.1,35,1.9,4.35331,-5.10216,0.600792,-0.155701,0.00474006,-0.0104993,0.142664,0.204623,0.016693,0.0356011,1.32116,5,0.1,36,1.9,-2.00906,-3.48119,0.510902,-0.132744,0.648381,-0.0565629,-0.91593,0.283614,0.218455,0.0086845,1.68211,5,0.1,37,1.9,-3.65189,-3.15108,0.616539,0.710141,0.173621,0.00822926,0.939474,0.475153,-0.0312142,0.0144323,2.43649,5,0.1,38,1.9,1.18435,4.50007,0.943017,0.021103,0.00112429,0.237429,0.0258088,0.00581145,0.150636,0.0132994,0.21228,5,0.1,39,1.9,3.60055,-0.677607,0.500002,0.00200309,0.268578,-6.14673e-06,0.114784,-0.240613,-7.45058e-06,0.0103001,0.56744,5,0.1
0,2,-3.80434,2.24665,1.11558,-0.00424981,0.190669,0.210956,0.103116,0.226617,-0.172257,0.0104675,0.244255,5,0.1,1,2,2.43101,-2.11412,0.596247,-0.362033,0.0628412,0.0161633,0.208378,-0.0361204,-0.00929832,0.00813429,0.0698662,5,0.1,2,2,0.131097,-1.41819,0.616598,0.0355288,0.822759,0.0239983,0.198156,-0.480354,-0.0109076,0.0110663,2.82547,5,0.1,3,2,1.93109,4.42551,1.14527,-0.0650495,-0.303447,0.214273,-0.231624,0.126839,-0.155091,0.00668664,0.225371,5,0.1,4,2,-0.438509,1.50981,0.733372,0.141423,-0.0902265,0.0169709,-0.146881,0.582159,-0.017643,0.0147696,0.373773,5,0.1,5,2,-2.68127,4.03138,0.567972,0.866026,-0.0644684,0.0157118,0,0.0164509,-0.00396371,0.0400028,2.2692,5,0.1,6,2,2.39202,-2.37137,0.586918,-0.251895,0.156707,0.00274777,0.548363,-1.46973,-0.03618,0.00771957,0.604935,5,0.1,7,2,-1.69325,4.05334,0.590208,0.864384,-0.228894,0.00785291,-0.0328422,0.0607967,-0.00375509,0.0201646,1.21511,5,0.1,8,2,-0.0628846,3.1593,0.731382,-0.238449,0.667095,0.0187293,0.233967,-0.468016,-0.018388,0.00625194,0.402752,5,0.1,9,2,-2.49266,-2.73007,1.05499,0.858563,0.0318527,0.24848,-0.149012,-0.061512,-0.134885,0.0133533,0.781037,5,0.1,10,2,4.36519,-1.19772,0.56731,-0.191498,0.00481009,0.0184357,0.173569,-0.103593,0.0199676,0.00693886,0.737132,5,0.1,11,2,-2.39711,1.59346,1.13954,0.105464,-0.212729,0.254741,0.129938,0.00119209,-0.146627,0.0100002,0.085452,5,0.1,12,2,0.32152,3.14441,0.624398,-0.497364,0.806093,-0.0288635,0.341341,-0.516653,-0.00190735,0.00776163,1.15949,5,0.1,13,2,0.778187,-0.36144,0.500051,0.505318,-0.173777,-5.81145e-05,-1.0145,-0.395924,-0.000447035,0.0102424,0.199552,5,0.1,14,2,-0.816544,-0.417098,0.64484,0.268883,0.458894,-0.000146031,0.223786,0.344515,-0.0866055,0.0111329,0.510006,5,0.1,15,2,2.10123,-2.4,0.631377,-0.0124454,0.395817,-0.0239894,-0.0807047,-0.0687838,0.0121891,0.00787053,2.31856,5,0.1,16,2,-4.27503,-2.83971,0.630318,-0.60401,0.147831,0.0256658,0.444412,-0.199676,-0.0236928,0.00822291,0.164104,5,0.1,17,2,-0.0943402,-0.791405,0.530978,0.578839,-0.259146,0.00791997,-0.478921,0.264496,-0.00807643,0.00956939,0.163409,5,0.1,18,2,1.18329,4.75309,1.12953,0.00754595,0.0811696,0.234628,-0.0358224,1.08743,-0.191808,0.00581752,0.241203,5,0.1,19,2,-3.50855,-2.68705,0.579622,0.0798047,0.866026,0.0325337,-0.150561,0,0.00938773,0.00833132,2.27023,5,0.1,20,2,1.11044,-2.53549,0.50006,-0.254703,0.298232,-0.000102818,0.146568,-0.0287294,-0.000685453,0.0104564,0.0797936,5,0.1,21,2,2.0856,4.71721,0.965629,0.0577867,-0.393951,0.255223,-0.0976324,0.236988,0.0163913,0.0113259,0.176901,5,0.1,22,2,-3.15369,-4.30274,0.629269,0.0460565,0.0408292,-0.0251636,-0.361085,-0.417471,0.014931,0.0157398,0.362288,5,0.1,23,2,-0.53336,4.26951,0.618046,0.7759,-0.702,-0.0130579,-0.732646,0.208616,0.0038743,0.00959842,1.34677,5,0.1,24,2,-0.065808,0.510604,0.603622,-0.239122,0.647859,-0.003694,0.248339,0.12061,0.00378489,0.00811866,0.455795,5,0.1,25,2,0.673582,1.67788,0.574202,-0.760795,-0.481412,0.0201017,0.309974,1.08409,-0.00795722,0.0180638,0.289333,5,0.1,26,2,-1.49334,-4.41017,0.715568,0.0775129,0.866032,0.01892,-0.0206828,-0.000238419,-0.00444055,0.0259577,2.26801,5,0.1,27,2,-0.183942,0.1,0.723379,-0.0459574,0.499398,0.0128329,0.028193,-0.0902373,-0.020951,0.00936364,2.7681,5,0.1,28,2,3.57615,-3.63529,0.595303,-0.209886,0.862712,0.00365824,-0.922441,-0.0662804,-0.00408292,0.0240856,2.28067,5,0.1,29,2,-5.37201,-4.2604,0.606268,0.0242352,-0.594127,-0.0718653,0.0293255,-0.868797,-0.00149012,0.00722137,1.32418,5,0.1,30,2,-4.0528,2.48349,0.661344,-0.320089,0.0798047,0.118288,0.201464,-0.241995,-0.103027,0.00810838,0.206212,5,0.1,31,2,-1.88289,-0.756571,0.613473,-0.158694,0.330161,-0.0145108,-0.0857115,-0.207722,0.00911951,0.00902808,0.0793807,5,0.1,32,2,-1.81497,-3.47104,1.07595,0.205943,0.0733376,0.224608,0.311017,-0.360489,-0.141501,0.00960777,0.2724,5,0.1,33,2,-3.85985,-5.40373,0.588377,0.132424,-0.014627,0.0140026,-0.144958,0.150681,-0.0153482,0.00995179,3.49791,5,0.1,34,2,2.85872,-2.29771,0.615697,-0.593644,0.449753,-0.0141189,0.568748,-0.490665,0.0139475,0.0130808,0.339142,5,0.1,35,2,4.33845,-5.1,0.599829,-0.14137,0.0446796,-0.00875145,0.146866,0.571489,0.0180304,0.0358802,2.35003,5,0.1,36,2,-2.027,-3.41522,0.506249,-0.225687,0.667536,-0.0373721,-0.894904,0.0734329,0.166476,0.00898139,1.29403,5,0.1,37,2,-3.57644,-3.13137,0.617205,0.794911,0.219905,0.00511408,0.699759,0.424385,-0.0302792,0.0140286,2.26263,5,0.1,38,2,1.1866,4.5002,0.967598,0.0241131,0.00133514,0.254394,0.0309944,-0.00143051,0.163645,0.0126664,0.152372,5,0.1,39,2,3.60111,-0.651987,0.500001,0.00687838,0.243387,-5.96046e-06,-0.026226,-0.266373,0,0.0106976,1.01742,5,0.1
0,2.1,-3.80427,2.26704,1.13588,0.00564046,0.218181,0.195343,0.0924617,0.297487,-0.146948,0.0104675,0.244255,5,0.1,1,2.1,2.396,-2.10786,0.597817,-0.336629,0.0636525,0.0152034,0.299171,0.0409484,-0.0102557,0.00813429,0.0698662,5,0.1,2,2.1,0.135821,-1.33905,0.619127,0.0602616,0.753437,0.0280945,0.277689,-0.878043,0.0806451,0.0110663,2.82547,5,0.1,3,2.1,1.92335,4.39613,1.16609,-0.0901129,-0.281124,0.203368,-0.255078,0.307202,-0.0774115,0.00668664,0.225371,5,0.1,4,2.1,-0.425058,1.50337,0.734986,0.127938,-0.0419501,0.0153514,-0.126736,0.386253,-0.0152141,0.0147696,0.373773,5,0.1,5,2.1,-2.59467,4.02499,0.56953,0.866026,-0.0634871,0.0154767,0,0.00682473,-0.00163168,0.0400028,2.2692,5,0.1,6,2.1,2.37052,-2.36208,0.586895,-0.170301,0.0380881,-0.00413656,1.01654,-0.924975,-0.0931323,0.00771957,0.604935,5,0.1,7,2.1,-1.60683,4.03073,0.590976,0.864778,-0.223309,0.00751195,0.00758469,0.0597239,-0.00334904,0.0201646,1.21511,5,0.1,8,2.1,-0.0861928,3.22283,0.733391,-0.232954,0.596073,0.0233616,-0.0814219,-0.911474,0.0963546,0.00625194,0.402752,5,0.1,9,2.1,-2.40735,-2.72716,1.0792,0.848407,0.0265501,0.23599,-0.0960976,-0.0458062,-0.123277,0.0133533,0.781037,5,0.1,10,2.1,4.34689,-1.19777,0.569246,-0.174563,-0.007727,0.0201833,0.168592,-0.205696,0.0141151,0.00693886,0.737132,5,0.1,11,2.1,-2.38594,1.5725,1.16431,0.117465,-0.203707,0.240791,0.103563,0.168569,-0.140078,0.0100002,0.085452,5,0.1,12,2.1,0.273458,3.22166,0.621483,-0.463895,0.732766,-0.0295708,0.339517,-0.886828,-0.00981241,0.00776163,1.15949,5,0.1,13,2.1,0.823491,-0.380538,0.500044,0.399904,-0.205519,-8.91276e-05,-1.06689,-0.236278,-0.00018999,0.0102424,0.199552,5,0.1,14,2.1,-0.788556,-0.369507,0.644409,0.290251,0.491996,-0.00826987,0.187267,0.290047,-0.0742637,0.0111329,0.510006,5,0.1,15,2.1,2.09917,-2.35964,0.629044,-0.0321306,0.420551,-0.0226046,-0.284076,0.478715,0.0157617,0.00787053,2.31856,5,0.1,16,2.1,-4.33334,-2.82587,0.632772,-0.562961,0.129281,0.0234754,0.395328,-0.174299,-0.0208355,0.00822291,0.164104,5,0.1,17,2.1,-0.0387645,-0.815797,0.531701,0.533179,-0.226965,0.00628391,-0.448241,0.368804,-0.022877,0.00956939,0.163409,5,0.1,18,2.1,1.18387,4.76641,1.15225,0.00410061,0.182325,0.221418,-0.0325516,0.913799,-0.0895262,0.00581752,0.241203,5,0.1,19,2.1,-3.50128,-2.60045,0.582931,0.0658985,0.866026,0.0336658,-0.128612,0,0.0111461,0.00833132,2.27023,5,0.1,20,2.1,1.08567,-2.50616,0.500047,-0.240758,0.284966,-0.000142585,0.140026,-0.225291,-0.000152737,0.0104564,0.0797936,5,0.1,21,2.1,2.09089,4.67887,0.991247,0.0480723,-0.3738,0.256972,-0.096038,0.182927,0.00705197,0.0113259,0.176901,5,0.1,22,2.1,-3.15096,-4.30037,0.626809,0.00817142,0.0102289,-0.0241977,-0.382856,-0.206918,0.00615045,0.0157398,0.362288,5,0.1,23,2.1,-0.46012,4.20052,0.616757,0.68379,-0.675643,-0.0127291,-1.04256,0.328928,0.0032559,0.00959842,1.34677,5,0.1,24,2.1,-0.0885519,0.575984,0.60327,-0.216321,0.658911,-0.00334578,0.214285,0.0714324,0.00327453,0.00811866,0.455795,5,0.1,25,2.1,0.5994,1.63474,0.576175,-0.719394,-0.385606,0.0193805,0.51707,0.836894,-0.00722334,0.0180638,0.289333,5,0.1,26,2.1,-1.48566,-4.32357,0.717444,0.0762397,0.866023,0.0186428,-0.00915676,2.98023e-05,-0.00213087,0.0259577,2.26801,5,0.1,27,2.1,-0.188454,0.150383,0.724602,-0.044741,0.515328,0.012014,0.000730157,0.335215,0.00186637,0.00936364,2.7681,5,0.1,28,2.1,3.55023,-3.54908,0.595651,-0.310485,0.863128,0.00329902,-1.03237,0.0310987,-0.00322983,0.0240856,2.28067,5,0.1,29,2.1,-5.36945,-4.32424,0.599073,0.0269167,-0.682275,-0.0719582,0.0228584,-0.83828,0.00258908,0.00722137,1.32418,5,0.1,30,2.1,-4.08392,2.49025,0.672507,-0.302964,0.0555482,0.103689,0.154883,-0.235245,-0.181057,0.00810838,0.206212,5,0.1,31,2.1,-1.89922,-0.724477,0.612063,-0.168109,0.312504,-0.0137355,-0.0911281,-0.159703,0.007011,0.00902808,0.0793807,5,0.1,32,2.1,-1.79271,-3.46549,1.09776,0.239773,0.0380658,0.212,0.340804,-0.338137,-0.119016,0.00960777,0.2724,5,0.1,33,2.1,-3.84655,-5.40419,0.589698,0.140093,0.0106052,0.0124171,0.248194,0.448406,-0.0163466,0.00995179,3.49791,5,0.1,34,2.1,2.80202,-2.25499,0.614349,-0.54163,0.406176,-0.0128604,0.489086,-0.396237,0.0116751,0.0130808,0.339142,5,0.1,35,2.1,4.32501,-5.09272,0.599044,-0.127888,0.100265,-0.00695558,0.126719,0.532568,0.0176914,0.0358802,2.35003,5,0.1,36,2.1,-2.05423,-3.34808,0.503265,-0.31958,0.674806,-0.0230583,-0.934824,0.0415891,0.120986,0.00898139,1.29403,5,0.1,37,2.1,-3.49398,-3.10705,0.617566,0.848488,0.267412,0.00212351,0.358418,0.49153,-0.0288524,0.0140286,2.26263,5,0.1,38,2.1,1.18913,4.50032,0.993959,0.02614,0.000925362,0.273308,0.00984967,-0.00607967,0.192743,0.0126664,0.152372,5,0.1,39,2.1,3.60157,-0.628934,0.500001,-0.000662729,0.218033,-4.84288e-06,-0.189707,-0.245243,1.49012e-05,0.0106976,1.01742,5,0.1
0,2.2,-3.80327,2.29028,1.15467,0.013876,0.245655,0.180387,0.0706911,0.233173,-0.156939,0.0107824,0.184849,5,0.1,1,2.2,2.36398,-2.10124,0.599282,-0.30244,0.0690281,0.0140548,0.3829,0.0579357,-0.012964,0.00812708,0.0465278,5,0.1,2,2.2,0.143239,-1.26856,0.622408,0.087782,0.652394,0.0379682,0.258677,-1.11836,0.107437,0.0125753,3.2953,5,0.1,3,2.2,1.91313,4.36977,1.18607,-0.113562,-0.244319,0.196296,-0.203311,0.417709,-0.0746846,0.00626411,0.270939,5,0.1,4,2.2,-0.412891,1.5008,0.736446,0.115411,-0.0122398,0.0138491,-0.126556,0.212371,-0.015229,0.0108012,0.790255,5,0.1,5,2.2,-2.50807,4.01869,0.571067,0.866026,-0.0624776,0.015232,0,0.015974,-0.0038743,0.0381039,2.26936,5,0.1,6,2.2,2.35889,-2.36215,0.585979,-0.0604689,-0.0325143,-0.014399,1.12808,-0.507116,-0.105709,0.0203822,2.23054,5,0.1,7,2.2,-1.52045,4.00875,0.591709,0.860846,-0.215471,0.00713468,-0.103474,0.102878,-0.00441074,0.0202682,0.89458,5,0.1,8,2.2,-0.110127,3.27743,0.736299,-0.247217,0.492269,0.0353947,-0.171315,-1.13082,0.133008,0.00619201,0.28452,5,0.1,9,2.2,-2.32319,-2.72472,1.10215,0.832224,0.022471,0.222421,-0.256658,-0.0367165,-0.153899,0.0132502,0.77575,5,0.1,10,2.2,4.33029,-1.2,0.571319,-0.157225,-0.0410557,0.0211164,0.180483,-0.449657,0.00402331,0.00763714,1.19294,5,0.1,11,2.2,-2.37376,1.55318,1.18765,0.125098,-0.181013,0.22544,0.0448227,0.276029,-0.172079,0.0100047,0.199716,5,0.1,12,2.2,0.228839,3.29029,0.61848,-0.427565,0.638807,-0.0304073,0.39456,-0.954509,-0.0051558,0.00771121,0.965279,5,0.1,13,2.2,0.858238,-0.401992,0.500034,0.296432,-0.220726,-9.68575e-05,-0.98452,-0.0674576,-2.98023e-05,0.0107092,0.350932,5,0.1,14,2.2,-0.758764,-0.319131,0.643242,0.303604,0.5123,-0.0147328,0.0687838,0.0974393,-0.053972,0.0123729,0.508942,5,0.1,15,2.2,2.09439,-2.31486,0.62687,-0.0641346,0.476652,-0.0208005,-0.333786,0.579119,0.0204146,0.00571274,0.8177,5,0.1,16,2.2,-4.38762,-2.81379,0.635016,-0.521791,0.112468,0.0213772,0.441074,-0.164151,-0.0216067,0.00773765,0.110136,5,0.1,17,2.2,0.0122705,-0.836549,0.532202,0.486858,-0.187276,0.00366122,-0.487537,0.416398,-0.0282228,0.00990333,0.120881,5,0.1,18,2.2,1.18413,4.78878,1.17399,0.00112653,0.260329,0.213739,-0.0265241,0.632286,-0.0766516,0.00742145,0.183925,5,0.1,19,2.2,-3.49531,-2.51385,0.586342,0.0538886,0.866026,0.0344053,-0.112414,0,0.00217557,0.00848596,2.27063,5,0.1,20,2.2,1.06234,-2.47904,0.500032,-0.225413,0.255305,-0.000140071,0.172079,-0.357866,0.000208616,0.0112268,0.198834,5,0.1,21,2.2,2.09522,4.64243,1.01689,0.0386834,-0.354481,0.2547,-0.0911951,0.215054,-0.0604391,0.0102931,0.123388,5,0.1,22,2.2,-3.152,-4.30012,0.624417,-0.0281274,-0.00292063,-0.0236273,-0.333309,-0.0679493,0.00655651,0.0153735,0.34435,5,0.1,23,2.2,-0.397039,4.13487,0.615503,0.578029,-0.634634,-0.0123128,-1.03323,0.497103,0.00545382,0.0109304,1.20248,5,0.1,24,2.2,-0.109125,0.641958,0.602952,-0.19514,0.657305,-0.00302047,0.213966,-0.122935,0.00327826,0.00792632,0.310685,5,0.1,25,2.2,0.530377,1.6,0.578074,-0.657825,-0.312421,0.0185296,0.710815,0.638068,-0.0103116,0.0202654,0.379152,5,0.1,26,2.2,-1.47809,-4.23696,0.719294,0.074935,0.866032,0.0183195,-0.0200868,-0.000238419,-0.0050962,0.0288736,2.26827,5,0.1,27,2.2,-0.192939,0.203797,0.725832,-0.045009,0.553553,0.0127271,-0.00265986,0.374026,0.0103116,0.0101151,2.66969,5,0.1,28,2.2,3.51422,-3.46273,0.595965,-0.406504,0.861889,0.00298917,-0.846386,-0.0827312,-0.00303984,0.028011,2.14914,5,0.1,29,2.2,-5.36666,-4.39624,0.591917,0.0285864,-0.752306,-0.0708535,0.00929832,-0.523329,0.0214577,0.00756034,0.964811,5,0.1,30,2.2,-4.11342,2.49469,0.681896,-0.286746,0.0340343,0.0835091,0.179291,-0.190139,-0.216097,0.00968265,0.181462,5,0.1,31,2.2,-1.91642,-0.694042,0.610725,-0.174978,0.295781,-0.0130013,-0.0382066,-0.184894,0.00813603,0.00993541,0.155714,5,0.1,32,2.2,-1.76714,-3.46329,1.11835,0.26986,0.00687242,0.199392,0.243247,-0.281096,-0.139058,0.00979258,0.331458,5,0.1,33,2.2,-3.83099,-5.4,0.590857,0.173163,0.0814795,0.0107393,0.374556,0.938654,-0.0171661,0.0112717,3.0483,5,0.1,34,2.2,2.75029,-2.2163,0.613121,-0.492847,0.367862,-0.0117093,0.498772,-0.381112,0.0117421,0.0144725,0.255633,5,0.1,35,2.2,4.31285,-5.08015,0.598435,-0.115359,0.149691,-0.00524819,0.126362,0.449181,0.0163019,0.0398512,3.40105,5,0.1,36,2.2,-2.0906,-3.28065,0.501497,-0.404388,0.670761,-0.0129357,-0.726938,-0.142813,0.0826418,0.0104407,0.951834,5,0.1,37,2.2,-3.40796,-3.07798,0.617641,0.866026,0.312322,-0.000540912,0,0.381827,-0.0239313,0.0145881,2.18631,5,0.1,38,2.2,1.19176,4.50038,1.02215,0.0261545,0.000226498,0.289205,-0.00911951,-0.00691414,0.109792,0.0125052,0.108094,5,0.1,39,2.2,3.6,-0.608352,0.5,-0.0360787,0.193578,-2.98023e-06,-0.503659,-0.246912,2.98023e-05,0.0116952,3.4636,5,0.1
0,2.3,-3.80155,2.31607,1.17198,0.020412,0.270034,0.166127,0.058338,0.234187,-0.134006,0.0107824,0.184849,5,0.1,1,2.3,2.33569,-2.09417,0.600624,-0.262972,0.0709612,0.0128022,0.405148,-0.0155121,-0.0123866,0.00812708,0.0465278,5,0.1,2,2.3,0.153128,-1.20913,0.626927,0.108177,0.534491,0.0538471,0.1493,-1.21711,0.19357,0.0125753,3.2953,5,0.1,3,2.3,1.90067,4.34755,1.20544,-0.135999,-0.199091,0.192017,-0.229262,0.475734,-0.0239834,0.00626411,0.270939,5,0.1,4,2.3,-0.401942,1.50055,0.737759,0.103876,0.00575911,0.012462,-0.107424,0.124551,-0.0129119,0.0108012,0.790255,5,0.1,5,2.3,-2.42146,4.01249,0.572577,0.866026,-0.0615284,0.0150019,0,0.00661612,-0.00159442,0.0381039,2.26936,5,0.1,6,2.3,2.35773,-2.36663,0.584107,0.0302464,-0.0455078,-0.0221471,0.701517,0.181124,-0.0515096,0.0203822,2.23054,5,0.1,7,2.3,-1.43465,3.98769,0.592402,0.856473,-0.205834,0.00672843,-0.0302792,0.0970811,-0.00394881,0.0202682,0.89458,5,0.1,8,2.3,-0.135816,3.32095,0.740636,-0.267075,0.377971,0.0523168,-0.203522,-1.13666,0.191491,0.00619201,0.28452,5,0.1,9,2.3,-2.24096,-2.72279,1.12366,0.814165,0.0149131,0.208156,-0.148281,-0.10559,-0.13832,0.0132502,0.77575,5,0.1,10,2.3,4.31543,-1.20659,0.573447,-0.140182,-0.0924679,0.0213781,0.163466,-0.552528,0.000499189,0.00763714,1.19294,5,0.1,11,2.3,-2.36107,1.53658,1.20935,0.12828,-0.149923,0.208591,0.014931,0.33661,-0.169732,0.0100047,0.199716,5,0.1,12,2.3,0.187664,3.34936,0.615442,-0.399075,0.54422,-0.0300989,0.20496,-0.860408,0.0109412,0.00771121,0.965279,5,0.1,13,2.3,0.883217,-0.424008,0.500025,0.205886,-0.21601,-9.22941e-05,-0.821024,0.148226,0.000108033,0.0107092,0.350932,5,0.1,14,2.3,-0.728078,-0.267279,0.641514,0.309601,0.525254,-0.0196218,0.0380874,0.129744,-0.0425763,0.0123729,0.508942,5,0.1,15,2.3,2.08597,-2.26622,0.624989,-0.106829,0.478939,-0.0160034,-0.485629,-0.448063,0.0695847,0.00571274,0.8177,5,0.1,16,2.3,-4.43772,-2.80332,0.637052,-0.481188,0.0974525,0.019395,0.386596,-0.138715,-0.0186414,0.00773765,0.110136,5,0.1,17,2.3,0.0586704,-0.85317,0.532407,0.442295,-0.145077,0.000285916,-0.417867,0.420708,-0.0372753,0.00990333,0.120881,5,0.1,18,2.3,1.18411,4.8178,1.19508,-0.00158492,0.318008,0.208554,-0.026755,0.50202,-0.0392273,0.00742145,0.183925,5,0.1,19,2.3,-3.49044,-2.42724,0.589802,0.0438329,0.866026,0.0348502,-0.0899881,0,0.00469759,0.00848596,2.27063,5,0.1,20,2.3,1.04064,-2.45548,0.50002,-0.208565,0.214529,-0.000111945,0.169709,-0.445783,0.000335276,0.0112268,0.198834,5,0.1,21,2.3,2.09865,4.60796,1.04207,0.0300068,-0.335526,0.248919,-0.0820309,0.177741,-0.0645518,0.0102931,0.123388,5,0.1,22,2.3,-3.15644,-4.30065,0.622081,-0.0599552,-0.00681505,-0.0231312,-0.294551,-0.0136793,0.00451878,0.0153735,0.34435,5,0.1,23,2.3,-0.34431,4.07448,0.614453,0.479593,-0.568163,-0.00737179,-0.859158,0.799567,0.0839457,0.0109304,1.20248,5,0.1,24,2.3,-0.127637,0.707091,0.602665,-0.175638,0.644935,-0.00272114,0.181624,-0.148103,0.00279397,0.00792632,0.310685,5,0.1,25,2.3,0.468202,1.57187,0.579878,-0.58511,-0.251169,0.0175763,0.744721,0.580594,-0.00938028,0.0202654,0.379152,5,0.1,26,2.3,-1.47067,-4.15036,0.721108,0.073695,0.866023,0.0179848,-0.00893325,2.98023e-05,-0.0025928,0.0288736,2.26827,5,0.1,27,2.3,-0.197428,0.261146,0.727211,-0.0445197,0.593613,0.015282,0.0127545,0.385854,0.0365265,0.0101151,2.66969,5,0.1,28,2.3,3.4692,-3.37662,0.59625,-0.493965,0.862293,0.00273203,-0.852108,0.0401586,-0.00223145,0.028011,2.14914,5,0.1,29,2.3,-5.36376,-4.47405,0.584935,0.0293508,-0.802525,-0.0687624,0.00482798,-0.43717,0.0227876,0.00756034,0.964811,5,0.1,30,2.3,-4.14125,2.4972,0.689152,-0.269935,0.0168607,0.0615825,0.16582,-0.142187,-0.217315,0.00968265,0.181462,5,0.1,31,2.3,-1.93387,-0.665342,0.609464,-0.171686,0.278443,-0.0122383,0.0971258,-0.171039,0.00752509,0.00993541,0.155714,5,0.1,32,2.3,-1.73877,-3.46395,1.13764,0.29866,-0.0195481,0.1868,0.303566,-0.242293,-0.119656,0.00979258,0.331458,5,0.1,33,2.3,-3.81147,-5.38606,0.591848,0.219461,0.205762,0.0091048,0.512376,1.44574,-0.015609,0.0112717,3.0483,5,0.1,34,2.3,2.7034,-2.18126,0.612005,-0.445692,0.334226,-0.0106529,0.455126,-0.304788,0.00976399,0.0144725,0.255633,5,0.1,35,2.3,4.30191,-5.0635,0.597989,-0.103706,0.179219,-0.00369875,0.109673,0.198722,0.0145622,0.0398512,3.40105,5,0.1,36,2.3,-2.13466,-3.21425,0.500561,-0.475554,0.656923,-0.00630692,-0.659272,-0.158668,0.051342,0.0104407,0.951834,5,0.1,37,2.3,-3.32135,-3.04473,0.61747,0.866026,0.352937,-0.0028301,0,0.399575,-0.0212863,0.0145881,2.18631,5,0.1,38,2.3,1.19431,4.50037,1.0516,0.0244727,-0.000350177,0.299231,-0.0236109,-0.00458956,0.0769496,0.0125052,0.108094,5,0.1,39,2.3,3.59379,-0.589885,0.5,-0.0886612,0.178622,-4.65661e-07,-0.536293,-0.074055,1.86265e-05,0.0116952,3.4636,5,0.1
0,2.4,-3.79925,2.34411,1.18792,0.0252724,0.289053,0.152612,0.0376701,0.131965,-0.140369,0.0112826,0.148387,5,0.1,1,2.4,2.31144,-2.08725,0.601841,-0.221717,0.066632,0.0115275,0.418305,-0.0674725,-0.0133514,0.00653949,0.532776,5,0.1,2,2.4,0.164513,-1.16177,0.63331,0.117754,0.413013,0.0737786,0.0433028,-1.19466,0.192612,0.00801529,0.560312,5,0.1,3,2.4,1.88599,4.33004,1.22452,-0.156638,-0.151145,0.189248,-0.1719,0.473976,-0.0408888,0.00651135,0.296818,5,0.1,4,2.4,-0.392082,1.50147,0.738942,0.0933655,0.00962317,0.0111982,-0.105128,-0.0544786,-0.0125766,0.0112083,1.68194,5,0.1,5,2.4,-2.33486,4.00638,0.574067,0.866026,-0.0605464,0.0147641,0,0.0152588,-0.00378489,0.0388286,2.26952,5,0.1,6,2.4,2.36366,-2.36959,0.581708,0.0827789,-0.00816584,-0.0251323,0.36335,0.513077,-0.010252,0.00626616,0.550823,5,0.1,7,2.4,-1.34934,3.96763,0.593055,0.846925,-0.194842,0.00630468,-0.193238,0.127792,-0.00467896,0.0185467,0.635943,5,0.1,8,2.4,-0.163444,3.35318,0.746827,-0.28411,0.268191,0.0712633,-0.121362,-1.04487,0.177056,0.00616863,0.296712,5,0.1,9,2.4,-2.1604,-2.72188,1.14377,0.795096,0.00293851,0.19359,-0.264049,-0.127196,-0.157833,0.0134864,0.555668,5,0.1,10,2.4,4.30222,-1.21859,0.575577,-0.124013,-0.146908,0.0211015,0.161648,-0.515759,-0.00649691,0.0074662,2.2009,5,0.1,11,2.4,-2.34824,1.52331,1.22933,0.127459,-0.115335,0.190699,-0.0337362,0.347793,-0.191212,0.0100366,0.414971,5,0.1,12,2.4,0.148669,3.4,0.61251,-0.381395,0.47403,-0.0283018,0.170727,-0.547171,0.0245869,0.007575,0.809762,5,0.1,13,2.4,0.9,-0.444606,0.500016,0.132778,-0.193617,-7.59959e-05,-0.641048,0.287846,0.000149012,0.0100041,0.961002,5,0.1,14,2.4,-0.697065,-0.214266,0.639366,0.309046,0.532826,-0.0230476,-0.0578463,-0.000627041,-0.0251532,0.0132139,0.362691,5,0.1,15,2.4,2.07284,-2.22168,0.623777,-0.155252,0.40254,-0.00794381,-0.457048,-1.01054,0.0869334,0.00784214,2.04638,5,0.1,16,2.4,-4.48389,-2.79424,0.638899,-0.441825,0.084281,0.0175461,0.411272,-0.1266,-0.0187457,0.00815515,0.127501,5,0.1,17,2.4,0.100831,-0.865614,0.532248,0.400876,-0.104345,-0.00344366,-0.420448,0.388741,-0.0358224,0.010705,0.158204,5,0.1,18,2.4,1.18382,4.85177,1.21572,-0.00406206,0.357568,0.203809,-0.0221133,0.277042,-0.0643134,0.00602888,0.157571,5,0.1,19,2.4,-3.48648,-2.34064,0.593301,0.0356615,0.866026,0.0349998,-0.0745058,0,-0.00315905,0.00800892,2.25776,5,0.1,20,2.4,1.02066,-2.43632,0.50001,-0.190672,0.168288,-7.59959e-05,0.191092,-0.469208,0.000327826,0.00998206,0.0274439,5,0.1,21,2.4,2.10126,4.57532,1.06657,0.0223398,-0.316608,0.240219,-0.0712872,0.210524,-0.115812,0.0104918,0.145745,5,0.1,22,2.4,-3.16378,-4.30134,0.619794,-0.0855863,-0.00635386,-0.0225291,-0.212193,0.0197887,0.00834465,0.0150605,0.309077,5,0.1,23,2.4,-0.3,4.02194,0.614201,0.413085,-0.480545,0.00279695,-0.478506,0.927925,0.112027,0.00953873,1.03274,5,0.1,24,2.4,-0.144309,0.770645,0.602407,-0.157867,0.623752,-0.00244677,0.177741,-0.291318,0.00274181,0.00793883,0.207878,5,0.1,25,2.4,0.413476,1.54952,0.581586,-0.508795,-0.197291,0.0165492,0.781208,0.493526,-0.0115931,0.0175545,1.0971,5,0.1,26,2.4,-1.46336,-4.06376,0.722891,0.0724256,0.866032,0.0176296,-0.0194311,-0.000119209,-0.0051856,0.0258893,2.19171,5,0.1,27,2.4,-0.201789,0.322179,0.728936,-0.042424,0.623704,0.0192851,0.0291914,0.187129,0.0402927,0.00990144,2.64755,5,0.1,28,2.4,3.41588,-3.29033,0.596513,-0.568283,0.861412,0.0025183,-0.59855,-0.0923872,-0.00208616,0.0230558,2.02046,5,0.1,29,2.4,-5.36082,-4.55605,0.578191,0.0293612,-0.832379,-0.0658914,-0.00500679,-0.129938,0.0362098,0.00685813,0.672627,5,0.1,30,2.4,-4.16737,2.49832,0.694256,-0.25208,0.00711083,0.0409156,0.197172,-0.0492334,-0.192374,0.00768386,0.236204,5,0.1,31,2.4,-1.95038,-0.638391,0.608279,-0.156873,0.260031,-0.0114292,0.192702,-0.203401,0.0089705,0.00830941,0.139627,5,0.1,32,2.4,-1.70748,-3.46702,1.15571,0.325561,-0.0407577,0.174302,0.213504,-0.178456,-0.135124,0.0106651,0.247177,5,0.1,33,2.4,-3.787,-5.3581,0.592682,0.268859,0.352859,0.00760406,0.446796,1.42026,-0.0144541,0.00981805,2.61066,5,0.1,34,2.4,2.6611,-2.14933,0.610987,-0.400007,0.304627,-0.00969172,0.465631,-0.296354,0.00971556,0.0107262,0.198513,5,0.1,35,2.4,4.29208,-5.04465,0.597688,-0.0929117,0.197935,-0.00235736,0.108004,0.202894,0.012219,0.0395344,3.45617,5,0.1,36,2.4,-2.18515,-3.14954,0.500145,-0.529993,0.634909,-0.00239909,-0.403881,-0.298381,0.0280738,0.0100971,0.679186,5,0.1,37,2.4,-3.23475,-3.00761,0.617089,0.866026,0.386965,-0.0047043,0,0.25928,-0.0157952,0.0155897,2.19624,5,0.1,38,2.4,1.19662,4.50031,1.08177,0.0216037,-0.000703335,0.302303,-0.033021,-0.00214577,-0.0247359,0.0141299,0.212992,5,0.1,39,2.4,3.58227,-0.572256,0.5,-0.141042,0.174913,1.49012e-06,-0.500202,-0.0167787,0,0.0130935,3.32903,5,0.1
