id,t,px,py,pz,vx,vy,vz,ax,ay,az,planning_time,qp_cost,planning_report,size,id,t,px,py,pz,vx,vy,vz,ax,ay,az,planning_time,qp_cost,planning_report,size,id,t,px,py,pz,vx,vy,vz,ax,ay,az,planning_time,qp_cost,planning_report,size,id,t,px,py,pz,vx,vy,vz,ax,ay,az,planning_time,qp_cost,planning_report,size,id,t,px,py,pz,vx,vy,vz,ax,ay,az,planning_time,qp_cost,planning_report,size,id,t,px,py,pz,vx,vy,vz,ax,ay,az,planning_time,qp_cost,planning_report,size,id,t,px,py,pz,vx,vy,vz,ax,ay,az,planning_time,qp_cost,planning_report,size,id,t,px,py,pz,vx,vy,vz,ax,ay,az,planning_time,qp_cost,planning_report,size,id,t,px,py,pz,vx,vy,vz,ax,ay,az,planning_time,qp_cost,planning_report,size,id,t,px,py,pz,vx,vy,vz,ax,ay,az,planning_time,qp_cost,planning_report,size,id,t,px,py,pz,vx,vy,vz,ax,ay,az,planning_time,qp_cost,planning_report,size,id,t,px,py,pz,vx,vy,vz,ax,ay,az,planning_time,qp_cost,planning_report,size,id,t,px,py,pz,vx,vy,vz,ax,ay,az,planning_time,qp_cost,planning_report,size,id,t,px,py,pz,vx,vy,vz,ax,ay,az,planning_time,qp_cost,planning_report,size,id,t,px,py,pz,vx,vy,vz,ax,ay,az,planning_time,qp_cost,planning_report,size,id,t,px,py,pz,vx,vy,vz,ax,ay,az,planning_time,qp_cost,planning_report,size,id,t,px,py,pz,vx,vy,vz,ax,ay,az,planning_time,qp_cost,planning_report,size,id,t,px,py,pz,vx,vy,vz,ax,ay,az,planning_time,qp_cost,planning_report,size,id,t,px,py,pz,vx,vy,vz,ax,ay,az,planning_time,qp_cost,planning_report,size,id,t,px,py,pz,vx,vy,vz,ax,ay,az,planning_time,qp_cost,planning_report,size,id,t,px,py,pz,vx,vy,vz,ax,ay,az,planning_time,qp_cost,planning_report,size,id,t,px,py,pz,vx,vy,vz,ax,ay,az,planning_time,qp_cost,planning_report,size,id,t,px,py,pz,vx,vy,vz,ax,ay,az,planning_time,qp_cost,planning_report,size,id,t,px,py,pz,vx,vy,vz,ax,ay,az,planning_time,qp_cost,planning_report,size,id,t,px,py,pz,vx,vy,vz,ax,ay,az,planning_time,qp_cost,planning_report,size,id,t,px,py,pz,vx,vy,vz,ax,ay,az,planning_time,qp_cost,planning_report,size,id,t,px,py,pz,vx,vy,vz,ax,ay,az,planning_time,qp_cost,planning_report,size,id,t,px,py,pz,vx,vy,vz,ax,ay,az,planning_time,qp_cost,planning_report,size,id,t,px,py,pz,vx,vy,vz,ax,ay,az,planning_time,qp_cost,planning_report,size,id,t,px,py,pz,vx,vy,vz,ax,ay,az,planning_time,qp_cost,planning_report,size,id,t,px,py,pz,vx,vy,vz,ax,ay,az,planning_time,qp_cost,planning_report,size,id,t,px,py,pz,vx,vy,vz,ax,ay,az,planning_time,qp_cost,planning_report,size,id,t,px,py,pz,vx,vy,vz,ax,ay,az,planning_time,qp_cost,planning_report,size,id,t,px,py,pz,vx,vy,vz,ax,ay,az,planning_time,qp_cost,planning_report,size,id,t,px,py,pz,vx,vy,vz,ax,ay,az,planning_time,qp_cost,planning_report,size,id,t,px,py,pz,vx,vy,vz,ax,ay,az,planning_time,qp_cost,planning_report,size,id,t,px,py,pz,vx,vy,vz,ax,ay,az,planning_time,qp_cost,planning_report,size,id,t,px,py,pz,vx,vy,vz,ax,ay,az,planning_time,qp_cost,planning_report,size,id,t,px,py,pz,vx,vy,vz,ax,ay,az,planning_time,qp_cost,planning_report,size,id,t,px,py,pz,vx,vy,vz,ax,ay,az,planning_time,qp_cost,planning_report,size
0,0,-0.492962,4.7702,0.668773,0,0,0,0,0,0,0.0209657,3.5122,5,0.1,1,0,1.44006,2.786,0.528562,0,0,0,0,0,0,0.0368439,3.5122,5,0.1,2,0,-1.16722,5.72072,0.558745,0,0,0,0,0,0,0.0127293,3.5122,5,0.1,3,0,-5.1154,-3.73105,0.574836,0,0,0,0,0,0,0.0623685,3.51219,5,0.1,4,0,-3.32906,-0.317923,0.651456,0,0,0,0,0,0,0.0105301,3.51246,5,0.1,5,0,-2.25752,-2.86941,0.575086,0,0,0,0,0,0,0.0138,1.50232,5,0.1,6,0,2.31169,-3.00043,0.502365,0,0,0,0,0,0,0.0247141,3.5122,5,0.1,7,0,-3.94768,-3.05364,0.594182,0,0,0,0,0,0,0.0214923,3.51219,5,0.1,8,0,1.40622,-3.34202,0.643479,0,0,0,0,0,0,0.0105623,0.653145,5,0.1,9,0,-0.734953,-0.0449634,0.536553,0,0,0,0,0,0,0.018879,3.5122,5,0.1,10,0,0.495576,2.73244,0.507807,0,0,0,0,0,0,0.0106022,2.3558,5,0.1,11,0,3.10178,-5.69418,0.517011,0,0,0,0,0,0,0.0103215,0.848153,5,0.1,12,0,-3.70674,4.56071,0.601324,0,0,0,0,0,0,0.0324749,0.877107,5,0.1,13,0,1.84731,2.13203,0.640448,0,0,0,0,0,0,0.0122758,1.71824,5,0.1,14,0,4.65813,-5.68949,0.637249,0,0,0,0,0,0,0.0138174,3.51219,5,0.1,15,0,-4.45574,4.10041,0.508566,0,0,0,0,0,0,0.0496622,3.51219,5,0.1,16,0,-0.065474,2.9725,0.6767,0,0,0,0,0,0,0.010169,0.808362,5,0.1,17,0,-1.52219,-4.76777,0.697266,0,0,0,0,0,0,0.0199429,3.51219,5,0.1,18,0,-2.54312,1.7223,0.576818,0,0,0,0,0,0,0.0109963,0.586285,5,0.1,19,0,-2.31941,4.87321,0.591478,0,0,0,0,0,0,0.0549476,3.5122,5,0.1,20,0,-1.20456,2.0483,0.613621,0,0,0,0,0,0,0.0151429,0.773769,5,0.1,21,0,-3.63636,5.49106,0.524507,0,0,0,0,0,0,0.0238352,3.26111,5,0.1,22,0,5.09529,1.24394,0.584098,0,0,0,0,0,0,0.00916305,3.51219,5,0.1,23,0,0.0802536,3.58312,0.674808,0,0,0,0,0,0,0.019337,3.5162,5,0.1,24,0,1.89922,-0.0123701,0.545805,0,0,0,0,0,0,0.0111124,2.71235,5,0.1,25,0,5.59638,0.890556,0.597645,0,0,0,0,0,0,0.0398542,2.19363,5,0.1,26,0,-4.02491,-2.44135,0.505068,0,0,0,0,0,0,0.0141371,3.51221,5,0.1,27,0,-3.45235,-1.88827,0.525418,0,0,0,0,0,0,0.00800105,1.09711,5,0.1,28,0,4.84903,-2.3748,0.511481,0,0,0,0,0,0,0.0332478,1.29533,5,0.1,29,0,-3.16589,2.16253,0.687187,0,0,0,0,0,0,0.0138094,2.06379,5,0.1,30,0,0.330404,-3.43769,0.548936,0,0,0,0,0,0,0.0139695,1.66934,5,0.1,31,0,-1.65356,-1.94919,0.582534,0,0,0,0,0,0,0.0147682,3.5122,5,0.1,32,0,3.97652,-0.486218,0.666381,0,0,0,0,0,0,0.0193516,3.51219,5,0.1,33,0,-5.18292,-2.49945,0.504152,0,0,0,0,0,0,0.0092238,1.65841,5,0.1,34,0,2.77507,-0.0756025,0.551433,0,0,0,0,0,0,0.0104914,3.5122,5,0.1,35,0,-3.91831,2.22862,0.690674,0,0,0,0,0,0,0.00998632,3.51219,5,0.1,36,0,0.46752,-2.81,0.638291,0,0,0,0,0,0,0.0159749,0.638081,5,0.1,37,0,-2.03302,2.1638,0.648012,0,0,0,0,0,0,0.0243116,3.51219,5,0.1,38,0,-3.19641,-3.47349,0.676373,0,0,0,0,0,0,0.0127818,2.92626,5,0.1,39,0,-2.36248,4.07249,0.56393,0,0,0,0,0,0,0.0107174,3.49577,5,0.1
0,0.1,-0.492644,4.76814,0.668739,0.00903006,-0.0585698,-0.000965782,0.160536,-1.0412,-0.0171736,0.0209657,3.5122,5,0.1,1,0.1,1.43874,2.78438,0.528635,-0.0373762,-0.0459503,0.00206977,-0.664473,-0.816897,0.0367984,0.0368439,3.5122,5,0.1,2,0.1,-1.16636,5.71882,0.55878,0.0242269,-0.0540808,0.000982545,0.430696,-0.961423,0.0174642,0.0127293,3.5122,5,0.1,3,0.1,-5.1142,-3.72935,0.574859,0.0342153,0.0483908,0.000630505,0.608295,0.860274,0.0112131,0.0623685,3.51219,5,0.1,4,0.1,-3.3271,-0.318218,0.651402,0.0556611,-0.00835913,-0.00152495,0.989527,-0.148607,-0.0271127,0.0105301,3.51246,5,0.1,5,0.1,-2.25642,-2.86861,0.575112,0.0313383,0.022801,0.000738166,0.55714,0.405371,0.0131205,0.0138,1.50232,5,0.1,6,0.1,2.31163,-2.9984,0.502859,-0.00157841,0.0575673,0.014009,-0.0280589,1.02343,0.249043,0.0247141,3.5122,5,0.1,7,0.1,-3.94565,-3.05313,0.594187,0.0574697,0.0144888,0.000167172,1.02167,0.257567,0.00297651,0.0214923,3.51219,5,0.1,8,0.1,1.40554,-3.3426,0.643433,-0.0194469,-0.0165351,-0.00128858,-0.345714,-0.29397,-0.0229031,0.0105623,0.653145,5,0.1,9,0.1,-0.732889,-0.0452747,0.536602,0.0585891,-0.00883843,0.0013845,1.04158,-0.157127,0.0246093,0.018879,3.5122,5,0.1,10,0.1,0.494995,2.73084,0.507972,-0.0165008,-0.0454091,0.00467952,-0.293346,-0.807285,0.0831857,0.0106022,2.3558,5,0.1,11,0.1,3.10076,-5.69431,0.517004,-0.0288934,-0.00366345,-0.000211876,-0.513643,-0.0651181,-0.00376627,0.0103215,0.848153,5,0.1,12,0.1,-3.70678,4.56002,0.602105,-0.00128224,-0.0195794,0.0221863,-0.0227988,-0.348061,0.394426,0.0324749,0.877107,5,0.1,13,0.1,1.84601,2.13137,0.640406,-0.0369629,-0.0187293,-0.00119861,-0.657119,-0.332981,-0.0213087,0.0122758,1.71824,5,0.1,14,0.1,4.65606,-5.68956,0.637555,-0.0585966,-0.00195578,0.00868617,-1.04168,-0.0347793,0.154417,0.0138174,3.51219,5,0.1,15,0.1,-4.45366,4.10031,0.508537,0.0591971,-0.00275522,-0.000805221,1.05241,-0.048995,-0.0143126,0.0496622,3.51219,5,0.1,16,0.1,-0.0657189,2.97347,0.676777,-0.00694997,0.0274852,0.00217212,-0.123555,0.488639,0.0386126,0.010169,0.808362,5,0.1,17,0.1,-1.52206,-4.76568,0.697307,0.00381675,0.0591338,0.0011689,0.0678524,1.05125,0.0207759,0.0199429,3.51219,5,0.1,18,0.1,-2.54297,1.72207,0.577625,0.00424124,-0.0065878,0.0229127,0.075385,-0.117123,0.407342,0.0109963,0.586285,5,0.1,19,0.1,-2.31756,4.87225,0.591485,0.0526324,-0.0272498,0.00020666,0.935674,-0.484467,0.00367686,0.0549476,3.5122,5,0.1,20,0.1,-1.20487,2.04883,0.61439,-0.00875518,0.0148673,0.0218218,-0.155643,0.264302,0.387944,0.0151429,0.773769,5,0.1,21,0.1,-3.63632,5.48924,0.525369,0.00107773,-0.051593,0.024463,0.019148,-0.917226,0.434894,0.0238352,3.26111,5,0.1,22,0.1,5.09529,1.24185,0.58404,5.88596e-05,-0.0592457,-0.00164015,0.00104308,-1.05325,-0.0291578,0.00916305,3.51219,5,0.1,23,0.1,0.0803399,3.58122,0.674763,0.00244997,-0.0540189,-0.00129491,0.0435547,-0.96035,-0.0230223,0.019337,3.5162,5,0.1,24,0.1,1.89739,-0.0122006,0.545862,-0.0518367,0.0048117,0.00160597,-0.921533,0.0855413,0.0285506,0.0111124,2.71235,5,0.1,25,0.1,5.59492,0.889783,0.597648,-0.0413813,-0.0219457,6.98492e-05,-0.73567,-0.39015,0.0012368,0.0398542,2.19363,5,0.1,26,0.1,-4.02407,-2.43944,0.505024,0.0238329,0.0542443,-0.00123149,0.423729,0.964358,-0.0218935,0.0141371,3.51221,5,0.1,27,0.1,-3.45184,-1.88932,0.525454,0.0144739,-0.0297783,0.00102511,0.257298,-0.529386,0.0182278,0.00800105,1.09711,5,0.1,28,0.1,4.84835,-2.37373,0.511417,-0.0192337,0.0303689,-0.00182204,-0.341922,0.539914,-0.0323951,0.0332478,1.29533,5,0.1,29,0.1,-3.16728,2.16184,0.687566,-0.039535,-0.0196338,0.0107517,-0.702858,-0.349045,0.191137,0.0138094,2.06379,5,0.1,30,0.1,0.330059,-3.4363,0.54899,-0.00979127,0.0396416,0.00151331,-0.174068,0.704736,0.0269003,0.0139695,1.66934,5,0.1,31,0.1,-1.65255,-1.94736,0.582544,0.028429,0.0520045,0.000275299,0.50541,0.92452,0.00489503,0.0147682,3.5122,5,0.1,32,0.1,3.97447,-0.485876,0.666346,-0.0584573,0.00971942,-0.00101393,-1.03924,0.172788,-0.0180267,0.0193516,3.51219,5,0.1,33,0.1,-5.18203,-2.50058,0.50419,0.0253268,-0.0318758,0.00106944,0.450224,-0.566661,0.0190102,0.0092238,1.65841,5,0.1,34,0.1,2.77303,-0.0760367,0.551474,-0.0579607,-0.0123261,0.00116667,-1.03043,-0.21913,0.0207461,0.0104914,3.5122,5,0.1,35,0.1,-3.91623,2.22849,0.690579,0.0590961,-0.00361428,-0.00270018,1.05061,-0.0642538,-0.0480078,0.00998632,3.51219,5,0.1,36,0.1,0.467032,-2.81004,0.639034,-0.0138545,-0.00118613,0.0210907,-0.246301,-0.0210702,0.37495,0.0159749,0.638081,5,0.1,37,0.1,-2.03108,2.16302,0.647966,0.055011,-0.0220202,-0.00129929,0.977978,-0.391454,-0.0230931,0.0243116,3.51219,5,0.1,38,0.1,-3.19636,-3.47159,0.67645,0.00137575,0.0540379,0.00218172,0.0244528,0.960663,0.0387877,0.0127818,2.92626,5,0.1,39,0.1,-2.36455,4.07231,0.563968,-0.0588987,-0.00511184,0.00106869,-1.04709,-0.0908673,0.0190027,0.0107174,3.49577,5,0.1
0,0.2,-0.49081,4.75624,0.668543,0.0285394,-0.185108,-0.00305325,0.214055,-1.38831,-0.0228882,0.0217644,2.92579,5,0.1,1,0.2,1.43115,2.77504,0.529055,-0.118127,-0.145227,0.00654161,-0.885963,-1.08922,0.0490546,0.039607,2.92579,5,0.1,2,0.2,-1.16144,5.70783,0.55898,0.0765681,-0.170934,0.0031054,0.574291,-1.28174,0.0233054,0.0111414,2.9258,5,0.1,3,0.2,-5.10725,-3.71952,0.574987,0.108135,0.15294,0.00199229,0.811338,1.14691,0.0149608,0.0630632,2.92578,5,0.1,4,0.2,-3.31579,-0.319916,0.651092,0.175917,-0.026419,-0.00481904,1.31941,-0.198141,-0.0361502,0.0107435,3.20581,5,0.1,5,0.2,-2.25006,-2.86397,0.575262,0.099051,0.072062,0.00233352,0.742674,0.540376,0.017494,0.0111616,1.23259,5,0.1,6,0.2,2.31131,-2.98671,0.505704,-0.00498295,0.181937,0.0442743,-0.0375509,1.36471,0.332087,0.0251139,2.92578,5,0.1,7,0.2,-3.93398,-3.05019,0.594221,0.181633,0.0457942,0.000528991,1.3622,0.343323,0.00399351,0.0211938,2.9258,5,0.1,8,0.2,1.40159,-3.34596,0.643171,-0.0614583,-0.0522554,-0.00407249,-0.461042,-0.392079,-0.0305474,0.0107586,0.535867,5,0.1,9,0.2,-0.720988,-0.04707,0.536883,0.185171,-0.0279338,0.00437647,1.38879,-0.209505,0.0328124,0.020501,2.92579,5,0.1,10,0.2,0.491643,2.72162,0.508923,-0.0521511,-0.143516,0.0147894,-0.391111,-1.07634,0.110924,0.00962996,1.93282,5,0.1,11,0.2,3.0949,-5.69506,0.516961,-0.0913203,-0.0115752,-0.000670552,-0.684738,-0.0870228,-0.00500679,0.00799628,0.695872,5,0.1,12,0.2,-3.70704,4.55604,0.606612,-0.00405312,-0.0618815,0.0701204,-0.0302792,-0.464201,0.525892,0.0305777,0.719619,5,0.1,13,0.2,1.8385,2.12757,0.640162,-0.116822,-0.0591934,-0.00378937,-0.876129,-0.443935,-0.0283718,0.0110088,1.40974,5,0.1,14,0.2,4.64416,-5.68995,0.63932,-0.185192,-0.00617504,0.0274524,-1.38879,-0.0464916,0.205904,0.013446,2.93544,5,0.1,15,0.2,-4.44163,4.09975,0.508374,0.187099,-0.0087142,-0.00254512,1.40333,-0.0650883,-0.0190735,0.0548765,2.92578,5,0.1,16,0.2,-0.0671306,2.97905,0.677218,-0.0219654,0.0868678,0.00686496,-0.164736,0.651598,0.0514984,0.00990527,0.663216,5,0.1,17,0.2,-1.52128,-4.75367,0.697544,0.012064,0.186884,0.00369549,0.0904799,1.4019,0.0276566,0.0189167,2.92578,5,0.1,18,0.2,-2.54211,1.72073,0.582279,0.0134051,-0.0208199,0.0724152,0.100493,-0.156164,0.543088,0.0107795,0.481019,5,0.1,19,0.2,-2.30687,4.86672,0.591527,0.166339,-0.0861287,0.000652671,1.24764,-0.645876,0.00491738,0.0569135,2.92579,5,0.1,20,0.2,-1.20665,2.05185,0.618822,-0.0276715,0.0469923,0.0689685,-0.207484,0.352263,0.517249,0.0166707,0.634843,5,0.1,21,0.2,-3.6361,5.47876,0.530338,0.00340343,-0.163066,0.0773132,0.02563,-1.22309,0.579894,0.0261566,2.67556,5,0.1,22,0.2,5.0953,1.22982,0.583707,0.000178814,-0.187245,-0.00518262,0.00143051,-1.40435,-0.0389218,0.00956896,2.92659,5,0.1,23,0.2,0.0808376,3.57024,0.6745,0.0077432,-0.170726,-0.00409335,0.0580698,-1.28055,-0.0306666,0.0224504,3.04891,5,0.1,24,0.2,1.88686,-0.0112232,0.546188,-0.163829,0.0152074,0.00507683,-1.22875,0.114055,0.0380278,0.0135848,2.22535,5,0.1,25,0.2,5.58652,0.885325,0.597662,-0.130785,-0.0693589,0.000220537,-0.980616,-0.520229,0.00166893,0.0514392,1.79979,5,0.1,26,0.2,-4.01923,-2.42842,0.504774,0.0753284,0.171441,-0.00389218,0.564814,1.28579,-0.0292063,0.0154505,2.92607,5,0.1,27,0.2,-3.4489,-1.89537,0.525662,0.0457466,-0.0941128,0.00323951,0.343084,-0.705838,0.0243187,0.011144,0.900128,5,0.1,28,0.2,4.84444,-2.36756,0.511047,-0.0607848,0.0959814,-0.00575781,-0.456095,0.719905,-0.0432134,0.0409257,1.06278,5,0.1,29,0.2,-3.17531,2.15785,0.68975,-0.124949,-0.0620544,0.0339806,-0.937104,-0.465274,0.25484,0.0158776,1.69451,5,0.1,30,0.2,0.32807,-3.42824,0.549297,-0.0309452,0.125283,0.00478327,-0.232086,0.939727,0.0358522,0.0134552,1.36961,5,0.1,31,0.2,-1.64678,-1.9368,0.5826,0.089848,0.16436,0.000870228,0.67389,1.23268,0.00652671,0.0161842,2.92579,5,0.1,32,0.2,3.96259,-0.483901,0.66614,-0.184757,0.030718,-0.00320524,-1.38557,0.230387,-0.0240505,0.0204816,2.94322,5,0.1,33,0.2,-5.17688,-2.50705,0.504407,0.080049,-0.100744,0.00337958,0.6001,-0.755548,0.0253618,0.00933619,1.36066,5,0.1,34,0.2,2.76126,-0.0785405,0.551711,-0.183183,-0.0389565,0.00368655,-1.37389,-0.292175,0.0276864,0.0119657,2.92579,5,0.1,35,0.2,-3.90423,2.22776,0.690031,0.186777,-0.0114202,-0.0085324,1.40071,-0.0857115,-0.0640452,0.0102486,3.01353,5,0.1,36,0.2,0.464217,-2.81028,0.643319,-0.0437878,-0.00374913,0.0666574,-0.328392,-0.0280142,0.499934,0.0167182,0.523514,5,0.1,37,0.2,-2.01991,2.15855,0.647702,0.173861,-0.0695944,-0.00410527,1.30391,-0.522017,-0.0308156,0.0221309,2.92579,5,0.1,38,0.2,-3.19608,-3.46061,0.676893,0.00434518,0.170785,0.00689626,0.0326633,1.2809,0.051707,0.0136283,2.40085,5,0.1,39,0.2,-2.37652,4.07127,0.564185,-0.186145,-0.0161529,0.00337958,-1.39618,-0.121355,0.0253022,0.00998399,2.8681,5,0.1
0,0.3,-0.486766,4.73001,0.668111,0.0531574,-0.344774,-0.005686,0.263065,-1.70618,-0.0281297,0.0217644,2.92579,5,0.1,1,0.3,1.41441,2.75446,0.529982,-0.220021,-0.270496,0.0121836,-1.08883,-1.3386,0.0602901,0.039607,2.92579,5,0.1,2,0.3,-1.15059,5.68361,0.55942,0.142616,-0.318353,0.005785,0.705771,-1.57535,0.0286326,0.0111414,2.9258,5,0.1,3,0.3,-5.09192,-3.69785,0.575269,0.201434,0.284849,0.00371234,0.996947,1.40961,0.0183769,0.0630632,2.92578,5,0.1,4,0.3,-3.29246,-0.323657,0.65041,0.282233,-0.049148,-0.00896547,0.815645,-0.242461,-0.0442341,0.0107435,3.20581,5,0.1,5,0.3,-2.23603,-2.85377,0.575593,0.18425,0.134053,0.00434052,0.908911,0.661299,0.021413,0.0111616,1.23259,5,0.1,6,0.3,2.3106,-2.96092,0.511978,-0.00929683,0.338886,0.0824664,-0.0460744,1.67711,0.408106,0.0251139,2.92578,5,0.1,7,0.3,-3.90824,-3.0437,0.594297,0.338301,0.0852834,0.000987481,1.67415,0.422016,0.00489131,0.0211938,2.9258,5,0.1,8,0.3,1.39288,-3.35336,0.642595,-0.114342,-0.0972264,-0.00757659,-0.564106,-0.479698,-0.0373758,0.0107586,0.535867,5,0.1,9,0.3,-0.694748,-0.0510285,0.537503,0.344894,-0.0520287,0.00815028,1.70678,-0.257476,0.0403263,0.020501,2.92579,5,0.1,10,0.3,0.484257,2.70129,0.511017,-0.0970165,-0.266984,0.0275134,-0.478603,-1.3171,0.135731,0.00962996,1.93282,5,0.1,11,0.3,3.08196,-5.6967,0.516866,-0.169872,-0.0215523,-0.00124555,-0.837982,-0.106364,-0.00613928,0.00799628,0.695872,5,0.1,12,0.3,-3.70762,4.54728,0.616543,-0.00753067,-0.115128,0.130446,-0.0371188,-0.567973,0.643529,0.0305777,0.719619,5,0.1,13,0.3,1.82196,2.11918,0.639626,-0.217325,-0.110119,-0.00704527,-1.07212,-0.543252,-0.0347421,0.0110088,1.40974,5,0.1,14,0.3,4.6179,-5.69087,0.642877,-0.345505,-0.0127263,0.0416694,-1.71724,-0.0785291,0.08481,0.013446,2.93544,5,0.1,15,0.3,-4.41512,4.09852,0.508013,0.34849,-0.016208,-0.00473922,1.72457,-0.0801086,-0.0234507,0.0548765,2.92578,5,0.1,16,0.3,-0.0702415,2.99135,0.67819,-0.0408626,0.161611,0.012772,-0.201587,0.797287,0.0630096,0.00990527,0.663216,5,0.1,17,0.3,-1.51957,-4.72719,0.698068,0.0224695,0.348108,0.00687819,0.111192,1.72275,0.0340194,0.0189167,2.92578,5,0.1,18,0.3,-2.54022,1.71778,0.592535,0.0249341,-0.038733,0.134714,0.122994,-0.191092,0.664584,0.0107795,0.481019,5,0.1,19,0.3,-2.2833,4.85451,0.59162,0.309826,-0.16041,0.0012177,1.53327,-0.793785,0.0060387,0.0569135,2.92579,5,0.1,20,0.3,-1.21057,2.0585,0.62859,-0.0514736,0.0874057,0.128303,-0.253923,0.43112,0.632957,0.0166707,0.634843,5,0.1,21,0.3,-3.63562,5.45566,0.541288,0.00634044,-0.303363,0.143832,0.0313222,-1.49658,0.709582,0.0261566,2.67556,5,0.1,22,0.3,5.09526,1.20333,0.582971,-0.00170767,-0.347518,-0.0096892,-0.0346899,-1.70387,-0.0483729,0.00956896,2.92659,5,0.1,23,0.3,0.0823728,3.54658,0.673909,0.0268544,-0.302798,-0.00791661,0.292391,-1.30349,-0.0429526,0.0224504,3.04891,5,0.1,24,0.3,1.86366,-0.0090694,0.546907,-0.304779,0.0282907,0.00944044,-1.50358,0.139567,0.0465587,0.0135848,2.22535,5,0.1,25,0.3,5.56799,0.875502,0.597693,-0.243281,-0.129034,0.000411551,-1.20008,-0.63657,0.00203773,0.0514392,1.79979,5,0.1,26,0.3,-4.00856,-2.40412,0.504258,0.14029,0.319319,-0.00624461,0.6942,1.58019,-0.0180043,0.0154505,2.92607,5,0.1,27,0.3,-3.44242,-1.9087,0.526121,0.085102,-0.17508,0.00602873,0.419825,-0.863716,0.0297464,0.011144,0.900128,5,0.1,28,0.3,4.83583,-2.35397,0.510249,-0.113097,0.178561,-0.0102067,-0.558019,0.880897,-0.0438467,0.0409257,1.06278,5,0.1,29,0.3,-3.19291,2.14902,0.694566,-0.229621,-0.116508,0.0633197,-1.09649,-0.588566,0.313729,0.0158776,1.69451,5,0.1,30,0.3,0.323688,-3.4105,0.549974,-0.0575681,0.233078,0.00889646,-0.283999,1.14988,0.0438802,0.0134552,1.36961,5,0.1,31,0.3,-1.63405,-1.91351,0.582723,0.167351,0.30613,0.00162078,0.828184,1.51494,0.00802055,0.0161842,2.92579,5,0.1,32,0.3,3.93682,-0.479548,0.665685,-0.332561,0.0572145,-0.0059709,-1.49794,0.283139,-0.029549,0.0204816,2.94322,5,0.1,33,0.3,-5.16554,-2.52132,0.504886,0.148898,-0.187415,0.00628829,0.734478,-0.924543,0.0310242,0.00933619,1.36066,5,0.1,34,0.3,2.7353,-0.084061,0.552234,-0.341192,-0.0725592,0.00686953,-1.68847,-0.359075,0.0340082,0.0119657,2.92579,5,0.1,35,0.3,-3.87858,2.22645,0.68879,0.324401,-0.0123341,-0.0167751,1.30418,0.0536889,-0.0942983,0.0102486,3.01353,5,0.1,36,0.3,0.458016,-2.81081,0.652759,-0.0814585,-0.00696555,0.124005,-0.401853,-0.0343323,0.611752,0.0167182,0.523514,5,0.1,37,0.3,-1.99527,2.14868,0.64712,0.323824,-0.129629,-0.00764867,1.6025,-0.64151,-0.0378601,0.0221309,2.92579,5,0.1,38,0.3,-3.19546,-3.43642,0.67787,0.00808947,0.317718,0.012828,0.0399202,1.56741,0.0632852,0.0136283,2.40085,5,0.1,39,0.3,-2.40288,4.06899,0.564663,-0.3463,-0.0300653,0.00628326,-1.70842,-0.148386,0.030987,0.00998399,2.8681,5,0.1
0,0.4,-0.480157,4.68715,0.667404,0.0785023,-0.509167,-0.0083968,0.232607,-1.50847,-0.0248849,0.0186401,2.5133,5,0.1,1,0.4,1.38706,2.72083,0.531497,-0.324929,-0.399464,0.0179932,-0.962675,-1.18363,0.0532866,0.0351129,2.4025,5,0.1,2,0.4,-1.13286,5.64403,0.560139,0.210616,-0.470138,0.00854284,0.624001,-1.39284,0.025332,0.0115847,2.5101,5,0.1,3,0.4,-5.06688,-3.66243,0.575731,0.297487,0.42066,0.00548214,0.881195,1.24645,0.0162721,0.0614657,2.51007,5,0.1,4,0.4,-3.26093,-0.329763,0.649296,0.340933,-0.0724822,-0.0132218,0.368357,-0.213906,-0.039041,0.011333,3.06705,5,0.1,5,0.4,-2.21314,-2.83712,0.576132,0.27172,0.197697,0.00640005,0.80204,0.583529,0.0189245,0.0124662,0.975242,5,0.1,6,0.4,2.30945,-2.91879,0.522231,-0.0137269,0.500464,0.121787,-0.0407696,1.48296,0.360817,0.0251,2.51139,5,0.1,7,0.4,-3.86618,-3.0331,0.594419,0.4996,0.125945,0.00145882,1.48022,0.373244,0.00429153,0.0233158,2.52539,5,0.1,8,0.4,1.37868,-3.36544,0.641653,-0.16863,-0.143391,-0.0111729,-0.497639,-0.423193,-0.0329912,0.0103113,0.423979,5,0.1,9,0.4,-0.651869,-0.0574969,0.538517,0.509338,-0.0768359,0.0120357,1.5091,-0.227652,0.0356436,0.0213053,2.51341,5,0.1,10,0.4,0.472205,2.66812,0.514435,-0.143077,-0.393742,0.0405759,-0.422239,-1.16205,0.119746,0.00935613,1.52927,5,0.1,11,0.4,3.06086,-5.69937,0.516711,-0.250518,-0.0317812,-0.00183582,-0.739336,-0.0939369,-0.00542402,0.00885371,0.550586,5,0.1,12,0.4,-3.70855,4.53298,0.632748,-0.0111043,-0.169778,0.192378,-0.0327826,-0.501394,0.567734,0.0338568,0.569367,5,0.1,13,0.4,1.79496,2.1055,0.63875,-0.320503,-0.162399,-0.0103891,-0.945926,-0.479341,-0.0306666,0.0128267,1.1154,5,0.1,14,0.4,4.5749,-5.69255,0.647312,-0.511217,-0.0208259,0.0456035,-1.52302,-0.079155,-0.000536442,0.0128134,2.52115,5,0.1,15,0.4,-4.37179,4.0965,0.507424,0.51465,-0.0239372,-0.00699759,1.52493,-0.0708103,-0.0207722,0.0522299,2.5154,5,0.1,16,0.4,-0.0753179,3.01143,0.679777,-0.0602631,0.238335,0.0188366,-0.177845,0.703454,0.0555813,0.0130417,0.524741,5,0.1,17,0.4,-1.51678,-4.68391,0.698923,0.0331819,0.51409,0.0101566,0.0983477,1.52326,0.0301003,0.0195501,2.51515,5,0.1,18,0.4,-2.53712,1.71297,0.609271,0.0367761,-0.0571221,0.198673,0.108361,-0.168622,0.586331,0.0113359,0.380588,5,0.1,19,0.4,-2.24478,4.83457,0.591771,0.457555,-0.236905,0.00179857,1.35565,-0.701427,0.00533462,0.053229,2.51008,5,0.1,20,0.4,-1.21696,2.06936,0.644529,-0.0759095,0.128907,0.189218,-0.224054,0.380278,0.558406,0.0182862,0.502298,5,0.1,21,0.4,-3.63483,5.41798,0.559156,0.00935197,-0.447404,0.212121,0.0275373,-1.31989,0.626028,0.0250146,2.11693,5,0.1,22,0.4,5.09488,1.16022,0.581764,-0.00597239,-0.511125,-0.0143647,-0.0472069,-1.49667,-0.0429749,0.00926534,2.63919,5,0.1,23,0.4,0.0866911,3.51014,0.672902,0.0605909,-0.421584,-0.0121877,0.357803,-1.03104,-0.0403523,0.0200401,2.67804,5,0.1,24,0.4,1.8258,-0.00555487,0.54808,-0.449482,0.0417224,0.0139222,-1.32644,0.12313,0.0410676,0.0116295,1.76072,5,0.1,25,0.4,5.53777,0.859472,0.597744,-0.358784,-0.190295,0.000606477,-1.05882,-0.561625,0.00178814,0.0393793,1.57584,5,0.1,26,0.4,-3.99112,-2.36442,0.503561,0.20718,0.471568,-0.00752807,0.613809,1.39725,-0.00789762,0.014684,2.72055,5,0.1,27,0.4,-3.43185,-1.93045,0.52687,0.125504,-0.258204,0.00889152,0.370502,-0.762045,0.026226,0.0105993,0.712191,5,0.1,28,0.4,4.82178,-2.33179,0.509021,-0.166798,0.263333,-0.0141978,-0.492334,0.777245,-0.0346005,0.0360618,0.865563,5,0.1,29,0.4,-3.22121,2.13446,0.702441,-0.333875,-0.173634,0.0935599,-0.944614,-0.527859,0.277668,0.013924,1.34754,5,0.1,30,0.4,0.316536,-3.38154,0.55108,-0.0849001,0.343734,0.013119,-0.250548,1.01459,0.038743,0.0126234,1.09651,5,0.1,31,0.4,-1.61324,-1.87545,0.582925,0.247145,0.452092,0.00239313,0.732243,1.3395,0.00709295,0.0161324,2.51254,5,0.1,32,0.4,3.89638,-0.472435,0.664943,-0.471824,0.0844941,-0.00881702,-1.23453,0.250354,-0.0261366,0.021819,2.87313,5,0.1,33,0.4,-5.14705,-2.5446,0.505667,0.219584,-0.276393,0.00927448,0.648022,-0.815749,0.0273883,0.0114796,1.07657,5,0.1,34,0.4,2.69288,-0.0930818,0.553088,-0.503874,-0.107155,0.0101462,-1.49286,-0.317484,0.0300407,0.0111824,2.51184,5,0.1,35,0.4,-3.8401,2.22563,0.686635,0.439554,-0.00315905,-0.0262529,0.965595,0.118852,-0.0903904,0.0115658,2.73315,5,0.1,36,0.4,0.447896,-2.81168,0.668164,-0.120132,-0.0102699,0.18288,-0.354528,-0.0303984,0.53969,0.0178815,0.41421,5,0.1,37,0.4,-1.95501,2.13257,0.646169,0.478223,-0.191438,-0.0112966,1.41686,-0.567079,-0.0334382,0.0240057,2.53538,5,0.1,38,0.4,-3.19446,-3.39695,0.679464,0.0119328,0.468564,0.018917,0.0351667,1.38283,0.0558496,0.0141526,1.89958,5,0.1,39,0.4,-2.4459,4.06525,0.565444,-0.510716,-0.0443459,0.00926554,-1.50728,-0.130892,0.0273287,0.0109715,2.27055,5,0.1
0,0.5,-0.471099,4.62866,0.666435,0.102773,-0.659132,-0.0109933,0.239762,-1.42086,-0.0256523,0.0186401,2.5133,5,0.1,1,0.5,1.34964,2.67483,0.533569,-0.423274,-0.52038,0.0234374,-0.954889,-1.17402,0.0528656,0.0351129,2.4025,5,0.1,2,0.5,-1.10859,5.58986,0.561123,0.274828,-0.613471,0.011149,0.62722,-1.40008,0.0254512,0.0115847,2.5101,5,0.1,3,0.5,-5.0326,-3.61396,0.576363,0.388165,0.548923,0.00715582,0.885725,1.25287,0.0163428,0.0614657,2.51007,5,0.1,4,0.5,-3.22604,-0.3381,0.647775,0.348032,-0.0941852,-0.0171824,-0.170395,-0.209505,-0.0382252,0.011333,3.06705,5,0.1,5,0.5,-2.18188,-2.81438,0.576868,0.353093,0.2569,0.00831941,0.78553,0.571504,0.0185259,0.0124662,0.975242,5,0.1,6,0.5,2.30787,-2.86122,0.536235,-0.0178214,0.650105,0.158057,-0.039205,1.43681,0.347391,0.0251,2.51139,5,0.1,7,0.5,-3.80943,-3.01829,0.594528,0.628502,0.172793,0.0002346,1.07153,0.525206,-0.0252984,0.0233158,2.52539,5,0.1,8,0.5,1.35928,-3.38193,0.640368,-0.21912,-0.186326,-0.0145197,-0.48738,-0.414446,-0.0323057,0.0103113,0.423979,5,0.1,9,0.5,-0.59336,-0.0663511,0.539904,0.659319,-0.100262,0.0157039,1.42058,-0.228823,0.0358336,0.0213053,2.51341,5,0.1,10,0.5,0.455747,2.62283,0.519103,-0.185918,-0.511643,0.0527253,-0.413559,-1.13811,0.11728,0.00935613,1.52927,5,0.1,11,0.5,3.03204,-5.70303,0.5165,-0.325533,-0.0413068,-0.00238614,-0.724152,-0.0919402,-0.00530854,0.00885371,0.550586,5,0.1,12,0.5,-3.70983,4.51345,0.654877,-0.014431,-0.220641,0.249981,-0.0321269,-0.490963,0.556059,0.0338568,0.569367,5,0.1,13,0.5,1.75809,2.08682,0.637555,-0.416476,-0.211032,-0.013501,-0.92645,-0.469461,-0.0300407,0.0128267,1.1154,5,0.1,14,0.5,4.51616,-5.69505,0.651769,-0.661772,-0.0293367,0.0426518,-1.41904,-0.0862777,-0.053972,0.0128134,2.52115,5,0.1,15,0.5,-4.31272,4.09374,0.506622,0.664849,-0.0312284,-0.00901753,1.41093,-0.0712872,-0.0187866,0.0522299,2.5154,5,0.1,16,0.5,-0.0822496,3.03885,0.681944,-0.0783073,0.309705,0.0244759,-0.174188,0.68894,0.0544414,0.0130417,0.524741,5,0.1,17,0.5,-1.51295,-4.6249,0.700093,0.0433015,0.664265,0.0132545,0.098832,1.41194,0.0302605,0.0195501,2.51515,5,0.1,18,0.5,-2.53289,1.7064,0.632123,0.0477742,-0.0742292,0.258162,0.106201,-0.165142,0.574268,0.0113359,0.380588,5,0.1,19,0.5,-2.19205,4.80727,0.591978,0.597055,-0.309093,0.00234721,1.36262,-0.705242,0.00536069,0.053229,2.51008,5,0.1,20,0.5,-1.2257,2.08419,0.666294,-0.0986418,0.167495,0.245874,-0.219442,0.372544,0.546921,0.0182862,0.502298,5,0.1,21,0.5,-3.63375,5.36652,0.583556,0.0121459,-0.581329,0.275637,0.0269711,-1.29288,0.613131,0.0250146,2.11693,5,0.1,22,0.5,5.0938,1.10239,0.580097,-0.0177376,-0.637468,-0.0190401,-0.170678,-1.01223,-0.0476986,0.00926534,2.63919,5,0.1,23,0.5,0.0944833,3.46218,0.671477,0.0944328,-0.541706,-0.0163144,0.308991,-1.28265,-0.0401586,0.0200401,2.67804,5,0.1,24,0.5,1.7741,-0.000755728,0.549681,-0.584063,0.0542152,0.0180899,-1.29917,0.120597,0.0402369,0.0116295,1.76072,5,0.1,25,0.5,5.49759,0.838017,0.597828,-0.435263,-0.234977,0.00117244,-0.486851,-0.332277,0.00858679,0.0393793,1.57584,5,0.1,26,0.5,-3.96724,-2.3115,0.502788,0.270344,0.575263,-0.00774777,0.616997,0.693217,0.00281259,0.014684,2.72055,5,0.1,27,0.5,-3.41742,-1.96015,0.527893,0.163092,-0.335521,0.0115527,0.362828,-0.746354,0.0256896,0.0105993,0.712191,5,0.1,28,0.5,4.8026,-2.30198,0.507453,-0.216744,0.328599,-0.0169083,-0.482112,0.520095,-0.0187829,0.0360618,0.865563,5,0.1,29,0.5,-3.25948,2.11444,0.713208,-0.431656,-0.226454,0.121659,-0.959098,-0.504106,0.27068,0.013924,1.34754,5,0.1,30,0.5,0.306666,-3.34232,0.552531,-0.113295,0.437663,0.0154136,-0.298263,0.833511,0.00885874,0.0126234,1.09651,5,0.1,31,0.5,-1.58494,-1.82335,0.583201,0.317593,0.58993,0.00312291,0.650093,1.34637,0.00713021,0.0161324,2.51254,5,0.1,32,0.5,3.84448,-0.462699,0.663927,-0.552681,0.110249,-0.0115054,-0.431329,0.251513,-0.0262484,0.021819,2.87313,5,0.1,33,0.5,-5.12179,-2.57639,0.506734,0.285335,-0.359157,0.0120526,0.63473,-0.798941,0.0268146,0.0114796,1.07657,5,0.1,34,0.5,2.63495,-0.10543,0.554257,-0.653632,-0.139825,0.0132375,-1.43053,-0.319117,0.0302009,0.0111824,2.51184,5,0.1,35,0.5,-3.791,2.22644,0.683485,0.544032,0.0238206,-0.0372735,1.0567,0.383481,-0.121597,0.0115658,2.73315,5,0.1,36,0.5,0.434078,-2.81286,0.6892,-0.156103,-0.0133533,0.237638,-0.347236,-0.0297576,0.528593,0.0178815,0.41421,5,0.1,37,0.5,-1.90033,2.11031,0.644825,0.611783,-0.255352,-0.0159359,1.20655,-0.668824,-0.0549182,0.0240057,2.53538,5,0.1,38,0.5,-3.19309,-3.34305,0.68164,0.0155017,0.608865,0.0245832,0.0344515,1.35435,0.0546947,0.0141526,1.89958,5,0.1,39,0.5,-2.50453,4.06015,0.566509,-0.660351,-0.0576235,0.0120392,-1.41652,-0.12812,0.0267774,0.0109715,2.27055,5,0.1
0,0.6,-0.459699,4.55625,0.665215,0.12422,-0.781703,-0.0132874,0.179887,-0.984192,-0.0192523,0.0220985,2.32284,5,0.1,1,0.6,1.30288,2.61735,0.536158,-0.507492,-0.623918,0.0280991,-0.694573,-0.854015,0.0384748,0.0358988,1.7951,5,0.1,2,0.6,-1.07819,5.522,0.562357,0.330418,-0.73756,0.0134051,0.46128,-1.02973,0.0186861,0.0119067,2.25212,5,0.1,3,0.6,-4.98966,-3.55324,0.577154,0.466669,0.659966,0.00860393,0.651598,0.921369,0.0120103,0.0564646,2.22178,5,0.1,4,0.6,-3.1926,-0.348487,0.64588,0.316542,-0.112571,-0.0205383,-0.418305,-0.150695,-0.0274479,0.0122836,2.90147,5,0.1,5,0.6,-2.14294,-2.78604,0.577786,0.422025,0.307053,0.00994503,0.565171,0.411153,0.0133216,0.0145303,0.726042,5,0.1,6,0.6,2.3059,-2.78959,0.553639,-0.0212371,0.775546,0.188345,-0.0277758,1.02234,0.246346,0.0256126,2.31281,5,0.1,7,0.6,-3.74207,-2.99839,0.5944,0.709778,0.224286,-0.00298172,0.539064,0.475883,-0.036329,0.0213099,2.27365,5,0.1,8,0.6,1.33512,-3.40248,0.638767,-0.261891,-0.222695,-0.0173539,-0.350654,-0.298142,-0.0232458,0.0096617,0.315638,5,0.1,9,0.6,-0.520937,-0.0774421,0.541641,0.78183,-0.120543,0.0188813,0.983387,-0.168279,0.0263155,0.0178379,2.32372,5,0.1,10,0.6,0.435243,2.56641,0.524917,-0.222209,-0.61152,0.063017,-0.297531,-0.818729,0.0843704,0.00912125,1.1385,5,0.1,11,0.6,2.99614,-5.70759,0.516237,-0.389081,-0.0493765,-0.00285208,-0.520945,-0.0658035,-0.0038147,0.00918026,0.4099,5,0.1,12,0.6,-3.71142,4.48911,0.682445,-0.0172496,-0.263715,0.298777,-0.0232458,-0.353336,0.400037,0.0325802,0.423868,5,0.1,13,0.6,1.71216,2.06355,0.636066,-0.497776,-0.252229,-0.0161365,-0.66644,-0.33772,-0.0216365,0.0135701,0.830385,5,0.1,14,0.6,4.44352,-5.6984,0.655707,-0.783622,-0.0372648,0.0356361,-0.972748,-0.068903,-0.0826418,0.0127224,2.33637,5,0.1,15,0.6,-4.23982,4.09029,0.505635,0.785601,-0.037539,-0.0106141,0.960112,-0.0526905,-0.0125468,0.0496485,2.33394,5,0.1,16,0.6,-0.0908856,3.073,0.684643,-0.0935931,0.370163,0.0292525,-0.125311,0.495553,0.0391901,0.0113483,0.390651,5,0.1,17,0.6,-1.50816,-4.55205,0.70156,0.0520587,0.785208,0.0159368,0.0727177,0.962257,0.0222623,0.0195694,2.3327,5,0.1,18,0.6,-2.52762,1.69821,0.660594,0.0570953,-0.0887185,0.308557,0.0764132,-0.118852,0.41312,0.0109464,0.28334,5,0.1,19,0.6,-2.126,4.77308,0.592238,0.717831,-0.371599,0.00282228,1.00195,-0.518799,0.0039041,0.0526892,2.23552,5,0.1,20,0.6,-1.23657,2.10266,0.69341,-0.117901,0.200188,0.293869,-0.157833,0.267982,0.39345,0.0154418,0.373955,5,0.1,21,0.6,-3.63241,5.30241,0.613954,0.0145137,-0.694788,0.329442,0.0194311,-0.930071,0.441045,0.0245256,1.5762,5,0.1,22,0.6,5.09109,1.0345,0.577966,-0.0370145,-0.710931,-0.0234187,-0.201702,-0.448734,-0.0377893,0.0098921,2.89393,5,0.1,23,0.6,0.105324,3.40178,0.669658,0.120717,-0.662744,-0.0198737,0.21001,-1.07336,-0.0295937,0.00880129,1.37639,5,0.1,24,0.6,1.70968,0.00522329,0.551676,-0.698072,0.0647982,0.0216201,-0.934541,0.0867546,0.0289977,0.0113886,1.31123,5,0.1,25,0.6,5.45246,0.813233,0.597993,-0.459397,-0.256985,0.00215769,-0.0126362,-0.109971,0.0103712,0.0388134,1.46181,5,0.1,26,0.6,-3.93734,-2.25155,0.50204,0.32503,0.613648,-0.00709444,0.45383,0.0921488,0.00965595,0.0139831,2.93381,5,0.1,27,0.6,-3.39943,-1.99715,0.529167,0.194931,-0.401014,0.0138074,0.261068,-0.537038,0.0184774,0.0101557,0.530205,5,0.1,28,0.6,4.7787,-2.26699,0.505699,-0.259054,0.366211,-0.0178456,-0.346661,0.228643,0.000327826,0.0335437,0.744787,5,0.1,29,0.6,-3.30711,2.08948,0.726624,-0.516826,-0.270319,0.145374,-0.707388,-0.35584,0.194073,0.0132921,1.00844,5,0.1,30,0.6,0.293895,-3.29489,0.554079,-0.141255,0.5054,0.0152081,-0.247002,0.501156,-0.0114739,0.011744,0.864786,5,0.1,31,0.6,-1.55024,-1.75809,0.583546,0.372669,0.709262,0.00375509,0.432968,0.990152,0.00521541,0.0187625,2.28564,5,0.1,32,0.6,3.78806,-0.450503,0.662654,-0.566816,0.132538,-0.0138313,0.110269,0.184879,-0.0192821,0.0190367,2.93108,5,0.1,33,0.6,-5.09032,-2.616,0.508063,0.341046,-0.429273,0.014405,0.456572,-0.574589,0.0193119,0.0095914,0.822535,5,0.1,34,0.6,2.56302,-0.120897,0.555721,-0.777954,-0.16811,0.015913,-1.00744,-0.234682,0.0222325,0.0118049,2.31374,5,0.1,35,0.6,-3.73162,2.23092,0.679155,0.639343,0.066942,-0.0491068,0.801325,0.450373,-0.108808,0.0106059,2.45818,5,0.1,36,0.6,0.416863,-2.81433,0.715408,-0.186575,-0.0159621,0.284024,-0.249788,-0.0214577,0.380307,0.0170329,0.30837,5,0.1,37,0.6,-1.83379,2.08155,0.642952,0.711566,-0.317883,-0.0215054,0.757158,-0.550985,-0.0530779,0.0232946,2.20149,5,0.1,38,0.6,-3.19138,-3.27591,0.684351,0.0185192,0.727719,0.0293821,0.0249147,0.974178,0.0393689,0.0136612,2.14722,5,0.1,39,0.6,-2.57704,4.0538,0.567837,-0.782496,-0.0688672,0.0143901,-0.980139,-0.092268,0.0192523,0.0100406,1.75478,5,0.1
0,0.7,-0.446361,4.47421,0.663789,0.142401,-0.84905,-0.0152329,0.172263,-0.386357,-0.0184327,0.0220985,2.32284,5,0.1,1,0.7,1.24871,2.55075,0.539157,-0.574473,-0.706272,0.0318093,-0.606731,-0.745982,0.0336096,0.0358988,1.7951,5,0.1,2,0.7,-1.04281,5.44376,0.563792,0.376722,-0.820066,0.015281,0.435591,-0.606179,0.0176504,0.0119067,2.25212,5,0.1,3,0.7,-4.93962,-3.48271,0.578082,0.534062,0.748575,0.0099997,0.650644,0.801101,0.0147186,0.0564646,2.22178,5,0.1,4,0.7,-3.16349,-0.360485,0.643691,0.263171,-0.127038,-0.0231738,-0.569776,-0.130387,-0.0237562,0.0122836,2.90147,5,0.1,5,0.7,-2.09796,-2.75332,0.578846,0.476281,0.346525,0.0112237,0.488952,0.355706,0.011526,0.0145303,0.726042,5,0.1,6,0.7,2.30365,-2.70797,0.573657,-0.0238143,0.84692,0.211212,-0.0224113,0.423014,0.199027,0.0256126,2.31281,5,0.1,7,0.7,-3.66971,-2.97363,0.593734,0.725372,0.270098,-0.0118744,-0.189394,0.419497,-0.128545,0.0213099,2.27365,5,0.1,8,0.7,1.3072,-3.42622,0.636917,-0.295554,-0.251316,-0.0195852,-0.303373,-0.257939,-0.0201054,0.0096617,0.315638,5,0.1,9,0.7,-0.43889,-0.090349,0.543662,0.849095,-0.137431,0.0215232,0.385622,-0.15883,0.0248551,0.0178379,2.32372,5,0.1,10,0.7,0.41156,2.50123,0.531633,-0.250773,-0.69012,0.0711167,-0.257418,-0.708356,0.0729933,0.00912125,1.1385,5,0.1,11,0.7,2.95467,-5.71285,0.515933,-0.439095,-0.0556961,-0.00321846,-0.45073,-0.056982,-0.00330806,0.00918026,0.4099,5,0.1,12,0.7,-3.71326,4.46101,0.714289,-0.0194803,-0.297629,0.337182,-0.0200868,-0.305563,0.346106,0.0325802,0.423868,5,0.1,13,0.7,1.65911,2.03667,0.634346,-0.561757,-0.284651,-0.0182134,-0.576608,-0.292197,-0.0187121,0.0135701,0.830385,5,0.1,14,0.7,4.36135,-5.70248,0.658824,-0.849733,-0.0442907,0.0264405,-0.374854,-0.0675321,-0.0980459,0.0127224,2.33637,5,0.1,15,0.7,-4.15752,4.08627,0.504535,0.850408,-0.0428237,-0.0111588,0.363171,-0.0496805,0.000927597,0.0496485,2.33394,5,0.1,16,0.7,-0.100861,3.11245,0.687761,-0.105623,0.417737,0.0330144,-0.108418,0.428751,0.0338964,0.0113483,0.390651,5,0.1,17,0.7,-1.50259,-4.46978,0.703266,0.0593549,0.850263,0.0181708,0.0686124,0.365585,0.0210144,0.0195694,2.3327,5,0.1,18,0.7,-2.52153,1.68876,0.69348,0.0644337,-0.100127,0.348218,0.0661463,-0.102803,0.357427,0.0109464,0.28334,5,0.1,19,0.7,-2.04965,4.73329,0.59254,0.804146,-0.423679,0.00321474,0.694297,-0.48995,0.00369549,0.0526892,2.23552,5,0.1,20,0.7,-1.24914,2.12399,0.72473,-0.133054,0.225918,0.331642,-0.136569,0.231907,0.34041,0.0154418,0.373955,5,0.1,21,0.7,-3.63087,5.2284,0.649065,0.0163786,-0.782767,0.371784,0.0168085,-0.781238,0.381585,0.0245256,1.5762,5,0.1,22,0.7,5.08658,0.962662,0.57544,-0.0512138,-0.712146,-0.0270217,-0.0874996,0.369612,-0.0324585,0.0098921,2.89393,5,0.1,23,0.7,0.118528,3.33303,0.667547,0.143767,-0.686554,-0.0220966,0.234433,0.47341,-0.0147,0.00880129,1.37639,5,0.1,24,0.7,1.63536,0.0121294,0.55398,-0.785756,0.0731269,0.0244038,-0.772126,0.0750595,0.0250861,0.0113886,1.31123,5,0.1,25,0.7,5.40724,0.787512,0.598252,-0.438216,-0.252815,0.00295294,0.406176,0.168417,0.00564381,0.0388134,1.46181,5,0.1,26,0.7,-3.90287,-2.19102,0.501387,0.361107,0.585893,-0.00592154,0.260025,-0.577211,0.0133067,0.0139831,2.93381,5,0.1,27,0.7,-3.37865,-2.03989,0.530639,0.219993,-0.452569,0.0155814,0.225857,-0.464603,0.0159889,0.0101557,0.530205,5,0.1,28,0.7,4.75109,-2.23,0.503949,-0.292335,0.366649,-0.0168436,-0.299901,-0.185534,0.0194348,0.0335437,0.744787,5,0.1,29,0.7,-3.3623,2.06071,0.742114,-0.585599,-0.304158,0.163973,-0.627831,-0.301927,0.167314,0.0132921,1.00844,5,0.1,30,0.7,0.278381,-3.24219,0.555401,-0.169963,0.544902,0.0100505,-0.304328,0.274971,-0.0830367,0.011744,0.864786,5,0.1,31,0.7,-1.51158,-1.68255,0.583948,0.393781,0.797243,0.00427905,0.0309646,0.732571,0.00493228,0.0187625,2.28564,5,0.1,32,0.7,3.73299,-0.436315,0.661174,-0.526569,0.151032,-0.0157603,0.592858,0.173448,-0.0180863,0.0190367,2.93108,5,0.1,33,0.7,-5.05417,-2.66137,0.509579,0.379267,-0.473492,0.0157214,0.295281,-0.302598,0.00714883,0.0095914,0.822535,5,0.1,34,0.7,2.48123,-0.138897,0.557425,-0.84775,-0.191665,0.0181439,-0.408679,-0.221569,0.0209846,0.0118049,2.31374,5,0.1,35,0.7,-3.66326,2.23931,0.673759,0.729876,0.0956051,-0.0581993,0.932574,0.141948,-0.0714362,0.0106059,2.45818,5,0.1,36,0.7,0.396978,-2.81603,0.745679,-0.210556,-0.0180203,0.320534,-0.216117,-0.0185519,0.329029,0.0170329,0.30837,5,0.1,37,0.7,-1.75879,2.04711,0.640561,0.787537,-0.36922,-0.0260255,0.70636,-0.452936,-0.0364594,0.0232946,2.20149,5,0.1,38,0.7,-3.1894,-3.19874,0.687483,0.0209086,0.810188,0.0331613,0.0215173,0.648722,0.0340529,0.0136612,2.14722,5,0.1,39,0.7,-2.65913,4.04646,0.569371,-0.849266,-0.0777215,0.0162389,-0.38144,-0.079751,0.0166669,0.0100406,1.75478,5,0.1
0,0.8,-0.43135,4.38814,0.662183,0.156728,-0.86602,-0.0167668,0.106335,-0.000238419,-0.0113547,0.0187838,2.3509,5,0.1,1,0.8,1.18863,2.47689,0.542484,-0.622407,-0.76521,0.0344649,-0.326097,-0.400662,0.0180602,0.0379037,1.27143,5,0.1,2,0.8,-1.0032,5.35948,0.565399,0.412594,-0.858033,0.0167355,0.261635,-0.159979,0.0105798,0.0112185,2.1643,5,0.1,3,0.8,-4.88327,-3.40438,0.579152,0.589025,0.811845,0.0113443,0.416756,0.430584,0.0113249,0.0571058,1.96649,5,0.1,4,0.8,-3.13979,-0.373752,0.641271,0.214469,-0.137261,-0.0250369,-0.36478,-0.0684857,-0.0124574,0.011526,2.6739,5,0.1,5,0.8,-2.04822,-2.71713,0.580018,0.514615,0.374413,0.0121266,0.256777,0.186801,0.00604987,0.0119806,0.520966,5,0.1,6,0.8,2.30117,-2.62197,0.595615,-0.0254989,0.866026,0.226162,-0.010252,0,0.0920892,0.0253873,2.22944,5,0.1,7,0.8,-3.59906,-2.94475,0.59184,0.679058,0.304681,-0.02639,-0.703216,0.257969,-0.151783,0.0207512,2.0813,5,0.1,8,0.8,1.27634,-3.45246,0.634872,-0.319338,-0.271541,-0.0211611,-0.159323,-0.135303,-0.01055,0.00933839,0.222853,5,0.1,9,0.8,-0.352811,-0.104799,0.545925,0.866026,-0.150508,0.0235707,-1.43051e-05,-0.0953341,0.0149012,0.0179037,2.25414,5,0.1,10,0.8,0.385372,2.42916,0.53906,-0.270955,-0.745654,0.0768408,-0.135168,-0.372052,0.038296,0.00975345,0.803843,5,0.1,11,0.8,2.90882,-5.71866,0.515597,-0.474435,-0.0601649,-0.00347644,-0.23663,-0.0298023,-0.00175834,0.007595,0.289416,5,0.1,12,0.8,-3.71529,4.42992,0.749501,-0.0210583,-0.321579,0.364318,-0.0104904,-0.160456,0.181705,0.0325051,0.299259,5,0.1,13,0.8,1.60045,2.00694,0.632444,-0.606963,-0.307557,-0.0196815,-0.302792,-0.153422,-0.00983477,0.0123169,0.586297,5,0.1,14,0.8,4.27525,-5.70721,0.660974,-0.866032,-0.0500798,0.0165984,0.000238419,-0.0450611,-0.0962913,0.0123028,2.27042,5,0.1,15,0.8,-4.0714,4.08176,0.503441,0.866032,-0.0469089,-0.0105649,-0.000238419,-0.0300407,0.0103116,0.0452279,2.27397,5,0.1,16,0.8,-0.111891,3.15608,0.691209,-0.114124,0.45135,0.0356719,-0.0569299,0.225067,0.017792,0.00920017,0.275818,5,0.1,17,0.8,-1.49635,-4.38365,0.705177,0.0650018,0.866032,0.0199005,0.0411272,-0.000238419,0.0126362,0.0196171,2.26836,5,0.1,18,0.8,-2.51481,1.6783,0.729845,0.0696242,-0.108188,0.376241,0.0346899,-0.0539422,0.187695,0.0111925,0.200053,5,0.1,19,0.8,-1.96645,4.68874,0.592878,0.852689,-0.464034,0.00351965,0.266731,-0.294447,0.00220537,0.0485673,2.12519,5,0.1,20,0.8,-1.26303,2.14759,0.759364,-0.14376,0.244105,0.358331,-0.0717044,0.121713,0.178754,0.0162515,0.264037,5,0.1,21,0.8,-3.62916,5.14679,0.687891,0.0176966,-0.843036,0.401701,0.00882149,-0.392437,0.200361,0.0251598,1.12723,5,0.1,22,0.8,5.08118,0.89427,0.572596,-0.0554919,-0.647116,-0.0296056,-0.00286102,0.884801,-0.0180304,0.0105325,3.24347,5,0.1,23,0.8,0.134005,3.26845,0.66529,0.164762,-0.590575,-0.0228003,0.173613,1.34468,0.000596046,0.00758301,0.470895,5,0.1,24,0.8,1.5535,0.0197662,0.556529,-0.844765,0.0790118,0.0263691,-0.377595,0.0394155,0.0132322,0.0118663,0.984843,5,0.1,25,0.8,5.36593,0.763364,0.598569,-0.383711,-0.227702,0.00331104,0.658274,0.314742,0.00157952,0.00743661,0.590043,5,0.1,26,0.8,-3.86583,-2.13595,0.500863,0.375926,0.510436,-0.00452101,0.0325441,-0.879645,0.0142753,0.0129927,2.99021,5,0.1,27,0.8,-3.35568,-2.08716,0.532266,0.237697,-0.488991,0.0168353,0.118494,-0.244021,0.00837445,0.00996413,0.374452,5,0.1,28,0.8,4.72056,-2.19472,0.50239,-0.315845,0.335199,-0.0140667,-0.157356,-0.416756,0.0352561,0.0355295,0.638515,5,0.1,29,0.8,-3.4236,2.029,0.759232,-0.635618,-0.327528,0.17706,-0.345349,-0.152588,0.0873208,0.00687809,0.798764,5,0.1,30,0.8,0.259923,-3.18679,0.555932,-0.198179,0.558263,0.000141561,-0.243425,-0.0151396,-0.108421,0.0115138,0.652482,5,0.1,31,0.8,-1.47245,-1.59982,0.584398,0.385603,0.850376,0.00468642,-0.16886,0.312984,0.00295043,0.0169042,2.21781,5,0.1,32,0.8,3.68345,-0.420441,0.659517,-0.464147,0.16527,-0.0172451,0.59855,0.10331,-0.0107884,0.0249468,2.97837,5,0.1,33,0.8,-5.01512,-2.70973,0.511168,0.398111,-0.48883,0.0158697,0.074625,-0.00154972,-0.00396371,0.00945409,0.654185,5,0.1,34,0.8,2.3952,-0.15905,0.559333,-0.866026,-0.20991,0.0198707,0,-0.133045,0.0126362,0.0115916,2.23801,5,0.1,35,0.8,-3.58591,2.2492,0.667654,0.81287,0.0988424,-0.0631541,0.674486,-0.0609159,-0.0268817,0.0111376,2.32142,5,0.1,36,0.8,0.374989,-2.81792,0.779153,-0.2275,-0.0194728,0.346331,-0.113472,-0.00977516,0.172764,0.0178951,0.217725,5,0.1,37,0.8,-1.67696,2.00824,0.63781,0.84376,-0.40468,-0.0286639,0.383377,-0.241101,-0.0158548,0.0214804,1.67153,5,0.1,38,0.8,-3.18722,-3.11516,0.690946,0.0225961,0.854427,0.0358313,0.0113249,0.231981,0.0178814,0.0135784,1.70899,5,0.1,39,0.8,-2.74521,4.03834,0.571066,-0.866026,-0.083971,0.0175461,0.000119209,-0.0419617,0.00876188,0.0104031,1.31031,5,0.1
0,0.9,-0.41511,4.30183,0.660446,0.16811,-0.856756,-0.0179824,0.109598,0.200331,-0.0117086,0.0187838,2.3509,5,0.1,1,0.9,1.12483,2.39845,0.546017,-0.652144,-0.80175,0.0361119,-0.238255,-0.292748,0.0131913,0.0379037,1.27143,5,0.1,2,0.9,-0.960704,5.27319,0.567114,0.436082,-0.865526,0.017468,0.18822,-0.0199676,0.00374392,0.0112185,2.1643,5,0.1,3,0.9,-4.82227,-3.32117,0.58034,0.630116,0.849953,0.0123655,0.368029,0.296444,0.00850856,0.0571058,1.96649,5,0.1,4,0.9,-3.11984,-0.387804,0.638708,0.190325,-0.143466,-0.0261662,-0.026688,-0.0490546,-0.00892952,0.011526,2.6739,5,0.1,5,0.9,-1.99554,-2.67908,0.581259,0.537882,0.383344,0.0126747,0.18391,-0.00804663,0.00432879,0.0119806,0.520966,5,0.1,6,0.9,2.29858,-2.53536,0.618909,-0.0262041,0.866026,0.241232,-0.00314415,0,0.183765,0.0253873,2.22944,5,0.1,7,0.9,-3.5351,-2.91388,0.588309,0.596326,0.304713,-0.0451765,-0.928447,-0.220701,-0.209678,0.0207512,2.0813,5,0.1,8,0.9,1.24364,-3.48026,0.632706,-0.333774,-0.283802,-0.022117,-0.114121,-0.0969023,-0.00755116,0.00933839,0.222853,5,0.1,9,0.9,-0.266208,-0.120345,0.54836,0.866025,-0.160334,0.0251077,1.78814e-06,-0.0911155,0.0142604,0.0179037,2.25414,5,0.1,10,0.9,0.357632,2.35282,0.546927,-0.283204,-0.779366,0.0803113,-0.0968222,-0.266463,0.027433,0.00975345,0.803843,5,0.1,11,0.9,2.86025,-5.72482,0.515241,-0.495878,-0.0628665,-0.0036356,-0.169531,-0.0213385,-0.00125542,0.007595,0.289416,5,0.1,12,0.9,-3.71745,4.397,0.7868,-0.0220083,-0.336115,0.380784,-0.00751019,-0.114858,0.130158,0.0325051,0.299259,5,0.1,13,0.9,1.5383,1.97545,0.630429,-0.6344,-0.321459,-0.0205725,-0.216879,-0.109896,-0.00704825,0.0123169,0.586297,5,0.1,14,0.9,4.18864,-5.71245,0.66215,-0.866023,-0.0546932,0.00695176,-2.98023e-05,-0.0433922,-0.0941977,0.0123028,2.27042,5,0.1,15,0.9,-3.98479,4.07695,0.502448,0.865957,-0.0491075,-0.00918461,-0.00266731,-0.0127852,0.0166185,0.0452279,2.27397,5,0.1,16,0.9,-0.123575,3.20229,0.694861,-0.119282,0.471745,0.0372838,-0.0407784,0.161216,0.0127405,0.00920017,0.275818,5,0.1,17,0.9,-1.48964,-4.29705,0.707232,0.0692382,0.866023,0.0212015,0.0392646,2.98023e-05,0.0120513,0.0196171,2.26836,5,0.1,18,0.9,-2.50768,1.66722,0.768364,0.0727691,-0.113076,0.393249,0.0248849,-0.0386313,0.134449,0.0111925,0.200053,5,0.1,19,0.9,-1.88036,4.64081,0.593241,0.865192,-0.4945,0.00374857,0.0333413,-0.283509,0.00213832,0.0485673,2.12519,5,0.1,20,0.9,-1.27775,2.17258,0.79605,-0.150258,0.255136,0.374529,-0.0513569,0.0872314,0.128046,0.0162515,0.264037,5,0.1,21,0.9,-3.62734,5.06119,0.729016,0.0186406,-0.863309,0.419842,0.00888109,-0.0568628,0.143249,0.0251598,1.12723,5,0.1,22,0.9,5.07571,0.834774,0.569545,-0.0530921,-0.536643,-0.0313699,0.0472963,1.25623,-0.0155121,0.0105325,3.24347,5,0.1,23,0.9,0.151744,3.21654,0.662966,0.192995,-0.444603,-0.0240333,0.354042,1.53045,-0.021413,0.00758301,0.470895,5,0.1,24,0.9,1.46781,0.028012,0.559229,-0.863689,0.0870285,0.0275672,-0.0485703,0.107258,0.00947341,0.0118663,0.984843,5,0.1,25,0.9,5.33188,0.742319,0.598901,-0.288616,-0.192197,0.00327323,1.17308,0.376694,-0.00210851,0.00743661,0.590043,5,0.1,26,0.9,-3.8277,-2.08975,0.500482,0.38937,0.411218,-0.00313101,0.19674,-1.01978,0.0132434,0.0129927,2.99021,5,0.1,27,0.9,-3.33135,-2.13719,0.533986,0.248287,-0.510238,0.0174991,0.0822395,-0.159413,0.00431016,0.00996413,0.374452,5,0.1,28,0.9,4.68822,-2.16365,0.501178,-0.330104,0.283767,-0.0100089,-0.112712,-0.56535,0.0445321,0.0355295,0.638515,5,0.1,29,0.9,-3.4869,1.99551,0.777269,-0.612861,-0.341594,0.182528,0.710636,-0.112467,0.0189431,0.00687809,0.798764,5,0.1,30,0.9,0.238923,-3.13088,0.555387,-0.221134,0.560588,-0.0110853,-0.202532,0.0300407,-0.11177,0.0115138,0.652482,5,0.1,31,0.9,-1.43507,-1.51382,0.584882,0.360802,0.865048,0.00499208,-0.250809,0.039123,0.00284612,0.0169042,2.21781,5,0.1,32,0.9,3.63999,-0.403384,0.657737,-0.409158,0.175752,-0.0183391,0.374809,0.0956748,-0.0099875,0.0249468,2.97837,5,0.1,33,0.9,-4.97554,-2.75855,0.512699,0.38786,-0.486304,0.0144223,-0.259489,0.066787,-0.0231937,0.00945409,0.654185,5,0.1,34,0.9,2.3086,-0.180733,0.561386,-0.866026,-0.22366,0.0211754,0,-0.127818,0.0121184,0.0115916,2.23801,5,0.1,35,0.9,-3.50205,2.25852,0.661226,0.856898,0.0855133,-0.0651249,0.230044,-0.191808,-0.0105985,0.0111376,2.32142,5,0.1,36,0.9,0.351698,-2.81991,0.81461,-0.237783,-0.0203576,0.361986,-0.081284,-0.00698864,0.12375,0.0178951,0.217725,5,0.1,37,0.9,-1.59132,1.96665,0.634878,0.863855,-0.425793,-0.0298021,0.0709295,-0.162967,-0.00618398,0.0214804,1.67153,5,0.1,38,0.9,-3.18478,-3.02904,0.694694,0.0271317,0.863678,0.0397083,0.0704974,-0.0257939,0.0529252,0.0135784,1.70899,5,0.1,39,0.9,-2.83181,4.02974,0.572863,-0.86576,-0.0877701,0.0183404,0.01055,-0.0300109,0.00628456,0.0104031,1.31031,5,0.1
0,1,-0.397824,4.21758,0.658597,0.176659,-0.823689,-0.0188962,0.0532269,0.469446,-0.00569224,0.017219,2.7297,5,0.1,1,1,1.05877,2.31724,0.549675,-0.665003,-0.817543,0.0368252,0.0013113,0.00166893,-8.9407e-05,0.0362162,0.866646,5,0.1,2,1,-0.916409,5.1866,0.568867,0.446941,-0.866032,0.0174373,0.0158846,0.000238419,-0.00452995,0.010662,2.15436,5,0.1,3,1,-4.75775,-3.23514,0.581611,0.656426,0.865847,0.0129461,0.132322,0.00357628,0.00277162,0.054829,1.42874,5,0.1,4,1,-3.1,-0.40232,0.636061,0.215441,-0.14598,-0.0266239,0.500917,0.00315905,0.000596046,0.00877938,2.29462,5,0.1,5,1,-1.94111,-2.6411,0.582542,0.547302,0.373024,0.012897,-0.0118017,-0.196099,-0.000298023,0.0131247,0.389768,5,0.1,6,1,2.29596,-2.44876,0.64393,-0.0260174,0.866026,0.258496,0.00727177,0,0.142843,0.0224946,2.39822,5,0.1,7,1,-3.48033,-2.88506,0.582744,0.497562,0.267231,-0.0658408,-1.02782,-0.498772,-0.19303,0.0201716,1.81698,5,0.1,8,1,1.20987,-3.50898,0.630468,-0.339615,-0.288767,-0.0225037,0.00727177,0.0064373,0.000506639,0.0108972,0.151548,5,0.1,9,1,-0.179606,-0.136759,0.55093,0.866025,-0.167027,0.026156,0,-0.0358,0.00557303,0.0183487,2.25556,5,0.1,10,1,0.328977,2.27397,0.555053,-0.288163,-0.793022,0.081715,0.00622869,0.0172853,-0.00175834,0.00975804,0.546637,5,0.1,11,1,2.81007,-5.73118,0.514873,-0.504559,-0.0639677,-0.00369996,0.010848,0.00166893,5.96046e-05,0.00840031,0.196819,5,0.1,12,1,-3.71968,4.36299,0.825328,-0.0223935,-0.342,0.387451,0.000476837,0.00762939,-0.00840425,0.0313069,0.300337,5,0.1,13,1,1.47412,1.94293,0.628348,-0.645509,-0.327089,-0.0209332,0.0139475,0.00709295,0.000417233,0.011417,1.10664,5,0.1,14,1,4.10204,-5.71811,0.662394,-0.866032,-0.0581026,-0.00182241,0.000238419,-0.0226498,-0.0794828,0.0139284,2.26956,5,0.1,15,1,-3.89823,4.07201,0.501619,0.864953,-0.0492811,-0.00736415,-0.0214577,0.00977516,0.0193119,0.0452839,2.60695,5,0.1,16,1,-0.135644,3.25002,0.698633,-0.121371,0.479996,0.0379369,0.00263005,-0.010252,-0.000834465,0.00912806,0.23469,5,0.1,17,1,-1.48255,-4.21045,0.709403,0.0721186,0.866032,0.0220865,0.0153184,-0.000238419,0.00470877,0.0193417,2.26804,5,0.1,18,1,-2.50031,1.65578,0.808153,0.0740469,-0.115055,0.400136,-0.00166893,0.002563,-0.00867248,0.0106844,0.136044,5,0.1,19,1,-1.79378,4.59017,0.593625,0.866026,-0.515437,0.00390559,-5.96046e-05,-0.113487,0.000864267,0.0503269,1.71153,5,0.1,20,1,-1.29296,2.19839,0.833945,-0.152892,0.259608,0.381087,0.00339746,-0.00560284,-0.00819564,0.0177253,0.17956,5,0.1,21,1,-3.62544,4.97492,0.771494,0.0192761,-0.859034,0.42716,0.00298023,0.139713,-0.00959635,0.0249205,0.795866,5,0.1,22,1,5.07069,0.787549,0.566347,-0.0466824,-0.407563,-0.0324145,0.0779629,1.27691,-0.00423193,0.0106358,3.52301,5,0.1,23,1,0.172861,3.17973,0.660446,0.22911,-0.292307,-0.0264078,0.340663,1.48129,-0.0232458,0.0186333,3.52031,5,0.1,24,1,1.3815,0.0372707,0.562019,-0.859433,0.0980783,0.0280529,0.131905,0.103552,-0.000536442,0.0116699,0.696099,5,0.1,25,1,5.30926,0.724966,0.599213,-0.16166,-0.155321,0.00293106,1.31154,0.349909,-0.00450015,0.00768827,0.389828,5,0.1,26,1,-3.78777,-2.05343,0.500231,0.408417,0.319356,-0.00191778,0.15521,-0.773549,0.010848,0.0136405,2.25855,5,0.1,27,1,-3.30624,-2.18873,0.535747,0.252312,-0.517327,0.0176013,-0.00905991,0.0317097,-0.00268221,0.0103093,0.316895,5,0.1,28,1,4.65482,-2.13805,0.500404,-0.335884,0.229377,-0.00548959,0.00762939,-0.496626,0.0439584,0.033891,0.772481,5,0.1,29,1,-3.54351,1.96096,0.795484,-0.50981,-0.347313,0.180399,1.27673,0.00888109,-0.0629127,0.011868,0.802042,5,0.1,30,1,0.215952,-3.07481,0.553744,-0.236495,0.558895,-0.0214651,-0.0958964,-0.0861883,-0.0926852,0.0112156,0.48656,5,0.1,31,1,-1.4,-1.42724,0.585393,0.343186,0.866026,0.005202,-0.100434,-5.96046e-05,0.00116229,0.0159211,2.20382,5,0.1,32,1,3.6,-0.385414,0.655862,-0.399947,0.18261,-0.0190556,-0.171661,0.0341684,-0.00354648,0.0223886,2.79899,5,0.1,33,1,-4.93846,-2.80663,0.514006,0.349987,-0.473076,0.0115559,-0.480175,0.207305,-0.0326633,0.0100215,0.484179,5,0.1,34,1,2.222,-0.203635,0.563554,-0.866026,-0.233082,0.0220701,0,-0.0508651,0.00479817,0.0107275,2.30565,5,0.1,35,1,-3.41571,2.266,0.6547,0.866026,0.0629783,-0.0649631,0,-0.247717,0.0150204,0.0108207,2.27862,5,0.1,36,1,0.327639,-2.82197,0.851236,-0.241946,-0.0207126,0.368325,0.00523031,0.000357628,-0.00798702,0.0167061,0.148061,5,0.1,37,1,-1.50477,1.92351,0.631888,0.865939,-0.434273,-0.0297874,-0.00166893,0.00530481,0.00688434,0.0224925,1.65596,5,0.1,38,1,-3.18168,-2.94321,0.698941,0.035131,0.848144,0.0452399,0.0827312,-0.317216,0.0526607,0.00867422,0.766248,5,0.1,39,1,-2.91825,4.02086,0.574719,-0.861794,-0.0893116,0.0186622,0.0845194,0.00214577,-0.00038743,0.0112359,1.13607,5,0.1
0,1.1,-0.379835,4.13854,0.656672,0.183374,-0.748737,-0.0196142,0.0687987,0.971496,-0.00735372,0.017219,2.7297,5,0.1,1,1.1,0.992308,2.23553,0.553355,-0.663357,-0.815516,0.0367328,0.0562742,0.069201,-0.00312552,0.0362162,0.866646,5,0.1,2,1.1,-0.871592,5.09999,0.570586,0.449281,-0.866023,0.0169257,0.00986457,-2.98023e-05,-0.00616163,0.010662,2.15436,5,0.1,3,1.1,-4.69145,-3.14855,0.582917,0.668575,0.865505,0.0131547,0.0811219,-0.0199229,0.000912696,0.054829,1.42874,5,0.1,4,1.1,-3.07481,-0.416896,0.633403,0.297414,-0.145339,-0.0265056,1.04246,0.0149906,0.00274181,0.00877938,2.29462,5,0.1,5,1.1,-1.88647,-2.60524,0.583829,0.544903,0.340172,0.0128387,-0.0561923,-0.4365,-0.00133738,0.0131247,0.389768,5,0.1,6,1.1,2.2934,-2.36282,0.67063,-0.025278,0.846353,0.276267,0.00835955,-0.384867,0.189308,0.0224946,2.39822,5,0.1,7,1.1,-3.43499,-2.86119,0.575264,0.415711,0.20737,-0.0829271,-0.631735,-0.667095,-0.142615,0.0201716,1.81698,5,0.1,8,1.1,1.17596,-3.53781,0.628221,-0.338131,-0.287484,-0.0224032,0.0348315,0.0297725,0.00232831,0.0108972,0.151548,5,0.1,9,1.1,-0.0930059,-0.153673,0.553579,0.865901,-0.17131,0.0268244,-0.0049895,-0.0400813,0.00626966,0.0183487,2.25556,5,0.1,10,1.1,0.300204,2.19478,0.563212,-0.286899,-0.789532,0.0813575,0.0295881,0.0815094,-0.0083819,0.00975804,0.546637,5,0.1,11,1.1,2.75969,-5.73757,0.514503,-0.502352,-0.0636645,-0.00368552,0.0517666,0.00676513,0.000368804,0.00840031,0.196819,5,0.1,12,1.1,-3.72191,4.32869,0.864014,-0.0222951,-0.344923,0.38575,0.00229478,-0.0437498,-0.0397936,0.0313069,0.300337,5,0.1,13,1.1,1.40919,1.91011,0.626257,-0.656014,-0.330098,-0.0208442,-0.170797,-0.0454187,0.00212714,0.011417,1.10664,5,0.1,14,1.1,4.01544,-5.72405,0.661822,-0.866025,-0.0605769,-0.00949185,-1.49012e-05,-0.0231564,-0.0718832,0.0139284,2.26956,5,0.1,15,1.1,-3.8127,4.06771,0.500979,0.837633,-0.0319302,-0.00542859,-0.504836,0.302613,0.0190027,0.0452839,2.60695,5,0.1,16,1.1,-0.147919,3.29794,0.702421,-0.125284,0.4779,0.0377693,-0.0665579,-0.0492036,-0.00390783,0.00912806,0.23469,5,0.1,17,1.1,-1.47525,-4.12385,0.711639,0.0739483,0.866023,0.0226483,0.0170693,2.98023e-05,0.00523776,0.0193417,2.26804,5,0.1,18,1.1,-2.49292,1.6443,0.848106,0.0737187,-0.114544,0.39838,-0.00761449,0.0118613,-0.0410974,0.0106844,0.136044,5,0.1,19,1.1,-1.70718,4.53802,0.59402,0.865817,-0.527178,0.00399509,-0.00829995,-0.0950098,0.000726432,0.0503269,1.71153,5,0.1,20,1.1,-1.30822,2.22431,0.871996,-0.152214,0.258471,0.379419,0.0157505,-0.0266284,-0.0391044,0.0177253,0.17956,5,0.1,21,1.1,-3.62342,4.88988,0.814138,0.0217985,-0.839461,0.42507,0.0416189,0.271082,-0.0474155,0.0249205,0.795866,5,0.1,22,1.1,5.06644,0.753188,0.563079,-0.0381649,-0.281614,-0.0329301,0.0902414,1.16327,-0.00436604,0.0106358,3.52301,5,0.1,23,1.1,0.196874,3.15517,0.657703,0.245605,-0.22272,-0.0282849,0.00764336,0.049606,-0.0134222,0.0186333,3.52031,5,0.1,24,1.1,1.2961,0.0476507,0.56482,-0.848771,0.109797,0.0279351,0.118993,0.120308,-0.0028424,0.0116699,0.696099,5,0.1,25,1.1,5.2998,0.711088,0.599481,-0.0271,-0.123413,0.0023949,1.33625,0.280328,-0.00598654,0.00768827,0.389828,5,0.1,26,1.1,-3.7462,-2.02477,0.500089,0.422019,0.260441,-0.000990927,0.0988245,-0.387728,0.00766665,0.0136405,2.25855,5,0.1,27,1.1,-3.28121,-2.23959,0.537319,0.246753,-0.493596,0.012363,-0.102147,0.418037,-0.091698,0.0103093,0.316895,5,0.1,28,1.1,4.62129,-2.11746,0.500058,-0.334382,0.185516,-0.00165999,0.0346899,-0.325382,0.0301823,0.033891,0.772481,5,0.1,29,1.1,-3.58928,1.92614,0.813255,-0.416064,-0.34985,0.175277,0.653982,-0.0376329,-0.047721,0.011868,0.802042,5,0.1,30,1.1,0.192016,-3.01909,0.551282,-0.240299,0.557083,-0.0264538,0.020029,0.014022,-0.0127107,0.0112156,0.48656,5,0.1,31,1.1,-1.3656,-1.34064,0.58592,0.349488,0.865966,0.00534281,0.178911,-0.00235438,0.0013411,0.0159211,2.20382,5,0.1,32,1.1,3.5578,-0.366956,0.653936,-0.454863,0.186562,-0.0194663,-0.820369,0.034878,-0.00362843,0.0223886,2.79899,5,0.1,33,1.1,-4.9054,-2.85316,0.515032,0.315375,-0.459313,0.00927355,-0.241131,0.0967383,-0.0146106,0.0100215,0.484179,5,0.1,34,1.1,2.13594,-0.227247,0.56579,-0.850528,-0.239275,0.0226544,0.28041,-0.0590477,0.00557303,0.0107275,2.30565,5,0.1,35,1.1,-3.3291,2.27097,0.648277,0.866026,0.03599,-0.0634638,0,-0.281781,0.0172295,0.0108207,2.27862,5,0.1,36,1.1,0.303481,-2.82404,0.888013,-0.240886,-0.020628,0.366708,0.0248421,0.00210106,-0.037834,0.0167061,0.148061,5,0.1,37,1.1,-1.41818,1.87999,0.628949,0.865787,-0.436703,-0.0289164,-0.00655651,-0.0291541,0.0111647,0.0224925,1.65596,5,0.1,38,1.1,-3.17703,-2.86149,0.703933,0.0637211,0.773195,0.0562236,0.439405,-1.11091,0.150576,0.00867422,0.766248,5,0.1,39,1.1,-3.00318,4.01155,0.576701,-0.829193,-0.100227,0.0219447,0.547498,-0.191987,0.0578798,0.0112359,1.13607,5,0.1
0,1.2,-0.361211,4.06897,0.65468,0.188328,-0.639498,-0.0201434,0.0216514,1.16992,-0.00235438,0.0162963,3.06292,5,0.1,1,1.2,0.926508,2.15463,0.556999,-0.649658,-0.798672,0.0359729,0.233948,0.287652,-0.0129342,0.0382774,0.749494,5,0.1,2,1.2,-0.826765,5.01339,0.572242,0.445373,-0.866032,0.016129,-0.102401,0.000238419,-0.0100434,0.0133021,2.16316,5,0.1,3,1.2,-4.62447,-3.06226,0.584231,0.667703,0.857878,0.0130489,-0.118017,-0.16284,-0.00333786,0.00722223,0.877445,5,0.1,4,1.2,-3.03961,-0.4313,0.630776,0.407052,-0.142097,-0.0259146,1.07789,0.053376,0.00974536,0.00941144,1.84282,5,0.1,5,1.2,-1.83246,-2.57364,0.585102,0.532746,0.290054,0.0125512,-0.200152,-0.547051,-0.00470877,0.00933061,0.297687,5,0.1,6,1.2,2.29092,-2.28068,0.699124,-0.0242114,0.790924,0.292368,0.0137091,-0.713468,0.11608,0.0199313,2.78842,5,0.1,7,1.2,-3.39609,-2.84385,0.56638,0.3667,0.139213,-0.0934392,-0.371099,-0.673294,-0.0644624,0.0180858,1.61763,5,0.1,8,1.2,1.14245,-3.5663,0.626001,-0.330588,-0.28106,-0.0219017,0.124156,0.105619,0.00822544,0.00899739,0.171008,5,0.1,9,1.2,-0.00648072,-0.170946,0.556283,0.86403,-0.173389,0.0271499,-0.039922,0.00525266,-0.000834465,0.0175645,2.34009,5,0.1,10,1.2,0.271771,2.11654,0.571275,-0.280498,-0.77191,0.0795424,0.105366,0.290155,-0.0298619,0.00889016,0.363491,5,0.1,11,1.2,2.70991,-5.74388,0.514138,-0.491148,-0.0622272,-0.00360459,0.184417,0.023365,0.00137091,0.00880946,0.130877,5,0.1,12,1.2,-3.72412,4.29404,0.902244,-0.0218034,-0.346911,0.377141,0.00834465,0.0200272,-0.14165,0.0310252,0.211494,5,0.1,13,1.2,1.34279,1.87693,0.624192,-0.670487,-0.332433,-0.0203803,-0.080049,0.0141859,0.00762939,0.0106337,0.827904,5,0.1,14,1.2,3.92884,-5.7302,0.660539,-0.866026,-0.06212,-0.0158578,0,-0.00500679,-0.054121,0.0120282,2.31348,5,0.1,15,1.2,-3.73212,4.06627,0.500528,0.76794,0.00506639,-0.00363141,-0.869393,0.410318,0.0166595,0.0444726,2.7256,5,0.1,16,1.2,-0.160798,3.34531,0.706164,-0.132191,0.467247,0.0369251,-0.060983,-0.175595,-0.0138581,0.0130912,0.16253,5,0.1,17,1.2,-1.46779,-4.03724,0.713922,0.0748217,0.866032,0.0229165,-0.002563,-0.000119209,-0.00077486,0.0188859,2.10492,5,0.1,18,1.2,-2.48562,1.63294,0.887588,0.072068,-0.111982,0.38949,-0.0269413,0.0420809,-0.1463,0.0100584,0.153517,5,0.1,19,1.2,-1.6207,4.48503,0.594422,0.862697,-0.530016,0.00401735,-0.0664592,0.0557899,-0.000417233,0.0684303,1.26946,5,0.1,20,1.2,-1.32331,2.24993,0.909599,-0.148815,0.252712,0.370955,0.0559092,-0.0950098,-0.139326,0.0165441,0.119401,5,0.1,21,1.2,-3.62101,4.80763,0.856244,0.0265658,-0.801742,0.41516,0.0492334,0.494957,-0.160754,0.0235861,0.569372,5,0.1,22,1.2,5.06308,0.730175,0.559776,-0.0290275,-0.186324,-0.0330001,0.0910759,0.707209,0.00417233,0.00947298,3.48694,5,0.1,23,1.2,0.22105,3.13173,0.654829,0.234086,-0.25745,-0.0289559,-0.221945,-0.633955,0.000566244,0.0188134,2.96582,5,0.1,24,1.2,1.21205,0.0591888,0.567589,-0.829291,0.120338,0.0273138,0.296295,0.0830255,-0.0102222,0.0110059,0.483291,5,0.1,25,1.2,5.30352,0.7,0.599689,0.0981212,-0.0997871,0.00177473,1.1363,0.194758,-0.00625849,0.00736346,0.272167,5,0.1,26,1.2,-3.70372,-2,0.500022,0.425208,0.241059,-0.00038296,-0.0470877,-0.0244379,0.00455976,0.0115766,2.02278,5,0.1,27,1.2,-3.2572,-2.2864,0.53802,0.231987,-0.438362,0.0011161,-0.191927,0.665069,-0.12511,0.0109349,0.236015,5,0.1,28,1.2,4.58815,-2.1,0.5,-0.326908,0.168806,0,0.123024,-0.0188351,0,0.0347651,0.704746,5,0.1,29,1.2,-3.62827,1.89104,0.830514,-0.369042,-0.35108,0.169466,0.330448,0.028491,-0.0742376,0.0118879,0.606688,5,0.1,30,1.2,0.168278,-2.96339,0.548666,-0.232577,0.555539,-0.0250354,0.133328,-0.0706911,0.0363886,0.011946,0.349984,5,0.1,31,1.2,-1.32962,-1.25407,0.586459,0.37064,0.865078,0.00541806,0.208378,-0.0189543,-8.9407e-05,0.0172875,2.16717,5,0.1,32,1.2,3.50786,-0.348191,0.651978,-0.545329,0.187897,-0.0196055,-0.908732,-0.0150949,0.00160933,0.0254665,2.50001,5,0.1,33,1.2,-4.87487,-2.8986,0.515905,0.296628,-0.448775,0.00834465,-0.155687,0.134587,-0.00527501,0.00935012,0.361008,5,0.1,34,1.2,2.05257,-0.251389,0.568075,-0.814241,-0.242529,0.0229612,0.431836,0.00366569,-0.000357628,0.0104817,2.42394,5,0.1,35,1.2,-3.2425,2.27318,0.642036,0.866026,0.00841022,-0.0611395,0,-0.261903,0.030756,0.0168505,2.27267,5,0.1,36,1.2,0.279607,-2.82608,0.924355,-0.235511,-0.0201702,0.358525,0.0884682,0.00751019,-0.134677,0.0171721,0.162786,5,0.1,37,1.2,-1.3317,1.83628,0.626125,0.86298,-0.435898,-0.0274539,-0.0609756,0.0625849,0.0184476,0.0211795,1.23861,5,0.1,38,1.2,-3.16821,-2.79055,0.710359,0.114226,0.63886,0.0724673,0.532508,-1.51765,0.161827,0.00830747,0.290614,5,0.1,39,1.2,-3.08274,4.00044,0.579225,-0.756216,-0.122702,0.0287965,0.892878,-0.235558,0.0728965,0.0128492,0.889994,5,0.1
0,1.3,-0.342214,4.01127,0.652648,0.191859,-0.512828,-0.0205239,0.0372715,1.27394,-0.00400841,0.0162963,3.06292,5,0.1,1,1.3,0.862687,2.07602,0.560533,-0.62648,-0.774621,0.0346912,0.249974,0.228308,-0.0138283,0.0382774,0.749494,5,0.1,2,1.3,-0.782657,4.92679,0.573807,0.437102,-0.866023,0.0151852,-0.0829138,-2.98023e-05,-0.00932813,0.0133021,2.16316,5,0.1,3,1.3,-4.55869,-2.97926,0.585704,0.643991,0.784892,0.017951,-0.35423,-1.20129,0.0892095,0.00722223,0.877445,5,0.1,4,1.3,-2.99314,-0.44516,0.628232,0.524341,-0.134305,-0.0249517,1.19488,0.101289,0.0103153,0.00941144,1.84282,5,0.1,5,1.3,-1.78017,-2.54751,0.586334,0.51296,0.23185,0.0120856,-0.212125,-0.589207,-0.00499189,0.00933061,0.297687,5,0.1,6,1.3,2.28856,-2.20603,0.729045,-0.0229951,0.69501,0.30653,0.0115186,-1.14477,0.145398,0.0199313,2.78842,5,0.1,7,1.3,-3.3605,-2.83322,0.556772,0.351536,0.0745833,-0.0980931,0.0155419,-0.609487,-0.0265725,0.0180858,1.61763,5,0.1,8,1.3,1.10981,-3.59406,0.623838,-0.323839,-0.27532,-0.0214546,0.0335723,0.0285357,0.002224,0.00899739,0.171008,5,0.1,9,1.3,0.0787679,-0.188299,0.559,0.833144,-0.173822,0.0272174,-0.510805,-0.00463147,0.000726432,0.0175645,2.34009,5,0.1,10,1.3,0.244236,2.04077,0.579083,-0.270082,-0.74323,0.0765899,0.11167,0.307441,-0.0316575,0.00889016,0.363491,5,0.1,11,1.3,2.66169,-5.74998,0.513784,-0.472917,-0.0599176,-0.00346918,0.195488,0.0247359,0.00144541,0.00880946,0.130877,5,0.1,12,1.3,-3.72626,4.25938,0.939265,-0.0209816,-0.346606,0.363138,0.00879169,0.0038445,-0.150133,0.0310252,0.211494,5,0.1,13,1.3,1.27532,1.84365,0.622196,-0.678452,-0.333955,-0.0194805,-0.048466,-0.0245124,0.0106767,0.0106337,0.827904,5,0.1,14,1.3,3.84256,-5.73645,0.65869,-0.856648,-0.0629656,-0.0210006,0.175908,-0.00831485,-0.0469238,0.0120282,2.31348,5,0.1,15,1.3,-3.65889,4.06952,0.500243,0.702981,0.0651531,-0.00213375,-0.481442,0.733584,0.0131018,0.0444726,2.7256,5,0.1,16,1.3,-0.174377,3.39112,0.709792,-0.13967,0.448408,0.0356428,-0.077975,-0.212386,-0.0131279,0.0130912,0.16253,5,0.1,17,1.3,-1.46031,-3.95064,0.716215,0.0749076,0.866026,0.0229436,0.000439584,-1.49012e-05,0.000145286,0.0188859,2.10492,5,0.1,18,1.3,-2.4785,1.62189,0.926051,0.0706103,-0.109695,0.381539,-0.00719726,0.011377,-0.0395291,0.0100584,0.153517,5,0.1,19,1.3,-1.53449,4.43228,0.594822,0.863083,-0.524723,0.00397786,0.0261068,0.0712574,-0.000536442,0.0684303,1.26946,5,0.1,20,1.3,-1.33791,2.27474,0.946013,-0.143289,0.243323,0.357182,0.059247,-0.100642,-0.147671,0.0165441,0.119401,5,0.1,21,1.3,-3.61806,4.72992,0.896972,0.0327423,-0.752161,0.399224,0.0687838,0.514358,-0.170622,0.0235861,0.569372,5,0.1,22,1.3,5.06063,0.714392,0.556489,-0.0201263,-0.138813,-0.0327614,0.0856817,0.15207,0.00226125,0.00947298,3.48694,5,0.1,23,1.3,0.243116,3.10157,0.65194,0.205222,-0.355453,-0.0287609,-0.343245,-1.21792,0.00423193,0.0188134,2.96582,5,0.1,24,1.3,1.1305,0.0716515,0.57027,-0.801988,0.128842,0.026302,0.280403,0.0788453,-0.0108629,0.0110059,0.483291,5,0.1,25,1.3,5.31883,0.690913,0.599836,0.205713,-0.0826875,0.00117552,0.987858,0.150472,-0.00560284,0.00736346,0.272167,5,0.1,26,1.3,-3.66145,-1.97602,0.500003,0.419712,0.238936,-5.4203e-05,-0.077486,0.00303984,0.00216812,0.0115766,2.02278,5,0.1,27,1.3,-3.23503,-2.327,0.537523,0.210633,-0.374445,-0.0108399,-0.233978,0.616103,-0.111256,0.0109349,0.236015,5,0.1,28,1.3,4.55606,-2.08321,0.5,-0.314752,0.166725,0,0.130266,-0.0288785,0,0.0347651,0.704746,5,0.1,29,1.3,-3.66413,1.856,0.847124,-0.353124,-0.349844,0.162885,0.0309199,0.013724,-0.064034,0.0118879,0.606688,5,0.1,30,1.3,0.145756,-2.90806,0.546409,-0.217135,0.551787,-0.0195846,0.176345,-0.0329167,0.0684857,0.011946,0.349984,5,0.1,31,1.3,-1.29118,-1.16757,0.587002,0.400414,0.86544,0.00544712,0.344872,0.00973046,0.000357628,0.0172875,2.16717,5,0.1,32,1.3,3.44818,-0.329436,0.650022,-0.651962,0.187363,-0.0195472,-1.1366,-0.00518933,0.000558794,0.0254665,2.50001,5,0.1,33,1.3,-4.84573,-2.94295,0.51673,0.287899,-0.439038,0.00829427,-0.041604,0.0830293,0.00302866,0.00935012,0.361008,5,0.1,34,1.3,1.97382,-0.275692,0.570376,-0.759563,-0.243853,0.0230854,0.527009,-0.0162721,0.00152737,0.0104817,2.42394,5,0.1,35,1.3,-3.1559,2.2727,0.63606,0.866026,-0.0177599,-0.0584633,0,-0.253469,0.0252463,0.0168505,2.27267,5,0.1,36,1.3,0.256332,-2.82806,0.959549,-0.231211,-0.0194259,0.345211,0.0147326,0.00798702,-0.142738,0.0171721,0.162786,5,0.1,37,1.3,-1.24545,1.79294,0.623471,0.863365,-0.431175,-0.025604,0.0229627,0.0516698,0.019107,0.0211795,1.23861,5,0.1,38,1.3,-3.15399,-2.73406,0.718637,0.17071,0.493018,0.0947504,0.567734,-1.39037,0.261825,0.00830747,0.290614,5,0.1,39,1.3,-3.15437,3.9867,0.582466,-0.680116,-0.154111,0.0359036,0.661179,-0.361845,0.0660196,0.0128492,0.889994,5,0.1
0,1.4,-0.322894,3.96597,0.650581,0.193794,-0.398219,-0.020732,-0.00676513,0.972867,0.000685453,0.0183864,3.32895,5,0.1,1,1.4,0.801451,1.99983,0.563924,-0.596277,-0.747094,0.033021,0.367582,0.346541,-0.0203848,0.0324928,0.514821,5,0.1,2,1.4,-0.739462,4.84019,0.575277,0.425431,-0.866032,0.0141814,-0.164181,0.000238419,-0.0110865,0.0115438,2.17243,5,0.1,3,1.4,-4.49644,-2.90784,0.588015,0.597489,0.63495,0.0287354,-0.571728,-1.71995,0.117064,0.00729215,0.147618,5,0.1,4,1.4,-2.93503,-0.458014,0.625795,0.63346,-0.122099,-0.0237167,0.934839,0.141412,0.0149012,0.0089459,0.328102,5,0.1,5,1.4,-1.73006,-2.52717,0.587514,0.487572,0.176543,0.0114873,-0.306666,-0.501275,-0.00721216,0.0092817,0.234508,5,0.1,6,1.4,2.28632,-2.14256,0.760327,-0.0217497,0.572348,0.317734,0.0141859,-1.26457,0.0633597,0.0181357,3.11202,5,0.1,7,1.4,-3.32498,-2.82863,0.546905,0.36059,0.0189781,-0.0984475,0.125647,-0.49603,0.0205338,0.0179885,1.36948,5,0.1,8,1.4,1.07759,-3.62144,0.621704,-0.319955,-0.272018,-0.0211984,0.0606179,0.0514984,0.00405312,0.00905219,0.100111,5,0.1,9,1.4,0.159171,-0.205658,0.561719,0.772354,-0.172742,0.0270486,-0.667133,0.0327155,-0.0050962,0.0162963,2.18372,5,0.1,10,1.4,0.217855,1.96817,0.586565,-0.256716,-0.706437,0.0728011,0.161432,0.444233,-0.0457764,0.00932665,0.239265,5,0.1,11,1.4,2.6155,-5.75584,0.513445,-0.44952,-0.0569582,-0.00329614,0.282764,0.0357628,0.00205636,0.00945914,0.146717,5,0.1,12,1.4,-3.72831,4.22483,0.974737,-0.0199378,-0.343132,0.345168,0.0126362,0.0777245,-0.216991,0.0291097,0.145563,5,0.1,13,1.4,1.20749,1.8102,0.620308,-0.675017,-0.333902,-0.0181973,0.137866,0.0396371,0.0151694,0.0100855,0.618496,5,0.1,14,1.4,3.75801,-5.74277,0.65638,-0.83214,-0.0631809,-0.0249386,0.312924,0.0064373,-0.0306368,0.0117581,2.41681,5,0.1,15,1.4,-3.59071,4.07984,0.500088,0.662577,0.141644,-0.00103563,-0.365734,0.752926,0.00885129,0.00864972,1.0219,5,0.1,16,1.4,-0.188691,3.43476,0.713283,-0.145971,0.422937,0.034073,-0.0405312,-0.303864,-0.0191629,0.00933249,0.130529,5,0.1,17,1.4,-1.45283,-3.86404,0.718503,0.0742614,0.866026,0.0227466,-0.0160336,0,-0.00494719,0.0178323,1.66184,5,0.1,18,1.4,-2.47147,1.61097,0.964003,0.0697732,-0.108376,0.376964,-0.013113,0.0204444,-0.0713468,0.0105607,0.207186,5,0.1,19,1.4,-1.44822,4.38033,0.595216,0.859836,-0.512207,0.00388473,-0.123739,0.193119,-0.00149012,0.067138,1.73584,5,0.1,20,1.4,-1.35191,2.2985,0.980903,-0.1362,0.231284,0.339507,0.0856519,-0.145555,-0.213504,0.0168831,0.133856,5,0.1,21,1.4,-3.61444,4.65743,0.935941,0.0393748,-0.695968,0.378934,0.0597239,0.620842,-0.243515,0.0236836,0.41638,5,0.1,22,1.4,5.05902,0.7,0.553232,-0.0120997,-0.161068,-0.0322685,0.0736713,-0.55775,0.00876188,0.0115052,3.10588,5,0.1,23,1.4,0.261805,3.0597,0.649097,0.167641,-0.482053,-0.0279635,-0.398427,-1.23239,0.0122786,0.0196594,2.57991,5,0.1,24,1.4,1.05188,0.084868,0.572839,-0.768065,0.134721,0.0250012,0.418782,0.0330693,-0.0157356,0.0104362,0.328961,5,0.1,25,1.4,5.34391,0.683345,0.599928,0.291085,-0.0691175,0.000673532,0.701427,0.123441,-0.00438094,0.00813027,0.201253,5,0.1,26,1.4,-3.62001,-1.95196,0.500005,0.407273,0.244197,7.89762e-05,-0.18084,0.106215,0.000596046,0.0110624,1.7896,5,0.1,27,1.4,-3.2152,-2.36142,0.535924,0.185466,-0.314683,-0.0206754,-0.267744,0.580907,-0.0835359,0.00897594,0.198933,5,0.1,28,1.4,4.52532,-2.06674,0.5,-0.299168,0.162023,0,0.188112,-0.0691414,0,0.0312159,1.25053,5,0.1,29,1.4,-3.69949,1.82118,0.863065,-0.355309,-0.345376,0.15554,-0.0419617,0.0877976,-0.08744,0.0146055,0.460415,5,0.1,30,1.4,0.125,-2.85317,0.544817,-0.197232,0.544119,-0.0120789,0.22161,-0.140548,0.0784397,0.0106991,0.246326,5,0.1,31,1.4,-1.24947,-1.08101,0.587547,0.432318,0.865182,0.00543743,0.262558,-0.0169277,-0.00077486,0.0154983,2.13069,5,0.1,32,1.4,3.37752,-0.310773,0.648075,-0.757575,0.18523,-0.0193223,-0.911951,-0.044167,0.00461936,0.0168141,2.31382,5,0.1,33,1.4,-4.81712,-2.98637,0.51758,0.284362,-0.428271,0.00873059,-0.0455379,0.148535,0.00479817,0.00933761,0.26312,5,0.1,34,1.4,1.9,-0.300099,0.572687,-0.721943,-0.243423,0.0230432,0.229061,0.0346005,-0.00327826,0.010501,2.41821,5,0.1,35,1.4,-3.0693,2.26973,0.630347,0.866026,-0.0409067,-0.0556707,0,-0.203848,0.0323355,0.0110623,2.26807,5,0.1,36,1.4,0.233279,-2.82996,0.993269,-0.229592,-0.0184655,0.328127,0.0301674,0.0116825,-0.206351,0.0183238,0.115326,5,0.1,37,1.4,-1.15916,1.75019,0.621011,0.859979,-0.422221,-0.0235423,-0.120938,0.140965,0.022471,0.0212064,1.00746,5,0.1,38,1.4,-3.13422,-2.69144,0.729437,0.222713,0.362313,0.120991,0.451326,-1.2176,0.246644,0.00732289,0.220691,5,0.1,39,1.4,-3.21924,3.96948,0.586354,-0.61841,-0.189722,0.0414565,0.596642,-0.327587,0.0427961,0.0099343,0.701499,5,0.1
0,1.5,-0.303385,3.93027,0.648357,0.19756,-0.322377,-0.0250253,0.0642445,0.577077,-0.0759996,0.0183864,3.32895,5,0.1,1,1.5,0.743591,1.9268,0.567128,-0.561185,-0.713447,0.0310752,0.351291,0.348918,-0.0194721,0.0324928,0.514821,5,0.1,2,1.5,-0.697602,4.75358,0.576645,0.41262,-0.866023,0.0132124,-0.112727,-2.98023e-05,-0.00884756,0.0115438,2.17243,5,0.1,3,1.5,-4.43933,-2.85255,0.591521,0.54632,0.474827,0.0416495,-0.472009,-1.48024,0.133485,0.00729215,0.147618,5,0.1,4,1.5,-2.86775,-0.469429,0.623495,0.704496,-0.105457,-0.0222952,0.478908,0.186468,0.0141971,0.0089459,0.328102,5,0.1,5,1.5,-1.68278,-2.51183,0.588628,0.458321,0.132602,0.0107991,-0.292212,-0.354037,-0.00688434,0.0092817,0.234508,5,0.1,6,1.5,2.28421,-2.09188,0.792508,-0.0205483,0.441073,0.326282,0.0108033,-1.27776,0.087209,0.0181357,3.11202,5,0.1,7,1.5,-3.28765,-2.82888,0.537259,0.390972,-0.0206433,-0.0936012,0.423133,-0.303388,0.0736825,0.0179885,1.36948,5,0.1,8,1.5,1.04584,-3.64844,0.6196,-0.315237,-0.268013,-0.020883,0.0484288,0.0411123,0.0032261,0.00905219,0.100111,5,0.1,9,1.5,0.233023,-0.224203,0.564402,0.704381,-0.210023,0.0266246,-0.687449,-0.681989,-0.0045523,0.0162963,2.18372,5,0.1,10,1.5,0.192959,1.89966,0.593625,-0.241317,-0.664065,0.0684346,0.153828,0.423297,-0.0436269,0.00932665,0.239265,5,0.1,11,1.5,2.57167,-5.76139,0.513124,-0.429241,-0.0543967,-0.00314871,0.15071,0.0190139,0.00109896,0.00945914,0.146717,5,0.1,12,1.5,-3.73024,4.19086,1.00821,-0.0187345,-0.336408,0.324469,0.0120103,0.0710785,-0.206783,0.0291097,0.145563,5,0.1,13,1.5,1.14083,1.77696,0.618568,-0.656196,-0.330948,-0.0165607,0.251412,0.0345111,0.0175796,0.0100855,0.618496,5,0.1,14,1.5,3.67693,-5.74907,0.653736,-0.787419,-0.0629783,-0.0278593,0.447795,0.00101328,-0.0260584,0.0117581,2.41681,5,0.1,15,1.5,-3.5281,4.09717,0.500021,0.574016,0.199024,-0.000371132,-1.30549,0.404209,0.00466779,0.00864972,1.0219,5,0.1,16,1.5,-0.203562,3.47522,0.716639,-0.151859,0.383318,0.0334091,-0.0656703,-0.476062,0.00227615,0.00933249,0.130529,5,0.1,17,1.5,-1.44548,-3.77744,0.720756,0.0728702,0.865992,0.0223175,-0.0148788,-0.0013411,-0.00458211,0.0178323,1.66184,5,0.1,18,1.5,-2.46427,1.59994,1.00141,0.0766557,-0.114687,0.371413,0.129864,-0.123985,-0.056982,0.0105607,0.207186,5,0.1,19,1.5,-1.36238,4.32972,0.595597,0.860268,-0.502679,0.00374317,0.0723228,0.0345707,-0.00147521,0.067138,1.73584,5,0.1,20,1.5,-1.36519,2.32105,1.01401,-0.130058,0.220847,0.324195,0.0456274,-0.0775307,-0.113796,0.0168831,0.133856,5,0.1,21,1.5,-3.61021,4.59075,0.972665,0.0452451,-0.638945,0.355747,0.0543296,0.540197,-0.230961,0.0236836,0.41638,5,0.1,22,1.5,5.05817,0.679661,0.55004,-0.00523105,-0.257221,-0.0316212,0.0629127,-1.2508,0.0057742,0.0115052,3.10588,5,0.1,23,1.5,0.27654,3.00486,0.646359,0.126899,-0.617409,-0.026801,-0.408651,-1.38775,0.0118986,0.0196594,2.57991,5,0.1,24,1.5,0.977053,0.0985077,0.575264,-0.729018,0.137925,0.0235,0.387389,0.0244825,-0.0150017,0.0104362,0.328961,5,0.1,25,1.5,5.37634,0.677029,0.599976,0.355048,-0.0574277,0.0003119,0.556409,0.110757,-0.0028573,0.00813027,0.201253,5,0.1,26,1.5,-3.58017,-1.92705,0.500015,0.389561,0.255701,0.000102073,-0.185594,0.199318,-7.45058e-05,0.0110624,1.7896,5,0.1,27,1.5,-3.19797,-2.39034,0.53348,0.15931,-0.266594,-0.0277686,-0.255972,0.397652,-0.0575669,0.00897594,0.198933,5,0.1,28,1.5,4.4963,-2.0511,0.5,-0.281225,0.148967,0,0.179231,-0.18166,0,0.0312159,1.25053,5,0.1,29,1.5,-3.73551,1.78703,0.878211,-0.367113,-0.337656,0.147553,-0.160873,0.0807121,-0.0777282,0.0146055,0.460415,5,0.1,30,1.5,0.106383,-2.79937,0.54402,-0.175089,0.532103,-0.00376664,0.222491,-0.122726,0.0847504,0.0106991,0.246326,5,0.1,31,1.5,-1.20471,-0.9945,0.588089,0.463996,0.865488,0.00540698,0.332229,0.0080429,-0.000145286,0.0154983,2.13069,5,0.1,32,1.5,3.29782,-0.292417,0.64616,-0.82969,0.182206,-0.019006,-0.516713,-0.0258032,0.00270084,0.0168141,2.31382,5,0.1,33,1.5,-4.78878,-3.02855,0.518484,0.283097,-0.415716,0.00940505,0.00238419,0.120983,0.0077337,0.00933761,0.26312,5,0.1,34,1.5,1.8278,-0.324348,0.574982,-0.731129,-0.242013,0.0229093,-0.318363,0.00732578,-0.000696629,0.010501,2.41821,5,0.1,35,1.5,-2.98269,2.26463,0.624921,0.866026,-0.0606462,-0.0530079,0,-0.184059,0.0234991,0.0110623,2.26807,5,0.1,36,1.5,0.210386,-2.83175,1.02509,-0.228751,-0.0173509,0.308444,0.000215136,0.0111163,-0.196636,0.0183238,0.115326,5,0.1,37,1.5,-1.07358,1.70855,0.618765,0.852455,-0.411332,-0.0213924,-0.0720918,0.0972301,0.0210144,0.0212064,1.00746,5,0.1,38,1.5,-3.10988,-2.66058,0.742917,0.26214,0.261485,0.149507,0.325829,-0.82165,0.301853,0.00732289,0.220691,5,0.1,39,1.5,-3.2788,3.94931,0.590635,-0.578586,-0.209383,0.0434467,0.250816,-0.0761747,-0.00103191,0.0099343,0.701499,5,0.1
0,1.6,-0.283311,3.90049,0.64542,0.203557,-0.27687,-0.034067,0.0426471,0.359058,-0.0967383,0.0177761,3.34405,5,0.1,1,1.6,0.689315,1.85736,0.570133,-0.523174,-0.673559,0.0289693,0.420362,0.463843,-0.0232756,0.0300522,0.583104,5,0.1,2,1.6,-0.656957,4.66698,0.577922,0.39936,-0.866032,0.0123173,-0.167042,0.000238419,-0.00944734,0.0112793,2.18706,5,0.1,3,1.6,-4.38703,-2.81206,0.596328,0.499606,0.339204,0.0540972,-0.476122,-1.23143,0.109822,0.0527846,0.981553,5,0.1,4,1.6,-2.7957,-0.479002,0.621339,0.728482,-0.08571,-0.0207648,0.000476837,0.204399,0.0168979,0.00909193,0.0958685,5,0.1,5,1.6,-1.63848,-2.5,0.589672,0.426817,0.107431,0.0100583,-0.347137,-0.155807,-0.00819564,0.00897629,0.179264,5,0.1,6,1.6,2.28221,-2.05367,0.825475,-0.0194252,0.329185,0.33171,0.0120401,-0.919461,0.00709295,0.0175408,3.22721,5,0.1,7,1.6,-3.24635,-2.83219,0.528336,0.434935,-0.0430465,-0.0842318,0.412345,-0.151157,0.111163,0.0204727,1.10857,5,0.1,8,1.6,1.01464,-3.67496,0.617533,-0.307792,-0.261688,-0.0203878,0.110656,0.0939369,0.00733137,0.0112663,0.0570975,5,0.1,9,1.6,0.3,-0.24914,0.567035,0.634794,-0.292079,0.0259414,-0.709891,-0.884861,-0.00992417,0.0155614,1.12348,5,0.1,10,1.6,0.169632,1.83547,0.60024,-0.224732,-0.618425,0.0637323,0.182778,0.502944,-0.051856,0.0105963,0.157264,5,0.1,11,1.6,2.52947,-5.76674,0.512814,-0.414568,-0.0525355,-0.00304282,0.163078,0.0202656,0.0012219,0.00908832,0.0850151,5,0.1,12,1.6,-3.73206,4.15766,1.03958,-0.0174403,-0.326514,0.302172,0.0141859,0.136852,-0.24575,0.00874088,0.225381,5,0.1,13,1.6,1.07674,1.74413,0.617004,-0.622717,-0.324461,-0.0146851,0.425577,0.10556,0.0199378,0.0114996,0.47061,5,0.1,14,1.6,3.6,-5.75535,0.650839,-0.755602,-0.0623941,-0.0298619,0.192046,0.0133514,-0.0127852,0.0125451,2.27261,5,0.1,15,1.6,-3.4781,4.11858,0.500002,0.41945,0.224411,-5.66244e-05,-1.70624,0.113487,0.00184774,0.0101662,0.419899,5,0.1,16,1.6,-0.21904,3.51097,0.720002,-0.157127,0.330061,0.0338987,-0.0314489,-0.578284,0.00482798,0.0103717,0.204986,5,0.1,17,1.6,-1.43828,-3.69086,0.722959,0.0707626,0.865483,0.0216722,-0.0292659,-0.0107288,-0.0090301,0.0183339,1.27576,5,0.1,18,1.6,-2.45586,1.58777,1.03818,0.0920653,-0.129193,0.362644,0.162363,-0.149071,-0.130177,0.00999622,0.1326,5,0.1,19,1.6,-1.27607,4.27961,0.595963,0.864011,-0.498867,0.00356734,-0.0402927,0.0684261,-0.00211596,0.0444128,0.908796,5,0.1,20,1.6,-1.37798,2.34277,1.04588,-0.125614,0.213301,0.313112,0.0494123,-0.0839233,-0.123143,0.0169352,0.077565,5,0.1,21,1.6,-3.60544,4.52956,1.00703,0.0496805,-0.584435,0.330949,0.0318289,0.564575,-0.272334,0.0232184,0.308195,5,0.1,22,1.6,5.05793,0.647318,0.546913,0.000369549,-0.391068,-0.0308439,0.048399,-1.33905,0.0108778,0.00922445,2.69017,5,0.1,23,1.6,0.287223,2.93651,0.643744,0.0872754,-0.744623,-0.0254288,-0.377908,-1.09386,0.0162125,0.0202812,2.35924,5,0.1,24,1.6,0.906204,0.112365,0.577535,-0.686353,0.138525,0.0218824,0.483125,-0.0168902,-0.017792,0.010476,0.27401,5,0.1,25,1.6,5.41425,0.671821,0.599995,0.398862,-0.0468984,9.83477e-05,0.305653,0.100106,-0.00146031,0.0418075,2.10131,5,0.1,26,1.6,-3.54223,-1.9,0.500024,0.36813,0.289795,7.45058e-05,-0.251293,0.464499,-0.000447035,0.011052,1.49931,5,0.1,27,1.6,-3.1833,-2.4152,0.530463,0.134188,-0.232178,-0.0320807,-0.246406,0.303745,-0.028342,0.010444,0.162435,5,0.1,28,1.6,4.46912,-2.03723,0.5,-0.261903,0.127548,0,0.212908,-0.238299,0,0.0426729,1.22491,5,0.1,29,1.6,-3.773,1.75376,0.892558,-0.381738,-0.32686,0.139077,-0.107288,0.14478,-0.0954568,0.0115131,0.33997,5,0.1,30,1.6,0.0899957,-2.7469,0.544056,-0.152555,0.515693,0.00433922,0.228752,-0.221014,0.0751317,0.0135073,0.169866,5,0.1,31,1.6,-1.1568,-0.907951,0.588628,0.492126,0.865021,0.00535548,0.202596,-0.0200868,-0.00107288,0.0152174,2.1006,5,0.1,32,1.6,3.21297,-0.274358,0.644276,-0.86053,0.178454,-0.018616,-0.109911,-0.0559092,0.00587106,0.0213408,2.25459,5,0.1,33,1.6,-4.7605,-3.06943,0.519462,0.281787,-0.40096,0.0101119,-0.0414848,0.186801,0.00575185,0.00985103,0.186762,5,0.1,34,1.6,1.75283,-0.348466,0.577265,-0.7691,-0.23962,0.0226825,-0.370324,0.050202,-0.00476837,0.0109835,2.28942,5,0.1,35,1.6,-2.89609,2.25773,0.61974,0.866026,-0.0765681,-0.0505298,0,-0.129461,0.0278652,0.0111907,2.26503,5,0.1,36,1.6,0.187554,-2.83343,1.05491,-0.227234,-0.0161529,0.287244,0.0396967,0.0132322,-0.233591,0.0176098,0.138487,5,0.1,37,1.6,-0.988896,1.66797,0.616732,0.838347,-0.399303,-0.0192583,-0.23964,0.157654,0.0219941,0.0226474,0.648082,5,0.1,38,1.6,-3.08232,-2.63804,0.75932,0.286049,0.193834,0.177599,0.145555,-0.550032,0.24417,0.00724508,0.350323,5,0.1,39,1.6,-3.33563,3.92834,0.594916,-0.559324,-0.206989,0.0416264,0.172496,0.114322,-0.033617,0.00944498,0.526682,5,0.1
0,1.7,-0.26218,3.87421,0.641468,0.223536,-0.252339,-0.0453644,0.312047,0.143737,-0.121046,0.0177761,3.34405,5,0.1,1,1.7,0.639,1.79294,0.572919,-0.483744,-0.609421,0.0267861,0.382576,0.786074,-0.021182,0.0300522,0.583104,5,0.1,2,1.7,-0.617747,4.58038,0.579114,0.385485,-0.866023,0.0115979,-0.128221,-2.98023e-05,-0.00565872,0.0112793,2.18706,5,0.1,3,1.7,-4.33917,-2.78284,0.602131,0.459703,0.257967,0.060514,-0.344843,-0.461087,0.022836,0.0527846,0.981553,5,0.1,4,1.7,-2.72335,-0.486544,0.619343,0.713499,-0.0651291,-0.0191811,-0.297517,0.203935,0.0153445,0.00909193,0.0958685,5,0.1,5,1.7,-1.59745,-2.48966,0.590639,0.394274,0.102449,0.00928994,-0.315361,0.0330955,-0.00744313,0.00897629,0.179264,5,0.1,6,1.7,2.28032,-2.02458,0.858763,-0.0184279,0.260695,0.334391,0.00880659,-0.446051,0.0279061,0.0175408,3.22721,5,0.1,7,1.7,-3.20038,-2.83678,0.520586,0.48711,-0.0447117,-0.0697718,0.5752,0.0946522,0.170577,0.0204727,1.10857,5,0.1,8,1.7,0.98441,-3.7005,0.615531,-0.296581,-0.247339,-0.0196452,0.122774,0.190154,0.00812486,0.0112663,0.0570975,5,0.1,9,1.7,0.360139,-0.283004,0.569583,0.569646,-0.38613,0.0250283,-0.609971,-0.942944,-0.00928715,0.0155614,1.12348,5,0.1,10,1.7,0.14803,1.77602,0.606366,-0.207598,-0.571278,0.0588714,0.166048,0.456899,-0.0470988,0.0105963,0.157264,5,0.1,11,1.7,2.48873,-5.7719,0.512515,-0.400827,-0.0508271,-0.00294,0.129864,0.0162423,0.000968575,0.00908832,0.0850151,5,0.1,12,1.7,-3.73401,4.12532,1.06827,-0.0238668,-0.323188,0.269142,-0.124887,-0.0376403,-0.400826,0.00874088,0.225381,5,0.1,13,1.7,1.01658,1.7124,0.615632,-0.580287,-0.308289,-0.0127778,0.435881,0.214368,0.0183769,0.0114996,0.47061,5,0.1,14,1.7,3.52434,-5.76154,0.647789,-0.765955,-0.0614785,-0.0310941,-0.307709,0.00807643,-0.0102893,0.0125451,2.27261,5,0.1,15,1.7,-3.44463,4.14177,0.500003,0.25126,0.240537,5.33648e-05,-1.6254,0.185102,0.000473112,0.0101662,0.419899,5,0.1,16,1.7,-0.234745,3.54113,0.723488,-0.155403,0.273603,0.0363687,0.0629444,-0.549436,0.0385568,0.0103717,0.204986,5,0.1,17,1.7,-1.43136,-3.60431,0.725084,0.0677088,0.865447,0.0208363,-0.0335798,-0.00424683,-0.00845641,0.0183339,1.27576,5,0.1,18,1.7,-2.44576,1.57422,1.07379,0.110371,-0.140405,0.349451,0.189915,-0.0729635,-0.144534,0.00999622,0.1326,5,0.1,19,1.7,-1.18978,4.23004,0.59631,0.861668,-0.492272,0.00336803,-0.0455007,0.0828505,-0.00198185,0.0444128,0.908796,5,0.1,20,1.7,-1.39032,2.36373,1.07665,-0.12145,0.206231,0.302735,0.0393391,-0.066787,-0.0980869,0.0169352,0.077565,5,0.1,21,1.7,-3.60034,4.47369,1.03883,0.0519842,-0.534961,0.305495,0.0130832,0.446886,-0.245892,0.0232184,0.308195,5,0.1,22,1.7,5.0582,0.601432,0.543873,0.00474229,-0.525893,-0.030021,0.0385344,-1.29623,0.0071153,0.00922445,2.69017,5,0.1,23,1.7,0.294105,2.85744,0.641275,0.0509463,-0.828043,-0.023996,-0.343431,-0.571817,0.0134148,0.0202812,2.35924,5,0.1,24,1.7,0.839853,0.126181,0.579639,-0.641435,0.138085,0.020214,0.436194,6.96629e-06,-0.0161678,0.010476,0.27401,5,0.1,25,1.7,5.45358,0.667083,0.599842,0.369804,-0.0524927,-0.00446551,-0.78097,-0.178561,-0.0799596,0.0418075,2.10131,5,0.1,26,1.7,-3.50662,-1.86795,0.500029,0.344257,0.356833,3.05474e-05,-0.236392,0.803322,-0.000424683,0.011052,1.49931,5,0.1,27,1.7,-3.17091,-2.43727,0.527212,0.115594,-0.212547,-0.0320571,-0.136644,0.112787,0.0247322,0.010444,0.162435,5,0.1,28,1.7,4.44394,-2.02583,0.5,-0.241946,0.0991713,0,0.193417,-0.307247,0,0.0426729,1.22491,5,0.1,29,1.7,-3.81183,1.72175,0.906017,-0.395362,-0.31346,0.130291,-0.139192,0.134751,-0.0847355,0.0115131,0.33997,5,0.1,30,1.7,0.0758479,-2.69636,0.544863,-0.130726,0.495427,0.0117115,0.209223,-0.203028,0.0700243,0.0135073,0.169866,5,0.1,31,1.7,-1.10636,-0.821454,0.58916,0.517644,0.865369,0.00528162,0.268765,0.00887737,-0.000674278,0.0152174,2.1006,5,0.1,32,1.7,3.12658,-0.256728,0.642437,-0.865682,0.174555,-0.0182065,-0.0137389,-0.0315588,0.00331178,0.0213408,2.25459,5,0.1,33,1.7,-4.73246,-3.10867,0.520505,0.279273,-0.384108,0.0107463,-0.0230074,0.165224,0.00619516,0.00985103,0.186762,5,0.1,34,1.7,1.67374,-0.372263,0.579518,-0.814378,-0.236843,0.0224181,-0.471614,0.0188127,-0.00179186,0.0109835,2.28942,5,0.1,35,1.7,-2.80949,2.24943,0.614804,0.866026,-0.0890262,-0.0483528,0,-0.113368,0.0182688,0.0111907,2.26503,5,0.1,36,1.7,0.164796,-2.83499,1.08266,-0.229666,-0.0151362,0.269324,-0.0655986,0.00806153,-0.141643,0.0176098,0.138487,5,0.1,37,1.7,-0.90613,1.62926,0.614911,0.817382,-0.370846,-0.0172025,-0.213988,0.395067,0.0195503,0.0226474,0.648082,5,0.1,38,1.7,-3.05336,-2.62195,0.778409,0.289658,0.12365,0.204694,-0.0658035,-0.810057,0.276215,0.00724508,0.350323,5,0.1,39,1.7,-3.39106,3.9084,0.598879,-0.551889,-0.189988,0.0373548,0.0160486,0.218391,-0.0504628,0.00944498,0.526682,5,0.1
0,1.8,-0.238126,3.84943,0.636342,0.258086,-0.24544,-0.0568613,0.345021,0.00882149,-0.102907,0.00648915,0.647363,5,0.1,1,1.8,0.592571,1.73624,0.57549,-0.44425,-0.522172,0.0245988,0.417054,0.933468,-0.023067,0.0068317,0.274096,5,0.1,2,1.8,-0.579894,4.49378,0.580247,0.370696,-0.866032,0.0110611,-0.179946,0.000238419,-0.00560284,0.0102805,2.22022,5,0.1,3,1.8,-4.29486,-2.75854,0.608183,0.426686,0.234818,0.059481,-0.332117,-0.0559092,-0.0396073,0.0560593,0.75708,5,0.1,4,1.8,-2.65396,-0.49206,0.617503,0.669777,-0.0454977,-0.0175998,-0.571847,0.186175,0.0166297,0.00853501,0.176289,5,0.1,5,1.8,-1.55962,-2.4791,0.59153,0.361782,0.109965,0.00852346,-0.342369,0.0994205,-0.00807643,0.00888021,0.134016,5,0.1,6,1.8,2.27852,-2,0.892252,-0.0175118,0.237581,0.334132,0.0101328,-0.0444651,-0.0461042,0.0156451,3.18972,5,0.1,7,1.8,-3.1489,-2.84053,0.514509,0.54031,-0.0282943,-0.0514537,0.448108,0.215173,0.189841,0.00650929,0.609148,5,0.1,8,1.8,0.955447,-3.72414,0.613612,-0.281714,-0.224262,-0.0186607,0.180572,0.267982,0.0119507,0.00940647,0.143232,5,0.1,9,1.8,0.414107,-0.326068,0.572034,0.509918,-0.471535,0.0239238,-0.596508,-0.727027,-0.0134706,0.0168318,0.843572,5,0.1,10,1.8,0.128113,1.72121,0.612014,-0.19049,-0.524202,0.0540182,0.180282,0.49603,-0.051111,0.0122981,0.103768,5,0.1,11,1.8,2.44936,-5.7769,0.512227,-0.385523,-0.0489116,-0.00282675,0.188828,0.0238419,0.00140071,0.00759432,0.0644935,5,0.1,12,1.8,-3.73712,4.09274,1.09302,-0.0392556,-0.32835,0.224578,-0.16892,-0.0419617,-0.478804,0.00810375,0.211355,5,0.1,13,1.8,0.960833,1.6828,0.614445,-0.533436,-0.282288,-0.0109822,0.509322,0.302017,0.017643,0.00973127,0.458943,5,0.1,14,1.8,3.446,-5.76763,0.644643,-0.801182,-0.0602484,-0.031656,-0.328898,0.0188351,0.000119209,0.0117057,1.7662,5,0.1,15,1.8,-3.42728,4.1667,0.50001,0.0998855,0.257301,5.96046e-05,-1.37913,0.132799,-0.000238419,0.0396387,3.87391,5,0.1,16,1.8,-0.249836,3.56581,0.727332,-0.145148,0.220448,0.0405565,0.139028,-0.512123,0.0407398,0.00964074,0.167894,5,0.1,17,1.8,-1.42477,-3.51789,0.727122,0.0637591,0.861633,0.0198498,-0.0464916,-0.0879765,-0.0117421,0.0184349,0.951544,5,0.1,18,1.8,-2.43382,1.55996,1.10792,0.127673,-0.143486,0.331944,0.145912,0.0119805,-0.212669,0.00986758,0.0926954,5,0.1,19,1.8,-1.10411,4.18138,0.596636,0.848365,-0.479054,0.00315309,-0.247061,0.194788,-0.00238419,0.0417749,0.634593,5,0.1,20,1.8,-1.40225,2.38399,1.10638,-0.116813,0.198364,0.291175,0.0571609,-0.0971556,-0.142634,0.0152527,0.180422,5,0.1,21,1.8,-3.59512,4.42238,1.06814,0.0521183,-0.491273,0.280228,-0.0110865,0.442505,-0.265658,0.023461,0.227384,5,0.1,22,1.8,5.05885,0.542846,0.54091,0.0079751,-0.639887,-0.0291571,0.0264645,-0.940591,0.0112653,0.00885134,2.74013,5,0.1,23,1.8,0.297576,2.7726,0.638945,0.0194773,-0.86081,-0.0225812,-0.282362,-0.104189,0.015527,0.0209132,2.2754,5,0.1,24,1.8,0.777953,0.139964,0.581578,-0.595587,0.137148,0.0185475,0.495106,-0.0244603,-0.0175834,0.00993781,0.15041,5,0.1,25,1.8,5.48559,0.660708,0.598933,0.261712,-0.0766665,-0.0141397,-1.2958,-0.27886,-0.105888,0.0375834,1.73766,5,0.1,26,1.8,-3.47342,-1.82818,0.50003,0.319135,0.437722,-8.9407e-06,-0.27287,0.759959,-0.000357628,0.0103954,1.17855,5,0.1,27,1.8,-3.15992,-2.45812,0.52419,0.10488,-0.205415,-0.0278816,-0.0863075,0.0482798,0.0554323,0.010564,0.224108,5,0.1,28,1.8,4.42073,-2.01742,0.5,-0.222015,0.0697196,0,0.210047,-0.267625,0,0.0407348,3.49749,5,0.1,29,1.8,-3.85194,1.69114,0.918611,-0.405151,-0.297973,0.121373,-0.0380278,0.182807,-0.0967383,0.0117637,0.242786,5,0.1,30,1.8,0.0637981,-2.64793,0.546361,-0.110479,0.471932,0.0179544,0.196626,-0.279546,0.0532568,0.0111431,0.115349,5,0.1,31,1.8,-1.05341,-0.734925,0.589683,0.53921,0.864555,0.00517517,0.134885,-0.0293851,-0.00160933,0.016346,2.07862,5,0.1,32,1.8,3.03998,-0.239454,0.640636,-0.866026,0.170522,-0.0177845,0,-0.0558421,0.00584126,0.0225001,2.25432,5,0.1,33,1.8,-4.70472,-3.14619,0.521606,0.274789,-0.365394,0.0112236,-0.0770092,0.219464,0.00286102,0.0099998,0.129584,5,0.1,34,1.8,1.59019,-0.395815,0.581747,-0.853005,-0.233555,0.0221059,-0.260413,0.0564903,-0.00533462,0.0125358,2.25917,5,0.1,35,1.8,-2.72289,2.24003,0.610061,0.866026,-0.0981867,-0.0464335,0,-0.0653267,0.0220239,0.0102768,2.26345,5,0.1,36,1.8,0.141481,-2.83646,1.10892,-0.23641,-0.0143826,0.256002,-0.0525674,0.0077486,-0.137091,0.0173653,0.0861172,5,0.1,37,1.8,-0.825649,1.59443,0.613287,0.789765,-0.323352,-0.0152767,-0.361949,0.540555,0.0192225,0.0187343,0.470462,5,0.1,38,1.8,-3.02501,-2.61376,0.800167,0.27439,0.0395238,0.229156,-0.2321,-0.838757,0.197649,0.00943519,0.216614,5,0.1,39,1.8,-3.44616,3.89062,0.602344,-0.549227,-0.164682,0.0317842,0.0658035,0.281334,-0.0598133,0.010291,0.390903,5,0.1
0,1.9,-0.211312,3.82627,0.630046,0.271599,-0.206416,-0.0697113,-0.0500344,0.69648,-0.142585,0.00648915,0.647363,5,0.1,1,1.9,0.549818,1.68906,0.57771,-0.41414,-0.418567,0.0187565,0.216484,1.10759,-0.086166,0.0068317,0.274096,5,0.1,2,1.9,-0.543731,4.40718,0.581284,0.35227,-0.865471,0.00930559,-0.19747,0.0220537,-0.0271425,0.0102805,2.22022,5,0.1,3,1.9,-4.25367,-2.73464,0.613866,0.398483,0.248779,0.0535812,-0.250429,0.283569,-0.0753105,0.0560593,0.75708,5,0.1,4,1.9,-2.58968,-0.495704,0.615822,0.617054,-0.0276829,-0.0160591,-0.502393,0.16783,0.0146665,0.00853501,0.176289,5,0.1,5,1.9,-1.52506,-2.46744,0.592344,0.330062,0.124298,0.00777524,-0.301868,0.16965,-0.00712276,0.00888021,0.134016,5,0.1,6,1.9,2.27681,-1.97644,0.925509,-0.0166766,0.234561,0.331345,0.00739098,0.00818074,-0.0263117,0.0156451,3.18972,5,0.1,7,1.9,-3.09397,-2.84333,0.510235,0.546167,-0.0365812,-0.0347788,-0.281394,-0.320002,0.144847,0.00650929,0.609148,5,0.1,8,1.9,0.928181,-3.74507,0.611806,-0.263436,-0.193037,-0.0174509,0.190634,0.347719,0.0126213,0.00940647,0.143232,5,0.1,9,1.9,0.462307,-0.376858,0.574363,0.45564,-0.543227,0.0226704,-0.503305,-0.665732,-0.0123829,0.0168318,0.843572,5,0.1,10,1.9,0.109917,1.67114,0.617174,-0.173787,-0.478246,0.0492829,0.158948,0.437342,-0.0450648,0.0122981,0.103768,5,0.1,11,1.9,2.41162,-5.78169,0.51195,-0.370133,-0.0469677,-0.00271266,0.137851,0.0174344,0.001017,0.00759432,0.0644935,5,0.1,12,1.9,-3.74205,4.05981,1.11311,-0.0604764,-0.328901,0.17753,-0.238627,0.0383258,-0.458039,0.00810375,0.211355,5,0.1,13,1.9,0.909847,1.65633,0.613428,-0.487708,-0.245309,-0.00942089,0.422917,0.411369,0.0139251,0.00973127,0.458943,5,0.1,14,1.9,3.3641,-5.77357,0.641478,-0.836752,-0.0586294,-0.0316143,-0.334293,0.0160635,0.00198185,0.0117057,1.7662,5,0.1,15,1.9,-3.42125,4.19245,0.500014,0.0463713,0.251906,3.39001e-05,0.161514,-0.214338,-0.000268221,0.0396387,3.87391,5,0.1,16,1.9,-0.263549,3.58568,0.731581,-0.12813,0.180424,0.0442554,0.197681,-0.30449,0.0306107,0.00964074,0.167894,5,0.1,17,1.9,-1.41869,-3.43189,0.729051,0.0574224,0.859849,0.0187557,-0.0776798,0.00315905,-0.010781,0.0184349,0.951544,5,0.1,18,1.9,-2.42034,1.54589,1.14005,0.141629,-0.136019,0.310415,0.12444,0.129268,-0.22456,0.00986758,0.0926954,5,0.1,19,1.9,-1.0207,4.13432,0.596943,0.817453,-0.463064,0.00301115,-0.385243,0.146747,-0.000722706,0.0417749,0.634593,5,0.1,20,1.9,-1.41378,2.40342,1.13472,-0.114664,0.190997,0.274726,-0.00317395,-0.0606328,-0.189193,0.0152527,0.180422,5,0.1,21,1.9,-3.59004,4.37516,1.09491,0.048871,-0.455415,0.25572,-0.0509471,0.299782,-0.232346,0.023461,0.227384,5,0.1,22,1.9,5.05976,0.475707,0.53804,0.0102997,-0.688807,-0.0283242,0.0195503,-0.0951792,0.00691041,0.00885134,2.74013,5,0.1,23,1.9,0.298171,2.6862,0.636755,-0.00686003,-0.865698,-0.0212737,-0.24033,-0.0130683,0.0116266,0.0209132,2.2754,5,0.1,24,1.9,0.72073,0.153386,0.583349,-0.549814,0.129747,0.0169183,0.437863,-0.117545,-0.0155009,0.00993781,0.15041,5,0.1,25,1.9,5.5045,0.65143,0.596932,0.110648,-0.110417,-0.0262632,-1.64703,-0.370901,-0.129167,0.0375834,1.73766,5,0.1,26,1.9,-3.4428,-1.78037,0.500028,0.293627,0.519501,-3.65078e-05,-0.245929,0.81981,-0.000201166,0.0103954,1.17855,5,0.1,27,1.9,-3.14968,-2.47887,0.521747,0.101577,-0.213285,-0.0204237,0.00688434,-0.170067,0.0888258,0.010564,0.224108,5,0.1,28,1.9,4.39853,-2.01193,0.5,-0.230787,0.0402182,0,-0.316709,-0.264078,0,0.0407348,3.49749,5,0.1,29,1.9,-3.8927,1.6622,0.930293,-0.409994,-0.280968,0.112473,-0.0382066,0.166811,-0.0849925,0.0117637,0.242786,5,0.1,30,1.9,0.0536861,-2.60205,0.548413,-0.0921981,0.446009,0.0229575,0.170392,-0.254348,0.0450462,0.0111431,0.115349,5,0.1,31,1.9,-0.998621,-0.648481,0.590195,0.557416,0.865031,0.00506109,0.191633,0.0150725,-0.000942498,0.016346,2.07862,5,0.1,32,1.9,2.95338,-0.222612,0.638879,-0.866026,0.16675,-0.01739,0,-0.0290247,0.00303239,0.0225001,2.25432,5,0.1,33,1.9,-4.67758,-3.1817,0.522743,0.268131,-0.345225,0.0115197,-0.0675619,0.196218,0.00247359,0.0099998,0.129584,5,0.1,34,1.9,1.50409,-0.418635,0.583914,-0.865212,-0.220524,0.021086,-0.0325516,0.19577,-0.014741,0.0125358,2.25917,5,0.1,35,1.9,-2.63628,2.22988,0.605507,0.866026,-0.104652,-0.0448157,0,-0.057891,0.0128858,0.0102768,2.26345,5,0.1,36,1.9,0.117669,-2.83787,1.13391,-0.238784,-0.0137221,0.244327,0.0105174,0.00606477,-0.107422,0.0173653,0.0861172,5,0.1,37,1.9,-0.748363,1.56496,0.61185,0.756438,-0.264882,-0.013507,-0.332642,0.615045,0.0165403,0.0187343,0.470462,5,0.1,38,1.9,-2.9987,-2.61383,0.824229,0.252054,-0.0388268,0.253007,-0.220731,-0.715032,0.25402,0.00943519,0.216614,5,0.1,39,1.9,-3.50094,3.8756,0.605217,-0.547327,-0.135259,0.0256567,0.00368059,0.302136,-0.0618286,0.010291,0.390903,5,0.1
0,2,-0.184885,3.80973,0.622374,0.252667,-0.119603,-0.0833854,-0.307471,0.980377,-0.122428,0.00701114,0.327741,5,0.1,1,2,0.509367,1.65281,0.579103,-0.395492,-0.306192,0.00872314,0.179753,1.11562,-0.10854,0.00725383,0.204545,5,0.1,2,2,-0.509579,4.32092,0.582059,0.329746,-0.857186,0.00605881,-0.258684,0.176907,-0.0359416,0.00839188,2.44626,5,0.1,3,2,-4.21506,-2.70813,0.61881,0.373447,0.282454,0.0449821,-0.263691,0.350833,-0.0940859,0.0579401,0.592144,5,0.1,4,2,-2.5305,-0.497679,0.614289,0.565952,-0.0123188,-0.0145853,-0.533223,0.13788,0.0151098,0.00887996,0.076422,5,0.1,5,2,-1.49356,-2.45417,0.593086,0.299746,0.140834,0.00706017,-0.311255,0.148058,-0.00733137,0.00876074,0.172557,5,0.1,6,2,2.27518,-1.95272,0.958433,-0.0158966,0.242078,0.326043,0.00870228,0.146747,-0.0912845,0.0155067,3.2119,5,0.1,7,2,-3.04162,-2.84906,0.507415,0.493175,-0.0814438,-0.0222534,-0.736713,-0.529408,0.106782,0.00682169,0.278773,5,0.1,8,2,0.902844,-3.76257,0.610128,-0.24267,-0.156331,-0.0160754,0.228286,0.379086,0.01508,0.00942509,0.199169,5,0.1,9,2,0.505414,-0.434133,0.576564,0.406818,-0.597747,0.0213146,-0.483245,-0.396415,-0.015229,0.015148,0.603442,5,0.1,10,2,0.0933322,1.6255,0.621877,-0.157824,-0.434321,0.0447556,0.163898,0.450969,-0.0464618,0.0112011,0.118653,5,0.1,11,2,2.37534,-5.78629,0.511684,-0.354749,-0.0450134,-0.00260025,0.182867,0.0231266,0.00137091,0.0087297,0.028752,5,0.1,12,2,-3.7493,4.0273,1.12863,-0.0840425,-0.319529,0.133696,-0.22018,0.153303,-0.415504,0.0081509,0.263865,5,0.1,13,2,0.863166,1.63387,0.612552,-0.445835,-0.204164,-0.00813603,0.427067,0.396252,0.0120401,0.00989113,0.374321,5,0.1,14,2,3.27905,-5.77935,0.638338,-0.860441,-0.0566125,-0.0310481,-0.111699,0.0259876,0.0101924,0.0122062,1.3566,5,0.1,15,2,-3.41426,4.21618,0.500016,0.105733,0.219262,7.45058e-06,0.908494,-0.416756,-0.000238419,0.0390496,3.15532,5,0.1,16,2,-0.275303,3.60243,0.736126,-0.106349,0.156617,0.0462547,0.234246,-0.184894,0.007689,0.00979204,0.197915,5,0.1,17,2,-1.41337,-3.34607,0.73087,0.048694,0.853896,0.0175878,-0.0947118,-0.15676,-0.0130534,0.0151267,0.683287,5,0.1,18,2,-2.40565,1.53307,1.1699,0.151092,-0.119138,0.28595,0.0590086,0.201404,-0.268936,0.0124517,0.203463,5,0.1,19,2,-0.9412,4.08881,0.597242,0.769137,-0.446022,0.00296086,-0.588804,0.209332,-0.000476837,0.0416672,0.569326,5,0.1,20,2,-1.42528,2.42221,1.16115,-0.115529,0.184447,0.252929,-0.00590086,-0.0779629,-0.247955,0.0154829,0.308001,5,0.1,21,2,-3.58545,4.33105,1.11932,0.0424683,-0.42696,0.232431,-0.074625,0.287533,-0.238955,0.0245021,0.163837,5,0.1,22,2,5.06088,0.407361,0.535245,0.0118136,-0.669173,-0.027515,0.0104904,0.442728,0.0103712,0.00909751,0.719836,5,0.1,23,2,0.29638,2.59961,0.634686,-0.0279218,-0.866026,-0.0200868,-0.178277,0,0.0128746,0.0208745,2.27079,5,0.1,24,2,0.667959,0.165661,0.584964,-0.505058,0.114762,0.0153616,0.469267,-0.176929,-0.015974,0.0115658,0.103388,5,0.1,25,2,5.50728,0.638553,0.593672,-0.0539184,-0.146453,-0.0386819,-1.58501,-0.331104,-0.113785,0.0393895,1.42634,5,0.1,26,2,-3.41468,-1.7246,0.500023,0.268489,0.592121,-5.06639e-05,-0.262499,0.592828,-8.9407e-05,0.00966983,0.882088,5,0.1,27,2,-3.13942,-2.50117,0.52017,0.103909,-0.233179,-0.0109881,0.0295639,-0.201225,0.0961125,0.0101566,0.150955,5,0.1,28,2,4.37346,-2.00887,0.5,-0.27318,0.0252664,0,-0.478268,-0.00953674,0,0.0397953,3.2612,5,0.1,29,2,-3.93375,1.63498,0.94111,-0.409311,-0.263008,0.103745,0.0661612,0.198901,-0.0921488,0.0126607,0.168521,5,0.1,30,2,0.0452841,-2.55878,0.550909,-0.0761573,0.418466,0.0266716,0.151459,-0.306964,0.028044,0.0100395,0.178318,5,0.1,31,2,-0.94208,-0.561958,0.590695,0.571123,0.864702,0.00494123,0.055939,-0.0264049,-0.00166893,0.0163591,1.28689,5,0.1,32,2,2.86678,-0.206101,0.637157,-0.866026,0.163104,-0.0170112,0,-0.050582,0.00530481,0.0192562,2.25557,5,0.1,33,2,-4.65116,-3.2152,0.523903,0.25934,-0.32407,0.0116199,-0.115871,0.235081,-0.000864267,0.0104304,0.152173,5,0.1,34,2,1.41751,-0.439536,0.585936,-0.866026,-0.195979,0.0192225,5.96046e-05,0.287697,-0.0222027,0.00894478,2.29287,5,0.1,35,2,-2.54968,2.21918,0.601091,0.866026,-0.108737,-0.0434175,0,-0.0196695,0.0168383,0.0104856,2.26295,5,0.1,36,2,0.0939825,-2.83921,1.15778,-0.233462,-0.0130653,0.232646,0.0989366,0.00762939,-0.133932,0.0194423,0.201722,5,0.1,37,2,-0.674521,1.54157,0.61058,0.718519,-0.202814,-0.011906,-0.444889,0.615418,0.0157058,0.016786,0.169244,5,0.1,38,2,-2.97462,-2.621,0.850722,0.229234,-0.101298,0.275604,-0.239968,-0.526071,0.179708,0.00816789,0.184049,5,0.1,39,2,-3.55555,3.86359,0.607477,-0.543135,-0.105149,0.0195816,0.102639,0.295997,-0.0589788,0.00897013,0.282026,5,0.1
0,2.1,-0.161053,3.8028,0.61326,0.224818,-0.0186693,-0.10009,-0.256777,1.00507,-0.19414,0.00701114,0.327741,5,0.1,1,2.1,0.4704,1.62751,0.579415,-0.386223,-0.202556,-0.00256002,0.036167,0.951611,-0.113003,0.00725383,0.204545,5,0.1,2,2.1,-0.478088,4.23666,0.582296,0.298339,-0.822708,-0.00287378,-0.36273,0.505865,-0.129942,0.00839188,2.44626,5,0.1,3,2.1,-4.17891,-2.67785,0.62282,0.350532,0.324823,0.03511,-0.20957,0.457123,-0.10119,0.0579401,0.592144,5,0.1,4,2.1,-2.47641,-0.49822,0.612895,0.517099,0.00143084,-0.0133897,-0.460625,0.133241,0.00963733,0.00887996,0.076422,5,0.1,5,2.1,-1.46491,-2.43907,0.593761,0.275114,0.163214,0.00647986,-0.198588,0.271767,-0.00468269,0.00876074,0.172557,5,0.1,6,2.1,2.27363,-1.92787,0.990656,-0.0151768,0.254155,0.318767,0.0064373,0.0974387,-0.0691712,0.0155067,3.2119,5,0.1,7,2.1,-2.99608,-2.86017,0.505648,0.41711,-0.142961,-0.0137905,-0.776306,-0.66103,0.0649169,0.00682169,0.278773,5,0.1,8,2.1,0.879669,-3.7763,0.608592,-0.221175,-0.118535,-0.0146549,0.2078,0.371024,0.0137389,0.00942509,0.199169,5,0.1,9,2.1,0.543845,-0.495833,0.578624,0.363143,-0.634871,0.0199004,-0.40219,-0.313627,-0.0137053,0.015148,0.603442,5,0.1,10,2.1,0.0782476,1.58399,0.626155,-0.144854,-0.398634,0.0410789,0.104565,0.287712,-0.0296421,0.0112011,0.118653,5,0.1,11,2.1,2.34077,-5.79068,0.511431,-0.336489,-0.0427008,-0.002464,0.192091,0.0243187,0.00142679,0.0087297,0.028752,5,0.1,12,2.1,-3.75891,3.99647,1.14003,-0.108871,-0.293674,0.0953106,-0.259355,0.349283,-0.351481,0.0081509,0.263865,5,0.1,13,2.1,0.820319,1.61538,0.611788,-0.414342,-0.167041,-0.00721421,0.232775,0.31776,0.00698119,0.00989113,0.374321,5,0.1,14,2.1,3.19267,-5.78489,0.635282,-0.865481,-0.0542417,-0.0300542,-0.00615418,0.0234842,0.0107251,0.0122062,1.3566,5,0.1,15,2.1,-3.39788,4.2358,0.500016,0.231536,0.171434,-1.20141e-05,1.49615,-0.521988,-0.000152737,0.0390496,3.15532,5,0.1,16,2.1,-0.284708,3.61769,0.740724,-0.0813484,0.152938,0.045105,0.258038,0.0763685,-0.0285693,0.00979204,0.197915,5,0.1,17,2.1,-1.40899,-3.26131,0.732567,0.0388429,0.84195,0.0163766,-0.100404,-0.121459,-0.0117049,0.0151267,0.683287,5,0.1,18,2.1,-2.39029,1.52224,1.19717,0.155633,-0.0968359,0.259333,0.0264943,0.238046,-0.267476,0.0124517,0.203463,5,0.1,19,2.1,-0.867521,4.045,0.597543,0.701665,-0.432139,0.00314377,-0.755049,0.0960529,0.00350922,0.0416672,0.569326,5,0.1,20,2.1,-1.43706,2.44008,1.18528,-0.121562,0.171368,0.23017,-0.097461,-0.177503,-0.214517,0.0154829,0.308001,5,0.1,21,2.1,-3.5816,4.28961,1.14144,0.0343584,-0.403318,0.21055,-0.0855029,0.205398,-0.205256,0.0245021,0.163837,5,0.1,22,2.1,5.06149,0.343261,0.532646,-0.00485182,-0.607639,-0.0236036,-0.305593,0.754723,0.0623018,0.00909751,0.719836,5,0.1,23,2.1,0.292743,2.51301,0.632733,-0.0442615,-0.866026,-0.0190533,-0.144899,0,0.00878796,0.0208745,2.27079,5,0.1,24,2.1,0.619661,0.176183,0.586425,-0.461931,0.0951192,0.013895,0.407934,-0.210662,-0.0137836,0.0115658,0.103388,5,0.1,25,2.1,5.49383,0.622199,0.589225,-0.214822,-0.180662,-0.0502191,-1.57437,-0.333782,-0.1113,0.0393895,1.42634,5,0.1,26,2.1,-3.38907,-1.6624,0.500018,0.244223,0.651095,-5.41098e-05,-0.230134,0.543237,1.11759e-05,0.00966983,0.882088,5,0.1,27,2.1,-3.129,-2.52563,0.51957,0.103704,-0.256627,-0.000925455,-0.0264347,-0.243768,0.101473,0.0101566,0.150955,5,0.1,28,2.1,4.3433,-2.00591,0.5,-0.333209,0.0391852,0,-0.668228,0.299439,0,0.0397953,3.2612,5,0.1,29,2.1,-3.97439,1.60962,0.951052,-0.40337,-0.244405,0.0952933,0.0693202,0.180729,-0.0799894,0.0126607,0.168521,5,0.1,30,2.1,0.0380854,-2.51816,0.553735,-0.0707072,0.396438,0.0299633,-0.0224327,-0.160888,0.0346527,0.0100395,0.178318,5,0.1,31,2.1,-0.884743,-0.475502,0.591185,0.574534,0.864835,0.00487454,-0.00876933,-0.00136703,-4.47035e-05,0.0163591,1.28689,5,0.1,32,2.1,2.78018,-0.189976,0.635476,-0.866026,0.159851,-0.0166699,0,-0.0237627,0.00248849,0.0192562,2.25557,5,0.1,33,2.1,-4.6256,-3.24668,0.52507,0.253421,-0.307455,0.011785,-0.022471,0.118837,0.00313297,0.0104304,0.152173,5,0.1,34,2.1,1.33091,-0.457487,0.587749,-0.865538,-0.161304,0.0170396,0.0194684,0.391677,-0.0216402,0.00894478,2.29287,5,0.1,35,2.1,-2.46308,2.20819,0.596814,0.866026,-0.111055,-0.0422675,0,-0.0206679,0.00864267,0.0104856,2.26295,5,0.1,36,2.1,0.0714032,-2.84048,1.18041,-0.215669,-0.0123411,0.219904,0.246342,0.00724196,-0.127934,0.0194423,0.201722,5,0.1,37,2.1,-0.604922,1.52429,0.609463,0.672806,-0.14373,-0.0104764,-0.48266,0.558287,0.0131987,0.016786,0.169244,5,0.1,38,2.1,-2.95274,-2.63344,0.879313,0.2096,-0.144274,0.296878,-0.164449,-0.333562,0.220764,0.00816789,0.184049,5,0.1,39,2.1,-3.60945,3.85453,0.609147,-0.535362,-0.076323,0.0138901,0.0779927,0.277132,-0.0542402,0.00897013,0.282026,5,0.1
0,2.2,-0.13982,3.80577,0.60228,0.200065,0.0756741,-0.119166,-0.243474,0.857711,-0.174403,0.00835692,0.253715,5,0.1,1,2.2,0.431927,1.61171,0.578614,-0.382975,-0.11673,-0.0131667,0.0510514,0.761807,-0.0961423,0.00742221,0.185849,5,0.1,2,2.2,-0.450192,4.15741,0.581291,0.258482,-0.757575,-0.0176653,-0.428244,0.788212,-0.156045,0.00818336,1.14529,5,0.1,3,2.2,-4.14492,-2.64318,0.625828,0.328982,0.367075,0.0251278,-0.231981,0.359297,-0.0967979,0.0576617,0.447043,5,0.1,4,2.2,-2.42699,-0.497444,0.611601,0.470972,0.0136666,-0.012511,-0.473499,0.108719,0.00849366,0.00900003,0.137299,5,0.1,5,2.2,-1.43833,-2.42137,0.594387,0.257036,0.190347,0.00605434,-0.175536,0.250459,-0.00414252,0.00870464,0.10866,5,0.1,6,2.2,2.27214,-1.90204,1.02212,-0.0144899,0.261816,0.309676,0.00786781,0.0555515,-0.123024,0.0158577,3.22849,5,0.1,7,2.2,-2.95825,-2.87772,0.504541,0.339437,-0.206721,-0.00882596,-0.770211,-0.584841,0.0364482,0.00850529,0.201495,5,0.1,8,2.2,0.858597,-3.78635,0.607196,-0.200075,-0.0831246,-0.0132591,0.218362,0.332594,0.0144541,0.00942705,0.324715,5,0.1,9,2.2,0.578202,-0.560535,0.580543,0.32433,-0.655064,0.0184655,-0.382572,-0.0686049,-0.0154972,0.0157431,0.41568,5,0.1,10,2.2,0.064248,1.54546,0.630125,-0.135336,-0.372446,0.0383809,0.0924653,0.254393,-0.026226,0.0111306,0.0685595,5,0.1,11,2.2,2.30816,-5.79482,0.511192,-0.314742,-0.0399351,-0.00230521,0.249267,0.0314713,0.00187755,0.00896968,0.0108452,5,0.1,12,2.2,-3.77104,3.96908,1.14792,-0.132972,-0.252366,0.0634938,-0.210404,0.46432,-0.284493,0.00830354,0.313141,5,0.1,13,2.2,0.77993,1.6,0.611097,-0.394054,-0.143114,-0.00663698,0.195324,0.164211,0.00497699,0.0125507,0.291635,5,0.1,14,2.2,3.1062,-5.79018,0.632338,-0.862902,-0.0515699,-0.0287309,0.0624657,0.0314713,0.0164509,0.0115699,1.01624,5,0.1,15,2.2,-3.36704,4.25028,0.500014,0.385404,0.118041,-2.38419e-05,1.49703,-0.531912,-8.9407e-05,0.0414596,2.68045,5,0.1,16,2.2,-0.291565,3.63356,0.745047,-0.0560775,0.165737,0.040935,0.241756,0.153303,-0.0529289,0.0110915,0.246262,5,0.1,17,2.2,-1.4056,-3.17792,0.734145,0.02895,0.822967,0.0151575,-0.0958443,-0.285387,-0.0130236,0.0154413,0.477396,5,0.1,18,2.2,-2.37468,1.51376,1.22174,0.155526,-0.0726968,0.231799,-0.0320673,0.239491,-0.285685,0.0109277,0.191208,5,0.1,19,2.2,-0.801363,4.00226,0.597878,0.619332,-0.422025,0.00355244,-0.885129,0.126362,0.00426173,0.00699208,0.78576,5,0.1,20,2.2,-1.44974,2.45621,1.20723,-0.132,0.150102,0.208789,-0.0984073,-0.242233,-0.218153,0.014819,0.282894,5,0.1,21,2.2,-3.5786,4.2503,1.16148,0.0257313,-0.382423,0.190258,-0.0854731,0.226974,-0.205219,0.0218866,0.116478,5,0.1,22,2.2,5.05921,0.286565,0.530645,-0.0424981,-0.52396,-0.016053,-0.417471,0.894741,0.0842512,0.00806528,0.650826,5,0.1,23,2.2,0.287672,2.4264,0.630871,-0.0563107,-0.866026,-0.0181571,-0.0937879,0,0.00986457,0.0220622,2.34282,5,0.1,24,2.2,0.575503,0.184622,0.587746,-0.420989,0.073576,0.0125334,0.421137,-0.216007,-0.0137687,0.0113586,0.232902,5,0.1,25,2.2,5.46489,0.60259,0.583688,-0.358737,-0.209917,-0.0599802,-1.26195,-0.237733,-0.0799298,0.0387959,1.09518,5,0.1,26,2.2,-3.3658,-1.59494,0.500013,0.221235,0.693443,-4.91738e-05,-0.234842,0.273943,5.96046e-05,0.011108,0.629425,5,0.1,27,2.2,-3.11881,-2.55242,0.519969,0.0997245,-0.277835,0.00867248,-0.0493526,-0.163198,0.0877678,0.0112669,0.0952234,5,0.1,28,2.2,4.30669,-2,0.5,-0.397444,0.0833631,0,-0.576735,0.55474,0,0.0314372,3.13726,5,0.1,29,2.2,-4.01426,1.5861,0.960181,-0.392663,-0.225592,0.0872195,0.156403,0.200689,-0.0836253,0.0108032,0.132312,5,0.1,30,2.2,0.0307513,-2.47926,0.556894,-0.0770879,0.381559,0.0330612,-0.0896436,-0.156403,0.0250638,0.0107762,0.108424,5,0.1,31,2.2,-0.82758,-0.389198,0.591672,0.565889,0.858869,0.00486672,-0.17786,-0.143096,-0.00038743,0.0131563,1.18058,5,0.1,32,2.2,2.69357,-0.174127,0.633823,-0.866026,0.156766,-0.0163481,0,-0.0445247,0.00464916,0.0177303,2.25663,5,0.1,33,2.2,-4.60035,-3.27688,0.526264,0.251389,-0.296557,0.0120685,-0.0331402,0.114918,0.00181794,0.0102273,0.0902097,5,0.1,34,2.2,1.24461,-0.471584,0.589344,-0.858229,-0.120176,0.0148684,0.155807,0.419676,-0.0219643,0.00959901,0.203762,5,0.1,35,2.2,-2.37648,2.19702,0.592633,0.866026,-0.111854,-0.0412658,0,0.00870228,0.0132024,0.0105606,2.2631,5,0.1,36,2.2,0.0512381,-2.84167,1.20172,-0.186162,-0.0115514,0.205886,0.334695,0.0089407,-0.157118,0.0178545,0.190395,5,0.1,37,2.2,-0.540204,1.51256,0.60848,0.619847,-0.0924617,-0.00921339,-0.584632,0.462055,0.0122786,0.0175806,0.385435,5,0.1,38,2.2,-2.93256,-2.64922,0.910004,0.194311,-0.168198,0.315481,-0.150084,-0.146508,0.133544,0.0130013,0.4736,5,0.1,39,2.2,-3.66247,3.84823,0.610276,-0.523287,-0.0503004,0.00883937,0.18096,0.240803,-0.0463724,0.00928525,0.219383,5,0.1
0,2.3,-0.12069,3.81698,0.58947,0.18535,0.142277,-0.136955,-0.0730153,0.48916,-0.169773,0.00835692,0.253715,5,0.1,1,2.3,0.393637,1.60349,0.576832,-0.384531,-0.0511201,-0.0222711,-0.052575,0.554241,-0.0834018,0.00742221,0.185849,5,0.1,2,2.3,-0.426708,4.08598,0.578383,0.209412,-0.667571,-0.043392,-0.536393,0.99358,-0.330225,0.00818336,1.14529,5,0.1,3,2.3,-4.11308,-2.6046,0.627864,0.308382,0.404561,0.015685,-0.192255,0.359893,-0.090532,0.0576617,0.447043,5,0.1,4,2.3,-2.38188,-0.495558,0.610387,0.434291,0.0237611,-0.0117933,-0.28871,0.0907909,0.0064075,0.00900003,0.137299,5,0.1,5,2.3,-1.41342,-2.40104,0.594975,0.241655,0.216171,0.00570472,-0.142217,0.247985,-0.00312179,0.00870464,0.10866,5,0.1,6,2.3,2.27073,-1.87605,1.05255,-0.0138339,0.254986,0.299324,0.00588596,-0.127077,-0.0974536,0.0158577,3.22849,5,0.1,7,2.3,-2.92777,-2.90129,0.503798,0.27365,-0.263961,-0.00641141,-0.56009,-0.534922,0.013791,0.00850529,0.201495,5,0.1,8,2.3,0.839681,-3.7931,0.605942,-0.17822,-0.0527393,-0.011812,0.220142,0.272438,0.0145808,0.00942705,0.324715,5,0.1,9,2.3,0.60886,-0.626351,0.582317,0.289936,-0.660244,0.0170344,-0.315264,-0.00885502,-0.0136644,0.0157431,0.41568,5,0.1,10,2.3,0.0511236,1.50934,0.633847,-0.127528,-0.350964,0.0361663,0.0696785,0.191726,-0.0197627,0.0111306,0.0685595,5,0.1,11,2.3,2.27795,-5.79865,0.510971,-0.289206,-0.036706,-0.00211447,0.265673,0.0336766,0.00196695,0.00896968,0.0108452,5,0.1,12,2.3,-3.7855,3.94628,1.15291,-0.156765,-0.202678,0.0371961,-0.246793,0.517294,-0.239722,0.00830354,0.313141,5,0.1,13,2.3,0.741281,1.58618,0.610453,-0.38051,-0.135944,-0.0062909,0.0992045,0.000484288,0.00240654,0.0125507,0.291635,5,0.1,14,2.3,3.01996,-5.79519,0.629544,-0.863279,-0.0486642,-0.0271671,-0.0225157,0.0283718,0.0156872,0.0115699,1.01624,5,0.1,15,2.3,-3.32059,4.25942,0.500012,0.545377,0.0648014,-2.90573e-05,1.61511,-0.520617,-2.23517e-05,0.0414596,2.68045,5,0.1,16,2.3,-0.296029,3.65068,0.748935,-0.033947,0.174549,0.0373409,0.197476,0.0253171,-0.022728,0.0110915,0.246262,5,0.1,17,2.3,-1.40317,-3.09693,0.735599,0.0199061,0.797261,0.0139556,-0.0839531,-0.260562,-0.0114553,0.0154413,0.477396,5,0.1,18,2.3,-2.35932,1.50765,1.24352,0.151214,-0.0498591,0.2041,-0.0573099,0.213899,-0.270844,0.0109277,0.191208,5,0.1,19,2.3,-0.745159,3.96101,0.598284,0.493866,-0.400117,0.00482341,-1.53912,0.304952,0.0189804,0.00699208,0.78576,5,0.1,20,2.3,-1.46348,2.46992,1.22706,-0.142946,0.123489,0.188278,-0.109188,-0.283182,-0.1968,0.014819,0.282894,5,0.1,21,2.3,-3.57645,4.21307,1.17955,0.0172827,-0.36305,0.171582,-0.0820607,0.176668,-0.173829,0.0218866,0.116478,5,0.1,22,2.3,5.05313,0.238768,0.529495,-0.0768095,-0.431705,-0.00669416,-0.275612,0.91407,0.0988171,0.00806528,0.650826,5,0.1,23,2.3,0.281588,2.33993,0.62913,-0.0650881,-0.861372,-0.0164467,-0.0776965,0.119299,0.0231825,0.0220622,2.34282,5,0.1,24,2.3,0.535174,0.190918,0.588941,-0.388317,0.0526207,0.0114446,0.25771,-0.199845,-0.00874326,0.0113586,0.232902,5,0.1,25,2.3,5.42287,0.580469,0.577298,-0.479133,-0.231577,-0.0676322,-1.1031,-0.183642,-0.0687577,0.0387959,1.09518,5,0.1,26,2.3,-3.34478,-1.52425,0.500008,0.199714,0.719194,-4.10713e-05,-0.201687,0.206612,0.000100583,0.011108,0.629425,5,0.1,27,2.3,-3.10913,-2.581,0.521263,0.0936083,-0.293249,0.0170414,-0.0574291,-0.129938,0.0773035,0.0112669,0.0952234,5,0.1,28,2.3,4.26398,-1.9892,0.5,-0.456493,0.129869,0,-0.565827,0.385106,0,0.0314372,3.13726,5,0.1,29,2.3,-4.05251,1.56461,0.968511,-0.370046,-0.20348,0.0795797,0.291735,0.244282,-0.071764,0.0108032,0.132312,5,0.1,30,2.3,0.0224742,-2.44177,0.560324,-0.0893072,0.368883,0.0354633,-0.141252,-0.114948,0.0209808,0.0107762,0.108424,5,0.1,31,2.3,-0.771877,-0.304057,0.592159,0.547772,0.842938,0.00487473,-0.201918,-0.203202,0.00025332,0.0131563,1.18058,5,0.1,32,2.3,2.60697,-0.158608,0.632204,-0.866026,0.154048,-0.0160648,0,-0.0188639,0.00196695,0.0177303,2.25663,5,0.1,33,2.3,-4.57532,-3.30605,0.527482,0.249567,-0.287396,0.0122905,-0.0163019,0.0824481,0.0019595,0.0102273,0.0902097,5,0.1,34,2.3,1.15989,-0.48161,0.590727,-0.832795,-0.0814338,0.0128226,0.362203,0.353895,-0.0192076,0.00959901,0.203762,5,0.1,35,2.3,-2.28987,2.18585,0.588555,0.866026,-0.111647,-0.040428,0,0.0013411,0.00593811,0.0105606,2.2631,5,0.1,36,2.3,0.0343914,-2.84279,1.22154,-0.150051,-0.0106785,0.190502,0.378274,0.00874698,-0.154987,0.0178545,0.190395,5,0.1,37,2.3,-0.481006,1.50544,0.607612,0.565085,-0.0519602,-0.00819406,-0.526155,0.34637,0.00856444,0.0175806,0.385435,5,0.1,38,2.3,-2.91428,-2.66584,0.941804,0.167762,-0.156227,0.316609,-0.358641,0.338584,-0.10144,0.0130013,0.4736,5,0.1,39,2.3,-3.71397,3.8442,0.611095,-0.507044,-0.0321466,0.00895988,0.164255,0.129804,0.0393316,0.00928525,0.219383,5,0.1
0,2.4,-0.102389,3.83314,0.575011,0.181559,0.176275,-0.151154,-0.0196546,0.20349,-0.106186,0.00763556,0.254147,5,0.1,1,2.4,0.354949,1.60083,0.574226,-0.388396,-0.00507534,-0.0294223,-0.00335276,0.3708,-0.0578761,0.00698335,0.170996,5,0.1,2,2.4,-0.408512,4.0244,0.572297,0.154203,-0.562263,-0.0787273,-0.554532,1.09661,-0.354916,0.00975802,1.08786,5,0.1,3,2.4,-4.08322,-2.56254,0.629,0.288475,0.433862,0.00728369,-0.214815,0.20504,-0.0763834,0.0570964,0.322975,5,0.1,4,2.4,-2.33978,-0.492773,0.60924,0.408262,0.0314325,-0.0111341,-0.252962,0.0610948,0.00715256,0.0086724,0.389815,5,0.1,5,2.4,-1.38998,-2.37831,0.595529,0.22687,0.236887,0.00538379,-0.160575,0.153899,-0.00345707,0.00905759,0.100192,5,0.1,6,2.4,2.26938,-1.85109,1.08195,-0.0132024,0.245962,0.287905,0.00739098,-0.0229478,-0.14025,0.0152957,3.13348,5,0.1,7,2.4,-2.90296,-2.93011,0.503201,0.224805,-0.309473,-0.00571758,-0.4282,-0.358343,0.00166893,0.00646659,0.180285,5,0.1,8,2.4,0.822971,-3.79713,0.604835,-0.155841,-0.0290036,-0.0103295,0.228107,0.200987,0.0151098,0.00886979,0.302357,5,0.1,9,2.4,0.636322,-0.692147,0.583951,0.259568,-0.652497,0.0156403,-0.299275,0.181109,-0.0146031,0.0149768,0.279429,5,0.1,10,2.4,0.0387216,1.47521,0.637364,-0.120377,-0.331289,0.0341371,0.0775941,0.213623,-0.0219941,0.0105842,0.0533704,5,0.1,11,2.4,2.25041,-5.80214,0.51077,-0.260943,-0.0331283,-0.00190586,0.301838,0.0386238,0.00220537,0.00913725,0.00547941,5,0.1,12,2.4,-3.80234,3.9286,1.15552,-0.179112,-0.151056,0.0158191,-0.18692,0.505686,-0.186861,0.00808229,0.331827,5,0.1,13,2.4,0.703726,1.57247,0.609835,-0.37014,-0.139254,-0.00607669,0.125289,-0.0503659,0.00217557,0.00940692,0.163521,5,0.1,14,2.4,2.93369,-5.79991,0.62691,-0.85941,-0.0456095,-0.0254497,0.132203,0.0338554,0.0192821,0.0110643,0.750312,5,0.1,15,2.4,-3.25837,4.2634,0.500009,0.693405,0.0160217,-2.83122e-05,1.28245,-0.445604,2.98023e-05,0.037437,2.38886,5,0.1,16,2.4,-0.298531,3.66807,0.75258,-0.0170544,0.171328,0.0357226,0.139043,-0.0865459,-0.0124872,0.0124429,0.234926,5,0.1,17,2.4,-1.40157,-3.01868,0.736937,0.0123262,0.765496,0.0127912,-0.0670552,-0.396609,-0.0121593,0.0146832,0.327106,5,0.1,18,2.4,-2.34455,1.50367,1.26258,0.143576,-0.030455,0.17722,-0.097394,0.172019,-0.2684,0.00884118,0.405792,5,0.1,19,2.4,-0.703967,3.92277,0.598871,0.326695,-0.36242,0.0069648,-1.73748,0.442386,0.0221133,0.00641605,0.45968,5,0.1,20,2.4,-1.47826,2.48084,1.24491,-0.151914,0.0946939,0.16863,-0.062108,-0.287175,-0.199258,0.0155957,0.26479,5,0.1,21,2.4,-3.57511,4.17767,1.19585,0.00957251,-0.344312,0.154552,-0.0710487,0.209093,-0.170708,0.0203632,0.304344,5,0.1,22,2.4,5.04426,0.2,0.529316,-0.0987887,-0.345625,0.00299066,-0.168562,0.799046,0.0917912,0.00968614,3.62905,5,0.1,23,2.4,0.274745,2.25476,0.627615,-0.0711739,-0.837886,-0.0137344,-0.041306,0.366807,0.0301898,0.0228246,2.6224,5,0.1,24,2.4,0.497532,0.19523,0.590045,-0.365032,0.0341449,0.0106588,0.226751,-0.167526,-0.00756979,0.011489,0.198382,5,0.1,25,2.4,5.36999,0.556562,0.570239,-0.572169,-0.244689,-0.0730038,-0.728369,-0.0708997,-0.0357032,0.0378781,0.789909,5,0.1,26,2.4,-3.3258,-1.45164,0.500005,0.179851,0.729012,-2.98023e-05,-0.199914,-0.0333786,0.000119209,0.0106789,0.433354,5,0.1,27,2.4,-3.1,-2.61082,0.523321,0.089699,-0.301296,0.0237435,-0.0216961,-0.0209808,0.0552535,0.00985375,0.076563,5,0.1,28,2.4,4.21578,-1.97451,0.5,-0.504088,0.161925,0,-0.359058,0.261784,0,0.0337185,3.05192,5,0.1,29,2.4,-4.08786,1.54557,0.976112,-0.335217,-0.176427,0.0724241,0.400305,0.297129,-0.0731051,0.0105091,0.229807,5,0.1,30,2.4,0.0128432,-2.40551,0.563955,-0.102997,0.355542,0.0369236,-0.122624,-0.16439,0.00691414,0.0101723,0.145893,5,0.1,31,2.4,-0.718264,-0.221062,0.592646,0.522621,0.813651,0.00486523,-0.312567,-0.400633,-0.000625849,0.0120161,0.317082,5,0.1,32,2.4,2.52037,-0.143316,0.63061,-0.866026,0.151445,-0.0157952,0,-0.0396222,0.00414252,0.015124,2.25755,5,0.1,33,2.4,-4.5505,-3.33434,0.528717,0.245929,-0.277668,0.0123471,-0.0655651,0.12219,-0.0012219,0.00985317,0.069927,5,0.1,34,2.4,1.07882,-0.488101,0.591916,-0.784478,-0.0495858,0.0109836,0.607908,0.282466,-0.0177622,0.0107881,2.47762,5,0.1,35,2.4,-2.20327,2.17472,0.584546,0.866026,-0.110579,-0.0396684,0,0.0240803,0.0109375,0.00910968,2.2636,5,0.1,36,2.4,0.0212863,-2.84381,1.23979,-0.112146,-0.00975728,0.174165,0.372688,0.00977516,-0.174582,0.0159949,0.410871,5,0.1,37,2.4,-0.427135,1.50178,0.606833,0.511995,-0.0233144,-0.00742078,-0.546277,0.227034,0.00724196,0.016287,2.85878,5,0.1,38,2.4,-2.89949,-2.67929,0.972637,0.1266,-0.108999,0.297061,-0.446796,0.568032,-0.28038,0.0146531,0.41727,5,0.1,39,2.4,-3.76375,3.8415,0.612265,-0.487,-0.0229716,0.0150189,0.250459,0.0599623,0.0744462,0.0106785,0.139793,5,0.1
