id,t,px,py,pz,vx,vy,vz,ax,ay,az,planning_time,qp_cost,planning_report,size,id,t,px,py,pz,vx,vy,vz,ax,ay,az,planning_time,qp_cost,planning_report,size,id,t,px,py,pz,vx,vy,vz,ax,ay,az,planning_time,qp_cost,planning_report,size,id,t,px,py,pz,vx,vy,vz,ax,ay,az,planning_time,qp_cost,planning_report,size,id,t,px,py,pz,vx,vy,vz,ax,ay,az,planning_time,qp_cost,planning_report,size,id,t,px,py,pz,vx,vy,vz,ax,ay,az,planning_time,qp_cost,planning_report,size,id,t,px,py,pz,vx,vy,vz,ax,ay,az,planning_time,qp_cost,planning_report,size,id,t,px,py,pz,vx,vy,vz,ax,ay,az,planning_time,qp_cost,planning_report,size,id,t,px,py,pz,vx,vy,vz,ax,ay,az,planning_time,qp_cost,planning_report,size,id,t,px,py,pz,vx,vy,vz,ax,ay,az,planning_time,qp_cost,planning_report,size,id,t,px,py,pz,vx,vy,vz,ax,ay,az,planning_time,qp_cost,planning_report,size,id,t,px,py,pz,vx,vy,vz,ax,ay,az,planning_time,qp_cost,planning_report,size,id,t,px,py,pz,vx,vy,vz,ax,ay,az,planning_time,qp_cost,planning_report,size,id,t,px,py,pz,vx,vy,vz,ax,ay,az,planning_time,qp_cost,planning_report,size,id,t,px,py,pz,vx,vy,vz,ax,ay,az,planning_time,qp_cost,planning_report,size,id,t,px,py,pz,vx,vy,vz,ax,ay,az,planning_time,qp_cost,planning_report,size,id,t,px,py,pz,vx,vy,vz,ax,ay,az,planning_time,qp_cost,planning_report,size,id,t,px,py,pz,vx,vy,vz,ax,ay,az,planning_time,qp_cost,planning_report,size,id,t,px,py,pz,vx,vy,vz,ax,ay,az,planning_time,qp_cost,planning_report,size,id,t,px,py,pz,vx,vy,vz,ax,ay,az,planning_time,qp_cost,planning_report,size,id,t,px,py,pz,vx,vy,vz,ax,ay,az,planning_time,qp_cost,planning_report,size,id,t,px,py,pz,vx,vy,vz,ax,ay,az,planning_time,qp_cost,planning_report,size,id,t,px,py,pz,vx,vy,vz,ax,ay,az,planning_time,qp_cost,planning_report,size,id,t,px,py,pz,vx,vy,vz,ax,ay,az,planning_time,qp_cost,planning_report,size,id,t,px,py,pz,vx,vy,vz,ax,ay,az,planning_time,qp_cost,planning_report,size,id,t,px,py,pz,vx,vy,vz,ax,ay,az,planning_time,qp_cost,planning_report,size,id,t,px,py,pz,vx,vy,vz,ax,ay,az,planning_time,qp_cost,planning_report,size,id,t,px,py,pz,vx,vy,vz,ax,ay,az,planning_time,qp_cost,planning_report,size,id,t,px,py,pz,vx,vy,vz,ax,ay,az,planning_time,qp_cost,planning_report,size,id,t,px,py,pz,vx,vy,vz,ax,ay,az,planning_time,qp_cost,planning_report,size,id,t,px,py,pz,vx,vy,vz,ax,ay,az,planning_time,qp_cost,planning_report,size,id,t,px,py,pz,vx,vy,vz,ax,ay,az,planning_time,qp_cost,planning_report,size,id,t,px,py,pz,vx,vy,vz,ax,ay,az,planning_time,qp_cost,planning_report,size,id,t,px,py,pz,vx,vy,vz,ax,ay,az,planning_time,qp_cost,planning_report,size,id,t,px,py,pz,vx,vy,vz,ax,ay,az,planning_time,qp_cost,planning_report,size,id,t,px,py,pz,vx,vy,vz,ax,ay,az,planning_time,qp_cost,planning_report,size,id,t,px,py,pz,vx,vy,vz,ax,ay,az,planning_time,qp_cost,planning_report,size,id,t,px,py,pz,vx,vy,vz,ax,ay,az,planning_time,qp_cost,planning_report,size,id,t,px,py,pz,vx,vy,vz,ax,ay,az,planning_time,qp_cost,planning_report,size,id,t,px,py,pz,vx,vy,vz,ax,ay,az,planning_time,qp_cost,planning_report,size
0,0,0.139469,1.97436,0.59222,0,0,0,0,0,0,0.0133164,2.94509,5,0.1,1,0,-1.773,-4.13409,0.552226,0,0,0,0,0,0,0.00905453,0.406841,5,0.1,2,0,-1.33704,4.17871,0.65825,0,0,0,0,0,0,0.0150728,1.40158,5,0.1,3,0,4.34394,-5.27983,0.584822,0,0,0,0,0,0,0.0482434,1.81419,5,0.1,4,0,-1.09992,5.75718,0.64671,0,0,0,0,0,0,0.0301995,3.51219,5,0.1,5,0,-2.34317,-0.144237,0.635384,0,0,0,0,0,0,0.0314397,3.5122,5,0.1,6,0,-1.85852,-3.08399,0.532463,0,0,0,0,0,0,0.017083,0.931539,5,0.1,7,0,0.48272,3.25148,0.661165,0,0,0,0,0,0,0.008621,0.4571,5,0.1,8,0,1.547,4.46701,0.656432,0,0,0,0,0,0,0.0171148,0.436335,5,0.1,9,0,-2.90916,4.43967,0.575872,0,0,0,0,0,0,0.0119852,0.784987,5,0.1,10,0,-3.57182,-5.37135,0.676219,0,0,0,0,0,0,0.0417874,3.51219,5,0.1,11,0,-1.74675,-2.32893,0.54651,0,0,0,0,0,0,0.00914796,0.474792,5,0.1,12,0,-2.05,4.89942,0.57837,0,0,0,0,0,0,0.0339442,3.5122,5,0.1,13,0,0.523077,-0.646505,0.642553,0,0,0,0,0,0,0.0127192,0.279283,5,0.1,14,0,4.09067,-0.0461564,0.589747,0,0,0,0,0,0,0.0136656,3.51219,5,0.1,15,0,-2.68255,-2.76179,0.681706,0,0,0,0,0,0,0.0154764,0.514663,5,0.1,16,0,-3.5481,-2.65893,0.510763,0,0,0,0,0,0,0.0106059,2.25614,5,0.1,17,0,0.696573,-2.14783,0.632036,0,0,0,0,0,0,0.00849116,3.5122,5,0.1,18,0,-2.85958,5.18433,0.533377,0,0,0,0,0,0,0.0427769,3.5122,5,0.1,19,0,0.852163,1.93528,0.511679,0,0,0,0,0,0,0.00970007,1.1244,5,0.1,20,0,4.64266,0.751766,0.564603,0,0,0,0,0,0,0.0230548,0.567883,5,0.1,21,0,1.47218,-3.02427,0.631111,0,0,0,0,0,0,0.0376928,0.814702,5,0.1,22,0,-0.462247,-1.12538,0.633279,0,0,0,0,0,0,0.0157694,2.40949,5,0.1,23,0,-5.77137,-0.86333,0.50153,0,0,0,0,0,0,0.0193366,2.6837,5,0.1,24,0,-3.45121,-4.65928,0.676004,0,0,0,0,0,0,0.0174303,3.5122,5,0.1,25,0,-4.73481,-2.95689,0.64405,0,0,0,0,0,0,0.00946445,0.441701,5,0.1,26,0,-1.59247,-0.599761,0.550234,0,0,0,0,0,0,0.0157313,3.51219,5,0.1,27,0,-5.3748,-2.40517,0.684798,0,0,0,0,0,0,0.00937024,2.50368,5,0.1,28,0,-3.13254,1.98753,0.576534,0,0,0,0,0,0,0.0103712,2.44068,5,0.1,29,0,-3.55808,-3.5939,0.600404,0,0,0,0,0,0,0.016201,3.5122,5,0.1,30,0,-1.20916,1.7242,0.584802,0,0,0,0,0,0,0.0179506,3.5122,5,0.1,31,0,-2.04356,5.77434,0.503783,0,0,0,0,0,0,0.013102,3.5122,5,0.1,32,0,2.09824,-3.4917,0.632015,0,0,0,0,0,0,0.0295146,3.51219,5,0.1,33,0,2.7324,-2.55411,0.536978,0,0,0,0,0,0,0.0179836,1.08064,5,0.1,34,0,3.93634,-4.55479,0.624279,0,0,0,0,0,0,0.018671,0.727102,5,0.1,35,0,1.49081,-0.228635,0.645587,0,0,0,0,0,0,0.00899338,3.5122,5,0.1,36,0,-1.78013,-4.85811,0.504482,0,0,0,0,0,0,0.00872529,1.10614,5,0.1,37,0,-3.69807,1.70683,0.683713,0,0,0,0,0,0,0.0106161,1.0164,5,0.1,38,0,-1.52541,-5.73592,0.583179,0,0,0,0,0,0,0.00992937,0.472682,5,0.1,39,0,3.32193,-0.0265412,0.684475,0,0,0,0,0,0,0.0214084,3.5122,5,0.1
0,0.1,0.139637,1.97246,0.592228,0.00475717,-0.0540636,0.000230502,0.0845725,-0.961125,0.00410154,0.0133164,2.94509,5,0.1,1,0.1,-1.7736,-4.13338,0.552315,-0.0172244,0.0202306,0.00251643,-0.305928,0.359327,0.044696,0.00905453,0.406841,5,0.1,2,0.1,-1.3358,4.17826,0.658189,0.035177,-0.012704,-0.00172621,0.625364,-0.225872,-0.0306927,0.0150728,1.40158,5,0.1,3,0.1,4.34316,-5.27855,0.584838,-0.0220455,0.0364445,0.000449829,-0.39193,0.647932,0.00800192,0.0482434,1.81419,5,0.1,4,0.1,-1.09917,5.75523,0.646673,0.0213679,-0.0552729,-0.00105062,0.379875,-0.982642,-0.0186823,0.0301995,3.51219,5,0.1,5,0.1,-2.3411,-0.143939,0.635349,0.058654,0.00844686,-0.00101589,1.04275,0.150166,-0.0180602,0.0314397,3.5122,5,0.1,6,0.1,-1.85799,-3.08437,0.533317,0.0150697,-0.0108462,0.024227,0.267901,-0.192806,0.430707,0.017083,0.931539,5,0.1,7,0.1,0.483469,3.25153,0.661102,0.021256,0.00143796,-0.00181254,0.377884,0.0255406,-0.0322238,0.008621,0.4571,5,0.1,8,0.1,1.54695,4.46689,0.657156,-0.00139307,-0.00346676,0.0205533,-0.0247583,-0.061661,0.365395,0.0171148,0.436335,5,0.1,9,0.1,-2.90909,4.4391,0.576681,0.00175312,-0.0159919,0.0229406,0.0311732,-0.284314,0.407834,0.0119852,0.784987,5,0.1,10,0.1,-3.57164,-5.36927,0.67625,0.00506081,0.0590451,0.000885129,0.0899583,1.04967,0.0157356,0.0417874,3.51219,5,0.1,11,0.1,-1.74603,-2.32869,0.546566,0.0206478,0.00678413,0.0015853,0.367075,0.120595,0.0281781,0.00914796,0.474792,5,0.1,12,0.1,-2.04821,4.89834,0.57839,0.0507087,-0.0306763,0.000577327,0.90149,-0.545353,0.0102632,0.0339442,3.5122,5,0.1,13,0.1,0.523627,-0.6463,0.642509,0.015615,0.00582328,-0.0012611,0.277597,0.10353,-0.0224151,0.0127192,0.279283,5,0.1,14,0.1,4.08866,-0.046716,0.589758,-0.0570998,-0.015886,0.000293925,-1.01513,-0.282418,0.00523031,0.0136656,3.51219,5,0.1,15,0.1,-2.68178,-2.76157,0.681778,0.0217088,0.00627711,0.00202395,0.38591,0.11158,0.0359789,0.0154764,0.514663,5,0.1,16,0.1,-3.54643,-2.65882,0.510699,0.0473581,0.00322871,-0.0018009,0.841945,0.0573844,-0.0320114,0.0106059,2.25614,5,0.1,17,0.1,0.696378,-2.1499,0.631975,-0.00555534,-0.0589814,-0.00173114,-0.0987649,-1.04858,-0.0307783,0.00849116,3.5122,5,0.1,18,0.1,-2.85774,5.18336,0.533422,0.0523694,-0.0277229,0.00128755,0.931025,-0.492841,0.0228919,0.0427769,3.5122,5,0.1,19,0.1,0.85143,1.93436,0.511615,-0.0208079,-0.0262348,-0.001828,-0.369918,-0.466399,-0.032492,0.00970007,1.1244,5,0.1,20,0.1,4.64235,0.752547,0.56464,-0.00867322,0.0221732,0.00104895,-0.154167,0.394192,0.0186525,0.0230548,0.567883,5,0.1,21,0.1,1.47158,-3.02346,0.631078,-0.016956,0.0229444,-0.000921823,-0.301436,0.407919,-0.0163913,0.0376928,0.814702,5,0.1,22,0.1,-0.460669,-1.12468,0.633244,0.0448142,0.0200143,-0.000986271,0.796696,0.355817,-0.0175312,0.0157694,2.40949,5,0.1,23,0.1,-5.77067,-0.861646,0.501516,0.0198953,0.0478097,-0.000371598,0.353664,0.849951,-0.00660866,0.0193366,2.6837,5,0.1,24,0.1,-3.45121,-4.65721,0.676262,1.04308e-05,0.0588141,0.00733249,0.000208616,1.04555,0.130355,0.0174303,3.5122,5,0.1,25,0.1,-4.73424,-2.95734,0.643916,0.0162423,-0.0127837,-0.00381107,0.288785,-0.227273,-0.0677519,0.00946445,0.441701,5,0.1,26,0.1,-1.59082,-0.598483,0.550281,0.0468431,0.0362859,0.00133775,0.832759,0.645082,0.0237823,0.0157313,3.51219,5,0.1,27,0.1,-5.37311,-2.40469,0.684866,0.0481494,0.0134893,0.00193231,0.856012,0.239789,0.0343546,0.00937024,2.50368,5,0.1,28,0.1,-3.13084,1.98718,0.576558,0.0483785,-0.0100022,0.000695419,0.86008,-0.177823,0.0123642,0.0103712,2.44068,5,0.1,29,0.1,-3.55632,-3.59279,0.600404,0.0500668,0.0317182,-8.56817e-06,0.890091,0.563875,-0.000149012,0.016201,3.5122,5,0.1,30,0.1,-1.21118,1.72473,0.584811,-0.0573194,0.0150707,0.000277348,-1.01901,0.267923,0.00493228,0.0179506,3.5122,5,0.1,31,0.1,-2.04219,5.77276,0.503751,0.038917,-0.0446871,-0.000919215,0.691846,-0.79447,-0.0163391,0.013102,3.5122,5,0.1,32,0.1,2.09815,-3.48961,0.631995,-0.0026267,0.0592075,-0.000567082,-0.0466853,1.05256,-0.0100844,0.0295146,3.51219,5,0.1,33,0.1,2.73237,-2.55332,0.537827,-0.000960752,0.0223476,0.0240934,-0.0170618,0.39728,0.428323,0.0179836,1.08064,5,0.1,34,0.1,3.93599,-4.55568,0.624253,-0.00996664,-0.0250474,-0.000719354,-0.177205,-0.445306,-0.0127926,0.018671,0.727102,5,0.1,35,0.1,1.48872,-0.228729,0.645568,-0.0592064,-0.00265266,-0.000546407,-1.05256,-0.0471575,-0.00971183,0.00899338,3.5122,5,0.1,36,0.1,-1.78031,-4.85695,0.504443,-0.00503398,0.0328362,-0.00108909,-0.0894964,0.583768,-0.0193566,0.00872529,1.10614,5,0.1,37,0.1,-3.69812,1.70771,0.684409,-0.00154004,0.024987,0.019745,-0.0273585,0.444204,0.351019,0.0106161,1.0164,5,0.1,38,0.1,-1.52616,-5.73604,0.583197,-0.0214726,-0.00338107,0.000498351,-0.381738,-0.0601411,0.00886247,0.00992937,0.472682,5,0.1,39,0.1,3.31985,-0.0266994,0.6845,-0.0590943,-0.00449104,0.000694953,-1.05056,-0.0798408,0.0123531,0.0214084,3.5122,5,0.1
0,0.2,0.140603,1.96148,0.592275,0.0150353,-0.170866,0.000728667,0.112757,-1.28156,0.00545382,0.0133488,2.41776,5,0.1,1,0.2,-1.7771,-4.12928,0.552826,-0.0543386,0.0638247,0.00793785,-0.406504,0.477314,0.059396,0.00956777,0.285297,5,0.1,2,0.2,-1.32865,4.17568,0.657838,0.111175,-0.0401497,-0.00545532,0.833869,-0.301123,-0.0409186,0.0167476,1.14992,5,0.1,3,0.2,4.33868,-5.27114,0.584929,-0.0696778,0.11518,0.00142157,-0.522375,0.864029,0.0106394,0.0487415,1.54887,5,0.1,4,0.2,-1.09483,5.744,0.646459,0.0675321,-0.174689,-0.00331998,0.50652,-1.31011,-0.0249147,0.0296666,2.9258,5,0.1,5,0.2,-2.32919,-0.142224,0.635142,0.185376,0.0266962,-0.0032112,1.39034,0.200227,-0.0240505,0.0287613,2.92579,5,0.1,6,0.2,-1.85493,-3.08658,0.538238,0.0476271,-0.0342846,0.0765681,0.357211,-0.257015,0.574321,0.0179866,0.764279,5,0.1,7,0.2,0.487786,3.25183,0.660733,0.0671789,0.00454783,-0.0057295,0.503868,0.0339746,-0.0429451,0.00861262,0.375027,5,0.1,8,0.2,1.54666,4.46618,0.661331,-0.00439882,-0.0109673,0.0649586,-0.0330806,-0.082016,0.487179,0.0172935,0.358108,5,0.1,9,0.2,-2.90874,4.43585,0.58134,0.00553727,-0.0505447,0.0725031,0.041604,-0.379086,0.543773,0.0115088,0.644042,5,0.1,10,0.2,-3.57061,-5.35728,0.67643,0.0159979,0.18661,0.00279695,0.119925,1.39952,0.0210106,0.0353351,2.92582,5,0.1,11,0.2,-1.74183,-2.32731,0.546888,0.0652581,0.0214398,0.00500977,0.489414,0.160933,0.0375807,0.00992464,0.389541,5,0.1,12,0.2,-2.03791,4.89211,0.578507,0.160259,-0.0969529,0.0018239,1.20211,-0.727177,0.0136793,0.0351239,2.92578,5,0.1,13,0.2,0.526799,-0.645117,0.642253,0.0493497,0.0184044,-0.00398457,0.370175,0.138015,-0.0299215,0.0116542,0.229137,5,0.1,14,0.2,4.07706,-0.0499429,0.589817,-0.180459,-0.0502077,0.000929832,-1.3535,-0.376558,0.00694394,0.0148238,2.92579,5,0.1,15,0.2,-2.67737,-2.7603,0.682189,0.0686109,0.0198305,0.00639707,0.514507,0.148892,0.0479519,0.0190312,0.422256,5,0.1,16,0.2,-3.53681,-2.65816,0.510334,0.149673,0.0102043,-0.00569075,1.12259,0.0765324,-0.0426769,0.010953,1.85111,5,0.1,17,0.2,0.695249,-2.16188,0.631623,-0.017558,-0.186414,-0.00547171,-0.131696,-1.39809,-0.0410378,0.00933398,2.92579,5,0.1,18,0.2,-2.8471,5.17773,0.533684,0.165516,-0.0876188,0.00406951,1.24121,-0.657082,0.0305474,0.0457624,2.92581,5,0.1,19,0.2,0.847203,1.92903,0.511244,-0.0657648,-0.082916,-0.00577718,-0.493199,-0.621796,-0.0433028,0.00973963,0.922547,5,0.1,20,0.2,4.64059,0.757051,0.564853,-0.0274062,0.0700787,0.00331402,-0.205755,0.525594,0.0249147,0.0236763,0.465917,5,0.1,21,0.2,1.46814,-3.0188,0.630891,-0.0535905,0.072515,-0.00291318,-0.401914,0.543952,-0.0218749,0.0410477,0.668419,5,0.1,22,0.2,-0.451566,-1.12061,0.633043,0.141635,0.0632554,-0.00311583,1.06226,0.474393,-0.0233948,0.0160344,1.97687,5,0.1,23,0.2,-5.76663,-0.851935,0.501441,0.0628829,0.151102,-0.0011757,0.471592,1.13326,-0.00879169,0.020713,2.25954,5,0.1,24,0.2,-3.45121,-4.64526,0.677751,3.57628e-05,0.185871,0.0231728,0.000119209,1.39427,0.173837,0.0172011,2.96268,5,0.1,25,0.2,-4.73094,-2.95994,0.643142,0.0513434,-0.0404,-0.0120461,0.384808,-0.30303,-0.090301,0.0101184,0.362398,5,0.1,26,0.2,-1.58131,-0.591113,0.550553,0.148046,0.114681,0.00422895,1.11043,0.860125,0.0316799,0.0166353,2.92579,5,0.1,27,0.2,-5.36332,-2.40195,0.685258,0.152183,0.0426292,0.0061065,1.14107,0.319719,0.0458062,0.013538,2.05416,5,0.1,28,0.2,-3.12101,1.98515,0.5767,0.152898,-0.0316143,0.00219792,1.14691,-0.237048,0.0164807,0.0113644,2.00245,5,0.1,29,0.2,-3.54615,-3.58634,0.600402,0.158238,0.100243,-2.68221e-05,1.18661,0.751972,-0.000238419,0.0186095,2.92583,5,0.1,30,0.2,-1.22282,1.72779,0.584868,-0.181159,0.0476301,0.000876188,-1.35863,0.35727,0.00658631,0.023199,2.9258,5,0.1,31,0.2,-2.03428,5.76369,0.503564,0.123,-0.141227,-0.00290573,0.922322,-1.05953,-0.0217855,0.013515,2.92593,5,0.1,32,0.2,2.09762,-3.47759,0.63188,-0.00830293,0.187129,-0.00179261,-0.0622272,1.40333,-0.0134706,0.0283733,2.9258,5,0.1,33,0.2,2.73217,-2.54878,0.542721,-0.00303388,0.0706315,0.0761464,-0.022769,0.529647,0.571102,0.0189535,0.886616,5,0.1,34,0.2,3.93397,-4.56076,0.624107,-0.0315011,-0.0791669,-0.00227392,-0.236273,-0.593424,-0.0170469,0.0196573,0.596562,5,0.1,35,0.2,1.4767,-0.229268,0.645457,-0.18712,-0.00838339,-0.00172555,-1.40345,-0.0628829,-0.012964,0.00949109,2.92579,5,0.1,36,0.2,-1.78133,-4.85028,0.504222,-0.0159115,0.103796,-0.00344217,-0.119269,0.77796,-0.0258088,0.0084719,0.907926,5,0.1,37,0.2,-3.69844,1.71279,0.688419,-0.00486374,0.0789702,0.0624031,-0.036478,0.592232,0.468045,0.0104091,0.83391,5,0.1,38,0.2,-1.53052,-5.73673,0.583298,-0.0678629,-0.0106812,0.00157654,-0.509024,-0.0801086,0.0117719,0.00904465,0.805653,5,0.1,39,0.2,3.30785,-0.0276117,0.684641,-0.186765,-0.0141939,0.00219643,-1.40071,-0.106455,0.0164807,0.0196483,2.9258,5,0.1
0,0.3,0.142732,1.93739,0.592378,0.0279699,-0.314516,0.00135452,0.137981,-1.50862,0.00668317,0.0133488,2.41776,5,0.1,1,0.3,-1.78474,-4.1203,0.553942,-0.0995707,0.116941,0.0145467,-0.472337,0.554711,0.0690147,0.00956777,0.285297,5,0.1,2,0.3,-1.31291,4.17,0.657066,0.206827,-0.0746913,-0.010149,1.02035,-0.368506,-0.0500679,0.0167476,1.14992,5,0.1,3,0.3,4.32881,-5.25559,0.58513,-0.129608,0.192777,0.00264281,-0.639349,0.675529,0.0130348,0.0487415,1.54887,5,0.1,4,0.3,-1.08526,5.71925,0.645989,0.125786,-0.325365,-0.00618529,0.622489,-1.6101,-0.0306144,0.0296666,2.9258,5,0.1,5,0.3,-2.30292,-0.138441,0.634687,0.345277,0.0497239,-0.00597816,1.70867,0.24607,-0.0295714,0.0287613,2.92579,5,0.1,6,0.3,-1.84818,-3.09143,0.549083,0.088603,-0.0637695,0.142447,0.437111,-0.314564,0.702754,0.0179866,0.764279,5,0.1,7,0.3,0.497301,3.25247,0.659922,0.124977,0.00844933,-0.0106565,0.616554,0.0416487,-0.0525676,0.00861262,0.375027,5,0.1,8,0.3,1.54604,4.46463,0.670498,-0.00819154,-0.0203796,0.119899,-0.0404418,-0.100464,0.579398,0.0172935,0.358108,5,0.1,9,0.3,-2.90795,4.4287,0.591609,0.0103083,-0.0940286,0.13488,0.0508875,-0.463873,0.665404,0.0115088,0.644042,5,0.1,10,0.3,-3.56836,-5.33083,0.676824,0.0293698,0.347605,0.00513848,0.139907,1.72067,0.0244901,0.0353351,2.92582,5,0.1,11,0.3,-1.73259,-2.32427,0.547598,0.1214,0.0398953,0.00932049,0.598885,0.196859,0.0459775,0.00992464,0.389541,5,0.1,12,0.3,-2.0152,4.87837,0.578766,0.298507,-0.180584,0.00339737,1.47729,-0.893652,0.0168197,0.0351239,2.92578,5,0.1,13,0.3,0.533789,-0.64251,0.641688,0.0918113,0.0342368,-0.00741594,0.452951,0.168893,-0.0365973,0.0116542,0.229137,5,0.1,14,0.3,4.05149,-0.0570578,0.589949,-0.336121,-0.0935153,0.00172956,-1.66339,-0.462781,0.00854954,0.0148238,2.92579,5,0.1,15,0.3,-2.66766,-2.75749,0.683095,0.127633,0.0369061,0.0118983,0.629649,0.182107,0.0586919,0.0190312,0.422256,5,0.1,16,0.3,-3.51562,-2.65672,0.50955,0.278447,0.018983,-0.00994364,1.37368,0.0936538,-0.0408031,0.010953,1.85111,5,0.1,17,0.3,0.692761,-2.1883,0.630848,-0.0327038,-0.347206,-0.0101915,-0.161842,-1.71822,-0.050433,0.00933398,2.92579,5,0.1,18,0.3,-2.82365,5.16531,0.534261,0.308271,-0.16319,0.00758171,1.52549,-0.807583,0.0375286,0.0457624,2.92581,5,0.1,19,0.3,0.837889,1.91729,0.510442,-0.122341,-0.154245,-0.0102764,-0.603534,-0.760928,-0.0446662,0.00973963,0.922547,5,0.1,20,0.3,4.63671,0.766977,0.565323,-0.0510015,0.13037,0.00617029,-0.251681,0.643153,0.0304542,0.0236763,0.465917,5,0.1,21,0.3,1.46055,-3.00853,0.630478,-0.0996947,0.13491,-0.0054216,-0.491828,0.665575,-0.026755,0.0410477,0.668419,5,0.1,22,0.3,-0.431506,-1.11165,0.632602,0.263488,0.117674,-0.00579879,1.29987,0.580519,-0.0286177,0.0160344,1.97687,5,0.1,23,0.3,-5.75772,-0.831272,0.501285,0.11698,0.260161,-0.00188416,0.577092,1.01526,-0.0054203,0.020713,2.25954,5,0.1,24,0.3,-3.45121,-4.61951,0.681035,5.40167e-05,0.32941,0.0431645,0.000223517,1.41519,0.213619,0.0172011,2.96268,5,0.1,25,0.3,-4.72367,-2.96566,0.641436,0.0954926,-0.0751603,-0.0224059,0.470996,-0.370815,-0.110518,0.0101184,0.362398,5,0.1,26,0.3,-1.56033,-0.574861,0.551152,0.275753,0.213602,0.00787368,1.36465,1.05706,0.0389554,0.0166353,2.92579,5,0.1,27,0.3,-5.34177,-2.39592,0.686123,0.283084,0.0793055,0.0113606,1.39645,0.391245,0.0560507,0.013538,2.05416,5,0.1,28,0.3,-3.09935,1.98067,0.577011,0.284456,-0.058808,0.00408851,1.40335,-0.290103,0.0201687,0.0113644,2.00245,5,0.1,29,0.3,-3.52374,-3.57214,0.600398,0.29427,0.186723,-5.30854e-05,1.45051,0.924081,-0.000268221,0.0186095,2.92583,5,0.1,30,0.3,-1.24849,1.73454,0.584992,-0.337416,0.0887176,0.00163307,-1.66976,0.439055,0.00808761,0.023199,2.9258,5,0.1,31,0.3,-2.01685,5.74367,0.503179,0.229081,-0.263073,-0.0046608,1.13359,-1.30197,-0.0134297,0.013515,2.92593,5,0.1,32,0.3,2.09644,-3.45107,0.631626,-0.01546,0.348528,-0.00334093,-0.0765026,1.72472,-0.0165366,0.0283733,2.9258,5,0.1,33,0.3,2.73174,-2.53878,0.553506,-0.0056453,0.13139,0.141658,-0.0278354,0.648156,0.698846,0.0189535,0.886616,5,0.1,34,0.3,3.92951,-4.57198,0.623785,-0.0586037,-0.14725,-0.00422969,-0.289127,-0.726372,-0.0208616,0.0196573,0.596562,5,0.1,35,0.3,1.45018,-0.230456,0.645212,-0.348528,-0.0156153,-0.00321604,-1.72479,-0.0772784,-0.0159219,0.00949109,2.92579,5,0.1,36,0.3,-1.78358,-4.83558,0.503766,-0.0295948,0.19305,-0.00552135,-0.145972,0.952214,-0.0159107,0.0084719,0.907926,5,0.1,37,0.3,-3.69912,1.72397,0.697258,-0.00904836,0.146907,0.116092,-0.044629,0.724733,0.572726,0.0104091,0.83391,5,0.1,38,0.3,-1.54045,-5.73824,0.583521,-0.135143,-0.0198714,0.00292845,-0.780903,-0.0980198,0.0144318,0.00904465,0.805653,5,0.1,39,0.3,3.28138,-0.0296231,0.684952,-0.347861,-0.0264372,0.00409158,-1.72147,-0.13083,0.0202544,0.0196483,2.9258,5,0.1
0,0.4,0.146207,1.89859,0.592546,0.0412494,-0.458226,0.00199825,0.121728,-1.30475,0.00587106,0.0146237,2.14004,5,0.1,1,0.4,-1.79699,-4.10591,0.555732,-0.144342,0.169528,0.0210881,-0.404179,0.474453,0.0590682,0.00933951,0.187882,5,0.1,2,0.4,-1.28721,4.16072,0.655805,0.305024,-0.110149,-0.0149682,0.900209,-0.325441,-0.044167,0.0175253,0.909828,5,0.1,3,0.4,4.31271,-5.23333,0.585459,-0.19114,0.248325,0.00389814,-0.56386,0.427723,0.0114739,0.0500073,1.40386,5,0.1,4,0.4,-1.06962,5.6788,0.64522,0.185761,-0.480497,-0.00913441,0.550389,-1.4236,-0.0270605,0.0310042,2.51008,5,0.1,5,0.4,-2.25999,-0.132259,0.633944,0.509906,0.0734322,-0.00882745,1.51074,0.217572,-0.0261664,0.0335162,2.45795,5,0.1,6,0.4,-1.83717,-3.09935,0.566779,0.130668,-0.0940442,0.210078,0.385642,-0.277519,0.619978,0.0172041,0.604705,5,0.1,7,0.4,0.512827,3.25352,0.658598,0.184314,0.0124574,-0.0157148,0.543952,0.0367165,-0.0464022,0.00898442,0.297818,5,0.1,8,0.4,1.54502,4.4621,0.685319,-0.0120819,-0.0300527,0.175244,-0.0356436,-0.0886917,0.503749,0.0181391,0.31525,5,0.1,9,0.4,-2.90667,4.41701,0.608365,0.0152051,-0.138676,0.198917,0.0448227,-0.409126,0.587076,0.0116557,0.509574,5,0.1,10,0.4,-3.56474,-5.28761,0.677457,0.042659,0.513399,0.00746548,0.120282,1.52183,0.0210404,0.0364813,2.51498,5,0.1,11,0.4,-1.71751,-2.31932,0.548756,0.179037,0.0588357,0.0137463,0.528336,0.173807,0.040561,0.0106477,0.308208,5,0.1,12,0.4,-1.97809,4.85592,0.579188,0.440839,-0.266683,0.00501722,1.30612,-0.790358,0.0148714,0.0340909,2.51006,5,0.1,13,0.4,0.545194,-0.638257,0.640767,0.135402,0.0504926,-0.0109375,0.39959,0.148982,-0.0322759,0.012149,0.181295,5,0.1,14,0.4,4.0097,-0.068684,0.590164,-0.496387,-0.138103,0.00255406,-1.47069,-0.409178,0.00756979,0.0141796,2.46025,5,0.1,15,0.4,-2.6518,-2.7529,0.684573,0.188226,0.054431,0.0175461,0.555515,0.160694,0.0517964,0.0148514,0.334095,5,0.1,16,0.4,-3.48102,-2.65436,0.508366,0.410646,0.0279903,-0.0135809,1.21188,0.0827312,-0.0308454,0.0104007,1.4985,5,0.1,17,0.4,0.688695,-2.23147,0.629581,-0.0482976,-0.512755,-0.0150502,-0.143081,-1.5192,-0.0446141,0.00982299,2.51464,5,0.1,18,0.4,-2.78532,5.14502,0.535203,0.455248,-0.240993,0.0111967,1.34897,-0.714064,0.03317,0.0469062,2.51009,5,0.1,19,0.4,0.822691,1.89813,0.509202,-0.180425,-0.227475,-0.0143647,-0.532478,-0.671327,-0.0356436,0.00984641,0.730382,5,0.1,20,0.4,4.63037,0.783172,0.56609,-0.0752211,0.192265,0.00910014,-0.221968,0.567436,0.0268817,0.0241939,0.368636,5,0.1,21,0.4,1.44816,-2.99177,0.629805,-0.147027,0.198966,-0.00799596,-0.433862,0.587106,-0.0236034,0.0370091,0.528859,5,0.1,22,0.4,-0.398773,-1.09704,0.631882,0.388584,0.173545,-0.00855327,1.14681,0.512123,-0.0252426,0.0153982,1.56412,5,0.1,23,0.4,-5.74319,-0.800595,0.501075,0.17252,0.348648,-0.00227243,0.509024,0.732154,-0.00235438,0.0204774,2.06421,5,0.1,24,0.4,-3.4512,-4.57988,0.686402,8.34465e-05,0.458395,0.0637457,0.000119209,1.12033,0.188857,0.0176579,2.9273,5,0.1,25,0.4,-4.71181,-2.975,0.638652,0.140822,-0.110841,-0.0330433,0.415802,-0.327229,-0.0975132,0.00940397,0.286735,5,0.1,26,0.4,-1.52605,-0.548305,0.552131,0.407234,0.315449,0.0116274,1.20652,0.934601,0.0344217,0.0173945,2.51007,5,0.1,27,0.4,-5.30661,-2.38606,0.687534,0.417483,0.116956,0.0167549,1.23215,0.34523,0.0494421,0.00983137,1.62528,5,0.1,28,0.4,-3.06402,1.97336,0.577519,0.419509,-0.0867248,0.00602901,1.23811,-0.256002,0.017792,0.0119616,1.58435,5,0.1,29,0.4,-3.48719,-3.54892,0.600391,0.433826,0.275749,-7.89762e-05,1.27912,0.81706,-0.000238419,0.0157124,2.70625,5,0.1,30,0.4,-1.29044,1.74557,0.585195,-0.498292,0.13102,0.0024125,-1.47641,0.388145,0.00715256,0.018514,2.51076,5,0.1,31,0.4,-1.98837,5.71097,0.502658,0.338304,-0.388515,-0.00561923,1.00237,-1.15108,-0.00587106,0.0141483,2.51041,5,0.1,32,0.4,2.09452,-3.40774,0.63121,-0.0228286,0.514704,-0.00493377,-0.0677109,1.52493,-0.0146031,0.0302153,2.51545,5,0.1,33,0.4,2.73104,-2.52246,0.571104,-0.00832677,0.193769,0.208913,-0.0245571,0.571847,0.61655,0.0232605,0.701502,5,0.1,34,0.4,3.92222,-4.59027,0.62326,-0.0864267,-0.217152,-0.00623763,-0.255108,-0.640869,-0.0184178,0.0174727,0.472016,5,0.1,35,0.4,1.40685,-0.232397,0.644812,-0.514707,-0.023061,-0.004749,-1.52498,-0.0683218,-0.0140965,0.00992897,2.51543,5,0.1,36,0.4,-1.78726,-4.8116,0.503149,-0.0436455,0.284708,-0.00665784,-0.128746,0.839949,-0.00694394,0.00848933,0.718885,5,0.1,37,0.4,-3.70025,1.74222,0.71168,-0.0133455,0.216654,0.17121,-0.0393391,0.639379,0.505269,0.0101216,0.6598,5,0.1,38,0.4,-1.55794,-5.74071,0.583885,-0.214294,-0.0293016,0.00431836,-0.760198,-0.0867844,0.0127256,0.00836664,0.648409,5,0.1,39,0.4,3.23813,-0.0329099,0.685461,-0.513715,-0.0390423,0.00604242,-1.5223,-0.115676,0.0178814,0.0189268,2.51504,5,0.1
0,0.5,0.150952,1.84765,0.592776,0.0536001,-0.547374,0.00259466,0.119227,-0.5202,0.00576675,0.0146237,2.14004,5,0.1,1,0.5,-1.81342,-4.08662,0.558132,-0.183474,0.215472,0.0268066,-0.362046,0.425071,0.0528991,0.00933951,0.187882,5,0.1,2,0.5,-1.25213,4.14805,0.654083,0.396357,-0.143161,-0.0194495,0.881672,-0.318646,-0.0432543,0.0175253,0.909828,5,0.1,3,0.5,4.29073,-5.20711,0.585907,-0.248358,0.269306,0.00506295,-0.552416,0.0254512,0.0112541,0.0500073,1.40386,5,0.1,4,0.5,-1.04822,5.62343,0.644167,0.242398,-0.626992,-0.011919,0.553206,-1.43099,-0.0271983,0.0310042,2.51008,5,0.1,5,0.5,-2.20142,-0.1238,0.632927,0.659894,0.0957386,-0.0115101,1.41947,0.217224,-0.0261255,0.0335162,2.45795,5,0.1,6,0.5,-1.82214,-3.11017,0.590943,0.169795,-0.122202,0.27298,0.3777,-0.271842,0.607207,0.0172041,0.604705,5,0.1,7,0.5,0.533926,3.25495,0.656791,0.236609,0.0161842,-0.0204225,0.481412,0.0360012,-0.0454448,0.00898442,0.297818,5,0.1,8,0.5,1.54363,4.45864,0.704821,-0.0156978,-0.0390522,0.209805,-0.034906,-0.0868738,0.203356,0.0181391,0.31525,5,0.1,9,0.5,-2.90492,4.40106,0.631246,0.0197534,-0.180189,0.258481,0.0439137,-0.400752,0.574991,0.0116557,0.509574,5,0.1,10,0.5,-3.55986,-5.22867,0.678311,0.0549126,0.663584,0.00960855,0.118628,1.41335,0.0207461,0.0364813,2.51498,5,0.1,11,0.5,-1.69692,-2.31255,0.550337,0.232643,0.0764649,0.0178617,0.517473,0.170127,0.0397228,0.0106477,0.308208,5,0.1,12,0.5,-1.92729,4.82519,0.579766,0.575242,-0.348009,0.00654738,1.31283,-0.794351,0.0149459,0.0340909,2.51006,5,0.1,13,0.5,0.560769,-0.632449,0.639509,0.175944,0.065609,-0.0142119,0.39136,0.145931,-0.0316091,0.012149,0.181295,5,0.1,14,0.5,3.95256,-0.0845934,0.590458,-0.645835,-0.180068,0.0033306,-1.44415,-0.408777,0.00756234,0.0141796,2.46025,5,0.1,15,0.5,-2.63015,-2.74664,0.686591,0.244588,0.0707325,0.0228013,0.544086,0.157341,0.0507273,0.0148514,0.334095,5,0.1,16,0.5,-3.43435,-2.65114,0.506895,0.517605,0.0363819,-0.0154573,0.90313,0.0809729,-0.00780076,0.0104007,1.4985,5,0.1,17,0.5,0.68313,-2.29034,0.627846,-0.0630212,-0.662872,-0.0196406,-0.143822,-1.41433,-0.0448339,0.00982299,2.51464,5,0.1,18,0.5,-2.73286,5.11725,0.536494,0.59406,-0.314473,0.0146098,1.35587,-0.7177,0.0333376,0.0469062,2.51009,5,0.1,19,0.5,0.801937,1.87196,0.507632,-0.23445,-0.295588,-0.0166188,-0.521518,-0.657529,-0.010591,0.00984641,0.730382,5,0.1,20,0.5,4.62172,0.805288,0.567136,-0.0977404,0.249837,0.0118264,-0.217408,0.555746,0.0263117,0.0241939,0.368636,5,0.1,21,0.5,1.43125,-2.96889,0.628885,-0.191047,0.258534,-0.0103906,-0.424951,0.575036,-0.0231117,0.0370091,0.528859,5,0.1,22,0.5,-0.354076,-1.07707,0.630898,0.504939,0.225506,-0.0111141,1.12321,0.501603,-0.0247173,0.0153982,1.56412,5,0.1,23,0.5,-5.72335,-0.763135,0.500842,0.224166,0.390975,-0.00233678,0.498563,0.156421,0.000860542,0.0204774,2.06421,5,0.1,24,0.5,-3.45119,-4.52985,0.693747,9.98378e-05,0.529208,0.0831754,0.000178814,0.346392,0.189748,0.0176579,2.9273,5,0.1,25,0.5,-4.69561,-2.98775,0.634852,0.183007,-0.144039,-0.0429376,0.407219,-0.320449,-0.0955202,0.00940397,0.286735,5,0.1,26,0.5,-1.47912,-0.511955,0.553471,0.531389,0.411623,0.0151705,1.21272,0.939414,0.0346154,0.0173945,2.51007,5,0.1,27,0.5,-5.25858,-2.37261,0.689462,0.542498,0.151983,0.0217713,1.20682,0.338107,0.0484213,0.00983137,1.62528,5,0.1,28,0.5,-3.01576,1.96339,0.578212,0.545124,-0.112698,0.0078341,1.21258,-0.250712,0.0174269,0.0119616,1.58435,5,0.1,29,0.5,-3.43876,-3.51715,0.600382,0.52227,0.359824,-0.000103097,0.528932,0.821203,-0.000227243,0.0157124,2.70625,5,0.1,30,0.5,-1.34778,1.76067,0.585473,-0.647833,0.170962,0.00314815,-1.44073,0.390157,0.00718608,0.018514,2.51076,5,0.1,31,0.5,-1.94939,5.6662,0.502082,0.441453,-0.506963,-0.00578184,1.00754,-1.15699,0.00210106,0.0141483,2.51041,5,0.1,32,0.5,2.09189,-3.34866,0.630642,-0.0297956,0.664896,-0.00643665,-0.0680387,1.41078,-0.0146814,0.0302153,2.51545,5,0.1,33,0.5,2.73008,-2.50017,0.595134,-0.010819,0.251789,0.271468,-0.0240505,0.560105,0.603862,0.0232605,0.701502,5,0.1,34,0.5,3.91228,-4.61525,0.622542,-0.112309,-0.282177,-0.00810623,-0.249848,-0.627756,-0.0180379,0.0174727,0.472016,5,0.1,35,0.5,1.34777,-0.235054,0.644265,-0.664902,-0.0300916,-0.00619916,-1.41078,-0.0686748,-0.0141598,0.00992897,2.51543,5,0.1,36,0.5,-1.79228,-4.77885,0.502466,-0.0567101,0.369938,-0.0068496,-0.126123,0.822872,0.00249967,0.00848933,0.718885,5,0.1,37,0.5,-3.70178,1.76714,0.731373,-0.0173379,0.281526,0.222474,-0.0385493,0.626236,0.494868,0.0101216,0.6598,5,0.1,38,0.5,-1.58334,-5.74408,0.584382,-0.294216,-0.0381023,0.00561029,-0.796027,-0.084877,0.0124797,0.00836664,0.648409,5,0.1,39,0.5,3.17916,-0.0374089,0.686157,-0.663884,-0.0509458,0.0078829,-1.41264,-0.116271,0.0179783,0.0189268,2.51504,5,0.1
0,0.6,0.156863,1.79133,0.593062,0.0640631,-0.569868,0.00309944,0.0857636,0.0363588,0.00417233,0.0154692,1.88035,5,0.1,1,0.6,-1.8334,-4.06316,0.561051,-0.213987,0.251305,0.0312656,-0.237048,0.278473,0.0346005,0.008137,0.108759,5,0.1,2,0.6,-1.20841,4.13226,0.651938,0.473726,-0.171125,-0.0232458,0.634313,-0.228882,-0.0311434,0.0154692,0.677335,5,0.1,3,0.6,4.26334,-5.18049,0.586465,-0.296831,0.259292,0.00605136,-0.397682,-0.200272,0.00810623,0.048297,1.24874,5,0.1,4,0.6,-1.0214,5.55407,0.642849,0.291431,-0.75382,-0.0143304,0.406802,-1.05238,-0.0199974,0.0301792,2.2705,5,0.1,5,0.6,-2.12895,-0.113217,0.631655,0.782233,0.114943,-0.0138208,0.981212,0.158869,-0.0190735,0.0285463,1.91734,5,0.1,6,0.6,-1.80342,-3.12365,0.621048,0.202942,-0.146055,0.326267,0.271618,-0.195622,0.436783,0.0161547,0.450187,5,0.1,7,0.6,0.559752,3.25674,0.654538,0.277145,0.0193477,-0.0244096,0.315338,0.0257492,-0.0326931,0.00948406,0.258427,5,0.1,8,0.6,1.5419,4.45434,0.726429,-0.0187606,-0.0466824,0.218789,-0.0250936,-0.0624657,-0.0107288,0.0178561,0.275486,5,0.1,9,0.6,-2.90275,4.38119,0.659752,0.0236094,-0.215352,0.308938,0.0315905,-0.288486,0.413626,0.0122164,0.379368,5,0.1,10,0.6,-3.55382,-5.15588,0.679367,0.0653267,0.784743,0.0114307,0.0853539,0.965595,0.0149012,0.0381291,2.33386,5,0.1,11,0.6,-1.67126,-2.30412,0.552306,0.278056,0.0913918,0.0213474,0.372231,0.122428,0.0285804,0.00930616,0.229452,5,0.1,12,0.6,-1.86366,4.78669,0.580491,0.691599,-0.418401,0.00787377,0.965476,-0.584364,0.0109673,0.0314075,2.22319,5,0.1,13,0.6,0.580173,-0.625214,0.637941,0.210287,0.0784159,-0.0169843,0.281572,0.104964,-0.022769,0.0121107,0.230564,5,0.1,14,0.6,3.8813,-0.104499,0.590826,-0.772649,-0.216217,0.00400096,-1.0407,-0.299118,0.00551343,0.013735,1.90069,5,0.1,15,0.6,-2.60317,-2.73884,0.689106,0.292337,0.0845432,0.0272527,0.391364,0.11301,0.0365078,0.0138547,0.304608,5,0.1,16,0.6,-3.37875,-2.64713,0.50534,0.58741,0.0434875,-0.0153527,0.478506,0.0581741,0.00891089,0.0102972,1.33959,5,0.1,17,0.6,0.676158,-2.36307,0.625674,-0.0757679,-0.784248,-0.0236139,-0.105798,-0.968456,-0.0329912,0.00935262,2.3302,5,0.1,18,0.6,-2.66714,5.08246,0.53811,0.714236,-0.378096,0.0175655,0.997186,-0.52762,0.0244677,0.0457958,2.23319,5,0.1,19,0.6,0.776081,1.83936,0.505951,-0.280216,-0.353292,-0.0167042,-0.375152,-0.472963,0.00789762,0.00991351,0.544327,5,0.1,20,0.6,4.61094,0.832841,0.568441,-0.116813,0.298606,0.0141338,-0.156403,0.399798,0.0189543,0.0251582,0.274438,5,0.1,21,0.6,1.41018,-2.94037,0.627739,-0.228339,0.308996,-0.0124186,-0.305712,0.413656,-0.0165999,0.0426878,0.393724,5,0.1,22,0.6,-0.29839,-1.05221,0.629672,0.603505,0.269523,-0.0132829,0.808001,0.360906,-0.017792,0.0155772,1.16445,5,0.1,23,0.6,-5.69863,-0.723925,0.500616,0.267923,0.387362,-0.00213981,0.358582,-0.196427,0.00289083,0.0227059,1.85166,5,0.1,24,0.6,-3.45118,-4.47614,0.702948,0.000119209,0.536644,0.0999913,0.000238419,-0.15831,0.139475,0.0251556,2.99631,5,0.1,25,0.6,-4.67543,-3.00363,0.630116,0.218737,-0.172162,-0.0513196,0.293016,-0.230432,-0.0686944,0.00995513,0.213463,5,0.1,26,0.6,-1.42034,-0.466421,0.555149,0.638878,0.494885,0.018239,0.891745,0.690848,0.0254512,0.0154862,2.18467,5,0.1,27,0.6,-5.19876,-2.35585,0.691863,0.648403,0.181651,0.0260219,0.86832,0.243187,0.0348091,0.0108835,1.20999,5,0.1,28,0.6,-2.95564,1.95096,0.579076,0.651532,-0.134701,0.00936389,0.872374,-0.180364,0.0125468,0.010547,1.1795,5,0.1,29,0.6,-3.38486,-3.47734,0.600371,0.546718,0.432611,-0.00012219,-0.00798702,0.603795,-0.000178814,0.0155854,2.65845,5,0.1,30,0.6,-1.41922,1.77958,0.585821,-0.773999,0.205541,0.00378489,-1.03205,0.286937,0.00527501,0.018873,2.30404,5,0.1,31,0.6,-1.90055,5.61012,0.501523,0.530753,-0.609505,-0.00529438,0.741005,-0.850677,0.00721216,0.0151753,2.21968,5,0.1,32,0.6,2.08859,-3.27576,0.62993,-0.0358284,0.785631,-0.00773817,-0.0499487,0.959754,-0.0107586,0.0287776,2.33398,5,0.1,33,0.6,2.72889,-2.4724,0.625073,-0.0129282,0.300944,0.324459,-0.0174046,0.402808,0.434399,0.0179228,0.522251,5,0.1,34,0.6,3.8999,-4.64637,0.621648,-0.13423,-0.337267,-0.00968874,-0.179768,-0.451565,-0.0129938,0.0176636,0.351411,5,0.1,35,0.6,1.27487,-0.238383,0.643579,-0.785637,-0.0361785,-0.00745356,-0.959754,-0.0505,-0.010401,0.00935583,2.33396,5,0.1,36,0.6,-1.79853,-4.73806,0.501805,-0.0677794,0.442147,-0.0062719,-0.0907183,0.592232,0.00852346,0.0105192,0.535851,5,0.1,37,0.6,-3.7037,1.79819,0.755908,-0.0207186,0.33648,0.265902,-0.0277758,0.450552,0.355959,0.0108726,0.491207,5,0.1,38,0.6,-1.61651,-5.74828,0.585,-0.366259,-0.0455499,0.00670552,-0.614643,-0.0610352,0.0090003,0.00785144,0.49305,5,0.1,39,0.6,3.10634,-0.0430446,0.687029,-0.784951,-0.0612512,0.00947714,-0.963926,-0.0855047,0.0132322,0.0192127,2.33205,5,0.1
0,0.7,0.163691,1.73558,0.593393,0.0722969,-0.536751,0.00350019,0.0742059,0.535928,0.00360981,0.0154692,1.88035,5,0.1,1,0.7,-1.85589,-4.03675,0.564337,-0.234617,0.275543,0.0342769,-0.165589,0.19455,0.0241734,0.008137,0.108759,5,0.1,2,0.7,-1.15793,4.11402,0.649461,0.53462,-0.193101,-0.0262355,0.548773,-0.198066,-0.0269376,0.0154692,0.677335,5,0.1,3,0.7,4.2317,-5.15598,0.58711,-0.33501,0.228144,0.00682976,-0.344068,-0.369549,0.00701845,0.048297,1.24874,5,0.1,4,0.7,-0.990198,5.47428,0.641314,0.332267,-0.833323,-0.0163381,0.384156,-0.535339,-0.0188835,0.0301792,2.2705,5,0.1,5,0.7,-2.04688,-0.100938,0.630179,0.849184,0.130298,-0.0156651,0.383124,0.139436,-0.0167526,0.0285463,1.91734,5,0.1,6,0.7,-1.78179,-3.13921,0.655821,0.229019,-0.164836,0.3682,0.235021,-0.169262,0.377905,0.0161547,0.450187,5,0.1,7,0.7,0.588432,3.2588,0.651937,0.290899,0.0218231,-0.027548,-0.0180304,0.0223368,-0.0282824,0.00948406,0.258427,5,0.1,8,0.7,1.5399,4.44936,0.747846,-0.0211695,-0.0526823,0.206356,-0.0217035,-0.0540912,-0.203568,0.0178561,0.275486,5,0.1,9,0.7,-2.90023,4.35824,0.692678,0.0266425,-0.243045,0.348648,0.0273287,-0.249565,0.357863,0.0122164,0.379368,5,0.1,10,0.7,-3.54689,-5.07364,0.680577,0.0729922,0.850029,0.0126852,0.0643879,0.368237,0.00975281,0.0381291,2.33386,5,0.1,11,0.7,-1.64162,-2.29437,0.554582,0.313792,0.103141,0.0240912,0.322074,0.105858,0.0247248,0.00930616,0.229452,5,0.1,12,0.7,-1.78983,4.74189,0.581334,0.782162,-0.477052,0.00897534,0.798017,-0.551671,0.0103638,0.0314075,2.22319,5,0.1,13,0.7,0.602864,-0.616752,0.636109,0.245235,0.0914462,-0.019809,0.384055,0.143208,-0.0310279,0.0121107,0.230564,5,0.1,14,0.7,3.79987,-0.127598,0.591254,-0.84586,-0.245132,0.00453461,-0.44015,-0.262645,0.00485033,0.013735,1.90069,5,0.1,15,0.7,-2.57202,-2.72967,0.692011,0.32991,0.09984,0.0307574,0.338614,0.176817,0.0315867,0.0138547,0.304608,5,0.1,16,0.7,-3.31888,-2.64249,0.503872,0.598652,0.0490729,-0.0138029,-0.201479,0.0503212,0.0209659,0.0102972,1.33959,5,0.1,17,0.7,0.668046,-2.44528,0.623145,-0.0863842,-0.849936,-0.0269237,-0.0998341,-0.371218,-0.0311248,0.00935262,2.3302,5,0.1,18,0.7,-2.59113,5.04198,0.53999,0.801259,-0.431064,0.0200224,0.710338,-0.498295,0.0231229,0.0457958,2.23319,5,0.1,19,0.7,0.746216,1.80171,0.504346,-0.316233,-0.398698,-0.0151664,-0.324585,-0.409216,0.0216365,0.00991351,0.544327,5,0.1,20,0.7,4.59849,0.864666,0.569947,-0.131827,0.336988,0.0159523,-0.135273,0.345893,0.0163764,0.0251582,0.274438,5,0.1,21,0.7,1.38585,-2.90744,0.626416,-0.257689,0.348709,-0.0140126,-0.264511,0.357881,-0.014361,0.0426878,0.393724,5,0.1,22,0.7,-0.234069,-1.02348,0.628256,0.681076,0.304171,-0.0149907,0.699075,0.312243,-0.0153892,0.0155772,1.16445,5,0.1,23,0.7,-5.67007,-0.68683,0.500419,0.30235,0.349828,-0.00178767,0.310272,-0.481673,0.00400469,0.0227059,1.85166,5,0.1,24,0.7,-3.45117,-4.42426,0.713652,0.000143051,0.493813,0.113958,0.000238419,-0.598252,0.131104,0.0251556,2.99631,5,0.1,25,0.7,-4.65211,-3.02198,0.624647,0.246865,-0.194285,-0.057915,0.253499,-0.199378,-0.0594407,0.00995513,0.213463,5,0.1,26,0.7,-1.35194,-0.41344,0.557102,0.728088,0.563996,0.0207858,0.836663,0.648154,0.0238866,0.0154862,2.18467,5,0.1,27,0.7,-5.12965,-2.33649,0.694636,0.731764,0.204998,0.0293642,0.751227,0.210389,0.0301301,0.0108835,1.20999,5,0.1,28,0.7,-2.8862,1.9366,0.580074,0.73528,-0.152016,0.0105684,0.754729,-0.156038,0.0108518,0.010547,1.1795,5,0.1,29,0.7,-3.33129,-3.43103,0.600358,0.516507,0.49311,-0.000139326,-0.504673,0.568211,-0.000156462,0.0155854,2.65845,5,0.1,30,0.7,-1.50074,1.80159,0.586226,-0.846379,0.234341,0.00431435,-0.432186,0.270918,0.00498071,0.018873,2.30404,5,0.1,31,0.7,-1.84372,5.54485,0.501036,0.605135,-0.6949,-0.00441903,0.699744,-0.803322,0.0099279,0.0151753,2.21968,5,0.1,32,0.7,2.08476,-3.19346,0.629102,-0.0408415,0.850414,-0.0088186,-0.0471622,0.363022,-0.0101663,0.0287776,2.33398,5,0.1,33,0.7,2.72751,-2.44033,0.659653,-0.0145979,0.339617,0.366163,-0.0150204,0.348523,0.375837,0.0179228,0.522251,5,0.1,34,0.7,3.88559,-4.68231,0.620615,-0.151487,-0.380621,-0.0109358,-0.155509,-0.390738,-0.0112355,0.0176636,0.351411,5,0.1,35,0.7,1.19257,-0.242257,0.642781,-0.850416,-0.041247,-0.00849711,-0.362977,-0.0476735,-0.00981614,0.00935583,2.33396,5,0.1,36,0.7,-1.80576,-4.69093,0.501227,-0.0764901,0.499004,-0.00523599,-0.0785068,0.512421,0.0117533,0.0105192,0.535851,5,0.1,37,0.7,-3.7059,1.83405,0.784248,-0.0233855,0.379734,0.300076,-0.0240356,0.389807,0.307985,0.0108726,0.491207,5,0.1,38,0.7,-1.6562,-5.75314,0.585715,-0.426508,-0.0514075,0.0075696,-0.557773,-0.0528097,0.00778586,0.00785144,0.49305,5,0.1,39,0.7,3.02409,-0.0496029,0.688044,-0.850175,-0.0698331,0.0108052,-0.367075,-0.0807215,0.0124872,0.0192127,2.33205,5,0.1
0,0.8,0.171241,1.68484,0.593758,0.0781149,-0.47693,0.00378191,0.0389665,0.608146,0.00193715,0.0165159,1.66795,5,0.1,1,0.8,-1.87999,-4.00843,0.567858,-0.245485,0.28832,0.0358641,-0.0455379,0.053525,0.00661612,0.0113671,0.0849241,5,0.1,2,0.8,-1.10209,4.09385,0.646721,0.577646,-0.208616,-0.028348,0.288129,-0.104189,-0.0141263,0.0159331,0.478231,5,0.1,3,0.8,4.19671,-5.13496,0.587824,-0.361991,0.193501,0.00738055,-0.180721,-0.294924,0.00369549,0.0472415,1.12896,5,0.1,4,0.8,-0.955261,5.38909,0.639597,0.363903,-0.862575,-0.0178933,0.230759,-0.0691414,-0.0113547,0.0294455,2.17445,5,0.1,5,0.8,-1.9608,-0.0873021,0.628539,0.866026,0.141354,-0.0169933,0,0.0757128,-0.00908971,0.0312254,1.44771,5,0.1,6,0.8,-1.75787,-3.15643,0.694273,0.247446,-0.178099,0.397828,0.123382,-0.0890493,0.198454,0.0156763,0.317859,5,0.1,7,0.8,0.617031,3.26108,0.64906,0.277546,0.0235796,-0.0297666,-0.231236,0.0116825,-0.0148118,0.00892913,0.222971,5,0.1,8,0.8,1.53769,4.44386,0.767363,-0.0228733,-0.0569105,0.183517,-0.0113249,-0.0288486,-0.233173,0.0170462,0.280856,5,0.1,9,0.8,-2.89745,4.33286,0.729088,0.028789,-0.262618,0.376704,0.0141859,-0.130892,0.187933,0.011592,0.267851,5,0.1,10,0.8,-3.53932,-4.98753,0.681883,0.0776172,0.866032,0.0133112,0.02563,-0.000238419,0.0025332,0.0541513,2.35026,5,0.1,11,0.8,-1.60885,-2.2836,0.557098,0.339043,0.111437,0.0260293,0.169158,0.0556707,0.0129938,0.00964326,0.162005,5,0.1,12,0.8,-1.70821,4.69173,0.582277,0.843555,-0.522494,0.00982881,0.401139,-0.330925,0.00622869,0.0344328,1.65419,5,0.1,13,0.8,0.629252,-0.606912,0.633977,0.281337,0.104909,-0.0227243,0.313669,0.116974,-0.0253618,0.012245,0.305195,5,0.1,14,0.8,3.71391,-0.153253,0.591728,-0.866026,-0.265965,0.00491887,0,-0.142761,0.00265241,0.0130329,1.41404,5,0.1,15,0.8,-2.53756,-2.71881,0.695223,0.35646,0.117105,0.0332341,0.17786,0.156879,0.0165701,0.0152076,0.220661,5,0.1,16,0.8,-3.26079,-2.63737,0.502609,0.556409,0.0530183,-0.0113621,-0.602603,0.0263453,0.0269711,0.0101389,1.19364,5,0.1,17,0.8,0.658963,-2.53139,0.620314,-0.094603,-0.866026,-0.0294864,-0.0599325,0,-0.0186563,0.00882784,2.26437,5,0.1,18,0.8,-2.50812,4.99665,0.542096,0.851727,-0.472093,0.0219256,0.285864,-0.299692,0.0139177,0.0431593,2.12098,5,0.1,19,0.8,0.713192,1.76007,0.502952,-0.341681,-0.430784,-0.0125974,-0.170439,-0.214934,0.0286996,0.00915039,0.393123,5,0.1,20,0.8,4.58473,0.899858,0.571613,-0.142431,0.364107,0.0172362,-0.0710487,0.181615,0.00858307,0.0317403,0.193766,5,0.1,21,0.8,1.35894,-2.87103,0.624952,-0.278428,0.376767,-0.0151396,-0.138879,0.187993,-0.00751019,0.0378806,0.277993,5,0.1,22,0.8,-0.162943,-0.991714,0.626691,0.735885,0.328653,-0.0161976,0.367093,0.163972,-0.00807643,0.0323845,0.822163,5,0.1,23,0.8,-5.6385,-0.654272,0.500261,0.326681,0.302236,-0.00136495,0.16284,-0.430554,0.00429153,0.0309153,2.02172,5,0.1,24,0.8,-3.45115,-4.37796,0.725631,0.000160933,0.432539,0.12473,0.000238419,-0.571251,0.0782907,0.0242497,3.03351,5,0.1,25,0.8,-4.62633,-3.04227,0.618598,0.266743,-0.209916,-0.0625759,0.133038,-0.104666,-0.0312328,0.0120793,0.150713,5,0.1,26,0.8,-1.27541,-0.354161,0.559286,0.796777,0.617207,0.0227481,0.498474,0.386194,0.0142455,0.0212479,1.57961,5,0.1,27,0.8,-5.05323,-2.31508,0.697702,0.790668,0.221491,0.0317246,0.394344,0.110626,0.0158548,0.0123221,0.854306,5,0.1,28,0.8,-2.80942,1.92073,0.581178,0.794452,-0.164253,0.0114202,0.396252,-0.0818372,0.00566244,0.0114448,0.83598,5,0.1,29,0.8,-3.28241,-3.37919,0.600343,0.460219,0.539827,-0.000153482,-0.568151,0.339746,-5.96046e-05,0.0199232,2.67057,5,0.1,30,0.8,-1.58672,1.82623,0.58668,-0.866026,0.256649,0.00472367,0,0.162661,0.00301003,0.0218376,2.23571,5,0.1,31,0.8,-1.7801,5.47179,0.500645,0.662762,-0.761056,-0.00337511,0.420213,-0.482321,0.0106692,0.015646,2.04264,5,0.1,32,0.8,2.08046,-3.10733,0.628174,-0.0447273,0.866026,-0.00965595,-0.0282526,0,-0.00610948,0.0277767,2.27031,5,0.1,33,0.8,2.72599,-2.40486,0.697892,-0.0157773,0.366944,0.395629,-0.00786781,0.183105,0.197381,0.0182968,0.368743,5,0.1,34,0.8,3.86977,-4.72206,0.619473,-0.16368,-0.41126,-0.0118166,-0.0816584,-0.20504,-0.00590086,0.0190244,0.248121,5,0.1,35,0.8,1.10644,-0.246594,0.641888,-0.866026,-0.0451721,-0.00930578,0,-0.0286251,-0.00587106,0.00997811,2.27028,5,0.1,36,0.8,-1.81375,-4.63882,0.500764,-0.0826448,0.539184,-0.00399947,-0.041306,0.268936,0.0126064,0.00888804,0.381821,5,0.1,37,0.8,-3.70835,1.87371,0.815585,-0.0252664,0.410298,0.324222,-0.0127554,0.204682,0.161737,0.00934291,0.34682,5,0.1,38,0.8,-1.70133,-5.75851,0.586506,-0.472322,-0.0555396,0.00818074,-0.33617,-0.0276566,0.00411272,0.00826352,0.741258,5,0.1,39,0.8,2.93797,-0.0569456,0.68918,-0.866026,-0.0764797,0.0118345,0,-0.048466,0.00748038,0.0175972,2.2673,5,0.1
0,0.9,0.179238,1.64021,0.594146,0.0816459,-0.418274,0.0039571,0.0279127,0.464186,0.00138953,0.0165159,1.66795,5,0.1,1,0.9,-1.90447,-3.97936,0.571475,-0.241262,0.292725,0.0364086,0.123106,0.0220835,0.00271946,0.0113671,0.0849241,5,0.1,2,0.9,-1.04296,4.07249,0.643819,0.603755,-0.218055,-0.0296281,0.206374,-0.0745952,-0.0101142,0.0159331,0.478231,5,0.1,3,0.9,4.16017,-5.11689,0.588567,-0.363806,0.170986,0.00736332,0.129402,-0.123352,-0.00360981,0.0472415,1.12896,5,0.1,4,0.9,-0.91767,5.30263,0.637748,0.387757,-0.86581,-0.0190669,0.221789,-0.00861287,-0.0109114,0.0294455,2.17445,5,0.1,5,0.9,-1.8742,-0.0728037,0.626796,0.865842,0.14828,-0.017825,-0.00733137,0.0558266,-0.00670925,0.0312254,1.44771,5,0.1,6,0.9,-1.73254,-3.17466,0.735002,0.258627,-0.186165,0.415811,0.0883862,-0.0637472,0.14215,0.0156763,0.317859,5,0.1,7,0.9,0.643271,3.26349,0.646012,0.244584,0.0246413,-0.0311091,-0.392824,0.00840425,-0.0106134,0.00892913,0.222971,5,0.1,8,0.9,1.53535,4.43799,0.784538,-0.0239003,-0.0608131,0.160944,-0.00812113,-0.0436306,-0.179823,0.0170462,0.280856,5,0.1,9,0.9,-2.8945,4.30597,0.767655,0.0300761,-0.274481,0.393734,0.0101775,-0.0937581,0.134613,0.011592,0.267851,5,0.1,10,0.9,-3.53153,-4.90109,0.683175,0.0773571,0.860345,0.0120595,-0.0286698,-0.137448,-0.02487,0.0541513,2.35026,5,0.1,11,0.9,-1.57414,-2.27219,0.559762,0.354371,0.116478,0.0272067,0.121169,0.0398159,0.00930578,0.00964326,0.162005,5,0.1,12,0.9,-1.62256,4.63785,0.583291,0.863837,-0.554018,0.0104222,0.0610352,-0.270307,0.0050962,0.0344328,1.65419,5,0.1,13,0.9,0.659064,-0.595913,0.631594,0.315282,0.114253,-0.0247498,0.337522,0.0669397,-0.0145026,0.012245,0.305195,5,0.1,14,0.9,3.62731,-0.180534,0.592233,-0.865775,-0.279027,0.00516176,0.0100434,-0.105352,0.0019595,0.0130329,1.41404,5,0.1,15,0.9,-2.50107,-2.70627,0.698625,0.372576,0.133859,0.0347357,0.12742,0.165805,0.0118688,0.0152076,0.220661,5,0.1,16,0.9,-3.20882,-2.63194,0.501611,0.478584,0.0554059,-0.00857553,-0.879318,0.0188798,0.0280552,0.0101389,1.19364,5,0.1,17,0.9,0.649191,-2.61799,0.617269,-0.100777,-0.866026,-0.0314086,-0.0572205,0,-0.0178181,0.00882784,2.26437,5,0.1,18,0.9,-2.42208,4.94789,0.544361,0.86513,-0.503109,0.023366,0.0357777,-0.288695,0.013411,0.0431593,2.12098,5,0.1,19,0.9,0.678214,1.71624,0.50184,-0.357019,-0.442636,-0.00960045,-0.120189,-0.0184253,0.0304431,0.00915039,0.393123,5,0.1,20,0.9,4.57014,0.937135,0.573378,-0.148868,0.380564,0.0180135,-0.0508726,0.130083,0.00613555,0.0317403,0.193766,5,0.1,21,0.9,1.33043,-2.83245,0.623403,-0.291013,0.393802,-0.0158207,-0.0994876,0.134632,-0.00538304,0.0378806,0.277993,5,0.1,22,0.9,-0.0876032,-0.958067,0.625033,0.769149,0.343511,-0.0169293,0.262945,0.117451,-0.00577793,0.0323845,0.822163,5,0.1,23,0.9,-5.60505,-0.626114,0.500146,0.341439,0.264549,-0.000946317,0.116646,-0.224829,0.00398979,0.0309153,2.02172,5,0.1,24,0.9,-3.45113,-4.33748,0.738503,0.000182912,0.381459,0.132573,0.000193715,-0.326276,0.0707433,0.0242497,3.03351,5,0.1,25,0.9,-4.59902,-3.06376,0.612192,0.278798,-0.2194,-0.0654061,0.0952482,-0.0749677,-0.0223778,0.0120793,0.150713,5,0.1,26,0.9,-1.19336,-0.290546,0.561631,0.841976,0.653829,0.0240994,0.366621,0.312178,0.0115223,0.0212479,1.57961,5,0.1,27,0.9,-4.97228,-2.2924,0.700951,0.826401,0.231513,0.0331611,0.282437,0.0792295,0.0113584,0.0123221,0.854306,5,0.1,28,0.9,-2.72825,1.90387,0.582347,0.825702,-0.172861,0.0119273,0.201017,-0.0798181,0.00394881,0.0114448,0.83598,5,0.1,29,0.9,-3.23927,-3.32346,0.600328,0.405384,0.574416,-0.000159908,-0.41306,0.316918,-5.58794e-05,0.0199232,2.67057,5,0.1,30,0.9,-1.67331,1.85285,0.587169,-0.865643,0.276574,0.00505075,0.0153258,0.211641,0.00317395,0.0218376,2.23571,5,0.1,31,0.9,-1.71163,5.39317,0.50036,0.7063,-0.811032,-0.00233753,0.405647,-0.465661,0.00987574,0.015646,2.04264,5,0.1,32,0.9,2.07584,-3.02073,0.627177,-0.0476431,0.866026,-0.0102863,-0.0270754,0,-0.00584871,0.0277767,2.27031,5,0.1,33,0.9,2.72437,-2.36729,0.738396,-0.01649,0.383537,0.413514,-0.00561774,0.131175,0.141382,0.0182968,0.368743,5,0.1,34,0.9,3.85301,-4.76416,0.618263,-0.171079,-0.429843,-0.0123513,-0.0584871,-0.146925,-0.00422075,0.0190244,0.248121,5,0.1,35,0.9,1.01984,-0.25126,0.640927,-0.866026,-0.048129,-0.00991262,3.72529e-06,-0.0274759,-0.00564009,0.00997811,2.27028,5,0.1,36,0.9,-1.82221,-4.58378,0.500427,-0.0863878,0.558975,-0.00277115,-0.0296012,0.111461,0.0117086,0.00888804,0.381821,5,0.1,37,0.9,-3.71093,1.91571,0.848779,-0.0264205,0.428845,0.338878,-0.00911951,0.14662,0.115857,0.00934291,0.34682,5,0.1,38,0.9,-1.7505,-5.76419,0.587344,-0.512538,-0.0580452,0.00855327,-0.422709,-0.0197589,0.00294298,0.00826352,0.741258,5,0.1,39,0.9,2.85137,-0.0648457,0.690402,-0.866026,-0.0814883,0.0126082,0,-0.0465556,0.00719354,0.0175972,2.2673,5,0.1
0,1,0.187499,1.6,0.594546,0.0830758,-0.392988,0.00402927,-0.00178814,0.0532866,-5.96046e-05,0.0125488,1.41085,5,0.1,1,1,-1.92775,-3.95011,0.575113,-0.22223,0.290668,0.0361502,0.250757,-0.0712872,-0.00888109,0.00900391,0.143237,5,0.1,2,1,-0.981867,4.05043,0.640821,0.614324,-0.221872,-0.0301465,-0.0133216,0.00452995,0.000685453,0.0145228,0.325211,5,0.1,3,1,4.12484,-5.1,0.589276,-0.338984,0.170577,0.00673831,0.353336,0.100613,-0.00852346,0.0537954,0.961321,5,0.1,4,1,-0.877965,5.21603,0.635796,0.404114,-0.866032,-0.0198722,0.0883639,0.000238419,-0.00432134,0.0348501,2.16319,5,0.1,5,1,-1.78771,-0.0577759,0.62499,0.863093,0.15136,-0.0181958,-0.058651,0.00113994,-0.000149012,0.0388629,1.09055,5,0.1,6,1,-1.70637,-3.1935,0.777074,0.263155,-0.189435,0.423092,-0.00572205,0.00405312,-0.00914931,0.0208602,0.216155,5,0.1,7,1,0.665723,3.26598,0.642865,0.204562,0.0250757,-0.031653,-0.387073,-0.000596046,0.000745058,0.0106784,0.199297,5,0.1,8,1,1.53293,4.4317,0.8,-0.0243127,-0.064671,0.150959,0.000476837,-0.0295639,-0.0242889,0.0197821,0.243004,5,0.1,9,1,-2.89146,4.2782,0.807493,0.0305951,-0.279272,0.40063,-0.000596046,0.00572205,-0.00867248,0.0138449,0.182151,5,0.1,10,1,-3.52401,-4.81613,0.684229,0.0723064,0.834668,0.00882447,-0.0700951,-0.391006,-0.0376701,0.0371887,2.4763,5,0.1,11,1,-1.53829,-2.26041,0.562515,0.360578,0.118518,0.0276834,-0.0077486,-0.0026226,-0.000596046,0.00916205,0.191242,5,0.1,12,1,-1.53612,4.5814,0.584353,0.863138,-0.571668,0.0107542,-0.0576377,-0.0629425,0.00119209,0.0290906,1.19182,5,0.1,13,1,0.692132,-0.584255,0.629069,0.34411,0.117841,-0.0255287,0.219375,0.00324845,-0.000655651,0.0129307,0.260915,5,0.1,14,1,3.54087,-0.208814,0.592756,-0.862002,-0.284851,0.00527054,0.0802279,-0.00240684,5.96046e-05,0.0164779,1.05257,5,0.1,15,1,-2.46337,-2.69212,0.70214,0.379103,0.148159,0.0353426,-0.00822544,0.111341,-0.000745058,0.0139859,0.153664,5,0.1,16,1,-3.16534,-2.62634,0.500891,0.392234,0.0563681,-0.00587106,-0.80514,-0.00119209,0.0255406,0.0101643,1.08396,5,0.1,17,1,0.638874,-2.70459,0.614053,-0.104977,-0.866026,-0.032717,-0.0224113,0,-0.00694394,0.0107133,2.26367,5,0.1,18,1,-2.33549,4.89636,0.546753,0.866026,-0.524426,0.0243559,0,-0.11611,0.00539422,0.0422892,2.09357,5,0.1,19,1,0.642102,1.67223,0.50103,-0.363041,-0.434053,-0.00664443,0.010401,0.190616,0.0280738,0.0127058,0.326882,5,0.1,20,1,4.55508,0.97564,0.5752,-0.151467,0.387228,0.0183269,0.00309944,-0.00840425,-0.000417233,0.0258356,0.131767,5,0.1,21,1,1.30099,-2.79261,0.621802,-0.296107,0.400704,-0.0160962,0.00631809,-0.00882149,0.000357628,0.0428193,0.189045,5,0.1,22,1,-0.0097807,-0.92331,0.62332,0.782617,0.349528,-0.0172257,-0.0169063,-0.00756979,0.00038743,0.0476424,2.28422,5,0.1,23,1,-5.57051,-0.6,0.50007,0.347412,0.265436,-0.000579655,-0.00739098,0.225842,0.00324845,0.0309709,1.70863,5,0.1,24,1,-3.45112,-4.3,0.752049,0.000196695,0.377631,0.13756,0.000119209,0.22912,0.0236928,0.0191035,2.83313,5,0.1,25,1,-4.57082,-3.08596,0.605574,0.283682,-0.223243,-0.0665531,-0.0064373,0.00488758,0.00143051,0.00924892,0.173563,5,0.1,26,1,-1.10781,-0.223952,0.564086,0.863776,0.673946,0.0248432,0.0450015,0.0672936,0.00247359,0.0144061,1.11988,5,0.1,27,1,-4.88867,-2.26898,0.704306,0.840878,0.235575,0.0337422,-0.0185966,-0.005126,-0.000685453,0.013311,0.580958,5,0.1,28,1,-2.64518,1.88626,0.583553,0.830179,-0.178438,0.0121221,-0.128746,-0.0243783,-0.000447035,0.0163873,0.579678,5,0.1,29,1,-3.2,-3.2647,0.600311,0.387847,0.597286,-0.000163913,0.0492334,0.116348,0,0.0151847,2.55639,5,0.1,30,1,-1.75968,1.88149,0.587688,-0.859895,0.294822,0.00529885,0.122666,0.136077,0.00154972,0.0169546,2.23302,5,0.1,31,1,-1.6393,5.31011,0.500173,0.736299,-0.845468,-0.001432,0.163317,-0.187397,0.00804663,0.0156171,1.95798,5,0.1,32,1,2.07097,-2.93412,0.626124,-0.0496328,0.866026,-0.0107169,-0.0106096,0,-0.00229478,0.0266338,2.29344,5,0.1,33,1,2.7227,-2.32849,0.780236,-0.0167787,0.390255,0.420757,0.000357628,-0.00834465,-0.00908971,0.0184297,0.250759,5,0.1,34,1,3.8357,-4.80766,0.617014,-0.174075,-0.437367,-0.0125676,0.0038147,0.00929832,0.000268221,0.0162251,0.168741,5,0.1,35,1,0.933235,-0.256188,0.639912,-0.866026,-0.0501528,-0.010328,0,-0.0109076,-0.00223517,0.0101291,2.27011,5,0.1,36,1,-1.83095,-4.52769,0.500205,-0.0879049,0.559008,-0.00169873,0.00184774,-0.119686,0.00959635,0.00947798,0.319178,5,0.1,37,1,-3.71361,1.9591,0.883067,-0.0268936,0.436354,0.344813,0.000596046,-0.00935793,-0.00745058,0.00975474,0.235851,5,0.1,38,1,-1.8037,-5.77007,0.588209,-0.549072,-0.0590563,0.00870526,-0.275433,0.00143051,-0.000178814,0.00824493,0.615201,5,0.1,39,1,2.76477,-0.0731896,0.691693,-0.866026,-0.0849199,0.0131369,0,-0.0185184,0.00289083,0.017697,2.26682,5,0.1
0,1.1,0.195794,1.55999,0.594949,0.0827122,-0.414946,0.00401363,-0.0085244,-0.416942,-0.000402331,0.0125488,1.41085,5,0.1,1,1.1,-1.94851,-3.92151,0.578669,-0.191263,0.280003,0.0348227,0.356741,-0.144169,-0.017941,0.00900391,0.143237,5,0.1,2,1.1,-0.920528,4.02828,0.637811,0.611626,-0.220919,-0.0300116,-0.0631101,0.02262,0.00311807,0.0145228,0.325211,5,0.1,3,1.1,4.09281,-5.0817,0.589906,-0.3006,0.201457,0.00586417,0.41005,0.460953,-0.00891089,0.0537954,0.961321,5,0.1,4,1.1,-0.837029,5.12942,0.633783,0.414797,-0.866023,-0.0203956,0.101279,-2.98023e-05,-0.00496209,0.0348501,2.16319,5,0.1,5,1.1,-1.70144,-0.0426409,0.62317,0.863482,0.151126,-0.018169,0.021778,-0.0114741,0.00136346,0.0388629,1.09055,5,0.1,6,1.1,-1.6801,-3.21242,0.819319,0.261998,-0.188607,0.421236,-0.0270233,0.019446,-0.0434481,0.0208602,0.216155,5,0.1,7,1.1,0.684305,3.26849,0.639705,0.168663,0.0249632,-0.0315093,-0.296194,-0.002563,0.00328198,0.0106784,0.199297,5,0.1,8,1.1,1.5305,4.42519,0.815344,-0.0242099,-0.0645019,0.158887,0.00245869,0.0296533,0.154242,0.0197821,0.243004,5,0.1,9,1.1,-2.8884,4.25031,0.847496,0.0304673,-0.278072,0.398871,-0.00308454,0.028491,-0.0411458,0.0138449,0.182151,5,0.1,10,1.1,-3.51715,-4.73458,0.68488,0.0647012,0.796092,0.00384925,-0.0814945,-0.404328,-0.0583045,0.0371887,2.4763,5,0.1,11,1.1,-1.50232,-2.24849,0.565299,0.35825,0.120348,0.0281132,-0.0432581,0.0295639,0.00693277,0.00916205,0.191242,5,0.1,12,1.1,-1.44987,4.52393,0.585434,0.862731,-0.576772,0.0108508,0.00300258,-0.0156164,0.000305474,0.0290906,1.19182,5,0.1,13,1.1,0.727323,-0.57249,0.626364,0.356504,0.117029,-0.0297936,0.0281222,-0.0220425,-0.0742078,0.0129307,0.260915,5,0.1,14,1.1,3.45477,-0.237299,0.593283,-0.861493,-0.284436,0.00526411,-0.0195205,0.0213535,-0.000383705,0.0164779,1.05257,5,0.1,15,1.1,-2.42552,-2.67674,0.705669,0.377439,0.159216,0.0351891,-0.0389218,0.100121,-0.00361353,0.0139859,0.153664,5,0.1,16,1.1,-3.12993,-2.62071,0.500424,0.320153,0.0561234,-0.00356222,-0.563011,-0.00576675,0.0204109,0.0101643,1.08396,5,0.1,17,1.1,0.628245,-2.79119,0.610741,-0.107655,-0.866026,-0.0335481,-0.0250153,0,-0.00777096,0.0107133,2.26367,5,0.1,18,1.1,-2.24889,4.84323,0.549221,0.866002,-0.538612,0.025015,-0.000953674,-0.136048,0.00632182,0.0422892,2.09357,5,0.1,19,1.1,0.605965,1.63031,0.500498,-0.358354,-0.399434,-0.00408581,0.0902377,0.479393,0.0228025,0.0127058,0.326882,5,0.1,20,1.1,4.53996,1.0143,0.57703,-0.150816,0.385527,0.0182444,0.0154972,-0.0397861,-0.0018999,0.0258356,0.131767,5,0.1,21,1.1,1.27142,-2.7526,0.620195,-0.294815,0.398935,-0.016025,0.0303462,-0.0412464,0.00165775,0.0428193,0.189045,5,0.1,22,1.1,0.0688211,-0.888374,0.621606,0.792187,0.349009,-0.0169778,0.150785,-0.0178479,0.00482053,0.0476424,2.28422,5,0.1,23,1.1,-5.53582,-0.571317,0.500027,0.345899,0.316258,-0.000300631,-0.035584,0.709359,0.00232458,0.0309709,1.70863,5,0.1,24,1.1,-3.4511,-4.25974,0.76594,0.000207871,0.438341,0.140255,8.9407e-05,0.877798,0.0229068,0.0191035,2.83313,5,0.1,25,1.1,-4.54229,-3.10841,0.598882,0.28806,-0.226703,-0.0675868,0.0708699,-0.0558943,-0.0166818,0.00924892,0.173563,5,0.1,26,1.1,-1.02132,-0.156752,0.566581,0.864811,0.664963,0.0250382,-0.0324436,-0.239056,0.000409782,0.0144061,1.11988,5,0.1,27,1.1,-4.80471,-2.24546,0.707675,0.837158,0.234538,0.0335977,-0.0866055,-0.0242293,-0.00343844,0.013311,0.580958,5,0.1,28,1.1,-2.56285,1.86816,0.584762,0.815327,-0.184325,0.0120484,-0.194788,-0.0773668,-0.00145659,0.0163873,0.579678,5,0.1,29,1.1,-3.15977,-3.20434,0.600297,0.426428,0.609627,-9.73232e-05,0.629604,0.0999272,0.00119582,0.0151847,2.55639,5,0.1,30,1.1,-1.84553,1.91192,0.588226,-0.860386,0.315687,0.00547823,-0.0766441,0.248253,0.00170618,0.0169546,2.23302,5,0.1,31,1.1,-1.56468,5.22472,0.500066,0.756513,-0.860827,-0.00074245,0.195973,-0.0994503,0.00572205,0.0156171,1.95798,5,0.1,32,1.1,2.06594,-2.84753,0.625039,-0.0509135,0.86548,-0.010994,-0.0120699,-0.0218302,-0.00261143,0.0266338,2.29344,5,0.1,33,1.1,2.72103,-2.28952,0.822248,-0.0167053,0.388551,0.418912,0.00171363,-0.0400096,-0.0432022,0.0184297,0.250759,5,0.1,34,1.1,3.81832,-4.85133,0.615759,-0.173307,-0.435463,-0.0125128,0.0179112,0.0447929,0.00129268,0.0162251,0.168741,5,0.1,35,1.1,0.846633,-0.261268,0.638866,-0.866026,-0.05148,-0.0106005,3.72529e-06,-0.0126399,-0.0025928,0.0101291,2.27011,5,0.1,36,1.1,-1.83973,-4.47312,0.500078,-0.0875238,0.52579,-0.000878051,0.0089854,-0.511438,0.00678748,0.00947798,0.319178,5,0.1,37,1.1,-3.71629,2.00267,0.917496,-0.0267733,0.434446,0.343301,0.00278652,-0.0447631,-0.0354014,0.00975474,0.235851,5,0.1,38,1.1,-1.8593,-5.77596,0.589078,-0.556269,-0.0587843,0.00866791,0.11754,0.00616908,-0.000890344,0.00824493,0.615201,5,0.1,39,1.1,2.67816,-0.0817921,0.693024,-0.866026,-0.0871787,0.0134886,0,-0.0215718,0.00335649,0.017697,2.26682,5,0.1
0,1.2,0.203992,1.51615,0.595346,0.0808675,-0.463113,0.00392646,-0.030376,-0.489354,-0.00151992,0.00788603,0.547761,5,0.1,1,1.2,-1.96576,-3.89437,0.582045,-0.153026,0.261563,0.0325277,0.398338,-0.225306,-0.0279844,0.0108755,0.196586,5,0.1,2,1.2,-0.859912,4.00638,0.634837,0.597976,-0.216007,-0.0293404,-0.22465,0.0813007,0.0110269,0.0126777,0.278649,5,0.1,3,1.2,4.06487,-5.05903,0.590448,-0.257802,0.252855,0.00496507,0.442505,0.524521,-0.0090301,0.00807553,0.755235,5,0.1,4,1.2,-0.795183,5.04282,0.631725,0.420301,-0.866032,-0.0206649,-0.00789762,0.000238419,0.00038743,0.0415656,2.1673,5,0.1,5,1.2,-1.61515,-0.0276442,0.621367,0.860074,0.148127,-0.0178099,-0.11909,-0.0522172,0.00625849,0.0380406,0.792655,5,0.1,6,1.2,-1.65413,-3.23111,0.861066,0.256151,-0.184399,0.411837,-0.0962019,0.0692606,-0.154704,0.0173979,0.143732,5,0.1,7,1.2,0.7,3.27096,0.636582,0.148317,0.0244081,-0.0308037,-0.115514,-0.00917912,0.0115931,0.0131747,0.303578,5,0.1,8,1.2,1.5281,4.41897,0.832105,-0.023672,-0.0593543,0.176783,0.00888109,0.0705719,0.182033,0.0208209,0.215539,5,0.1,9,1.2,-2.88538,4.22275,0.887026,0.0297904,-0.271881,0.389971,-0.0110865,0.101805,-0.146478,0.0136004,0.192316,5,0.1,10,1.2,-3.5111,-4.65718,0.684964,0.0561178,0.74985,-0.00221431,-0.089407,-0.536203,-0.0602901,0.0377398,2.54387,5,0.1,11,1.2,-1.4668,-2.23632,0.568142,0.350994,0.122768,0.0286818,-0.106812,0.0120401,0.00280142,0.00971564,0.148212,5,0.1,12,1.2,-1.3638,4.46641,0.586516,0.855845,-0.570869,0.0107408,-0.173151,0.149012,-0.00280142,0.0273989,0.838593,5,0.1,13,1.2,0.762797,-0.560956,0.622963,0.349866,0.113031,-0.0385284,-0.159144,-0.0593364,-0.0924766,0.00718638,0.529704,5,0.1,14,1.2,3.3687,-0.265525,0.593806,-0.857294,-0.278813,0.00516176,0.139117,0.0980645,-0.00181794,0.0119023,0.827516,5,0.1,15,1.2,-2.38811,-2.6604,0.709156,0.369012,0.166553,0.0344053,-0.138521,0.0400543,-0.0129342,0.0132419,0.176863,5,0.1,16,1.2,-3.1,-2.61515,0.50016,0.285596,0.054872,-0.00181943,-0.142217,-0.0206232,0.0143945,0.0132652,0.921665,5,0.1,17,1.2,0.617391,-2.8778,0.607359,-0.108942,-0.866026,-0.0339463,0.00348687,0,0.00107288,0.0124843,2.21493,5,0.1,18,1.2,-2.1623,4.78886,0.551746,0.865638,-0.546277,0.0253722,-0.00762939,0.00500679,-0.000238419,0.0398349,2.08862,5,0.1,19,1.2,0.570758,1.59309,0.500193,-0.343928,-0.342309,-0.00212491,0.20206,0.644326,0.0162721,0.00970119,0.283244,5,0.1,20,1.2,4.52501,1.05251,0.578838,-0.14745,0.376922,0.0178352,0.0550747,-0.141561,-0.00673532,0.0219713,0.13526,5,0.1,21,1.2,1.2422,-2.71306,0.618607,-0.288242,0.390029,-0.0156671,0.108242,-0.146627,0.00587106,0.0334905,0.125708,5,0.1,22,1.2,0.148684,-0.85368,0.619941,0.802892,0.343436,-0.0162244,0.0220084,-0.103742,0.0103414,0.0158796,0.358585,5,0.1,23,1.2,-5.50153,-0.535897,0.500007,0.338197,0.393033,-0.000116229,-0.127077,0.764668,0.00140071,0.0198188,1.35518,5,0.1,24,1.2,-3.45107,-4.21117,0.78003,0.000214577,0.53432,0.140911,0,0.96035,-0.014782,0.0180682,2.51829,5,0.1,25,1.2,-4.51316,-3.13134,0.592046,0.293875,-0.231284,-0.0689551,0.0286102,-0.0226498,-0.00676513,0.0102444,0.103393,5,0.1,26,1.2,-0.935263,-0.0919011,0.569077,0.852753,0.627745,0.0247568,-0.245899,-0.497118,-0.00667572,0.0133081,0.82063,5,0.1,27,1.2,-4.72174,-2.22221,0.711005,0.818455,0.229305,0.0328511,-0.30756,-0.0863075,-0.012368,0.0118067,0.38633,5,0.1,28,1.2,-2.48257,1.84936,0.585955,0.786841,-0.191155,0.0117585,-0.391841,-0.0476837,-0.00461936,0.0100646,0.443368,5,0.1,29,1.2,-3.11365,-3.14311,0.600295,0.497466,0.612134,4.91738e-05,0.720739,-0.0704527,0.00163913,0.0143313,2.35166,5,0.1,30,1.2,-1.93191,1.94469,0.588781,-0.866023,0.338778,0.00558645,-0.000119209,0.189483,0.000178814,0.0186149,2.208,5,0.1,31,1.2,-1.4883,5.1384,0.500017,0.767863,-0.862885,-0.000287592,-0.000357628,0.0631809,0.00342727,0.0134425,1.94971,5,0.1,32,1.2,2.06081,-2.76127,0.62393,-0.0515521,0.8573,-0.0111312,0.0013113,-0.174642,0.000268221,0.0268131,2.61633,5,0.1,33,1.2,2.71937,-2.25101,0.863765,-0.0163317,0.37989,0.409566,0.00619888,-0.142813,-0.153899,0.02163,0.166741,5,0.1,34,1.2,3.80115,-4.89449,0.614519,-0.169438,-0.425756,-0.0122339,0.063777,0.15974,0.00461936,0.0148563,0.112206,5,0.1,35,1.2,0.76003,-0.266462,0.637796,-0.866026,-0.0521734,-0.0107437,0,0.000849366,0.000208616,0.0120792,2.27007,5,0.1,36,1.2,-1.8484,-4.42352,0.50002,-0.0855744,0.462687,-0.000338256,0.0321269,-0.724316,0.00402331,0.00959231,0.275029,5,0.1,37,1.2,-3.71895,2.04573,0.951519,-0.0261784,0.424755,0.335641,0.0100136,-0.159502,-0.126064,0.010239,0.156827,5,0.1,38,1.2,-1.91378,-5.78179,0.589937,-0.528333,-0.0574589,0.00847578,0.427604,0.0216961,-0.00318885,0.00789369,2.21751,5,0.1,39,1.2,2.59156,-0.0905888,0.694385,-0.866026,-0.0883717,0.0136748,0,0.00124425,-0.000208616,0.0179102,2.26671,5,0.1
0,1.3,0.210919,1.46846,0.595954,0.0491774,-0.480796,0.0100788,-0.54176,0.101432,0.110336,0.00788603,0.547761,5,0.1,1,1.3,-1.97907,-3.86935,0.585156,-0.113344,0.238521,0.029665,0.388101,-0.238419,-0.0296272,0.0108755,0.196586,5,0.1,2,1.3,-0.801213,3.98517,0.631957,0.575768,-0.208255,-0.0282506,-0.238091,0.080049,0.0116825,0.0126777,0.278649,5,0.1,3,1.3,4.04222,-5.0325,0.590826,-0.187639,0.265479,0.00197059,0.899404,-0.210762,-0.046093,0.00807553,0.755235,5,0.1,4,1.3,-0.753132,4.95622,0.629658,0.420804,-0.866023,-0.02069,-0.00240654,-2.98023e-05,0.000115484,0.0415656,2.1673,5,0.1,5,1.3,-1.52954,-0.0130871,0.619617,0.852869,0.142949,-0.017189,-0.0679418,-0.0560239,0.0067167,0.0380406,0.792655,5,0.1,6,1.3,-1.62899,-3.24921,0.901493,0.246641,-0.177551,0.396543,-0.101954,0.073418,-0.163961,0.0173979,0.143732,5,0.1,7,1.3,0.714996,3.27337,0.63354,0.157766,0.0239119,-0.0301736,0.25491,-0.00241399,0.00312552,0.0131747,0.303578,5,0.1,8,1.3,1.52594,4.41344,0.850841,-0.0183487,-0.0507601,0.198856,0.0884309,0.0980794,0.237502,0.0208209,0.215539,5,0.1,9,1.3,-2.88246,4.19591,0.925307,0.0286929,-0.266254,0.37549,-0.0117719,0.0290275,-0.155251,0.0136004,0.192316,5,0.1,10,1.3,-3.50586,-4.58427,0.684453,0.0493981,0.713059,-0.00783876,-0.0494123,-0.251442,-0.0510663,0.0377398,2.54387,5,0.1,11,1.3,-1.43249,-2.22397,0.571027,0.332801,0.124224,0.0290215,-0.251979,0.0108778,0.00254065,0.00971564,0.148212,5,0.1,12,1.3,-1.27906,4.41015,0.587574,0.838325,-0.553329,0.0103931,-0.20735,0.215232,-0.00436231,0.0273989,0.838593,5,0.1,13,1.3,0.796468,-0.55104,0.618747,0.318967,0.07606,-0.0448571,-0.435054,-0.613518,-0.0359826,0.00718638,0.529704,5,0.1,14,1.3,3.2835,-0.293083,0.594313,-0.847259,-0.273531,0.00498164,0.101924,0.0262428,-0.00195205,0.0119023,0.827516,5,0.1,15,1.3,-2.35167,-2.64341,0.712554,0.361486,0.174322,0.0337019,-0.037387,0.0984818,-0.00349805,0.0132419,0.176863,5,0.1,16,1.3,-3.07127,-2.60976,0.500039,0.296278,0.0528339,-0.000691507,0.293046,-0.0218302,0.00838563,0.0132652,0.921665,5,0.1,17,1.3,0.606489,-2.9644,0.603961,-0.109205,-0.866026,-0.0340295,-0.00289455,0,-0.000912696,0.0124843,2.21493,5,0.1,18,1.3,-2.07574,4.7341,0.554289,0.865801,-0.549677,0.0255297,0.00448525,-0.0414252,0.00191852,0.0398349,2.08862,5,0.1,19,1.3,0.537295,1.56223,0.50005,-0.325803,-0.27388,-0.000837725,0.173077,0.708237,0.00968203,0.00970119,0.283244,5,0.1,20,1.3,4.51038,1.08951,0.580589,-0.146443,0.362927,0.0171697,-0.0204742,-0.15004,-0.00712276,0.0219713,0.13526,5,0.1,21,1.3,1.21391,-2.67478,0.617069,-0.277541,0.375537,-0.0150867,0.114739,-0.15533,0.00622869,0.0334905,0.125708,5,0.1,22,1.3,0.228826,-0.819864,0.618366,0.796953,0.332547,-0.0153084,-0.157316,-0.124052,0.00858679,0.0158796,0.358585,5,0.1,23,1.3,-5.46834,-0.492407,0.500001,0.325637,0.478806,-1.53668e-05,-0.134647,0.888873,0.000666827,0.0198188,1.35518,5,0.1,24,1.3,-3.45105,-4.15235,0.794082,0.000214577,0.645762,0.140281,0,1.18074,-0.0051856,0.0180682,2.51829,5,0.1,25,1.3,-4.4836,-3.1546,0.585109,0.29735,-0.23403,-0.0697747,0.0260472,-0.0205785,-0.00614673,0.0102444,0.103393,5,0.1,26,1.3,-0.85116,-0.0322131,0.57152,0.829091,0.561277,0.0240888,-0.257485,-0.783287,-0.00751019,0.0133081,0.82063,5,0.1,27,1.3,-4.6414,-2.1997,0.71423,0.788055,0.220776,0.0316288,-0.325859,-0.0914037,-0.0130981,0.0118067,0.38633,5,0.1,28,1.3,-2.40569,1.82996,0.587109,0.751497,-0.197068,0.0113083,-0.344172,-0.0584275,-0.00475347,0.0100646,0.443368,5,0.1,29,1.3,-3.05972,-3.0821,0.600306,0.584805,0.608758,0.000167824,0.947878,-0.028789,0.00077486,0.0143313,2.35166,5,0.1,30,1.3,-2.01852,1.97939,0.589341,-0.866026,0.353546,0.00562817,7.45058e-06,0.094749,0.000357628,0.0186149,2.208,5,0.1,31,1.3,-1.41135,5.05234,0.500002,0.771713,-0.858242,-4.05125e-05,0.0363141,0.0678003,0.00162795,0.0134425,1.94971,5,0.1,32,1.3,2.05564,-2.67749,0.622815,-0.051754,0.808712,-0.0111762,-0.00247359,-0.743985,-0.000547618,0.0268131,2.61633,5,0.1,33,1.3,2.71777,-2.21372,0.903969,-0.0157192,0.365775,0.394353,0.00655651,-0.151306,-0.163089,0.02163,0.166741,5,0.1,34,1.3,3.78452,-4.93628,0.613318,-0.163136,-0.409962,-0.0117775,0.0675172,0.169337,0.00488758,0.0148563,0.112206,5,0.1,35,1.3,0.673428,-0.27169,0.63672,-0.866026,-0.052454,-0.0107989,3.72529e-06,-0.0034757,-0.000692904,0.0120792,2.27007,5,0.1,36,1.3,-1.8568,-4.38118,0.500002,-0.0823982,0.382055,-4.79631e-05,0.0340641,-0.845492,0.00191107,0.00959231,0.275029,5,0.1,37,1.3,-3.72151,2.08743,0.984467,-0.0251912,0.408986,0.323179,0.0105202,-0.169054,-0.133615,0.010239,0.156827,5,0.1,38,1.3,-1.96375,-5.78743,0.590769,-0.464885,-0.0553153,0.00816071,0.789404,0.022918,-0.00337139,0.00789369,2.21751,5,0.1,39,1.3,2.50496,-0.0994451,0.695756,-0.866026,-0.0888776,0.0137518,0,-0.00627013,0.0009574,0.0179102,2.26671,5,0.1
0,1.4,0.212703,1.42163,0.597601,-0.0165034,-0.449228,0.0234678,-0.723705,0.500083,0.146449,0.00653348,0.279542,5,0.1,1,1.4,-1.98853,-3.84673,0.58797,-0.0766307,0.213438,0.0265464,0.341117,-0.264764,-0.0329018,0.00850937,0.321597,5,0.1,2,1.4,-0.744972,3.96478,0.629197,0.547272,-0.198931,-0.0268534,-0.344157,0.110984,0.0169277,0.0134322,0.201356,5,0.1,3,1.4,4.02829,-5.00781,0.590763,-0.0888467,0.221825,-0.00340939,1.02854,-0.612736,-0.0577569,0.0481521,0.938885,5,0.1,4,1.4,-0.711191,4.86962,0.627596,0.416385,-0.866032,-0.0204727,-0.0999868,0.000238419,0.00491738,0.029116,1.68411,5,0.1,5,1.4,-1.4448,0.000890387,0.617936,0.839213,0.136147,-0.0163734,-0.23514,-0.083096,0.0100136,0.0354671,0.558157,5,0.1,6,1.4,-1.60489,-3.26655,0.940228,0.234437,-0.168765,0.376917,-0.147402,0.106215,-0.237018,0.0161481,0.161122,5,0.1,7,1.4,0.732323,3.27575,0.630539,0.190535,0.0236332,-0.0298128,0.362456,-0.00441074,0.00566244,0.010247,0.211782,5,0.1,8,1.4,1.52461,4.40887,0.871858,-0.00761747,-0.0403166,0.220504,0.118971,0.108242,0.179559,0.0210652,0.174398,5,0.1,9,1.4,-2.87965,4.16943,0.961985,0.027281,-0.262916,0.356908,-0.0171661,0.0510216,-0.224441,0.0154306,0.135521,5,0.1,10,1.4,-3.50113,-4.5141,0.683437,0.0454545,0.690579,-0.0122383,-0.0329018,-0.236511,-0.0362098,0.0540686,2.51892,5,0.1,11,1.4,-1.40067,-2.21154,0.573932,0.301632,0.1239,0.028947,-0.366032,-0.0214577,-0.00500679,0.0138539,0.13702,5,0.1,12,1.4,-1.19652,4.35609,0.588588,0.809366,-0.525653,0.00983477,-0.391841,0.346422,-0.00697374,0.0413871,0.713441,5,0.1,13,1.4,0.825898,-0.546964,0.614161,0.2672,0.00218898,-0.0460953,-0.580609,-0.811875,0.00932813,0.0193372,0.61674,5,0.1,14,1.4,3.19949,-0.320298,0.5948,-0.830096,-0.270349,0.00474453,0.269413,0.0509173,-0.00286102,0.017965,0.583129,5,0.1,15,1.4,-2.31571,-2.6255,0.715906,0.357157,0.183344,0.0332966,-0.0674725,0.0697374,-0.00628829,0.0150637,0.104889,5,0.1,16,1.4,-3.03988,-2.6046,0.500004,0.33313,0.0502169,-9.38773e-05,0.396252,-0.0315905,0.0038147,0.0185225,0.748172,5,0.1,17,1.4,0.595582,-3.051,0.600563,-0.10853,-0.866026,-0.0338197,0.0204742,0,0.0063777,0.0128975,1.75715,5,0.1,18,1.4,-1.98915,4.67906,0.556846,0.865895,-0.549185,0.0255063,-0.0026226,0.0731945,-0.00336766,0.050616,2.09109,5,0.1,19,1.4,0.505617,1.53838,0.500006,-0.307174,-0.203496,-0.000141561,0.208244,0.687122,0.00450015,0.00954205,0.260753,5,0.1,20,1.4,4.4956,1.12496,0.582266,-0.149024,0.344968,0.0163168,-0.0207424,-0.216961,-0.010252,0.023529,0.164914,5,0.1,21,1.4,1.1868,-2.63809,0.615595,-0.263807,0.356942,-0.0143409,0.16588,-0.224352,0.0090003,0.0341563,0.14092,5,0.1,22,1.4,0.307331,-0.787329,0.616879,0.768854,0.316975,-0.014402,-0.413895,-0.193894,0.00998378,0.0147457,0.240742,5,0.1,23,1.4,-5.43653,-0.440295,0.500002,0.309527,0.560146,2.38419e-05,-0.194788,0.693202,0.000208616,0.0200313,1.05749,5,0.1,24,1.4,-3.45103,-4.0821,0.808051,0.000214577,0.755322,0.138626,-0.000119209,0.94676,-0.0330508,0.018998,2.32594,5,0.1,25,1.4,-4.45384,-3.17803,0.578125,0.296593,-0.233436,-0.0695989,-0.0514984,0.0405312,0.0120997,0.0102891,0.0782749,5,0.1,26,1.4,-0.769758,0.0198402,0.573885,0.796221,0.479016,0.0231162,-0.420123,-0.831607,-0.0124872,0.0111352,0.626043,5,0.1,27,1.4,-4.56442,-2.17814,0.717319,0.749052,0.209838,0.0300616,-0.470877,-0.131965,-0.0188947,0.0107371,0.254302,5,0.1,28,1.4,-2.33238,1.81003,0.588213,0.713092,-0.200775,0.0107452,-0.444055,-0.00727177,-0.00676513,0.0120852,0.305269,5,0.1,29,1.4,-2.99665,-3.02151,0.600326,0.673532,0.600988,0.000214577,0.769734,-0.148654,0.000149012,0.0136038,2.2173,5,0.1,30,1.4,-2.10512,2.01499,0.589904,-0.866026,0.355941,0.0056088,0,-0.053525,-0.000953674,0.00873149,1.16207,5,0.1,31,1.4,-1.33421,4.96711,0.500004,0.768173,-0.842917,5.96046e-05,-0.13572,0.264645,0.000447035,0.0131372,1.54505,5,0.1,32,1.4,2.05047,-2.60093,0.621698,-0.051558,0.717843,-0.0111341,0.00834465,-1.03307,0.00178814,0.0255941,2.94324,5,0.1,33,1.4,2.71623,-2.17799,0.942489,-0.0149369,0.347668,0.374834,0.00941753,-0.218749,-0.235736,0.0173628,0.109939,5,0.1,34,1.4,3.76858,-4.97633,0.612168,-0.155056,-0.389683,-0.0111923,0.0976324,0.244856,0.00700355,0.0156399,0.125779,5,0.1,35,1.4,0.586825,-0.27694,0.635639,-0.866026,-0.0523604,-0.010778,0,0.00745058,0.00154972,0.0102744,2.27011,5,0.1,36,1.4,-1.86485,-4.34713,0.500004,-0.0783235,0.300372,6.85453e-05,0.049293,-0.763416,0.000566244,0.00990499,0.249489,5,0.1,37,1.4,-3.72397,2.12738,1.01603,-0.0239313,0.388747,0.307184,0.0150204,-0.244498,-0.193119,0.00991466,0.188473,5,0.1,38,1.4,-2.00604,-5.79283,0.591566,-0.379378,-0.0525713,0.00775605,0.88346,0.0331402,-0.00485778,0.00751536,1.71842,5,0.1,39,1.4,2.41835,-0.108342,0.697132,-0.866026,-0.0887595,0.0137329,0,0.0122041,-0.00190735,0.0178195,2.26679,5,0.1
0,1.5,0.207216,1.37932,0.600794,-0.0944666,-0.395877,0.041212,-0.798797,0.562362,0.19573,0.00653348,0.279542,5,0.1,1,1.5,-1.99454,-3.82672,0.590459,-0.0443507,0.186677,0.0232201,0.29467,-0.270307,-0.0336021,0.00850937,0.321597,5,0.1,2,1.5,-0.6919,3.94563,0.626593,0.514444,-0.182835,-0.0252395,-0.327948,0.196204,0.0161119,0.0134322,0.201356,5,0.1,3,1.5,4.02348,-4.98757,0.59019,-0.016962,0.192592,-0.00752555,0.448585,-0.0327229,-0.0262447,0.0481521,0.938885,5,0.1,4,1.5,-0.670006,4.78302,0.625571,0.407335,-0.865926,-0.0200277,-0.0974797,0.0038743,0.00479072,0.029116,1.68411,5,0.1,5,1.5,-1.36192,0.0141054,0.616347,0.818739,0.128211,-0.0154175,-0.208929,-0.0795296,0.009574,0.0354671,0.558157,5,0.1,6,1.5,-1.58204,-3.28301,0.976978,0.223867,-0.161145,0.359919,-0.0785366,0.0566393,-0.126325,0.0161481,0.161122,5,0.1,7,1.5,0.75318,3.2781,0.62758,0.226049,0.023292,-0.029373,0.329673,-0.00348687,0.0045076,0.010247,0.211782,5,0.1,8,1.5,1.5245,4.40538,0.89485,0.00576712,-0.0295989,0.239333,0.141904,0.104159,0.179987,0.0210652,0.174398,5,0.1,9,1.5,-2.87701,4.14331,0.996596,0.0256438,-0.260081,0.335499,-0.0163466,0.0201762,-0.213873,0.0154306,0.135521,5,0.1,10,1.5,-3.49665,-4.44538,0.682072,0.0448823,0.690187,-0.0146788,0.0145435,0.155479,-0.0135377,0.0540686,2.51892,5,0.1,11,1.5,-1.37256,-2.19926,0.5768,0.258904,0.121421,0.0283686,-0.476032,-0.0319928,-0.00745803,0.0138539,0.13702,5,0.1,12,1.5,-1.11761,4.30519,0.589534,0.767733,-0.492641,0.00906494,-0.456914,0.328511,-0.00844896,0.0413871,0.713441,5,0.1,13,1.5,0.849734,-0.550115,0.609644,0.209854,-0.0587882,-0.0438087,-0.560336,-0.426516,0.0350401,0.0193372,0.61674,5,0.1,14,1.5,3.11771,-0.347166,0.595261,-0.805979,-0.267509,0.00447072,0.245571,0.020666,-0.00274926,0.017965,0.583129,5,0.1,15,1.5,-2.28027,-2.6068,0.71921,0.351907,0.19064,0.0328072,-0.0539124,0.0653565,-0.00502542,0.0150637,0.104889,5,0.1,16,1.5,-3.00449,-2.59951,0.500009,0.374752,0.0534032,0.000150967,0.404924,0.0800937,0.00127032,0.0185225,0.748172,5,0.1,17,1.5,0.584816,-3.1376,0.597208,-0.10683,-0.866026,-0.0332902,0.0182204,0,0.00567362,0.0128975,1.75715,5,0.1,18,1.5,-1.90256,4.62433,0.559388,0.865951,-0.546641,0.0253908,0.00158697,0.00914931,-0.000402331,0.050616,2.09109,5,0.1,19,1.5,0.47587,1.52134,0.500009,-0.288207,-0.138656,0.000151619,0.181491,0.601552,0.00157207,0.00954205,0.260753,5,0.1,20,1.5,4.48034,1.1586,0.583857,-0.158116,0.329408,0.0155815,-0.138342,-0.115633,-0.005465,0.023529,0.164914,5,0.1,21,1.5,1.16107,-2.60329,0.614197,-0.251911,0.340856,-0.0136957,0.088416,-0.119537,0.00479817,0.0341563,0.14092,5,0.1,22,1.5,0.381613,-0.756633,0.615492,0.711851,0.296502,-0.0133208,-0.710579,-0.220295,0.0117384,0.0147457,0.240742,5,0.1,23,1.5,-5.40651,-0.38134,0.500005,0.290951,0.613529,3.25032e-05,-0.185549,0.368146,-1.86265e-05,0.0200313,1.05749,5,0.1,24,1.5,-3.45101,-4.0025,0.821795,0.000204891,0.829539,0.136533,-5.96046e-05,0.52619,-0.016287,0.018998,2.32594,5,0.1,25,1.5,-4.42436,-3.20123,0.571209,0.293172,-0.230742,-0.0687946,-0.0323951,0.0255257,0.00762194,0.0102891,0.0782749,5,0.1,26,1.5,-0.692142,0.0636968,0.576136,0.756393,0.399381,0.0219197,-0.401374,-0.756242,-0.0121333,0.0111352,0.626043,5,0.1,27,1.5,-4.49178,-2.15779,0.720234,0.704135,0.19725,0.0282592,-0.448704,-0.125736,-0.0180043,0.0107371,0.254302,5,0.1,28,1.5,-2.26315,1.78989,0.589255,0.672355,-0.201937,0.0101032,-0.394642,-0.00628084,-0.0063926,0.0120852,0.305269,5,0.1,29,1.5,-2.92563,-2.96221,0.600314,0.744242,0.584067,-0.000736397,0.605136,-0.205785,-0.0170358,0.0136038,2.2173,5,0.1,30,1.5,-2.18941,2.05031,0.590456,-0.799574,0.3502,0.00537736,1.21725,-0.0738502,-0.00358,0.00873149,1.16207,5,0.1,31,1.5,-1.25802,4.88418,0.500011,0.755355,-0.814801,7.69272e-05,-0.150353,0.321031,-5.96046e-05,0.0131372,1.54505,5,0.1,32,1.5,2.04534,-2.53491,0.62059,-0.0511222,0.598957,-0.0110412,0.00315905,-1.24937,0.000670552,0.0255941,2.94324,5,0.1,33,1.5,2.71478,-2.14432,0.978839,-0.0140395,0.325655,0.352349,0.0089556,-0.228837,-0.22462,0.0173628,0.109939,5,0.1,34,1.5,3.75346,-5.01432,0.611076,-0.148053,-0.372124,-0.0106903,0.0520349,0.130504,0.00373274,0.0156399,0.125779,5,0.1,35,1.5,0.500223,-0.282156,0.634565,-0.866026,-0.0520718,-0.0107177,3.57628e-06,0.00130571,0.000275671,0.0102744,2.27011,5,0.1,36,1.5,-1.87245,-4.3207,0.500013,-0.0736225,0.23136,9.1549e-05,0.0469536,-0.580192,-4.84288e-05,0.00990499,0.249489,5,0.1,37,1.5,-3.7263,2.16523,1.04582,-0.0224981,0.369871,0.288763,0.01432,-0.153959,-0.184029,0.00991466,0.188473,5,0.1,38,1.5,-2.03943,-5.79793,0.592319,-0.288892,-0.049413,0.00729254,0.867575,0.0315607,-0.00463799,0.00751536,1.71842,5,0.1,39,1.5,2.33175,-0.117188,0.698501,-0.866026,-0.0883264,0.0136646,0,0.0015609,-0.00025332,0.0178195,2.26679,5,0.1
0,1.6,0.1939,1.34262,0.60589,-0.169904,-0.337657,0.0604019,-0.683121,0.597596,0.178665,0.00575225,0.199244,5,0.1,1,1.6,-1.99764,-3.80941,0.592612,-0.0192106,0.159431,0.0198334,0.202835,-0.273943,-0.0340939,0.00856797,0.701743,5,0.1,2,1.6,-0.642171,3.92837,0.624153,0.479086,-0.162005,-0.0235036,-0.389636,0.211716,0.0191331,0.0111292,0.147834,5,0.1,3,1.6,4.02334,-4.96793,0.589347,0.00805855,0.204432,-0.00897199,0.084877,0.221491,-0.00414252,0.0509286,0.736834,5,0.1,4,1.6,-0.629866,4.69648,0.623597,0.394124,-0.864458,-0.0193775,-0.17789,0.0314713,0.00873208,0.025864,2.00504,5,0.1,5,1.6,-1.28128,0.0265088,0.614855,0.791591,0.11959,-0.0143811,-0.357747,-0.0955042,0.0115335,0.0254746,0.384045,5,0.1,6,1.6,-1.56003,-3.29885,1.01236,0.216219,-0.155628,0.347617,-0.0849962,0.0611544,-0.136733,0.0136785,0.0933603,5,0.1,7,1.6,0.777257,3.2804,0.624673,0.253411,0.0227511,-0.0286803,0.20507,-0.00810623,0.0103116,0.00913624,0.179031,5,0.1,8,1.6,1.52578,4.40292,0.919569,0.0195742,-0.0198007,0.25361,0.129223,0.0901222,0.0936687,0.0191318,0.248825,5,0.1,9,1.6,-2.87453,4.11744,1.02903,0.0238836,-0.256407,0.312442,-0.0195503,0.0634193,-0.254154,0.0110882,0.161916,5,0.1,10,1.6,-3.49206,-4.37543,0.680567,0.0471532,0.708902,-0.0151262,0.0255108,0.164509,0.00369549,0.0338729,2.43267,5,0.1,11,1.6,-1.34914,-2.18732,0.57959,0.208706,0.116879,0.0273079,-0.517726,-0.061512,-0.0143349,0.0104973,0.196057,5,0.1,12,1.6,-1.04333,4.25763,0.590396,0.715393,-0.457501,0.00814348,-0.599682,0.384092,-0.0100434,0.0267709,0.536108,5,0.1,13,1.6,0.867992,-0.557619,0.605472,0.156181,-0.0866428,-0.039348,-0.508636,-0.147045,0.0529289,0.0122538,0.454463,5,0.1,14,1.6,3.03852,-0.373765,0.595693,-0.775492,-0.263698,0.00417233,0.386715,0.0659674,-0.00333786,0.0112816,0.401863,5,0.1,15,1.6,-2.24544,-2.58749,0.722458,0.343609,0.194597,0.032033,-0.123501,0.00631809,-0.0115037,0.0134681,0.064538,5,0.1,16,1.6,-2.96519,-2.59369,0.500027,0.408787,0.0635505,0.000192225,0.254035,0.111222,-0.000238419,0.0111337,0.608265,5,0.1,17,1.6,0.574252,-3.22421,0.593916,-0.104095,-0.866026,-0.0324383,0.0396967,0,0.0123978,0.00979586,1.35702,5,0.1,18,1.6,-1.81596,4.56981,0.56192,0.866008,-0.541997,0.025177,-0.000476837,0.105858,-0.00491738,0.0397426,1.7347,5,0.1,19,1.6,0.447982,1.51029,0.500028,-0.269119,-0.0844687,0.000211596,0.207409,0.477493,-0.000208616,0.00932778,0.398578,5,0.1,20,1.6,4.4638,1.19098,0.585388,-0.172722,0.318149,0.0150472,-0.136852,-0.12517,-0.00587106,0.0223014,0.100641,5,0.1,21,1.6,1.13631,-2.56978,0.61285,-0.243297,0.329208,-0.0132293,0.0956059,-0.129223,0.00521541,0.0346292,0.0851894,5,0.1,22,1.6,0.448865,-0.728159,0.614222,0.629755,0.272174,-0.0120386,-0.91675,-0.268966,0.0138879,0.0178767,0.183297,5,0.1,23,1.6,-5.37839,-0.318724,0.500008,0.270939,0.632924,2.38419e-05,-0.22006,0.0175536,-0.000119209,0.0236639,0.878083,5,0.1,24,1.6,-3.45099,-3.91765,0.835344,0.000196695,0.860637,0.134093,-0.000119209,0.107765,-0.0378191,0.0234419,2.26276,5,0.1,25,1.6,-4.39528,-3.22412,0.564385,0.287497,-0.226271,-0.067462,-0.0917912,0.0721216,0.0215173,0.00897704,0.0351121,5,0.1,26,1.6,-0.618645,0.1,0.578264,0.711773,0.328133,0.020574,-0.507772,-0.669897,-0.015229,0.01227,0.516531,5,0.1,27,1.6,-4.42371,-2.13872,0.722966,0.655746,0.183696,0.0263169,-0.532866,-0.149488,-0.0213981,0.0102494,0.167141,5,0.1,28,1.6,-2.19796,1.76973,0.590232,0.630122,-0.200403,0.00941455,-0.466347,0.043571,-0.00753999,0.00973188,0.207484,5,0.1,29,1.6,-2.84871,-2.90503,0.600141,0.788039,0.55722,-0.00281334,0.244975,-0.341296,-0.0228286,0.0106455,1.01739,5,0.1,30,1.6,-2.26204,2.08484,0.590972,-0.642812,0.339085,0.00491291,1.82724,-0.15676,-0.00560284,0.015872,2.91005,5,0.1,31,1.6,-1.18346,4.80455,0.500018,0.733125,-0.77486,5.66244e-05,-0.314295,0.492573,-0.000357628,0.013551,1.17177,5,0.1,32,1.6,2.04025,-2.48102,0.619491,-0.0504494,0.482547,-0.0108972,0.0121593,-1.0283,0.00265241,0.0292226,3.09291,5,0.1,33,1.6,2.71343,-2.11296,1.0129,-0.0130713,0.300699,0.32813,0.0106096,-0.274777,-0.26685,0.0182258,0.15207,5,0.1,34,1.6,3.73891,-5.05091,0.610025,-0.142986,-0.359416,-0.0103265,0.0561476,0.141144,0.00405312,0.0155799,0.14302,5,0.1,35,1.6,0.41362,-0.287347,0.633497,-0.866025,-0.0515901,-0.0106186,-1.43051e-05,0.0104457,0.00214577,0.0160455,2.27018,5,0.1,36,1.6,-1.87956,-4.3,0.500021,-0.0685602,0.18729,6.85453e-05,0.0557899,-0.308037,-0.00038743,0.0292755,0.510727,5,0.1,37,1.6,-3.72847,2.20146,1.07374,-0.020951,0.354356,0.268918,0.0169277,-0.171423,-0.218689,0.0239135,0.134053,5,0.1,38,1.6,-2.06437,-5.8027,0.593024,-0.214505,-0.0460148,0.00679195,0.592232,0.0374317,-0.00551343,0.015832,1.25111,5,0.1,39,1.6,2.24515,-0.125996,0.699863,-0.866026,-0.0875767,0.0135481,0,0.0170395,-0.00265241,0.0262752,2.26696,5,0.1
0,1.7,0.173623,1.31151,0.612873,-0.23384,-0.287257,0.0794797,-0.575929,0.42633,0.191789,0.00575225,0.199244,5,0.1,1,1.7,-1.99859,-3.79481,0.594428,-0.000922754,0.132852,0.0165257,0.138313,-0.257328,-0.0320263,0.00856797,0.701743,5,0.1,2,1.7,-0.596119,3.91325,0.621894,0.44256,-0.140726,-0.0217104,-0.353981,0.191674,0.0173748,0.0111292,0.147834,5,0.1,3,1.7,4.02405,-4.94588,0.588457,0.00183433,0.240274,-0.00859741,-0.179768,0.449181,0.0103936,0.0509286,0.736834,5,0.1,4,1.7,-0.59131,4.61028,0.621701,0.376999,-0.85783,-0.0185548,-0.176989,0.128806,0.00837073,0.025864,2.00504,5,0.1,5,1.7,-1.20379,0.0380128,0.613472,0.758683,0.110629,-0.0132998,-0.32869,-0.0869959,0.010483,0.0254746,0.384045,5,0.1,6,1.7,-1.53878,-3.31414,1.04653,0.209057,-0.150473,0.336095,-0.0677034,0.0487268,-0.108905,0.0136785,0.0933603,5,0.1,7,1.7,0.80311,3.28264,0.621856,0.259038,0.0219304,-0.0276363,-0.0719018,-0.0089854,0.0114255,0.00913624,0.179031,5,0.1,8,1.7,1.52847,4.40136,0.945649,0.0349646,-0.0118256,0.269731,0.168018,0.0692606,0.199761,0.0191318,0.248825,5,0.1,9,1.7,-2.87222,4.09187,1.05921,0.0223838,-0.257014,0.292944,-0.0118613,-0.0511706,-0.154115,0.0110882,0.161916,5,0.1,10,1.7,-3.48716,-4.30323,0.679082,0.0513796,0.738446,-0.0145014,0.0524968,0.362009,0.00874698,0.0338729,2.43267,5,0.1,11,1.7,-1.33086,-2.17592,0.582253,0.157202,0.111151,0.0259729,-0.504255,-0.057146,-0.0133291,0.0104973,0.196057,5,0.1,12,1.7,-0.974769,4.21371,0.59116,0.655811,-0.421515,0.00714585,-0.603683,0.347972,-0.00994653,0.0267709,0.536108,5,0.1,13,1.7,0.881183,-0.56654,0.601823,0.108885,-0.0875566,-0.0334477,-0.434224,0.106387,0.0636801,0.0122538,0.454463,5,0.1,14,1.7,2.96278,-0.399857,0.596095,-0.739732,-0.258376,0.00385912,0.355259,0.0523105,-0.00304356,0.0112816,0.401863,5,0.1,15,1.7,-2.21169,-2.56827,0.725604,0.331096,0.187242,0.0308673,-0.137061,-0.144184,-0.012774,0.0134681,0.064538,5,0.1,16,1.7,-2.92316,-2.58672,0.500044,0.430099,0.0761479,0.000142399,0.155866,0.13119,-0.00070408,0.0111337,0.608265,5,0.1,17,1.7,0.564027,-3.3108,0.59073,-0.100443,-0.865794,-0.0312981,0.0371598,0.00925362,0.0115968,0.00979586,1.35702,5,0.1,18,1.7,-1.72936,4.51601,0.56442,0.865839,-0.534773,0.0248414,-0.00676513,0.0655651,-0.00304729,0.0397426,1.7347,5,0.1,19,1.7,0.422041,1.50401,0.500047,-0.250139,-0.04321,0.000160281,0.18079,0.345677,-0.000748783,0.00932778,0.398578,5,0.1,20,1.7,4.44579,1.22225,0.586867,-0.187758,0.307602,0.0145519,-0.148982,-0.0996962,-0.00469387,0.0223014,0.100641,5,0.1,21,1.7,1.1124,-2.53759,0.61155,-0.235239,0.313541,-0.0127899,0.0761747,-0.187904,0.0041537,0.0346292,0.0851894,5,0.1,22,1.7,0.507121,-0.70227,0.613089,0.534285,0.24567,-0.0106099,-0.981269,-0.264823,0.014659,0.0178767,0.183297,5,0.1,23,1.7,-5.35234,-0.256281,0.500009,0.250307,0.608202,1.1269e-05,-0.200033,-0.449872,-0.000122935,0.0236639,0.878083,5,0.1,24,1.7,-3.45097,-3.83125,0.848613,0.000188872,0.865689,0.131582,-7.45058e-05,0.0134706,-0.0196546,0.0234419,2.26276,5,0.1,25,1.7,-4.36701,-3.24636,0.557751,0.277463,-0.218381,-0.0651086,-0.116706,0.0917912,0.0273734,0.00897704,0.0351121,5,0.1,26,1.7,-0.549882,0.129496,0.580248,0.6642,0.262259,0.0191412,-0.46451,-0.641654,-0.0140034,0.01227,0.516531,5,0.1,27,1.7,-4.36068,-2.12107,0.725496,0.605788,0.169683,0.0243109,-0.484198,-0.135764,-0.019446,0.0102494,0.167141,5,0.1,28,1.7,-2.13714,1.74989,0.591138,0.587204,-0.196393,0.0087087,-0.411868,0.0444427,-0.00683591,0.00973188,0.207484,5,0.1,29,1.7,-2.77004,-2.85262,0.600037,0.772985,0.477261,0.00318326,-0.499099,-1.16797,0.125095,0.0106455,1.01739,5,0.1,30,1.7,-2.31961,2.11804,0.591441,-0.529645,0.325143,0.00451263,0.558957,-0.135183,-0.00278652,0.015872,2.91005,5,0.1,31,1.7,-1.11167,4.72948,0.500022,0.70261,-0.726544,2.20723e-05,-0.31887,0.492722,-0.0003241,0.013551,1.17177,5,0.1,32,1.7,2.03525,-2.43753,0.618412,-0.0496268,0.394398,-0.0107176,0.00688434,-0.618935,0.00150129,0.0292226,3.09291,5,0.1,33,1.7,2.71216,-2.08449,1.0446,-0.0122577,0.266691,0.307658,0.0064373,-0.39494,-0.161804,0.0182258,0.15207,5,0.1,34,1.7,3.72458,-5.08623,0.60901,-0.146156,-0.347521,-0.00998471,-0.0956059,0.112504,0.00323355,0.0155799,0.14302,5,0.1,35,1.7,0.327018,-0.292473,0.632442,-0.866025,-0.0510537,-0.0105088,1.78814e-06,0.00325404,0.000659376,0.0160455,2.27018,5,0.1,36,1.7,-1.88646,-4.28209,0.500157,-0.0721961,0.176949,0.00374205,-0.106931,0.0577867,0.0656173,0.0292755,0.510727,5,0.1,37,1.7,-3.73049,2.23616,1.09959,-0.0193629,0.340495,0.248417,0.0154227,-0.122517,-0.198677,0.0239135,0.134053,5,0.1,38,1.7,-2.08333,-5.80713,0.593677,-0.170734,-0.0425056,0.00627479,0.234619,0.0340343,-0.00501052,0.015832,1.25111,5,0.1,39,1.7,2.15855,-0.134702,0.70121,-0.866026,-0.0867495,0.0134191,0,0.00460166,-0.000718981,0.0262752,2.26696,5,0.1
0,1.8,0.147669,1.28474,0.621727,-0.281824,-0.249583,0.0968561,-0.370786,0.339389,0.14779,0.00755718,0.177736,5,0.1,1,1.8,-1.99825,-3.78278,0.595924,0.00509918,0.108021,0.0134364,-0.0266433,-0.239015,-0.0297427,0.0102171,1.91924,5,0.1,2,1.8,-0.55366,3.9,0.619811,0.406089,-0.12576,-0.0199214,-0.384331,0.109076,0.0188649,0.00943795,0.193225,5,0.1,3,1.8,4.0231,-4.91954,0.587664,-0.0226021,0.286198,-0.00711977,-0.285864,0.434399,0.0181794,0.047932,0.587093,5,0.1,4,1.8,-0.554576,4.52548,0.619891,0.356659,-0.834131,-0.0175953,-0.238061,0.362873,0.0112653,0.0308299,2.12122,5,0.1,5,1.8,-1.12971,0.0486329,0.612196,0.721103,0.101639,-0.012216,-0.442207,-0.0950322,0.0114143,0.0281839,0.260265,5,0.1,6,1.8,-1.51824,-3.32892,1.07954,0.201076,-0.144726,0.32326,-0.0984073,0.0708103,-0.15831,0.0144227,0.126445,5,0.1,7,1.8,0.828336,3.28478,0.619157,0.242703,0.0208378,-0.0262514,-0.238687,-0.0133514,0.0167787,0.011096,0.148524,5,0.1,8,1.8,1.5328,4.40049,0.9736,0.0513405,-0.00594854,0.288549,0.151694,0.0481606,0.155449,0.0204522,0.185522,5,0.1,9,1.8,-2.87004,4.06589,1.08778,0.0212669,-0.262392,0.278449,-0.0113249,-0.0386238,-0.149131,0.0101067,0.0976485,5,0.1,10,1.8,-3.48176,-4.22768,0.677683,0.0565171,0.770223,-0.0133902,0.0454187,0.227213,0.0133812,0.0384674,2.35365,5,0.1,11,1.8,-1.31758,-2.16512,0.584779,0.109252,0.104755,0.0244826,-0.448823,-0.0733137,-0.0171661,0.0113169,0.193169,5,0.1,12,1.8,-0.912289,4.17332,0.591825,0.592752,-0.385833,0.0061512,-0.664741,0.374079,-0.0100136,0.0255349,0.417382,5,0.1,13,1.8,0.890044,-0.574498,0.598805,0.0698,-0.0694126,-0.0268668,-0.345886,0.238359,0.0667572,0.0133912,0.317948,5,0.1,14,1.8,2.89071,-0.425377,0.596465,-0.699943,-0.251234,0.00354648,0.458717,0.09875,-0.00336766,0.0139157,0.272811,5,0.1,15,1.8,-2.17936,-2.55045,0.728618,0.314504,0.167495,0.029321,-0.201702,-0.242949,-0.0188053,0.0138796,0.145944,5,0.1,16,1.8,-2.87965,-2.57848,0.500055,0.437289,0.0881433,6.25849e-05,-0.0224113,0.101805,-0.000864267,0.0101832,0.473431,5,0.1,17,1.8,0.55419,-3.39726,0.587664,-0.0960201,-0.862324,-0.02992,0.0538826,0.0739098,0.0168383,0.00935252,1.08722,5,0.1,18,1.8,-1.64287,4.46297,0.566883,0.863218,-0.524306,0.0243545,-0.056088,0.162601,-0.00751019,0.0383012,1.29532,5,0.1,19,1.8,0.397944,1.50119,0.500059,-0.231507,-0.0154853,7.45058e-05,0.197798,0.20951,-0.000983477,0.0101246,0.57108,5,0.1,20,1.8,4.42634,1.25246,0.588297,-0.199997,0.295854,0.0139982,-0.0853539,-0.144899,-0.00685453,0.0237206,0.162499,5,0.1,21,1.8,1.08929,-2.5073,0.610294,-0.226259,0.291073,-0.0123009,0.110805,-0.263214,0.00602007,0.031146,0.0968588,5,0.1,22,1.8,0.555616,-0.679044,0.612102,0.435601,0.218615,-0.00911355,-0.982761,-0.278592,0.0151992,0.0135186,0.163511,5,0.1,23,1.8,-5.32833,-0.198085,0.50001,0.229704,0.552981,-1.49012e-06,-0.217438,-0.61635,-0.000119209,0.0204648,0.731399,5,0.1,24,1.8,-3.45095,-3.74466,0.861654,0.000184774,0.866026,0.12892,-0.000119209,0,-0.038743,0.0202319,2.26174,5,0.1,25,1.8,-4.33994,-3.26767,0.551399,0.262904,-0.206918,-0.0616908,-0.179529,0.141025,0.0420511,0.0101254,0.0130975,5,0.1,26,1.8,-0.485851,0.152601,0.582091,0.615376,0.200836,0.0176772,-0.52613,-0.582419,-0.0157058,0.0104807,1.13483,5,0.1,27,1.8,-4.30256,-2.10479,0.727828,0.555897,0.155693,0.022307,-0.525951,-0.147223,-0.0211,0.0113568,0.169923,5,0.1,28,1.8,-2.08052,1.73053,0.591974,0.544399,-0.190201,0.00800341,-0.457883,0.0846386,-0.00748038,0.0110304,0.40155,5,0.1,29,1.8,-2.69614,-2.81149,0.601105,0.696957,0.339764,0.0190616,-0.980973,-1.51062,0.178665,0.0090276,0.36564,5,0.1,30,1.8,-2.37104,2.14982,0.59188,-0.509065,0.309831,0.00428855,-0.0505447,-0.180125,-0.00196695,0.0154428,2.64043,5,0.1,31,1.8,-1.04316,4.65942,0.500023,0.665542,-0.673175,-7.45058e-06,-0.437647,0.58651,-0.000298023,0.0123547,0.906577,5,0.1,32,1.8,2.03033,-2.4,0.617349,-0.0486255,0.367701,-0.0104994,0.0150204,0.058651,0.00321865,0.0281415,2.89751,5,0.1,33,1.8,2.71097,-2.05992,1.0746,-0.0116527,0.223649,0.292441,0.00631809,-0.456929,-0.156581,0.0177605,0.121825,5,0.1,34,1.8,3.70939,-5.12036,0.60803,-0.157905,-0.334263,-0.0096038,-0.121474,0.163794,0.00473857,0.0146244,0.0881996,5,0.1,35,1.8,0.240415,-0.297554,0.631396,-0.866025,-0.0504315,-0.0103816,0,0.0112802,0.00232458,0.0123826,2.27025,5,0.1,36,1.8,-1.89434,-4.2638,0.500912,-0.0861287,0.19114,0.0117272,-0.15521,0.192165,0.0876784,0.00909703,0.409282,5,0.1,37,1.8,-3.73234,2.26957,1.12342,-0.0177741,0.326997,0.227946,0.0168085,-0.159264,-0.215709,0.0103954,0.187377,5,0.1,38,1.8,-2.1,-5.81121,0.594279,-0.169927,-0.0390053,0.00575781,-0.193596,0.0367165,-0.00545382,0.00741173,1.06975,5,0.1,39,1.8,2.07194,-0.143341,0.702546,-0.866026,-0.0857852,0.0132695,0,0.0182912,-0.00283122,0.0183463,2.28095,5,0.1
0,1.9,0.117795,1.26111,0.632173,-0.313688,-0.226217,0.112031,-0.254072,0.15121,0.145886,0.00755718,0.177736,5,0.1,1,1.9,-1.99792,-3.77313,0.597125,-0.00206083,0.0855982,0.010646,-0.21857,-0.2096,-0.0260808,0.0102171,1.91924,5,0.1,2,1.9,-0.51487,3.88762,0.617908,0.370482,-0.124633,-0.0181741,-0.338851,-0.0629872,0.0166185,0.00943795,0.193225,5,0.1,3,1.9,4.01921,-4.88858,0.587053,-0.0566214,0.333824,-0.00502178,-0.372291,0.482768,0.022877,0.047932,0.587093,5,0.1,4,1.9,-0.52008,4.44425,0.618185,0.333258,-0.786978,-0.0165307,-0.238243,0.579596,0.0105463,0.0308299,2.12122,5,0.1,5,1.9,-1.05968,0.0583471,0.611028,0.680088,0.092828,-0.0111579,-0.4014,-0.0839529,0.0100769,0.0281839,0.260265,5,0.1,6,1.9,-1.49853,-3.34305,1.11109,0.193961,-0.137838,0.307864,-0.0554845,0.0712723,-0.159234,0.0144227,0.126445,5,0.1,7,1.9,0.851118,3.2868,0.616616,0.210876,0.019487,-0.0245526,-0.364434,-0.0140667,0.0177212,0.011096,0.148524,5,0.1,8,1.9,1.5387,4.4001,1.00327,0.0663638,-0.00210255,0.304668,0.141978,0.0287294,0.148289,0.0204522,0.185522,5,0.1,9,1.9,-2.86796,4.03945,1.11496,0.0203028,-0.265966,0.265749,-0.00888109,-0.0209808,-0.116847,0.0101067,0.0976485,5,0.1,10,1.9,-3.47583,-4.14921,0.676402,0.0622705,0.800799,-0.0123103,0.0630915,0.326991,0.00892207,0.0384674,2.35365,5,0.1,11,1.9,-1.30877,-2.15501,0.587141,0.0682468,0.0973202,0.0227427,-0.366516,-0.0773668,-0.01809,0.0113169,0.193169,5,0.1,12,1.9,-0.856201,4.13647,0.592393,0.530084,-0.352192,0.00522463,-0.600681,0.311315,-0.0086166,0.0255349,0.417382,5,0.1,13,1.9,0.89545,-0.579987,0.596457,0.0398769,-0.0383138,-0.0200756,-0.252444,0.361923,0.0677407,0.0133912,0.317948,5,0.1,14,1.9,2.82288,-0.450047,0.596804,-0.657383,-0.242341,0.00323495,0.41461,0.088701,-0.00296161,0.0139157,0.272811,5,0.1,15,1.9,-2.14892,-2.53503,0.731456,0.29409,0.139896,0.027418,-0.212893,-0.300914,-0.0198483,0.0138796,0.145944,5,0.1,16,1.9,-2.83569,-2.56933,0.500057,0.444355,0.0932075,-1.2666e-05,0.125304,0.0038445,-0.00064075,0.0101832,0.473431,5,0.1,17,1.9,0.544842,-3.48251,0.584752,-0.0910055,-0.836726,-0.0283537,0.0495538,0.425026,0.0154711,0.00935252,1.08722,5,0.1,18,1.9,-1.55659,4.41126,0.569285,0.863611,-0.510216,0.0237033,0.0203699,0.140905,-0.00651926,0.0383012,1.29532,5,0.1,19,1.9,0.37572,1.5006,0.500062,-0.213409,0.002205,-1.06171e-05,0.1713,0.125572,-0.000722706,0.0101246,0.57108,5,0.1,20,1.9,4.40599,1.28134,0.589663,-0.206222,0.281763,0.013331,-0.0327826,-0.145726,-0.00689924,0.0237206,0.162499,5,0.1,21,1.9,1.06714,-2.47973,0.60909,-0.217227,0.258362,-0.0118103,0.0809208,-0.381678,0.00439584,0.031146,0.0968588,5,0.1,22,1.9,0.594422,-0.658501,0.611264,0.342169,0.192864,-0.00766031,-0.883374,-0.241362,0.0139102,0.0135186,0.163511,5,0.1,23,1.9,-5.30639,-0.146076,0.500009,0.20956,0.487372,-1.08033e-05,-0.191689,-0.613562,-6.70552e-05,0.0204648,0.731399,5,0.1,24,1.9,-3.45093,-3.65805,0.874407,0.000177324,0.866026,0.126482,-5.96046e-05,0,-0.0174083,0.0202319,2.26174,5,0.1,25,1.9,-4.31458,-3.28763,0.545448,0.243863,-0.19195,-0.0572281,-0.204474,0.160798,0.0479445,0.0101254,0.0130975,5,0.1,26,1.9,-0.426803,0.169778,0.583784,0.566553,0.14322,0.0162177,-0.467781,-0.552311,-0.0139698,0.0104807,1.13483,5,0.1,27,1.9,-4.24946,-2.08976,0.729802,0.507166,0.146498,0.0159069,-0.463754,-0.050813,-0.0976287,0.0113568,0.169923,5,0.1,28,1.9,-2.02792,1.71191,0.592739,0.511226,-0.182242,0.00731116,-0.241853,0.0809655,-0.00659004,0.0110304,0.40155,5,0.1,29,1.9,-2.63133,-2.78519,0.604026,0.59943,0.185963,0.040221,-0.96868,-1.52464,0.230528,0.0090276,0.36564,5,0.1,30,1.9,-2.42346,2.17999,0.592303,-0.54933,0.294166,0.00418862,-0.653371,-0.145659,-0.000361353,0.0154428,2.64043,5,0.1,31,1.9,-0.978659,4.59491,0.500021,0.625271,-0.617786,-2.99886e-05,-0.389546,0.538051,-0.000163913,0.0123547,0.906577,5,0.1,32,1.9,2.02553,-2.36143,0.616311,-0.0476293,0.415786,-0.0102864,0.00759959,0.791833,0.00162795,0.0281415,2.89751,5,0.1,33,1.9,2.70983,-2.03989,1.10315,-0.0111155,0.176619,0.279106,0.00494719,-0.474945,-0.122689,0.0177605,0.121825,5,0.1,34,1.9,3.69304,-5.15299,0.607092,-0.168403,-0.318335,-0.00914354,-0.0814199,0.164747,0.00475347,0.0146244,0.0881996,5,0.1,35,1.9,0.153812,-0.302561,0.630365,-0.866025,-0.0498324,-0.0102585,-1.19209e-06,0.0036452,0.000745058,0.0123826,2.27025,5,0.1,36,1.9,-1.90386,-4.24341,0.502572,-0.105144,0.218845,0.0217909,-0.208706,0.328809,0.1074,0.00909703,0.409282,5,0.1,37,1.9,-3.73404,2.30171,1.1452,-0.0162169,0.31769,0.207961,0.0148416,-0.0502467,-0.190191,0.0103954,0.187377,5,0.1,38,1.9,-2.11882,-5.81493,0.594829,-0.213415,-0.0356011,0.00525257,-0.609159,0.0323951,-0.0048019,0.00741173,1.06975,5,0.1,39,1.9,1.98564,-0.151862,0.703865,-0.85887,-0.0848703,0.0131282,0.0776425,0.00507198,-0.000778586,0.0183463,2.28095,5,0.1
0,2,0.0854313,1.23909,0.644036,-0.330643,-0.215244,0.124365,-0.0774932,0.0860095,0.0939071,0.0103219,1.02436,5,0.1,1,2,-2,-3.76557,0.598065,-0.0470996,0.0660717,0.0082165,-0.664949,-0.181198,-0.0225306,0.00948398,3.26237,5,0.1,2,2,-0.479514,3.87472,0.616174,0.336451,-0.134212,-0.0165045,-0.349432,-0.110388,0.0171363,0.00605413,0.216743,5,0.1,3,2,4.01169,-4.85295,0.586667,-0.0931859,0.376678,-0.00270605,-0.342131,0.349283,0.022769,0.0492238,0.447883,5,0.1,4,2,-0.488,4.3688,0.616587,0.307641,-0.718617,-0.0153989,-0.279456,0.784397,0.0123978,0.0271309,2.34111,5,0.1,5,2,-0.993765,0.0672101,0.609963,0.636896,0.0843802,-0.0101447,-0.478297,-0.0869147,0.0104606,0.024842,0.207299,5,0.1,6,2,-1.47941,-3.35645,1.14102,0.187993,-0.129759,0.289819,-0.0722408,0.0932217,-0.208199,0.0139158,0.167679,5,0.1,7,2,0.870387,3.28867,0.614254,0.175031,0.0179589,-0.02262,-0.333697,-0.0170469,0.0212193,0.0099995,0.184353,5,0.1,8,2,1.54598,4.40001,1.03434,0.0785828,-0.00013113,0.315058,0.0978112,0.0114441,0.0466108,0.0186858,0.139255,5,0.1,9,2,-2.86598,4.01286,1.14093,0.0193357,-0.264621,0.253043,-0.0110865,0.0559092,-0.145674,0.00989403,0.105035,5,0.1,10,2,-3.4693,-4.06772,0.675213,0.0680149,0.825834,-0.0114828,0.0468493,0.132799,0.00816584,0.0403346,2.32277,5,0.1,11,2,-1.30362,-2.14568,0.58932,0.0366122,0.0889659,0.0207901,-0.264347,-0.0907183,-0.0212193,0.00926352,0.322688,5,0.1,12,2,-0.806169,4.10279,0.592874,0.470586,-0.321412,0.00441074,-0.597507,0.313044,-0.00777841,0.0223993,0.330555,5,0.1,13,2,0.898328,-0.581952,0.594781,0.0191897,-0.000837445,-0.0135496,-0.162601,0.371158,0.0618398,0.0116825,0.301112,5,0.1,14,2,2.75929,-0.47379,0.597112,-0.613296,-0.231875,0.00293851,0.48244,0.127211,-0.00306964,0.0105661,0.183648,5,0.1,15,2,-2.12063,-2.52259,0.734093,0.270903,0.108778,0.0252545,-0.254869,-0.314951,-0.0237226,0.0139761,0.200809,5,0.1,16,2,-2.79064,-2.56012,0.500053,0.455707,0.0897527,-6.4075e-05,0.0737906,-0.068903,-0.000447035,0.011483,0.355954,5,0.1,17,2,0.536003,-3.56356,0.581998,-0.0855789,-0.779796,-0.0266626,0.0610948,0.701904,0.0191033,0.00934218,0.942482,5,0.1,18,2,-1.47029,4.36106,0.571618,0.860143,-0.492465,0.0228807,-0.117719,0.229359,-0.0106394,0.0346509,0.940173,5,0.1,19,2,0.355239,1.5012,0.500058,-0.196037,0.00718236,-7.00355e-05,0.181124,-0.0317693,-0.000447035,0.0101416,1.0197,5,0.1,20,2,4.38533,1.30873,0.590959,-0.205553,0.265244,0.0125483,0.0498295,-0.190437,-0.0090301,0.0200812,0.143316,5,0.1,21,2,1.04585,-2.45593,0.607932,-0.208196,0.216502,-0.0113204,0.107408,-0.447392,0.00584126,0.0321384,0.191026,5,0.1,22,2,0.624404,-0.640393,0.610566,0.259347,0.169499,-0.00632405,-0.771314,-0.229388,0.0128448,0.014899,0.29325,5,0.1,23,2,-5.28639,-0.1,0.500008,0.190306,0.438411,-1.63913e-05,-0.197649,-0.366524,-2.98023e-05,0.0206326,0.601229,5,0.1,24,2,-3.45092,-3.57145,0.886954,0.000166893,0.866026,0.124173,0.000119209,0,-0.0339746,0.0189007,2.26226,5,0.1,25,2,-4.29128,-3.30597,0.53998,0.221527,-0.174379,-0.0519902,-0.243902,0.191808,0.0572205,0.00942474,0.00636698,5,0.1,26,2,-0.372506,0.181503,0.585335,0.518873,0.093193,0.0147998,-0.497818,-0.437625,-0.0146925,0.0117678,2.98703,5,0.1,27,2,-4.20106,-2.0753,0.730842,0.460589,0.143063,0.00443459,-0.478506,-0.0286102,-0.124574,0.0110944,0.123857,5,0.1,28,2,-1.9779,1.69412,0.593437,0.489721,-0.172931,0.0066489,-0.215054,0.109613,-0.00679493,0.0101808,0.298312,5,0.1,29,2,-2.57621,-2.77396,0.609191,0.503474,0.0418901,0.0627309,-0.948787,-1.32704,0.209272,0.00840369,0.235553,5,0.1,30,2,-2.48196,2.20866,0.59272,-0.621957,0.278574,0.00415891,-0.722766,-0.17488,-0.000506639,0.014128,2.13444,5,0.1,31,2,-0.918145,4.53585,0.500017,0.583963,-0.562751,-4.02331e-05,-0.451535,0.573874,-2.98023e-05,0.0130965,0.935542,5,0.1,32,2,2.02081,-2.31544,0.615292,-0.0466466,0.506461,-0.0100762,0.0139475,0.937104,0.00303984,0.022026,2.19196,5,0.1,33,2,2.70875,-2.02458,1.13042,-0.0105798,0.130188,0.265762,0.00607967,-0.447035,-0.153005,0.0155889,0.267288,5,0.1,34,2,3.67591,-5.18394,0.606204,-0.173038,-0.299656,-0.00860393,-0.00655651,0.215054,0.00616908,0.0156447,0.0968206,5,0.1,35,2,0.0672099,-0.307519,0.629344,-0.866026,-0.0492007,-0.0101283,5.96046e-06,0.0111163,0.00226498,0.0129115,2.27033,5,0.1,36,2,-1.9154,-4.21988,0.505278,-0.125024,0.251138,0.0321284,-0.176966,0.29254,0.0948012,0.00906453,0.323521,5,0.1,37,2,-3.73559,2.33325,1.16504,-0.0147283,0.312895,0.188857,0.015378,-0.0625849,-0.196099,0.00887203,0.145261,5,0.1,38,2,-2.14344,-5.81833,0.59533,-0.279957,-0.0323415,0.00476837,-0.670671,0.0333786,-0.00491738,0.00904161,0.627341,5,0.1,39,2,1.9,-0.160312,0.705172,-0.855139,-0.0839043,0.0129789,0.015974,0.0178367,-0.00274181,0.0164484,2.27282,5,0.1
0,2.1,0.0527466,1.21711,0.656645,-0.316213,-0.231548,0.12511,0.333266,-0.350431,-0.0680797,0.0103219,1.02436,5,0.1,1,2.1,-2.00957,-3.75982,0.59878,-0.156568,0.0493612,0.00613863,-1.40552,-0.15308,-0.01904,0.00948398,3.26237,5,0.1,2,2.1,-0.447208,3.86095,0.614681,0.312999,-0.13921,-0.0127595,-0.148326,0.0064522,0.0533685,0.00605413,0.216743,5,0.1,3,2.1,4.00062,-4.8135,0.586512,-0.128263,0.411772,-0.000407081,-0.342548,0.325114,0.0225417,0.0492238,0.447883,5,0.1,4,2.1,-0.458611,4.3009,0.615106,0.280224,-0.638772,-0.0142379,-0.274049,0.814468,0.0112504,0.0271309,2.34111,5,0.1,5,2.1,-0.932332,0.0753957,0.608997,0.592625,0.0808404,-0.00918424,-0.426523,0.00390736,0.00903383,0.024842,0.207299,5,0.1,6,2.1,-1.46118,-3.36909,1.1689,0.174797,-0.1241,0.267253,-0.184014,0.0305772,-0.244774,0.0139158,0.167679,5,0.1,7,2.1,0.886267,3.29038,0.612094,0.144482,0.0163581,-0.0206213,-0.225823,-0.0154227,0.0193305,0.0099995,0.184353,5,0.1,8,2.1,1.5543,4.40003,1.06604,0.0873053,0.000508875,0.318198,0.0724718,0.00217557,0.00464171,0.0186858,0.139255,5,0.1,9,2.1,-2.8641,3.98699,1.1656,0.0184283,-0.249876,0.241113,-0.00801682,0.229165,-0.105374,0.00989403,0.105035,5,0.1,10,2.1,-3.46231,-3.98422,0.674372,0.0714831,0.845441,-0.00311118,0.0208318,0.206113,0.142701,0.0403346,2.32277,5,0.1,11,2.1,-1.30109,-2.13725,0.591291,0.015625,0.0795998,0.0186001,-0.158787,-0.0967979,-0.0226237,0.00926352,0.322688,5,0.1,12,2.1,-0.76186,4.07206,0.59328,0.41758,-0.294554,0.0037482,-0.478216,0.237525,-0.00566989,0.0223993,0.330555,5,0.1,13,2.1,0.899572,-0.580159,0.593725,0.00698827,0.036555,-0.00767186,-0.0851825,0.363536,0.0549331,0.0116825,0.301112,5,0.1,14,2.1,2.70024,-0.496382,0.597392,-0.568688,-0.220142,0.00265706,0.428155,0.115329,-0.00263751,0.0105661,0.183648,5,0.1,15,2.1,-2.09476,-2.51326,0.736505,0.246906,0.0780527,0.0230202,-0.232011,-0.29467,-0.0216067,0.0139761,0.200809,5,0.1,16,2.1,-2.74455,-2.55156,0.500045,0.466901,0.0807982,-9.45292e-05,0.119999,-0.107154,-0.000175089,0.011483,0.355954,5,0.1,17,2.1,0.527734,-3.63734,0.579422,-0.0799061,-0.69041,-0.02489,0.0549816,1.01948,0.0171661,0.00934218,0.942482,5,0.1,18,2.1,-1.38485,4.31295,0.573855,0.847998,-0.469436,0.0218685,-0.156872,0.244439,-0.0103451,0.0346509,0.940173,5,0.1,19,2.1,0.336484,1.50165,0.500049,-0.179502,-0.00111349,-0.000100583,0.155529,-0.197768,-0.000178814,0.0101416,1.0197,5,0.1,20,2.1,4.36529,1.33431,0.592169,-0.192766,0.246355,0.0116528,0.19592,-0.192806,-0.00913814,0.0200812,0.143316,5,0.1,21,2.1,1.0256,-2.43659,0.606831,-0.19637,0.169881,-0.0106774,0.132076,-0.474781,0.00718236,0.0321384,0.191026,5,0.1,22,2.1,0.646748,-0.624461,0.609992,0.190078,0.150204,-0.00522472,-0.617977,-0.164498,0.00941753,0.014899,0.29325,5,0.1,23,2.1,-5.26829,-0.0573259,0.500006,0.172159,0.42049,-1.76951e-05,-0.170529,-0.040215,0,0.0206326,0.601229,5,0.1,24,2.1,-3.4509,-3.48485,0.899256,0.000178441,0.866026,0.122241,0.000104308,0,-0.0120699,0.0189007,2.26226,5,0.1,25,2.1,-4.27034,-3.32246,0.535065,0.197245,-0.155277,-0.0462921,-0.244081,0.192076,0.0572801,0.00942474,0.00636698,5,0.1,26,2.1,-0.322493,0.188588,0.586746,0.486382,0.0495515,0.013447,-0.196297,-0.378955,-0.0127777,0.0117678,2.98703,5,0.1,27,2.1,-4.15725,-2.0612,0.73061,0.416657,0.138234,-0.00941558,-0.412881,-0.0686944,-0.145506,0.0110944,0.123857,5,0.1,28,2.1,-1.92975,1.67735,0.59407,0.474916,-0.162672,0.00602519,-0.10968,0.100911,-0.00586733,0.0101808,0.298312,5,0.1,29,2.1,-2.53017,-2.77605,0.616542,0.421013,-0.0796165,0.0843081,-0.718877,-1.08679,0.211332,0.00840369,0.235553,5,0.1,30,2.1,-2.54828,2.23571,0.593135,-0.707443,0.263029,0.00415687,-0.908062,-0.146478,0.000193715,0.014128,2.13444,5,0.1,31,2.1,-0.861918,4.48224,0.500013,0.541073,-0.511112,-3.99537e-05,-0.421409,0.476986,2.6077e-05,0.0130965,0.935542,5,0.1,32,2.1,2.0162,-2.25964,0.614296,-0.0456523,0.612185,-0.00985935,0.00835955,1.09948,0.00181794,0.022026,2.19196,5,0.1,33,2.1,2.70772,-2.01376,1.15626,-0.0100009,0.0867054,0.251206,0.00581145,-0.410736,-0.146143,0.0155889,0.267288,5,0.1,34,2.1,3.65881,-5.2129,0.605372,-0.166777,-0.280091,-0.00804272,0.125036,0.186801,0.00536442,0.0156447,0.0968206,5,0.1,35,2.1,-0.0193926,-0.312404,0.628339,-0.866025,-0.0486199,-0.0100108,1.49012e-07,0.0033956,0.000678003,0.0129115,2.27033,5,0.1,36,2.1,-1.92861,-4.1932,0.508974,-0.137642,0.282856,0.0417488,-0.0757128,0.316292,0.0928789,0.00906453,0.323521,5,0.1,37,2.1,-3.73699,2.3641,1.183,-0.0133175,0.302836,0.170852,0.0132471,-0.141352,-0.169232,0.00887203,0.145261,5,0.1,38,2.1,-2.17494,-5.82141,0.595784,-0.350467,-0.0292741,0.00431631,-0.698432,0.0288188,-0.00425428,0.00904161,0.627341,5,0.1,39,2.1,1.81429,-0.168648,0.706461,-0.860771,-0.083038,0.0128465,-0.0856444,0.00449643,-0.000685453,0.0164484,2.27282,5,0.1
0,2.2,0.0232447,1.1919,0.668623,-0.269991,-0.274444,0.11277,0.564005,-0.460327,-0.169456,0.0114077,0.822855,5,0.1,1,2.2,-2.03267,-3.7556,0.599304,-0.307238,0.035429,0.00440627,-1.51682,-0.125885,-0.0156462,0.00851308,2.75884,5,0.1,2,2.2,-0.416512,3.84723,0.613702,0.301759,-0.133723,-0.00661612,-0.09799,0.0995398,0.0660717,0.00702963,0.232528,5,0.1,3,2.2,3.9862,-4.77092,0.586579,-0.158817,0.437045,0.00168681,-0.2563,0.161409,0.0188947,0.0464609,0.324544,5,0.1,4,2.2,-0.431984,4.24116,0.61374,0.25199,-0.555515,-0.0130773,-0.293925,0.850439,0.0122488,0.00864119,0.542473,5,0.1,5,2.2,-0.875245,0.0835665,0.608124,0.548322,0.0830093,-0.00829101,-0.472873,0.0301525,0.00905991,0.0212407,0.142992,5,0.1,6,2.2,-1.44475,-3.38138,1.19433,0.152621,-0.12179,0.240654,-0.252903,0.023365,-0.287652,0.0127663,0.296249,5,0.1,7,2.2,0.9,3.29194,0.610129,0.134262,0.0147939,-0.0186592,0.0138879,-0.0162125,0.0203848,0.0102444,0.127609,5,0.1,8,2.2,1.56332,4.40008,1.09773,0.0923961,0.000464916,0.314084,0.0267029,-0.00286102,-0.0942945,0.0196461,0.274454,5,0.1,9,2.2,-2.86229,3.96337,1.18917,0.0175655,-0.22068,0.22985,-0.00965595,0.345826,-0.128508,0.00950848,0.19267,5,0.1,10,2.2,-3.45511,-3.89888,0.674883,0.0719249,0.857997,0.0141084,-0.0129938,0.00762939,0.188768,0.0380889,2.29014,5,0.1,11,2.2,-1.30018,-2.12978,0.593035,0.00409782,0.0695884,0.0162601,-0.0759363,-0.103116,-0.0241101,0.0111762,0.320444,5,0.1,12,2.2,-0.7224,4.04375,0.593628,0.372244,-0.271618,0.00324398,-0.439823,0.231266,-0.00458956,0.0235641,0.260565,5,0.1,13,2.2,0.899945,-0.574787,0.593216,0.00136793,0.0696316,-0.00269264,-0.031352,0.288755,0.0441372,0.0121219,0.287418,5,0.1,14,2.2,2.64554,-0.517786,0.597645,-0.524557,-0.207479,0.0023976,0.4673,0.14323,-0.00265241,0.0103949,0.129079,5,0.1,15,2.2,-2.07124,-2.50686,0.738698,0.223356,0.0506699,0.0208259,-0.243902,-0.249743,-0.0227392,0.0133412,0.193318,5,0.1,16,2.2,-2.69738,-2.54406,0.500035,0.474578,0.0688791,-0.000102818,0.0121593,-0.128508,2.98023e-05,0.0123187,0.258722,5,0.1,17,2.2,0.520025,-3.70118,0.577021,-0.0741437,-0.586444,-0.0230923,0.0620782,1.02079,0.0193417,0.00945676,0.826231,5,0.1,18,2.2,-1.30111,4.26734,0.575986,0.823489,-0.441396,0.0206888,-0.354409,0.324726,-0.0137687,0.0312558,0.690094,5,0.1,19,2.2,0.319308,1.5,0.500038,-0.163922,-0.0371933,-0.000108778,0.160247,-0.508547,0,0.0134449,2.35771,5,0.1,20,2.2,4.34717,1.35794,0.593287,-0.168252,0.225785,0.0106767,0.286341,-0.222027,-0.0104904,0.0246118,0.198013,5,0.1,21,2.2,1.00668,-2.42195,0.605802,-0.181323,0.123346,-0.00985861,0.170439,-0.448346,0.00923872,0.0351563,0.277555,5,0.1,22,2.2,0.662893,-0.61021,0.609512,0.135008,0.135209,-0.00439286,-0.48694,-0.141293,0.00742078,0.0131933,0.443235,5,0.1,23,2.2,-5.25191,-0.0152659,0.500004,0.155294,0.42189,-1.63913e-05,-0.169992,0.0317526,2.98023e-05,0.0213618,0.465561,5,0.1,24,2.2,-3.45088,-3.39825,0.911406,0.000184774,0.866026,0.120491,0,0,-0.0282526,0.0171781,2.26266,5,0.1,25,2.2,-4.25185,-3.33701,0.530726,0.172365,-0.13569,-0.0404537,-0.254631,0.200272,0.0597835,0.0098135,0.00195783,5,0.1,26,2.2,-0.274638,0.192084,0.588027,0.47186,0.0253797,0.0121757,-0.12739,-0.080958,-0.012964,0.0108886,2.69744,5,0.1,27,2.2,-4.11762,-2.04779,0.728953,0.375843,0.129247,-0.0234619,-0.411987,-0.111103,-0.130296,0.00934075,0.178746,5,0.1,28,2.2,-1.88283,1.66161,0.594644,0.462866,-0.151855,0.00544488,-0.151992,0.11909,-0.00593066,0.00987837,0.21648,5,0.1,29,2.2,-2.49141,-2.78894,0.625959,0.356442,-0.172848,0.103129,-0.586629,-0.768065,0.157356,0.00886154,0.187889,5,0.1,30,2.2,-2.62334,2.26126,0.593552,-0.789982,0.247508,0.00415295,-0.685453,-0.171304,-0.000506639,0.0132143,1.63738,5,0.1,31,2.2,-0.809968,4.43347,0.500009,0.49715,-0.464272,-3.57628e-05,-0.467241,0.472546,5.96046e-05,0.0120312,0.779677,5,0.1,32,2.2,2.01168,-2.19318,0.613321,-0.0445664,0.712931,-0.00962317,0.0150204,0.858903,0.00327826,0.0294065,2.51099,5,0.1,33,2.2,2.70675,-2.00701,1.18061,-0.00936985,0.0499308,0.235191,0.00727177,-0.317454,-0.17947,0.0156074,0.252397,5,0.1,34,2.2,3.64293,-5.23995,0.604595,-0.149345,-0.260496,-0.00748038,0.217319,0.211716,0.00607967,0.0121745,0.0791613,5,0.1,35,2.2,-0.105995,-0.317242,0.627343,-0.866025,-0.048025,-0.0098899,0,0.01055,0.00217557,0.0122702,2.2704,5,0.1,36,2.2,-1.94259,-4.16347,0.513578,-0.140315,0.310028,0.049901,0.0211,0.20957,0.0668168,0.00936428,0.171834,5,0.1,37,2.2,-3.73826,2.39353,1.19925,-0.0120103,0.284261,0.154126,0.0132322,-0.231028,-0.168979,0.0095226,0.263567,5,0.1,38,2.2,-2.21325,-5.82419,0.596194,-0.412613,-0.0264168,0.00389665,-0.515342,0.0288486,-0.00429153,0.00855671,0.147931,5,0.1,39,2.2,1.72787,-0.176918,0.707741,-0.866026,-0.0821482,0.0127107,0,0.0168532,-0.0026226,0.0183598,2.26751,5,0.1
0,2.3,-0.00065903,1.16181,0.678939,-0.205937,-0.329718,0.092601,0.693279,-0.598207,-0.226073,0.0114077,0.822855,5,0.1,1,2.3,-2.0715,-3.75273,0.59968,-0.472423,0.0217382,0.00322293,-1.69504,-0.142917,-0.00854582,0.00851308,2.75884,5,0.1,2,2.3,-0.386533,3.83452,0.613381,0.30003,-0.118922,0.000259653,0.0356566,0.187784,0.0689775,0.00702963,0.232528,5,0.1,3,2.3,3.96905,-4.72642,0.58684,-0.183589,0.452372,0.00349591,-0.22608,0.123262,0.0167899,0.0464609,0.324544,5,0.1,4,2.3,-0.407726,4.19074,0.612561,0.237555,-0.445452,-0.00992427,-0.0294428,1.29092,0.0466518,0.00864119,0.542473,5,0.1,5,2.3,-0.822639,0.0921,0.607337,0.504757,0.0882368,-0.0074653,-0.414625,0.0650054,0.007689,0.0212407,0.142992,5,0.1,6,2.3,-1.43083,-3.39364,1.21703,0.125272,-0.124919,0.213768,-0.287794,-0.0692606,-0.25519,0.0127663,0.296249,5,0.1,7,2.3,0.913943,3.29334,0.608363,0.148176,0.0132214,-0.0166781,0.229064,-0.0154525,0.0195131,0.0102444,0.127609,5,0.1,8,2.3,1.57266,4.40013,1.12863,0.0940058,0.000496954,0.303134,0.00305474,0.00247359,-0.131622,0.0196461,0.274454,5,0.1,9,2.3,-2.86059,3.94319,1.21148,0.0165209,-0.181678,0.216023,-0.0114739,0.422135,-0.151485,0.00950848,0.19267,5,0.1,10,2.3,-3.44798,-3.81288,0.677358,0.070573,0.862623,0.0362362,-0.0165254,0.0501424,0.23989,0.0380889,2.29014,5,0.1,11,2.3,-1.30007,-2.1233,0.594542,-0.00136755,0.0603057,0.013898,-0.0354201,-0.0844598,-0.0231527,0.0111762,0.320444,5,0.1,12,2.3,-0.687103,4.01756,0.593933,0.335944,-0.253714,0.00288226,-0.304796,0.14241,-0.00284612,0.0235641,0.260565,5,0.1,13,2.3,0.899973,-0.566461,0.593153,-0.000412669,0.0959231,0.0012855,-0.00691041,0.230148,0.0350513,0.0121219,0.287418,5,0.1,14,2.3,2.59528,-0.537631,0.597872,-0.481566,-0.187738,0.00215648,0.407919,0.243705,-0.0022389,0.0103949,0.129079,5,0.1,15,2.3,-2.0501,-2.50295,0.740669,0.199648,0.0285905,0.0186154,-0.233576,-0.189826,-0.0217743,0.0133412,0.193318,5,0.1,16,2.3,-2.64979,-2.53783,0.500025,0.477362,0.0556625,-9.38773e-05,0.0195801,-0.133783,0.000141561,0.0123187,0.258722,5,0.1,17,2.3,0.512904,-3.75479,0.574803,-0.0684098,-0.488655,-0.0213063,0.0547804,0.85786,0.0170581,0.00945676,0.826231,5,0.1,18,2.3,-1.22064,4.22485,0.577988,0.784312,-0.408041,0.0193615,-0.444181,0.348598,-0.0133142,0.0312558,0.690094,5,0.1,19,2.3,0.303665,1.49363,0.500028,-0.149336,-0.0909233,-0.000101607,0.136422,-0.550203,0.000130385,0.0134449,2.35771,5,0.1,20,2.3,4.33186,1.37947,0.594305,-0.137147,0.205049,0.00969646,0.328451,-0.198655,-0.00939146,0.0246118,0.198013,5,0.1,21,2.3,0.989386,-2.41176,0.604862,-0.164741,0.0815164,-0.00895942,0.164606,-0.383034,0.00892952,0.0351563,0.277555,5,0.1,22,2.3,0.674197,-0.597432,0.609111,0.0933199,0.120022,-0.00362517,-0.352394,-0.161249,0.00781938,0.0131933,0.443235,5,0.1,23,2.3,-5.23718,0.0273932,0.500003,0.139797,0.433442,-1.33179e-05,-0.144392,0.161847,3.35276e-05,0.0213618,0.465561,5,0.1,24,2.3,-3.45086,-3.31164,0.923368,0.000186265,0.866026,0.119099,2.98023e-05,0,-0.00694767,0.0171781,2.26266,5,0.1,25,2.3,-4.23587,-3.34959,0.526977,0.147264,-0.115941,-0.0345601,-0.247478,0.194803,0.0581145,0.0098135,0.00195783,5,0.1,26,2.3,-0.227777,0.194624,0.589184,0.467572,0.0314996,0.0109912,0.00702322,0.273885,-0.0110753,0.0108886,2.69744,5,0.1,27,2.3,-4.08179,-2.03553,0.725864,0.343268,0.114943,-0.0389735,-0.261456,-0.169918,-0.169139,0.00934075,0.178746,5,0.1,28,2.3,-1.83716,1.64699,0.59516,0.451346,-0.14079,0.00490481,-0.101231,0.106655,-0.00502542,0.00987837,0.21648,5,0.1,29,2.3,-2.45834,-2.80979,0.637081,0.307938,-0.241129,0.119254,-0.402302,-0.584304,0.154741,0.00886154,0.187889,5,0.1,30,2.3,-2.70532,2.28522,0.593965,-0.844564,0.232014,0.00412632,-0.385731,-0.147134,-0.000238419,0.0132143,1.63738,5,0.1,31,2.3,-0.762518,4.3892,0.500006,0.452299,-0.422905,-2.86847e-05,-0.439893,0.372291,7.45058e-05,0.0120312,0.779677,5,0.1,32,2.3,2.00729,-2.11899,0.612373,-0.043267,0.758894,-0.00933995,0.012815,0.135005,0.00278279,0.0294065,2.51099,5,0.1,33,2.3,2.70585,-2.00346,1.20319,-0.0085976,0.0227816,0.216047,0.00824034,-0.214487,-0.204906,0.0156074,0.252397,5,0.1,34,2.3,3.6292,-5.26496,0.603877,-0.124066,-0.239656,-0.00688182,0.279665,0.210375,0.00604615,0.0121745,0.0791613,5,0.1,35,2.3,-0.192598,-0.322012,0.62636,-0.866025,-0.0474911,-0.00977982,-8.9407e-07,0.00297092,0.000610948,0.0122702,2.2704,5,0.1,36,2.3,-1.9563,-4.13144,0.51887,-0.132006,0.329908,0.0555725,0.136547,0.170618,0.0446029,0.00936428,0.171834,5,0.1,37,2.3,-3.73939,2.42054,1.21387,-0.0108048,0.2536,0.138723,0.0112057,-0.369921,-0.143453,0.0095226,0.263567,5,0.1,38,2.3,-2.25681,-5.82671,0.596566,-0.45542,-0.0241339,0.00355709,-0.325948,0.0183582,-0.00272691,0.00855671,0.147931,5,0.1,39,2.3,1.64127,-0.185083,0.709004,-0.866026,-0.0813664,0.0125885,0,0.00371598,-0.000581145,0.0183598,2.26751,5,0.1
0,2.4,-0.0177355,1.12594,0.687029,-0.135557,-0.385961,0.0689656,0.695887,-0.492394,-0.240356,0.0134717,0.962325,5,0.1,1,2.4,-2.1269,-3.75127,0.599968,-0.630385,0.00772476,0.00260025,-1.39761,-0.133634,-0.00432134,0.00690323,0.652025,5,0.1,2,2.4,-0.356318,3.82366,0.61374,0.304075,-0.0977337,0.00675172,0.0248551,0.228882,0.059098,0.00666909,0.477964,5,0.1,3,2.4,3.9497,-4.68078,0.587266,-0.201839,0.45805,0.0049606,-0.130057,-0.0245571,0.0121593,0.0453253,0.225537,5,0.1,4,2.4,-0.383916,4.15297,0.61183,0.239991,-0.308049,-0.00448674,0.0517368,1.41025,0.0588298,0.0078829,0.331364,5,0.1,5,2.4,-0.774248,0.101243,0.606628,0.462659,0.0943841,-0.00671297,-0.438511,0.05107,0.00753999,0.0231805,0.170189,5,0.1,6,2.4,-1.41976,-3.40652,1.23715,0.096193,-0.132734,0.18875,-0.288844,-0.074625,-0.248671,0.013549,0.270145,5,0.1,7,2.4,0.930023,3.29459,0.606793,0.1739,0.0116646,-0.0147119,0.258952,-0.0158548,0.0199974,0.0112199,0.166355,5,0.1,8,2.4,1.58202,4.40019,1.15817,0.0926197,0.000786781,0.286648,-0.0321269,0.0026226,-0.202358,0.0198079,0.25497,5,0.1,9,2.4,-2.859,3.92717,1.23227,0.015229,-0.138414,0.199017,-0.0145435,0.433803,-0.190556,0.013282,0.411788,5,0.1,10,2.4,-3.44103,-3.72651,0.682171,0.0681996,0.862759,0.0596628,-0.0325441,-0.0653267,0.218302,0.0426244,2.28171,5,0.1,11,2.4,-1.30033,-2.11768,0.595818,-0.0033766,0.0523567,0.0116289,-0.00661612,-0.0758171,-0.0222325,0.00962395,0.315461,5,0.1,12,2.4,-0.654935,3.99286,0.594209,0.308043,-0.240421,0.00263751,-0.266999,0.134706,-0.00217557,0.00681981,0.250395,5,0.1,13,2.4,0.89992,-0.55586,0.59344,-0.000469387,0.114538,0.00426322,0.0038743,0.137836,0.0242591,0.0142158,0.277994,5,0.1,14,2.4,2.54917,-0.555075,0.598077,-0.440365,-0.160204,0.00193864,0.426769,0.300288,-0.00220537,0.0103456,0.166531,5,0.1,15,2.4,-2.0313,-2.50093,0.742422,0.176108,0.0129223,0.0164196,-0.239253,-0.123501,-0.0222921,0.0113825,0.301633,5,0.1,16,2.4,-2.6021,-2.53293,0.500016,0.474453,0.0424862,-7.7486e-05,-0.0939369,-0.128031,0.000208616,0.0111547,0.182297,5,0.1,17,2.4,0.506339,-3.8,0.572758,-0.0628173,-0.421888,-0.0195667,0.0585318,0.484347,0.0182688,0.010163,0.689798,5,0.1,18,2.4,-1.14468,4.18586,0.579855,0.732267,-0.370681,0.017935,-0.605643,0.401497,-0.0155568,0.0350534,0.524442,5,0.1,19,2.4,0.289407,1.48183,0.500018,-0.135794,-0.144282,-8.49366e-05,0.137925,-0.503361,0.000208616,0.0100188,3.38472,5,0.1,20,2.4,4.31981,1.39898,0.595227,-0.103891,0.185055,0.00875145,0.330925,-0.205278,-0.00974536,0.0293839,0.192587,5,0.1,21,2.4,0.973747,-2.40538,0.604011,-0.147846,0.0475347,-0.00804067,0.175446,-0.293851,0.00947714,0.0405833,0.273792,5,0.1,22,2.4,0.681952,-0.58626,0.608788,0.0634894,0.103201,-0.00284761,-0.249058,-0.173986,0.00762939,0.0126257,0.43266,5,0.1,23,2.4,-5.22391,0.0715091,0.500002,0.12567,0.447796,-1.04308e-05,-0.141621,0.0980312,5.96046e-05,0.0215637,0.34978,5,0.1,24,2.4,-3.45084,-3.22504,0.935229,0.000184774,0.866026,0.117838,0,0,-0.0234842,0.0182474,2.26296,5,0.1,25,2.4,-4.22237,-3.36022,0.523808,0.122869,-0.0967383,-0.0288337,-0.239849,0.189066,0.0563562,0.0119364,0.00108098,5,0.1,26,2.4,-0.180996,0.2,0.590229,0.467295,0.0840671,0.00990182,-0.0376326,0.746034,-0.0109375,0.011435,2.28545,5,0.1,27,2.4,-4.04867,-2.02495,0.72113,0.319731,0.09619,-0.0554129,-0.225306,-0.200748,-0.151664,0.0104621,0.138929,5,0.1,28,2.4,-1.7926,1.63345,0.595626,0.438738,-0.129771,0.00441223,-0.167072,0.116706,-0.00491738,0.0141358,0.153164,5,0.1,29,2.4,-2.42938,-2.83644,0.649706,0.272661,-0.287604,0.132313,-0.317693,-0.337124,0.0992417,0.00921136,0.161931,5,0.1,30,2.4,-2.7911,2.30767,0.594376,-0.864965,0.216627,0.00406951,-0.0212193,-0.166416,-0.00104308,0.0134625,1.22896,5,0.1,31,2.4,-0.719509,4.34872,0.500003,0.407495,-0.386822,-2.08616e-05,-0.46286,0.362158,8.9407e-05,0.0132288,0.890119,5,0.1,32,2.4,2.00304,-2.04315,0.611455,-0.0416875,0.751859,-0.00899732,0.0198483,-0.231266,0.00429153,0.0276723,2.21339,5,0.1,33,2.4,2.70503,-2.00202,1.22372,-0.00771284,0.00839233,0.19401,0.00941753,-0.0706911,-0.236273,0.0202087,0.389352,5,0.1,34,2.4,3.61824,-5.28784,0.60322,-0.0949621,-0.217569,-0.00624806,0.295401,0.234365,0.00676513,0.0159707,0.274974,5,0.1,35,2.4,-0.2792,-0.326739,0.625387,-0.866025,-0.0469439,-0.00966787,-1.43051e-05,0.00999868,0.00208616,0.0110576,2.27046,5,0.1,36,2.4,-1.96869,-4.09778,0.524601,-0.114581,0.341237,0.058499,0.204802,0.043869,0.0127554,0.0103152,0.121083,5,0.1,37,2.4,-3.74042,2.44391,1.22704,-0.0097096,0.21252,0.12469,0.0110865,-0.441313,-0.140488,0.0106751,0.258538,5,0.1,38,2.4,-2.30357,-5.82904,0.596909,-0.475472,-0.0224829,0.00331104,-0.0665188,0.015974,-0.00232458,0.00829943,0.111933,5,0.1,39,2.4,1.55467,-0.193189,0.710258,-0.866026,-0.0805609,0.0124633,0,0.0159144,-0.00244379,0.016397,2.28805,5,0.1
