id,t,px,py,pz,vx,vy,vz,ax,ay,az,planning_time,qp_cost,planning_report,size,id,t,px,py,pz,vx,vy,vz,ax,ay,az,planning_time,qp_cost,planning_report,size,id,t,px,py,pz,vx,vy,vz,ax,ay,az,planning_time,qp_cost,planning_report,size,id,t,px,py,pz,vx,vy,vz,ax,ay,az,planning_time,qp_cost,planning_report,size,id,t,px,py,pz,vx,vy,vz,ax,ay,az,planning_time,qp_cost,planning_report,size,id,t,px,py,pz,vx,vy,vz,ax,ay,az,planning_time,qp_cost,planning_report,size,id,t,px,py,pz,vx,vy,vz,ax,ay,az,planning_time,qp_cost,planning_report,size,id,t,px,py,pz,vx,vy,vz,ax,ay,az,planning_time,qp_cost,planning_report,size,id,t,px,py,pz,vx,vy,vz,ax,ay,az,planning_time,qp_cost,planning_report,size,id,t,px,py,pz,vx,vy,vz,ax,ay,az,planning_time,qp_cost,planning_report,size,id,t,px,py,pz,vx,vy,vz,ax,ay,az,planning_time,qp_cost,planning_report,size,id,t,px,py,pz,vx,vy,vz,ax,ay,az,planning_time,qp_cost,planning_report,size,id,t,px,py,pz,vx,vy,vz,ax,ay,az,planning_time,qp_cost,planning_report,size,id,t,px,py,pz,vx,vy,vz,ax,ay,az,planning_time,qp_cost,planning_report,size,id,t,px,py,pz,vx,vy,vz,ax,ay,az,planning_time,qp_cost,planning_report,size,id,t,px,py,pz,vx,vy,vz,ax,ay,az,planning_time,qp_cost,planning_report,size,id,t,px,py,pz,vx,vy,vz,ax,ay,az,planning_time,qp_cost,planning_report,size,id,t,px,py,pz,vx,vy,vz,ax,ay,az,planning_time,qp_cost,planning_report,size,id,t,px,py,pz,vx,vy,vz,ax,ay,az,planning_time,qp_cost,planning_report,size,id,t,px,py,pz,vx,vy,vz,ax,ay,az,planning_time,qp_cost,planning_report,size,id,t,px,py,pz,vx,vy,vz,ax,ay,az,planning_time,qp_cost,planning_report,size,id,t,px,py,pz,vx,vy,vz,ax,ay,az,planning_time,qp_cost,planning_report,size,id,t,px,py,pz,vx,vy,vz,ax,ay,az,planning_time,qp_cost,planning_report,size,id,t,px,py,pz,vx,vy,vz,ax,ay,az,planning_time,qp_cost,planning_report,size,id,t,px,py,pz,vx,vy,vz,ax,ay,az,planning_time,qp_cost,planning_report,size,id,t,px,py,pz,vx,vy,vz,ax,ay,az,planning_time,qp_cost,planning_report,size,id,t,px,py,pz,vx,vy,vz,ax,ay,az,planning_time,qp_cost,planning_report,size,id,t,px,py,pz,vx,vy,vz,ax,ay,az,planning_time,qp_cost,planning_report,size,id,t,px,py,pz,vx,vy,vz,ax,ay,az,planning_time,qp_cost,planning_report,size,id,t,px,py,pz,vx,vy,vz,ax,ay,az,planning_time,qp_cost,planning_report,size,id,t,px,py,pz,vx,vy,vz,ax,ay,az,planning_time,qp_cost,planning_report,size,id,t,px,py,pz,vx,vy,vz,ax,ay,az,planning_time,qp_cost,planning_report,size,id,t,px,py,pz,vx,vy,vz,ax,ay,az,planning_time,qp_cost,planning_report,size,id,t,px,py,pz,vx,vy,vz,ax,ay,az,planning_time,qp_cost,planning_report,size,id,t,px,py,pz,vx,vy,vz,ax,ay,az,planning_time,qp_cost,planning_report,size,id,t,px,py,pz,vx,vy,vz,ax,ay,az,planning_time,qp_cost,planning_report,size,id,t,px,py,pz,vx,vy,vz,ax,ay,az,planning_time,qp_cost,planning_report,size,id,t,px,py,pz,vx,vy,vz,ax,ay,az,planning_time,qp_cost,planning_report,size,id,t,px,py,pz,vx,vy,vz,ax,ay,az,planning_time,qp_cost,planning_report,size,id,t,px,py,pz,vx,vy,vz,ax,ay,az,planning_time,qp_cost,planning_report,size
0,0,3.5627,-2.44455,0.694292,0,0,0,0,0,0,0.0149264,2.28569,5,0.1,1,0,-2.98098,5.06107,0.515057,0,0,0,0,0,0,0.0535262,3.5122,5,0.1,2,0,-1.13843,2.03236,0.546064,0,0,0,0,0,0,0.017605,1.25178,5,0.1,3,0,1.54695,-2.70479,0.631036,0,0,0,0,0,0,0.0171962,0.449915,5,0.1,4,0,-1.53183,4.62556,0.535717,0,0,0,0,0,0,0.0138057,3.25713,5,0.1,5,0,-3.405,-3.05867,0.500453,0,0,0,0,0,0,0.0235306,3.51234,5,0.1,6,0,0.380761,-0.0141988,0.660852,0,0,0,0,0,0,0.0303235,3.64136,5,0.1,7,0,-1.71462,-4.01218,0.546817,0,0,0,0,0,0,0.0105484,3.32974,5,0.1,8,0,3.78329,-3.85662,0.595997,0,0,0,0,0,0,0.00947603,3.27688,5,0.1,9,0,0.402627,-1.77284,0.656731,0,0,0,0,0,0,0.00969375,2.43294,5,0.1,10,0,-4.36291,-2.98036,0.502557,0,0,0,0,0,0,0.0165453,1.85408,5,0.1,11,0,2.22378,-5.84995,0.587864,0,0,0,0,0,0,0.00980886,1.53881,5,0.1,12,0,4.67807,-5.35098,0.606198,0,0,0,0,0,0,0.0499751,0.632163,5,0.1,13,0,5.57071,1.67744,0.649679,0,0,0,0,0,0,0.0169157,3.51219,5,0.1,14,0,-1.46561,-1.81348,0.677308,0,0,0,0,0,0,0.0286968,3.5122,5,0.1,15,0,-1.86493,-2.85269,0.622938,0,0,0,0,0,0,0.0179012,0.696973,5,0.1,16,0,0.48448,-5.7999,0.611549,0,0,0,0,0,0,0.00844513,1.3187,5,0.1,17,0,-5.60251,-1.68479,0.621159,0,0,0,0,0,0,0.00883761,0.734048,5,0.1,18,0,-4.59442,4.0018,0.628598,0,0,0,0,0,0,0.0232806,3.5122,5,0.1,19,0,-0.551376,2.24534,0.678738,0,0,0,0,0,0,0.0116079,3.5122,5,0.1,20,0,2.07551,-0.106057,0.645463,0,0,0,0,0,0,0.0102183,3.51219,5,0.1,21,0,2.61492,-2.31779,0.584122,0,0,0,0,0,0,0.0150097,1.48551,5,0.1,22,0,-5.12986,-3.36577,0.562345,0,0,0,0,0,0,0.0109633,2.28413,5,0.1,23,0,-4.52174,-2.35239,0.611469,0,0,0,0,0,0,0.0103856,1.76216,5,0.1,24,0,3.45594,-0.144773,0.566319,0,0,0,0,0,0,0.00921557,3.5122,5,0.1,25,0,0.550868,-3.08215,0.644046,0,0,0,0,0,0,0.0126641,0.708085,5,0.1,26,0,-4.40724,-5.83605,0.558816,0,0,0,0,0,0,0.00979423,0.85647,5,0.1,27,0,4.52976,0.645761,0.625697,0,0,0,0,0,0,0.0103841,1.80663,5,0.1,28,0,-1.7009,2.30104,0.612408,0,0,0,0,0,0,0.0161172,2.28674,5,0.1,29,0,-2.93445,4.0581,0.696093,0,0,0,0,0,0,0.0155128,0.382784,5,0.1,30,0,1.62038,2.58819,0.689939,0,0,0,0,0,0,0.0144639,3.5122,5,0.1,31,0,2.80519,-3.20666,0.543683,0,0,0,0,0,0,0.0166784,3.43608,5,0.1,32,0,3.97821,-1.89265,0.513035,0,0,0,0,0,0,0.0387174,3.51219,5,0.1,33,0,-0.038588,0.439243,0.604705,0,0,0,0,0,0,0.0124855,0.431542,5,0.1,34,0,-3.84927,4.34031,0.602649,0,0,0,0,0,0,0.0455646,3.5122,5,0.1,35,0,-3.47621,-4.15889,0.606564,0,0,0,0,0,0,0.0320062,3.51219,5,0.1,36,0,-0.908552,-1.0308,0.615541,0,0,0,0,0,0,0.0194232,3.51219,5,0.1,37,0,0.12906,2.20942,0.531552,0,0,0,0,0,0,0.0128357,3.5122,5,0.1,38,0,0.567832,-0.982604,0.515535,0,0,0,0,0,0,0.0113602,0.687307,5,0.1,39,0,-2.95243,1.94521,0.598605,0,0,0,0,0,0,0.0192444,3.51219,5,0.1
0,0.1,3.56131,-2.4455,0.694242,-0.0394672,-0.0269502,-0.00142278,-0.701636,-0.479132,-0.025291,0.0149264,2.28569,5,0.1,1,0.1,-2.97909,5.06019,0.515014,0.0537697,-0.0248998,-0.0012354,0.955895,-0.442684,-0.021968,0.0535262,3.5122,5,0.1,2,0.1,-1.1374,2.03306,0.54612,0.0292914,0.0197854,0.00159852,0.520743,0.351742,0.0284165,0.017605,1.25178,5,0.1,3,0.1,1.54627,-2.70448,0.631003,-0.019172,0.00903271,-0.000919681,-0.340827,0.16059,-0.0163503,0.0171962,0.449915,5,0.1,4,0.1,-1.53351,4.62666,0.535716,-0.0476997,0.0313438,-3.61353e-05,-0.847995,0.557214,-0.00064075,0.0138057,3.25713,5,0.1,5,0.1,-3.4048,-3.05659,0.500449,0.00576526,0.0589769,-0.000110175,0.10249,1.04846,-0.00195578,0.0235306,3.51234,5,0.1,6,0.1,0.38038,-0.0132212,0.660915,-0.010794,0.0277503,0.00181301,-0.191893,0.493339,0.0322349,0.0303235,3.64136,5,0.1,7,0.1,-1.71424,-4.01018,0.546872,0.0108052,0.0566654,0.00157617,0.192091,1.00741,0.0280142,0.0105484,3.32974,5,0.1,8,0.1,3.78344,-3.85863,0.596036,0.00442117,-0.0570666,0.00111144,0.0786185,-1.01452,0.0197589,0.00947603,3.27688,5,0.1,9,0.1,0.403468,-1.77435,0.656607,0.0238764,-0.0430206,-0.0035299,0.424467,-0.76481,-0.0627488,0.00969375,2.43294,5,0.1,10,0.1,-4.3629,-2.97913,0.503442,0.000382215,0.034979,0.0251132,0.00682473,0.621855,0.446457,0.0165453,1.85408,5,0.1,11,0.1,2.2224,-5.84995,0.587877,-0.0392284,-7.45058e-07,0.000359584,-0.697389,-2.98023e-05,0.00638887,0.00980886,1.53881,5,0.1,12,0.1,4.67757,-5.35025,0.606191,-0.014168,0.0207722,-0.000183564,-0.251889,0.36931,-0.00326708,0.0499751,0.632163,5,0.1,13,0.1,5.56931,1.67588,0.649628,-0.0395738,-0.0440979,-0.00143405,-0.703543,-0.783972,-0.0254959,0.0169157,3.51219,5,0.1,14,0.1,-1.46466,-1.81162,0.677367,0.0271235,0.0526706,0.00169156,0.482187,0.936367,0.0300743,0.0286968,3.5122,5,0.1,15,0.1,-1.86439,-2.85268,0.623697,0.0152592,7.93487e-05,0.021546,0.271276,0.00141561,0.383034,0.0179012,0.696973,5,0.1,16,0.1,0.484617,-5.79863,0.61155,0.00388557,0.0361077,1.85333e-05,0.0690781,0.641912,0.000331551,0.00844513,1.3187,5,0.1,17,0.1,-5.60265,-1.68385,0.621128,-0.00394061,0.0267921,-0.000891928,-0.0700653,0.476308,-0.0158511,0.00883761,0.734048,5,0.1,18,0.1,-4.59233,4.00175,0.628515,0.0592053,-0.00135601,-0.00237916,1.0525,-0.0240803,-0.0422969,0.0232806,3.5122,5,0.1,19,0.1,-0.551128,2.24327,0.678809,0.00705561,-0.058813,0.0020002,0.125434,-1.04557,0.0355579,0.0116079,3.5122,5,0.1,20,0.1,2.07758,-0.105824,0.645422,0.0588853,0.00662912,-0.00117691,1.04685,0.117851,-0.020925,0.0102183,3.51219,5,0.1,21,0.1,2.61423,-2.31662,0.584138,-0.0197046,0.0331253,0.00047069,-0.350296,0.588894,0.008367,0.0150097,1.48551,5,0.1,22,0.1,-5.12842,-3.36664,0.562384,0.040891,-0.0247225,0.00111591,0.726968,-0.439495,0.0198409,0.0109633,2.28413,5,0.1,23,0.1,-4.52138,-2.35382,0.611388,0.0101589,-0.0406682,-0.00230148,0.180632,-0.722975,-0.0409186,0.0103856,1.76216,5,0.1,24,0.1,3.45387,-0.144981,0.566354,-0.0589643,-0.00591869,0.000983011,-1.04825,-0.105223,0.0174753,0.00921557,3.5122,5,0.1,25,0.1,0.550293,-3.08222,0.644783,-0.0163244,-0.00201091,0.0209203,-0.290208,-0.035733,0.371918,0.0126641,0.708085,5,0.1,26,0.1,-4.40655,-5.83528,0.558859,0.0194773,0.0218116,0.00122041,0.346243,0.387758,0.0216961,0.00979423,0.85647,5,0.1,27,0.1,4.52942,0.644304,0.62567,-0.00977293,-0.0413623,-0.000761542,-0.173718,-0.735328,-0.013534,0.0103841,1.80663,5,0.1,28,0.1,-1.69944,2.30021,0.612395,0.0415144,-0.0237387,-0.000367779,0.738032,-0.422016,-0.00653788,0.0161172,2.28674,5,0.1,29,0.1,-2.93378,4.05821,0.695963,0.0189692,0.00305474,-0.00369884,0.337243,0.0542998,-0.0657588,0.0155128,0.382784,5,0.1,30,0.1,1.61858,2.58713,0.689941,-0.05104,-0.0301268,6.58445e-05,-0.907369,-0.535592,0.00117347,0.0144639,3.5122,5,0.1,31,0.1,2.80706,-3.20753,0.543785,0.0530753,-0.0247244,0.00289092,0.943556,-0.43954,0.0513904,0.0166784,3.43608,5,0.1,32,0.1,3.97742,-1.89071,0.512975,-0.0222608,0.0549026,-0.00169436,-0.395745,0.976056,-0.030119,0.0387174,3.51219,5,0.1,33,0.1,-0.0379214,0.438941,0.6047,0.018924,-0.00857143,-0.000139512,0.336427,-0.152379,-0.00248104,0.0124855,0.431542,5,0.1,34,0.1,-3.8472,4.34006,0.602647,0.0588536,-0.00700504,-4.20958e-05,1.04627,-0.124514,-0.000752509,0.0455646,3.5122,5,0.1,35,0.1,-3.47606,-4.15681,0.606561,0.00447482,0.0590988,-9.00589e-05,0.0795424,1.05068,-0.00159815,0.0320062,3.51219,5,0.1,36,0.1,-0.906887,-1.03206,0.615527,0.0472526,-0.0357736,-0.00040615,0.840049,-0.635967,-0.00722334,0.0194232,3.51219,5,0.1,37,0.1,0.131134,2.20918,0.531614,0.058859,-0.00672378,0.00177417,1.04638,-0.119552,0.0315383,0.0128357,3.5122,5,0.1,38,0.1,0.568178,-0.983457,0.515466,0.00984361,-0.0242228,-0.00194209,0.174996,-0.430629,-0.0345223,0.0113602,0.687307,5,0.1,39,0.1,-2.95037,1.94486,0.598606,0.0584509,-0.00981055,3.08268e-05,1.03913,-0.174418,0.000547618,0.0192444,3.51219,5,0.1
0,0.2,3.55329,-2.45097,0.693953,-0.124735,-0.085181,-0.00449568,-0.935555,-0.638723,-0.0337362,0.0124758,1.87529,5,0.1,1,0.2,-2.96817,5.05513,0.514763,0.169933,-0.078702,-0.00390559,1.2747,-0.590324,-0.0292957,0.063402,2.92577,5,0.1,2,0.2,-1.13145,2.03708,0.546445,0.092572,0.0625253,0.00505149,0.694394,0.469089,0.0378788,0.0195691,1.02702,5,0.1,3,0.2,1.54238,-2.70264,0.630816,-0.0605911,0.0285447,-0.00290722,-0.454485,0.2141,-0.0217855,0.0149427,0.369132,5,0.1,4,0.2,-1.5432,4.63303,0.535708,-0.150755,0.0990629,-0.000113249,-1.13064,0.742912,-0.000864267,0.00974616,2.67232,5,0.1,5,0.2,-3.40363,-3.04462,0.500427,0.0182211,0.186396,-0.000347197,0.136614,1.39797,-0.0026226,0.0218539,2.92616,5,0.1,6,0.2,0.378188,-0.00758439,0.661284,-0.034114,0.0877047,0.0057295,-0.255868,0.657785,0.0430048,0.0272631,3.5673,5,0.1,7,0.2,-1.71204,-3.99867,0.547193,0.0341505,0.179094,0.00498146,0.256121,1.34313,0.0373423,0.00979061,2.73189,5,0.1,8,0.2,3.78434,-3.87022,0.596262,0.0139713,-0.180358,0.00351369,0.104904,-1.35279,0.0263155,0.00961692,2.93922,5,0.1,9,0.2,0.408318,-1.78309,0.65589,0.075461,-0.135967,-0.0111565,0.565961,-1.01972,-0.0836253,0.00857008,1.99611,5,0.1,10,0.2,-4.36282,-2.97203,0.508543,0.00121593,0.110549,0.0793695,0.00882149,0.82922,0.595301,0.0144685,1.53388,5,0.1,11,0.2,2.21443,-5.84995,0.58795,-0.123984,0,0.00113696,-0.929952,-0.000238419,0.00852346,0.0102776,1.26251,5,0.1,12,0.2,4.6747,-5.34603,0.606154,-0.044775,0.0656486,-0.000581145,-0.335693,0.492573,-0.00435114,0.0609069,0.518656,5,0.1,13,0.2,5.56127,1.66692,0.649337,-0.125074,-0.139374,-0.00453293,-0.937939,-1.04523,-0.0340044,0.0197317,2.9258,5,0.1,14,0.2,-1.45915,-1.80093,0.677711,0.0857234,0.166464,0.00534654,0.642955,1.24848,0.0400841,0.0349949,2.92579,5,0.1,15,0.2,-1.86129,-2.85267,0.628073,0.0482291,0.00025034,0.0680953,0.361681,0.00190735,0.510722,0.0299919,0.571831,5,0.1,16,0.2,0.485407,-5.7913,0.611554,0.0122808,0.114119,5.81145e-05,0.0920892,0.855923,0.000447035,0.00959467,1.08193,5,0.1,17,0.2,-5.60345,-1.67841,0.620947,-0.0124574,0.0846773,-0.00281781,-0.0934601,0.635087,-0.0211596,0.00951563,0.602248,5,0.1,18,0.2,-4.58031,4.00148,0.628031,0.187123,-0.00427961,-0.00751913,1.40333,-0.0324249,-0.056386,0.0211148,3.08448,5,0.1,19,0.2,-0.549695,2.23132,0.679215,0.0222996,-0.185877,0.00632107,0.167251,-1.39403,0.0474155,0.0122558,2.9258,5,0.1,20,0.2,2.08954,-0.104477,0.645182,0.186104,0.0209512,-0.00371933,1.39582,0.157133,-0.0279248,0.00945964,2.92579,5,0.1,21,0.2,2.61023,-2.30989,0.584234,-0.0622749,0.10469,0.00148714,-0.467062,0.785232,0.0111461,0.0170549,1.21878,5,0.1,22,0.2,-5.12011,-3.37166,0.562611,0.129235,-0.0781357,0.0035271,0.969172,-0.585914,0.0264347,0.0110424,1.87403,5,0.1,23,0.2,-4.51931,-2.36209,0.61092,0.032115,-0.128537,-0.00727475,0.240564,-0.963807,-0.0545681,0.00986743,1.48553,5,0.1,24,0.2,3.44189,-0.146183,0.566554,-0.186354,-0.0187062,0.00310689,-1.39773,-0.140287,0.0233054,0.0109311,2.92579,5,0.1,25,0.2,0.546977,-3.08263,0.649033,-0.0515938,-0.00635386,0.0661179,-0.386953,-0.0476837,0.495911,0.0123242,0.580947,5,0.1,26,0.2,-4.40259,-5.83085,0.559107,0.0615478,0.0689387,0.00385791,0.461817,0.51713,0.0289083,0.0119287,0.702683,5,0.1,27,0.2,4.52744,0.635902,0.625515,-0.0308871,-0.130725,-0.00240654,-0.231504,-0.980437,-0.0180602,0.0111065,1.48225,5,0.1,28,0.2,-1.691,2.29538,0.612321,0.131208,-0.0750244,-0.00116229,0.984013,-0.562668,-0.00873208,0.0110417,1.87616,5,0.1,29,0.2,-2.92992,4.05883,0.695211,0.0599504,0.00965595,-0.01169,0.449657,0.0722408,-0.0877082,0.010379,0.314055,5,0.1,30,0.2,1.60821,2.58101,0.689955,-0.161311,-0.0952184,0.000208616,-1.2098,-0.714183,0.00154972,0.013381,2.92579,5,0.1,31,0.2,2.81784,-3.21255,0.544372,0.167739,-0.0781417,0.0091359,1.25825,-0.586033,0.0685155,0.0155917,2.81912,5,0.1,32,0.2,3.9729,-1.87956,0.512631,-0.0703514,0.173518,-0.00535548,-0.52774,1.30147,-0.0401437,0.0320859,2.92579,5,0.1,33,0.2,-0.0340774,0.4372,0.604672,0.0598093,-0.0270903,-0.000439584,0.448569,-0.203162,-0.00333786,0.0100088,0.354059,5,0.1,34,0.2,-3.83524,4.33864,0.602639,0.186002,-0.0221372,-0.00013262,1.39511,-0.165939,-0.00101328,0.0329633,2.92579,5,0.1,35,0.2,-3.47515,-4.14481,0.606542,0.0141382,0.186777,-0.000284612,0.106215,1.40095,-0.00211596,0.0334501,2.92579,5,0.1,36,0.2,-0.897289,-1.03932,0.615445,0.149342,-0.113061,-0.00128299,1.12003,-0.847995,-0.00962615,0.0196176,2.92579,5,0.1,37,0.2,0.14309,2.20782,0.531975,0.186023,-0.0212491,0.00560731,1.39518,-0.159383,0.0420511,0.0119173,2.92579,5,0.1,38,0.2,0.570178,-0.988378,0.515072,0.0311106,-0.0765562,-0.00613779,0.233322,-0.574172,-0.0460446,0.0115069,0.563901,5,0.1,39,0.2,-2.9385,1.94287,0.598612,0.184733,-0.0310093,9.68575e-05,1.38545,-0.232518,0.000745058,0.0197214,2.92601,5,0.1
0,0.3,3.53563,-2.46303,0.693316,-0.232052,-0.158454,-0.00836514,-1.14478,-0.781685,-0.0412762,0.0124758,1.87529,5,0.1,1,0.3,-2.94409,5.04398,0.514209,0.31653,-0.146593,-0.00727475,1.56647,-0.725448,-0.0360012,0.063402,2.92577,5,0.1,2,0.3,-1.11834,2.04593,0.54716,0.172224,0.116331,0.00939704,0.849664,0.573933,0.0463575,0.0195691,1.02702,5,0.1,3,0.3,1.5338,-2.6986,0.630405,-0.112724,0.0531044,-0.0054067,-0.556119,0.262007,-0.0266656,0.0149427,0.369132,5,0.1,4,0.3,-1.56455,4.64706,0.535692,-0.280453,0.184286,-0.000211876,-1.38355,0.90909,-0.00105426,0.00974616,2.67232,5,0.1,5,0.3,-3.40104,-3.0182,0.50038,0.0339344,0.347174,-0.000558235,0.167936,1.71806,-0.00161678,0.0218539,2.92616,5,0.1,6,0.3,0.373355,0.00401519,0.66188,-0.0634909,0.139872,0.00456348,-0.313561,0.392878,-0.0558048,0.0272631,3.5673,5,0.1,7,0.3,-1.70721,-3.97331,0.547898,0.0635305,0.333168,0.00926582,0.313424,1.64361,0.0457056,0.00979061,2.73189,5,0.1,8,0.3,3.78632,-3.89422,0.59676,0.0260014,-0.291716,0.00653341,0.128314,-0.877947,0.0322238,0.00961692,2.93922,5,0.1,9,0.3,0.419006,-1.80235,0.65431,0.140383,-0.252941,-0.0207507,0.692552,-1.24782,-0.10236,0.00857008,1.99611,5,0.1,10,0.3,-4.36253,-2.95668,0.519785,0.00559166,0.196708,0.147684,0.0706017,0.855386,0.728931,0.0144685,1.53388,5,0.1,11,0.3,2.19687,-5.84995,0.588111,-0.230657,-2.01166e-05,0.00211485,-1.1379,-0.000149012,0.0104308,0.0102776,1.26251,5,0.1,12,0.3,4.66835,-5.33673,0.606072,-0.0832886,0.122146,-0.00108043,-0.410855,0.602633,-0.00533089,0.0609069,0.518656,5,0.1,13,0.3,5.54355,1.64717,0.648694,-0.232948,-0.259586,-0.00844356,-1.15278,-1.28459,-0.0417829,0.0197317,2.9258,5,0.1,14,0.3,-1.447,-1.77734,0.678469,0.159668,0.310051,0.00995677,0.790149,1.53435,0.0492707,0.0349949,2.92579,5,0.1,15,0.3,-1.85446,-2.85263,0.637718,0.0897191,0.000469387,0.126681,0.442594,0.00232458,0.624955,0.0299919,0.571831,5,0.1,16,0.3,0.487146,-5.77514,0.611562,0.022845,0.212302,0.000108872,0.112697,1.04734,0.000540167,0.00959467,1.08193,5,0.1,17,0.3,-5.60522,-1.66641,0.620547,-0.0231765,0.157529,-0.00524437,-0.114352,0.777133,-0.0258796,0.00951563,0.602248,5,0.1,18,0.3,-4.55502,4.00087,0.627037,0.313753,-0.00799932,-0.012,1.10787,-0.0397116,-0.0336729,0.0211148,3.08448,5,0.1,19,0.3,-0.546535,2.20498,0.680111,0.0415348,-0.346205,0.0117742,0.205543,-1.71328,0.0582747,0.0122558,2.9258,5,0.1,20,0.3,2.11591,-0.101508,0.644655,0.346634,0.039023,-0.00693016,1.71542,0.193113,-0.0343025,0.00945964,2.92579,5,0.1,21,0.3,2.60141,-2.29507,0.584444,-0.115852,0.194763,0.00276612,-0.571534,0.960842,0.0136457,0.0170549,1.21878,5,0.1,22,0.3,-5.10181,-3.38273,0.56311,0.240412,-0.145349,0.00655986,1.18601,-0.717014,0.0323579,0.0110424,1.87403,5,0.1,23,0.3,-4.51498,-2.37973,0.609888,0.053785,-0.223259,-0.0135827,0.189036,-0.89784,-0.0676401,0.00986743,1.48553,5,0.1,24,0.3,3.41548,-0.148834,0.566994,-0.347103,-0.0348407,0.00578715,-1.71773,-0.172415,0.0286363,0.0109311,2.92579,5,0.1,25,0.3,0.53967,-3.08353,0.658397,-0.0959814,-0.0118226,0.123004,-0.473503,-0.0583529,0.606824,0.0123242,0.580947,5,0.1,26,0.3,-4.39388,-5.82109,0.559654,0.114519,0.128256,0.00717482,0.565022,0.632703,0.0353865,0.0119287,0.702683,5,0.1,27,0.3,4.52306,0.617388,0.625174,-0.057447,-0.243192,-0.00447771,-0.28336,-1.19974,-0.0220947,0.0111065,1.48225,5,0.1,28,0.3,-1.67242,2.28476,0.612156,0.244086,-0.139569,-0.00216356,1.20413,-0.688523,-0.010673,0.0110417,1.87616,5,0.1,29,0.3,-2.92143,4.06019,0.693555,0.11153,0.0179484,-0.0217502,0.55021,0.0885129,-0.107307,0.010379,0.314055,5,0.1,30,0.3,1.58535,2.56752,0.689984,-0.300449,-0.177354,0.000387337,-1.48683,-0.877663,0.00191107,0.013381,2.92579,5,0.1,31,0.3,2.8416,-3.22362,0.545666,0.312069,-0.145366,0.0169955,1.5396,-0.717118,0.0838488,0.0155917,2.81912,5,0.1,32,0.3,3.96293,-1.85497,0.511872,-0.131043,0.323196,-0.00997279,-0.648543,1.59942,-0.0493452,0.0320859,2.92579,5,0.1,33,0.3,-0.0256066,0.433363,0.60461,0.111265,-0.0503957,-0.000821427,0.548904,-0.248615,-0.00406057,0.0100088,0.354059,5,0.1,34,0.3,-3.80888,4.3355,0.60262,0.346449,-0.0412248,-0.000248663,1.71451,-0.203997,-0.0012368,0.0329633,2.92579,5,0.1,35,0.3,-3.47314,-4.11834,0.606502,0.0263486,0.347896,-0.000528712,0.13043,1.72168,-0.00261143,0.0334501,2.92579,5,0.1,36,0.3,-0.876126,-1.05534,0.615263,0.278157,-0.210588,-0.00238996,1.37651,-1.04215,-0.0118315,0.0196176,2.92579,5,0.1,37,0.3,0.169451,2.20481,0.532769,0.346481,-0.0395801,0.0104436,1.71464,-0.195876,0.051681,0.0119173,2.92579,5,0.1,38,0.3,0.574584,-0.99922,0.514202,0.0578755,-0.14242,-0.0114193,0.285517,-0.702612,-0.0563338,0.0115069,0.563901,5,0.1,39,0.3,-2.91231,1.93852,0.598626,0.344291,-0.056354,0.000177696,1.70657,-0.260934,0.000827014,0.0197214,2.92601,5,0.1
0,0.4,3.5068,-2.48272,0.692277,-0.342226,-0.23368,-0.0123367,-1.00994,-0.689626,-0.0364184,0.0117307,1.48376,5,0.1,1,0.4,-2.90473,5.02576,0.513305,0.467449,-0.216484,-0.0107422,1.38509,-0.641346,-0.0318587,0.0474919,2.51005,5,0.1,2,0.4,-1.09694,2.06039,0.548328,0.253993,0.171566,0.0138581,0.749588,0.506282,0.0409186,0.0175909,0.812583,5,0.1,3,0.4,1.51979,-2.692,0.629733,-0.166243,0.0783145,-0.00797361,-0.490606,0.231266,-0.0235438,0.0158518,0.29206,5,0.1,4,0.4,-1.59939,4.66995,0.535666,-0.413606,0.271773,-0.000312924,-1.22058,0.80204,-0.000923872,0.0106301,2.11437,5,0.1,5,0.4,-3.39683,-2.97504,0.500318,0.0501156,0.512707,-0.000673532,0.148416,1.51896,-0.000715256,0.0232439,2.5777,5,0.1,6,0.4,0.365466,0.0195794,0.661966,-0.0936791,0.167715,-0.00354946,-0.276864,0.171026,-0.098139,0.0279283,3.5924,5,0.1,7,0.4,-1.69931,-3.93192,0.549049,0.0936925,0.491345,0.0136629,0.276446,1.45006,0.0403821,0.009832,2.16151,5,0.1,8,0.4,3.78955,-3.92702,0.597571,0.0383496,-0.356913,0.00963509,0.11313,-0.432253,0.0284314,0.0111121,2.80552,5,0.1,9,0.4,0.436445,-1.83377,0.651732,0.207033,-0.373033,-0.0306025,0.610992,-1.10084,-0.090301,0.0102883,1.57935,5,0.1,10,0.4,-4.36157,-2.93295,0.538134,0.0138998,0.274998,0.217848,0.0891685,0.682831,0.643313,0.0148464,1.29892,5,0.1,11,0.4,2.16821,-5.84996,0.588374,-0.34017,-3.57628e-05,0.00311732,-1.00374,0,0.00923872,0.00951798,1.08604,5,0.1,12,0.4,4.65801,-5.32155,0.605938,-0.122821,0.180137,-0.00159144,-0.362635,0.531673,-0.00473857,0.0500373,0.410365,5,0.1,13,0.4,5.51459,1.6149,0.647645,-0.344014,-0.383353,-0.0124693,-1.01924,-1.13589,-0.0369549,0.0172531,2.42257,5,0.1,14,0.4,-1.42715,-1.73879,0.679706,0.235799,0.457883,0.0147045,0.698626,1.35666,0.0435412,0.0276573,2.51007,5,0.1,15,0.4,-1.84331,-2.85257,0.653455,0.132313,0.000691414,0.186826,0.39047,0.00202656,0.551343,0.0163263,0.452439,5,0.1,16,0.4,0.489984,-5.74876,0.611575,0.0336908,0.313103,0.000162423,0.0994205,0.923872,0.000447035,0.0105928,0.856033,5,0.1,17,0.4,-5.6081,-1.64684,0.619896,-0.0341773,0.232318,-0.0077337,-0.100851,0.685632,-0.0228584,0.0135317,0.476505,5,0.1,18,0.4,-4.51873,3.99987,0.625703,0.405264,-0.0118196,-0.0143468,0.709057,-0.0350475,-0.0137687,0.0243634,3.12891,5,0.1,19,0.4,-0.541371,2.16194,0.681575,0.0613376,-0.511277,0.0173882,0.181764,-1.51479,0.0515282,0.013394,2.5141,5,0.1,20,0.4,2.15901,-0.0966566,0.643794,0.511909,0.0576289,-0.0102341,1.5167,0.170749,-0.0303388,0.00996006,2.52938,5,0.1,21,0.4,2.58702,-2.27087,0.584788,-0.170857,0.287229,0.00407845,-0.504255,0.847816,0.0120699,0.0153143,0.765591,5,0.1,22,0.4,-5.07194,-3.40078,0.563925,0.354552,-0.214356,0.00967383,1.04642,-0.632644,0.0285506,0.00940183,1.48276,5,0.1,23,0.4,-4.50876,-2.40622,0.608197,0.0693083,-0.302541,-0.0201136,0.119448,-0.665188,-0.0600517,0.0104688,1.38278,5,0.1,24,0.4,3.37233,-0.153166,0.567713,-0.5126,-0.0514526,0.00854582,-1.51885,-0.152454,0.025332,0.0102423,2.53014,5,0.1,25,0.4,0.527746,-3.085,0.673678,-0.141552,-0.0174344,0.181402,-0.417709,-0.0514984,0.535369,0.0117695,0.459651,5,0.1,26,0.4,-4.37965,-5.80515,0.560545,0.168896,0.189149,0.0105813,0.498295,0.558138,0.031203,0.0101943,0.555966,5,0.1,27,0.4,4.51592,0.587176,0.624618,-0.084722,-0.358653,-0.00660419,-0.250101,-1.05846,-0.0194907,0.0142952,1.17373,5,0.1,28,0.4,-1.6421,2.26742,0.611887,0.35997,-0.205833,-0.00319034,1.06239,-0.607491,-0.00941753,0.0140215,1.48444,5,0.1,29,0.4,-2.90758,4.06242,0.690853,0.164485,0.0264764,-0.0320762,0.48542,0.0779629,-0.094682,0.0145215,0.248484,5,0.1,30,0.4,1.548,2.54547,0.690032,-0.443703,-0.261921,0.000572205,-1.31464,-0.775933,0.00166893,0.0115191,2.51008,5,0.1,31,0.4,2.88037,-3.24168,0.547777,0.460231,-0.214386,0.0250638,1.35827,-0.632524,0.0739992,0.0127825,2.23051,5,0.1,32,0.4,3.94664,-1.81479,0.510633,-0.19353,0.477296,-0.0147268,-0.573277,1.41418,-0.0436604,0.0316822,2.51036,5,0.1,33,0.4,-0.0117843,0.427102,0.604508,0.164091,-0.0743218,-0.00121295,0.484262,-0.219345,-0.00354648,0.0109553,0.280135,5,0.1,34,0.4,-3.76581,4.33038,0.602589,0.511634,-0.0608802,-0.000366569,1.51598,-0.180483,-0.00113249,0.0319199,2.51421,5,0.1,35,0.4,-3.46987,-4.07509,0.606436,0.0389099,0.51378,-0.000780821,0.115395,1.52206,-0.00229478,0.0347073,2.51504,5,0.1,36,0.4,-0.841544,-1.08153,0.614966,0.410782,-0.310996,-0.00353009,1.21707,-0.921428,-0.0104606,0.020342,2.51008,5,0.1,37,0.4,0.212527,2.19989,0.534068,0.511683,-0.0584543,0.0154227,1.51604,-0.173092,0.045687,0.0123474,2.5152,5,0.1,38,0.4,0.581774,-1.01691,0.512784,0.0853539,-0.210035,-0.0168413,0.251859,-0.619948,-0.0497103,0.0110985,0.631211,5,0.1,39,0.4,-2.86949,1.93163,0.598648,0.508815,-0.0808656,0.00025481,1.51062,-0.219584,0.000715256,0.0218108,2.51364,5,0.1
0,0.5,3.46743,-2.5096,0.690858,-0.444694,-0.303651,-0.0160312,-0.989154,-0.67547,-0.0356585,0.0117307,1.48376,5,0.1,1,0.5,-2.85087,5.00081,0.512067,0.609976,-0.282482,-0.0140198,1.39214,-0.644654,-0.0320077,0.0474919,2.51005,5,0.1,2,0.5,-1.06772,2.08012,0.549922,0.330045,0.222933,0.0180093,0.73415,0.495881,0.0400729,0.0175909,0.812583,5,0.1,3,0.5,1.50067,-2.68299,0.628816,-0.21602,0.101776,-0.0103624,-0.48051,0.226438,-0.0230558,0.0158518,0.29206,5,0.1,4,0.5,-1.64696,4.70121,0.53563,-0.537446,0.353148,-0.000406615,-1.19548,0.785559,-0.00090152,0.0106301,2.11437,5,0.1,5,0.5,-3.39105,-2.91676,0.500249,0.0653904,0.646352,-0.000693463,0.149205,1.12471,0.00025332,0.0232439,2.5777,5,0.1,6,0.5,0.354697,0.036588,0.661155,-0.121509,0.167375,-0.0123184,-0.266535,-0.135199,-0.0762492,0.0279283,3.5924,5,0.1,7,0.5,-1.68854,-3.8754,0.550621,0.121742,0.638469,0.0177589,0.270784,1.42024,0.0395365,0.009832,2.16151,5,0.1,8,0.5,3.79396,-3.96379,0.59868,0.0498269,-0.369195,0.0125202,0.11079,0.131309,0.027854,0.0111121,2.80552,5,0.1,9,0.5,0.460259,-1.87668,0.648212,0.269024,-0.484725,-0.0397652,0.598419,-1.0782,-0.0884607,0.0102883,1.57935,5,0.1,10,0.5,-4.35935,-2.90237,0.563281,0.0335366,0.333129,0.285576,0.276268,0.468716,0.673778,0.0148464,1.29892,5,0.1,11,0.5,2.13,-5.84996,0.588733,-0.41618,-3.57628e-05,0.00405395,-0.524849,0,0.00903383,0.00951798,1.08604,5,0.1,12,0.5,4.64388,-5.30083,0.605754,-0.159613,0.234078,-0.00207145,-0.355154,0.520706,-0.00462681,0.0500373,0.410365,5,0.1,13,0.5,5.47497,1.57075,0.646209,-0.448283,-0.499552,-0.0162493,-1.01355,-1.1295,-0.0367425,0.0172531,2.42257,5,0.1,14,0.5,-1.39998,-1.68603,0.681401,0.30769,0.597487,0.0191859,0.702217,1.36362,0.0437759,0.0276573,2.51007,5,0.1,15,0.5,-1.82809,-2.85249,0.674945,0.171931,0.00089705,0.242766,0.382438,0.00196695,0.540003,0.0163263,0.452439,5,0.1,16,0.5,0.493859,-5.71275,0.611594,0.0437784,0.406841,0.000208337,0.097381,0.904888,0.00044331,0.0105928,0.856033,5,0.1,17,0.5,-5.61203,-1.62012,0.619006,-0.0444092,0.301882,-0.0100519,-0.0987947,0.671513,-0.0223704,0.0135317,0.476505,5,0.1,18,0.5,-4.4759,3.99851,0.624218,0.440305,-0.0154208,-0.0151626,0.0473559,-0.035122,-0.00273809,0.0243634,3.12891,5,0.1,19,0.5,-0.534302,2.10323,0.683579,0.0800413,-0.661332,0.0226906,0.182685,-1.41704,0.051789,0.013394,2.5141,5,0.1,20,0.5,2.2176,-0.0899092,0.642627,0.65659,0.0782223,-0.0129962,1.32196,0.225364,-0.0240952,0.00996006,2.52938,5,0.1,21,0.5,2.56736,-2.23824,0.585257,-0.222018,0.361615,0.0053023,-0.493869,0.623554,0.0118129,0.0153143,0.765591,5,0.1,22,0.5,-5.03116,-3.42544,0.565038,0.460722,-0.278544,0.0125707,1.02493,-0.61962,0.0279658,0.00940183,1.48276,5,0.1,23,0.5,-4.50181,-2.43927,0.605742,0.0648774,-0.353229,-0.0301369,-0.178427,-0.349537,-0.128705,0.0104688,1.38278,5,0.1,24,0.5,3.31367,-0.159203,0.568685,-0.657274,-0.0702229,0.0107859,-1.32009,-0.208035,0.0189431,0.0102423,2.53014,5,0.1,25,0.5,0.511464,-3.087,0.694544,-0.183933,-0.0226587,0.23572,-0.409128,-0.0504255,0.524346,0.0117695,0.459651,5,0.1,26,0.5,-4.36022,-5.7834,0.561762,0.219454,0.245778,0.0137478,0.488043,0.546694,0.0305772,0.0101943,0.555966,5,0.1,27,0.5,4.50618,0.546014,0.623858,-0.110097,-0.46342,-0.00858167,-0.244975,-0.990018,-0.0190921,0.0142952,1.17373,5,0.1,28,0.5,-1.6007,2.24374,0.61152,0.467696,-0.267475,-0.00414401,1.03938,-0.595123,-0.00918657,0.0140215,1.48444,5,0.1,29,0.5,-2.88866,4.06547,0.687164,0.213736,0.0343911,-0.0416821,0.475422,0.076443,-0.0927225,0.0145215,0.248484,5,0.1,30,0.5,1.49687,2.51529,0.690098,-0.578984,-0.341769,0.000744592,-1.32141,-0.779957,0.00168756,0.0115191,2.51008,5,0.1,31,0.5,2.9333,-3.26634,0.55066,0.598039,-0.278566,0.0325712,1.33027,-0.619575,0.0724681,0.0127825,2.23051,5,0.1,32,0.5,3.92434,-1.75979,0.508987,-0.252524,0.622819,-0.0177612,-0.576243,1.42143,-0.0179596,0.0316822,2.51036,5,0.1,33,0.5,0.00709035,0.418554,0.604368,0.213224,-0.0965765,-0.00157319,0.474297,-0.214832,-0.00347942,0.0109553,0.280135,5,0.1,34,0.5,-3.70706,4.32336,0.602546,0.661712,-0.079453,-0.000482053,1.41641,-0.181377,-0.00111759,0.0319199,2.51421,5,0.1,35,0.5,-3.46538,-4.01611,0.606346,0.0507798,0.663928,-0.00101766,0.115916,1.41245,-0.00232086,0.0347073,2.51504,5,0.1,36,0.5,-0.794208,-1.11736,0.614559,0.536023,-0.405814,-0.00460632,1.22334,-0.926167,-0.0105128,0.020342,2.51008,5,0.1,37,0.5,0.271283,2.19306,0.535813,0.66175,-0.0787769,0.01922,1.41627,-0.218615,0.0298508,0.0123474,2.5152,5,0.1,38,0.5,0.591591,-1.04123,0.510897,0.110908,-0.277377,-0.0204499,0.246692,-0.686176,-0.023175,0.0110985,0.631211,5,0.1,39,0.5,-2.81103,1.92243,0.598677,0.658959,-0.103034,0.000326335,1.42223,-0.212833,0.000678003,0.0218108,2.51364,5,0.1
0,0.6,3.41839,-2.54308,0.68909,-0.531501,-0.362927,-0.0191599,-0.71156,-0.485897,-0.0256598,0.0122722,1.10462,5,0.1,1,0.6,-2.78339,4.96956,0.510516,0.733364,-0.339615,-0.0168562,1.02377,-0.474215,-0.0235438,0.0759499,2.24845,5,0.1,2,0.6,-1.03133,2.10471,0.551908,0.394469,0.266445,0.0215262,0.528097,0.356793,0.0288188,0.0190401,0.604944,5,0.1,3,0.6,1.47685,-2.67177,0.627673,-0.258183,0.121653,-0.0123858,-0.345767,0.162721,-0.0165701,0.0150801,0.217429,5,0.1,4,0.6,-1.70624,4.74016,0.535585,-0.642359,0.422084,-0.000485778,-0.859916,0.565052,-0.000655651,0.0111656,1.57412,5,0.1,5,0.6,-3.38382,-2.84734,0.500182,0.0786185,0.733006,-0.00063628,0.109673,0.59104,0.00089407,0.0219976,2.71497,5,0.1,6,0.6,0.34132,0.0524243,0.659584,-0.144743,0.14786,-0.0186458,-0.188932,-0.225875,-0.0497997,0.0244889,3.62439,5,0.1,7,0.6,-1.67511,-3.80499,0.55258,0.145504,0.7631,0.0212282,0.194788,1.02162,0.0284016,0.0105698,1.6449,5,0.1,8,0.6,3.79946,-3.9995,0.60006,0.059551,-0.340259,0.0149637,0.0796318,0.406504,0.0200868,0.00938086,2.64737,5,0.1,9,0.6,0.489928,-1.93014,0.643826,0.321538,-0.579345,-0.0475273,0.430509,-0.775576,-0.0636578,0.00899462,1.17579,5,0.1,10,0.6,-4.3545,-2.86714,0.595005,0.0643253,0.367051,0.346181,0.318766,0.203967,0.511557,0.0178662,1.00233,5,0.1,11,0.6,2.08649,-5.84996,0.58918,-0.446981,-3.57628e-05,0.00484586,-0.101209,0,0.00649691,0.00902069,0.99607,5,0.1,12,0.6,4.62628,-5.27502,0.605526,-0.190783,0.27976,-0.00247657,-0.255346,0.374794,-0.00333786,0.0543526,0.484707,5,0.1,13,0.6,5.42544,1.51555,0.644413,-0.537753,-0.599259,-0.0194937,-0.738859,-0.823379,-0.0267625,0.0156624,1.81135,5,0.1,14,0.6,-1.36594,-1.61993,0.683523,0.36993,0.718352,0.0230655,0.516355,1.00273,0.0322163,0.0273165,2.23585,5,0.1,15,0.6,-1.80913,-2.8524,0.701718,0.205493,0.00107288,0.290154,0.275075,0.00143051,0.388443,0.0167769,0.33683,5,0.1,16,0.6,0.498687,-5.66788,0.611617,0.0523232,0.486255,0.000247359,0.0700802,0.650883,0.000327826,0.0111538,0.637302,5,0.1,17,0.6,-5.61692,-1.58683,0.617898,-0.0530839,0.360811,-0.0120148,-0.0710487,0.483036,-0.0160933,0.00830853,0.354745,5,0.1,18,0.6,-4.43236,3.99681,0.622705,0.424469,-0.0185311,-0.0149399,-0.322342,-0.0257492,0.00694394,0.020729,3.21719,5,0.1,19,0.6,-0.525448,2.03063,0.686089,0.0962332,-0.783202,0.027281,0.134349,-0.974834,0.0380576,0.0106716,2.08179,5,0.1,20,0.6,2.28918,-0.0809766,0.641222,0.767094,0.0999646,-0.014922,0.851154,0.197865,-0.0138879,0.010646,2.3548,5,0.1,21,0.6,2.54288,-2.19944,0.585842,-0.265354,0.409353,0.00633895,-0.355363,0.321507,0.00849366,0.0149257,0.65764,5,0.1,22,0.6,-4.98035,-3.45616,0.566424,0.550652,-0.332916,0.0150248,0.737667,-0.445843,0.0201464,0.00984595,1.10388,5,0.1,23,0.6,-4.4965,-2.47583,0.602051,0.0389338,-0.372905,-0.0437945,-0.316381,-0.0474453,-0.135511,0.00998586,1.15987,5,0.1,24,0.6,3.24203,-0.167257,0.569845,-0.767481,-0.0904642,0.0122502,-0.84722,-0.18575,0.0100434,0.0105689,2.35922,5,0.1,25,0.6,0.49118,-3.0895,0.72054,-0.219837,-0.0270844,0.281733,-0.294313,-0.0362396,0.377208,0.013493,0.342199,5,0.1,26,0.6,-4.33602,-5.75629,0.563278,0.262296,0.293756,0.01643,0.350714,0.392914,0.0220239,0.010901,0.413902,5,0.1,27,0.6,4.49404,0.495151,0.622912,-0.131595,-0.548723,-0.0102565,-0.176191,-0.683546,-0.0137091,0.0101402,1.05818,5,0.1,28,0.6,-1.54912,2.21424,0.611063,0.558871,-0.319707,-0.00494868,0.746965,-0.428081,-0.00658631,0.0102485,1.10526,5,0.1,29,0.6,-2.86509,4.06926,0.682567,0.255454,0.0411034,-0.0498191,0.342011,0.0550747,-0.0666678,0.00935447,0.184991,5,0.1,30,0.6,1.43282,2.47748,0.69018,-0.696102,-0.410897,0.00089407,-0.971854,-0.573516,0.0012815,0.0105851,2.23409,5,0.1,31,0.6,2.99926,-3.29706,0.554252,0.714773,-0.33294,0.0389308,0.957012,-0.445604,0.0521243,0.0148759,1.66407,5,0.1,32,0.6,3.89641,-1.69089,0.507157,-0.303602,0.748801,-0.0184998,-0.423789,1.04541,0.00229478,0.0306334,2.23032,5,0.1,33,0.6,0.0306054,0.407903,0.604195,0.254846,-0.115429,-0.00187904,0.341198,-0.154555,-0.00247359,0.0125528,0.217536,5,0.1,34,0.6,-3.63443,4.31457,0.602493,0.783461,-0.0955343,-0.000579655,0.973225,-0.133276,-0.000834465,0.0327296,2.32804,5,0.1,35,0.6,-3.45977,-3.94329,0.606234,0.061053,0.784969,-0.00122339,0.0851154,0.963807,-0.00169873,0.0345023,2.33214,5,0.1,36,0.6,-0.734913,-1.16225,0.614049,0.644451,-0.487903,-0.00553876,0.899643,-0.681102,-0.0077188,0.0207976,2.21915,5,0.1,37,0.6,0.343917,2.18412,0.537855,0.783494,-0.0996232,0.021337,0.973254,-0.187397,0.0123084,0.0124957,2.39891,5,0.1,38,0.6,0.603823,-1.07223,0.508775,0.132558,-0.340262,-0.0216216,0.177443,-0.542164,-0.00101328,0.0110583,0.48253,5,0.1,39,0.6,-2.73863,1.91115,0.598713,0.781626,-0.12157,0.00038594,0.985026,-0.150144,0.000447035,0.0200175,2.32317,5,0.1
0,0.7,3.36175,-2.58176,0.687048,-0.599813,-0.409576,-0.0216231,-0.615641,-0.420421,-0.0221953,0.0122722,1.10462,5,0.1,1,0.7,-2.70555,4.93316,0.508743,0.816729,-0.388408,-0.018322,0.625893,-0.468969,-0.00627711,0.0759499,2.24845,5,0.1,2,0.7,-0.989284,2.1331,0.554202,0.445169,0.300696,0.0242929,0.456903,0.308663,0.0249334,0.0190401,0.604944,5,0.1,3,0.7,1.44933,-2.6588,0.626353,-0.291377,0.137277,-0.0139767,-0.299126,0.140831,-0.0143424,0.0150801,0.217429,5,0.1,4,0.7,-1.77468,4.78515,0.535533,-0.724545,0.476556,-0.000538677,-0.737429,0.492811,-0.00038743,0.0111656,1.57412,5,0.1,5,0.7,-3.3754,-2.77269,0.500124,0.0896167,0.745746,-0.000529271,0.103369,-0.267655,0.00120327,0.0219976,2.71497,5,0.1,6,0.7,0.326359,0.0660304,0.657457,-0.150334,0.124527,-0.023963,0.0597611,-0.211796,-0.0534095,0.0244889,3.62439,5,0.1,7,0.7,-1.6596,-3.72443,0.554842,0.164205,0.839384,0.0239548,0.16854,0.501588,0.0245683,0.0105698,1.6449,5,0.1,8,0.7,3.8058,-4.03099,0.601655,0.0671964,-0.286821,0.0168917,0.0689179,0.583053,0.017371,0.00938086,2.64737,5,0.1,9,0.7,0.524197,-1.99188,0.638761,0.362868,-0.653804,-0.0536387,0.372468,-0.671044,-0.0550784,0.00899462,1.17579,5,0.1,10,0.7,-4.34658,-2.82911,0.632134,0.0927001,0.395577,0.39524,0.241995,0.327274,0.442855,0.0178662,1.00233,5,0.1,11,0.7,2.0422,-5.84997,0.589696,-0.430737,-3.57628e-05,0.0054691,0.379443,0,0.00561774,0.00902069,0.99607,5,0.1,12,0.7,4.60594,-5.24564,0.605262,-0.215299,0.303234,-0.00279658,-0.220954,0.101924,-0.00287592,0.0543526,0.484707,5,0.1,13,0.7,5.36802,1.45157,0.642332,-0.609066,-0.678728,-0.0220769,-0.646561,-0.720531,-0.0234209,0.0156624,1.81135,5,0.1,14,0.7,-1.32633,-1.54352,0.685993,0.421764,0.804568,0.0262994,0.487618,0.691965,0.0304207,0.0273165,2.23585,5,0.1,15,0.7,-1.78723,-2.85228,0.732642,0.231902,0.00120997,0.327446,0.238009,0.0012517,0.336081,0.0167769,0.33683,5,0.1,16,0.7,0.504264,-5.61606,0.611643,0.0590508,0.548744,0.000279024,0.0606272,0.563145,0.000290573,0.0111538,0.637302,5,0.1,17,0.7,-5.62258,-1.54838,0.616617,-0.0599056,0.407184,-0.0135593,-0.0614524,0.417925,-0.0139102,0.00830853,0.354745,5,0.1,18,0.7,-4.39224,3.99482,0.621251,0.373292,-0.0210989,-0.0140691,-0.608385,-0.0240356,0.010483,0.020729,3.21719,5,0.1,19,0.7,-0.515157,1.9485,0.689006,0.109344,-0.8492,0.0309956,0.120196,-0.364929,0.0340603,0.0106716,2.08179,5,0.1,20,0.7,2.36958,-0.0695326,0.639688,0.834888,0.132502,-0.0155148,0.486776,0.413956,0.00133738,0.010646,2.3548,5,0.1,21,0.7,2.5146,-2.15777,0.586518,-0.299469,0.416151,0.00715405,-0.307426,-0.156865,0.00734627,0.0149257,0.65764,5,0.1,22,0.7,-4.92166,-3.49164,0.568026,0.621464,-0.375716,0.0169586,0.638157,-0.385717,0.0174269,0.00984595,1.10388,5,0.1,23,0.7,-4.49441,-2.51366,0.596923,0.00135452,-0.385997,-0.059172,-0.408292,-0.181556,-0.160601,0.00998586,1.15987,5,0.1,24,0.7,3.16161,-0.17771,0.571091,-0.835035,-0.122371,0.0124183,-0.485584,-0.412948,-0.00566617,0.0105689,2.35922,5,0.1,25,0.7,0.46775,-3.09239,0.750567,-0.248092,-0.0305638,0.317946,-0.254642,-0.031352,0.326354,0.013493,0.342199,5,0.1,26,0.7,-4.30807,-5.72499,0.565029,0.295975,0.331482,0.0185444,0.303537,0.340015,0.0190549,0.010901,0.413902,5,0.1,27,0.7,4.48001,0.43813,0.621819,-0.148511,-0.579936,-0.0115729,-0.152469,0.0219476,-0.011865,0.0101402,1.05818,5,0.1,28,0.7,-1.48956,2.18017,0.610536,0.630618,-0.360802,-0.00558179,0.646867,-0.370339,-0.0057146,0.0102485,1.10526,5,0.1,29,0.7,-2.83786,4.07364,0.677257,0.288287,0.0463918,-0.0562197,0.295892,0.0476837,-0.0576824,0.00935447,0.184991,5,0.1,30,0.7,1.35962,2.4341,0.690439,-0.755768,-0.450951,0.0056427,-0.244148,-0.230178,0.0833422,0.0105851,2.23409,5,0.1,31,0.7,3.0752,-3.33254,0.558401,0.800014,-0.375722,0.0439347,0.710875,-0.385582,0.0450946,0.0148759,1.66407,5,0.1,32,0.7,3.8639,-1.61158,0.505351,-0.346002,0.829237,-0.0173314,-0.397682,0.557333,0.0196956,0.0306334,2.23032,5,0.1,33,0.7,0.0576576,0.395862,0.603981,0.284508,-0.122853,-0.0024952,0.240192,-0.00192225,-0.00887364,0.0125528,0.217536,5,0.1,34,0.7,-3.55227,4.30434,0.602431,0.849661,-0.108913,-0.000662543,0.375926,-0.125825,-0.00077486,0.0327296,2.32804,5,0.1,35,0.7,-3.45323,-3.86103,0.606103,0.0695955,0.850182,-0.00139438,0.080362,0.366971,-0.00160933,0.0345023,2.33214,5,0.1,36,0.7,-0.665909,-1.2145,0.613456,0.73476,-0.556273,-0.00631372,0.84956,-0.643179,-0.00729039,0.0207976,2.21915,5,0.1,37,0.7,0.426066,2.17273,0.539915,0.849306,-0.131907,0.0186849,0.362853,-0.417918,-0.0580177,0.0124957,2.39891,5,0.1,38,0.7,0.61795,-1.10899,0.506647,0.149594,-0.394281,-0.0205831,0.153538,-0.506833,0.0201948,0.0110583,0.48253,5,0.1,39,0.7,-2.6566,1.89813,0.598754,0.849029,-0.139458,0.000430457,0.386745,-0.191256,0.000417233,0.0200175,2.32317,5,0.1
0,0.8,3.29911,-2.62454,0.68479,-0.648081,-0.442541,-0.0233635,-0.323296,-0.220776,-0.0116527,0.0114273,0.779929,5,0.1,1,0.8,-2.6215,4.8922,0.506904,0.856978,-0.427854,-0.0182122,0.18096,-0.297308,0.00789762,0.0509707,2.14313,5,0.1,2,0.8,-0.942794,2.16451,0.556739,0.48099,0.324899,0.0262469,0.239938,0.162005,0.013113,0.016457,2.62323,5,0.1,3,0.8,1.4189,-2.64447,0.624893,-0.314829,0.148314,-0.0151008,-0.157058,0.074029,-0.00753999,0.0137258,0.153514,5,0.1,4,0.8,-1.85031,4.83494,0.535478,-0.782079,0.515366,-0.000561774,-0.381887,0.262022,-5.96046e-05,0.0110861,1.11189,5,0.1,5,0.8,-3.36598,-2.70041,0.500077,0.0981212,0.691646,-0.000403821,0.0618696,-0.761509,0.0013113,0.0233083,2.93273,5,0.1,6,0.8,0.311916,0.07762,0.654809,-0.135984,0.109557,-0.0287876,0.212654,-0.0760481,-0.0408292,0.0125912,0.527028,5,0.1,7,0.8,-1.64245,-3.63882,0.557344,0.177419,0.864828,0.0258818,0.0885129,0.0239611,0.0129044,0.0138462,1.2111,5,0.1,8,0.8,3.81282,-4.05696,0.60342,0.0725985,-0.235569,0.0182539,0.0362396,0.401497,0.00911951,0.0134107,2.4406,5,0.1,9,0.8,0.562092,-2.06016,0.633159,0.39207,-0.706422,-0.0579581,0.195593,-0.352263,-0.0289083,0.011227,0.830176,5,0.1,10,0.8,-4.33627,-2.78798,0.673579,0.111675,0.425708,0.43027,0.133753,0.246644,0.23964,0.00802743,0.782122,5,0.1,11,0.8,2.0015,-5.84997,0.590267,-0.379291,-3.57628e-05,0.0059098,0.614047,0.000238419,0.00292063,0.0105092,0.923193,5,0.1,12,0.8,4.58346,-5.21521,0.60497,-0.232625,0.301635,-0.00302196,-0.115871,-0.126123,-0.00149012,0.0524338,0.440018,5,0.1,13,0.8,5.3043,1.38057,0.640022,-0.660229,-0.735736,-0.0239298,-0.348806,-0.388741,-0.0126362,0.0165328,1.28371,5,0.1,14,0.8,-1.28198,-1.4603,0.688758,0.461921,0.852832,0.0288039,0.292897,0.26387,0.0182986,0.0265524,2.12579,5,0.1,15,0.8,-1.76301,-2.85215,0.766838,0.250563,0.00130534,0.353797,0.124991,0.000715256,0.17646,0.0170337,0.237823,5,0.1,16,0.8,0.510431,-5.55875,0.611672,0.0638053,0.592911,0.000301003,0.0318289,0.295401,0.000178814,0.00809397,0.449977,5,0.1,17,0.8,-5.62884,-1.50585,0.615201,-0.0647306,0.439951,-0.0146493,-0.0321865,0.219464,-0.00733137,0.0119599,0.250469,5,0.1,18,0.8,-4.35784,3.99261,0.619903,0.316942,-0.023061,-0.0128448,-0.469685,-0.0143051,0.0139773,0.0269226,3.20394,5,0.1,19,0.8,-0.503697,1.8626,0.692254,0.118981,-0.86101,0.0337273,0.0673383,0.100255,0.0190437,0.0115383,1.56583,5,0.1,20,0.8,2.45481,-0.0541198,0.638164,0.862634,0.175923,-0.0147879,0.0678301,0.425059,0.0126064,0.0107977,2.01293,5,0.1,21,0.8,2.48332,-2.11753,0.587265,-0.32357,0.383335,0.00772923,-0.161529,-0.474572,0.0038743,0.0143811,0.568728,5,0.1,22,0.8,-4.85676,-3.53088,0.569797,0.671494,-0.405955,0.0183254,0.334978,-0.202656,0.00911951,0.01002,0.779373,5,0.1,23,0.8,-4.49629,-2.55317,0.590238,-0.038147,-0.403452,-0.0739679,-0.362873,-0.143051,-0.127256,0.0100246,0.962103,5,0.1,24,0.8,3.07637,-0.192119,0.572286,-0.862688,-0.166125,0.0113055,-0.0667572,-0.432298,-0.0157058,0.0108078,2.27012,5,0.1,25,0.8,0.441841,-3.09558,0.78377,-0.268058,-0.033021,0.343531,-0.133708,-0.0164509,0.171393,0.0135794,0.241611,5,0.1,26,0.8,-4.27716,-5.69037,0.566966,0.319779,0.35814,0.0200391,0.159264,0.178814,0.00998378,0.0118245,0.292262,5,0.1,27,0.8,4.4645,0.381153,0.62061,-0.160456,-0.551369,-0.0125036,-0.0803471,0.5164,-0.00622869,0.0102011,0.707067,5,0.1,28,0.8,-1.42371,2.14249,0.609953,0.68135,-0.389832,-0.0060305,0.339925,-0.19455,-0.00298023,0.0108067,0.780522,5,0.1,29,0.8,-2.80775,4.07849,0.671386,0.311488,0.0501275,-0.0607416,0.155449,0.0252724,-0.0302792,0.0106741,0.130615,5,0.1,30,0.8,1.28386,2.3884,0.691485,-0.749484,-0.45771,0.0157237,0.346839,0.090003,0.110239,0.0134194,1.96005,5,0.1,31,0.8,3.15812,-3.37178,0.56299,0.851285,-0.405955,0.0474691,0.294805,-0.202537,0.0236928,0.0155892,1.20016,5,0.1,32,0.8,3.82754,-1.52668,0.503735,-0.378656,0.861186,-0.0148147,-0.236988,0.0967979,0.0295043,0.0292473,1.69499,5,0.1,33,0.8,0.0870638,0.383763,0.603684,0.300967,-0.11732,-0.00348091,0.0816697,0.1055,-0.0100732,0.00969133,0.291711,5,0.1,34,0.8,-3.46617,4.29289,0.602361,0.866026,-0.119269,-0.000725687,0,-0.0758171,-0.000447035,0.0297893,2.31862,5,0.1,35,0.8,-3.44591,-3.77491,0.605956,0.0762105,0.866026,-0.00152737,0.0481606,0,-0.000983477,0.0316099,2.26744,5,0.1,36,0.8,-0.588651,-1.27299,0.612792,0.804724,-0.60924,-0.00691563,0.510275,-0.386298,-0.00435114,0.018129,1.72383,5,0.1,37,0.8,0.511965,2.15734,0.541427,0.860898,-0.176126,0.0110492,-0.10252,-0.435829,-0.0888705,0.0115225,2.35733,5,0.1,38,0.8,0.633573,-1.15068,0.504714,0.161631,-0.436318,-0.0178739,0.0806153,-0.31215,0.0326335,0.0118213,0.349277,5,0.1,39,0.8,-2.57052,1.88327,0.598798,0.866026,-0.157002,0.000463426,0,-0.1477,0.000208616,0.0324928,2.25366,5,0.1
0,0.9,3.23276,-2.66984,0.682398,-0.677377,-0.462546,-0.0244194,-0.231579,-0.158161,-0.00834838,0.0114273,0.779929,5,0.1,1,0.9,-2.53524,4.8479,0.505148,0.86546,-0.457742,-0.0166875,0.02262,-0.272423,0.0214763,0.0509707,2.14313,5,0.1,2,0.9,-0.892886,2.19845,0.560148,0.521587,0.358997,0.0479276,0.507064,0.461236,0.373702,0.016457,2.62323,5,0.1,3,0.9,1.38667,-2.62928,0.623347,-0.32906,0.155022,-0.015784,-0.112489,0.0530332,-0.0054054,0.0137258,0.153514,5,0.1,4,0.9,-1.93035,4.88772,0.535422,-0.816843,0.539014,-0.000571366,-0.275694,0.186414,-0.000100583,0.0110861,1.11189,5,0.1,5,0.9,-3.35585,-2.63591,0.500043,0.104439,0.592571,-0.000278,0.0580698,-1.11395,0.00118092,0.0233083,2.93273,5,0.1,6,0.9,0.299717,0.0873095,0.651936,-0.105199,0.0767577,-0.0268461,0.380808,-0.525751,0.0687316,0.0125912,0.527028,5,0.1,7,0.9,-1.62425,-3.55228,0.559949,0.186617,0.865337,0.0257886,0.0843331,-0.021562,-0.0132062,0.0138462,1.2111,5,0.1,8,0.9,3.82025,-4.07881,0.605288,0.0758819,-0.206923,0.0190801,0.0259578,0.0813901,0.00653043,0.0134107,2.4406,5,0.1,9,0.9,0.602232,-2.13248,0.627226,0.409794,-0.738345,-0.0605777,0.140097,-0.252351,-0.0207126,0.011227,0.830176,5,0.1,10,0.9,-4.32425,-2.7459,0.71707,0.130114,0.400683,0.432756,0.214577,-0.662118,-0.167988,0.00802743,0.782122,5,0.1,11,0.9,1.96699,-5.84997,0.590872,-0.309056,-1.56462e-05,0.00617476,0.733815,0.000149012,0.00208989,0.0105092,0.923193,5,0.1,12,0.9,4.55964,-5.1861,0.60466,-0.243127,0.276874,-0.0031569,-0.0830293,-0.350773,-0.00106171,0.0524338,0.440018,5,0.1,13,0.9,5.23661,1.30513,0.637569,-0.692077,-0.771229,-0.0250836,-0.255764,-0.285029,-0.0092648,0.0165328,1.28371,5,0.1,14,0.9,-1.23427,-1.3742,0.691734,0.49223,0.865201,0.0306968,0.282064,0.0329837,0.0176132,0.0265524,2.12579,5,0.1,15,0.9,-1.73736,-2.85202,0.803059,0.26189,0.00136942,0.369787,0.0895336,0.000506639,0.126399,0.0170337,0.237823,5,0.1,16,0.9,0.516963,-5.49805,0.611703,0.0666895,0.619685,0.000317022,0.0227951,0.211626,0.00012666,0.00809397,0.449977,5,0.1,17,0.9,-5.63546,-1.46081,0.613701,-0.0676483,0.459838,-0.0153131,-0.023067,0.157207,-0.00524148,0.0119599,0.250469,5,0.1,18,0.9,-4.32827,3.99023,0.618687,0.280116,-0.0245012,-0.0114773,-0.152946,-0.0130236,0.0135265,0.0269226,3.20394,5,0.1,19,0.9,-0.491473,1.77826,0.695719,0.125211,-0.81431,0.03549,0.0511911,0.785366,0.0144877,0.0115383,1.56583,5,0.1,20,0.9,2.54128,-0.0347578,0.63672,0.865814,0.20782,-0.0142957,0.00847876,0.215323,-0.00083819,0.0107977,2.01293,5,0.1,21,0.9,2.45019,-2.08194,0.588056,-0.338205,0.325306,0.00808006,-0.115693,-0.662968,0.00276789,0.0143811,0.568728,5,0.1,22,0.9,-4.78801,-3.57244,0.571673,0.701847,-0.424317,0.019152,0.239938,-0.145137,0.00653788,0.01002,0.779373,5,0.1,23,0.9,-4.50141,-2.5947,0.582312,-0.0597671,-0.430727,-0.0834555,-0.085175,-0.353187,-0.0616126,0.0100246,0.962103,5,0.1,24,0.9,2.9899,-0.210538,0.573367,-0.865817,-0.198761,0.0105759,-0.00834465,-0.223012,-0.000722706,0.0108078,2.27012,5,0.1,25,0.9,0.414397,-3.09896,0.818941,-0.280174,-0.0345122,0.359062,-0.0957791,-0.0117868,0.122763,0.0135794,0.241611,5,0.1,26,0.9,-4.24442,-5.6537,0.569017,0.334217,0.374343,0.0209442,0.114143,0.12809,0.00715628,0.0118245,0.292262,5,0.1,27,0.9,4.44807,0.329186,0.61933,-0.167732,-0.482823,-0.0130681,-0.0575185,0.825858,-0.0044629,0.0102011,0.707067,5,0.1,28,0.9,-1.35395,2.10258,0.609336,0.712171,-0.407458,-0.00630133,0.243828,-0.139296,-0.00214577,0.0108067,0.780522,5,0.1,29,0.9,-2.77586,4.08362,0.665168,0.325574,0.0524163,-0.0634855,0.111341,0.0181198,-0.0216886,0.0106741,0.130615,5,0.1,30,0.9,1.21095,2.3441,0.693852,-0.705772,-0.419557,0.0335488,0.527807,0.624716,0.226934,0.0134194,1.96005,5,0.1,31,0.9,3.24414,-3.41334,0.56785,0.864688,-0.424309,0.0496158,0.020206,-0.145122,0.016965,0.0155892,1.20016,5,0.1,32,0.9,3.78884,-1.44026,0.50241,-0.391736,0.865592,-0.01164,-0.024572,0.00686944,0.0330731,0.0292473,1.69499,5,0.1,33,0.9,0.117641,0.372846,0.603273,0.310804,-0.0985788,-0.00483068,0.0960137,0.252673,-0.0156872,0.00969133,0.291711,5,0.1,34,0.9,-3.37962,4.28084,0.602266,0.863814,-0.119505,-0.00135191,-0.0674278,0.0622571,-0.0107437,0.0297893,2.31862,5,0.1,35,0.9,-3.43804,-3.68831,0.605798,0.0811845,0.866026,-0.00162898,0.0462234,0,-0.000949949,0.0316099,2.26744,5,0.1,36,0.9,-0.505843,-1.33584,0.612079,0.848419,-0.646888,-0.00734041,0.330932,-0.330687,-0.00373647,0.018129,1.72383,5,0.1,37,0.9,0.597827,2.13704,0.541968,0.857928,-0.233727,-0.00119191,-0.00610948,-0.663579,-0.146106,0.0115225,2.35733,5,0.1,38,0.9,0.65012,-1.19584,0.503101,0.168937,-0.465837,-0.0142949,0.0577569,-0.253506,0.0378713,0.0118213,0.349277,5,0.1,39,0.9,-2.48392,1.86686,0.598846,0.866026,-0.170618,0.000487454,0,-0.115812,0.000238419,0.0324928,2.25366,5,0.1
0,1,3.16422,-2.71665,0.679927,-0.689238,-0.47065,-0.0248462,0.0149012,0.010252,0.000566244,0.0112333,0.530383,5,0.1,1,1,-2.44865,4.80099,0.503601,0.866026,-0.477612,-0.0141203,0,-0.106335,0.0288785,0.0522857,2.12409,5,0.1,2,1,-0.83819,2.23675,0.567087,0.571127,0.406891,0.0926837,0.435859,0.452757,0.485122,0.0175518,2.40972,5,0.1,3,1,1.35337,-2.6136,0.62175,-0.33482,0.157738,-0.0160605,0.00727177,-0.00333786,0.000327826,0.0130168,0.176778,5,0.1,4,1,-2.01298,4.94227,0.535364,-0.830942,0.548577,-0.000575185,0.0185966,-0.0114441,0,0.0114174,0.75668,5,0.1,5,1,-3.34516,-2.58214,0.500021,0.108647,0.485307,-0.000169873,0.0216961,-0.972867,0.000953674,0.0206089,3.06704,5,0.1,6,1,0.291227,0.0919829,0.649701,-0.0637926,0.0140626,-0.0170037,0.429899,-0.685781,0.119388,0.0107625,0.36248,5,0.1,7,1,-1.60525,-3.46606,0.562429,0.192407,0.856197,0.0235334,0.0238419,-0.196457,-0.0305176,0.0115842,0.917719,5,0.1,8,1,3.82793,-4.1,0.607219,0.0772119,-0.225663,0.0194147,-0.00166893,-0.42963,-0.000417233,0.00871389,2.09529,5,0.1,9,1,0.643695,-2.20719,0.621096,0.41697,-0.751269,-0.0616401,-0.0090301,0.0162125,0.00137091,0.0106131,0.564562,5,0.1,10,1,-4.31017,-2.71006,0.758985,0.151038,0.308633,0.40081,0.189066,-1.11055,-0.451475,0.0076969,0.243359,5,0.1,11,1,1.93959,-5.84998,0.591497,-0.241244,-1.19209e-05,0.00628084,0.592053,0.000238419,-0.000149012,0.00985722,0.85224,5,0.1,12,1,4.53504,-5.16041,0.604341,-0.247383,0.234842,-0.00320971,0.00548363,-0.474453,5.96046e-05,0.055316,0.613855,5,0.1,13,1,5.16649,1.22699,0.635028,-0.705993,-0.786743,-0.0255868,-0.00143051,-0.0013113,-5.96046e-05,0.0144665,0.87541,5,0.1,14,1,-1.18386,-1.28762,0.694878,0.513059,0.866026,0.0319973,0.112891,-5.96046e-05,0.00706315,0.0273212,1.97042,5,0.1,15,1,-1.71086,-2.85188,0.840474,0.266477,0.00139475,0.376262,-0.00578165,0,-0.00813603,0.0158355,0.161731,5,0.1,16,1,0.523711,-5.43535,0.611736,0.0678569,0.630522,0.000323355,-0.00146031,-0.0135899,0,0.00969871,0.306024,5,0.1,17,1,-5.64231,-1.41428,0.612152,-0.0688195,0.467891,-0.0155807,0.00119209,-0.0101328,0.000327826,0.00836314,0.170329,5,0.1,18,1,-4.3,3.98772,0.617607,0.295079,-0.0254273,-0.0101134,0.425816,-0.00429153,0.0138581,0.0209735,2.93095,5,0.1,19,1,-0.478764,1.70156,0.699322,0.128206,-0.712898,0.036338,0.00469387,1.20163,0.0013113,0.0103807,0.863237,5,0.1,20,1,2.62788,-0.0132273,0.635278,0.866026,0.219596,-0.0146165,0,0.0238457,-0.00411272,0.00955379,1.56818,5,0.1,21,1,2.41597,-2.05288,0.588874,-0.344127,0.254887,0.00822097,0.00727177,-0.7267,-0.000149012,0.0128912,0.349465,5,0.1,22,1,-4.717,-3.61537,0.573611,0.714123,-0.431752,0.0194862,-0.0152588,0.00929832,-0.000417233,0.0107178,0.529992,5,0.1,23,1,-4.50747,-2.63955,0.573771,-0.0582218,-0.465494,-0.0862285,0.101566,-0.305653,0.00584126,0.009632,0.755316,5,0.1,24,1,2.9033,-0.231203,0.574434,-0.866026,-0.21136,0.0108346,0,-0.0326857,0.00450015,0.00699906,1.22725,5,0.1,25,1,0.386049,-3.10245,0.855271,-0.28508,-0.0351131,0.36535,0.00615418,0.000715256,-0.00789762,0.0126564,0.260179,5,0.1,26,1,-4.21061,-5.61583,0.571137,0.340056,0.380909,0.0213102,-0.00715256,-0.00810623,-0.000447035,0.0117187,0.312803,5,0.1,27,1,4.4311,0.285345,0.618008,-0.170684,-0.391496,-0.0132963,0.00357628,0.976369,0.000268221,0.0158078,0.68431,5,0.1,28,1,-1.28189,2.06135,0.608698,0.724685,-0.414598,-0.00641048,-0.0151992,0.00917912,0.000119209,0.0123209,0.644087,5,0.1,29,1,-2.74292,4.08892,0.658745,0.331277,0.0533462,-0.0645965,-0.00715256,-0.000953674,0.00140071,0.0163883,0.150408,5,0.1,30,1,1.14331,2.30581,0.698403,-0.644109,-0.341552,0.0577047,0.703275,0.895977,0.241488,0.0123211,1.5541,5,0.1,31,1,3.33047,-3.45627,0.57287,0.859362,-0.43174,0.0504851,-0.133038,0.00917912,-0.00110269,0.0128975,0.849512,5,0.1,32,1,3.74989,-1.35375,0.501411,-0.383782,0.863934,-0.00836104,0.181198,-0.0419021,0.0317991,0.0264465,0.536953,5,0.1,33,1,0.149097,0.364381,0.60271,0.316935,-0.0697739,-0.00640303,0.0133216,0.310197,-0.0148416,0.0102802,0.254497,5,0.1,34,1,-3.29388,4.26937,0.602069,0.847477,-0.108457,-0.00263453,-0.287175,0.150919,-0.0139475,0.0312172,2.4949,5,0.1,35,1,-3.42973,-3.60171,0.605632,0.084585,0.866026,-0.00169724,0.0183582,0,-0.000417233,0.0353879,2.266,5,0.1,36,1,-0.41985,-1.40185,0.61133,0.865924,-0.669333,-0.00759363,0.00202656,-0.0938177,-0.00104308,0.0179812,1.22018,5,0.1,37,1,0.683418,2.11033,0.54109,0.851284,-0.299656,-0.016436,-0.161439,-0.615954,-0.151217,0.0116377,1.98705,5,0.1,38,1,0.667213,-1.24343,0.501862,0.171895,-0.48289,-0.0104919,-0.00369549,-0.0709891,0.0373721,0.0136297,0.383181,5,0.1,39,1,-2.39731,1.84933,0.598896,0.866026,-0.178698,0.000505149,0,-0.0399947,8.9407e-05,0.0204605,2.24712,5,0.1
0,1.1,3.0954,-2.76364,0.677446,-0.686216,-0.46858,-0.0247349,0.0707805,0.0483543,0.00257418,0.0112333,0.530383,5,0.1,1,1.1,-2.36205,4.75261,0.502339,0.866026,-0.490151,-0.0110756,0,-0.116646,0.0312664,0.0522857,2.12409,5,0.1,2,1.1,-0.778583,2.2796,0.578776,0.622727,0.448557,0.140597,0.540167,0.359774,0.454918,0.0175518,2.40972,5,0.1,3,1.1,1.31971,-2.59774,0.620135,-0.340013,0.160192,-0.0163114,-0.0838339,0.0395328,-0.00403076,0.0130168,0.176778,5,0.1,4,1.1,-2.09595,4.99704,0.535307,-0.827344,0.546148,-0.000576302,0.0839829,-0.0570714,7.45058e-06,0.0114174,0.75668,5,0.1,5,1.1,-3.33417,-2.53817,0.500008,0.111101,0.40042,-8.83825e-05,0.0214577,-0.603721,0.000674278,0.0206089,3.06704,5,0.1,6,1.1,0.286841,0.0896653,0.648675,-0.0254487,-0.0623579,-0.00294792,0.338726,-0.803371,0.153836,0.0107625,0.36248,5,0.1,7,1.1,-1.5858,-3.38149,0.564486,0.196973,0.833695,0.0164013,0.0537261,-0.277042,-0.103064,0.0115842,0.917719,5,0.1,8,1.1,3.83564,-4.12583,0.609158,0.0768729,-0.299594,0.0193297,-0.00792742,-0.956774,-0.00199303,0.00871389,2.09529,5,0.1,9,1.1,0.685329,-2.2822,0.614942,0.41514,-0.747978,-0.061367,-0.0428222,0.0770986,0.00635162,0.0106131,0.564562,5,0.1,10,1.1,-4.2939,-2.68468,0.797031,0.175935,0.200134,0.361935,0.282884,-1.04217,-0.342485,0.0076969,0.243359,5,0.1,11,1.1,1.91815,-5.84998,0.592124,-0.191918,7.45058e-06,0.00625225,0.338741,0.000119209,-0.000651926,0.00985722,0.85224,5,0.1,12,1.1,4.51034,-5.13939,0.604021,-0.246289,0.184726,-0.00319621,0.0254214,-0.515491,0.0003241,0.055316,0.613855,5,0.1,13,1.1,5.09592,1.14835,0.63247,-0.704519,-0.785075,-0.025534,0.0571907,0.0639111,0.00206754,0.0144665,0.87541,5,0.1,14,1.1,-1.1319,-1.20102,0.698118,0.526149,0.865953,0.0328153,0.119612,-0.00286102,0.00747293,0.0273212,1.97042,5,0.1,15,1.1,-1.68425,-2.85174,0.878044,0.265307,0.00139102,0.374612,-0.027366,-0.000119209,-0.0386238,0.0158355,0.161731,5,0.1,16,1.1,0.530486,-5.37239,0.611768,0.0675599,0.627764,0.000322517,-0.00696257,-0.064671,-2.6077e-05,0.00969871,0.306024,5,0.1,17,1.1,-5.64918,-1.36757,0.610596,-0.0685409,0.465837,-0.0155127,0.00685453,-0.0480488,0.00160187,0.00836314,0.170329,5,0.1,18,1.1,-4.26702,3.98516,0.616661,0.375139,-0.0259284,-0.00884356,1.06594,-0.00433624,0.0117756,0.0209735,2.93095,5,0.1,19,1.1,-0.465925,1.6367,0.70296,0.128382,-0.581058,0.0363871,-0.00607409,1.39925,-0.00172481,0.0103807,0.863237,5,0.1,20,1.1,2.71448,0.00868133,0.633783,0.865931,0.216904,-0.015359,-0.00378489,-0.076458,-0.00925362,0.00955379,1.56818,5,0.1,21,1.1,2.38161,-2.031,0.589695,-0.342631,0.183319,0.00818698,0.0352561,-0.691444,-0.00083074,0.0128912,0.349465,5,0.1,22,1.1,-4.64569,-3.65848,0.575557,0.711004,-0.429861,0.0194011,-0.0731945,0.0443161,-0.00199676,0.0107178,0.529992,5,0.1,23,1.1,-4.51243,-2.68786,0.565259,-0.0380158,-0.501725,-0.0832624,0.279367,-0.37688,0.0516362,0.009632,0.755316,5,0.1,24,1.1,2.81903,-0.252648,0.575357,-0.798784,-0.218525,0.00609765,1.2313,-0.0918172,-0.0882335,0.00699906,1.22725,5,0.1,25,1.1,0.357428,-3.1058,0.891751,-0.288276,-0.030518,0.363747,-0.0497624,0.0825971,-0.0375211,0.0126564,0.260179,5,0.1,26,1.1,-4.17665,-5.57791,0.573264,0.338583,0.375916,0.021218,-0.0347495,-0.0982881,-0.00217929,0.0117187,0.312803,5,0.1,27,1.1,4.41406,0.251157,0.61668,-0.169942,-0.29198,-0.0132397,0.0174642,0.993972,0.00134856,0.0158078,0.68431,5,0.1,28,1.1,-1.20953,2.0198,0.608058,0.72156,-0.417206,-0.00638431,-0.0738353,-0.0362918,0.000637025,0.0123209,0.644087,5,0.1,29,1.1,-2.70961,4.09429,0.652249,0.336418,0.0541911,-0.0655987,0.0829697,0.0134706,-0.0161789,0.0163883,0.150408,5,0.1,30,1.1,1.08159,2.27568,0.705219,-0.597276,-0.265811,0.0769524,0.286236,0.622466,0.141583,0.0123211,1.5541,5,0.1,31,1.1,3.41589,-3.49938,0.577911,0.849628,-0.42986,0.0502626,-0.101596,0.0442117,-0.00518933,0.0128975,0.849512,5,0.1,32,1.1,3.7129,-1.26771,0.500727,-0.351823,0.854879,-0.00540009,0.437602,-0.16351,0.0270046,0.0264465,0.536953,5,0.1,33,1.1,0.180473,0.358607,0.602013,0.307032,-0.0487794,-0.00737468,-0.200229,0.12492,-0.00498071,0.0102802,0.254497,5,0.1,34,1.1,-3.21076,4.25953,0.601721,0.812602,-0.0861131,-0.00444269,-0.423178,0.279576,-0.0207387,0.0312172,2.4949,5,0.1,35,1.1,-3.42108,-3.51511,0.605459,0.0891492,0.866026,-0.00174576,0.0627041,0,-0.00045076,0.0353879,2.266,5,0.1,36,1.1,-0.333265,-1.46924,0.610566,0.865342,-0.677621,-0.00768621,-0.0268182,-0.0430942,-0.000476837,0.0179812,1.22018,5,0.1,37,1.1,0.768377,2.07801,0.538887,0.85252,-0.339948,-0.0258614,0.117972,-0.204712,-0.0443868,0.0116377,1.98705,5,0.1,38,1.1,0.684377,-1.2922,0.500993,0.171143,-0.493173,-0.0069648,-0.0176281,-0.104912,0.0326261,0.0136297,0.383181,5,0.1,39,1.1,-2.31071,1.83115,0.598947,0.866026,-0.185588,0.000515766,0,-0.0825524,9.68575e-05,0.0204605,2.24712,5,0.1
0,1.2,3.02739,-2.81008,0.674995,-0.670904,-0.458121,-0.0241816,0.252008,0.172019,0.00908971,0.0107332,0.352682,5,0.1,1,1.2,-2.27545,4.70318,0.501387,0.866026,-0.496221,-0.00799745,0,0.0143051,0.0297129,0.051768,2.12136,5,0.1,2,1.2,-0.713814,2.32597,0.594938,0.669563,0.475347,0.18058,0.356466,0.161767,0.332057,0.0158867,2.08871,5,0.1,3,1.2,1.28532,-2.58154,0.618486,-0.346884,0.163436,-0.0166431,-0.033915,0.015974,-0.00160933,0.0140411,0.563714,5,0.1,4,1.2,-2.17796,5.05116,0.535249,-0.809067,0.533855,-0.000569224,0.301719,-0.201702,0.000149012,0.0109742,0.503454,5,0.1,5,1.2,-3.323,-2.5,0.500002,0.111938,0.374281,-3.42727e-05,-0.00882149,0.0571012,0.00038743,0.0190174,2.88068,5,0.1,6,1.2,0.285849,0.0794846,0.649153,0.00424832,-0.139787,0.0123784,0.256464,-0.716217,0.146806,0.00899957,0.2571,5,0.1,7,1.2,-1.56588,-3.2998,0.565553,0.200802,0.79695,0.00453293,0.0130534,-0.472784,-0.127167,0.0123082,0.682091,5,0.1,8,1.2,3.84326,-4.16081,0.611073,0.0751555,-0.400829,0.0188991,-0.0282526,-0.998259,-0.00712276,0.0102764,1.68206,5,0.1,9,1.2,0.726472,-2.35633,0.60886,0.405876,-0.731295,-0.0599965,-0.152498,0.274777,0.0225604,0.0129872,0.383716,5,0.1,10,1.2,-4.27491,-2.66965,0.831582,0.203109,0.103146,0.329469,0.241518,-0.885367,-0.318855,0.0137957,0.86662,5,0.1,11,1.2,1.9,-5.84997,0.592744,-0.177482,1.19209e-05,0.00611097,-0.0341535,0.000238419,-0.00226498,0.00963056,0.729152,5,0.1,12,1.2,4.48594,-5.12348,0.603704,-0.240791,0.133908,-0.00312477,0.0903606,-0.491619,0.00116229,0.0540105,0.597731,5,0.1,13,1.2,5.02602,1.07046,0.629937,-0.690198,-0.769106,-0.0250146,0.246286,0.274718,0.00891089,0.0173156,0.583244,5,0.1,14,1.2,-1.07888,-1.11446,0.701425,0.532025,0.864872,0.0331819,-0.0224113,-0.0229478,-0.00137091,0.0287892,1.48528,5,0.1,15,1.2,-1.65796,-2.8516,0.91517,0.259387,0.00135899,0.366253,-0.097394,-0.000476837,-0.137538,0.0186208,0.107544,5,0.1,16,1.2,0.537182,-5.31018,0.6118,0.0660524,0.613761,0.000314415,-0.0247955,-0.230312,-8.9407e-05,0.0111609,0.203497,5,0.1,17,1.2,-5.65598,-1.3214,0.609059,-0.0670195,0.455442,-0.0151649,0.0247955,-0.171065,0.00569224,0.00905684,0.113259,5,0.1,18,1.2,-4.22386,3.98255,0.615834,0.489032,-0.0260711,-0.00771731,1.12867,0.0026226,0.0109375,0.0197151,2.56913,5,0.1,19,1.2,-0.453168,1.58567,0.706576,0.126176,-0.43945,0.0357613,-0.041306,1.40482,-0.0117123,0.013567,0.606073,5,0.1,20,1.2,2.80102,0.0298335,0.632202,0.864518,0.204628,-0.0162095,-0.0302792,-0.167045,-0.00670552,0.0116516,1.19192,5,0.1,21,1.2,2.34766,-2.01597,0.590506,-0.33499,0.11881,0.0080049,0.125766,-0.589728,-0.00298023,0.010983,0.704661,5,0.1,22,1.2,-4.57523,-3.70108,0.577479,0.695145,-0.420266,0.0189692,-0.261068,0.157833,-0.00712276,0.0102335,0.352401,5,0.1,23,1.2,-4.5147,-2.73975,0.557253,-0.00646114,-0.533658,-0.0762641,0.333786,-0.231862,0.0865161,0.0116096,0.569492,5,0.1,24,1.2,2.74657,-0.274931,0.575448,-0.640315,-0.226485,-0.00485331,1.84596,-0.053823,-0.12219,0.0101481,2.98412,5,0.1,25,1.2,0.328396,-3.10836,0.9278,-0.291548,-0.0201344,0.35563,-0.00111759,0.118136,-0.133574,0.0114645,0.185521,5,0.1,26,1.2,-4.14309,-5.541,0.575367,0.331056,0.360262,0.0207454,-0.124454,-0.218153,-0.00777841,0.0111592,0.272475,5,0.1,27,1.2,4.39722,0.226819,0.615368,-0.166154,-0.196264,-0.0129446,0.0622272,0.904724,0.00482798,0.00983971,0.676425,5,0.1,28,1.2,-1.13802,1.97799,0.607425,0.705516,-0.417584,-0.00624359,-0.264466,0.0463128,0.00232458,0.0124821,0.441967,5,0.1,29,1.2,-2.67559,4.09977,0.645615,0.343221,0.0552893,-0.0669241,0.033617,0.00548363,-0.00655651,0.0113546,0.0895951,5,0.1,30,1.2,1.02296,2.25179,0.713448,-0.577427,-0.215822,0.0858754,0.152141,0.386,0.0372529,0.0112696,1.26016,5,0.1,31,1.2,3.50013,-3.54198,0.582892,0.832301,-0.420284,0.049141,-0.272393,0.157952,-0.0184774,0.010934,0.587962,5,0.1,32,1.2,3.68019,-1.1834,0.500311,-0.300014,0.827283,-0.00302196,0.581264,-0.403523,0.020355,0.0240603,0.1902,5,0.1,33,1.2,0.209901,0.354152,0.601264,0.279017,-0.0420444,-0.00747591,-0.349962,0.022009,0.00265241,0.0107053,0.23816,5,0.1,34,1.2,-3.13192,4.25242,0.601172,0.760871,-0.05548,-0.00652373,-0.618339,0.320435,-0.0197589,0.0255225,2.70549,5,0.1,35,1.2,-3.41185,-3.4285,0.605283,0.0953496,0.866026,-0.00177175,0.0537634,0,5.96046e-05,0.0369586,2.26412,5,0.1,36,1.2,-0.247082,-1.53694,0.609798,0.855199,-0.673139,-0.00763386,-0.216544,0.151932,0.00169873,0.017168,0.843326,5,0.1,37,1.2,0.854229,2.04356,0.536206,0.863388,-0.343508,-0.0266165,0.0527501,0.119209,0.0234246,0.00783781,1.03359,5,0.1,38,1.2,0.701339,-1.3419,0.500449,0.167327,-0.498813,-0.00405312,-0.0628233,0.0129342,0.025332,0.0130361,0.27473,5,0.1,39,1.2,-2.22411,1.81221,0.598999,0.866026,-0.192586,0.00051856,0,-0.0463724,-2.98023e-05,0.0191136,2.2443,5,0.1
0,1.3,2.96153,-2.85505,0.672621,-0.645991,-0.441116,-0.0232832,0.267088,0.182346,0.00962988,0.0107332,0.352682,5,0.1,1,1.3,-2.18884,4.6535,0.50073,0.866026,-0.498097,-0.00522695,0,-0.0240207,0.0253245,0.051768,2.12136,5,0.1,2,1.3,-0.644949,2.37362,0.61415,0.707821,0.471874,0.198999,0.363145,-0.192598,0.051681,0.0158867,2.08871,5,0.1,3,1.3,1.2502,-2.56481,0.616665,-0.357266,0.173422,-0.0209861,-0.142455,0.157684,-0.0752062,0.0140411,0.563714,5,0.1,4,1.3,-2.25739,5.10356,0.535193,-0.779284,0.513887,-0.000555348,0.319242,-0.21413,0.000145286,0.0109742,0.503454,5,0.1,5,1.3,-3.31183,-2.4608,0.5,0.111434,0.421781,-5.86733e-06,-0.00652671,0.782371,0.00018999,0.0190174,2.88068,5,0.1,6,1.3,0.287386,0.0618731,0.651139,0.0249636,-0.212162,0.0273283,0.165494,-0.700343,0.146281,0.00899957,0.2571,5,0.1,7,1.3,-1.54575,-3.22214,0.565393,0.201317,0.758334,-0.00746362,-0.00990927,-0.337213,-0.110455,0.0123082,0.682091,5,0.1,8,1.3,3.85064,-4.20626,0.612928,0.0723626,-0.510112,0.0181953,-0.0299364,-1.11732,-0.00753626,0.0102764,1.68206,5,0.1,9,1.3,0.765995,-2.42812,0.602971,0.381809,-0.704134,-0.0577671,-0.319198,0.291169,0.0238903,0.0129872,0.383716,5,0.1,10,1.3,-4.25379,-2.66236,0.863223,0.215599,0.0549722,0.305685,0.0178814,-0.143632,-0.178464,0.0137957,0.86662,5,0.1,11,1.3,1.88132,-5.84997,0.593344,-0.202199,3.12924e-05,0.00588652,-0.404254,0.000119209,-0.00241399,0.00963056,0.729152,5,0.1,12,1.3,4.4623,-5.11244,0.603378,-0.231858,0.0881523,-0.00354033,0.0957549,-0.418305,-0.00818074,0.0540105,0.597731,5,0.1,13,1.3,4.95821,0.994931,0.627479,-0.665783,-0.740903,-0.0241307,0.263661,0.311077,0.00954792,0.0173156,0.583244,5,0.1,14,1.3,-1.02574,-1.02798,0.704739,0.530567,0.865077,0.0330929,-0.0302307,0.00231341,-0.0018701,0.0287892,1.48528,5,0.1,15,1.3,-1.6325,-2.85147,0.951123,0.249759,0.00131018,0.352656,-0.103228,-0.000521541,-0.145778,0.0186208,0.107544,5,0.1,16,1.3,0.543666,-5.24993,0.611831,0.0636007,0.59099,0.000304822,-0.0262894,-0.244141,-0.000108033,0.0111609,0.203497,5,0.1,17,1.3,-5.66256,-1.27669,0.60757,-0.06456,0.438531,-0.0146017,0.0264943,-0.18131,0.00604615,0.00905684,0.113259,5,0.1,18,1.3,-4.16877,3.97995,0.615112,0.615986,-0.0259504,-0.00675833,1.32203,0.00113249,0.00851229,0.0197151,2.56913,5,0.1,19,1.3,-0.440752,1.54856,0.710095,0.122068,-0.304973,0.0345971,-0.0448879,1.26465,-0.0127219,0.013567,0.606073,5,0.1,20,1.3,2.88746,0.0494071,0.630543,0.864858,0.18631,-0.0169963,0.00616908,-0.198999,-0.00786781,0.0116516,1.19192,5,0.1,21,1.3,2.31477,-2.00684,0.591292,-0.322555,0.0659525,0.00770949,0.13335,-0.460535,-0.00317395,0.010983,0.704661,5,0.1,22,1.3,-4.50699,-3.74234,0.579341,0.669336,-0.404661,0.0182648,-0.276774,0.16731,-0.00755116,0.0102335,0.352401,5,0.1,23,1.3,-4.51356,-2.79435,0.550084,0.0299789,-0.558206,-0.0668995,0.377744,-0.22608,0.0996217,0.0116096,0.569492,5,0.1,24,1.3,2.68928,-0.297655,0.574484,-0.526975,-0.226115,-0.0132191,0.546768,0.0597313,-0.0495426,0.0101481,2.98412,5,0.1,25,1.3,0.299166,-3.10973,0.96271,-0.293329,-0.00678338,0.342424,-0.018457,0.1425,-0.141576,0.0114645,0.185521,5,0.1,26,1.3,-4.1106,-5.50645,0.577404,0.318758,0.327412,0.0199764,-0.131845,-0.422508,-0.00824407,0.0111592,0.272475,5,0.1,27,1.3,4.38091,0.211462,0.61402,-0.159998,-0.11373,-0.0146722,0.0660419,0.734648,-0.033997,0.00983971,0.676425,5,0.1,28,1.3,-1.06876,1.93639,0.606812,0.679374,-0.414678,-0.00601383,-0.280328,0.0317842,0.00246987,0.0124821,0.441967,5,0.1,29,1.3,-2.64106,4.10533,0.638882,0.347296,0.0559494,-0.0677187,0.0305325,0.00494719,-0.00596046,0.0113546,0.0895951,5,0.1,30,1.3,0.965422,2.23139,0.722046,-0.577626,-0.198513,0.0844977,-0.102382,0.00417233,-0.0582971,0.0112696,1.26016,5,0.1,31,1.3,3.58212,-3.58324,0.587716,0.807755,-0.404672,0.0473147,-0.250891,0.16737,-0.0195801,0.010934,0.587962,5,0.1,32,1.3,3.65321,-1.10284,0.500098,-0.238604,0.781906,-0.00135815,0.632703,-0.514783,0.0130497,0.0240603,0.1902,5,0.1,33,1.3,0.235836,0.34989,0.600538,0.237863,-0.0445657,-0.0069852,-0.459873,-0.0608768,0.00689551,0.0107053,0.23816,5,0.1,34,1.3,-3.05881,4.24859,0.600426,0.70207,-0.0202104,-0.00832733,-0.576615,0.369847,-0.0157803,0.0255225,2.70549,5,0.1,35,1.3,-3.40198,-3.3419,0.605106,0.102265,0.866026,-0.00177808,0.0753701,0,-8.9407e-05,0.0369586,2.26412,5,0.1,36,1.3,-0.162549,-1.60352,0.609043,0.835569,-0.657962,-0.00746399,-0.209679,0.175178,0.00196695,0.017168,0.843326,5,0.1,37,1.3,0.938687,2.00976,0.533451,0.806851,-0.332834,-0.0302393,-1.0837,0.107817,-0.0820011,0.00783781,1.03359,5,0.1,38,1.3,0.717764,-1.39179,0.500156,0.161116,-0.498905,-0.00194348,-0.0665896,0.0089407,0.0169128,0.0130361,0.27473,5,0.1,39,1.3,-2.13751,1.79264,0.59905,0.866026,-0.199307,0.00051856,0,-0.0738129,0,0.0191136,2.2443,5,0.1
0,1.4,2.89843,-2.89814,0.670347,-0.614023,-0.419289,-0.0221312,0.386119,0.263572,0.0139475,0.00982338,0.232142,5,0.1,1,1.4,-2.10224,4.60369,0.500324,0.866026,-0.49628,-0.00298917,0,0.0793934,0.0192523,0.0452375,2.12524,5,0.1,2,1.4,-0.572646,2.41951,0.633951,0.734469,0.443083,0.193779,0.138104,-0.359297,-0.142872,0.0175638,1.77858,5,0.1,3,1.4,1.2138,-2.54662,0.614137,-0.369978,0.190419,-0.0299051,-0.0890493,0.162601,-0.0954568,0.0155283,0.399436,5,0.1,4,1.4,-2.33353,5.15375,0.535138,-0.741011,0.488293,-0.000534952,0.463009,-0.308752,0.000238419,0.0188185,0.331526,5,0.1,5,1.4,-3.30075,-2.41426,0.5,0.109738,0.511295,5.96046e-06,-0.0308752,0.923514,5.96046e-05,0.0251885,2.47186,5,0.1,6,1.4,0.290607,0.0373901,0.654562,0.0385471,-0.274582,0.040625,0.110537,-0.526277,0.115454,0.0126788,0.198371,5,0.1,7,1.4,-1.52576,-3.14803,0.564137,0.197643,0.723064,-0.0171751,-0.0681877,-0.39506,-0.0822246,0.0110425,0.501181,5,0.1,8,1.4,3.8577,-4.26258,0.614706,0.0687778,-0.612223,0.0172928,-0.0431538,-0.874519,-0.0108778,0.0100651,1.28454,5,0.1,9,1.4,0.802371,-2.4969,0.597328,0.343829,-0.669289,-0.0549078,-0.432163,0.420928,0.0345409,0.0100606,0.268879,5,0.1,10,1.4,-4.23244,-2.6568,0.892986,0.208509,0.0626206,0.290005,-0.150204,0.24426,-0.151217,0.0126766,0.677602,5,0.1,11,1.4,1.85885,-5.84997,0.593919,-0.248474,3.57628e-05,0.00559688,-0.478685,0,-0.00351667,0.00917544,0.585422,5,0.1,12,1.4,4.43965,-5.10556,0.602977,-0.220394,0.0510335,-0.00453293,0.13876,-0.321388,-0.0106394,0.0490691,0.827478,5,0.1,13,1.4,4.89312,0.9226,0.62512,-0.63386,-0.703296,-0.0229746,0.389099,0.45526,0.0140965,0.0139051,0.41162,5,0.1,14,1.4,-0.973004,-0.941585,0.708029,0.522035,0.861196,0.032562,-0.156343,-0.0965893,-0.00974536,0.0250946,1.08711,5,0.1,15,1.4,-1.6081,-2.85134,0.98557,0.237399,0.0012517,0.335206,-0.14919,-0.000953674,-0.210792,0.0184681,0.120554,5,0.1,16,1.4,0.549878,-5.1922,0.611861,0.060454,0.56175,0.000290573,-0.037998,-0.352859,-0.000149012,0.00937606,0.133943,5,0.1,17,1.4,-5.66886,-1.23386,0.606144,-0.0613809,0.41683,-0.0138775,0.0383854,-0.262141,0.00870228,0.00896307,0.126958,5,0.1,18,1.4,-4.10084,3.97737,0.614477,0.738215,-0.0256181,-0.00596642,1.05834,0.0064373,0.00751019,0.0185715,2.3508,5,0.1,19,1.4,-0.428803,1.52402,0.713482,0.116526,-0.18976,0.0330269,-0.0686646,1.02729,-0.0194609,0.0105453,0.59203,5,0.1,20,1.4,2.97384,0.0669935,0.62881,0.860941,0.164941,-0.0175878,-0.101566,-0.227578,-0.00306964,0.0120027,0.879798,5,0.1,21,1.4,2.28326,-2.0023,0.592045,-0.306594,0.0276506,0.00732839,0.192881,-0.302911,-0.00461936,0.0109,0.91831,5,0.1,22,1.4,-4.44161,-3.78187,0.581125,0.636208,-0.384635,0.0173613,-0.400066,0.241876,-0.0109076,0.00942522,0.316496,5,0.1,23,1.4,-4.50872,-2.85107,0.543906,0.0660777,-0.573289,-0.0565603,0.331879,-0.0528097,0.106186,0.0146498,0.412586,5,0.1,24,1.4,2.63803,-0.319792,0.573004,-0.508457,-0.214915,-0.0155777,-0.0771284,0.161976,-0.00137091,0.00959892,2.68043,5,0.1,25,1.4,0.269819,-3.1097,0.996158,-0.292514,0.00724792,0.325479,0.0459331,0.133514,-0.204712,0.0111178,0.129493,5,0.1,26,1.4,-4.07946,-5.47604,0.579355,0.302982,0.278783,0.0189885,-0.190496,-0.536442,-0.0119507,0.0110836,0.251437,5,0.1,27,1.4,4.36528,0.203405,0.612355,-0.152075,-0.0511598,-0.0187933,0.0953674,0.509813,-0.0443161,0.0102965,0.662018,5,0.1,28,1.4,-1.00239,1.89519,0.606225,0.645804,-0.407848,-0.00571758,-0.40558,0.118434,0.00354648,0.00979918,0.298174,5,0.1,29,1.4,-2.6063,4.11093,0.632104,0.34641,0.0558138,-0.0675455,-0.0600815,-0.00977516,0.0116825,0.0100735,0.0678208,5,0.1,30,1.4,0.90709,2.21123,0.730091,-0.588575,-0.20718,0.0754207,-0.077039,-0.14329,-0.117689,0.00976326,0.972502,5,0.1,31,1.4,3.66146,-3.62277,0.592337,0.776678,-0.384647,0.0449717,-0.392556,0.241995,-0.0282824,0.011765,0.399373,5,0.1,32,1.4,3.6325,-1.02748,0.500017,-0.175977,0.722691,-0.000376999,0.608921,-0.675082,0.00679493,0.0264057,0.339252,5,0.1,33,1.4,0.257232,0.345071,0.599879,0.189441,-0.0521779,-0.00614673,-0.497788,-0.0825226,0.00956655,0.00987103,0.230739,5,0.1,34,1.4,-2.99154,4.2484,0.599524,0.642377,0.015831,-0.00959486,-0.629902,0.339746,-0.00917912,0.0301132,2.89333,5,0.1,35,1.4,-3.39141,-3.2553,0.604928,0.10885,0.866026,-0.00177175,0.0495911,0,0.000268221,0.0331698,2.26253,5,0.1,36,1.4,-0.0802532,-1.66824,0.608308,0.807616,-0.634181,-0.00719577,-0.372217,0.316143,0.00357628,0.0207583,0.570748,5,0.1,37,1.4,1.01276,1.97708,0.529937,0.664768,-0.31966,-0.0405625,-1.6765,0.164986,-0.113815,0.0132721,1.64858,5,0.1,38,1.4,0.733502,-1.44148,0.500033,0.153144,-0.493026,-0.00064373,-0.0962615,0.124931,0.00926852,0.0121396,0.191423,5,0.1,39,1.4,-2.0509,1.77239,0.599102,0.866026,-0.204909,0.00051409,-5.96046e-05,-0.0280738,-0.000119209,0.0202041,2.24244,5,0.1
0,1.5,2.83889,-2.9388,0.668201,-0.577192,-0.394147,-0.0208014,0.367925,0.251174,0.0132732,0.00982338,0.232142,5,0.1,1,1.5,-2.01564,4.55429,0.50011,0.866026,-0.492535,-0.00140322,0,0.023216,0.0125654,0.0452375,2.12524,5,0.1,2,1.5,-0.498466,2.46172,0.652278,0.748617,0.398543,0.170002,0.108643,-0.518501,-0.308704,0.0175638,1.77858,5,0.1,3,1.5,1.17632,-2.52673,0.610768,-0.379319,0.207458,-0.0365399,-0.0783205,0.163168,-0.0393689,0.0155283,0.399436,5,0.1,4,1.5,-2.4054,5.20109,0.535086,-0.696865,0.45883,-0.000512227,0.441059,-0.294358,0.000230968,0.0188185,0.331526,5,0.1,5,1.5,-3.28991,-2.35789,0.500001,0.107082,0.620136,8.56817e-06,-0.0268519,1.16533,0,0.0251885,2.47186,5,0.1,6,1.5,0.29495,0.00732374,0.659196,0.047654,-0.325847,0.0518594,0.0709556,-0.473226,0.104442,0.0126788,0.198371,5,0.1,7,1.5,-1.50639,-3.07738,0.562131,0.189034,0.692137,-0.0218339,-0.106163,-0.260323,-0.0154972,0.0110425,0.501181,5,0.1,8,1.5,3.86437,-4.32823,0.616383,0.0646606,-0.699723,0.0162551,-0.041157,-0.821322,-0.0103638,0.0100651,1.28454,5,0.1,9,1.5,0.834361,-2.5618,0.592003,0.294289,-0.62914,-0.0516137,-0.533946,0.40108,0.0329018,0.0100606,0.268879,5,0.1,10,1.5,-4.21251,-2.6487,0.92139,0.188747,0.104512,0.279256,-0.238478,0.54425,-0.0808537,0.0126766,0.677602,5,0.1,11,1.5,1.83132,-5.84997,0.594462,-0.303841,3.27826e-05,0.00526141,-0.586078,-5.96046e-05,-0.00335276,0.00917544,0.585422,5,0.1,12,1.5,4.41828,-5.10197,0.602478,-0.207162,0.0220984,-0.00535417,0.132143,-0.249088,-0.00576675,0.0490691,0.827478,5,0.1,13,1.5,4.83161,0.855133,0.62289,-0.596704,-0.641161,-0.0216283,0.372142,0.748876,0.0134856,0.0139051,0.41162,5,0.1,14,1.5,-0.921535,-0.855693,0.711239,0.507349,0.857976,0.0316463,-0.156485,-0.0153817,-0.00976026,0.0250946,1.08711,5,0.1,15,1.5,-1.58495,-2.85122,1.01825,0.226701,0.00118166,0.320089,-0.0794977,-0.000536442,-0.112336,0.0184681,0.120554,5,0.1,16,1.5,0.555741,-5.13772,0.611889,0.056829,0.528087,0.000275485,-0.0362135,-0.336319,-0.000156462,0.00937606,0.133943,5,0.1,17,1.5,-5.67485,-1.19321,0.604791,-0.0586256,0.39803,-0.0132529,0.020504,-0.139706,0.00464916,0.00896307,0.126958,5,0.1,18,1.5,-4.02246,3.97483,0.613913,0.821687,-0.0251759,-0.00533825,0.600442,0.00371039,0.00533089,0.0185715,2.3508,5,0.1,19,1.5,-0.417481,1.50969,0.716691,0.109961,-0.101764,0.0311666,-0.0660028,0.733592,-0.0187047,0.0105453,0.59203,5,0.1,20,1.5,3.05967,0.0823594,0.627034,0.856884,0.142467,-0.0179296,-0.026226,-0.222168,-0.00284612,0.0120027,0.879798,5,0.1,21,1.5,2.25353,-2.00093,0.592756,-0.288196,0.00162795,0.00688778,0.183806,-0.19294,-0.00440702,0.0109,0.91831,5,0.1,22,1.5,-4.37991,-3.81932,0.582809,0.598045,-0.366008,0.0163206,-0.381231,0.151485,-0.0103973,0.00942522,0.316496,5,0.1,23,1.5,-4.50044,-2.90869,0.538776,0.099086,-0.57878,-0.0460991,0.31516,-0.0306517,0.102352,0.0146498,0.412586,5,0.1,24,1.5,2.58552,-0.340437,0.571501,-0.551823,-0.197587,-0.0139334,-0.687003,0.185924,0.0309981,0.00959892,2.68043,5,0.1,25,1.5,0.240757,-3.1083,1.02772,-0.288823,0.0206739,0.305953,0.0407574,0.130206,-0.19506,0.0111178,0.129493,5,0.1,26,1.5,-4.04992,-5.45094,0.581207,0.289325,0.222501,0.0181315,-0.101477,-0.577271,-0.00637397,0.0110836,0.251437,5,0.1,27,1.5,4.35053,0.200422,0.610287,-0.142971,-0.0127261,-0.0222151,0.0909865,0.256245,-0.0240467,0.0102965,0.662018,5,0.1,28,1.5,-0.939763,1.85494,0.60567,0.607117,-0.397241,-0.00537867,-0.386517,0.109866,0.00339374,0.00979918,0.298174,5,0.1,29,1.5,-2.57188,4.11648,0.625392,0.342417,0.0551634,-0.0667696,-0.0378937,-0.00616908,0.0073649,0.0100735,0.0678208,5,0.1,30,1.5,0.847591,2.18946,0.73698,-0.60286,-0.230604,0.0618299,-0.166703,-0.291631,-0.149474,0.00976326,0.972502,5,0.1,31,1.5,3.73728,-3.66007,0.596698,0.740296,-0.361566,0.0422738,-0.361621,0.230521,-0.0269488,0.011765,0.399373,5,0.1,32,1.5,3.61789,-0.958243,0.500005,-0.117141,0.664737,8.801e-05,0.56015,-0.514004,0.00278279,0.0264057,0.339252,5,0.1,33,1.5,0.273699,0.339373,0.599314,0.140213,-0.0622051,-0.00512879,-0.478545,-0.109216,0.0106096,0.00987103,0.230739,5,0.1,34,1.5,-2.93011,4.25178,0.598531,0.58904,0.0523426,-0.0101419,-0.46514,0.373214,-0.001885,0.0301132,2.89333,5,0.1,35,1.5,-3.38023,-3.16869,0.604752,0.114852,0.866026,-0.0017602,0.0619292,0,6.70552e-05,0.0331698,2.26253,5,0.1,36,1.5,-0.00124691,-1.73014,0.607606,0.772855,-0.603886,-0.00685295,-0.35058,0.309296,0.00349805,0.0207583,0.570748,5,0.1,37,1.5,1.0727,1.94626,0.525528,0.550203,-0.293819,-0.0456874,-0.706807,0.339247,0.00279024,0.0132721,1.64858,5,0.1,38,1.5,0.748353,-1.49021,0.500005,0.143961,-0.48162,7.63685e-06,-0.0917427,0.122391,0.00409782,0.0121396,0.191423,5,0.1,39,1.5,-1.9643,1.75169,0.599153,0.866025,-0.209511,0.000506453,1.49012e-05,-0.0504106,-5.96046e-05,0.0202041,2.24244,5,0.1
0,1.6,2.78309,-2.9769,0.66619,-0.537527,-0.367063,-0.01937,0.43726,0.2985,0.0157654,0.0107083,0.15258,5,0.1,1,1.6,-1.92904,4.50525,0.500022,0.866026,-0.48691,-0.000447035,-5.96046e-05,0.108719,0.00679493,0.0447117,1.95615,5,0.1,2,1.6,-0.423352,2.49881,0.66762,0.750118,0.341791,0.136156,-0.103235,-0.605464,-0.351071,0.0150794,1.55498,5,0.1,3,1.6,1.13815,-2.50527,0.606995,-0.382364,0.220507,-0.0381917,0.0306368,0.0872612,0.00432134,0.014153,0.0754919,5,0.1,4,1.6,-2.47278,5.24544,0.535036,-0.649261,0.427127,-0.000485778,0.525236,-0.349283,0.000327826,0.0104888,0.217968,5,0.1,5,1.6,-3.27936,-2.29024,0.500002,0.103593,0.729144,7.45058e-06,-0.0460148,0.950933,-5.96046e-05,0.017671,1.92696,5,0.1,6,1.6,0.3,-0.0273664,0.664853,0.0526451,-0.364889,0.0607058,0.0285804,-0.290031,0.0692308,0.00766679,0.168543,5,0.1,7,1.6,-1.4881,-3.00949,0.559949,0.176099,0.664681,-0.021109,-0.153542,-0.315309,0.026226,0.0113526,0.35852,5,0.1,8,1.6,3.87063,-4.40185,0.617954,0.0602186,-0.767326,0.0151381,-0.0488758,-0.493526,-0.0123084,0.00907184,0.929162,5,0.1,9,1.6,0.861111,-2.62262,0.587014,0.241011,-0.585896,-0.0480667,-0.516593,0.47636,0.0390708,0.011174,0.194068,5,0.1,10,1.6,-4.19492,-2.63536,0.948913,0.162053,0.16278,0.270891,-0.290155,0.583649,-0.0987649,0.0137767,0.541122,5,0.1,11,1.6,1.79812,-5.84996,0.59497,-0.358337,2.38419e-05,0.0048995,-0.472903,0,-0.00399351,0.00963073,0.450161,5,0.1,12,1.6,4.39825,-5.10083,0.601922,-0.192916,0.00243187,-0.00568926,0.156879,-0.141144,-0.000923872,0.0520814,1.07831,5,0.1,13,1.6,4.77389,0.794997,0.620798,-0.556397,-0.559881,-0.0201687,0.445843,0.851721,0.0162125,0.0153376,0.300045,5,0.1,14,1.6,-0.87171,-0.770157,0.714347,0.487538,0.850026,0.0304103,-0.252634,-0.176966,-0.0157654,0.0256719,0.769559,5,0.1,15,1.6,-1.56267,-2.85111,1.04972,0.218955,0.00113249,0.309148,-0.0860095,-0.000476837,-0.121593,0.018337,0.1583,5,0.1,16,1.6,0.561234,-5.08667,0.611916,0.052923,0.49181,0.00025928,-0.0430048,-0.399828,-0.000238419,0.0123494,0.150496,5,0.1,17,1.6,-5.68061,-1.15408,0.603488,-0.0566244,0.384423,-0.0128001,0.0224113,-0.151157,0.00506639,0.00867006,0.0735634,5,0.1,18,1.6,-3.93807,3.97234,0.613404,0.858545,-0.0246465,-0.00485033,0.149608,0.0077486,0.00464916,0.0189536,2.27441,5,0.1,19,1.6,-0.406833,1.50271,0.719709,0.10276,-0.0424981,0.0291273,-0.0802577,0.456274,-0.022769,0.0113271,0.800147,5,0.1,20,1.6,3.14504,0.095503,0.625233,0.847769,0.120484,-0.0180021,-0.188828,-0.217471,0.00199676,0.00989853,0.626835,5,0.1,21,1.6,2.22567,-2.0014,0.593422,-0.268382,-0.00770688,0.00641346,0.218391,0.0140667,-0.00524521,0.0118365,2.22347,5,0.1,22,1.6,-4.3221,-3.85518,0.584387,0.556946,-0.350761,0.0152007,-0.453234,0.168562,-0.0123978,0.00823826,0.218121,5,0.1,23,1.6,-4.48908,-2.96651,0.534667,0.126886,-0.574994,-0.0362143,0.231981,0.124216,0.0948608,0.0102877,0.288142,5,0.1,24,1.6,2.5266,-0.359219,0.570294,-0.627762,-0.17755,-0.00996292,-0.75376,0.215232,0.0457466,0.0097651,2.4326,5,0.1,25,1.6,0.212156,-3.10562,1.0573,-0.282193,0.0324786,0.284919,0.100657,0.102401,-0.231683,0.0111282,0.15194,5,0.1,26,1.6,-4.02147,-5.43157,0.582989,0.27945,0.165451,0.0175118,-0.11003,-0.555038,-0.00688434,0.010917,0.223406,5,0.1,27,1.6,4.33671,0.2,0.607979,-0.133157,0,-0.0236109,0.108242,0,-0.00402331,0.00993879,1.20353,5,0.1,28,1.6,-0.881074,1.81586,0.60515,0.565435,-0.38316,-0.00501126,-0.459462,0.182807,0.00402331,0.0107163,0.200456,5,0.1,29,1.6,-2.53791,4.12195,0.618768,0.335789,0.0540853,-0.0654772,-0.107169,-0.0174046,0.0208616,0.00955114,0.0304188,5,0.1,30,1.6,0.786606,2.16493,0.742395,-0.614735,-0.259656,0.046362,-0.0409484,-0.264645,-0.156224,0.00943412,0.727811,5,0.1,31,1.6,3.80938,-3.69502,0.600785,0.699896,-0.336713,0.0393689,-0.464439,0.273943,-0.0320375,0.0137453,0.268363,5,0.1,32,1.6,3.60884,-0.894274,0.500023,-0.0652432,0.61473,0.000229478,0.472546,-0.507712,0.000238419,0.0237403,0.213228,5,0.1,33,1.6,0.285415,0.332622,0.598855,0.0951275,-0.0724971,-0.00405908,-0.417411,-0.0901669,0.0106692,0.00995854,0.440921,5,0.1,34,1.6,-2.87345,4.25882,0.597519,0.544471,0.0874877,-0.0100002,-0.446796,0.317335,0.00458956,0.0219227,2.9954,5,0.1,35,1.6,-3.36847,-3.08209,0.604576,0.119781,0.866026,-0.00174046,0.0306368,0,0.000327826,0.0289616,2.26147,5,0.1,36,1.6,0.0741379,-1.78886,0.606939,0.732874,-0.569063,-0.00645965,-0.467708,0.400126,0.00455976,0.0168962,0.532941,5,0.1,37,1.6,1.12517,1.91878,0.521107,0.50697,-0.254151,-0.0415623,-0.230193,0.44322,0.0726283,0.0106684,1.98758,5,0.1,38,1.6,0.762269,-1.53764,0.500021,0.13407,-0.465322,0.000238419,-0.109047,0.216544,0.00077486,0.0112533,0.130916,5,0.1,39,1.6,-1.8777,1.73054,0.599203,0.866026,-0.212684,0.000497699,-5.96046e-05,-0.00339746,-0.000149012,0.0186406,2.24178,5,0.1
0,1.7,2.73142,-3.01218,0.664329,-0.496536,-0.339081,-0.0178925,0.397205,0.271186,0.0143163,0.0107083,0.15258,5,0.1,1,1.7,-1.84243,4.45695,0.500004,0.866013,-0.479905,2.71015e-05,-0.000461936,0.0570118,0.0029467,0.0447117,1.95615,5,0.1,2,1.7,-0.348817,2.52976,0.679421,0.740219,0.275809,0.0999849,-0.12403,-0.68891,-0.344411,0.0150794,1.55498,5,0.1,3,1.7,1.10031,-2.48314,0.603253,-0.371854,0.218564,-0.0361607,0.178218,-0.114694,0.0342093,0.014153,0.0754919,5,0.1,4,1.7,-2.5352,5.28649,0.534989,-0.60003,0.394382,-0.000455044,0.477195,-0.317216,0.000305474,0.0104888,0.217968,5,0.1,5,1.7,-3.26922,-2.21301,0.500002,0.099377,0.81029,2.04891e-06,-0.0420362,0.643924,-4.47035e-05,0.017671,1.92696,5,0.1,6,1.7,0.305323,-0.0653044,0.671269,0.0530344,-0.393252,0.067472,-0.0184458,-0.253641,0.0615977,0.00766679,0.168543,5,0.1,7,1.7,-1.47126,-2.9444,0.558023,0.160594,0.638412,-0.0169587,-0.158705,-0.239655,0.0534318,0.0113526,0.35852,5,0.1,8,1.7,3.87641,-4.48101,0.619409,0.0556346,-0.814138,0.0139841,-0.0444502,-0.400037,-0.0111796,0.00907184,0.929162,5,0.1,9,1.7,0.882702,-2.67894,0.582393,0.192221,-0.541239,-0.0444042,-0.434939,0.432804,0.0354946,0.011174,0.194068,5,0.1,10,1.7,-4.1802,-2.61596,0.9756,0.132179,0.2264,0.263422,-0.302911,0.651404,-0.064224,0.0137767,0.541122,5,0.1,11,1.7,1.75986,-5.84996,0.595441,-0.406747,2.08616e-05,0.0045253,-0.462428,-5.96046e-05,-0.00362843,0.00963073,0.450161,5,0.1,12,1.7,4.37971,-5.10127,0.601356,-0.178213,-0.010173,-0.00557508,0.142485,-0.0814795,0.00301749,0.0520814,1.07831,5,0.1,13,1.7,4.72037,0.743382,0.618858,-0.514568,-0.472736,-0.0186482,0.405967,0.837546,0.0147521,0.0153376,0.300045,5,0.1,14,1.7,-0.824156,-0.685888,0.717313,0.463765,0.835892,0.0289266,-0.238568,-0.14383,-0.01489,0.0256719,0.769559,5,0.1,15,1.7,-1.54087,-2.851,1.08011,0.219607,0.001093,0.298902,0.0717938,-0.00038743,-0.0968575,0.018337,0.1583,5,0.1,16,1.7,0.566348,-5.03916,0.611941,0.0496238,0.461137,0.000240654,-0.0260808,-0.242472,-0.000149012,0.0123494,0.150496,5,0.1,17,1.7,-5.68618,-1.1163,0.60223,-0.054732,0.371685,-0.0123726,0.0178814,-0.120416,0.00403821,0.00867006,0.0735634,5,0.1,18,1.7,-3.85176,3.9699,0.612939,0.865558,-0.0241138,-0.00448721,0.018701,0.00423193,0.00289455,0.0189536,2.27441,5,0.1,19,1.7,-0.396939,1.50046,0.722513,0.0952232,-0.00573304,0.0269898,-0.0733156,0.263296,-0.0207834,0.0113271,0.800147,5,0.1,20,1.7,3.22902,0.106502,0.623442,0.832348,0.0998618,-0.0178223,-0.156969,-0.195547,0.00234321,0.00989853,0.626835,5,0.1,21,1.7,2.19988,-2.00195,0.594038,-0.247909,0.000678375,0.005922,0.198379,0.233784,-0.0047572,0.0118365,2.22347,5,0.1,22,1.7,-4.26857,-3.88953,0.585848,0.51446,-0.337169,0.0140388,-0.411719,0.119925,-0.0112541,0.00823826,0.218121,5,0.1,23,1.7,-4.47526,-3.02342,0.531503,0.148863,-0.56309,-0.0272399,0.197411,0.135288,0.0842363,0.0102877,0.288142,5,0.1,24,1.7,2.4595,-0.375939,0.569548,-0.717455,-0.157188,-0.00478793,-0.956863,0.195161,0.0553653,0.0097651,2.4326,5,0.1,25,1.7,0.184216,-3.1018,1.08482,-0.27827,0.0441331,0.267145,0.000303686,0.12283,-0.140481,0.0111282,0.15194,5,0.1,26,1.7,-3.99401,-5.41769,0.58471,0.270182,0.113156,0.0169317,-0.0875592,-0.484675,-0.0054799,0.010917,0.223406,5,0.1,27,1.7,4.32391,0.2,0.605628,-0.123008,0,-0.0231525,0.0984073,0,0.0124052,0.00993879,1.20353,5,0.1,28,1.7,-0.826807,1.77845,0.604659,0.519843,-0.364821,-0.00490556,-0.462234,0.194117,-0.00116602,0.0107163,0.200456,5,0.1,29,1.7,-2.50489,4.12727,0.61233,0.324068,0.0521854,-0.0631943,-0.136331,-0.0220537,0.0265688,0.00955114,0.0304188,5,0.1,30,1.7,0.72481,2.13752,0.746244,-0.621496,-0.288991,0.0306247,-0.0610575,-0.296205,-0.155196,0.00943412,0.727811,5,0.1,31,1.7,3.87717,-3.72739,0.604569,0.656772,-0.311034,0.0363659,-0.420004,0.24882,-0.029102,0.0137453,0.268363,5,0.1,32,1.7,3.60431,-0.835254,0.500046,-0.0288509,0.566149,0.000204053,0.266761,-0.478372,-0.000659376,0.0237403,0.213228,5,0.1,33,1.7,0.292986,0.32479,0.598504,0.0578073,-0.0851037,-0.00296095,-0.326972,-0.147901,0.0110455,0.00995854,0.440921,5,0.1,34,1.7,-2.82073,4.26927,0.596557,0.51401,0.122032,-0.00908952,-0.202611,0.353366,0.012897,0.0219227,2.9954,5,0.1,35,1.7,-3.3563,-2.99549,0.604403,0.123772,0.866026,-0.00172351,0.0410676,0,0.000111759,0.0289616,2.26147,5,0.1,36,1.7,0.145368,-1.84386,0.606315,0.693684,-0.531386,-0.00603059,-0.348812,0.369743,0.00420585,0.0168962,0.532941,5,0.1,37,1.7,1.17593,1.89566,0.517252,0.5183,-0.207538,-0.0360657,0.366479,0.480406,0.0406429,0.0106684,1.98758,5,0.1,38,1.7,0.775157,-1.58315,0.500046,0.123848,-0.445058,0.000244845,-0.0990629,0.204489,-0.000517815,0.0112533,0.130916,5,0.1,39,1.7,-1.7911,1.70918,0.599253,0.866025,-0.214777,0.000487641,1.49012e-05,-0.0254661,-7.45058e-05,0.0186406,2.24178,5,0.1
0,1.8,2.68379,-3.04471,0.662612,-0.455612,-0.311142,-0.0164166,0.43118,0.294566,0.015527,0.00877617,0.100679,5,0.1,1,1.8,-1.75584,4.40933,0.500017,0.865835,-0.471139,0.000189245,-0.0038147,0.136375,0.000476837,0.0407198,1.4917,5,0.1,2,1.8,-0.275645,2.55392,0.687879,0.720415,0.208265,0.0713736,-0.291712,-0.644565,-0.214696,0.0131063,1.36392,5,0.1,3,1.8,1.06425,-2.46212,0.599843,-0.347126,0.199723,-0.031738,0.313699,-0.252128,0.0525117,0.0156795,0.189435,5,0.1,4,1.8,-2.59278,5.32432,0.534945,-0.55083,0.361717,-0.000423193,0.518918,-0.343561,0.000327826,0.0108792,0.143847,5,0.1,5,1.8,-3.25951,-2.12943,0.500002,0.0945568,0.854427,-1.49012e-06,-0.0571012,0.231981,-2.98023e-05,0.0194341,1.47516,5,0.1,6,1.8,0.310473,-0.10568,0.678281,0.0494033,-0.41166,0.0722721,-0.0520647,-0.0985265,0.0312924,0.0297388,4.3656,5,0.1,7,1.8,-1.45601,-2.88183,0.556617,0.144017,0.611711,-0.0110209,-0.174046,-0.315189,0.0626445,0.0103911,0.251744,5,0.1,8,1.8,3.88175,-4.56398,0.620751,0.0510514,-0.840211,0.0128314,-0.0481606,-0.092268,-0.0121295,0.00963136,0.644017,5,0.1,9,1.8,0.9,-2.73086,0.578133,0.156258,-0.496644,-0.0407457,-0.286251,0.469804,0.0385046,0.0103523,0.139574,5,0.1,10,1.8,-4.16849,-2.5902,1.00159,0.102258,0.286615,0.255728,-0.291824,0.526071,-0.0993013,0.0118555,0.413584,5,0.1,11,1.8,1.71711,-5.84996,0.595875,-0.445247,1.19209e-05,0.00415146,-0.284672,0,-0.00393391,0.0095932,0.328286,5,0.1,12,1.8,4.36261,-5.10242,0.600818,-0.163531,-0.00987053,-0.00512153,0.154734,0.09799,0.00584126,0.0508648,1.656,5,0.1,13,1.8,4.67098,0.7,0.617069,-0.472641,-0.398071,-0.0171259,0.44322,0.652403,0.0160635,0.0128036,0.223527,5,0.1,14,1.8,-0.779054,-0.603218,0.720126,0.437182,0.814825,0.0272676,-0.303715,-0.303745,-0.0189245,0.0223739,0.728392,5,0.1,15,1.8,-1.51847,-2.85089,1.10946,0.228554,0.001055,0.287488,0.0866652,-0.000596046,-0.140786,0.0172848,0.147707,5,0.1,16,1.8,0.571187,-4.99419,0.611964,0.0471696,0.438321,0.000225008,-0.0252426,-0.234365,-8.9407e-05,0.00863434,0.0867919,5,0.1,17,1.8,-5.69155,-1.0798,0.601015,-0.0526309,0.357494,-0.0118971,0.0259876,-0.175059,0.00584126,0.0107842,0.0558026,5,0.1,18,1.8,-3.76517,3.96751,0.612504,0.866026,-0.0235736,-0.00422299,0,0.00751019,0.0026226,0.0197075,2.27157,5,0.1,19,1.8,-0.387791,1.5008,0.725106,0.0876203,0.00840127,0.0248343,-0.0806898,0.0175834,-0.0228882,0.0100632,1.66939,5,0.1,20,1.8,3.31127,0.115543,0.621677,0.810057,0.0812763,-0.0174105,-0.314474,-0.17656,0.0064075,0.00997462,0.435062,5,0.1,21,1.8,2.17609,-2,0.594606,-0.227469,0.0450969,0.00543147,0.215292,0.635028,-0.0051558,0.0109803,2.06883,5,0.1,22,1.8,-4.21921,-3.92262,0.587195,0.472045,-0.323939,0.0128806,-0.446796,0.156283,-0.012219,0.00967302,0.246996,5,0.1,23,1.8,-4.45951,-3.07889,0.52918,0.164688,-0.544351,-0.0194311,0.112057,0.253797,0.0716746,0.0111133,0.195886,5,0.1,24,1.8,2.3832,-0.390695,0.569346,-0.804871,-0.137991,0.000691414,-0.732064,0.190914,0.0524223,0.0113068,2.44111,5,0.1,25,1.8,0.156376,-3.0968,1.11087,-0.278237,0.0556827,0.253931,0.0168163,0.102282,-0.135958,0.0105929,0.093281,5,0.1,26,1.8,-3.96747,-5.40865,0.586373,0.259864,0.0694752,0.0162855,-0.127196,-0.385523,-0.00795722,0.0126778,0.425235,5,0.1,27,1.8,4.31211,0.2,0.603396,-0.112867,0,-0.0212803,0.10705,0,0.0242889,0.0103802,2.30216,5,0.1,28,1.8,-0.777203,1.74303,0.604159,0.471385,-0.342658,-0.00511259,-0.513077,0.255704,-0.00247359,0.00984407,0.141679,5,0.1,29,1.8,-2.47327,4.13236,0.606164,0.307053,0.049448,-0.0598788,-0.209689,-0.0340939,0.0408888,0.00821919,0.25866,5,0.1,30,1.8,0.662545,2.10726,0.748554,-0.621328,-0.314468,0.015901,0.08744,-0.195026,-0.136793,0.0118621,0.523922,5,0.1,31,1.8,3.94068,-3.75723,0.608058,0.612199,-0.285399,0.0333682,-0.486493,0.270128,-0.0315905,0.00945949,0.183041,5,0.1,32,1.8,3.6025,-0.781078,0.500062,-0.00977516,0.516644,0.000114739,0.124574,-0.521332,-0.00104308,0.0206133,0.432172,5,0.1,33,1.8,0.297293,0.31554,0.598262,0.0299551,-0.0996329,-0.00189245,-0.22988,-0.132307,0.0101626,0.00956751,0.422923,5,0.1,34,1.8,-2.77021,4.28316,0.595722,0.496942,0.154686,-0.0075534,-0.168324,0.285149,0.0171959,0.0221603,2.97963,5,0.1,35,1.8,-3.34376,-2.90889,0.604232,0.126618,0.866026,-0.0017032,0.0100136,0,0.000417233,0.0269896,2.43211,5,0.1,36,1.8,0.212969,-1.89509,0.605734,0.657517,-0.492376,-0.00558645,-0.397772,0.421464,0.00476837,0.0141908,0.371329,5,0.1,37,1.8,1.22997,1.87731,0.513819,0.564381,-0.159621,-0.0328422,0.486672,0.471115,0.0264049,0.0109152,2.33756,5,0.1,38,1.8,0.787039,-1.62654,0.500066,0.113641,-0.42178,0.000154972,-0.107527,0.271738,-0.00113249,0.00913299,0.318021,5,0.1,39,1.8,-1.70449,1.68763,0.599301,0.866026,-0.215566,0.000476837,0,0.0188947,-0.000149012,0.0186577,1.93224,5,0.1
0,1.9,2.64027,-3.07444,0.661044,-0.415665,-0.283853,-0.0149781,0.380158,0.259668,0.0136942,0.00877617,0.100679,5,0.1,1,1.9,-1.66926,4.36281,0.500037,0.865659,-0.459796,0.000185799,-0.00799447,0.111043,-0.000458211,0.0407198,1.4917,5,0.1,2,1.9,-0.204995,2.57158,0.694145,0.69261,0.146285,0.0568301,-0.288448,-0.563294,-0.0456162,0.0131063,1.36392,5,0.1,3,1.9,1.0312,-2.44358,0.59695,-0.312929,0.169571,-0.0259851,0.368513,-0.340208,0.0610687,0.0156795,0.189435,5,0.1,4,1.9,-2.64541,5.35886,0.534904,-0.502754,0.329884,-0.000392366,0.457644,-0.302881,0.000294298,0.0108792,0.143847,5,0.1,5,1.9,-3.25032,-2.04328,0.500002,0.0892695,0.865215,-3.53903e-06,-0.0517517,0.0255704,-7.45058e-06,0.0194341,1.47516,5,0.1,6,1.9,0.31483,-0.145143,0.685601,0.0350153,-0.358672,0.0734825,-0.2157,1.0392,-0.00687689,0.0297388,4.3656,5,0.1,7,1.9,-1.44246,-2.82209,0.555844,0.127324,0.583935,-0.00434378,-0.161856,-0.264317,0.0684299,0.0103911,0.251744,5,0.1,8,1.9,3.88663,-4.64843,0.621976,0.0465862,-0.847585,0.0117074,-0.0425279,-0.0208616,-0.0107028,0.00963136,0.644017,5,0.1,9,1.9,0.914495,-2.77831,0.574241,0.136225,-0.453115,-0.037178,-0.130869,0.414282,0.0339597,0.0103523,0.139574,5,0.1,10,1.9,-4.15969,-2.55889,1.02672,0.074029,0.339072,0.247305,-0.26983,0.494361,-0.0801086,0.0118555,0.413584,5,0.1,11,1.9,1.67117,-5.84996,0.596272,-0.472752,1.11759e-05,0.00378694,-0.239596,-2.98023e-05,-0.00346452,0.0095932,0.328286,5,0.1,12,1.9,4.34699,-5.10276,0.600338,-0.149196,0.00660419,-0.00446774,0.136375,0.298083,0.00710785,0.0508648,1.656,5,0.1,13,1.9,4.62582,0.662991,0.615432,-0.431555,-0.346092,-0.015637,0.391334,0.412431,0.0141822,0.0128036,0.223527,5,0.1,14,1.9,-0.736776,-0.522976,0.722763,0.408809,0.79174,0.0254993,-0.276864,-0.198781,-0.0172593,0.0223739,0.728392,5,0.1,15,1.9,-1.49548,-2.85079,1.13744,0.228439,0.000988692,0.271251,-0.0818893,-0.000715256,-0.186771,0.0172848,0.147707,5,0.1,16,1.9,0.575792,-4.9514,0.611986,0.0450193,0.418359,0.000216998,-0.0197925,-0.183761,-8.19564e-05,0.00863434,0.0867919,5,0.1,17,1.9,-5.6967,-1.0448,0.59985,-0.050509,0.343225,-0.0114206,0.0190139,-0.127837,0.00426918,0.0107842,0.0558026,5,0.1,18,1.9,-3.67856,3.96518,0.612091,0.866026,-0.0230808,-0.00404129,0,0.00368059,0.00128523,0.0197075,2.27157,5,0.1,19,1.9,-0.379411,1.50156,0.727481,0.0801336,0.00262167,0.0227111,-0.071438,-0.215404,-0.0202544,0.0100632,1.66939,5,0.1,20,1.9,3.39083,0.122833,0.619966,0.781459,0.0649521,-0.0168042,-0.28789,-0.150627,0.00632554,0.00997462,0.435062,5,0.1,21,1.9,2.15436,-1.99245,0.595125,-0.207524,0.10439,0.00495398,0.189826,0.546582,-0.00454113,0.0109803,2.06883,5,0.1,22,1.9,-4.17412,-3.95427,0.588425,0.430652,-0.30912,0.0117489,-0.393897,0.150546,-0.0107624,0.00967302,0.246996,5,0.1,23,1.9,-4.44251,-3.13212,0.527576,0.174752,-0.520252,-0.0128337,0.0811815,0.245839,0.0600554,0.0111133,0.195886,5,0.1,24,1.9,2.30008,-0.403609,0.569681,-0.847546,-0.120904,0.00599241,-0.133172,0.154944,0.051748,0.0113068,2.44111,5,0.1,25,1.9,0.128725,-3.09072,1.13566,-0.273762,0.0656083,0.242352,0.0778366,0.0911951,-0.106536,0.0105929,0.093281,5,0.1,26,1.9,-3.94211,-5.4035,0.587963,0.247496,0.034821,0.0155114,-0.127912,-0.300169,-0.00800937,0.0126778,0.425235,5,0.1,27,1.9,4.30133,0.2,0.601399,-0.102951,0,-0.0185624,0.094384,0,0.0295416,0.0103802,2.30216,5,0.1,28,1.9,-0.732627,1.71004,0.603617,0.420079,-0.316853,-0.00586882,-0.516418,0.266112,-0.011228,0.00984407,0.141679,5,0.1,29,1.9,-2.4432,4.13665,0.600489,0.297821,0.0322379,-0.0526761,-0.00753999,-0.280231,0.0974275,0.00821919,0.25866,5,0.1,30,1.9,0.600777,2.07481,0.749478,-0.614047,-0.334281,0.00281138,0.0848509,-0.180975,-0.122581,0.0118621,0.523922,5,0.1,31,1.9,3.9994,-3.78449,0.611245,0.56136,-0.260374,0.0304416,-0.534117,0.238135,-0.0278503,0.00945949,0.183041,5,0.1,32,1.9,3.60206,-0.731899,0.500069,0.000169128,0.467839,1.8999e-05,0.0718236,-0.467185,-0.000856817,0.0206133,0.432172,5,0.1,33,1.9,0.299217,0.304899,0.598122,0.00947411,-0.113101,-0.000919215,-0.172691,-0.127971,0.00914931,0.00956751,0.422923,5,0.1,34,1.9,-2.72064,4.30016,0.595065,0.499973,0.185801,-0.00549052,0.169247,0.315666,0.0230595,0.0221603,2.97963,5,0.1,35,1.9,-3.33101,-2.82303,0.604063,0.128601,0.844155,-0.00167908,0.0218153,-0.414282,0.000167638,0.0269896,2.43211,5,0.1,36,1.9,0.276928,-1.94233,0.605198,0.622932,-0.453159,-0.00514258,-0.32042,0.376597,0.00426173,0.0141908,0.371329,5,0.1,37,1.9,1.28966,1.86367,0.510684,0.635333,-0.113636,-0.0296862,0.843339,0.442661,0.0361092,0.0109152,2.33756,5,0.1,38,1.9,0.797894,-1.66775,0.500076,0.103678,-0.405302,4.69387e-05,-0.0948086,0.0906587,-0.00100583,0.00913299,0.318021,5,0.1,39,1.9,-1.61789,1.66612,0.599348,0.866026,-0.214858,0.000465475,0,0.0063926,-0.000104308,0.0186577,1.93224,5,0.1
0,2,2.6006,-3.10152,0.659614,-0.377488,-0.257772,-0.0136033,0.392079,0.267625,0.0141263,0.0109264,0.115124,5,0.1,1,2,-1.58282,4.31748,0.500052,0.861874,-0.445437,0.000114739,-0.0829697,0.190258,-0.000923872,0.0426717,1.10618,5,0.1,2,2,-0.137331,2.58372,0.7,0.658705,0.100118,0.0640646,-0.405807,-0.346541,0.17783,0.013789,1.16468,5,0.1,3,2,1.00183,-2.42839,0.59466,-0.273815,0.133616,-0.0197887,0.41163,-0.370264,0.0616908,0.0138924,0.27502,5,0.1,4,2,-2.6934,5.39034,0.534867,-0.456768,0.299478,-0.000360608,0.472665,-0.311852,0.000298023,0.0124346,0.0955508,5,0.1,5,2,-3.24167,-1.95675,0.500002,0.0836849,0.864658,-4.47035e-06,-0.0618696,-0.0274777,0,0.0181832,1.1117,5,0.1,6,2,0.317119,-0.174748,0.692854,0.00982806,-0.225196,0.0709713,-0.272378,1.53562,-0.0427961,0.0275598,3.62174,5,0.1,7,2,-1.43053,-2.76509,0.555744,0.111303,0.554788,0.00223368,-0.15986,-0.335336,0.0613332,0.009587,0.17389,5,0.1,8,2,3.89108,-4.73295,0.623094,0.0423133,-0.838685,0.0106335,-0.043869,0.221968,-0.0110567,0.0102919,0.433941,5,0.1,9,2,0.927608,-2.82155,0.570693,0.127161,-0.41151,-0.033766,-0.0631213,0.427365,0.0350177,0.0117137,0.173622,5,0.1,10,2,-4.15358,-2.52276,1.05101,0.0488043,0.380629,0.237855,-0.232458,0.316739,-0.116646,0.0119272,0.29976,5,0.1,11,2,1.62294,-5.84996,0.596633,-0.488836,1.19209e-05,0.00343919,-0.0646114,-0.000238419,-0.00360608,0.00953907,0.229198,5,0.1,12,2,4.33275,-5.1,0.599928,-0.135505,0.0544071,-0.0037238,0.140905,0.637531,0.007689,0.0533277,3.49358,5,0.1,13,2,4.58462,0.630218,0.613939,-0.392187,-0.311127,-0.0142112,0.404596,0.306219,0.0146627,0.011922,0.160997,5,0.1,14,2,-0.697322,-0.444896,0.725224,0.379606,0.768109,0.0236779,-0.316173,-0.302672,-0.0196993,0.0224484,0.71545,5,0.1,15,2,-1.47328,-2.85069,1.16354,0.213555,0.000905991,0.249735,-0.209153,-0.000953674,-0.244856,0.0164503,0.262176,5,0.1,16,2,0.58019,-4.91052,0.612007,0.0428662,0.398374,0.000207126,-0.0246763,-0.229597,-8.9407e-05,0.00977873,0.0663341,5,0.1,17,2,-5.70165,-1.01115,0.598731,-0.048399,0.328958,-0.0109434,0.0252724,-0.169605,0.00563264,0.00810428,0.024876,5,0.1,18,2,-3.59196,3.9629,0.611693,0.866026,-0.022614,-0.00391901,0,0.00667572,0.00137091,0.0168344,2.2716,5,0.1,19,2,-0.371755,1.5,0.729651,0.0729285,-0.0408828,0.0206694,-0.074327,-0.634611,-0.0210702,0.0103198,1.45241,5,0.1,20,2,3.46738,0.128613,0.618321,0.747359,0.0510231,-0.0160441,-0.41461,-0.128537,0.00926852,0.00915289,0.296431,5,0.1,21,2,2.13456,-1.97946,0.595597,-0.188458,0.153551,0.00449717,0.195742,0.432193,-0.00464916,0.0107613,1.9325,5,0.1,22,2,-4.13302,-3.98437,0.589546,0.39109,-0.292081,0.0106692,-0.406265,0.197053,-0.0111163,0.00977398,0.215233,5,0.1,23,2,-4.42474,-3.18281,0.526572,0.179601,-0.492227,-0.00745356,0.0104904,0.326276,0.0474751,0.0103855,0.131007,5,0.1,24,2,2.21556,-0.414957,0.570525,-0.834072,-0.106286,0.0107244,0.388741,0.140429,0.0415742,0.010396,2.79203,5,0.1,25,2,0.101872,-3.08376,1.15934,-0.261876,0.0730813,0.230762,0.162657,0.0547171,-0.132799,0.0123196,0.103054,5,0.1,26,2,-3.91805,-5.40133,0.589471,0.232995,0.0105023,0.0146031,-0.167131,-0.182867,-0.0104606,0.00967403,0.790987,5,0.1,27,2,4.2915,0.2,0.599696,-0.093472,0,-0.0154689,0.0970364,0,0.0318587,0.010446,3.58088,5,0.1,28,2,-0.693228,1.67974,0.602969,0.367597,-0.288519,-0.00710785,-0.534892,0.304103,-0.0124276,0.0170279,0.182354,5,0.1,29,2,-2.41334,4.13827,0.595763,0.299859,-0.00127554,-0.0414327,0.0239611,-0.366688,0.122815,0.0090983,0.228149,5,0.1,30,2,0.539971,2.04064,0.749186,-0.599875,-0.347245,-0.00820607,0.216767,-0.0644922,-0.0961125,0.0104956,0.364835,5,0.1,31,2,4.05276,-3.80934,0.61415,0.504816,-0.236458,0.0276446,-0.598669,0.245452,-0.0286996,0.00918567,0.144286,5,0.1,32,2,3.60234,-0.687443,0.500067,0.00431538,0.421114,-5.66244e-05,0.0106096,-0.475824,-0.000596046,0.0255553,2.86881,5,0.1,33,2,0.299439,0.293018,0.598073,-0.00356957,-0.123688,-8.79169e-05,-0.0851154,-0.0774562,0.00733137,0.00962228,0.354636,5,0.1,34,2,-2.66964,4.32022,0.594634,0.52036,0.214124,-0.00311732,0.193954,0.235558,0.0236034,0.021687,2.83155,5,0.1,35,2,-3.31807,-2.74122,0.603896,0.12964,0.787318,-0.00165403,-0.0064373,-0.70405,0.000417233,0.0270481,2.7224,5,0.1,36,2,0.33757,-1.98575,0.604705,0.588929,-0.414744,-0.00470877,-0.378177,0.401199,0.00455976,0.0140114,0.255837,5,0.1,37,2,1.3574,1.85444,0.507908,0.717577,-0.0721127,-0.0257373,0.735998,0.383556,0.0422597,0.00989449,2.36318,5,0.1,38,2,0.807788,-1.7079,0.500076,0.094156,-0.397941,-4.47035e-05,-0.0977814,0.0807643,-0.00077486,0.0103785,0.240128,5,0.1,39,2,-1.53129,1.64472,0.599394,0.866026,-0.212404,0.000451505,-5.96046e-05,0.0504255,-0.000149012,0.0178306,1.50299,5,0.1
0,2.1,2.56452,-3.12616,0.658314,-0.346461,-0.236594,-0.0124855,0.250116,0.170738,0.00900775,0.0109264,0.115124,5,0.1,1,2.1,-1.49676,4.27381,0.500059,0.860916,-0.42824,2.86847e-05,0.013791,0.17041,-0.000782311,0.0426717,1.10618,5,0.1,2,2.1,-0.0733941,2.59232,0.70775,0.620483,0.0761144,0.0945486,-0.378608,-0.0966191,0.395194,0.013789,1.16468,5,0.1,3,2.1,0.976496,-2.41687,0.592994,-0.232943,0.0970412,-0.0135264,0.404801,-0.354633,0.0621416,0.0138924,0.27502,5,0.1,4,2.1,-2.73685,5.41882,0.534832,-0.41337,0.270844,-0.000332668,0.407964,-0.269055,0.000268221,0.0124346,0.0955508,5,0.1,5,2.1,-3.23359,-1.87029,0.500001,0.0779603,0.864873,-4.37722e-06,-0.0552088,0.0018701,3.72529e-06,0.0181832,1.1117,5,0.1,6,2.1,0.316579,-0.189302,0.699779,-0.0217861,-0.0644606,0.0678391,-0.341816,1.62317,-0.0240169,0.0275598,3.62174,5,0.1,7,2.1,-1.42016,-2.71117,0.556272,0.0963695,0.524409,0.00826623,-0.140697,-0.291854,0.0574663,0.009587,0.17389,5,0.1,8,2.1,3.8951,-4.81573,0.624105,0.0382837,-0.81644,0.00961842,-0.0378937,0.251085,-0.00954047,0.0102919,0.433941,5,0.1,9,2.1,0.940342,-2.86088,0.567465,0.130222,-0.377689,-0.0309949,0.0999905,0.272691,0.0223406,0.0117137,0.173622,5,0.1,10,2.1,-4.14981,-2.48315,1.07426,0.0270844,0.410623,0.227371,-0.199914,0.260606,-0.101954,0.0119272,0.29976,5,0.1,11,2.1,1.57375,-5.84996,0.59696,-0.494403,-8.19564e-06,0.00310848,-0.0259951,-0.000149012,-0.00310317,0.00953907,0.229198,5,0.1,12,2.1,4.31968,-5.09164,0.599594,-0.127739,0.110354,-0.00295937,0.0296533,0.488698,0.00751764,0.0533277,3.49358,5,0.1,13,2.1,4.5473,0.60037,0.612587,-0.355019,-0.287989,-0.0128645,0.349581,0.176448,0.0126623,0.011922,0.160997,5,0.1,14,2.1,-0.660856,-0.369261,0.727499,0.350297,0.746862,0.0218512,-0.280969,-0.164999,-0.0175163,0.0224484,0.71545,5,0.1,15,2.1,-1.45317,-2.8506,1.18736,0.186867,0.000820309,0.22726,-0.314243,-0.00077486,-0.211827,0.0164503,0.262176,5,0.1,16,2.1,0.58437,-4.87168,0.612028,0.0408448,0.379569,0.00019921,-0.017859,-0.166088,-7.82311e-05,0.00977873,0.0663341,5,0.1,17,2.1,-5.70637,-0.979098,0.597664,-0.0458807,0.312022,-0.0103803,0.0264645,-0.178147,0.00593066,0.00810428,0.024876,5,0.1,18,2.1,-3.50536,3.96066,0.611306,0.866026,-0.0222046,-0.00384497,0,0.00284612,0.000376254,0.0168344,2.2716,5,0.1,19,2.1,-0.364812,1.49185,0.731619,0.0660954,-0.128975,0.0187329,-0.0643544,-1.05032,-0.0182353,0.0103198,1.45241,5,0.1,20,2.1,3.54016,0.133114,0.616761,0.708956,0.0393781,-0.0151722,-0.37846,-0.10506,0.00867248,0.00915289,0.296431,5,0.1,21,2.1,2.11664,-1.96249,0.596025,-0.170487,0.181653,0.00406997,0.168905,0.181839,-0.00401959,0.0107613,1.9325,5,0.1,22,2.1,-4.09582,-4.01232,0.590561,0.353792,-0.264542,0.00964915,-0.350505,0.342265,-0.00957772,0.00977398,0.215233,5,0.1,23,2.1,-4.40674,-3.23048,0.526048,0.180019,-0.461589,-0.00319201,-0.00861287,0.301182,0.037618,0.0103855,0.131007,5,0.1,24,2.1,2.13532,-0.424956,0.571804,-0.760434,-0.0943069,0.0147805,1.01259,0.103708,0.0379831,0.010396,2.79203,5,0.1,25,2.1,0.0767478,-3.07617,1.18184,-0.238344,0.0785939,0.219887,0.298739,0.0503063,-0.0960752,0.0123196,0.103054,5,0.1,26,2.1,-3.89563,-5.40113,0.590876,0.214874,-0.00519454,0.0134686,-0.196606,-0.107348,-0.0123158,0.00967403,0.790987,5,0.1,27,2.1,4.28262,0.198855,0.598308,-0.084205,-0.0326735,-0.0122968,0.0900626,-0.587587,0.0312403,0.010446,3.58088,5,0.1,28,2.1,-0.659032,1.65223,0.60219,0.317281,-0.263106,-0.0085176,-0.47677,0.217654,-0.0146963,0.0170279,0.182354,5,0.1,29,2.1,-2.38306,4.13606,0.592217,0.306933,-0.0445664,-0.0296783,0.0934899,-0.472307,0.111222,0.0090983,0.228149,5,0.1,30,2.1,0.480997,2.00559,0.747908,-0.579724,-0.353429,-0.0170876,0.207981,-0.043042,-0.0797026,0.0104956,0.364835,5,0.1,31,2.1,4.09997,-3.83183,0.61678,0.437517,-0.213921,0.0250097,-0.719994,0.21179,-0.0247657,0.00918567,0.144286,5,0.1,32,2.1,3.60309,-0.647267,0.500059,0.0117108,0.386089,-0.000100397,0.0742078,-0.255041,-0.000298023,0.0255553,2.86881,5,0.1,33,2.1,0.298744,0.280351,0.598098,-0.00913893,-0.128713,0.000548828,-0.0152607,-0.0213683,0.00538304,0.00962228,0.354636,5,0.1,34,2.1,-2.6157,4.34232,0.594434,0.565784,0.22318,-0.00094343,0.628456,-0.0388324,0.0196621,0.021687,2.83155,5,0.1,35,2.1,-3.3051,-2.66681,0.603732,0.130065,0.695161,-0.00162972,0.00730157,-1.04725,0.000160187,0.0270481,2.7224,5,0.1,36,2.1,0.394724,-2.02533,0.604256,0.555127,-0.377756,-0.00428846,-0.319473,0.350125,0.00397488,0.0140114,0.255837,5,0.1,37,2.1,1.43289,1.84875,0.505555,0.791511,-0.0452464,-0.0212388,0.686452,0.169985,0.0468194,0.00989449,2.36318,5,0.1,38,2.1,0.816744,-1.74749,0.500069,0.0851781,-0.39507,-0.000103563,-0.0843741,0.00243634,-0.000417233,0.0103785,0.240128,5,0.1,39,2.1,-1.44469,1.6237,0.599438,0.865871,-0.208084,0.000438467,-0.00613183,0.044927,-0.00013411,0.0178306,1.50299,5,0.1
0,2.2,2.53103,-3.14903,0.657107,-0.323695,-0.22105,-0.0116661,0.221252,0.150919,0.00798702,0.0102242,0.0665231,5,0.1,1,2.2,-1.41078,4.23192,0.500058,0.856102,-0.408542,-4.02331e-05,-0.145316,0.235558,-0.000596046,0.0319635,0.791368,5,0.1,2,2.2,-0.0133266,2.6,0.719291,0.579634,0.0827253,0.136654,-0.451878,0.21112,0.41908,0.0142016,0.94615,5,0.1,3,2.2,0.955206,-2.40887,0.591943,-0.193067,0.0638008,-0.00760555,0.391632,-0.305533,0.0551939,0.0110066,1.59067,5,0.1,4,2.2,-2.77617,5.44457,0.5348,-0.373024,0.244248,-0.000303984,0.407696,-0.268221,0.000268221,0.0106298,0.110405,5,0.1,5,2.2,-3.22608,-1.78395,0.500001,0.072211,0.859922,-2.98023e-06,-0.061512,-0.12207,0,0.0171009,0.815044,5,0.1,6,2.2,0.312699,-0.187868,0.706445,-0.0553757,0.0897393,0.0654504,-0.316486,1.41976,-0.0268221,0.0280696,3.31755,5,0.1,7,2.2,-1.41121,-2.66024,0.557367,0.0828445,0.493091,0.013414,-0.131249,-0.347853,0.0441968,0.0111514,0.118667,5,0.1,8,2.2,3.89874,-4.89588,0.62502,0.0345349,-0.783789,0.00867546,-0.0377893,0.42057,-0.00950694,0.0159461,0.287906,5,0.1,9,2.2,0.953968,-2.89738,0.56447,0.142877,-0.352871,-0.0289604,0.134677,0.241041,0.0197589,0.0145701,0.106783,5,0.1,10,2.2,-4.14804,-2.44103,1.09645,0.00915527,0.428981,0.215963,-0.157356,0.0914335,-0.132382,0.0143449,0.208096,5,0.1,11,2.2,1.52438,-5.84996,0.597256,-0.490582,-2.38419e-05,0.00280142,0.116289,0,-0.00303984,0.00867052,0.155295,5,0.1,12,2.2,4.30697,-5.07836,0.599335,-0.126898,0.153208,-0.00223517,-0.00119209,0.371695,0.00694394,0.0561791,3.3992,5,0.1,13,2.2,4.51353,0.572373,0.611363,-0.320423,-0.272371,-0.0116095,0.34976,0.15071,0.0126362,0.0115299,0.116292,5,0.1,14,2.2,-0.627246,-0.29546,0.729596,0.321561,0.727788,0.0200585,-0.301361,-0.246949,-0.0187755,0.0210593,0.994295,5,0.1,15,2.2,-1.43616,-2.85053,1.20903,0.152603,0.000745058,0.206152,-0.362456,-0.000834465,-0.215471,0.0165997,0.253997,5,0.1,16,2.2,0.588362,-4.83458,0.612047,0.0389352,0.361824,0.000189245,-0.0217855,-0.202656,-8.9407e-05,0.00970051,0.0297011,5,0.1,17,2.2,-5.71081,-0.94886,0.596658,-0.0429034,0.291848,-0.0097096,0.0343323,-0.231028,0.0077188,0.00848625,0.0146638,5,0.1,18,2.2,-3.41876,3.95846,0.610924,0.866026,-0.0218272,-0.0037998,0,0.00584126,0.000715256,0.0159443,2.27161,5,0.1,19,2.2,-0.358521,1.47354,0.733402,0.0597157,-0.237432,0.0169247,-0.0646561,-1.06061,-0.0182986,0.00991537,1.17765,5,0.1,20,2.2,3.60906,0.13656,0.615289,0.667471,0.0298806,-0.0142261,-0.468493,-0.0854805,0.0105798,0.00946519,0.199771,5,0.1,21,2.2,2.10042,-1.94351,0.596412,-0.153792,0.197679,0.00367165,0.168562,0.16439,-0.00399351,0.0156086,1.82189,5,0.1,22,2.2,-4.06218,-4.0369,0.591478,0.319135,-0.225735,0.00870228,-0.34976,0.423908,-0.00953674,0.0101923,0.184935,5,0.1,23,2.2,-4.38886,-3.27507,0.5259,0.176799,-0.429523,5.36442e-05,-0.0603199,0.349998,0.0272691,0.0115085,0.148789,5,0.1,24,2.2,2.06489,-0.433898,0.573455,-0.644016,-0.0847526,0.0180557,1.26255,0.090763,0.0264347,0.0100375,3.13435,5,0.1,25,2.2,0.0545669,-3.0681,1.20334,-0.203885,0.0822723,0.209618,0.382116,0.0196695,-0.117302,0.00973827,0.212687,5,0.1,26,2.2,-3.87518,-5.40193,0.592158,0.193501,-0.00780821,0.0121281,-0.231028,0.0629425,-0.0144541,0.00971089,3.64614,5,0.1,27,2.2,4.27465,0.192132,0.597231,-0.0751495,-0.105598,-0.00928193,0.0917912,-0.817597,0.0288188,0.0110882,3.34447,5,0.1,28,2.2,-0.629627,1.62696,0.601268,0.27134,-0.242653,-0.00986159,-0.445783,0.201344,-0.0114441,0.00885984,0.145655,5,0.1,29,2.2,-2.35194,4.12925,0.589779,0.314426,-0.0910521,-0.0193655,0.0391006,-0.437975,0.0943542,0.00686873,0.211205,5,0.1,30,2.2,0.424195,1.97017,0.74584,-0.554632,-0.353149,-0.0238463,0.308559,0.0594854,-0.0543296,0.0102598,0.24815,5,0.1,31,2.2,4.1401,-3.85217,0.619158,0.365233,-0.192982,0.0225618,-0.709057,0.211477,-0.0247359,0.00919729,0.21989,5,0.1,32,2.2,3.60435,-0.609773,0.500047,0.0099957,0.364791,-0.000117719,-0.136733,-0.193685,-8.9407e-05,0.0262445,3.52773,5,0.1,33,2.2,0.29793,0.267476,0.598176,-0.00530705,-0.127737,0.000986457,0.0940561,0.0414848,0.00339746,0.00911704,0.508239,5,0.1,34,2.2,-2.55584,4.36409,0.59443,0.631028,0.209272,0.000780821,0.61214,-0.225544,0.0146925,0.0206563,2.57462,5,0.1,35,2.2,-3.29208,-2.60252,0.60357,0.129795,0.592089,-0.00160635,-0.0180006,-0.963807,0.000417233,0.0272831,2.8916,5,0.1,36,2.2,0.448592,-2.06137,0.603847,0.521371,-0.342768,-0.00389069,-0.370666,0.357866,0.00402331,0.0137531,0.176739,5,0.1,37,2.2,1.51503,1.84483,0.503667,0.845975,-0.0351816,-0.0165313,0.370204,0.0445843,0.0466108,0.010399,2.2889,5,0.1,38,2.2,0.824845,-1.78694,0.500057,0.0768378,-0.393033,-0.00013113,-0.0842512,0.0567436,-0.000149012,0.0179569,0.176214,5,0.1,39,2.2,-1.35818,1.60317,0.599482,0.86357,-0.201911,0.000423193,-0.0491738,0.0846982,-0.000238419,0.0160961,1.159,5,0.1
0,2.3,2.49964,-3.17046,0.655976,-0.305014,-0.208306,-0.0109921,0.166699,0.113741,0.00601634,0.0102242,0.0665231,5,0.1,1,2.3,-1.32573,4.19217,0.500052,0.845396,-0.386833,-8.46572e-05,-0.108764,0.212371,-0.000301749,0.0319635,0.791368,5,0.1,2,2.3,0.0424937,2.60994,0.735204,0.537505,0.120952,0.182404,-0.407413,0.50509,0.468113,0.0142016,0.94615,5,0.1,3,2.3,0.937165,-2.4039,0.591437,-0.173676,0.0368834,-0.00274898,0.0356585,-0.232279,0.0419505,0.0110066,1.59067,5,0.1,4,2.3,-2.81174,5.46786,0.534771,-0.340807,0.223026,-0.00028275,0.258431,-0.170439,0.000171363,0.0106298,0.110405,5,0.1,5,2.3,-3.21914,-1.69835,0.500001,0.0665426,0.853047,-2.8871e-06,-0.0540018,-0.0596568,3.72529e-06,0.0171009,0.815044,5,0.1,6,2.3,0.305219,-0.172396,0.713004,-0.0969312,0.213431,0.0669044,-0.480073,1.04516,0.0448115,0.0280696,3.31755,5,0.1,7,2.3,-1.40354,-2.61256,0.558922,0.0708042,0.461264,0.0175739,-0.111245,-0.304893,0.0375882,0.0111514,0.118667,5,0.1,8,2.3,3.90202,-4.97224,0.625843,0.0310883,-0.74347,0.00780877,-0.0321269,0.409216,-0.00806898,0.0159461,0.287906,5,0.1,9,2.3,0.969027,-2.9316,0.561661,0.158864,-0.332518,-0.0272915,0.168942,0.18166,0.0149012,0.0145701,0.106783,5,0.1,10,2.3,-4.14786,-2.3977,1.11743,-0.0051342,0.436789,0.203833,-0.126988,0.0466555,-0.117525,0.0143449,0.208096,5,0.1,11,2.3,1.47589,-5.84996,0.597521,-0.478948,-2.38419e-05,0.00252416,0.133358,0,-0.00258908,0.00867052,0.155295,5,0.1,12,2.3,4.29426,-5.06171,0.599144,-0.127515,0.176272,-0.00158446,-0.00464916,0.148237,0.0060387,0.0561791,3.3992,5,0.1,13,2.3,4.48313,0.54574,0.610261,-0.288528,-0.26139,-0.0104567,0.297248,0.0846423,0.0107437,0.0115299,0.116292,5,0.1,14,2.3,-0.596509,-0.223948,0.731513,0.293824,0.701632,0.0183297,-0.262566,-0.295129,-0.0163689,0.0210593,0.994295,5,0.1,15,2.3,-1.42273,-2.85046,1.22862,0.115754,0.000668317,0.185894,-0.366911,-0.000715256,-0.194348,0.0165997,0.253997,5,0.1,16,2.3,0.592149,-4.79939,0.612066,0.0367984,0.341955,0.000179652,-0.0220463,-0.204921,-0.000108033,0.00970051,0.0297011,5,0.1,17,2.3,-5.71493,-0.920811,0.595725,-0.039538,0.269148,-0.00895159,0.0340044,-0.229977,0.00767782,0.00848625,0.0146638,5,0.1,18,2.3,-3.33215,3.95629,0.610545,0.866026,-0.0214927,-0.00377893,0,0.00211596,-4.47035e-05,0.0159443,2.27161,5,0.1,19,2.3,-0.352853,1.44423,0.735008,0.0538155,-0.349777,0.0152551,-0.0550412,-1.12814,-0.0155792,0.00991537,1.17765,5,0.1,20,2.3,3.6736,0.139153,0.613917,0.624058,0.0222866,-0.0132393,-0.420466,-0.0670254,0.009574,0.00946519,0.199771,5,0.1,21,2.3,2.08583,-1.92302,0.597074,-0.138427,0.21347,0.0121974,0.143096,0.236355,0.154648,0.0156086,1.82189,5,0.1,22,2.3,-4.03175,-4.05728,0.592308,0.291482,-0.18134,0.00794875,-0.221908,0.455171,-0.00604615,0.0101923,0.184935,5,0.1,23,2.3,-4.37137,-3.31659,0.526035,0.17366,-0.403116,0.0025575,-0.0145435,0.20431,0.0224225,0.0115085,0.148789,5,0.1,24,2.3,2.00721,-0.441982,0.575391,-0.508027,-0.0774327,0.0206133,1.36256,0.0601932,0.023298,0.0100375,3.13435,5,0.1,25,2.3,0.0361916,-3.05984,1.22364,-0.162868,0.0823129,0.195777,0.427617,-0.018701,-0.159897,0.00973827,0.212687,5,0.1,26,2.3,-3.85701,-5.40247,0.593297,0.169815,0.000680238,0.0106457,-0.242099,0.265509,-0.0151582,0.00971089,3.64614,5,0.1,27,2.3,4.2676,0.177664,0.596441,-0.0659376,-0.181746,-0.00657635,0.092566,-0.697169,0.0251494,0.0110882,3.34447,5,0.1,28,2.3,-0.604453,1.60361,0.600246,0.234482,-0.224996,-0.0103757,-0.305615,0.161059,0.000551343,0.00885984,0.145655,5,0.1,29,2.3,-2.32031,4.11778,0.588262,0.317663,-0.139584,-0.0114767,0.0124276,-0.503987,0.0646412,0.00686873,0.211205,5,0.1,30,2.3,0.370193,1.93514,0.743202,-0.525779,-0.347255,-0.0286779,0.286426,0.0714958,-0.0408776,0.0102598,0.24815,5,0.1,31,2.3,4.17307,-3.87057,0.621309,0.295655,-0.176262,0.020606,-0.618547,0.13417,-0.0156946,0.00919729,0.21989,5,0.1,32,2.3,3.60423,-0.574147,0.500036,-0.0171266,0.348465,-0.000116881,-0.415683,-0.148755,9.31323e-05,0.0262445,3.52773,5,0.1,33,2.3,0.297936,0.254945,0.59829,0.00724648,-0.122491,0.0012652,0.198403,0.0650529,0.00215694,0.00911704,0.508239,5,0.1,34,2.3,-2.48903,4.38323,0.594574,0.709508,0.167941,0.00203419,0.872731,-0.56088,0.0103489,0.0206563,2.57462,5,0.1,35,2.3,-3.27915,-2.54799,0.603411,0.129078,0.503553,-0.0015812,-0.00365078,-0.681251,0.000178814,0.0272831,2.8916,5,0.1,36,2.3,0.498907,-2.09388,0.603477,0.484928,-0.307568,-0.00349376,-0.369655,0.350401,0.00396371,0.0137531,0.176739,5,0.1,37,2.3,1.60081,1.84133,0.502242,0.864387,-0.0366529,-0.0120442,0.0578314,-0.0607893,0.0426173,0.010399,2.2889,5,0.1,38,2.3,0.832134,-1.82606,0.500043,0.0691589,-0.389916,-0.000134204,-0.0715181,0.0260472,7.07805e-05,0.0179569,0.176214,5,0.1,39,2.3,-1.27219,1.58346,0.599524,0.85451,-0.191649,0.000430271,-0.157692,0.122346,0.000298023,0.0160961,1.159,5,0.1
0,2.4,2.46998,-3.19072,0.654907,-0.287908,-0.19663,-0.0103757,0.185609,0.126719,0.00670552,0.00979595,0.0517863,5,0.1,1,2.4,-1.24194,4.1546,0.500042,0.827593,-0.363743,-0.000102818,-0.274897,0.258684,-0.000119209,0.0353717,0.551614,5,0.1,2,2.4,0.0941696,2.62472,0.755678,0.495338,0.175232,0.225484,-0.447348,0.543833,0.373453,0.0123697,0.735289,5,0.1,3,2.4,0.919656,-2.40125,0.59135,-0.178917,0.0173569,0.000795722,-0.109792,-0.158548,0.0290871,0.0125442,3.49698,5,0.1,4,2.4,-2.84463,5.48937,0.534743,-0.317538,0.207686,-0.000266731,0.222921,-0.146866,0.000178814,0.0130243,0.0640491,5,0.1,5,2.4,-3.21276,-1.61354,0.5,0.061053,0.840485,-1.49012e-06,-0.0573397,-0.222445,-2.98023e-05,0.0162867,0.577788,5,0.1,6,2.4,0.29309,-0.146504,0.719961,-0.145342,0.297545,0.0724643,-0.462234,0.633735,0.0579953,0.0299319,3.09587,5,0.1,7,2.4,-1.39699,-2.568,0.560847,0.060308,0.42938,0.0206962,-0.100017,-0.343919,0.0239313,0.0109189,0.138574,5,0.1,8,2.4,3.90497,-5.0444,0.626584,0.0279427,-0.698042,0.00701994,-0.031352,0.514984,-0.00792742,0.0103901,0.189938,5,0.1,9,2.4,0.985706,-2.96394,0.559007,0.173898,-0.313866,-0.0257611,0.120163,0.202179,0.0165999,0.0222746,0.0873969,5,0.1,10,2.4,-4.14895,-2.35398,1.1372,-0.0159979,0.435305,0.191224,-0.0898838,-0.0882149,-0.139713,0.0160285,0.250613,5,0.1,11,2.4,1.4288,-5.84996,0.597761,-0.46109,-2.38419e-05,0.00227094,0.235081,0,-0.0025332,0.0102793,0.103424,5,0.1,12,2.4,4.28152,-5.04335,0.599014,-0.126731,0.191486,-0.00103265,0.0247955,0.184059,0.00497699,0.00799715,0.542899,5,0.1,13,2.4,4.45573,0.520021,0.609269,-0.259423,-0.252734,-0.00940412,0.291586,0.0998676,0.01055,0.0121254,0.144837,5,0.1,14,2.4,-0.568436,-0.155465,0.733264,0.267486,0.665646,0.0166878,-0.270516,-0.436805,-0.0168979,0.0201148,0.90661,5,0.1,15,2.4,-1.41295,-2.85039,1.24624,0.0805348,0.000596046,0.166494,-0.331938,-0.000715256,-0.196815,0.0148491,0.250249,5,0.1,16,2.4,0.595711,-4.76629,0.612083,0.0343442,0.319147,0.000166893,-0.027746,-0.25773,-0.000119209,0.0127011,0.0113211,5,0.1,17,2.4,-5.71871,-0.895089,0.59487,-0.0359297,0.244735,-0.00813752,0.0386238,-0.262529,0.00876188,0.00905105,0.00456281,5,0.1,18,2.4,-3.24555,3.95416,0.610168,0.866026,-0.0211835,-0.00376701,0,0.00500679,0.000506639,0.0155808,2.27163,5,0.1,19,2.4,-0.347742,1.4039,0.736457,0.0484183,-0.453061,0.0137269,-0.0541061,-0.895679,-0.0153184,0.00904724,0.903247,5,0.1,20,2.4,3.73384,0.141073,0.612642,0.579882,0.0163581,-0.0122398,-0.477314,-0.052087,0.0106692,0.00880558,0.134037,5,0.1,21,2.4,2.07269,-1.9,0.599194,-0.124425,0.251845,0.0310719,0.140071,0.515223,0.207394,0.0127573,1.16663,5,0.1,22,2.4,-4.00363,-4.07315,0.593075,0.271499,-0.136268,0.00740588,-0.191331,0.439167,-0.00524521,0.00817118,0.35597,5,0.1,23,2.4,-4.35408,-3.35594,0.526392,0.171816,-0.384122,0.00447333,-0.0309944,0.194669,0.0157058,0.00961616,0.0864991,5,0.1,24,2.4,1.96279,-0.449444,0.577554,-0.385818,-0.0719212,0.0224754,1.03325,0.0533909,0.0129938,0.00907349,3.24901,5,0.1,25,2.4,0.0220455,-3.05176,1.24235,-0.120237,0.0786066,0.17764,0.41687,-0.0549555,-0.202537,0.0118914,0.412017,5,0.1,26,2.4,-3.84125,-5.4,0.594285,0.145215,0.0593424,0.00910461,-0.249028,0.88954,-0.0156164,0.0136317,3.1942,5,0.1,27,2.4,4.26147,0.156267,0.595903,-0.0566125,-0.243374,-0.00427514,0.0934601,-0.527002,0.0207722,0.00991091,3.42599,5,0.1,28,2.4,-0.582397,1.58191,0.599227,0.207704,-0.208858,-0.00986904,-0.240773,0.168324,0.00905991,0.0108984,0.247345,5,0.1,29,2.4,-2.28862,4.10138,0.587396,0.314724,-0.186884,-0.00620782,-0.0799894,-0.420809,0.0417829,0.00672296,0.208983,5,0.1,30,2.4,0.319129,1.90088,0.740162,-0.494338,-0.336662,-0.0317931,0.354573,0.14919,-0.0205338,0.0115792,0.166451,5,0.1,31,2.4,4.2,-3.88758,0.623297,0.247777,-0.164187,0.0191942,-0.339985,0.115752,-0.0135601,0.0147567,0.157756,5,0.1,32,2.4,3.6,-0.540077,0.500024,-0.0712454,0.332327,-0.000102818,-0.63765,-0.185132,0.000208616,0.0424772,3.42416,5,0.1,33,2.4,0.3,0.24307,0.598425,0.0373617,-0.114487,0.0014171,0.392422,0.0958219,0.000864267,0.0172023,0.663663,5,0.1,34,2.4,-2.41386,4.39694,0.594822,0.790924,0.104272,0.0028491,0.693917,-0.680923,0.00596046,0.0245219,2.36988,5,0.1,35,2.4,-3.26629,-2.5,0.603254,0.127822,0.466478,-0.00155568,-0.0267029,-0.0795126,0.000417233,0.0478135,2.77054,5,0.1,36,2.4,0.545477,-2.12287,0.603148,0.445552,-0.272012,-0.0030905,-0.42522,0.363469,0.00411272,0.0159114,0.147836,5,0.1,37,2.4,1.68738,1.83727,0.50124,0.866026,-0.0449926,-0.00809431,-5.96046e-05,-0.0958443,0.0360608,0.0113043,2.32488,5,0.1,38,2.4,0.838699,-1.86484,0.50003,0.0621602,-0.384352,-0.000119209,-0.0699759,0.0995994,0.000178814,0.010957,0.129253,5,0.1,39,2.4,-1.18787,1.56498,0.599569,0.827843,-0.17719,0.000469387,-0.39202,0.167549,0.000417233,0.0163969,0.0889272,5,0.1
