id,t,px,py,pz,vx,vy,vz,ax,ay,az,planning_time,qp_cost,planning_report,size,id,t,px,py,pz,vx,vy,vz,ax,ay,az,planning_time,qp_cost,planning_report,size,id,t,px,py,pz,vx,vy,vz,ax,ay,az,planning_time,qp_cost,planning_report,size,id,t,px,py,pz,vx,vy,vz,ax,ay,az,planning_time,qp_cost,planning_report,size,id,t,px,py,pz,vx,vy,vz,ax,ay,az,planning_time,qp_cost,planning_report,size,id,t,px,py,pz,vx,vy,vz,ax,ay,az,planning_time,qp_cost,planning_report,size,id,t,px,py,pz,vx,vy,vz,ax,ay,az,planning_time,qp_cost,planning_report,size,id,t,px,py,pz,vx,vy,vz,ax,ay,az,planning_time,qp_cost,planning_report,size,id,t,px,py,pz,vx,vy,vz,ax,ay,az,planning_time,qp_cost,planning_report,size,id,t,px,py,pz,vx,vy,vz,ax,ay,az,planning_time,qp_cost,planning_report,size,id,t,px,py,pz,vx,vy,vz,ax,ay,az,planning_time,qp_cost,planning_report,size,id,t,px,py,pz,vx,vy,vz,ax,ay,az,planning_time,qp_cost,planning_report,size,id,t,px,py,pz,vx,vy,vz,ax,ay,az,planning_time,qp_cost,planning_report,size,id,t,px,py,pz,vx,vy,vz,ax,ay,az,planning_time,qp_cost,planning_report,size,id,t,px,py,pz,vx,vy,vz,ax,ay,az,planning_time,qp_cost,planning_report,size,id,t,px,py,pz,vx,vy,vz,ax,ay,az,planning_time,qp_cost,planning_report,size,id,t,px,py,pz,vx,vy,vz,ax,ay,az,planning_time,qp_cost,planning_report,size,id,t,px,py,pz,vx,vy,vz,ax,ay,az,planning_time,qp_cost,planning_report,size,id,t,px,py,pz,vx,vy,vz,ax,ay,az,planning_time,qp_cost,planning_report,size,id,t,px,py,pz,vx,vy,vz,ax,ay,az,planning_time,qp_cost,planning_report,size,id,t,px,py,pz,vx,vy,vz,ax,ay,az,planning_time,qp_cost,planning_report,size,id,t,px,py,pz,vx,vy,vz,ax,ay,az,planning_time,qp_cost,planning_report,size,id,t,px,py,pz,vx,vy,vz,ax,ay,az,planning_time,qp_cost,planning_report,size,id,t,px,py,pz,vx,vy,vz,ax,ay,az,planning_time,qp_cost,planning_report,size,id,t,px,py,pz,vx,vy,vz,ax,ay,az,planning_time,qp_cost,planning_report,size,id,t,px,py,pz,vx,vy,vz,ax,ay,az,planning_time,qp_cost,planning_report,size,id,t,px,py,pz,vx,vy,vz,ax,ay,az,planning_time,qp_cost,planning_report,size,id,t,px,py,pz,vx,vy,vz,ax,ay,az,planning_time,qp_cost,planning_report,size,id,t,px,py,pz,vx,vy,vz,ax,ay,az,planning_time,qp_cost,planning_report,size,id,t,px,py,pz,vx,vy,vz,ax,ay,az,planning_time,qp_cost,planning_report,size,id,t,px,py,pz,vx,vy,vz,ax,ay,az,planning_time,qp_cost,planning_report,size,id,t,px,py,pz,vx,vy,vz,ax,ay,az,planning_time,qp_cost,planning_report,size,id,t,px,py,pz,vx,vy,vz,ax,ay,az,planning_time,qp_cost,planning_report,size,id,t,px,py,pz,vx,vy,vz,ax,ay,az,planning_time,qp_cost,planning_report,size,id,t,px,py,pz,vx,vy,vz,ax,ay,az,planning_time,qp_cost,planning_report,size,id,t,px,py,pz,vx,vy,vz,ax,ay,az,planning_time,qp_cost,planning_report,size,id,t,px,py,pz,vx,vy,vz,ax,ay,az,planning_time,qp_cost,planning_report,size,id,t,px,py,pz,vx,vy,vz,ax,ay,az,planning_time,qp_cost,planning_report,size,id,t,px,py,pz,vx,vy,vz,ax,ay,az,planning_time,qp_cost,planning_report,size,id,t,px,py,pz,vx,vy,vz,ax,ay,az,planning_time,qp_cost,planning_report,size
0,0,0.154392,-3.67212,0.654908,0,0,0,0,0,0,0.0346083,3.5122,5,0.1,1,0,2.96899,-3.01977,0.629213,0,0,0,0,0,0,0.0241761,1.76342,5,0.1,2,0,-1.34295,-1.31316,0.578836,0,0,0,0,0,0,0.0219697,2.40197,5,0.1,3,0,0.0315738,1.40621,0.668432,0,0,0,0,0,0,0.0114382,3.5122,5,0.1,4,0,-5.3518,-3.48005,0.56042,0,0,0,0,0,0,0.0398502,3.5122,5,0.1,5,0,-0.382582,5.78893,0.517245,0,0,0,0,0,0,0.0127767,3.5122,5,0.1,6,0,3.85711,-2.74332,0.580204,0,0,0,0,0,0,0.0119013,3.51219,5,0.1,7,0,-1.85746,-5.07074,0.601844,0,0,0,0,0,0,0.0146747,3.5122,5,0.1,8,0,3.23658,-0.048306,0.533656,0,0,0,0,0,0,0.009324,1.72309,5,0.1,9,0,-3.59206,4.72356,0.535945,0,0,0,0,0,0,0.016018,1.17746,5,0.1,10,0,-1.22317,4.09139,0.679191,0,0,0,0,0,0,0.0328371,0.427744,5,0.1,11,0,-2.52003,-3.04516,0.508574,0,0,0,0,0,0,0.0145762,2.31738,5,0.1,12,0,-5.68873,-1.46125,0.584556,0,0,0,0,0,0,0.0107978,3.51219,5,0.1,13,0,-0.185886,2.1075,0.627576,0,0,0,0,0,0,0.0164421,3.3766,5,0.1,14,0,1.78402,2.38541,0.610585,0,0,0,0,0,0,0.0133979,3.52295,5,0.1,15,0,-4.19732,-5.63581,0.64873,0,0,0,0,0,0,0.0234973,1.8418,5,0.1,16,0,-2.21587,4.63084,0.57596,0,0,0,0,0,0,0.01933,0.996084,5,0.1,17,0,-0.641706,-1.30703,0.571161,0,0,0,0,0,0,0.0117012,3.15851,5,0.1,18,0,-3.32022,2.14665,0.505121,0,0,0,0,0,0,0.0119485,3.5122,5,0.1,19,0,1.47497,4.85907,0.523167,0,0,0,0,0,0,0.0136106,0.982233,5,0.1,20,0,-3.86164,-3.64257,0.505547,0,0,0,0,0,0,0.0158475,3.5122,5,0.1,21,0,-1.78107,1.71421,0.540479,0,0,0,0,0,0,0.0230516,3.19234,5,0.1,22,0,-1.5512,-2.91046,0.53221,0,0,0,0,0,0,0.0293227,0.625975,5,0.1,23,0,0.611378,2.79241,0.518979,0,0,0,0,0,0,0.035471,3.5122,5,0.1,24,0,-1.99945,-3.59382,0.649445,0,0,0,0,0,0,0.013011,0.822692,5,0.1,25,0,-4.58136,-3.00177,0.559999,0,0,0,0,0,0,0.012157,1.87641,5,0.1,26,0,-2.63637,1.87328,0.560601,0,0,0,0,0,0,0.0181888,0.737913,5,0.1,27,0,1.25564,2.07755,0.537418,0,0,0,0,0,0,0.0198079,3.51875,5,0.1,28,0,4.04471,-0.603338,0.546643,0,0,0,0,0,0,0.0100478,3.5122,5,0.1,29,0,-0.613081,-0.0824404,0.5336,0,0,0,0,0,0,0.0214694,0.698388,5,0.1,30,0,4.13288,-4.00476,0.556376,0,0,0,0,0,0,0.0220844,3.51219,5,0.1,31,0,-1.24563,5.56409,0.692098,0,0,0,0,0,0,0.0341484,3.5122,5,0.1,32,0,2.48871,-3.6521,0.523158,0,0,0,0,0,0,0.0202932,3.5122,5,0.1,33,0,0.975708,-3.42454,0.677004,0,0,0,0,0,0,0.019578,2.38104,5,0.1,34,0,-1.96185,4.03195,0.515691,0,0,0,0,0,0,0.0363671,3.51219,5,0.1,35,0,2.25057,-2.17977,0.639372,0,0,0,0,0,0,0.0516746,2.65645,5,0.1,36,0,0.698905,1.91811,0.695179,0,0,0,0,0,0,0.0130286,3.01677,5,0.1,37,0,5.22273,1.18503,0.531619,0,0,0,0,0,0,0.0146649,1.00962,5,0.1,38,0,3.8471,-4.92353,0.570781,0,0,0,0,0,0,0.0702794,0.724358,5,0.1,39,0,-3.8497,5.43483,0.678541,0,0,0,0,0,0,0.0149863,3.51219,5,0.1
0,0.1,0.154308,-3.67003,0.654852,-0.00237974,0.0591986,-0.00160187,-0.0423053,1.05244,-0.0284761,0.0346083,3.5122,5,0.1,1,0.1,2.96902,-3.0185,0.629966,0.000918657,0.0361461,0.02136,0.0163317,0.642613,0.37973,0.0241761,1.76342,5,0.1,2,0.1,-1.34296,-1.31163,0.579641,-0.000208989,0.0433594,0.0228526,-0.00371039,0.770822,0.406273,0.0219697,2.40197,5,0.1,3,0.1,0.0307593,1.40429,0.668387,-0.0231201,-0.0545576,-0.00128485,-0.411024,-0.969917,-0.022836,0.0114382,3.5122,5,0.1,4,0.1,-5.34981,-3.47944,0.56044,0.056649,0.0174124,0.000560191,1.00711,0.309572,0.00996515,0.0398502,3.5122,5,0.1,5,0.1,-0.382444,5.78685,0.517227,0.00391784,-0.0591367,-0.000494625,0.0696499,-1.05131,-0.00879541,0.0127767,3.5122,5,0.1,6,0.1,3.85504,-2.74311,0.580216,-0.0589691,0.00594258,0.000342447,-1.04833,0.105619,0.00609085,0.0119013,3.51219,5,0.1,7,0.1,-1.85744,-5.06868,0.60218,0.000608899,0.0584975,0.00951663,0.0108257,1.03992,0.169188,0.0146747,3.5122,5,0.1,8,0.1,3.23712,-0.0496648,0.533725,0.0152148,-0.0385746,0.00196602,0.270486,-0.685771,0.0349507,0.009324,1.72309,5,0.1,9,0.1,-3.59207,4.7227,0.536795,-0.000234321,-0.0244051,0.0241237,-0.00418723,-0.433862,0.42887,0.016018,1.17746,5,0.1,10,0.1,-1.22315,4.09119,0.679891,0.000686944,-0.00567138,0.0198788,0.0122041,-0.100791,0.3534,0.0328371,0.427744,5,0.1,11,0.1,-2.51865,-3.04418,0.508513,0.0391178,0.0280097,-0.00173589,0.695407,0.497937,-0.0308566,0.0145762,2.31738,5,0.1,12,0.1,-5.68822,-1.45923,0.584441,0.0143163,0.0574203,-0.00327211,0.254542,1.0208,-0.0581741,0.0107978,3.51219,5,0.1,13,0.1,-0.186006,2.10545,0.627547,-0.00338163,-0.0580084,-0.000817236,-0.0601187,-1.03126,-0.0145324,0.0164421,3.3766,5,0.1,14,0.1,1.78259,2.38435,0.610586,-0.0406628,-0.0299718,1.80677e-05,-0.722893,-0.532821,0.000320375,0.0133979,3.52295,5,0.1,15,0.1,-4.19638,-5.63462,0.648679,0.0265911,0.0336587,-0.0014442,0.472724,0.598371,-0.025671,0.0234973,1.8418,5,0.1,16,0.1,-2.21591,4.63008,0.576768,-0.00101179,-0.0216573,0.0229378,-0.0179708,-0.385046,0.407789,0.01933,0.996084,5,0.1,17,0.1,-0.63994,-1.30613,0.571191,0.0501324,0.0253972,0.000854675,0.891242,0.451505,0.0151955,0.0117012,3.15851,5,0.1,18,0.1,-3.31819,2.14617,0.505077,0.0576884,-0.0135127,-0.00124434,1.02556,-0.240222,-0.0221245,0.0119485,3.5122,5,0.1,19,0.1,1.475,4.85838,0.52403,0.000741519,-0.019531,0.0245024,0.0131801,-0.347257,0.435594,0.0136106,0.982233,5,0.1,20,0.1,-3.85991,-3.6414,0.505519,0.049188,0.0330534,-0.000800844,0.87446,0.587627,-0.0142418,0.0158475,3.5122,5,0.1,21,0.1,-1.77937,1.71524,0.540541,0.0483358,0.029213,0.00176365,0.859298,0.519335,0.0313558,0.0230516,3.19234,5,0.1,22,0.1,-1.55099,-2.91039,0.533064,0.00596289,0.00179112,0.0242346,0.105999,0.0318587,0.430834,0.0293227,0.625975,5,0.1,23,0.1,0.613214,2.79142,0.518926,0.0521102,-0.0281949,-0.00150483,0.926409,-0.50126,-0.026755,0.035471,3.5122,5,0.1,24,0.1,-1.99877,-3.59398,0.650177,0.0192456,-0.0046283,0.0207605,0.342146,-0.0822842,0.369072,0.013011,0.822692,5,0.1,25,0.1,-4.5805,-3.00052,0.560041,0.0246361,0.0356138,0.00118539,0.437975,0.633121,0.0210702,0.012157,1.87641,5,0.1,26,0.1,-2.63549,1.87289,0.560642,0.0247844,-0.0110621,0.00116769,0.440627,-0.196658,0.0207573,0.0181888,0.737913,5,0.1,27,0.1,1.25429,2.07626,0.537465,-0.0384713,-0.0365674,0.00134595,-0.683926,-0.650108,0.0239313,0.0198079,3.51875,5,0.1,28,0.1,4.04434,-0.60539,0.54675,-0.0106029,-0.0582333,0.00303304,-0.1885,-1.03526,0.0539236,0.0100478,3.5122,5,0.1,29,0.1,-0.612755,-0.0815714,0.53367,0.00927793,0.0246687,0.0019677,0.164937,0.438554,0.0349805,0.0214694,0.698388,5,0.1,30,0.1,4.13291,-4.00267,0.556323,0.0009574,0.0592411,-0.00151666,0.0170171,1.05318,-0.0269599,0.0220844,3.51219,5,0.1,31,0.1,-1.24467,5.56224,0.692149,0.0272628,-0.0526063,0.00144094,0.484675,-0.935227,0.0256151,0.0341484,3.5122,5,0.1,32,0.1,2.48691,-3.65104,0.523108,-0.0510711,0.0300407,-0.00141589,-0.907943,0.534058,-0.0251718,0.0202932,3.5122,5,0.1,33,0.1,0.97469,-3.42316,0.67708,-0.0289141,0.0392515,0.00216309,-0.514034,0.697806,0.0384524,0.019578,2.38104,5,0.1,34,0.1,-1.96394,4.03183,0.515634,-0.0591559,-0.00326857,-0.0016273,-1.05166,-0.0580847,-0.0289269,0.0363671,3.51219,5,0.1,35,0.1,2.25041,-2.17823,0.639331,-0.00446215,0.0436839,-0.00116667,-0.0793338,0.776604,-0.0207461,0.0516746,2.65645,5,0.1,36,0.1,0.700643,1.91809,0.695249,0.0493614,-0.000628643,0.0020138,0.877537,-0.0111684,0.0358038,0.0130286,3.01677,5,0.1,37,0.1,5.22166,1.18536,0.53169,-0.030306,0.00933371,0.00202619,-0.538826,0.165924,0.0360236,0.0146649,1.00962,5,0.1,38,0.1,3.84684,-4.92262,0.570812,-0.0073228,0.025887,0.000865851,-0.130191,0.460237,0.0153966,0.0702794,0.724358,5,0.1,39,0.1,-3.8478,5.43396,0.678578,0.0539299,-0.0245593,0.0010415,0.958756,-0.436574,0.0185184,0.0149863,3.51219,5,0.1
0,0.2,0.153825,-3.65801,0.654527,-0.00752136,0.187099,-0.00506341,-0.0564009,1.40309,-0.0379682,0.0358045,2.92581,5,0.1,1,0.2,2.96921,-3.01115,0.634305,0.00290275,0.114244,0.0675082,0.0218153,0.856757,0.506312,0.0256778,1.4468,5,0.1,2,0.2,-1.343,-1.30283,0.584283,-0.000658631,0.13704,0.0722259,-0.00500679,1.0277,0.541717,0.0207235,1.9707,5,0.1,3,0.2,0.026063,1.39321,0.668126,-0.0730709,-0.172427,-0.00406057,-0.548031,-1.2933,-0.0304282,0.00987002,2.92579,5,0.1,4,0.2,-5.3383,-3.4759,0.560554,0.17904,0.055033,0.00177026,1.34301,0.412703,0.0132918,0.034561,2.92577,5,0.1,5,0.2,-0.381648,5.77483,0.517127,0.0123821,-0.186908,-0.00156313,0.0928789,-1.40142,-0.0117421,0.0117324,3.09588,5,0.1,6,0.2,3.84306,-2.74191,0.580286,-0.186366,0.0187814,0.00108331,-1.39797,0.140786,0.00810623,0.011765,2.92578,5,0.1,7,0.2,-1.85732,-5.0568,0.604113,0.00192523,0.184882,0.0300765,0.0144243,1.3864,0.225604,0.0171064,2.92581,5,0.1,8,0.2,3.24021,-0.0575004,0.534125,0.0480831,-0.121915,0.00621378,0.360727,-0.914361,0.0466108,0.0102614,1.41371,5,0.1,9,0.2,-3.59212,4.71774,0.541695,-0.000745058,-0.0771403,0.0762433,-0.00548363,-0.578403,0.571817,0.0170885,0.966045,5,0.1,10,0.2,-1.22301,4.09004,0.683929,0.00216961,-0.0179291,0.0628263,0.0162721,-0.13423,0.471234,0.035723,0.350944,5,0.1,11,0.2,-2.5107,-3.03849,0.50816,0.123632,0.0885189,-0.00548661,0.92721,0.663996,-0.0411272,0.0150229,1.90145,5,0.1,12,0.2,-5.68532,-1.44757,0.583776,0.0452518,0.181475,-0.0103414,0.33927,1.36107,-0.0775456,0.012062,2.92579,5,0.1,13,0.2,-0.186692,2.09367,0.627381,-0.0106879,-0.183338,-0.00258237,-0.0801533,-1.37496,-0.0193715,0.0171433,2.77034,5,0.1,14,0.2,1.77433,2.37826,0.61059,-0.128514,-0.0947237,5.66244e-05,-0.963867,-0.710487,0.000417233,0.0134738,2.75199,5,0.1,15,0.2,-4.19098,-5.62778,0.648386,0.0840425,0.10637,-0.00456423,0.63014,0.797987,-0.0342131,0.0270093,1.51291,5,0.1,16,0.2,-2.21611,4.62568,0.581428,-0.00319481,-0.06845,0.0724956,-0.0240803,-0.513315,0.543714,0.0258792,0.817239,5,0.1,17,0.2,-0.629756,-1.30097,0.571364,0.158443,0.0802666,0.00270009,1.18831,0.602067,0.0202954,0.0113514,2.5914,5,0.1,18,0.2,-3.30647,2.14343,0.504824,0.182325,-0.0427067,-0.00393391,1.36733,-0.320435,-0.0294745,0.0118071,2.92607,5,0.1,19,0.2,1.47515,4.85441,0.529007,0.00234246,-0.0617266,0.0774413,0.017643,-0.463009,0.580758,0.0137291,0.805872,5,0.1,20,0.2,-3.84992,-3.63469,0.505356,0.155461,0.104469,-0.00253022,1.16599,0.783443,-0.0190139,0.0163105,2.92579,5,0.1,21,0.2,-1.76955,1.72117,0.5409,0.152764,0.0923276,0.00557601,1.14572,0.692487,0.0417531,0.0237462,2.61915,5,0.1,22,0.2,-1.54978,-2.91003,0.537987,0.018844,0.00566244,0.076592,0.141323,0.0424385,0.57447,0.0296428,0.513581,5,0.1,23,0.2,0.623799,2.78569,0.51862,0.164694,-0.0891089,-0.00475496,1.23525,-0.668406,-0.0357032,0.0321644,3.42753,5,0.1,24,0.2,-1.99486,-3.59492,0.654394,0.0608265,-0.014627,0.0656128,0.456214,-0.109792,0.492096,0.0126131,0.674976,5,0.1,25,0.2,-4.57549,-2.99329,0.560282,0.0778675,0.112557,0.00374615,0.583887,0.844121,0.0281036,0.0123608,1.53951,5,0.1,26,0.2,-2.63046,1.87065,0.560879,0.0783324,-0.0349611,0.00368953,0.587583,-0.262201,0.0276864,0.0185603,3.21691,5,0.1,27,0.2,1.24647,2.06883,0.537738,-0.121588,-0.115573,0.00425428,-0.911891,-0.866771,0.0318885,0.0177838,1.4685,5,0.1,28,0.2,4.04219,-0.617218,0.547366,-0.0335097,-0.184046,0.00958592,-0.251293,-1.38035,0.071913,0.0117413,2.92579,5,0.1,29,0.2,-0.61087,-0.0765605,0.534069,0.0293225,0.0779651,0.00621825,0.219911,0.58474,0.0466704,0.0276322,0.572992,5,0.1,30,0.2,4.13311,-3.99064,0.556015,0.00302792,0.18723,-0.0047937,0.0226498,1.40429,-0.0359714,0.0243442,3.06027,5,0.1,31,0.2,-1.23913,5.55155,0.692441,0.0861645,-0.166261,0.00455379,0.646234,-1.24693,0.0341237,0.0369545,2.9258,5,0.1,32,0.2,2.47653,-3.64494,0.52282,-0.161409,0.0949442,-0.00447482,-1.21057,0.712037,-0.0335872,0.0231134,2.9258,5,0.1,33,0.2,0.968817,-3.41518,0.67752,-0.0913829,0.124055,0.00683665,-0.685394,0.930309,0.0512898,0.0226537,1.95353,5,0.1,34,0.2,-1.97595,4.03117,0.515304,-0.186962,-0.0103235,-0.00514239,-1.4022,-0.0777245,-0.038594,0.0436315,2.92579,5,0.1,35,0.2,2.24951,-2.16936,0.639094,-0.0141025,0.138062,-0.00368655,-0.105739,1.03545,-0.0276864,0.047244,2.4699,5,0.1,36,0.2,0.71067,1.91796,0.695659,0.156006,-0.00198483,0.00636429,1.17007,-0.0149608,0.0477433,0.0120924,2.76765,5,0.1,37,0.2,5.2155,1.18726,0.532102,-0.0957847,0.0295013,0.00640452,-0.718355,0.221193,0.0480413,0.0134318,0.828349,5,0.1,38,0.2,3.84536,-4.91736,0.570988,-0.0231385,0.0818133,0.00273585,-0.173688,0.613451,0.0205338,0.0623881,0.594306,5,0.1,39,0.2,-3.83684,5.42897,0.67879,0.170445,-0.0776291,0.00329316,1.27828,-0.58198,0.0246763,0.0149388,2.92581,5,0.1
0,0.3,0.152759,-3.6315,0.653809,-0.0140082,0.348472,-0.0094302,-0.0693202,1.72444,-0.046663,0.0358045,2.92581,5,0.1,1,0.3,2.96962,-2.99497,0.643866,0.00540391,0.212525,0.125588,0.0266731,1.04843,0.61956,0.0256778,1.4468,5,0.1,2,0.3,-1.3431,-1.28342,0.594513,-0.00123084,0.254932,0.134366,-0.00609457,1.25762,0.662871,0.0207235,1.9707,5,0.1,3,0.3,0.0157082,1.36877,0.667551,-0.136099,-0.321166,-0.00756085,-0.673517,-1.5894,-0.0374094,0.00987002,2.92579,5,0.1,4,0.3,-5.31293,-3.4681,0.560805,0.333492,0.102499,0.00329847,1.65036,0.507236,0.0163279,0.034561,2.92577,5,0.1,5,0.3,-0.379894,5.74962,0.516905,0.0230636,-0.312009,-0.00291299,0.114139,-1.0823,-0.0144243,0.0117324,3.09588,5,0.1,6,0.3,3.81665,-2.73924,0.580439,-0.347138,0.0349753,0.00201603,-1.71795,0.173062,0.0099726,0.011765,2.92578,5,0.1,7,0.3,-1.85705,-5.0306,0.608375,0.00358447,0.344336,0.0560221,0.0177324,1.70398,0.277247,0.0171064,2.92581,5,0.1,8,0.3,3.24702,-0.0747672,0.535005,0.0894591,-0.226802,0.0115601,0.441372,-1.11888,0.0570342,0.0102614,1.41371,5,0.1,9,0.3,-3.59223,4.70681,0.552493,-0.00137687,-0.143491,0.141837,-0.00676513,-0.707835,0.699721,0.0170885,0.966045,5,0.1,10,0.3,-1.2227,4.0875,0.692827,0.00403654,-0.0333346,0.116881,0.0199154,-0.164419,0.576615,0.035723,0.350944,5,0.1,11,0.3,-2.49319,-3.02595,0.50742,0.229994,0.164684,-0.00914764,1.13463,0.812486,-0.0315458,0.0150229,1.90145,5,0.1,12,0.3,-5.67891,-1.42185,0.582311,0.0842735,0.338011,-0.0192605,0.416994,1.67271,-0.0953153,0.012062,2.92579,5,0.1,13,0.3,-0.188206,2.0677,0.627015,-0.0198825,-0.341063,-0.00480451,-0.0980841,-1.68253,-0.0237003,0.0171433,2.77034,5,0.1,14,0.3,1.75585,2.36482,0.610586,-0.246839,-0.176935,-0.00022687,-1.3174,-0.882044,-0.00537932,0.0134738,2.75199,5,0.1,15,0.3,-4.17908,-5.61284,0.647739,0.156333,0.194298,-0.00848966,0.771165,0.912249,-0.041876,0.0270093,1.51291,5,0.1,16,0.3,-2.21657,4.61598,0.591695,-0.00595264,-0.127336,0.134866,-0.0294,-0.628203,0.665329,0.0258792,0.817239,5,0.1,17,0.3,-0.607316,-1.28961,0.571747,0.294755,0.149328,0.00502672,1.45412,0.736706,0.0248104,0.0113514,2.5914,5,0.1,18,0.3,-3.28063,2.13737,0.504303,0.339583,-0.0795543,-0.00630859,1.68046,-0.393718,-0.0181794,0.0118071,2.92607,5,0.1,19,0.3,1.47548,4.84567,0.539975,0.00436381,-0.114837,0.144062,0.0215471,-0.566572,0.710689,0.0137291,0.805872,5,0.1,20,0.3,-3.82789,-3.61988,0.505001,0.289559,0.194574,-0.00460865,1.43294,0.962868,-0.0214465,0.0163105,2.92579,5,0.1,21,0.3,-1.74791,1.73425,0.541689,0.284191,0.171763,0.0103674,1.402,0.847362,0.0511296,0.0237462,2.61915,5,0.1,22,0.3,-1.54711,-2.90923,0.548835,0.0350555,0.0105321,0.142489,0.172935,0.0519454,0.702955,0.0296428,0.513581,5,0.1,23,0.3,0.644952,2.772,0.517948,0.244712,-0.196195,-0.00879411,0.415035,-1.3586,-0.0426844,0.0321644,3.42753,5,0.1,24,0.3,-1.98625,-3.59699,0.663686,0.113158,-0.0272181,0.122062,0.55825,-0.134274,0.602167,0.0126131,0.674976,5,0.1,25,0.3,-4.56446,-2.97734,0.560812,0.144848,0.209389,0.00696983,0.71454,1.03295,0.0343919,0.0123608,1.53951,5,0.1,26,0.3,-2.61817,1.86575,0.561396,0.179646,-0.0633631,0.00668811,1.3219,-0.291064,0.0307299,0.0185603,3.21691,5,0.1,27,0.3,1.23031,2.05289,0.538183,-0.196213,-0.203005,0.00343397,-0.582911,-0.847399,-0.0405982,0.0177838,1.4685,5,0.1,28,0.3,4.03744,-0.643299,0.548724,-0.0624128,-0.342799,0.0178562,-0.308841,-1.69642,0.0883676,0.0117413,2.92579,5,0.1,29,0.3,-0.606717,-0.0655183,0.53495,0.0545491,0.145041,0.011571,0.269108,0.715533,0.0570901,0.0276322,0.572992,5,0.1,30,0.3,4.13353,-3.96524,0.555335,0.00563413,0.316643,-0.00893017,0.0278354,1.15646,-0.0442006,0.0243442,3.06027,5,0.1,31,0.3,-1.22692,5.52799,0.693087,0.160487,-0.30967,0.00847941,0.79421,-1.53244,0.0419505,0.0369545,2.9258,5,0.1,32,0.3,2.45366,-3.63148,0.522186,-0.300637,0.176837,-0.00833692,-1.48776,0.875086,-0.041265,0.0231134,2.9258,5,0.1,33,0.3,0.955874,-3.39761,0.678488,-0.170004,0.230775,0.0127197,-0.838686,1.13846,0.0627525,0.0226537,1.95353,5,0.1,34,0.3,-2.00245,4.02971,0.514575,-0.348228,-0.0192545,-0.00958033,-1.72327,-0.0953376,-0.0474155,0.0436315,2.92579,5,0.1,35,0.3,2.24751,-2.15105,0.638572,-0.0262327,0.221347,-0.00686152,-0.129402,0.637636,-0.0338592,0.047244,2.4699,5,0.1,36,0.3,0.731485,1.91765,0.696849,0.253879,-0.00459738,0.020049,0.785604,-0.0342429,0.204347,0.0120924,2.76765,5,0.1,37,0.3,5.20194,1.19144,0.533009,-0.17819,0.0548765,0.0119152,-0.879079,0.270709,0.0587776,0.0134318,0.828349,5,0.1,38,0.3,3.84208,-4.90577,0.571375,-0.043058,0.152188,0.00509089,-0.212476,0.75075,0.0251196,0.0623881,0.594306,5,0.1,39,0.3,-3.81269,5.41797,0.679256,0.317463,-0.144569,0.00613164,1.57103,-0.715345,0.0303313,0.0149388,2.92581,5,0.1
0,0.4,0.151017,-3.58817,0.652637,-0.0206873,0.514627,-0.0139266,-0.0612885,1.52457,-0.0412464,0.0377577,2.51693,5,0.1,1,0.4,2.97029,-2.96857,0.659467,0.0079751,0.313425,0.185214,0.023365,0.925064,0.546575,0.0224223,1.14472,5,0.1,2,0.4,-1.34325,-1.25175,0.611205,-0.00181794,0.375965,0.19816,-0.00530481,1.10954,0.584811,0.0209913,1.55924,5,0.1,3,0.4,-0.00121218,1.32884,0.666611,-0.200991,-0.474298,-0.0111654,-0.59551,-1.40524,-0.0330806,0.00990576,2.51007,5,0.1,4,0.4,-5.27147,-3.45536,0.561215,0.492501,0.151372,0.00487268,1.45936,0.448465,0.0143945,0.036631,2.51013,5,0.1,5,0.4,-0.377026,5.71366,0.516543,0.0340603,-0.400472,-0.00430197,0.100926,-0.676394,-0.0127554,0.0111679,3.14227,5,0.1,6,0.4,3.77349,-2.7349,0.58069,-0.512654,0.0516534,0.00297725,-1.51896,0.152946,0.00882149,0.0114539,2.5709,5,0.1,7,0.4,-1.8566,-4.98779,0.61534,0.00529289,0.508511,0.0827342,0.015676,1.50681,0.245124,0.0161258,2.51316,5,0.1,8,0.4,3.25813,-0.102943,0.536441,0.131935,-0.334482,0.0170484,0.389338,-0.987116,0.0503063,0.0111161,1.11854,5,0.1,9,0.4,-3.5924,4.68899,0.570113,-0.00202656,-0.211608,0.209178,-0.00607967,-0.624657,0.617325,0.0194217,0.764347,5,0.1,10,0.4,-1.2222,4.08336,0.707348,0.0059545,-0.0491619,0.172374,0.0175238,-0.144958,0.508696,0.0355526,0.277671,5,0.1,11,0.4,-2.46462,-3.00549,0.506367,0.339192,0.242871,-0.0117078,1.00088,0.716805,-0.0193715,0.0147636,1.50494,5,0.1,12,0.4,-5.66843,-1.37983,0.579916,0.124454,0.499174,-0.0284433,0.368595,1.47897,-0.084281,0.0097399,2.51089,5,0.1,13,0.4,-0.190676,2.02533,0.626419,-0.0293221,-0.502992,-0.0070855,-0.086531,-1.48433,-0.0209212,0.0161113,2.20375,5,0.1,14,0.4,1.72458,2.34279,0.610531,-0.377113,-0.262141,-0.00089258,-1.22458,-0.783801,-0.00742078,0.0126703,2.23042,5,0.1,15,0.4,-4.15966,-5.58899,0.646685,0.230563,0.280476,-0.0125185,0.680208,0.775814,-0.0369847,0.0264483,1.33175,5,0.1,16,0.4,-2.21731,4.60016,0.608449,-0.00878572,-0.18779,0.198896,-0.0257492,-0.554085,0.586987,0.0173626,0.646611,5,0.1,17,0.4,-0.570699,-1.27105,0.572372,0.434697,0.220224,0.00741482,1.2829,0.649989,0.0218451,0.0116123,2.05034,5,0.1,18,0.4,-3.23841,2.12748,0.503599,0.50149,-0.117493,-0.00760555,1.48594,-0.347972,-0.00795722,0.0111724,2.51196,5,0.1,19,0.4,1.47603,4.83141,0.557871,0.0064373,-0.169361,0.212458,0.0190139,-0.499725,0.627011,0.0136422,0.637615,5,0.1,20,0.4,-3.79189,-3.59569,0.504437,0.427616,0.287348,-0.00662506,1.26708,0.851274,-0.0181198,0.0162628,2.51016,5,0.1,21,0.4,-1.71261,1.75559,0.542977,0.419116,0.253311,0.0152886,1.23692,0.747561,0.0451207,0.0238584,2.0723,5,0.1,22,0.4,-1.54276,-2.90792,0.566536,0.0516981,0.015527,0.210141,0.152588,0.0460148,0.620157,0.0286711,0.40635,5,0.1,23,0.4,0.670486,2.74523,0.51686,0.256924,-0.340623,-0.0128761,-0.128478,-1.44243,-0.0372231,0.0308552,2.85522,5,0.1,24,0.4,-1.97219,-3.60038,0.67885,0.166884,-0.0401437,0.180013,0.492513,-0.118375,0.531256,0.0124876,0.534047,5,0.1,25,0.4,-4.54647,-2.95133,0.561678,0.213611,0.308806,0.0102788,0.630617,0.911236,0.0303388,0.0113886,1.21808,5,0.1,26,0.4,-2.59318,1.85801,0.562213,0.322109,-0.0906199,0.00956655,1.43814,-0.243425,0.0256598,0.023265,2.73157,5,0.1,27,0.4,1.2083,2.02862,0.538256,-0.238833,-0.279164,-0.00248551,-0.273883,-0.65136,-0.071764,0.0184027,1.23365,5,0.1,28,0.4,4.02968,-0.685917,0.550944,-0.0921607,-0.506245,0.0263691,-0.273228,-1.49992,0.0781417,0.0122922,2.51246,5,0.1,29,0.4,-0.59994,-0.0474999,0.536388,0.0804469,0.213903,0.0170648,0.237435,0.631268,0.0503659,0.0193273,0.453358,5,0.1,30,0.4,4.13423,-3.92839,0.554225,0.00832081,0.413996,-0.0131875,0.0245571,0.772953,-0.0391006,0.0179976,3.09949,5,0.1,31,0.4,-1.20697,5.48949,0.694141,0.237006,-0.457323,0.0125229,0.702262,-1.35493,0.0370741,0.0279815,2.51008,5,0.1,32,0.4,2.41628,-3.6095,0.52115,-0.443977,0.261152,-0.0123113,-1.31547,0.773668,-0.0365078,0.0192039,2.51008,5,0.1,33,0.4,0.934754,-3.36894,0.680068,-0.250718,0.340343,0.0187576,-0.739932,1.00434,0.0554025,0.0181122,1.54566,5,0.1,34,0.4,-2.04574,4.02731,0.513384,-0.514257,-0.0284433,-0.0141487,-1.52385,-0.0841618,-0.0419021,0.0320045,2.51531,5,0.1,35,0.4,2.24425,-2.12634,0.637719,-0.0386894,0.26716,-0.0101194,-0.114083,0.286818,-0.0298917,0.0466095,2.38104,5,0.1,36,0.4,0.760156,1.91701,0.699987,0.313142,-0.00829697,0.0434041,0.401616,-0.0373721,0.246137,0.0119836,2.61632,5,0.1,37,0.4,5.1798,1.19825,0.534489,-0.262797,0.0809282,0.0175729,-0.775337,0.238836,0.0518262,0.0139754,0.655403,5,0.1,38,0.4,3.83673,-4.88686,0.572008,-0.0635028,0.224447,0.0075087,-0.187397,0.662088,0.0221729,0.0715716,0.470229,5,0.1,39,0.4,-3.77322,5.4,0.680018,0.468826,-0.213492,0.00905544,1.38903,-0.632524,0.0267923,0.0143329,2.5101,5,0.1
0,0.5,0.148533,-3.5291,0.651067,-0.0298473,0.664804,-0.0171801,-0.112328,1.41086,-0.0238419,0.0377577,2.51693,5,0.1,1,0.5,2.97121,-2.93252,0.680772,0.0103489,0.40728,0.24067,0.0229478,0.906006,0.535332,0.0224223,1.14472,5,0.1,2,0.5,-1.34346,-1.2085,0.633998,-0.00235699,0.48854,0.257495,-0.00521541,1.08672,0.572771,0.0209913,1.55924,5,0.1,3,0.5,-0.0243735,1.27419,0.665324,-0.262271,-0.618902,-0.0145697,-0.598571,-1.41247,-0.0332557,0.00990576,2.51007,5,0.1,4,0.5,-5.21474,-3.43792,0.561776,0.641818,0.197522,0.00635469,1.45131,0.45079,0.0144802,0.036631,2.51013,5,0.1,5,0.5,-0.373101,5.67146,0.516047,0.0444414,-0.432721,-0.00561345,0.101363,-0.0244379,-0.0128075,0.0111679,3.14227,5,0.1,6,0.5,3.71514,-2.72886,0.580948,-0.648306,0.0698186,0.00147615,-1.15959,0.196874,-0.0339523,0.0114539,2.5709,5,0.1,7,0.5,-1.85599,-4.92937,0.624874,0.00690632,0.658468,0.107958,0.0157654,1.42214,0.246383,0.0161258,2.51316,5,0.1,8,0.5,3.27331,-0.141417,0.538402,0.171437,-0.434635,0.0221525,0.381336,-0.966806,0.0492744,0.0111161,1.11854,5,0.1,9,0.5,-3.59263,4.66465,0.594174,-0.0026416,-0.274983,0.271812,-0.00594556,-0.611722,0.604622,0.0194217,0.764347,5,0.1,10,0.5,-1.22151,4.07771,0.727175,0.00773389,-0.0638753,0.223986,0.0171885,-0.142038,0.498228,0.0355526,0.277671,5,0.1,11,0.5,-2.42561,-2.97756,0.505133,0.440745,0.315597,-0.0126816,0.980362,0.702009,-0.00112504,0.0147636,1.50494,5,0.1,12,0.5,-5.65409,-1.3224,0.576639,0.162387,0.648747,-0.0371162,0.370562,1.43911,-0.0847131,0.0097399,2.51089,5,0.1,13,0.5,-0.194049,1.96786,0.625603,-0.0381016,-0.642867,-0.00920808,-0.0847531,-1.26584,-0.0204854,0.0161113,2.20375,5,0.1,14,0.5,1.68098,2.31294,0.610425,-0.491568,-0.331448,-0.00106078,-1.02694,-0.586182,0.00305474,0.0126703,2.23042,5,0.1,15,0.5,-4.13314,-5.55796,0.645245,0.299583,0.331599,-0.0162704,0.66635,0.268608,-0.0362173,0.0264483,1.33175,5,0.1,16,0.5,-2.21832,4.57856,0.631328,-0.0114005,-0.244011,0.258452,-0.0252575,-0.54276,0.574909,0.0173626,0.646611,5,0.1,17,0.5,-0.520698,-1.24572,0.573224,0.564859,0.28617,0.00963155,1.25649,0.636578,0.0213981,0.0116123,2.05034,5,0.1,18,0.5,-3.18074,2.11394,0.502818,0.651162,-0.153301,-0.00782628,1.43492,-0.349775,0.00283867,0.0111724,2.51196,5,0.1,19,0.5,1.47677,4.81193,0.582309,0.00836551,-0.220063,0.276074,0.0185966,-0.489473,0.61411,0.0136422,0.637615,5,0.1,20,0.5,-3.74261,-3.56258,0.503705,0.557999,0.37495,-0.00781352,1.27354,0.855684,-0.00617281,0.0162628,2.51016,5,0.1,21,0.5,-1.6644,1.78472,0.544736,0.544613,0.329158,0.0198673,1.21146,0.732176,0.0442043,0.0238584,2.0723,5,0.1,22,0.5,-1.53681,-2.90613,0.590708,0.0671795,0.0201922,0.273062,0.149451,0.0449866,0.60739,0.0286711,0.40635,5,0.1,23,0.5,0.69479,2.70347,0.515373,0.222732,-0.497091,-0.0169312,-0.514641,-1.59889,-0.0413917,0.0308552,2.85522,5,0.1,24,0.5,-1.95299,-3.60499,0.699556,0.216854,-0.0521548,0.233915,0.482373,-0.115961,0.520322,0.0124876,0.534047,5,0.1,25,0.5,-4.5219,-2.91581,0.56286,0.277591,0.401262,0.0133569,0.617594,0.892535,0.0297166,0.0113886,1.21808,5,0.1,26,0.5,-2.55323,1.84772,0.563299,0.479807,-0.114997,0.012137,1.625,-0.232376,0.024505,0.023265,2.73157,5,0.1,27,0.5,1.18323,1.99723,0.537543,-0.260504,-0.349499,-0.0126013,-0.15334,-0.710994,-0.121597,0.0184027,1.23365,5,0.1,28,0.5,4.01906,-0.744098,0.553983,-0.120275,-0.656101,0.0344097,-0.274599,-1.42622,0.0785328,0.0122922,2.51246,5,0.1,29,0.5,-0.590687,-0.0228956,0.538351,0.104537,0.277951,0.0221744,0.232544,0.618278,0.0493228,0.0193273,0.453358,5,0.1,30,0.5,4.1352,-3.88439,0.552876,0.011012,0.454561,-0.0123637,0.027597,0.0931919,0.0468791,0.0179976,3.09949,5,0.1,31,0.5,-1.17965,5.43679,0.695584,0.30927,-0.596751,0.0163388,0.705853,-1.36197,0.037279,0.0279815,2.51008,5,0.1,32,0.5,2.36512,-3.5794,0.519731,-0.579343,0.340767,-0.0160673,-1.32222,0.777692,-0.0366755,0.0192039,2.51008,5,0.1,33,0.5,0.905915,-3.3298,0.682226,-0.325791,0.442245,0.0243776,-0.724699,0.983715,0.054244,0.0181122,1.54566,5,0.1,34,0.5,-2.10477,4.02404,0.511775,-0.664446,-0.0371031,-0.0178313,-1.41165,-0.0846088,-0.0309348,0.0320045,2.51531,5,0.1,35,0.5,2.2398,-2.09902,0.636555,-0.0502668,0.272057,-0.0131514,-0.111789,-0.142395,-0.0292584,0.0466095,2.38104,5,0.1,36,0.5,0.79302,1.91656,0.705849,0.339648,0.00411607,0.0760219,0.132695,0.251293,0.378672,0.0119836,2.61632,5,0.1,37,0.5,5.14957,1.20756,0.536511,-0.341468,0.105161,0.0228318,-0.759453,0.233926,0.050772,0.0139754,0.655403,5,0.1,38,0.5,3.82942,-4.86105,0.572871,-0.0825159,0.291631,0.00975784,-0.183523,0.648588,0.021711,0.0715716,0.470229,5,0.1,39,0.5,-3.71919,5.3754,0.681062,0.611764,-0.278583,0.0118133,1.39619,-0.635803,0.0269488,0.0143329,2.5101,5,0.1
0,0.6,0.144967,-3.45621,0.649258,-0.0414718,0.785571,-0.0187144,-0.112928,0.960231,-0.00700355,0.0241184,2.33417,5,0.1,1,0.6,2.97235,-2.8876,0.707313,0.012362,0.486785,0.287649,0.0165701,0.651836,0.385076,0.0245803,0.852215,5,0.1,2,0.6,-1.34372,-1.15462,0.662395,-0.00281334,0.583905,0.307757,-0.00375509,0.781834,0.412047,0.0213056,1.16082,5,0.1,3,0.6,-0.053386,1.20572,0.663712,-0.315324,-0.744092,-0.0175178,-0.440192,-1.03873,-0.0244677,0.0100078,2.25896,5,0.1,4,0.6,-5.14382,-3.41607,0.562479,0.769901,0.237477,0.00763834,1.05739,0.331521,0.0106692,0.0355778,2.29438,5,0.1,5,0.6,-0.368186,5.62877,0.515426,0.0534229,-0.415134,-0.00674725,0.0744909,0.334263,-0.00941753,0.0111542,3.23179,5,0.1,6,0.6,3.64534,-2.72091,0.580888,-0.739008,0.0886858,-0.00294149,-0.63324,0.170588,-0.0505745,0.0110245,2.54957,5,0.1,7,0.6,-1.85523,-4.85702,0.636816,0.00830293,0.78125,0.129795,0.0115633,0.987053,0.181198,0.0142793,2.32292,5,0.1,8,0.6,3.29221,-0.189349,0.540845,0.204903,-0.519476,0.0264764,0.274181,-0.695505,0.035435,0.00864225,1.08102,5,0.1,9,0.6,-3.59292,4.63432,0.624151,-0.00316501,-0.328672,0.324871,-0.00429153,-0.439882,0.434935,0.0168786,0.569033,5,0.1,10,0.6,-1.22066,4.07066,0.751877,0.0092417,-0.0763416,0.267707,0.0123382,-0.102282,0.358403,0.0333358,0.206722,5,0.1,11,0.6,-2.377,-2.94275,0.503882,0.526774,0.377202,-0.0121236,0.705361,0.50509,0.0113547,0.0146449,1.121,5,0.1,12,0.6,-5.63612,-1.25088,0.572533,0.195229,0.774625,-0.0446245,0.272751,1.02806,-0.0623167,0.0104105,2.30552,5,0.1,13,0.6,-0.198251,1.89792,0.624588,-0.0455391,-0.748217,-0.011006,-0.0609756,-0.809014,-0.0147223,0.0196661,1.84137,5,0.1,14,0.6,1.62726,2.2773,0.610345,-0.576255,-0.376797,-0.000460446,-0.641942,-0.311017,0.00813603,0.012782,1.80588,5,0.1,15,0.6,-4.1001,-5.52415,0.64345,0.358057,0.338399,-0.0194475,0.47946,-0.112534,-0.026077,0.0228201,0.923201,5,0.1,16,0.6,-2.21957,4.55165,0.65983,-0.0136137,-0.291634,0.308903,-0.018239,-0.390768,0.413567,0.0210065,0.481392,5,0.1,17,0.6,-0.458403,-1.21416,0.574286,0.675122,0.342032,0.0115097,0.903889,0.457942,0.0154078,0.0112552,1.52642,5,0.1,18,0.6,-3.10902,2.09699,0.502063,0.776273,-0.184304,-0.00716746,1.01793,-0.257254,0.00977516,0.0114618,2.20347,5,0.1,19,0.6,1.47769,4.78766,0.612756,0.00999868,-0.263023,0.329967,0.0133514,-0.351906,0.44176,0.0150627,0.47469,5,0.1,20,0.6,-3.68089,-3.52111,0.502909,0.670874,0.45079,-0.0079602,0.936627,0.629425,0.00280142,0.0163515,2.2196,5,0.1,21,0.6,-1.60434,1.82103,0.546927,0.650924,0.393412,0.0237465,0.87148,0.526667,0.0317991,0.0220107,1.54277,5,0.1,22,0.6,-1.5294,-2.9039,0.620822,0.0802934,0.0241399,0.326364,0.107527,0.0324249,0.436932,0.0293071,0.302517,5,0.1,23,0.6,0.714131,2.6461,0.513483,0.16132,-0.645226,-0.0207275,-0.681013,-1.29998,-0.0327229,0.0317399,3.19296,5,0.1,24,0.6,-1.92908,-3.61074,0.725353,0.259182,-0.0623345,0.279576,0.347078,-0.0833273,0.374317,0.0145105,0.397585,5,0.1,25,0.6,-4.49128,-2.87156,0.564333,0.331783,0.479585,0.0159636,0.444412,0.642061,0.0213981,0.0123819,0.906834,5,0.1,26,0.6,-2.49743,1.83516,0.564625,0.631434,-0.135103,0.0142559,1.34158,-0.161469,0.0170767,0.0168019,2.40112,5,0.1,27,0.6,1.15665,1.95893,0.535654,-0.268567,-0.413755,-0.0252336,-0.00464916,-0.542283,-0.124186,0.00825195,0.813707,5,0.1,28,0.6,4.00575,-0.816245,0.557789,-0.144607,-0.779636,0.0413701,-0.201941,-0.996977,0.0577569,0.0100174,2.31801,5,0.1,29,0.6,-0.579158,0.00775772,0.540796,0.124945,0.332208,0.0265017,0.167251,0.444773,0.0354946,0.0191028,0.385711,5,0.1,30,0.6,4.13643,-3.83923,0.551957,0.0135541,0.442261,-0.00537336,0.0221729,-0.297904,0.0859797,0.0161447,3.18462,5,0.1,31,0.6,-1.14544,5.37078,0.697391,0.371832,-0.717461,0.0196442,0.519097,-1.0016,0.0274181,0.0298893,2.23526,5,0.1,32,0.6,2.30103,-3.54171,0.517954,-0.696534,0.409693,-0.0193179,-0.972509,0.572085,-0.0269711,0.0187771,2.29251,5,0.1,33,0.6,0.869986,-3.28102,0.684915,-0.389385,0.528574,0.0291377,-0.521362,0.707626,0.0390112,0.0200201,1.15071,5,0.1,34,0.6,-2.17764,4.01993,0.509861,-0.785327,-0.0445962,-0.0202045,-0.961781,-0.0622272,-0.0160336,0.0307779,2.33359,5,0.1,35,0.6,2.23426,-2.07292,0.635105,-0.0600755,0.246692,-0.0157177,-0.0804663,-0.331163,-0.0210702,0.0398666,1.84337,5,0.1,36,0.6,0.827235,1.91847,0.715376,0.340654,0.0358462,0.114316,-0.10708,0.356495,0.366449,0.0135426,2.28527,5,0.1,37,0.6,5.11191,1.21916,0.539028,-0.408113,0.125691,0.027287,-0.546455,0.168264,0.0365376,0.0135508,0.487945,5,0.1,38,0.6,3.82032,-4.82889,0.573948,-0.0986159,0.348556,0.0116631,-0.132203,0.466585,0.0156164,0.0614039,0.35009,5,0.1,39,0.6,-3.65152,5.34458,0.682368,0.735515,-0.33493,0.0142023,1.02675,-0.467777,0.0198185,0.0146132,2.25008,5,0.1
0,0.7,0.140315,-3.37391,0.64737,-0.050939,0.850394,-0.0188596,-0.0750832,0.36335,0.00387803,0.0241184,2.33417,5,0.1,1,0.7,2.97367,-2.83572,0.73797,0.0139534,0.549362,0.324618,0.0143349,0.56392,0.333175,0.0245803,0.852215,5,0.1,2,0.7,-1.34402,-1.09239,0.695196,-0.00317432,0.658963,0.347314,-0.00324845,0.676431,0.356495,0.0213056,1.16082,5,0.1,3,0.7,-0.087149,1.12687,0.661837,-0.359512,-0.825344,-0.0199739,-0.415683,-0.577174,-0.0231043,0.0100078,2.25896,5,0.1,4,0.7,-5.06258,-3.39064,0.563297,0.844956,0.270755,0.00870936,0.456601,0.313058,0.0100806,0.0355778,2.29438,5,0.1,5,0.7,-0.362505,5.58961,0.514704,0.0598054,-0.363399,-0.00769906,0.0508726,0.608265,-0.00900775,0.0111542,3.23179,5,0.1,6,0.7,3.56913,-2.71145,0.58006,-0.77676,0.0982132,-0.015946,-0.127032,0.0274628,-0.190098,0.0110245,2.54957,5,0.1,7,0.7,-1.85434,-4.77501,0.650714,0.0094641,0.848839,0.147982,0.0109226,0.389069,0.171069,0.0142793,2.32292,5,0.1,8,0.7,3.31405,-0.24463,0.543667,0.231228,-0.583854,0.0298785,0.237241,-0.559211,0.0306591,0.00864225,1.08102,5,0.1,9,0.7,-3.59326,4.59929,0.658775,-0.00357628,-0.370903,0.366626,-0.00369549,-0.380576,0.376303,0.0168786,0.569033,5,0.1,10,0.7,-1.21968,4.06253,0.780409,0.0104276,-0.0861615,0.302115,0.0106916,-0.0885129,0.310093,0.0333358,0.206722,5,0.1,11,0.7,-2.32086,-2.90255,0.502742,0.594491,0.425691,-0.0105474,0.610262,0.436977,0.0193194,0.0146449,1.121,5,0.1,12,0.7,-5.61522,-1.16932,0.567755,0.2226,0.846594,-0.0508788,0.257462,0.42849,-0.0588261,0.0104105,2.30552,5,0.1,13,0.7,-0.203104,1.82037,0.623415,-0.0513929,-0.790713,-0.0124195,-0.0527548,-0.0789315,-0.0127368,0.0196661,1.84137,5,0.1,14,0.7,1.56705,2.23816,0.610214,-0.621579,-0.404647,-0.00321725,-0.261456,-0.227258,-0.0555851,0.012782,1.80588,5,0.1,15,0.7,-4.06193,-5.49145,0.641377,0.404088,0.310313,-0.0219503,0.414848,-0.421375,-0.0225529,0.0228201,0.923201,5,0.1,16,0.7,-2.22102,4.52057,0.692753,-0.015365,-0.329144,0.348607,-0.0157803,-0.338018,0.357818,0.0210065,0.481392,5,0.1,17,0.7,-0.386449,-1.17771,0.575513,0.761899,0.385996,0.0129886,0.782035,0.396192,0.0133291,0.0112552,1.52642,5,0.1,18,0.7,-3.02734,2.07726,0.501402,0.847153,-0.20986,-0.00598188,0.418663,-0.238195,0.0134334,0.0114618,2.20347,5,0.1,19,0.7,1.47875,4.75962,0.647923,0.0112804,-0.296811,0.372378,0.0115409,-0.30455,0.382215,0.0150627,0.47469,5,0.1,20,0.7,-3.60911,-3.47284,0.50214,0.763273,0.513972,-0.00730418,0.855461,0.594348,0.00972301,0.0163515,2.2196,5,0.1,21,0.7,-1.53496,1.86295,0.549458,0.73459,0.443974,0.0267998,0.754006,0.455678,0.0275187,0.0220107,1.54277,5,0.1,22,0.7,-1.52084,-2.90133,0.655605,0.090616,0.0272498,0.368311,0.0930354,0.0279844,0.378035,0.0293071,0.302517,5,0.1,23,0.7,0.728247,2.57672,0.511284,0.133028,-0.72702,-0.0228932,0.0418462,-0.373885,-0.0111163,0.0317399,3.19296,5,0.1,24,0.7,-1.90145,-3.61739,0.75515,0.292501,-0.0703361,0.315511,0.300266,-0.0721365,0.323854,0.0145105,0.397585,5,0.1,25,0.7,-4.45592,-2.82045,0.566035,0.374445,0.541226,0.0180174,0.38442,0.55553,0.0185072,0.0123819,0.906834,5,0.1,26,0.7,-2.42797,1.82078,0.56613,0.752719,-0.152681,0.0157653,1.04097,-0.176005,0.0124015,0.0168019,2.40112,5,0.1,27,0.7,1.13109,1.91614,0.532497,-0.231395,-0.430104,-0.0378611,0.675462,0.165813,-0.122614,0.00825195,0.813707,5,0.1,28,0.7,3.99027,-0.898144,0.562219,-0.164872,-0.848333,0.0471663,-0.190586,-0.398677,0.0545159,0.0100174,2.31801,5,0.1,29,0.7,-0.565842,0.0425079,0.543621,0.141002,0.356278,0.0299087,0.144713,0.0536131,0.0307038,0.0191028,0.385711,5,0.1,30,0.7,4.1379,-3.79725,0.55182,0.0156596,0.392257,0.00232244,0.0188947,-0.608072,0.0673942,0.0161447,3.18462,5,0.1,31,0.7,-1.10563,5.29446,0.699495,0.423939,-0.803855,0.0223973,0.490181,-0.695944,0.0259019,0.0298893,2.23526,5,0.1,32,0.7,2.22761,-3.49784,0.515885,-0.761957,0.467116,-0.0220248,-0.37396,0.540197,-0.0254549,0.0187771,2.29251,5,0.1,33,0.7,0.828486,-3.22469,0.68802,-0.439437,0.596511,0.0328823,-0.451066,0.612289,0.0337474,0.0200201,1.15071,5,0.1,34,0.7,-2.25992,4.01516,0.507804,-0.850311,-0.050839,-0.0205542,-0.364795,-0.0586808,0.00762567,0.0307779,2.33359,5,0.1,35,0.7,2.22785,-2.05024,0.633429,-0.067801,0.205353,-0.0177397,-0.069648,-0.434935,-0.0182129,0.0398666,1.84337,5,0.1,36,0.7,0.860942,1.92383,0.72854,0.335124,0.070739,0.147585,-0.00986457,0.319205,0.284206,0.0135426,2.28527,5,0.1,37,0.7,5.06842,1.23256,0.541937,-0.460575,0.141846,0.0307948,-0.472814,0.145592,0.0316091,0.0135508,0.487945,5,0.1,38,0.7,3.80981,-4.79174,0.575191,-0.111305,0.393355,0.0131621,-0.114337,0.403762,0.0135116,0.0614039,0.35009,5,0.1,39,0.7,-3.57348,5.30872,0.683889,0.818413,-0.381883,0.0161922,0.615299,-0.4417,0.0187233,0.0146132,2.25008,5,0.1
0,0.8,0.134917,-3.28778,0.64552,-0.0562947,0.866026,-0.0179872,-0.0314415,0,0.0133216,0.0253506,2.2701,5,0.1,1,0.8,2.97512,-2.77835,0.771871,0.01508,0.593579,0.350741,0.00751019,0.295997,0.174969,0.0255509,0.601704,5,0.1,2,0.8,-1.34435,-1.02357,0.731467,-0.00343025,0.711995,0.375263,-0.00166893,0.355244,0.187218,0.0224618,0.819602,5,0.1,3,0.8,-0.124951,1.04223,0.659736,-0.393744,-0.859815,-0.0218764,-0.249669,-0.124216,-0.0138879,0.009468,2.20766,5,0.1,4,0.8,-4.97665,-3.36217,0.564213,0.86602,0.296533,0.00953972,0.000238419,0.188112,0.00602007,0.0351556,2.2057,5,0.1,5,0.8,-0.356324,5.55619,0.513894,0.0632316,-0.307512,-0.00844449,0.0162721,0.461578,-0.00551343,0.0110376,3.2153,5,0.1,6,0.8,3.49161,-2.70167,0.577416,-0.765812,0.095588,-0.0375241,0.337362,-0.0734329,-0.226438,0.0116331,2.54621,5,0.1,7,0.8,-1.85334,-4.68894,0.666273,0.0103652,0.866032,0.162068,0.00655651,-0.000238419,0.102699,0.0146078,2.49727,5,0.1,8,0.8,3.3382,-0.305367,0.546787,0.249827,-0.625864,0.0322834,0.124693,-0.25928,0.0160635,0.00851422,0.723429,5,0.1,9,0.8,-3.59363,4.56056,0.697062,-0.00386834,-0.400746,0.396129,-0.00190735,-0.200033,0.197619,0.0152464,0.401774,5,0.1,10,0.8,-1.21859,4.05353,0.811959,0.0112653,-0.0931144,0.326426,0.00560284,-0.0462532,0.16284,0.034467,0.145958,5,0.1,11,0.8,-2.25877,-2.85809,0.501791,0.642335,0.459945,-0.00841469,0.320554,0.229597,0.0226796,0.0160683,0.792217,5,0.1,12,0.8,-5.59181,-1.08333,0.562405,0.243807,0.866026,-0.0557229,0.154257,-5.96046e-05,-0.0353158,0.0109012,2.32783,5,0.1,13,0.8,-0.208471,1.74185,0.622118,-0.0555292,-0.770956,-0.0134185,-0.0277013,0.442505,-0.00670552,0.0169438,1.59114,5,0.1,14,0.8,1.50423,2.19682,0.609561,-0.628394,-0.419164,-0.0102073,0.123441,-0.0507832,-0.0782013,0.0133676,1.65557,5,0.1,15,0.8,-4.01973,-5.46285,0.639085,0.436616,0.259185,-0.0237182,0.217915,-0.578642,-0.0118315,0.022815,1.05294,5,0.1,16,0.8,-2.22263,4.4862,0.729159,-0.0166059,-0.355649,0.37666,-0.00822544,-0.177622,0.187904,0.0162184,0.339883,5,0.1,17,0.8,-0.306883,-1.1374,0.576869,0.823212,0.417057,0.0140339,0.410655,0.20802,0.00700355,0.0123149,1.07915,5,0.1,18,0.8,-2.94133,2.05522,0.500874,0.866026,-0.229293,-0.0045687,0,-0.139475,0.0144243,0.011907,1.68509,5,0.1,19,0.8,1.47993,4.72863,0.686811,0.0121862,-0.320685,0.402345,0.00602007,-0.160217,0.200719,0.0142253,0.335167,5,0.1,20,0.8,-3.52901,-3.41879,0.501465,0.832617,0.562918,-0.00612289,0.493884,0.357032,0.013411,0.0176102,2.10118,5,0.1,21,0.8,-1.45825,1.90932,0.552257,0.793704,0.479698,0.0289574,0.395954,0.239313,0.0144541,0.021758,1.08929,5,0.1,22,0.8,-1.51138,-2.89848,0.694068,0.0979096,0.0294447,0.397949,0.0488162,0.014782,0.198543,0.0290461,0.213593,5,0.1,23,0.8,0.742454,2.50341,0.508971,0.156572,-0.727326,-0.023061,0.371218,0.332236,0.00715256,0.0294321,2.94086,5,0.1,24,0.8,-1.87091,-3.62473,0.788099,0.316042,-0.07599,0.340901,0.157714,-0.0379086,0.170082,0.0128819,0.280714,5,0.1,25,0.8,-4.41682,-2.76392,0.567917,0.404584,0.584787,0.0194684,0.201941,0.291586,0.00971556,0.0126254,0.64027,5,0.1,26,0.8,-2.34826,1.80471,0.567756,0.833327,-0.167894,0.0166193,0.551343,-0.118315,0.00426173,0.0166103,2.03071,5,0.1,27,0.8,1.11195,1.87479,0.528139,-0.146493,-0.389686,-0.048779,0.964999,0.600994,-0.0917315,0.00874344,0.421088,5,0.1,28,0.8,3.97293,-0.984196,0.567178,-0.180566,-0.866026,0.0516549,-0.114322,0,0.0327229,0.00862912,2.34947,5,0.1,29,0.8,-0.551117,0.0778759,0.546744,0.152348,0.346198,0.0323161,0.0759661,-0.239533,0.0160933,0.0177913,0.20436,5,0.1,30,0.8,4.13954,-3.76099,0.552354,0.0171661,0.335038,0.00802726,0.010252,-0.486493,0.046432,0.0187116,3.18746,5,0.1,31,0.8,-1.06105,5.21128,0.70185,0.464305,-0.852585,0.0245303,0.294447,-0.268936,0.0155568,0.0282607,2.08108,5,0.1,32,0.8,2.1503,-3.44872,0.513569,-0.777423,0.511605,-0.024122,0.0418425,0.324488,-0.0152588,0.01656,2.24312,5,0.1,33,0.8,0.782594,-3.16239,0.691454,-0.4748,0.644517,0.0355273,-0.236899,0.321507,0.0177026,0.0175124,0.980042,5,0.1,34,0.8,-2.34604,4.00981,0.505816,-0.866026,-0.0556707,-0.0189438,0,-0.0352859,0.0233352,0.0284471,2.26986,5,0.1,35,0.8,2.22077,-2.03168,0.631577,-0.0732601,0.168741,-0.0191674,-0.0365973,-0.267744,-0.00956655,0.0391254,2.09828,5,0.1,36,0.8,0.894509,1.9323,0.744491,0.336999,0.0963032,0.168909,0.0368953,0.180483,0.134557,0.0136231,2.17811,5,0.1,37,0.8,5.02032,1.24737,0.545153,-0.497651,0.153261,0.0332743,-0.248194,0.0764132,0.0165701,0.0150544,0.344521,5,0.1,38,0.8,3.79819,-4.75066,0.576565,-0.120264,0.425017,0.0142202,-0.0600815,0.211954,0.00712276,0.0587307,0.247194,5,0.1,39,0.8,-3.48931,5.26856,0.685592,0.857478,-0.418258,0.0177354,0.170946,-0.265121,0.0112355,0.014415,2.14766,5,0.1
0,0.9,0.129153,-3.20118,0.643792,-0.0587009,0.866026,-0.0165459,-0.0149324,0,0.0155941,0.0253506,2.2701,5,0.1,1,0.9,2.97667,-2.71758,0.807779,0.0157617,0.620401,0.366596,0.00539422,0.212029,0.12533,0.0255509,0.601704,5,0.1,2,0.9,-1.3447,-0.950681,0.769886,-0.00358187,0.744185,0.392228,-0.00119209,0.254449,0.134096,0.0224618,0.819602,5,0.1,3,0.9,-0.165309,0.95589,0.657508,-0.410612,-0.86456,-0.0224212,-0.0810213,0.0236258,0.00248849,0.009468,2.20766,5,0.1,4,0.9,-4.89005,-3.33154,0.565198,0.866026,0.315985,0.0101633,0,0.180915,0.005804,0.0351556,2.2057,5,0.1,5,0.9,-0.349957,5.52751,0.513017,0.0636951,-0.271818,-0.00910209,-0.00760891,0.139356,-0.00687316,0.0110376,3.2153,5,0.1,6,0.9,3.41634,-2.69299,0.572399,-0.742115,0.0739004,-0.0637196,0.179484,-0.32948,-0.280313,0.0116331,2.54621,5,0.1,7,0.9,-1.85227,-4.60337,0.683015,0.0110438,0.836215,0.172685,0.00631064,-0.553459,0.098709,0.0146078,2.49727,5,0.1,8,0.9,3.36377,-0.368147,0.550092,0.261126,-0.619644,0.0337396,0.0893325,0.347011,0.0115111,0.00851422,0.723429,5,0.1,9,0.9,-3.59403,4.51953,0.737618,-0.00404119,-0.41887,0.414037,-0.00137091,-0.14329,0.141554,0.0152464,0.401774,5,0.1,10,0.9,-1.21743,4.044,0.845378,0.0117742,-0.0973105,0.341182,0.00402331,-0.0331998,0.116639,0.034467,0.145958,5,0.1,11,0.9,-2.19301,-2.811,0.501064,0.671382,0.480747,-0.00614291,0.229597,0.164419,0.0222735,0.0160683,0.792217,5,0.1,12,0.9,-5.56663,-0.997068,0.556649,0.259724,0.855498,-0.0593656,0.14773,-0.222556,-0.0337996,0.0109012,2.32783,5,0.1,13,0.9,-0.214156,1.66799,0.620744,-0.0580394,-0.69833,-0.014026,-0.0198428,0.919953,-0.0048019,0.0169438,1.59114,5,0.1,14,0.9,1.4428,2.15509,0.607884,-0.592992,-0.411358,-0.0254869,0.555903,0.197619,-0.207864,0.0133676,1.65557,5,0.1,15,0.9,-3.97503,-5.44002,0.636657,0.456363,0.196261,-0.0247899,0.156119,-0.652045,-0.00847131,0.022815,1.05294,5,0.1,16,0.9,-2.22433,4.44978,0.767721,-0.0173517,-0.371742,0.393687,-0.00590086,-0.127196,0.134598,0.0162184,0.339883,5,0.1,17,0.9,-0.222793,-1.0947,0.578306,0.855222,0.435906,0.0146683,0.210889,0.148989,0.00501424,0.0123149,1.07915,5,0.1,18,0.9,-2.85473,2.03161,0.500488,0.865959,-0.242437,-0.0031651,-0.00266731,-0.111014,0.0133701,0.011907,1.68509,5,0.1,19,0.9,1.48118,4.6958,0.728003,0.0127317,-0.335202,0.420533,0.00429899,-0.114769,0.143781,0.0142253,0.335167,5,0.1,20,0.9,-3.44413,-3.36064,0.500923,0.857401,0.599905,-0.00471119,0.0293702,0.344574,0.0144392,0.0176102,2.10118,5,0.1,21,0.9,-1.37699,1.95843,0.555221,0.829583,0.501383,0.0302674,0.283614,0.171416,0.0103563,0.021758,1.08929,5,0.1,22,0.9,-1.50136,-2.89547,0.73481,0.102333,0.0307817,0.415939,0.034973,0.0105649,0.142209,0.0290461,0.213593,5,0.1,23,0.9,0.760629,2.43312,0.506735,0.212014,-0.671594,-0.0213588,0.678331,0.752375,0.0254437,0.0294321,2.94086,5,0.1,24,0.9,-1.83855,-3.63251,0.823001,0.330332,-0.0794254,0.356313,0.112951,-0.0271797,0.121824,0.0128819,0.280714,5,0.1,25,0.9,-4.3754,-2.70406,0.56991,0.422879,0.611212,0.0203485,0.144601,0.208899,0.00695884,0.0126254,0.64027,5,0.1,26,0.9,-2.26309,1.7875,0.569445,0.862699,-0.174581,0.017198,0.107408,-0.0159666,0.00613183,0.0166103,2.03071,5,0.1,27,0.9,1.10228,1.83891,0.522932,-0.0462251,-0.32736,-0.054171,1.0068,0.637621,-0.0191815,0.00874344,0.421088,5,0.1,28,0.9,3.95428,-1.07005,0.572514,-0.192362,-0.844701,0.0550305,-0.109449,0.378691,0.031326,0.00862912,2.34947,5,0.1,29,0.9,-0.53552,0.110854,0.550053,0.159232,0.309484,0.0337745,0.0544228,-0.473219,0.0115223,0.0177913,0.20436,5,0.1,30,0.9,4.14131,-3.72962,0.553369,0.0181533,0.297382,0.0120517,0.00849366,-0.187263,0.0336021,0.0187116,3.18746,5,0.1,31,0.9,-1.0131,5.1252,0.704383,0.494546,-0.865186,0.0261286,0.279516,-0.0335872,0.0147745,0.0282607,2.08108,5,0.1,32,0.9,2.07362,-3.39587,0.511111,-0.751376,0.54515,-0.0247399,0.34222,0.311941,0.00238791,0.01656,2.24312,5,0.1,33,0.9,0.733828,-3.09641,0.694935,-0.500711,0.673652,0.0326863,-0.248708,0.230327,-0.0663474,0.0175124,0.980042,5,0.1,34,0.9,-2.43264,4.00406,0.504057,-0.866026,-0.0592999,-0.0160813,0,-0.0335872,0.0327602,0.0284471,2.26986,5,0.1,35,0.9,2.21327,-2.01588,0.629614,-0.0765763,0.151688,-0.0200336,-0.026226,-0.00318885,-0.00684336,0.0391254,2.09828,5,0.1,36,0.9,0.928316,1.94234,0.76212,0.338105,0.100071,0.183946,-0.0244565,-0.0832677,0.151198,0.0136231,2.17811,5,0.1,37,0.9,4.96937,1.26306,0.548559,-0.520142,0.160187,0.0347763,-0.17783,0.0547469,0.0118762,0.0150544,0.344521,5,0.1,38,0.9,3.78588,-4.70715,0.578021,-0.125706,0.444227,0.0148652,-0.0430197,0.151932,0.0050962,0.0587307,0.247194,5,0.1,39,0.9,-3.40304,5.22536,0.687424,0.865492,-0.4457,0.018899,0.0213683,-0.255495,0.0108331,0.014415,2.14766,5,0.1
0,1,0.123247,-3.11458,0.642219,-0.0590021,0.866026,-0.0148594,0.00995025,0,0.0182092,0.024381,2.27004,5,0.1,1,1,2.97826,-2.65481,0.844872,0.0160396,0.631261,0.373016,-0.000357628,-0.0138283,-0.00807643,0.0246565,0.409183,5,0.1,2,1,-1.34506,-0.875384,0.809572,-0.00364184,0.75722,0.399096,5.96046e-05,-0.0163615,-0.00861287,0.0202983,0.557355,5,0.1,3,1,-0.206454,0.869866,0.655302,-0.408992,-0.851949,-0.0214815,0.116296,0.265598,0.0157952,0.00895614,2.46119,5,0.1,4,1,-4.80344,-3.29918,0.566239,0.866032,0.329334,0.0105903,-0.000238419,0.0722408,0.00235438,0.0334508,2.19859,5,0.1,5,1,-0.343669,5.5,0.512076,0.0616327,-0.288248,-0.00968575,-0.0337809,-0.440836,-0.00429153,0.0103664,2.93504,5,0.1,6,1,3.34306,-2.68746,0.564652,-0.722528,0.0351906,-0.090614,0.243187,-0.42069,-0.245005,0.0114394,2.49096,5,0.1,7,1,-1.85114,-4.52314,0.700697,0.0115097,0.762904,0.179963,0.0025034,-0.879765,0.0393391,0.0130972,2.80022,5,0.1,8,1,3.3902,-0.427629,0.553506,0.2657,-0.563314,0.0343293,-0.00560284,0.747712,-0.00077486,0.00978227,0.643024,5,0.1,9,1,-3.59444,4.47715,0.77951,-0.00411272,-0.426209,0.421287,0.000119209,0.00905991,-0.00908971,0.0190766,0.389068,5,0.1,10,1,-1.21624,4.03415,0.879899,0.0119805,-0.0990033,0.347157,-0.000298023,0.00190735,-0.00751019,0.0335332,0.168086,5,0.1,11,1,-2.12508,-2.76236,0.500557,0.683147,0.489169,-0.00404269,-0.014782,-0.0104904,0.0194609,0.0135648,0.545716,5,0.1,12,1,-5.54004,-0.913076,0.550571,0.270593,0.819728,-0.0618517,0.0581741,-0.498652,-0.0133216,0.0098172,2.29567,5,0.1,13,1,-0.220029,1.60297,0.619325,-0.0590559,-0.601301,-0.0142723,0.0012815,0.967443,0.000327826,0.0139821,1.40246,5,0.1,14,1,1.3868,2.11528,0.604215,-0.522563,-0.381494,-0.0483319,0.827789,0.39053,-0.234008,0.0131505,1.7344,5,0.1,15,1,-3.92886,-5.42359,0.634148,0.464362,0.133419,-0.0252232,-0.00989437,-0.585556,0.000536442,0.0237679,2.93443,5,0.1,16,1,-2.22608,4.41217,0.807554,-0.0176549,-0.378263,0.40058,0.000476837,0.00834465,-0.00867248,0.0156069,0.336158,5,0.1,17,1,-0.136655,-1.0506,0.57979,0.863007,0.443536,0.0149265,-0.0603676,-0.00959635,-0.000357628,0.0155817,0.740483,5,0.1,18,1,-2.76817,2.00694,0.500235,0.864965,-0.249425,-0.00194013,-0.0214577,-0.020504,0.0109076,0.0122438,1.28373,5,0.1,19,1,1.48247,4.66188,0.770553,0.0129521,-0.341082,0.427899,-0.000357628,0.00715256,-0.00926852,0.0172685,0.227923,5,0.1,20,1,-3.35884,-3.2992,0.500523,0.842857,0.625384,-0.00330061,-0.304103,0.13864,0.0135005,0.0169001,2.13814,5,0.1,21,1,-1.29305,2.00916,0.558284,0.844112,0.510162,0.0307992,-0.0182986,-0.0109673,-0.000685453,0.0254093,0.740754,5,0.1,22,1,-1.491,-2.89236,0.776895,0.104123,0.0313222,0.423224,-0.00226498,-0.000715256,-0.00914931,0.0278948,0.14525,5,0.1,23,1,0.785327,2.37021,0.504746,0.281851,-0.582439,-0.018239,0.67386,1.00505,0.035733,0.0307723,2.38863,5,0.1,24,1,-1.80513,-3.64055,0.859053,0.336117,-0.0808179,0.362554,-0.00721216,0.00178814,-0.00786781,0.0126612,0.190893,5,0.1,25,1,-4.33261,-2.64221,0.571969,0.430298,0.621909,0.0207037,-0.00953674,-0.0134706,-0.000417233,0.0133197,0.435409,5,0.1,26,1,-2.17657,1.77012,0.571191,0.866026,-0.17128,0.0176445,0,0.0805259,0.00199676,0.0177865,2.25182,5,0.1,27,1,1.10254,1.80937,0.517517,0.0490516,-0.263605,-0.053212,0.874341,0.630915,0.0354648,0.0180082,1.13805,5,0.1,28,1,3.93459,-1.15229,0.578148,-0.200409,-0.797603,0.0573337,-0.043273,0.537872,0.012368,0.0100667,2.47763,5,0.1,29,1,-0.519409,0.139199,0.55347,0.162019,0.255481,0.0343636,-0.00348687,-0.589095,-0.000745058,0.0174262,0.669586,5,0.1,30,1,4.14316,-3.7,0.554718,0.0187039,0.302976,0.0146791,0.00190735,0.273466,0.0187159,0.0173037,3.25209,5,0.1,31,1,-0.962477,5.03861,0.707058,0.514993,-0.866032,0.0272095,0.108153,0.000238419,0.00575185,0.0253396,1.56902,5,0.1,32,1,2,-3.34005,0.508675,-0.723383,0.568157,-0.023748,0.210404,0.124454,0.0168979,0.0162609,2.22272,5,0.1,33,1,0.682713,-3.02825,0.697789,-0.519006,0.685453,0.0237301,-0.0944436,-0.0149012,-0.106156,0.0170756,0.693363,5,0.1,34,1,-2.51925,3.99799,0.50262,-0.866026,-0.0617564,-0.0125989,0,-0.0132322,0.0359714,0.0286742,1.82694,5,0.1,35,1,2.20552,-2,0.627587,-0.0779212,0.172934,-0.0203833,0.00166893,0.406265,0.000447035,0.038722,2.30926,5,0.1,36,1,0.961839,1.95164,0.781197,0.330545,0.0836164,0.196593,-0.13268,-0.227988,0.0910759,0.0134133,3.3662,5,0.1,37,1,4.91674,1.27927,0.552078,-0.529253,0.162992,0.0353828,0.0114441,-0.00357628,-0.000715256,0.0130635,0.373396,5,0.1,38,1,3.77316,-4.6622,0.579525,-0.127906,0.452006,0.0151262,0.00274181,-0.00953674,-0.000327826,0.0625238,0.168112,5,0.1,39,1,-3.31645,5.17971,0.689359,0.866026,-0.464559,0.0196978,0,-0.102758,0.00438094,0.0145785,2.12959,5,0.1
0,1.1,0.117395,-3.02798,0.64082,-0.0580013,0.866026,-0.0131498,0.0122222,0,0.0162758,0.024381,2.27004,5,0.1,1,1.1,2.97986,-2.59178,0.882117,0.0159688,0.628478,0.371379,-0.00163913,-0.0649244,-0.0383072,0.0246565,0.409183,5,0.1,2,1.1,-1.34543,-0.799776,0.849421,-0.0036275,0.7539,0.397347,0.000350177,-0.0777505,-0.0409745,0.0202983,0.557355,5,0.1,3,1.1,-0.246447,0.78654,0.653294,-0.387814,-0.809363,-0.0181392,0.299562,0.577908,0.0475347,0.00895614,2.46119,5,0.1,4,1.1,-4.71684,-3.26582,0.567312,0.866023,0.338133,0.010876,2.98023e-05,0.0840127,0.00272691,0.0334508,2.19859,5,0.1,5,1.1,-0.337627,5.46763,0.511067,0.0595689,-0.369697,-0.0106428,-0.0119265,-1.0787,-0.0131279,0.0103664,2.93504,5,0.1,6,1.1,3.27083,-2.68558,0.554703,-0.731467,0.00650659,-0.105254,-0.325382,-0.170678,-0.0579841,0.0114394,2.49096,5,0.1,7,1.1,-1.84998,-4.45199,0.718927,0.0118149,0.655363,0.184751,0.00291318,-1.17543,0.0456646,0.0130972,2.80022,5,0.1,8,1.1,3.41673,-0.479727,0.556933,0.264546,-0.474539,0.0341765,-0.0272095,0.995146,-0.0035353,0.00978227,0.643024,5,0.1,9,1.1,-3.59485,4.43443,0.821575,-0.0040926,-0.428797,0.419441,0.000447035,-0.0353754,-0.0432432,0.0190766,0.389068,5,0.1,10,1.1,-1.21504,4.02419,0.914806,0.0121644,-0.100561,0.352544,0.00300258,-0.0250041,0.0869483,0.0335332,0.168086,5,0.1,11,1.1,-2.05687,-2.71376,0.500243,0.68015,0.480144,-0.00231052,-0.0701696,-0.172347,0.0150017,0.0135648,0.545716,5,0.1,12,1.1,-5.51267,-0.834546,0.544315,0.276618,0.74279,-0.06323,0.0485182,-0.984184,-0.0111051,0.0098172,2.29567,5,0.1,13,1.1,-0.225926,1.54764,0.6179,-0.0587965,-0.508463,-0.0142081,0.00606664,0.791356,0.00147521,0.0139821,1.40246,5,0.1,14,1.1,1.33867,2.0793,0.597916,-0.440322,-0.3362,-0.0798838,0.813164,0.504926,-0.369072,0.0131505,1.7344,5,0.1,15,1.1,-3.88234,-5.41326,0.63163,0.466783,0.074061,-0.0251131,0.0314713,-0.53677,0.0025928,0.0237679,2.93443,5,0.1,16,1.1,-2.22785,4.37425,0.847552,-0.01757,-0.381035,0.398823,0.00187755,-0.0400543,-0.0411347,0.0156069,0.336158,5,0.1,17,1.1,-0.0506436,-1.00631,0.581281,0.85648,0.44159,0.0148582,-0.103569,-0.0455566,-0.00155345,0.0155817,0.740483,5,0.1,18,1.1,-2.68169,1.98191,0.50009,0.865128,-0.250933,-0.00100555,0.00140071,0.000320375,0.00774488,0.0122438,1.28373,5,0.1,19,1.1,1.48376,4.62782,0.813278,0.0128886,-0.339603,0.426021,-0.00137836,0.0348985,-0.0439435,0.0172685,0.227923,5,0.1,20,1.1,-3.27682,-3.23583,0.500257,0.793465,0.642484,-0.00205869,-0.553295,0.165299,0.0111721,0.0169001,2.13814,5,0.1,21,1.1,-1.20877,2.0601,0.561359,0.840406,0.50793,0.030663,-0.086695,-0.0523627,-0.00316277,0.0254093,0.740754,5,0.1,22,1.1,-1.4806,-2.88923,0.819154,0.103666,0.0311803,0.421368,-0.010699,-0.00326335,-0.0434592,0.0278948,0.14525,5,0.1,23,1.1,0.816707,2.31701,0.50311,0.343478,-0.481464,-0.0144302,0.537872,1.0056,0.039462,0.0307723,2.38863,5,0.1,24,1.1,-1.77157,-3.64862,0.895253,0.334646,-0.0804611,0.360962,-0.0344962,0.00831485,-0.0372492,0.0126612,0.190893,5,0.1,25,1.1,-4.28965,-2.58012,0.574036,0.428391,0.619181,0.0206151,-0.0443459,-0.0638515,-0.00211224,0.0133197,0.435409,5,0.1,26,1.1,-2.08997,1.75322,0.572963,0.866026,-0.168153,0.0177679,0,-0.00242144,-0.000167638,0.0177865,2.25182,5,0.1,27,1.1,1.11011,1.78561,0.512456,0.087386,-0.216385,-0.0472963,-0.0287741,0.339553,0.078626,0.0180082,1.13805,5,0.1,28,1.1,3.91429,-1.22892,0.583954,-0.205587,-0.7344,0.058814,-0.0485182,0.588529,0.013873,0.0100667,2.47763,5,0.1,29,1.1,-0.502918,0.161733,0.556901,0.1702,0.194881,0.0342127,0.141429,-0.609174,-0.00353158,0.0174262,0.669586,5,0.1,30,1.1,4.14504,-3.66859,0.556269,0.0189275,0.322657,0.0162173,0.00166893,0.117347,0.0115633,0.0173037,3.25209,5,0.1,31,1.1,-0.910425,4.95201,0.709808,0.525513,-0.865736,0.0277688,0.0776686,0.0114739,0.00413135,0.0253396,1.56902,5,0.1,32,1.1,1.92782,-3.2825,0.506412,-0.727213,0.583208,-0.0212792,-0.207976,0.142768,0.031203,0.0162609,2.22272,5,0.1,33,1.1,0.630562,-2.95982,0.699582,-0.521522,0.681961,0.0118003,0.0536889,-0.0789613,-0.127096,0.0170756,0.693363,5,0.1,34,1.1,-2.60585,3.99175,0.501538,-0.866026,-0.063055,-0.00906261,0,-0.00977516,0.0341125,0.0286742,1.82694,5,0.1,35,1.1,2.19774,-1.98077,0.625552,-0.077581,0.211241,-0.0202931,0.00797212,0.376478,0.00210479,0.038722,2.30926,5,0.1,36,1.1,0.99444,1.95848,0.801801,0.32301,0.0498645,0.219323,-0.040438,-0.418887,0.322014,0.0134133,3.3662,5,0.1,37,1.1,4.86374,1.29554,0.555611,-0.531378,0.162273,0.0352318,-0.0246763,-0.0167564,-0.00359491,0.0130635,0.373396,5,0.1,38,1.1,3.76039,-4.61707,0.581036,-0.127345,0.450044,0.0150596,0.0131577,-0.0462234,-0.0015609,0.0625238,0.168112,5,0.1,39,1.1,-3.22985,5.13264,0.691355,0.866026,-0.477124,0.0202328,0,-0.120491,0.005126,0.0145785,2.12959,5,0.1
0,1.2,0.111674,-2.94137,0.639585,-0.0561981,0.866026,-0.0115559,0.0252835,0,0.0157952,0.0236372,2.27021,5,0.1,1,1.2,2.98145,-2.5295,0.918923,0.0156164,0.614446,0.363094,-0.00596046,-0.230908,-0.136405,0.0248453,0.272093,5,0.1,2,1.2,-1.34579,-0.72506,0.8888,-0.00354648,0.737078,0.388481,0.0013113,-0.276864,-0.145912,0.0212199,0.37061,5,0.1,3,1.2,-0.283483,0.708949,0.651746,-0.350604,-0.738145,-0.0126064,0.437111,0.836939,0.0602901,0.00905502,2.32974,5,0.1,4,1.2,-4.63024,-3.23169,0.568409,0.866032,0.342792,0.0110283,-0.000238419,-0.00464916,-0.000149012,0.0332795,2.19691,5,0.1,5,1.2,-0.331724,5.42496,0.509934,0.0584789,-0.484776,-0.0120103,-0.0131428,-1.13964,-0.012964,0.0103382,2.52478,5,0.1,6,1.2,3.19577,-2.68549,0.544126,-0.770706,-0.00216365,-0.104117,-0.386953,-0.0172853,0.0718236,0.0111196,2.33723,5,0.1,7,1.2,-1.84878,-4.39222,0.737569,0.0119776,0.542581,0.18727,-0.000238419,-1.0283,-0.00274181,0.0136503,2.96742,5,0.1,8,1.2,3.44294,-0.52202,0.56032,0.258648,-0.37014,0.0334129,-0.0971556,1.06689,-0.0125766,0.00797936,0.616339,5,0.1,9,1.2,-3.59525,4.39147,0.863144,-0.00399947,-0.428939,0.410083,0.00143051,0.0505447,-0.154018,0.014312,0.27264,5,0.1,10,1.2,-1.21381,4.01402,0.950461,0.0124097,-0.102615,0.359672,0.0013113,-0.010252,0.0352263,0.0337924,0.100127,5,0.1,11,1.2,-1.98946,-2.66689,0.500078,0.664973,0.454485,-0.00106543,-0.249803,-0.340343,0.00992417,0.0130465,0.400826,5,0.1,12,1.2,-5.48487,-0.765615,0.537961,0.277984,0.632645,-0.063543,-0.0305176,-1.17716,0.00697374,0.0101166,2.13763,5,0.1,13,1.2,-0.231753,1.5,0.616492,-0.0574846,-0.451854,-0.0138894,0.0215992,0.350654,0.0051856,0.0138796,1.18015,5,0.1,14,1.2,1.29865,2.04832,0.588049,-0.360656,-0.282443,-0.117254,0.776768,0.561357,-0.357419,0.0123506,1.56798,5,0.1,15,1.2,-3.83561,-5.40806,0.629141,0.466079,0.0354171,-0.0245526,-0.064373,-0.207663,0.00923872,0.0225965,2.67865,5,0.1,16,1.2,-2.22959,4.33602,0.887077,-0.0171721,-0.382233,0.389923,0.0064373,0.0333786,-0.146478,0.0176128,0.236242,5,0.1,17,1.2,0.0341928,-0.962546,0.582753,0.836725,0.431734,0.0145242,-0.313821,-0.162184,-0.00545382,0.0120998,0.497508,5,0.1,18,1.2,-2.59528,1.95692,0.500023,0.861257,-0.247699,-0.00038892,-0.0953674,0.0709891,0.00464916,0.0113609,0.94943,5,0.1,19,1.2,1.48504,4.59417,0.855499,0.0125974,-0.332034,0.416516,-0.00470877,0.124454,-0.156492,0.014557,0.152155,5,0.1,20,1.2,-3.2,-3.17097,0.500102,0.745922,0.651985,-0.00109076,-0.390768,-0.00178814,0.00810623,0.0137247,2.17179,5,0.1,21,1.2,-1.12548,2.11044,0.564398,0.82165,0.496602,0.0299782,-0.308573,-0.186563,-0.0112653,0.0216727,0.492563,5,0.1,22,1.2,-1.47033,-2.88614,0.860914,0.101352,0.0304759,0.411966,-0.0380874,-0.0114441,-0.154763,0.0298788,0.1639,5,0.1,23,1.2,0.853381,2.27383,0.501863,0.386,-0.38293,-0.0105187,0.299096,0.958085,0.037998,0.0298031,2.19317,5,0.1,24,1.2,-1.7384,-3.65659,0.931026,0.327179,-0.0786662,0.352906,-0.122845,0.0295639,-0.132561,0.0121037,0.126932,5,0.1,25,1.2,-4.24719,-2.51875,0.576079,0.418818,0.605369,0.0201553,-0.157356,-0.227332,-0.00753999,0.0105544,0.289531,5,0.1,26,1.2,-2.00336,1.73636,0.574731,0.866026,-0.169051,0.0175059,-5.96046e-05,-0.00399351,-0.00551343,0.0176945,2.25043,5,0.1,27,1.2,1.11775,1.76537,0.508161,0.0575304,-0.191036,-0.0382513,-0.504792,0.187933,0.0988245,0.00976022,0.303277,5,0.1,28,1.2,3.89356,-1.3,0.589885,-0.208127,-0.693196,0.0595406,0.00596046,0.240266,-0.00172853,0.00998864,2.46593,5,0.1,29,1.2,-0.485125,0.178236,0.560292,0.18581,0.136022,0.0334486,0.151485,-0.558004,-0.0125468,0.0190811,0.444066,5,0.1,30,1.2,4.14693,-3.63601,0.557933,0.0188828,0.326097,0.0169173,-0.00333786,-0.0492334,0.00217557,0.0218667,3.40867,5,0.1,31,1.2,-0.8577,4.86559,0.712594,0.526412,-0.861418,0.027819,-0.0762641,0.0920296,-0.00402331,0.0287919,1.434,5,0.1,32,1.2,1.8539,-3.22366,0.504455,-0.751203,0.590986,-0.0177398,-0.213087,-0.010848,0.0385344,0.032001,2.48983,5,0.1,33,1.2,0.578985,-2.89229,0.700129,-0.50682,0.665694,-0.000753999,0.245243,-0.262022,-0.119954,0.020584,0.607232,5,0.1,34,1.2,-2.69245,3.98542,0.500795,-0.866026,-0.0632107,-0.00588149,0,0.00870228,0.0290275,0.0273387,1.41929,5,0.1,35,1.2,2.19005,-1.95773,0.623541,-0.0758469,0.249997,-0.0198379,0.0283718,0.399649,0.00742078,0.0449748,2.96298,5,0.1,36,1.2,1.02654,1.96124,0.825444,0.31859,0.00483096,0.253724,-0.0643134,-0.460088,0.334829,0.00749651,0.521849,5,0.1,37,1.2,4.81061,1.31162,0.559103,-0.52923,0.158653,0.0344485,0.0882149,-0.0596046,-0.0129342,0.0162052,0.264858,5,0.1,38,1.2,3.74776,-4.57246,0.582528,-0.124502,0.440025,0.0147238,0.0468493,-0.165224,-0.00557303,0.0593066,0.111786,5,0.1,39,1.2,-3.14324,5.08449,0.693397,0.866026,-0.483918,0.0205219,0,0.00429153,-0.000149012,0.0174248,2.12553,5,0.1
0,1.3,0.106165,-2.85477,0.638502,-0.0540715,0.866026,-0.0101632,0.0196984,0,0.0124462,0.0236372,2.27021,5,0.1,1,1.3,2.98298,-2.46918,0.954565,0.0150301,0.591622,0.34961,-0.00625849,-0.244647,-0.14456,0.0248453,0.272093,5,0.1,2,1.3,-1.34613,-0.652706,0.926935,-0.00341646,0.709708,0.374056,0.00140071,-0.293445,-0.154655,0.0212199,0.37061,5,0.1,3,1.3,-0.316113,0.639612,0.650834,-0.299913,-0.646028,-0.00528526,0.561889,0.990883,0.0818521,0.00905502,2.32974,5,0.1,4,1.3,-4.54364,-3.19734,0.569515,0.866023,0.344742,0.0110911,2.98023e-05,0.0239462,0.00077486,0.0332795,2.19691,5,0.1,5,1.3,-0.325828,5.37026,0.508663,0.0603281,-0.612044,-0.0134164,0.0410508,-1.3189,-0.0139885,0.0103382,2.52478,5,0.1,6,1.3,3.11648,-2.68556,0.534217,-0.816291,0.00269972,-0.0928199,-0.463977,0.100568,0.147067,0.0111196,2.33723,5,0.1,7,1.3,-1.84758,-4.34283,0.756333,0.0120357,0.451149,0.188255,0.000715256,-0.679731,0.0118129,0.0136503,2.96742,5,0.1,8,1.3,3.46833,-0.553718,0.5636,0.249043,-0.264602,0.0321704,-0.102982,1.01997,-0.0133105,0.00797936,0.616339,5,0.1,9,1.3,-3.59565,4.34876,0.903399,-0.00385679,-0.425614,0.394857,0.00156462,0.0362694,-0.163246,0.014312,0.27264,5,0.1,10,1.3,-1.21256,4.0037,0.986645,0.0125658,-0.103851,0.363942,0.00117719,-0.00928342,0.0320002,0.0337924,0.100127,5,0.1,11,1.3,-1.92418,-2.6236,0.500013,0.640279,0.407317,-0.000319444,-0.264741,-0.577569,0.00525266,0.0130465,0.400826,5,0.1,12,1.3,-5.45721,-0.708571,0.53164,0.27509,0.506925,-0.0628442,-0.0384748,-1.25988,0.00945479,0.0101166,2.13763,5,0.1,13,1.3,-0.237395,1.45557,0.615128,-0.0553495,-0.444976,-0.0133762,0.0228873,-0.142679,0.00550598,0.0138796,1.18015,5,0.1,14,1.3,1.26602,2.02269,0.574727,-0.296015,-0.232066,-0.147015,0.530563,0.450164,-0.228267,0.0123506,1.56798,5,0.1,15,1.3,-3.78925,-5.40507,0.626731,0.461385,0.0313155,-0.0236394,-0.0509769,0.198334,0.00979006,0.0225965,2.67865,5,0.1,16,1.3,-2.23127,4.29789,0.925353,-0.0165354,-0.380611,0.375443,0.00680983,0.017941,-0.155237,0.0176128,0.236242,5,0.1,17,1.3,0.116354,-0.920166,0.584179,0.806356,0.415701,0.0139851,-0.32101,-0.171896,-0.00578165,0.0120998,0.497508,5,0.1,18,1.3,-2.50938,1.93249,0.500003,0.858239,-0.240614,-5.39236e-05,-0.0127554,0.0789165,0.00220165,0.0113609,0.94943,5,0.1,19,1.3,1.48635,4.56157,0.896385,0.0142798,-0.319723,0.401047,0.0331104,0.132054,-0.165839,0.014557,0.152155,5,0.1,20,1.3,-3.12642,-3.10561,0.500028,0.73315,0.655968,-0.000444893,0.0579655,0.0447333,0.00489876,0.0137247,2.17179,5,0.1,21,1.3,-1.04482,2.15919,0.567341,0.791145,0.478159,0.028865,-0.327066,-0.197724,-0.0119284,0.0216727,0.492563,5,0.1,22,1.3,-1.46032,-2.88313,0.901596,0.0992816,0.0298515,0.403554,-0.0102967,-0.00312924,-0.0418313,0.0298788,0.1639,5,0.1,23,1.3,0.893498,2.24049,0.500994,0.415885,-0.282819,-0.00695838,0.272725,1.01987,0.0327267,0.0298031,2.19317,5,0.1,24,1.3,-1.70629,-3.66431,0.965669,0.315033,-0.0757445,0.339801,-0.130244,0.0313371,-0.140496,0.0121037,0.126932,5,0.1,25,1.3,-4.20608,-2.45933,0.578058,0.403263,0.582895,0.019409,-0.166774,-0.240937,-0.0080131,0.0105544,0.289531,5,0.1,26,1.3,-1.91676,1.71932,0.576457,0.866025,-0.172592,0.0170079,1.49012e-05,-0.0525787,-0.00512972,0.0176945,2.25043,5,0.1,27,1.3,1.12079,1.74665,0.504841,0.00191256,-0.18787,-0.028124,-0.582099,-0.0875816,0.101048,0.00976022,0.303277,5,0.1,28,1.3,3.87273,-1.36933,0.595845,-0.208732,-0.702998,0.0597117,-0.00678003,-0.339612,0.00192598,0.00998864,2.46593,5,0.1,29,1.3,-0.465664,0.189205,0.563575,0.204127,0.0850771,0.0322081,0.195079,-0.455604,-0.0133067,0.0190811,0.444066,5,0.1,30,1.3,4.14881,-3.60428,0.559633,0.0186428,0.303426,0.0170223,-0.00238419,-0.360668,-0.000610948,0.0218667,3.40867,5,0.1,31,1.3,-0.805421,4.77954,0.715357,0.518855,-0.861841,0.0274205,-0.0947937,-0.0489652,-0.00500306,0.0287919,1.434,5,0.1,32,1.3,1.77706,-3.16526,0.503679,-0.790093,0.570893,0.00896612,-0.487037,-0.373378,0.444304,0.032001,2.48983,5,0.1,33,1.3,0.529622,-2.82781,0.700227,-0.479346,0.616764,0.00928957,0.311183,-0.685722,0.275746,0.020584,0.607232,5,0.1,34,1.3,-2.77905,3.97914,0.500341,-0.865838,-0.0623528,-0.00331672,0.00752509,0.0108927,0.0220351,0.0273387,1.41929,5,0.1,35,1.3,2.18261,-1.93103,0.621594,-0.0730395,0.284335,-0.0191032,0.0301301,0.407085,0.00788644,0.0449748,2.96298,5,0.1,36,1.3,1.05685,1.95957,0.852343,0.277115,-0.0368789,0.282487,-0.698246,-0.368983,0.229284,0.00749651,0.521849,5,0.1,37,1.3,4.75805,1.3272,0.562484,-0.522182,0.152761,0.0331696,0.0762045,-0.0631586,-0.0137091,0.0162052,0.264858,5,0.1,38,1.3,3.73554,-4.52927,0.583973,-0.119871,0.423693,0.0141736,0.0496358,-0.175148,-0.00588596,0.0593066,0.111786,5,0.1,39,1.3,-3.05664,5.03598,0.695455,0.866026,-0.486992,0.0206549,0,-0.0376403,0.00162423,0.0174248,2.12553,5,0.1
0,1.4,0.100864,-2.76817,0.637545,-0.0518421,0.866026,-0.00899732,0.0266023,0,0.0111461,0.00774205,0.739055,5,0.1,1,1.4,2.98445,-2.41139,0.988715,0.0142813,0.562334,0.332308,-0.0089407,-0.353456,-0.208974,0.0216484,0.179101,5,0.1,2,1.4,-1.34647,-0.583382,0.963473,-0.00324845,0.674585,0.355543,0.00202656,-0.424176,-0.223547,0.0221247,0.377343,5,0.1,3,1.4,-0.343191,0.580116,0.650721,-0.24092,-0.542693,0.00301003,0.605866,1.06311,0.0808239,0.010665,1.76335,5,0.1,4,1.4,-4.45703,-3.16283,0.570625,0.866032,0.344235,0.0110745,-0.000238419,-0.0479221,-0.00151992,0.0332727,2.19824,5,0.1,5,1.4,-0.319562,5.30276,0.507258,0.0650987,-0.733614,-0.0146076,0.0475496,-1.04952,-0.0090301,0.0149332,1.29063,5,0.1,6,1.4,3.0328,-2.68469,0.525746,-0.853688,0.0154555,-0.07599,-0.246763,0.143528,0.183731,0.0104039,2.28453,5,0.1,7,1.4,-1.84638,-4.3,0.775171,0.0120074,0.416458,0.187828,-0.00184774,-0.036478,-0.027746,0.0138839,2.81827,5,0.1,8,1.4,3.49266,-0.575314,0.566742,0.236714,-0.170088,0.0305787,-0.148773,0.85488,-0.0192523,0.00773192,0.591338,5,0.1,9,1.4,-3.59602,4.30649,0.941969,-0.00366569,-0.418246,0.375316,0.00214577,0.12517,-0.235975,0.0156376,0.186844,5,0.1,10,1.4,-1.2113,3.9933,1.02307,0.0125378,-0.103593,0.363016,-0.00208616,0.0177622,-0.0629425,0.0365588,0.110176,5,0.1,11,1.4,-1.86164,-2.58598,0.500001,0.60859,0.343484,3.27826e-05,-0.382721,-0.679255,0.00205636,0.0125535,0.304244,5,0.1,12,1.4,-5.42998,-0.663832,0.525423,0.268435,0.392391,-0.0612423,-0.102043,-0.990957,0.0242591,0.00991701,1.95755,5,0.1,13,1.4,-0.242802,1.41002,0.613822,-0.05261,-0.467992,-0.0127152,0.033088,-0.264168,0.00795722,0.0141898,0.930242,5,0.1,14,1.4,1.23877,2.00158,0.559157,-0.251812,-0.191617,-0.161543,0.366449,0.362635,-0.0581145,0.0114845,1.38452,5,0.1,15,1.4,-3.74349,-5.4,0.624422,0.452256,0.0790119,-0.022468,-0.146389,0.72217,0.0141561,0.0240692,2.20276,5,0.1,16,1.4,-2.23289,4.26002,0.962026,-0.0157177,-0.37545,0.356862,0.00977516,0.0982285,-0.224411,0.018009,0.162307,5,0.1,17,1.4,0.19519,-0.87956,0.585545,0.767941,0.395127,0.0132933,-0.465639,-0.248462,-0.00834465,0.0137182,0.33016,5,0.1,18,1.4,-2.4238,1.90889,0.500005,0.85057,-0.230551,8.19564e-05,-0.174046,0.127733,0.000596046,0.0111401,0.677547,5,0.1,19,1.4,1.48797,4.53034,0.93556,0.0182956,-0.303912,0.381197,0.0431538,0.190973,-0.2397,0.0148724,0.1013,5,0.1,20,1.4,-3.0526,-3.03996,0.500004,0.744009,0.654691,-8.9407e-05,0.101328,-0.0959635,0.00235438,0.013053,2.12586,5,0.1,21,1.4,-0.967545,2.20589,0.57016,0.751995,0.454497,0.0274375,-0.472844,-0.285983,-0.0172555,0.0224914,0.324213,5,0.1,22,1.4,-1.45045,-2.88016,0.941738,0.0980914,0.0294924,0.398713,-0.0185966,-0.00572205,-0.0754595,0.0304649,0.096595,5,0.1,23,1.4,0.936233,2.21725,0.50045,0.436182,-0.183225,-0.00404716,0.115454,0.953436,0.0252426,0.00687962,0.828061,5,0.1,24,1.4,-1.67551,-3.67171,0.99886,0.299442,-0.0719965,0.322984,-0.188231,0.0452995,-0.203103,0.0123017,0.142283,5,0.1,25,1.4,-4.16669,-2.40239,0.579954,0.383306,0.554055,0.0184506,-0.24128,-0.34833,-0.0116229,0.0110537,0.190577,5,0.1,26,1.4,-1.83016,1.70181,0.578128,0.866026,-0.177112,0.0163659,-5.96046e-05,-0.0274181,-0.00816584,0.0185844,2.24865,5,0.1,27,1.4,1.11811,1.72722,0.502519,-0.0544548,-0.202024,-0.0184968,-0.526369,-0.167191,0.0896752,0.00914641,0.245803,5,0.1,28,1.4,3.85188,-1.44163,0.60181,-0.207573,-0.744185,0.0593796,0.0377893,-0.411332,-0.0108182,0.0125277,2.3179,5,0.1,29,1.4,-0.444338,0.195637,0.566721,0.221429,0.0456367,0.0306144,0.136718,-0.331149,-0.0192523,0.0242815,0.822212,5,0.1,30,1.4,4.15066,-3.57596,0.561324,0.0182509,0.261325,0.0167072,-0.00572205,-0.451088,-0.00599027,0.0208563,3.48953,5,0.1,31,1.4,-0.754172,4.69322,0.718065,0.50413,-0.862586,0.0266418,-0.213087,0.0686646,-0.0112057,0.025392,1.04446,5,0.1,32,1.4,1.69569,-3.11052,0.507118,-0.835189,0.519705,0.0620067,-0.358284,-0.634074,0.576645,0.0236865,2.32616,5,0.1,33,1.4,0.483397,-2.77005,0.702881,-0.44352,0.534266,0.0463545,0.409022,-0.937939,0.430226,0.024165,0.420769,5,0.1,34,1.4,-2.86554,3.97298,0.500107,-0.863022,-0.0606298,-0.00149757,0.0602007,0.0251532,0.0143647,0.0386923,1.07083,5,0.1,35,1.4,2.17547,-1.9,0.619728,-0.0694335,0.341722,-0.0181586,0.0437498,0.72372,0.0113845,0.0460626,2.81116,5,0.1,36,1.4,1.08048,1.95422,0.88149,0.190955,-0.068152,0.297788,-0.971675,-0.253558,0.0699759,0.0114306,0.259486,5,0.1,37,1.4,4.70635,1.34212,0.565724,-0.510037,0.145203,0.0315294,0.182629,-0.0913143,-0.0198483,0.0153914,0.182994,5,0.1,38,1.4,3.72383,-4.48788,0.585358,-0.113928,0.402737,0.0134692,0.0716448,-0.253201,-0.00846386,0.0558237,0.125314,5,0.1,39,1.4,-2.97004,4.98721,0.697523,0.866026,-0.486684,0.0206426,0,0.0638962,-0.00265241,0.0150452,2.1273,5,0.1
0,1.5,0.0949738,-2.68318,0.636553,-0.0729552,0.819259,-0.0120895,-0.394309,-0.867605,-0.0635535,0.00774205,0.739055,5,0.1,1,1.5,2.98583,-2.35686,1.02094,0.0134286,0.528618,0.312375,-0.00853837,-0.336856,-0.199124,0.0216484,0.179101,5,0.1,2,1.5,-1.34678,-0.517806,0.997952,-0.00305492,0.638568,0.334219,0.0019297,-0.325186,-0.213031,0.0221247,0.377343,5,0.1,3,1.5,-0.364264,0.531054,0.651436,-0.180895,-0.439734,0.0113057,0.585247,0.992171,0.0818819,0.010665,1.76335,5,0.1,4,1.5,-4.37043,-3.12853,0.571729,0.866023,0.342439,0.0110186,2.98023e-05,-0.0076443,-0.000227243,0.0332727,2.19824,5,0.1,5,1.5,-0.312768,5.2248,0.505778,0.0710703,-0.818534,-0.0147361,0.0648983,-0.631511,0.00564754,0.0149332,1.29063,5,0.1,6,1.5,2.94668,-2.68233,0.519103,-0.865255,0.0325557,-0.0566148,-0.0308454,0.187084,0.198837,0.0104039,2.28453,5,0.1,7,1.5,-1.8452,-4.25709,0.793869,0.0113344,0.453608,0.186408,-0.0109747,0.67243,-0.0106953,0.0138839,2.81827,5,0.1,8,1.5,3.51562,-0.588333,0.569708,0.222521,-0.0937356,0.028743,-0.141799,0.650428,-0.0183284,0.00773192,0.591338,5,0.1,9,1.5,-3.59638,4.26524,0.978366,-0.00345819,-0.407,0.352806,0.00210106,0.116169,-0.224873,0.0156376,0.186844,5,0.1,10,1.5,-1.21006,3.98276,1.05904,0.0122944,-0.109436,0.355753,-0.0031814,-0.113755,-0.0935867,0.0365588,0.110176,5,0.1,11,1.5,-1.80262,-2.55515,0.500012,0.572084,0.272612,0.000152458,-0.364698,-0.709236,0.000458211,0.0125535,0.304244,5,0.1,12,1.5,-5.40363,-0.629076,0.51949,0.258707,0.309733,-0.0567907,-0.101656,-0.581916,0.0620782,0.00991701,1.95755,5,0.1,13,1.5,-0.247904,1.36147,0.612589,-0.049454,-0.506039,-0.0119556,0.0315271,-0.442661,0.00759959,0.0141898,0.930242,5,0.1,14,1.5,1.21449,1.98382,0.543138,-0.241469,-0.167179,-0.155075,-0.102311,0.148803,0.168681,0.0114845,1.38452,5,0.1,15,1.5,-3.69909,-5.38741,0.622243,0.434538,0.181238,-0.0211178,-0.215501,1.22902,0.0134818,0.0240692,2.20276,5,0.1,16,1.5,-2.23441,4.22292,0.996634,-0.0147842,-0.366773,0.335456,0.00932813,0.0905097,-0.213839,0.018009,0.162307,5,0.1,17,1.5,0.269757,-0.841242,0.586834,0.723825,0.371426,0.0124972,-0.439543,-0.236768,-0.00794977,0.0137182,0.33016,5,0.1,18,1.5,-2.33946,1.88645,0.500015,0.83675,-0.21832,0.000104494,-0.140622,0.123702,-8.9407e-05,0.0111401,0.677547,5,0.1,19,1.5,1.48998,4.501,0.972527,0.0216285,-0.282025,0.358333,0.0234321,0.246316,-0.228409,0.0148724,0.1013,5,0.1,20,1.5,-2.97707,-2.97478,0.500004,0.770841,0.649747,6.61239e-05,0.363544,-0.0378191,0.000864267,0.013053,2.12586,5,0.1,21,1.5,-0.894619,2.24997,0.572821,0.706891,0.427221,0.025792,-0.450589,-0.272453,-0.0164397,0.0224914,0.324213,5,0.1,22,1.5,-1.44078,-2.87723,0.981304,0.0946032,0.0290453,0.392842,-0.0511333,-0.00455976,-0.0602677,0.0304649,0.096595,5,0.1,23,1.5,0.978774,2.20381,0.500158,0.400234,-0.0851039,-0.00194032,-0.750501,0.979558,0.0168681,0.00687962,0.828061,5,0.1,24,1.5,-1.64632,-3.67873,1.03035,0.285941,-0.0687491,0.308419,-0.100344,0.024125,-0.108238,0.0123017,0.142283,5,0.1,25,1.5,-4.12952,-2.34866,0.581743,0.360294,0.520829,0.0173417,-0.229806,-0.331923,-0.0110753,0.0110537,0.190577,5,0.1,26,1.5,-1.74356,1.68388,0.579728,0.866025,-0.182049,0.0156684,1.49012e-05,-0.0580847,-0.00648201,0.0185844,2.24865,5,0.1,27,1.5,1.11019,1.70586,0.501087,-0.10228,-0.227592,-0.0105,-0.421457,-0.310294,0.0692718,0.00914641,0.245803,5,0.1,28,1.5,3.83125,-1.51852,0.60771,-0.205225,-0.795969,0.0587075,0.019908,-0.555128,-0.00569597,0.0125277,2.3179,5,0.1,29,1.5,-0.421473,0.198689,0.56969,0.235852,0.0169938,0.0287779,0.13632,-0.236317,-0.0183508,0.0242815,0.822212,5,0.1,30,1.5,4.15246,-3.55238,0.562966,0.0178039,0.209415,0.0161366,-0.00405312,-0.512302,-0.00600144,0.0208563,3.48953,5,0.1,31,1.5,-0.704781,4.60707,0.720676,0.483715,-0.861548,0.0255675,-0.211619,-0.00077486,-0.0111498,0.025392,1.04446,5,0.1,32,1.5,1.61074,-3.06191,0.516557,-0.860082,0.450882,0.12922,-0.141703,-0.731885,0.725202,0.0236865,2.32616,5,0.1,33,1.5,0.44094,-2.72134,0.709961,-0.406734,0.43981,0.0973325,0.341389,-0.942066,0.555836,0.024165,0.420769,5,0.1,34,1.5,-2.95179,3.96704,0.500017,-0.863407,-0.0582211,-0.00042459,-0.0225753,0.0250041,0.00749156,0.0386923,1.07083,5,0.1,35,1.5,2.1683,-1.86122,0.617968,-0.0777408,0.441334,-0.0170395,-0.180185,1.17023,0.0114366,0.0460626,2.81116,5,0.1,36,1.5,1.09473,1.94634,0.911831,0.094609,-0.0873454,0.310465,-0.933647,-0.132948,0.15587,0.0114306,0.259486,5,0.1,37,1.5,4.65619,1.3562,0.568782,-0.493307,0.136494,0.0296364,0.171036,-0.086993,-0.0189021,0.0153914,0.182994,5,0.1,38,1.5,3.71273,-4.44861,0.586671,-0.108789,0.38458,0.0128622,0.0382066,-0.134915,-0.00451133,0.0558237,0.125314,5,0.1,39,1.5,-2.88344,4.93869,0.699581,0.866026,-0.484635,0.0205602,0,0.00524521,-0.000186265,0.0150452,2.1273,5,0.1
0,1.6,0.0853824,-2.60656,0.634967,-0.121032,0.70492,-0.0200331,-0.525076,-1.36292,-0.0880063,0.00594599,0.29928,5,0.1,1,1.6,2.98713,-2.30576,1.05114,0.012511,0.492293,0.290906,-0.010252,-0.400186,-0.236571,0.0202098,0.117715,5,0.1,2,1.6,-1.34708,-0.455606,1.03026,-0.00284612,0.60459,0.311249,0.00232458,-0.374929,-0.253141,0.0214924,0.263302,5,0.1,3,1.6,-0.379525,0.491896,0.652956,-0.125474,-0.344954,0.0188366,0.516489,0.900328,0.0664294,0.00885888,0.991552,5,0.1,4,1.6,-4.28383,-3.09439,0.572827,0.866032,0.339353,0.0109196,-0.000238419,-0.0679493,-0.00214577,0.0384921,2.20094,5,0.1,5,1.6,-0.305355,5.14057,0.504352,0.0768758,-0.85808,-0.0136316,0.0461936,-0.159025,0.0157356,0.00989293,0.145197,5,0.1,6,1.6,2.86009,-2.67814,0.514427,-0.866026,0.0508904,-0.037095,0,0.171185,0.187814,0.00958539,2.26979,5,0.1,7,1.6,-1.84414,-4.20792,0.812417,0.00993013,0.532079,0.18398,-0.0165105,0.81563,-0.0449121,0.0136018,2.52696,5,0.1,8,1.6,3.53713,-0.594919,0.572486,0.207227,-0.0428319,0.026767,-0.168443,0.361115,-0.0217557,0.00789977,3.52482,5,0.1,9,1.6,-3.59671,4.22521,1.01247,-0.00322461,-0.392234,0.328559,0.0025034,0.190258,-0.267208,0.0148794,0.126184,5,0.1,10,1.6,-1.20885,3.97117,1.09402,0.0118405,-0.122672,0.342447,-0.00619888,-0.135183,-0.179887,0.0347357,0.108175,5,0.1,11,1.6,-1.74732,-2.5313,0.500028,0.532764,0.206143,0.000147521,-0.433266,-0.604033,-0.000476837,0.015432,0.239581,5,0.1,12,1.6,-5.37832,-0.6,0.514165,0.246596,0.28154,-0.0493288,-0.147104,-0.00694394,0.0848472,0.0124593,1.66391,5,0.1,13,1.6,-0.252684,1.30872,0.611433,-0.046055,-0.547168,-0.0111356,0.0374615,-0.340521,0.00905991,0.0157805,0.70825,5,0.1,14,1.6,1.18945,1.96764,0.528719,-0.262126,-0.15783,-0.131229,-0.266492,0.0558496,0.292808,0.0128322,1.14654,5,0.1,15,1.6,-3.65688,-5.36294,0.620202,0.407988,0.30843,-0.0196651,-0.319839,1.24431,0.0160038,0.0275407,1.76844,5,0.1,16,1.6,-2.23584,4.18678,1.02906,-0.0137746,-0.354779,0.3124,0.0112057,0.15974,-0.254035,0.0197079,0.109807,5,0.1,17,1.6,0.339833,-0.805338,0.588042,0.676206,0.345898,0.0116393,-0.528231,-0.281304,-0.00947714,0.0166293,0.218276,5,0.1,18,1.6,-2.25669,1.86528,0.500025,0.815976,-0.20467,7.59959e-05,-0.301003,0.15384,-0.000417233,0.0154078,0.524139,5,0.1,19,1.6,1.48797,4.53034,0.93556,0.0182956,-0.303912,0.381197,0.0431538,0.190973,-0.2397,0.0191365,0.1013,5,0.1,20,1.6,-2.89822,-2.91013,0.500013,0.804305,0.641197,0.000102818,0.253439,-0.157595,-5.96046e-05,0.019724,2.07455,5,0.1,21,1.6,-0.826288,2.29126,0.575314,0.658308,0.397849,0.0240192,-0.535369,-0.323653,-0.0195205,0.0262399,0.295224,5,0.1,22,1.6,-1.43163,-2.87436,1.02019,0.0879079,0.028348,0.383568,-0.0823736,-0.010252,-0.137746,0.0372624,0.0765691,5,0.1,23,1.6,1.01419,2.20004,0.500034,0.301209,0.00759959,-0.000655651,-1.16265,0.852942,0.0090301,0.0104092,0.421447,5,0.1,24,1.6,-1.6182,-3.68549,1.06067,0.276166,-0.0663996,0.297877,-0.1086,0.0261068,-0.117183,0.012835,0.136161,5,0.1,25,1.6,-4.09469,-2.29831,0.583419,0.335515,0.485039,0.0161484,-0.272989,-0.394464,-0.0131428,0.0107722,0.125264,5,0.1,26,1.6,-1.65695,1.66542,0.581261,0.866026,-0.186461,0.0149533,-5.96046e-05,-0.0206232,-0.00831485,0.0176,1.80836,5,0.1,27,1.6,1.09808,1.68154,0.500344,-0.137347,-0.258198,-0.00475943,-0.274658,-0.276804,0.0453591,0.00794434,0.219653,5,0.1,28,1.6,3.81087,-1.60067,0.61354,-0.201774,-0.843695,0.0577182,0.0567436,-0.353515,-0.0161827,0.00904714,2.09402,5,0.1,29,1.6,-0.39731,0.199395,0.572472,0.24608,-0.000923872,0.0267997,0.0575185,-0.120394,-0.0217855,0.00925001,0.432578,5,0.1,30,1.6,4.15422,-3.53365,0.564546,0.0172853,0.169796,0.0154108,-0.00667572,-0.245571,-0.00888109,0.016845,3.37795,5,0.1,31,1.6,-0.657574,4.52111,0.723171,0.459068,-0.854707,0.0242665,-0.292391,0.169992,-0.0154078,0.0206393,0.97026,5,0.1,32,1.6,1.52432,-3.02057,0.533062,-0.866026,0.375295,0.199662,0,-0.770926,0.652194,0.0151198,2.05868,5,0.1,33,1.6,0.40196,-2.68202,0.722454,-0.372735,0.347513,0.151682,0.34894,-0.896692,0.506282,0.0165784,0.432178,5,0.1,34,1.6,-3.03808,3.96135,0.500003,-0.860029,-0.0552952,7.30157e-05,0.120044,0.0348091,0.00286102,0.0309694,0.779294,5,0.1,35,1.6,2.15946,-1.81116,0.616324,-0.100207,0.558612,-0.0157967,-0.246406,1.10197,0.0136793,0.0350932,2.47994,5,0.1,36,1.6,1.09973,1.93712,0.943612,0.00793636,-0.0952989,0.324193,-0.784397,-0.0289679,0.0986755,0.0121736,3.79265,5,0.1,37,1.6,4.60783,1.3694,0.571647,-0.472629,0.127113,0.0275984,0.255585,-0.103354,-0.022471,0.0137963,0.1242,5,0.1,38,1.6,3.70203,-4.4108,0.587935,-0.105065,0.371444,0.0124231,0.0413656,-0.146151,-0.00488758,0.0557037,0.329662,5,0.1,39,1.6,-2.79683,4.89034,0.701632,0.866026,-0.480843,0.0204027,0,0.0903606,-0.0038445,0.0136573,2.13166,5,0.1
0,1.7,0.070593,-2.54291,0.63239,-0.174829,0.568151,-0.0325329,-0.529966,-1.35714,-0.149991,0.00594599,0.29928,5,0.1,1,1.7,2.98833,-2.25843,1.0791,0.0115525,0.454774,0.268729,-0.00928342,-0.363618,-0.214919,0.0202098,0.117715,5,0.1,2,1.7,-1.34735,-0.39685,1.06018,-0.00262856,0.571652,0.287519,0.00210106,-0.307405,-0.229985,0.0214924,0.263302,5,0.1,3,1.7,-0.389653,0.461562,0.655141,-0.0787926,-0.264924,0.0245287,0.414008,0.708057,0.0465922,0.00885888,0.991552,5,0.1,4,1.7,-4.19723,-3.06067,0.573913,0.866023,0.335879,0.0108112,2.98023e-05,-0.0210702,-0.000655651,0.0384921,2.20094,5,0.1,5,1.7,-0.297578,5.05468,0.50308,0.0773706,-0.852811,-0.0116833,-0.0318699,0.258714,0.0224523,0.00989293,0.145197,5,0.1,6,1.7,2.77349,-2.67215,0.511519,-0.866026,0.0689469,-0.022331,0,0.180185,0.111904,0.00958539,2.26979,5,0.1,7,1.7,-1.84321,-4.14994,0.830657,0.00876393,0.631979,0.18123,-0.00777096,1.09285,-0.0202693,0.0136018,2.52696,5,0.1,8,1.7,3.55779,-0.597624,0.575027,0.212562,-0.0165672,0.0238031,0.222549,0.0551902,-0.0362024,0.00789977,3.52482,5,0.1,9,1.7,-3.59702,4.18688,1.04405,-0.00298731,-0.37458,0.303509,0.00230968,0.176281,-0.242762,0.0148794,0.126184,5,0.1,10,1.7,-1.2077,3.95842,1.12742,0.0112632,-0.130627,0.3257,-0.0057742,-0.0256002,-0.167139,0.0347357,0.108175,5,0.1,11,1.7,-1.69611,-2.51349,0.50004,0.492148,0.152933,8.98726e-05,-0.393622,-0.436664,-0.000644475,0.015432,0.239581,5,0.1,12,1.7,-5.35437,-0.570724,0.50968,0.232733,0.313391,-0.0401997,-0.137717,0.559978,0.095617,0.0124593,1.66391,5,0.1,13,1.7,-0.257111,1.25214,0.610362,-0.0425433,-0.584818,-0.0102863,0.0340287,-0.370428,0.00823289,0.0157805,0.70825,5,0.1,14,1.7,1.1614,1.95164,0.517138,-0.302504,-0.166389,-0.0998559,-0.490911,-0.190735,0.325751,0.0128322,1.14654,5,0.1,15,1.7,-3.61767,-5.32555,0.618312,0.375977,0.440738,-0.0181651,-0.327229,1.33124,0.0145361,0.0275407,1.76844,5,0.1,16,1.7,-2.23717,4.15205,1.05909,-0.0127241,-0.339986,0.288585,0.0101626,0.148535,-0.230804,0.0197079,0.109807,5,0.1,17,1.7,0.404943,-0.772088,0.589161,0.626816,0.319527,0.0107509,-0.47873,-0.25557,-0.00860915,0.0166293,0.218276,5,0.1,18,1.7,-2.17648,1.84539,0.50003,0.788714,-0.194651,3.33413e-05,-0.275314,0.0621676,-0.000424683,0.0154078,0.524139,5,0.1,19,1.7,1.48998,4.501,0.972527,0.0216285,-0.282025,0.358333,0.0234321,0.246316,-0.228409,0.0191365,0.1013,5,0.1,20,1.7,-2.81627,-2.84662,0.500022,0.835822,0.630143,8.07457e-05,0.322402,-0.0959188,-0.000346452,0.019724,2.07455,5,0.1,21,1.7,-0.763007,2.32966,0.577623,0.60812,0.371956,0.0221891,-0.486385,-0.214979,-0.0177324,0.0262399,0.295224,5,0.1,22,1.7,-1.42332,-2.87157,1.05797,0.0776794,0.0275362,0.372666,-0.119179,-0.00740588,-0.0993758,0.0372624,0.0765691,5,0.1,23,1.7,1.0383,2.20511,0.500004,0.179978,0.0935089,-4.07919e-05,-1.22589,0.835791,0.00367314,0.0104092,0.421447,5,0.1,24,1.7,-1.59102,-3.69215,1.08983,0.268206,-0.0678629,0.284494,-0.0652075,-0.0443757,-0.155576,0.012835,0.136161,5,0.1,25,1.7,-4.06244,-2.25169,0.584971,0.309926,0.448061,0.0149163,-0.247955,-0.358343,-0.0119396,0.0107722,0.125264,5,0.1,26,1.7,-1.57035,1.64663,0.582718,0.866025,-0.189445,0.0142153,1.49012e-05,-0.0284538,-0.007011,0.0176,1.80836,5,0.1,27,1.7,1.08317,1.6545,0.500055,-0.158944,-0.280807,-0.00137985,-0.15562,-0.166498,0.0233427,0.00794434,0.219653,5,0.1,28,1.7,3.79092,-1.68626,0.619246,-0.197466,-0.863466,0.0564899,0.0391454,-0.0791028,-0.011161,0.00904714,2.09402,5,0.1,29,1.7,-0.372975,0.197905,0.574764,0.235624,-0.0354533,0.0167034,-0.24274,-0.515902,-0.162859,0.00925001,0.432578,5,0.1,30,1.7,4.15592,-3.51753,0.566046,0.0167571,0.158833,0.0146238,-0.00473857,0.125691,-0.00745058,0.016845,3.37795,5,0.1,31,1.7,-0.613062,4.4362,0.725524,0.431492,-0.845394,0.0228126,-0.272792,0.0639558,-0.0143945,0.0206393,0.97026,5,0.1,32,1.7,1.43772,-2.98592,0.55559,-0.865862,0.325964,0.244314,0.00654906,-0.26837,0.257105,0.0151198,2.05868,5,0.1,33,1.7,0.366273,-2.65107,0.739457,-0.342225,0.277367,0.181989,0.275508,-0.535399,0.122305,0.0165784,0.432178,5,0.1,34,1.7,-3.12368,3.95599,0.50002,-0.852656,-0.0520121,0.000235159,0.0701398,0.0324994,0.000562519,0.0309694,0.779294,5,0.1,35,1.7,2.14801,-1.74941,0.614809,-0.130168,0.678042,-0.0145234,-0.328824,1.20682,0.012219,0.0350932,2.47994,5,0.1,36,1.7,1.09924,1.92743,0.975948,0.00503045,-0.0987079,0.317269,0.583358,-0.0331253,-0.216715,0.0121736,3.79265,5,0.1,37,1.7,4.56177,1.38161,0.574299,-0.448851,0.117424,0.0254925,0.235617,-0.0938997,-0.0204071,0.0137963,0.1242,5,0.1,38,1.7,3.69144,-4.37414,0.589151,-0.109231,0.363645,0.0118648,-0.103146,-0.0359416,-0.00648573,0.0557037,0.329662,5,0.1,39,1.7,-2.71023,4.84253,0.703661,0.866026,-0.476607,0.0202218,0,0.0224411,-0.000961125,0.0136573,2.13166,5,0.1
0,1.8,0.050597,-2.49277,0.628366,-0.223306,0.436229,-0.0479281,-0.423288,-1.26958,-0.148952,0.00688474,0.241503,5,0.1,1,1.8,2.98944,-2.2148,1.10488,0.0105917,0.41731,0.246584,-0.00989437,-0.39494,-0.233293,0.0207201,0.160512,5,0.1,2,1.8,-1.3476,-0.341268,1.08776,-0.00241101,0.539104,0.263825,0.00232458,-0.359997,-0.249743,0.0216397,0.181465,5,0.1,3,1.8,-0.39565,0.438345,0.657789,-0.0430711,-0.201913,0.0280321,0.299588,0.558689,0.023067,0.00986485,1.5718,5,0.1,4,1.8,-4.11062,-3.02724,0.574989,0.866032,0.331813,0.0106826,-0.000238419,-0.0742674,-0.00241399,0.0369191,2.20406,5,0.1,5,1.8,-0.290098,4.97134,0.50203,0.0713348,-0.807774,-0.00928044,-0.0849664,0.633955,0.0249445,0.0118406,2.41734,5,0.1,6,1.8,2.68688,-2.66441,0.50975,-0.866026,0.0852585,-0.0138983,0,0.138998,0.0604689,0.00945731,2.26502,5,0.1,7,1.8,-1.84236,-4.08143,0.848651,0.0082016,0.735164,0.178187,-0.00411272,0.905275,-0.0478625,0.0136735,2.32338,5,0.1,8,1.8,3.58045,-0.6,0.577211,0.242436,-0.0407502,0.0197694,0.334501,-0.519425,-0.0433922,0.00805239,3.29129,5,0.1,9,1.8,-3.59731,4.15037,1.07317,-0.00274777,-0.354707,0.278497,0.0026226,0.230074,-0.263572,0.015427,0.145139,5,0.1,10,1.8,-1.2066,3.94539,1.15909,0.0106186,-0.12821,0.307006,-0.00745058,0.0712872,-0.214875,0.0335576,0.192549,5,0.1,11,1.8,-1.64889,-2.5,0.500045,0.451592,0.120479,2.38419e-05,-0.427365,-0.219107,-0.000655651,0.011711,0.182929,5,0.1,12,1.8,-5.33182,-0.536219,0.506141,0.217795,0.378729,-0.0305861,-0.166416,0.682652,0.09498,0.00922567,1.33174,5,0.1,13,1.8,-0.261193,1.19204,0.609376,-0.0390373,-0.614092,-0.0094384,0.03694,-0.18549,0.0089407,0.0134102,0.51543,5,0.1,14,1.8,1.12867,1.93388,0.508775,-0.351563,-0.189582,-0.0676423,-0.453115,-0.245512,0.311852,0.0111301,0.909494,5,0.1,15,1.8,-3.58177,-5.27515,0.616569,0.341433,0.562537,-0.0166669,-0.36788,1.05405,0.0157654,0.0215816,1.34908,5,0.1,16,1.8,-2.23839,4.11886,1.08678,-0.0116765,-0.322974,0.264806,0.0110865,0.200033,-0.250578,0.0155772,0.126413,5,0.1,17,1.8,0.465186,-0.741434,0.590192,0.577237,0.293195,0.00986457,-0.525922,-0.277489,-0.00932813,0.0116321,0.144569,5,0.1,18,1.8,-2.09915,1.82619,0.500031,0.755692,-0.189522,-5.96046e-06,-0.406265,0.0520349,-0.00038743,0.010039,0.363443,5,0.1,19,1.8,1.48797,4.53034,0.93556,0.0182956,-0.303912,0.381197,0.0431538,0.190973,-0.2397,0.0186986,0.1013,5,0.1,20,1.8,-2.73132,-2.7842,0.500028,0.859857,0.616491,3.8743e-05,0.123382,-0.199795,-0.000447035,0.0156373,1.80611,5,0.1,21,1.8,-0.704665,2.36583,0.579752,0.558007,0.351274,0.0203624,-0.528097,-0.213981,-0.0192523,0.0220542,0.204168,5,0.1,22,1.8,-1.41619,-2.86886,1.09468,0.0646412,0.0266314,0.360462,-0.138938,-0.0118017,-0.157833,0.0311101,0.15088,5,0.1,23,1.8,1.05031,2.21841,0.500012,0.0623107,0.169724,0.000151992,-1.1006,0.667691,0.000536442,0.0404042,2.47212,5,0.1,24,1.8,-1.56455,-3.6992,1.1174,0.260627,-0.0733376,0.265962,-0.0967383,-0.0567436,-0.217974,0.0121637,0.167413,5,0.1,25,1.8,-4.03271,-2.2087,0.586402,0.284386,0.411135,0.0136867,-0.269413,-0.38898,-0.0129938,0.0117574,0.143873,5,0.1,26,1.8,-1.48375,1.6276,0.584103,0.866026,-0.190359,0.0134528,-5.96046e-05,0.0175834,-0.00858307,0.0169955,1.396,5,0.1,27,1.8,1.06671,1.62582,0.500006,-0.1683,-0.290111,0.000141561,-0.0314116,-0.0143647,0.00822544,0.00694736,0.284179,5,0.1,28,1.8,3.77141,-1.7728,0.624829,-0.192297,-0.866026,0.0550136,0.0711679,0,-0.0203252,0.00941996,1.6385,5,0.1,29,1.8,-0.350958,0.191496,0.575505,0.2019,-0.0944898,-0.00269413,-0.411928,-0.622973,-0.211626,0.00598568,0.273758,5,0.1,30,1.8,4.15757,-3.5,0.56747,0.0162125,0.201583,0.0138208,-0.00715256,0.696421,-0.0089705,0.0171016,3.01731,5,0.1,31,1.8,-0.571335,4.35212,0.727731,0.402223,-0.833774,0.0212669,-0.321895,0.201941,-0.0169873,0.0195881,1.24865,5,0.1,32,1.8,1.35122,-2.95419,0.580767,-0.863406,0.312245,0.254208,0.0523329,-0.0469685,-0.0442863,0.0133271,1.55592,5,0.1,33,1.8,0.333402,-2.62561,0.757788,-0.315192,0.235206,0.180312,0.275344,-0.330925,-0.136584,0.0151046,0.330441,5,0.1,34,1.8,-3.20839,3.95096,0.500044,-0.838751,-0.0485182,0.000219047,0.237346,0.0386238,-0.00077486,0.0279192,0.549632,5,0.1,35,1.8,2.13337,-1.67594,0.613418,-0.161803,0.786304,-0.0132799,-0.286341,0.901639,0.0129938,0.0335368,2.00054,5,0.1,36,1.8,1.10395,1.91742,1.00621,0.0990331,-0.100887,0.284654,1.18381,-0.00631809,-0.418127,0.0123557,2.32659,5,0.1,37,1.8,4.51813,1.39288,0.576745,-0.422871,0.10775,0.0233904,0.294924,-0.101984,-0.0221431,0.0134105,0.150987,5,0.1,38,1.8,3.6799,-4.33795,0.590301,-0.121903,0.35975,0.0110909,-0.133753,-0.0612736,-0.00905991,0.0557915,0.257856,5,0.1,39,1.8,-2.62363,4.79506,0.705675,0.866026,-0.471568,0.0200063,0,0.0984669,-0.00417233,0.0130115,2.13683,5,0.1
0,1.9,0.026593,-2.45494,0.622681,-0.252486,0.325614,-0.0668312,-0.166177,-0.956625,-0.213247,0.00688474,0.241503,5,0.1,1,1.9,2.99045,-2.17482,1.12844,0.00967458,0.384228,0.22497,-0.00876188,-0.285819,-0.205703,0.0207201,0.160512,5,0.1,2,1.9,-1.34783,-0.289019,1.11296,-0.00219643,0.506754,0.240687,0.00204146,-0.306276,-0.220187,0.0216397,0.181465,5,0.1,3,1.9,-0.398657,0.420242,0.660669,-0.0189486,-0.166273,0.0292053,0.186188,0.189586,0.000987202,0.00986485,1.5718,5,0.1,4,1.9,-4.02402,-2.9943,0.576049,0.866024,0.327835,0.0105526,4.47035e-05,-0.024572,-0.000812113,0.0369191,2.20406,5,0.1,5,1.9,-0.283228,4.89238,0.501226,0.0674118,-0.782386,-0.00680573,-0.00393018,-0.028044,0.0240952,0.0118406,2.41734,5,0.1,6,1.9,2.60028,-2.65517,0.508584,-0.866026,0.099479,-0.0101261,0,0.136599,0.0186637,0.00945731,2.26502,5,0.1,7,1.9,-1.84155,-4.00379,0.8663,0.00807587,0.812661,0.175231,0.000752509,0.615776,-0.0213012,0.0136735,2.32338,5,0.1,8,1.9,3.6067,-0.606719,0.578965,0.284905,-0.0938298,0.015279,0.473797,-0.531048,-0.0455193,0.00805239,3.29129,5,0.1,9,1.9,-3.59757,4.11579,1.09991,-0.0025399,-0.338949,0.25779,0.00169873,0.108987,-0.166535,0.015427,0.145139,5,0.1,10,1.9,-1.20558,3.93311,1.18867,0.00982005,-0.115752,0.283963,-0.00860542,0.169203,-0.248604,0.0335576,0.192549,5,0.1,11,1.9,-1.60576,-2.48865,0.500045,0.411997,0.109968,-3.06405e-05,-0.376806,-0.0144839,-0.000435859,0.011711,0.182929,5,0.1,12,1.9,-5.31083,-0.494488,0.503545,0.202272,0.458683,-0.021489,-0.150412,0.852466,0.0857264,0.00922567,1.33174,5,0.1,13,1.9,-0.264922,1.12966,0.608474,-0.035615,-0.633245,-0.00860998,0.0325665,-0.164315,0.00788644,0.0134102,0.51543,5,0.1,14,1.9,1.09107,1.91339,0.503513,-0.401095,-0.222492,-0.0383583,-0.498712,-0.378214,0.265736,0.0111301,0.909494,5,0.1,15,1.9,-3.5494,-5.21363,0.614977,0.306274,0.666423,-0.0152062,-0.34149,0.969291,0.0139065,0.0215816,1.34908,5,0.1,16,1.9,-2.23951,4.08732,1.1122,-0.0108063,-0.309578,0.24512,0.00700355,0.0899434,-0.158325,0.0155772,0.126413,5,0.1,17,1.9,0.520424,-0.713427,0.591135,0.528551,0.267487,0.00900039,-0.463903,-0.244658,-0.00822917,0.0116321,0.144569,5,0.1,18,1.9,-2.02549,1.8074,0.500029,0.718076,-0.186987,-3.63216e-05,-0.371553,0.0109151,-0.000223517,0.010039,0.363443,5,0.1,19,1.9,1.48998,4.501,0.972527,0.0216285,-0.282025,0.358333,0.0234321,0.246316,-0.228409,0.0186986,0.1013,5,0.1,20,1.9,-2.64496,-2.72407,0.50003,0.865524,0.581248,-1.02445e-06,0.0107884,-0.490725,-0.000346452,0.0156373,1.80611,5,0.1,21,1.9,-0.651363,2.40003,0.581697,0.50908,0.333778,0.0185787,-0.465609,-0.152528,-0.0169761,0.0220542,0.204168,5,0.1,22,1.9,-1.41044,-2.86625,1.12993,0.0503354,0.0254203,0.344215,-0.144511,-0.0131279,-0.176817,0.0311101,0.15088,5,0.1,23,1.9,1.05316,2.23724,0.500028,0.0132091,0.193602,0.00015879,0.0159442,-0.123501,-0.00031665,0.0404042,2.47212,5,0.1,24,1.9,-1.53879,-3.707,1.14301,0.255965,-0.0842929,0.2471,-0.0157431,-0.145584,-0.170089,0.0121637,0.167413,5,0.1,25,1.9,-4.00541,-2.16936,0.587716,0.263222,0.376946,0.0126655,-0.170186,-0.310317,-0.00821427,0.0117574,0.143873,5,0.1,26,1.9,-1.39715,1.60863,0.585409,0.865803,-0.189054,0.0126739,-0.00888109,0.0169948,-0.00746176,0.0169955,1.396,5,0.1,27,1.9,1.04988,1.59719,0.500048,-0.166786,-0.27853,0.000605639,0.0594705,0.230134,0.00159815,0.00694736,0.284179,5,0.1,28,1.9,3.7525,-1.8594,0.63024,-0.186093,-0.865963,0.0532415,0.0607669,0.00252575,-0.0173673,0.00941996,1.6385,5,0.1,29,1.9,-0.332721,0.178736,0.574061,0.163844,-0.16176,-0.0269816,-0.351444,-0.687013,-0.260126,0.00598568,0.273758,5,0.1,30,1.9,4.15916,-3.47508,0.568812,0.0156455,0.306904,0.0130529,-0.00497699,1.29977,-0.00697374,0.0171016,3.01731,5,0.1,31,1.9,-0.53264,4.26997,0.729777,0.372208,-0.806722,0.0196823,-0.289839,0.352502,-0.0153072,0.0195881,1.24865,5,0.1,32,1.9,1.26491,-2.92274,0.605645,-0.863802,0.3205,0.240416,-0.0183135,0.171617,-0.220057,0.0133271,1.55592,5,0.1,33,1.9,0.303018,-2.6033,0.774805,-0.294398,0.214723,0.157189,0.159938,-0.106007,-0.308044,0.0151046,0.330441,5,0.1,34,1.9,-3.29121,3.94629,0.500062,-0.81803,-0.0449173,0.000128523,0.211537,0.0347793,-0.000990927,0.0279192,0.549632,5,0.1,35,1.9,2.1157,-1.59372,0.612151,-0.191686,0.849228,-0.0120887,-0.29248,0.372499,0.0112168,0.0335368,2.00054,5,0.1,36,1.9,1.12058,1.90749,1.03252,0.2395,-0.0960981,0.240928,1.53413,0.0945106,-0.450686,0.0123557,2.32659,5,0.1,37,1.9,4.47726,1.40322,0.57899,-0.39498,0.0997392,0.0216509,0.275046,-0.0644252,-0.013981,0.0134105,0.150987,5,0.1,38,1.9,3.66718,-4.30215,0.591365,-0.131221,0.356958,0.0101922,-0.0521541,-0.0151694,-0.00911206,0.0557915,0.257856,5,0.1,39,1.9,-2.53703,4.7482,0.707663,0.866026,-0.466707,0.0198002,0,0.0266135,-0.00112876,0.0130115,2.13683,5,0.1
0,2,0.00089624,-2.42674,0.614933,-0.257785,0.242352,-0.087817,0.0536221,-0.720382,-0.194669,0.00650501,0.269033,5,0.1,1,2,2.99138,-2.13777,1.14991,0.00879765,0.356847,0.204307,-0.00917912,-0.275731,-0.212073,0.0180237,0.132851,5,0.1,2,2,-1.34804,-0.239915,1.13593,-0.0019908,0.474581,0.218576,0.00202656,-0.350557,-0.227034,0.0194947,0.231109,5,0.1,3,2,-0.399783,0.404194,0.663562,-0.00509173,-0.157654,0.0283509,0.0950396,0.0107139,-0.0173748,0.0104103,2.39453,5,0.1,4,2,-3.93742,-2.96168,0.577099,0.866026,0.3236,0.0104144,0,-0.0736713,-0.00235438,0.0373071,2.20719,5,0.1,5,2,-0.276444,4.81357,0.500662,0.0687055,-0.796151,-0.00453889,0.0218302,-0.173092,0.0209212,0.0109517,2.31016,5,0.1,6,2,2.51368,-2.6446,0.507621,-0.866026,0.111085,-0.00950098,0,0.0895262,-0.00321865,0.00933041,2.26201,5,0.1,7,2,-1.84074,-3.92009,0.883693,0.0082016,0.854874,0.172207,0.0012517,0.223041,-0.0462532,0.0142873,2.25924,5,0.1,8,2,3.63751,-0.618696,0.580268,0.330085,-0.144812,0.0108242,0.39959,-0.478297,-0.0428557,0.00898931,3.14744,5,0.1,9,2,-3.59782,4.0824,1.1249,-0.00238419,-0.328779,0.242424,0.00154972,0.111818,-0.152528,0.0147165,0.0858999,5,0.1,10,2,-1.20464,3.92249,1.21575,0.00888407,-0.0959635,0.256905,-0.0101924,0.219584,-0.293672,0.0316298,0.184825,5,0.1,11,2,-1.56644,-2.47754,0.50004,0.374153,0.113434,-6.55651e-05,-0.388503,0.0658035,-0.000208616,0.0123056,0.137186,5,0.1,12,2,-5.29137,-0.444509,0.501801,0.186658,0.538171,-0.013645,-0.166416,0.690758,0.0704229,0.00881116,1.03715,5,0.1,13,2,-0.268321,1.06577,0.607652,-0.0323437,-0.641361,-0.00781864,0.0335723,0.0247955,0.00813603,0.0122905,0.360938,5,0.1,14,2,1.04865,1.88926,0.500881,-0.44466,-0.25923,-0.0156358,-0.344932,-0.331163,0.1854,0.0117617,0.690491,5,0.1,15,2,-3.52048,-5.14265,0.613526,0.272107,0.747228,-0.0138104,-0.345945,0.609398,0.0143349,0.0192501,0.973379,5,0.1,16,2,-2.24056,4.05678,1.13597,-0.0101566,-0.30117,0.230512,0.00631809,0.0946522,-0.145078,0.0161308,0.0780409,5,0.1,17,2,0.570955,-0.6879,0.591994,0.481732,0.242916,0.00817478,-0.483602,-0.252306,-0.00849366,0.012939,0.0962268,5,0.1,18,2,-1.95565,1.78877,0.500025,0.677091,-0.185233,-5.21541e-05,-0.465453,0.033021,-8.9407e-05,0.0121835,0.249017,5,0.1,19,2,1.48797,4.53034,0.93556,0.0182956,-0.303912,0.381197,0.0431538,0.190973,-0.2397,0.0213944,0.1013,5,0.1,20,2,-2.55843,-2.66878,0.500028,0.864166,0.521123,-2.98023e-05,-0.0369549,-0.698447,-0.000268221,0.0180645,1.0234,5,0.1,21,2,-0.60278,2.43263,0.58347,0.462317,0.317919,0.0168741,-0.480145,-0.176549,-0.0175238,0.0274208,0.238917,5,0.1,22,2,-1.40612,-2.86378,1.16337,0.0362188,0.0238836,0.323516,-0.135839,-0.0180006,-0.243187,0.0356642,0.254253,5,0.1,23,2,1.0557,2.25513,0.500042,0.047037,0.157094,0.000102818,0.578582,-0.552654,-0.000745058,0.0453521,3.31633,5,0.1,24,2,-1.51327,-3.71619,1.16688,0.254157,-0.0995219,0.230092,-0.0343323,-0.146151,-0.17786,0.0157201,0.155685,5,0.1,25,2,-3.97988,-2.13319,0.588944,0.247526,0.346422,0.0119075,-0.155926,-0.311375,-0.00751019,0.0126385,0.14441,5,0.1,26,2,-1.31069,1.58987,0.586637,0.862464,-0.185534,0.0118807,-0.0711083,0.0591874,-0.00870228,0.0195897,1.04894,5,0.1,27,2,1.03363,1.57078,0.50011,-0.156879,-0.24704,0.000558794,0.136018,0.386,-0.00211596,0.00833352,0.376636,5,0.1,28,2,3.73423,-1.94596,0.635467,-0.178814,-0.865012,0.0511616,0.090003,0.0200868,-0.0258088,0.0124881,1.25164,5,0.1,29,2,-0.318009,0.159259,0.570077,0.131213,-0.225783,-0.0522852,-0.302941,-0.567764,-0.235498,0.0102133,0.213576,5,0.1,30,2,4.1607,-3.43764,0.570082,0.0150919,0.442177,0.0123262,-0.00691414,1.32263,-0.00792742,0.0230058,2.60835,5,0.1,31,2,-0.496892,4.1914,0.731667,0.342327,-0.761187,0.0181034,-0.315621,0.564814,-0.0166893,0.0257841,1.18093,5,0.1,32,2,1.1786,-2.88974,0.628376,-0.860262,0.339508,0.212345,0.115335,0.178337,-0.331402,0.0200329,1.20674,5,0.1,33,2,0.274318,-2.58218,0.788823,-0.279832,0.209183,0.121921,0.145733,-0.02563,-0.383019,0.022494,0.283863,5,0.1,34,2,-3.37176,3.94197,0.500069,-0.790638,-0.0413299,2.83122e-05,0.360012,0.0379086,-0.000953674,0.0289976,0.378997,5,0.1,35,2,2.09519,-1.50765,0.610998,-0.217086,0.866026,-0.0109717,-0.202179,0,0.0113845,0.0341961,1.51635,5,0.1,36,2,1.15216,1.89847,1.05434,0.389919,-0.083378,0.195566,1.40607,0.153482,-0.451863,0.0130057,2.6699,5,0.1,37,2,4.43918,1.4129,0.58109,-0.365818,0.0937968,0.0203609,0.316143,-0.0590682,-0.012815,0.0132017,0.137753,5,0.1,38,2,3.65393,-4.26659,0.592338,-0.13234,0.353193,0.00923723,0.0292063,-0.0748634,-0.010103,0.0593829,0.209661,5,0.1,39,2,-2.45042,4.70173,0.709635,0.866026,-0.461495,0.0195786,0,0.0972748,-0.00414252,0.0129826,2.14201,5,0.1
0,2.1,-0.0242089,-2.40558,0.605048,-0.240689,0.185388,-0.11073,0.271603,-0.439525,-0.245791,0.00650501,0.269033,5,0.1,1,2.1,2.99221,-2.10372,1.16934,0.00795498,0.321891,0.184835,-0.00789762,-0.409991,-0.183024,0.0180237,0.132851,5,0.1,2,2.1,-1.34823,-0.193932,1.15672,-0.00180472,0.447177,0.197732,0.00175089,-0.22328,-0.195891,0.0194947,0.231109,5,0.1,3,2.1,-0.399921,0.387926,0.666321,0.00139032,-0.172229,0.0269166,0.0384692,-0.261134,-0.0126176,0.0104103,2.39453,5,0.1,4,2.1,-3.85082,-2.92956,0.578133,0.866026,0.319676,0.0102895,0,-0.0237226,-0.000756234,0.0373071,2.20719,5,0.1,5,2.1,-0.269376,4.73262,0.500305,0.0732968,-0.825841,-0.00268063,0.061037,-0.353724,0.0161417,0.0109517,2.31016,5,0.1,6,2.1,2.42708,-2.63303,0.506643,-0.866026,0.120333,-0.0101279,0,0.0872016,-0.00813603,0.00933041,2.26201,5,0.1,7,2.1,-1.83991,-3.83392,0.900754,0.0084959,0.865329,0.169477,0.0038743,0.0278801,-0.0183322,0.0142873,2.25924,5,0.1,8,2.1,3.67264,-0.635024,0.58114,0.372872,-0.177796,0.00667116,0.423044,-0.237986,-0.0395738,0.00898931,3.14744,5,0.1,9,2.1,-3.59805,4.05008,1.14847,-0.00225157,-0.317302,0.229459,0.0012219,0.127524,-0.11728,0.0147165,0.0858999,5,0.1,10,2.1,-1.2038,3.91402,1.23997,0.00786632,-0.073114,0.22755,-0.0102222,0.231594,-0.294864,0.0316298,0.184825,5,0.1,11,2.1,-1.53085,-2.46569,0.500033,0.338483,0.124932,-7.82311e-05,-0.335246,0.146315,-5.21541e-05,0.0123056,0.137186,5,0.1,12,2.1,-5.27349,-0.387542,0.500758,0.171268,0.597615,-0.00753058,-0.146687,0.477482,0.0516362,0.00881116,1.03715,5,0.1,13,2.1,-0.271397,1.00173,0.606909,-0.0292612,-0.63909,-0.00707181,0.0289734,0.0473596,0.00701472,0.0122905,0.360938,5,0.1,14,2.1,1.00243,1.86159,0.500097,-0.479339,-0.294562,-0.00150083,-0.318356,-0.348955,0.0985004,0.0117617,0.690491,5,0.1,15,2.1,-3.49492,-5.06497,0.612212,0.239823,0.804361,-0.0124941,-0.305206,0.490516,0.0123754,0.0192501,0.973379,5,0.1,16,2.1,-2.24154,4.02724,1.15837,-0.00962019,-0.288637,0.218181,0.00485778,0.15904,-0.111543,0.0161308,0.0780409,5,0.1,17,2.1,0.616853,-0.664795,0.592771,0.437324,0.219751,0.00739498,-0.418097,-0.217702,-0.00732765,0.012939,0.0962268,5,0.1,18,2.1,-1.89014,1.77036,0.500019,0.633941,-0.183266,-5.56931e-05,-0.418693,0.0160336,7.45058e-06,0.0121835,0.249017,5,0.1,19,2.1,1.48998,4.501,0.972527,0.0216285,-0.282025,0.358333,0.0234321,0.246316,-0.228409,0.0213944,0.1013,5,0.1,20,2.1,-2.47204,-2.6205,0.500024,0.864315,0.441709,-4.85219e-05,-0.00229478,-0.868008,-0.000115484,0.0180645,1.0234,5,0.1,21,2.1,-0.558807,2.46355,0.585075,0.418234,0.300335,0.0152654,-0.414312,-0.183031,-0.015121,0.0274208,0.238917,5,0.1,22,2.1,-1.40315,-2.86149,1.19444,0.0234373,0.0219364,0.297183,-0.117525,-0.0210553,-0.284851,0.0356642,0.254253,5,0.1,23,2.1,1.06485,2.26782,0.500049,0.148456,0.0947833,3.19444e-05,1.33237,-0.666738,-0.000659376,0.0453521,3.31633,5,0.1,24,2.1,-1.48834,-3.72682,1.18898,0.241599,-0.112185,0.211699,-0.206172,-0.102535,-0.192627,0.0157201,0.155685,5,0.1,25,2.1,-3.95592,-2.10036,0.590097,0.231495,0.307956,0.0111355,-0.169158,-0.445753,-0.00814348,0.0126385,0.14441,5,0.1,26,2.1,-1.2245,1.57173,0.587785,0.862846,-0.176039,0.0110846,0.0286698,0.128686,-0.00760704,0.0195897,1.04894,5,0.1,27,2.1,1.01876,1.54819,0.500154,-0.139197,-0.203391,0.000318885,0.210762,0.473253,-0.00257045,0.00833352,0.376636,5,0.1,28,2.1,3.71676,-2.03245,0.640463,-0.170606,-0.865162,0.0488085,0.0805557,-0.000789762,-0.0230856,0.0124881,1.25164,5,0.1,29,2.1,-0.306131,0.133888,0.56366,0.108724,-0.280576,-0.0759002,-0.160061,-0.504437,-0.226758,0.0102133,0.213576,5,0.1,30,2.1,4.16218,-3.38633,0.57128,0.014551,0.586374,0.0116699,-0.00464916,1.4735,-0.00576302,0.0230058,2.60835,5,0.1,31,2.1,-0.464149,4.11885,0.733399,0.313164,-0.683201,0.0165611,-0.277264,0.959545,-0.0146665,0.0257841,1.18093,5,0.1,32,2.1,1.09294,-2.85549,0.648635,-0.853743,0.340154,0.198612,0.0588,-0.147298,0.015337,0.0200329,1.20674,5,0.1,33,2.1,0.247083,-2.56164,0.799785,-0.264535,0.199167,0.103252,0.165716,-0.166133,-0.0267997,0.022494,0.283863,5,0.1,34,2.1,-3.44915,3.93802,0.500068,-0.757502,-0.037827,-5.04777e-05,0.330836,0.0333041,-0.000633299,0.0289976,0.378997,5,0.1,35,2.1,2.07247,-1.42105,0.609954,-0.236861,0.865838,-0.00993377,-0.17862,-0.00751764,0.00968948,0.0341961,1.51635,5,0.1,36,2.1,1.19867,1.89096,1.07168,0.542847,-0.0662277,0.151579,1.56336,0.184096,-0.424251,0.0130057,2.6699,5,0.1,37,2.1,4.40446,1.42201,0.583069,-0.325979,0.0887768,0.019272,0.467867,-0.0453964,-0.00985339,0.0132017,0.137753,5,0.1,38,2.1,3.64104,-4.23158,0.593213,-0.123887,0.3475,0.00827536,0.132188,-0.0555217,-0.00930578,0.0593829,0.209661,5,0.1,39,2.1,-2.36382,4.65588,0.71158,0.866026,-0.45675,0.0193758,0,0.025034,-0.00107288,0.0129826,2.14201,5,0.1
0,2.2,-0.046675,-2.38892,0.592782,-0.206541,0.150722,-0.133899,0.39728,-0.270247,-0.204653,0.00585941,0.306854,5,0.1,1,2.2,2.99297,-2.07371,1.18692,0.0071764,0.277221,0.166741,-0.00786781,-0.472784,-0.182748,0.017679,0.396921,5,0.1,2,2.2,-1.3484,-0.150294,1.17553,-0.00163019,0.425482,0.17837,0.00178814,-0.229325,-0.195563,0.0200623,0.16755,5,0.1,3,2.2,-0.399656,0.369227,0.668949,0.0033088,-0.202645,0.0256017,0.00308454,-0.315905,-0.0146031,0.00974789,3.33549,5,0.1,4,2.2,-3.76421,-2.89776,0.579156,0.866026,0.315613,0.0101581,0,-0.0710487,-0.00226498,0.0371657,2.21019,5,0.1,5,2.2,-0.261737,4.64841,0.500109,0.0793569,-0.855863,-0.00132173,0.053525,-0.203371,0.0110269,0.0100065,2.33911,5,0.1,6,2.2,2.34047,-2.62062,0.50559,-0.866026,0.127131,-0.010924,0,0.0430346,-0.00688434,0.00975417,2.47828,5,0.1,7,2.2,-1.83904,-3.74733,0.917589,0.00884235,0.866026,0.16683,0.002563,0,-0.0417233,0.0149047,2.2544,5,0.1,8,2.2,3.71186,-0.65394,0.581619,0.409049,-0.200729,0.003016,0.277162,-0.24727,-0.0330806,0.00796945,2.98171,5,0.1,9,2.2,-3.59827,4.01908,1.17082,-0.00212789,-0.301659,0.217178,0.00154972,0.19145,-0.135779,0.013842,0.218502,5,0.1,10,2.2,-1.20307,3.90785,1.26124,0.00683069,-0.0506461,0.197724,-0.0103712,0.213265,-0.302255,0.0283024,0.403649,5,0.1,11,2.2,-1.49866,-2.45246,0.500025,0.305343,0.139594,-7.7486e-05,-0.33474,0.133753,5.96046e-05,0.0151667,0.179399,5,0.1,12,2.2,-5.2571,-0.325883,0.500231,0.156426,0.630301,-0.00331998,-0.154018,0.163198,0.0327826,0.0113671,0.857619,5,0.1,13,2.2,-0.27418,0.93827,0.606236,-0.0263974,-0.627413,-0.0063777,0.028953,0.204146,0.00700355,0.0145819,0.269665,5,0.1,14,2.2,0.953152,1.83054,0.500317,-0.503217,-0.324488,0.00482649,-0.138432,-0.230908,0.0345409,0.0123333,0.499171,5,0.1,15,2.2,-3.47243,-4.98256,0.611024,0.210136,0.838208,-0.0112712,-0.29242,0.157595,0.0123382,0.023088,0.672339,5,0.1,16,2.2,-2.24248,3.99929,1.17962,-0.00910759,-0.268948,0.2065,0.00560284,0.236034,-0.129044,0.0180138,0.21545,5,0.1,17,2.2,0.658514,-0.643896,0.593475,0.395814,0.198233,0.00666976,-0.421613,-0.217408,-0.00727177,0.0127411,0.111297,5,0.1,18,2.2,-1.8289,1.75215,0.500014,0.589794,-0.180373,-5.06639e-05,-0.478745,0.048697,5.96046e-05,0.0128836,0.28767,5,0.1,19,2.2,1.48797,4.53034,0.93556,0.0182956,-0.303912,0.381197,0.0431538,0.190973,-0.2397,0.0227565,0.1013,5,0.1,20,2.2,-2.38585,-2.58079,0.500019,0.856322,0.351483,-5.36442e-05,-0.189185,-0.918746,-2.98023e-05,0.0168332,0.48943,5,0.1,21,2.2,-0.519032,2.49261,0.586527,0.377283,0.280011,0.0137717,-0.413701,-0.228405,-0.0151098,0.0225234,0.210943,5,0.1,22,2.2,-1.40135,-2.85941,1.22266,0.0130594,0.0196636,0.266388,-0.0888109,-0.0244379,-0.331163,0.0328176,0.248276,5,0.1,23,2.2,1.0868,2.27396,0.500049,0.292781,0.0284612,-2.68221e-05,1.46443,-0.6392,-0.000536442,0.0414072,2.78672,5,0.1,24,2.2,-1.46542,-3.73844,1.20915,0.214922,-0.119293,0.191161,-0.31811,-0.0368357,-0.219584,0.0150226,0.268848,5,0.1,25,2.2,-3.93367,-2.07193,0.591167,0.212979,0.259507,0.0102445,-0.203729,-0.512958,-0.00980496,0.0127657,0.259407,5,0.1,26,2.2,-1.13825,1.55487,0.588854,0.859696,-0.160223,0.0102937,-0.126481,0.185251,-0.00846386,0.0178738,0.0903297,5,0.1,27,2.2,1.00597,1.53026,0.500173,-0.115988,-0.154844,6.4075e-05,0.247806,0.48697,-0.00247359,0.00717345,0.456306,5,0.1,28,2.2,3.70013,-2.11886,0.645221,-0.161618,-0.861299,0.0462353,0.103474,0.0947714,-0.0296533,0.0116624,0.927983,5,0.1,29,2.2,-0.295912,0.103571,0.555019,0.0968449,-0.322696,-0.0959277,-0.0878572,-0.321888,-0.166774,0.00777982,0.189992,5,0.1,30,2.2,4.16361,-3.32067,0.572418,0.0140309,0.721759,0.011076,-0.00596046,1.17075,-0.00649691,0.0182952,2.36516,5,0.1,31,2.2,-0.434219,4.05574,0.734981,0.285248,-0.575721,0.0150844,-0.287727,1.16038,-0.015229,0.0213013,1.13556,5,0.1,32,2.2,1.00806,-2.82262,0.668865,-0.84108,0.313455,0.208071,0.224859,-0.370502,0.141799,0.0232617,0.880478,5,0.1,33,2.2,0.221527,-2.54273,0.810317,-0.245801,0.177562,0.110054,0.212334,-0.258327,0.1342,0.0213778,0.22128,5,0.1,34,2.2,-3.5231,3.9344,0.50006,-0.719738,-0.0344694,-0.000101328,0.443816,0.0345707,-0.000298023,0.0266842,1.50497,5,0.1,35,2.2,2.04803,-1.33456,0.609009,-0.25034,0.863022,-0.00897795,-0.0809431,-0.0601411,0.00962615,0.0391915,1.14107,5,0.1,36,2.2,1.26043,1.88527,1.08478,0.687224,-0.0475287,0.11135,1.25974,0.185668,-0.377655,0.0155055,2.09164,5,0.1,37,2.2,4.37437,1.43066,0.584946,-0.274611,0.0840247,0.018242,0.548601,-0.0525117,-0.0114441,0.0151529,0.196287,5,0.1,38,2.2,3.62943,-4.19718,0.593994,-0.107306,0.339305,0.00734776,0.192761,-0.119686,-0.00938773,0.0686303,0.673393,5,0.1,39,2.2,-2.27722,4.61039,0.713509,0.866026,-0.451803,0.0191644,0,0.0936985,-0.00396371,0.0162685,2.14697,5,0.1
0,2.3,-0.0652254,-2.37489,0.578545,-0.163609,0.132556,-0.149045,0.449097,-0.110537,-0.0976361,0.00585941,0.306854,5,0.1,1,2.3,2.99365,-2.04855,1.20274,0.00645891,0.22499,0.150083,-0.00667572,-0.535816,-0.155166,0.017679,0.396921,5,0.1,2,2.3,-1.34856,-0.108725,1.19245,-0.00146739,0.407044,0.160545,0.00151992,-0.159993,-0.166006,0.0200623,0.16755,5,0.1,3,2.3,-0.399334,0.347051,0.671493,0.00291807,-0.243217,0.0257381,-0.00958703,-0.456827,0.0131689,0.00974789,3.33549,5,0.1,4,2.3,-3.67761,-2.86642,0.580165,0.866026,0.311878,0.0100396,0,-0.022158,-0.00070408,0.0371657,2.21019,5,0.1,5,2.3,-0.253486,4.56225,0.500024,0.0859448,-0.863369,-0.00046948,0.0707302,0.0395775,0.00622496,0.0100065,2.33911,5,0.1,6,2.3,2.25461,-2.60754,0.504482,-0.844105,0.135655,-0.0110674,0.424698,0.111327,0.0034906,0.00975417,2.47828,5,0.1,7,2.3,-1.83814,-3.66073,0.934136,0.00921097,0.866026,0.164556,0.00410527,0,-0.0136793,0.0149047,2.2544,5,0.1,8,2.3,3.7542,-0.675142,0.581762,0.437523,-0.225141,-8.23289e-05,0.264436,-0.344746,-0.0284165,0.00796945,2.98171,5,0.1,9,2.3,-3.59848,3.99017,1.19182,-0.00196621,-0.273868,0.202527,0.00172853,0.351727,-0.159658,0.013842,0.218502,5,0.1,10,2.3,-1.20244,3.90388,1.27954,0.00582729,-0.0288416,0.168518,-0.00972301,0.210062,-0.282735,0.0283024,0.403649,5,0.1,11,2.3,-1.46955,-2.43754,0.500017,0.278876,0.160855,-6.81728e-05,-0.212431,0.263497,0.000119209,0.0151667,0.179399,5,0.1,12,2.3,-5.24218,-0.263006,0.500034,0.142288,0.619062,-0.000888482,-0.133157,-0.329541,0.016816,0.0113671,0.857619,5,0.1,13,2.3,-0.276841,0.876501,0.605631,-0.0282038,-0.607878,-0.00573955,-0.0544507,0.208437,0.00594556,0.0145819,0.269665,5,0.1,14,2.3,0.902141,1.79692,0.500898,-0.516342,-0.347413,0.00612605,-0.0999682,-0.206828,-0.00507385,0.0123333,0.499171,5,0.1,15,2.3,-3.4528,-4.89802,0.609954,0.183284,0.851221,-0.0101463,-0.249371,0.0682771,0.0104792,0.023088,0.672339,5,0.1,16,2.3,-2.24336,3.97382,1.1996,-0.00850074,-0.23853,0.192574,0.00663102,0.360936,-0.151776,0.0180138,0.21545,5,0.1,17,2.3,0.696308,-0.624998,0.594111,0.362676,0.181043,0.00609504,-0.264507,-0.137959,-0.00461563,0.0127411,0.111297,5,0.1,18,2.3,-1.77202,1.73432,0.500009,0.550026,-0.176298,-4.25614e-05,-0.34409,0.0406131,0.000100583,0.0128836,0.28767,5,0.1,19,2.3,1.48998,4.501,0.972527,0.0216285,-0.282025,0.358333,0.0234321,0.246316,-0.228409,0.0227565,0.1013,5,0.1,20,2.3,-2.3012,-2.5502,0.500014,0.835497,0.261232,-5.16884e-05,-0.253141,-0.873178,5.58794e-05,0.0168332,0.48943,5,0.1,21,2.3,-0.48324,2.51923,0.587833,0.339576,0.250371,0.0123948,-0.351166,-0.353754,-0.0128224,0.0225234,0.210943,5,0.1,22,2.3,-1.40043,-2.85756,1.24764,0.00576042,0.0172213,0.233281,-0.0579953,-0.0244677,-0.331596,0.0328176,0.248276,5,0.1,23,2.3,1.12396,2.27365,0.500044,0.453543,-0.0336107,-6.73346e-05,1.65945,-0.586972,-0.000279397,0.0414072,2.78672,5,0.1,24,2.3,-1.44566,-3.75052,1.22719,0.179182,-0.121866,0.169906,-0.386611,-0.0108629,-0.20808,0.0150226,0.268848,5,0.1,25,2.3,-3.91328,-2.04868,0.592148,0.195501,0.204644,0.00940338,-0.154778,-0.56459,-0.00745058,0.0127657,0.259407,5,0.1,26,2.3,-1.05352,1.53989,0.589844,0.828904,-0.13835,0.00951868,-0.481259,0.245579,-0.00735372,0.0178738,0.0903297,5,0.1,27,2.3,0.995793,1.51716,0.500169,-0.0861454,-0.107866,-0.000138022,0.334602,0.44471,-0.00158697,0.00717345,0.456306,5,0.1,28,2.3,3.68446,-2.20477,0.649705,-0.152078,-0.858395,0.0435021,0.0925958,0.0112206,-0.0265241,0.0116624,0.927983,5,0.1,29,2.3,-0.286465,0.0697489,0.544844,0.0937614,-0.352683,-0.105211,0.01215,-0.258535,-0.0257604,0.00777982,0.189992,5,0.1,30,2.3,4.16499,-3.24345,0.573498,0.0135846,0.814366,0.0105625,-0.00372529,0.671968,-0.00433624,0.0182952,2.36516,5,0.1,31,2.3,-0.407047,4.00424,0.736418,0.258862,-0.452568,0.0136877,-0.248073,1.26287,-0.0131316,0.0213013,1.13556,5,0.1,32,2.3,0.924944,-2.79335,0.690682,-0.821727,0.270126,0.230482,0.197425,-0.483409,0.274785,0.0232617,0.880478,5,0.1,33,2.3,0.197984,-2.52634,0.822297,-0.225167,0.149458,0.131874,0.205221,-0.297889,0.274554,0.0213778,0.22128,5,0.1,34,2.3,-3.59377,3.9308,0.500049,-0.700798,-0.0401881,-0.000119023,0.00759959,-0.128224,-6.70552e-05,0.0266842,1.50497,5,0.1,35,2.3,2.02274,-1.24831,0.608156,-0.253802,0.863408,-0.00810465,0.0145882,0.0225753,0.00810996,0.0391915,1.14107,5,0.1,36,2.3,1.33479,1.88145,1.09411,0.792595,-0.0289949,0.0758946,0.825167,0.181101,-0.329137,0.0155055,2.09164,5,0.1,37,2.3,4.34971,1.43884,0.586721,-0.218214,0.0797454,0.0173096,0.570118,-0.0372976,-0.00812113,0.0151529,0.196287,5,0.1,38,2.3,3.61973,-4.16348,0.594684,-0.0861075,0.337521,0.0064739,0.224546,0.0508726,-0.00823662,0.0686303,0.673393,5,0.1,39,2.3,-2.19062,4.5655,0.715414,0.866026,-0.447321,0.0189749,0,0.0228882,-0.00096485,0.0162685,2.14697,5,0.1
0,2.4,-0.0793388,-2.36204,0.563333,-0.118878,0.125521,-0.153422,0.436213,-0.0437498,0.00944734,0.0211974,3.32164,5,0.1,1,2.4,2.99426,-2.02861,1.21698,0.00581145,0.175571,0.1349,-0.00667572,-0.433564,-0.151813,0.0204667,0.363784,5,0.1,2,2.4,-1.3487,-0.0688436,1.20769,-0.00131726,0.389966,0.144303,0.00143051,-0.196191,-0.162482,0.0185644,0.440691,5,0.1,3,2.4,-0.399103,0.320474,0.67415,0.00162795,-0.287293,0.0275061,-0.0151843,-0.396177,0.0189841,0.00879762,3.27002,5,0.1,4,2.4,-3.59101,-2.83539,0.581164,0.866026,0.308007,0.00991523,0,-0.0683069,-0.00217557,0.0313767,2.21308,5,0.1,5,2.4,-0.24456,4.47652,0.500001,0.0922084,-0.84641,-3.27826e-05,0.0490919,0.328541,0.00271201,0.0107571,2.60487,5,0.1,6,2.4,2.17293,-2.59341,0.503406,-0.783867,0.146592,-0.0103265,0.765681,0.0954866,0.010848,0.0102778,2.58363,5,0.1,7,2.4,-1.8372,-3.57412,0.950503,0.0095427,0.866026,0.162397,0.00202656,0,-0.0366271,0.0165901,2.25513,5,0.1,8,2.4,3.79907,-0.7,0.581623,0.457227,-0.278027,-0.00258833,0.110149,-0.692695,-0.0214279,0.00934814,2.72173,5,0.1,9,2.4,-3.59866,3.96472,1.21122,-0.00178218,-0.23365,0.184885,0.00190735,0.44179,-0.19443,0.0150897,0.21098,5,0.1,10,2.4,-1.2019,3.90196,1.295,0.00488162,-0.0106573,0.141039,-0.00923872,0.146031,-0.267386,0.0353999,0.961639,5,0.1,11,2.4,-1.44264,-2.42011,0.500011,0.259754,0.187421,-5.51343e-05,-0.183225,0.247121,0.000149012,0.0147306,0.114971,5,0.1,12,2.4,-5.22861,-0.203188,0.50001,0.129032,0.573866,0.000220537,-0.134945,-0.538095,0.00616908,0.0127265,0.704802,5,0.1,13,2.4,-0.279999,0.816908,0.605087,-0.0354029,-0.582071,-0.00515729,-0.0813156,0.322312,0.00578165,0.0137213,0.184076,5,0.1,14,2.4,0.850232,1.76132,0.501443,-0.519177,-0.362355,0.00443757,0.0594556,-0.0778437,-0.0258684,0.0133732,0.347636,5,0.1,15,2.4,-3.43567,-4.81293,0.608991,0.159448,0.846171,-0.009121,-0.231028,-0.192404,0.0102818,0.025467,0.490902,5,0.1,16,2.4,-2.24418,3.9519,1.21804,-0.00776052,-0.198853,0.175801,0.00798702,0.423074,-0.184834,0.0165707,0.414875,5,0.1,17,2.4,0.731355,-0.60753,0.594699,0.338843,0.168626,0.00567734,-0.229448,-0.118971,-0.00393391,0.010216,0.219125,5,0.1,18,2.4,-1.7187,1.71693,0.500005,0.516245,-0.170931,-3.12924e-05,-0.351429,0.0721812,0.000119209,0.0147826,0.341986,5,0.1,19,2.4,1.48797,4.53034,0.93556,0.0182956,-0.303912,0.381197,0.0431538,0.190973,-0.2397,0.019193,0.1013,5,0.1,20,2.4,-2.2192,-2.52828,0.500009,0.801438,0.17907,-4.32134e-05,-0.444531,-0.760913,8.9407e-05,0.0173294,0.34313,5,0.1,21,2.4,-0.451007,2.54236,0.58901,0.305215,0.211221,0.0111401,-0.343651,-0.419974,-0.0125468,0.0227503,0.181498,5,0.1,22,2.4,-1.4001,-2.85596,1.26931,0.00128746,0.0147641,0.200003,-0.0323653,-0.0245571,-0.333965,0.0324293,0.495014,5,0.1,23,2.4,1.17732,2.26755,0.500036,0.608882,-0.0863373,-8.64267e-05,1.3808,-0.457168,-5.96046e-05,0.039174,2.42567,5,0.1,24,2.4,-1.42971,-3.7627,1.24314,0.139418,-0.120854,0.149128,-0.400782,0.0332594,-0.209153,0.0131732,0.262284,5,0.1,25,2.4,-3.89449,-2.031,0.593052,0.180483,0.1499,0.00868142,-0.151873,-0.516891,-0.00733137,0.0117861,2.71472,5,0.1,26,2.4,-0.973562,1.52734,0.590759,0.765237,-0.112319,0.00876635,-0.782222,0.269532,-0.00783801,0.0153398,0.0294216,5,0.1,27,2.4,0.988897,1.50848,0.500148,-0.0516281,-0.0671834,-0.00025928,0.344574,0.364065,-0.000834465,0.00743255,0.465445,5,0.1,28,2.4,3.66973,-2.29037,0.653918,-0.142205,-0.850898,0.0406757,0.10848,0.172496,-0.031054,0.012221,0.663118,5,0.1,29,2.4,-0.276958,0.0334216,0.53438,0.0968061,-0.37119,-0.102384,0.0380725,-0.0987959,0.0761151,0.00780806,0.18992,5,0.1,30,2.4,4.16633,-3.15949,0.574532,0.0131607,0.856638,0.0101134,-0.00524521,0.187755,-0.00506639,0.0172391,2.276,5,0.1,31,2.4,-0.382389,3.9652,0.737722,0.23426,-0.329894,0.0123844,-0.249609,1.16324,-0.0131726,0.0186899,1.09844,5,0.1,32,2.4,0.843949,-2.76885,0.71511,-0.795656,0.219077,0.257525,0.348181,-0.527024,0.24274,0.0188264,0.637761,5,0.1,33,2.4,0.176514,-2.51291,0.836902,-0.203953,0.119048,0.160131,0.222206,-0.305414,0.26986,0.0185638,0.173814,5,0.1,34,2.4,-3.66404,3.92602,0.500037,-0.705522,-0.0564337,-0.000117719,-0.0480413,-0.180721,8.9407e-05,0.0215035,1.16213,5,0.1,35,2.4,1.99761,-1.16202,0.607385,-0.24704,0.860029,-0.00731051,0.121653,-0.119925,0.00795722,0.0520702,0.844198,5,0.1,36,2.4,1.41734,1.87942,1.10015,0.849953,-0.0119805,0.0459075,0.321448,0.156343,-0.269234,0.0186314,2.28594,5,0.1,37,2.4,4.33071,1.44662,0.588411,-0.162256,0.0758469,0.0164613,0.541925,-0.0436306,-0.00947714,0.013057,0.194011,5,0.1,38,2.4,3.61225,-4.12942,0.595291,-0.0635743,0.343716,0.00567287,0.221133,0.0488758,-0.00783801,0.0650918,3.5091,5,0.1,39,2.4,-2.10401,4.52094,0.717304,0.866026,-0.442624,0.018777,0,0.0903606,-0.0038743,0.0123944,2.1518,5,0.1
