id,t,px,py,pz,vx,vy,vz,ax,ay,az,planning_time,qp_cost,planning_report,size,id,t,px,py,pz,vx,vy,vz,ax,ay,az,planning_time,qp_cost,planning_report,size,id,t,px,py,pz,vx,vy,vz,ax,ay,az,planning_time,qp_cost,planning_report,size,id,t,px,py,pz,vx,vy,vz,ax,ay,az,planning_time,qp_cost,planning_report,size,id,t,px,py,pz,vx,vy,vz,ax,ay,az,planning_time,qp_cost,planning_report,size,id,t,px,py,pz,vx,vy,vz,ax,ay,az,planning_time,qp_cost,planning_report,size,id,t,px,py,pz,vx,vy,vz,ax,ay,az,planning_time,qp_cost,planning_report,size,id,t,px,py,pz,vx,vy,vz,ax,ay,az,planning_time,qp_cost,planning_report,size,id,t,px,py,pz,vx,vy,vz,ax,ay,az,planning_time,qp_cost,planning_report,size,id,t,px,py,pz,vx,vy,vz,ax,ay,az,planning_time,qp_cost,planning_report,size,id,t,px,py,pz,vx,vy,vz,ax,ay,az,planning_time,qp_cost,planning_report,size,id,t,px,py,pz,vx,vy,vz,ax,ay,az,planning_time,qp_cost,planning_report,size,id,t,px,py,pz,vx,vy,vz,ax,ay,az,planning_time,qp_cost,planning_report,size,id,t,px,py,pz,vx,vy,vz,ax,ay,az,planning_time,qp_cost,planning_report,size,id,t,px,py,pz,vx,vy,vz,ax,ay,az,planning_time,qp_cost,planning_report,size,id,t,px,py,pz,vx,vy,vz,ax,ay,az,planning_time,qp_cost,planning_report,size,id,t,px,py,pz,vx,vy,vz,ax,ay,az,planning_time,qp_cost,planning_report,size,id,t,px,py,pz,vx,vy,vz,ax,ay,az,planning_time,qp_cost,planning_report,size,id,t,px,py,pz,vx,vy,vz,ax,ay,az,planning_time,qp_cost,planning_report,size,id,t,px,py,pz,vx,vy,vz,ax,ay,az,planning_time,qp_cost,planning_report,size,id,t,px,py,pz,vx,vy,vz,ax,ay,az,planning_time,qp_cost,planning_report,size,id,t,px,py,pz,vx,vy,vz,ax,ay,az,planning_time,qp_cost,planning_report,size,id,t,px,py,pz,vx,vy,vz,ax,ay,az,planning_time,qp_cost,planning_report,size,id,t,px,py,pz,vx,vy,vz,ax,ay,az,planning_time,qp_cost,planning_report,size,id,t,px,py,pz,vx,vy,vz,ax,ay,az,planning_time,qp_cost,planning_report,size,id,t,px,py,pz,vx,vy,vz,ax,ay,az,planning_time,qp_cost,planning_report,size,id,t,px,py,pz,vx,vy,vz,ax,ay,az,planning_time,qp_cost,planning_report,size,id,t,px,py,pz,vx,vy,vz,ax,ay,az,planning_time,qp_cost,planning_report,size,id,t,px,py,pz,vx,vy,vz,ax,ay,az,planning_time,qp_cost,planning_report,size,id,t,px,py,pz,vx,vy,vz,ax,ay,az,planning_time,qp_cost,planning_report,size,id,t,px,py,pz,vx,vy,vz,ax,ay,az,planning_time,qp_cost,planning_report,size,id,t,px,py,pz,vx,vy,vz,ax,ay,az,planning_time,qp_cost,planning_report,size,id,t,px,py,pz,vx,vy,vz,ax,ay,az,planning_time,qp_cost,planning_report,size,id,t,px,py,pz,vx,vy,vz,ax,ay,az,planning_time,qp_cost,planning_report,size,id,t,px,py,pz,vx,vy,vz,ax,ay,az,planning_time,qp_cost,planning_report,size,id,t,px,py,pz,vx,vy,vz,ax,ay,az,planning_time,qp_cost,planning_report,size,id,t,px,py,pz,vx,vy,vz,ax,ay,az,planning_time,qp_cost,planning_report,size,id,t,px,py,pz,vx,vy,vz,ax,ay,az,planning_time,qp_cost,planning_report,size,id,t,px,py,pz,vx,vy,vz,ax,ay,az,planning_time,qp_cost,planning_report,size,id,t,px,py,pz,vx,vy,vz,ax,ay,az,planning_time,qp_cost,planning_report,size
0,0,-3.92966,5.69415,0.601074,0,0,0,0,0,0,0.00911077,1.78647,5,0.1,1,0,-0.706457,-0.17695,0.68536,0,0,0,0,0,0,0.0118131,0.678764,5,0.1,2,0,-1.88264,2.15329,0.62702,0,0,0,0,0,0,0.0130519,0.881212,5,0.1,3,0,2.62259,-3.20344,0.69749,0,0,0,0,0,0,0.0128165,3.17466,5,0.1,4,0,2.11737,-0.280108,0.628342,0,0,0,0,0,0,0.0115366,3.51219,5,0.1,5,0,-2.46889,4.16135,0.646589,0,0,0,0,0,0,0.0092948,1.18507,5,0.1,6,0,1.60749,4.68679,0.591553,0,0,0,0,0,0,0.0289524,0.714739,5,0.1,7,0,-1.52597,4.85281,0.640447,0,0,0,0,0,0,0.0324995,1.51053,5,0.1,8,0,5.63914,0.958443,0.613758,0,0,0,0,0,0,0.0223948,2.62529,5,0.1,9,0,0.1086,2.38606,0.506347,0,0,0,0,0,0,0.0097782,1.83791,5,0.1,10,0,-4.16556,4.30066,0.662801,0,0,0,0,0,0,0.042777,3.5122,5,0.1,11,0,0.641282,-0.132004,0.675505,0,0,0,0,0,0,0.0125744,3.51219,5,0.1,12,0,-3.80054,-2.95756,0.639717,0,0,0,0,0,0,0.0126589,3.51219,5,0.1,13,0,-5.22881,-3.05645,0.604423,0,0,0,0,0,0,0.0279898,3.5122,5,0.1,14,0,4.87508,0.97278,0.561111,0,0,0,0,0,0,0.0302038,0.995892,5,0.1,15,0,1.24832,-2.63901,0.617783,0,0,0,0,0,0,0.0158201,2.36031,5,0.1,16,0,0.665054,-3.42918,0.575622,0,0,0,0,0,0,0.0121603,3.5122,5,0.1,17,0,2.11394,-3.76809,0.69768,0,0,0,0,0,0,0.00889585,2.43628,5,0.1,18,0,4.5094,-5.41841,0.567708,0,0,0,0,0,0,0.0137818,1.72916,5,0.1,19,0,2.02358,-2.89025,0.581718,0,0,0,0,0,0,0.0258773,1.31981,5,0.1,20,0,-5.46748,-0.889506,0.68169,0,0,0,0,0,0,0.00960366,0.35539,5,0.1,21,0,3.56318,-5.82973,0.699097,0,0,0,0,0,0,0.0254938,3.21653,5,0.1,22,0,-3.82345,1.97317,0.562533,0,0,0,0,0,0,0.0312321,0.863523,5,0.1,23,0,-1.04612,4.30697,0.555558,0,0,0,0,0,0,0.0157405,3.51219,5,0.1,24,0,0.443913,1.80704,0.645965,0,0,0,0,0,0,0.0094869,0.428182,5,0.1,25,0,0.414325,-5.30892,0.611751,0,0,0,0,0,0,0.0109584,2.23291,5,0.1,26,0,-0.10329,0.386463,0.629359,0,0,0,0,0,0,0.0100168,0.836812,5,0.1,27,0,-2.3454,5.01678,0.685525,0,0,0,0,0,0,0.0321305,3.51219,5,0.1,28,0,-3.38473,-4.5243,0.684396,0,0,0,0,0,0,0.0178581,0.910246,5,0.1,29,0,-1.13736,5.81629,0.58629,0,0,0,0,0,0,0.0587654,3.5122,5,0.1,30,0,-0.395267,1.7928,0.669662,0,0,0,0,0,0,0.0189801,3.5122,5,0.1,31,0,-4.53435,-3.42663,0.690307,0,0,0,0,0,0,0.011875,1.4991,5,0.1,32,0,5.23642,1.79301,0.61979,0,0,0,0,0,0,0.0109095,3.51219,5,0.1,33,0,-2.84071,-3.59729,0.605905,0,0,0,0,0,0,0.0100029,1.95533,5,0.1,34,0,-3.76585,-0.562294,0.644302,0,0,0,0,0,0,0.0151104,0.749286,5,0.1,35,0,1.95967,2.75674,0.536381,0,0,0,0,0,0,0.0119017,3.51219,5,0.1,36,0,3.83599,-4.39313,0.546457,0,0,0,0,0,0,0.0288974,3.5122,5,0.1,37,0,0.0744891,-1.83065,0.648337,0,0,0,0,0,0,0.0316548,3.51219,5,0.1,38,0,1.27589,5.53076,0.652912,0,0,0,0,0,0,0.0134198,1.65566,5,0.1,39,0,-0.674569,-0.754898,0.520523,0,0,0,0,0,0,0.0175944,2.99202,5,0.1
0,0.1,-3.9287,5.69301,0.601024,0.0272315,-0.032299,-0.00140686,0.484124,-0.574201,-0.0250116,0.00911077,1.78647,5,0.1,1,0.1,-0.706032,-0.176139,0.685428,0.0120451,0.0230243,0.00191545,0.214133,0.409319,0.0340529,0.0118131,0.678764,5,0.1,2,0.1,-1.88239,2.1526,0.627775,0.00689384,-0.0193592,0.021425,0.122555,-0.344172,0.380885,0.0130519,0.881212,5,0.1,3,0.1,2.62079,-3.20261,0.697544,-0.0510477,0.0238094,0.00155596,-0.907511,0.423267,0.0276677,0.0128165,3.17466,5,0.1,4,0.1,2.1172,-0.28219,0.628314,-0.00466444,-0.0590792,-0.000789762,-0.082925,-1.0503,-0.0140443,0.0115366,3.51219,5,0.1,5,0.1,-2.47006,4.16167,0.646612,-0.0331383,0.00931174,0.000657607,-0.589117,0.165522,0.0116937,0.0092948,1.18507,5,0.1,6,0.1,1.60754,4.68628,0.592345,0.00125989,-0.0144251,0.022476,0.0223964,-0.256449,0.399575,0.0289524,0.714739,5,0.1,7,0.1,-1.52594,4.85166,0.641188,0.000770018,-0.0326812,0.0210271,0.0136793,-0.581026,0.373814,0.0324995,1.51053,5,0.1,8,0.1,5.63763,0.957442,0.613744,-0.0426464,-0.0284028,-0.000407733,-0.758201,-0.504937,-0.00724941,0.0223948,2.62529,5,0.1,9,0.1,0.10724,2.38543,0.506522,-0.0386066,-0.017973,0.00496972,-0.686339,-0.319511,0.088349,0.0097782,1.83791,5,0.1,10,0.1,-4.16348,4.30046,0.662768,0.0589669,-0.00588298,-0.000922196,1.04833,-0.104606,-0.0163987,0.042777,3.5122,5,0.1,11,0.1,0.639203,-0.132199,0.675482,-0.0590044,-0.00554649,-0.000657141,-1.04897,-0.0986047,-0.0116825,0.0125744,3.51219,5,0.1,12,0.1,-3.79862,-2.95838,0.639676,0.0544727,-0.0233259,-0.00116928,0.968397,-0.414684,-0.0207834,0.0126589,3.51219,5,0.1,13,0.1,-5.22675,-3.0561,0.604421,0.0584386,0.0098899,-6.65896e-05,1.03888,0.175804,-0.00118092,0.0279898,3.5122,5,0.1,14,0.1,4.87437,0.971921,0.561152,-0.0200048,-0.0243824,0.00115251,-0.355661,-0.433467,0.0204854,0.0302038,0.995892,5,0.1,15,0.1,1.2467,-2.63844,0.617764,-0.0458829,0.0159733,-0.000527035,-0.815704,0.283957,-0.00936911,0.0158201,2.36031,5,0.1,16,0.1,0.666937,-3.42827,0.575637,0.0534414,0.0256237,0.000422262,0.950065,0.455543,0.00751019,0.0121603,3.5122,5,0.1,17,0.1,2.114,-3.76636,0.697644,0.00155047,0.0493277,-0.00102548,0.0275671,0.876948,-0.0182353,0.00889585,2.43628,5,0.1,18,0.1,4.50908,-5.41698,0.567742,-0.00916794,0.0405513,0.000957027,-0.162989,0.720888,0.0170097,0.0137818,1.72916,5,0.1,19,0.1,2.02241,-2.88974,0.581737,-0.0332963,0.0145283,0.000541657,-0.591919,0.258282,0.0096336,0.0258773,1.31981,5,0.1,20,0.1,-5.46745,-0.89017,0.681699,0.000881404,-0.0188308,0.000266731,0.0156462,-0.334769,0.00474602,0.00960366,0.35539,5,0.1,21,0.1,3.56118,-5.82975,0.69915,-0.0566959,-0.000599772,0.00150846,-1.00791,-0.010699,0.0268184,0.0254938,3.21653,5,0.1,22,0.1,-3.82306,1.97267,0.563355,0.0110671,-0.0140216,0.023336,0.196755,-0.249282,0.414863,0.0312321,0.863523,5,0.1,23,0.1,-1.04771,4.30832,0.555671,-0.0452111,0.0381902,0.00320887,-0.803746,0.678897,0.0570528,0.0157405,3.51219,5,0.1,24,0.1,0.444642,1.80705,0.645956,0.0206904,0.000284053,-0.000272039,0.36783,0.00505894,-0.00483915,0.0094869,0.428182,5,0.1,25,0.1,0.414676,-5.30729,0.611739,0.00994741,0.0461966,-0.000348222,0.176841,0.821233,-0.00619516,0.0109584,2.23291,5,0.1,26,0.1,-0.104278,0.386216,0.629328,-0.028055,-0.00700741,-0.000870135,-0.498755,-0.124576,-0.0154637,0.0100168,0.836812,5,0.1,27,0.1,-2.34359,5.01574,0.685578,0.0513181,-0.0296108,0.00150697,0.912338,-0.526458,0.026796,0.0321305,3.51219,5,0.1,28,0.1,-3.38526,-4.52521,0.684465,-0.0152703,-0.0259519,0.00194414,-0.271454,-0.46134,0.0345595,0.0178581,0.910246,5,0.1,29,0.1,-1.13742,5.81433,0.587014,-0.00168476,-0.0555716,0.0205389,-0.0299588,-0.987917,0.365142,0.0587654,3.5122,5,0.1,30,0.1,-0.393581,1.79403,0.669626,0.0478869,0.0349073,-0.00102408,0.851326,0.620581,-0.0182018,0.0189801,3.5122,5,0.1,31,0.1,-4.53508,-3.42549,0.69027,-0.0209033,0.0325762,-0.00103824,-0.371635,0.579149,-0.0184625,0.011875,1.4991,5,0.1,32,0.1,5.23643,1.79092,0.619651,0.000315905,-0.0591356,-0.00394844,0.00560284,-1.05131,-0.0701919,0.0109095,3.51219,5,0.1,33,0.1,-2.83978,-3.59604,0.605899,0.0263952,0.0354808,-0.000175182,0.469238,0.630781,-0.00311062,0.0100029,1.95533,5,0.1,34,0.1,-3.76489,-0.562177,0.644256,0.0271406,0.00332762,-0.0013127,0.482485,0.0591576,-0.0233389,0.0151104,0.749286,5,0.1,35,0.1,1.95808,2.75538,0.536437,-0.0449151,-0.0386376,0.00157887,-0.798494,-0.686899,0.0280701,0.0119017,3.51219,5,0.1,36,0.1,3.83483,-4.3914,0.546493,-0.0329658,0.0492446,0.00101672,-0.586063,0.875443,0.0180714,0.0288974,3.5122,5,0.1,37,0.1,0.0744074,-1.82856,0.648319,-0.00231989,0.0592209,-0.000499561,-0.0412422,1.05281,-0.00888109,0.0316548,3.51219,5,0.1,38,0.1,1.27597,5.52952,0.65364,0.00219587,-0.0349917,0.0206577,0.0390485,-0.622064,0.367247,0.0134198,1.65566,5,0.1,39,0.1,-0.674167,-0.753204,0.520436,0.0113982,0.0480854,-0.00247499,0.20263,0.854854,-0.0439994,0.0175944,2.99202,5,0.1
0,0.2,-3.92317,5.68645,0.600739,0.0860631,-0.102079,-0.00444651,0.645399,-0.7658,-0.0333488,0.0111245,1.4657,5,0.1,1,0.2,-0.703586,-0.171462,0.685817,0.038068,0.072768,0.00605434,0.285506,0.545762,0.0453889,0.0106994,0.556892,5,0.1,2,0.2,-1.88099,2.14867,0.632127,0.0217885,-0.0611901,0.0677139,0.163436,-0.458717,0.507832,0.0171673,0.722996,5,0.1,3,0.2,2.61042,-3.19777,0.69786,-0.161332,0.0752509,0.00491738,-1.21009,0.564337,0.0368953,0.0205548,2.60465,5,0.1,4,0.2,2.11625,-0.29419,0.628154,-0.0147402,-0.18672,-0.00249594,-0.110626,-1.40038,-0.0187159,0.0110502,3.02647,5,0.1,5,0.2,-2.47679,4.16356,0.646746,-0.104731,0.0294328,0.00207722,-0.78547,0.220537,0.0156164,0.00947887,0.972294,5,0.1,6,0.2,1.60779,4.68335,0.596911,0.00397861,-0.0455856,0.0710353,0.0299215,-0.342131,0.532746,0.0255964,0.586404,5,0.1,7,0.2,-1.52579,4.84502,0.645459,0.00243187,-0.103283,0.0664562,0.018239,-0.77486,0.498414,0.0269212,1.23931,5,0.1,8,0.2,5.62897,0.951673,0.613661,-0.13479,-0.0897661,-0.00128895,-1.01089,-0.673234,-0.00965595,0.0157608,2.15392,5,0.1,9,0.2,0.0993981,2.38178,0.507531,-0.122016,-0.0568032,0.0157073,-0.915118,-0.426054,0.117779,0.00924161,1.50791,5,0.1,10,0.2,-4.15151,4.29926,0.662581,0.186372,-0.0185966,-0.00291467,1.39761,-0.139475,-0.0218451,0.0468132,2.92581,5,0.1,11,0.2,0.627218,-0.133326,0.675349,-0.186484,-0.0175297,-0.00207722,-1.39862,-0.131473,-0.0155866,0.0118069,2.92579,5,0.1,12,0.2,-3.78755,-2.96312,0.639439,0.172156,-0.073725,-0.00369549,1.29128,-0.552773,-0.0276864,0.0136572,2.9237,5,0.1,13,0.2,-5.21488,-3.05409,0.604407,0.184691,0.0312567,-0.000211596,1.38521,0.234485,-0.00154972,0.0304174,2.92602,5,0.1,14,0.2,4.87031,0.966969,0.561386,-0.0632286,-0.0770599,0.00364184,-0.474215,-0.577986,0.0273287,0.0339839,0.817076,5,0.1,15,0.2,1.23738,-2.6352,0.617657,-0.145015,0.0504792,-0.00166595,-1.08755,0.378728,-0.0124872,0.0187566,1.93651,5,0.1,16,0.2,0.677792,-3.42307,0.575723,0.1689,0.0809848,0.00133365,1.26675,0.607371,0.0100434,0.0151309,2.9258,5,0.1,17,0.2,2.11431,-3.75634,0.697436,0.0048995,0.155902,-0.00324249,0.0368357,1.16909,-0.0242889,0.0158755,1.99886,5,0.1,18,0.2,4.50721,-5.40875,0.567936,-0.0289798,0.128162,0.00302345,-0.217199,0.961304,0.0227094,0.0122527,1.41868,5,0.1,19,0.2,2.01565,-2.88678,0.581847,-0.105238,0.0459194,0.00171214,-0.789046,0.344276,0.0128448,0.0218882,1.08285,5,0.1,20,0.2,-5.46727,-0.893995,0.681753,0.0027895,-0.0595137,0.000843406,0.020504,-0.446379,0.00631809,0.00922587,0.29158,5,0.1,21,0.2,3.54967,-5.82987,0.699457,-0.179189,-0.00190735,0.00476837,-1.34373,-0.0140667,0.035733,0.025488,2.63901,5,0.1,22,0.2,-3.82081,1.96982,0.568096,0.034976,-0.0443161,0.0737533,0.26238,-0.332355,0.553131,0.0534202,0.708477,5,0.1,23,0.2,-1.0569,4.31608,0.556323,-0.142887,0.120699,0.0101417,-1.07169,0.905275,0.0760555,0.0181705,3.00835,5,0.1,24,0.2,0.448845,1.80711,0.6459,0.0653923,0.00089705,-0.000859797,0.490427,0.00679493,-0.0064373,0.0123021,0.351302,5,0.1,25,0.2,0.416696,-5.29791,0.611668,0.0314385,0.146008,-0.00109971,0.235796,1.09506,-0.00828505,0.00942374,1.83199,5,0.1,26,0.2,-0.109977,0.384792,0.629151,-0.0886673,-0.0221469,-0.00274926,-0.665009,-0.166088,-0.020653,0.0111469,0.686563,5,0.1,27,0.2,-2.33317,5.00972,0.685884,0.16219,-0.0935912,0.0047639,1.21653,-0.701666,0.0357032,0.0339897,2.9258,5,0.1,28,0.2,-3.38837,-4.53048,0.68486,-0.0482559,-0.082016,0.00614524,-0.362039,-0.61512,0.0460446,0.0106502,0.74681,5,0.1,29,0.2,-1.13776,5.80305,0.591186,-0.00532269,-0.175619,0.0649124,-0.0399947,-1.3175,0.486881,0.0370342,2.92577,5,0.1,30,0.2,-0.383853,1.80112,0.669418,0.151347,0.110322,-0.00323653,1.13508,0.827491,-0.0242591,0.0145176,2.95713,5,0.1,31,0.2,-4.53933,-3.41887,0.690059,-0.0660777,0.102961,-0.00328124,-0.495195,0.772119,-0.0246167,0.0157919,1.22995,5,0.1,32,0.2,5.2365,1.77891,0.618849,0.00100136,-0.186899,-0.0124782,0.00739098,-1.40172,-0.0936091,0.0132759,2.92579,5,0.1,33,0.2,-2.83442,-3.58883,0.605863,0.0834227,0.112134,-0.000552833,0.62573,0.841141,-0.00414252,0.0117872,1.60424,5,0.1,34,0.2,-3.75938,-0.561501,0.643989,0.085777,0.0105172,-0.00414848,0.643373,0.0788867,-0.0311434,0.0207996,0.614749,5,0.1,35,0.2,1.94896,2.74753,0.536758,-0.141954,-0.122112,0.0049904,-1.06466,-0.916004,0.0374317,0.0225481,2.92578,5,0.1,36,0.2,3.82813,-4.3814,0.5467,-0.104195,0.15564,0.00321418,-0.781298,1.16706,0.0240803,0.0372967,2.92671,5,0.1,37,0.2,0.0739362,-1.81653,0.648218,-0.00733193,0.187168,-0.00157803,-0.0549927,1.40375,-0.0118613,0.0370049,2.92579,5,0.1,38,0.2,1.27642,5.52242,0.657836,0.00694096,-0.110579,0.0652879,0.0520349,-0.829697,0.489682,0.0137296,1.35837,5,0.1,39,0.2,-0.671852,-0.743437,0.519933,0.0360236,0.151974,-0.00782311,0.270158,1.13979,-0.058651,0.0248644,2.5006,5,0.1
0,0.3,-3.91098,5.67199,0.600109,0.160101,-0.189917,-0.00827191,0.789821,-0.936985,-0.0408031,0.0111245,1.4657,5,0.1,1,0.3,-0.698194,-0.161156,0.686674,0.0708189,0.135373,0.0112617,0.349373,0.667837,0.0555515,0.0106994,0.556892,5,0.1,2,0.3,-1.87791,2.14001,0.641717,0.0405356,-0.113817,0.125968,0.199988,-0.561446,0.621434,0.0171673,0.722996,5,0.1,3,0.3,2.58757,-3.18711,0.698557,-0.300141,0.139988,0.00914941,-1.48073,0.690594,0.0451393,0.0205548,2.60465,5,0.1,4,0.3,2.11416,-0.319671,0.6278,-0.0274602,-0.32001,-0.0046486,-0.135913,-1.22843,-0.0230074,0.0110502,3.02647,5,0.1,5,0.3,-2.49162,4.16773,0.64704,-0.194835,0.0547379,0.0038676,-0.961185,0.269949,0.0190884,0.00947887,0.972294,5,0.1,6,0.3,1.60836,4.67689,0.606971,0.00740886,-0.0848264,0.132148,0.0365824,-0.418544,0.651918,0.0255964,0.586404,5,0.1,7,0.3,-1.52544,4.83039,0.654871,0.00452418,-0.192162,0.12363,0.0223145,-0.948042,0.609897,0.0269212,1.23931,5,0.1,8,0.3,5.60988,0.938959,0.613479,-0.250751,-0.166994,-0.00239676,-1.23698,-0.823833,-0.0118203,0.0157608,2.15392,5,0.1,9,0.3,0.082117,2.37373,0.509756,-0.22699,-0.105675,0.0292186,-1.11981,-0.521332,0.144131,0.00924161,1.50791,5,0.1,10,0.3,-4.1251,4.29663,0.662168,0.347114,-0.0346355,-0.00542747,1.71775,-0.171393,-0.0268556,0.0468132,2.92581,5,0.1,11,0.3,0.600791,-0.13581,0.675054,-0.347338,-0.0326503,-0.00386937,-1.71888,-0.161577,-0.0191517,0.0118069,2.92579,5,0.1,12,0.3,-3.76316,-2.97357,0.638915,0.320644,-0.137296,-0.00688005,1.58657,-0.679284,-0.0340343,0.0136572,2.9237,5,0.1,13,0.3,-5.18874,-3.04963,0.604375,0.34298,0.0589918,-0.000447873,1.68419,0.301793,-0.0029318,0.0304174,2.92602,5,0.1,14,0.3,4.86135,0.956054,0.561902,-0.117625,-0.14336,0.00677649,-0.580311,-0.70725,0.0334308,0.0339839,0.817076,5,0.1,15,0.3,1.21684,-2.62805,0.617421,-0.269771,0.093919,-0.00309842,-1.33085,0.463367,-0.0152849,0.0187566,1.93651,5,0.1,16,0.3,0.701727,-3.41159,0.575912,0.314588,0.150838,0.00248747,1.5568,0.746459,0.0123195,0.0151309,2.9258,5,0.1,17,0.3,2.11501,-3.73426,0.696977,0.00912137,0.290015,-0.00602929,0.0450164,1.43069,-0.0297315,0.0158755,1.99886,5,0.1,18,0.3,4.50311,-5.39059,0.568365,-0.0538982,0.238431,0.00562733,-0.265867,1.17624,0.027772,0.0122527,1.41868,5,0.1,19,0.3,2.00074,-2.88028,0.58209,-0.195757,0.0854142,0.0031855,-0.96567,0.421345,0.0157133,0.0218882,1.08285,5,0.1,20,0.3,-5.46688,-0.902424,0.681873,0.00515506,-0.110718,0.00156835,0.0253618,-0.54621,0.0077337,0.00922587,0.29158,5,0.1,21,0.3,3.52429,-5.83014,0.700132,-0.333335,-0.00352785,0.00886815,-1.6444,-0.0173151,0.0437386,0.025488,2.63901,5,0.1,22,0.3,-3.81586,1.96355,0.578541,0.0650723,-0.0824414,0.137204,0.321046,-0.406697,0.676863,0.0534202,0.708477,5,0.1,23,0.3,-1.0765,4.33262,0.557673,-0.247882,0.208843,0.0164045,-0.992477,0.828654,0.0493005,0.0181705,3.00835,5,0.1,24,0.3,0.458107,1.80724,0.645779,0.12165,0.00167452,-0.00159862,0.600131,0.00828505,-0.00788644,0.0123021,0.351302,5,0.1,25,0.3,0.421149,-5.27723,0.611513,0.0584867,0.271622,-0.0020491,0.288533,1.34,-0.0101179,0.00942374,1.83199,5,0.1,26,0.3,-0.122535,0.381656,0.628762,-0.164951,-0.0411995,-0.00511725,-0.813756,-0.203246,-0.02525,0.0111469,0.686563,5,0.1,27,0.3,-2.31018,4.99646,0.686559,0.302099,-0.174298,0.00887075,1.49503,-0.862509,0.0438951,0.0339897,2.9258,5,0.1,28,0.3,-3.3952,-4.5421,0.68573,-0.0897836,-0.152577,0.0114284,-0.442967,-0.752687,0.0563636,0.0106502,0.74681,5,0.1,29,0.3,-1.13851,5.77816,0.600384,-0.00992026,-0.327133,0.120907,-0.0491068,-1.61901,0.598345,0.0370342,2.92577,5,0.1,30,0.3,-0.3626,1.81626,0.669005,0.276408,0.191563,-0.00474192,1.2975,0.769347,-0.00697374,0.0145176,2.95713,5,0.1,31,0.3,-4.54869,-3.40429,0.689595,-0.122893,0.191534,-0.00610482,-0.606179,0.944868,-0.0301152,0.0157919,1.22995,5,0.1,32,0.3,5.23664,1.75243,0.617081,0.00185519,-0.34811,-0.0232434,0.00911951,-1.72269,-0.11503,0.0132759,2.92579,5,0.1,33,0.3,-2.82261,-3.57295,0.605785,0.155198,0.208619,-0.00102818,0.765666,1.02921,-0.00507385,0.0117872,1.60424,5,0.1,34,0.3,-3.74723,-0.560012,0.643401,0.159577,0.0195662,-0.0077202,0.787258,0.0965297,-0.0380985,0.0207996,0.614749,5,0.1,35,0.3,1.92884,2.73022,0.537465,-0.264399,-0.227455,0.00929525,-1.30844,-1.12565,0.0460036,0.0225481,2.92578,5,0.1,36,0.3,3.81345,-4.35934,0.547155,-0.191517,0.289869,0.0059844,-0.915125,1.43442,0.0296049,0.0372967,2.92671,5,0.1,37,0.3,0.0728972,-1.79001,0.647994,-0.0136565,0.348612,-0.0029414,-0.0675828,1.72518,-0.0145696,0.0370049,2.92579,5,0.1,38,0.3,1.2774,5.50675,0.667083,0.0129107,-0.205743,0.121459,0.0636876,-1.01507,0.599202,0.0137296,1.35837,5,0.1,39,0.3,-0.666743,-0.722013,0.518811,0.0672244,0.279867,-0.0149616,0.334334,1.344,-0.0790693,0.0248644,2.5006,5,0.1
0,0.4,-3.89109,5.6484,0.599081,0.236106,-0.280094,-0.0121996,0.697017,-0.826359,-0.0359714,0.0162549,1.15967,5,0.1,1,0.4,-0.689396,-0.144339,0.688073,0.104442,0.199644,0.0166073,0.308216,0.589192,0.0490248,0.0117742,0.473424,5,0.1,2,0.4,-1.87287,2.12587,0.657366,0.0597805,-0.167853,0.185774,0.17643,-0.495315,0.548273,0.0107519,0.572046,5,0.1,3,0.4,2.55028,-3.16972,0.699694,-0.442636,0.206453,0.0134945,-1.30641,0.609159,0.0397861,0.0155332,2.0711,5,0.1,4,0.4,2.11075,-0.357281,0.627222,-0.040555,-0.426197,-0.00686646,-0.120163,-0.870198,-0.0203252,0.0108827,3.04545,5,0.1,5,0.4,-2.51583,4.17453,0.647521,-0.287336,0.0807285,0.00570416,-0.847936,0.237942,0.0168681,0.00972904,0.769295,5,0.1,6,0.4,1.60928,4.66635,0.623388,0.0109255,-0.125098,0.194888,0.0323057,-0.36931,0.575155,0.036085,0.463966,5,0.1,7,0.4,-1.52488,4.80652,0.670229,0.00667274,-0.283396,0.182326,0.0196695,-0.836372,0.538081,0.029201,0.980544,5,0.1,8,0.4,5.57873,0.918214,0.613181,-0.369799,-0.246277,-0.00353456,-1.09148,-0.726849,-0.0104308,0.0198194,1.72907,5,0.1,9,0.4,0.0539182,2.36061,0.513386,-0.334759,-0.155848,0.0430912,-0.987934,-0.459909,0.127137,0.0166298,1.19307,5,0.1,10,0.4,-4.08194,4.29232,0.661493,0.512612,-0.0511527,-0.00801533,1.51896,-0.151634,-0.0237525,0.0592679,2.51462,5,0.1,11,0.4,0.557609,-0.139869,0.674573,-0.512947,-0.0482179,-0.0057146,-1.5198,-0.142865,-0.0169277,0.00963116,2.51472,5,0.1,12,0.4,-3.72329,-2.99063,0.63806,0.473493,-0.202745,-0.0101596,1.40274,-0.600576,-0.0301003,0.0122228,2.31434,5,0.1,13,0.4,-5.14618,-3.04224,0.604315,0.504792,0.0884175,-0.000756979,1.48082,0.27287,-0.00303984,0.0348028,2.53615,5,0.1,14,0.4,4.84674,0.938245,0.562743,-0.173461,-0.211424,0.00999421,-0.512123,-0.623971,0.0295043,0.0354283,0.646478,5,0.1,15,0.4,1.18333,-2.61638,0.617036,-0.397849,0.138515,-0.0045687,-1.17409,0.408649,-0.0135005,0.0191139,1.53219,5,0.1,16,0.4,0.740838,-3.39284,0.576221,0.464582,0.222754,0.00367463,1.37651,0.660062,0.0108778,0.0149291,2.51008,5,0.1,17,0.4,2.11614,-3.69823,0.696228,0.0134587,0.427705,-0.00889152,0.0395775,1.26219,-0.0262558,0.0126666,1.62691,5,0.1,18,0.4,4.49641,-5.36097,0.569064,-0.0794888,0.351644,0.00830144,-0.234604,1.03736,0.0244677,0.0125311,1.25933,5,0.1,19,0.4,1.97642,-2.86967,0.582485,-0.288695,0.125962,0.00469834,-0.851929,0.371814,0.0138581,0.023838,0.856771,5,0.1,20,0.4,-5.46624,-0.916178,0.682067,0.00759363,-0.163284,0.00231266,0.0224113,-0.481874,0.00682473,0.00870966,0.230701,5,0.1,21,0.4,3.48288,-5.83058,0.701234,-0.491595,-0.00519753,0.0130773,-1.45066,-0.0152588,0.038594,0.0209942,2.08803,5,0.1,22,0.4,-3.80778,1.95331,0.595586,0.0959635,-0.121585,0.202346,0.28336,-0.35876,0.597119,0.0248868,0.560555,5,0.1,23,0.4,-1.10588,4.35732,0.559516,-0.33533,0.281537,0.0200421,-0.731766,0.604868,0.0237525,0.0118938,2.87196,5,0.1,24,0.4,0.473219,1.80744,0.64558,0.179406,0.00246763,-0.00235736,0.529453,0.00733137,-0.00694394,0.0123574,0.277954,5,0.1,25,0.4,0.428415,-5.24348,0.611258,0.0862554,0.400579,-0.00302345,0.254542,1.18232,-0.00888109,0.0081985,1.44949,5,0.1,26,0.4,-0.143027,0.376538,0.628126,-0.243266,-0.0607595,-0.00754744,-0.717915,-0.179321,-0.0222623,0.00891263,0.371861,5,0.1,27,0.4,-2.27263,4.97479,0.687662,0.446141,-0.257397,0.0130996,1.32191,-0.762701,0.0388026,0.0271667,2.56198,5,0.1,28,0.4,-3.40635,-4.56105,0.68715,-0.132412,-0.225019,0.0168547,-0.390768,-0.663996,0.0497103,0.0142936,0.590884,5,0.1,29,0.4,-1.13975,5.73749,0.615416,-0.0146508,-0.483119,0.178556,-0.0434518,-1.43123,0.529021,0.0422762,2.51005,5,0.1,30,0.4,-0.328668,1.83898,0.668517,0.398964,0.259453,-0.00483841,1.10343,0.568986,0.00408292,0.0156369,2.58052,5,0.1,31,0.4,-4.56395,-3.38049,0.688836,-0.181234,0.282466,-0.00900328,-0.534773,0.833631,-0.0265837,0.013376,1.09338,5,0.1,32,0.4,5.23687,1.70915,0.614191,0.00272989,-0.514087,-0.0343263,0.00834465,-1.5232,-0.101715,0.0102412,2.51518,5,0.1,33,0.4,-2.80332,-3.54703,0.605657,0.228882,0.307667,-0.00151694,0.67544,0.907898,-0.00447035,0.010279,1.26929,5,0.1,34,0.4,-3.72741,-0.557581,0.642442,0.235343,0.0288561,-0.011386,0.694513,0.085175,-0.0335872,0.0155753,0.486394,5,0.1,35,0.4,1.89597,2.70195,0.53862,-0.390464,-0.335908,0.0137269,-1.15693,-0.995278,0.0406802,0.0117645,2.51006,5,0.1,36,0.4,3.78984,-4.32331,0.547899,-0.278556,0.428081,0.00883788,-0.788808,1.26815,0.0261664,0.0281757,2.72022,5,0.1,37,0.4,0.0711993,-1.74667,0.647628,-0.0201678,0.514829,-0.00434369,-0.0597574,1.52534,-0.0128746,0.0279122,2.51549,5,0.1,38,0.4,1.279,5.48119,0.682172,0.0190407,-0.303435,0.179125,0.0561476,-0.8955,0.528604,0.0124625,1.07474,5,0.1,39,0.4,-0.658375,-0.687471,0.51692,0.0994951,0.407928,-0.0227541,0.296652,1.16286,-0.0730753,0.0192905,1.02797,5,0.1
0,0.5,-3.86394,5.61618,0.597678,0.306822,-0.363939,-0.0158498,0.682622,-0.809371,-0.0352412,0.0162549,1.15967,5,0.1,1,0.5,-0.677383,-0.121374,0.69014,0.135714,0.259423,0.0260265,0.301879,0.577066,0.127044,0.0117742,0.473424,5,0.1,2,0.5,-1.866,2.10656,0.678735,0.0776807,-0.218111,0.241402,0.172786,-0.485167,0.536982,0.0107519,0.572046,5,0.1,3,0.5,2.49964,-3.14612,0.701263,-0.567571,0.264282,0.0180346,-1.14419,0.525922,0.0479184,0.0155332,2.0711,5,0.1,4,0.5,2.10608,-0.40294,0.626431,-0.052904,-0.475243,-0.00895597,-0.120506,-0.164296,-0.0203922,0.0108827,3.04545,5,0.1,5,0.5,-2.54888,4.18382,0.648177,-0.373369,0.104878,0.00741454,-0.830501,0.233203,0.0164993,0.00972904,0.769295,5,0.1,6,0.5,1.61054,4.65196,0.645805,0.0142016,-0.162563,0.253243,0.0316054,-0.361651,0.563316,0.036085,0.463966,5,0.1,7,0.5,-1.52411,4.77392,0.691201,0.00866894,-0.368252,0.23692,0.0192747,-0.819147,0.527006,0.029201,0.980544,5,0.1,8,0.5,5.53619,0.890357,0.612774,-0.480536,-0.306641,-0.00459291,-1.06898,-0.47398,-0.0102147,0.0198194,1.72907,5,0.1,9,0.5,0.0154124,2.34268,0.518342,-0.434995,-0.20251,0.0559914,-0.967607,-0.450447,0.124533,0.0166298,1.19307,5,0.1,10,0.5,-4.02309,4.28642,0.66057,0.662734,-0.0667542,-0.0104597,1.41466,-0.152349,-0.0238791,0.0592679,2.51462,5,0.1,11,0.5,0.498718,-0.145426,0.673915,-0.663073,-0.0629191,-0.00745645,-1.414,-0.143599,-0.0170134,0.00963116,2.51472,5,0.1,12,0.5,-3.6688,-3.01397,0.636891,0.615927,-0.263731,-0.0132163,1.37593,-0.589162,-0.0295304,0.0122228,2.31434,5,0.1,13,0.5,-5.08826,-3.03162,0.604188,0.652155,0.127034,-0.0020978,1.39898,0.461772,-0.0213422,0.0348028,2.53615,5,0.1,14,0.5,4.82679,0.913926,0.563893,-0.225419,-0.274731,0.0129873,-0.501513,-0.611119,0.0288859,0.0354283,0.646478,5,0.1,15,0.5,1.13757,-2.60045,0.616511,-0.516974,0.179978,-0.00593811,-1.14996,0.400275,-0.0132173,0.0191139,1.53219,5,0.1,16,0.5,0.794374,-3.36717,0.576645,0.60623,0.290675,0.0047938,1.38359,0.663444,0.0109263,0.0149291,2.51008,5,0.1,17,0.5,2.1175,-3.64964,0.695197,0.0120882,0.538514,-0.0117745,-0.0569671,0.92949,-0.0296086,0.0126666,1.62691,5,0.1,18,0.5,4.48727,-5.32163,0.570018,-0.103291,0.425509,0.0107843,-0.229806,0.458062,0.0239685,0.0125311,1.25933,5,0.1,19,0.5,1.94322,-2.85518,0.583026,-0.375135,0.163686,0.00610454,-0.834465,0.364155,0.0135787,0.023838,0.856771,5,0.1,20,0.5,-5.46537,-0.93496,0.682333,0.00987276,-0.212175,0.00300519,0.0220239,-0.471961,0.00668317,0.00870966,0.230701,5,0.1,21,0.5,3.42633,-5.83117,0.702738,-0.638783,-0.00674799,0.0169935,-1.42089,-0.0149906,0.0378042,0.0209942,2.08803,5,0.1,22,0.5,-3.79674,1.93932,0.618861,0.12471,-0.157986,0.262931,0.277475,-0.351399,0.584852,0.0248868,0.560555,5,0.1,23,0.5,-1.14213,4.38839,0.561304,-0.380881,0.338153,0.0128685,-0.202917,0.504643,-0.147611,0.0118938,2.87196,5,0.1,24,0.5,0.493855,1.80773,0.645309,0.233125,0.0032099,-0.00306219,0.518562,0.00714511,-0.00680983,0.0123574,0.277954,5,0.1,25,0.5,0.438336,-5.19741,0.61091,0.112081,0.520535,-0.00392497,0.249306,1.15794,-0.00870973,0.0081985,1.44949,5,0.1,26,0.5,-0.170852,0.369549,0.627258,-0.311661,-0.0789533,-0.00980608,-0.62412,-0.175633,-0.0218004,0.00891263,0.371861,5,0.1,27,0.5,-2.22184,4.94539,0.689136,0.564376,-0.328388,0.0160835,1.01236,-0.633389,0.0210591,0.0271667,2.56198,5,0.1,28,0.5,-3.42159,-4.58694,0.689088,-0.172058,-0.292391,0.0218993,-0.382721,-0.650376,0.0487044,0.0142936,0.590884,5,0.1,29,0.5,-1.14143,5.68182,0.635992,-0.0191204,-0.630397,0.232994,-0.0436455,-1.43859,0.531744,0.0422762,2.51005,5,0.1,30,0.5,-0.282938,1.86816,0.668027,0.517005,0.326655,-0.00518169,1.18788,0.722863,-0.00920147,0.0156369,2.58052,5,0.1,31,0.5,-4.58432,-3.34892,0.687889,-0.221999,0.341022,-0.00919299,-0.283897,0.353828,0.0185408,0.013376,1.09338,5,0.1,32,0.5,5.23718,1.65014,0.610236,0.00358373,-0.66426,-0.0447926,0.00828505,-1.41191,-0.102233,0.0102412,2.51518,5,0.1,33,0.5,-2.777,-3.51165,0.605483,0.297412,0.399783,-0.00197086,0.661552,0.889242,-0.00438094,0.010279,1.26929,5,0.1,34,0.5,-3.70034,-0.554262,0.641133,0.305808,0.0374974,-0.0147939,0.680208,0.083413,-0.0329018,0.0155753,0.486394,5,0.1,35,0.5,1.85098,2.66324,0.540202,-0.509515,-0.438322,0.0179128,-1.16286,-1.00034,0.0408851,0.0117645,2.51006,5,0.1,36,0.5,3.75901,-4.27362,0.548911,-0.329208,0.5686,0.0113436,-0.249803,1.4528,0.0229813,0.0281757,2.72022,5,0.1,37,0.5,0.0688753,-1.68758,0.647128,-0.0263169,0.665029,-0.00566812,-0.0600633,1.41056,-0.0129379,0.0279122,2.51549,5,0.1,38,0.5,1.28119,5.44629,0.702776,0.0247389,-0.39429,0.232758,0.0550151,-0.876993,0.517733,0.0124625,1.07474,5,0.1,39,0.5,-0.647244,-0.641437,0.515236,0.120261,0.5066,-0.00283085,0.124682,0.795018,0.414342,0.0192905,1.02797,5,0.1
0,0.6,-3.8301,5.57604,0.59593,0.366724,-0.434971,-0.0189424,0.491023,-0.582218,-0.0253618,0.0105326,0.863345,5,0.1,1,0.6,-0.662416,-0.0927644,0.693423,0.162205,0.310064,0.0398442,0.21717,0.415128,0.139892,0.01108,1.23226,5,0.1,2,0.6,-1.85743,2.08251,0.705358,0.0928432,-0.260687,0.288525,0.124276,-0.349045,0.386298,0.0160329,0.425879,5,0.1,3,0.6,2.43775,-3.11734,0.703299,-0.663412,0.308043,0.022541,-0.739932,0.334978,0.0399947,0.0178842,1.59018,5,0.1,4,0.6,2.10023,-0.450478,0.625441,-0.0635743,-0.468496,-0.0107631,-0.0884533,0.258386,-0.014931,0.0154581,2.97543,5,0.1,5,0.6,-2.59006,4.19538,0.648995,-0.446254,0.125337,0.00886321,-0.597358,0.168085,0.0118315,0.0113446,0.572731,5,0.1,6,0.6,1.6121,4.63403,0.673733,0.0169724,-0.194299,0.302678,0.022769,-0.259876,0.405222,0.036378,0.345406,5,0.1,7,0.6,-1.52316,4.73331,0.71733,0.0103623,-0.440133,0.283167,0.0138283,-0.589132,0.379115,0.0298317,0.729982,5,0.1,8,0.6,5.4832,0.857782,0.612268,-0.574338,-0.340201,-0.00548959,-0.769138,-0.194907,-0.00736117,0.024391,1.39591,5,0.1,9,0.6,-0.0325602,2.32035,0.524517,-0.519907,-0.242037,0.0669211,-0.696075,-0.32413,0.089556,0.0176781,0.888215,5,0.1,10,0.6,-3.95037,4.27904,0.659413,0.784159,-0.0802517,-0.0125766,0.969052,-0.112295,-0.0175536,0.0653395,2.32998,5,0.1,11,0.6,0.42597,-0.152386,0.67309,-0.78439,-0.0756469,-0.00896454,-0.967487,-0.105597,-0.0124872,0.0124201,2.33057,5,0.1,12,0.6,-3.60084,-3.04307,0.635432,0.736767,-0.315475,-0.0158101,0.991464,-0.424504,-0.0212789,0.014837,1.73846,5,0.1,13,0.6,-5.01664,-3.01656,0.603858,0.773168,0.174171,-0.00459403,0.97394,0.452518,-0.0267029,0.0417027,2.31761,5,0.1,14,0.6,4.80193,0.883627,0.565325,-0.269425,-0.328358,0.0155225,-0.360727,-0.439674,0.0207722,0.0422287,0.48128,5,0.1,15,0.6,1.08055,-2.5806,0.615856,-0.617889,0.215101,-0.00709742,-0.827253,0.28801,-0.00950694,0.0172084,1.14069,5,0.1,16,0.6,0.861435,-3.33501,0.577175,0.728859,0.34948,0.00576377,1.01751,0.487804,0.00798702,0.0193084,2.24414,5,0.1,17,0.6,2.11833,-3.59185,0.693878,0.00385046,0.609726,-0.0145048,-0.0997782,0.480175,-0.0236928,0.0140628,1.3524,5,0.1,18,0.6,4.47588,-5.27762,0.571208,-0.123465,0.446856,0.0128865,-0.165224,-0.013113,0.0172853,0.0165716,1.17839,5,0.1,19,0.6,1.90185,-2.83713,0.583699,-0.448367,0.195646,0.00729561,-0.600278,0.261784,0.00977516,0.0616456,0.637855,5,0.1,20,0.6,-5.46428,-0.958359,0.682665,0.0118136,-0.253591,0.00359267,0.0157356,-0.339508,0.00479817,0.0212919,0.171752,5,0.1,21,0.6,3.35589,-5.83192,0.704612,-0.763476,-0.00807047,0.0203118,-1.02222,-0.0107288,0.0271797,0.038425,1.59061,5,0.1,22,0.6,-3.78298,1.9219,0.647857,0.149059,-0.188822,0.314254,0.199437,-0.252843,0.420749,0.0355322,0.417319,5,0.1,23,0.6,-1.18053,4.42441,0.561704,-0.38043,0.37868,-0.00598282,0.190496,0.290871,-0.213951,0.0126728,2.40346,5,0.1,24,0.6,0.519565,1.80808,0.644971,0.278632,0.00383854,-0.00365973,0.373006,0.00506639,-0.00491738,0.0146874,0.206931,5,0.1,25,0.6,0.450697,-5.14,0.610478,0.13396,0.622141,-0.0046894,0.179335,0.833035,-0.00625849,0.0101053,1.0791,5,0.1,26,0.6,-0.20481,0.360841,0.626176,-0.363761,-0.0943653,-0.0117183,-0.400461,-0.126362,-0.0157058,0.0144217,0.189265,5,0.1,27,0.6,-2.16106,4.90976,0.690822,0.6437,-0.380147,0.0173584,0.555277,-0.386238,0.00479817,0.0443161,2.47684,5,0.1,28,0.6,-3.44056,-4.61918,0.691503,-0.205642,-0.349462,0.0261739,-0.275373,-0.467777,0.0350475,0.010625,0.439902,5,0.1,29,0.6,-1.14355,5.61208,0.661766,-0.0229865,-0.757909,0.280124,-0.0321269,-1.05786,0.391036,0.0453089,2.23724,5,0.1,30,0.6,-0.225628,1.90434,0.667452,0.624606,0.394994,-0.00637025,0.914305,0.605643,-0.0132322,0.01456,2.24294,5,0.1,31,0.6,-4.60755,-3.31373,0.687108,-0.238812,0.356448,-0.0060603,-0.056982,-0.0294447,0.04071,0.0160165,0.873123,5,0.1,32,0.6,5.23758,1.57729,0.605281,0.00431538,-0.785199,-0.0538528,0.00619888,-0.962496,-0.0751913,0.0116856,2.34348,5,0.1,33,0.6,-2.7442,-3.46756,0.605265,0.355464,0.477815,-0.00235587,0.475883,0.639796,-0.00312924,0.0151373,0.944955,5,0.1,34,0.6,-3.66661,-0.550126,0.639501,0.365502,0.0448182,-0.0176802,0.489354,0.0599921,-0.0236928,0.0279606,0.362107,5,0.1,35,0.6,1.79461,2.61475,0.542184,-0.612584,-0.526983,0.0215366,-0.855088,-0.735641,0.0300705,0.0175002,2.21913,5,0.1,36,0.6,3.72555,-4.2098,0.550148,-0.333357,0.703228,0.0132695,0.143886,1.17493,0.0149608,0.0337768,2.40469,5,0.1,37,0.6,0.0659641,-1.61466,0.6465,-0.0316404,0.785723,-0.0068143,-0.0441708,0.959218,-0.00950694,0.036874,2.33421,5,0.1,38,0.6,1.28392,5.40281,0.728445,0.0295669,-0.471246,0.278191,0.0395775,-0.631094,0.37244,0.0169786,0.800109,5,0.1,39,0.6,-0.634836,-0.587512,0.51744,0.125612,0.564606,0.0499204,-0.0119209,0.357449,0.595897,0.0265135,0.751358,5,0.1
0,0.7,-3.79101,5.52969,0.593911,0.413862,-0.490868,-0.0213773,0.424802,-0.503778,-0.0219457,0.0105326,0.863345,5,0.1,1,0.7,-0.645041,-0.0602165,0.698039,0.185538,0.33577,0.0517412,0.232048,0.107655,0.0965111,0.01108,1.23226,5,0.1,2,0.7,-1.84753,2.05472,0.736108,0.104775,-0.294198,0.325611,0.107527,-0.302002,0.334222,0.0160329,0.425879,5,0.1,3,0.7,2.36804,-3.08503,0.705771,-0.726687,0.336144,0.0269915,-0.49755,0.215232,0.0457726,0.0178842,1.59018,5,0.1,4,0.7,2.09343,-0.495227,0.62429,-0.0722501,-0.420842,-0.0122288,-0.0799149,0.601022,-0.0135079,0.0154581,2.97543,5,0.1,5,0.7,-2.63762,4.20874,0.649939,-0.503604,0.141473,0.00999914,-0.516847,0.145435,0.0102408,0.0113446,0.572731,5,0.1,6,0.7,1.61391,4.61333,0.705993,0.0191569,-0.21925,0.341582,0.0196844,-0.224888,0.350602,0.036378,0.345406,5,0.1,7,0.7,-1.52205,4.6864,0.747509,0.0116909,-0.496692,0.319563,0.011988,-0.509709,0.328008,0.0298317,0.729982,5,0.1,8,0.7,5.42198,0.823496,0.611608,-0.648174,-0.339079,-0.00830377,-0.665367,0.191182,-0.043761,0.024391,1.39591,5,0.1,9,0.7,-0.0879714,2.29455,0.531649,-0.586733,-0.273153,0.0755198,-0.602239,-0.28041,0.0775009,0.0176781,0.888215,5,0.1,10,0.7,-3.86816,4.27045,0.658066,0.849907,-0.0915155,-0.0143385,0.371739,-0.105858,-0.0165775,0.0653395,2.32998,5,0.1,11,0.7,0.343752,-0.160485,0.67213,-0.849983,-0.086243,-0.0102178,-0.370397,-0.0996478,-0.0117905,0.0124201,2.33057,5,0.1,12,0.7,-3.52278,-3.0767,0.633747,0.818067,-0.356253,-0.0178543,0.614479,-0.36779,-0.0184365,0.014837,1.73846,5,0.1,13,0.7,-4.93533,-2.99712,0.603289,0.844257,0.212078,-0.00655586,0.449538,0.300005,-0.0130571,0.0417027,2.31761,5,0.1,14,0.7,4.77321,0.848631,0.56698,-0.304054,-0.370566,0.0175167,-0.31206,-0.380378,0.0179708,0.0422287,0.48128,5,0.1,15,0.7,1.0147,-2.55767,0.615099,-0.697308,0.242751,-0.00800984,-0.715751,0.249192,-0.00822172,0.0172084,1.14069,5,0.1,16,0.7,0.938844,-3.29763,0.577792,0.81307,0.397489,0.0065621,0.645485,0.443608,0.00748038,0.0193084,2.24414,5,0.1,17,0.7,2.11839,-3.52917,0.692293,-0.00117905,0.637082,-0.0173138,-0.00877678,0.0716597,-0.0301376,0.0140628,1.3524,5,0.1,18,0.7,4.46272,-5.23384,0.572581,-0.139329,0.421409,0.0145455,-0.142992,-0.459164,0.0149421,0.0165716,1.17839,5,0.1,19,0.7,1.85406,-2.81628,0.584477,-0.505998,0.220781,0.00823392,-0.519402,0.226542,0.00846013,0.0616456,0.637855,5,0.1,20,0.7,-5.46302,-0.985387,0.683048,0.0133283,-0.286185,0.00405349,0.0136793,-0.293739,0.00415742,0.0212919,0.171752,5,0.1,21,0.7,3.27529,-5.83278,0.706777,-0.839694,-0.00910312,0.0229215,-0.499979,-0.00935793,0.0235215,0.038425,1.59061,5,0.1,22,0.7,-3.7671,1.90177,0.68135,0.168206,-0.213095,0.354647,0.172555,-0.218764,0.364035,0.0355322,0.417319,5,0.1,23,0.7,-1.21765,4.46434,0.559969,-0.362266,0.424414,-0.0290457,0.177242,0.560552,-0.234015,0.0126728,2.40346,5,0.1,24,0.7,0.549261,1.80849,0.644581,0.314443,0.00432488,-0.00413172,0.322737,0.00438839,-0.00425428,0.0146874,0.206931,5,0.1,25,0.7,0.464974,-5.07369,0.609978,0.151177,0.702113,-0.00529075,0.155164,0.72068,-0.0054203,0.0101053,1.0791,5,0.1,26,0.7,-0.242414,0.350784,0.624927,-0.381138,-0.106496,-0.0132255,0.0308099,-0.109326,-0.0135824,0.0144217,0.189265,5,0.1,27,0.7,-2.09445,4.8703,0.692471,0.682691,-0.404309,0.0146936,0.216216,-0.100702,-0.0519939,0.0443161,2.47684,5,0.1,28,0.7,-3.46248,-4.65643,0.694293,-0.232077,-0.394373,0.029539,-0.23824,-0.404745,0.0303276,0.010625,0.439902,5,0.1,29,0.7,-1.14601,5.5319,0.691755,-0.0261981,-0.836694,0.319233,-0.0301003,-0.518203,0.366714,0.0453089,2.23724,5,0.1,30,0.7,-0.158517,1.94707,0.666731,0.716919,0.460449,-0.00818903,0.874153,0.656389,-0.0213496,0.01456,2.24294,5,0.1,31,0.7,-4.63197,-3.27845,0.686712,-0.251188,0.347038,-0.00184057,-0.163943,-0.153124,0.0418611,0.0160165,0.873123,5,0.1,32,0.7,5.23812,1.49502,0.599505,0.00718608,-0.850074,-0.0616633,0.0458062,-0.365578,-0.0756793,0.0116856,2.34348,5,0.1,33,0.7,-2.70631,-3.41663,0.605014,0.401151,0.539235,-0.00265678,0.411734,0.553519,-0.00271574,0.0151373,0.944955,5,0.1,34,0.7,-3.62766,-0.54535,0.637617,0.412481,0.0505775,-0.0199545,0.423372,0.0519007,-0.0204965,0.0279606,0.362107,5,0.1,35,0.7,1.72902,2.55832,0.54449,-0.69842,-0.600826,0.024555,-0.807494,-0.694662,0.0283904,0.0175002,2.21913,5,0.1,36,0.7,3.69334,-4.13425,0.551548,-0.307297,0.800714,0.0146946,0.360802,0.75376,0.0126585,0.0337768,2.40469,5,0.1,37,0.7,0.0625762,-1.53235,0.645771,-0.0360736,0.850446,-0.00776853,-0.0416983,0.362463,-0.0089705,0.036874,2.33421,5,0.1,38,0.7,1.28707,5.35258,0.758094,0.0333671,-0.531828,0.313947,0.0342578,-0.545919,0.32223,0.0169786,0.800109,5,0.1,39,0.7,-0.622475,-0.529597,0.525772,0.12032,0.590039,0.119227,-0.0897311,0.138769,0.74733,0.0265135,0.751358,5,0.1
0,0.8,-3.74779,5.47842,0.591679,0.447172,-0.530362,-0.0230983,0.222921,-0.264645,-0.0115335,0.0137008,0.609571,5,0.1,1,0.8,-0.62542,-0.0265477,0.703614,0.205636,0.333364,0.0589207,0.157505,-0.146743,0.0463724,0.0128557,1.17144,5,0.1,2,0.8,-1.83659,2.024,0.770113,0.113204,-0.317878,0.351815,0.0564456,-0.158668,0.175476,0.0132306,0.300697,5,0.1,3,0.8,2.29347,-3.05061,0.708686,-0.758392,0.3492,0.031139,-0.119448,0.0389814,0.0348091,0.0171611,1.20121,5,0.1,4,0.8,2.08585,-0.534326,0.623008,-0.0786901,-0.362691,-0.0133172,-0.0451803,0.511616,-0.0076592,0.015973,2.71362,5,0.1,5,0.8,-2.69021,4.22352,0.650983,-0.544131,0.152874,0.0108004,-0.27144,0.0765324,0.00539422,0.00969585,0.404387,5,0.1,6,0.8,1.61591,4.59043,0.741664,0.0206977,-0.236881,0.369069,0.0103712,-0.118017,0.184119,0.0286895,0.243878,5,0.1,7,0.8,-1.52083,4.63453,0.780882,0.0126302,-0.536656,0.345281,0.00625849,-0.267506,0.172198,0.0105786,0.643263,5,0.1,8,0.8,5.35429,0.791002,0.610534,-0.700343,-0.306784,-0.0133276,-0.349283,0.4327,-0.0528395,0.019471,1.11218,5,0.1,9,0.8,-0.149245,2.26602,0.539536,-0.633949,-0.295138,0.0815973,-0.316248,-0.147223,0.0406802,0.0153344,0.635055,5,0.1,10,0.8,-3.78206,4.26082,0.656558,0.866026,-0.100231,-0.0157028,0,-0.0636578,-0.00995398,0.0519453,2.30399,5,0.1,11,0.8,0.257641,-0.169553,0.671056,-0.866026,-0.0944465,-0.0111893,7.15256e-06,-0.0597909,-0.00706315,0.0149437,2.05243,5,0.1,12,0.8,-3.43864,-3.11391,0.631882,0.85746,-0.385123,-0.0193015,0.171304,-0.193954,-0.00971556,0.0139448,1.26399,5,0.1,13,0.8,-4.84946,-2.9747,0.602587,0.865757,0.233352,-0.00730455,0.00524521,0.122905,-0.00244379,0.0150567,1.03871,5,0.1,14,0.8,4.74146,0.809932,0.568809,-0.328529,-0.40039,0.018926,-0.163555,-0.199705,0.00941753,0.0366803,0.339802,5,0.1,15,0.8,0.941878,-2.53232,0.614263,-0.753425,0.262284,-0.00865459,-0.375867,0.130892,-0.00432134,0.0203408,0.811024,5,0.1,16,0.8,1.02265,-3.25593,0.578481,0.855714,0.433356,0.00717491,0.206232,0.253916,0.00447035,0.0156141,2.16681,5,0.1,17,0.8,2.11832,-3.46574,0.690416,0.000667572,0.625271,-0.020124,0.0391006,-0.300527,-0.0244081,0.0171249,1.08464,5,0.1,18,0.8,4.44817,-5.19448,0.5741,-0.150537,0.361705,0.0157177,-0.0751019,-0.704527,0.00783801,0.0116432,1.13221,5,0.1,19,0.8,1.80122,-2.79322,0.585336,-0.546721,0.238544,0.00889599,-0.27281,0.118971,0.00447035,0.0259468,0.450374,5,0.1,20,0.8,-5.46163,-1.01527,0.683471,0.0144124,-0.309217,0.00437945,0.00715256,-0.154197,0.00217557,0.0114686,0.205631,5,0.1,21,0.8,3.18966,-5.83373,0.709171,-0.864935,-0.00983477,0.0247657,-0.0218153,-0.00500679,0.012368,0.0256217,1.17004,5,0.1,22,0.8,-3.74953,1.87952,0.718387,0.181735,-0.230247,0.383188,0.0907183,-0.114858,0.191182,0.0341491,0.294652,5,0.1,23,0.8,-1.25298,4.50961,0.555949,-0.344083,0.479817,-0.0505492,0.190914,0.500679,-0.18695,0.0105631,1.98516,5,0.1,24,0.8,0.582099,1.80894,0.64415,0.339746,0.00467002,-0.00446588,0.169486,0.00226498,-0.00223517,0.0108867,0.146106,5,0.1,25,0.8,0.480762,-5.00037,0.609425,0.163342,0.758624,-0.0057146,0.0814945,0.378132,-0.00286102,0.00795057,0.761888,5,0.1,26,0.8,-0.279815,0.339662,0.623546,-0.361782,-0.115068,-0.0142902,0.336647,-0.0573993,-0.00712276,0.0093076,0.289698,5,0.1,27,0.8,-2.02572,4.82981,0.693629,0.685874,-0.401187,0.00805259,-0.154912,0.157833,-0.0759661,0.0273324,2.52686,5,0.1,28,0.8,-3.48671,-4.69761,0.697378,-0.250757,-0.426114,0.0319168,-0.125051,-0.212431,0.0159442,0.00914252,0.310598,5,0.1,29,0.8,-1.14876,5.44648,0.725307,-0.0286698,-0.863779,0.349332,-0.0178814,-0.0448227,0.218391,0.0348708,1.69138,5,0.1,30,0.8,-0.0829086,1.99617,0.665804,0.789643,0.518218,-0.0103265,0.540189,0.465453,-0.020057,0.00974593,1.31205,5,0.1,31,0.8,-4.6579,-3.24468,0.686727,-0.266981,0.326806,0.00200868,-0.132322,-0.247359,0.0338852,0.0089759,0.714924,5,0.1,32,0.8,5.2391,1.40891,0.592995,0.0125289,-0.866026,-0.0680789,0.0567436,0,-0.0488758,0.00899393,2.31163,5,0.1,33,0.8,-2.66442,-3.36032,0.604737,0.433433,0.582629,-0.00286996,0.216126,0.290751,-0.00143051,0.0105434,0.667186,5,0.1,34,0.8,-3.58458,-0.540068,0.635533,0.445676,0.054647,-0.0215605,0.222325,0.0272393,-0.0107586,0.0176008,0.59453,5,0.1,35,0.8,1.65559,2.49515,0.547072,-0.764918,-0.658035,0.0268921,-0.485063,-0.417113,0.0170767,0.0127858,2.00925,5,0.1,36,0.8,3.66466,-4.05121,0.553071,-0.264251,0.852144,0.0156522,0.486135,0.277638,0.00593066,0.0238522,3.02757,5,0.1,37,0.8,0.0587833,-1.44623,0.644954,-0.039507,0.866026,-0.00850707,-0.025034,0,-0.00539422,0.0301155,2.27066,5,0.1,38,0.8,1.29056,5.29704,0.79088,0.0360548,-0.574625,0.339212,0.017941,-0.286818,0.169218,0.0114912,0.564902,5,0.1,39,0.8,-0.610991,-0.470341,0.54139,0.108464,0.590479,0.191915,-0.143558,-0.136361,0.674576,0.0179898,0.552372,5,0.1
0,0.9,-3.70201,5.42413,0.589314,0.467372,-0.554342,-0.0241435,0.159666,-0.189573,-0.00826642,0.0137008,0.609571,5,0.1,1,0.9,-0.604203,0.00559353,0.709754,0.217241,0.305362,0.0639145,0.0700578,-0.393017,0.0487305,0.0128557,1.17144,5,0.1,2,0.9,-1.825,1.99145,0.806131,0.118319,-0.332255,0.367716,0.0404343,-0.113674,0.125695,0.0132306,0.300697,5,0.1,3,0.9,2.21717,-3.01557,0.711978,-0.765529,0.350804,0.0346687,0.00189245,-0.0178069,0.0332445,0.0171611,1.20121,5,0.1,4,0.9,2.07776,-0.568224,0.621639,-0.0828944,-0.320141,-0.0140302,-0.0348389,0.233036,-0.00590831,0.015973,2.71362,5,0.1,5,0.9,-2.74592,4.23917,0.652089,-0.568728,0.159808,0.0112888,-0.19446,0.0548363,0.00386313,0.00969585,0.404387,5,0.1,6,0.9,1.61803,4.56618,0.77945,0.0216361,-0.247576,0.385753,0.00740588,-0.0845492,0.131883,0.0286895,0.243878,5,0.1,7,0.9,-1.52023,4.58106,0.81605,-0.00656694,-0.51925,0.355736,-0.346586,0.548452,0.0317134,0.0105786,0.643263,5,0.1,8,0.9,5.28273,0.762832,0.60897,-0.728127,-0.253923,-0.0176179,-0.181466,0.595007,-0.0327937,0.019471,1.11218,5,0.1,9,0.9,-0.213767,2.23581,0.547889,-0.652021,-0.308479,0.0852841,-0.0475654,-0.105441,0.0291504,0.0153344,0.635055,5,0.1,10,0.9,-3.69548,4.25032,0.654933,0.864927,-0.111013,-0.0168211,-0.038147,-0.135869,-0.0111572,0.0519453,2.30399,5,0.1,11,0.9,0.171111,-0.179283,0.669893,-0.863152,-0.0998917,-0.0121265,0.0848402,-0.0443859,-0.0104718,0.0149437,2.05243,5,0.1,12,0.9,-3.35237,-3.15335,0.629905,0.86511,-0.402715,-0.0201829,0.00618398,-0.139356,-0.00698119,0.0139448,1.26399,5,0.1,13,0.9,-4.765,-2.95055,0.601631,0.804511,0.250956,-0.0135838,-1.12906,0.203341,-0.109244,0.0150567,1.03871,5,0.1,14,0.9,4.70783,0.768941,0.570746,-0.343352,-0.418486,0.0197796,-0.117153,-0.143036,0.00674278,0.0366803,0.339802,5,0.1,15,0.9,0.864742,-2.50573,0.613377,-0.787485,0.26674,-0.00904622,-0.269238,-0.0360161,-0.00309572,0.0203408,0.811024,5,0.1,16,0.9,1.10885,-3.21172,0.57922,0.865272,0.446887,0.00757072,0.0214204,0.016585,0.00311434,0.0156141,2.16681,5,0.1,17,0.9,2.11888,-3.40453,0.688282,0.0130162,0.600106,-0.0225223,0.187814,-0.230342,-0.0220202,0.0171249,1.08464,5,0.1,18,0.9,4.43276,-5.16214,0.575709,-0.157343,0.282884,0.0164279,-0.053823,-0.83521,0.00560656,0.0116432,1.13221,5,0.1,19,0.9,1.74524,-2.7688,0.586247,-0.571443,0.249325,0.00930075,-0.195436,0.0852346,0.0031963,0.0259468,0.450374,5,0.1,20,0.9,-5.46014,-1.04721,0.683923,0.0154369,-0.331141,0.0046894,0.0118315,-0.251517,0.00355393,0.0114686,0.205631,5,0.1,21,0.9,3.10311,-5.83474,0.711706,-0.865605,-0.0102893,0.0258868,0.0113547,-0.00363588,0.00886247,0.0256217,1.17004,5,0.1,22,0.9,-3.73093,1.85595,0.757617,0.189953,-0.240655,0.400512,0.0649691,-0.0822842,0.136942,0.0341491,0.294652,5,0.1,23,0.9,-1.28726,4.56025,0.550259,-0.348346,0.533549,-0.0605587,-0.215888,0.529468,-0.0243858,0.0105631,1.98516,5,0.1,24,0.9,0.616882,1.80942,0.643692,0.355105,0.00487603,-0.00466825,0.121407,0.00162423,-0.00159815,0.0108867,0.146106,5,0.1,25,0.9,0.497485,-4.9227,0.60884,0.170727,0.792889,-0.00597378,0.058379,0.270844,-0.00205263,0.00795057,0.761888,5,0.1,26,0.9,-0.3139,0.327914,0.622049,-0.316365,-0.11934,-0.01591,0.549957,-0.0244752,-0.0224113,0.0093076,0.289698,5,0.1,27,0.9,-1.958,4.79056,0.694037,0.666911,-0.382873,3.37139e-05,-0.240587,0.214636,-0.0813678,0.0273324,2.52686,5,0.1,28,0.9,-3.51239,-4.74123,0.700646,-0.262087,-0.445364,0.0333616,-0.0895709,-0.1522,0.0114255,0.00914252,0.310598,5,0.1,29,0.9,-1.15172,5.35997,0.761311,-0.0303647,-0.865765,0.370037,-0.0144467,-0.000953674,0.176448,0.0348708,1.69138,5,0.1,30,0.9,-0.0029485,2.04816,0.66509,0.794025,0.502559,-0.000410248,-0.392726,-0.676654,0.192787,0.00974593,1.31205,5,0.1,31,0.9,-4.68538,-3.21258,0.687037,-0.283183,0.320573,0.00365162,-0.169575,0.0757575,0.00168011,0.0089759,0.714924,5,0.1,32,0.9,5.24101,1.32232,0.585922,0.0288054,-0.865513,-0.0734466,0.242889,0.020504,-0.0529625,0.00899393,2.31163,5,0.1,33,0.9,-2.62005,-3.30067,0.604443,0.453018,0.608974,-0.0029997,0.154823,0.208244,-0.00102445,0.0105434,0.667186,5,0.1,34,0.9,-3.53864,-0.534473,0.633325,0.474711,0.0571155,-0.0225351,0.31729,0.0195093,-0.00770018,0.0176008,0.59453,5,0.1,35,0.9,1.57665,2.42723,0.549847,-0.812808,-0.699603,0.0285708,-0.426173,-0.373319,0.0148825,0.0127858,2.00925,5,0.1,36,0.9,3.64122,-3.96518,0.554669,-0.201171,0.86332,0.0163114,0.682682,-0.0263453,0.00625104,0.0238522,3.02757,5,0.1,37,0.9,0.0547023,-1.35962,0.644075,-0.0420941,0.866026,-0.00906456,-0.0240467,0,-0.00517815,0.0301155,2.27066,5,0.1,38,0.9,1.29425,5.23821,0.825608,0.0376811,-0.600611,0.354545,0.0128672,-0.205398,0.12121,0.0114912,0.564902,5,0.1,39,0.9,-0.60093,-0.412238,0.56402,0.0921868,0.568859,0.260488,-0.177667,-0.298841,0.664566,0.0179898,0.552372,5,0.1
0,1,-3.65472,5.36804,0.586871,0.47555,-0.564051,-0.0245675,-0.0103712,0.0121593,0.000536442,0.0109203,0.414533,5,0.1,1,1,-0.582302,0.0338976,0.716361,0.218965,0.258479,0.0678539,-0.0378489,-0.527725,0.0267029,0.00776347,0.657995,5,0.1,2,1,-1.81303,1.95784,0.843337,0.120389,-0.338081,0.374153,-0.002563,0.00727177,-0.00807643,0.0129391,0.347376,5,0.1,3,1,2.141,-2.98074,0.715591,-0.753897,0.343865,0.0373557,0.246525,-0.127792,0.0187457,0.00940175,0.469188,5,0.1,4,1,2.06935,-0.6,0.620214,-0.0849783,-0.324385,-0.0143841,-0.00393391,-0.294536,-0.000715256,0.0111469,2.31901,5,0.1,5,1,-2.80346,4.25534,0.653231,-0.57869,0.162613,0.0114858,0.012517,-0.00333786,-0.000238419,0.009932,0.283918,5,0.1,6,1,1.62022,4.54113,0.81848,0.022015,-0.251901,0.392509,-0.000476837,0.00548363,-0.00846386,0.0266243,0.165849,5,0.1,7,1,-1.52291,4.53276,0.851517,-0.0489295,-0.439215,0.350896,-0.466764,0.997305,-0.130683,0.00726579,0.193798,5,0.1,8,1,5.20945,0.740486,0.607078,-0.732589,-0.192846,-0.0198781,0.107765,0.605315,-0.0124574,0.0187653,0.90587,5,0.1,9,1,-0.278775,2.2046,0.556518,-0.643846,-0.313878,0.0867784,0.209615,0.00679493,-0.00190735,0.010671,0.461418,5,0.1,10,1,-3.60942,4.23853,0.653202,0.85308,-0.124598,-0.0177205,-0.235796,-0.124216,-0.00590086,0.0412052,2.4625,5,0.1,11,1,0.0855528,-0.189437,0.668631,-0.844134,-0.102538,-0.0130743,0.317386,-0.00542402,-0.00759959,0.011828,1.76694,5,0.1,12,1,-3.26602,-3.19411,0.627863,0.85994,-0.409925,-0.0205442,-0.121832,0.00751019,0.00038743,0.0102357,0.910628,5,0.1,13,1,-4.69138,-2.92448,0.599645,0.658298,0.269562,-0.0266895,-1.7128,0.149965,-0.142127,0.00794892,0.279572,5,0.1,14,1,4.67309,0.726599,0.572748,-0.349343,-0.425811,0.0201255,0.00762939,0.00920892,-0.000476837,0.0302693,0.231084,5,0.1,15,1,0.785064,-2.47948,0.612461,-0.801276,0.256193,-0.00920445,0.0172555,-0.169396,0.000208616,0.0140465,0.564212,5,0.1,16,1,1.19537,-3.16734,0.579988,0.864285,0.436896,0.00774264,-0.0348687,-0.213861,8.9407e-05,0.0116546,2.40986,5,0.1,17,1,2.12123,-3.34574,0.685934,0.034678,0.574511,-0.024268,0.229836,-0.301003,-0.0118315,0.0109899,0.86927,5,0.1,18,1,4.41684,-5.138,0.577371,-0.16011,0.200856,0.0167146,0.00357628,-0.780106,-0.000357628,0.00854817,1.09492,5,0.1,19,1,1.68742,-2.74357,0.587188,-0.581455,0.253689,0.00946522,0.0124574,-0.00536442,-0.000208616,0.0215924,0.306278,5,0.1,20,1,-5.45854,-1.08152,0.684409,0.0165105,-0.353876,0.00501275,0.00834465,-0.17941,0.0025034,0.00823813,0.12569,5,0.1,21,1,3.01672,-5.83578,0.714325,-0.860387,-0.0104785,0.0263408,0.112534,0.000238419,-0.000566244,0.0225657,0.86396,5,0.1,22,1,-3.71171,1.8316,0.798141,0.19328,-0.244871,0.407527,-0.00417233,0.00530481,-0.00879169,0.0256797,0.200373,5,0.1,23,1,-1.32344,4.616,0.544273,-0.376654,0.578117,-0.0574708,-0.304639,0.330448,0.0768304,0.0182168,1.55642,5,0.1,24,1,0.652812,1.80991,0.64322,0.361323,0.00495911,-0.00475049,-0.00777841,-0.000178814,8.9407e-05,0.0126065,0.168253,5,0.1,25,1,0.514759,-4.84248,0.608236,0.173718,0.806761,-0.00607967,-0.00378489,-0.017643,0.000149012,0.0111862,0.518124,5,0.1,26,1,-0.342584,0.315936,0.62034,-0.255737,-0.119395,-0.0182718,0.644848,0.025481,-0.0227094,0.0117876,0.280643,5,0.1,27,1,-1.89276,4.75348,0.693646,0.635135,-0.357294,-0.00769198,-0.404835,0.300169,-0.0708997,0.0338851,2.68803,5,0.1,28,1,-3.5389,-4.7863,0.704021,-0.266671,-0.453162,0.0339478,0.00572205,0.00977516,-0.000715256,0.0101348,0.211226,5,0.1,29,1,-1.15481,5.27344,0.798999,-0.0312924,-0.864148,0.3814,-0.00309944,0.0379086,0.0378788,0.0343966,1.27095,5,0.1,30,1,0.0733619,2.09384,0.666191,0.722199,0.40133,0.0236779,-0.992634,-1.26529,0.269026,0.0103383,1.65008,5,0.1,31,1,-4.71446,-3.17993,0.687375,-0.297117,0.333703,0.00283271,-0.0932217,0.151157,-0.0158846,0.00970558,0.55292,5,0.1,32,1,5.24524,1.23604,0.578343,0.0565171,-0.857827,-0.0777319,0.291109,0.164092,-0.0288486,0.010549,2.29549,5,0.1,33,1,-2.57421,-3.23905,0.60414,0.460947,0.619644,-0.00305325,-0.00989437,-0.0134706,8.9407e-05,0.0109657,0.453706,5,0.1,34,1,-3.4897,-0.528695,0.631045,0.502074,0.0581145,-0.0229299,0.20051,-0.0012815,0.000506639,0.0185452,0.443369,5,0.1,35,1,1.49365,2.35575,0.552764,-0.842324,-0.725818,0.0295952,-0.132382,-0.122905,0.00450015,0.0113878,1.56981,5,0.1,36,1,3.62427,-3.87943,0.556325,-0.141835,0.846606,0.016734,0.455499,-0.338435,0.00149012,0.0235792,2.88251,5,0.1,37,1,0.0503921,-1.27302,0.643147,-0.0438665,0.866026,-0.00944585,-0.00956282,0,-0.00205636,0.0346285,2.27053,5,0.1,38,1,1.29806,5.17744,0.861481,0.0383407,-0.611126,0.360754,-0.000834465,0.0133514,-0.00780821,0.0121756,0.384135,5,0.1,39,1,-0.592626,-0.357131,0.593157,0.0737146,0.530447,0.319318,-0.188291,-0.469267,0.489265,0.0210407,3.21313,5,0.1
0,1.1,-3.60724,5.31172,0.584418,0.473457,-0.56158,-0.0244594,-0.0488758,0.0578761,0.00252202,0.0109203,0.414533,5,0.1,1,1.1,-0.561399,0.0568425,0.723353,0.192153,0.198358,0.0725223,-0.45488,-0.651848,0.0584275,0.00776347,0.657995,5,0.1,2,1.1,-1.80085,1.92392,0.880696,0.12431,-0.341046,0.372513,0.0666827,-0.0443384,-0.0384077,0.0129391,0.347376,5,0.1,3,1.1,2.0681,-2.94661,0.719411,-0.692754,0.341659,0.0388999,0.918821,0.0494868,0.010673,0.00940175,0.469188,5,0.1,4,1.1,2.06083,-0.635098,0.618773,-0.0851851,-0.386967,-0.0144234,0.00308454,-0.8603,0.000491738,0.0111469,2.31901,5,0.1,5,1.1,-2.86103,4.27176,0.654382,-0.56999,0.167035,0.0115467,0.168949,0.074476,0.000789762,0.009932,0.283918,5,0.1,6,1.1,1.62242,4.51598,0.857672,0.0219172,-0.250795,0.390789,-0.00227243,0.0258982,-0.040289,0.0266243,0.165849,5,0.1,7,1.1,-1.53017,4.49365,0.886159,-0.0960508,-0.344805,0.343415,-0.457399,0.889122,-0.0421479,0.00726579,0.193798,5,0.1,8,1.1,5.13684,0.724194,0.605061,-0.718204,-0.134049,-0.020166,0.199348,0.542995,0.00581518,0.0187653,0.90587,5,0.1,9,1.1,-0.341528,2.17326,0.565183,-0.607352,-0.3125,0.0863959,0.448359,0.0322312,-0.00891462,0.010671,0.461418,5,0.1,10,1.1,-3.52526,4.22471,0.651381,0.82949,-0.15766,-0.0188263,-0.264376,-0.481904,-0.0141338,0.0412052,2.4625,5,0.1,11,1.1,0.00305057,-0.199989,0.667191,-0.802568,-0.110664,-0.0164798,0.517505,-0.13573,-0.0538304,0.011828,1.76694,5,0.1,12,1.1,-3.18044,-3.23504,0.625811,0.852551,-0.408257,-0.0204598,-0.0689626,0.0408888,0.00205263,0.0102357,0.910628,5,0.1,13,1.1,-4.6339,-2.89652,0.596127,0.493575,0.29128,-0.0446643,-1.5687,0.252992,-0.203189,0.00794892,0.279572,5,0.1,14,1.1,4.63821,0.684082,0.574757,-0.347805,-0.423943,0.020034,0.035882,0.0437349,-0.00208989,0.0302693,0.231084,5,0.1,15,1.1,0.705057,-2.45499,0.611542,-0.797767,0.231279,-0.00916319,0.0822283,-0.306174,0.000949949,0.0140465,0.564212,5,0.1,16,1.1,1.28099,-3.12515,0.580565,0.84197,0.402912,0.00214316,-0.404961,-0.449374,-0.0999421,0.0116546,2.40986,5,0.1,17,1.1,2.12568,-3.28913,0.683468,0.0525761,0.563086,-0.0248357,0.130579,0.016436,0.000517815,0.0109899,0.86927,5,0.1,18,1.1,4.40085,-5.1217,0.57904,-0.159399,0.127178,0.0166415,0.0165105,-0.655055,-0.00171736,0.00854817,1.09492,5,0.1,19,1.1,1.62937,-2.71824,0.588134,-0.578915,0.252587,0.00942312,0.0596121,-0.0259429,-0.000976026,0.0215924,0.306278,5,0.1,20,1.1,-5.45685,-1.11783,0.684923,0.0173502,-0.371826,0.00526421,0.00748038,-0.15863,0.00222772,0.00823813,0.12569,5,0.1,21,1.1,2.93101,-5.83682,0.716955,-0.855212,-0.010433,0.0262257,0.0371635,0.00104308,-0.00270456,0.0225657,0.86396,5,0.1,22,1.1,-3.69241,1.80715,0.838833,0.192432,-0.243796,0.405742,-0.0198632,0.0251532,-0.0418313,0.0256797,0.200373,5,0.1,23,1.1,-1.36319,4.67543,0.539066,-0.422584,0.60931,-0.0453521,-0.553884,0.262439,0.155643,0.0182168,1.55642,5,0.1,24,1.1,0.689143,1.81041,0.642742,0.366934,0.00503082,-0.00482537,0.090532,0.00119954,-0.00119954,0.0126065,0.168253,5,0.1,25,1.1,0.532104,-4.76193,0.607629,0.172954,0.803205,-0.00605173,-0.0178516,-0.0829697,0.000633299,0.0111862,0.518124,5,0.1,26,1.1,-0.364891,0.30426,0.618363,-0.190364,-0.112868,-0.0215268,0.64794,0.100553,-0.0386983,0.0117876,0.280643,5,0.1,27,1.1,-1.83091,4.71936,0.692158,0.604787,-0.323953,-0.0250665,-0.235371,0.368059,-0.251751,0.0338851,2.68803,5,0.1,28,1.1,-3.56553,-4.83154,0.707411,-0.265504,-0.451178,0.0338007,0.0273734,0.0464618,-0.00346452,0.0101348,0.211226,5,0.1,29,1.1,-1.15796,5.18705,0.837315,-0.031535,-0.864543,0.384372,-0.000476837,-0.00965595,0.00606105,0.0343966,1.27095,5,0.1,30,1.1,0.141631,2.12901,0.669637,0.65172,0.313974,0.0427758,-0.479423,-0.54507,0.120603,0.0103383,1.65008,5,0.1,31,1.1,-4.74468,-3.14551,0.687553,-0.307283,0.356552,0.0005126,-0.0926852,0.269666,-0.0284985,0.00970558,0.55292,5,0.1,32,1.1,5.25206,1.15075,0.570427,0.0770994,-0.84987,-0.0804724,0.127703,0.0447631,-0.0220686,0.010549,2.29549,5,0.1,33,1.1,-2.52818,-3.17718,0.603835,0.458931,0.616919,-0.00303816,-0.0472814,-0.0636876,0.000327826,0.0109657,0.453706,5,0.1,34,1.1,-3.4384,-0.522892,0.628756,0.524169,0.0578576,-0.0228283,0.209212,-0.00598654,0.00236556,0.0185452,0.443369,5,0.1,35,1.1,1.40956,2.28312,0.555694,-0.831781,-0.721078,0.0285262,0.330217,0.214472,-0.023894,0.0113878,1.56981,5,0.1,36,1.1,3.61191,-3.79627,0.558016,-0.112121,0.817647,0.0171342,0.0575632,-0.276446,0.00520423,0.0235792,2.88251,5,0.1,37,1.1,0.0459484,-1.18642,0.64219,-0.0450334,0.866026,-0.00969702,-0.0111463,0,-0.00239536,0.0346285,2.27053,5,0.1,38,1.1,1.30189,5.11642,0.897502,0.0381725,-0.608432,0.359171,-0.00392646,0.0629127,-0.0370443,0.0121756,0.384135,5,0.1,39,1.1,-0.586229,-0.306543,0.626753,0.0540268,0.480202,0.345344,-0.200599,-0.53554,0.0528879,0.0210407,3.21313,5,0.1
0,1.2,-3.56032,5.25606,0.581994,0.46289,-0.549054,-0.0239134,-0.173926,0.20647,0.0089705,0.0100173,0.275647,5,0.1,1,1.2,-0.54485,0.0733701,0.730894,0.135805,0.13216,0.0781104,-0.637412,-0.654459,0.0473261,0.00847798,0.478721,5,0.1,2,1.2,-1.78807,1.88966,0.917614,0.13124,-0.343144,0.364204,0.0613332,0.018239,-0.136852,0.0134259,0.248817,5,0.1,3,1.2,2.00414,-2.91214,0.723331,-0.580636,0.347817,0.0392511,1.27625,0.048399,-0.00455976,0.0089462,0.164595,5,0.1,4,1.2,2.05236,-0.678374,0.617338,-0.0838101,-0.479446,-0.0141948,0.0265837,-0.916034,0.00450015,0.0124859,1.85271,5,0.1,5,1.2,-2.91687,4.28885,0.655538,-0.543821,0.174487,0.0115305,0.357747,0.0622272,-0.00157952,0.00932738,0.191203,5,0.1,6,1.2,1.62459,4.49112,0.896401,0.0214249,-0.245202,0.382072,-0.00804663,0.092268,-0.143558,0.0252077,0.110476,5,0.1,7,1.2,-1.54192,4.46342,0.92028,-0.137293,-0.261676,0.338469,-0.354469,0.771999,-0.0735521,0.0209931,0.479035,5,0.1,8,1.2,5.06629,0.713233,0.603098,-0.689554,-0.0882596,-0.0188857,0.385523,0.36025,0.0190139,0.0150297,0.745437,5,0.1,9,1.2,-0.4,2.14229,0.573745,-0.56224,-0.305527,0.0844687,0.445112,0.114799,-0.0317693,0.00851731,0.33522,5,0.1,10,1.2,-3.44387,4.20632,0.649428,0.795484,-0.211263,-0.0201851,-0.434637,-0.547886,-0.0115335,0.0356757,2.412,5,0.1,11,1.2,-0.0742683,-0.211805,0.665243,-0.740302,-0.125935,-0.0226632,0.727557,-0.153549,-0.0646412,0.017199,1.50422,5,0.1,12,1.2,-3.09573,-3.27551,0.623783,0.838846,-0.399262,-0.0200078,-0.234962,0.149131,0.00745058,0.0129058,0.637049,5,0.1,13,1.2,-4.59206,-2.86617,0.59064,0.346756,0.314736,-0.0648528,-1.35827,0.193119,-0.18999,0.00756006,0.22307,5,0.1,14,1.2,4.60374,0.642067,0.576742,-0.340044,-0.414483,0.0195846,0.127792,0.155717,-0.00733137,0.0314946,0.153662,5,0.1,15,1.2,0.625994,-2.43347,0.610634,-0.779971,0.198632,-0.00895858,0.292957,-0.332713,0.00339746,0.0121574,0.389238,5,0.1,16,1.2,1.3626,-3.08738,0.580197,0.78482,0.350094,-0.0100851,-0.729322,-0.592947,-0.135154,0.0122278,2.64348,5,0.1,17,1.2,2.13144,-3.23259,0.681008,0.0612915,0.56802,-0.0241712,0.0462532,0.0405312,0.012666,0.0105457,0.664498,5,0.1,18,1.2,4.38505,-5.11182,0.58069,-0.155842,0.0752687,0.0162706,0.058651,-0.36788,-0.00613928,0.00954511,1.32477,5,0.1,19,1.2,1.57199,-2.69321,0.589067,-0.566006,0.24696,0.00921339,0.21255,-0.0927448,-0.00348687,0.0274524,0.203659,5,0.1,20,1.2,-5.45508,-1.15563,0.685458,0.0178337,-0.382078,0.00540763,0.00166893,-0.0321865,0.000447035,0.0124669,0.0688621,5,0.1,21,1.2,2.84586,-5.83786,0.719555,-0.845098,-0.0101924,0.0256419,0.197649,0.00357628,-0.00965595,0.0209084,1.11041,5,0.1,22,1.2,-3.67334,1.78299,0.879044,0.188136,-0.238356,0.39669,-0.0706911,0.0895262,-0.149012,0.0299956,0.253467,5,0.1,23,1.2,-1.40823,4.73736,0.535372,-0.476983,0.625443,-0.0281125,-0.489771,0.0393391,0.181347,0.0117474,1.16836,5,0.1,24,1.2,0.726253,1.81092,0.642254,0.374357,0.00512898,-0.00492334,0.0366271,0.000536442,-0.000476837,0.0106542,0.115243,5,0.1,25,1.2,0.549245,-4.68232,0.607029,0.169094,0.785279,-0.00591576,-0.0635386,-0.295162,0.00220537,0.0108538,0.344538,5,0.1,26,1.2,-0.380781,0.293569,0.616016,-0.128648,-0.100135,-0.0253677,0.576049,0.150114,-0.0354052,0.00946722,0.270441,5,0.1,27,1.2,-1.77155,4.68892,0.688263,0.582248,-0.283623,-0.0536263,-0.240207,0.437498,-0.30008,0.0108848,0.972218,5,0.1,28,1.2,-3.59184,-4.87626,0.710761,-0.259584,-0.441122,0.0330478,0.0976324,0.165939,-0.0123978,0.00928,0.140457,5,0.1,29,1.2,-1.1611,5.10069,0.875626,-0.0311762,-0.860476,0.380032,0.00846386,0.110865,-0.103146,0.033462,0.92582,5,0.1,30,1.2,0.204832,2.15844,0.674325,0.615308,0.28097,0.0492349,-0.296384,-0.164986,0.0151992,0.0104934,1.27152,5,0.1,31,1.2,-4.77575,-3.10856,0.687455,-0.31271,0.381386,-0.00251085,-0.00357628,0.200987,-0.0303984,0.00962078,0.412918,5,0.1,32,1.2,5.26018,1.06612,0.562307,0.0834346,-0.840381,-0.0814959,0.00524521,0.180244,0.00423193,0.00980314,2.17592,5,0.1,33,1.2,-2.4827,-3.11604,0.603534,0.448698,0.603151,-0.0029698,-0.168562,-0.226736,0.00113249,0.00951403,0.301689,5,0.1,34,1.2,-3.38514,-0.517158,0.626493,0.538462,0.0565648,-0.022319,0.0540018,-0.0212193,0.00840425,0.0158171,2.96046,5,0.1,35,1.2,1.3287,2.21262,0.558393,-0.778997,-0.68385,0.025183,0.711322,0.524044,-0.0413358,0.0105909,1.45033,5,0.1,36,1.2,3.6,-3.71603,0.559753,-0.135487,0.785273,0.0175491,-0.495315,-0.395894,0.00214577,0.0309628,2.70376,5,0.1,37,1.2,0.0414043,-1.09981,0.641212,-0.0456502,0.866026,-0.0098303,0.000638887,0,0.000178814,0.0285142,2.2705,5,0.1,38,1.2,1.30567,5.05612,0.933098,0.0373214,-0.594842,0.351158,-0.0140071,0.223637,-0.131935,0.0103675,0.255425,5,0.1,39,1.2,-0.581816,-0.261307,0.660981,0.03445,0.423488,0.333995,-0.187248,-0.597335,-0.260532,0.016524,2.85721,5,0.1
0,1.3,-3.51488,5.20216,0.579647,0.445697,-0.528648,-0.0230266,-0.184312,0.218719,0.00951439,0.0100173,0.275647,5,0.1,1,1.3,-0.534599,0.083583,0.739113,0.0683852,0.0747416,0.0875752,-0.687737,-0.495844,0.126503,0.00847798,0.478721,5,0.1,2,1.3,-1.77458,1.85537,0.953365,0.138974,-0.343012,0.350676,0.0822619,0.00207126,-0.145026,0.0134259,0.248817,5,0.1,3,1.3,1.95219,-2.87695,0.727277,-0.460996,0.356986,0.0399846,1.11768,0.108898,0.015039,0.0089462,0.164595,5,0.1,4,1.3,2.04411,-0.731323,0.615941,-0.0811674,-0.581873,-0.0137476,0.0289977,-1.05869,0.00490993,0.0124859,1.85271,5,0.1,5,1.3,-2.96963,4.3065,0.656681,-0.512305,0.177435,0.0113052,0.293493,-0.00539422,-0.00321493,0.00932738,0.191203,5,0.1,6,1.3,1.62669,4.46705,0.933863,0.0206288,-0.236084,0.366663,-0.00853837,0.097692,-0.173729,0.0252077,0.110476,5,0.1,7,1.3,-1.55692,4.44019,0.953763,-0.158009,-0.210988,0.330935,-0.0753701,0.286847,-0.0886507,0.0209931,0.479035,5,0.1,8,1.3,4.99922,0.705915,0.601316,-0.651944,-0.0617749,-0.0166442,0.385493,0.143323,0.0252426,0.0150297,0.745437,5,0.1,9,1.3,-0.454324,2.11229,0.582037,-0.526747,-0.294179,0.0813294,0.294197,0.121668,-0.0336394,0.00851731,0.33522,5,0.1,10,1.3,-3.36537,4.18273,0.647355,0.783597,-0.257467,-0.02123,0.10784,-0.367016,-0.00834838,0.0356757,2.412,5,0.1,11,1.3,-0.145001,-0.225513,0.662622,-0.677012,-0.150903,-0.0299594,0.56708,-0.314192,-0.0763945,0.017199,1.50422,5,0.1,12,1.3,-3.01288,-3.31471,0.621819,0.81843,-0.384516,-0.0192709,-0.20805,0.158191,0.00791252,0.0129058,0.637049,5,0.1,13,1.3,-4.56321,-2.83377,0.583196,0.238997,0.332501,-0.0838962,-0.830323,0.145927,-0.181835,0.00756006,0.22307,5,0.1,14,1.3,4.57036,0.60138,0.578665,-0.327412,-0.39909,0.0188595,0.135392,0.165034,-0.00777841,0.0314946,0.153662,5,0.1,15,1.3,0.549429,-2.41528,0.609755,-0.751011,0.165872,-0.0086233,0.310501,-0.297666,0.00359118,0.0121574,0.389238,5,0.1,16,1.3,1.43773,-3.05556,0.578447,0.719906,0.284559,-0.025359,-0.596404,-0.699565,-0.161633,0.0122278,2.64348,5,0.1,17,1.3,2.13771,-3.17527,0.678661,0.0633318,0.58034,-0.0226731,-0.00376999,0.162229,0.0173934,0.0105457,0.664498,5,0.1,18,1.3,4.36976,-5.10575,0.582287,-0.150046,0.0518128,0.0156641,0.0620782,-0.0417233,-0.00649691,0.00954511,1.32477,5,0.1,19,1.3,1.51643,-2.66897,0.589972,-0.544993,0.237792,0.00886898,0.225291,-0.098303,-0.00368804,0.0274524,0.203659,5,0.1,20,1.3,-5.45329,-1.19394,0.686001,0.0179067,-0.383309,0.00542477,-0.00077486,0.0204518,-0.000290573,0.0124669,0.0688621,5,0.1,21,1.3,2.76187,-5.83886,0.722072,-0.837721,-0.00983626,0.0246879,0.00675023,0.0038743,-0.0102222,0.0209084,1.11041,5,0.1,22,1.3,-3.65471,1.75943,0.917984,0.185592,-0.233951,0.381959,0.00408292,0.0158548,-0.157926,0.0299956,0.253467,5,0.1,23,1.3,-1.45857,4.80008,0.533514,-0.530644,0.628153,-0.00877921,-0.537112,-0.010103,0.197999,0.0117474,1.16836,5,0.1,24,1.3,0.763665,1.8112,0.641789,0.371715,-0.0015853,-0.004117,-0.0926629,-0.120036,0.014931,0.0106542,0.115243,5,0.1,25,1.3,0.565844,-4.60524,0.606448,0.162813,0.756105,-0.00569755,-0.0673309,-0.312716,0.00234321,0.0108538,0.344538,5,0.1,26,1.3,-0.390959,0.284108,0.613348,-0.0769783,-0.0907658,-0.0275522,0.452744,0.0492912,-0.00908226,0.00946722,0.270441,5,0.1,27,1.3,-1.7162,4.66296,0.682023,0.510347,-0.234061,-0.0656613,-1.10764,0.538707,0.0311621,0.0108848,0.972218,5,0.1,28,1.3,-3.61732,-4.91956,0.714005,-0.249935,-0.424723,0.0318219,0.103444,0.175744,-0.0131465,0.00928,0.140457,5,0.1,29,1.3,-1.16417,5.01497,0.913125,-0.0303293,-0.854955,0.369717,0.00951439,0.0447333,-0.11586,0.033462,0.92582,5,0.1,30,1.3,0.265406,2.18638,0.679197,0.600186,0.28326,0.0470644,-0.0547385,0.162482,-0.0529811,0.0104934,1.27152,5,0.1,31,1.3,-4.80706,-3.0693,0.687044,-0.313351,0.403991,-0.0057443,0.00467896,0.222951,-0.0327565,0.00962078,0.412918,5,0.1,32,1.3,5.26842,0.984025,0.554178,0.0799716,-0.792184,-0.0810023,-0.0693202,0.744417,0.00878796,0.00980314,2.17592,5,0.1,33,1.3,-2.43866,-3.05683,0.603242,0.432035,0.58074,-0.00285842,-0.17865,-0.240251,0.00118464,0.00951403,0.301689,5,0.1,34,1.3,-3.33148,-0.511611,0.624305,0.530377,0.0542969,-0.0214215,-0.208452,-0.0255145,0.0100881,0.0158171,2.96046,5,0.1,35,1.3,1.25497,2.14758,0.560593,-0.690243,-0.610441,0.0178865,1.03457,0.909433,-0.0973009,0.0105909,1.45033,5,0.1,36,1.3,3.58277,-3.63924,0.561525,-0.218798,0.752028,0.0179285,-1.07417,-0.303492,0.00426918,0.0309628,2.70376,5,0.1,37,1.3,0.0368294,-1.01321,0.640227,-0.0459126,0.866026,-0.00988357,-0.00325544,-3.72529e-06,-0.000678003,0.0285142,2.2705,5,0.1,38,1.3,1.30934,4.99773,0.967569,0.0359369,-0.572734,0.338116,-0.014849,0.236958,-0.139814,0.0103675,0.255425,5,0.1,39,1.3,-0.57909,-0.222157,0.692722,0.0220157,0.357772,0.297695,-0.0708327,-0.702315,-0.448402,0.016524,2.85721,5,0.1
0,1.4,-3.47134,5.15053,0.577397,0.42364,-0.502467,-0.0218883,-0.266433,0.315905,0.0137687,0.00989028,0.181445,5,0.1,1,1.4,-0.531125,0.0888264,0.748529,0.00229925,0.0325514,0.100709,-0.616729,-0.350427,0.124663,0.010547,0.372246,5,0.1,2,1.4,-1.76031,1.82117,0.987619,0.145799,-0.339738,0.333318,0.0462532,0.0755787,-0.20957,0.0122595,0.173716,5,0.1,3,1.4,1.91142,-2.84078,0.731355,-0.356871,0.365126,0.0415325,0.965953,0.0352859,0.012815,0.0118372,0.170476,5,0.1,4,1.4,2.03616,-0.794541,0.614594,-0.0775576,-0.67848,-0.0131369,0.0448227,-0.82019,0.00762939,0.0107901,1.41159,5,0.1,5,1.4,-3.01936,4.32409,0.657791,-0.481576,0.17314,0.0108421,0.335932,-0.0815392,-0.00622869,0.0114105,0.130293,5,0.1,6,1.4,1.62871,4.44399,0.969551,0.019604,-0.2244,0.345841,-0.0122786,0.141382,-0.248492,0.0258939,0.157174,5,0.1,7,1.4,-1.57274,4.42003,0.986312,-0.155264,-0.19623,0.318825,0.116765,0.0436306,-0.161201,0.0213222,0.361852,5,0.1,8,1.4,4.93607,0.7,0.599784,-0.60935,-0.0608161,-0.0139415,0.479221,-0.110239,0.0282824,0.0156098,0.602941,5,0.1,9,1.4,-0.505579,2.08356,0.589981,-0.498319,-0.279617,0.0773042,0.295728,0.175834,-0.0486076,0.00993378,0.240026,5,0.1,10,1.4,-3.28618,4.15551,0.645202,0.80145,-0.283301,-0.0216872,0.182509,-0.145197,-0.000178814,0.00720079,1.23761,5,0.1,11,1.4,-0.209939,-0.242226,0.659257,-0.621924,-0.18324,-0.0370964,0.555456,-0.308856,-0.0628233,0.0105163,1.23867,5,0.1,12,1.4,-2.93227,-3.35227,0.619936,0.791389,-0.365555,-0.0183225,-0.356555,0.229239,0.0114739,0.0133436,0.436196,5,0.1,13,1.4,-4.54282,-2.79997,0.573971,0.174606,0.341219,-0.0996843,-0.484943,0.017643,-0.127614,0.0101673,0.230764,5,0.1,14,1.4,4.53838,0.562397,0.580507,-0.31122,-0.379337,0.0179276,0.19598,0.238568,-0.0112355,0.0579324,0.101146,5,0.1,15,1.4,0.476071,-2.4,0.608913,-0.713844,0.141507,-0.00819564,0.448852,-0.190616,0.0051856,0.0164027,0.267188,5,0.1,16,1.4,1.50678,-3.03065,0.575118,0.660846,0.213438,-0.0409022,-0.604391,-0.708342,-0.142783,0.012207,2.78627,5,0.1,17,1.4,2.14396,-3.11652,0.676489,0.0608623,0.592959,-0.0206828,-0.0436306,0.0590086,0.0224113,0.0150718,0.491378,5,0.1,18,1.4,4.3551,-5.1,0.583817,-0.142622,0.0705481,0.0148863,0.0898838,0.393391,-0.00935793,0.0115252,3.47195,5,0.1,19,1.4,1.4632,-2.64574,0.590838,-0.518027,0.226027,0.0084281,0.325739,-0.142097,-0.00530481,0.0156322,0.316159,5,0.1,20,1.4,-5.45151,-1.232,0.686539,0.0175714,-0.375873,0.00531971,-0.00596046,0.136495,-0.00193715,0.0125174,0.0463983,5,0.1,21,1.4,2.6782,-5.83982,0.724483,-0.833976,-0.00935793,0.0234649,0.108957,0.00572205,-0.0147521,0.027838,2.30289,5,0.1,22,1.4,-3.63611,1.73611,0.955294,0.186229,-0.232196,0.363056,-0.00286102,0.0317693,-0.228316,0.0336453,0.182249,5,0.1,23,1.4,-1.51409,4.8626,0.533603,-0.57649,0.619268,0.0102133,-0.347018,-0.184059,0.17646,0.0163482,0.84306,5,0.1,24,1.4,0.80014,1.81034,0.641466,0.355436,-0.0162482,-0.00223666,-0.23362,-0.161767,0.0213981,0.0141633,0.108621,5,0.1,25,1.4,0.581747,-4.53138,0.605892,0.154755,0.718677,-0.00541657,-0.0973046,-0.451803,0.00339746,0.013725,0.245244,5,0.1,26,1.4,-0.396624,0.275192,0.610585,-0.0386603,-0.0881538,-0.0273466,0.312582,0.0121593,0.0123978,0.00958519,0.260082,5,0.1,27,1.4,-1.67152,4.64231,0.675967,0.37694,-0.178587,-0.0524953,-1.48839,0.558615,0.209332,0.0257869,2.5726,5,0.1,28,1.4,-3.64174,-4.96105,0.717113,-0.23756,-0.40369,0.0302494,0.149488,0.253677,-0.0190437,0.00914529,0.157464,5,0.1,29,1.4,-1.16715,4.9299,0.949412,-0.029102,-0.843871,0.354743,0.0157952,0.208616,-0.192046,0.0329344,0.652961,5,0.1,30,1.4,0.325222,2.21573,0.683564,0.595912,0.304967,0.0396654,-0.0665331,0.235081,-0.0903606,0.0131156,0.978725,5,0.1,31,1.4,-4.83827,-3.02794,0.686312,-0.309432,0.421184,-0.00879914,0.0832081,0.101328,-0.0272691,0.00994249,0.296239,5,0.1,32,1.4,5.27598,0.909189,0.54615,0.0705242,-0.698763,-0.0792131,-0.115156,1.09062,0.0290573,0.00910333,2.09604,5,0.1,33,1.4,-2.39646,-3.00011,0.602963,0.410652,0.551987,-0.00271648,-0.258207,-0.347137,0.00169873,0.00969666,0.198581,5,0.1,34,1.4,-3.27986,-0.506325,0.62222,0.498277,0.0512362,-0.0202119,-0.426054,-0.0365674,0.0144243,0.0150972,3.00705,5,0.1,35,1.4,1.19145,2.09148,0.561853,-0.577462,-0.508314,0.00702292,1.19656,1.10424,-0.114292,0.0125966,1.37364,5,0.1,36,1.4,3.55522,-3.56563,0.563334,-0.333291,0.718707,0.0182018,-1.14202,-0.387311,0.000357628,0.0311777,2.44527,5,0.1,37,1.4,0.0322331,-0.92661,0.639238,-0.0458534,0.866026,-0.00986904,0.00628367,0,0.00137091,0.0279406,2.27052,5,0.1,38,1.4,1.31285,4.94179,1.0006,0.0341624,-0.544381,0.321382,-0.0215173,0.342607,-0.202119,0.0113291,0.279591,5,0.1,39,1.4,-0.577114,-0.189963,0.720057,0.0185862,0.285687,0.247438,-0.00536442,-0.727437,-0.542551,0.00819215,0.593422,5,0.1
0,1.5,-3.43026,5.1018,0.575275,0.398227,-0.472335,-0.0205752,-0.253856,0.301033,0.0131205,0.00989028,0.181445,5,0.1,1,1.5,-0.533998,0.0905173,0.759431,-0.0594572,0.0030877,0.118863,-0.598263,-0.241187,0.217326,0.010547,0.372246,5,0.1,2,1.5,-1.74547,1.78752,1.01994,0.150903,-0.333218,0.313328,0.04711,0.0690296,-0.199698,0.0122595,0.173716,5,0.1,3,1.5,1.87987,-2.8041,0.735624,-0.280273,0.367964,0.0442264,0.594579,0.00628829,0.0357144,0.0118372,0.170476,5,0.1,4,1.5,2.02862,-0.86657,0.613317,-0.0732698,-0.761415,-0.0124078,0.0431836,-0.781417,0.00733882,0.0107901,1.41159,5,0.1,5,1.5,-3.06596,4.34096,0.658844,-0.4514,0.163811,0.0102143,0.284672,-0.10708,-0.00657514,0.0114105,0.130293,5,0.1,6,1.5,1.63062,4.42212,1.00256,0.0187222,-0.214261,0.311367,-0.00655651,0.0753403,-0.4218,0.0258939,0.157174,5,0.1,7,1.5,-1.58746,4.40019,1.01742,-0.137291,-0.204258,0.303293,0.231497,-0.169784,-0.159018,0.0213222,0.361852,5,0.1,8,1.5,4.87747,0.692932,0.598533,-0.56304,-0.0840368,-0.0110851,0.460833,-0.320956,0.0284575,0.0156098,0.602941,5,0.1,9,1.5,-0.554134,2.05644,0.597478,-0.474164,-0.262845,0.0726685,0.210911,0.167564,-0.0463054,0.00993378,0.240026,5,0.1,10,1.5,-3.20755,4.12661,0.643036,0.749799,-0.293148,-0.0215762,-1.09921,-0.0454187,0.00304356,0.00720079,1.23761,5,0.1,11,1.5,-0.270086,-0.262055,0.655267,-0.587006,-0.212532,-0.0423302,0.195328,-0.260346,-0.0401773,0.0105163,1.23867,5,0.1,12,1.5,-2.85479,-3.38772,0.618159,0.758612,-0.343688,-0.0172279,-0.327304,0.218511,0.0109412,0.0133436,0.436196,5,0.1,13,1.5,-4.52702,-2.76587,0.563424,0.147935,0.339501,-0.110577,-0.0889599,-0.0593662,-0.0859909,0.0101673,0.230764,5,0.1,14,1.5,4.5082,0.52561,0.582246,-0.292531,-0.356581,0.0168554,0.186592,0.227323,-0.0107214,0.0579324,0.101146,5,0.1,15,1.5,0.406844,-2.38656,0.608118,-0.671029,0.12937,-0.00770167,0.427725,-0.0673681,0.00492483,0.0164027,0.267188,5,0.1,16,1.5,1.57029,-3.0122,0.570395,0.61306,0.161353,-0.0527149,-0.387855,-0.361204,-0.0926182,0.012207,2.78627,5,0.1,17,1.5,2.14979,-3.05679,0.674533,0.0554908,0.602222,-0.0184348,-0.062719,0.0918508,0.022687,0.0150718,0.491378,5,0.1,18,1.5,4.34053,-5.09104,0.585219,-0.155153,0.107808,0.0128119,-0.28953,0.342429,-0.0299253,0.0115252,3.47195,5,0.1,19,1.5,1.41363,-2.62324,0.59168,-0.467963,0.229041,0.00863289,0.647917,0.158802,0.00756606,0.0156322,0.316159,5,0.1,20,1.5,-5.44978,-1.26894,0.687062,0.0170015,-0.362939,0.0051368,-0.00604987,0.136018,-0.0019148,0.0125174,0.0463983,5,0.1,21,1.5,2.59467,-5.84073,0.726758,-0.841616,-0.00879839,0.0220292,-0.189453,0.00569224,-0.0145622,0.027838,2.30289,5,0.1,22,1.5,-3.61743,1.71297,0.990502,0.18799,-0.231201,0.341278,0.0257641,0.00175089,-0.217561,0.0336453,0.182249,5,0.1,23,1.5,-1.57351,4.92362,0.535502,-0.611543,0.600986,0.027574,-0.317745,-0.20206,0.165276,0.0163482,0.84306,5,0.1,24,1.5,0.834624,1.80779,0.641363,0.334939,-0.0356829,0.000272691,-0.191312,-0.213958,0.0274032,0.0141633,0.108621,5,0.1,25,1.5,0.596755,-4.46227,0.605366,0.145473,0.659433,-0.00509247,-0.0927225,-0.703573,0.00323355,0.013725,0.245244,5,0.1,26,1.5,-0.399167,0.266361,0.607934,-0.0144625,-0.0890422,-0.0254727,0.176759,-0.0218544,0.0244193,0.00958519,0.260082,5,0.1,27,1.5,-1.63958,4.62631,0.671633,0.276748,-0.149389,-0.0353989,-0.591516,0.074178,0.136595,0.0257869,2.5726,5,0.1,28,1.5,-3.6649,-5.00041,0.720063,-0.226839,-0.385502,0.0288836,0.0796765,0.135124,-0.0101514,0.00914529,0.157464,5,0.1,29,1.5,-1.16999,4.84641,0.983962,-0.0275891,-0.826322,0.336344,0.0153333,0.178635,-0.186525,0.0329344,0.652961,5,0.1,30,1.5,0.384741,2.24768,0.687033,0.596104,0.33595,0.029341,0.0321358,0.347495,-0.112031,0.0131156,0.978725,5,0.1,31,1.5,-4.86882,-2.98528,0.685296,-0.301547,0.43187,-0.0114838,0.0858307,0.0900924,-0.0252649,0.00994249,0.296239,5,0.1,32,1.5,5.28241,0.845344,0.538369,0.0576921,-0.573782,-0.0763888,-0.137836,1.35316,0.0300184,0.00910333,2.09604,5,0.1,33,1.5,-2.35663,-2.94658,0.6027,0.386022,0.518875,-0.00255443,-0.246033,-0.330776,0.00161678,0.00969666,0.198581,5,0.1,34,1.5,-3.23281,-0.501374,0.620267,0.437659,0.0478399,-0.0188722,-0.737607,-0.0329223,0.0129901,0.0150972,3.00705,5,0.1,35,1.5,1.13932,2.04649,0.561934,-0.468547,-0.389393,-0.00573536,0.990748,1.23997,-0.134382,0.0125966,1.37364,5,0.1,36,1.5,3.51568,-3.49544,0.565162,-0.460252,0.686754,0.0183701,-1.31795,-0.284657,0.00193343,0.0311777,2.44527,5,0.1,37,1.5,0.0276633,-0.840007,0.638254,-0.0456327,0.866026,-0.00982033,0.00076998,-3.72529e-06,0.000175089,0.0279406,2.27052,5,0.1,38,1.5,1.31616,4.88884,1.03176,0.0321111,-0.516149,0.302103,-0.0204816,0.247359,-0.192598,0.0113291,0.279591,5,0.1,39,1.5,-0.57566,-0.165498,0.742026,0.00731042,0.19998,0.191581,-0.196841,-0.945975,-0.563886,0.00819215,0.593422,5,0.1
0,1.6,-3.39177,5.05614,0.573286,0.37086,-0.439882,-0.0191599,-0.301719,0.357866,0.0155568,0.0103632,0.119262,5,0.1,1,1.6,-0.542769,0.0897843,0.772414,-0.113912,-0.0161689,0.140505,-0.476629,-0.14643,0.199884,0.0090008,0.275748,5,0.1,2,1.6,-1.73021,1.75463,1.05023,0.153747,-0.32354,0.291795,0.0038147,0.134289,-0.237286,0.00990716,0.118842,5,0.1,3,1.6,1.8544,-2.76742,0.740227,-0.232825,0.363857,0.0477463,0.377059,-0.0983477,0.030756,0.00870774,0.360446,5,0.1,4,1.6,2.02152,-0.946171,0.612115,-0.0685394,-0.825094,-0.011605,0.0528097,-0.452548,0.0089705,0.0105548,1.02732,5,0.1,5,1.6,-3.10965,4.35675,0.65983,-0.421739,0.151408,0.00948757,0.320554,-0.141859,-0.00813603,0.0121986,0.152521,5,0.1,6,1.6,1.63246,4.40105,1.03143,0.0180811,-0.206935,0.264853,-0.00709295,0.0815392,-0.494003,0.0290792,0.129765,5,0.1,7,1.6,-1.59992,4.37879,1.04689,-0.110999,-0.224149,0.285423,0.285208,-0.201702,-0.204682,0.0216323,0.265834,5,0.1,8,1.6,4.82353,0.682801,0.597564,-0.514865,-0.119151,-0.00831783,0.511169,-0.356019,0.0265837,0.0149156,0.669612,5,0.1,9,1.6,-0.600478,2.03103,0.604502,-0.452106,-0.244778,0.0676751,0.247031,0.19896,-0.0550151,0.00886235,0.169114,5,0.1,10,1.6,-3.13938,4.09727,0.640903,0.602663,-0.291419,-0.0209749,-1.74928,0.0836849,0.00938773,0.0332835,3.01982,5,0.1,11,1.6,-0.32805,-0.28442,0.650881,-0.573637,-0.23258,-0.0448793,0.111849,-0.129953,-0.00992417,0.0118346,0.985455,5,0.1,12,1.6,-2.78071,-3.42095,0.616494,0.721163,-0.320119,-0.0160471,-0.440836,0.259995,0.0130236,0.0089026,0.294636,5,0.1,13,1.6,-4.5123,-2.73239,0.552033,0.149584,0.328207,-0.116204,0.0901222,-0.170827,-0.0239611,0.0184995,3.21573,5,0.1,14,1.6,4.47992,0.491141,0.583875,-0.272405,-0.332072,0.0156984,0.221252,0.270069,-0.0127256,0.00556218,0.188016,5,0.1,15,1.6,0.34198,-2.37386,0.607374,-0.624911,0.125349,-0.00717044,0.508204,-0.0245571,0.00581145,0.010759,0.18199,5,0.1,16,1.6,1.62977,-2.99749,0.564749,0.576934,0.136185,-0.059326,-0.361443,-0.164628,-0.0394583,0.0119239,2.87004,5,0.1,17,1.6,2.155,-2.99628,0.672805,0.0485241,0.605494,-0.0161275,-0.0754595,-0.0506639,0.0236034,0.0104195,0.350572,5,0.1,18,1.6,4.32328,-5.07869,0.586331,-0.191522,0.137424,0.00929832,-0.398636,0.243425,-0.0386238,0.0104488,3.42227,5,0.1,19,1.6,1.37041,-2.59934,0.59259,-0.39351,0.250119,0.0096187,0.818014,0.229597,0.0107586,0.019706,0.213979,5,0.1,20,1.6,-5.44812,-1.30446,0.687565,0.0162482,-0.346372,0.00490248,-0.00953674,0.204504,-0.00286102,0.0113736,0.0189571,5,0.1,21,1.6,2.50954,-5.84158,0.728884,-0.859773,-0.00817776,0.0204518,-0.125051,0.00691414,-0.0173748,0.0220268,2.02584,5,0.1,22,1.6,-3.59853,1.6899,1.02349,0.189281,-0.22952,0.317824,-0.0089407,0.041604,-0.258565,0.024697,0.128348,5,0.1,23,1.6,-1.63597,4.98255,0.539031,-0.633916,0.575447,0.0423372,-0.104845,-0.322104,0.126123,0.0104881,0.587258,5,0.1,24,1.6,0.867132,1.80315,0.641528,0.314648,-0.0567704,0.00300109,-0.224829,-0.198007,0.0261068,0.0125119,0.0625876,5,0.1,25,1.6,0.610817,-4.40007,0.604874,0.135475,0.582838,-0.00474304,-0.110149,-0.809193,0.0038743,0.00973074,0.186805,5,0.1,26,1.6,-0.399914,0.257345,0.605524,-0.00215918,-0.0911266,-0.0225872,0.0754148,-0.0139475,0.0326335,0.0101966,0.252537,5,0.1,27,1.6,-1.6139,4.61127,0.668683,0.244951,-0.155044,-0.0244424,-0.105202,-0.148535,0.0858605,0.0213871,2.14894,5,0.1,28,1.6,-3.6872,-5.03831,0.722902,-0.219083,-0.372338,0.027895,0.0863075,0.146151,-0.0109673,0.00851614,0.179733,5,0.1,29,1.6,-1.17266,4.76486,1.0166,-0.0258923,-0.802016,0.315672,0.0192523,0.332117,-0.233948,0.034384,0.449962,5,0.1,30,1.6,0.444418,2.28295,0.689399,0.595793,0.368065,0.0179872,-0.0655651,0.267863,-0.111908,0.0114042,0.728286,5,0.1,31,1.6,-4.89847,-2.94181,0.684033,-0.290358,0.435454,-0.0136569,0.145435,-0.033617,-0.0173748,0.00942561,0.20562,5,0.1,32,1.6,5.28748,0.794793,0.530899,0.0436068,-0.437674,-0.0727788,-0.140667,1.32945,0.0439584,0.00827692,2.02975,5,0.1,33,1.6,-2.31932,-2.89642,0.602453,0.359493,0.483209,-0.00238121,-0.29242,-0.392914,0.00196695,0.00907562,0.130521,5,0.1,34,1.6,-3.19292,-0.49676,0.618446,0.359046,0.0443883,-0.0175118,-0.80049,-0.0371784,0.0146925,0.0166998,2.40992,5,0.1,35,1.6,1.09714,2.01374,0.560699,-0.377685,-0.266355,-0.0187263,0.83375,1.19489,-0.12064,0.00821114,0.618611,5,0.1,36,1.6,3.46331,-3.42824,0.567004,-0.583208,0.656146,0.0184059,-1.08337,-0.350475,-0.00196695,0.0234111,2.2359,5,0.1,37,1.6,0.0231125,-0.753405,0.637275,-0.0452492,0.866026,-0.00973791,0.00876382,0,0.00190735,0.0326653,2.27057,5,0.1,38,1.6,1.31926,4.83848,1.06096,0.0299037,-0.49057,0.28134,-0.0243783,0.282526,-0.228822,0.0124142,0.196734,5,0.1,39,1.6,-0.576071,-0.150314,0.758402,-0.0166342,0.103681,0.136551,-0.26384,-0.948839,-0.528514,0.00979168,0.448852,5,0.1
0,1.7,-3.35612,5.01386,0.571444,0.342578,-0.406338,-0.0177012,-0.274062,0.325054,0.0141449,0.0103632,0.119262,5,0.1,1,1.7,-0.556448,0.0872574,0.78762,-0.158387,-0.0357214,0.164619,-0.399649,-0.228044,0.260696,0.0090008,0.275748,5,0.1,2,1.7,-1.7148,1.7229,1.07828,0.154286,-0.311132,0.26955,0,0.125475,-0.215583,0.00990716,0.118842,5,0.1,3,1.7,1.83371,-2.73155,0.745486,-0.175159,0.353155,0.060135,0.729263,-0.126094,0.193138,0.00870774,0.360446,5,0.1,4,1.7,2.01492,-1.03051,0.610998,-0.0635769,-0.857247,-0.0107626,0.0483543,-0.189964,0.00819936,0.0105548,1.02732,5,0.1,5,1.7,-3.15057,4.37123,0.660744,-0.399475,0.138591,0.0088213,0.154212,-0.119388,-0.00565499,0.0121986,0.152521,5,0.1,6,1.7,1.63424,4.38087,1.05532,0.0174824,-0.195695,0.212579,-0.00567734,0.142634,-0.524946,0.0290792,0.129765,5,0.1,7,1.7,-1.60969,4.35519,1.07446,-0.0853322,-0.249025,0.266111,0.229955,-0.269413,-0.189595,0.0216323,0.265834,5,0.1,8,1.7,4.77461,0.668916,0.596862,-0.463451,-0.15975,-0.00575725,0.52169,-0.428353,0.024341,0.0149156,0.669612,5,0.1,9,1.7,-0.644587,2.0075,0.611008,-0.430942,-0.226125,0.0625179,0.195239,0.180796,-0.0499748,0.00886235,0.169114,5,0.1,10,1.7,-3.08539,4.06878,0.638848,0.498621,-0.276271,-0.0201488,-0.458166,0.213802,0.00797212,0.0332835,3.01982,5,0.1,11,1.7,-0.38546,-0.307955,0.646416,-0.579143,-0.234662,-0.04376,-0.164261,0.0780597,0.0298359,0.0118346,0.985455,5,0.1,12,1.7,-2.71067,-3.45172,0.614951,0.680282,-0.295746,-0.0148261,-0.400111,0.236228,0.011839,0.0089026,0.294636,5,0.1,13,1.7,-4.4951,-2.70057,0.540513,0.209194,0.306934,-0.112216,0.980407,-0.253677,0.0952072,0.0184995,3.21573,5,0.1,14,1.7,4.45336,0.45924,0.58533,-0.262205,-0.306206,0.0129569,0.0138879,0.255192,-0.0390708,0.00556218,0.188016,5,0.1,15,1.7,0.281909,-2.36133,0.606684,-0.577269,0.126169,-0.00662552,0.461707,0.0291765,0.00528619,0.010759,0.18199,5,0.1,16,1.7,1.68592,-2.98441,0.558661,0.547919,0.127611,-0.0619936,-0.247419,-0.0248104,-0.0129603,0.0119239,2.87004,5,0.1,17,1.7,2.15947,-2.93591,0.671306,0.0408549,0.602045,-0.0138718,-0.0772923,-0.045836,0.0216626,0.0104195,0.350572,5,0.1,18,1.7,4.30182,-5.06425,0.587055,-0.23987,0.147121,0.00509014,-0.528514,-0.0160933,-0.0439174,0.0104488,3.42227,5,0.1,19,1.7,1.33437,-2.57346,0.593593,-0.334263,0.264678,0.0103131,0.407599,0.0622571,0.00321865,0.019706,0.213979,5,0.1,20,1.7,-5.44654,-1.33805,0.68804,0.0152513,-0.325015,0.00460334,-0.0106692,0.229105,-0.00321865,0.0113736,0.0189571,5,0.1,21,1.7,2.42318,-5.84236,0.730847,-0.865635,-0.00753477,0.0188375,-0.0156313,0.00616908,-0.0154898,0.0220268,2.02584,5,0.1,22,1.7,-3.57961,1.6671,1.05404,0.189321,-0.226498,0.293586,-1.49012e-05,0.0297204,-0.234872,0.024697,0.128348,5,0.1,23,1.7,-1.69989,5.03854,0.543874,-0.64388,0.544646,0.0542087,-0.0654534,-0.310957,0.107106,0.0104881,0.587258,5,0.1,24,1.7,0.897634,1.79669,0.641932,0.296603,-0.070481,0.00482667,-0.151906,-0.0781715,0.0108704,0.0125119,0.0625876,5,0.1,25,1.7,0.62384,-4.34599,0.604418,0.125149,0.498568,-0.0043802,-0.100076,-0.822932,0.00350922,0.00973074,0.186805,5,0.1,26,1.7,-0.399854,0.248145,0.603435,0.00245241,-0.0929157,-0.0191531,0.0213068,-0.0166092,0.0355653,0.0101966,0.252537,5,0.1,27,1.7,-1.58897,4.59454,0.666457,0.261575,-0.183378,-0.021912,0.370398,-0.37688,-0.0235289,0.0213871,2.14894,5,0.1,28,1.7,-3.70901,-5.0749,0.725644,-0.219712,-0.360022,0.0269708,-0.071615,0.116497,-0.00873581,0.00851614,0.179733,5,0.1,29,1.7,-1.17516,4.6862,1.04705,-0.0240816,-0.771669,0.293664,0.0176802,0.304312,-0.215098,0.034384,0.449962,5,0.1,30,1.7,0.503806,2.32119,0.690633,0.592533,0.396927,0.00672592,-0.029996,0.280619,-0.110317,0.0114042,0.728286,5,0.1,31,1.7,-4.92681,-2.89841,0.682583,-0.27662,0.432378,-0.0152891,0.13873,-0.0458211,-0.014361,0.00942561,0.20562,5,0.1,32,1.7,5.29113,0.757592,0.523898,0.0295825,-0.308729,-0.0667364,-0.13724,1.18908,0.0748821,0.00827692,2.02975,5,0.1,33,1.7,-2.28476,-2.84997,0.602224,0.332081,0.446374,-0.00219755,-0.265628,-0.356972,0.00177324,0.00907562,0.130521,5,0.1,34,1.7,-3.16116,-0.492496,0.616764,0.276479,0.0409538,-0.0161547,-0.787184,-0.0328161,0.012964,0.0166998,2.40992,5,0.1,35,1.7,1.06425,1.99323,0.558121,-0.274507,-0.143105,-0.0335692,1.17447,1.2342,-0.16528,0.00821114,0.618611,5,0.1,36,1.7,3.39937,-3.36412,0.56884,-0.695812,0.628023,0.0183457,-1.09969,-0.243783,-0.000257045,0.0234111,2.2359,5,0.1,37,1.7,0.018614,-0.666802,0.636307,-0.0448268,0.866026,-0.00964561,0.00232119,-3.72529e-06,0.000502914,0.0326653,2.27057,5,0.1,38,1.7,1.32214,4.79068,1.08801,0.0276195,-0.4663,0.25989,-0.0221208,0.223368,-0.207871,0.0124142,0.196734,5,0.1,39,1.7,-0.578999,-0.14436,0.769647,-0.0412572,0.018818,0.0905569,-0.223301,-0.744017,-0.395287,0.00979168,0.448852,5,0.1
0,1.8,-3.32325,4.97487,0.569746,0.314343,-0.372839,-0.0162438,-0.297546,0.352621,0.0153482,0.00997792,0.135031,5,0.1,1,1.8,-0.574069,0.0825227,0.805339,-0.191651,-0.0588771,0.188892,-0.256956,-0.222638,0.209004,0.0104781,0.211561,5,0.1,2,1.8,-1.69942,1.69248,1.10414,0.152576,-0.296497,0.247338,-0.0388622,0.175118,-0.234067,0.0151428,0.13757,5,0.1,3,1.8,1.8201,-2.69698,0.752571,-0.0953406,0.336939,0.0821605,0.830472,-0.204921,0.22915,0.00931962,0.220483,5,0.1,4,1.8,2.00881,-1.11678,0.609963,-0.0585496,-0.86447,-0.00991225,0.0532866,0.0311136,0.00908971,0.00993663,0.727429,5,0.1,5,1.8,-3.18983,4.3845,0.661598,-0.385779,0.126696,0.00827461,0.141501,-0.12207,-0.00560284,0.0109855,0.0900364,5,0.1,6,1.8,1.63595,4.36211,1.07407,0.0168115,-0.178599,0.163934,-0.00822544,0.197887,-0.433803,0.0261622,0.166587,5,0.1,7,1.8,-1.61716,4.32901,1.10009,-0.0646651,-0.273478,0.246161,0.184894,-0.20051,-0.214934,0.019213,0.501221,5,0.1,8,1.8,4.73092,0.650867,0.596402,-0.409818,-0.200045,-0.00349879,0.55337,-0.357389,0.0206232,0.0130058,0.54685,5,0.1,9,1.8,-0.686664,1.98581,0.617006,-0.409828,-0.207496,0.0573695,0.240356,0.196338,-0.0542998,0.00910058,0.11735,5,0.1,10,1.8,-3.03655,4.04239,0.636877,0.4884,-0.249743,-0.0192404,0.154138,0.311613,0.0107884,0.0340935,2.7004,5,0.1,11,1.8,-0.444262,-0.330759,0.642238,-0.59646,-0.21892,-0.0393748,-0.139503,0.227466,0.0556707,0.012112,0.748367,5,0.1,12,1.8,-2.64473,-3.4801,0.613528,0.637203,-0.271404,-0.0136063,-0.477195,0.256538,0.0128746,0.0107274,0.258387,5,0.1,13,1.8,-4.46863,-2.67127,0.529905,0.32413,0.277752,-0.0987306,1.22428,-0.328183,0.16728,0.0220619,2.76955,5,0.1,14,1.8,4.42708,0.429923,0.586407,-0.264168,-0.279712,0.00842661,-0.0298023,0.279978,-0.049144,0.00625049,0.217962,5,0.1,15,1.8,0.226527,-2.34855,0.606049,-0.529699,0.129139,-0.00608116,0.501312,0.0215769,0.00575185,0.0114474,0.124299,5,0.1,16,1.8,1.73947,-2.97167,0.552446,0.522548,0.128049,-0.0617877,-0.280321,0.019908,0.017494,0.0125907,2.89705,5,0.1,17,1.8,2.16317,-2.87611,0.670025,0.0331938,0.591689,-0.0117704,-0.0755787,-0.180006,0.020504,0.0122634,0.242943,5,0.1,18,1.8,4.27525,-5.04983,0.587347,-0.290322,0.139809,0.000797212,-0.451565,-0.107288,-0.0406802,0.00933197,3.35857,5,0.1,19,1.8,1.30257,-2.54695,0.594629,-0.304762,0.262845,0.0102863,0.21404,-0.0965595,-0.00360608,0.0218472,0.126298,5,0.1,20,1.8,-5.44508,-1.36932,0.688484,0.0140548,-0.299519,0.00424534,-0.0133514,0.284553,-0.00405312,0.0086831,0.0101221,5,0.1,21,1.8,2.33659,-5.84309,0.732653,-0.866026,-0.00690222,0.0172555,0,0.00667572,-0.0165105,0.0189631,1.76229,5,0.1,22,1.8,-3.56073,1.64466,1.08221,0.187618,-0.221735,0.269389,-0.0408888,0.0730753,-0.255048,0.0245733,0.152586,5,0.1,23,1.8,-1.76435,5.09136,0.549771,-0.64216,0.510418,0.0630572,0.119388,-0.385523,0.0670552,0.0110407,0.39878,5,0.1,24,1.8,0.926548,1.78943,0.642447,0.281529,-0.0729442,0.00527799,-0.161171,0.0253916,-0.0012815,0.0114742,0.0337223,5,0.1,25,1.8,0.635846,-4.3,0.603998,0.114839,0.423992,-0.00401735,-0.108689,-0.663996,0.00378489,0.00980253,0.182721,5,0.1,26,1.8,-0.399561,0.238801,0.601699,0.00290722,-0.0935644,-0.0155613,-0.00862777,0.00724196,0.0358522,0.00849446,0.503723,5,0.1,27,1.8,-1.56063,4.57422,0.664047,0.307158,-0.223172,-0.027056,0.489771,-0.388145,-0.0701547,0.0213416,1.78819,5,0.1,28,1.8,-3.73142,-5.11026,0.728293,-0.228643,-0.346291,0.0259414,-0.0866652,0.169277,-0.0126958,0.0120634,0.107274,5,0.1,29,1.8,-1.17748,4.61071,1.07532,-0.0222325,-0.736177,0.271165,0.0197887,0.425339,-0.240862,0.0318359,0.305266,5,0.1,30,1.8,0.562765,2.36211,0.690777,0.584646,0.419289,-0.0035584,-0.148922,0.146508,-0.0931919,0.0117942,0.521604,5,0.1,31,1.8,-4.95373,-2.85554,0.680993,-0.261045,0.423282,-0.0163779,0.178814,-0.148058,-0.00688434,0.0102677,0.139498,5,0.1,32,1.8,5.29343,0.732065,0.517636,0.0166178,-0.208583,-0.0581801,-0.120401,0.786871,0.0944734,0.00786059,1.8892,5,0.1,33,1.8,-2.2529,-2.80715,0.602013,0.304711,0.409597,-0.00201613,-0.288367,-0.387669,0.00193715,0.00929232,0.147775,5,0.1,34,1.8,-3.13703,-0.488566,0.615214,0.210899,0.0376038,-0.0148326,-0.495315,-0.0350773,0.0138581,0.0168285,1.82222,5,0.1,35,1.8,1.04285,1.98491,0.553939,-0.152597,-0.0257462,-0.0498742,1.22094,1.08653,-0.152707,0.00811531,0.359532,5,0.1,36,1.8,3.32473,-3.30257,0.570669,-0.791377,0.601947,0.0181824,-0.763059,-0.300169,-0.00375509,0.0226933,2.11981,5,0.1,37,1.8,0.01415,-0.5802,0.635346,-0.0443343,0.866026,-0.00953823,0.00939749,0,0.00199676,0.0228478,2.27062,5,0.1,38,1.8,1.32479,4.74521,1.11294,0.0253439,-0.44241,0.238472,-0.0240207,0.268221,-0.225663,0.0112882,0.247454,5,0.1,39,1.8,-0.584139,-0.145831,0.77692,-0.0604153,-0.0445168,0.0567392,-0.156462,-0.521034,-0.284702,0.00796021,0.367541,5,0.1
0,1.9,-3.29308,4.93908,0.568186,0.290968,-0.345138,-0.0150381,-0.187948,0.222743,0.00970066,0.00997792,0.135031,5,0.1,1,1.9,-0.594482,0.0753552,0.825365,-0.215871,-0.085631,0.212016,-0.214212,-0.292628,0.233654,0.0104781,0.211561,5,0.1,2,1.9,-1.68425,1.66349,1.12788,0.151839,-0.285055,0.22895,0.0118241,0.0742599,-0.147887,0.0151428,0.13757,5,0.1,3,1.9,1.81445,-2.66404,0.762129,-0.0204263,0.323694,0.110369,0.663064,-0.0839084,0.31222,0.00931962,0.220483,5,0.1,4,1.9,2.00321,-1.20316,0.609015,-0.053601,-0.86304,-0.00906922,0.0472963,0.0367314,0.00804663,0.00993663,0.727429,5,0.1,5,1.9,-3.22782,4.39658,0.6624,-0.374968,0.115272,0.00777533,0.094071,-0.109583,-0.00469014,0.0109855,0.0900364,5,0.1,6,1.9,1.6376,4.34535,1.08843,0.0161393,-0.155429,0.125851,-0.00602752,0.259846,-0.287794,0.0261622,0.166587,5,0.1,7,1.9,-1.62277,4.30029,1.12369,-0.0483502,-0.303562,0.226148,0.143021,-0.360906,-0.192083,0.019213,0.501221,5,0.1,8,1.9,4.69254,0.628929,0.596151,-0.359109,-0.239436,-0.00157217,0.470519,-0.402354,0.0176914,0.0130058,0.54685,5,0.1,9,1.9,-0.726547,1.96599,0.622486,-0.388445,-0.189305,0.0523391,0.202764,0.173129,-0.0478663,0.00910058,0.11735,5,0.1,10,1.9,-2.98568,4.01902,0.635,0.538784,-0.217499,-0.0183254,0.750244,0.331387,0.0083372,0.0340935,2.7004,5,0.1,11,1.9,-0.504873,-0.351373,0.638604,-0.617284,-0.192146,-0.0330839,-0.232017,0.300981,0.0684112,0.012112,0.748367,5,0.1,12,1.9,-2.58326,-3.50618,0.612229,0.593033,-0.25208,-0.0124136,-0.425622,0.147209,0.0113472,0.0107274,0.258387,5,0.1,13,1.9,-4.42938,-2.64523,0.520939,0.465602,0.242389,-0.080036,1.50976,-0.37457,0.201024,0.0220619,2.76955,5,0.1,14,1.9,4.40084,0.403107,0.587003,-0.257628,-0.258583,0.00350196,0.151873,0.160798,-0.048086,0.00625049,0.217962,5,0.1,15,1.9,0.175959,-2.33548,0.605468,-0.482385,0.13267,-0.00554835,0.457222,0.0398308,0.00507012,0.0114474,0.124299,5,0.1,16,1.9,1.79087,-2.95882,0.546365,0.509766,0.128396,-0.0597049,-0.0222549,-0.0153482,0.0254624,0.0125907,2.89705,5,0.1,17,1.9,2.16612,-2.81777,0.668946,0.0259284,0.575113,-0.00986243,-0.0693351,-0.173852,0.0178106,0.0122634,0.242943,5,0.1,18,1.9,4.24385,-5.03671,0.587223,-0.337849,0.121226,-0.00325134,-0.466913,-0.198752,-0.0390522,0.00933197,3.35857,5,0.1,19,1.9,1.27282,-2.52129,0.595633,-0.293053,0.248949,0.00973577,0.0478625,-0.179946,-0.00730529,0.0218472,0.126298,5,0.1,20,1.9,-5.44374,-1.39786,0.688888,0.0127286,-0.271258,0.00384357,-0.013411,0.285596,-0.00405312,0.0086831,0.0101221,5,0.1,21,1.9,2.25076,-5.84374,0.7343,-0.84327,-0.00628754,0.0157342,0.439748,0.00581145,-0.0143982,0.0189631,1.76229,5,0.1,22,1.9,-3.54201,1.62267,1.10807,0.188057,-0.219443,0.249353,0.032872,-0.00891089,-0.161119,0.0245733,0.152586,5,0.1,23,1.9,-1.82799,5.14056,0.556392,-0.630358,0.474199,0.0690848,0.140235,-0.353187,0.0501797,0.0110407,0.39878,5,0.1,24,1.9,0.953962,1.78247,0.642944,0.26712,-0.0645772,0.00445368,-0.138078,0.130922,-0.0137947,0.0114742,0.0337223,5,0.1,25,1.9,0.646973,-4.26049,0.603614,0.109214,0.369991,-0.00366671,-0.0168011,-0.440061,0.00334159,0.00980253,0.182721,5,0.1,26,1.9,-0.399306,0.229486,0.600319,0.00224276,-0.0926201,-0.0120594,-0.00549294,0.0149077,0.0338666,0.00849446,0.503723,5,0.1,27,1.9,-1.5271,4.54991,0.660798,0.365911,-0.262883,-0.0394437,0.634827,-0.382155,-0.162255,0.0213416,1.78819,5,0.1,28,1.9,-3.75481,-5.14407,0.730825,-0.239688,-0.329823,0.0247067,-0.116318,0.17038,-0.0127703,0.0120634,0.107274,5,0.1,29,1.9,-1.17961,4.53909,1.10129,-0.0203939,-0.696761,0.24878,0.0175908,0.387281,-0.214323,0.0318359,0.305266,5,0.1,30,1.9,0.620574,2.4048,0.689967,0.57181,0.434083,-0.012468,-0.132244,0.1266,-0.082761,0.0117942,0.521604,5,0.1,31,1.9,-4.97898,-2.81392,0.679323,-0.244302,0.409185,-0.0169793,0.163853,-0.148579,-0.00442564,0.0102677,0.139498,5,0.1,32,1.9,5.29451,0.714514,0.512316,0.00516251,-0.150504,-0.0480019,-0.106782,0.311676,0.106853,0.00786059,1.8892,5,0.1,33,1.9,-2.22365,-2.76783,0.60182,0.282056,0.379141,-0.00186441,-0.182196,-0.244915,0.00121072,0.00929232,0.147775,5,0.1,34,1.9,-3.11795,-0.484971,0.613796,0.177091,0.034382,-0.01356,-0.120342,-0.0304524,0.0120215,0.0168285,1.82222,5,0.1,35,1.9,1.03346,1.9877,0.548189,-0.0381753,0.0800446,-0.0649236,1.05146,1.00145,-0.141606,0.00811531,0.359532,5,0.1,36,1.9,3.24242,-3.24362,0.572475,-0.848287,0.578876,0.0179628,-0.369102,-0.192448,-0.00162423,0.0226933,2.11981,5,0.1,37,1.9,0.00974549,-0.493597,0.634398,-0.0438681,0.866026,-0.00944044,0.00254882,-3.57628e-06,0.000528991,0.0228478,2.27062,5,0.1,38,1.9,1.32721,4.70204,1.13572,0.0231193,-0.423004,0.217565,-0.0211522,0.146389,-0.19896,0.0112882,0.247454,5,0.1,39,1.9,-0.590506,-0.152723,0.781285,-0.0629189,-0.0915515,0.0316864,0.0849031,-0.414169,-0.217527,0.00796021,0.367541,5,0.1
0,2,-3.26486,4.90561,0.566728,0.273627,-0.324583,-0.0141412,-0.172138,0.204086,0.00885129,0.0107451,0.0778433,5,0.1,1,2,-0.616981,0.0653474,0.847642,-0.232288,-0.113961,0.232232,-0.105262,-0.259359,0.156552,0.00864863,0.177725,5,0.1,2,2,-1.669,1.63532,1.15009,0.152817,-0.278091,0.215301,-0.0012517,0.080049,-0.135362,0.0100552,0.0890712,5,0.1,3,2,1.81542,-2.63206,0.77471,0.0365734,0.316012,0.140642,0.474691,-0.0872612,0.276446,0.0105837,0.444113,5,0.1,4,2,1.99808,-1.28901,0.608148,-0.0488222,-0.850525,-0.00825822,0.0494123,0.240207,0.00837445,0.0109879,0.502729,5,0.1,5,2,-3.2648,4.40756,0.663154,-0.363678,0.104237,0.00728369,0.145435,-0.113249,-0.00533462,0.014531,0.0702303,5,0.1,6,2,1.63918,4.33117,1.1,0.0154644,-0.127685,0.109553,-0.00798702,0.289679,-0.046432,0.0293232,0.190502,5,0.1,7,2,-1.62695,4.26813,1.14533,-0.0357658,-0.33865,0.206608,0.11009,-0.311613,-0.20349,0.0190442,0.136198,5,0.1,8,2,4.65891,0.603089,0.596076,-0.314033,-0.275692,5.96046e-06,0.437975,-0.302643,0.0136793,0.015765,0.444763,5,0.1,9,2,-0.764336,1.94792,0.627481,-0.366656,-0.171918,0.0475317,0.243723,0.178576,-0.0493228,0.00972418,0.138998,5,0.1,10,2,-2.92777,3.99894,0.633211,0.620335,-0.183851,-0.0174314,0.802994,0.339866,0.010103,0.034799,2.4424,5,0.1,11,2,-0.567612,-0.36901,0.635647,-0.635168,-0.160021,-0.026007,-0.0936389,0.335559,0.0717044,0.00930604,0.551139,5,0.1,12,2,-2.52613,-3.53072,0.611044,0.54881,-0.238961,-0.0112742,-0.472426,0.127912,0.0117123,0.0092072,0.179561,5,0.1,13,2,-4.37545,-2.62291,0.513958,0.609517,0.203687,-0.0595272,1.29867,-0.395417,0.204742,0.0173074,2.43491,5,0.1,14,2,4.37607,0.377978,0.587123,-0.235474,-0.244382,-0.000974536,0.282764,0.136718,-0.0405014,0.00698184,0.271436,5,0.1,15,2,0.130015,-2.32204,0.604938,-0.436194,0.135535,-0.00503808,0.474964,0.010848,0.0051856,0.0109922,0.171192,5,0.1,16,2,1.84185,-2.94613,0.540543,0.509927,0.124609,-0.0564873,-0.00929832,-0.0613928,0.0396967,0.0111174,2.79023,5,0.1,17,2,2.16838,-2.76127,0.668045,0.0193894,0.553167,-0.00818223,-0.0610352,-0.280261,0.0159144,0.0106762,0.165019,5,0.1,18,2,4.20792,-5.02533,0.586713,-0.378227,0.109613,-0.00680238,-0.31805,-0.00333786,-0.0311434,0.0110543,3.19438,5,0.1,19,2,1.24367,-2.49742,0.596565,-0.290349,0.227201,0.00884831,0.0268817,-0.252843,-0.0103414,0.0212201,0.121141,5,0.1,20,2,-5.44253,-1.42353,0.689252,0.0113368,-0.241637,0.00342429,-0.0145435,0.309587,-0.00441074,0.00918985,0.00298985,5,0.1,21,2,2.16925,-5.84434,0.735802,-0.781155,-0.00571012,0.0142932,0.78702,0.00596046,-0.0147521,0.0177907,1.66626,5,0.1,22,2,-3.52303,1.60066,1.13225,0.191277,-0.220349,0.234485,0.0193119,0.00423193,-0.147462,0.0221579,0.105554,5,0.1,23,2,-1.89013,5.18617,0.563501,-0.610185,0.437367,0.0725463,0.279069,-0.392675,0.0168979,0.0100326,0.266692,5,0.1,24,2,0.979948,1.77676,0.64331,0.252053,-0.0487357,0.00277013,-0.170797,0.177145,-0.0187457,0.00901312,0.444677,5,0.1,25,2,0.657874,-4.22548,0.603264,0.109194,0.331748,-0.00333041,0.00655651,-0.343323,0.00342727,0.00943139,0.136915,5,0.1,26,2,-0.39911,0.220333,0.599277,0.00167415,-0.0900432,-0.00884086,-0.0063926,0.0387505,0.0301898,0.0131588,0.419894,5,0.1,27,2,-1.48743,4.52189,0.655995,0.425392,-0.295532,-0.0568077,0.518024,-0.254393,-0.17336,0.0237548,1.43022,5,0.1,28,2,-3.77929,-5.17613,0.733227,-0.248855,-0.310504,0.0232592,-0.054121,0.222921,-0.0167191,0.00851127,0.0727143,5,0.1,29,2,-1.18156,4.47145,1.12509,-0.0186086,-0.654626,0.227043,0.0184774,0.47183,-0.225604,0.0305246,0.205308,5,0.1,30,2,0.676958,2.44865,0.688339,0.554076,0.440788,-0.0197336,-0.239223,-0.00798702,-0.0610352,0.0104464,0.362025,5,0.1,31,2,-5.00256,-2.77384,0.677612,-0.226963,0.391114,-0.0171453,0.187874,-0.222683,0.00163913,0.00944749,0.159855,5,0.1,32,2,5.29452,0.7,0.508055,-0.00442266,-0.149463,-0.0372112,-0.0839233,-0.259995,0.107169,0.00967954,1.62295,5,0.1,33,2,-2.1963,-2.73106,0.601639,0.265247,0.356543,-0.00175387,-0.166893,-0.224352,0.00110269,0.00939905,0.116957,5,0.1,34,2,-3.1,-0.481684,0.6125,0.18999,0.0313282,-0.0123546,0.349522,-0.0313967,0.012368,0.0169379,1.93016,5,0.1,35,2,1.03451,2.00038,0.541052,0.0550538,0.169832,-0.0770703,0.802696,0.775099,-0.0966787,0.0111497,1.72412,5,0.1,36,2,3.1564,-3.18673,0.57426,-0.866026,0.558114,0.0176862,0,-0.244856,-0.00455976,0.0217125,1.67975,5,0.1,37,2,0.00537771,-0.406995,0.633458,-0.0433762,0.866025,-0.00933707,0.00915185,1.43051e-05,0.00196695,0.0228582,2.27067,5,0.1,38,2,1.32941,4.66045,1.15648,0.0209957,-0.408554,0.197583,-0.0218153,0.161886,-0.205219,0.0116829,0.180403,5,0.1,39,2,-0.596122,-0.163734,0.783469,-0.0473201,-0.126422,0.0130057,0.209659,-0.279441,-0.157267,0.0103022,0.286623,5,0.1
0,2.1,-3.23826,4.87406,0.565353,0.258997,-0.307237,-0.0133884,-0.132307,0.156939,0.00682101,0.0107451,0.0778433,5,0.1,1,2.1,-0.640772,0.0526797,0.87172,-0.243504,-0.13886,0.249583,-0.104167,-0.227644,0.17168,0.00864863,0.177725,5,0.1,2,2.1,-1.6537,1.6081,1.17101,0.153348,-0.26468,0.203794,0.00392646,0.185475,-0.104092,0.0100552,0.0890712,5,0.1,3,2.1,1.82016,-2.60111,0.789927,0.0471959,0.30092,0.161411,-0.196777,-0.210986,0.139333,0.0105837,0.444113,5,0.1,4,2.1,1.99343,-1.37294,0.607362,-0.0442762,-0.828169,-0.00748849,0.0428557,0.238806,0.00724569,0.0109879,0.502729,5,0.1,5,2.1,-3.30058,4.41746,0.663858,-0.352902,0.0940226,0.00682613,0.0900924,-0.094384,-0.00413135,0.014531,0.0702303,5,0.1,6,2.1,1.64069,4.31988,1.11102,0.0145843,-0.0980034,0.113229,-0.00982732,0.297725,0.0981614,0.0293232,0.190502,5,0.1,7,2.1,-1.63003,4.2329,1.16503,-0.0262719,-0.363976,0.187846,0.0811219,-0.183523,-0.177428,0.0190442,0.136198,5,0.1,8,2.1,4.62963,0.574044,0.596143,-0.272026,-0.30437,0.0013005,0.405282,-0.253048,0.0119284,0.015765,0.444763,5,0.1,9,2.1,-0.800089,1.93149,0.632024,-0.350757,-0.157784,0.0436292,0.100948,0.113949,-0.0314601,0.00972418,0.138998,5,0.1,10,2.1,-2.86121,3.9822,0.631512,0.713922,-0.151398,-0.0165999,0.986382,0.309393,0.00733882,0.034799,2.4424,5,0.1,11,2.1,-0.631712,-0.38332,0.633406,-0.647077,-0.126147,-0.018834,-0.10905,0.337167,0.0705384,0.00930604,0.551139,5,0.1,12,2.1,-2.47347,-3.5541,0.609972,0.505285,-0.229627,-0.0101991,-0.414282,0.0724047,0.010103,0.0092072,0.179561,5,0.1,13,2.1,-4.3082,-2.60448,0.508943,0.732156,0.165341,-0.0415815,1.10051,-0.370011,0.15571,0.0173074,2.43491,5,0.1,14,2.1,4.35411,0.353995,0.586834,-0.202345,-0.237062,-0.00467915,0.371188,0.0298731,-0.0330061,0.00698184,0.271436,5,0.1,15,2.1,0.0890476,-2.30829,0.604456,-0.381162,0.140723,-0.00462774,0.595889,0.0775754,0.00330806,0.0109922,0.171192,5,0.1,16,2.1,1.89367,-2.93369,0.535136,0.53329,0.126312,-0.0512647,0.401355,0.0747293,0.0630766,0.0111174,2.79023,5,0.1,17,2.1,2.17003,-2.70728,0.667302,0.0137035,0.526964,-0.00672964,-0.052467,-0.262171,0.0132807,0.0106762,0.165019,5,0.1,18,2.1,4.16848,-5.01415,0.585881,-0.410244,0.11887,-0.00977805,-0.295579,0.281572,-0.0273921,0.0110543,3.19438,5,0.1,19,2.1,1.21465,-2.47597,0.597396,-0.290668,0.20169,0.00775727,-0.0150055,-0.258476,-0.0113957,0.0212201,0.121141,5,0.1,20,2.1,-5.44147,-1.44615,0.689572,0.00989065,-0.210837,0.00298629,-0.0144541,0.307463,-0.00436231,0.00918985,0.00298985,5,0.1,21,2.1,2.09586,-5.84489,0.737162,-0.679958,-0.00516474,0.0129435,1.18124,0.005126,-0.0126511,0.0177907,1.66626,5,0.1,22,2.1,-3.50376,1.57893,1.15504,0.194147,-0.211754,0.221951,0.0272095,0.158854,-0.113368,0.0221579,0.105554,5,0.1,23,2.1,-1.94981,5.22805,0.570829,-0.583484,0.400902,0.0738218,0.27439,-0.348628,0.00591949,0.0100326,0.266692,5,0.1,24,2.1,1.00376,1.7719,0.64388,0.219605,-0.055897,0.0118752,-0.448972,-0.268377,0.176761,0.00901312,0.444677,5,0.1,25,2.1,0.668913,-4.19376,0.602947,0.112209,0.304671,-0.00301544,0.0436753,-0.217229,0.00296533,0.00943139,0.136915,5,0.1,26,2.1,-0.3989,0.211553,0.598536,0.00301949,-0.085229,-0.00606999,0.02365,0.058,0.0251755,0.0131588,0.419894,5,0.1,27,2.1,-1.44191,4.49087,0.649599,0.487493,-0.32573,-0.0696487,0.666454,-0.318348,-0.0854693,0.0237548,1.43022,5,0.1,28,2.1,-3.80411,-5.20608,0.73547,-0.244416,-0.28839,0.0216015,0.133455,0.225753,-0.0169203,0.00851127,0.0727143,5,0.1,29,2.1,-1.18333,4.40821,1.14673,-0.0169072,-0.610924,0.20627,0.0160635,0.422359,-0.196144,0.0305246,0.205308,5,0.1,30,2.1,0.731251,2.49271,0.686075,0.532074,0.439963,-0.0253532,-0.220768,-0.0268221,-0.0496358,0.0104464,0.362025,5,0.1,31,2.1,-5.02449,-2.73557,0.675895,-0.212762,0.376381,-0.0172679,0.109971,-0.0982732,-0.00277534,0.00944749,0.159855,5,0.1,32,2.1,5.29368,0.682649,0.504858,-0.012143,-0.206451,-0.0268814,-0.0690818,-0.796206,0.0981055,0.00967954,1.62295,5,0.1,33,2.1,-2.17062,-2.69639,0.601469,0.248082,0.337914,-0.00164071,-0.181153,-0.164509,0.00118837,0.00939905,0.116957,5,0.1,34,2.1,-3.07812,-0.478699,0.611322,0.256718,0.0284602,-0.0112247,0.895143,-0.026878,0.0105873,0.0169379,1.93016,5,0.1,35,2.1,1.04246,2.01978,0.533089,0.0900324,0.204992,-0.0801391,-0.0306666,-0.00993907,0.0270046,0.0111497,1.72412,5,0.1,36,2.1,3.0698,-3.13196,0.57601,-0.865836,0.538302,0.0173337,0.00758469,-0.177443,-0.00331923,0.0217125,1.67975,5,0.1,37,2.1,0.00106776,-0.320392,0.632531,-0.0429369,0.866025,-0.009243,0.00222738,-1.78814e-06,0.000476837,0.0228582,2.27067,5,0.1,38,2.1,1.33141,4.62025,1.17528,0.0189938,-0.396438,0.178742,-0.0188053,0.101507,-0.177063,0.0116829,0.180403,5,0.1,39,2.1,-0.599803,-0.178206,0.783835,-0.0263829,-0.166264,-0.00683293,0.204347,-0.476286,-0.225745,0.0103022,0.286623,5,0.1
0,2.2,-3.21304,4.84414,0.564049,0.245136,-0.290799,-0.0126734,-0.153065,0.181913,0.00792742,0.0113124,0.0600465,5,0.1,1,2.2,-0.665541,0.0377815,0.897436,-0.250608,-0.157649,0.263369,-0.0276268,-0.140713,0.0908077,0.0108929,0.515227,5,0.1,2,2.2,-1.63839,1.58271,1.19086,0.152257,-0.241587,0.19289,-0.0311732,0.273287,-0.120461,0.0114183,0.219102,5,0.1,3,2.2,1.82324,-2.57225,0.806542,0.00896752,0.274575,0.168703,-0.515699,-0.311852,0.00804663,0.00989027,0.304133,5,0.1,4,2.2,1.98922,-1.45436,0.606649,-0.0400215,-0.797424,-0.00676811,0.0431538,0.397682,0.00727177,0.0109358,0.340557,5,0.1,5,2.2,-3.33538,4.4264,0.66452,-0.342262,0.0847697,0.00640303,0.136852,-0.0927448,-0.00455976,0.00914389,0.0321043,5,0.1,6,2.2,1.64209,4.31154,1.12292,0.0134647,-0.0692248,0.125358,-0.0126958,0.273228,0.127792,0.0256805,0.168661,5,0.1,7,2.2,-1.63229,4.19587,1.18294,-0.0193,-0.373554,0.170156,0.059545,-0.00143051,-0.180364,0.0208528,0.140655,5,0.1,8,2.2,4.60442,0.542543,0.596328,-0.232458,-0.323313,0.00234693,0.387907,-0.113904,0.00876188,0.0129399,0.531382,5,0.1,9,2.2,-0.834716,1.91624,0.636241,-0.341837,-0.147414,0.0407666,0.0970662,0.100791,-0.0278354,0.00944661,0.0825072,5,0.1,10,2.2,-2.78513,3.96856,0.629889,0.80353,-0.121939,-0.0158265,0.747085,0.280023,0.00873208,0.0304144,2.31158,5,0.1,11,2.2,-0.696753,-0.394279,0.631865,-0.650972,-0.0934318,-0.0121117,0.0557303,0.313476,0.0630021,0.00930114,0.391738,5,0.1,12,2.2,-2.42503,-3.5767,0.609002,0.463212,-0.222129,-0.00919998,-0.438452,0.0872612,0.0100732,0.0102926,0.124118,5,0.1,13,2.2,-4.23015,-2.58974,0.505493,0.82128,0.12995,-0.0280932,0.652552,-0.336647,0.115395,0.0183081,1.50072,5,0.1,14,2.2,4.33581,0.330398,0.586218,-0.162864,-0.2349,-0.00748038,0.410795,0.0282973,-0.0226796,0.0059469,0.324425,5,0.1,15,2.2,0.0539217,-2.29382,0.604009,-0.321711,0.148398,-0.00432581,0.57597,0.0646114,0.00292063,0.0104511,0.127574,5,0.1,16,2.2,1.94917,-2.9206,0.530352,0.577053,0.135922,-0.0441864,0.417531,0.101566,0.0770092,0.0114538,2.68511,5,0.1,17,2.2,2.17115,-2.65598,0.666692,0.00892878,0.497645,-0.00550002,-0.0427961,-0.336528,0.0113547,0.00966361,0.110805,5,0.1,18,2.2,4.12619,-5,0.584779,-0.432837,0.172341,-0.0121146,-0.138044,0.75841,-0.0186861,0.00907124,2.86994,5,0.1,19,2.2,1.18556,-2.45711,0.598114,-0.290236,0.175357,0.00658631,0.0365973,-0.268579,-0.0119507,0.0181577,0.0884347,5,0.1,20,2.2,-5.44055,-1.46569,0.689849,0.00845194,-0.180018,0.00254959,-0.014782,0.309229,-0.00438094,0.009012,0.00117621,5,0.1,21,2.2,2.03405,-5.84538,0.738394,-0.554562,-0.00466108,0.0116929,1.28585,0.00500679,-0.0125766,0.0201366,1.58688,5,0.1,22,2.2,-3.48427,1.55874,1.17666,0.194871,-0.190252,0.21008,-0.0201464,0.263274,-0.131309,0.0219708,0.112375,5,0.1,23,2.2,-2.00667,5.26639,0.578205,-0.552052,0.365603,0.0732899,0.367045,-0.365734,-0.0182986,0.0113767,0.177162,5,0.1,24,2.2,1.02322,1.76459,0.64611,0.167519,-0.0931591,0.033842,-0.569344,-0.436366,0.243902,0.00719946,0.299237,5,0.1,25,2.2,0.680346,-4.1643,0.60266,0.11619,0.28497,-0.00272095,0.0286102,-0.190496,0.00295043,0.00955966,0.179018,5,0.1,26,2.2,-0.398492,0.203355,0.598046,0.00485405,-0.0783917,-0.00381172,0.00718236,0.0787899,0.0199974,0.00970531,0.86938,5,0.1,27,2.2,-1.38997,4.45682,0.642337,0.548756,-0.353825,-0.074321,0.51713,-0.221252,-0.0101626,0.020425,1.08496,5,0.1,28,2.2,-3.82764,-5.23374,0.737542,-0.223982,-0.264311,0.0197977,0.26679,0.259876,-0.0194907,0.0119184,0.191868,5,0.1,29,2.2,-1.18494,4.34929,1.16639,-0.0153095,-0.566745,0.186747,0.0163317,0.47493,-0.198722,0.0311795,0.137632,5,0.1,30,2.2,0.783252,2.53642,0.683322,0.506566,0.432372,-0.0293761,-0.302911,-0.137448,-0.0297129,0.00997129,0.245879,5,0.1,31,2.2,-5.04525,-2.69839,0.674156,-0.202572,0.366908,-0.0174731,0.104189,-0.110269,-0.000357628,0.00907413,0.0935979,5,0.1,32,2.2,5.29216,0.657705,0.502637,-0.0180125,-0.293975,-0.0178069,-0.0474453,-0.890553,0.082463,0.00840939,1.31325,5,0.1,33,2.2,-2.14677,-2.66343,0.601311,0.22825,0.320858,-0.00150949,-0.218511,-0.188231,0.00143051,0.00988113,0.153978,5,0.1,34,2.2,-3.04768,-0.475986,0.610252,0.353199,0.0257969,-0.0101745,0.966072,-0.0270456,0.0106394,0.0161084,0.955089,5,0.1,35,2.2,1.05042,2.03935,0.525357,0.0620008,0.179106,-0.073199,-0.471413,-0.456929,0.104755,0.0103782,1.41326,5,0.1,36,2.2,2.98331,-3.07908,0.577723,-0.862992,0.518185,0.0168815,0.0606775,-0.243187,-0.00628829,0.0202404,1.33071,5,0.1,37,2.2,-0.00320881,-0.233789,0.63161,-0.0424867,0.866025,-0.00914633,0.00862114,0,0.00184774,0.0231256,2.2962,5,0.1,38,2.2,1.33322,4.58115,1.19228,0.0171363,-0.384653,0.16124,-0.0188351,0.14925,-0.176787,0.0110096,0.142718,5,0.1,39,2.2,-0.60146,-0.19726,0.782003,-0.00726581,-0.214497,-0.0297278,0.174552,-0.457659,-0.221789,0.0178544,2.73125,5,0.1
0,2.3,-3.18918,4.81584,0.562816,0.232659,-0.275972,-0.0120269,-0.108749,0.129253,0.00564009,0.0113124,0.0600465,5,0.1,1,2.3,-0.689813,0.0219213,0.923776,-0.226769,-0.154179,0.259299,0.45675,0.18233,-0.157021,0.0108929,0.515227,5,0.1,2,2.3,-1.62338,1.5601,1.20952,0.147391,-0.208961,0.179887,-0.0676811,0.368841,-0.14174,0.0114183,0.219102,5,0.1,3,2.3,1.82111,-2.54641,0.823468,-0.0549048,0.241537,0.169772,-0.717819,-0.346333,0.00526384,0.00989027,0.304133,5,0.1,4,2.3,1.98542,-1.53221,0.606006,-0.0360811,-0.760073,-0.00610445,0.0367835,0.375554,0.00619888,0.0109358,0.340557,5,0.1,5,2.3,-3.36893,4.43443,0.665138,-0.328476,0.075981,0.00596251,0.14931,-0.0848174,-0.00441819,0.00914389,0.0321043,5,0.1,6,2.3,1.64337,4.30591,1.13618,0.0121789,-0.0441134,0.140328,-0.0131354,0.22608,0.157207,0.0256805,0.168661,5,0.1,7,2.3,-1.63396,4.15838,1.19919,-0.0146227,-0.376923,0.155914,0.0357553,-0.0427067,-0.114374,0.0208528,0.140655,5,0.1,8,2.3,4.58314,0.509607,0.596607,-0.192925,-0.335294,0.00324408,0.398397,-0.10707,0.00875071,0.0129399,0.531382,5,0.1,9,2.3,-0.868519,1.90195,0.640194,-0.334819,-0.138903,0.0384161,0.0607558,0.0759512,-0.0209734,0.00944661,0.0825072,5,0.1,10,2.3,-2.70187,3.95769,0.628344,0.854046,-0.0962693,-0.0151352,0.281945,0.234678,0.00588223,0.0304144,2.31158,5,0.1,11,2.3,-0.761638,-0.402096,0.63096,-0.646648,-0.0633939,-0.00610491,0.0592284,0.284037,0.0562631,0.00930114,0.391738,5,0.1,12,2.3,-2.38076,-3.59855,0.608129,0.423023,-0.215346,-0.0082816,-0.378862,0.0592768,0.00854954,0.0102926,0.124118,5,0.1,13,2.3,-4.14567,-2.57833,0.503204,0.860199,0.0991274,-0.0182177,0.172466,-0.280783,0.0832789,0.0183081,1.50072,5,0.1,14,2.3,4.32159,0.306917,0.585361,-0.121576,-0.235605,-0.00959169,0.40853,-0.0255648,-0.0188425,0.0059469,0.324425,5,0.1,15,2.3,0.0245714,-2.27863,0.603589,-0.266862,0.155525,-0.00407873,0.485755,0.0680089,0.0022091,0.0104511,0.127574,5,0.1,16,2.3,2.00864,-2.90568,0.526344,0.608752,0.169241,-0.0357884,0.20095,0.50433,0.0887848,0.0114538,2.68511,5,0.1,17,2.3,2.17185,-2.60781,0.666195,0.00504032,0.46628,-0.00448031,-0.0348389,-0.30601,0.00916794,0.00966361,0.110805,5,0.1,18,2.3,4.0822,-4.97784,0.583478,-0.446711,0.279719,-0.0138517,-0.116557,1.28737,-0.0152364,0.00907124,2.86994,5,0.1,19,2.3,1.15671,-2.44098,0.598713,-0.286755,0.146803,0.00541275,0.0446141,-0.297606,-0.0114627,0.0181577,0.0884347,5,0.1,20,2.3,-5.43978,-1.48217,0.690082,0.00701398,-0.149827,0.0021222,-0.0139475,0.29397,-0.0041537,0.009012,0.00117621,5,0.1,21,2.3,1.98515,-5.84582,0.739504,-0.423803,-0.00420585,0.0105486,1.26421,0.00420213,-0.0106506,0.0201366,1.58688,5,0.1,22,2.3,-3.46483,1.54116,1.1971,0.194276,-0.160342,0.199377,-0.00305474,0.327043,-0.0933036,0.0219708,0.112375,5,0.1,23,2.3,-2.06012,5.30123,0.58544,-0.517478,0.331949,0.0713338,0.340641,-0.317454,-0.0230484,0.0113767,0.177162,5,0.1,24,2.3,1.03718,1.75276,0.650672,0.112419,-0.145582,0.0568343,-0.525393,-0.574268,0.209607,0.00719946,0.299237,5,0.1,25,2.3,0.692276,-4.13637,0.602401,0.123662,0.276758,-0.00248738,0.104614,-0.00399351,0.00187755,0.00955966,0.179018,5,0.1,26,2.3,-0.397854,0.195912,0.597758,0.00817562,-0.0704289,-0.00202013,0.0259019,0.0810502,0.0158139,0.00970531,0.86938,5,0.1,27,2.3,-1.3324,4.42027,0.634927,0.602616,-0.376995,-0.0731913,0.515461,-0.217795,0.0314489,0.020425,1.08496,5,0.1,28,2.3,-3.84851,-5.25889,0.739426,-0.191821,-0.238833,0.0178874,0.365093,0.253677,-0.0190139,0.0119184,0.191868,5,0.1,29,2.3,-1.1864,4.29485,1.18413,-0.0138177,-0.522942,0.168587,0.01394,0.417978,-0.169776,0.0311795,0.137632,5,0.1,30,2.3,0.832481,2.579,0.680247,0.478447,0.41914,-0.0319746,-0.275925,-0.142172,-0.0208877,0.00997129,0.245879,5,0.1,31,2.3,-5.06505,-2.66216,0.672405,-0.19386,0.358132,-0.0175491,0.0791252,-0.0823885,-0.000312924,0.00907413,0.0935979,5,0.1,32,2.3,5.29014,0.623467,0.501236,-0.0222161,-0.393039,-0.0105416,-0.035584,-1.02738,0.062637,0.00840939,1.31325,5,0.1,33,2.3,-2.12493,-2.6323,0.601167,0.209502,0.301407,-0.0013872,-0.166044,-0.207156,0.00107661,0.00988113,0.153978,5,0.1,34,2.3,-3.00745,-0.473532,0.609285,0.450916,0.0233385,-0.00920715,0.939772,-0.0228882,0.00901148,0.0161084,0.955089,5,0.1,35,2.3,1.05358,2.05417,0.51867,-0.00435766,0.110681,-0.0596263,-0.800483,-0.853896,0.159532,0.0103782,1.41326,5,0.1,36,2.3,2.89782,-3.0284,0.579424,-0.841764,0.495873,0.0174976,0.364661,-0.221565,0.015337,0.0202404,1.33071,5,0.1,37,2.3,-0.00743221,-0.147345,0.630701,-0.0420938,0.861248,-0.0090627,0.00179651,-0.0980513,0.00037998,0.0231256,2.2962,5,0.1,38,2.3,1.33484,4.54369,1.20757,0.0154208,-0.362099,0.145127,-0.0159591,0.296324,-0.150055,0.0110096,0.142718,5,0.1,39,2.3,-0.6008,-0.219065,0.778032,0.0246598,-0.204812,-0.0485529,0.426482,0.551938,-0.153769,0.0178544,2.73125,5,0.1
0,2.4,-3.16647,4.7889,0.561642,0.221288,-0.262463,-0.0114366,-0.127196,0.151157,0.00658631,0.0107662,0.0270715,5,0.1,1,2.4,-0.709732,0.00775843,0.948616,-0.167845,-0.126225,0.234801,0.683546,0.354114,-0.319809,0.009953,0.674763,5,0.1,2,2.4,-1.60904,1.54114,1.22675,0.138506,-0.169709,0.164223,-0.110567,0.407636,-0.172615,0.00906022,0.418438,5,0.1,3,2.4,1.81199,-2.52403,0.840413,-0.12691,0.205821,0.168404,-0.689209,-0.365496,-0.0380874,0.0127058,0.250028,5,0.1,4,2.4,1.98199,-1.60621,0.605426,-0.0324696,-0.717917,-0.00549555,0.03618,0.485301,0.00607967,0.0114737,0.248755,5,0.1,5,2.4,-3.40094,4.44161,0.665711,-0.310683,0.0675082,0.00549108,0.213146,-0.0855923,-0.005126,0.00958641,0.0124122,5,0.1,6,2.4,1.64452,4.30254,1.15095,0.0108153,-0.0244141,0.154325,-0.0141263,0.166416,0.112355,0.00581217,0.462377,5,0.1,7,2.4,-1.63528,4.12056,1.21425,-0.0118375,-0.378132,0.145563,0.0214577,0.0343323,-0.100017,0.017519,0.232408,5,0.1,8,2.4,4.56583,0.475678,0.596973,-0.153565,-0.341585,0.00402331,0.385284,-0.00593066,0.00658631,0.0117576,0.638195,5,0.1,9,2.4,-0.90164,1.88844,0.64393,-0.32672,-0.131109,0.0362635,0.113457,0.084579,-0.023365,0.00809711,0.0644777,5,0.1,10,2.4,-2.61563,3.94917,0.62686,0.866026,-0.0747621,-0.0145137,0,0.196576,0.00712276,0.0313314,2.27144,5,0.1,11,2.4,-0.825811,-0.407086,0.630614,-0.634344,-0.0371732,-0.00100434,0.206232,0.238135,0.0451803,0.00967941,0.270394,5,0.1,12,2.4,-2.34035,-3.61976,0.607343,0.385135,-0.208414,-0.00744462,-0.388265,0.0869036,0.00837445,0.00880522,0.147491,5,0.1,13,2.4,-4.05922,-2.56974,0.501754,0.866032,0.0736058,-0.0112176,-0.000119209,-0.230432,0.0577867,0.0171882,2.27289,5,0.1,14,2.4,4.31143,0.283253,0.584318,-0.0823379,-0.237117,-0.0111327,0.370741,0.00742078,-0.0114441,0.0058314,0.373047,5,0.1,15,2.4,0,-2.26279,0.603193,-0.22771,0.160319,-0.00385195,0.301046,0.0208616,0.00247359,0.0111413,0.147004,5,0.1,16,2.4,2.07006,-2.88598,0.523213,0.614846,0.226122,-0.0268176,-0.087738,0.586867,0.0889599,0.0123399,2.70599,5,0.1,17,2.4,2.17219,-2.56277,0.66579,0.00198483,0.433874,-0.00364482,-0.0264645,-0.352383,0.0076592,0.00987264,0.127218,5,0.1,18,2.4,4.03713,-4.94324,0.582028,-0.452304,0.411963,-0.0150248,0.0202656,1.28078,-0.0077188,0.0107066,2.51573,5,0.1,19,2.4,1.12835,-2.4278,0.599198,-0.279376,0.11673,0.00430495,0.110686,-0.299811,-0.0106394,0.0201957,0.0992045,5,0.1,20,2.4,-5.43915,-1.49572,0.690274,0.00567436,-0.121346,0.00171959,-0.013113,0.274956,-0.0039041,0.00853689,0.000927042,5,0.1,21,2.4,1.94866,-5.84622,0.740507,-0.311458,-0.00377893,0.00950545,0.950336,0.0038147,-0.0104904,0.020089,1.47257,5,0.1,22,2.4,-3.44546,1.52681,1.21656,0.192344,-0.12629,0.189626,-0.0431538,0.347495,-0.109076,0.0213002,0.196208,5,0.1,23,2.4,-2.1101,5.33285,0.592435,-0.4812,0.300384,0.0683129,0.395656,-0.320673,-0.0388026,0.0103964,0.117622,5,0.1,24,2.4,1.04592,1.73536,0.657305,0.0636786,-0.201434,0.0747114,-0.444293,-0.514746,0.143677,0.00697931,0.268393,5,0.1,25,2.4,0.705181,-4.10861,0.602161,0.134294,0.278878,-0.00231862,0.0960231,0.0243187,0.00163913,0.0109339,0.112942,5,0.1,26,2.4,-0.397077,0.189281,0.597628,0.00526011,-0.062095,-0.000649691,-0.098601,0.0859126,0.0115931,0.00993253,1.4101,5,0.1,27,2.4,-1.26987,4.38165,0.627825,0.644279,-0.393248,-0.068298,0.286639,-0.0903606,0.0650585,0.0192491,0.784872,5,0.1,28,2.4,-3.86578,-5.28149,0.741119,-0.153023,-0.212932,0.0159472,0.401735,0.26679,-0.0199676,0.0100861,0.18613,5,0.1,29,2.4,-1.18771,4.24466,1.20015,-0.0124484,-0.480306,0.151891,0.0137687,0.44632,-0.167787,0.0331409,0.325012,5,0.1,30,2.4,0.878881,2.62009,0.676969,0.448614,0.401443,-0.0333294,-0.331968,-0.221848,-0.00533462,0.0106982,0.164925,5,0.1,31,2.4,-5.08402,-2.62683,0.670654,-0.185204,0.347531,-0.0173941,0.100374,-0.141382,0.00402331,0.00943532,0.0717445,5,0.1,32,2.4,5.28776,0.579228,0.500461,-0.0249386,-0.488518,-0.00528693,-0.0185966,-0.836223,0.0425577,0.0120529,1.01393,5,0.1,33,2.4,-2.10478,-2.60327,0.601033,0.193393,0.278401,-0.00128299,-0.16284,-0.256658,0.00107288,0.00934299,0.313663,5,0.1,34,2.4,-2.95803,-0.471311,0.608408,0.532895,0.0210889,-0.00832081,0.666022,-0.0226498,0.00891089,0.0193182,0.225473,5,0.1,35,2.4,1.04897,2.06071,0.513547,-0.088346,0.0185609,-0.0425756,-0.837028,-0.944018,0.175774,0.0108318,1.16579,5,0.1,36,2.4,2.81597,-2.98,0.581264,-0.790292,0.470757,0.01937,0.66185,-0.293255,0.0196993,0.0204285,1.25095,5,0.1,37,2.4,-0.0116267,-0.0619065,0.629798,-0.0416895,0.845359,-0.00897497,0.00810906,-0.227779,0.00169873,0.0212513,2.38613,5,0.1,38,2.4,1.33631,4.50917,1.22135,0.0138611,-0.326514,0.130442,-0.015676,0.409603,-0.146806,0.0138063,0.434521,5,0.1,39,2.4,-0.59604,-0.235798,0.772526,0.0714049,-0.121981,-0.0603735,0.479609,1.02539,-0.0825822,0.0197418,2.3548,5,0.1
