id,t,px,py,pz,vx,vy,vz,ax,ay,az,planning_time,qp_cost,planning_report,size,id,t,px,py,pz,vx,vy,vz,ax,ay,az,planning_time,qp_cost,planning_report,size,id,t,px,py,pz,vx,vy,vz,ax,ay,az,planning_time,qp_cost,planning_report,size,id,t,px,py,pz,vx,vy,vz,ax,ay,az,planning_time,qp_cost,planning_report,size,id,t,px,py,pz,vx,vy,vz,ax,ay,az,planning_time,qp_cost,planning_report,size,id,t,px,py,pz,vx,vy,vz,ax,ay,az,planning_time,qp_cost,planning_report,size,id,t,px,py,pz,vx,vy,vz,ax,ay,az,planning_time,qp_cost,planning_report,size,id,t,px,py,pz,vx,vy,vz,ax,ay,az,planning_time,qp_cost,planning_report,size,id,t,px,py,pz,vx,vy,vz,ax,ay,az,planning_time,qp_cost,planning_report,size,id,t,px,py,pz,vx,vy,vz,ax,ay,az,planning_time,qp_cost,planning_report,size,id,t,px,py,pz,vx,vy,vz,ax,ay,az,planning_time,qp_cost,planning_report,size,id,t,px,py,pz,vx,vy,vz,ax,ay,az,planning_time,qp_cost,planning_report,size,id,t,px,py,pz,vx,vy,vz,ax,ay,az,planning_time,qp_cost,planning_report,size,id,t,px,py,pz,vx,vy,vz,ax,ay,az,planning_time,qp_cost,planning_report,size,id,t,px,py,pz,vx,vy,vz,ax,ay,az,planning_time,qp_cost,planning_report,size,id,t,px,py,pz,vx,vy,vz,ax,ay,az,planning_time,qp_cost,planning_report,size,id,t,px,py,pz,vx,vy,vz,ax,ay,az,planning_time,qp_cost,planning_report,size,id,t,px,py,pz,vx,vy,vz,ax,ay,az,planning_time,qp_cost,planning_report,size,id,t,px,py,pz,vx,vy,vz,ax,ay,az,planning_time,qp_cost,planning_report,size,id,t,px,py,pz,vx,vy,vz,ax,ay,az,planning_time,qp_cost,planning_report,size,id,t,px,py,pz,vx,vy,vz,ax,ay,az,planning_time,qp_cost,planning_report,size,id,t,px,py,pz,vx,vy,vz,ax,ay,az,planning_time,qp_cost,planning_report,size,id,t,px,py,pz,vx,vy,vz,ax,ay,az,planning_time,qp_cost,planning_report,size,id,t,px,py,pz,vx,vy,vz,ax,ay,az,planning_time,qp_cost,planning_report,size,id,t,px,py,pz,vx,vy,vz,ax,ay,az,planning_time,qp_cost,planning_report,size,id,t,px,py,pz,vx,vy,vz,ax,ay,az,planning_time,qp_cost,planning_report,size,id,t,px,py,pz,vx,vy,vz,ax,ay,az,planning_time,qp_cost,planning_report,size,id,t,px,py,pz,vx,vy,vz,ax,ay,az,planning_time,qp_cost,planning_report,size,id,t,px,py,pz,vx,vy,vz,ax,ay,az,planning_time,qp_cost,planning_report,size,id,t,px,py,pz,vx,vy,vz,ax,ay,az,planning_time,qp_cost,planning_report,size,id,t,px,py,pz,vx,vy,vz,ax,ay,az,planning_time,qp_cost,planning_report,size,id,t,px,py,pz,vx,vy,vz,ax,ay,az,planning_time,qp_cost,planning_report,size,id,t,px,py,pz,vx,vy,vz,ax,ay,az,planning_time,qp_cost,planning_report,size,id,t,px,py,pz,vx,vy,vz,ax,ay,az,planning_time,qp_cost,planning_report,size,id,t,px,py,pz,vx,vy,vz,ax,ay,az,planning_time,qp_cost,planning_report,size,id,t,px,py,pz,vx,vy,vz,ax,ay,az,planning_time,qp_cost,planning_report,size,id,t,px,py,pz,vx,vy,vz,ax,ay,az,planning_time,qp_cost,planning_report,size,id,t,px,py,pz,vx,vy,vz,ax,ay,az,planning_time,qp_cost,planning_report,size,id,t,px,py,pz,vx,vy,vz,ax,ay,az,planning_time,qp_cost,planning_report,size,id,t,px,py,pz,vx,vy,vz,ax,ay,az,planning_time,qp_cost,planning_report,size
0,0,-1.82993,2.13633,0.549743,0,0,0,0,0,0,0.0564975,3.51219,5,0.1,1,0,3.99666,-5.44136,0.56353,0,0,0,0,0,0,0.0532872,0.428817,5,0.1,2,0,0.651164,-0.0221381,0.649053,0,0,0,0,0,0,0.0335109,3.5122,5,0.1,3,0,4.25367,-4.03856,0.588589,0,0,0,0,0,0,0.168256,3.5122,5,0.1,4,0,-3.21947,5.31784,0.606388,0,0,0,0,0,0,0.0255474,2.64812,5,0.1,5,0,-4.73086,-3.52855,0.685342,0,0,0,0,0,0,0.0122987,3.47194,5,0.1,6,0,-4.12319,5.84253,0.575719,0,0,0,0,0,0,0.0254956,3.5122,5,0.1,7,0,-0.38777,2.23009,0.665977,0,0,0,0,0,0,0.0461917,3.51219,5,0.1,8,0,-0.418675,-1.70167,0.633823,0,0,0,0,0,0,0.0156756,3.5122,5,0.1,9,0,4.57784,1.48654,0.672582,0,0,0,0,0,0,0.0149003,0.249426,5,0.1,10,0,-1.37174,-0.670666,0.597675,0,0,0,0,0,0,0.0285383,1.08874,5,0.1,11,0,-3.06046,2.07079,0.58922,0,0,0,0,0,0,0.0124354,0.71305,5,0.1,12,0,-0.944717,5.37803,0.696019,0,0,0,0,0,0,0.0355109,2.70453,5,0.1,13,0,0.985469,-3.03354,0.545446,0,0,0,0,0,0,0.011497,1.8999,5,0.1,14,0,4.70169,-0.971263,0.692145,0,0,0,0,0,0,0.0316169,3.5122,5,0.1,15,0,-0.596924,-0.729777,0.640967,0,0,0,0,0,0,0.0317937,3.51219,5,0.1,16,0,-3.94466,2.13024,0.675359,0,0,0,0,0,0,0.0185711,1.71391,5,0.1,17,0,0.820013,1.93141,0.634022,0,0,0,0,0,0,0.0150185,1.07733,5,0.1,18,0,-0.00821733,-0.662639,0.511804,0,0,0,0,0,0,0.0201864,3.39823,5,0.1,19,0,-0.474063,4.55715,0.650007,0,0,0,0,0,0,0.0285552,1.81844,5,0.1,20,0,0.17876,-3.80187,0.637789,0,0,0,0,0,0,0.0150515,3.51219,5,0.1,21,0,0.281796,-1.34411,0.611576,0,0,0,0,0,0,0.0147065,1.03763,5,0.1,22,0,2.08166,-0.219636,0.692122,0,0,0,0,0,0,0.015163,3.5122,5,0.1,23,0,-0.488671,-0.0516667,0.646138,0,0,0,0,0,0,0.0304642,3.5122,5,0.1,24,0,-0.0171852,3.47481,0.61498,0,0,0,0,0,0,0.0217923,3.51468,5,0.1,25,0,3.7159,-3.4889,0.585477,0,0,0,0,0,0,0.0294237,3.5122,5,0.1,26,0,3.95479,-2.02738,0.612212,0,0,0,0,0,0,0.0235245,3.51219,5,0.1,27,0,2.90996,-2.22053,0.699901,0,0,0,0,0,0,0.00971013,1.37941,5,0.1,28,0,3.54385,-2.63176,0.64111,0,0,0,0,0,0,0.021919,3.5122,5,0.1,29,0,-3.4268,-2.90121,0.554192,0,0,0,0,0,0,0.0264454,3.5122,5,0.1,30,0,-3.45275,-4.47017,0.585806,0,0,0,0,0,0,0.0181149,3.51219,5,0.1,31,0,-0.084826,2.83377,0.614,0,0,0,0,0,0,0.00888592,1.03904,5,0.1,32,0,-1.71827,-1.27471,0.685829,0,0,0,0,0,0,0.0129397,3.5122,5,0.1,33,0,-2.46182,4.45681,0.684391,0,0,0,0,0,0,0.0148177,0.664593,5,0.1,34,0,3.10707,-5.83929,0.54483,0,0,0,0,0,0,0.0244023,1.06262,5,0.1,35,0,2.01233,-2.75294,0.669999,0,0,0,0,0,0,0.0161143,3.5122,5,0.1,36,0,1.0977,2.6335,0.670411,0,0,0,0,0,0,0.0127425,1.58041,5,0.1,37,0,0.481936,-4.76464,0.663106,0,0,0,0,0,0,0.0108528,3.5122,5,0.1,38,0,-5.10554,-2.43766,0.626591,0,0,0,0,0,0,0.0251595,0.56369,5,0.1,39,0,-4.47587,-2.65551,0.679027,0,0,0,0,0,0,0.0124493,3.5122,5,0.1
0,0.1,-1.82804,2.13544,0.549791,0.053565,-0.025332,0.00135954,0.952266,-0.450343,0.0241697,0.0564975,3.51219,5,0.1,1,0.1,3.99593,-5.44132,0.563568,-0.0206444,0.00122711,0.00108089,-0.367001,0.0217855,0.019215,0.0532872,0.428817,5,0.1,2,0.1,0.649716,-0.0236417,0.649017,-0.0411077,-0.0426833,-0.0010076,-0.730809,-0.758814,-0.0179075,0.0335109,3.5122,5,0.1,3,0.1,4.25187,-4.03749,0.588597,-0.0509329,0.030306,0.000211038,-0.905424,0.538826,0.00374764,0.168256,3.5122,5,0.1,4,0.1,-3.2194,5.3162,0.607164,0.00205785,-0.0464633,0.0220362,0.0365973,-0.826001,0.391759,0.0255474,2.64812,5,0.1,5,0.1,-4.72984,-3.52674,0.685409,0.029067,0.0512239,0.00191592,0.516742,0.910655,0.0340641,0.0122987,3.47194,5,0.1,6,0.1,-4.12114,5.84253,0.576105,0.0582509,0.000105798,0.0109387,1.03554,0.00190735,0.194464,0.0254956,3.5122,5,0.1,7,0.1,-0.387682,2.228,0.665911,0.00249743,-0.0591863,-0.00187717,0.044398,-1.05219,-0.0333712,0.0461917,3.51219,5,0.1,8,0.1,-0.418598,-1.69958,0.633801,0.00219522,0.0592245,-0.000625756,0.0390261,1.05288,-0.01112,0.0156756,3.5122,5,0.1,9,0.1,4.57729,1.48655,0.672506,-0.0156425,0.000398979,-0.0021508,-0.278085,0.00709295,-0.0382364,0.0149003,0.249426,5,0.1,10,0.1,-1.37172,-0.669809,0.598461,0.000644289,0.0243198,0.0222946,0.0114515,0.43235,0.396349,0.0285383,1.08874,5,0.1,11,0.1,-3.06039,2.07129,0.590014,0.00179112,0.0142008,0.0225449,0.0318587,0.252455,0.400804,0.0124354,0.71305,5,0.1,12,0.1,-0.944671,5.37633,0.696701,0.00132527,-0.0482447,0.0193802,0.0235587,-0.857681,0.344541,0.0355109,2.70453,5,0.1,13,0.1,0.984284,-3.03257,0.545503,-0.0336485,0.0276644,0.00161668,-0.5982,0.491813,0.0287406,0.011497,1.8999,5,0.1,14,0.1,4.69966,-0.970772,0.692199,-0.0575826,0.0139498,0.00154842,-1.02365,0.247996,0.0275299,0.0316169,3.5122,5,0.1,15,0.1,-0.595531,-0.731332,0.640929,0.0395501,-0.0441287,-0.00108248,0.703111,-0.784509,-0.0192411,0.0317937,3.51219,5,0.1,16,0.1,-3.94336,2.12959,0.675437,0.0368845,-0.0186764,0.00221198,0.655726,-0.332028,0.0393204,0.0185711,1.71391,5,0.1,17,0.1,0.819313,1.93049,0.633987,-0.0198552,-0.0261199,-0.00100816,-0.352979,-0.464365,-0.0179224,0.0150185,1.07733,5,0.1,18,0.1,-0.00961803,-0.66414,0.511739,-0.0397626,-0.0425951,-0.00183145,-0.70689,-0.757244,-0.0325553,0.0201864,3.39823,5,0.1,19,0.1,-0.474038,4.55584,0.650737,0.000713067,-0.0372536,0.0207439,0.0126753,-0.662297,0.368774,0.0285552,1.81844,5,0.1,20,0.1,0.180613,-3.80091,0.63777,0.0526126,0.0272825,-0.000556465,0.935335,0.485033,-0.0098981,0.0150515,3.51219,5,0.1,21,0.1,0.282441,-1.34318,0.611564,0.01832,0.0264959,-0.000342913,0.325687,0.471048,-0.00610203,0.0147065,1.03763,5,0.1,22,0.1,2.07958,-0.219726,0.692144,-0.0592113,-0.00253455,0.000636838,-1.05265,-0.0450574,0.0113174,0.015163,3.5122,5,0.1,23,0.1,-0.489432,-0.0536103,0.646097,-0.0216174,-0.0551732,-0.00115819,-0.38431,-0.980856,-0.020586,0.0304642,3.5122,5,0.1,24,0.1,-0.0170014,3.47287,0.614972,0.00521806,-0.0548691,-0.000223797,0.0927654,-0.97543,-0.00397488,0.0217923,3.51468,5,0.1,25,0.1,3.71393,-3.4882,0.585484,-0.0557777,0.0200391,0.000209734,-0.991598,0.356257,0.00372529,0.0294237,3.5122,5,0.1,26,0.1,3.95474,-2.02542,0.612916,-0.00123307,0.0557825,0.0199899,-0.0219345,0.991672,0.355378,0.0235245,3.51219,5,0.1,27,0.1,2.9094,-2.22172,0.699825,-0.0157576,-0.033566,-0.00216244,-0.280127,-0.596717,-0.0384487,0.00971013,1.37941,5,0.1,28,0.1,3.54177,-2.63162,0.641086,-0.0591375,0.0038676,-0.000685919,-1.05134,0.068754,-0.0121929,0.021919,3.5122,5,0.1,29,0.1,-3.42485,-2.90117,0.554939,0.0553291,0.00136457,0.0212017,0.983641,0.024274,0.376925,0.0264454,3.5122,5,0.1,30,0.1,-3.45269,-4.46811,0.586136,0.00187308,0.0584923,0.00937087,0.0332892,1.03989,0.166591,0.0181149,3.51219,5,0.1,31,0.1,-0.0850506,2.83488,0.613985,-0.00637652,0.0315964,-0.000414811,-0.11336,0.561714,-0.00737607,0.00888592,1.03904,5,0.1,32,0.1,-1.71627,-1.27411,0.685875,0.0567876,0.0169175,0.00131633,1.00955,0.300758,0.0234023,0.0129397,3.5122,5,0.1,33,0.1,-2.46175,4.45623,0.685086,0.00183173,-0.0164993,0.0197249,0.032559,-0.293344,0.350662,0.0148177,0.664593,5,0.1,34,0.1,3.10602,-5.83883,0.544888,-0.0298437,0.0130184,0.00163484,-0.530556,0.231415,0.0290647,0.0244023,1.06262,5,0.1,35,0.1,2.01229,-2.75092,0.670523,-0.0011161,0.0573628,0.0148647,-0.0198483,1.01978,0.264265,0.0161143,3.5122,5,0.1,36,0.1,1.09891,2.63278,0.670337,0.0341469,-0.0202544,-0.00208635,0.607066,-0.360072,-0.0370964,0.0127425,1.58041,5,0.1,37,0.1,0.481715,-4.76256,0.663118,-0.00626217,0.0589363,0.000349339,-0.111325,1.04776,0.00621006,0.0108528,3.5122,5,0.1,38,0.1,-5.10569,-2.43684,0.626563,-0.00428185,0.0233419,-0.000787992,-0.0760853,0.414968,-0.0140108,0.0251595,0.56369,5,0.1,39,0.1,-4.47379,-2.65542,0.679086,0.0591934,0.00247248,0.00166316,1.05232,0.0439733,0.0295639,0.0124493,3.5122,5,0.1
0,0.2,-1.81716,2.1303,0.550067,0.169292,-0.080055,0.00429749,1.26964,-0.600576,0.0322163,0.0285823,2.92579,5,0.1,1,0.2,3.99174,-5.44107,0.563787,-0.0652492,0.0038743,0.00341535,-0.489354,0.0290871,0.02563,0.0222426,0.351822,5,0.1,2,0.2,0.641366,-0.0323119,0.648812,-0.12992,-0.1349,-0.00318587,-0.974417,-1.01175,-0.0238419,0.0123833,2.92579,5,0.1,3,0.2,4.24153,-4.03133,0.58864,-0.16098,0.0957847,0.000667572,-1.20711,0.718355,0.00497699,0.0590784,2.92581,5,0.1,4,0.2,-3.21898,5.30677,0.61164,0.00650883,-0.14683,0.0696465,0.0487566,-1.10173,0.522316,0.0165996,2.17262,5,0.1,5,0.2,-4.72393,-3.51634,0.685798,0.0918627,0.161892,0.00605583,0.68903,1.21427,0.0454187,0.0109848,2.84854,5,0.1,6,0.2,-4.1093,5.84255,0.578327,0.184095,0.000333786,0.0345707,1.38092,0.00238419,0.25931,0.014675,2.92578,5,0.1,7,0.2,-0.387175,2.21598,0.665529,0.0078924,-0.187057,-0.00593364,0.0592172,-1.40285,-0.0444651,0.029725,2.92719,5,0.1,8,0.2,-0.418152,-1.68755,0.633674,0.00693798,0.187176,-0.00197738,0.0520498,1.40387,-0.0148416,0.0102607,2.93088,5,0.1,9,0.2,4.57412,1.48664,0.672069,-0.0494361,0.00126064,-0.00679791,-0.370741,0.00947714,-0.0509918,0.00840519,0.204643,5,0.1,10,0.2,-1.37159,-0.664869,0.602989,0.00203848,0.0768617,0.0704616,0.0151992,0.576466,0.528455,0.0243595,0.89326,5,0.1,11,0.2,-3.06003,2.07417,0.594594,0.00566244,0.0448823,0.0712529,0.0424385,0.336647,0.534415,0.0119004,0.58502,5,0.1,12,0.2,-0.944402,5.36653,0.700638,0.00418872,-0.152481,0.0612497,0.0313818,-1.14346,0.459433,0.0342229,2.21894,5,0.1,13,0.2,0.977449,-3.02695,0.545832,-0.106347,0.0874341,0.00510961,-0.7976,0.65577,0.038296,0.0101245,1.55877,5,0.1,14,0.2,4.68796,-0.967938,0.692514,-0.181997,0.0440881,0.00489205,-1.36471,0.330657,0.0367463,0.0352192,1.27169,5,0.1,15,0.2,-0.587497,-0.740296,0.64071,0.124998,-0.139469,-0.00342131,0.937462,-1.04603,-0.0256598,0.0321483,2.94373,5,0.1,16,0.2,-3.93586,2.12579,0.675886,0.116575,-0.0590265,0.00699162,0.874281,-0.442743,0.0523925,0.0194031,1.40617,5,0.1,17,0.2,0.81528,1.92519,0.633782,-0.0627533,-0.0825495,-0.00318587,-0.470608,-0.619233,-0.0239015,0.0115321,0.883895,5,0.1,18,0.2,-0.0176949,-0.672792,0.511367,-0.125669,-0.13462,-0.0057891,-0.942521,-1.0097,-0.0433922,0.0185112,2.91413,5,0.1,19,0.2,-0.473893,4.54827,0.654951,0.0022538,-0.117743,0.0655606,0.0168979,-0.883102,0.491709,0.0237033,3.13628,5,0.1,20,0.2,0.1913,-3.79537,0.637657,0.166282,0.0862241,-0.00175983,1.24712,0.64671,-0.0132024,0.0148154,2.92579,5,0.1,21,0.2,0.286162,-1.33779,0.611495,0.0579,0.0837415,-0.00108331,0.43425,0.628054,-0.00816584,0.0139802,0.851321,5,0.1,22,0.2,2.06755,-0.220241,0.692274,-0.187135,-0.00801049,0.00201315,-1.40345,-0.060074,0.01508,0.0130089,2.9258,5,0.1,23,0.2,-0.493823,-0.0648175,0.645862,-0.0683218,-0.174375,-0.00365973,-0.512421,-1.30781,-0.0274479,0.0240297,2.92579,5,0.1,24,0.2,-0.0159415,3.46173,0.614926,0.0164916,-0.173414,-0.000707805,0.123688,-1.30057,-0.00530481,0.0197769,3.08972,5,0.1,25,0.2,3.7026,-3.48413,0.585527,-0.176287,0.0633299,0.000661612,-1.32203,0.475168,0.00497699,0.0399622,2.9258,5,0.1,26,0.2,3.95449,-2.01409,0.616977,-0.00389814,0.176299,0.0631779,-0.0293255,1.32221,0.473827,0.0505144,2.9258,5,0.1,27,0.2,2.9062,-2.22853,0.699386,-0.0497997,-0.106084,-0.00683516,-0.373602,-0.795722,-0.05126,0.0187043,1.13172,5,0.1,28,0.2,3.52975,-2.63084,0.640947,-0.186902,0.0122249,-0.00216812,-1.4019,0.0916719,-0.0162721,0.049933,2.92825,5,0.1,29,0.2,-3.41362,-2.90089,0.559246,0.174868,0.00431538,0.0670075,1.31154,0.0321865,0.502557,0.0744429,2.92579,5,0.1,30,0.2,-3.45231,-4.45622,0.58804,0.00591874,0.18487,0.0296161,0.0443459,1.3864,0.222117,0.0438867,2.9258,5,0.1,31,0.2,-0.0863459,2.8413,0.613901,-0.0201529,0.0998616,-0.0013113,-0.151146,0.748992,-0.00983477,0.020397,0.862975,5,0.1,32,0.2,-1.70473,-1.27067,0.686143,0.179476,0.0534683,0.0041604,1.34605,0.40102,0.031203,0.0314152,2.92579,5,0.1,33,0.2,-2.46138,4.45288,0.689093,0.00579357,-0.0521541,0.062339,0.043273,-0.391006,0.467569,0.0268155,0.545268,5,0.1,34,0.2,3.09996,-5.83618,0.54522,-0.0943184,0.0411391,0.00516623,-0.707507,0.308752,0.0387728,0.034019,0.87182,5,0.1,35,0.2,2.01206,-2.73927,0.673542,-0.00352859,0.181299,0.0469804,-0.0264645,1.35958,0.352353,0.0285487,2.95808,5,0.1,36,0.2,1.10584,2.62867,0.669914,0.107923,-0.0640154,-0.00659525,0.809371,-0.480175,-0.0494421,0.0185208,1.29665,5,0.1,37,0.2,0.480443,-4.75059,0.663189,-0.019791,0.186265,0.00110418,-0.148445,1.39689,0.00828505,0.018622,2.92581,5,0.1,38,0.2,-5.10656,-2.43209,0.626403,-0.0135303,0.0737727,-0.00248998,-0.101566,0.55325,-0.0187159,0.0445914,0.46248,5,0.1,39,0.2,-4.46176,-2.65492,0.679424,0.187075,0.00781417,0.00525713,1.40333,0.058651,0.0393987,0.0177269,2.92577,5,0.1
0,0.3,-1.79317,2.11895,0.550676,0.315314,-0.149122,0.00800304,1.56038,-0.73801,0.0395998,0.0285823,2.92579,5,0.1,1,0.3,3.9825,-5.44052,0.564271,-0.121384,0.00720844,0.00635497,-0.598803,0.0355542,0.031352,0.0222426,0.351822,5,0.1,2,0.3,0.622955,-0.0514284,0.648361,-0.241987,-0.251261,-0.00592936,-1.19753,-1.24342,-0.0293255,0.0123833,2.92579,5,0.1,3,0.3,4.21871,-4.01776,0.588734,-0.299816,0.178404,0.00124089,-1.48362,0.882864,0.00613183,0.0590784,2.92581,5,0.1,4,0.3,-3.21806,5.28597,0.621504,0.0121027,-0.273196,0.129563,0.0596941,-1.34793,0.639159,0.0165996,2.17262,5,0.1,5,0.3,-4.71092,-3.49341,0.686656,0.170899,0.301179,0.0112658,0.843138,1.48584,0.0555739,0.0109848,2.84854,5,0.1,6,0.3,-4.08321,5.8426,0.583226,0.342908,0.000612438,0.0643928,1.69697,0.00303984,0.318669,0.014675,2.92578,5,0.1,7,0.3,-0.386181,2.18947,0.664716,0.011161,-0.348464,-0.0102603,0.00980683,-1.72526,-0.0406466,0.029725,2.92719,5,0.1,8,0.3,-0.417159,-1.66124,0.633393,0.0131951,0.342585,-0.00369838,0.0687819,1.6178,-0.0184886,0.0102607,2.93088,5,0.1,9,0.3,4.56711,1.48681,0.671106,-0.0919648,0.00234693,-0.0126471,-0.453681,0.0115782,-0.0623949,0.00840519,0.204643,5,0.1,10,0.3,-1.3713,-0.653983,0.612969,0.00378434,0.142989,0.131081,0.0186488,0.705406,0.646666,0.0243595,0.89326,5,0.1,11,0.3,-3.05923,2.08053,0.604686,0.0105321,0.0834987,0.132556,0.0519454,0.411928,0.653945,0.0119004,0.58502,5,0.1,12,0.3,-0.943808,5.34493,0.709313,0.00778958,-0.283653,0.11395,0.0384152,-1.39928,0.562165,0.0342229,2.21894,5,0.1,13,0.3,0.962387,-3.01457,0.546555,-0.19784,0.162657,0.0095034,-0.976,0.802442,0.0468791,0.0101245,1.55877,5,0.1,14,0.3,4.66322,-0.96305,0.693213,-0.309171,0.0435096,0.00927169,-1.14781,-0.279982,0.0478923,0.0352192,1.27169,5,0.1,15,0.3,-0.570166,-0.760167,0.640273,0.221952,-0.262813,-0.00500316,0.958994,-1.33962,-0.00719354,0.0321483,2.94373,5,0.1,16,0.3,-3.91935,2.11743,0.676876,0.216866,-0.109813,0.0130031,1.06984,-0.541747,0.0641346,0.0194031,1.40617,5,0.1,17,0.3,0.806392,1.91349,0.633331,-0.116738,-0.153579,-0.00592768,-0.575889,-0.757687,-0.0292435,0.0115321,0.883895,5,0.1,18,0.3,-0.0344716,-0.691572,0.510563,-0.204778,-0.24232,-0.0103219,-0.637624,-1.09112,-0.0451915,0.0185112,2.91413,5,0.1,19,0.3,-0.473232,4.53085,0.663478,0.0138889,-0.240393,0.100451,0.193063,-1.46013,0.219226,0.0237033,3.13628,5,0.1,20,0.3,0.214864,-3.78315,0.637407,0.309712,0.160601,-0.00327798,1.53267,0.794798,-0.0162236,0.0148154,2.92579,5,0.1,21,0.3,0.294363,-1.32593,0.611341,0.107713,0.155786,-0.00201892,0.531381,0.768535,-0.00996888,0.0139802,0.851321,5,0.1,22,0.3,2.04103,-0.221376,0.692559,-0.348547,-0.0149197,0.00374811,-1.72486,-0.0738334,0.0185408,0.0130089,2.9258,5,0.1,23,0.3,-0.503505,-0.0895279,0.645343,-0.127255,-0.324784,-0.00681635,-0.629749,-1.60726,-0.0337362,0.0240297,2.92579,5,0.1,24,0.3,-0.0132117,3.43801,0.614827,0.041865,-0.298531,-0.00127517,0.3502,-1.16353,-0.0057593,0.0197769,3.08972,5,0.1,25,0.3,3.67762,-3.47515,0.585621,-0.328336,0.117973,0.00123372,-1.62479,0.583872,0.0061132,0.0399622,2.9258,5,0.1,26,0.3,3.95394,-1.9891,0.62593,-0.00726841,0.328365,0.117673,-0.0359863,1.62499,0.582326,0.0505144,2.9258,5,0.1,27,0.3,2.89915,-2.24356,0.698418,-0.0926517,-0.197359,-0.0127153,-0.457108,-0.973642,-0.0627227,0.0187043,1.13172,5,0.1,28,0.3,3.5034,-2.62918,0.640636,-0.344462,0.0206962,-0.00414541,-1.65762,0.0758171,-0.0218786,0.049933,2.92825,5,0.1,29,0.3,-3.38884,-2.90028,0.568741,0.325705,0.00802241,0.124806,1.61184,0.039652,0.617635,0.0744429,2.92579,5,0.1,30,0.3,-3.45147,-4.43003,0.592236,0.0110202,0.344321,0.0551615,0.0545382,1.70392,0.272982,0.0438867,2.9258,5,0.1,31,0.3,-0.089315,2.85516,0.613715,-0.0407514,0.177717,-0.00245189,-0.242917,0.773191,-0.0122525,0.020397,0.862975,5,0.1,32,0.3,-1.6793,-1.2631,0.686732,0.334284,0.0995893,0.00774879,1.65427,0.492841,0.0383481,0.0314152,2.92579,5,0.1,33,0.3,-2.46056,4.44549,0.697922,0.0107627,-0.097011,0.115973,0.053063,-0.478566,0.572141,0.0268155,0.545268,5,0.1,34,0.3,3.0866,-5.83036,0.545952,-0.175473,0.0765488,0.0096132,-0.865713,0.377715,0.0474341,0.034019,0.87182,5,0.1,35,0.3,2.01156,-2.71413,0.6802,-0.00657216,0.321947,0.0875043,-0.0325143,1.39204,0.433035,0.0285487,2.95808,5,0.1,36,0.3,1.12113,2.6196,0.66898,0.200769,-0.119094,-0.0122673,0.990435,-0.587553,-0.0605099,0.0185208,1.29665,5,0.1,37,0.3,0.477639,-4.7242,0.663346,-0.0368631,0.346922,0.00205692,-0.182427,1.71682,0.0101775,0.018622,2.92581,5,0.1,38,0.3,-5.10847,-2.42165,0.62605,-0.025177,0.137238,-0.00463566,-0.124216,0.677004,-0.0228845,0.0445914,0.46248,5,0.1,39,0.3,-4.43525,-2.65381,0.680169,0.348462,0.0145584,0.00978932,1.72448,0.072062,0.0484362,0.0177269,2.92577,5,0.1
0,0.4,-1.75397,2.10041,0.551671,0.465652,-0.220227,0.0118181,1.37973,-0.652552,0.0350475,0.0309007,2.51007,5,0.1,1,0.4,3.96742,-5.43963,0.565061,-0.179011,0.0106335,0.00937283,-0.528336,0.0314713,0.0276566,0.0219169,0.278366,5,0.1,2,0.4,0.59287,-0.0826662,0.647624,-0.357366,-0.371061,-0.00875592,-1.05882,-1.09941,-0.025928,0.0144704,2.51008,5,0.1,3,0.4,4.18144,-3.99558,0.588888,-0.442755,0.263464,0.00183135,-1.31202,0.780702,0.00545382,0.0698719,2.51009,5,0.1,4,0.4,-3.21655,5.25203,0.6376,0.0178516,-0.402915,0.191076,0.0525713,-1.18899,0.56386,0.0199292,1.71898,5,0.1,5,0.4,-4.68969,-3.45599,0.688056,0.252044,0.444174,0.0166148,0.743866,1.31083,0.0490248,0.0152892,2.25379,5,0.1,6,0.4,-4.04058,5.84267,0.591231,0.506413,0.00089407,0.0950947,1.50025,0.00309944,0.281781,0.0180454,2.51248,5,0.1,7,0.4,-0.385073,2.14614,0.663503,0.010521,-0.514716,-0.0138238,-0.0196248,-1.526,-0.0296831,0.0383907,2.51644,5,0.1,8,0.4,-0.415498,-1.61913,0.632932,0.019943,0.49575,-0.00548661,0.0629872,1.38211,-0.0164509,0.0143999,2.91047,5,0.1,9,0.4,4.55569,1.48711,0.669535,-0.135624,0.00346303,-0.0186503,-0.400305,0.0101924,-0.0550747,0.011782,0.281043,5,0.1,10,0.4,-1.37083,-0.63622,0.629253,0.00557899,0.210877,0.193316,0.0165105,0.622332,0.570506,0.0312863,0.706757,5,0.1,11,0.4,-3.05792,2.0909,0.621153,0.015527,0.123137,0.19549,0.0460148,0.363469,0.576943,0.0171575,0.462874,5,0.1,12,0.4,-0.942841,5.30969,0.723469,0.0114873,-0.418329,0.168052,0.033915,-1.23429,0.495911,0.0413471,1.75566,5,0.1,13,0.4,0.937809,-2.99436,0.547736,-0.291769,0.239885,0.014016,-0.861079,0.707865,0.0413358,0.0113556,1.23332,5,0.1,14,0.4,4.62713,-0.960683,0.694378,-0.406432,-0.000748038,0.0139549,-0.776768,-0.555843,0.043571,0.0320038,2.1295,5,0.1,15,0.4,-0.543429,-0.79308,0.639759,0.309487,-0.393243,-0.00508279,0.761151,-1.20875,0.00458956,0.0339848,2.8516,5,0.1,16,0.4,-3.89241,2.10379,0.678492,0.319821,-0.161946,0.0191763,0.944018,-0.478029,0.0565648,0.0180823,1.11258,5,0.1,17,0.4,0.79189,1.89442,0.632594,-0.172164,-0.226495,-0.00874251,-0.50804,-0.668466,-0.0258088,0.0115892,0.699345,5,0.1,18,0.4,-0.0576222,-0.721035,0.509316,-0.2531,-0.343676,-0.0144705,-0.329893,-0.897467,-0.036329,0.0169089,2.76948,5,0.1,19,0.4,-0.470742,4.4993,0.67426,0.036829,-0.390518,0.111876,0.248089,-1.45912,0.0208914,0.0264463,2.66694,5,0.1,20,0.4,0.253368,-3.76318,0.637,0.457381,0.237173,-0.00484139,1.35517,0.702858,-0.0143349,0.0165117,2.51007,5,0.1,21,0.4,0.307744,-1.30658,0.61109,0.158853,0.229749,-0.00297725,0.468791,0.678003,-0.00882149,0.0140014,0.673575,5,0.1,22,0.4,1.9977,-0.223231,0.693025,-0.514731,-0.0220332,0.00553429,-1.5251,-0.065282,0.0164211,0.011361,2.51546,5,0.1,23,0.4,-0.519326,-0.129906,0.644496,-0.187929,-0.47964,-0.0100657,-0.556797,-1.4211,-0.0298619,0.0241105,2.51008,5,0.1,24,0.4,-0.00712841,3.40283,0.614672,0.0805964,-0.399685,-0.00181049,0.398657,-0.833392,-0.00476837,0.0197449,2.78598,5,0.1,25,0.4,3.6368,-3.46049,0.585774,-0.484884,0.174224,0.00182241,-1.43659,0.516176,0.00539422,0.0325308,2.51008,5,0.1,26,0.4,3.95304,-1.94828,0.640559,-0.0107288,0.484928,0.173779,-0.0319481,1.43677,0.514865,0.0218381,2.51008,5,0.1,27,0.4,2.88764,-2.26808,0.696838,-0.136644,-0.291061,-0.0187531,-0.403285,-0.858903,-0.0553131,0.0107329,0.895426,5,0.1,28,0.4,3.46086,-2.62677,0.640112,-0.502527,0.0270784,-0.00630021,-1.43635,0.0504255,-0.020206,0.0206824,2.67908,5,0.1,29,0.4,-3.34834,-2.89928,0.584258,0.481004,0.0118494,0.184312,1.42515,0.0349283,0.546128,0.0288899,2.51007,5,0.1,30,0.4,-3.4501,-4.38722,0.599094,0.016278,0.508487,0.0814617,0.0481606,1.50657,0.241399,0.0197993,2.51315,5,0.1,31,0.4,-0.0946347,2.8766,0.613409,-0.0655953,0.248504,-0.00363737,-0.240456,0.617504,-0.0109076,0.00928358,0.700536,5,0.1,32,0.4,-1.63774,-1.25072,0.687696,0.493672,0.147071,0.0114441,1.46258,0.435829,0.033915,0.0131922,2.51024,5,0.1,33,0.4,-2.45923,4.43344,0.712329,0.0158668,-0.143063,0.171036,0.0468493,-0.422478,0.504762,0.0157765,0.431422,5,0.1,34,0.4,3.0648,-5.82085,0.547146,-0.258785,0.112891,0.0141785,-0.763774,0.333309,0.0418425,0.0231278,0.689786,5,0.1,35,0.4,2.01074,-2.67534,0.691079,-0.00970364,0.449181,0.129226,-0.0288486,1.10841,0.38287,0.014135,2.90062,5,0.1,36,0.4,1.14607,2.60481,0.667456,0.296086,-0.175637,-0.0180915,0.873864,-0.518322,-0.053376,0.0140276,1.02592,5,0.1,37,0.4,0.473056,-4.68107,0.663602,-0.0544399,0.512338,0.00303835,-0.16129,1.51801,0.0089705,0.0106631,2.63286,5,0.1,38,0.4,-5.1116,-2.4046,0.625475,-0.0371337,0.202394,-0.00683665,-0.109434,0.597239,-0.0201762,0.0235845,0.36592,5,0.1,39,0.4,-4.39193,-2.652,0.681386,0.514615,0.0214994,0.0144556,1.52469,0.0636578,0.0428557,0.0120472,2.51536,5,0.1
0,0.5,-1.70031,2.07503,0.553033,0.60763,-0.287374,0.015424,1.38681,-0.65586,0.0352189,0.0309007,2.51007,5,0.1,1,0.5,3.94683,-5.4384,0.566139,-0.232615,0.0138238,0.0121789,-0.517458,0.030756,0.0270903,0.0219169,0.278366,5,0.1,2,0.5,0.551689,-0.125426,0.646615,-0.466322,-0.484194,-0.0114249,-1.06426,-1.10506,-0.026077,0.0144704,2.51008,5,0.1,3,0.5,4.13042,-3.96522,0.5891,-0.577764,0.3438,0.00239238,-1.31869,0.784695,0.00547618,0.0698719,2.51009,5,0.1,4,0.5,-3.2145,5.20568,0.659578,0.0231873,-0.523546,0.248286,0.0515431,-1.1645,0.552274,0.0199292,1.71898,5,0.1,5,0.5,-4.6607,-3.4049,0.689967,0.327516,0.577169,0.0215888,0.728548,1.28384,0.048019,0.0152892,2.25379,5,0.1,6,0.5,-3.98238,5.84278,0.60219,0.656266,0.0012055,0.12409,1.42586,0.00298023,0.283211,0.0180454,2.51248,5,0.1,7,0.5,-0.384159,2.08706,0.661976,0.00742911,-0.66497,-0.0166392,-0.039516,-1.41101,-0.0254214,0.0383907,2.51644,5,0.1,8,0.5,-0.413645,-1.56405,0.63228,0.0132061,0.592333,-0.00772495,-0.171628,0.576578,-0.0262409,0.0143999,2.91047,5,0.1,9,0.5,4.53976,1.48751,0.667344,-0.185607,0.00473652,-0.0255254,-0.558287,0.0142232,-0.076782,0.011782,0.281043,5,0.1,10,0.5,-1.37019,-0.611964,0.651489,0.00725389,0.274019,0.251199,0.0161678,0.609532,0.558771,0.0312863,0.706757,5,0.1,11,0.5,-3.05613,2.10507,0.643639,0.0201922,0.160013,0.254026,0.0449866,0.355974,0.565059,0.0171575,0.462874,5,0.1,12,0.5,-0.941519,5.26158,0.742799,0.0149284,-0.543566,0.218367,0.0332221,-1.20902,0.485715,0.0413471,1.75566,5,0.1,13,0.5,0.904248,-2.96677,0.549348,-0.379134,0.311707,0.0182108,-0.843354,0.693336,0.0405051,0.0113556,1.23332,5,0.1,14,0.5,4.58238,-0.964321,0.695997,-0.489357,-0.0781291,0.0184273,-0.827909,-0.925403,0.0436231,0.0320038,2.1295,5,0.1,15,0.5,-0.50935,-0.837315,0.639641,0.36551,-0.480587,0.00579767,0.366734,-0.556804,0.189848,0.0339848,2.8516,5,0.1,16,0.5,-3.85563,2.08516,0.680697,0.415597,-0.210445,0.0249164,0.924543,-0.46815,0.0554174,0.0180823,1.11258,5,0.1,17,0.5,0.772087,1.86836,0.631589,-0.223711,-0.294315,-0.0113607,-0.497609,-0.654683,-0.0252761,0.0115892,0.699345,5,0.1,18,0.5,-0.083832,-0.759009,0.507732,-0.26429,-0.40736,-0.0167779,0.0789655,-0.390701,-0.0109784,0.0169089,2.76948,5,0.1,19,0.5,-0.465684,4.45253,0.685328,0.0652297,-0.546701,0.107471,0.302393,-1.57821,-0.099957,0.0264463,2.66694,5,0.1,20,0.5,0.306075,-3.73585,0.636442,0.596832,0.309496,-0.0063167,1.36213,0.706434,-0.0144131,0.0165117,2.51007,5,0.1,21,0.5,0.326016,-1.28015,0.610748,0.206417,0.29854,-0.00387123,0.459148,0.664055,-0.00862405,0.0140014,0.673575,5,0.1,22,0.5,1.93862,-0.22577,0.693663,-0.66493,-0.028751,0.0072238,-1.41075,-0.0656182,0.0164993,0.011361,2.51546,5,0.1,23,0.5,-0.540982,-0.185178,0.643336,-0.245225,-0.625877,-0.0131378,-0.559665,-1.42841,-0.0300035,0.0241105,2.51008,5,0.1,24,0.5,0.0033614,3.35822,0.614468,0.132468,-0.495392,-0.00227308,0.595852,-1.00954,-0.00428781,0.0197449,2.78598,5,0.1,25,0.5,3.58093,-3.44041,0.585984,-0.632716,0.22734,0.00237757,-1.44403,0.518829,0.0054203,0.0325308,2.51008,5,0.1,26,0.5,3.9518,-1.8924,0.660584,-0.0140123,0.632777,0.226761,-0.0320375,1.44416,0.517521,0.0218381,2.51008,5,0.1,27,0.5,2.87192,-2.30156,0.694681,-0.17756,-0.378206,-0.0243656,-0.394955,-0.84123,-0.0541806,0.0107329,0.895426,5,0.1,28,0.5,3.40419,-2.62421,0.639341,-0.622799,0.0206549,-0.00942433,-0.95351,-0.156179,-0.0389032,0.0206824,2.67908,5,0.1,29,0.5,-3.29291,-2.89792,0.605497,0.627655,0.0154495,0.24051,1.43246,0.0352263,0.548922,0.0288899,2.51007,5,0.1,30,0.5,-3.44822,-4.3288,0.608482,0.0212364,0.658434,0.106302,0.0484288,1.42214,0.242632,0.0197993,2.51315,5,0.1,31,0.5,-0.102485,2.9047,0.61299,-0.0918941,0.314175,-0.00474816,-0.269996,0.656813,-0.0107624,0.00928358,0.700536,5,0.1,32,0.5,-1.58089,-1.23377,0.689015,0.64302,0.191918,0.0149338,1.44913,0.438042,0.0340864,0.0131922,2.51024,5,0.1,33,0.5,-2.4574,4.41699,0.732003,0.0206221,-0.185923,0.222248,0.0459105,-0.413746,0.494372,0.0157765,0.431422,5,0.1,34,0.5,3.03503,-5.80786,0.548777,-0.336276,0.146705,0.0184234,-0.748023,0.326335,0.0409782,0.0231278,0.689786,5,0.1,35,0.5,2.00962,-2.62627,0.70597,-0.0126682,0.51961,0.168608,-0.0289381,0.349179,0.384547,0.014135,2.90062,5,0.1,36,0.5,1.18013,2.5846,0.665375,0.384747,-0.228226,-0.0235077,0.855878,-0.507638,-0.0522882,0.0140276,1.02592,5,0.1,37,0.5,0.466782,-4.62325,0.663952,-0.0710372,0.633977,0.00396213,-0.162117,0.920057,0.00902638,0.0106631,2.63286,5,0.1,38,0.5,-5.11587,-2.38132,0.624688,-0.0482388,0.262991,-0.00888323,-0.107199,0.584975,-0.0197552,0.0235845,0.36592,5,0.1,39,0.5,-4.33286,-2.64953,0.683052,0.664803,0.0280503,0.0188653,1.41096,0.0640005,0.0430755,0.0120472,2.51536,5,0.1
0,0.6,-1.6331,2.04324,0.554739,0.730544,-0.345504,0.018546,1.01995,-0.482321,0.0258684,0.0225485,2.17258,5,0.1,1,0.6,3.92117,-5.43688,0.567482,-0.27802,0.0165224,0.0145555,-0.372291,0.0221729,0.0194907,0.0214062,0.207236,5,0.1,2,0.6,0.500104,-0.178987,0.645351,-0.56065,-0.582138,-0.0137359,-0.782669,-0.812672,-0.0191927,0.012216,2.2273,5,0.1,3,0.6,4.06651,-3.92719,0.589364,-0.694644,0.413352,0.00287741,-0.969887,0.576973,0.00405312,0.0564557,2.2251,5,0.1,4,0.6,-3.21194,5.14795,0.68696,0.0277102,-0.62573,0.296752,0.0370741,-0.837803,0.397295,0.0163392,1.27972,5,0.1,5,0.6,-4.62458,-3.34125,0.692348,0.391448,0.689828,0.0258029,0.524044,0.923634,0.0345707,0.0141733,1.67789,5,0.1,6,0.6,-3.91022,5.84291,0.615917,0.779748,0.00146627,0.149192,0.996232,0.00214577,0.208259,0.0145124,2.31826,5,0.1,7,0.6,-0.383628,2.01415,0.6602,0.00309721,-0.785697,-0.0187069,-0.0449866,-0.959456,-0.0151694,0.0275042,2.39659,5,0.1,8,0.6,-0.413392,-1.50308,0.631374,-0.00972077,0.616401,-0.0103697,-0.266373,-0.068903,-0.0251234,0.0116783,2.94648,5,0.1,9,0.6,4.51842,1.48806,0.66441,-0.240135,0.00612438,-0.033024,-0.501871,0.012815,-0.0690222,0.00891509,0.185797,5,0.1,10,0.6,-1.36939,-0.581744,0.679192,0.00867248,0.327508,0.300235,0.0116825,0.438452,0.401974,0.0248983,0.526164,5,0.1,11,0.6,-3.05391,2.12271,0.671654,0.0241399,0.191253,0.303613,0.0324249,0.255942,0.406504,0.0131873,0.344595,5,0.1,12,0.6,-0.939873,5.20163,0.766881,0.0178427,-0.649667,0.260991,0.0239313,-0.869989,0.349402,0.0333367,1.30707,5,0.1,13,0.6,0.862436,-2.93239,0.551356,-0.453141,0.372547,0.0217646,-0.606716,0.498891,0.0291467,0.0100309,0.918176,5,0.1,14,0.6,4.52959,-0.97692,0.698043,-0.562799,-0.174153,0.0222966,-0.602245,-0.944614,0.0321865,0.0329159,1.49364,5,0.1,15,0.6,-0.471564,-0.887212,0.641318,0.384448,-0.508377,0.0287682,0.0207424,-0.0180006,0.251591,0.00872751,0.829685,5,0.1,16,0.6,-3.80979,2.06195,0.683445,0.496727,-0.251526,0.02978,0.665069,-0.336766,0.0398755,0.0190778,1.33193,5,0.1,17,0.6,0.747416,1.8359,0.630336,-0.267379,-0.351766,-0.0135794,-0.357956,-0.470936,-0.0181794,0.00954034,0.536249,5,0.1,18,0.6,-0.109377,-0.800963,0.506034,-0.242315,-0.424746,-0.016889,0.337575,0.0282526,0.0077188,0.0158345,2.68625,5,0.1,19,0.6,-0.457678,4.39036,0.695438,0.0942625,-0.691307,0.093545,0.26536,-1.25194,-0.171006,0.0266185,0.940274,5,0.1,20,0.6,0.372097,-3.70161,0.635743,0.717561,0.372106,-0.00759363,1.00173,0.519395,-0.0105798,0.01395,2.3083,5,0.1,21,0.6,0.34878,-1.24723,0.610321,0.24671,0.356814,-0.00462681,0.330314,0.477731,-0.00619888,0.0151277,0.501462,5,0.1,22,0.6,1.86571,-0.22895,0.694462,-0.785658,-0.0345666,0.00868589,-0.959575,-0.0482649,0.0121295,0.00991293,2.33403,5,0.1,23,0.6,-0.568109,-0.254413,0.641882,-0.294828,-0.75248,-0.0157967,-0.41163,-1.05047,-0.0220537,0.02403,2.26881,5,0.1,24,0.6,0.019622,3.30382,0.614221,0.192259,-0.589293,-0.00263304,0.567825,-0.816822,-0.00283122,0.0078077,1.24834,5,0.1,25,0.6,3.51094,-3.41526,0.586247,-0.760704,0.273317,0.00285804,-1.06204,0.381589,0.00399351,0.0287883,2.27953,5,0.1,26,0.6,3.95025,-1.8224,0.685669,-0.0168502,0.760779,0.27263,-0.0234842,1.06204,0.380605,0.0215481,2.27961,5,0.1,27,0.6,2.85234,-2.34326,0.691994,-0.212216,-0.45203,-0.0291213,-0.284076,-0.605106,-0.0389814,0.0116676,0.666619,5,0.1,28,0.6,3.33804,-2.62311,0.638196,-0.691009,-0.000101328,-0.0134885,-0.403643,-0.240803,-0.0398755,0.0186003,2.78853,5,0.1,29,0.6,-3.22348,-2.89621,0.632103,0.754619,0.0185728,0.289162,1.05345,0.0258684,0.403702,0.0262797,2.27148,5,0.1,30,0.6,-3.44587,-4.25645,0.620241,0.0255346,0.781226,0.127806,0.0355244,0.987053,0.178427,0.0175598,2.32216,5,0.1,31,0.6,-0.112968,2.93921,0.612465,-0.116917,0.373161,-0.00569671,-0.219211,0.495076,-0.00777841,0.00943101,0.537799,5,0.1,32,0.6,-1.50987,-1.21254,0.690667,0.770718,0.230742,0.0179544,1.05232,0.322104,0.0250638,0.0123407,2.29633,5,0.1,33,0.6,-2.45513,4.39648,0.756513,0.0246525,-0.222218,0.265631,0.033021,-0.297785,0.355631,0.0168629,0.321179,5,0.1,34,0.6,2.99795,-5.79168,0.550809,-0.40192,0.175345,0.0220194,-0.537992,0.234604,0.0294745,0.023474,0.513517,5,0.1,35,0.6,2.00822,-2.57349,0.72462,-0.015229,0.527745,0.202681,-0.0213385,-0.148177,0.282615,0.0138792,2.95206,5,0.1,36,0.6,1.22256,2.55943,0.662782,0.459853,-0.272775,-0.0280961,0.615716,-0.365138,-0.0376105,0.012136,0.763772,5,0.1,37,0.6,0.458924,-4.55621,0.66439,-0.0854068,0.697565,0.00476241,-0.119209,0.35882,0.00664592,0.0107131,2.65537,5,0.1,38,0.6,-5.12119,-2.35231,0.623708,-0.0576496,0.314325,-0.0106156,-0.0770092,0.420928,-0.0142455,0.0239158,0.272422,5,0.1,39,0.6,-4.25997,-2.64642,0.685139,0.785565,0.0337243,0.0226825,0.96035,0.0469685,0.0317097,0.0125467,2.33376,5,0.1
0,0.7,-1.55553,2.00626,0.556724,0.814429,-0.393577,0.0211246,0.637867,-0.449352,0.0241101,0.0225485,2.17258,5,0.1,1,0.7,3.89154,-5.43512,0.569033,-0.313759,0.0186481,0.0164264,-0.322089,0.0191629,0.0168569,0.0214062,0.207236,5,0.1,2,0.7,0.44024,-0.241107,0.643896,-0.634504,-0.657688,-0.0152198,-0.655331,-0.660271,-0.0102557,0.012216,2.2273,5,0.1,3,0.7,3.9924,-3.88293,0.589673,-0.784365,0.471271,0.00328356,-0.781938,0.544861,0.00381097,0.0564557,2.2251,5,0.1,4,0.7,-3.20899,5.08126,0.718587,0.0312701,-0.706158,0.334895,0.0320971,-0.724822,0.343751,0.0163392,1.27972,5,0.1,5,0.7,-4.58286,-3.26774,0.695098,0.441758,0.778275,0.0291214,0.453383,0.795111,0.0299029,0.0141733,1.67789,5,0.1,6,0.7,-3.82832,5.84307,0.631891,0.848372,0.00167862,0.170094,0.39801,0.00193715,0.19661,0.0145124,2.31826,5,0.1,7,0.7,-0.383558,1.93185,0.658253,-0.00179177,-0.850007,-0.0202067,-0.0506043,-0.34336,-0.0135899,0.0275042,2.39659,5,0.1,8,0.7,-0.416532,-1.44197,0.630108,-0.0598569,0.603525,-0.0157918,-0.675118,-0.199117,-0.0756048,0.0116783,2.94648,5,0.1,9,0.7,4.4919,1.48879,0.66076,-0.289564,0.00907686,-0.0399202,-0.461876,0.0417903,-0.0652596,0.00891509,0.185797,5,0.1,10,0.7,-1.36846,-0.546838,0.711191,0.00979304,0.369602,0.338825,0.0100881,0.379354,0.347782,0.0248983,0.526164,5,0.1,11,0.7,-3.05133,2.1431,0.704013,0.0272498,0.215827,0.342638,0.0279844,0.221446,0.351693,0.0131873,0.344595,5,0.1,12,0.7,-0.937971,5.13239,0.794697,0.0201396,-0.733189,0.294535,0.0207014,-0.752717,0.302304,0.0333367,1.30707,5,0.1,13,0.7,0.814141,-2.89269,0.553676,-0.511387,0.420441,0.0245631,-0.524912,0.431612,0.0252277,0.0100309,0.918176,5,0.1,14,0.7,4.47087,-0.998836,0.700383,-0.6056,-0.261397,0.0240562,-0.249356,-0.778578,0.00427291,0.0329159,1.49364,5,0.1,15,0.7,-0.434233,-0.936912,0.645554,0.351566,-0.474783,0.0565651,-0.617016,0.633214,0.289056,0.00872751,0.829685,5,0.1,16,0.7,-3.75654,2.03515,0.686619,0.569464,-0.283856,0.0336087,0.733435,-0.291348,0.0345074,0.0190778,1.33193,5,0.1,17,0.7,0.718919,1.7988,0.628888,-0.301745,-0.386045,-0.0153246,-0.309721,-0.213481,-0.0157245,0.00954034,0.536249,5,0.1,18,0.7,-0.131588,-0.842683,0.50441,-0.199121,-0.404083,-0.0153546,0.504587,0.362307,0.0217296,0.0158345,2.68625,5,0.1,19,0.7,-0.447249,4.316,0.704575,0.111293,-0.785601,0.0945802,0.0838414,-0.633299,0.152964,0.0266185,0.940274,5,0.1,20,0.7,0.447884,-3.66177,0.63493,0.788655,0.424244,-0.0086559,0.429662,0.490487,-0.00999868,0.01395,2.3083,5,0.1,21,0.7,0.375074,-1.2092,0.609828,0.278421,0.402678,-0.00522127,0.285784,0.413328,-0.00535324,0.0151277,0.501462,5,0.1,22,0.7,1.78341,-0.232651,0.695392,-0.850422,-0.0394105,0.00990322,-0.362866,-0.0455594,0.0114478,0.00991293,2.33403,5,0.1,23,0.7,-0.599671,-0.334075,0.640191,-0.335958,-0.83224,-0.0180192,-0.385322,-0.541359,-0.0209808,0.02403,2.26881,5,0.1,24,0.7,0.0411934,3.24343,0.613955,0.234384,-0.59526,-0.00258842,0.2808,0.579745,0.00320002,0.0078077,1.24834,5,0.1,25,0.7,3.43049,-3.386,0.586553,-0.838968,0.31162,0.00325879,-0.505731,0.36031,0.00376627,0.0287883,2.27953,5,0.1,26,0.7,3.94844,-1.74194,0.71486,-0.0192072,0.839024,0.310836,-0.022158,0.505418,0.359412,0.0215481,2.27961,5,0.1,27,0.7,2.82972,-2.39144,0.688891,-0.239488,-0.510123,-0.032864,-0.24578,-0.523552,-0.0337288,0.0116676,0.666619,5,0.1,28,0.7,3.26793,-2.62429,0.636598,-0.701812,-0.0228498,-0.0188515,0.164047,-0.209376,-0.0624731,0.0186003,2.78853,5,0.1,29,0.7,-3.14362,-2.89422,0.663064,0.833975,0.0211734,0.329685,0.531912,0.0245124,0.381209,0.0262797,2.27148,5,0.1,30,0.7,-3.44314,-4.17445,0.633926,0.0291038,0.848883,0.145714,0.0336021,0.389218,0.168443,0.0175598,2.32216,5,0.1,31,0.7,-0.125619,2.97909,0.611857,-0.134668,0.424535,-0.0064332,-0.13308,0.496536,-0.00654906,0.00943101,0.537799,5,0.1,32,0.7,-1.42857,-1.18783,0.692589,0.845239,0.263073,0.0204703,0.451729,0.304133,0.023663,0.0123407,2.29633,5,0.1,33,0.7,-2.4525,4.3728,0.784824,0.0278231,-0.250801,0.299773,0.0285953,-0.257552,0.30769,0.0168629,0.321179,5,0.1,34,0.7,2.95511,-5.77299,0.553155,-0.45357,0.197868,0.024849,-0.465453,0.203013,0.0255033,0.023474,0.513517,5,0.1,35,0.7,2.00659,-2.52243,0.746315,-0.0173572,0.486273,0.230917,-0.0199229,-0.583291,0.264503,0.0138792,2.95206,5,0.1,36,0.7,1.27157,2.53036,0.659788,0.518963,-0.307829,-0.0317072,0.532709,-0.31592,-0.0325441,0.012136,0.763772,5,0.1,37,0.7,0.44978,-4.48605,0.6649,-0.097364,0.694115,0.00542924,-0.112407,-0.32863,0.00627339,0.0107131,2.65537,5,0.1,38,0.7,-5.12734,-2.31881,0.622577,-0.0650473,0.354735,-0.0119824,-0.0666678,0.364169,-0.0123084,0.0239158,0.272422,5,0.1,39,0.7,-4.17767,-2.64281,0.687567,0.850395,0.038439,0.0258637,0.36338,0.0443459,0.0299104,0.0125467,2.33376,5,0.1
0,0.8,-1.47163,1.96491,0.558944,0.856164,-0.43034,0.0230968,0.197232,-0.265479,0.0142455,0.0222364,1.78391,5,0.1,1,0.8,3.85877,-5.43317,0.570749,-0.339013,0.0201464,0.0177488,-0.169158,0.0100136,0.00885129,0.0204294,0.146317,5,0.1,2,0.8,0.373984,-0.309671,0.642339,-0.68519,-0.707865,-0.015755,-0.332236,-0.31805,-0.000417233,0.0136529,2.21672,5,0.1,3,0.8,3.91065,-3.83338,0.590018,-0.843936,0.51614,0.00359863,-0.381231,0.327349,0.00226498,0.0513462,2.21873,5,0.1,4,0.8,-3.20572,5.00751,0.753561,0.0337899,-0.762987,0.361845,0.0168085,-0.380278,0.180542,0.0157061,0.903533,5,0.1,5,0.8,-4.53673,-3.18648,0.698139,0.477302,0.840437,0.0314653,0.23818,0.41461,0.0157058,0.0116948,1.19598,5,0.1,6,0.8,-3.74226,5.84325,0.649776,0.866026,0.00183582,0.186284,0,0.00119209,0.118017,0.0171193,2.24537,5,0.1,7,0.8,-0.383984,1.84602,0.656176,-0.00664368,-0.858328,-0.0212163,-0.0448227,0.154018,-0.00572205,0.0281352,2.69859,5,0.1,8,0.8,-0.426152,-1.3829,0.62812,-0.133923,0.574976,-0.024128,-0.759184,-0.377476,-0.0852644,0.013251,3.01656,5,0.1,9,0.8,4.46087,1.48993,0.656472,-0.328314,0.0136971,-0.0454605,-0.295877,0.0472069,-0.0430048,0.00807888,0.13791,5,0.1,10,0.8,-1.36744,-0.50824,0.746575,0.0105858,0.399344,0.366093,0.00524521,0.199199,0.182599,0.0241509,0.371502,5,0.1,11,0.8,-3.04849,2.16564,0.739795,0.0294447,0.233191,0.370212,0.014782,0.116229,0.184685,0.0136446,0.243302,5,0.1,12,0.8,-0.935868,5.05582,0.825456,0.0217617,-0.792205,0.318235,0.0108778,-0.395298,0.158787,0.0323985,0.922866,5,0.1,13,0.8,0.760736,-2.84878,0.556241,-0.552543,0.454277,0.0265405,-0.275612,0.226736,0.013262,0.00989419,0.648278,5,0.1,14,0.8,4.40968,-1.02845,0.702773,-0.612259,-0.3263,0.0233918,0.115633,-0.505388,-0.0163913,0.0330154,0.250743,5,0.1,15,0.8,-0.402795,-0.980537,0.652614,0.272115,-0.392039,0.0839308,-0.922665,0.975341,0.247121,0.00875898,0.473026,5,0.1,16,0.8,-3.69619,2.0055,0.690129,0.633788,-0.306699,0.0363141,0.512719,-0.152946,0.0181496,0.0171146,0.988575,5,0.1,17,0.8,0.687407,1.75956,0.627288,-0.326028,-0.394508,-0.0165567,-0.162631,0.0424981,-0.00828505,0.00935472,0.439669,5,0.1,18,0.8,-0.14885,-0.880884,0.502998,-0.145288,-0.3565,-0.0127688,0.554897,0.56985,0.0289977,0.0166358,2.51017,5,0.1,19,0.8,-0.435941,4.23529,0.71507,0.112659,-0.818443,0.117254,-0.0488162,-0.0286102,0.270426,0.0256858,0.59132,5,0.1,20,0.8,0.528018,-3.61716,0.63402,0.805497,0.464636,-0.00947863,-0.0823736,0.294566,-0.00604987,0.0146453,2.38673,5,0.1,21,0.8,0.40415,-1.16715,0.609282,0.300828,0.435084,-0.00564009,0.150055,0.217021,-0.00283122,0.0131565,0.35406,5,0.1,22,0.8,1.69728,-0.236795,0.696433,-0.866026,-0.0431623,0.0108451,0,-0.0273436,0.00688434,0.011171,2.27039,5,0.1,23,0.8,-0.634978,-0.419187,0.638295,-0.367558,-0.862216,-0.019753,-0.228941,-0.0761747,-0.0127256,0.02303,2.38511,5,0.1,24,0.8,0.0656054,3.18831,0.613718,0.249722,-0.494701,-0.00209063,0.0328571,1.3355,0.0063777,0.00847506,0.45876,5,0.1,25,0.8,3.34491,-3.35323,0.586896,-0.864536,0.34129,0.00357032,-0.0298023,0.216484,0.00223517,0.0270587,2.18537,5,0.1,26,0.8,3.94642,-1.65637,0.747544,-0.0210285,0.86455,0.340433,-0.0133514,0.0295043,0.215888,0.0214054,2.18554,5,0.1,27,0.8,2.80471,-2.44471,0.685459,-0.258756,-0.55117,-0.0355095,-0.129104,-0.274897,-0.0177026,0.0107809,0.470671,5,0.1,28,0.8,3.19934,-2.62753,0.634397,-0.662768,-0.0411808,-0.0251248,0.594378,-0.15378,-0.0593364,0.0197283,2.97206,5,0.1,29,0.8,-3.05839,-2.89199,0.69773,0.862801,0.0231922,0.361079,0.0644922,0.014782,0.228941,0.0255171,1.7364,5,0.1,30,0.8,-3.44008,-4.08838,0.649247,0.0318706,0.86602,0.159582,0.0202656,0.000238419,0.101149,0.0201154,2.2516,5,0.1,31,0.8,-0.139592,3.02379,0.611186,-0.143148,0.466365,-0.00693947,-0.0353903,0.315189,-0.00333786,0.00970254,0.391372,5,0.1,32,0.8,-1.34263,-1.16017,0.694741,0.866026,0.288117,0.0224188,0,0.182629,0.0142157,0.0126599,2.38595,5,0.1,33,0.8,-2.44959,4.3466,0.81613,0.0300646,-0.270987,0.323896,0.0150204,-0.135422,0.161588,0.0158568,0.226763,5,0.1,34,0.8,2.90775,-5.75233,0.55575,-0.490063,0.213778,0.0268489,-0.244379,0.106573,0.0133514,0.0220994,0.444641,5,0.1,35,0.8,2.00477,-2.47682,0.770581,-0.01899,0.426322,0.252604,-0.0119209,-0.561237,0.157058,0.0128818,2.98252,5,0.1,36,0.8,1.32577,2.49822,0.656476,0.560728,-0.3326,-0.0342593,0.279725,-0.16582,-0.0170767,0.0116091,0.539264,5,0.1,37,0.8,0.439543,-4.41879,0.665471,-0.106614,0.647628,0.00594556,-0.067398,-0.542164,0.00375509,0.011407,2.71765,5,0.1,38,0.8,-5.13413,-2.28177,0.621326,-0.0702739,0.383288,-0.0129476,-0.0350475,0.191212,-0.0064671,0.0253436,0.49648,5,0.1,39,0.8,-4.09154,-2.63877,0.690287,0.866032,0.0420928,0.0283256,-0.000238419,0.0267029,0.017941,0.0122262,2.26994,5,0.1
0,0.9,-1.38541,1.92042,0.561323,0.865229,-0.459874,0.0244431,0.0174567,-0.291854,0.0114217,0.0222364,1.78391,5,0.1,1,0.9,3.82407,-5.43111,0.572566,-0.35434,0.0210531,0.0185508,-0.121161,0.00712276,0.00634044,0.0204294,0.146317,5,0.1,2,0.9,0.304203,-0.381324,0.640844,-0.706129,-0.718158,-0.0134232,-0.0742042,0.104533,0.0424571,0.0136529,2.21672,5,0.1,3,0.9,3.82573,-3.78006,0.59039,-0.842667,0.550039,0.00383332,0.326946,0.315681,0.00219047,0.0513462,2.21873,5,0.1,4,0.9,-3.20226,4.9294,0.790607,0.0353143,-0.797448,0.378205,0.0120699,-0.272393,0.129323,0.0157061,0.903533,5,0.1,5,0.9,-4.48786,-3.10104,0.70136,0.498884,0.862817,0.0328883,0.170559,0.0724494,0.0112467,0.0116948,1.19598,5,0.1,6,0.9,-3.65566,5.84344,0.669018,0.866026,0.00195652,0.198476,0,0.00107288,0.113294,0.0171193,2.24537,5,0.1,7,0.9,-0.384878,1.76229,0.65402,-0.0112296,-0.804535,-0.0219063,-0.0449419,0.851542,-0.00673905,0.0281352,2.69859,5,0.1,8,0.9,-0.44344,-1.32721,0.625182,-0.211728,0.539334,-0.035335,-0.753421,-0.345081,-0.127945,0.013251,3.01656,5,0.1,9,0.9,4.42721,1.4915,0.651725,-0.338889,0.0174228,-0.0492706,0.061363,0.0273287,-0.0309534,0.00807888,0.13791,5,0.1,10,0.9,-1.36636,-0.467356,0.784055,0.0110615,0.417395,0.38264,0.00376999,0.14269,0.130802,0.0241509,0.371502,5,0.1,11,0.9,-3.04547,2.18951,0.777697,0.0307817,0.243725,0.386947,0.0105649,0.0832528,0.132281,0.0136446,0.243302,5,0.1,12,0.9,-0.93364,4.97471,0.858037,0.022747,-0.828025,0.332623,0.00778586,-0.283122,0.113733,0.0323985,0.922866,5,0.1,13,0.9,0.704167,-2.80227,0.558958,-0.577517,0.474822,0.0277423,-0.197414,0.162393,0.00950322,0.00989419,0.648278,5,0.1,14,0.9,4.34974,-1.06277,0.705077,-0.580049,-0.352528,0.0230712,0.504732,-0.0482425,0.00656024,0.0330154,0.250743,5,0.1,15,0.9,-0.380214,-1.01492,0.662406,0.179799,-0.296412,0.112993,-0.904851,0.926618,0.312805,0.00875898,0.473026,5,0.1,16,0.9,-3.6302,1.9741,0.693847,0.685326,-0.320558,0.0379588,0.47417,-0.109553,0.013005,0.0171146,0.988575,5,0.1,17,0.9,0.654028,1.72094,0.625593,-0.340766,-0.372286,-0.017307,-0.116505,0.371456,-0.00593439,0.00935472,0.439669,5,0.1,18,0.9,-0.160597,-0.914302,0.50187,-0.0899351,-0.317134,-0.00974499,0.538469,0.252426,0.0307113,0.0166358,2.51017,5,0.1,19,0.9,-0.425064,4.15463,0.727894,0.103585,-0.782876,0.136791,-0.126528,0.683486,0.123329,0.0256858,0.59132,5,0.1,20,0.9,0.606912,-3.56917,0.633041,0.762367,0.49511,-0.0101036,-0.686336,0.283539,-0.00580773,0.0146453,2.38673,5,0.1,21,0.9,0.434949,-1.1226,0.608705,0.314425,0.45475,-0.00589592,0.107488,0.155456,-0.00201538,0.0131565,0.35406,5,0.1,22,0.9,1.61068,-0.241254,0.697554,-0.866026,-0.0459877,0.011556,0,-0.0262586,0.00660866,0.011171,2.27039,5,0.1,23,0.9,-0.672021,-0.504938,0.63611,-0.365558,-0.844708,-0.0251584,0.236519,0.409359,-0.0849515,0.02303,2.38511,5,0.1,24,0.9,0.0909725,3.14596,0.613549,0.259265,-0.349047,-0.00123493,0.13228,1.52813,0.0101328,0.00847506,0.45876,5,0.1,25,0.9,3.25837,-3.31797,0.587265,-0.865933,0.363683,0.00380212,-0.00372529,0.208333,0.00216439,0.0270587,2.18537,5,0.1,26,0.9,3.94425,-1.56982,0.782711,-0.0224072,0.865933,0.362745,-0.0128001,0.00368804,0.207406,0.0214054,2.18554,5,0.1,27,0.9,2.77822,-2.50114,0.681823,-0.270454,-0.57608,-0.0371137,-0.0924617,-0.196904,-0.0126846,0.0107809,0.470671,5,0.1,28,0.9,3.13621,-2.63169,0.631571,-0.598153,-0.0357367,-0.0314633,0.695243,0.22307,-0.0635572,0.0197283,2.97206,5,0.1,29,0.9,-2.97191,-2.8896,0.734965,0.86573,0.0246044,0.382927,0.00427663,0.0121742,0.187721,0.0255171,1.7364,5,0.1,30,0.9,-3.43679,-4.00177,0.665731,0.033965,0.866027,0.170034,0.0194907,-1.49012e-05,0.0971332,0.0201154,2.2516,5,0.1,31,0.9,-0.154014,3.072,0.610476,-0.144551,0.497114,-0.007236,0.00975654,0.271663,-0.00227243,0.00970254,0.391372,5,0.1,32,0.9,-1.25625,-1.13133,0.697181,0.85894,0.280804,0.0273974,-0.162534,-0.290096,0.0760518,0.0126599,2.38595,5,0.1,33,0.9,-2.44651,4.31886,0.84929,0.0314269,-0.283253,0.338538,0.0107735,-0.0969768,0.115741,0.0158568,0.226763,5,0.1,34,0.9,2.85757,-5.73029,0.558499,-0.512208,0.22788,0.0280592,-0.175059,0.15536,0.00956282,0.0220994,0.444641,5,0.1,35,0.9,2.00281,-2.43691,0.796645,-0.0201885,0.37595,0.268453,-0.0108629,-0.324488,0.14386,0.0128818,2.98252,5,0.1,36,0.9,1.38317,2.46416,0.652969,0.586075,-0.347626,-0.035807,0.200368,-0.118792,-0.0122376,0.0116091,0.539264,5,0.1,37,0.9,0.428533,-4.35705,0.666085,-0.11354,0.588147,0.00633178,-0.0640322,-0.503659,0.00357255,0.011407,2.71765,5,0.1,38,0.9,-5.14132,-2.24233,0.62,-0.0734501,0.406072,-0.013533,-0.0251234,0.233963,-0.00461936,0.0253436,0.49648,5,0.1,39,0.9,-4.00494,-2.63442,0.693213,0.866025,0.0448421,0.0301722,1.49012e-05,0.0254512,0.0170954,0.0122262,2.26994,5,0.1
0,1,-1.29893,1.87316,0.563811,0.863147,-0.48303,0.025171,-0.0576377,-0.14782,0.00226498,0.0232357,1.3244,5,0.1,1,1,3.78821,-5.42898,0.574443,-0.360543,0.0214219,0.0188753,0.00762939,-0.000715256,-0.000417233,0.0189341,0.195355,5,0.1,2,1,0.233725,-0.451976,0.639754,-0.698216,-0.688708,-0.00808686,0.238262,0.474646,0.0605881,0.0157267,2.31719,5,0.1,3,1,3.74376,-3.72373,0.590782,-0.791472,0.573373,0.003995,0.647306,0.126719,0.000864267,0.0593512,2.2909,5,0.1,4,1,-3.19869,4.84871,0.828873,0.0359297,-0.811386,0.38483,-0.000715256,0.0174046,-0.00828505,0.0141674,0.614443,5,0.1,5,1,-4.43738,-3.01475,0.704688,0.507629,0.859702,0.033465,-0.0112057,-0.1266,-0.000745058,0.0118333,0.828711,5,0.1,6,1,-3.56906,5.84364,0.68934,0.866026,0.00203848,0.206824,0,0.000238419,0.0449717,0.0166483,2.24264,5,0.1,7,1,-0.386213,1.68678,0.651803,-0.0152975,-0.700364,-0.0223368,-0.0350028,1.17874,-0.00089407,0.027503,3.03256,5,0.1,8,1,-0.468083,-1.27502,0.621012,-0.277384,0.504184,-0.0478402,-0.530958,-0.365913,-0.114292,0.0111099,3.1527,5,0.1,9,1,4.39407,1.49335,0.646679,-0.320232,0.0191897,-0.0512838,0.293493,0.00810623,-0.00786781,0.00847344,0.0993673,5,0.1,10,1,-1.36524,-0.425124,0.822771,0.0112504,0.424704,0.389339,-0.000178814,-0.00916421,-0.00843406,0.0242423,0.252637,5,0.1,11,1,-3.04236,2.21417,0.816848,0.0313222,0.247985,0.393723,-0.000715256,-0.00524521,-0.00852346,0.0126737,0.165455,5,0.1,12,1,-0.931338,4.89093,0.891692,0.023146,-0.842535,0.338449,-0.000506639,0.0183582,-0.00727177,0.0339501,0.627582,5,0.1,13,1,0.645734,-2.75423,0.561765,-0.587629,0.483143,0.0282302,0.0127256,-0.0104904,-0.000596046,0.0109169,0.440848,5,0.1,14,1,4.29473,-1.09771,0.707432,-0.515795,-0.34121,0.0241026,0.759602,0.250936,0.0114739,0.0326064,0.168698,5,0.1,15,1,-0.366601,-1.04008,0.675233,0.0943929,-0.208551,0.142799,-0.789642,0.822842,0.267684,0.00965431,0.484328,5,0.1,16,1,-3.55966,1.94167,0.697688,0.721222,-0.326169,0.0386268,0.213385,0.00709295,-0.000834465,0.016353,0.700704,5,0.1,17,1,0.61955,1.68591,0.623842,-0.346734,-0.325623,-0.0176117,0.00748038,0.53823,0.00038743,0.00982628,0.541999,5,0.1,18,1,-0.167017,-0.945041,0.501047,-0.0399072,-0.29981,-0.00676066,0.452645,0.121146,0.0284016,0.0156196,2.27316,5,0.1,19,1,-0.415424,4.08055,0.741969,0.0884824,-0.691962,0.142568,-0.170365,1.0891,-0.00435114,0.0251212,0.495348,5,0.1,20,1,0.679317,-3.51847,0.632006,0.683239,0.516039,-0.0105336,-0.840068,0.113368,-0.00229478,0.0147794,2.50545,5,0.1,21,1,0.466762,-1.07659,0.608108,0.31993,0.462711,-0.00599921,-0.00689924,-0.00995398,0.000149012,0.0128057,0.240776,5,0.1,22,1,1.52407,-0.245962,0.698737,-0.866026,-0.0479229,0.0120416,0,-0.0104308,0.00265241,0.0106784,2.27023,5,0.1,23,1,-0.706848,-0.58668,0.633121,-0.326233,-0.783761,-0.0349015,0.522614,0.792325,-0.101924,0.0236467,2.24748,5,0.1,24,1,0.117551,3.11868,0.613478,0.271728,-0.197768,-0.000171363,0.0981915,1.45972,0.0106692,0.019282,3.65261,5,0.1,25,1,3.17177,-3.28073,0.587654,-0.866026,0.379062,0.00396073,0,0.0832081,0.00089407,0.0269777,2.24048,5,0.1,26,1,3.94196,-1.48322,0.819854,-0.0233471,0.866026,0.378036,-0.005126,-5.96046e-05,0.0825524,0.0189043,2.18088,5,0.1,27,1,2.75086,-2.55943,0.678068,-0.275189,-0.586164,-0.037764,0.00596046,0.0126362,0.000834465,0.0121563,0.320427,5,0.1,28,1,3.08002,-2.6338,0.628126,-0.524354,-0.0036478,-0.0371739,0.776887,0.387192,-0.0478327,0.0219985,2.94251,5,0.1,29,1,-2.88537,-2.88709,0.773993,0.864512,0.0254035,0.395226,-0.0303984,0.00298023,0.0445843,0.0256681,1.30644,5,0.1,30,1,-3.43331,-3.91517,0.683142,0.0353992,0.866026,0.177193,0.00786781,0,0.0386536,0.0193536,2.2495,5,0.1,31,1,-0.16833,3.12281,0.609745,-0.140834,0.515974,-0.0073418,0.0657737,0.0863075,0.00038743,0.009054,0.273167,5,0.1,32,1,-1.17157,-1.10522,0.70034,0.830203,0.237161,0.0359863,-0.424623,-0.550926,0.0886321,0.0128021,2.76813,5,0.1,33,1,-2.44333,4.2902,0.883543,0.0319779,-0.288212,0.344467,-0.000596046,0.00596046,-0.00745058,0.014542,0.23891,5,0.1,34,1,2.80575,-5.70678,0.561338,-0.521171,0.241387,0.0285476,0.0113249,0.100374,-0.000596046,0.0249064,0.311858,5,0.1,35,1,2.00075,-2.4,0.824081,-0.020957,0.371605,0.278673,-0.0038147,0.217557,0.0495017,0.0118427,2.79246,5,0.1,36,1,1.44247,2.42899,0.649346,0.596336,-0.353712,-0.0364348,-0.012815,0.0077486,0.000804663,0.0111344,0.366722,5,0.1,37,1,0.416912,-4.3,0.666733,-0.118223,0.560462,0.00659227,-0.0247508,-0.0581741,0.00140071,0.0117699,2.63386,5,0.1,38,1,-5.14875,-2.20069,0.618631,-0.0747442,0.42488,-0.0137687,0.00166893,0.120521,0.000268221,0.0240949,0.454833,5,0.1,39,1,-3.91834,-2.62983,0.696301,0.866026,0.0467062,0.0314265,0,0.0100136,0.00667572,0.0117263,2.18763,5,0.1
0,1.1,-1.2127,1.8241,0.566336,0.862306,-0.497506,0.025269,-0.00469387,-0.11722,-0.00115484,0.0232357,1.3244,5,0.1,1,1.1,3.75244,-5.42682,0.576341,-0.352527,0.0217333,0.0191675,0.151306,0.0051856,0.00471994,0.0189341,0.195355,5,0.1,2,1.1,0.164798,-0.518264,0.639279,-0.682288,-0.634958,-0.00119777,0.119647,0.600174,0.0737347,0.0157267,2.31719,5,0.1,3,1.1,3.66836,-3.66563,0.591187,-0.715203,0.58889,0.00410154,0.739321,0.148997,0.00102073,0.0593512,2.2909,5,0.1,4,1.1,-3.1951,4.7677,0.867299,0.0357777,-0.807837,0.383145,-0.00363588,0.0832379,-0.0394918,0.0141674,0.614443,5,0.1,5,1.1,-4.3867,-2.92932,0.708029,0.505385,0.848947,0.0333164,-0.0522733,-0.124916,-0.00344962,0.0118333,0.828711,5,0.1,6,1.1,-3.48246,5.84384,0.71029,0.866026,0.00207275,0.212287,0,0.000357628,0.0519753,0.0166483,2.24264,5,0.1,7,1.1,-0.387804,1.62319,0.649559,-0.0155255,-0.568465,-0.0225718,0.0249445,1.35997,-0.00251457,0.027503,3.03256,5,0.1,8,1.1,-0.497917,-1.22653,0.6156,-0.313173,0.464929,-0.0606158,-0.165375,-0.404134,-0.128258,0.0111099,3.1527,5,0.1,9,1.1,4.36389,1.49528,0.641526,-0.280422,0.0191225,-0.0515689,0.466943,-0.00856072,0.0034906,0.00847344,0.0993673,5,0.1,10,1.1,-1.36412,-0.382717,0.861646,0.011206,0.422843,0.387631,-0.00111759,-0.0435915,-0.0399835,0.0242423,0.252637,5,0.1,11,1.1,-3.03923,2.23893,0.856161,0.0311803,0.246908,0.391995,-0.00326335,-0.0253618,-0.0404418,0.0126737,0.165455,5,0.1,12,1.1,-0.929027,4.80681,0.925486,0.0230437,-0.838831,0.336968,-0.00238419,0.0866055,-0.0347272,0.0339501,0.627582,5,0.1,13,1.1,0.587059,-2.70598,0.564584,-0.58505,0.48102,0.0281078,0.0603572,-0.0496358,-0.0028871,0.0109169,0.440848,5,0.1,14,1.1,4.24714,-1.13009,0.709924,-0.434617,-0.302821,0.0259194,0.849575,0.473537,0.0219606,0.0326064,0.168698,5,0.1,15,1.1,-0.360453,-1.0563,0.690606,0.0346914,-0.111946,0.162192,-0.421956,1.06063,0.120834,0.00965431,0.484328,5,0.1,16,1.1,-3.48647,1.9091,0.701545,0.741465,-0.324735,0.0384576,0.156552,0.0335276,-0.00395998,0.016353,0.700704,5,0.1,17,1.1,0.584929,1.65631,0.622083,-0.345215,-0.264757,-0.0175338,0.0355802,0.63552,0.00181794,0.00982628,0.541999,5,0.1,18,1.1,-0.169228,-0.975153,0.500506,-0.00885944,-0.308438,-0.00415212,0.179695,-0.239681,0.0233687,0.0156196,2.27316,5,0.1,19,1.1,-0.40747,4.0173,0.755961,0.0702903,-0.569676,0.135092,-0.189153,1.29859,-0.135414,0.0251212,0.495348,5,0.1,20,1.1,0.743251,-3.46619,0.630939,0.597179,0.529805,-0.010813,-0.749655,0.131115,-0.00265986,0.0147794,2.50545,5,0.1,21,1.1,0.498707,-1.03039,0.607509,0.318528,0.460686,-0.00597099,-0.0328403,-0.0474826,0.000637025,0.0128057,0.240776,5,0.1,22,1.1,1.43747,-0.250817,0.699957,-0.866026,-0.0491946,0.0123636,0,-0.0121333,0.00306591,0.0106784,2.27023,5,0.1,23,1.1,-0.737031,-0.660409,0.628939,-0.278932,-0.684872,-0.0501428,0.431363,1.14933,-0.18692,0.0236467,2.24748,5,0.1,24,1.1,0.14485,3.10334,0.613499,0.27083,-0.133859,0.000450294,-0.106962,-0.0378639,0.00241771,0.019282,3.65261,5,0.1,25,1.1,3.08517,-3.24304,0.588011,-0.865698,0.368979,0.00280337,0.0131279,-0.262678,-0.0214688,0.0269777,2.24048,5,0.1,26,1.1,3.9396,-1.39662,0.858102,-0.023884,0.866025,0.386724,-0.00442564,1.49012e-05,0.0716224,0.0189043,2.18088,5,0.1,27,1.1,2.72335,-2.61791,0.674301,-0.274661,-0.58216,-0.0375072,0.0161827,0.0856817,0.0054799,0.0121563,0.320427,5,0.1,28,1.1,3.03028,-2.63171,0.624207,-0.480453,0.0494782,-0.0408001,0.173017,0.630841,-0.0241324,0.0219985,2.94251,5,0.1,29,1.1,-2.79893,-2.88454,0.813725,0.864835,0.0256486,0.398875,0.00545382,0.000864267,0.0120588,0.0256681,1.30644,5,0.1,30,1.1,-3.42972,-3.82857,0.701091,0.0363514,0.866026,0.181898,0.00905991,0,0.0448599,0.0193536,2.2495,5,0.1,31,1.1,-0.182063,3.17483,0.609013,-0.133541,0.52369,-0.00728592,0.0823298,0.0454783,0.000990927,0.009054,0.273167,5,0.1,32,1.1,-1.09139,-1.08429,0.704658,0.767048,0.181157,0.0525804,-0.813805,-0.559069,0.221647,0.0128021,2.76813,5,0.1,33,1.1,-2.44014,4.26126,0.917938,0.0318464,-0.291413,0.342956,-0.00320375,-0.0495315,-0.0353716,0.014542,0.23891,5,0.1,34,1.1,2.75371,-5.68209,0.564188,-0.518881,0.25247,0.0284243,0.0535399,0.10556,-0.00291318,0.0249064,0.311858,5,0.1,35,1.1,1.99863,-2.36043,0.852231,-0.0213854,0.430439,0.284303,-0.00365078,0.854015,0.0482313,0.0118427,2.79246,5,0.1,36,1.1,1.50202,2.39367,0.645708,0.593726,-0.352152,-0.0362741,-0.0611916,0.0363588,0.00374764,0.0111344,0.366722,5,0.1,37,1.1,0.404943,-4.24295,0.6674,-0.121184,0.590852,0.00675945,-0.0276137,0.563681,0.00155345,0.0117699,2.63386,5,0.1,38,1.1,-5.15622,-2.15827,0.617256,-0.0744127,0.417311,-0.0137102,0.0076592,-0.249207,0.00140071,0.0240949,0.454833,5,0.1,39,1.1,-3.83174,-2.6251,0.699482,0.866026,0.0478584,0.0321965,0,0.0103861,0.00695512,0.0117263,2.18763,5,0.1
0,1.2,-1.12671,1.77398,0.568846,0.854486,-0.502372,0.0248,-0.183463,0.0365376,-0.00873208,0.0239423,0.992497,5,0.1,1,1.2,3.71817,-5.42463,0.578279,-0.330681,0.022161,0.0195548,0.283122,0.00214577,0.00190735,0.0200353,0.175876,5,0.1,2,1.2,0.0972352,-0.578556,0.639526,-0.667547,-0.568907,0.00605583,0.203208,0.718713,0.068754,0.014983,2.69532,5,0.1,3,1.2,3.6,-3.60619,0.591601,-0.657713,0.597298,0.00415891,0.408053,-0.00476837,-2.98023e-05,0.0537662,2.31574,5,0.1,4,1.2,-3.19156,4.68764,0.905271,0.034982,-0.789809,0.374599,-0.0129938,0.296354,-0.140697,0.0146465,0.40856,5,0.1,5,1.2,-4.33661,-2.84529,0.711331,0.494099,0.828588,0.0325724,-0.185728,-0.307083,-0.0122488,0.01153,0.565065,5,0.1,6,1.2,-3.39585,5.84405,0.731708,0.866026,0.00208616,0.215128,0,0,-0.00372529,0.0141961,2.24209,5,0.1,7,1.2,-0.38917,1.57282,0.647295,-0.0113003,-0.443536,-0.0226185,0.0551194,1.08624,0.0025034,0.0274441,3.17628,5,0.1,8,1.2,-0.529355,-1.18203,0.608958,-0.308479,0.425386,-0.0714153,0.259608,-0.381529,-0.0799298,0.0120712,3.07193,5,0.1,9,1.2,4.33824,1.49712,0.636414,-0.232577,0.017643,-0.0503749,0.468254,-0.020206,0.0211298,0.0103616,0.228196,5,0.1,10,1.2,-1.363,-0.340811,0.900062,0.0109613,0.41341,0.37898,-0.00417233,-0.15527,-0.142336,0.0235033,0.167992,5,0.1,11,1.2,-3.03614,2.2634,0.89501,0.0304759,0.241399,0.383249,-0.0114441,-0.0904799,-0.144005,0.0119334,0.110018,5,0.1,12,1.2,-0.926743,4.72368,0.958881,0.0225291,-0.820112,0.329451,-0.00846386,0.308275,-0.123739,0.0304144,0.417319,5,0.1,13,1.2,0.529078,-2.65831,0.56737,-0.571996,0.470281,0.0274822,0.21492,-0.176549,-0.0103116,0.00985662,0.293141,5,0.1,14,1.2,4.20797,-1.15792,0.712624,-0.348496,-0.253439,0.0279933,0.861406,0.488102,0.0174046,0.0069129,0.633762,5,0.1,15,1.2,-0.35861,-1.06213,0.707193,0.00658184,-0.00502169,0.167254,-0.156894,1.04046,-0.0174642,0.0120061,0.359086,5,0.1,16,1.2,-3.41187,1.87692,0.705356,0.746703,-0.317487,0.0376001,-0.0753403,0.119269,-0.0141263,0.0168132,0.480011,5,0.1,17,1.2,0.550716,1.6329,0.620346,-0.337514,-0.205258,-0.0171423,0.126779,0.530601,0.0064671,0.00953856,0.476382,5,0.1,18,1.2,-0.169584,-1.00742,0.500197,-0.00163689,-0.338224,-0.00214428,-0.0233054,-0.314772,0.0166595,0.0167033,1.96219,5,0.1,19,1.2,-0.401388,3.9668,0.768644,0.0514217,-0.441688,0.117286,-0.184864,1.22488,-0.21255,0.0194263,1.39738,5,0.1,20,1.2,0.8,-3.41273,0.629848,0.54577,0.537038,-0.0109583,-0.285447,-0.00810623,0.000149012,0.0148613,2.48227,5,0.1,21,1.2,0.530275,-0.984734,0.606918,0.311424,0.45041,-0.00583529,-0.117034,-0.169188,0.00220537,0.0121089,0.160103,5,0.1,22,1.2,1.35087,-0.255781,0.701204,-0.866026,-0.0498638,0.0125334,5.96046e-05,0.000745058,-0.000178814,0.0118032,2.2702,5,0.1,23,1.2,-0.762865,-0.722809,0.622958,-0.238574,-0.560488,-0.0694841,0.381678,1.30853,-0.187874,0.0205531,2.12098,5,0.1,24,1.2,0.171123,3.08827,0.613547,0.252109,-0.179559,0.000430644,-0.258885,-0.761986,-0.00229478,0.0189678,3.03706,5,0.1,25,1.2,2.99877,-3.20788,0.588164,-0.860769,0.330669,0.00012666,0.104904,-0.484586,-0.0300109,0.0243365,2.34232,5,0.1,26,1.2,3.93719,-1.31002,0.896984,-0.0240266,0.866026,0.389066,0.00238419,-5.96046e-05,-0.0381768,0.0187592,2.18166,5,0.1,27,1.2,2.69606,-2.67545,0.670593,-0.270021,-0.566041,-0.0364736,0.0846386,0.248432,0.0159442,0.0105516,0.255211,5,0.1,28,1.2,2.98259,-2.62351,0.620049,-0.477022,0.114697,-0.0419304,-0.048995,0.639677,0.00166893,0.0230256,2.73797,5,0.1,29,1.2,-2.71256,-2.88198,0.85351,0.860631,0.0254035,0.394922,-0.108004,-0.0064373,-0.101984,0.0237957,1.22154,5,0.1,30,1.2,-3.42605,-3.74197,0.719445,0.0368536,0.866026,0.184369,-0.000476837,0,-0.00283122,0.019355,2.24902,5,0.1,31,1.2,-0.194964,3.2272,0.608293,-0.124019,0.521314,-0.0071004,0.109375,-0.108004,0.00289083,0.00955498,0.185161,5,0.1,32,1.2,-1.01922,-1.06892,0.711097,0.672106,0.127119,0.076513,-1.06317,-0.51415,0.240535,0.0129985,3.16525,5,0.1,33,1.2,-2.43698,4.23192,0.951927,0.0311434,-0.294614,0.335303,-0.0116825,0,-0.125945,0.0147792,0.169267,5,0.1,34,1.2,2.70229,-5.65641,0.567006,-0.507301,0.259829,0.0277907,0.190616,0.0305176,-0.010401,0.0212897,0.212803,5,0.1,35,1.2,1.99648,-2.31277,0.880801,-0.0214994,0.523937,0.28581,0.00214577,0.936508,-0.0283122,0.012234,2.50024,5,0.1,36,1.2,1.56086,2.35877,0.642113,0.580481,-0.344288,-0.0354648,-0.217974,0.129223,0.0133216,0.0101057,0.243851,5,0.1,37,1.2,0.392728,-4.18071,0.668082,-0.122582,0.65527,0.00683814,0.00442564,0.647068,-0.000208616,0.0107321,2.40988,5,0.1,38,1.2,-5.16359,-2.11824,0.615897,-0.0727534,0.379252,-0.0134036,0.0274181,-0.492215,0.00500679,0.0221351,0.898034,5,0.1,39,1.2,-3.74513,-2.62028,0.702725,0.866026,0.0483394,0.0325173,0,-0.0025034,-0.00169873,0.0106213,1.73503,5,0.1
0,1.3,-1.04249,1.72416,0.571264,0.826663,-0.491625,0.0233978,-0.382096,0.182673,-0.0189021,0.0239423,0.992497,5,0.1,1,1.3,3.68688,-5.4224,0.580246,-0.292252,0.0224225,0.0197862,0.462338,0.00199676,0.00173226,0.0200353,0.175876,5,0.1,2,1.3,0.031965,-0.631699,0.640166,-0.633397,-0.492623,0.0041022,0.470706,0.79802,-0.0906773,0.014983,2.69532,5,0.1,3,1.3,3.53513,-3.54632,0.592018,-0.648901,0.600868,0.00418397,-0.146076,0.0421107,0.000294298,0.0537662,2.31574,5,0.1,4,1.3,-3.18812,4.6101,0.942042,0.033696,-0.760505,0.36069,-0.0138283,0.314236,-0.149127,0.0146465,0.40856,5,0.1,5,1.3,-4.28811,-2.76387,0.714529,0.475742,0.799971,0.0313617,-0.196755,-0.294968,-0.0129715,0.01153,0.565065,5,0.1,6,1.3,-3.30925,5.84426,0.753262,0.866026,0.00209734,0.216241,0,0.000149012,0.013724,0.0141961,2.24209,5,0.1,7,1.3,-0.389962,1.53341,0.645032,-0.00405819,-0.352612,-0.0227422,0.0845771,0.620045,-0.0032708,0.0274441,3.17628,5,0.1,8,1.3,-0.558007,-1.14045,0.601425,-0.256924,0.414114,-0.0790252,0.719287,0.0906736,-0.0675283,0.0120712,3.07193,5,0.1,9,1.3,4.31733,1.49878,0.631492,-0.187396,0.0152899,-0.0479451,0.373334,-0.0262186,0.0282191,0.0103616,0.228196,5,0.1,10,1.3,-1.36193,-0.300229,0.937264,0.0105496,0.39806,0.364909,-0.00441074,-0.164567,-0.150859,0.0235033,0.167992,5,0.1,11,1.3,-3.03315,2.2871,0.932631,0.0293434,0.23245,0.369014,-0.0121593,-0.0959784,-0.152607,0.0119334,0.110018,5,0.1,12,1.3,-0.924532,4.64317,0.991221,0.0216922,-0.789642,0.317218,-0.0089705,0.326633,-0.131164,0.0304144,0.417319,5,0.1,13,1.3,0.472929,-2.61215,0.570068,-0.550751,0.452825,0.0264629,0.227757,-0.187188,-0.0109337,0.00985662,0.293141,5,0.1,14,1.3,4.17809,-1.18034,0.71522,-0.243836,-0.191202,0.0214653,1.17716,0.721522,-0.131369,0.0069129,0.633762,5,0.1,15,1.3,-0.358082,-1.05795,0.723956,0.00957493,0.0835152,0.168886,0.179682,0.731252,0.0359975,0.0120061,0.359086,5,0.1,16,1.3,-3.33756,1.84575,0.709047,0.738801,-0.305697,0.0362039,-0.110999,0.126407,-0.0149682,0.0168132,0.480011,5,0.1,17,1.3,0.517584,1.61481,0.618663,-0.324982,-0.159927,-0.0165034,0.13436,0.335783,0.00683963,0.00953856,0.476382,5,0.1,18,1.3,-0.170792,-1.04329,0.500053,-0.0304519,-0.382309,-0.000834931,-0.500219,-0.513211,0.00960007,0.0167033,1.96219,5,0.1,19,1.3,-0.396692,3.92854,0.779246,0.0465972,-0.327508,0.0942833,0.0618026,0.988275,-0.241619,0.0194263,1.39738,5,0.1,20,1.3,0.854425,-3.35892,0.62875,0.553082,0.539735,-0.0110148,0.338167,0.031814,-0.000655651,0.0148613,2.48227,5,0.1,21,1.3,0.560845,-0.940521,0.606345,0.299855,0.433685,-0.00561718,-0.124015,-0.179313,0.00233948,0.0121089,0.160103,5,0.1,22,1.3,1.26427,-0.260777,0.70246,-0.866025,-0.0501429,0.012604,-1.49012e-05,-0.00346266,0.000871718,0.0118032,2.2702,5,0.1,23,1.3,-0.785453,-0.772323,0.614887,-0.218606,-0.430556,-0.0931869,0.0564121,1.26296,-0.263814,0.0205531,2.12098,5,0.1,24,1.3,0.194933,3.06524,0.613572,0.223141,-0.290938,5.21541e-06,-0.315929,-1.35529,-0.00572205,0.0189678,3.03706,5,0.1,25,1.3,2.91281,-3.17767,0.587969,-0.861259,0.269664,-0.00449819,-0.0656545,-0.705972,-0.0579171,0.0243365,2.34232,5,0.1,26,1.3,3.9348,-1.22341,0.935783,-0.0239104,0.866025,0.38725,0.00113249,1.49012e-05,-0.0177957,0.0187592,2.18166,5,0.1,27,1.3,2.66939,-2.73028,0.667073,-0.263909,-0.525479,-0.0334855,0.0514984,0.543788,0.0417456,0.0105516,0.255211,5,0.1,28,1.3,2.93331,-2.60921,0.615911,-0.519252,0.167384,-0.0403993,-0.690952,0.413686,0.0276417,0.0230256,2.73797,5,0.1,29,1.3,-2.62665,-2.87947,0.892504,0.860124,0.0247575,0.384717,0.0421256,-0.00733137,-0.115499,0.0237957,1.22154,5,0.1,30,1.3,-3.42236,-3.65536,0.73792,0.0370629,0.866026,0.185384,0.002563,0,0.0125505,0.019355,2.24902,5,0.1,31,1.3,-0.206825,3.27881,0.607597,-0.113232,0.510449,-0.00681514,0.108406,-0.127703,0.00302866,0.00955498,0.185161,5,0.1,32,1.3,-0.957404,-1.05842,0.720123,0.563704,0.0860574,0.105181,-1.09437,-0.318892,0.31158,0.0129985,3.16525,5,0.1,33,1.3,-2.43393,4.20239,0.984841,0.0299882,-0.296279,0.322852,-0.0123829,-0.0171959,-0.133492,0.0147792,0.169267,5,0.1,34,1.3,2.65249,-5.63026,0.569734,-0.48846,0.263143,0.0267617,0.201985,0.0232756,-0.0110418,0.0212897,0.212803,5,0.1,35,1.3,1.99434,-2.25541,0.909297,-0.021383,0.624651,0.284309,0.00122935,1.01185,-0.0158176,0.012234,2.50024,5,0.1,36,1.3,1.61784,2.32498,0.638632,0.558931,-0.331512,-0.0341481,-0.231057,0.136986,0.0141114,0.0101057,0.243851,5,0.1,37,1.3,0.38046,-4.11139,0.668766,-0.122924,0.734726,0.00686012,-0.0044927,0.860333,0.000275671,0.0107321,2.40988,5,0.1,38,1.3,-5.17073,-2.08321,0.614581,-0.0700459,0.318064,-0.0129076,0.0290275,-0.695482,0.00532717,0.0221351,0.898034,5,0.1,39,1.3,-3.65853,-2.61546,0.705971,0.866026,0.0481561,0.0323926,0,-0.00327826,-0.00221655,0.0106213,1.73503,5,0.1
0,1.4,-0.962121,1.67618,0.573496,0.776786,-0.465295,0.0211015,-0.619113,0.34517,-0.0266135,0.0202402,0.677369,5,0.1,1,1.4,3.6601,-5.42015,0.582227,-0.242239,0.0223637,0.0197366,0.520945,-0.0038147,-0.00345707,0.021501,0.159049,5,0.1,2,1.4,-0.0286448,-0.676903,0.639977,-0.575275,-0.410986,-0.00901371,0.682153,0.826865,-0.158101,0.0111116,2.90586,5,0.1,3,1.4,3.46917,-3.48618,0.592436,-0.671899,0.599933,0.00417829,-0.248909,-0.0847578,-0.000625849,0.0469637,2.2195,5,0.1,4,1.4,-3.18483,4.53582,0.977274,0.0320315,-0.722873,0.34284,-0.019908,0.454187,-0.21556,0.0133443,0.268901,5,0.1,5,1.4,-4.24164,-2.68552,0.717592,0.452197,0.764602,0.0298083,-0.284433,-0.432491,-0.0187457,0.0130319,0.379468,5,0.1,6,1.4,-3.22265,5.84447,0.774901,0.866026,0.00209808,0.215785,0,-0.000476837,-0.0313818,0.0149568,2.24274,5,0.1,7,1.4,-0.389932,1.5,0.642744,0.00470802,-0.327834,-0.0229791,0.0868142,-0.095427,-0.000238419,0.0264152,1.24268,5,0.1,8,1.4,-0.579701,-1.09825,0.593237,-0.173984,0.431997,-0.084126,0.898093,0.217259,-0.0313818,0.0116182,2.80358,5,0.1,9,1.4,4.3,1.50017,0.626856,-0.163734,0.01252,-0.0446156,0.103474,-0.0286102,0.0388026,0.00890595,0.17152,5,0.1,10,1.4,-1.3609,-0.261347,0.972908,0.0100255,0.378361,0.346851,-0.0063777,-0.237898,-0.218093,0.0239782,0.110575,5,0.1,11,1.4,-3.03028,2.30981,0.968676,0.027889,0.220954,0.350749,-0.017643,-0.138879,-0.220597,0.0126276,0.123325,5,0.1,12,1.4,-0.922413,4.56604,1.02221,0.0206187,-0.750554,0.301519,-0.0129938,0.472069,-0.189602,0.0296026,0.274701,5,0.1,13,1.4,0.419132,-2.56792,0.572653,-0.523491,0.430423,0.0251532,0.329196,-0.270724,-0.0157952,0.0104861,0.19295,5,0.1,14,1.4,4.15975,-1.19571,0.716578,-0.122714,-0.115374,0.00468791,1.20306,0.767708,-0.191122,0.0249013,1.27998,5,0.1,15,1.4,-0.355923,-1.04645,0.741018,0.0359036,0.141639,0.172016,0.317827,0.434279,0.0163913,0.0112022,0.299682,5,0.1,16,1.4,-3.26449,1.81589,0.712583,0.719792,-0.290567,0.0344127,-0.28789,0.182748,-0.0216365,0.0149452,0.321863,5,0.1,17,1.4,0.48584,1.6,0.617051,-0.3089,-0.141028,-0.015685,0.194237,0.0532269,0.00989437,0.00905039,0.609392,5,0.1,18,1.4,-0.17676,-1.08405,0.500007,-0.0920117,-0.431588,-0.000184774,-0.687063,-0.433385,0.00369549,0.0164121,1.6001,5,0.1,19,1.4,-0.391497,3.9,0.787459,0.0590399,-0.250643,0.0700071,0.166178,0.55337,-0.239253,0.0210403,1.02116,5,0.1,20,1.4,0.91182,-3.30493,0.627648,0.596955,0.538272,-0.0109851,0.468343,-0.0822544,0.00166893,0.0142512,2.32075,5,0.1,21,1.4,0.590135,-0.898159,0.605796,0.285013,0.412221,-0.00533909,-0.179231,-0.259191,0.00339746,0.0121782,1.22553,5,0.1,22,1.4,1.17766,-0.265797,0.703722,-0.866026,-0.0500679,0.0125855,5.96046e-05,0.00694394,-0.00175834,0.0104513,2.27023,5,0.1,23,1.4,-0.807307,-0.809318,0.604274,-0.22044,-0.312351,-0.118417,-0.0633597,1.0837,-0.224918,0.0120355,0.5611,5,0.1,24,1.4,0.215606,3.02914,0.613541,0.189785,-0.431257,-0.000625849,-0.34713,-1.36757,-0.00658631,0.0180146,2.61694,5,0.1,25,1.4,2.82639,-3.1544,0.587214,-0.866026,0.194764,-0.0106514,0,-0.768661,-0.0616312,0.0235627,2.33185,5,0.1,26,1.4,3.93242,-1.13681,0.974321,-0.0235915,0.866026,0.382181,0.00596046,-5.96046e-05,-0.097245,0.0199381,1.70977,5,0.1,27,1.4,2.6433,-2.77975,0.663962,-0.257349,-0.460869,-0.0285044,0.0895262,0.731587,0.056088,0.0108404,0.206043,5,0.1,28,1.4,2.87758,-2.59078,0.612043,-0.596827,0.19756,-0.0366554,-0.781178,0.19145,0.0460744,0.0190233,2.45834,5,0.1,29,1.4,-2.54055,-2.87704,0.930287,0.859505,0.0237942,0.369599,-0.0941753,-0.012517,-0.195742,0.0240215,0.885219,5,0.1,30,1.4,-3.41865,-3.56876,0.756475,0.0370085,0.866026,0.185078,-0.00524521,0,-0.0260174,0.019033,2.24945,5,0.1,31,1.4,-0.217595,3.32906,0.606932,-0.102004,0.492716,-0.00645816,0.117436,-0.239134,0.00423193,0.00909539,0.156969,5,0.1,32,1.4,-0.906483,-1.05117,0.732172,0.455163,0.0611842,0.135143,-1.06761,-0.188351,0.271976,0.00826859,0.619032,5,0.1,33,1.4,-2.431,4.17276,1.01638,0.0285089,-0.295317,0.306875,-0.0180006,0.0479221,-0.19294,0.0142272,0.117099,5,0.1,34,1.4,2.60478,-5.60392,0.572348,-0.464278,0.262368,0.0254393,0.291824,-0.0472069,-0.0160038,0.0205253,0.142691,5,0.1,35,1.4,1.99221,-2.1882,0.937575,-0.0210732,0.714964,0.28026,0.00566244,0.747085,-0.0749826,0.0137892,2.47214,5,0.1,36,1.4,1.67244,2.29259,0.635296,0.531271,-0.315112,-0.0324592,-0.334024,0.198007,0.0204146,0.0104631,0.269758,5,0.1,37,1.4,0.368176,-4.03381,0.669452,-0.12233,0.813377,0.0068292,0.0211447,0.65434,-0.00116229,0.0106121,2.29505,5,0.1,38,1.4,-5.17758,-2.05497,0.61332,-0.0665784,0.246322,-0.0122696,0.0419617,-0.713468,0.0077188,0.0201896,0.866868,5,0.1,39,1.4,-3.57193,-2.61067,0.709189,0.866026,0.047332,0.0318363,0,-0.0146627,-0.00986457,0.01036,1.41017,5,0.1
0,1.5,-0.887399,1.63183,0.575474,0.718492,-0.417575,0.0184749,-0.567649,0.588402,-0.0260286,0.0202402,0.677369,5,0.1,1,1.5,3.63857,-5.41794,0.584182,-0.188311,0.0219226,0.0193391,0.528827,-0.00572205,-0.0051111,0.021501,0.159049,5,0.1,2,1.5,-0.0830109,-0.71373,0.63788,-0.514083,-0.324617,-0.0361681,0.559592,0.88302,-0.354297,0.0111116,2.90586,5,0.1,3,1.5,3.40008,-3.42642,0.592852,-0.714574,0.596216,0.00414941,-0.528678,-0.022769,-0.000178814,0.0469637,2.2195,5,0.1,4,1.5,-3.18172,4.46571,1.01052,0.030129,-0.679542,0.322278,-0.0190586,0.432968,-0.205413,0.0133443,0.268901,5,0.1,5,1.5,-4.19779,-2.61111,0.720483,0.425067,0.724142,0.0280204,-0.270993,-0.401273,-0.0178628,0.0130319,0.379468,5,0.1,6,1.5,-3.13605,5.84468,0.796395,0.866026,0.00207052,0.214494,0,-0.000208616,-0.00664964,0.0149568,2.24274,5,0.1,7,1.5,-0.389003,1.46588,0.640434,0.0139891,-0.361297,-0.0232806,0.0944789,-0.503756,-0.00419468,0.0264152,1.24268,5,0.1,8,1.5,-0.592784,-1.05268,0.58482,-0.0896637,0.489489,-0.0828351,0.778925,0.827868,0.0519194,0.0116182,2.80358,5,0.1,9,1.5,4.28363,1.50128,0.622591,-0.168005,0.00963956,-0.0406393,-0.152528,-0.0285506,0.0411458,0.00890595,0.17152,5,0.1,10,1.5,-1.35993,-0.224654,1.00655,0.00941865,0.355668,0.326048,-0.00604987,-0.226702,-0.207834,0.0239782,0.110575,5,0.1,11,1.5,-3.02756,2.33135,1.00287,0.0266213,0.210993,0.334929,-0.00943244,-0.0740439,-0.11757,0.0126276,0.123325,5,0.1,12,1.5,-0.920413,4.49325,1.05145,0.0193796,-0.705529,0.283433,-0.0123717,0.449747,-0.180684,0.0296026,0.274701,5,0.1,13,1.5,0.368365,-2.52618,0.575092,-0.492091,0.4046,0.0236463,0.313688,-0.257969,-0.0150576,0.0104861,0.19295,5,0.1,14,1.5,4.15205,-1.20474,0.716258,-0.044015,-0.0768296,-0.00953116,0.429749,0.0682473,-0.0981763,0.0249013,1.27998,5,0.1,15,1.5,-0.350403,-1.03075,0.758532,0.0770503,0.166331,0.180004,0.472222,0.0812039,0.121329,0.0112022,0.299682,5,0.1,16,1.5,-3.19389,1.78771,0.715921,0.691983,-0.273136,0.0323489,-0.291586,0.174135,-0.0206158,0.0149452,0.321863,5,0.1,17,1.5,0.455884,1.58596,0.61553,-0.290372,-0.141338,-0.0147415,0.185085,-0.0432208,0.00941753,0.00905039,0.609392,5,0.1,18,1.5,-0.189985,-1.12949,0.500003,-0.176795,-0.47725,6.53788e-05,-0.946859,-0.44249,0.00146776,0.0164121,1.6001,5,0.1,19,1.5,-0.384561,3.87741,0.793296,0.0811637,-0.203855,0.0471107,0.256214,0.394166,-0.216205,0.0210403,1.02116,5,0.1,20,1.5,0.974521,-3.25134,0.626554,0.661659,0.534297,-0.0109049,0.745721,-0.0267476,0.000543892,0.0142512,2.32075,5,0.1,21,1.5,0.618557,-0.857713,0.605279,0.290143,0.400833,-0.00501536,0.224337,-0.00991672,0.00323355,0.0121782,1.22553,5,0.1,22,1.5,1.09106,-0.270786,0.704976,-0.866025,-0.0498149,0.0125205,-1.49012e-05,0.000989065,-0.00026077,0.0104513,2.27023,5,0.1,23,1.5,-0.828888,-0.834639,0.591335,-0.204386,-0.190463,-0.139827,0.3458,1.30188,-0.193324,0.0120355,0.5611,5,0.1,24,1.5,0.23288,2.97872,0.613442,0.15605,-0.579433,-0.00138124,-0.326584,-1.50828,-0.00806525,0.0180146,2.61694,5,0.1,25,1.5,2.73979,-3.13812,0.585882,-0.866026,0.136713,-0.0155905,0,-0.414595,-0.0371784,0.0235627,2.33185,5,0.1,26,1.5,3.93009,-1.05021,1.01211,-0.0230741,0.865952,0.373758,0.00537932,-0.00290945,-0.0870936,0.0199381,1.70977,5,0.1,27,1.5,2.61829,-2.82215,0.661398,-0.240438,-0.387138,-0.0227238,0.238985,0.737667,0.0585429,0.0108404,0.206043,5,0.1,28,1.5,2.81336,-2.57025,0.60862,-0.691476,0.211105,-0.031714,-1.02466,0.0773966,0.0520721,0.0190233,2.45834,5,0.1,29,1.5,-2.45487,-2.87472,0.966305,0.855034,0.0225939,0.350841,-0.039503,-0.0121891,-0.190545,0.0240215,0.885219,5,0.1,30,1.5,-3.41496,-3.48216,0.774916,0.0368081,0.866026,0.184094,-0.00089407,0,-0.00423566,0.019033,2.24945,5,0.1,31,1.5,-0.227335,3.37703,0.606279,-0.093864,0.46541,-0.00684159,0.0539012,-0.312552,-0.0099726,0.00909539,0.156969,5,0.1,32,1.5,-0.866924,-1.04608,0.747057,0.331191,0.0400398,0.162276,-1.35787,-0.225991,0.256278,0.00826859,0.619032,5,0.1,33,1.5,-2.42823,4.14342,1.04614,0.0267927,-0.291437,0.28847,-0.0171214,0.0426173,-0.183865,0.0142272,0.117099,5,0.1,34,1.5,2.55975,-5.5779,0.574815,-0.436441,0.257913,0.0239126,0.278115,-0.0520051,-0.0152513,0.0205253,0.142691,5,0.1,35,1.5,1.99012,-2.11431,0.965303,-0.0206538,0.751291,0.274727,0.00376999,0.0537634,-0.0494532,0.0137892,2.47214,5,0.1,36,1.5,1.72411,2.26204,0.632149,0.503853,-0.296222,-0.0305124,-0.239298,0.188723,0.019446,0.0104631,0.269758,5,0.1,37,1.5,0.356008,-3.94995,0.670131,-0.12125,0.856648,0.00677025,0.00723638,0.231266,-0.000398606,0.0106121,2.29505,5,0.1,38,1.5,-5.18403,-2.03392,0.612131,-0.0625782,0.17581,-0.0115329,0.0399053,-0.656694,0.00736862,0.0201896,0.866868,5,0.1,39,1.5,-3.48576,-2.60601,0.712326,0.852745,0.0459522,0.0309079,-0.271797,-0.0146329,-0.00986084,0.01036,1.41017,5,0.1
0,1.6,-0.818442,1.59327,0.577192,0.659749,-0.351444,0.0158802,-0.621319,0.716746,-0.0259578,0.0200878,0.536375,5,0.1,1,1.6,3.62222,-5.41578,0.586083,-0.14081,0.021112,0.0186145,0.406504,-0.0112057,-0.00980496,0.0205646,0.203583,5,0.1,2,1.6,-0.131704,-0.741804,0.632377,-0.460277,-0.23749,-0.0744566,0.529416,0.84585,-0.387967,0.013851,2.64837,5,0.1,3,1.6,3.32603,-3.36703,0.593266,-0.764495,0.589728,0.00410229,-0.414133,-0.130296,-0.00089407,0.0456007,2.20755,5,0.1,4,1.6,-3.17881,4.40003,1.04168,0.0280678,-0.632846,0.300127,-0.0226498,0.514507,-0.244021,0.0123338,0.176719,5,0.1,5,1.6,-4.1567,-2.54082,0.723191,0.395858,0.680232,0.0260949,-0.322104,-0.493646,-0.0212193,0.0105848,0.253033,5,0.1,6,1.6,-3.04944,5.84488,0.81777,0.866026,0.0020504,0.212374,0,-0.000715256,-0.0443459,0.0166211,2.24394,5,0.1,7,1.6,-0.387148,1.42703,0.638089,0.0228554,-0.416297,-0.0235453,0.0796914,-0.543356,5.96046e-05,0.0253073,0.13088,5,0.1,8,1.6,-0.598116,-0.999295,0.576897,-0.019747,0.579193,-0.0747234,0.613302,0.887156,0.105709,0.0160198,2.49368,5,0.1,9,1.6,4.26589,1.5021,0.618739,-0.187838,0.00688434,-0.0363216,-0.216246,-0.0261664,0.0454485,0.00871667,0.114023,5,0.1,10,1.6,-1.35902,-0.190274,1.03806,0.00876784,0.331225,0.303641,-0.00721216,-0.269368,-0.247002,0.0221971,0.144355,5,0.1,11,1.6,-3.02495,2.35209,1.0358,0.0257015,0.203782,0.32348,-0.0101328,-0.0801086,-0.127256,0.0129583,0.156257,5,0.1,12,1.6,-0.91854,4.42506,1.07885,0.0180468,-0.657034,0.263953,-0.0146925,0.534296,-0.214696,0.030548,0.180559,5,0.1,13,1.6,0.320798,-2.48707,0.577378,-0.45827,0.376785,0.0220224,0.372708,-0.306487,-0.0179112,0.00905322,0.12682,5,0.1,14,1.6,4.14892,-1.21279,0.714934,-0.0260711,-0.0900328,-0.0158608,-0.0231266,-0.280499,-0.0326633,0.0264906,1.05906,5,0.1,15,1.6,-0.340305,-1.01415,0.777163,0.124597,0.161886,0.192446,0.454053,-0.151575,0.111192,0.0104365,0.564169,5,0.1,16,1.6,-3.12631,1.76131,0.719048,0.657588,-0.25436,0.0301257,-0.411749,0.206828,-0.0244975,0.0144849,0.213526,5,0.1,17,1.6,0.427815,1.57156,0.614105,-0.270417,-0.146827,-0.0137269,0.219926,-0.0541806,0.0111759,0.0101259,0.574687,5,0.1,18,1.6,-0.212409,-1.17919,0.500015,-0.270599,-0.513735,0.000135601,-0.883118,-0.261068,8.9407e-05,0.0175578,1.24106,5,0.1,19,1.6,-0.375151,3.85881,0.796981,0.106776,-0.169718,0.0271827,0.241026,0.298023,-0.180662,0.0212943,0.729069,5,0.1,20,1.6,1.04433,-3.19816,0.625469,0.732243,0.527894,-0.010775,0.60755,-0.12207,0.0025034,0.0128115,2.18093,5,0.1,21,1.6,0.64897,-0.817547,0.604794,0.319748,0.403014,-0.00466853,0.323921,0.0225902,0.0038147,0.0125241,0.972837,5,0.1,22,1.6,1.00446,-0.275753,0.706224,-0.866024,-0.049381,0.0124112,-2.98023e-05,0.00974536,-0.0025034,0.0111776,2.27029,5,0.1,23,1.6,-0.847186,-0.847171,0.576505,-0.158256,-0.061138,-0.155413,0.545651,1.24517,-0.111789,0.00929295,0.37612,5,0.1,24,1.6,0.246894,2.91359,0.613264,0.124653,-0.717831,-0.00216067,-0.300482,-1.19638,-0.00715256,0.0221464,2.36875,5,0.1,25,1.6,2.65319,-3.12609,0.584177,-0.866026,0.107706,-0.0181153,0,-0.184655,-0.0136793,0.00837621,0.972479,5,0.1,26,1.6,3.92781,-0.963652,1.04896,-0.0223517,0.864856,0.36208,0.00965595,-0.0233948,-0.157237,0.0171192,1.30033,5,0.1,27,1.6,2.59562,-2.85721,0.659416,-0.211376,-0.314337,-0.0169724,0.334024,0.713706,0.0557303,0.0110308,0.169018,5,0.1,28,1.6,2.73928,-2.54896,0.605714,-0.786722,0.212801,-0.0263676,-0.816703,-0.0437498,0.0542998,0.0158656,2.30251,5,0.1,29,1.6,-2.36977,-2.87252,1.00037,0.844103,0.0212312,0.329635,-0.209928,-0.015378,-0.240982,0.0224968,0.62301,5,0.1,30,1.6,-3.41129,-3.39556,0.793269,0.0364721,0.866026,0.182427,-0.00739098,0,-0.0365376,0.0179773,2.25027,5,0.1,31,1.6,-0.2365,3.42185,0.605534,-0.089727,0.42938,-0.00811219,0.0352859,-0.410557,-0.0139177,0.00829102,0.123378,5,0.1,32,1.6,-0.840706,-1.04321,0.764443,0.193132,0.017491,0.183961,-1.36185,-0.218391,0.167459,0.0134292,3.59658,5,0.1,33,1.6,-2.42564,4.11457,1.07402,0.0249505,-0.284612,0.268644,-0.0203848,0.102997,-0.218451,0.0140306,0.136519,5,0.1,34,1.6,2.51756,-5.55245,0.577126,-0.406456,0.25028,0.0222683,0.330567,-0.108004,-0.01809,0.0218076,0.163853,5,0.1,35,1.6,1.98808,-2.03959,0.992478,-0.0201464,0.737566,0.268026,0.00715256,-0.283897,-0.0942051,0.0111705,2.50515,5,0.1,36,1.6,1.77329,2.2334,0.629199,0.479135,-0.275868,-0.028415,-0.27287,0.224233,0.0230968,0.00961164,0.190023,5,0.1,37,1.6,0.343942,-3.86363,0.670805,-0.119726,0.866026,0.00668615,0.0280142,0,-0.00157952,0.010468,2.263,5,0.1,38,1.6,-5.19008,-2.01928,0.611016,-0.0582814,0.120813,-0.0107393,0.0474453,-0.424862,0.00876188,0.0189747,2.19723,5,0.1,39,1.6,-3.40233,-2.6015,0.71536,0.810933,0.0441134,0.0296712,-0.565529,-0.023365,-0.0156462,0.0103664,1.30273,5,0.1
0,1.7,-0.755081,1.56181,0.578669,0.611407,-0.277295,0.0138376,-0.384003,0.751644,-0.0159591,0.0200878,0.536375,5,0.1,1,1.7,3.61,-5.41372,0.587899,-0.106612,0.0200704,0.0177023,0.231132,-0.0103712,-0.00909343,0.0205646,0.203583,5,0.1,2,1.7,-0.175517,-0.761764,0.622822,-0.419546,-0.16609,-0.117589,0.314516,0.583488,-0.445604,0.013851,2.64837,5,0.1,3,1.7,3.2479,-3.30884,0.593643,-0.793892,0.572636,0.00320124,-0.154898,-0.223234,-0.0154711,0.0456007,2.20755,5,0.1,4,1.7,-3.17611,4.33919,1.07053,0.0259414,-0.584608,0.27725,-0.020653,0.467539,-0.221707,0.0123338,0.176719,5,0.1,5,1.7,-4.11865,-2.47513,0.7257,0.365665,0.634294,0.0241056,-0.292569,-0.44556,-0.0192821,0.0105848,0.253033,5,0.1,6,1.7,-2.96284,5.84509,0.838864,0.866026,0.00200346,0.209989,0,-0.000327826,-0.0154525,0.0166211,2.24394,5,0.1,7,1.7,-0.384465,1.38315,0.63573,0.0307176,-0.45676,-0.0236612,0.0742562,-0.261649,-0.00111759,0.0253073,0.13088,5,0.1,8,1.7,-0.597195,-0.936366,0.570006,0.0362809,0.682911,-0.0626786,0.500116,1.10082,0.131659,0.0160198,2.49368,5,0.1,9,1.7,4.24587,1.50266,0.615331,-0.213517,0.0043951,-0.0318574,-0.273228,-0.0233501,0.0440925,0.00871667,0.114023,5,0.1,10,1.7,-1.35817,-0.158278,1.06725,0.00809301,0.310418,0.280486,-0.00651926,-0.165696,-0.224382,0.0221971,0.144355,5,0.1,11,1.7,-3.02242,2.37239,1.06759,0.0248473,0.204584,0.312757,-0.00806153,0.0703037,-0.101358,0.0129583,0.156257,5,0.1,12,1.7,-0.916806,4.3619,1.10422,0.0166696,-0.606947,0.243827,-0.013344,0.485361,-0.195056,0.030548,0.180559,5,0.1,13,1.7,0.276746,-2.45085,0.579495,-0.423331,0.348054,0.0203433,0.338593,-0.278428,-0.0162721,0.00905322,0.12682,5,0.1,14,1.7,4.14553,-1.22309,0.713268,-0.0474833,-0.114869,-0.0167078,-0.360817,-0.211246,0.0120737,0.0264906,1.05906,5,0.1,15,1.7,-0.326689,-0.999579,0.796876,0.137908,0.122237,0.200791,-0.136081,-0.588574,0.0500865,0.0104365,0.564169,5,0.1,16,1.7,-3.06252,1.73686,0.721944,0.618621,-0.23497,0.027829,-0.387013,0.187911,-0.0222549,0.0144849,0.213526,5,0.1,17,1.7,0.401821,1.55686,0.612786,-0.2498,-0.145157,-0.0126797,0.199793,0.0737011,0.0101514,0.0101259,0.574687,5,0.1,18,1.7,-0.24403,-1.23188,0.500028,-0.362076,-0.539528,0.00011716,-0.899506,-0.225388,-0.000402331,0.0175578,1.24106,5,0.1,19,1.7,-0.36321,3.84333,0.798838,0.132249,-0.139968,0.0104391,0.25312,0.293776,-0.15248,0.0212943,0.729069,5,0.1,20,1.7,1.12077,-3.14579,0.6244,0.796599,0.520531,-0.0106238,0.620358,-0.0542998,0.00111759,0.0128115,2.18093,5,0.1,21,1.7,0.682602,-0.776889,0.604345,0.352624,0.411759,-0.00431119,0.308588,0.120163,0.00346079,0.0125241,0.972837,5,0.1,22,1.7,0.917857,-0.280661,0.707458,-0.866026,-0.0488984,0.0122853,0,0.00276789,-0.000730157,0.0111776,2.27029,5,0.1,23,1.7,-0.861213,-0.84745,0.560783,-0.130328,0.0513667,-0.155604,0.0615418,0.993915,0.0936501,0.00929295,0.37612,5,0.1,24,1.7,0.25793,2.83665,0.613011,0.0967992,-0.812565,-0.00289977,-0.25706,-0.689059,-0.00724941,0.0221464,2.36875,5,0.1,25,1.7,2.56839,-3.11718,0.582097,-0.813813,0.0628769,-0.0251336,0.964344,-0.651509,-0.112824,0.00837621,0.972479,5,0.1,26,1.7,3.92562,-0.877184,1.08444,-0.0214607,0.864727,0.347595,0.0089705,-0.010293,-0.145428,0.0171192,1.30033,5,0.1,27,1.7,2.57611,-2.88536,0.657975,-0.179327,-0.251615,-0.0120708,0.305325,0.543311,0.0420548,0.0110308,0.169018,5,0.1,28,1.7,2.65722,-2.52795,0.603343,-0.847379,0.206684,-0.0210973,-0.390589,-0.0822842,0.0508241,0.0158656,2.30251,5,0.1,29,1.7,-2.28628,-2.87047,1.03219,0.826141,0.0197817,0.306957,-0.184953,-0.0142008,-0.221878,0.0224968,0.62301,5,0.1,30,1.7,-3.40767,-3.30895,0.811398,0.0360947,0.866026,0.180572,-0.00227988,0,-0.0110902,0.0179773,2.25027,5,0.1,31,1.7,-0.245371,3.46259,0.604602,-0.0882711,0.384172,-0.0109652,0.00109058,-0.48925,-0.0391081,0.00829102,0.123378,5,0.1,32,1.7,-0.825814,-1.04195,0.78329,0.12562,0.0128884,0.189425,-0.105284,0.0943393,-0.0462681,0.0134292,3.59658,5,0.1,33,1.7,-2.42323,4.0864,1.09998,0.0233877,-0.280507,0.251886,-0.0123531,0.00178814,-0.132471,0.0140306,0.136519,5,0.1,34,1.7,2.47849,-5.52782,0.579267,-0.375468,0.243347,0.0205722,0.300288,-0.0463426,-0.0164434,0.0218076,0.163853,5,0.1,35,1.7,1.9861,-1.96787,1.0189,-0.0196107,0.69484,0.260989,0.00458956,-0.422299,-0.0601076,0.0111705,2.50515,5,0.1,36,1.7,1.81999,2.20688,0.626468,0.455763,-0.254845,-0.0262499,-0.214703,0.203773,0.0209808,0.00961164,0.190023,5,0.1,37,1.7,0.332064,-3.77702,0.671468,-0.118122,0.866026,0.00659507,0.0108611,0,-0.000618398,0.010468,2.263,5,0.1,38,1.7,-5.19568,-2.00911,0.609827,-0.0538342,0.0877261,-0.014363,0.0430644,-0.128031,-0.0710636,0.0189747,2.19723,5,0.1,39,1.7,-3.32495,-2.5972,0.718253,0.729225,0.0419155,0.0281984,-1.01721,-0.0220239,-0.0147596,0.0103664,1.30273,5,0.1
0,1.8,-0.695727,1.53779,0.579983,0.576262,-0.203684,0.0125021,-0.347227,0.709474,-0.0116229,0.0189646,0.331209,5,0.1,1,1.8,3.6,-5.41177,0.58962,-0.0981033,0.0189066,0.0166863,-0.0500679,-0.013113,-0.0117123,0.0213157,0.143088,5,0.1,2,1.8,-0.216056,-0.775873,0.608934,-0.392246,-0.120144,-0.158644,0.253462,0.340641,-0.355244,0.00992312,0.787022,5,0.1,3,1.8,3.16828,-3.25292,0.593873,-0.792539,0.543237,0.00130534,0.192285,-0.371337,-0.0211596,0.0426756,2.05579,5,0.1,4,1.8,-3.17362,4.28311,1.09712,0.0238061,-0.536442,0.254405,-0.0224113,0.50807,-0.240684,0.0133105,0.116597,5,0.1,5,1.8,-4.08357,-2.41398,0.728012,0.335526,0.587684,0.0221208,-0.317574,-0.500679,-0.0209808,0.0111456,0.168518,5,0.1,6,1.8,-2.87624,5.84528,0.859752,0.866026,0.00196695,0.207217,0,-0.000715256,-0.0484884,0.0132958,2.24531,5,0.1,7,1.8,-0.381053,1.33665,0.633364,0.0371486,-0.468177,-0.0235543,0.0520945,0.0335574,0.00414252,0.0082756,0.284275,5,0.1,8,1.8,-0.591301,-0.862801,0.564415,0.0791311,0.784457,-0.0490278,0.352681,0.867426,0.138491,0.0119859,2.31972,5,0.1,9,1.8,4.22322,1.50299,0.612365,-0.238335,0.00225902,-0.0274658,-0.205517,-0.0191331,0.0438988,0.00945022,0.0993617,5,0.1,10,1.8,-1.3574,-0.128021,1.09416,0.00742376,0.294808,0.257373,-0.00709295,-0.160347,-0.243664,0.0230847,0.181157,5,0.1,11,1.8,-3.01998,2.39327,1.09831,0.0238955,0.213337,0.300813,-0.0118017,0.0853539,-0.147343,0.0131851,0.116155,5,0.1,12,1.8,-0.915206,4.30367,1.12761,0.0152946,-0.556934,0.223732,-0.0144541,0.526905,-0.211775,0.027469,0.119141,5,0.1,13,1.8,0.236133,-2.41746,0.581446,-0.388446,0.319368,0.0186667,0.367634,-0.302315,-0.0176728,0.00837539,0.162059,5,0.1,14,1.8,4.13872,-1.23549,0.711707,-0.0903726,-0.131479,-0.0141099,-0.463009,-0.117958,0.0368953,0.0255914,0.965093,5,0.1,15,1.8,-0.3142,-0.99066,0.817068,0.106728,0.0535935,0.201575,-0.445783,-0.742912,-0.0376105,0.0120939,0.307851,5,0.1,16,1.8,-3.00269,1.71432,0.724613,0.576937,-0.215611,0.0255376,-0.459552,0.204086,-0.0241995,0.0171492,0.141262,5,0.1,17,1.8,0.377856,1.54283,0.611569,-0.229216,-0.134447,-0.0116348,0.216931,0.130832,0.0110269,0.00937576,1.05244,5,0.1,18,1.8,-0.284446,-1.2867,0.500037,-0.442477,-0.55387,6.4075e-05,-0.675187,-0.0414252,-0.000625849,0.0148335,0.914361,5,0.1,19,1.8,-0.348802,3.83077,0.799178,0.154777,-0.111526,-0.0030309,0.186548,0.272751,-0.115901,0.0074123,0.52458,5,0.1,20,1.8,1.20316,-3.09409,0.623345,0.84655,0.512064,-0.0104502,0.340283,-0.13566,0.00280142,0.0118383,2.12925,5,0.1,21,1.8,0.719214,-0.735167,0.603932,0.377232,0.421514,-0.00395477,0.166297,0.0517368,0.00375509,0.0139364,0.143578,5,0.1,22,1.8,0.831255,-0.28553,0.708681,-0.866026,-0.0483371,0.0121415,0,0.0104606,-0.00265241,0.0108006,2.27035,5,0.1,23,1.8,-0.874407,-0.837832,0.545932,-0.137261,0.135943,-0.139323,-0.161976,0.691533,0.219911,0.0195912,2.26123,5,0.1,24,1.8,0.266394,2.7528,0.612688,0.0731491,-0.856161,-0.00354797,-0.216395,-0.197291,-0.00539422,0.0187574,2.27676,5,0.1,25,1.8,2.49288,-3.11451,0.57895,-0.687736,-0.0118613,-0.0382289,1.49131,-0.796199,-0.138462,0.00754695,0.314394,5,0.1,26,1.8,3.92352,-0.79098,1.1184,-0.0204265,0.856352,0.330812,0.0122786,-0.190556,-0.19902,0.0168046,1.05085,5,0.1,27,1.8,2.55964,-2.90807,0.656955,-0.150502,-0.204897,-0.00857413,0.271082,0.396252,0.0280738,0.0124368,0.265335,5,0.1,28,1.8,2.57122,-2.50778,0.60148,-0.866026,0.195771,-0.0162527,0,-0.138164,0.0458658,0.0171787,2.25716,5,0.1,29,1.8,-2.20479,-2.86857,1.06174,0.801116,0.0182867,0.283697,-0.340104,-0.015974,-0.249684,0.0249814,0.428612,5,0.1,30,1.8,-3.40408,-3.22235,0.829372,0.0356615,0.866026,0.178413,-0.00798702,0,-0.0396073,0.0171212,2.25119,5,0.1,31,1.8,-0.2542,3.49847,0.603295,-0.0882514,0.332391,-0.015223,0.00464916,-0.541806,-0.0429451,0.00841997,0.16494,5,0.1,32,1.8,-0.812499,-1.03989,0.801731,0.151081,0.0306278,0.176944,0.521451,0.23514,-0.19294,0.0145015,3.06361,5,0.1,33,1.8,-2.42095,4.05834,1.12454,0.0222266,-0.280333,0.239426,-0.0118017,0.0178814,-0.12821,0.0136647,0.0833823,5,0.1,34,1.8,2.44247,-5.50372,0.581241,-0.344521,0.238311,0.0188783,0.325918,-0.0655651,-0.0178814,0.0210226,0.135168,5,0.1,35,1.8,1.98416,-1.9,1.04466,-0.0190526,0.66787,0.253689,0.00715256,-0.117779,-0.0954866,0.012324,2.46943,5,0.1,36,1.8,1.86445,2.18243,0.623949,0.432765,-0.233853,-0.0240877,-0.25934,0.221372,0.0227988,0.0121225,0.579022,5,0.1,37,1.8,0.320323,-3.69042,0.672124,-0.116388,0.866026,0.00649691,0.0286549,0,-0.00160933,0.0116033,2.26343,5,0.1,38,1.8,-5.20085,-2,0.607973,-0.0494003,0.104135,-0.0231475,0.04673,0.436544,-0.0967085,0.01965,2.33256,5,0.1,39,1.8,-3.25751,-2.59313,0.720994,0.616521,0.0394762,0.0265598,-1.19829,-0.0277758,-0.0186563,0.0108006,1.21577,5,0.1
0,1.9,-0.639549,1.5208,0.581186,0.549383,-0.13793,0.0116472,-0.220932,0.601545,-0.00630692,0.0189646,0.331209,5,0.1,1,1.9,3.58944,-5.40995,0.59123,-0.116993,0.0175744,0.0154999,-0.289664,-0.0138879,-0.0123344,0.0213157,0.143088,5,0.1,2,1.9,-0.252583,-0.786022,0.591979,-0.326086,-0.0816171,-0.174266,0.986875,0.413951,0.0165813,0.00992312,0.787022,5,0.1,3,1.9,3.09057,-3.20032,0.593857,-0.75613,0.509528,-0.0019554,0.524983,-0.321433,-0.0408888,0.0426756,2.05579,5,0.1,4,1.9,-3.17135,4.23186,1.12143,0.0217263,-0.489372,0.232104,-0.0198334,0.447929,-0.21223,0.0133105,0.116597,5,0.1,5,1.9,-4.05152,-2.35758,0.730125,0.306106,0.541397,0.0201776,-0.279993,-0.442147,-0.0184812,0.0111456,0.168518,5,0.1,6,1.9,-2.78964,5.84548,0.880313,0.866026,0.00192299,0.204495,0,-0.000268221,-0.017859,0.0132958,2.24531,5,0.1,7,1.9,-0.376415,1.29036,0.631202,0.061098,-0.454294,-0.0182347,0.381669,0.239424,0.0921413,0.0082756,0.284275,5,0.1,8,1.9,-0.581742,-0.780807,0.560207,0.11069,0.847513,-0.0351671,0.272036,0.394903,0.136308,0.0119859,2.31972,5,0.1,9,1.9,4.19823,1.50312,0.60983,-0.261893,0.00046324,-0.0233211,-0.241071,-0.0165179,0.0393093,0.00945022,0.0993617,5,0.1,10,1.9,-1.35669,-0.0989713,1.11887,0.0068672,0.289095,0.238231,-0.00445545,0.0156303,-0.153922,0.0230847,0.181157,5,0.1,11,1.9,-3.01765,2.41472,1.12768,0.0227492,0.212753,0.286485,-0.0118166,-0.0887215,-0.148177,0.0131851,0.116155,5,0.1,12,1.9,-0.913745,4.25047,1.14898,0.0139552,-0.508117,0.204112,-0.0127442,0.464588,-0.186704,0.027469,0.119141,5,0.1,13,1.9,0.19887,-2.38695,0.583229,-0.358831,0.291359,0.0170295,0.245102,-0.266522,-0.0155829,0.00837539,0.162059,5,0.1,14,1.9,4.12712,-1.24888,0.710514,-0.143272,-0.133428,-0.00947369,-0.561595,0.0595376,0.0531338,0.0255914,0.965093,5,0.1,15,1.9,-0.305891,-0.989159,0.837303,0.0585596,-0.0242377,0.205191,-0.499606,-0.783905,0.0860207,0.0120939,0.307851,5,0.1,16,1.9,-2.94717,1.69372,0.727053,0.534006,-0.196703,0.0232961,-0.415355,0.179932,-0.0213236,0.0171492,0.141262,5,0.1,17,1.9,0.35596,1.53029,0.610458,-0.209118,-0.114948,-0.0106137,0.191256,0.215128,0.00971556,0.00937576,1.05244,5,0.1,18,1.9,-0.332039,-1.3423,0.50004,-0.508131,-0.55751,7.54371e-06,-0.601599,-0.0077635,-0.000495464,0.0148335,0.914361,5,0.1,19,1.9,-0.333051,3.82175,0.798484,0.154431,-0.0625405,-0.0091874,-0.163602,0.654265,-0.0157021,0.0074123,0.52458,5,0.1,20,1.9,1.28893,-3.04336,0.62231,0.864193,0.50377,-0.0102783,0.0609979,-0.0591576,0.00122935,0.0118383,2.12925,5,0.1,21,1.9,0.757123,-0.693058,0.603274,0.375012,0.417676,-0.0115608,-0.190251,-0.127986,-0.137966,0.0139364,0.143578,5,0.1,22,1.9,0.744652,-0.290331,0.709886,-0.866026,-0.0478036,0.0120056,3.72529e-06,0.00305101,-0.000778586,0.0108006,2.27035,5,0.1,23,1.9,-0.889119,-0.822958,0.5332,-0.158197,0.142581,-0.114486,-0.235207,-0.44788,0.269312,0.0195912,2.26123,5,0.1,24,1.9,0.272702,2.66658,0.612305,0.0537469,-0.865409,-0.00409279,-0.172734,-0.0246614,-0.00516325,0.0187574,2.27676,5,0.1,25,1.9,2.43139,-3.11985,0.574302,-0.543784,-0.0958439,-0.0556849,1.38016,-0.847295,-0.196442,0.00754695,0.314394,5,0.1,26,1.9,3.92154,-0.707218,1.15054,-0.0192855,0.811208,0.312326,0.0112206,-0.654131,-0.181384,0.0168046,1.05085,5,0.1,27,1.9,2.54587,-2.9271,0.656205,-0.125715,-0.180287,-0.00672117,0.227556,0.125527,0.0105947,0.0124368,0.265335,5,0.1,28,1.9,2.48462,-2.48887,0.600073,-0.866026,0.182452,-0.0119889,0,-0.133142,0.0393391,0.0171787,2.25716,5,0.1,29,1.9,-2.12626,-2.86682,1.08893,0.769882,0.0167992,0.260485,-0.31361,-0.0142604,-0.222407,0.0249814,0.428612,5,0.1,30,1.9,-3.40054,-3.13575,0.847086,0.0352386,0.866026,0.176326,-0.0025481,0,-0.0125505,0.0171212,2.25119,5,0.1,31,1.9,-0.262939,3.52904,0.601485,-0.0859053,0.279397,-0.0215404,0.0416674,-0.517607,-0.0768974,0.00841997,0.16494,5,0.1,32,1.9,-0.794301,-1.03529,0.818329,0.216344,0.0641339,0.153889,0.731472,0.403896,-0.261061,0.0145015,3.06361,5,0.1,33,1.9,-2.41878,4.03048,1.14791,0.0212222,-0.275958,0.228507,-0.00923872,0.0753105,-0.100464,0.0136647,0.0833823,5,0.1,34,1.9,2.40956,-5.48048,0.583044,-0.314324,0.223903,0.0172218,0.287399,-0.213087,-0.0157654,0.0210226,0.135168,5,0.1,35,1.9,1.98228,-1.83265,1.06965,-0.018521,0.688205,0.246601,0.00447035,0.428706,-0.0593737,0.012324,2.46943,5,0.1,36,1.9,1.90701,2.16009,0.621648,0.423076,-0.213343,-0.0219757,0.019528,0.19519,0.0201017,0.0121225,0.579022,5,0.1,37,1.9,0.30878,-3.60382,0.672768,-0.114788,0.866026,0.00640666,0.0101645,0,-0.00057742,0.0116033,2.26343,5,0.1,38,1.9,-5.20557,-1.9867,0.605114,-0.0450701,0.167746,-0.0344323,0.0411868,0.78731,-0.12131,0.01965,2.33256,5,0.1,39,1.9,-3.20212,-2.58931,0.723561,0.490337,0.0368822,0.0248171,-1.26001,-0.0252873,-0.0169873,0.0108006,1.21577,5,0.1
0,2,-0.585712,1.50981,0.582322,0.526819,-0.083977,0.0110939,-0.252306,0.475347,-0.00536442,0.0195111,0.329588,5,0.1,1,2,3.57616,-5.40826,0.592715,-0.149369,0.0160813,0.014171,-0.329137,-0.0164509,-0.0145137,0.0196524,0.180275,5,0.1,2,2,-0.279611,-0.792101,0.57507,-0.209705,-0.0401616,-0.160135,1.27529,0.403017,0.24417,0.0146114,2.67228,5,0.1,3,2,3.01806,-3.15102,0.593446,-0.689793,0.475812,-0.00631213,0.790238,-0.365973,-0.0438392,0.0442074,1.76178,5,0.1,4,2,-3.16927,4.18516,1.14358,0.0197351,-0.4444,0.210786,-0.020504,0.462055,-0.218809,0.0119459,0.133333,5,0.1,5,2,-4.0223,-2.30567,0.732051,0.277996,0.49637,0.018321,-0.288725,-0.470161,-0.0190139,0.00957494,0.112507,5,0.1,6,2,-2.70303,5.84567,0.900644,0.866026,0.00188351,0.201608,0,-0.000476837,-0.0483096,0.0131956,2.24668,5,0.1,7,2,-0.36816,1.24643,0.629915,0.105479,-0.421324,-0.00693202,0.47116,0.414252,0.126004,0.00729243,0.177483,5,0.1,8,2,-0.569489,-0.694799,0.557351,0.132504,0.866026,-0.0221863,0.160336,0,0.121474,0.0161926,2.25991,5,0.1,9,2,4.17094,1.50309,0.607689,-0.282395,-0.000995398,-0.0195548,-0.151157,-0.0125766,0.0362992,0.00900105,0.129745,5,0.1,10,2,-1.35602,-0.0698987,1.14197,0.00645816,0.292619,0.224027,-0.00405312,0.032168,-0.140965,0.0214996,0.15033,5,0.1,11,2,-3.01544,2.43532,1.15552,0.02141,0.197184,0.26969,-0.0154972,-0.215054,-0.193655,0.0122851,0.261655,5,0.1,12,2,-0.912413,4.20197,1.16846,0.0126749,-0.461459,0.185359,-0.0131428,0.479221,-0.192463,0.0265737,0.136235,5,0.1,13,2,0.164148,-2.35914,0.584855,-0.335882,0.264597,0.0154644,0.22886,-0.274897,-0.0160635,0.00933864,0.116151,5,0.1,14,2,4.11004,-1.26176,0.709841,-0.196898,-0.122902,-0.00396073,-0.486374,0.13721,0.0550747,0.0270915,1.02062,5,0.1,15,2,-0.3025,-0.995368,0.858295,0.00994876,-0.0980392,0.21462,-0.459209,-0.670403,0.0848472,0.0299159,2.87182,5,0.1,16,2,-2.89589,1.67495,0.729276,0.491124,-0.178635,0.0211552,-0.453115,0.185609,-0.0219941,0.0165269,0.189312,5,0.1,17,2,0.336004,1.51974,0.609445,-0.18991,-0.0979483,-0.00963807,0.197232,0.103474,0.0100136,0.01197,1.61579,5,0.1,18,2,-0.385495,-1.39788,0.500039,-0.55669,-0.551483,-3.57628e-05,-0.344844,0.144184,-0.000357628,0.0138579,0.643517,5,0.1,19,2,-0.3188,3.81904,0.797594,0.127469,0.00997186,-0.00769645,-0.351354,0.755429,0.0386834,0.00805438,0.387854,5,0.1,20,2,1.37549,-2.99335,0.62129,0.866026,0.495279,-0.010103,0,-0.131249,0.00268221,0.0124156,2.15093,5,0.1,21,2,0.793226,-0.652221,0.601316,0.343025,0.396205,-0.0283673,-0.431538,-0.299037,-0.184268,0.0119412,0.0928829,5,0.1,22,2,0.65805,-0.295089,0.711081,-0.866026,-0.0472397,0.0118628,0,0.0102222,-0.002563,0.0109299,2.27042,5,0.1,23,2,-0.906091,-0.812065,0.523128,-0.180571,0.0662968,-0.0868127,-0.196427,-0.989437,0.278145,0.0185357,1.8382,5,0.1,24,2,0.277278,2.57999,0.611873,0.0383928,-0.866026,-0.00452399,-0.135347,0,-0.00324845,0.0196395,2.27205,5,0.1,25,2,2.38368,-3.13351,0.567752,-0.413024,-0.175077,-0.0750408,1.22952,-0.711203,-0.180155,0.00759808,0.220497,5,0.1,26,2,3.91967,-0.629762,1.18083,-0.0180721,0.734927,0.292736,0.0134706,-0.835687,-0.217795,0.0169344,0.855924,5,0.1,27,2,2.53438,-2.94475,0.655567,-0.104487,-0.17454,-0.00616759,0.199318,0.0122786,0.00169873,0.0149064,0.193572,5,0.1,28,2,2.39801,-2.47132,0.59906,-0.866026,0.168324,-0.00839531,0,-0.152707,0.0324845,0.0163092,0.178396,5,0.1,29,2,-2.05099,-2.86521,1.11386,0.733513,0.0153482,0.237894,-0.433564,-0.0151396,-0.234783,0.0224119,0.447295,5,0.1,30,2,-3.39703,-3.04915,0.864631,0.0347972,0.866026,0.17412,-0.00786781,0,-0.0389814,0.0167935,2.25964,5,0.1,31,2,-0.271265,3.55443,0.598935,-0.0800632,0.228995,-0.0294626,0.074327,-0.489712,-0.0766516,0.00881806,0.168863,5,0.1,32,2,-0.769017,-1.02679,0.832349,0.288254,0.10595,0.126031,0.6679,0.408888,-0.290245,0.0153759,2.68695,5,0.1,33,2,-2.41671,4.00339,1.17024,0.0202119,-0.264382,0.217578,-0.0115633,0.159025,-0.125229,0.0137557,0.217529,5,0.1,34,2,2.37956,-5.45934,0.584687,-0.285459,0.197482,0.0156388,0.296354,-0.307322,-0.0162721,0.0209411,0.227572,5,0.1,35,2,1.98046,-1.76143,1.09398,-0.0179917,0.736856,0.239575,0.00679493,0.472605,-0.0903606,0.0111738,2.31533,5,0.1,36,2,1.94957,2.13973,0.619551,0.428623,-0.193745,-0.0199571,0.0571012,0.201344,0.0207126,0.00954494,0.166823,5,0.1,37,2,0.297367,-3.51722,0.673405,-0.113191,0.866026,0.0063166,0.0265688,0,-0.00146031,0.0111012,2.2638,5,0.1,38,2,-5.20987,-1.96575,0.601076,-0.0409365,0.25253,-0.0460759,0.0424385,0.865996,-0.105888,0.0198573,2.43375,5,0.1,39,2,-3.15908,-2.58575,0.725956,0.374508,0.034225,0.0230283,-1.02198,-0.0288486,-0.0193417,0.0101712,1.12227,5,0.1
0,2.1,-0.534116,1.50359,0.583411,0.50625,-0.0426335,0.0107215,-0.183538,0.346027,-0.00274554,0.0195111,0.329588,5,0.1,1,2.1,3.55933,-5.40674,0.594058,-0.188963,0.0143826,0.0126746,-0.430718,-0.0175238,-0.0154488,0.0196524,0.180275,5,0.1,2,2.1,-0.295269,-0.795233,0.560151,-0.113165,-0.0322304,-0.139313,0.692127,-0.18375,0.179164,0.0146114,2.67228,5,0.1,3,2.1,2.95291,-3.10467,0.592583,-0.613936,0.455839,-0.0110055,0.737578,-0.0787228,-0.0476576,0.0442074,1.76178,5,0.1,4,2.1,-3.16739,4.14269,1.16372,0.0181098,-0.407833,0.193469,-0.0131279,0.294805,-0.139624,0.0119459,0.133333,5,0.1,5,2.1,-3.99586,-2.25824,0.733793,0.251488,0.45318,0.0165753,-0.249118,-0.407934,-0.0164062,0.00957494,0.112507,5,0.1,6,2.1,-2.61643,5.84586,0.920644,0.866026,0.00185966,0.198902,0,-0.000119209,-0.0175014,0.0131956,2.24668,5,0.1,7,2.1,-0.355242,1.20612,0.629893,0.152503,-0.38686,0.00673812,0.449693,0.29511,0.141203,0.00729243,0.177483,5,0.1,8,2.1,-0.555495,-0.608196,0.555725,0.146644,0.866026,-0.0105541,0.115901,-3.72529e-06,0.109337,0.0161926,2.25991,5,0.1,9,2.1,4.14182,1.50294,0.605908,-0.300863,-0.00206847,-0.0161178,-0.193775,-0.00884384,0.0325218,0.00900105,0.129745,5,0.1,10,2.1,-1.35539,-0.0405956,1.16366,0.00604149,0.292112,0.20953,-0.00438839,-0.0474239,-0.153005,0.0214996,0.15033,5,0.1,11,2.1,-3.01337,2.45378,1.18153,0.0198755,0.170333,0.250483,-0.0156313,-0.311509,-0.196055,0.0122851,0.261655,5,0.1,12,2.1,-0.911202,4.15787,1.18618,0.0116347,-0.423537,0.170128,-0.00838563,0.305712,-0.122793,0.0265737,0.136235,5,0.1,13,2.1,0.131547,-2.33398,0.586325,-0.317283,0.239359,0.0139897,0.159461,-0.237182,-0.0138544,0.00933864,0.116151,5,0.1,14,2.1,4.08772,-1.27318,0.709728,-0.250669,-0.104543,0.00172388,-0.553608,0.196777,0.056617,0.0270915,1.02062,5,0.1,15,2.1,-0.302226,-1.00936,0.879847,0.00909599,-0.188113,0.213329,0.356378,-1.05416,-0.100732,0.0299159,2.87182,5,0.1,16,2.1,-2.84876,1.65796,0.731288,0.453652,-0.161595,0.0191363,-0.319868,0.160135,-0.0189692,0.0165269,0.189312,5,0.1,17,2.1,0.31794,1.51038,0.608528,-0.171802,-0.0926102,-0.00871895,0.170181,-0.0839606,0.00863895,0.01197,1.61579,5,0.1,18,2.1,-0.442824,-1.45233,0.500034,-0.588517,-0.537354,-6.15604e-05,-0.262989,0.157677,-0.000167638,0.0138579,0.643517,5,0.1,19,2.1,-0.307885,3.82393,0.79702,0.0903329,0.088197,-0.00378834,-0.381017,0.778079,0.0387691,0.00805438,0.387854,5,0.1,20,2.1,1.46208,-2.9447,0.620294,0.865753,0.475393,-0.00978708,-0.0108927,-0.268131,0.00386685,0.0124156,2.15093,5,0.1,21,2.1,0.825081,-0.614194,0.597769,0.291607,0.363329,-0.040608,-0.579443,-0.359241,-0.0672974,0.0119412,0.0928829,5,0.1,22,2.1,0.571447,-0.299781,0.71226,-0.866026,-0.046732,0.0117361,1.78814e-06,0.00273995,-0.000681728,0.0109299,2.27042,5,0.1,23,2.1,-0.925184,-0.81126,0.515717,-0.20142,-0.0568549,-0.062557,-0.203915,-1.39071,0.209581,0.0185357,1.8382,5,0.1,24,2.1,0.280501,2.49339,0.611404,0.026642,-0.866026,-0.00485815,-0.100894,0,-0.00312179,0.0196395,2.27205,5,0.1,25,2.1,2.34778,-3.15436,0.5594,-0.311835,-0.239467,-0.091329,0.820622,-0.561073,-0.140369,0.00759808,0.220497,5,0.1,26,2.1,3.91793,-0.56072,1.20907,-0.0168234,0.645727,0.272557,0.0120699,-0.855651,-0.194691,0.0169344,0.855924,5,0.1,27,2.1,2.52472,-2.96254,0.654923,-0.0905767,-0.184332,-0.00702413,0.0903606,-0.176355,-0.0163205,0.0149064,0.193572,5,0.1,28,2.1,2.31191,-2.45531,0.598372,-0.851111,0.151212,-0.00545699,0.301704,-0.187621,0.0262782,0.0163092,0.178396,5,0.1,29,2.1,-1.97952,-2.86374,1.13654,0.697721,0.0139523,0.216268,-0.316069,-0.0131875,-0.204325,0.0224119,0.447295,5,0.1,30,2.1,-3.39358,-2.96255,0.881919,0.0343885,0.865797,0.1721,-0.00236928,-0.00914931,-0.0116788,0.0167935,2.25964,5,0.1,31,2.1,-0.278831,3.57535,0.595697,-0.0706623,0.193559,-0.0344315,0.110423,-0.243247,-0.0250302,0.00881806,0.168863,5,0.1,32,2.1,-0.736844,-1.01394,0.843666,0.354452,0.152435,0.101774,0.623681,0.490714,-0.201456,0.0153759,2.68695,5,0.1,33,2.1,-2.41475,3.97803,1.19133,0.0189334,-0.240321,0.203755,-0.0142157,0.310123,-0.153489,0.0137557,0.217529,5,0.1,34,2.1,2.35228,-5.44124,0.586182,-0.262005,0.163651,0.0143509,0.189111,-0.360847,-0.0103861,0.0209411,0.227572,5,0.1,35,2.1,1.97868,-1.68502,1.11758,-0.0174901,0.793198,0.232923,0.00416487,0.5868,-0.055179,0.0111738,2.31533,5,0.1,36,2.1,1.99254,2.12131,0.617653,0.428867,-0.17526,-0.0180553,-0.060007,0.173703,0.0178702,0.00954494,0.166823,5,0.1,37,2.1,0.286133,-3.43061,0.674032,-0.111802,0.866026,0.0062407,0.00795163,0,-0.000428408,0.0111012,2.2638,5,0.1,38,2.1,-5.21376,-1.93663,0.595926,-0.0370398,0.327821,-0.0568955,0.0365973,0.731774,-0.10464,0.0198573,2.43375,5,0.1,39,2.1,-3.1263,-2.58247,0.728167,0.287314,0.031554,0.0212358,-0.659257,-0.0255704,-0.0171661,0.0101712,1.12227,5,0.1
0,2.2,-0.484459,1.50082,0.584469,0.485939,-0.0152618,0.0104323,-0.239953,0.20206,-0.00354648,0.0176399,0.523864,5,0.1,1,2.2,3.53832,-5.40539,0.595247,-0.229961,0.0125766,0.011079,-0.365853,-0.0185966,-0.0164509,0.0206646,0.116234,5,0.1,2,2.2,-0.303838,-0.799931,0.547055,-0.0645772,-0.0660583,-0.123096,0.310019,-0.444949,0.150323,0.0135231,2.32982,5,0.1,3,2.2,2.89519,-3.05931,0.591254,-0.540501,0.452149,-0.0154376,0.738025,-0.0287294,-0.0392199,0.0433005,1.4364,5,0.1,4,2.2,-3.16564,4.10328,1.18242,0.0169098,-0.381005,0.18076,-0.0115633,0.260592,-0.123501,0.0109546,0.227935,5,0.1,5,2.2,-3.97195,-2.21495,0.73537,0.226867,0.412351,0.0149533,-0.248671,-0.418663,-0.0163913,0.00994454,0.15939,5,0.1,6,2.2,-2.52983,5.84604,0.940419,0.866026,0.00183582,0.196111,0,-0.000238419,-0.0466108,0.0123978,2.24799,5,0.1,7,2.2,-0.337911,1.16885,0.631256,0.192086,-0.358829,0.0202328,0.328273,0.280023,0.124127,0.00824876,0.177707,5,0.1,8,2.2,-0.540368,-0.521594,0.555183,0.154614,0.866026,-0.000627339,0.0393391,0,0.0879467,0.0156904,2.25754,5,0.1,9,2.2,4.11086,1.50269,0.604453,-0.316966,-0.00276268,-0.0130355,-0.110626,-0.00500679,0.0292063,0.00981934,0.0766742,5,0.1,10,2.2,-1.35481,-0.0117861,1.1838,0.00556111,0.282362,0.192779,-0.00530481,-0.150188,-0.184536,0.0220696,0.266066,5,0.1,11,2.2,-3.01147,2.46917,1.20556,0.0182092,0.136793,0.229567,-0.0178814,-0.351071,-0.225723,0.0131862,0.253111,5,0.1,12,2.2,-0.910077,4.11694,1.20262,0.0108719,-0.395715,0.158951,-0.00745058,0.270367,-0.1086,0.0271011,0.230504,5,0.1,13,2.2,0.100611,-2.31121,0.587656,-0.301185,0.215918,0.0126198,0.174221,-0.23675,-0.0138581,0.00833071,0.143406,5,0.1,14,2.2,4.06002,-1.28276,0.710172,-0.301528,-0.0884652,0.00701696,-0.437975,0.108719,0.0478327,0.0241951,0.744386,5,0.1,15,2.2,-0.298771,-1.03355,0.900439,0.0658773,-0.295386,0.196353,0.71159,-1.03343,-0.229925,0.03083,2.3246,5,0.1,16,2.2,-2.80493,1.64259,0.733108,0.42308,-0.145769,0.0172615,-0.308752,0.15986,-0.0189245,0.017252,0.253163,5,0.1,17,2.2,0.301601,1.5,0.607699,-0.15498,-0.121769,-0.00786483,0.169918,-0.482321,0.00861287,0.0106567,3.25715,5,0.1,18,2.2,-0.502664,-1.50513,0.500027,-0.604507,-0.516734,-7.15256e-05,-0.0377595,0.267625,-2.98023e-05,0.0136003,0.438379,5,0.1,19,2.2,-0.300735,3.83647,0.79683,0.0530861,0.160253,-7.15256e-05,-0.356078,0.640869,0.0349879,0.00751607,0.334264,5,0.1,20,2.2,1.54852,-2.89874,0.619338,0.861669,0.441545,-0.00929087,-0.087142,-0.408053,0.00616908,0.0130261,2.17446,5,0.1,21,2.2,0.85122,-0.57976,0.593519,0.230294,0.324342,-0.0430763,-0.632554,-0.419885,0.0121891,0.0118809,0.414599,5,0.1,22,2.2,0.484845,-0.304434,0.713428,-0.866025,-0.0462115,0.0116065,-1.43051e-05,0.00968575,-0.00244379,0.0120663,2.27048,5,0.1,23,2.2,-0.946246,-0.823999,0.510413,-0.218521,-0.197303,-0.0444099,-0.126421,-1.35568,0.155658,0.024851,1.48852,5,0.1,24,2.2,0.282709,2.40678,0.610905,0.0179842,-0.866026,-0.00509471,-0.0733733,0,-0.00137091,0.0194963,2.27197,5,0.1,25,2.2,2.3202,-3.18076,0.549666,-0.244141,-0.284767,-0.102258,0.554919,-0.335217,-0.0748932,0.00777324,0.207828,5,0.1,26,2.2,3.91631,-0.5,1.23533,-0.0155687,0.573188,0.252298,0.0133514,-0.593855,-0.216544,0.0163478,0.691041,5,0.1,27,2.2,2.51601,-2.98195,0.654126,-0.0843823,-0.204253,-0.00898838,0.0425577,-0.198245,-0.0210404,0.0113965,0.130228,5,0.1,28,2.2,2.22882,-2.44117,0.597948,-0.805461,0.131178,-0.00313669,0.610113,-0.211,0.0201464,0.0169059,0.0814518,5,0.1,29,2.2,-1.91136,-2.86242,1.15715,0.664517,0.0126421,0.195912,-0.372052,-0.0134706,-0.207484,0.0221764,0.316873,5,0.1,30,2.2,-3.39015,-2.87609,0.899047,0.0339746,0.862366,0.170028,-0.00751019,-0.0733137,-0.0371337,0.0172049,2.54327,5,0.1,31,2.2,-0.285308,3.59374,0.592198,-0.0585809,0.176042,-0.034906,0.128418,-0.125885,0.0134408,0.00997924,0.131267,5,0.1,32,2.2,-0.698572,-0.996308,0.852938,0.40751,0.198883,0.0845656,0.415117,0.416249,-0.147939,0.0169614,2.38675,5,0.1,33,2.2,-2.41293,3.95571,1.21088,0.017339,-0.204587,0.186545,-0.0177622,0.394106,-0.191748,0.013673,0.210262,5,0.1,34,2.2,2.32696,-5.42671,0.587569,-0.244796,0.126851,0.0134066,0.16737,-0.368834,-0.00917912,0.0209249,0.208238,5,0.1,35,2.2,1.97696,-1.60302,1.14057,-0.0169992,0.843045,0.226402,0.0063777,0.365913,-0.0841022,0.0113133,2.25451,5,0.1,36,2.2,2.03488,2.10464,0.615936,0.415438,-0.158089,-0.0162885,-0.212431,0.17333,0.0178516,0.00938791,0.147006,5,0.1,37,2.2,0.275007,-3.34401,0.674653,-0.110447,0.866026,0.0061661,0.0239611,0,-0.0013411,0.0130024,2.26413,5,0.1,38,2.2,-5.21729,-1.9,0.589755,-0.0334144,0.406504,-0.0660017,0.036478,0.826001,-0.0734329,0.0192922,1.6463,5,0.1,39,2.2,-3.1,-2.57944,0.730204,0.246978,0.028944,0.0194818,-0.167012,-0.0272989,-0.0183582,0.0103159,0.954397,5,0.1
0,2.3,-0.436943,1.50016,0.585498,0.46509,0.000656582,0.0101674,-0.196794,0.115611,-0.00227243,0.0176399,0.523864,5,0.1,1,2.3,3.5135,-5.40422,0.596274,-0.266013,0.0107527,0.00946829,-0.334665,-0.0178814,-0.0157766,0.0206646,0.116234,5,0.1,2,2.3,-0.309471,-0.809736,0.535534,-0.0543397,-0.13782,-0.106995,-0.0663884,-0.912566,0.169668,0.0135231,2.32982,5,0.1,3,2.3,2.84374,-3.01413,0.589568,-0.497785,0.452024,-0.0177885,0.183672,0.00144541,-0.0093244,0.0433005,1.4364,5,0.1,4,2.3,-3.16401,4.06638,1.19988,0.0157405,-0.357611,0.168288,-0.0121146,0.220895,-0.12932,0.0109546,0.227935,5,0.1,5,2.3,-3.95042,-2.17552,0.736788,0.204203,0.37856,0.0134593,-0.21109,-0.279039,-0.0139102,0.00994454,0.15939,5,0.1,6,2.3,-2.44323,5.84622,0.959876,0.866026,0.00183135,0.193526,0,0,-0.0164807,0.0123978,2.24799,5,0.1,7,2.3,-0.317309,1.13397,0.633882,0.217402,-0.341825,0.0320219,0.175983,0.0908822,0.108145,0.00824876,0.177707,5,0.1,8,2.3,-0.52472,-0.434991,0.555543,0.15808,0.866026,0.00761058,0.0232086,-3.57628e-06,0.0752434,0.0156904,2.25754,5,0.1,9,2.3,4.07862,1.5024,0.603289,-0.32729,-0.00313856,-0.010325,-0.0804365,-0.0025183,0.0250861,0.00981934,0.0766742,5,0.1,10,2.3,-1.35428,0.0153948,1.20225,0.00510719,0.258519,0.176947,-0.00401586,-0.314514,-0.140212,0.0220696,0.266066,5,0.1,11,2.3,-3.00973,2.48108,1.22741,0.0164557,0.101652,0.207438,-0.0174493,-0.344992,-0.220299,0.0131862,0.253111,5,0.1,12,2.3,-0.909028,4.07856,1.21797,0.0101199,-0.372847,0.147984,-0.00779331,0.204295,-0.113711,0.0271011,0.230504,5,0.1,13,2.3,0.0710453,-2.29063,0.588859,-0.29262,0.1972,0.0115242,0.024091,-0.150234,-0.00879169,0.00833071,0.143406,5,0.1,14,2.3,4.0278,-1.29119,0.711109,-0.34109,-0.0825219,0.0116532,-0.335842,-0.0313073,0.043381,0.0241951,0.744386,5,0.1,15,2.3,-0.28799,-1.0685,0.918803,0.154463,-0.404387,0.169876,0.995683,-1.08825,-0.292741,0.03083,2.3246,5,0.1,16,2.3,-2.76383,1.62876,0.734745,0.401608,-0.1312,0.0155369,-0.149474,0.135675,-0.0160635,0.017252,0.253163,5,0.1,17,2.3,0.286907,1.4851,0.606953,-0.139268,-0.179178,-0.00706865,0.148237,-0.654705,0.00751391,0.0106567,3.25715,5,0.1,18,2.3,-0.563271,-1.55552,0.50002,-0.606699,-0.49122,-6.91041e-05,0.0171401,0.25861,6.70552e-05,0.0136003,0.438379,5,0.1,19,2.3,-0.297068,3.8556,0.796908,0.021633,0.220823,0.000969879,-0.272965,0.550702,-0.00499934,0.00751607,0.334264,5,0.1,20,2.3,1.63459,-2.85637,0.618435,0.862196,0.407906,-0.00880547,0.0544637,-0.286132,0.00402331,0.0130261,2.17446,5,0.1,21,2.3,0.871003,-0.549458,0.589355,0.165138,0.281421,-0.0394679,-0.647727,-0.436623,0.0560693,0.0118809,0.414599,5,0.1,22,2.3,0.398242,-0.309026,0.714582,-0.866025,-0.0457499,0.0114899,1.78814e-06,0.00231154,-0.000588596,0.0120663,2.27048,5,0.1,23,2.3,-0.968738,-0.850718,0.506683,-0.231057,-0.337576,-0.0308449,-0.111237,-1.38731,0.116948,0.024851,1.48852,5,0.1,24,2.3,0.284183,2.32018,0.610387,0.0118779,-0.866026,-0.00525266,-0.0498816,0,-0.00148267,0.0194963,2.27197,5,0.1,25,2.3,2.29797,-3.21074,0.539273,-0.205683,-0.312621,-0.103707,0.244737,-0.211492,0.0393465,0.00777324,0.207828,5,0.1,26,2.3,3.91481,-0.444913,1.25954,-0.0143375,0.534608,0.232333,0.0117272,-0.229053,-0.190184,0.0163478,0.691041,5,0.1,27,2.3,2.50765,-3.00351,0.653105,-0.0838075,-0.227947,-0.0115474,-0.0206083,-0.2518,-0.0280552,0.0113965,0.130228,5,0.1,28,2.3,2.1516,-2.42916,0.597727,-0.736281,0.108745,-0.00135936,0.768691,-0.233412,0.0154078,0.0169059,0.0814518,5,0.1,29,2.3,-1.84658,-2.86121,1.17577,0.632373,0.0114106,0.176944,-0.29815,-0.0115037,-0.177413,0.0221764,0.316873,5,0.1,30,2.3,-3.38678,-2.79129,0.915934,0.0335958,0.8242,0.16816,-0.00210106,-0.641823,-0.0103079,0.0172049,2.54327,5,0.1,31,2.3,-0.29051,3.61105,0.588844,-0.0453821,0.172989,-0.0315745,0.132846,0.0400841,0.049796,0.00997924,0.131267,5,0.1,32,2.3,-0.655858,-0.974282,0.86132,0.445067,0.24158,0.0886917,0.314236,0.413507,0.189617,0.0169614,2.38675,5,0.1,33,2.3,-2.41129,3.9373,1.22858,0.0155851,-0.163257,0.167622,-0.0175238,0.423834,-0.188962,0.013673,0.210262,5,0.1,34,2.3,2.30322,-5.41583,0.588869,-0.230663,0.0910118,0.0126317,0.126123,-0.342309,-0.00690669,0.0209249,0.208238,5,0.1,35,2.3,1.97528,-1.51746,1.16288,-0.0165369,0.863418,0.220323,0.00376999,0.0808761,-0.0495017,0.0113133,2.25451,5,0.1,36,2.3,2.07489,2.08964,0.61439,0.380549,-0.142292,-0.0146615,-0.465736,0.147134,0.0151508,0.00938791,0.147006,5,0.1,37,2.3,0.264035,-3.25741,0.675266,-0.109293,0.866026,0.00610119,0.00577979,0,-0.000331551,0.0130024,2.26413,5,0.1,38,2.3,-5.22046,-1.85475,0.582792,-0.0300899,0.501379,-0.0730838,0.0309944,1.00046,-0.0636391,0.0192922,1.6463,5,0.1,39,2.3,-3.07518,-2.57667,0.732066,0.257367,0.0264332,0.0177926,0.309557,-0.0237226,-0.0159778,0.0103159,0.954397,5,0.1
0,2.4,-0.391478,1.50066,0.586502,0.443226,0.00790954,0.00988692,-0.254244,0.0306368,-0.00369549,0.0177705,2.13122,5,0.1,1,2.4,3.48541,-5.40324,0.597143,-0.293434,0.0090003,0.00792146,-0.199676,-0.0171661,-0.0151396,0.0211166,0.184648,5,0.1,2,2.4,-0.315594,-0.828326,0.525701,-0.0709027,-0.234884,-0.0895426,-0.234231,-0.969499,0.177622,0.0134886,1.94026,5,0.1,3,2.4,2.79442,-2.96904,0.587781,-0.491846,0.448251,-0.0175908,-0.0128746,-0.0941753,0.0118911,0.0442963,1.12676,5,0.1,4,2.4,-3.16249,4.03175,1.21603,0.0144362,-0.334513,0.154349,-0.0143051,0.250578,-0.151634,0.0107992,0.860715,5,0.1,5,2.4,-3.93104,-2.13898,0.738066,0.183547,0.352746,0.0120983,-0.20659,-0.253201,-0.0136197,0.00890485,0.130359,5,0.1,6,2.4,-2.35662,5.84641,0.97912,0.866026,0.0018239,0.190867,0,-0.000476837,-0.0448525,0.0113347,2.24925,5,0.1,7,2.4,-0.294953,1.10014,0.637575,0.227077,-0.335276,0.0412762,0.0174791,0.0630021,0.074625,0.0237517,3.05951,5,0.1,8,2.4,-0.508867,-0.348389,0.556649,0.158133,0.866025,0.0141606,-0.0265837,1.43051e-05,0.0547171,0.0105694,2.05073,5,0.1,9,2.4,4.04564,1.50207,0.602375,-0.33046,-0.00326633,-0.0080049,0.0271797,-0.000119209,0.0213683,0.00888683,0.056358,5,0.1,10,2.4,-1.35379,0.0394871,1.21926,0.00471473,0.221722,0.163347,-0.0038743,-0.410953,-0.137627,0.0228947,0.258208,5,0.1,11,2.4,-3.00818,2.48958,1.24704,0.0146747,0.0689447,0.184947,-0.0183582,-0.304461,-0.231683,0.0130202,0.247515,5,0.1,12,2.4,-0.908056,4.0423,1.23217,0.00928044,-0.351906,0.135726,-0.00911951,0.226498,-0.133276,0.0265309,0.575463,5,0.1,13,2.4,0.041838,-2.2716,0.589971,-0.291666,0.183678,0.0107333,0.0149858,-0.12958,-0.00759959,0.00924563,0.105554,5,0.1,14,2.4,3.9923,-1.3,0.712474,-0.365824,-0.0975966,0.0154376,-0.1477,-0.257552,0.0312924,0.0248244,0.604352,5,0.1,15,2.4,-0.267533,-1.11407,0.934271,0.253746,-0.503024,0.139059,0.941731,-0.84275,-0.317872,0.0104664,0.293872,5,0.1,16,2.4,-2.72434,1.61631,0.73622,0.388175,-0.117925,0.0139654,-0.14019,0.132799,-0.0157058,0.0157204,0.188499,5,0.1,17,2.4,0.273711,1.46372,0.606284,-0.124669,-0.249615,-0.00632703,0.146493,-0.734389,0.00739098,0.0110854,3.01063,5,0.1,18,2.4,-0.62361,-1.60326,0.500013,-0.59723,-0.462341,-5.81145e-05,0.187576,0.329614,0.000119209,0.0140845,0.293009,5,0.1,19,2.4,-0.296133,3.88015,0.796973,-0.00156015,0.267088,0.000412762,-0.191435,0.361562,-0.000417233,0.00789003,0.292227,5,0.1,20,2.4,1.72105,-2.81695,0.617574,0.866026,0.380617,-0.00840276,0,-0.275373,0.00438094,0.0128134,2.19281,5,0.1,21,2.4,0.884404,-0.523512,0.585735,0.104524,0.237407,-0.032571,-0.549585,-0.44167,0.0786185,0.0134367,0.360509,5,0.1,22,2.4,0.311639,-0.313583,0.715726,-0.866025,-0.0452757,0.0113711,-1.43051e-05,0.00913441,-0.00229478,0.012433,2.27255,5,0.1,23,2.4,-0.992288,-0.891042,0.504128,-0.238572,-0.464047,-0.0207737,-0.0301301,-1.09744,0.0856519,0.0187752,1.13582,5,0.1,24,2.4,0.285152,2.23358,0.609856,0.00779852,-0.866026,-0.00534058,-0.0326782,0,-2.98023e-05,0.0181359,2.27193,5,0.1,25,2.4,2.27832,-3.24278,0.529242,-0.189763,-0.325429,-0.0956208,0.097394,-0.0385046,0.116616,0.00794172,0.202646,5,0.1,26,2.4,3.91344,-0.392342,1.28182,-0.0131428,0.518381,0.213003,0.012517,-0.134186,-0.201464,0.0162815,2.70322,5,0.1,27,2.4,2.49914,-3.0275,0.651813,-0.0866711,-0.250524,-0.0142381,-0.0289679,-0.18239,-0.0242293,0.0114508,0.0801376,5,0.1,28,2.4,2.08204,-2.41946,0.59766,-0.652766,0.0852585,-5.06639e-05,0.895858,-0.233054,0.010848,0.0159269,0.0899821,5,0.1,29,2.4,-1.78489,-2.86013,1.19259,0.600243,0.0102758,0.159484,-0.363529,-0.0113249,-0.175595,0.0207022,0.220686,5,0.1,30,2.4,-3.38343,-2.71269,0.932676,0.0332117,0.742513,0.166242,-0.00715256,-0.954866,-0.0352561,0.01492,2.85893,5,0.1,31,2.4,-0.294395,3.62866,0.585972,-0.0324845,0.179708,-0.0255629,0.123098,0.0756979,0.0676811,0.00874102,0.235824,5,0.1,32,2.4,-0.610092,-0.948224,0.871418,0.466755,0.277464,0.115232,0.105351,0.287145,0.309438,0.0149373,1.93259,5,0.1,33,2.4,-2.40982,3.92308,1.24439,0.0137985,-0.121361,0.148392,-0.018239,0.407338,-0.197053,0.0141946,0.412175,5,0.1,34,2.4,2.28079,-5.40836,0.590097,-0.217718,0.0593066,0.0119224,0.140309,-0.28801,-0.007689,0.0211558,0.195875,5,0.1,35,2.4,1.97365,-1.43092,1.18464,-0.0160903,0.866026,0.214449,0.00578165,-5.96046e-05,-0.0767112,0.011299,1.99272,5,0.1,36,2.4,2.11034,2.07614,0.612999,0.325918,-0.127894,-0.0131786,-0.610232,0.144005,0.0148416,0.00974838,0.263095,5,0.1,37,2.4,0.253149,-3.17081,0.675873,-0.108153,0.866026,0.00603795,0.0217482,0,-0.0012517,0.0107758,2.26441,5,0.1,38,2.4,-5.22331,-1.7998,0.575213,-0.0270486,0.594327,-0.0779629,0.0300407,0.806808,-0.0308156,0.0190129,0.146771,5,0.1,39,2.4,-3.04755,-2.57415,0.733765,0.297362,0.0240505,0.0161916,0.44024,-0.0243187,-0.0164807,0.0103717,0.764965,5,0.1
