id,t,px,py,pz,vx,vy,vz,ax,ay,az,planning_time,qp_cost,planning_report,size,id,t,px,py,pz,vx,vy,vz,ax,ay,az,planning_time,qp_cost,planning_report,size,id,t,px,py,pz,vx,vy,vz,ax,ay,az,planning_time,qp_cost,planning_report,size,id,t,px,py,pz,vx,vy,vz,ax,ay,az,planning_time,qp_cost,planning_report,size,id,t,px,py,pz,vx,vy,vz,ax,ay,az,planning_time,qp_cost,planning_report,size,id,t,px,py,pz,vx,vy,vz,ax,ay,az,planning_time,qp_cost,planning_report,size,id,t,px,py,pz,vx,vy,vz,ax,ay,az,planning_time,qp_cost,planning_report,size,id,t,px,py,pz,vx,vy,vz,ax,ay,az,planning_time,qp_cost,planning_report,size,id,t,px,py,pz,vx,vy,vz,ax,ay,az,planning_time,qp_cost,planning_report,size,id,t,px,py,pz,vx,vy,vz,ax,ay,az,planning_time,qp_cost,planning_report,size,id,t,px,py,pz,vx,vy,vz,ax,ay,az,planning_time,qp_cost,planning_report,size,id,t,px,py,pz,vx,vy,vz,ax,ay,az,planning_time,qp_cost,planning_report,size,id,t,px,py,pz,vx,vy,vz,ax,ay,az,planning_time,qp_cost,planning_report,size,id,t,px,py,pz,vx,vy,vz,ax,ay,az,planning_time,qp_cost,planning_report,size,id,t,px,py,pz,vx,vy,vz,ax,ay,az,planning_time,qp_cost,planning_report,size,id,t,px,py,pz,vx,vy,vz,ax,ay,az,planning_time,qp_cost,planning_report,size,id,t,px,py,pz,vx,vy,vz,ax,ay,az,planning_time,qp_cost,planning_report,size,id,t,px,py,pz,vx,vy,vz,ax,ay,az,planning_time,qp_cost,planning_report,size,id,t,px,py,pz,vx,vy,vz,ax,ay,az,planning_time,qp_cost,planning_report,size,id,t,px,py,pz,vx,vy,vz,ax,ay,az,planning_time,qp_cost,planning_report,size,id,t,px,py,pz,vx,vy,vz,ax,ay,az,planning_time,qp_cost,planning_report,size,id,t,px,py,pz,vx,vy,vz,ax,ay,az,planning_time,qp_cost,planning_report,size,id,t,px,py,pz,vx,vy,vz,ax,ay,az,planning_time,qp_cost,planning_report,size,id,t,px,py,pz,vx,vy,vz,ax,ay,az,planning_time,qp_cost,planning_report,size,id,t,px,py,pz,vx,vy,vz,ax,ay,az,planning_time,qp_cost,planning_report,size,id,t,px,py,pz,vx,vy,vz,ax,ay,az,planning_time,qp_cost,planning_report,size,id,t,px,py,pz,vx,vy,vz,ax,ay,az,planning_time,qp_cost,planning_report,size,id,t,px,py,pz,vx,vy,vz,ax,ay,az,planning_time,qp_cost,planning_report,size,id,t,px,py,pz,vx,vy,vz,ax,ay,az,planning_time,qp_cost,planning_report,size,id,t,px,py,pz,vx,vy,vz,ax,ay,az,planning_time,qp_cost,planning_report,size,id,t,px,py,pz,vx,vy,vz,ax,ay,az,planning_time,qp_cost,planning_report,size,id,t,px,py,pz,vx,vy,vz,ax,ay,az,planning_time,qp_cost,planning_report,size,id,t,px,py,pz,vx,vy,vz,ax,ay,az,planning_time,qp_cost,planning_report,size,id,t,px,py,pz,vx,vy,vz,ax,ay,az,planning_time,qp_cost,planning_report,size,id,t,px,py,pz,vx,vy,vz,ax,ay,az,planning_time,qp_cost,planning_report,size,id,t,px,py,pz,vx,vy,vz,ax,ay,az,planning_time,qp_cost,planning_report,size,id,t,px,py,pz,vx,vy,vz,ax,ay,az,planning_time,qp_cost,planning_report,size,id,t,px,py,pz,vx,vy,vz,ax,ay,az,planning_time,qp_cost,planning_report,size,id,t,px,py,pz,vx,vy,vz,ax,ay,az,planning_time,qp_cost,planning_report,size,id,t,px,py,pz,vx,vy,vz,ax,ay,az,planning_time,qp_cost,planning_report,size
0,0,-1.06951,5.68316,0.572724,0,0,0,0,0,0,0.0547454,3.5122,5,0.1,1,0,-0.383972,0.0391159,0.612076,0,0,0,0,0,0,0.00839684,3.56283,5,0.1,2,0,1.43025,2.28285,0.505175,0,0,0,0,0,0,0.0152129,2.47142,5,0.1,3,0,1.90212,1.86329,0.677072,0,0,0,0,0,0,0.0190784,3.51643,5,0.1,4,0,0.530733,-5.34826,0.641022,0,0,0,0,0,0,0.0131711,3.5122,5,0.1,5,0,-2.78964,4.37291,0.629529,0,0,0,0,0,0,0.0462586,0.655341,5,0.1,6,0,-2.59752,5.09864,0.504369,0,0,0,0,0,0,0.0308469,1.89139,5,0.1,7,0,3.67412,-2.4921,0.670267,0,0,0,0,0,0,0.0170967,2.43804,5,0.1,8,0,-2.29956,2.15429,0.595332,0,0,0,0,0,0,0.0127867,0.639717,5,0.1,9,0,-0.669953,1.7006,0.509358,0,0,0,0,0,0,0.0119335,2.48659,5,0.1,10,0,-3.73235,-0.0565562,0.654189,0,0,0,0,0,0,0.0265235,3.51219,5,0.1,11,0,-0.456655,-1.48446,0.594809,0,0,0,0,0,0,0.0243852,3.5122,5,0.1,12,0,-1.87619,-4.59157,0.544531,0,0,0,0,0,0,0.0156023,3.5122,5,0.1,13,0,-3.91347,-2.45533,0.57448,0,0,0,0,0,0,0.0108405,1.00148,5,0.1,14,0,0.874578,-3.18922,0.518224,0,0,0,0,0,0,0.0130137,1.04637,5,0.1,15,0,2.81424,-0.0462756,0.501175,0,0,0,0,0,0,0.0110106,3.51223,5,0.1,16,0,0.12435,-3.64716,0.505132,0,0,0,0,0,0,0.0129801,2.11805,5,0.1,17,0,-1.69782,-3.90977,0.67932,0,0,0,0,0,0,0.0226259,0.501265,5,0.1,18,0,0.762129,1.75309,0.619056,0,0,0,0,0,0,0.0179808,3.51219,5,0.1,19,0,-0.449687,5.84963,0.512725,0,0,0,0,0,0,0.020853,3.51219,5,0.1,20,0,4.13166,-2.89517,0.538094,0,0,0,0,0,0,0.0317635,3.51219,5,0.1,21,0,-5.18538,-2.71889,0.526784,0,0,0,0,0,0,0.0113394,2.33285,5,0.1,22,0,3.52944,-3.1458,0.595746,0,0,0,0,0,0,0.0152263,3.51275,5,0.1,23,0,-4.68625,-3.69277,0.573843,0,0,0,0,0,0,0.0345071,3.5122,5,0.1,24,0,4.13095,-5.67562,0.620836,0,0,0,0,0,0,0.0287685,3.51219,5,0.1,25,0,2.12866,-2.53354,0.529301,0,0,0,0,0,0,0.0155381,3.5122,5,0.1,26,0,2.97761,-5.62157,0.517228,0,0,0,0,0,0,0.0266033,0.723342,5,0.1,27,0,-1.20305,4.88274,0.540363,0,0,0,0,0,0,0.0302113,2.42155,5,0.1,28,0,-0.0651455,1.99346,0.631709,0,0,0,0,0,0,0.0380728,3.5122,5,0.1,29,0,0.51332,-4.11114,0.522262,0,0,0,0,0,0,0.0119175,3.5122,5,0.1,30,0,0.996776,3.08755,0.509799,0,0,0,0,0,0,0.0119044,2.51839,5,0.1,31,0,-3.56537,-3.19256,0.694311,0,0,0,0,0,0,0.00926314,0.38719,5,0.1,32,0,-1.64722,-0.525065,0.500601,0,0,0,0,0,0,0.0106044,3.51232,5,0.1,33,0,1.87985,3.07937,0.519376,0,0,0,0,0,0,0.013454,3.5122,5,0.1,34,0,-0.486469,4.11862,0.653912,0,0,0,0,0,0,0.0153386,1.93337,5,0.1,35,0,-1.57388,-2.21635,0.522798,0,0,0,0,0,0,0.0132719,0.345446,5,0.1,36,0,1.16561,5.12541,0.523723,0,0,0,0,0,0,0.0370751,1.12845,5,0.1,37,0,1.9442,-3.20661,0.573387,0,0,0,0,0,0,0.0195131,1.52928,5,0.1,38,0,-2.93702,2.19587,0.67111,0,0,0,0,0,0,0.00830322,1.61865,5,0.1,39,0,2.79569,-2.2061,0.693895,0,0,0,0,0,0,0.0306577,0.902264,5,0.1
0,0.1,-1.06949,5.68122,0.573503,0.000554882,-0.0549868,0.0221092,0.00987202,-0.977576,0.393048,0.0547454,3.5122,5,0.1,1,0.1,-0.383577,0.0404931,0.612106,0.0112261,0.0390948,0.000833999,0.199575,0.695019,0.0148229,0.00839684,3.56283,5,0.1,2,0.1,1.42891,2.28172,0.505131,-0.0379395,-0.03209,-0.00125775,-0.674471,-0.570491,-0.0223555,0.0152129,2.47142,5,0.1,3,0.1,1.90068,1.86453,0.677134,-0.0406735,0.0351235,0.00176402,-0.723079,0.624418,0.0313632,0.0190784,3.51643,5,0.1,4,0.1,0.530401,-5.3462,0.640983,-0.00941334,0.0585057,-0.00110595,-0.167351,1.04013,-0.0196584,0.0131711,3.5122,5,0.1,5,0.1,-2.78971,4.37241,0.630281,-0.00178888,-0.0140153,0.0213506,-0.0317991,-0.249118,0.379562,0.0462586,0.655341,5,0.1,6,0.1,-2.59747,5.09739,0.505252,0.00140779,-0.0355192,0.0250594,0.0250489,-0.631481,0.445504,0.0308469,1.89139,5,0.1,7,0.1,3.67247,-2.49153,0.670194,-0.046647,0.0160642,-0.00208216,-0.829294,0.285596,-0.0370182,0.0170967,2.43804,5,0.1,8,0.1,-2.29951,2.1547,0.59612,0.00146925,0.0117257,0.0223638,0.0261068,0.208467,0.397585,0.0127867,0.639717,5,0.1,9,0.1,-0.669411,1.70227,0.509296,0.0154085,0.0473965,-0.00175899,0.273924,0.842616,-0.0312664,0.0119335,2.48659,5,0.1,10,0.1,-3.73027,-0.0567274,0.654165,0.0590649,-0.00485927,-0.000669342,1.05004,-0.0863872,-0.0118949,0.0265235,3.51219,5,0.1,11,0.1,-0.456087,-1.48246,0.594999,0.016101,0.0567833,0.00540223,0.286242,1.00947,0.096038,0.0243852,3.5122,5,0.1,12,0.1,-1.87625,-4.58948,0.544581,-0.00186712,0.0592224,0.00140304,-0.0331849,1.05283,0.0249408,0.0156023,3.5122,5,0.1,13,0.1,-3.91236,-2.45543,0.574507,0.0315152,-0.00280514,0.000756234,0.560254,-0.0498891,0.0134408,0.0108405,1.00148,5,0.1,14,0.1,0.874605,-3.18808,0.518153,0.00075344,0.0322778,-0.0020219,0.0133961,0.573829,-0.0359416,0.0130137,1.04637,5,0.1,15,0.1,2.81222,-0.0468005,0.501164,-0.0573605,-0.0148991,-0.00028545,-1.01972,-0.264873,-0.00507012,0.0110106,3.51223,5,0.1,16,0.1,0.12422,-3.64554,0.505088,-0.00368501,0.0458483,-0.00124713,-0.0655111,0.815079,-0.0221692,0.0129801,2.11805,5,0.1,17,0.1,-1.69746,-3.90976,0.68002,0.0103073,0.000289455,0.0198751,0.183232,0.0051409,0.353333,0.0226259,0.501265,5,0.1,18,0.1,0.761203,1.75496,0.61904,-0.0262804,0.0531208,-0.000471342,-0.467204,0.944376,-0.00838563,0.0179808,3.51219,5,0.1,19,0.1,-0.449392,5.84756,0.512663,0.00837105,-0.0586472,-0.001752,0.14882,-1.04263,-0.0311434,0.020853,3.51219,5,0.1,20,0.1,4.12961,-2.89515,0.538483,-0.0582263,0.000613928,0.0110414,-1.03515,0.0109076,0.196286,0.0317635,3.51219,5,0.1,21,0.1,-5.18388,-2.71808,0.52686,0.0425361,0.0227846,0.0021697,0.756174,0.405073,0.0385754,0.0113394,2.33285,5,0.1,22,0.1,3.52984,-3.14382,0.595747,0.0113845,0.0561256,1.92784e-05,0.202388,0.997797,0.000339001,0.0152263,3.51275,5,0.1,23,0.1,-4.68622,-3.69083,0.574634,0.00105202,0.0548281,0.0224831,0.0186563,0.974715,0.399701,0.0345071,3.5122,5,0.1,24,0.1,4.13101,-5.67353,0.620819,0.00161976,0.0592433,-0.000488758,0.028789,1.05324,-0.00868738,0.0287685,3.51219,5,0.1,25,0.1,2.12841,-2.53146,0.529356,-0.00720248,0.0588093,0.00154953,-0.128031,1.04548,0.0275448,0.0155381,3.5122,5,0.1,26,0.1,2.97669,-5.62134,0.517158,-0.026007,0.00656471,-0.0019921,-0.462353,0.116736,-0.0354201,0.0266033,0.723342,5,0.1,27,0.1,-1.20195,4.8814,0.540425,0.0312062,-0.0380114,0.00176728,0.554778,-0.675797,0.0314191,0.0302113,2.42155,5,0.1,28,0.1,-0.0646897,1.99142,0.631691,0.0129396,-0.0578366,-0.000503287,0.230038,-1.0282,-0.00894815,0.0380728,3.5122,5,0.1,29,0.1,0.513467,-4.10906,0.522217,0.00416208,0.0591077,-0.0012707,0.0739917,1.0508,-0.0225902,0.0119175,3.5122,5,0.1,30,0.1,0.998084,3.08636,0.509736,0.0371384,-0.0337109,-0.00177212,0.660233,-0.599295,-0.0315011,0.0119044,2.51839,5,0.1,31,0.1,-3.56604,-3.19243,0.69418,-0.0189871,0.00359528,-0.00371737,-0.337541,0.0639409,-0.0660904,0.00926314,0.38719,5,0.1,32,0.1,-1.64513,-0.525007,0.500596,0.0592351,0.00164863,-0.000146031,1.05307,0.0293031,-0.0025928,0.0106044,3.51232,5,0.1,33,0.1,1.87844,3.07783,0.51932,-0.0401238,-0.0435919,-0.00160923,-0.713311,-0.77498,-0.0286065,0.013454,3.5122,5,0.1,34,0.1,-0.485179,4.11776,0.653856,0.0366417,-0.0242598,-0.0015975,0.651408,-0.431269,-0.0284053,0.0153386,1.93337,5,0.1,35,0.1,-1.57443,-2.2167,0.522722,-0.0155915,-0.00988729,-0.00215732,-0.277176,-0.175789,-0.0383481,0.0132719,0.345446,5,0.1,36,0.1,1.16565,5.12461,0.524586,0.00101905,-0.0229776,0.024486,0.0181273,-0.40853,0.4353,0.0370751,1.12845,5,0.1,37,0.1,1.94311,-3.20577,0.573415,-0.0309438,0.0239033,0.000788737,-0.550106,0.424936,0.0140183,0.0195131,1.52928,5,0.1,38,0.1,-2.93562,2.19607,0.67098,0.0396628,0.00567883,-0.00367528,0.705108,0.10097,-0.0653379,0.00830322,1.61865,5,0.1,39,0.1,2.7948,-2.20552,0.693953,-0.0250615,0.0164799,0.0016625,-0.445515,0.292957,0.0295602,0.0306577,0.902264,5,0.1
0,0.2,-1.06938,5.67005,0.577994,0.00175238,-0.173795,0.069876,0.0132322,-1.3032,0.524074,0.0523297,2.92581,5,0.1,1,0.2,-0.381296,0.0484343,0.612275,0.0354797,0.123559,0.00263602,0.26609,0.926694,0.0197887,0.00865546,3.42497,5,0.1,2,0.2,1.42121,2.2752,0.504875,-0.119907,-0.101417,-0.00397414,-0.899255,-0.760674,-0.0298023,0.00963524,2.02802,5,0.1,3,0.2,1.89242,1.87166,0.677493,-0.128549,0.111011,0.00557452,-0.964105,0.832498,0.0418425,0.0161254,2.97879,5,0.1,4,0.2,0.528489,-5.33431,0.640758,-0.0297517,0.184906,-0.00349581,-0.2231,1.38688,-0.0261962,0.0120986,2.92578,5,0.1,5,0.2,-2.79007,4.36957,0.634618,-0.00565648,-0.0442982,0.0674784,-0.0423193,-0.331879,0.506073,0.0255771,0.537683,5,0.1,6,0.2,-2.59718,5.09017,0.510342,0.00444651,-0.112271,0.0792012,0.0334978,-0.841856,0.59399,0.0251379,1.55179,5,0.1,7,0.2,3.663,-2.48827,0.669771,-0.147432,0.0507712,-0.00658184,-1.10567,0.380874,-0.0493228,0.0155948,2.00029,5,0.1,8,0.2,-2.29921,2.15708,0.600662,0.0046432,0.0370622,0.0706807,0.0348091,0.277996,0.530124,0.0129575,0.524855,5,0.1,9,0.2,-0.666281,1.7119,0.508939,0.048697,0.149795,-0.00555962,0.365257,1.12355,-0.0416934,0.0124538,2.04023,5,0.1,10,0.2,-3.71827,-0.0577145,0.654029,0.186676,-0.0153577,-0.00211596,1.39999,-0.115182,-0.0158548,0.026931,2.9258,5,0.1,11,0.2,-0.452817,-1.47092,0.596097,0.0508875,0.179464,0.0170738,0.381649,1.34593,0.128061,0.0251156,2.9258,5,0.1,12,0.2,-1.87663,-4.57746,0.544865,-0.00590086,0.187171,0.00443459,-0.0442266,1.40381,0.0332296,0.0155732,3.09087,5,0.1,13,0.2,-3.90596,-2.456,0.574661,0.0996053,-0.00886321,0.00239015,0.746965,-0.066638,0.017941,0.0117197,0.821666,5,0.1,14,0.2,0.874758,-3.18153,0.517743,0.00237972,0.102019,-0.00638962,0.0178814,0.764966,-0.0479221,0.0104068,0.858503,5,0.1,15,0.2,2.80057,-0.0498269,0.501107,-0.181288,-0.0470884,-0.00090301,-1.35958,-0.353165,-0.00673532,0.00971183,2.92592,5,0.1,16,0.2,0.123471,-3.63623,0.504835,-0.0116464,0.144905,-0.00394136,-0.0873469,1.08683,-0.0295639,0.0130748,1.7381,5,0.1,17,0.2,-1.69536,-3.9097,0.684057,0.0325769,0.000917912,0.0628144,0.244319,0.00679493,0.471115,0.0233908,0.411263,5,0.1,18,0.2,0.755865,1.76575,0.618944,-0.0830591,0.167891,-0.00149012,-0.622928,1.25909,-0.0111759,0.0240875,2.9258,5,0.1,19,0.2,-0.447692,5.83565,0.512308,0.026457,-0.185359,-0.00553727,0.198409,-1.39022,-0.0415444,0.0238606,2.9732,5,0.1,20,0.2,4.11779,-2.89503,0.540725,-0.184023,0.00194311,0.034897,-1.38044,0.0145435,0.261694,0.031063,3.0799,5,0.1,21,0.2,-5.17524,-2.71345,0.527301,0.134444,0.0720143,0.00685751,1.00803,0.540018,0.0514388,0.0109594,1.914,5,0.1,22,0.2,3.53216,-3.13242,0.59575,0.0359833,0.177383,6.10948e-05,0.269771,1.33038,0.000476837,0.0154084,2.95104,5,0.1,23,0.2,-4.686,-3.6797,0.579201,0.00331402,0.173289,0.0710577,0.025034,1.2995,0.532955,0.0375561,2.9258,5,0.1,24,0.2,4.13134,-5.6615,0.62072,0.00511408,0.187242,-0.00154525,0.0386238,1.40429,-0.0115633,0.0267194,2.92589,5,0.1,25,0.2,2.12694,-2.51952,0.52967,-0.022763,0.185865,0.00489652,-0.170708,1.39391,0.0367165,0.015464,2.9258,5,0.1,26,0.2,2.97141,-5.62,0.516754,-0.0821948,0.0207543,-0.00629574,-0.61655,0.155449,-0.0472367,0.0260644,0.593464,5,0.1,27,0.2,-1.19561,4.87368,0.540784,0.0986278,-0.120139,0.00558645,0.739694,-0.900984,0.0418723,0.0344073,1.98677,5,0.1,28,0.2,-0.0620613,1.97967,0.631589,0.0408957,-0.182793,-0.00158995,0.306716,-1.37091,-0.0119507,0.037894,2.9303,5,0.1,29,0.2,0.514313,-4.09705,0.521959,0.0131547,0.186813,-0.00401586,0.0986755,1.40095,-0.0301301,0.0133169,2.92581,5,0.1,30,0.2,1.00563,3.07951,0.509376,0.117376,-0.106543,-0.00560135,0.880301,-0.798941,-0.0419915,0.0131042,2.06631,5,0.1,31,0.2,-3.5699,-3.1917,0.693425,-0.060004,0.0113606,-0.0117496,-0.450134,0.0852346,-0.0881255,0.0101675,0.317669,5,0.1,32,0.2,-1.6331,-0.524673,0.500567,0.187212,0.00521094,-0.000461936,1.40405,0.0390708,-0.00345707,0.0108247,2.92614,5,0.1,33,0.2,1.87029,3.06898,0.518993,-0.126809,-0.13777,-0.00508577,-0.951111,-1.03331,-0.038147,0.0160556,2.92579,5,0.1,34,0.2,-0.477736,4.11284,0.653532,0.115806,-0.0766754,-0.00504851,0.868544,-0.574827,-0.0379086,0.0182404,1.58624,5,0.1,35,0.2,-1.5776,-2.21871,0.522284,-0.0492752,-0.0312448,-0.00681728,-0.369549,-0.234485,-0.0511706,0.0113549,0.28342,5,0.1,36,0.2,1.16585,5.11994,0.529559,0.00322163,-0.0726223,0.0773892,0.0241399,-0.544786,0.58037,0.0373787,0.925838,5,0.1,37,0.2,1.93682,-3.20092,0.573575,-0.0977993,0.0755429,0.00249147,-0.733435,0.566721,0.0187159,0.0198849,1.95063,5,0.1,38,0.2,-2.92756,2.19723,0.670234,0.125355,0.017947,-0.0116169,0.940084,0.134706,-0.0870824,0.0111225,1.32802,5,0.1,39,0.2,2.78971,-2.20217,0.694291,-0.0792086,0.0520825,0.00525415,-0.59402,0.390649,0.0394285,0.0291035,0.740262,5,0.1
0,0.3,-1.06913,5.64542,0.587896,0.00327174,-0.323681,0.130149,0.0162199,-1.60173,0.644069,0.0523297,2.92581,5,0.1,1,0.3,-0.376269,0.0648007,0.612649,0.0660681,0.197734,0.00491012,0.326764,0.564709,0.0242889,0.00865546,3.42497,5,0.1,2,0.3,1.40423,2.26084,0.504348,-0.223063,-0.188673,-0.006375,-1.10043,-0.930786,-0.0183769,0.00963524,2.02802,5,0.1,3,0.3,1.87437,1.88743,0.6783,-0.234899,0.207736,0.0108737,-1.1043,1.04054,0.0600778,0.0161254,2.97879,5,0.1,4,0.3,0.524273,-5.30811,0.640263,-0.0554113,0.344407,-0.00650911,-0.274204,1.70442,-0.0322051,0.0120986,2.92578,5,0.1,5,0.3,-2.79087,4.36329,0.644175,-0.0105143,-0.0823773,0.125531,-0.0518262,-0.406295,0.619277,0.0255771,0.537683,5,0.1,6,0.3,-2.59655,5.07427,0.521559,0.00828467,-0.208846,0.147339,0.0409037,-1.03021,0.726864,0.0251379,1.55179,5,0.1,7,0.3,3.64212,-2.48108,0.668839,-0.274266,0.0944588,-0.0122409,-1.35301,0.466034,-0.0603795,0.0155948,2.00029,5,0.1,8,0.3,-2.29855,2.16233,0.610673,0.00863671,0.0689507,0.131491,0.0425875,0.340164,0.648689,0.0129575,0.524855,5,0.1,9,0.3,-0.659384,1.73312,0.508184,0.0905952,0.278676,-0.00943346,0.446942,1.37482,-0.0348575,0.0124538,2.04023,5,0.1,10,0.3,-3.69182,-0.0598908,0.653729,0.34769,-0.0286047,-0.00393959,1.72061,-0.141556,-0.0194944,0.026931,2.9258,5,0.1,11,0.3,-0.445606,-1.44549,0.598516,0.0947807,0.334259,0.0318016,0.469042,1.65414,0.157382,0.0251156,2.9258,5,0.1,12,0.3,-1.87747,-4.55218,0.545494,-0.0109883,0.313065,0.00825701,-0.0543669,1.09443,0.0408553,0.0155732,3.09087,5,0.1,13,0.3,-3.89185,-2.45725,0.574999,0.185292,-0.0165027,0.00444772,0.914082,-0.0814646,0.0219457,0.0117197,0.821666,5,0.1,14,0.3,0.875095,-3.16708,0.516838,0.00442993,0.189775,-0.0118869,0.0218675,0.936151,-0.0586398,0.0104068,0.858503,5,0.1,15,0.3,2.77488,-0.0564997,0.500987,-0.337654,-0.0877055,-0.00144616,-1.67094,-0.43403,-0.00416487,0.00971183,2.92592,5,0.1,16,0.3,0.121822,-3.61571,0.504312,-0.0216661,0.269574,-0.00632284,-0.106885,1.32988,-0.0182278,0.0130748,1.7381,5,0.1,17,0.3,-1.69075,-3.90957,0.692954,0.0606032,0.0016991,0.116856,0.298969,0.00835955,0.576492,0.0233908,0.411263,5,0.1,18,0.3,0.744095,1.78954,0.618733,-0.154702,0.312701,-0.00277543,-0.765573,1.54743,-0.0137351,0.0240875,2.9258,5,0.1,19,0.3,-0.443943,5.81005,0.511526,0.0492764,-0.326189,-0.0102242,0.24385,-1.37043,-0.0494346,0.0238606,2.9732,5,0.1,20,0.3,4.09288,-2.89467,0.545659,-0.309547,0.00595078,0.0646717,-1.10564,0.059396,0.315886,0.031063,3.0799,5,0.1,21,0.3,-5.1562,-2.70326,0.528272,0.250086,0.133963,0.0127578,1.23364,0.660852,0.0629425,0.0109594,1.914,5,0.1,22,0.3,3.53733,-3.10751,0.595751,0.0690851,0.323821,-0.000115763,0.368461,1.51826,-0.0035353,0.0154084,2.95104,5,0.1,23,0.3,-4.68553,-3.65514,0.589271,0.00618845,0.322748,0.132351,0.0306964,1.59714,0.654977,0.0375561,2.9258,5,0.1,24,0.3,4.13203,-5.63497,0.62051,0.00864789,0.348769,-0.00260416,0.0313222,1.72621,-0.00939518,0.0267194,2.92589,5,0.1,25,0.3,2.12372,-2.49318,0.530364,-0.0423972,0.34618,0.00911942,-0.209793,1.71313,0.0451319,0.015464,2.9258,5,0.1,26,0.3,2.95977,-5.61706,0.515862,-0.152916,0.0385925,-0.0117139,-0.754416,0.190318,-0.0577904,0.0260644,0.593464,5,0.1,27,0.3,-1.18164,4.85666,0.541575,0.183479,-0.223493,0.0103902,0.905149,-1.10254,0.0512451,0.0344073,1.98677,5,0.1,28,0.3,-0.056266,1.95398,0.631363,0.0761709,-0.334585,-0.00296365,0.376948,-1.5806,-0.0146776,0.037894,2.9303,5,0.1,29,0.3,0.516177,-4.07058,0.52139,0.0245025,0.347941,-0.00748066,0.121258,1.7218,-0.0370257,0.0133169,2.92581,5,0.1,30,0.3,1.02225,3.06443,0.508612,0.218357,-0.198195,-0.00959346,1.07721,-0.97771,-0.0367202,0.0131042,2.06631,5,0.1,31,0.3,-3.57839,-3.19009,0.691761,-0.111637,0.0211377,-0.0218582,-0.550762,0.104293,-0.107836,0.0101675,0.317669,5,0.1,32,0.3,-1.60657,-0.523934,0.500505,0.348691,0.00970466,-0.000740495,1.72556,0.0480227,-0.00213459,0.0108247,2.92614,5,0.1,33,0.3,1.85232,3.04946,0.518272,-0.236194,-0.256608,-0.00947295,-1.16888,-1.26989,-0.0468753,0.0160556,2.92579,5,0.1,34,0.3,-0.461334,4.10198,0.652816,0.215437,-0.142621,-0.00939555,1.06282,-0.703514,-0.046365,0.0182404,1.58624,5,0.1,35,0.3,-1.58457,-2.22313,0.521318,-0.0916675,-0.0581384,-0.0126858,-0.45222,-0.286877,-0.0625961,0.0113549,0.28342,5,0.1,36,0.3,1.16631,5.10965,0.54052,0.00599101,-0.135113,0.143965,0.029549,-0.666589,0.710212,0.0373787,0.925838,5,0.1,37,0.3,1.92407,-3.18943,0.573928,-0.150818,0.162773,0.0046378,-0.344351,1.08854,0.0228882,0.0198849,1.95063,5,0.1,38,0.3,-2.90981,2.19977,0.668589,0.233195,0.0333965,-0.0216076,1.15038,0.164807,-0.106581,0.0111225,1.32802,5,0.1,39,0.3,2.77849,-2.1948,0.695035,-0.14735,0.0968941,0.00977647,-0.726894,0.478029,0.0482351,0.0291035,0.740262,5,0.1
0,0.4,-1.06873,5.60518,0.604076,0.00483394,-0.478005,0.192203,0.0143051,-1.41644,0.569493,0.0531086,2.509,5,0.1,1,0.4,-0.368056,0.0868545,0.613259,0.0975445,0.238118,0.00724941,0.288799,0.251245,0.0214577,0.00866064,3.46308,5,0.1,2,0.4,1.37652,2.2374,0.503637,-0.328967,-0.278252,-0.00768751,-0.97084,-0.821233,-0.00801682,0.00873808,1.6051,5,0.1,3,0.4,1.84552,1.91333,0.67969,-0.33927,0.308427,0.0168815,-0.940144,0.927866,0.056982,0.0163297,2.58985,5,0.1,4,0.4,0.517384,-5.26529,0.639454,-0.0818297,0.508618,-0.00961274,-0.242472,1.50704,-0.0284612,0.0104852,2.51316,5,0.1,5,0.4,-2.79218,4.35306,0.659769,-0.0155032,-0.121486,0.185131,-0.0456572,-0.358582,0.546336,0.025597,0.425425,5,0.1,6,0.4,-2.59552,5.04833,0.539863,0.012219,-0.308001,0.217292,0.0361204,-0.908613,0.641257,0.0257366,1.48953,5,0.1,7,0.4,3.60805,-2.46935,0.667318,-0.404483,0.139308,-0.0180513,-1.19352,0.411034,-0.0533164,0.0151988,1.58265,5,0.1,8,0.4,-2.29748,2.1709,0.627008,0.0127316,0.101686,0.193919,0.0376701,0.30005,0.572324,0.0130591,0.41527,5,0.1,9,0.4,-0.648129,1.76774,0.507083,0.133608,0.410986,-0.0123814,0.394315,1.21289,-0.0234246,0.0123596,1.95735,5,0.1,10,0.4,-3.64859,-0.063447,0.65324,0.51347,-0.0422435,-0.00581741,1.52123,-0.125159,-0.0172257,0.0262664,2.51494,5,0.1,11,0.4,-0.433822,-1.40394,0.60247,0.139972,0.493634,0.0469655,0.414714,1.46252,0.139117,0.026505,2.51024,5,0.1,12,0.4,-1.87883,-4.51605,0.54652,-0.0162274,0.402927,0.0121936,-0.0480413,0.691175,0.0361204,0.0159241,3.13706,5,0.1,13,0.4,-3.86883,-2.4593,0.575552,0.273263,-0.0243366,0.00655949,0.806451,-0.0718832,0.0193715,0.0101782,0.650112,5,0.1,14,0.4,0.875646,-3.1435,0.515361,0.00653416,0.279874,-0.0175297,0.0192821,0.825882,-0.0517666,0.0107824,0.679399,5,0.1,15,0.4,2.7329,-0.0674036,0.500826,-0.498646,-0.129523,-0.00174195,-1.47736,-0.383757,-0.00187755,0.0102672,2.51102,5,0.1,16,0.4,0.11913,-3.58222,0.503606,-0.0319526,0.397563,-0.00762343,-0.0942983,1.17326,-0.00798702,0.0129841,1.3757,5,0.1,17,0.4,-1.68322,-3.90936,0.707471,0.0893742,0.0025034,0.172338,0.26381,0.00739098,0.508577,0.0230696,0.325395,5,0.1,18,0.4,0.724862,1.82842,0.618388,-0.228463,0.461796,-0.00409931,-0.6769,1.36817,-0.0121295,0.0216506,2.51009,5,0.1,19,0.4,-0.437816,5.77099,0.510262,0.0727706,-0.449872,-0.0149459,0.21562,-1.06359,-0.0429749,0.0199495,2.94829,5,0.1,20,0.4,4.05701,-2.89375,0.553674,-0.401187,0.0127137,0.0949606,-0.712156,0.0712872,0.276744,0.0321727,2.99335,5,0.1,21,0.4,-5.12513,-2.68661,0.529857,0.36881,0.197566,0.0188142,1.08862,0.583053,0.0555515,0.0108716,1.51439,5,0.1,22,0.4,3.54608,-3.06777,0.595718,0.105512,0.467163,-0.000560284,0.342369,1.28996,-0.00497699,0.0155354,2.56536,5,0.1,23,0.4,-4.68476,-3.61502,0.605726,0.00914335,0.476629,0.195457,0.0271797,1.41215,0.579089,0.0376672,2.40357,5,0.1,24,0.4,4.13303,-5.5916,0.620208,0.0112534,0.515079,-0.00338703,0.020504,1.52683,-0.00613928,0.0289603,2.55721,5,0.1,25,0.4,2.11845,-2.45014,0.531498,-0.0626147,0.511241,0.0134677,-0.18537,1.51467,0.0399053,0.0153485,2.61875,5,0.1,26,0.4,2.94077,-5.61227,0.514407,-0.22552,0.0569105,-0.0172764,-0.665426,0.168085,-0.050962,0.0296375,0.469741,5,0.1,27,0.4,-1.15885,4.8289,0.542866,0.27059,-0.329614,0.0153229,0.798523,-0.972509,0.0452399,0.0284074,1.57195,5,0.1,28,0.4,-0.0467962,1.91284,0.630995,0.112489,-0.484297,-0.00437796,0.33329,-1.35189,-0.012964,0.0330097,2.81624,5,0.1,29,0.4,0.519223,-4.02732,0.52046,0.036186,0.51384,-0.0110477,0.107199,1.5223,-0.0327528,0.0110479,2.5151,5,0.1,30,0.4,1.04938,3.0398,0.507485,0.322026,-0.292295,-0.0127569,0.950396,-0.862479,-0.0257492,0.0119218,1.71997,5,0.1,31,0.4,-3.59226,-3.18746,0.689045,-0.164646,0.0311732,-0.0322357,-0.485778,0.0920296,-0.095129,0.00904348,0.251342,5,0.1,32,0.4,-1.56322,-0.522728,0.500423,0.514948,0.0143304,-0.00089258,1.52564,0.0424683,-0.000953674,0.01103,2.51606,5,0.1,33,0.4,1.82295,3.01755,0.517094,-0.348812,-0.37896,-0.0139892,-1.03348,-1.12283,-0.041455,0.0129036,2.52591,5,0.1,34,0.4,-0.43457,4.08426,0.651649,0.317722,-0.210333,-0.0138566,0.937641,-0.620604,-0.0409186,0.0134711,1.31395,5,0.1,35,0.4,-1.59596,-2.23036,0.519742,-0.135186,-0.0857413,-0.0187099,-0.399053,-0.253201,-0.0551939,0.0103372,0.224252,5,0.1,36,0.4,1.16705,5.09287,0.558404,0.00883639,-0.199258,0.212315,0.0260472,-0.588179,0.626624,0.0346466,0.732529,5,0.1,37,0.4,1.90779,-3.16746,0.574504,-0.169969,0.277519,0.00683963,-0.0542998,1.13869,0.020206,0.021772,0.969203,5,0.1,38,0.4,-2.88084,2.20392,0.665905,0.343913,0.0492513,-0.0318661,1.01483,0.145435,-0.0940263,0.00895585,1.0815,5,0.1,39,0.4,2.76019,-2.18276,0.69625,-0.217307,0.142896,0.0144184,-0.641346,0.421643,0.0425577,0.0293367,0.585703,5,0.1
0,0.5,-1.06817,5.5501,0.626225,0.00630524,-0.62375,0.2508,0.0143722,-1.42351,0.572335,0.0531086,2.509,5,0.1,1,0.5,-0.356821,0.111131,0.614094,0.127161,0.240736,0.00944966,0.288464,-0.150521,0.0214316,0.00866064,3.46308,5,0.1,2,0.5,1.33868,2.20539,0.502848,-0.427469,-0.361573,-0.00790888,-0.95088,-0.804305,0.0028871,0.00873808,1.6051,5,0.1,3,0.5,1.8065,1.94905,0.681645,-0.443376,0.406862,0.0220058,-1.07494,0.985354,0.0442266,0.0163297,2.58985,5,0.1,4,0.5,0.507954,-5.20686,0.638346,-0.106781,0.658575,-0.0125423,-0.243718,1.42187,-0.0286177,0.0104852,2.51316,5,0.1,5,0.5,-2.79396,4.33908,0.681064,-0.0201385,-0.157872,0.240562,-0.044778,-0.35125,0.535104,0.025597,0.425425,5,0.1,6,0.5,-2.59412,5.01274,0.564857,0.0158817,-0.40464,0.282354,0.0353456,-0.969082,0.628069,0.0257366,1.48953,5,0.1,7,0.5,3.56152,-2.45332,0.665242,-0.525581,0.181013,-0.0234601,-1.16904,0.4026,-0.0522099,0.0151988,1.58265,5,0.1,8,0.5,-2.29601,2.1826,0.649314,0.0165518,0.132129,0.251986,0.0368804,0.293866,0.560537,0.0130591,0.41527,5,0.1,9,0.5,-0.632761,1.81517,0.505764,0.173615,0.53849,-0.0136746,0.38619,1.26695,-0.00349432,0.0123596,1.95735,5,0.1,10,0.5,-3.58965,-0.068315,0.652569,0.663611,-0.0551228,-0.00759028,1.41302,-0.125803,-0.0173226,0.0262664,2.51494,5,0.1,11,0.5,-0.417692,-1.34709,0.607882,0.182647,0.642983,0.0612818,0.416849,1.44921,0.13984,0.026505,2.51024,5,0.1,12,0.5,-1.8807,-4.47354,0.547925,-0.0211654,0.436416,0.0159058,-0.0481829,0.0343621,0.036221,0.0159241,3.13706,5,0.1,13,0.5,-3.8374,-2.4621,0.576306,0.355086,-0.0316273,0.0085244,0.789866,-0.0703782,0.0189617,0.0101782,0.650112,5,0.1,14,0.5,0.876397,-3.11131,0.513379,0.0084905,0.36367,-0.0217865,0.0188798,0.808939,-0.0330023,0.0107824,0.679399,5,0.1,15,0.5,2.67552,-0.0823293,0.500647,-0.648195,-0.169013,-0.00179615,-1.44005,-0.38573,0.000633299,0.0102672,2.51102,5,0.1,16,0.5,0.115455,-3.53649,0.502824,-0.04152,0.516601,-0.00784537,-0.0923583,1.14912,0.0028424,0.0129841,1.3757,5,0.1,17,0.5,-1.67294,-3.90907,0.727294,0.116139,0.00325441,0.223938,0.258371,0.00724196,0.49812,0.0230696,0.325395,5,0.1,18,0.5,0.698534,1.88163,0.617915,-0.298119,0.602587,-0.00534784,-0.680387,1.37524,-0.0121966,0.0216506,2.51009,5,0.1,19,0.5,-0.429431,5.72208,0.508601,0.0949401,-0.515845,-0.017816,0.216398,-0.306755,-0.0155792,0.0199495,2.94829,5,0.1,20,0.5,4.01374,-2.89299,0.56464,-0.459858,-0.00492036,0.12476,-0.449255,-0.371784,0.301603,0.0321727,2.99335,5,0.1,21,0.5,-5.08271,-2.66389,0.532022,0.479259,0.256723,0.0244497,1.06621,0.571072,0.054393,0.0108716,1.51439,5,0.1,22,0.5,3.5584,-3.01424,0.595642,0.14094,0.604929,-0.000913162,0.348046,1.38459,-0.00221655,0.0155354,2.56536,5,0.1,23,0.5,-4.68371,-3.56013,0.628234,0.0119157,0.620904,0.25462,0.0269115,1.40093,0.574477,0.0376672,2.40357,5,0.1,24,0.5,4.13426,-5.53291,0.619841,0.0130922,0.653204,-0.00393828,0.0156164,1.19779,-0.00468269,0.0289603,2.55721,5,0.1,25,0.5,2.11123,-2.39225,0.53305,-0.081693,0.638261,0.0175741,-0.186399,1.01072,0.0401139,0.0153485,2.61875,5,0.1,26,0.5,2.91483,-5.60572,0.51246,-0.293036,0.0739649,-0.0212904,-0.651762,0.164628,-0.0293553,0.0296375,0.469741,5,0.1,27,0.5,-1.12772,4.79098,0.544629,0.351609,-0.428289,0.0199126,0.78211,-0.952542,0.0443012,0.0284074,1.57195,5,0.1,28,0.5,-0.0338336,1.85916,0.63049,0.146781,-0.575582,-0.0057118,0.334918,-0.520535,-0.0130236,0.0330097,2.81624,5,0.1,29,0.5,0.523393,-3.96834,0.519187,0.0472173,0.663994,-0.0144173,0.10775,1.41235,-0.0329129,0.0110479,2.5151,5,0.1,30,0.5,1.08558,3.00641,0.506119,0.394629,-0.373354,-0.0142328,0.507288,-0.730097,-0.00484288,0.0119218,1.71997,5,0.1,31,0.5,-3.6112,-3.18388,0.685337,-0.213934,0.0405107,-0.0418875,-0.475809,0.0901371,-0.0931695,0.00904348,0.251342,5,0.1,32,0.5,-1.50411,-0.521076,0.500331,0.66515,0.0187004,-0.00091996,1.41034,0.0426844,0.000327826,0.01103,2.51606,5,0.1,33,0.5,1.78312,2.97378,0.515484,-0.444853,-0.497294,-0.0181932,-0.85555,-1.17823,-0.0405684,0.0129036,2.52591,5,0.1,34,0.5,-0.398748,4.06046,0.650055,0.392435,-0.262219,-0.0180073,0.560498,-0.411212,-0.0400618,0.0134711,1.31395,5,0.1,35,0.5,-1.61151,-2.24022,0.517599,-0.175673,-0.111426,-0.024063,-0.39082,-0.247911,-0.0496693,0.0103372,0.224252,5,0.1,36,0.5,1.16807,5.06995,0.582826,0.0114797,-0.258932,0.275891,0.0255182,-0.575989,0.613719,0.0346466,0.732529,5,0.1,37,0.5,1.89085,-3.13398,0.575291,-0.165704,0.391136,0.0088891,0.126965,1.08582,0.0197813,0.021772,0.969203,5,0.1,38,0.5,-2.8418,2.20958,0.662196,0.432053,0.0638597,-0.0426469,0.73038,0.139832,-0.11415,0.00895585,1.0815,5,0.1,39,0.5,2.73519,-2.16632,0.697908,-0.282376,0.185677,0.0187358,-0.628129,0.413001,0.0416785,0.0293367,0.585703,5,0.1
0,0.6,-1.06747,5.4811,0.653968,0.00757575,-0.74991,0.301525,0.0106096,-1.0469,0.420868,0.0529461,1.91407,5,0.1,1,0.6,-0.342764,0.134108,0.615139,0.152668,0.216266,0.0113443,0.211015,-0.304729,0.015676,0.00825225,3.48328,5,0.1,2,0.6,1.29153,2.16552,0.502084,-0.510913,-0.432152,-0.00724196,-0.684023,-0.578642,0.00983477,0.00906053,1.19558,5,0.1,3,0.6,1.75702,1.99438,0.684038,-0.542697,0.495979,0.0255212,-0.863016,0.757396,0.0253022,0.0200563,2.33266,5,0.1,4,0.6,0.496142,-5.1345,0.636959,-0.128382,0.781333,-0.0150785,-0.179216,0.986338,-0.0210702,0.0112013,2.32234,5,0.1,5,0.6,-2.79618,4.32167,0.707594,-0.0240684,-0.188684,0.287519,-0.0321865,-0.252962,0.384986,0.0251271,0.316725,5,0.1,6,0.6,-2.59236,4.96771,0.595996,0.0189841,-0.492358,0.33747,0.0252724,-0.745773,0.451833,0.0257495,1.12592,5,0.1,7,0.6,3.50356,-2.43336,0.662654,-0.628173,0.216341,-0.0280425,-0.841022,0.289559,-0.0375509,0.0142977,1.17826,5,0.1,8,0.6,-2.29419,2.19717,0.677104,0.0197887,0.157917,0.301176,0.0263453,0.211477,0.403196,0.0127601,0.309157,5,0.1,9,0.6,-0.613614,1.87497,0.504405,0.207505,0.65234,-0.0132784,0.277817,0.959933,0.0104904,0.0125745,1.47995,5,0.1,10,0.6,-3.51685,-0.0744126,0.65173,0.784755,-0.0662731,-0.00912547,0.965118,-0.0925176,-0.0127554,0.0275962,2.33157,5,0.1,11,0.6,-0.397488,-1.27608,0.614661,0.219594,0.770694,0.0736773,0.306562,1.05244,0.102818,0.0273855,2.29627,5,0.1,12,0.6,-1.88304,-4.43043,0.549684,-0.0254303,0.419569,0.0191137,-0.0354648,-0.329733,0.0265837,0.0163781,3.22535,5,0.1,13,0.6,-3.79824,-2.46559,0.577246,0.424397,-0.0378013,0.0101879,0.56839,-0.0505447,0.0136495,0.0101901,0.483994,5,0.1,14,0.6,0.877334,-3.0712,0.511069,0.0101477,0.434661,-0.0240862,0.0135601,0.58198,-0.0128746,0.0131058,0.50637,5,0.1,15,0.6,2.60406,-0.101026,0.500473,-0.774252,-0.203202,-0.00164658,-1.03021,-0.283666,0.00226498,0.0136749,2.30489,5,0.1,16,0.6,0.110876,-3.47952,0.502067,-0.049625,0.617439,-0.00718385,-0.0664406,0.826716,0.00977516,0.012948,1.0248,5,0.1,17,0.6,-1.66013,-3.90871,0.75199,0.13881,0.00389218,0.267652,0.185907,0.00524521,0.358313,0.0228213,0.242249,5,0.1,18,0.6,0.665557,1.94829,0.617324,-0.358424,0.72448,-0.00642836,-0.500351,1.01137,-0.0090003,0.0206091,2.24039,5,0.1,19,0.6,-0.418931,5.66987,0.506779,0.11411,-0.520265,-0.0182837,0.158936,0.178814,0.0051558,0.0217221,3.006,5,0.1,20,0.6,3.96602,-2.89571,0.578545,-0.489241,-0.0523388,0.152247,-0.132442,-0.535846,0.235468,0.0115058,1.00109,5,0.1,21,0.6,-5.02985,-2.63558,0.534718,0.572824,0.306839,0.0292242,0.766754,0.410795,0.0391006,0.011511,1.12742,5,0.1,22,0.6,3.57412,-2.94722,0.595544,0.172019,0.730217,-0.00103116,0.26083,1.06311,-0.000208616,0.0156474,2.32741,5,0.1,23,0.6,-4.68239,-3.49154,0.656361,0.0142932,0.744468,0.305288,0.0193119,1.01912,0.417918,0.0345592,1.8194,5,0.1,24,0.6,4.13563,-5.4624,0.619427,0.0142694,0.748444,-0.00429153,0.00715256,0.683069,-0.00220537,0.0280911,2.68228,5,0.1,25,0.6,2.1022,-2.3243,0.534994,-0.0982106,0.71125,0.0211298,-0.13721,0.442863,0.0294745,0.0134306,2.7751,5,0.1,26,0.6,2.88251,-5.59757,0.51022,-0.350231,0.0884056,-0.0231713,-0.46885,0.118732,-0.00846386,0.026457,0.350279,5,0.1,27,0.6,-1.08895,4.74375,0.546825,0.420243,-0.511885,0.0238001,0.562668,-0.685453,0.0318587,0.0282908,1.1703,5,0.1,28,0.6,-0.0175971,1.80005,0.629858,0.176462,-0.596821,-0.00686646,0.246248,0.0582933,-0.00956655,0.0328888,2.85817,5,0.1,29,0.6,0.528616,-3.89551,0.517592,0.0567675,0.785017,-0.0173345,0.0792444,0.963569,-0.0241995,0.0114605,2.33231,5,0.1,30,0.6,1.12689,2.96584,0.504698,0.424841,-0.433552,-0.0139296,0.104904,-0.454783,0.0100434,0.0111047,1.56587,5,0.1,31,0.6,-3.63479,-3.17941,0.680718,-0.255692,0.0484169,-0.0500634,-0.34225,0.0649691,-0.0670552,0.00902052,0.187119,5,0.1,32,0.6,-1.43119,-0.519008,0.500242,0.785804,0.0224829,-0.000843406,0.958681,0.0314116,0.00116229,0.0119681,2.33512,5,0.1,33,0.6,1.73487,2.91852,0.513478,-0.514653,-0.603354,-0.0217527,-0.519633,-0.896215,-0.0291467,0.0126348,2.41344,5,0.1,34,0.6,-0.357299,4.03256,0.648069,0.430702,-0.291765,-0.0215217,0.209749,-0.176907,-0.0288188,0.0150741,1.14738,5,0.1,35,0.6,-1.63089,-2.25251,0.514968,-0.209966,-0.133181,-0.0282735,-0.281155,-0.178337,-0.033021,0.0108382,0.167468,5,0.1,36,0.6,1.16934,5.04139,0.613252,0.013721,-0.309479,0.329749,0.0183582,-0.414371,0.441462,0.0358051,0.545341,5,0.1,37,0.6,1.87513,-3.08985,0.576271,-0.146908,0.486553,0.0106245,0.238419,0.788927,0.0142157,0.0206187,0.720911,5,0.1,38,0.6,-2.79553,2.21661,0.657377,0.487244,0.0760436,-0.0534102,0.363708,0.0989437,-0.0956357,0.0101183,0.89976,5,0.1,39,0.6,2.70405,-2.14585,0.699974,-0.337499,0.22192,0.0223935,-0.451803,0.29707,0.0299513,0.0314575,0.445403,5,0.1
0,0.7,-1.06666,5.40167,0.686201,0.00860207,-0.830412,0.342292,0.00934303,-0.556469,0.37111,0.0529461,1.91407,5,0.1,1,0.7,-0.326439,0.153848,0.616352,0.173537,0.176917,0.0128946,0.193641,-0.405762,0.0143833,0.00825225,3.48328,5,0.1,2,0.7,1.23708,2.11946,0.501417,-0.576583,-0.487701,-0.00604633,-0.591829,-0.500605,0.0135675,0.00906053,1.19558,5,0.1,3,0.7,1.69822,2.04726,0.686803,-0.633638,0.55623,0.0304598,-0.894755,0.436686,0.0662208,0.0200563,2.33266,5,0.1,4,0.7,0.482396,-5.05249,0.635344,-0.14637,0.848919,-0.0171931,-0.169195,0.388622,-0.0198856,0.0112013,2.32234,5,0.1,5,0.7,-2.79874,4.30156,0.738238,-0.0271603,-0.212966,0.324479,-0.027895,-0.218809,0.333078,0.0251271,0.316725,5,0.1,6,0.7,-2.59034,4.91474,0.631963,0.0214111,-0.565929,0.380847,0.02186,-0.683099,0.390921,0.0257495,1.12592,5,0.1,7,0.7,3.43661,-2.4103,0.659666,-0.708916,0.244141,-0.0316475,-0.727683,0.250548,-0.032492,0.0142977,1.17826,5,0.1,8,0.7,-2.29208,2.214,0.709203,0.0223193,0.178218,0.339885,0.0228137,0.182942,0.348847,0.0127601,0.309157,5,0.1,9,0.7,-0.591498,1.94498,0.503147,0.234176,0.746468,-0.0117111,0.240363,0.868291,0.0199117,0.0125745,1.47995,5,0.1,10,0.7,-3.43461,-0.0815087,0.650752,0.850106,-0.0755586,-0.0104057,0.368252,-0.087338,-0.0120401,0.0275962,2.33157,5,0.1,11,0.7,-0.373975,-1.19478,0.62255,0.250366,0.845229,0.0839991,0.289476,0.451878,0.0970997,0.0273855,2.29627,5,0.1,12,0.7,-1.88576,-4.39083,0.551729,-0.0289451,0.368015,0.0217497,-0.0326782,-0.608861,0.0245199,0.0163781,3.22535,5,0.1,13,0.7,-3.753,-2.46962,0.578332,0.478962,-0.0426542,0.0114981,0.491709,-0.0437349,0.0118017,0.0101901,0.483994,5,0.1,14,0.7,0.878415,-3.02488,0.508645,0.0114497,0.490534,-0.0239573,0.0117347,0.50354,0.0137389,0.0131058,0.50637,5,0.1,15,0.7,2.52252,-0.122783,0.500321,-0.84646,-0.231674,-0.00137296,-0.430748,-0.267831,0.00309944,0.0136749,2.30489,5,0.1,16,0.7,0.105587,-3.41371,0.501404,-0.0560035,0.696805,-0.00599632,-0.057484,0.715241,0.0134669,0.012948,1.0248,5,0.1,17,0.7,-1.64534,-3.90829,0.780516,0.156656,0.0043951,0.302052,0.160821,0.00452995,0.310015,0.0228213,0.242249,5,0.1,18,0.7,0.627179,2.02528,0.616635,-0.40865,0.809514,-0.00733146,-0.472497,0.664584,-0.00848994,0.0206091,2.24039,5,0.1,19,0.7,-0.406595,5.61968,0.505007,0.133458,-0.47664,-0.0168792,0.210417,0.595748,0.0215583,0.0217221,3.006,5,0.1,20,0.7,3.91837,-2.90298,0.594436,-0.446816,-0.0871595,0.160924,0.881523,-0.182882,-0.0427924,0.0115058,1.00109,5,0.1,21,0.7,-4.9688,-2.60287,0.537832,0.646439,0.346277,0.032978,0.663459,0.355422,0.0338294,0.011511,1.12742,5,0.1,22,0.7,3.5926,-2.86955,0.595444,0.196876,0.815955,-0.000919867,0.223383,0.636265,0.00218675,0.0156474,2.32741,5,0.1,23,0.7,-4.68087,-3.41269,0.688949,0.0161581,0.825097,0.345591,0.0168979,0.580683,0.365101,0.0345592,1.8194,5,0.1,24,0.7,4.13709,-5.38579,0.618987,0.0149168,0.768962,-0.00449168,0.0051558,-0.204831,-0.0015907,0.0280911,2.68228,5,0.1,25,0.7,2.09168,-2.25249,0.537256,-0.111964,0.711274,0.0240849,-0.129193,-0.372335,0.0277683,0.0134306,2.7751,5,0.1,26,0.7,2.84519,-5.58814,0.507905,-0.395243,0.0997983,-0.0227046,-0.405639,0.102669,0.0161268,0.026457,0.350279,5,0.1,27,0.7,-1.04416,4.68919,0.549361,0.47426,-0.577689,0.0268589,0.486821,-0.593036,0.0275634,0.0282908,1.1703,5,0.1,28,0.7,0.00129457,1.7418,0.629123,0.201116,-0.559509,-0.00782451,0.231376,0.584699,-0.00898913,0.0328888,2.85817,5,0.1,29,0.7,0.534694,-3.81325,0.515736,0.06472,0.8502,-0.0197628,0.0747964,0.366673,-0.0228398,0.0114605,2.33231,5,0.1,30,0.7,1.1693,2.92119,0.503375,0.417768,-0.450207,-0.0123646,-0.228651,0.0905991,0.0202656,0.0111047,1.56587,5,0.1,31,0.7,-3.66205,-3.17425,0.675382,-0.288551,0.0546519,-0.0565006,-0.296146,0.0561625,-0.0580065,0.00902052,0.187119,5,0.1,32,0.7,-1.34887,-0.5166,0.500165,0.850473,0.0256345,-0.000702776,0.361994,0.0296384,0.00158697,0.0119681,2.33512,5,0.1,33,0.7,1.6813,2.85466,0.511194,-0.551678,-0.664351,-0.0235453,-0.216238,-0.332341,-0.00733882,0.0126348,2.41344,5,0.1,34,0.7,-0.314017,4.00312,0.645775,0.428037,-0.291629,-0.024288,-0.206305,0.152111,-0.0249222,0.0150741,1.14738,5,0.1,35,0.7,-1.65326,-2.2667,0.51204,-0.236957,-0.150299,-0.0296897,-0.243239,-0.154257,0.00276044,0.0108382,0.167468,5,0.1,36,0.7,1.1708,5.00841,0.648397,0.015484,-0.349259,0.372131,0.0158921,-0.358462,0.381958,0.0358051,0.545341,5,0.1,37,0.7,1.86175,-3.03735,0.577404,-0.119676,0.561453,0.011989,0.297219,0.671998,0.0122972,0.0206187,0.720911,5,0.1,38,0.7,-2.74552,2.22463,0.651435,0.507745,0.0835143,-0.066338,0.049293,0.0494719,-0.150111,0.0101183,0.89976,5,0.1,39,0.7,2.66808,-2.12248,0.702361,-0.380875,0.242231,0.0252692,-0.390902,0.111073,0.0259206,0.0314575,0.445403,5,0.1
0,0.8,-1.06576,5.31667,0.722047,0.00934303,-0.861812,0.371823,0.0051856,-0.0841618,0.20358,0.0503459,1.41008,5,0.1,1,0.8,-0.308232,0.169812,0.617705,0.189248,0.146362,0.0140622,0.111818,-0.169352,0.00828505,0.011453,3.35076,5,0.1,2,0.8,1.17687,2.06853,0.500883,-0.622982,-0.526947,-0.00461787,-0.310838,-0.262976,0.0145435,0.0100055,0.844878,5,0.1,3,0.8,1.63075,2.10447,0.690198,-0.711232,0.581765,0.0374958,-0.613987,0.0692606,0.0689924,0.0151464,2.15125,5,0.1,4,0.8,0.467006,-4.96642,0.633536,-0.160302,0.866032,-0.0188306,-0.101596,-0.000238419,-0.0119507,0.00889787,2.25193,5,0.1,5,0.8,-2.80158,4.27932,0.772124,-0.0293434,-0.230134,0.350595,-0.014782,-0.114679,0.17488,0.0240525,0.22362,5,0.1,6,0.8,-2.58811,4.85512,0.671736,0.0231266,-0.621784,0.411496,0.0114441,-0.404596,0.205308,0.0261129,0.805899,5,0.1,7,0.8,3.36258,-2.38481,0.656361,-0.765967,0.26378,-0.0341937,-0.382185,0.131726,-0.0170767,0.0144415,0.83193,5,0.1,8,0.8,-2.28975,2.23261,0.744697,0.0241101,0.192565,0.367235,0.0119209,0.0959635,0.183165,0.0148878,0.218281,5,0.1,9,0.8,-0.567043,2.02346,0.502085,0.25302,0.81684,-0.00946671,0.126213,0.50211,0.0241697,0.0123341,1.06421,5,0.1,10,0.8,-3.3485,-0.0894534,0.649658,0.866026,-0.0827497,-0.0113964,0,-0.0524409,-0.00724196,0.0253971,2.29461,5,0.1,11,0.8,-0.34765,-1.10884,0.631382,0.274204,0.866026,0.0919968,0.173852,0,0.0582933,0.026264,2.20888,5,0.1,12,0.8,-1.8888,-4.35695,0.554012,-0.0316054,0.311887,0.023745,-0.0190735,-0.466108,0.0143051,0.015502,3.20968,5,0.1,13,0.8,-3.70299,-2.47407,0.579533,0.517517,-0.0460804,0.0124216,0.258088,-0.0228882,0.00622869,0.00895701,0.533014,5,0.1,14,0.8,0.879611,-2.97365,0.50635,0.0123695,0.530016,-0.0216573,0.00616908,0.264287,0.0308156,0.0119843,0.358204,5,0.1,15,0.8,2.43654,-0.147143,0.5002,-0.866026,-0.253729,-0.00104755,0,-0.160828,0.00330806,0.0116248,2.22335,5,0.1,16,0.8,0.0997384,-3.34094,0.500875,-0.0605104,0.752884,-0.00457913,-0.0301823,0.375509,0.0144541,0.0122794,0.724294,5,0.1,17,0.8,-1.62898,-3.90784,0.81206,0.169265,0.00475049,0.326359,0.0844598,0.0025034,0.16278,0.0196824,2.96804,5,0.1,18,0.8,0.58421,2.10885,0.615864,-0.447561,0.854492,-0.00803173,-0.283808,0.23067,-0.00506639,0.0175512,2.12679,5,0.1,19,0.8,-0.392231,5.57507,0.503445,0.153147,-0.416303,-0.0142217,0.170529,0.557423,0.0303984,0.0219402,3.0328,5,0.1,20,0.8,3.8791,-2.91218,0.609986,-0.330842,-0.0930309,0.147207,1.35839,0.0468493,-0.21556,0.0320472,3.33977,5,0.1,21,0.8,-4.90129,-2.56671,0.541276,0.698459,0.374144,0.0356302,0.34833,0.186682,0.0177622,0.011785,0.796034,5,0.1,22,0.8,3.61325,-2.78554,0.595365,0.214529,0.856709,-0.00063628,0.120878,0.186324,0.00327826,0.0130861,2.24312,5,0.1,23,0.8,-4.67918,-3.32806,0.725092,0.017488,0.859928,0.374438,0.00905991,0.121951,0.196218,0.0361319,1.33192,5,0.1,24,0.8,4.1386,-5.31093,0.618533,0.0151873,0.719559,-0.00457466,-0.000476837,-0.730276,2.98023e-05,0.0302208,2.89722,5,0.1,25,0.8,2.07991,-2.1841,0.539788,-0.122595,0.649154,0.0263691,-0.0772476,-0.816107,0.0165999,0.0136159,2.9996,5,0.1,26,0.8,2.80391,-5.57772,0.505745,-0.427049,0.107849,-0.0202537,-0.213027,0.0538826,0.0314415,0.0260412,0.248,5,0.1,27,0.8,-0.99463,4.62886,0.552166,0.512429,-0.624192,0.02902,0.255615,-0.311375,0.0144839,0.0255392,1.02802,5,0.1,28,0.8,0.0224347,1.68899,0.628301,0.220124,-0.496086,-0.00856221,0.138102,0.624895,-0.00539422,0.0344434,2.91349,5,0.1,29,0.8,0.541499,-3.72713,0.513658,0.0708774,0.866026,-0.0216439,0.0449121,0,-0.0136793,0.0120388,2.26772,5,0.1,30,0.8,1.2095,2.87731,0.50225,0.382474,-0.421256,-0.0100583,-0.4614,0.461459,0.0250638,0.00993332,1.39811,5,0.1,31,0.8,-3.69218,-3.16854,0.669482,-0.311768,0.0590563,-0.0610486,-0.155568,0.0294447,-0.030458,0.00963857,0.132118,5,0.1,32,0.8,-1.26275,-0.513905,0.500102,0.866023,0.0280738,-0.000536442,5.96046e-05,0.017792,0.00169873,0.0123966,2.27185,5,0.1,33,0.8,1.62558,2.78743,0.508835,-0.557408,-0.671834,-0.0233501,0.102103,0.171185,0.0106096,0.0119916,2.74047,5,0.1,34,0.8,-0.272571,3.97508,0.643239,0.398533,-0.266212,-0.0262409,-0.349618,0.334978,-0.0130832,0.0161533,1.25649,5,0.1,35,0.8,-1.67801,-2.2824,0.50913,-0.256029,-0.162393,-0.0280842,-0.127673,-0.0809431,0.0276268,0.00889346,0.202247,5,0.1,36,0.8,1.17241,4.97193,0.687259,0.016731,-0.377357,0.402078,0.00834465,-0.188351,0.20054,0.0359016,0.385035,5,0.1,37,0.8,1.85131,-2.97829,0.578656,-0.0890821,0.61475,0.0129536,0.30762,0.368953,0.0064373,0.0275966,0.893667,5,0.1,38,0.8,-2.69499,2.23314,0.644047,0.497925,0.0858128,-0.0811994,-0.240326,-0.0038147,-0.137597,0.00893732,0.752786,5,0.1,39,0.8,2.62831,-2.098,0.705,-0.411522,0.244647,0.0273004,-0.205278,-0.0597239,0.0136197,0.0324389,0.345984,5,0.1
0,0.9,-1.0648,5.23023,0.760207,0.00981726,-0.865466,0.390499,0.0038445,0.00116229,0.151411,0.0503459,1.41008,5,0.1,1,0.9,-0.288743,0.183924,0.619153,0.200277,0.141919,0.0148797,0.0975057,0.17958,0.00723451,0.011453,3.35076,5,0.1,2,0.9,1.11309,2.01458,0.500493,-0.651148,-0.550774,-0.00320012,-0.222653,-0.188336,0.0135191,0.0100055,0.844878,5,0.1,3,0.9,1.55643,2.16324,0.694262,-0.774919,0.594998,0.0434291,-0.604853,0.154585,0.0480115,0.0151464,2.15125,5,0.1,4,0.9,0.450447,-4.87981,0.631591,-0.170799,0.866023,-0.020065,-0.0975542,2.98023e-05,-0.0114664,0.00889787,2.25193,5,0.1,5,0.9,-2.80459,4.25576,0.808017,-0.030683,-0.240527,0.366441,-0.0105798,-0.0821352,0.12527,0.0240525,0.22362,5,0.1,6,0.9,-2.58574,4.79098,0.713865,0.0241652,-0.659683,0.430099,0.00819564,-0.319809,0.14706,0.0261129,0.805899,5,0.1,7,0.9,3.28416,-2.3578,0.65286,-0.800599,0.275716,-0.035741,-0.273764,0.0943393,-0.0122264,0.0144415,0.83193,5,0.1,8,0.9,-2.28728,2.25232,0.782294,0.0251915,0.201261,0.383832,0.00853837,0.068754,0.131205,0.0148878,0.218281,5,0.1,9,0.9,-0.541139,2.10723,0.501261,0.264457,0.854348,-0.00701416,0.0904053,0.241965,0.0243187,0.0123341,1.06421,5,0.1,10,0.9,-3.26189,-0.0984883,0.648481,0.866026,-0.101999,-0.0121345,0,-0.296239,-0.0067763,0.0253971,2.29461,5,0.1,11,0.9,-0.319324,-1.02223,0.640885,0.292188,0.866026,0.0980279,0.167308,-3.72529e-06,0.056114,0.026264,2.20888,5,0.1,12,0.9,-1.89206,-4.32786,0.556459,-0.0334702,0.27564,0.0251446,-0.0163764,-0.145674,0.012286,0.015502,3.20968,5,0.1,13,0.9,-3.64986,-2.47895,0.580729,0.544944,-0.0527482,0.0108265,0.256658,-0.0980645,-0.0339262,0.00895701,0.533014,5,0.1,14,0.9,0.880877,-2.91939,0.504357,0.0129287,0.553967,-0.0180542,0.00442192,0.189334,0.0399761,0.0119843,0.358204,5,0.1,15,0.9,2.34994,-0.173353,0.500112,-0.866026,-0.270351,-0.0007255,0,-0.154523,0.00306964,0.0116248,2.22335,5,0.1,16,0.9,0.0935434,-3.26386,0.500488,-0.0632455,0.78691,-0.00317153,-0.0216202,0.268966,0.013411,0.0122794,0.724294,5,0.1,17,0.9,-1.61165,-3.90547,0.844846,0.176918,0.0583176,0.32333,0.0604913,0.950053,-0.199489,0.0196824,2.96804,5,0.1,18,0.9,0.537978,2.195,0.615035,-0.476888,0.865305,-0.00855597,-0.272593,0.0288337,-0.00487641,0.0175512,2.12679,5,0.1,19,0.9,-0.376007,5.53612,0.502181,0.171523,-0.366997,-0.0110012,0.182074,0.307411,0.0331253,0.0219402,3.0328,5,0.1,20,0.9,3.85025,-2.92112,0.623946,-0.268288,-0.0844687,0.134681,0.0257343,0.118196,-0.0542887,0.0320472,3.33977,5,0.1,21,0.9,-4.82979,-2.52841,0.544924,0.730026,0.39106,0.0372396,0.249565,0.133738,0.0127219,0.011785,0.796034,5,0.1,22,0.9,3.63532,-2.6993,0.59532,0.226453,0.865443,-0.000259839,0.104994,0.0232905,0.00406057,0.0130861,2.24312,5,0.1,23,0.9,-4.67739,-3.2417,0.763475,0.018315,0.865306,0.392333,0.00661612,0.00169873,0.143394,0.0361319,1.33192,5,0.1,24,0.9,4.14012,-5.24355,0.618075,0.0151858,0.621735,-0.00458332,-0.000298023,-1.11797,1.86265e-05,0.0302208,2.89722,5,0.1,25,0.9,2.06725,-2.12402,0.542511,-0.130466,0.547552,0.028061,-0.0721812,-1.11294,0.0155233,0.0136159,2.9996,5,0.1,26,0.9,2.76019,-5.56668,0.503892,-0.446354,0.112728,-0.016664,-0.152588,0.0385344,0.0391528,0.0260412,0.248,5,0.1,27,0.9,-0.942168,4.5648,0.555137,0.535591,-0.656854,0.0303324,0.183098,-0.302076,0.0103712,0.0255392,1.02802,5,0.1,28,0.9,0.0451575,1.64251,0.627417,0.234162,-0.437143,-0.00910992,0.128411,0.425331,-0.00501052,0.0344434,2.91349,5,0.1,29,0.9,0.54882,-3.64053,0.51144,0.0755094,0.866026,-0.0225581,0.0429749,0,-0.00425428,0.0120388,2.26772,5,0.1,30,0.9,1.24576,2.83816,0.501372,0.345267,-0.356285,-0.00750162,-0.301152,0.79301,0.0254735,0.00993332,1.39811,5,0.1,31,0.9,-3.7241,-3.1625,0.663232,-0.325865,0.0617232,-0.0638084,-0.111431,0.0210851,-0.0218116,0.00963857,0.132118,5,0.1,32,0.9,-1.17614,-0.511005,0.500057,0.866026,0.0299056,-0.000371318,7.45058e-06,0.0169687,0.0015758,0.0123966,2.27185,5,0.1,33,0.9,1.57094,2.72206,0.506585,-0.529801,-0.627021,-0.0213617,0.431597,0.686377,0.0277422,0.0119916,2.74047,5,0.1,34,0.9,-0.234686,3.95042,0.640553,0.359465,-0.225035,-0.0274261,-0.341725,0.45152,-0.00936165,0.0161533,1.25649,5,0.1,35,0.9,-1.70445,-2.29917,0.506492,-0.274181,-0.173901,-0.0244156,-0.208244,-0.131994,0.0440218,0.00889346,0.202247,5,0.1,36,0.9,1.17413,4.9333,0.728423,0.0174874,-0.394423,0.420251,0.00598282,-0.134856,0.143651,0.0359016,0.385035,5,0.1,37,0.9,1.84285,-2.91554,0.579982,-0.0893017,0.634539,0.013537,-0.249319,0.026986,0.00461191,0.0275966,0.893667,5,0.1,38,0.9,-2.64648,2.24157,0.635119,0.471534,0.0817776,-0.0981904,-0.29555,-0.0722706,-0.187185,0.00893732,0.752786,5,0.1,39,0.9,2.58617,-2.07419,0.707795,-0.430124,0.228257,0.0285346,-0.14703,-0.25332,0.00976026,0.0324389,0.345984,5,0.1
0,1,-1.06381,5.14382,0.799804,0.0100315,-0.861323,0.399023,0.000238419,0.0941753,0.00679493,0.0526897,1.03466,5,0.1,1,1,-0.268327,0.2,0.620669,0.206857,0.188985,0.0153676,0.0264496,0.729747,0.00193715,0.00869871,2.99189,5,0.1,2,1,1.0472,1.95885,0.500237,-0.662553,-0.560421,-0.00196248,0.0142455,0.0120997,0.0111163,0.0104966,0.575339,5,0.1,3,1,1.4763,2.22338,0.698799,-0.822896,0.605702,0.0468343,-0.316501,0.0305176,0.0191629,0.0152802,2.0618,5,0.1,4,1,0.432958,-4.79321,0.629537,-0.177988,0.866032,-0.0209108,-0.0387728,-0.000238419,-0.00455976,0.00881649,2.24987,5,0.1,5,1,-2.80769,4.23142,0.845094,-0.0312328,-0.244737,0.372857,0.000715256,0.00524521,-0.00804663,0.0262642,0.152072,5,0.1,6,1,-2.58329,4.72377,0.757382,0.024581,-0.680137,0.437632,-0.000476837,-0.0667572,-0.00944734,0.0226978,0.553737,5,0.1,7,1,3.20315,-2.3299,0.649244,-0.814623,0.280553,-0.0363678,0.0175238,-0.00607967,0.00077486,0.0152692,0.565743,5,0.1,8,1,-2.28473,2.27269,0.82113,0.02563,0.204778,0.390552,-0.000596046,-0.00441074,-0.00843406,0.00715501,0.306249,5,0.1,9,1,-0.514381,2.19344,0.500677,0.269087,0.865465,-0.00469983,-0.00579655,-0.0112057,0.0216067,0.0128151,0.873402,5,0.1,10,1,-3.17529,-0.110326,0.64724,0.866026,-0.135591,-0.0126258,0,-0.347857,-0.0025332,0.0274216,2.26173,5,0.1,11,1,-0.289404,-0.935632,0.650923,0.304537,0.866026,0.102171,0.0668764,0,0.0224113,0.0246165,2.20205,5,0.1,12,1,-1.89547,-4.3,0.559022,-0.0345677,0.291383,0.0259697,-0.00435114,0.433922,0.00321865,0.0160598,2.93388,5,0.1,13,1,-3.59431,-2.48476,0.581604,0.563139,-0.0635087,0.00638962,0.0838041,-0.107765,-0.0514388,0.00962776,0.384442,5,0.1,14,1,0.882185,-2.86334,0.502757,0.0131547,0.563663,-0.0138909,-0.000298023,-0.0121593,0.0422597,0.0105713,0.244405,5,0.1,15,1,2.26333,-0.201035,0.500054,-0.866026,-0.281743,-0.000444055,0,-0.0615042,0.00247359,0.0114591,2.21826,5,0.1,16,1,0.0871442,-3.18424,0.500234,-0.0643527,0.800687,-0.00194311,0.00138581,-0.0172853,0.0109971,0.0110998,0.493347,5,0.1,17,1,-1.59375,-3.89413,0.875748,0.180015,0.173658,0.290887,-0.0038743,1.26421,-0.428945,0.0238699,0.272213,5,0.1,18,1,0.489147,2.28159,0.614159,-0.496982,0.866026,-0.00891387,-0.108451,0,-0.00196695,0.0172595,1.61444,5,0.1,19,1,-0.358025,5.5,0.501245,0.187019,-0.364864,-0.00775158,0.117332,-0.243425,0.0312328,0.0203909,2.62534,5,0.1,20,1,3.82225,-2.9289,0.637278,-0.301886,-0.0705242,0.132929,-0.592589,0.155449,0.00435114,0.0298177,2.86544,5,0.1,21,1,-4.75592,-2.48884,0.548692,0.742805,0.397909,0.0378922,-0.015974,-0.00846386,-0.000864267,0.0106222,0.541345,5,0.1,22,1,3.65837,-2.61271,0.595314,0.233418,0.866026,0.000143051,0.02563,0,0.0038743,0.012814,2.23683,5,0.1,23,1,-4.67553,-3.15532,0.803216,0.0186682,0.860614,0.400074,0,-0.108361,-0.000685453,0.0326882,0.969244,5,0.1,24,1,4.14163,-5.18692,0.617618,0.0150084,0.512826,-0.00453442,-0.0038147,-0.999928,0.00110269,0.0279133,3.04308,5,0.1,25,1,2.05391,-2.07468,0.545381,-0.13569,0.442445,0.0291839,-0.0264645,-0.93317,0.00572205,0.0130461,3.11513,5,0.1,26,1,2.71503,-5.55527,0.502426,-0.45417,0.114703,-0.0126377,0.00977516,-0.00238419,0.0404716,0.0264741,0.215055,5,0.1,27,1,-0.887977,4.49789,0.558206,0.54497,-0.677884,0.0308633,-0.0117719,-0.0908375,-0.000655651,0.0246763,0.721462,5,0.1,28,1,0.0691043,1.6,0.626485,0.243401,-0.422198,-0.00947118,0.0465772,-0.109613,-0.00178814,0.0322146,2.75703,5,0.1,29,1,0.556551,-3.55393,0.50918,0.0786692,0.866026,-0.0224471,0.0169277,0,0.00667572,0.0117312,2.26756,5,0.1,30,1,1.27892,2.80674,0.500745,0.318956,-0.270551,-0.00506639,-0.239491,0.887632,0.0227988,0.00978588,1.26007,5,0.1,31,1,-3.75707,-3.15625,0.656775,-0.331575,0.0627995,-0.0649258,0.00715256,-0.0013113,0.00140071,0.012476,0.152144,5,0.1,32,1,-1.08954,-0.507944,0.500027,0.866026,0.0311509,-0.000227988,-5.96046e-05,0.00661612,0.0013113,0.012909,2.2719,5,0.1,33,1,1.52053,2.66337,0.504606,-0.474584,-0.541699,-0.0180602,0.656128,0.987411,0.0370443,0.00772502,0.617123,5,0.1,34,1,-0.2,3.93013,0.637778,0.33888,-0.181681,-0.0279054,-0.0730753,0.395179,0.000596046,0.013656,1.12396,5,0.1,35,1,-1.73286,-2.31719,0.504286,-0.293002,-0.185829,-0.019592,-0.148594,-0.0941753,0.0510514,0.0103279,0.421323,5,0.1,36,1,1.1759,4.89339,0.770944,0.017795,-0.40133,0.427608,-0.000417233,0.00882149,-0.00923872,0.0397281,0.261832,5,0.1,37,1,1.83218,-2.85251,0.581351,-0.127769,0.620538,0.0137717,-0.470996,-0.303507,-0.000268221,0.0291843,0.673631,5,0.1,38,1,-2.60094,2.24931,0.624384,0.437552,0.072217,-0.116028,-0.388503,-0.114918,-0.158519,0.00876329,0.621849,5,0.1,39,1,2.54265,-2.05285,0.710682,-0.437653,0.196695,0.0290334,0.00941753,-0.365376,-0.000596046,0.0291282,0.189499,5,0.1
0,1.1,-1.0628,5.0579,0.839722,0.0100296,-0.858352,0.398776,-0.00064075,0.0129044,-0.0267364,0.0526897,1.03466,5,0.1,1,1.1,-0.247489,0.223797,0.622217,0.20982,0.296659,0.0155855,0.0225129,1.31511,0.00165403,0.00869871,2.99189,5,0.1,2,1.1,0.981047,1.90289,0.500091,-0.659654,-0.557963,-0.00101356,0.0679791,0.0575632,0.00784174,0.0104966,0.575339,5,0.1,3,1.1,1.39245,2.28455,0.703538,-0.852769,0.621068,0.0475219,-0.244342,0.222862,-0.00527874,0.0152802,2.0618,5,0.1,4,1.1,0.414928,-4.70661,0.627418,-0.182705,0.866023,-0.0214654,-0.0449456,2.98023e-05,-0.00528619,0.00881649,2.24987,5,0.1,5,1.1,-2.81081,4.20699,0.882323,-0.0310928,-0.243668,0.371223,0.00321865,0.0250936,-0.0382736,0.0262642,0.152072,5,0.1,6,1.1,-2.58084,4.65546,0.801079,0.0244774,-0.685114,0.435714,-0.0025034,-0.00572205,-0.0449307,0.0226978,0.553737,5,0.1,7,1.1,3.12181,-2.30189,0.645612,-0.811057,0.279322,-0.036209,0.0835806,-0.0288188,0.00372902,0.0152692,0.565743,5,0.1,8,1.1,-2.28143,2.29282,0.859909,0.0465129,0.195001,0.382643,0.370309,-0.178814,-0.150323,0.00715501,0.306249,5,0.1,9,1.1,-0.487513,2.2789,0.500308,0.267908,0.834192,-0.00276985,-0.0276193,-0.583425,0.016842,0.0128151,0.873402,5,0.1,10,1.1,-3.08869,-0.125909,0.645962,0.866026,-0.178049,-0.0129269,0,-0.467308,-0.00276789,0.0274216,2.26173,5,0.1,11,1.1,-0.258551,-0.84903,0.661274,0.312707,0.866026,0.104911,0.0782226,-3.72529e-06,0.0262335,0.0246165,2.20205,5,0.1,12,1.1,-1.89895,-4.26735,0.561636,-0.0350049,0.372218,0.0262948,-0.00279397,1.07333,0.00207126,0.0160598,2.93388,5,0.1,13,1.1,-3.53755,-2.4917,0.581957,0.571705,-0.0757795,0.000462681,0.0606179,-0.128195,-0.0639707,0.00962776,0.384442,5,0.1,14,1.1,0.883499,-2.80706,0.501577,0.0130959,0.561195,-0.00977172,-0.00135601,-0.0578165,0.0393502,0.0105713,0.244405,5,0.1,15,1.1,2.17673,-0.229576,0.500021,-0.866026,-0.289219,-0.000230689,0,-0.0711893,0.00177696,0.0114591,2.21826,5,0.1,16,1.1,0.0807186,-3.10429,0.50009,-0.0640709,0.797177,-0.00100397,0.00660401,-0.0821799,0.0077635,0.0110998,0.493347,5,0.1,17,1.1,-1.57577,-3.87163,0.903071,0.179226,0.265329,0.258801,-0.0184849,0.598341,-0.235256,0.0238699,0.272213,5,0.1,18,1.1,0.438893,2.36819,0.613257,-0.507605,0.865781,-0.00910619,-0.0800228,-0.00979006,-0.00144914,0.0172595,1.61444,5,0.1,19,1.1,-0.338724,5.46103,0.500618,0.198836,-0.424663,-0.0048697,0.107132,-0.850528,0.0259951,0.0203909,2.62534,5,0.1,20,1.1,3.78792,-2.93522,0.650763,-0.393824,-0.0563409,0.138044,-1.14171,0.129208,0.0818036,0.0298177,2.86544,5,0.1,21,1.1,-4.68175,-2.44911,0.552475,0.739555,0.396175,0.0377223,-0.0762343,-0.0407547,-0.00391901,0.0106222,0.541345,5,0.1,22,1.1,3.68188,-2.52611,0.595348,0.236839,0.866026,0.000539888,0.0301898,0,0.00391528,0.012814,2.23683,5,0.1,23,1.1,-4.67367,-3.06957,0.843202,0.0186265,0.855419,0.399094,-0.00154972,-0.0409335,-0.033766,0.0326882,0.969244,5,0.1,24,1.1,4.14312,-5.14037,0.617169,0.014732,0.424431,-0.00445517,-0.00241399,-0.643998,0.00071153,0.0279133,3.04308,5,0.1,25,1.1,2.04019,-2.03475,0.548332,-0.138678,0.362895,0.0298291,-0.025928,-0.540718,0.00559911,0.0130461,3.11513,5,0.1,26,1.1,2.66968,-5.54366,0.50136,-0.452182,0.118651,-0.00874083,0.0466108,0.0672638,0.0368059,0.0264741,0.215055,5,0.1,27,1.1,-0.833562,4.42962,0.561288,0.54258,-0.687045,0.030729,-0.0559501,-0.0606775,-0.00315905,0.0246763,0.721462,5,0.1,28,1.1,0.0937132,1.55589,0.625528,0.24879,-0.470735,-0.00967868,0.0477973,-0.756271,-0.00184029,0.0322146,2.75703,5,0.1,29,1.1,0.564518,-3.46733,0.506999,0.0807085,0.866026,-0.0209167,0.0192262,0,0.0227503,0.0117312,2.26756,5,0.1,30,1.1,1.30995,2.78411,0.500345,0.304492,-0.183243,-0.00302149,-0.0672266,0.817269,0.0179298,0.00978588,1.26007,5,0.1,31,1.1,-3.79041,-3.14994,0.650247,-0.336722,0.0637766,-0.0659335,-0.083074,0.0157505,-0.0162572,0.012476,0.152144,5,0.1,32,1.1,-1.00294,-0.50479,0.500011,0.866025,0.0319407,-0.000117254,1.11759e-05,0.0073649,0.000905246,0.012909,2.2719,5,0.1,33,1.1,1.47752,2.6139,0.503002,-0.375934,-0.450101,-0.0138801,1.24184,0.851542,0.0450537,0.00772502,0.617123,5,0.1,34,1.1,-0.166417,3.91381,0.634991,0.333003,-0.147154,-0.0277834,-0.0589313,0.258923,0.00286847,0.013656,1.12396,5,0.1,35,1.1,-1.76322,-2.33614,0.502584,-0.31634,-0.192168,-0.0144493,-0.282183,-0.0285655,0.0506938,0.0103279,0.421323,5,0.1,36,1.1,1.17767,4.85332,0.813641,0.0177143,-0.399557,0.425734,-0.00184029,0.041306,-0.0438951,0.0397281,0.261832,5,0.1,37,1.1,1.81661,-2.79219,0.582726,-0.18691,0.583543,0.0137135,-0.664502,-0.438035,-0.00139326,0.0291843,0.673631,5,0.1,38,1.1,-2.5587,2.25593,0.612025,0.410803,0.0601199,-0.130582,-0.179306,-0.125036,-0.125442,0.00876329,0.621849,5,0.1,39,1.1,2.49896,-2.03511,0.713581,-0.435738,0.157397,0.0289086,0.0448823,-0.410348,-0.00295788,0.0291282,0.189499,5,0.1
0,1.2,-1.06181,4.97232,0.879311,0.00984073,-0.850642,0.391185,-0.00339746,0.175238,-0.134915,0.0524384,0.733339,5,0.1,1,1.2,-0.22647,0.260268,0.623779,0.209628,0.432948,0.0155702,-0.0333861,1.32865,-0.00247359,0.00871397,2.59102,5,0.1,2,1.2,0.915671,1.8476,0.500023,-0.644939,-0.545511,-0.000391901,0.242233,0.204921,0.00467896,0.00966767,0.3834,5,0.1,3,1.2,1.30631,2.34773,0.708224,-0.866026,0.64097,0.0458285,0,0.135899,-0.0282526,0.00809334,1.05768,5,0.1,4,1.2,0.396494,-4.62001,0.625252,-0.185174,0.866032,-0.0217557,0.00295043,-0.000238419,0.000357628,0.00860908,2.33269,5,0.1,5,1.2,-2.81389,4.18284,0.919114,-0.0303984,-0.23824,0.36294,0.0113249,0.0896454,-0.136316,0.0233122,0.16597,5,0.1,6,1.2,-2.57841,4.5872,0.844261,0.0239313,-0.676787,0.425993,-0.00882149,0.190496,-0.160038,0.0258804,0.370723,5,0.1,7,1.2,3.04143,-2.27421,0.642024,-0.792968,0.273085,-0.0354022,0.297904,-0.10252,0.0133216,0.0129821,0.44763,5,0.1,8,1.2,-2.27464,2.31122,0.897185,0.0911951,0.171286,0.360559,0.485897,-0.28491,-0.290096,0.00761359,0.188827,5,0.1,9,1.2,-0.460962,2.35867,0.500106,0.261932,0.754642,-0.00134856,-0.0984073,-0.979781,0.0115633,0.0125566,0.568531,5,0.1,10,1.2,-3.00209,-0.146017,0.64466,0.866026,-0.22315,-0.0130564,0,-0.40964,0.000625849,0.0237018,2.22426,5,0.1,11,1.2,-0.226993,-0.762427,0.671862,0.317076,0.866026,0.106376,-0.00356853,0,-0.00116229,0.0228255,2.20029,5,0.1,12,1.2,-1.90245,-4.22445,0.564266,-0.0348568,0.486803,0.0261813,0.00685453,1.13535,-0.005126,0.0162657,2.52498,5,0.1,13,1.2,-3.48029,-2.49989,0.581684,0.57075,-0.0875115,-0.00585765,-0.0978708,-0.0995398,-0.0600517,0.00932734,0.268098,5,0.1,14,1.2,0.884796,-2.75144,0.500786,0.0128031,0.548679,-0.00614673,-0.00479817,-0.206113,0.0326633,0.0097718,0.163363,5,0.1,15,1.2,2.09013,-0.258757,0.500005,-0.866026,-0.29313,-8.9407e-05,0,0.00467896,0.00107288,0.010991,2.21721,5,0.1,16,1.2,0.0743688,-3.02529,0.500023,-0.0626417,0.77939,-0.00038892,0.0235289,-0.292778,0.00464916,0.0139056,0.328885,5,0.1,17,1.2,-1.55801,-3.843,0.927943,0.175229,0.29887,0.239873,-0.0659227,0.0987053,-0.160426,0.0224986,0.276395,5,0.1,18,1.2,0.387939,2.45464,0.612343,-0.508968,0.86211,-0.00913143,0.0689471,-0.0782013,0.0012219,0.0156077,1.19284,5,0.1,19,1.2,-0.318401,5.414,0.50025,0.206447,-0.517046,-0.00261068,0.0369251,-0.919819,0.0189841,0.0207838,1.68541,5,0.1,20,1.2,3.74263,-2.94025,0.664995,-0.51192,-0.0445008,0.146478,-1.14179,0.108361,0.0748932,0.0300035,2.52068,5,0.1,21,1.2,-4.60846,-2.40984,0.556214,0.723064,0.387341,0.0368789,-0.271559,-0.145435,-0.0138879,0.0105346,0.453028,5,0.1,22,1.2,3.70564,-2.4395,0.595421,0.237328,0.866026,0.00089854,-0.0289679,0,0.00315905,0.0127185,2.31089,5,0.1,23,1.2,-4.67182,-2.98442,0.882789,0.018239,0.844723,0.39086,-0.0064373,-0.204802,-0.140697,0.0355841,0.682838,5,0.1,24,1.2,4.14458,-5.1,0.616728,0.0143886,0.394154,-0.00435412,-0.00476837,0.0154972,0.00146031,0.0294506,2.86925,5,0.1,25,1.2,2.02624,-2,0.551332,-0.139642,0.343424,0.0300378,0.0118017,0.125408,-0.0025034,0.0117733,1.66606,5,0.1,26,1.2,2.62486,-5.53144,0.50066,-0.442094,0.125706,-0.00538379,0.165939,0.0634193,0.0299513,0.0255293,0.149832,5,0.1,27,1.2,-0.77979,4.36087,0.564333,0.530475,-0.684702,0.0300437,-0.199258,0.128984,-0.0112951,0.0228808,0.491674,5,0.1,28,1.2,0.118743,1.50468,0.624554,0.250697,-0.555024,-0.00975281,-0.0189057,-0.850081,0.00077486,0.0327201,2.47662,5,0.1,29,1.2,0.572658,-3.38072,0.505039,0.0817284,0.866026,-0.0181168,-0.00205636,0,0.0322759,0.0117117,2.26777,5,0.1,30,1.2,1.34022,2.7695,0.500124,0.302097,-0.113201,-0.00150055,0.00268221,0.563741,0.0124574,0.009676,1.10617,5,0.1,31,1.2,-3.82446,-3.14349,0.643579,-0.343531,0.0650644,-0.0672668,-0.033617,0.0064373,-0.00655651,0.0103878,0.090631,5,0.1,32,1.2,-0.916336,-0.50157,0.500003,0.866026,0.0323176,-4.61936e-05,0,-0.00110269,0.000536442,0.0122593,2.20057,5,0.1,33,1.2,1.44659,2.57297,0.501843,-0.239605,-0.370169,-0.00931472,1.42574,0.752211,0.0450909,0.00818858,0.304061,5,0.1,34,1.2,-0.133485,3.9,0.632238,0.324639,-0.132722,-0.0271633,-0.118423,0.0376701,0.0102222,0.0149153,1.04377,5,0.1,35,1.2,-1.79624,-2.35537,0.501384,-0.343201,-0.19092,-0.00964254,-0.228643,0.0553131,0.0446141,0.0101033,0.179282,5,0.1,36,1.2,1.17943,4.81372,0.855833,0.0173181,-0.390637,0.416236,-0.00655651,0.147104,-0.156343,0.0353552,0.174105,5,0.1,37,1.2,1.79459,-2.73626,0.584086,-0.252417,0.532842,0.0134096,-0.610352,-0.575066,-0.00503659,0.0263514,0.515887,5,0.1,38,1.2,-2.51839,2.26132,0.598442,0.395954,0.0475764,-0.139937,-0.141978,-0.124335,-0.0569522,0.00851979,0.500735,5,0.1,39,1.2,2.45577,-2.02142,0.716446,-0.426012,0.116432,0.028266,0.15986,-0.401139,-0.0106394,0.0255706,0.222641,5,0.1
0,1.3,-1.06084,4.88798,0.917769,0.00950247,-0.836679,0.377789,-0.00368059,0.142157,-0.145391,0.0524384,0.733339,5,0.1,1,1.3,-0.205636,0.310663,0.625326,0.2072,0.577301,0.0153906,-0.024979,1.47179,-0.00184402,0.00871397,2.59102,5,0.1,2,1.3,0.852362,1.79405,0.500003,-0.620992,-0.525252,-5.46686e-05,0.256747,0.217192,0.002224,0.00966767,0.3834,5,0.1,3,1.3,1.22094,2.41058,0.713172,-0.830122,0.599036,0.0573494,0.674672,-0.882089,0.225525,0.00809334,1.05768,5,0.1,4,1.3,0.377939,-4.53402,0.623073,-0.186175,0.848544,-0.0218723,-0.0123642,-0.313342,-0.00144541,0.00860908,2.33269,5,0.1,5,1.3,-2.81687,4.1593,0.954741,-0.0292778,-0.233825,0.349464,0.0120401,0.0159442,-0.144482,0.0233122,0.16597,5,0.1,6,1.3,-2.57606,4.52046,0.886078,0.0230562,-0.65766,0.410172,-0.00943244,0.214338,-0.169609,0.0258804,0.370723,5,0.1,7,1.3,2.96359,-2.24724,0.638549,-0.763519,0.267394,-0.0340856,0.315711,-0.0296682,0.0141077,0.0129821,0.44763,5,0.1,8,1.3,-2.26307,2.32695,0.93206,0.140023,0.143547,0.33903,0.470415,-0.269577,-0.163168,0.00761359,0.188827,5,0.1,9,1.3,-0.43525,2.42867,0.50002,0.252204,0.640708,-0.000457093,-0.104295,-1.26353,0.00648201,0.0125566,0.568531,5,0.1,10,1.3,-2.91548,-0.170568,0.643355,0.866026,-0.268893,-0.0130727,0,-0.471985,-0.000249594,0.0237018,2.22426,5,0.1,11,1.3,-0.195211,-0.675825,0.682524,0.319,0.866026,0.107025,0.0237049,-3.72529e-06,0.0079833,0.0228255,2.20029,5,0.1,12,1.3,-1.90591,-4.16957,0.567018,-0.034235,0.613631,0.0301618,0.00697374,1.31449,0.0738129,0.0162657,2.52498,5,0.1,13,1.3,-3.42368,-2.50916,0.580794,0.561344,-0.0976603,-0.0119389,-0.112027,-0.0960976,-0.0592209,0.00932734,0.268098,5,0.1,14,1.3,0.886053,-2.69758,0.50032,0.0123286,0.528305,-0.00332352,-0.00509247,-0.218406,0.0237077,0.0097718,0.163363,5,0.1,15,1.3,2.00352,-0.288128,0.500001,-0.866026,-0.294691,-1.20141e-05,0,-0.0191759,0.000510365,0.010991,2.21721,5,0.1,16,1.3,0.0682197,-2.94878,0.500003,-0.0603157,0.750447,-5.39236e-05,0.0249378,-0.310287,0.00220165,0.0139056,0.328885,5,0.1,17,1.3,-1.54071,-3.81336,0.95159,0.171642,0.287251,0.236815,-0.0178665,-0.298932,0.0651889,0.0224986,0.276395,5,0.1,18,1.3,0.337368,2.54076,0.611436,-0.502147,0.861888,-0.00901027,0.086896,0.0230074,0.001546,0.0156077,1.19284,5,0.1,19,1.3,-0.297726,5.35739,0.500071,0.205497,-0.616454,-0.00109076,-0.0555012,-1.00031,0.011608,0.0207838,1.68541,5,0.1,20,1.3,3.68526,-2.9442,0.680109,-0.638032,-0.0349823,0.156359,-1.29551,0.0833422,0.108801,0.0300035,2.52068,5,0.1,21,1.3,-4.53748,-2.37166,0.559834,0.69622,0.377407,0.0355067,-0.287831,-0.0751466,-0.0147,0.0105346,0.453028,5,0.1,22,1.3,3.72929,-2.35321,0.595527,0.236005,0.856492,0.00121109,-0.0100583,-0.198305,0.00295788,0.0127185,2.31089,5,0.1,23,1.3,-4.67003,-2.90083,0.921187,0.0176005,0.827571,0.376921,-0.00694394,-0.174701,-0.150345,0.0355841,0.682838,5,0.1,24,1.3,4.146,-5.05901,0.616298,0.0140429,0.437757,-0.00424739,-0.00292063,0.746012,0.00089407,0.0294506,2.86925,5,0.1,25,1.3,2.01245,-1.96401,0.554332,-0.134995,0.384501,0.0299971,0.0789389,0.614166,4.09782e-05,0.0117733,1.66606,5,0.1,26,1.3,2.58147,-5.51849,0.500257,-0.425687,0.133644,-0.00281576,0.175953,0.0844002,0.0213236,0.0255293,0.149832,5,0.1,27,1.3,-0.727716,4.29301,0.567282,0.510777,-0.67225,0.0289273,-0.211187,0.145823,-0.0119656,0.0228808,0.491674,5,0.1,28,1.3,0.143773,1.44431,0.623581,0.250107,-0.656131,-0.00972673,-0.00575889,-1.08546,0.000245869,0.0327201,2.47662,5,0.1,29,1.3,0.580842,-3.29412,0.503398,0.082053,0.866026,-0.0146408,0.00398234,0,0.0363812,0.0117117,2.26777,5,0.1,30,1.3,1.37096,2.76011,0.500026,0.316859,-0.0824295,-0.000532623,0.247508,0.0951886,0.00711903,0.009676,1.10617,5,0.1,31,1.3,-3.85902,-3.13694,0.636812,-0.347607,0.06584,-0.0680627,-0.0305623,0.00581145,-0.00596046,0.0103878,0.090631,5,0.1,32,1.3,-0.829742,-0.498493,0.5,0.865594,0.0279369,-7.17118e-06,-0.0172667,-0.0783484,0.000257045,0.0122593,2.20057,5,0.1,33,1.3,1.42952,2.53899,0.501125,-0.104783,-0.315613,-0.00515068,1.25188,0.376478,0.0378974,0.00818858,0.304061,5,0.1,34,1.3,-0.102025,3.88646,0.629571,0.301075,-0.141861,-0.0261527,-0.328849,-0.187397,0.0108294,0.0149153,1.04377,5,0.1,35,1.3,-1.83135,-2.37423,0.500628,-0.355534,-0.186592,-0.00565071,-0.019297,0.0402927,0.0348315,0.0101033,0.179282,5,0.1,36,1.3,1.18113,4.77538,0.896692,0.0166714,-0.376099,0.40078,-0.00691414,0.155747,-0.165701,0.0353552,0.174105,5,0.1,37,1.3,1.76618,-2.68586,0.585402,-0.316051,0.474831,0.0129114,-0.626221,-0.58797,-0.00534579,0.0263514,0.515887,5,0.1,38,1.3,-2.47903,2.2656,0.584354,0.394969,0.0394404,-0.140047,0.0807792,-0.0459552,0.0500754,0.00851979,0.500735,5,0.1,39,1.3,2.41395,-2.01172,0.719221,-0.410206,0.0785742,0.0272145,0.169516,-0.350907,-0.0112653,0.0255706,0.222641,5,0.1
0,1.4,-1.05991,4.80522,0.954722,0.00905395,-0.815761,0.360052,-0.00548363,0.302792,-0.217617,0.0536749,0.506982,5,0.1,1,1.4,-0.185092,0.375403,0.626852,0.202976,0.712392,0.015077,-0.066258,1.1676,-0.00491738,0.00910518,2.34419,5,0.1,2,1.4,0.791703,1.74274,0.500005,-0.590259,-0.499254,8.19564e-05,0.371158,0.313997,0.000596046,0.00961613,0.256379,5,0.1,3,1.4,1.14211,2.46502,0.720229,-0.739187,0.481302,0.0850618,1.10644,-1.39773,0.303119,0.0151707,2.6277,5,0.1,4,1.4,0.359306,-4.45103,0.620883,-0.185844,0.808728,-0.0218332,0.0264347,-0.465155,0.00312924,0.00931651,2.45647,5,0.1,5,1.4,-2.81973,4.13599,0.988877,-0.0278354,-0.232065,0.332171,0.0175238,0.0314713,-0.208914,0.0264379,0.117478,5,0.1,6,1.4,-2.57381,4.45595,0.926143,0.0219226,-0.630224,0.389872,-0.0137091,0.349283,-0.245184,0.0226254,0.244943,5,0.1,7,1.4,2.88901,-2.22066,0.635219,-0.725734,0.263989,-0.0323966,0.456333,-0.051856,0.020355,0.0134176,0.303616,5,0.1,8,1.4,-2.24688,2.33999,0.965204,0.18183,0.117433,0.323991,0.351787,-0.252485,-0.154227,0.0131759,0.184378,5,0.1,9,1.4,-0.410614,2.4862,0.5,0.239722,0.508344,-7.45058e-06,-0.15077,-1.35517,0.00274181,0.0122526,0.54645,5,0.1,10,1.4,-2.82888,-0.199696,0.642049,0.866026,-0.311827,-0.0129849,0,-0.362746,0.00247359,0.024187,2.18727,5,0.1,11,1.4,-0.163271,-0.589222,0.69324,0.318697,0.866026,0.106926,-0.04264,0,-0.0142753,0.0239019,2.20928,5,0.1,12,1.4,-1.90929,-4.10193,0.570459,-0.0332296,0.73477,0.0390127,0.0141263,1.04523,0.0947714,0.0167627,2.35507,5,0.1,13,1.4,-3.36827,-2.51935,0.579321,0.544697,-0.105488,-0.0172988,-0.235319,-0.0554323,-0.0463724,0.0103805,0.189267,5,0.1,14,1.4,0.887258,-2.64597,0.500091,0.0117198,0.502163,-0.00140518,-0.00739098,-0.315785,0.0147521,0.0114353,0.109884,5,0.1,15,1.4,1.91692,-0.317621,0.500001,-0.866026,-0.294118,1.78814e-05,5.96046e-05,0.0423491,0.000178814,0.0114846,2.22559,5,0.1,16,1.4,0.0623281,-2.87548,0.500005,-0.0573306,0.713307,8.19564e-05,0.0360478,-0.448585,0.000596046,0.0108334,0.217331,5,0.1,17,1.4,-1.52363,-3.78657,0.97574,0.169578,0.244945,0.24693,-0.0321865,-0.520706,0.111371,0.020982,0.126175,5,0.1,18,1.4,0.287747,2.62689,0.610545,-0.488345,0.858051,-0.00876337,0.202172,-0.135541,0.00363588,0.013924,0.850091,5,0.1,19,1.4,-0.277603,5.29107,0.50001,0.195519,-0.705469,-0.000242889,-0.142753,-0.731468,0.00563264,0.0200909,1.26658,5,0.1,20,1.4,3.6153,-2.94731,0.696251,-0.756407,-0.027597,0.165848,-1.01066,0.0654459,0.0709295,0.0309144,2.32093,5,0.1,21,1.4,-4.46947,-2.33433,0.563302,0.661767,0.368553,0.0337481,-0.41604,-0.11754,-0.0212491,0.010456,0.309572,5,0.1,22,1.4,3.75279,-2.26893,0.595661,0.233179,0.825161,0.00146776,-0.0554323,-0.432849,0.00211596,0.012136,2.55982,5,0.1,23,1.4,-4.66831,-2.81914,0.95803,0.0167608,0.803626,0.358754,-0.010252,-0.329137,-0.221103,0.0331598,0.46997,5,0.1,24,1.4,4.14738,-5.01105,0.615878,0.0136852,0.523865,-0.00413507,-0.00500679,0.892162,0.00146031,0.0299785,2.55113,5,0.1,25,1.4,1.99944,-1.92224,0.557325,-0.124303,0.451872,0.0297651,0.13268,0.671208,-0.00587106,0.0154268,2.55619,5,0.1,26,1.4,2.53989,-5.50474,0.500068,-0.404626,0.140738,-0.0011161,0.254393,0.0491142,0.012815,0.0260329,0.177737,5,0.1,27,1.4,-0.677824,4.22671,0.570108,0.485499,-0.651228,0.0274941,-0.305295,0.291348,-0.0172555,0.0220668,0.474126,5,0.1,28,1.4,0.16869,1.37347,0.622612,0.247364,-0.757155,-0.00961721,-0.0580102,-0.872076,0.00223517,0.0317452,2.3039,5,0.1,29,1.4,0.589046,-3.20752,0.502117,0.0817508,0.866026,-0.0109926,-0.013262,0,0.035882,0.0134101,2.27769,5,0.1,30,1.4,1.40399,2.75186,0.500001,0.343725,-0.0863492,-3.42727e-05,0.256062,-0.139117,0.00309944,0.00905662,0.897253,5,0.1,31,1.4,-3.89382,-3.13035,0.63,-0.346726,0.0656784,-0.0678882,0.0602007,-0.0115633,0.0118017,0.0103234,0.0686085,5,0.1,32,1.4,-0.743407,-0.496163,0.500001,0.859119,0.0181124,8.9407e-06,-0.138104,-0.111639,8.9407e-05,0.0138497,1.74266,5,0.1,33,1.4,1.42489,2.50894,0.500786,0.0076443,-0.288194,-0.00178367,0.984251,0.200987,0.0293255,0.00678457,0.265942,5,0.1,34,1.4,-0.0737491,3.87119,0.627017,0.263014,-0.164372,-0.0248566,-0.41494,-0.237584,0.0156462,0.0139759,0.951061,5,0.1,35,1.4,-1.86667,-2.39265,0.500218,-0.347498,-0.181329,-0.00272244,0.176907,0.0711679,0.0236332,0.0101609,0.325362,5,0.1,36,1.4,1.18276,4.73864,0.93584,0.0158429,-0.357473,0.380945,-0.00995398,0.225067,-0.239491,0.0382811,0.125243,5,0.1,37,1.4,1.73166,-2.64136,0.586663,-0.371492,0.414842,0.0122726,-0.456989,-0.612736,-0.0077188,0.0295454,0.381266,5,0.1,38,1.4,-2.43904,2.2694,0.570744,0.404871,0.0370383,-0.130825,0.0866652,-0.00810623,0.129938,0.00831557,0.384033,5,0.1,39,1.4,2.37388,-2.0055,0.721879,-0.38991,0.0470519,0.0258654,0.244975,-0.276804,-0.0162423,0.0252276,0.27023,5,0.1
0,1.5,-1.05903,4.72504,0.98968,0.00852942,-0.788325,0.33926,-0.00527501,0.276923,-0.208575,0.0536749,0.506982,5,0.1,1,1.5,-0.165069,0.451766,0.628339,0.197812,0.807249,0.0146939,-0.0467002,0.713674,-0.00346079,0.00910518,2.34419,5,0.1,2,1.5,0.734462,1.69449,0.500015,-0.554855,-0.464527,0.000104494,0.35369,0.384122,-8.9407e-05,0.00961613,0.256379,5,0.1,3,1.5,1.07246,2.50787,0.729934,-0.664669,0.390606,0.106047,0.459768,-0.500515,0.123955,0.0151707,2.6277,5,0.1,4,1.5,0.340791,-4.37296,0.618708,-0.184806,0.751495,-0.0217094,0.00489689,-0.543088,0.000584871,0.00931651,2.45647,5,0.1,5,1.5,-2.82243,4.11285,1.02109,-0.0261649,-0.231095,0.312243,0.0166893,0.00157952,-0.199065,0.0264379,0.117478,5,0.1,6,1.5,-2.57168,4.39461,0.963952,0.0206124,-0.59673,0.366486,-0.0130981,0.33918,-0.233624,0.0226254,0.244943,5,0.1,7,1.5,2.81864,-2.19443,0.632077,-0.682003,0.261024,-0.0304693,0.438467,-0.0218451,0.019148,0.0134176,0.303616,5,0.1,8,1.5,-2.22756,2.35084,0.997062,0.19879,0.102778,0.314891,0.0090003,-0.0611246,-0.0507347,0.0131759,0.184378,5,0.1,9,1.5,-0.387367,2.5303,0.50001,0.225341,0.374714,0.000160001,-0.14366,-1.29542,0.000759959,0.0122526,0.54645,5,0.1,10,1.5,-2.74228,-0.232793,0.640759,0.866026,-0.350335,-0.0128486,0,-0.377596,0.00096485,0.024187,2.18727,5,0.1,11,1.5,-0.131502,-0.50262,0.703744,0.317331,0.866026,0.102061,-0.00320241,-3.57628e-06,-0.0794418,0.0239019,2.20928,5,0.1,12,1.5,-1.91251,-4.0239,0.575049,-0.0311222,0.818556,0.0544862,0.0274181,0.616163,0.196677,0.0167627,2.35507,5,0.1,13,1.5,-3.31518,-2.53017,0.577364,0.515063,-0.110827,-0.0217457,-0.358939,-0.0455678,-0.0407659,0.0103805,0.189267,5,0.1,14,1.5,0.888394,-2.5974,0.500011,0.0110152,0.468647,-0.00031516,-0.00703707,-0.361115,0.00742823,0.0114353,0.109884,5,0.1,15,1.5,1.83032,-0.346841,0.500004,-0.866025,-0.290197,2.57045e-05,-1.49012e-05,0.0478271,-7.45058e-06,0.0114846,2.22559,5,0.1,16,1.5,0.0567683,-2.8063,0.500015,-0.0538921,0.670518,0.000104494,0.0343516,-0.427455,-8.9407e-05,0.0108334,0.217331,5,0.1,17,1.5,-1.50681,-3.76466,1.00113,0.167074,0.193686,0.261811,-0.0256971,-0.4998,0.163719,0.020982,0.126175,5,0.1,18,1.5,0.239881,2.71218,0.609686,-0.468977,0.848394,-0.00841515,0.201195,-0.0980943,0.00361726,0.013924,0.850091,5,0.1,19,1.5,-0.25893,5.21683,0.500007,0.176474,-0.778373,0.000133272,-0.231202,-0.673801,0.00213459,0.0200909,1.26658,5,0.1,20,1.5,3.53541,-2.94978,0.713252,-0.833185,-0.0220921,0.174455,-0.521019,0.0459999,0.0885502,0.0309144,2.32093,5,0.1,21,1.5,-4.4053,-2.29796,0.566575,0.622081,0.359377,0.0317222,-0.39646,-0.0835061,-0.0202358,0.010456,0.309572,5,0.1,22,1.5,3.77591,-2.18949,0.595819,0.229617,0.756792,0.00167564,-0.0282675,-0.849769,0.00192225,0.012136,2.55982,5,0.1,23,1.5,-4.66668,-2.74031,0.992842,0.0157796,0.77357,0.337646,-0.00980496,-0.301644,-0.211321,0.0331598,0.46997,5,0.1,24,1.5,4.14873,-4.95354,0.61547,0.0133283,0.630762,-0.00403114,-0.00283122,1.15561,0.000834465,0.0299785,2.55113,5,0.1,25,1.5,1.98755,-1.87284,0.56059,-0.114471,0.542198,0.0381842,0.0725687,1.04305,0.153176,0.0154268,2.55619,5,0.1,26,1.5,2.50043,-5.49032,0.500008,-0.386382,0.148278,-0.000202376,0.135601,0.0881553,0.00583008,0.0260329,0.177737,5,0.1,27,1.5,-0.630741,4.16282,0.572775,0.456378,-0.627927,0.0258477,-0.290915,0.205755,-0.0164509,0.0220668,0.474126,5,0.1,28,1.5,0.193046,1.29394,0.621657,0.238768,-0.827616,-0.00949102,-0.11629,-0.519015,0.00083819,0.0317452,2.3039,5,0.1,29,1.5,0.596964,-3.12092,0.501192,0.0749225,0.865932,-0.0075765,-0.114106,-0.00375509,0.0319555,0.0134101,2.27769,5,0.1,30,1.5,1.43983,2.74193,0.500009,0.374187,-0.117339,0.000158697,0.319637,-0.434607,0.000923872,0.00905662,0.897253,5,0.1,31,1.5,-3.92827,-3.12382,0.623253,-0.342725,0.0649057,-0.0671034,0.0379235,-0.00730157,0.0074394,0.0103234,0.0686085,5,0.1,32,1.5,-0.657656,-0.494837,0.500002,0.859615,0.00907597,1.28523e-05,0.0863262,-0.0709835,0,0.0138497,1.74266,5,0.1,33,1.5,1.42985,2.48058,0.500737,0.0849502,-0.283418,0.000646058,0.576787,-0.0654161,0.0195168,0.00678457,0.265942,5,0.1,34,1.5,-0.0497242,3.85338,0.624606,0.216534,-0.192918,-0.0233645,-0.473897,-0.308111,0.0149086,0.0139759,0.951061,5,0.1,35,1.5,-1.9001,-2.41038,0.500045,-0.317199,-0.172639,-0.000931975,0.410013,0.104502,0.0127964,0.0101609,0.325362,5,0.1,36,1.5,1.18429,4.70434,0.972784,0.0148939,-0.325833,0.3581,-0.00946969,0.392705,-0.228234,0.0382811,0.125243,5,0.1,37,1.5,1.69224,-2.60285,0.587853,-0.416119,0.356114,0.0115361,-0.407517,-0.565246,-0.00736117,0.0295454,0.381266,5,0.1,38,1.5,-2.3979,2.27313,0.558384,0.419247,0.0383165,-0.11572,0.168279,0.0277311,0.1688,0.00831557,0.384033,5,0.1,39,1.5,2.33614,-2.00208,0.724401,-0.36444,0.0222925,0.0247006,0.270888,-0.212863,-0.00865385,0.0252276,0.27023,5,0.1
0,1.6,-1.0582,4.64775,1.02251,0.00795722,-0.755155,0.316611,-0.00631809,0.407457,-0.251353,0.0517043,0.344534,5,0.1,1,1.6,-0.145554,0.535244,0.629789,0.19199,0.854291,0.0142619,-0.0765175,0.234693,-0.00569224,0.00945963,2.25714,5,0.1,2,1.6,0.680827,1.6501,0.500025,-0.51672,-0.42195,7.59959e-05,0.420243,0.468731,-0.000417233,0.0106596,0.31091,5,0.1,3,1.6,1.00774,2.54534,0.740913,-0.633836,0.366104,0.111267,0.215083,-0.0561476,-0.0127852,0.0142154,2.44444,5,0.1,4,1.6,0.32237,-4.3,0.616545,-0.183064,0.713325,-0.0215024,0.0373721,-0.22459,0.00435114,0.00864321,2.44631,5,0.1,5,1.6,-2.82496,4.0898,1.05127,-0.0243604,-0.22943,0.290781,0.0196695,0.0412464,-0.236511,0.00651246,0.28893,5,0.1,6,1.6,-2.56969,4.33674,0.999378,0.0191987,-0.559306,0.341296,-0.0156164,0.421762,-0.277579,0.0211242,0.161232,5,0.1,7,1.6,2.75273,-2.16848,0.62913,-0.634676,0.257164,-0.0284091,0.521541,-0.0656843,0.0227392,0.0125707,0.205585,5,0.1,8,1.6,-2.20806,2.36099,1.02831,0.187624,0.10156,0.309879,-0.213981,0.0208616,-0.0662804,0.0142006,0.111151,5,0.1,9,1.6,-0.365585,2.56154,0.500027,0.209852,0.252992,0.000171363,-0.170693,-1.12402,-0.00038743,0.0115977,0.346761,5,0.1,10,1.6,-2.65568,-0.269538,0.639481,0.866026,-0.382265,-0.0126705,0,-0.239983,0.00312924,0.0215026,2.18288,5,0.1,11,1.6,-0.0998439,-0.416017,0.71347,0.314896,0.866025,0.0917196,-0.0585842,1.43051e-05,-0.124186,0.0217414,2.21031,5,0.1,12,1.6,-1.91547,-3.93973,0.581527,-0.0278622,0.857472,0.0751808,0.0371933,0.171065,0.203609,0.0171252,2.26936,5,0.1,13,1.6,-3.26568,-2.54143,0.575007,0.472808,-0.113624,-0.0251502,-0.485539,-0.00679493,-0.026077,0.0094928,0.163047,5,0.1,14,1.6,0.889459,-2.55245,0.500008,0.0102565,0.428915,0.000160933,-0.00834465,-0.43714,0.00247359,0.0121011,0.179001,5,0.1,15,1.6,1.74372,-0.375534,0.500006,-0.866026,-0.282585,1.93715e-05,5.96046e-05,0.112325,-8.9407e-05,0.0105642,2.24222,5,0.1,16,1.6,0.0515588,-2.74149,0.500025,-0.0501883,0.62443,7.59959e-05,0.040818,-0.507832,-0.000417233,0.0113328,0.143701,5,0.1,17,1.6,-1.49027,-3.74772,1.02807,0.163126,0.145805,0.275803,-0.058651,-0.454307,0.100076,0.021176,0.0761412,5,0.1,18,1.6,0.194094,2.79632,0.608865,-0.445436,0.83158,-0.00799149,0.280336,-0.266314,0.00500679,0.0134336,0.590249,5,0.1,19,1.6,-0.242536,5.13607,0.500027,0.150568,-0.831318,0.000227988,-0.280954,-0.348568,0,0.0192352,0.348355,5,0.1,20,1.6,3.45027,-2.95178,0.731084,-0.862145,-0.0181556,0.181399,-0.0776052,0.0340939,0.0413954,0.0294174,2.24919,5,0.1,21,1.6,-4.34516,-2.2625,0.569641,0.579333,0.348884,0.0295416,-0.471115,-0.13876,-0.0240505,0.00996905,0.209472,5,0.1,22,1.6,3.79869,-2.11822,0.595995,0.225401,0.668424,0.00183135,-0.0648499,-0.869989,0.00107288,0.0108997,2.74496,5,0.1,23,1.6,-4.66515,-2.66461,1.0255,0.0147104,0.738311,0.314778,-0.0116825,-0.424027,-0.252843,0.0312708,0.318485,5,0.1,24,1.6,4.15005,-4.88485,0.615072,0.0129819,0.739384,-0.00392944,-0.00429153,0.95129,0.00137091,0.0319949,2.34329,5,0.1,25,1.6,1.97643,-1.81342,0.565294,-0.108287,0.644428,0.0566646,0.0575781,0.93317,0.200152,0.0148149,2.32648,5,0.1,26,1.6,2.46245,-5.47508,0.500008,-0.373173,0.156033,0.000135601,0.146747,0.0576973,0.00137091,0.031352,0.122571,5,0.1,27,1.6,-0.586626,4.10113,0.575273,0.425011,-0.604773,0.0240728,-0.345618,0.27895,-0.0195801,0.0217126,0.350734,5,0.1,28,1.6,0.21623,1.20924,0.620714,0.223784,-0.859666,-0.00935495,-0.184253,-0.127196,0.00223517,0.0296538,2.26385,5,0.1,29,1.6,0.603782,-3.03437,0.500584,0.0606,0.864518,-0.00467747,-0.164866,-0.0299215,0.0257194,0.0136252,2.30361,5,0.1,30,1.6,1.47872,2.72784,0.500027,0.401893,-0.165153,0.000180304,0.210583,-0.486255,-0.00038743,0.0101398,0.700893,5,0.1,31,1.6,-3.96227,-3.11739,0.616597,-0.336087,0.0636399,-0.0658035,0.107169,-0.0203848,0.0210106,0.0104318,0.0307747,5,0.1,32,1.6,-0.5713,-0.49423,0.500003,0.866024,0.00356212,1.04308e-05,2.98023e-05,-0.0409484,-5.96046e-05,0.0136106,1.34014,5,0.1,33,1.6,1.44066,2.45175,0.500885,0.125879,-0.294244,0.00216961,0.255525,-0.120997,0.0111759,0.00795613,0.242576,5,0.1,34,1.6,-0.0302857,3.8326,0.622348,0.174342,-0.221634,-0.0217572,-0.349634,-0.247717,0.0177026,0.0141773,0.844745,5,0.1,35,1.6,-1.92951,-2.42705,0.500002,-0.268993,-0.160164,-4.76837e-05,0.538051,0.145912,0.00542402,0.00972358,3.68376,5,0.1,36,1.6,1.18573,4.67389,1.0074,0.01387,-0.281632,0.333491,-0.0112057,0.479221,-0.271142,0.037014,0.18429,5,0.1,37,1.6,1.64886,-2.57001,0.588968,-0.448281,0.30123,0.0107422,-0.216544,-0.534654,-0.00873208,0.0272135,0.35207,5,0.1,38,1.6,-2.35522,2.27712,0.547697,0.432932,0.0415385,-0.0976905,0.0822544,0.0324249,0.188917,0.0098922,0.285088,5,0.1,39,1.6,2.30114,-2.00078,0.72683,-0.334692,0.00526905,0.0238568,0.327826,-0.125408,-0.00935793,0.0262466,0.916933,5,0.1
0,1.7,-1.05744,4.57415,1.05297,0.00736341,-0.717428,0.293021,-0.00578165,0.372589,-0.229158,0.0517043,0.344534,5,0.1,1,1.7,-0.126667,0.621392,0.631192,0.186178,0.865292,0.0138297,-0.0494476,0.0293329,-0.00367686,0.00945963,2.25714,5,0.1,2,1.7,0.631157,1.61054,0.50003,-0.477324,-0.366867,3.33413e-05,0.38179,0.617385,-0.000424683,0.0106596,0.31091,5,0.1,3,1.7,0.944682,2.58258,0.751831,-0.633005,0.386164,0.105768,-0.13268,0.386626,-0.0921041,0.0142154,2.44444,5,0.1,4,1.7,0.304184,-4.22861,0.614408,-0.181063,0.723751,-0.0212706,0.0130236,0.337183,0.00150874,0.00864321,2.44631,5,0.1,5,1.7,-2.82793,4.06682,1.07895,-0.0402637,-0.231965,0.26071,-0.297338,-0.0685453,-0.355259,0.00651246,0.28893,5,0.1,6,1.7,-2.56785,4.28282,1.03219,0.0177335,-0.519625,0.315275,-0.0142008,0.38746,-0.25218,0.0211242,0.161232,5,0.1,7,1.7,2.69183,-2.14306,0.62639,-0.583504,0.251469,-0.0264846,0.514075,-0.0589192,0.0169948,0.0125707,0.205585,5,0.1,8,1.7,-2.19062,2.37139,1.05904,0.158848,0.107616,0.304962,-0.34605,0.0863373,-0.0469685,0.0142006,0.111151,5,0.1,9,1.7,-0.345413,2.58162,0.500042,0.19385,0.152652,0.000115577,-0.155065,-0.876769,-0.000681728,0.0115977,0.346761,5,0.1,10,1.7,-2.56907,-0.308613,0.638223,0.866026,-0.395698,-0.0125439,0,-0.0282731,0.000249594,0.0215026,2.18288,5,0.1,11,1.7,-0.0685256,-0.329415,0.721997,0.312211,0.866025,0.0786026,-0.0135757,-1.78814e-06,-0.136476,0.0217414,2.21031,5,0.1,12,1.7,-1.91807,-3.85346,0.590152,-0.0241192,0.865491,0.0978185,0.0375882,0.0213832,0.234351,0.0171252,2.26936,5,0.1,13,1.7,-3.2212,-2.55282,0.572367,0.413609,-0.11414,-0.0275395,-0.674754,0.00111759,-0.0202917,0.0094928,0.163047,5,0.1,14,1.7,0.89045,-2.51209,0.500031,0.00961646,0.375567,0.000262726,-0.00505894,-0.607073,-0.000167638,0.0121011,0.179001,5,0.1,15,1.7,1.65711,-0.402971,0.500007,-0.866025,-0.26376,9.40636e-06,-1.49012e-05,0.255615,-0.000100583,0.0105642,2.24222,5,0.1,16,1.7,0.0467344,-2.68146,0.50003,-0.0463618,0.576824,3.33413e-05,0.0370825,-0.46134,-0.000424683,0.0113328,0.143701,5,0.1,17,1.7,-1.47425,-3.73533,1.05615,0.157159,0.102957,0.285498,-0.065513,-0.399858,0.0795051,0.021176,0.0761412,5,0.1,18,1.7,0.150888,2.87827,0.60809,-0.418991,0.807768,-0.00751885,0.261871,-0.242725,0.00468269,0.0134336,0.590249,5,0.1,19,1.7,-0.228961,5.05169,0.500048,0.120355,-0.850836,0.000187289,-0.31591,-0.0295341,-0.000733882,0.0192352,0.348355,5,0.1,20,1.7,3.36382,-2.95345,0.749488,-0.865783,-0.0154834,0.186924,-0.00970066,0.0206679,0.0570193,0.0294174,2.24919,5,0.1,21,1.7,-4.28948,-2.22824,0.57248,0.535169,0.336755,0.0272878,-0.427991,-0.117972,-0.0218377,0.00996905,0.209472,5,0.1,22,1.7,3.82098,-2.05559,0.596183,0.220984,0.586785,0.00194013,-0.0355393,-0.715375,0.000990927,0.0108997,2.74496,5,0.1,23,1.7,-4.66374,-2.59277,1.05577,0.013613,0.699022,0.291061,-0.0106394,-0.386178,-0.230134,0.0312708,0.318485,5,0.1,24,1.7,4.15133,-4.8067,0.614684,0.0126936,0.81783,-0.0038363,-0.00217557,0.596374,0.000707805,0.0319949,2.34329,5,0.1,25,1.7,1.96582,-1.74413,0.571768,-0.104357,0.741269,0.0709849,0.0278056,0.937685,0.0900663,0.0148149,2.32648,5,0.1,26,1.7,2.42577,-5.45944,0.500025,-0.360806,0.154598,0.000177883,0.116915,-0.0790358,-0.000342727,0.031352,0.122571,5,0.1,27,1.7,-0.545771,4.04249,0.577587,0.392611,-0.564099,0.0222374,-0.313997,0.508174,-0.017792,0.0217126,0.350734,5,0.1,28,1.7,0.237484,1.12289,0.619785,0.199491,-0.865628,-0.0092566,-0.292078,-0.0158995,0.000335276,0.0296538,2.26385,5,0.1,29,1.7,0.60874,-2.94793,0.500233,0.0362943,0.864968,-0.00247462,-0.301119,0.0106394,0.0182875,0.0136252,2.30361,5,0.1,30,1.7,1.52003,2.70868,0.500043,0.424078,-0.219318,0.000123121,0.206858,-0.562117,-0.000715256,0.0101398,0.700893,5,0.1,31,1.7,-3.99532,-3.11113,0.610126,-0.324364,0.0614125,-0.063506,0.136375,-0.0258833,0.0267178,0.0104318,0.0307747,5,0.1,32,1.7,-0.484703,-0.494008,0.500004,0.865785,0.00150451,4.56348e-06,-0.00961855,-0.00355951,-5.58794e-05,0.0136106,1.34014,5,0.1,33,1.7,1.45396,2.42144,0.501148,0.135058,-0.313677,0.0029901,-0.0489876,-0.234768,0.00543892,0.00795613,0.242576,5,0.1,34,1.7,-0.0144024,3.80915,0.620257,0.146648,-0.247381,-0.0200978,-0.156465,-0.247702,0.0160784,0.0141773,0.844745,5,0.1,35,1.7,-1.95363,-2.44015,0.500017,-0.212752,-0.0832591,0.000288337,0.574984,1.25577,0.00158697,0.00972358,3.68376,5,0.1,36,1.7,1.18707,4.64829,1.03946,0.0128189,-0.229372,0.308072,-0.0101998,0.538349,-0.246353,0.037014,0.18429,5,0.1,37,1.7,1.60299,-2.54243,0.590314,-0.468284,0.251383,0.0188137,-0.16129,-0.46581,0.150111,0.0272135,0.35207,5,0.1,38,1.7,-2.31142,2.28147,0.538878,0.443277,0.0455774,-0.0786899,0.0989735,0.0437796,0.188887,0.0098922,0.285088,5,0.1,39,1.7,2.2692,-2.0009,0.729164,-0.305023,-0.00709035,0.022787,0.276044,-0.0918657,-0.0124425,0.0262466,0.916933,5,0.1
0,1.8,-1.05673,4.50438,1.08111,0.00676811,-0.67637,0.269318,-0.0063777,0.466347,-0.250816,0.0545598,0.231834,5,0.1,1,1.8,-0.108317,0.707979,0.632555,0.180439,0.866026,0.0134036,-0.0722221,0,-0.00536442,0.0105749,2.25288,5,0.1,2,1.8,0.585363,1.57707,0.500031,-0.43799,-0.301316,-5.96046e-06,0.41455,0.680745,-0.00038743,0.0101662,0.162983,5,0.1,3,1.8,0.880588,2.62339,0.761852,-0.648913,0.431007,0.0937983,-0.136614,0.456929,-0.142843,0.013217,1.90619,5,0.1,4,1.8,0.286172,-4.15427,0.612292,-0.178687,0.763965,-0.0209928,0.0418723,0.39506,0.00488758,0.00865843,2.30842,5,0.1,5,1.8,-2.83369,4.04325,1.10311,-0.0766575,-0.239086,0.221524,-0.399232,-0.0567436,-0.420332,0.00622171,0.242921,5,0.1,6,1.8,-2.56615,4.23284,1.06243,0.0162721,-0.479209,0.289294,-0.0154972,0.431776,-0.273824,0.0245754,0.106383,5,0.1,7,1.8,2.63612,-2.11827,0.623825,-0.529861,0.24358,-0.024797,0.566483,-0.105977,0.0176728,0.0123885,0.144568,5,0.1,8,1.8,-2.17658,2.3826,1.08923,0.1212,0.116414,0.297964,-0.394702,0.0792742,-0.103235,0.015431,0.153704,5,0.1,9,1.8,-0.326815,2.59294,0.50005,0.177874,0.0782907,4.17233e-05,-0.168353,-0.609636,-0.000745058,0.0125668,0.742122,5,0.1,10,1.8,-2.48247,-0.347974,0.636971,0.866026,-0.388074,-0.0124738,0,0.178844,0.00172853,0.0241216,2.24278,5,0.1,11,1.8,-0.037422,-0.242812,0.729166,0.309026,0.866025,0.0647366,-0.0632125,0,-0.139385,0.0205991,2.22341,5,0.1,12,1.8,-1.9203,-3.76687,0.601056,-0.0203609,0.866026,0.1195,0.0374317,0,0.188559,0.0185883,1.79683,5,0.1,13,1.8,-3.18337,-2.56419,0.569531,0.342041,-0.112623,-0.0289738,-0.738621,0.0323057,-0.00745058,0.0107228,0.279768,5,0.1,14,1.8,0.891387,-2.47769,0.500054,0.00914186,0.311476,0.000172853,-0.00491738,-0.658035,-0.00140071,0.0107343,0.160996,5,0.1,15,1.8,1.57051,-0.427892,0.500008,-0.866026,-0.233084,0,5.96046e-05,0.350222,-0.000119209,0.0100662,2.26349,5,0.1,16,1.8,0.0422866,-2.62613,0.500031,-0.0425412,0.529289,-5.96046e-06,0.0402629,-0.500917,-0.00038743,0.011057,0.0956689,5,0.1,17,1.8,-1.4589,-3.72692,1.08497,0.149226,0.0662863,0.289303,-0.0962615,-0.33164,-0.0129342,0.0210754,0.118864,5,0.1,18,1.8,0.110356,2.95765,0.607362,-0.390832,0.777513,-0.00701398,0.310294,-0.384808,0.00554323,0.0127096,0.402293,5,0.1,19,1.8,-0.218512,4.96707,0.500063,0.088707,-0.83549,9.68575e-05,-0.311248,0.341177,-0.00104308,0.0207102,0.192282,5,0.1,20,1.8,3.27722,-2.95491,0.76841,-0.866026,-0.0137925,0.190747,0,0.0141859,0.0109971,0.0281293,2.24724,5,0.1,21,1.8,-4.23813,-2.19521,0.575098,0.491071,0.322902,0.0250384,-0.464678,-0.16892,-0.0236928,0.0106546,0.14093,5,0.1,22,1.8,3.84287,-2,0.596381,0.216246,0.530002,0.00201017,-0.0678301,-0.421166,0.000298023,0.0101488,2.80152,5,0.1,23,1.8,-4.66243,-2.5249,1.08371,0.0125051,0.656962,0.267303,-0.0116825,-0.471592,-0.250936,0.0309224,0.214008,5,0.1,24,1.8,4.15259,-4.72262,0.614305,0.0124335,0.856781,-0.00374913,-0.00405312,0.184774,0.00116229,0.0293789,2.27594,5,0.1,25,1.8,1.95552,-1.66575,0.579162,-0.101557,0.821096,0.0754252,0.0330806,0.616014,0.00244379,0.0109476,1.82398,5,0.1,26,1.8,2.39034,-5.44455,0.50004,-0.347024,0.141644,9.98378e-05,0.169873,-0.173807,-0.00107288,0.0289051,0.0878497,5,0.1,27,1.8,-0.508105,3.98883,0.579721,0.360259,-0.507402,0.0204042,-0.340939,0.609279,-0.0193119,0.0203375,0.303099,5,0.1,28,1.8,0.25586,1.03629,0.618862,0.16712,-0.866026,-0.00918508,-0.347331,2.98023e-05,0.00151992,0.0299391,0.61227,5,0.1,29,1.8,0.610776,-2.86148,0.500064,0.00394434,0.862771,-0.00101328,-0.330299,-0.0652075,0.0110567,0.0108528,2.31713,5,0.1,30,1.8,1.56329,2.68405,0.500051,0.438824,-0.271535,4.76837e-05,0.0698566,-0.457168,-0.000834465,0.00991665,0.524117,5,0.1,31,1.8,-4.02696,-3.10514,0.603931,-0.307333,0.0581861,-0.0601724,0.20957,-0.0398159,0.0410676,0.0102528,0.0114792,5,0.1,32,1.8,-0.398249,-0.493836,0.500004,0.862177,0.0022456,-1.49012e-06,-0.0769496,0.0156909,-2.98023e-05,0.013494,1.00543,5,0.1,33,1.8,1.46688,2.38894,0.501466,0.12027,-0.335515,0.00329763,-0.22769,-0.17786,0.000953674,0.00709913,0.220572,5,0.1,34,1.8,0,3.78331,0.618329,0.146396,-0.267863,-0.0184402,0.137137,-0.148296,0.0174344,0.0141615,0.703588,5,0.1,35,1.8,-1.97205,-2.44129,0.50005,-0.156084,0.0667036,0.000321865,0.549376,1.63674,-0.000715256,0.00900034,1.44081,5,0.1,36,1.8,1.1883,4.62797,1.06901,0.011766,-0.178289,0.28269,-0.0110269,0.468016,-0.267565,0.0372687,0.293107,5,0.1,37,1.8,1.55559,-2.51953,0.593072,-0.476831,0.207454,0.0372037,0.005126,-0.415325,0.202119,0.0216989,0.18749,5,0.1,38,1.8,-2.26675,2.28623,0.531938,0.448388,0.0495076,-0.0603065,-0.014782,0.0315905,0.177056,0.00858807,0.203901,5,0.1,39,1.8,2.24006,-2.00183,0.731373,-0.277698,-0.00892878,0.0213042,0.277996,0.0667572,-0.0174642,0.0274439,2.22132,5,0.1
0,1.9,-1.05609,4.43895,1.10685,0.0061769,-0.633144,0.246058,-0.00563264,0.419289,-0.221707,0.0545598,0.231834,5,0.1,1,1.9,-0.0905603,0.794582,0.633874,0.175195,0.866026,0.0130142,-0.0423416,-3.72529e-06,-0.00314042,0.0105749,2.25288,5,0.1,2,1.9,0.543525,1.55036,0.500029,-0.399583,-0.232986,-3.63216e-05,0.365496,0.675321,-0.000223517,0.0101662,0.162983,5,0.1,3,1.9,0.814679,2.66914,0.770471,-0.671287,0.486267,0.0782135,-0.259716,0.594079,-0.165317,0.013217,1.90619,5,0.1,4,1.9,0.268445,-4.07558,0.610209,-0.176277,0.811574,-0.0207121,0.0164658,0.493035,0.0019148,0.00865843,2.30842,5,0.1,5,1.9,-2.84365,4.01916,1.1232,-0.124439,-0.241737,0.180544,-0.522569,0.009045,-0.397399,0.00622171,0.242921,5,0.1,6,1.9,-2.56459,4.18697,1.09007,0.0148363,-0.439093,0.263926,-0.0136495,0.383675,-0.241406,0.0245754,0.106383,5,0.1,7,1.9,2.58581,-2.09456,0.621429,-0.4774,0.229465,-0.0231738,0.496179,-0.175387,0.0155903,0.0123885,0.144568,5,0.1,8,1.9,-2.16648,2.39493,1.11852,0.0805087,0.132546,0.287649,-0.408739,0.217438,-0.112429,0.015431,0.153704,5,0.1,9,1.9,-0.309824,2.59812,0.50005,0.162277,0.0289775,-2.17929e-05,-0.148427,-0.380248,-0.000528991,0.0125668,0.742122,5,0.1,10,1.9,-2.39587,-0.385401,0.635723,0.866026,-0.356134,-0.012545,0,0.439337,-0.00213459,0.0241216,2.24278,5,0.1,11,1.9,-0.00686604,-0.156215,0.734986,0.301568,0.865745,0.0520772,-0.0944179,-0.0112033,-0.114884,0.0205991,2.22341,5,0.1,12,1.9,-1.92217,-3.68026,0.613635,-0.0174301,0.866026,0.129159,0.0226423,0,0.0139512,0.0185883,1.79683,5,0.1,13,1.9,-3.153,-2.57536,0.566578,0.264825,-0.111465,-0.0302084,-0.76434,-0.000759959,-0.0146702,0.0107228,0.279768,5,0.1,14,1.9,0.89228,-2.44992,0.500064,0.00872342,0.244039,3.7998e-05,-0.00384822,-0.660688,-0.0012517,0.0107343,0.160996,5,0.1,15,1.9,1.48391,-0.449319,0.500007,-0.866025,-0.194391,-9.22009e-06,-1.49012e-05,0.413947,-6.33299e-05,0.0100662,2.26349,5,0.1,16,1.9,0.0382229,-2.57557,0.500029,-0.038811,0.48288,-3.63216e-05,0.0354983,-0.441641,-0.000223517,0.011057,0.0956689,5,0.1,17,1.9,-1.4446,-3.72185,1.11379,0.135571,0.0360548,0.286606,-0.171304,-0.271589,-0.0497997,0.0210754,0.118864,5,0.1,18,1.9,0.0727451,3.0336,0.606687,-0.361891,0.741928,-0.00649635,0.279675,-0.353739,0.00500679,0.0127096,0.402293,5,0.1,19,1.9,-0.211186,4.88541,0.500068,0.0580516,-0.795655,3.81842e-06,-0.296621,0.467122,-0.000815839,0.0207102,0.192282,5,0.1,20,1.9,3.19062,-2.95624,0.7876,-0.866026,-0.0128567,0.193358,0,0.00572205,0.0294633,0.0281293,2.24724,5,0.1,21,1.9,-4.19122,-2.16371,0.57749,0.448018,0.307523,0.0228437,-0.409693,-0.150234,-0.020884,0.0106546,0.14093,5,0.1,22,1.9,3.86423,-1.94901,0.596584,0.211372,0.493421,0.00204602,-0.0408441,-0.215635,0.000309199,0.0101488,2.80152,5,0.1,23,1.9,-4.66124,-2.46143,1.10925,0.0114202,0.613281,0.244043,-0.0103712,-0.422329,-0.22155,0.0309224,0.214008,5,0.1,24,1.9,4.15382,-4.63638,0.613934,0.0121787,0.865445,-0.00367686,-0.00178814,0.0231564,0.000499189,0.0293789,2.27594,5,0.1,25,1.9,1.94554,-1.58135,0.586625,-0.0978567,0.859478,0.0730053,0.0432879,0.182971,-0.0481829,0.0109476,1.82398,5,0.1,26,1.9,2.35646,-5.43138,0.500045,-0.330502,0.120685,4.47035e-06,0.170887,-0.237763,-0.000827014,0.0289051,0.0878497,5,0.1,27,1.9,-0.473691,3.94135,0.58167,0.328671,-0.440419,0.0186149,-0.300601,0.718713,-0.0170246,0.0203375,0.303099,5,0.1,28,1.9,0.270732,0.949755,0.617944,0.129551,-0.863436,-0.00923136,-0.393607,0.0773445,-0.0016652,0.0299391,0.61227,5,0.1,29,1.9,0.609885,-2.7754,0.500008,-0.0184475,0.859076,-0.000205822,-0.130698,-0.0440478,0.00544637,0.0108528,2.31713,5,0.1,30,1.9,1.60754,2.65458,0.500052,0.445871,-0.317562,-2.2538e-05,0.0501722,-0.436515,-0.000573695,0.00991665,0.524117,5,0.1,31,1.9,-4.05661,-3.09953,0.598126,-0.285094,0.0539653,-0.0558154,0.238866,-0.0452995,0.0467934,0.0102528,0.0114792,5,0.1,32,1.9,-0.312117,-0.493502,0.500004,0.862136,0.00468064,-4.00469e-06,0.025194,0.0304878,-1.86265e-05,0.013494,1.00543,5,0.1,33,1.9,1.47744,2.35438,0.501798,0.088123,-0.356017,0.00331234,-0.391997,-0.206023,-0.000655651,0.00709913,0.220572,5,0.1,34,1.9,0.0159494,3.75578,0.616567,0.177568,-0.282362,-0.0168246,0.436905,-0.126317,0.0153743,0.0141615,0.703588,5,0.1,35,1.9,-1.98504,-2.42628,0.500077,-0.105008,0.233611,0.000218209,0.469193,1.63868,-0.00127777,0.00900034,1.44081,5,0.1,36,1.9,1.18943,4.6124,1.09615,0.0109,-0.135443,0.261669,-0.00696629,0.329494,-0.169054,0.0372687,0.293107,5,0.1,37,1.9,1.50795,-2.50074,0.597608,-0.47544,0.169498,0.0516887,0.0407249,-0.347108,0.092227,0.0216989,0.18749,5,0.1,38,1.9,-2.22193,2.29135,0.526768,0.447828,0.0528708,-0.0433713,-0.0168979,0.0320971,0.160202,0.00858807,0.203901,5,0.1,39,1.9,2.21358,-2.00228,0.733417,-0.252572,0.00330731,0.0195727,0.233248,0.257641,-0.0175387,0.0274439,2.22132,5,0.1
0,2,-1.0555,4.37779,1.13035,0.00561178,-0.588953,0.223732,-0.00584126,0.478983,-0.229776,0.0511207,0.155369,5,0.1,1,2,-0.0732682,0.881184,0.635159,0.170312,0.866026,0.0126526,-0.0622031,0,-0.00464916,0.010364,2.25453,5,0.1,2,2,0.505392,1.53036,0.500025,-0.362878,-0.168088,-5.21541e-05,0.376895,0.614822,-8.9407e-05,0.00994194,0.2641,5,0.1,3,2,0.746393,2.72059,0.777453,-0.692078,0.540483,0.0613719,-0.119507,0.451088,-0.168681,0.0131785,1.42961,5,0.1,4,2,0.250926,-3.99221,0.608151,-0.17366,0.852072,-0.0204057,0.0430644,0.276208,0.00503659,0.00907758,2.26138,5,0.1,5,2,-2.85868,3.99517,1.13931,-0.175285,-0.236446,0.142378,-0.469327,0.0997782,-0.364363,0.00668061,0.22535,5,0.1,6,2,-2.56318,4.14498,1.11525,0.0134647,-0.400257,0.239679,-0.0139475,0.401974,-0.248909,0.0221948,0.121457,5,0.1,7,2,2.54053,-2.07259,0.619191,-0.428349,0.208759,-0.0215426,0.494123,-0.237226,0.0175238,0.0134016,0.205378,5,0.1,8,2,-2.16043,2.40933,1.14665,0.0412643,0.155371,0.273922,-0.368357,0.219703,-0.168264,0.0148749,0.283933,5,0.1,9,2,-0.294338,2.59946,0.500046,0.147371,0.00131726,-6.4075e-05,-0.15305,-0.178576,-0.000327826,0.0116021,2.04103,5,0.1,10,2,-2.30927,-0.41853,0.634458,0.866026,-0.304003,-0.0127256,0,0.585899,-0.00077486,0.0202158,2.28999,5,0.1,11,2,0.0227111,-0.0697863,0.739653,0.288757,0.861544,0.0415638,-0.167187,-0.0896382,-0.0962615,0.0189888,2.47254,5,0.1,12,2,-1.92382,-3.59366,0.626396,-0.0155717,0.866026,0.124042,0.0155568,0,-0.108153,0.0164184,1.39016,5,0.1,13,2,-3.13013,-2.58651,0.563489,0.195473,-0.11133,-0.0314653,-0.601292,0.00965595,-0.00861287,0.0107625,0.240147,5,0.1,14,2,0.893132,-2.42863,0.500063,0.00830591,0.183886,-7.00355e-05,-0.00476837,-0.526905,-0.000953674,0.0108321,0.323049,5,0.1,15,2,1.39731,-0.46665,0.500006,-0.866026,-0.152041,-1.3411e-05,0,0.425294,-2.98023e-05,0.0114114,0.485117,5,0.1,16,2,0.0345191,-2.52948,0.500025,-0.0352459,0.438529,-5.21541e-05,0.0366066,-0.455499,-8.9407e-05,0.0107781,0.156714,5,0.1,17,2,-1.43198,-3.7195,1.14209,0.116,0.0121713,0.27791,-0.215173,-0.205517,-0.12958,0.0215232,0.145494,5,0.1,18,2,0.0379778,3.10589,0.606063,-0.333021,0.70225,-0.00597984,0.305348,-0.458241,0.00548363,0.0129683,0.342771,5,0.1,19,2,-0.206804,4.80846,0.500064,0.0302847,-0.740314,-6.55651e-05,-0.254937,0.646114,-0.000566244,0.0213487,0.11095,5,0.1,20,2,3.10402,-2.9575,0.807035,-0.866026,-0.0124395,0.194634,0,0.00369549,-0.0121891,0.0292256,2.24717,5,0.1,21,2,-4.14847,-2.13375,0.57967,0.406861,0.290912,0.0207454,-0.422239,-0.19002,-0.0214875,0.00993669,0.098147,5,0.1,22,2,3.88513,-1.9,0.59679,0.206172,0.493935,0.00205338,-0.0711679,0.201702,-0.000208616,0.0115243,2.66048,5,0.1,23,2,-4.66015,-2.40227,1.13255,0.0103831,0.569087,0.221765,-0.0109673,-0.475645,-0.229001,0.0326874,0.257257,5,0.1,24,2,4.15503,-4.54979,0.613569,0.0119448,0.866032,-0.00361055,-0.00309944,-0.000238419,0.000953674,0.029669,2.27182,5,0.1,25,2,1.936,-1.49492,0.59362,-0.0925183,0.866026,0.0662938,0.0648499,0,-0.0835955,0.0133226,0.824333,5,0.1,26,2,2.32433,-5.42055,0.500041,-0.311124,0.0954628,-6.25849e-05,0.223279,-0.260592,-0.000536442,0.0336846,0.203782,5,0.1,27,2,-0.442326,3.901,0.583446,0.298481,-0.365824,0.0169039,-0.309974,0.763297,-0.0175238,0.0281594,0.304169,5,0.1,28,2,0.281714,0.864115,0.617012,0.0902519,-0.845569,-0.00938326,-0.384316,0.304312,-0.000834465,0.00844289,0.741793,5,0.1,29,2,0.607626,-2.68992,0.500008,-0.0246078,0.847882,0.000138581,-0.00345707,-0.205159,0.00178814,0.0109002,2.34855,5,0.1,30,2,1.6522,2.62085,0.500048,0.445348,-0.354284,-6.85453e-05,-0.0746846,-0.27895,-0.000357628,0.00974019,0.374601,5,0.1,31,2,-4.08385,-3.09437,0.592793,-0.258994,0.0490189,-0.0507042,0.285149,-0.0540018,0.0557899,0.00977353,0.00557882,5,0.1,32,2,-0.225951,-0.492874,0.500003,0.858528,0.00789836,-5.96046e-06,-0.13332,0.0319481,0,0.0122223,0.73152,5,0.1,33,2,1.48418,2.31788,0.502123,0.0460058,-0.372261,0.00317097,-0.432253,-0.100255,-0.00217557,0.00743195,0.205065,5,0.1,34,2,0.0360507,3.72705,0.614961,0.225091,-0.290549,-0.0152797,0.476094,-0.0271797,0.0158548,0.0143652,0.825571,5,0.1,35,2,-1.99335,-2.39514,0.500092,-0.0627011,0.383675,8.04663e-05,0.37533,1.31786,-0.00140071,0.00992533,0.193079,5,0.1,36,2,1.19048,4.6,1.12152,0.010255,-0.117707,0.246069,-0.0063777,0.0314713,-0.154793,0.0356084,0.232854,5,0.1,37,2,1.46079,-2.48544,0.603089,-0.465697,0.137436,0.056535,0.166059,-0.296593,0.00891089,0.0143907,0.124166,5,0.1,38,2,-2.17737,2.29678,0.523194,0.441557,0.0553191,-0.0285104,-0.122428,0.0146627,0.136018,0.00925884,0.141381,5,0.1,39,2,2.18947,-2,0.735284,-0.229567,0.0487477,0.0177354,0.233054,0.632942,-0.0194013,0.00739118,0.275051,5,0.1
0,2.1,-1.05496,4.32115,1.15164,0.00507552,-0.544725,0.202617,-0.00502914,0.423163,-0.1987,0.0511207,0.155369,5,0.1,1,2.1,-0.0564748,0.967787,0.636406,0.16604,0.866026,0.0123329,-0.0327665,0,-0.00245124,0.010364,2.25453,5,0.1,2,2.1,0.470709,1.51647,0.500019,-0.333051,-0.111362,-5.62519e-05,0.240458,0.51482,7.45058e-06,0.00994194,0.2641,5,0.1,3,2.1,0.676444,2.777,0.782751,-0.707285,0.587716,0.0446841,-0.144314,0.45149,-0.162631,0.0131785,1.42961,5,0.1,4,2.1,0.233706,-3.90615,0.606127,-0.171165,0.865118,-0.020114,0.0168122,0.0355989,0.00196695,0.00907758,2.26138,5,0.1,5,2.1,-2.87868,3.97231,1.15182,-0.225205,-0.218285,0.10864,-0.499621,0.252143,-0.310652,0.00668061,0.22535,5,0.1,6,2.1,-2.56189,4.10667,1.13816,0.0123601,-0.36857,0.219982,-0.0089258,0.25481,-0.158802,0.0221948,0.121457,5,0.1,7,2.1,2.49988,-2.05305,0.617101,-0.38701,0.18092,-0.0204464,0.353023,-0.311762,0.00621378,0.0134016,0.205378,5,0.1,8,2.1,-2.15809,2.42564,1.1732,0.00606999,0.167854,0.2569,-0.328958,0.0370145,-0.17795,0.0148749,0.283933,5,0.1,9,2.1,-0.28032,2.59871,0.500038,0.133319,-0.0152726,-8.54023e-05,-0.132058,-0.110731,-0.000115484,0.0116021,2.04103,5,0.1,10,2.1,-2.22266,-0.445876,0.633175,0.866026,-0.242022,-0.0129914,0,0.639303,-0.00356138,0.0202158,2.28999,5,0.1,11,2.1,0.0499693,0.0155883,0.743552,0.249686,0.842349,0.0383271,-0.571367,-0.305012,0.0186786,0.0189888,2.47254,5,0.1,12,2.1,-1.92531,-3.50706,0.638129,-0.0144592,0.865817,0.109455,0.00783056,-0.00832975,-0.176951,0.0164184,1.39016,5,0.1,13,2.1,-3.11328,-2.59762,0.560298,0.145558,-0.110802,-0.0323362,-0.362322,0.00628829,-0.00715628,0.0107625,0.240147,5,0.1,14,2.1,0.89394,-2.41271,0.500052,0.00785235,0.137977,-0.000132248,-0.00455976,-0.333712,-0.000335276,0.0108321,0.323049,5,0.1,15,2.1,1.31083,-0.47978,0.500005,-0.861463,-0.111183,-1.47149e-05,0.117682,0.388142,0,0.0114114,0.485117,5,0.1,16,2.1,0.0308719,-2.48757,0.500019,-0.0402498,0.402482,-5.62519e-05,-0.116979,-0.290617,7.45058e-06,0.0107781,0.156714,5,0.1,17,2.1,-1.4215,-3.71924,1.16926,0.0934066,-0.0062529,0.26557,-0.23257,-0.161454,-0.126682,0.0215232,0.145494,5,0.1,18,2.1,0.00596078,3.17396,0.605491,-0.309244,0.659729,-0.00547282,0.189437,-0.414416,0.00482798,0.0129683,0.342771,5,0.1,19,2.1,-0.205006,4.73764,0.500056,0.00620598,-0.675907,-0.000105798,-0.222846,0.652879,-0.00025332,0.0213487,0.11095,5,0.1,20,2.1,3.01741,-2.95874,0.826503,-0.866026,-0.0123799,0.195097,0,-0.00140071,0.0098832,0.0292256,2.24717,5,0.1,21,2.1,-4.10977,-2.10573,0.581644,0.368091,0.268379,0.0187722,-0.364453,-0.258982,-0.0185482,0.00993669,0.098147,5,0.1,22,2.1,3.90546,-1.84841,0.596994,0.200754,0.547207,0.00204081,-0.0473857,0.762835,-0.000137836,0.0115243,2.66048,5,0.1,23,2.1,-4.65916,-2.34744,1.15365,0.00937879,0.529661,0.200731,-0.00941753,-0.339687,-0.197828,0.0326874,0.257257,5,0.1,24,2.1,4.15621,-4.46318,0.613211,0.0117756,0.866023,-0.00355784,-0.000983477,2.98023e-05,0.000312924,0.029669,2.27182,5,0.1,25,2.1,1.92718,-1.40833,0.599801,-0.0830492,0.865385,0.0570796,0.119708,-0.0256374,-0.0988916,0.0133226,0.824333,5,0.1,26,2.1,2.29432,-5.4123,0.500033,-0.288974,0.0696599,-9.5088e-05,0.226125,-0.250757,-0.000145286,0.0336846,0.203782,5,0.1,27,2.1,-0.413936,3.86826,0.584898,0.270022,-0.289004,0.0108493,-0.267474,0.762537,-0.094153,0.0281594,0.304169,5,0.1,28,2.1,0.28903,0.782376,0.616041,0.0580442,-0.777715,-0.0102823,-0.265338,0.995211,-0.01489,0.00844289,0.741793,5,0.1,29,2.1,0.605336,-2.60712,0.500027,-0.0196065,0.800581,0.000224635,0.0927486,-0.664949,7.45058e-05,0.0109002,2.34855,5,0.1,30,2.1,1.69639,2.58406,0.500039,0.43813,-0.380901,-9.17353e-05,-0.0866279,-0.232294,-0.000115484,0.00974019,0.374601,5,0.1,31,2.1,-4.10833,-3.08974,0.588,-0.230603,0.0436429,-0.0451484,0.285387,-0.0540167,0.0558533,0.00977353,0.00557882,5,0.1,32,2.1,-0.140599,-0.491915,0.500107,0.84911,0.0113396,0.00295751,-0.0956838,0.0349674,0.0526831,0.0122223,0.73152,5,0.1,33,2.1,1.48642,2.28012,0.502431,-0.0023989,-0.382821,0.00299048,-0.51216,-0.090614,-0.00158697,0.00743195,0.205065,5,0.1,34,2.1,0.0605293,3.69786,0.613508,0.260447,-0.292898,-0.0138237,0.234228,-0.00748038,0.013683,0.0143652,0.825571,5,0.1,35,2.1,-1.99784,-2.35112,0.500093,-0.0282463,0.487386,-5.05708e-05,0.311121,0.759974,-0.00118092,0.00992533,0.193079,5,0.1,36,2.1,1.19152,4.58808,1.14535,0.0107683,-0.123263,0.230148,0.0138283,-0.119418,-0.168055,0.0356084,0.232854,5,0.1,37,2.1,1.41502,-2.47307,0.608694,-0.449335,0.110792,0.0547225,0.176042,-0.239253,-0.0418276,0.0143907,0.124166,5,0.1,38,2.1,-2.13379,2.30239,0.520991,0.430188,0.0567913,-0.0159004,-0.121593,0.0119507,0.115212,0.00925884,0.141381,5,0.1,39,2.1,2.16706,-1.99238,0.737229,-0.223804,0.0997094,0.0234017,-0.0763237,0.391223,0.115573,0.00739118,0.275051,5,0.1
0,2.2,-1.05448,4.26882,1.17092,0.00457764,-0.501359,0.182942,-0.00500679,0.45681,-0.199199,0.0472071,0.10413,5,0.1,1,2.2,-0.0400499,1.05439,0.637626,0.16213,0.866026,0.0120416,-0.0522205,0,-0.0038743,0.0108109,2.25591,5,0.1,2,2.2,0.438521,1.50771,0.500014,-0.311165,-0.0658363,-5.21541e-05,0.212625,0.39345,5.96046e-05,0.00894615,0.389706,5,0.1,3,2.2,0.605223,2.83775,0.786433,-0.71411,0.623643,0.0292689,0.0358522,0.237703,-0.143826,0.012047,1.03391,5,0.1,4,2.2,0.216697,-3.81957,0.604129,-0.168593,0.866026,-0.0198126,0.0416934,0,0.00488758,0.00832439,2.25399,5,0.1,5,2.2,-2.90355,3.95191,1.16122,-0.27017,-0.188106,0.0801831,-0.378728,0.341773,-0.258923,0.00637014,0.205352,5,0.1,6,2.2,-2.56069,4.07099,1.15942,0.0115454,-0.34529,0.205529,-0.0077486,0.227928,-0.140429,0.0183761,0.0733262,5,0.1,7,2.2,2.46284,-2.03658,0.615081,-0.354218,0.147843,-0.0199839,0.317693,-0.343204,0.00435114,0.0142955,0.159554,5,0.1,8,2.2,-2.15902,2.44236,1.19794,-0.0234365,0.164163,0.237387,-0.256538,-0.10407,-0.215828,0.0171566,0.264021,5,0.1,9,2.2,-0.267641,2.59699,0.500029,0.120265,-0.0150025,-8.9407e-05,-0.131845,0.132322,2.98023e-05,0.0106528,2.31417,5,0.1,10,2.2,-2.13606,-0.466892,0.63186,0.866026,-0.178688,-0.0132695,0,0.616327,-0.0012815,0.0203885,2.45174,5,0.1,11,2.2,0.0717067,0.0978741,0.747581,0.182195,0.798993,0.0430122,-0.744182,-0.566837,0.0649691,0.0170216,2.61538,5,0.1,12,2.2,-1.92672,-3.42059,0.648121,-0.0138074,0.8627,0.0898615,0.00613928,-0.0667572,-0.209481,0.0161406,1.68133,5,0.1,13,2.2,-3.1,-2.60863,0.557042,0.125146,-0.109154,-0.0326201,-0.0593662,0.0303984,0.002563,0.00956262,0.177391,5,0.1,14,2.2,0.894701,-2.4,0.500038,0.00735372,0.12188,-0.000144541,-0.00563264,0.00166893,8.9407e-05,0.0114714,0.247055,5,0.1,15,2.2,1.22565,-0.489044,0.500003,-0.838175,-0.0750422,-1.3411e-05,0.36478,0.332117,2.98023e-05,0.0139902,0.312793,5,0.1,16,2.2,0.0261423,-2.44867,0.500014,-0.0551494,0.376034,-5.21541e-05,-0.1658,-0.257015,5.96046e-05,0.0104191,0.097668,5,0.1,17,2.2,-1.41332,-3.72059,1.19512,0.0702322,-0.019896,0.251001,-0.227511,-0.110745,-0.170946,0.0206484,0.253562,5,0.1,18,2.2,-0.0240784,3.23778,0.604968,-0.291794,0.615627,-0.00498593,0.173727,-0.482798,0.00500679,0.0122507,0.238159,5,0.1,19,2.2,-0.205422,4.6734,0.500044,-0.0136539,-0.607979,-0.000119209,-0.171825,0.712156,-2.98023e-05,0.0224478,0.147365,5,0.1,20,2.2,2.93081,-2.95998,0.846021,-0.866026,-0.0125289,0.19464,0,-0.000953674,-0.0272095,0.0288991,2.24769,5,0.1,21,2.2,-4.07476,-2.08029,0.583429,0.332069,0.239503,0.0169367,-0.364065,-0.316143,-0.0185072,0.0100817,0.144427,5,0.1,22,2.2,3.92527,-1.78963,0.597197,0.194961,0.628823,0.00200868,-0.0756979,0.793695,-0.000566244,0.0105712,2.29957,5,0.1,23,2.2,-4.65827,-2.29613,1.17274,0.00844002,0.496542,0.181159,-0.00905991,-0.34225,-0.197947,0.0283897,0.184081,5,0.1,24,2.2,4.15738,-4.37658,0.612857,0.0116229,0.866032,-0.00351071,-0.0026226,-0.000238419,0.000834465,0.0264986,2.27183,5,0.1,25,2.2,1.91953,-1.32213,0.605002,-0.0694573,0.855768,0.0468433,0.148058,-0.20504,-0.104278,0.011946,0.0944894,5,0.1,26,2.2,2.2666,-5.40654,0.500023,-0.264847,0.0461102,-9.68575e-05,0.260353,-0.216961,8.9407e-05,0.0305537,0.192366,5,0.1,27,2.2,-0.388256,3.8431,0.585449,0.243583,-0.215179,-0.00025034,-0.267059,0.706077,-0.120491,0.0285627,3.76886,5,0.1,28,2.2,0.293667,0.710326,0.61493,0.0361681,-0.657065,-0.0119656,-0.176847,1.37004,-0.0170767,0.0347854,0.821276,5,0.1,29,2.2,0.603924,-2.53067,0.500048,-0.00797808,0.726783,0.000178814,0.131398,-0.767827,-0.000864267,0.0110304,2.04136,5,0.1,30,2.2,1.73964,2.54502,0.50003,0.42519,-0.397205,-9.53674e-05,-0.183582,-0.079751,5.96046e-05,0.0123338,0.258619,5,0.1,31,2.2,-4.12995,-3.08564,0.583768,-0.201511,0.0381351,-0.0394553,0.297785,-0.0562668,0.0582933,0.0107676,0.00171596,5,0.1,32,2.2,-0.0563764,-0.490614,0.500708,0.832516,0.0145629,0.00936091,-0.2643,0.0281036,0.0702441,0.0211163,2.33917,5,0.1,33,2.2,1.48365,2.24154,0.502722,-0.0522941,-0.386959,0.00282824,-0.468135,0.0218153,-0.00175834,0.01579,0.192802,5,0.1,34,2.2,0.087369,3.66865,0.612193,0.272691,-0.289989,-0.0124708,0.0150019,0.0739098,0.0136793,0.0220095,0.765093,5,0.1,35,2.2,-1.99923,-2.29948,0.500083,-0.000888109,0.536776,-0.000149012,0.234485,0.2352,-0.000834465,0.0155904,0.132957,5,0.1,36,2.2,1.19268,4.57506,1.16747,0.012517,-0.137496,0.211748,0.0191331,-0.148296,-0.202656,0.0376413,0.207008,5,0.1,37,2.2,1.37109,-2.46312,0.613896,-0.428018,0.0890613,0.0487909,0.260115,-0.197768,-0.0739992,0.0149002,0.141046,5,0.1,38,2.2,-2.09149,2.3081,0.519936,0.414449,0.0572324,-0.0056237,-0.204444,-0.00488758,0.0897348,0.00857444,0.164152,5,0.1,39,2.2,2.14407,-1.98081,0.740253,-0.237513,0.128034,0.0378087,-0.166297,0.180662,0.159264,0.00838353,0.225798,5,0.1
0,2.3,-1.05405,4.22083,1.18828,0.0041211,-0.459393,0.164772,-0.00425428,0.397176,-0.169374,0.0472071,0.10413,5,0.1,1,2.3,-0.0240506,1.14099,0.638819,0.158131,0.866026,0.0118697,-0.0356428,0,-0.000432134,0.0108109,2.25591,5,0.1,2,2.3,0.40847,1.50292,0.500009,-0.289695,-0.0319229,-4.3679e-05,0.222612,0.28237,0.000108033,0.00894615,0.389706,5,0.1,3,2.3,0.533964,2.90108,0.788691,-0.710588,0.640231,0.0163973,0.0637138,0.0759959,-0.113565,0.012047,1.03391,5,0.1,4,2.3,0.199977,-3.73297,0.602164,-0.166239,0.866026,-0.0195365,0.0151908,0,0.00178069,0.00832439,2.25399,5,0.1,5,2.3,-2.93253,3.9349,1.168,-0.309456,-0.151455,0.0561202,-0.379965,0.382245,-0.221439,0.00637014,0.205352,5,0.1,6,2.3,-2.55957,4.03763,1.17935,0.010889,-0.321519,0.193671,-0.00587106,0.252753,-0.105821,0.0183761,0.0733262,5,0.1,7,2.3,2.42875,-2.02353,0.61311,-0.329792,0.113304,-0.0193626,0.192031,-0.341699,0.008367,0.0142955,0.159554,5,0.1,8,2.3,-2.16257,2.45803,1.22061,-0.0466287,0.147321,0.215995,-0.20346,-0.222132,-0.215553,0.0171566,0.264021,5,0.1,9,2.3,-0.256389,2.5964,0.500021,0.103803,0.00793785,-8.10251e-05,-0.190943,0.406325,0.00012666,0.0106528,2.31417,5,0.1,10,2.3,-2.04946,-0.481721,0.630522,0.866026,-0.11872,-0.0134991,0,0.566868,-0.00248477,0.0203885,2.45174,5,0.1,11,2.3,0.0858662,0.175538,0.752299,0.0985473,0.758934,0.0520251,-0.891979,-0.286751,0.105787,0.0170216,2.61538,5,0.1,12,2.3,-1.92808,-3.33438,0.65603,-0.0134237,0.863193,0.0681371,0.00242889,0.0416338,-0.220325,0.0161406,1.68133,5,0.1,13,2.3,-3.08725,-2.6194,0.553796,0.134166,-0.105989,-0.0322318,0.202864,0.0362843,0.00621378,0.00956262,0.177391,5,0.1,14,2.3,0.895409,-2.3872,0.500024,0.00680275,0.139111,-0.000124052,-0.00554323,0.299513,0.000298023,0.0114714,0.247055,5,0.1,15,2.3,1.14365,-0.494979,0.500002,-0.801072,-0.0445908,-1.04308e-05,0.399545,0.275515,2.98023e-05,0.0139902,0.312793,5,0.1,16,2.3,0.0197063,-2.41221,0.500009,-0.0741528,0.354332,-4.33996e-05,-0.201097,-0.193655,0.000104308,0.0104191,0.097668,5,0.1,17,2.3,-1.40741,-3.72306,1.21932,0.0483787,-0.0288587,0.232461,-0.206016,-0.0687987,-0.201777,0.0206484,0.253562,5,0.1,18,2.3,-0.0524953,3.29699,0.604494,-0.277269,0.568848,-0.00447733,0.129812,-0.46654,0.00519678,0.0122507,0.238159,5,0.1,19,2.3,-0.207599,4.61588,0.500032,-0.0293656,-0.544494,-0.000113714,-0.139563,0.57742,0.000130385,0.0224478,0.147365,5,0.1,20,2.3,2.84421,-2.96125,0.86542,-0.866026,-0.0128265,0.193737,0,-0.00397861,-0.00223517,0.0288991,2.24769,5,0.1,21,2.3,-4.0431,-2.05805,0.585044,0.303282,0.204131,0.0154734,-0.231028,-0.383019,-0.0117421,0.0100817,0.144427,5,0.1,22,2.3,3.94444,-1.7223,0.597396,0.18881,0.720643,0.00196127,-0.0562519,0.962578,-0.000465661,0.0105712,2.29957,5,0.1,23,2.3,-4.65747,-2.24799,1.18993,0.007613,0.467552,0.163111,-0.0077486,-0.259116,-0.168167,0.0283897,0.184081,5,0.1,24,2.3,4.15854,-4.28998,0.612509,0.011497,0.866023,-0.00346899,-0.000625849,2.98023e-05,0.000216067,0.0264986,2.27183,5,0.1,25,2.3,1.91335,-1.23809,0.609167,-0.0539534,0.819979,0.0365003,0.158638,-0.506297,-0.101384,0.011946,0.0944894,5,0.1,26,2.3,2.2414,-5.40298,0.500014,-0.23932,0.0255175,-8.05594e-05,0.254139,-0.187725,0.000219792,0.0305537,0.192366,5,0.1,27,2.3,-0.365008,3.82498,0.585093,0.223218,-0.148824,-0.00451328,-0.155998,0.614628,0.021819,0.0285627,3.76886,5,0.1,28,2.3,0.296504,0.650977,0.613487,0.0215565,-0.534444,-0.0182129,-0.118045,1.09794,-0.0967272,0.0347854,0.821276,5,0.1,29,2.3,0.603852,-2.46201,0.500062,0.007011,0.647883,8.801e-05,0.160381,-0.692636,-0.000927597,0.0110304,2.04136,5,0.1,30,2.3,1.78128,2.50492,0.500021,0.407692,-0.404094,-8.4471e-05,-0.180319,-0.0410825,0.000145286,0.0123338,0.258619,5,0.1,31,2.3,-4.14863,-3.08211,0.580111,-0.172155,0.0325866,-0.0337084,0.28947,-0.0547171,0.0566728,0.0107676,0.00171596,5,0.1,32,2.3,0.0262413,-0.488915,0.501968,0.824954,0.020245,0.015529,0.0444947,0.077635,0.052359,0.0211163,2.33917,5,0.1,33,2.3,1.47595,2.20295,0.502998,-0.102334,-0.384464,0.00271881,-0.507981,0.0431985,-0.000644475,0.01579,0.192802,5,0.1,34,2.3,0.114179,3.64,0.61101,0.258927,-0.282692,-0.0112238,-0.260301,0.0821054,0.0116117,0.0220095,0.765093,5,0.1,35,2.3,-1.99824,-2.24489,0.500065,0.0197314,0.552051,-0.000196788,0.176638,0.0582039,-0.000167638,0.0155904,0.132957,5,0.1,36,2.3,1.19401,4.56081,1.18766,0.0138763,-0.145311,0.192177,0.00809133,-0.0164211,-0.192732,0.0376413,0.207008,5,0.1,37,2.3,1.3294,-2.45513,0.618357,-0.406913,0.0713155,0.0400401,0.182822,-0.159085,-0.0976659,0.0149002,0.141046,5,0.1,38,2.3,-2.05076,2.31384,0.519812,0.402294,0.0579417,0.00299076,-0.0682622,0.0141263,0.0806786,0.00857444,0.164152,5,0.1,39,2.3,2.11921,-1.96734,0.744968,-0.261596,0.139185,0.0574727,-0.283167,0.0465065,0.218861,0.00838353,0.225798,5,0.1
0,2.4,-1.05365,4.17688,1.20393,0.00370443,-0.419426,0.148177,-0.00411272,0.412464,-0.166118,0.0488916,0.281512,5,0.1,1,2.4,-0.00844111,1.22759,0.640003,0.153661,0.866026,0.0118077,-0.0592807,-5.96046e-05,-0.00146031,0.00859375,2.25736,5,0.1,2,2.4,0.380668,1.50094,0.500005,-0.265698,-0.00959635,-3.12924e-05,0.260919,0.16433,8.9407e-05,0.00807673,3.85333,5,0.1,3,2.4,0.463464,2.9651,0.789813,-0.696496,0.635964,0.00654459,0.237688,-0.171781,-0.0836849,0.0112994,0.748761,5,0.1,4,2.4,0.183451,-3.64636,0.600222,-0.163876,0.866026,-0.0192583,0.0390261,0,0.00455976,0.00838827,2.25489,5,0.1,5,2.4,-2.96519,3.92167,1.17258,-0.341576,-0.113249,0.036034,-0.243425,0.374675,-0.179708,0.0249947,0.29554,5,0.1,6,2.4,-2.55851,4.00682,1.19819,0.0102878,-0.293922,0.182813,-0.00679493,0.302196,-0.117898,0.0225161,0.213803,5,0.1,7,2.4,2.39666,-2.01386,0.611224,-0.312126,0.0805199,-0.0182658,0.176787,-0.309706,0.0137091,0.0112832,0.291764,5,0.1,8,2.4,-2.16814,2.47153,1.24111,-0.0635147,0.121689,0.193706,-0.132084,-0.281692,-0.232399,0.0138485,0.287277,5,0.1,9,2.4,-0.247016,2.6,0.500013,0.0832476,0.0714719,-6.55651e-05,-0.214897,0.836849,0.000149012,0.0109851,2.00522,5,0.1,10,2.4,-1.96285,-0.490945,0.629163,0.866026,-0.0678979,-0.0136256,0,0.439882,0.000536442,0.0212072,2.60963,5,0.1,11,2.4,0.0912674,0.250108,0.758033,0.0102568,0.732554,0.0625148,-0.846058,-0.279351,0.0969172,0.0156592,2.56677,5,0.1,12,2.4,-1.92941,-3.24789,0.661757,-0.0131667,0.866026,0.0466228,0.00339746,0,-0.206441,0.0169275,1.99777,5,0.1,13,2.4,-3.07264,-2.62978,0.550617,0.159216,-0.10134,-0.031212,0.26989,0.0590086,0.0148714,0.00938669,0.118646,5,0.1,14,2.4,0.89606,-2.37159,0.500013,0.00621974,0.174117,-8.9407e-05,-0.00625849,0.367522,0.000327826,0.0106565,0.169096,5,0.1,15,2.4,1.06575,-0.498163,0.500001,-0.754604,-0.0201486,-7.45058e-06,0.54419,0.212684,2.98023e-05,0.011825,1.81249,5,0.1,16,2.4,0.0113163,-2.37775,0.500005,-0.0930917,0.33446,-3.12924e-05,-0.168081,-0.21565,0.000119209,0.0105701,0.142379,5,0.1,17,2.4,-1.40354,-3.72622,1.2415,0.0296056,-0.0337362,0.210381,-0.16731,-0.0293255,-0.240564,0.0189842,0.24593,5,0.1,18,2.4,-0.0795583,3.35148,0.604073,-0.263602,0.520033,-0.00394285,0.152777,-0.51868,0.00554323,0.0113441,0.181141,5,0.1,19,2.4,-0.211162,4.56423,0.500022,-0.0411052,-0.489068,-9.53674e-05,-0.0934526,0.545502,0.000178814,0.0190719,0.351408,5,0.1,20,2.4,2.75761,-2.96255,0.884747,-0.866026,-0.0131547,0.19225,0,-0.00190735,-0.0355244,0.0245498,2.24853,5,0.1,21,2.4,-4.01384,-2.0396,0.586537,0.282478,0.164407,0.0144154,-0.199318,-0.404596,-0.0101328,0.00996152,0.118071,5,0.1,22,2.4,3.96301,-1.64568,0.597589,0.182188,0.807601,0.0018999,-0.0824928,0.719249,-0.000804663,0.0107843,1.79314,5,0.1,23,2.4,-4.65674,-2.20254,1.20541,0.00685453,0.441027,0.146642,-0.00762939,-0.286698,-0.164688,0.0285529,0.13949,5,0.1,24,2.4,4.15968,-4.20338,0.612163,0.0113845,0.866032,-0.00343174,-0.00238419,-0.000238419,0.000715256,0.0255063,2.34425,5,0.1,25,2.4,1.90874,-1.15909,0.612323,-0.0383317,0.755632,0.0267759,0.151217,-0.773787,-0.0922084,0.0104417,0.162643,5,0.1,26,2.4,2.21876,-5.40128,0.500008,-0.213373,0.00966787,-5.51343e-05,0.267386,-0.125408,0.000238419,0.0300897,0.549797,5,0.1,27,2.4,-0.343389,3.81297,0.584894,0.209628,-0.0932753,0.00170171,-0.127599,0.492692,0.0918508,0.0285128,3.85715,5,0.1,28,2.4,0.298148,0.602677,0.611126,0.012064,-0.434698,-0.0293404,-0.0741184,0.909209,-0.117183,0.0333283,2.03384,5,0.1,29,2.4,0.605349,-2.4,0.500066,0.0227004,0.599122,-1.49012e-06,0.147402,-0.291348,-0.000804663,0.0123381,1.70159,5,0.1,30,2.4,1.82106,2.46449,0.500013,0.386792,-0.402611,-6.70552e-05,-0.247002,0.082016,0.000178814,0.0112287,0.17471,5,0.1,31,2.4,-4.16441,-3.07912,0.577021,-0.143635,0.0271976,-0.0281245,0.280857,-0.0531673,0.0549853,0.011313,0.000948765,5,0.1,32,2.4,0.109007,-0.486474,0.503748,0.829537,0.0286981,0.0197172,-0.00303626,0.0854135,0.0310838,0.0121096,2.56001,5,0.1,33,2.4,1.46328,2.16485,0.503267,-0.149637,-0.375807,0.00266284,-0.420153,0.139952,-0.000625849,0.015288,2.90487,5,0.1,34,2.4,0.138516,3.61223,0.609945,0.225837,-0.271893,-0.0100881,-0.379421,0.140548,0.0113845,0.0211607,0.524772,5,0.1,35,2.4,-1.99549,-2.18976,0.500045,0.0342697,0.546563,-0.000190735,0.113666,-0.174522,0.000238419,0.0230382,0.0989024,5,0.1,36,2.4,1.19542,4.54636,1.2059,0.0141531,-0.142264,0.172549,-0.00238419,0.0705719,-0.202477,0.0427331,0.52655,5,0.1,37,2.4,1.28964,-2.44874,0.621857,-0.387883,0.0568986,0.0298589,0.212491,-0.130892,-0.103325,0.0164299,0.0862904,5,0.1,38,2.4,-2.01085,2.31971,0.520487,0.395685,0.0591934,0.0101969,-0.0855327,0.00751019,0.0621676,0.00869447,0.0971438,5,0.1,39,2.4,2.09166,-1.95338,0.751805,-0.288564,0.138167,0.0789404,-0.232697,-0.0627041,0.199288,0.00698081,0.20078,5,0.1
