id,t,px,py,pz,vx,vy,vz,ax,ay,az,planning_time,qp_cost,planning_report,size,id,t,px,py,pz,vx,vy,vz,ax,ay,az,planning_time,qp_cost,planning_report,size,id,t,px,py,pz,vx,vy,vz,ax,ay,az,planning_time,qp_cost,planning_report,size,id,t,px,py,pz,vx,vy,vz,ax,ay,az,planning_time,qp_cost,planning_report,size,id,t,px,py,pz,vx,vy,vz,ax,ay,az,planning_time,qp_cost,planning_report,size,id,t,px,py,pz,vx,vy,vz,ax,ay,az,planning_time,qp_cost,planning_report,size,id,t,px,py,pz,vx,vy,vz,ax,ay,az,planning_time,qp_cost,planning_report,size,id,t,px,py,pz,vx,vy,vz,ax,ay,az,planning_time,qp_cost,planning_report,size,id,t,px,py,pz,vx,vy,vz,ax,ay,az,planning_time,qp_cost,planning_report,size,id,t,px,py,pz,vx,vy,vz,ax,ay,az,planning_time,qp_cost,planning_report,size,id,t,px,py,pz,vx,vy,vz,ax,ay,az,planning_time,qp_cost,planning_report,size,id,t,px,py,pz,vx,vy,vz,ax,ay,az,planning_time,qp_cost,planning_report,size,id,t,px,py,pz,vx,vy,vz,ax,ay,az,planning_time,qp_cost,planning_report,size,id,t,px,py,pz,vx,vy,vz,ax,ay,az,planning_time,qp_cost,planning_report,size,id,t,px,py,pz,vx,vy,vz,ax,ay,az,planning_time,qp_cost,planning_report,size,id,t,px,py,pz,vx,vy,vz,ax,ay,az,planning_time,qp_cost,planning_report,size,id,t,px,py,pz,vx,vy,vz,ax,ay,az,planning_time,qp_cost,planning_report,size,id,t,px,py,pz,vx,vy,vz,ax,ay,az,planning_time,qp_cost,planning_report,size,id,t,px,py,pz,vx,vy,vz,ax,ay,az,planning_time,qp_cost,planning_report,size,id,t,px,py,pz,vx,vy,vz,ax,ay,az,planning_time,qp_cost,planning_report,size,id,t,px,py,pz,vx,vy,vz,ax,ay,az,planning_time,qp_cost,planning_report,size,id,t,px,py,pz,vx,vy,vz,ax,ay,az,planning_time,qp_cost,planning_report,size,id,t,px,py,pz,vx,vy,vz,ax,ay,az,planning_time,qp_cost,planning_report,size,id,t,px,py,pz,vx,vy,vz,ax,ay,az,planning_time,qp_cost,planning_report,size,id,t,px,py,pz,vx,vy,vz,ax,ay,az,planning_time,qp_cost,planning_report,size,id,t,px,py,pz,vx,vy,vz,ax,ay,az,planning_time,qp_cost,planning_report,size,id,t,px,py,pz,vx,vy,vz,ax,ay,az,planning_time,qp_cost,planning_report,size,id,t,px,py,pz,vx,vy,vz,ax,ay,az,planning_time,qp_cost,planning_report,size,id,t,px,py,pz,vx,vy,vz,ax,ay,az,planning_time,qp_cost,planning_report,size,id,t,px,py,pz,vx,vy,vz,ax,ay,az,planning_time,qp_cost,planning_report,size
0,0,1.046,2.09913,0.63126,0,0,0,0,0,0,0.0175747,3.5122,5,0.1,1,0,0.00735664,2.19715,0.520213,0,0,0,0,0,0,0.0259509,3.51219,5,0.1,2,0,-3.58095,-0.772823,0.560893,0,0,0,0,0,0,0.01133,1.40715,5,0.1,3,0,3.5911,-5.67024,0.602043,0,0,0,0,0,0,0.0334673,2.01637,5,0.1,4,0,-2.10919,2.06619,0.540032,0,0,0,0,0,0,0.0145302,3.51219,5,0.1,5,0,-3.30405,-2.6772,0.524932,0,0,0,0,0,0,0.0172671,3.5122,5,0.1,6,0,-1.70281,-3.49774,0.588079,0,0,0,0,0,0,0.0313982,3.5122,5,0.1,7,0,0.53509,-2.26823,0.550424,0,0,0,0,0,0,0.00962613,3.5147,5,0.1,8,0,4.38471,1.66741,0.613892,0,0,0,0,0,0,0.0138805,3.53916,5,0.1,9,0,-3.71962,-3.13334,0.562201,0,0,0,0,0,0,0.0326518,2.79451,5,0.1,10,0,-0.574969,1.74752,0.600399,0,0,0,0,0,0,0.0102184,0.697089,5,0.1,11,0,-2.21666,5.50632,0.648272,0,0,0,0,0,0,0.037603,3.14183,5,0.1,12,0,2.47169,-0.12906,0.620526,0,0,0,0,0,0,0.0193063,3.5122,5,0.1,13,0,0.41611,-1.63102,0.646859,0,0,0,0,0,0,0.013348,3.51219,5,0.1,14,0,-3.91092,1.95982,0.535152,0,0,0,0,0,0,0.0177939,0.587671,5,0.1,15,0,-3.54771,5.75864,0.540762,0,0,0,0,0,0,0.0140426,3.5122,5,0.1,16,0,5.14531,1.12266,0.503404,0,0,0,0,0,0,0.00961959,2.61004,5,0.1,17,0,-5.34919,-5.53254,0.670452,0,0,0,0,0,0,0.0677466,3.61358,5,0.1,18,0,-1.61379,4.2,0.675063,0,0,0,0,0,0,0.00976471,0.40765,5,0.1,19,0,-3.8949,-3.88016,0.549797,0,0,0,0,0,0,0.0163538,0.975762,5,0.1,20,0,-5.72688,-0.970121,0.50792,0,0,0,0,0,0,0.0213576,1.56215,5,0.1,21,0,0.545728,-5.08565,0.685497,0,0,0,0,0,0,0.00858961,1.6067,5,0.1,22,0,1.52727,5.49822,0.555419,0,0,0,0,0,0,0.0451231,2.03487,5,0.1,23,0,2.16884,-3.76866,0.592278,0,0,0,0,0,0,0.0136071,3.05845,5,0.1,24,0,-1.15239,4.63248,0.533847,0,0,0,0,0,0,0.0164901,3.5122,5,0.1,25,0,3.20224,-0.206318,0.572856,0,0,0,0,0,0,0.0164279,3.51219,5,0.1,26,0,1.69694,1.7209,0.551357,0,0,0,0,0,0,0.0194586,0.566395,5,0.1,27,0,0.554023,1.72393,0.68653,0,0,0,0,0,0,0.0146996,0.97973,5,0.1,28,0,-0.303133,-1.14106,0.540872,0,0,0,0,0,0,0.0136835,2.66571,5,0.1,29,0,2.90959,-2.4146,0.694851,0,0,0,0,0,0,0.0119406,3.51219,5,0.1
0,0.1,1.04466,2.10074,0.631232,-0.0378689,0.045586,-0.000791252,-0.673227,0.8104,-0.0140667,0.0175747,3.5122,5,0.1,1,0.1,0.00770086,2.19509,0.520158,0.00977149,-0.0584364,-0.00155,0.173715,-1.03888,-0.027556,0.0259509,3.51219,5,0.1,2,0.1,-3.58223,-0.772486,0.560777,-0.0361249,0.00956645,-0.00328608,-0.64224,0.170071,-0.05842,0.01133,1.40715,5,0.1,3,0.1,3.58955,-5.66996,0.602041,-0.0441875,0.00800863,-6.0536e-05,-0.785545,0.142366,-0.00108033,0.0334673,2.01637,5,0.1,4,0.1,-2.10711,2.06614,0.540059,0.0592455,-0.00147782,0.000762474,1.05324,-0.0262707,0.0135563,0.0145302,3.51219,5,0.1,5,0.1,-3.30405,-2.6752,0.525516,8.12113e-05,0.0568945,0.0166038,0.00146031,1.01148,0.295177,0.0172671,3.5122,5,0.1,6,0.1,-1.70295,-3.49566,0.588086,-0.0041781,0.0591204,0.000201352,-0.0742748,1.05101,0.00358373,0.0313982,3.5122,5,0.1,7,0.1,0.534598,-2.26636,0.550375,-0.0139688,0.0532199,-0.00140397,-0.248339,0.946119,-0.0249632,0.00962613,3.5147,5,0.1,8,0.1,4.38313,1.66766,0.613879,-0.0448845,0.00727512,-0.000357814,-0.797957,0.129342,-0.00635535,0.0138805,3.53916,5,0.1,9,0.1,-3.71965,-3.13147,0.56224,-0.000900403,0.052847,0.00112029,-0.0160187,0.939518,0.0199117,0.0326518,2.79451,5,0.1,10,0.1,-0.574682,1.74664,0.600398,0.00814842,-0.0251157,-1.18278e-05,0.144858,-0.446506,-0.000204891,0.0102184,0.697089,5,0.1,11,0.1,-2.21669,5.50449,0.649005,-0.000987947,-0.0520468,0.0207951,-0.0175834,-0.925303,0.36969,0.037603,3.14183,5,0.1,12,0.1,2.46967,-0.129568,0.620509,-0.0574801,-0.0144402,-0.000477303,-1.02188,-0.256716,-0.00848249,0.0193063,3.5122,5,0.1,13,0.1,0.415889,-1.62895,0.646891,-0.00626943,0.0589291,0.000903104,-0.111455,1.04763,0.0160523,0.013348,3.51219,5,0.1,14,0.1,-3.91138,1.95934,0.535689,-0.0130121,-0.0136264,0.0152571,-0.231311,-0.242248,0.271238,0.0177939,0.587671,5,0.1,15,0.1,-3.54591,5.75758,0.540793,0.0510134,-0.030157,0.00088932,0.906914,-0.536144,0.0158139,0.0140426,3.5122,5,0.1,16,0.1,5.14526,1.12086,0.503375,-0.00134259,-0.0510493,-0.000827108,-0.0238419,-0.907548,-0.0147037,0.00961959,2.61004,5,0.1,17,0.1,-5.34913,-5.53141,0.670407,0.00179037,0.0322066,-0.00127107,0.0317991,0.572532,-0.0225976,0.0677466,3.61358,5,0.1,18,0.1,-1.61427,4.20054,0.675066,-0.0133656,0.0151351,9.05246e-05,-0.237614,0.269055,0.00160933,0.00976471,0.40765,5,0.1,19,0.1,-3.89381,-3.88003,0.549849,0.0309654,0.00385754,0.00148779,0.550479,0.0685602,0.0264458,0.0163538,0.975762,5,0.1,20,0.1,-5.7256,-0.969578,0.507859,0.0363581,0.0154132,-0.00171633,0.646383,0.274017,-0.0305139,0.0213576,1.56215,5,0.1,21,0.1,0.545941,-5.08426,0.685565,0.0060535,0.0395805,0.00191163,0.107612,0.703633,0.0339821,0.00858961,1.6067,5,0.1,22,0.1,1.52724,5.49687,0.556248,-0.000808202,-0.0384718,0.0235466,-0.0143722,-0.683963,0.418603,0.0451231,2.03487,5,0.1,23,0.1,2.16751,-3.76723,0.592286,-0.0376008,0.0405595,0.000228826,-0.668466,0.721037,0.00407174,0.0136071,3.05845,5,0.1,24,0.1,-1.15068,4.63128,0.533907,0.0485253,-0.0339903,0.00168746,0.862673,-0.604242,0.0299998,0.0164901,3.5122,5,0.1,25,0.1,3.20017,-0.206562,0.572873,-0.0588622,-0.0069126,0.000476558,-1.04643,-0.122892,0.00847504,0.0164279,3.51219,5,0.1,26,0.1,1.69689,1.72083,0.552191,-0.00139084,-0.00210106,0.023667,-0.0247285,-0.0373572,0.420749,0.0194586,0.566395,5,0.1,27,0.1,0.553602,1.72291,0.686596,-0.0119728,-0.0288617,0.00188081,-0.212852,-0.513092,0.0334345,0.0146996,0.97973,5,0.1,28,0.1,-0.301877,-1.14238,0.540934,0.0356539,-0.0373077,0.00175238,0.633845,-0.663251,0.0311509,0.0136835,2.66571,5,0.1,29,0.1,2.90783,-2.41572,0.694834,-0.0500977,-0.0316668,-0.000480935,-0.890613,-0.562951,-0.00854582,0.0119406,3.51219,5,0.1
0,0.2,1.03697,2.11,0.631071,-0.119683,0.144076,-0.0025019,-0.897646,1.08051,-0.0187159,0.0138459,2.92579,5,0.1,1,0.2,0.00968572,2.18322,0.519843,0.0308827,-0.184685,-0.0048995,0.231621,-1.38533,-0.0367165,0.0213855,2.92578,5,0.1,2,0.2,-3.58957,-0.770543,0.560109,-0.114173,0.0302345,-0.0103861,-0.85628,0.226796,-0.0779033,0.00848017,1.17496,5,0.1,3,0.2,3.58057,-5.66833,0.602028,-0.139654,0.0253081,-0.000190735,-1.04737,0.19002,-0.00146031,0.0294507,1.65433,5,0.1,4,0.2,-2.09507,2.06584,0.540214,0.187242,-0.00466704,0.00241101,1.4044,-0.0351667,0.0180304,0.0121168,2.92578,5,0.1,5,0.2,-3.30403,-2.66364,0.528889,0.0002563,0.179815,0.0524759,0.00190735,1.34861,0.393569,0.0150573,2.9258,5,0.1,6,0.2,-1.7038,-3.48365,0.588127,-0.0132054,0.186855,0.00063628,-0.0990033,1.40119,0.00479817,0.0270329,2.92581,5,0.1,7,0.2,0.53176,-2.25555,0.550089,-0.0441492,0.168204,-0.00443757,-0.331074,1.26135,-0.0332892,0.00902442,2.95747,5,0.1,8,0.2,4.37401,1.66914,0.613807,-0.141859,0.0229925,-0.001131,-1.06382,0.172436,-0.00846386,0.0124288,3.37365,5,0.1,9,0.2,-3.71983,-3.12074,0.562468,-0.0028491,0.167024,0.00354052,-0.0212193,1.25277,0.0265539,0.0294832,2.29275,5,0.1,10,0.2,-0.573027,1.74154,0.600396,0.0257537,-0.0793785,-3.72529e-05,0.193119,-0.595272,-0.000298023,0.00830081,0.57193,5,0.1,11,0.2,-2.21689,5.49391,0.653229,-0.00312328,-0.164497,0.0657231,-0.023365,-1.23382,0.492901,0.0331324,2.5777,5,0.1,12,0.2,2.45799,-0.132502,0.620412,-0.181663,-0.0456382,-0.001508,-1.36256,-0.342287,-0.0113249,0.0152851,2.92579,5,0.1,13,0.2,0.414616,-1.61698,0.647075,-0.0198141,0.186244,0.00285357,-0.148624,1.39683,0.0214279,0.013398,2.92579,5,0.1,14,0.2,-3.91402,1.95657,0.538788,-0.0411272,-0.0430673,0.0482202,-0.308275,-0.322938,0.361621,0.0134198,0.898612,5,0.1,15,0.2,-3.53555,5.75146,0.540974,0.161231,-0.0953197,0.00281036,1.20914,-0.714779,0.0211,0.0145809,2.9258,5,0.1,16,0.2,5.14499,1.11049,0.503207,-0.00424385,-0.161344,-0.00261366,-0.0319481,-1.20997,-0.0196397,0.00752571,2.14182,5,0.1,17,0.2,-5.34876,-5.52486,0.670149,0.00565052,0.101793,-0.00401735,0.0426769,0.763416,-0.03016,0.0604633,3.5362,5,0.1,18,0.2,-1.61698,4.20361,0.675085,-0.0422418,0.0478387,0.000286102,-0.316799,0.358582,0.00217557,0.00808878,0.334461,5,0.1,19,0.2,-3.88752,-3.87925,0.550151,0.0978649,0.0121951,0.00470281,0.733972,0.0913143,0.0352263,0.0170361,0.800564,5,0.1,20,0.2,-5.71821,-0.966448,0.507511,0.114906,0.0487134,-0.00542402,0.861883,0.365347,-0.04071,0.0191476,1.28185,5,0.1,21,0.2,0.547171,-5.07622,0.685953,0.0191316,0.125098,0.00604093,0.143498,0.938177,0.0453293,0.00910185,1.31821,5,0.1,22,0.2,1.52708,5.48905,0.561031,-0.00255406,-0.121582,0.0744194,-0.0191331,-0.912189,0.558168,0.0440141,1.66949,5,0.1,23,0.2,2.15987,-3.75899,0.592332,-0.118834,0.128186,0.000722706,-0.891328,0.961423,0.00545382,0.0139678,2.60186,5,0.1,24,0.2,-1.14082,4.62438,0.53425,0.153363,-0.107419,0.00533313,1.15025,-0.805616,0.0399947,0.0149541,2.92579,5,0.1,25,0.2,3.18821,-0.207966,0.572969,-0.186032,-0.0218473,0.00150651,-1.39523,-0.163861,0.0112951,0.0169915,2.9258,5,0.1,26,0.2,1.69661,1.7204,0.556998,-0.00439882,-0.00663996,0.0747994,-0.0329018,-0.0498295,0.560999,0.0175253,0.464699,5,0.1,27,0.2,0.551169,1.71705,0.686978,-0.03784,-0.091216,0.00594556,-0.283808,-0.684142,0.0445545,0.015472,0.866667,5,0.1,28,0.2,-0.294635,-1.14995,0.54129,0.112684,-0.11791,0.00553727,0.845119,-0.884354,0.0415444,0.012927,2.18708,5,0.1,29,0.2,2.89765,-2.42215,0.694737,-0.158334,-0.100082,-0.00151992,-1.18744,-0.750542,-0.0114143,0.00909925,2.9258,5,0.1
0,0.3,1.02001,2.13042,0.630717,-0.22292,0.268346,-0.00465577,-1.10317,1.32795,-0.023026,0.0138459,2.92579,5,0.1,1,0.3,0.0140621,2.15705,0.519149,0.0575212,-0.344005,-0.00912305,0.284656,-1.70244,-0.0451356,0.0213855,2.92578,5,0.1,2,0.3,-3.60531,-0.76626,0.558638,-0.200259,0.0562495,-0.0193222,-0.832006,0.277504,-0.095319,0.00848017,1.17496,5,0.1,3,0.3,3.56079,-5.66474,0.602001,-0.2598,0.0470996,-0.000357442,-1.28168,0.232399,-0.00177324,0.0294507,1.65433,5,0.1,4,0.3,-2.06854,2.06518,0.540555,0.348758,-0.008706,0.00448618,1.72593,-0.043124,0.0221878,0.0121168,2.92578,5,0.1,5,0.3,-3.304,-2.63816,0.536325,0.00047721,0.334918,0.0977401,0.00236928,1.65743,0.483684,0.0150573,2.9258,5,0.1,6,0.3,-1.70567,-3.45717,0.588217,-0.0245931,0.34801,0.00118744,-0.12169,1.72214,0.00588596,0.0270329,2.92581,5,0.1,7,0.3,0.525477,-2.23156,0.549466,-0.0830041,0.317448,-0.00810623,-0.420719,1.62441,-0.0380725,0.00902442,2.95747,5,0.1,8,0.3,4.35522,1.6724,0.613647,-0.227243,0.0428142,-0.00210451,-0.652134,0.211738,-0.0103973,0.0124288,3.37365,5,0.1,9,0.3,-3.72023,-3.09708,0.562969,-0.00528693,0.310728,0.0065865,-0.0260472,1.53294,0.032492,0.0294832,2.29275,5,0.1,10,0.3,-0.56938,1.7303,0.600391,0.0479077,-0.147665,-7.07805e-05,0.236336,-0.728466,-0.000350177,0.00830081,0.57193,5,0.1,11,0.3,-2.21734,5.47062,0.662537,-0.00580549,-0.306024,0.122265,-0.02864,-1.50973,0.603162,0.0331324,2.5777,5,0.1,12,0.3,2.43225,-0.138969,0.620198,-0.338368,-0.0850043,-0.00281008,-1.67453,-0.420663,-0.013914,0.0152851,2.92579,5,0.1,13,0.3,0.411808,-1.59059,0.647479,-0.0369066,0.346892,0.00531701,-0.182647,1.71668,0.0263192,0.013398,2.92579,5,0.1,14,0.3,-3.92,1.95016,0.545618,-0.0809405,-0.0890037,0.0897032,-0.456348,-0.553258,0.442524,0.0134198,0.898612,5,0.1,15,0.3,-3.5127,5.73795,0.541372,0.300296,-0.177528,0.00523645,1.48606,-0.878513,0.0259206,0.0145809,2.9258,5,0.1,16,0.3,5.14438,1.08764,0.50286,-0.00790358,-0.300144,-0.00419533,-0.039041,-1.48068,-0.012096,0.00752571,2.14182,5,0.1,17,0.3,-5.34796,-5.51139,0.66958,0.0105456,0.162575,-0.00748252,0.0522137,0.45988,-0.0370033,0.0604633,3.5362,5,0.1,18,0.3,-1.62296,4.21038,0.675125,-0.0785826,0.0889771,0.000534579,-0.387676,0.438899,0.00264496,0.00808878,0.334461,5,0.1,19,0.3,-3.87366,-3.87752,0.550817,0.18206,0.0226747,0.00874512,0.898138,0.111803,0.0431314,0.0170361,0.800564,5,0.1,20,0.3,-5.70194,-0.959548,0.506784,0.21377,0.090623,-0.00891155,1.05461,0.447076,-0.0287928,0.0191476,1.28185,5,0.1,21,0.3,0.54988,-5.0585,0.686808,0.0355922,0.232717,0.0112399,0.175588,1.14805,0.0554584,0.00910185,1.31821,5,0.1,22,0.3,1.52671,5.47183,0.571571,-0.00474956,-0.226209,0.138447,-0.0234321,-1.11607,0.683006,0.0440141,1.66949,5,0.1,23,0.3,2.14398,-3.74084,0.592435,-0.194454,0.238471,0.00134744,-0.618353,1.17648,0.00665337,0.0139678,2.60186,5,0.1,24,0.3,-1.11909,4.60916,0.535005,0.285651,-0.200074,0.00993283,1.41361,-0.990123,0.0491552,0.0149541,2.92579,5,0.1,25,0.3,3.16185,-0.211062,0.573183,-0.346496,-0.0406926,0.00280561,-1.71472,-0.201378,0.0138842,0.0169915,2.9258,5,0.1,26,0.3,1.69599,1.71946,0.567592,-0.00817571,-0.0123549,0.139152,-0.0403151,-0.0609457,0.686482,0.0175253,0.464699,5,0.1,27,0.3,0.54581,1.70491,0.687815,-0.0703958,-0.147757,0.0109276,-0.34729,-0.447959,0.0522286,0.015472,0.866667,5,0.1,28,0.3,-0.278675,-1.16665,0.542074,0.209629,-0.219354,0.0103026,1.03416,-1.08215,0.0508316,0.012927,2.18708,5,0.1,29,0.3,2.87521,-2.43633,0.694521,-0.294902,-0.186403,-0.00283206,-1.45938,-0.922441,-0.0140183,0.00909925,2.9258,5,0.1
0,0.4,0.992298,2.16378,0.630138,-0.329208,0.396293,-0.0068754,-0.97537,1.17409,-0.020355,0.016016,2.51008,5,0.1,1,0.4,0.0212133,2.11428,0.518015,0.0849471,-0.508028,-0.0134721,0.251686,-1.50526,-0.0399053,0.0239112,2.52555,5,0.1,2,0.4,-3.62923,-0.759273,0.556238,-0.274873,0.0829563,-0.028497,-0.636578,0.244796,-0.0840724,0.0128336,0.830041,5,0.1,3,0.4,3.52852,-5.65889,0.601957,-0.383145,0.0694633,-0.000527501,-1.13082,0.204802,-0.00154972,0.0306935,1.30893,5,0.1,4,0.4,-2.02518,2.06409,0.541113,0.515044,-0.0128627,0.00662357,1.52606,-0.0380278,0.0196695,0.0129391,2.51557,5,0.1,5,0.4,-3.30394,-2.59652,0.548477,0.000703335,0.494605,0.144343,0.00214577,1.46544,0.427663,0.0169739,2.51032,5,0.1,6,0.4,-1.70873,-3.41391,0.588365,-0.0363201,0.513941,0.00175387,-0.107586,1.52254,0.0051856,0.031084,2.51515,5,0.1,7,0.4,0.515096,-2.19177,0.548471,-0.123888,0.47583,-0.0117034,-0.378191,1.46961,-0.0323653,0.0146575,2.53679,5,0.1,8,0.4,4.32985,1.67772,0.613385,-0.274003,0.0632107,-0.00310689,-0.291824,0.187159,-0.00917912,0.012797,3.42704,5,0.1,9,0.4,-3.72089,-3.05848,0.563788,-0.00779629,0.458252,0.00971407,-0.0230074,1.35243,0.02864,0.0301299,1.81404,5,0.1,10,0.4,-0.563428,1.71195,0.600382,0.0706524,-0.217772,-0.000104308,0.208527,-0.642717,-0.000298023,0.00939664,0.459753,5,0.1,11,0.4,-2.21806,5.4326,0.677726,-0.00855923,-0.451326,0.180313,-0.0253916,-1.33157,0.53215,0.0331275,2.0395,5,0.1,12,0.4,2.39018,-0.149537,0.619849,-0.499701,-0.125534,-0.00414997,-1.48058,-0.37194,-0.0123084,0.0145957,2.51097,5,0.1,13,0.4,0.407219,-1.54746,0.64814,-0.054504,0.51229,0.00785291,-0.161484,1.51783,0.0232458,0.0137326,2.51447,5,0.1,14,0.4,-3.93041,1.9384,0.556762,-0.126863,-0.146249,0.132293,-0.438213,-0.55933,0.390381,0.0130363,0.371142,5,0.1,15,0.4,-3.47537,5.71588,0.542023,0.443476,-0.262177,0.0077337,1.31392,-0.776529,0.022918,0.0130252,2.51009,5,0.1,16,0.4,5.1434,1.05035,0.502392,-0.0116587,-0.442642,-0.00505745,-0.0343323,-1.30635,-0.00530481,0.00920729,1.83963,5,0.1,17,0.4,-5.34665,-5.49329,0.66865,0.0155807,0.195289,-0.0110462,0.0457764,0.202179,-0.0326931,0.0550003,3.5794,5,0.1,18,0.4,-1.63273,4.22144,0.675192,-0.115892,0.131214,0.000788271,-0.341952,0.38743,0.00232458,0.00899797,0.264632,5,0.1,19,0.4,-3.85104,-3.8747,0.551904,0.268501,0.0334382,0.012897,0.792265,0.0985861,0.0380278,0.0154252,0.633416,5,0.1,20,0.4,-5.67538,-0.94829,0.50577,0.315273,0.133649,-0.0111505,0.930309,0.394434,-0.0159144,0.0208064,1.0147,5,0.1,21,0.4,0.554302,-5.02959,0.688205,0.0524908,0.343215,0.0165761,0.154912,1.01256,0.0489354,0.00815852,1.04299,5,0.1,22,0.4,1.52612,5.44373,0.588771,-0.00700355,-0.333619,0.204177,-0.0206828,-0.98443,0.602573,0.0419069,1.32091,5,0.1,23,0.4,2.12191,-3.71121,0.592602,-0.242239,0.351691,0.00198781,-0.337601,1.03784,0.00584126,0.0138699,2.26125,5,0.1,24,0.4,-1.08357,4.58428,0.53624,0.421849,-0.29546,0.0146687,1.24991,-0.875711,0.0434816,0.0132675,2.51007,5,0.1,25,0.4,3.11877,-0.216121,0.573532,-0.511706,-0.0600945,0.00414401,-1.5161,-0.178061,0.0122488,0.0190211,2.51425,5,0.1,26,0.4,1.69497,1.71792,0.584879,-0.012055,-0.0182211,0.205219,-0.035584,-0.053823,0.605613,0.0220239,0.367675,5,0.1,27,0.4,0.537065,1.68827,0.689163,-0.103818,-0.18121,0.0158966,-0.306368,-0.223756,0.0450313,0.0166163,0.808468,5,0.1,28,0.4,-0.252633,-1.1939,0.543354,0.309155,-0.323498,0.0151932,0.912368,-0.954688,0.0448823,0.0145967,1.73044,5,0.1,29,0.4,2.83855,-2.45951,0.694169,-0.435507,-0.275278,-0.00418276,-1.29044,-0.81563,-0.0123978,0.0108817,2.51009,5,0.1
0,0.5,0.954361,2.20944,0.629346,-0.429578,0.517113,-0.00897078,-0.980388,1.18017,-0.0204705,0.016016,2.51008,5,0.1,1,0.5,0.0310023,2.05612,0.516462,0.110846,-0.652026,-0.0175792,0.25298,-1.31966,-0.0401177,0.0239112,2.52555,5,0.1,2,0.5,-3.65905,-0.749731,0.553117,-0.313709,0.107793,-0.0325821,-0.164255,0.239756,-0.00332296,0.0128336,0.830041,5,0.1,3,0.5,3.48445,-5.6509,0.601896,-0.497876,0.0902444,-0.000684708,-1.10753,0.200629,-0.00151247,0.0306935,1.30893,5,0.1,4,0.5,-1.96607,2.06261,0.541876,0.665257,-0.0167757,0.00864714,1.41018,-0.0382364,0.0197664,0.0129391,2.51557,5,0.1,5,0.5,-3.30386,-2.53958,0.56511,0.000922754,0.643995,0.188351,0.00213087,1.44744,0.429865,0.0169739,2.51032,5,0.1,6,0.5,-1.71292,-3.35491,0.588567,-0.047392,0.664096,0.00228742,-0.108153,1.41215,0.00521168,0.031084,2.51515,5,0.1,7,0.5,0.500755,-2.1366,0.547136,-0.163022,0.628031,-0.0149822,-0.384146,1.49526,-0.031583,0.0146575,2.53679,5,0.1,8,0.5,4.30188,1.685,0.613027,-0.278036,0.0823854,-0.00404762,0.159532,0.186615,-0.00916049,0.012797,3.42704,5,0.1,9,0.5,-3.72179,-3.00577,0.564905,-0.0101328,0.595467,0.0126204,-0.0225604,1.32458,0.0280552,0.0301299,1.81404,5,0.1,10,0.5,-0.555301,1.68716,0.60037,0.0918094,-0.275764,-0.000134483,0.204235,-0.501193,-0.000290573,0.00939664,0.459753,5,0.1,11,0.5,-2.21904,5.38069,0.698466,-0.0111338,-0.586433,0.234305,-0.0248402,-1.3043,0.521194,0.0331275,2.0395,5,0.1,12,0.5,2.3327,-0.164003,0.61937,-0.649298,-0.163808,-0.00541611,-1.43817,-0.373852,-0.0123642,0.0145957,2.51097,5,0.1,13,0.5,0.400939,-1.48864,0.649045,-0.071121,0.662388,0.010245,-0.162311,1.41519,0.0233687,0.0137326,2.51447,5,0.1,14,0.5,-3.94522,1.92114,0.571978,-0.168278,-0.196903,0.171902,-0.375971,-0.441283,0.382364,0.0130363,0.371142,5,0.1,15,0.5,-3.42427,5.68567,0.542914,0.578685,-0.34209,0.0100918,1.32069,-0.780642,0.0230297,0.0130252,2.51009,5,0.1,16,0.5,5.14206,1.00061,0.501873,-0.0151411,-0.541922,-0.00520479,-0.033617,-0.689354,0.00189245,0.00920729,1.83963,5,0.1,17,0.5,-5.34486,-5.47343,0.667377,0.0202738,0.195999,-0.0143945,0.045687,-0.142634,-0.0325739,0.0550003,3.5794,5,0.1,18,0.5,-1.64606,4.23653,0.675282,-0.150588,0.17052,0.0010239,-0.334941,0.379443,0.00227243,0.00899797,0.264632,5,0.1,19,0.5,-3.82016,-3.87086,0.553387,0.348887,0.0434447,0.0167564,0.775993,0.0966042,0.0372715,0.0154252,0.633416,5,0.1,20,0.5,-5.63912,-0.932917,0.504606,0.409663,0.173668,-0.0118525,0.911206,0.386316,0.000882894,0.0208064,1.0147,5,0.1,21,0.5,0.56034,-4.99011,0.690112,0.0682081,0.445956,0.0215407,0.15172,0.991821,0.0479184,0.00815852,1.04299,5,0.1,22,0.5,1.52532,5.40536,0.612256,-0.009102,-0.4335,0.265314,-0.0202656,-0.964165,0.590164,0.0419069,1.32091,5,0.1,23,0.5,2.09673,-3.67076,0.592831,-0.254902,0.456991,0.00258079,0.0485331,1.01651,0.00572577,0.0138699,2.26125,5,0.1,24,0.5,-1.03496,4.55024,0.537931,0.550467,-0.385569,0.0191427,1.25632,-0.880122,0.0436939,0.0132675,2.51007,5,0.1,25,0.5,3.06001,-0.223046,0.574009,-0.661781,-0.0784173,0.00540512,-1.41627,-0.178972,0.012327,0.0190211,2.51425,5,0.1,26,0.5,1.69358,1.71583,0.608484,-0.015666,-0.0236807,0.266665,-0.0348687,-0.0526831,0.593156,0.0220239,0.367675,5,0.1,27,0.5,0.525123,1.66958,0.690926,-0.134902,-0.187869,0.0188892,-0.300072,0.0626594,0.0160523,0.0166163,0.808468,5,0.1,28,0.5,-0.217073,-1.23111,0.545102,0.401724,-0.420361,0.0197458,0.893598,-0.93504,0.0439398,0.0145967,1.73044,5,0.1,29,0.5,2.78836,-2.49123,0.693687,-0.568297,-0.35921,-0.0054582,-1.29704,-0.819832,-0.0124611,0.0108817,2.51009,5,0.1
0,0.6,0.906842,2.26665,0.628353,-0.516473,0.621712,-0.0107855,-0.720978,0.867963,-0.01508,0.012266,2.21916,5,0.1,1,0.6,0.0432641,1.985,0.514518,0.133269,-0.762722,-0.0211343,0.186045,-0.856996,-0.0295341,0.0243554,2.59944,5,0.1,2,0.6,-3.69063,-0.737843,0.549936,-0.312251,0.128834,-0.0302061,0.172257,0.172466,0.046134,0.00885731,0.765547,5,0.1,3,0.6,3.42954,-5.64095,0.601821,-0.595063,0.107849,-0.000818074,-0.796795,0.144243,-0.00107288,0.028731,0.974464,5,0.1,4,0.6,-1.89313,2.06076,0.542833,0.785878,-0.0201643,0.010398,0.958264,-0.0280142,0.0145435,0.0135735,2.33462,5,0.1,5,0.6,-3.30375,-2.46847,0.585946,0.00111461,0.771385,0.226451,0.00154972,1.04821,0.316113,0.0151904,2.29787,5,0.1,6,0.6,-1.71816,-3.28208,0.58882,-0.0569791,0.785083,0.00274926,-0.0795126,0.963211,0.0038147,0.029862,2.33253,5,0.1,7,0.6,0.48266,-2.06681,0.545492,-0.197241,0.761354,-0.0177413,-0.285819,1.1152,-0.0225008,0.0113981,2.33948,5,0.1,8,0.6,4.27527,1.69411,0.61258,-0.250947,0.0988752,-0.00485778,0.34523,0.136375,-0.00670552,0.0128849,3.47062,5,0.1,9,0.6,-3.72291,-2.9401,0.566297,-0.0121117,0.711703,0.015083,-0.0162125,0.95284,0.0201762,0.0330486,2.05715,5,0.1,10,0.6,-0.545176,1.65741,0.600355,0.109732,-0.31541,-0.000159442,0.146925,-0.281811,-0.000238419,0.00956926,0.421935,5,0.1,11,0.6,-2.22027,5.31601,0.724306,-0.0133097,-0.700891,0.280043,-0.0180006,-0.938177,0.374913,0.0363493,1.51909,5,0.1,12,0.6,2.26113,-0.182124,0.618771,-0.774997,-0.196943,-0.00651181,-1.0258,-0.274934,-0.00911951,0.0167895,2.30422,5,0.1,13,0.6,0.393071,-1.41595,0.650178,-0.0855073,0.783923,0.0123173,-0.119358,0.970364,0.0171661,0.0161801,2.32979,5,0.1,14,0.6,-3.96373,1.89952,0.590936,-0.199699,-0.232479,0.205457,-0.242949,-0.262439,0.275046,0.0157464,0.264226,5,0.1,15,0.6,-3.36025,5.64783,0.544031,0.695741,-0.411284,0.0121325,0.971317,-0.574112,0.0169575,0.0147604,2.22455,5,0.1,16,0.6,5.14039,0.943918,0.50137,-0.018096,-0.582765,-0.00476688,-0.0240803,-0.139952,0.00652671,0.00976486,1.68675,5,0.1,17,0.6,-5.34262,-5.45482,0.665787,0.0243068,0.174439,-0.0172719,0.0333786,-0.257492,-0.0237823,0.0627218,3.58211,5,0.1,18,0.6,-1.66266,4.25534,0.675395,-0.179982,0.203824,0.0012219,-0.240982,0.272751,0.00166893,0.00966435,0.197011,5,0.1,19,0.6,-3.78168,-3.86607,0.555235,0.416982,0.0519216,0.0200272,0.558376,0.0696182,0.0267923,0.0173715,0.471571,5,0.1,20,0.6,-5.59394,-0.913765,0.503446,0.489628,0.207569,-0.0111595,0.655413,0.277907,0.0121295,0.0208705,0.988578,5,0.1,21,0.6,0.567862,-4.94093,0.692487,0.0815213,0.532997,0.0257447,0.109166,0.713587,0.0344813,0.0110172,0.776499,5,0.1,22,0.6,1.52431,5.35755,0.641516,-0.0108808,-0.518107,0.317104,-0.0145435,-0.69356,0.424504,0.0457795,0.983382,5,0.1,23,0.6,2.07188,-3.62036,0.593115,-0.238782,0.546193,0.00308305,0.247359,0.731349,0.00411272,0.0148714,1.91732,5,0.1,24,0.6,-0.974069,4.50758,0.540048,0.661819,-0.463569,0.0230163,0.923872,-0.647306,0.0320971,0.0146303,2.21913,5,0.1,25,0.6,2.98737,-0.231721,0.574607,-0.783509,-0.09428,0.0064984,-0.972986,-0.131615,0.0090301,0.0181046,2.32746,5,0.1,26,0.6,1.69186,1.71322,0.637893,-0.0187248,-0.0283033,0.318718,-0.0251532,-0.0379086,0.42671,0.0190091,0.273726,5,0.1,27,0.6,0.510246,1.65139,0.692856,-0.161235,-0.173527,0.0193447,-0.215858,0.20355,-0.00584126,0.0173857,0.744693,5,0.1,28,0.6,-0.172769,-1.27747,0.54728,0.480142,-0.502414,0.0236019,0.642829,-0.672698,0.0315905,0.0129819,1.38886,5,0.1,29,0.6,2.7255,-2.53097,0.693083,-0.68326,-0.431877,-0.00656098,-0.953794,-0.602841,-0.00917912,0.0109551,2.01958,5,0.1
0,0.7,0.851541,2.33322,0.627198,-0.588846,0.708839,-0.0122991,-0.680842,0.819623,-0.0142343,0.012266,2.21916,5,0.1,1,0.7,0.0575334,1.90615,0.512283,0.151934,-0.798828,-0.0232967,0.175506,0.0700504,-0.0136271,0.0243554,2.59944,5,0.1,2,0.7,-3.72043,-0.724112,0.54721,-0.278955,0.145391,-0.0238064,0.45675,0.149224,0.0776835,0.00885731,0.765547,5,0.1,3,0.7,3.36612,-5.62946,0.601734,-0.671557,0.1217,-0.000921264,-0.689372,0.124842,-0.000931323,0.028731,0.974464,5,0.1,4,0.7,-1.81081,2.0586,0.543946,0.8505,-0.0229776,0.011857,0.361539,-0.0264645,0.013724,0.0135735,2.33462,5,0.1,5,0.7,-3.30364,-2.38713,0.610193,0.00126958,0.845472,0.258182,0.00146031,0.44775,0.298485,0.0151904,2.29787,5,0.1,6,0.7,-1.72426,-3.19981,0.589114,-0.0649599,0.850225,0.00313232,-0.0750646,0.366256,0.00360981,0.029862,2.33253,5,0.1,7,0.7,0.461929,-1.98613,0.543595,-0.213402,0.842058,-0.0202502,-0.0474695,0.505902,-0.0256263,0.0113981,2.33948,5,0.1,8,0.7,4.25231,1.70467,0.612061,-0.206429,0.112275,-0.00551669,0.465393,0.12359,-0.00607595,0.0128849,3.47062,5,0.1,9,0.7,-3.7242,-2.86445,0.567904,-0.0136696,0.797313,0.0170204,-0.0140369,0.720203,0.0174604,0.0330486,2.05715,5,0.1,10,0.7,-0.533481,1.62515,0.600338,0.123838,-0.323628,-0.000181887,0.127122,0.0954866,-0.00019744,0.00956926,0.421935,5,0.1,11,0.7,-2.22169,5.24141,0.754153,-0.0150338,-0.788308,0.316037,-0.015527,-0.764281,0.324376,0.0363493,1.51909,5,0.1,12,0.7,2.17955,-0.203298,0.618075,-0.846716,-0.227014,-0.00739153,-0.426263,-0.303568,-0.00797212,0.0167895,2.30422,5,0.1,13,0.7,0.383916,-1.33376,0.651449,-0.0974879,0.84982,0.0126841,-0.112697,0.373177,-0.00790134,0.0161801,2.32979,5,0.1,14,0.7,-3.98484,1.87508,0.612833,-0.221676,-0.254974,0.231864,-0.18546,-0.177518,0.237983,0.0157464,0.264226,5,0.1,15,0.7,-3.28601,5.60379,0.54533,0.785942,-0.468917,0.0138341,0.786543,-0.542223,0.0160038,0.0147604,2.22455,5,0.1,16,0.7,5.13846,0.886141,0.500931,-0.0204094,-0.562342,-0.00397637,-0.0208318,0.487812,0.0089556,0.00976486,1.68675,5,0.1,17,0.7,-5.34002,-5.43898,0.66394,0.0275992,0.141118,-0.0196158,0.0304282,-0.33468,-0.0216775,0.0627218,3.58211,5,0.1,18,0.7,-1.68185,4.27706,0.675526,-0.203118,0.230012,0.00138134,-0.208512,0.236005,0.00143051,0.00966435,0.197011,5,0.1,19,0.7,-3.73724,-3.86053,0.557369,0.470588,0.0586048,0.0226002,0.483096,0.0602305,0.0231937,0.0173715,0.471571,5,0.1,20,0.7,-5.54178,-0.891642,0.502404,0.551973,0.234248,-0.00957288,0.556797,0.240445,0.0188351,0.0208705,0.988578,5,0.1,21,0.7,0.57655,-4.88412,0.695231,0.0920011,0.601505,0.0290546,0.0944436,0.617445,0.0298209,0.0110172,0.776499,5,0.1,22,0.7,1.52315,5.30233,0.675312,-0.0122771,-0.584693,0.357859,-0.0125915,-0.6001,0.367284,0.0457795,0.983382,5,0.1,23,0.7,2.0496,-3.56215,0.593444,-0.204599,0.616404,0.00347802,0.383243,0.632748,0.00355765,0.0148714,1.91732,5,0.1,24,0.7,-0.903206,4.45795,0.542512,0.754559,-0.528541,0.0262389,0.872433,-0.611186,0.0303164,0.0146303,2.21913,5,0.1,25,0.7,2.90522,-0.241897,0.575302,-0.849675,-0.109809,0.00738148,-0.375628,-0.165478,0.00811368,0.0181046,2.32746,5,0.1,26,0.7,1.68986,1.7102,0.671861,-0.0211388,-0.0319419,0.359684,-0.0217408,-0.03279,0.369195,0.0190091,0.273726,5,0.1,27,0.7,0.493062,1.63531,0.694729,-0.181958,-0.146605,0.017828,-0.186764,0.294775,-0.0230409,0.0173857,0.744693,5,0.1,28,0.7,-0.122502,-1.33074,0.549815,0.516146,-0.559056,0.0271896,0.0991127,-0.440873,0.0371933,0.0129819,1.38886,5,0.1,29,0.7,2.6525,-2.57717,0.692382,-0.774509,-0.491159,-0.00746315,-0.820458,-0.547379,-0.00832602,0.0109551,2.01958,5,0.1
0,0.8,0.789625,2.40775,0.625905,-0.644915,0.776339,-0.0134736,-0.408947,0.492334,-0.00852346,0.0117437,1.89348,5,0.1,1,0.8,0.0735079,1.82771,0.509912,0.166381,-0.76032,-0.0238612,0.105277,0.648797,0.00229478,0.0209181,2.78993,5,0.1,2,0.8,-3.74581,-0.708929,0.545241,-0.22729,0.15709,-0.0154153,0.549555,0.0783801,0.0868142,0.0107192,0.720232,5,0.1,3,0.8,3.29598,-5.61675,0.601637,-0.725603,0.131476,-0.000993907,-0.361919,0.0658035,-0.000506639,0.0283683,0.688021,5,0.1,4,0.8,-1.72468,2.05618,0.545193,0.866023,-0.0251591,0.0129864,5.96046e-05,-0.0158548,0.00825524,0.01225,2.2713,5,0.1,5,0.8,-3.3035,-2.30118,0.63734,0.00139475,0.866026,0.282761,0.000715256,0,0.179231,0.0142438,2.21166,5,0.1,6,0.8,-1.73109,-3.11369,0.589444,-0.0711411,0.866026,0.00342876,-0.0450611,0,0.00220537,0.0297072,2.26801,5,0.1,7,0.8,0.440675,-1.9003,0.541451,-0.208674,0.866002,-0.0225157,0.132665,0.000417233,-0.0182092,0.00966588,1.91194,5,0.1,8,0.8,4.2337,1.71645,0.611482,-0.169671,0.122237,-0.00600815,0.231504,0.0701547,-0.00342727,0.0157337,3.3581,5,0.1,9,0.8,-3.72562,-2.78175,0.569681,-0.01477,0.850105,0.0183895,-0.00739098,0.318408,0.00917912,0.0316907,1.59239,5,0.1,10,0.8,-0.520548,1.59373,0.600319,0.133803,-0.300419,-0.000198185,0.0667572,0.349522,-8.9407e-05,0.00921948,0.233791,5,0.1,11,0.8,-2.22326,5.15935,0.787157,-0.0162482,-0.846231,0.341469,-0.00822544,-0.365257,0.17035,0.0327518,1.09054,5,0.1,12,0.8,2.09355,-0.22741,0.617301,-0.866026,-0.253734,-0.00802428,0,-0.214533,-0.00429153,0.0139413,2.21825,5,0.1,13,0.8,0.373665,-1.24766,0.65265,-0.106768,0.866026,0.011088,-0.0676811,0,-0.0224113,0.0123282,2.26345,5,0.1,14,0.8,-4.00777,1.8489,0.637047,-0.23495,-0.266379,0.250523,-0.0731945,-0.0444055,0.124961,0.0112766,0.179782,5,0.1,15,0.8,-3.20409,5.55448,0.546784,0.845742,-0.513577,0.0151515,0.382662,-0.325441,0.00962615,0.0136632,2.10092,5,0.1,16,0.8,5.13633,0.832975,0.50058,-0.0220418,-0.495858,-0.00303686,-0.0109673,0.795901,0.00962615,0.00850083,1.56225,5,0.1,17,0.8,-5.33713,-5.42622,0.661884,0.0300646,0.118327,-0.0213683,0.0174046,-0.0874996,-0.0123978,0.0529493,3.42159,5,0.1,18,0.8,-1.70306,4.30108,0.67567,-0.219464,0.248516,0.0014931,-0.109553,0.123978,0.00077486,0.00856535,0.139105,5,0.1,19,0.8,-3.6881,-3.85441,0.559729,0.508463,0.0633299,0.0244185,0.253677,0.0315905,0.012219,0.0150217,0.332953,5,0.1,20,0.8,-5.48419,-0.867179,0.501546,0.595176,0.253099,-0.00753105,0.284195,0.126272,0.0213683,0.0207652,0.881996,5,0.1,21,0.8,0.586158,-4.82131,0.698265,0.0994056,0.649917,0.0313923,0.0495911,0.324249,0.015676,0.00804788,0.548261,5,0.1,22,0.8,1.52187,5.24127,0.712684,-0.013265,-0.631738,0.386655,-0.00661612,-0.314951,0.192851,0.0424359,0.694324,5,0.1,23,0.8,2.03096,-3.49778,0.593807,-0.170165,0.66601,0.00375658,0.278115,0.332355,0.00187755,0.0135438,1.59475,5,0.1,24,0.8,-0.823866,4.40237,0.545271,0.826405,-0.57888,0.0287354,0.524014,-0.366926,0.0182092,0.0115205,1.8795,5,0.1,25,0.8,2.81912,-0.25367,0.576075,-0.866026,-0.125051,0.00803322,0,-0.129551,0.00452995,0.0161392,2.25757,5,0.1,26,0.8,1.68765,1.70686,0.709424,-0.0228435,-0.0345111,0.388628,-0.0114441,-0.0172257,0.193894,0.0172309,0.193266,5,0.1,27,0.8,0.474059,1.62203,0.696378,-0.196601,-0.120625,0.015001,-0.0980645,0.204504,-0.0322759,0.0153376,0.674459,5,0.1,28,0.8,-0.0711373,-1.38834,0.552709,0.504206,-0.587535,0.030531,-0.317355,-0.117481,0.0275075,0.0110276,1.00227,5,0.1,29,0.8,2.5715,-2.62869,0.691599,-0.838983,-0.535381,-0.00813454,-0.435948,-0.312567,-0.00476837,0.00982062,1.55057,5,0.1
0,0.9,0.723042,2.4879,0.624514,-0.686152,0.825957,-0.0143336,-0.374623,0.450537,-0.00781566,0.0117437,1.89348,5,0.1,1,0.9,0.0906176,1.75596,0.507574,0.175101,-0.667341,-0.0225632,0.0627284,1.10028,0.0222251,0.0209181,2.78993,5,0.1,2,0.9,-3.76568,-0.692846,0.54415,-0.170036,0.164192,-0.00631502,0.555202,0.0561401,0.0921153,0.0107192,0.720232,5,0.1,3,0.9,3.2217,-5.60329,0.601536,-0.758398,0.137439,-0.00103964,-0.259221,0.0471175,-0.000361353,0.0283683,0.688021,5,0.1,4,0.9,-1.63808,2.05358,0.546535,0.866026,-0.0267982,0.0138382,7.45058e-06,-0.0152588,0.00790879,0.01225,2.2713,5,0.1,5,0.9,-3.30336,-2.21457,0.666548,0.00147298,0.866026,0.301276,0.000745058,0,0.17203,0.0142438,2.21166,5,0.1,6,0.9,-1.73844,-3.02709,0.589798,-0.0757901,0.866026,0.00365563,-0.0431463,0,0.00210106,0.0297072,2.26801,5,0.1,7,0.9,0.420194,-1.8137,0.539114,-0.203162,0.866023,-0.0241214,-0.000657514,7.45058e-05,-0.0128523,0.00966588,1.91194,5,0.1,8,0.9,4.21756,1.72902,0.610865,-0.159276,0.128961,-0.00633718,-0.125021,0.0575483,-0.00282004,0.0157337,3.3581,5,0.1,9,0.9,-3.72714,-2.69576,0.571564,-0.0154406,0.865031,0.0192215,-0.00530481,0.039801,0.00658259,0.0316907,1.59239,5,0.1,10,0.9,-0.50685,1.56575,0.600299,0.139853,-0.256727,-0.000206288,0.047816,0.506006,-6.33299e-05,0.00921948,0.233791,5,0.1,11,0.9,-2.22492,5.07357,0.822117,-0.0169899,-0.863987,0.356905,-0.00585616,-0.0404716,0.122026,0.0327518,1.09054,5,0.1,12,0.9,2.00695,-0.253926,0.616477,-0.866026,-0.276737,-0.00845548,0,-0.224446,-0.00385195,0.0139413,2.21825,5,0.1,13,0.9,0.362641,-1.16106,0.65363,-0.113624,0.866026,0.00837566,-0.0625439,0,-0.0305362,0.0123282,2.26345,5,0.1,14,0.9,-4.03159,1.8221,0.662696,-0.240779,-0.2688,0.261847,-0.0344515,0.00417978,0.0895225,0.0112766,0.179782,5,0.1,15,0.9,-3.11831,5.50143,0.54835,0.86447,-0.547291,0.0161476,0.0564605,-0.314027,0.00927597,0.0136632,2.10092,5,0.1,16,0.9,5.13408,0.787822,0.500324,-0.0230365,-0.404621,-0.00210144,-0.00783801,0.954762,0.00889599,0.00850083,1.56225,5,0.1,17,0.9,-5.33413,-5.4145,0.659683,0.0289135,0.122105,-0.0226385,-0.0357926,0.261486,-0.0116341,0.0529493,3.42159,5,0.1,18,0.9,-1.72553,4.32652,0.675823,-0.229391,0.25975,0.00156257,-0.0784695,0.0888109,0.000543892,0.00856535,0.139105,5,0.1,19,0.9,-3.63604,-3.84793,0.56223,0.53145,0.0661936,0.0255262,0.181705,0.0226349,0.00875816,0.0150217,0.332953,5,0.1,20,0.9,-5.42432,-0.841267,0.5009,0.592521,0.264541,-0.00540614,-0.302494,0.0904463,0.0206679,0.0207652,0.881996,5,0.1,21,0.9,0.596335,-4.75477,0.701479,0.103899,0.6793,0.0328124,0.0355169,0.232249,0.0112206,0.00804788,0.548261,5,0.1,22,0.9,1.52051,5.17659,0.752269,-0.0138646,-0.660279,0.404131,-0.00473112,-0.225633,0.138141,0.0424359,0.694324,5,0.1,23,0.9,2.01515,-3.42959,0.594192,-0.149432,0.696125,0.00392674,0.0763834,0.238046,0.00134483,0.0135438,1.59475,5,0.1,24,0.9,-0.739249,4.34262,0.548238,0.859586,-0.615577,0.0305569,0.145137,-0.330746,0.0164211,0.0115205,1.8795,5,0.1,25,0.9,2.73251,-0.266873,0.576902,-0.866026,-0.139184,0.00849403,0,-0.141038,0.00417978,0.0161392,2.25757,5,0.1,26,0.9,1.68531,1.70333,0.749211,-0.0238799,-0.0360712,0.406198,-0.00819564,-0.0123233,0.138883,0.0172309,0.193266,5,0.1,27,0.9,0.454076,1.61083,0.69771,-0.2014,-0.105993,0.0115875,0.00243075,0.0436008,-0.035055,0.0153376,0.674459,5,0.1,28,0.9,-0.0220907,-1.44787,0.555893,0.478292,-0.603896,0.0330473,-0.222847,-0.170305,0.0210963,0.0110276,1.00227,5,0.1,29,0.9,2.48615,-2.68302,0.69082,-0.861482,-0.544069,-0.00694543,-0.0398904,0.121325,0.0253469,0.00982062,1.55057,5,0.1
0,1,0.652887,2.57235,0.623049,-0.712898,0.858104,-0.0148922,-0.132054,0.158429,-0.00277162,0.010909,1.34508,5,0.1,1,1,0.108329,1.69477,0.505452,0.177886,-0.55759,-0.0196815,-0.0110382,1.03199,0.0341237,0.00594081,0.690569,5,0.1,2,1,-3.78015,-0.676233,0.543967,-0.122249,0.167067,0.00247359,0.380754,-0.00357628,0.0813603,0.00811847,0.920591,5,0.1,3,1,3.14496,-5.58938,0.60143,-0.771677,0.139856,-0.00105798,0.0166893,-0.00309944,0,0.0252965,0.467879,5,0.1,4,1,-1.55148,2.05084,0.547952,0.866026,-0.0279188,0.0144199,-5.96046e-05,-0.00607967,0.00315905,0.0119467,2.27124,5,0.1,5,1,-3.30321,-2.12797,0.697396,0.00152588,0.866026,0.313951,0.000357628,0,0.0683069,0.0121548,2.20845,5,0.1,6,1,-1.7462,-2.94049,0.590172,-0.0789642,0.866026,0.00381023,-0.0170469,0,0.000834465,0.0251931,2.34273,5,0.1,7,1,0.399801,-1.7271,0.536654,-0.205,0.866026,-0.0249118,-0.0197738,-5.96046e-05,-0.00226498,0.00956955,1.48114,5,0.1,8,1,4.2,1.74213,0.61022,-0.201631,0.132614,-0.00651479,-0.689983,0.0109673,-0.000566244,0.0143506,3.00446,5,0.1,9,1,-3.7287,-2.60918,0.573509,-0.0157118,0.866026,0.0195578,0.000238419,0,-0.00038743,0.0433348,2.32314,5,0.1,10,1,-0.492699,1.54274,0.600278,0.142302,-0.202522,-0.000208616,-0.00305474,0.563323,0,0.0110189,0.223557,5,0.1,11,1,-2.22664,4.98726,0.858228,-0.0172913,-0.859344,0.363155,0.000357628,0.133753,-0.00780821,0.0476477,0.764675,5,0.1,12,1,1.92035,-0.282597,0.615616,-0.866026,-0.295039,-0.0087142,0,-0.126794,-0.000953674,0.0179332,2.20801,5,0.1,13,1,0.351021,-1.07445,0.65431,-0.118116,0.866026,0.00521243,-0.0225604,-5.96046e-05,-0.0317395,0.0167505,2.26252,5,0.1,14,1,-4.05572,1.79538,0.689189,-0.240362,-0.264215,0.266433,0.048399,0.092566,-0.00575185,0.0212988,0.355899,5,0.1,15,1,-3.03174,5.44538,0.550003,0.866026,-0.570512,0.0168338,0,-0.126123,0.00369549,0.024538,2.06391,5,0.1,16,1,5.13175,0.751932,0.500156,-0.0234365,-0.316276,-0.00128895,0.000476837,0.772506,0.00730157,0.0145171,1.44186,5,0.1,17,1,-5.33148,-5.4,0.657371,0.0237226,0.177145,-0.0234634,-0.0638962,0.806093,-0.00396371,0.0683441,3.03362,5,0.1,18,1,-1.74874,4.3528,0.675981,-0.233412,0.264299,0.00158995,0.00500679,-0.00548363,-2.98023e-05,0.0102259,0.160186,5,0.1,19,1,-3.58227,-3.84123,0.564812,0.540757,0.0673532,0.0259757,-0.0115633,-0.00143051,-0.000536442,0.0174818,0.549289,5,0.1,20,1,-5.36731,-0.814501,0.500459,0.541174,0.269175,-0.00347495,-0.694036,-0.00581145,0.0176728,0.0236831,0.571885,5,0.1,21,1,0.606848,-4.68604,0.704799,0.105718,0.691211,0.0333875,-0.00226498,-0.0152588,-0.000745058,0.0112813,0.377027,5,0.1,22,1,1.51911,5.10979,0.793159,-0.0141084,-0.67184,0.411206,0.000298023,0.014782,-0.00891089,0.0487799,0.472175,5,0.1,23,1,2,-3.35916,0.594589,-0.159249,0.708318,0.003995,-0.256062,-0.0151396,-5.96046e-05,0.0151898,1.26859,5,0.1,24,1,-0.653127,4.27971,0.55136,0.85762,-0.638914,0.0317156,-0.168115,-0.111341,0.00551343,0.0144335,1.53718,5,0.1,25,1,2.64591,-0.281434,0.577769,-0.866026,-0.151196,0.00878572,0,-0.0906736,0.0012815,0.0217554,2.25372,5,0.1,26,1,1.6829,1.69968,0.790311,-0.0243008,-0.0367016,0.413314,0.000536442,0.000834465,-0.0089407,0.0323302,0.131427,5,0.1,27,1,0.434115,1.6,0.698695,-0.196165,-0.115034,0.00815243,0.101402,-0.211179,-0.0329614,0.0174302,0.841578,5,0.1,28,1,0.0246322,-1.50893,0.559281,0.455828,-0.61489,0.0344664,-0.242591,-0.0220537,0.00613928,0.0154727,0.750283,5,0.1,29,1,2.40039,-2.73623,0.69028,-0.847542,-0.514531,-0.00364035,0.338674,0.452876,0.0382364,0.0106577,1.38417,5,0.1
0,1.1,0.580931,2.65863,0.621545,-0.725428,0.864913,-0.0151551,-0.0856742,-0.00490248,-0.00179932,0.010909,1.34508,5,0.1,1,1.1,0.124964,1.64462,0.503666,0.145433,-0.441882,-0.0159471,-0.575077,1.24439,0.0395291,0.00594081,0.690569,5,0.1,2,1.1,-3.79072,-0.659551,0.54446,-0.0933398,0.166337,0.00597257,0.139877,-0.0171326,-0.00380725,0.00811847,0.920591,5,0.1,3,1.1,3.06791,-5.57542,0.601325,-0.768293,0.139236,-0.0010551,0.0792444,-0.0144243,0.000100583,0.0252965,0.467879,5,0.1,4,1.1,-1.46487,2.04801,0.549412,0.866025,-0.0286575,0.0148024,1.49012e-05,-0.00701845,0.00363588,0.0119467,2.27124,5,0.1,5,1.1,-3.30305,-2.04137,0.729163,0.00156425,0.866026,0.321257,0.000342727,0,0.0612997,0.0121548,2.20845,5,0.1,6,1.1,-1.75419,-2.85419,0.590558,-0.0810197,0.856773,0.00391016,-0.0193939,-0.193119,0.000942498,0.0251931,2.34273,5,0.1,7,1.1,0.379074,-1.6405,0.534154,-0.210405,0.865817,-0.025021,-0.0714194,-0.00829995,0.000949949,0.00956955,1.48114,5,0.1,8,1.1,4.17511,1.75545,0.609566,-0.306161,0.133636,-0.00656722,-1.29095,0.00367314,-0.00019744,0.0143506,3.00446,5,0.1,9,1.1,-3.73004,-2.52258,0.575997,-0.00928491,0.866026,0.0346703,0.114739,0,0.268154,0.0433348,2.32314,5,0.1,10,1.1,-0.47849,1.52529,0.600257,0.141679,-0.146772,-0.000207871,-0.0145976,0.541106,2.23517e-05,0.0110189,0.223557,5,0.1,11,1.1,-2.22837,4.90187,0.894489,-0.0172153,-0.848711,0.361566,0.00178814,0.116974,-0.0372641,0.0476477,0.764675,5,0.1,12,1.1,1.83375,-0.312804,0.614738,-0.866026,-0.3093,-0.0088444,0,-0.138378,-0.00116974,0.0179332,2.20801,5,0.1,13,1.1,0.339073,-0.98785,0.65467,-0.120899,0.866025,0.00199042,-0.0262111,1.11759e-05,-0.0317916,0.0167505,2.26252,5,0.1,14,1.1,-4.07955,1.76912,0.715793,-0.236548,-0.263277,0.265266,0.038743,-0.0471324,-0.0273436,0.0212988,0.355899,5,0.1,15,1.1,-2.94514,5.38757,0.551709,0.865933,-0.586037,0.0172895,-0.00369549,-0.149786,0.00439212,0.024538,2.06391,5,0.1,16,1.1,5.12941,0.723809,0.50006,-0.0233352,-0.2518,-0.000665989,0.00238419,0.444353,0.00514463,0.0145171,1.44186,5,0.1,17,1.1,-5.32946,-5.37702,0.655002,0.0163369,0.292106,-0.023903,-0.0805557,1.3833,-0.00361353,0.0683441,3.03362,5,0.1,18,1.1,-1.77221,4.37938,0.676141,-0.237037,0.268419,0.00161426,-0.0584945,0.06634,0.000391155,0.0102259,0.160186,5,0.1,19,1.1,-3.52796,-3.8345,0.567406,0.547286,0.0670604,0.0258642,0.102594,-0.00688434,-0.00264123,0.0174818,0.549289,5,0.1,20,1.1,-5.31715,-0.787624,0.500192,0.457806,0.267994,-0.00192598,-0.941664,-0.0276342,0.013195,0.0236831,0.571885,5,0.1,21,1.1,0.617404,-4.61722,0.708133,0.105256,0.682494,0.033239,-0.0108406,-0.171602,-0.00344589,0.0112813,0.377027,5,0.1,22,1.1,1.5177,5.04271,0.834218,-0.0140477,-0.668873,0.409401,0.00144541,0.0691414,-0.0422336,0.0487799,0.472175,5,0.1,23,1.1,1.98207,-3.28843,0.594988,-0.205136,0.705225,0.00397973,-0.601642,-0.0726283,-0.000394881,0.0151898,1.26859,5,0.1,24,1.1,-0.569335,4.21544,0.554559,0.808247,-0.644303,0.032232,-0.767389,0.0211895,0.00337511,0.0144335,1.53718,5,0.1,25,1.1,2.55931,-0.297046,0.578655,-0.866026,-0.161153,0.00895197,0,-0.0971761,0.001546,0.0217554,2.25372,5,0.1,26,1.1,1.68047,1.69602,0.83158,-0.0241928,-0.0365365,0.4115,0.0025034,0.0037998,-0.0424385,0.0323302,0.131427,5,0.1,27,1.1,0.415293,1.58732,0.699354,-0.17773,-0.139358,0.00511268,0.253886,-0.260286,-0.027407,0.0174302,0.841578,5,0.1,28,1.1,0.0694217,-1.57054,0.562746,0.443201,-0.6167,0.0346795,-0.047231,0.0116453,-0.00264496,0.0154727,0.750283,5,0.1,29,1.1,2.31824,-2.78493,0.690239,-0.787004,-0.455144,0.00392646,0.837684,0.710681,0.103705,0.0106577,1.38417,5,0.1
0,1.2,0.508255,2.74484,0.620027,-0.724539,0.856137,-0.0151381,0.125513,-0.19753,0.0026226,0.0173655,0.930471,5,0.1,1,1.2,0.136129,1.60675,0.502271,0.0741236,-0.31544,-0.0119582,-0.801504,1.25504,0.0394285,0.0102732,0.455296,5,0.1,2,1.2,-3.8,-0.643066,0.544949,-0.0984013,0.162627,0.00307858,-0.224948,-0.061065,-0.0479817,0.0120219,1.0961,5,0.1,3,1.2,2.99177,-5.56162,0.60122,-0.75115,0.136125,-0.00103265,0.282168,-0.05126,0.00038743,0.0319102,0.311116,5,0.1,4,1.2,-1.37827,2.04512,0.550906,0.866026,-0.0290394,0.0149995,-5.96046e-05,0.000357628,-0.000208616,0.0150611,2.27123,5,0.1,5,1.2,-3.3029,-1.95477,0.761473,0.00157356,0.866026,0.323431,0,-5.96046e-05,-0.0291467,0.0179029,2.2088,5,0.1,6,1.2,-1.76237,-2.76985,0.590953,-0.0820547,0.826102,0.00396073,0.00190735,-0.4251,-0.000119209,0.0337057,2.59247,5,0.1,7,1.2,0.357705,-1.55403,0.531668,-0.216374,0.862703,-0.024581,-0.035733,-0.0665188,0.00843406,0.0137021,1.11384,5,0.1,8,1.2,4.13779,1.76878,0.60891,-0.44055,0.132382,-0.00650734,-1.31416,-0.0326037,0.00157952,0.0131077,2.6012,5,0.1,9,1.2,-3.7303,-2.43597,0.581014,0.00481009,0.866026,0.0670671,0.15676,0,0.353068,0.0432292,2.55245,5,0.1,10,1.2,-0.464449,1.51321,0.600236,0.138519,-0.0960767,-0.000204146,-0.05202,0.465572,0.000119209,0.0111097,0.427133,5,0.1,11,1.2,-2.23008,4.81781,0.930323,-0.0168264,-0.82953,0.3535,0.00631809,0.29254,-0.132769,0.0478864,0.526681,5,0.1,12,1.2,1.74714,-0.344311,0.613851,-0.866026,-0.319307,-0.00886768,5.96046e-05,-0.0477582,0.00101328,0.0168108,1.69416,5,0.1,13,1.2,0.326892,-0.901248,0.654716,-0.122193,0.866026,-0.000987947,0.005126,0,-0.0271499,0.0155549,2.2623,5,0.1,14,1.2,-4.10296,1.74251,0.742082,-0.230777,-0.268999,0.259349,0.0841618,-0.0476241,-0.0974238,0.0189177,0.411017,5,0.1,15,1.2,-2.8586,5.32841,0.553454,0.864553,-0.594604,0.0175402,-0.0296831,0.00309944,-0.000119209,0.0188006,2.05781,5,0.1,16,1.2,5.12709,0.7,0.500015,-0.0228167,-0.232618,-0.00025779,0.00834465,-0.0402331,0.00306964,0.0109803,1.23376,5,0.1,17,1.2,-5.32823,-5.34068,0.652603,0.00818968,0.434554,-0.0239804,-0.0801086,1.38259,0.00283122,0.0696743,1.9183,5,0.1,18,1.2,-1.79618,4.40653,0.676304,-0.241834,0.27386,0.00164509,-0.023663,0.0269413,0.000149012,0.011061,0.095418,5,0.1,19,1.2,-3.4728,-3.82786,0.56997,0.55449,0.0655651,0.0252888,0.0128746,-0.0245571,-0.00947714,0.0198382,2.42932,5,0.1,20,1.2,-5.27627,-0.761064,0.500058,0.358534,0.262015,-0.000844896,-1.01852,-0.0984073,0.00846386,0.0238482,0.545144,5,0.1,21,1.2,0.627835,-4.55017,0.711427,0.102907,0.654972,0.0324965,-0.0386536,-0.385523,-0.0122488,0.00975617,0.315193,5,0.1,22,1.2,1.51631,4.97642,0.874792,-0.0137359,-0.653946,0.400266,0.0051856,0.24581,-0.150353,0.0512292,0.313986,5,0.1,23,1.2,1.95838,-3.21854,0.595383,-0.269032,0.689495,0.00389218,-0.630796,-0.258923,-0.00143051,0.0136365,0.965328,5,0.1,24,1.2,-0.492986,4.15145,0.557786,0.713403,-0.631845,0.0321507,-1.08881,0.238419,-0.00599027,0.0186223,1.35079,5,0.1,25,1.2,2.4727,-0.313583,0.579555,-0.866026,-0.168713,0.00901073,0,-0.0461191,-0.000715256,0.021435,2.25157,5,0.1,26,1.2,1.67807,1.6924,0.872362,-0.0236541,-0.0357211,0.402318,0.0089407,0.0135303,-0.151098,0.0249759,0.20981,5,0.1,27,1.2,0.398949,1.57211,0.69974,-0.147838,-0.164402,0.00273138,0.332862,-0.228763,-0.0199676,0.0209301,0.76702,5,0.1,28,1.2,0.113577,-1.63193,0.566181,0.439903,-0.608253,0.0338197,-0.0462306,0.174522,-0.0149906,0.0209519,0.540753,5,0.1,29,1.2,2.24432,-2.82663,0.691195,-0.686413,-0.376827,0.0154376,1.14405,0.835657,0.119239,0.0167666,1.18553,5,0.1
0,1.3,0.436404,2.82956,0.618526,-0.712057,0.8382,-0.0148776,0.15083,-0.195041,0.00314787,0.0173655,0.930471,5,0.1,1,1.3,0.139294,1.58117,0.501267,-0.0122804,-0.199377,-0.00819722,-0.889673,1.06,0.0352152,0.0102732,0.455296,5,0.1,2,1.3,-3.81115,-0.627102,0.544949,-0.126079,0.15659,-0.00363495,-0.310719,-0.0647306,-0.0806153,0.0120219,1.0961,5,0.1,3,1.3,2.91803,-5.54825,0.601119,-0.723255,0.131059,-0.000994373,0.299051,-0.05427,0.000413507,0.0319102,0.311116,5,0.1,4,1.3,-1.29167,2.04221,0.552409,0.866025,-0.0292026,0.0150813,1.49012e-05,-0.00196695,0.000990927,0.0150611,2.27123,5,0.1,5,1.3,-3.30274,-1.86816,0.793743,0.00158064,0.866025,0.322262,4.47035e-05,1.49012e-05,-0.0108294,0.0179029,2.2088,5,0.1,6,1.3,-1.77058,-2.69028,0.591349,-0.0823973,0.758387,0.00397479,-0.00416487,-0.843793,0.000182539,0.0337057,2.59247,5,0.1,7,1.3,0.335832,-1.46781,0.529252,-0.221298,0.863084,-0.0237163,-0.0494588,0.0260845,0.009574,0.0137021,1.11384,5,0.1,8,1.3,4.08669,1.78187,0.608267,-0.583923,0.129403,-0.00636289,-1.4658,-0.0321344,0.0015609,0.0131077,2.6012,5,0.1,9,1.3,-3.72849,-2.35015,0.589145,0.0360135,0.842973,0.092334,0.427559,-0.444844,0.16037,0.0432292,2.55245,5,0.1,10,1.3,-0.45077,1.50576,0.600217,0.135692,-0.0548609,-0.000196509,-0.0140555,0.355482,5.21541e-05,0.0111097,0.427133,5,0.1,11,1.3,-2.23173,4.73622,0.965023,-0.0161998,-0.802682,0.340375,0.00673532,0.275314,-0.140727,0.0478864,0.526681,5,0.1,12,1.3,1.66054,-0.376078,0.612967,-0.865967,-0.312305,-0.00881888,0.00230968,0.176655,0.000424683,0.0168108,1.69416,5,0.1,13,1.3,0.314663,-0.814645,0.654485,-0.122567,0.866026,-0.00360217,-0.0056494,-3.72529e-06,-0.0244454,0.0155549,2.2623,5,0.1,14,1.3,-4.12535,1.71507,0.767541,-0.214746,-0.281743,0.249718,0.226587,-0.176623,-0.103243,0.0189177,0.411017,5,0.1,15,1.3,-2.77215,5.26879,0.555213,0.86503,-0.598738,0.0176596,0.0161678,-0.0509322,0.00148267,0.0188006,2.05781,5,0.1,16,1.3,5.12485,0.675552,0.500002,-0.0219867,-0.264341,-3.63216e-05,0.0090003,-0.521567,0.00146031,0.0109803,1.23376,5,0.1,17,1.3,-5.32785,-5.29014,0.650197,-0.0005804,0.576107,-0.0242902,-0.0913441,1.37824,-0.00678748,0.0696743,1.9183,5,0.1,18,1.3,-1.82051,4.43408,0.67647,-0.244703,0.277118,0.00166316,-0.0215098,0.0244081,0.00013411,0.011061,0.095418,5,0.1,19,1.3,-3.41788,-3.82142,0.572452,0.538294,0.0631366,0.0243517,-0.320032,-0.0260621,-0.0100508,0.0198382,2.42932,5,0.1,20,1.3,-5.2455,-0.735344,0.500008,0.257499,0.252286,-0.000218395,-0.979036,-0.104304,0.00431761,0.0238482,0.545144,5,0.1,21,1.3,0.637937,-4.48729,0.714617,0.0990859,0.596584,0.0312864,-0.0409745,-0.747353,-0.0129677,0.00975617,0.315193,5,0.1,22,1.3,1.51496,4.91223,0.914083,-0.013224,-0.62965,0.385403,0.00548363,0.260413,-0.159353,0.0512292,0.313986,5,0.1,23,1.3,1.92808,-3.15086,0.595765,-0.338414,0.663896,0.00374997,-0.711158,-0.274494,-0.00153109,0.0136365,0.965328,5,0.1,24,1.3,-0.427594,4.0902,0.560973,0.591265,-0.586472,0.0315547,-1.28216,0.633895,-0.0071004,0.0186223,1.35079,5,0.1,25,1.3,2.3861,-0.330727,0.580455,-0.866026,-0.174326,0.0090003,0,-0.0553057,1.49012e-05,0.021435,2.25157,5,0.1,26,1.3,1.67575,1.68873,0.912011,-0.0227712,-0.0388304,0.391826,0.00944734,-0.0647381,-0.0811294,0.0249759,0.20981,5,0.1,27,1.3,0.385545,1.55489,0.699926,-0.122746,-0.177151,0.00113361,0.182711,-0.0578985,-0.0121817,0.0209301,0.76702,5,0.1,28,1.3,0.157543,-1.69191,0.569485,0.440743,-0.591266,0.0321965,0.0337894,0.186324,-0.0181384,0.0209519,0.540753,5,0.1,29,1.3,2.18153,-2.86077,0.693336,-0.56845,-0.31171,0.0272711,1.19509,0.495702,0.112664,0.0167666,1.18553,5,0.1
0,1.4,0.366172,2.91218,0.617058,-0.68992,0.811458,-0.0144154,0.309737,-0.362873,0.0064671,0.0286831,0.630605,5,0.1,1,1.4,0.133722,1.56617,0.500612,-0.0974037,-0.104403,-0.00500679,-0.785612,0.835896,0.0282526,0.0152529,0.372224,5,0.1,2,1.4,-3.82533,-0.611806,0.544167,-0.157297,0.14884,-0.0120461,-0.299335,-0.0935793,-0.0832677,0.0145419,1.68143,5,0.1,3,1.4,2.84739,-5.53545,0.601022,-0.687462,0.124574,-0.000943244,0.432372,-0.0784397,0.000566244,0.0329794,0.204784,5,0.1,4,1.4,-1.20507,2.03929,0.553918,0.866026,-0.0291526,0.0150517,-5.96046e-05,0.00417233,-0.00214577,0.0146415,2.27124,5,0.1,5,1.4,-3.30258,-1.78156,0.825834,0.0015676,0.866026,0.318453,-0.000238419,-5.96046e-05,-0.07689,0.0145437,2.21231,5,0.1,6,1.4,-1.77882,-2.61881,0.591747,-0.0821084,0.670654,0.00395924,0.013113,-0.863194,-0.000625849,0.0365502,2.75841,5,0.1,7,1.4,0.313522,-1.38154,0.526935,-0.224008,0.859839,-0.0225469,0.00457466,-0.123739,0.0142753,0.0137691,0.806412,5,0.1,8,1.4,4.02131,1.79462,0.60764,-0.718635,0.125086,-0.0061512,-1.16527,-0.0576377,0.00280142,0.0427799,2.15719,5,0.1,9,1.4,-3.72257,-2.2687,0.598918,0.0832856,0.780278,0.10069,0.487447,-0.792861,0.0141263,0.0612694,2.8893,5,0.1,10,1.4,-0.437273,1.50185,0.600197,0.134065,-0.0253171,-0.000190735,-0.0253767,0.235319,2.98023e-05,0.0156006,0.365365,5,0.1,11,1.4,-2.23331,4.6575,0.998271,-0.0153959,-0.769258,0.323531,0.00977516,0.414133,-0.20349,0.0385014,0.356441,5,0.1,12,1.4,1.57398,-0.406133,0.612089,-0.865096,-0.28611,-0.00870526,0.0185966,0.33699,0.00214577,0.0175607,1.30669,5,0.1,13,1.4,0.302407,-0.728043,0.654011,-0.122137,0.866026,-0.0057593,0.0191331,0,-0.0182688,0.0129417,2.26294,5,0.1,14,1.4,-4.14553,1.68601,0.791933,-0.18729,-0.29901,0.237361,0.31352,-0.146151,-0.14925,0.0142814,0.49709,5,0.1,15,1.4,-2.68562,5.20881,0.556982,0.865102,-0.598848,0.0176609,-0.018239,0.0731945,-0.00217557,0.0137169,2.0852,5,0.1,16,1.4,5.1227,0.646208,0.500004,-0.0209093,-0.324124,5.21541e-05,0.0128746,-0.618666,0.000447035,0.0104175,0.990876,5,0.1,17,1.4,-5.32835,-5.22612,0.647733,-0.00939369,0.698221,-0.0249505,-0.082016,1.01447,-0.00473857,0.0683689,0.673406,5,0.1,18,1.4,-1.845,4.46182,0.676636,-0.244078,0.276411,0.00165701,0.0423193,-0.0476837,-0.000327826,0.0105474,0.0722241,5,0.1,19,1.4,-3.36608,-3.81525,0.574831,0.49367,0.0600159,0.0231475,-0.557542,-0.0376701,-0.0145435,0.0179895,1.93044,5,0.1,20,1.4,-5.22443,-0.7107,0.500003,0.166547,0.239801,6.4075e-05,-0.824928,-0.1508,0.00157952,0.022151,0.521805,5,0.1,21,1.4,0.647616,-4.43173,0.717673,0.0941813,0.511718,0.0297353,-0.0592172,-0.92268,-0.0187159,0.0120556,0.27598,5,0.1,22,1.4,1.51367,4.85072,0.951729,-0.0125676,-0.59849,0.36633,0.00786781,0.376463,-0.230342,0.051387,0.206682,5,0.1,23,1.4,1.89085,-3.08601,0.596131,-0.403398,0.63104,0.00356585,-0.555634,-0.396729,-0.00223517,0.00860219,0.681369,5,0.1,24,1.4,-0.374742,4.03514,0.564083,0.468224,-0.511348,0.0305355,-1.13794,0.840902,-0.0140965,0.0145419,1.21843,5,0.1,25,1.4,2.2995,-0.348379,0.581353,-0.866026,-0.177933,0.00893027,0,-0.00926852,-0.00175834,0.0186381,2.45441,5,0.1,26,1.4,1.67353,1.68447,0.950753,-0.0216424,-0.0467271,0.382259,0.0137091,-0.0847578,-0.126153,0.0201217,0.153758,5,0.1,27,1.4,0.374029,1.53697,0.69999,-0.108848,-0.180739,0.000244379,0.106022,-0.0299215,-0.00587106,0.015912,0.953539,5,0.1,28,1.4,0.201722,-1.74995,0.572604,0.441652,-0.567469,0.030084,-0.0364858,0.303566,-0.0244975,0.0132442,0.380787,5,0.1,29,1.4,2.13061,-2.88983,0.696584,-0.450891,-0.272477,0.0371709,1.14131,0.311852,0.0821054,0.0107883,1.00342,5,0.1
0,1.5,0.298666,2.99158,0.615648,-0.660242,0.776485,-0.0137958,0.305844,-0.36183,0.00638142,0.0286831,0.630605,5,0.1,1,1.5,0.120149,1.55952,0.500239,-0.172542,-0.0322104,-0.00260007,-0.695111,0.610739,0.0198334,0.0152529,0.372224,5,0.1,2,1.5,-3.8421,-0.597372,0.542526,-0.174879,0.139914,-0.0208598,-0.0995398,-0.0891834,-0.0887364,0.0145419,1.68143,5,0.1,3,1.5,2.78072,-5.52337,0.60093,-0.646221,0.117094,-0.000888761,0.412002,-0.0747144,0.000547618,0.0329794,0.204784,5,0.1,4,1.5,-1.11846,2.03638,0.555418,0.866025,-0.0289861,0.0149659,1.49012e-05,0.000819564,-0.000428408,0.0146415,2.27124,5,0.1,5,1.5,-3.30242,-1.69496,0.857392,0.00155307,0.866025,0.313252,-0.00013411,1.49012e-05,-0.0436194,0.0145437,2.21231,5,0.1,6,1.5,-1.78699,-2.55612,0.592141,-0.0814287,0.586458,0.00392683,0.00492483,-0.687718,-0.000238419,0.0365502,2.75841,5,0.1,7,1.5,0.291115,-1.29599,0.52475,-0.22413,0.851781,-0.0211705,0.00357442,-0.0793338,0.0138581,0.0137691,0.806412,5,0.1,8,1.5,3.94439,1.80686,0.607038,-0.811851,0.119809,-0.00589425,-0.686944,-0.0524223,0.00255927,0.0427799,2.15719,5,0.1,9,1.5,-3.71157,-2.19547,0.6089,0.138112,0.677581,0.0975131,0.576332,-1.20054,-0.0721775,0.0612694,2.8893,5,0.1,10,1.5,-0.424029,1.50036,0.600178,0.1304,-0.005945,-0.000185985,-0.0502653,0.150375,6.33299e-05,0.0156006,0.365365,5,0.1,11,1.5,-2.2348,4.58253,1.02965,-0.0144631,-0.73069,0.304121,0.00929832,0.382662,-0.193901,0.0385014,0.356441,5,0.1,12,1.5,1.48748,-0.43282,0.611228,-0.865211,-0.245613,-0.00852216,5.96046e-05,0.459021,0.001885,0.0175607,1.30669,5,0.1,13,1.5,0.290245,-0.64144,0.653399,-0.121347,0.866026,-0.0060006,0.00371039,-3.72529e-06,0.0107475,0.0129417,2.26294,5,0.1,14,1.5,-4.16259,1.65555,0.814952,-0.153285,-0.308387,0.223125,0.358284,-0.0357032,-0.142217,0.0142814,0.49709,5,0.1,15,1.5,-2.59912,5.14947,0.558713,0.864944,-0.585923,0.016747,-0.0111014,0.195801,-0.015229,0.0137169,2.0852,5,0.1,16,1.5,5.12068,0.610329,0.50001,-0.019677,-0.39576,7.05011e-05,0.0123978,-0.758734,-3.35276e-05,0.0104175,0.990876,5,0.1,17,1.5,-5.3297,-5.15177,0.645205,-0.0175558,0.782845,-0.0256686,-0.0782311,0.653237,-0.00787899,0.0683689,0.673406,5,0.1,18,1.5,-1.86926,4.48929,0.6768,-0.241265,0.273243,0.00163428,0.0266731,-0.0301301,-0.000216067,0.0105474,0.0722241,5,0.1,19,1.5,-3.32005,-3.80943,0.577076,0.422732,0.0564214,0.02176,-0.817075,-0.0359267,-0.0138655,0.0179895,1.93044,5,0.1,20,1.5,-5.21163,-0.687445,0.500014,0.0927411,0.225417,0.000149757,-0.630647,-0.143699,0.000238419,0.022151,0.521805,5,0.1,21,1.5,0.656749,-4.38541,0.720556,0.0885325,0.413444,0.0279505,-0.0564381,-1.00031,-0.0178292,0.0120556,0.27598,5,0.1,22,1.5,1.51245,4.79268,0.987255,-0.011817,-0.562584,0.344359,0.00751019,0.358641,-0.219494,0.051387,0.206682,5,0.1,23,1.5,1.84825,-3.02631,0.596185,-0.443544,0.550589,-0.00492204,-0.246495,-1.13505,-0.149108,0.00860219,0.681369,5,0.1,24,1.5,-0.333274,3.98851,0.567069,0.366375,-0.419371,0.0291855,-0.832634,0.953123,-0.0138767,0.0145419,1.21843,5,0.1,25,1.5,2.21378,-0.366269,0.58224,-0.84044,-0.180092,0.00882996,0.479475,-0.023352,-0.000733882,0.0186381,2.45441,5,0.1,26,1.5,1.67143,1.67931,0.988451,-0.0203365,-0.0568492,0.372262,0.0130162,-0.109322,-0.0916943,0.0201217,0.153758,5,0.1,27,1.5,0.363523,1.51875,0.699992,-0.1025,-0.184146,-0.000146311,0.0315662,-0.0509992,-0.00220165,0.015912,0.953539,5,0.1,28,1.5,0.24581,-1.80524,0.575492,0.440569,-0.538597,0.0276839,-0.00834271,0.291362,-0.0240952,0.0132442,0.380787,5,0.1,29,1.5,2.08999,-2.91604,0.700577,-0.372475,-0.256117,0.0414614,0.488669,0.0497401,0.00819564,0.0107883,1.00342,5,0.1
0,1.6,0.234311,3.06725,0.614303,-0.625072,0.734884,-0.0130624,0.412308,-0.487208,0.00864267,0.010844,0.453087,5,0.1,1,1.6,0.0997167,1.559,0.500064,-0.232729,0.0183761,-0.00103265,-0.493728,0.404596,0.0116825,0.00722494,0.310381,5,0.1,2,1.6,-3.86005,-0.583847,0.540016,-0.184208,0.130297,-0.0290573,-0.109553,-0.105977,-0.0721216,0.00784006,1.51823,5,0.1,3,1.6,2.71825,-5.51205,0.600844,-0.601804,0.109041,-0.000828505,0.489473,-0.0886917,0.000685453,0.0464069,0.134601,5,0.1,4,1.6,-1.03186,2.03349,0.556909,0.866024,-0.0287056,0.0148222,2.98023e-05,0.00596046,-0.00309944,0.0262984,2.27127,5,0.1,5,1.6,-3.30227,-1.60836,0.888443,0.00153184,0.866026,0.306919,-0.000596046,-5.96046e-05,-0.0945926,0.02349,2.11628,5,0.1,6,1.6,-1.7951,-2.5,0.592531,-0.0803649,0.545007,0.00387728,0.0194311,-0.155091,-0.000983477,0.0386389,2.67834,5,0.1,7,1.6,0.268789,-1.21142,0.522705,-0.221507,0.836876,-0.019674,0.0561625,-0.247777,0.0164807,0.0117708,0.56612,5,0.1,8,1.6,3.86059,1.81856,0.606463,-0.855851,0.113845,-0.00560284,-0.20349,-0.0699759,0.00342727,0.0154099,1.65995,5,0.1,9,1.6,-3.69495,-2.13398,0.618186,0.192881,0.55061,0.0872806,0.494957,-1.29485,-0.127763,0.0373668,3.16058,5,0.1,10,1.6,-0.411296,1.50037,0.60016,0.123651,0.0046283,-0.000175834,-0.0860244,0.0615716,8.9407e-05,0.0121134,0.784544,5,0.1,11,1.6,-2.2362,4.51149,1.05904,-0.0134587,-0.688446,0.283217,0.010848,0.47946,-0.230372,0.0419638,0.238946,5,0.1,12,1.6,1.40107,-0.454981,0.610387,-0.861353,-0.196835,-0.00826716,0.0935197,0.505179,0.00351667,0.0251319,0.49005,5,0.1,13,1.6,0.278151,-0.554838,0.652882,-0.120194,0.866026,-0.00409335,0.0243187,0,0.025183,0.0237333,2.26372,5,0.1,14,1.6,-4.17611,1.62475,0.83652,-0.117111,-0.305304,0.207791,0.358343,0.100195,-0.168979,0.0223099,0.935638,5,0.1,15,1.6,-2.51288,5.09212,0.560296,0.856996,-0.55809,0.0147775,-0.180721,0.366926,-0.0234246,0.0266515,2.32552,5,0.1,16,1.6,5.11877,0.567102,0.500016,-0.0183344,-0.466315,5.21541e-05,0.014782,-0.61214,-0.000268221,0.0250502,0.762457,5,0.1,17,1.6,-5.33182,-5.07098,0.642605,-0.0245452,0.825,-0.0262275,-0.0596046,0.175714,-0.00205636,0.0946076,0.179627,5,0.1,18,1.6,-1.89319,4.51639,0.676962,-0.236595,0.267959,0.00159889,0.0755191,-0.0855923,-0.000506639,0.0168918,0.0323909,5,0.1,19,1.6,-3.282,-3.80398,0.579179,0.337791,0.0525475,0.0202656,-0.850558,-0.0426769,-0.0164807,0.0276337,1.47862,5,0.1,20,1.6,-5.20507,-0.665655,0.500029,0.0431061,0.209923,0.00013113,-0.355482,-0.170708,-0.000476837,0.0277826,0.950329,5,0.1,21,1.6,0.665307,-4.34892,0.723258,0.0824481,0.318325,0.0260279,-0.067085,-0.877619,-0.0211596,0.016203,0.251809,5,0.1,22,1.6,1.51131,4.7383,1.02054,-0.011006,-0.523913,0.320694,0.00888109,0.425816,-0.26083,0.0622002,0.135849,5,0.1,23,1.6,1.80318,-2.97762,0.59483,-0.452864,0.417942,-0.0229836,0.0576377,-1.45602,-0.197798,0.00766951,0.226737,5,0.1,24,1.6,-0.3,3.95124,0.569912,0.306937,-0.327903,0.0275999,-0.370115,0.850081,-0.0185072,0.0127054,1.31495,5,0.1,25,1.6,2.13271,-0.384347,0.583118,-0.775868,-0.180811,0.00870079,0.786543,0.0164062,-0.00223517,0.0177735,2.75237,5,0.1,26,1.6,1.66946,1.6731,1.02516,-0.0189334,-0.0671446,0.360882,0.0154376,-0.0904202,-0.148416,0.0207407,0.189891,5,0.1,27,1.6,0.35338,1.5,0.699971,-0.100669,-0.191388,-0.000244379,0.0130683,-0.0855327,8.9407e-05,0.0157334,0.93021,5,0.1,28,1.6,0.289717,-1.85755,0.578137,0.436053,-0.506273,0.0251681,-0.0981688,0.366807,-0.0266135,0.0143349,0.38794,5,0.1,29,1.6,2.05452,-2.94161,0.704673,-0.342149,-0.256467,0.0396445,0.166297,-0.0305176,-0.0406802,0.0119815,0.782891,5,0.1
0,1.7,0.173771,3.13771,0.613038,-0.586209,0.669466,-0.0122482,0.38333,-0.781626,0.00802428,0.010844,0.453087,5,0.1,1,1.7,0.0740858,1.56267,0.500007,-0.278329,0.0531344,-0.000208337,-0.400725,0.289388,0.00521168,0.00722494,0.310381,5,0.1,2,1.7,-3.87896,-0.571479,0.536751,-0.195671,0.115917,-0.0361444,-0.197083,-0.175305,-0.0663474,0.00784006,1.51823,5,0.1,3,1.7,2.6604,-5.50157,0.600765,-0.55592,0.100727,-0.000764057,0.444651,-0.0805557,0.000625849,0.0464069,0.134601,5,0.1,4,1.7,-0.94526,2.03064,0.558382,0.866026,-0.0283897,0.0146568,0,0.00199676,-0.00105053,0.0262984,2.27127,5,0.1,5,1.7,-3.30212,-1.52175,0.918761,0.00148676,0.866025,0.300027,-0.000402331,1.49012e-05,-0.0588596,0.02349,2.11628,5,0.1,6,1.7,-1.80318,-2.44489,0.592915,-0.0825737,0.568324,0.00380976,-0.0516027,0.51713,-0.000562519,0.0386389,2.67834,5,0.1,7,1.7,0.246896,-1.12885,0.520817,-0.21636,0.815019,-0.018122,0.0553671,-0.223204,0.0150762,0.0117708,0.56612,5,0.1,8,1.7,3.77439,1.82961,0.605918,-0.86539,0.107371,-0.00528535,-0.0254363,-0.0632331,0.00310317,0.0154099,1.65995,5,0.1,9,1.7,-3.67311,-2.08557,0.626224,0.244055,0.417956,0.0730678,0.500694,-1.27791,-0.152867,0.0373668,3.16058,5,0.1,10,1.7,-0.399364,1.50117,0.600143,0.1149,0.0109825,-0.000166241,-0.0911262,0.0381768,0.000108033,0.0121134,0.784544,5,0.1,11,1.7,-2.23749,4.44491,1.08627,-0.0124399,-0.643882,0.261622,0.00990927,0.432968,-0.209264,0.0419638,0.238946,5,0.1,12,1.7,1.31545,-0.472158,0.609577,-0.849757,-0.147071,-0.00794493,0.166759,0.483319,0.00323355,0.0251319,0.49005,5,0.1,13,1.7,0.266188,-0.468235,0.652682,-0.119494,0.866026,0.000776071,-0.00216812,-3.57628e-06,0.0663437,0.0237333,2.26372,5,0.1,14,1.7,-4.18608,1.59496,0.856494,-0.0828058,-0.288091,0.19195,0.323415,0.243917,-0.153512,0.0223099,0.935638,5,0.1,15,1.7,-2.42811,5.03885,0.561548,0.837442,-0.501241,0.00934424,-0.237405,0.737011,-0.0782423,0.0266515,2.32552,5,0.1,16,1.7,5.11701,0.517324,0.50002,-0.0169449,-0.529007,2.3935e-05,0.0135005,-0.598989,-0.000286847,0.0250502,0.762457,5,0.1,17,1.7,-5.33457,-4.98819,0.639968,-0.0301942,0.824842,-0.0265284,-0.0511408,-0.180006,-0.00258163,0.0946076,0.179627,5,0.1,18,1.7,-1.91645,4.54274,0.67712,-0.228335,0.258595,0.00154339,0.0960529,-0.108868,-0.000648201,0.0168918,0.0323909,5,0.1,19,1.7,-3.25251,-3.79893,0.581127,0.252765,0.048545,0.0187205,-0.799268,-0.0388026,-0.0149757,0.0276337,1.47862,5,0.1,20,1.7,-5.20221,-0.645476,0.50004,0.0188164,0.19392,7.55303e-05,-0.0739396,-0.155095,-0.000607222,0.0277826,0.950329,5,0.1,21,1.7,0.673232,-4.32121,0.72576,0.0761596,0.239795,0.0240444,-0.060942,-0.658095,-0.0192262,0.016203,0.251809,5,0.1,22,1.7,1.51025,4.68794,1.05137,-0.0101721,-0.483993,0.296243,0.00808388,0.386864,-0.236958,0.0622002,0.135849,5,0.1,23,1.7,1.75814,-2.94285,0.591375,-0.44785,0.280249,-0.0473605,0.0617653,-1.286,-0.272039,0.00766951,0.226737,5,0.1,24,1.7,-0.270086,3.92245,0.572584,0.300291,-0.251377,0.0258564,0.168676,0.641376,-0.0171699,0.0127054,1.31495,5,0.1,25,1.7,2.05982,-0.402402,0.58398,-0.676486,-0.18059,0.00855941,1.10761,-0.00172667,-0.00107288,0.0177735,2.75237,5,0.1,26,1.7,1.66763,1.66581,1.06083,-0.0177499,-0.079559,0.354973,0.00934303,-0.144504,-0.000327826,0.0207407,0.189891,5,0.1,27,1.7,0.343305,1.48071,0.699947,-0.10136,-0.191819,-0.000235345,-0.0186097,0.0686347,0.000152737,0.0157334,0.93021,5,0.1,28,1.7,0.333055,-1.90643,0.580526,0.432203,-0.471865,0.0226485,-0.00732951,0.335947,-0.0243038,0.0143349,0.38794,5,0.1,29,1.7,2.02053,-2.96765,0.708377,-0.342701,-0.266146,0.0339468,-0.130072,-0.136524,-0.0700168,0.0119815,0.782891,5,0.1
0,1.8,0.117141,3.20052,0.611855,-0.545327,0.585049,-0.0113934,0.446726,-0.881433,0.00935793,0.0103658,0.336613,5,0.1,1,1.8,0.0445201,1.56924,0.500005,-0.309973,0.076142,9.38773e-05,-0.220685,0.170827,0.0012219,0.00827825,0.26496,5,0.1,2,1.8,-3.9,-0.560835,0.532836,-0.229794,0.0963941,-0.0417739,-0.469685,-0.209898,-0.0439882,0.0110797,1.29223,5,0.1,3,1.8,2.60707,-5.49191,0.600691,-0.510103,0.092423,-0.000700355,0.482678,-0.0872612,0.000655651,0.0293445,0.122523,5,0.1,4,1.8,-0.858657,2.02782,0.55984,0.866026,-0.0280201,0.014466,0,0.00631809,-0.00333786,0.0157073,2.2713,5,0.1,5,1.8,-3.30197,-1.43515,0.948424,0.00144243,0.866026,0.292486,-0.000596046,-5.96046e-05,-0.102967,0.0132121,1.65714,5,0.1,6,1.8,-1.81174,-2.38507,0.593293,-0.0885844,0.630105,0.00372976,-0.0596642,0.639319,-0.00119209,0.0268261,2.44243,5,0.1,7,1.8,0.225593,-1.04864,0.519081,-0.208994,0.786537,-0.0165731,0.0977889,-0.369638,0.0162423,0.00911799,0.388574,5,0.1,8,1.8,3.6878,1.84002,0.605406,-0.866026,0.100574,-0.00495017,0,-0.0752211,0.00366569,0.0158037,1.27016,5,0.1,9,1.8,-3.64638,-2.04964,0.63275,0.288272,0.306946,0.0573605,0.363946,-0.903606,-0.15834,0.0296565,3.19761,5,0.1,10,1.8,-0.388352,1.50225,0.600127,0.105085,0.00846684,-0.000153482,-0.106454,-0.0991225,0.000149012,0.0125894,2.04528,5,0.1,11,1.8,-2.23869,4.38275,1.11137,-0.0114202,-0.5983,0.240061,0.010848,0.49305,-0.227213,0.0351596,0.15964,5,0.1,12,1.8,1.23162,-0.484531,0.6088,-0.823319,-0.101338,-0.00757128,0.380397,0.426456,0.00450015,0.0139923,0.322278,5,0.1,13,1.8,0.254239,-0.381632,0.65312,-0.119229,0.866025,0.00813603,0.0133142,1.43051e-05,0.0763535,0.0164902,2.37853,5,0.1,14,1.8,-4.19283,1.5676,0.874909,-0.0531316,-0.256839,0.176133,0.267029,0.378013,-0.166684,0.0125581,1.9381,5,0.1,15,1.8,-2.34583,4.99279,0.562048,0.805038,-0.416732,0.000375509,-0.4282,0.926018,-0.0956953,0.0159112,2.45633,5,0.1,16,1.8,5.11538,0.461737,0.500021,-0.0155449,-0.578867,-2.98023e-06,0.0145435,-0.368416,-0.000238419,0.00826044,0.592491,5,0.1,17,1.8,-5.33781,-4.90719,0.637311,-0.0343919,0.789201,-0.0265092,-0.0314713,-0.529051,0.00393391,0.0658247,1.42497,5,0.1,18,1.8,-1.93873,4.56797,0.67727,-0.21635,0.245023,0.0014618,0.14776,-0.167608,-0.00101328,0.0121573,0.0122955,5,0.1,19,1.8,-3.23084,-3.79427,0.582923,0.185323,0.0445485,0.0171781,-0.526547,-0.0420809,-0.0162423,0.0187171,1.37142,5,0.1,20,1.8,-5.2,-0.626872,0.500044,0.0321269,0.177939,1.49012e-05,0.321865,-0.168383,-0.000625849,0.0223528,3.22962,5,0.1,21,1.8,0.680539,-4.3,0.728067,0.0698805,0.189364,0.0220641,-0.0661314,-0.358582,-0.0208914,0.0104438,0.240083,5,0.1,22,1.8,1.50928,4.6415,1.07979,-0.00933707,-0.444126,0.27183,0.00882149,0.420094,-0.257254,0.0503416,0.153799,5,0.1,23,1.8,1.71379,-2.92089,0.585276,-0.437301,0.162703,-0.0743017,0.162065,-1.05715,-0.253618,0.00866856,0.196343,5,0.1,24,1.8,-0.238789,3.9,0.57508,0.328546,-0.202721,0.0240296,0.343695,0.339746,-0.0198483,0.01116,1.09483,5,0.1,25,1.8,1.99766,-0.420431,0.584829,-0.568813,-0.179408,0.00840575,0.994802,0.0325441,-0.00238419,0.0179562,2.94012,5,0.1,26,1.8,1.6659,1.65713,1.09636,-0.0168711,-0.0937253,0.355515,0.0090003,-0.128925,-0.0112057,0.019491,0.120621,5,0.1,27,1.8,0.333079,1.46207,0.699924,-0.102963,-0.179207,-0.000202656,-0.00745058,0.176311,0.000476837,0.0173686,1.21209,5,0.1,28,1.8,0.376197,-1.95189,0.58267,0.429691,-0.436628,0.0202209,-0.0633746,0.378668,-0.0246167,0.0103369,0.277121,5,0.1,29,1.8,1.98544,-2.99494,0.711395,-0.359872,-0.27917,0.026229,-0.17786,-0.104666,-0.081718,0.013814,0.608095,5,0.1
0,1.9,0.0647267,3.2545,0.61076,-0.503703,0.494979,-0.0105218,0.401163,-0.863209,0.00839308,0.0103658,0.336613,5,0.1,1,1.9,0.0124525,1.5777,0.500018,-0.330602,0.0929298,0.000137091,-0.174698,0.156797,-0.000201166,0.00827825,0.26496,5,0.1,2,1.9,-3.92606,-0.552275,0.528446,-0.296845,0.0746229,-0.0458946,-0.801891,-0.2211,-0.0358596,0.0110797,1.29223,5,0.1,3,1.9,2.55834,-5.48292,0.600624,-0.465383,0.0887811,-0.000639446,0.425577,0.00202656,0.000581145,0.0293445,0.122523,5,0.1,4,1.9,-0.772055,2.02504,0.561275,0.866026,-0.0276774,0.0142825,-3.72529e-06,0.00217557,-0.00116602,0.0157073,2.2713,5,0.1,5,1.9,-3.30183,-1.34855,0.977222,0.00139251,0.865949,0.283777,-0.000476837,-0.00301003,-0.0837706,0.0132121,1.65714,5,0.1,6,1.9,-1.82097,-2.31818,0.593661,-0.0965884,0.712171,0.00364184,-0.090234,0.914514,-0.000752509,0.0268261,2.44243,5,0.1,7,1.9,0.205156,-0.97172,0.5175,-0.199833,0.752442,-0.0150653,0.0924692,-0.33994,0.0143498,0.00911799,0.388574,5,0.1,8,1.9,3.6012,1.84972,0.604928,-0.865737,0.0936193,-0.00461051,0.0115633,-0.0669435,0.00327453,0.0158037,1.27016,5,0.1,9,1.9,-3.61571,-2.02288,0.637696,0.324684,0.236866,0.0416403,0.340372,-0.403851,-0.153635,0.0296565,3.19761,5,0.1,10,1.9,-0.378361,1.5026,0.600112,0.0948441,-0.00473391,-0.000138953,-0.100274,-0.271209,0.000141561,0.0125894,2.04528,5,0.1,11,1.9,-2.23978,4.32525,1.1343,-0.0104144,-0.552712,0.219011,0.00959635,0.436306,-0.200316,0.0351596,0.15964,5,0.1,12,1.9,1.15115,-0.492658,0.608064,-0.785802,-0.0624863,-0.00715461,0.393607,0.349553,0.00408292,0.0139923,0.322278,5,0.1,13,1.9,0.242314,-0.295387,0.654416,-0.119742,0.855015,0.018556,-0.0148853,-0.231124,0.12305,0.0164902,2.37853,5,0.1,14,1.9,-4.19691,1.544,0.891734,-0.0295363,-0.213387,0.160691,0.202984,0.485033,-0.146955,0.0125581,1.9381,5,0.1,15,1.9,-2.26654,4.95569,0.561568,0.788046,-0.326128,-0.0102331,0.0109375,0.875175,-0.11069,0.0159112,2.45633,5,0.1,16,1.9,5.11374,0.402381,0.50002,-0.0186369,-0.604236,-2.23517e-05,-0.0661016,-0.128515,-0.000149012,0.00826044,0.592491,5,0.1,17,1.9,-5.3414,-4.83002,0.634676,-0.0372343,0.761492,-0.0261708,-0.0235736,-0.0974238,0.00395253,0.0658247,1.42497,5,0.1,18,1.9,-1.9596,4.59156,0.677417,-0.200684,0.22612,0.00150958,0.168182,-0.210911,0.0016056,0.0121573,0.0122955,5,0.1,19,1.9,-3.21453,-3.79001,0.584564,0.146716,0.0406481,0.0156731,-0.187173,-0.0371337,-0.0143237,0.0187171,1.37142,5,0.1,20,1.9,-5.19477,-0.609718,0.500043,0.0759132,0.166784,-3.61353e-05,0.525564,-0.0694394,-0.000394881,0.0223528,3.22962,5,0.1,21,1.9,0.687371,-4.2823,0.730174,0.0681987,0.169395,0.0201289,0.0207201,-0.0725389,-0.0184178,0.0104438,0.240083,5,0.1,22,1.9,1.50838,4.59887,1.10588,-0.0086436,-0.411088,0.25162,0.00558048,0.266045,-0.162527,0.0503416,0.153799,5,0.1,23,1.9,1.67075,-2.90915,0.576576,-0.424385,0.0791624,-0.0994376,0.117004,-0.635862,-0.238162,0.00866856,0.196343,5,0.1,24,1.9,-0.204319,3.88085,0.577389,0.359388,-0.185142,0.0221803,0.256611,0.0458807,-0.0178106,0.01116,1.09483,5,0.1,25,1.9,1.94555,-0.437996,0.585662,-0.478769,-0.169945,0.00827573,0.681415,0.149451,-0.000730157,0.0179562,2.94012,5,0.1,26,1.9,1.66426,1.64728,1.13195,-0.0161052,-0.101523,0.356666,0.00703335,-0.0301301,0.0143275,0.019491,0.120621,5,0.1,27,1.9,0.322711,1.44533,0.699901,-0.104564,-0.153395,-0.000288896,-0.0180975,0.313841,-0.00150502,0.0173686,1.21209,5,0.1,28,1.9,0.418966,-1.99376,0.584575,0.426283,-0.401475,0.0179357,-0.0273827,0.336632,-0.0215434,0.0103369,0.277121,5,0.1,29,1.9,1.9483,-3.02348,0.713595,-0.384645,-0.292119,0.0176837,-0.28114,-0.133634,-0.0868328,0.013814,0.608095,5,0.1
0,2,0.0163892,3.3,0.60975,-0.462499,0.418377,-0.00966042,0.433463,-0.665665,0.0090301,0.00929152,0.253958,5,0.1,1,2,-0.0212904,1.5877,0.500029,-0.342049,0.106126,8.04663e-05,-0.0427955,0.101507,-0.000834465,0.0258632,3.29877,5,0.1,2,2,-3.95983,-0.545906,0.523708,-0.378025,0.0529572,-0.0485182,-0.769854,-0.208765,-0.014931,0.00808255,1.02717,5,0.1,3,2,2.51393,-5.47397,0.600563,-0.422639,0.0906467,-0.000579655,0.438809,0.0259876,0.000566244,0.0240454,0.150331,5,0.1,4,2,-0.685452,2.02228,0.562696,0.866026,-0.0273108,0.014089,0,0.00631809,-0.00327826,0.0149893,2.27133,5,0.1,5,2,-3.30169,-1.26199,1.00513,0.0013411,0.864819,0.273606,-0.000715256,-0.0241995,-0.128388,0.0135286,1.2616,5,0.1,6,2,-1.83106,-2.24253,0.594021,-0.104868,0.797874,0.00354648,-0.0680685,0.735641,-0.0012815,0.0271274,2.3023,5,0.1,7,2,0.185673,-0.89831,0.516065,-0.189318,0.713897,-0.0136286,0.122592,-0.449806,0.0146329,0.00863387,0.262889,5,0.1,8,2,3.51478,1.85874,0.604484,-0.8614,0.0866622,-0.00426918,0.0925064,-0.0742078,0.00363588,0.0119983,0.946432,5,0.1,9,2,-3.58174,-2,0.641116,0.352299,0.2323,0.0270545,0.195384,0.279605,-0.136256,0.0291895,2.92309,5,0.1,10,2,-0.36938,1.5,0.600099,0.0847146,-0.0547111,-0.00012517,-0.103548,-0.711322,0.000178814,0.0115127,3.07533,5,0.1,11,2,-2.24077,4.27218,1.1552,-0.0094533,-0.508058,0.198892,0.00977516,0.468731,-0.20653,0.0358169,0.106735,5,0.1,12,2,1.07472,-0.497293,0.60737,-0.740671,-0.0315614,-0.00671148,0.52458,0.268638,0.00488758,0.0119165,1.29729,5,0.1,13,2,0.230277,-0.211493,0.656903,-0.120708,0.818216,0.0311688,0.00184774,-0.509784,0.122428,0.0163843,2.76751,5,0.1,14,2,-4.19897,1.52521,0.907069,-0.0127435,-0.16132,0.14593,0.132084,0.547409,-0.151515,0.0105959,1.92995,5,0.1,15,2,-2.18748,4.9273,0.560005,0.793713,-0.243521,-0.0207677,0.0447035,0.769854,-0.0958145,0.0129465,2.42913,5,0.1,16,2,5.11148,0.341779,0.500017,-0.0269413,-0.603043,-3.27826e-05,-0.0920296,0.157207,-8.9407e-05,0.0100975,0.515041,5,0.1,17,2,-5.34522,-4.75413,0.632087,-0.0388026,0.75711,-0.0255316,-0.00715256,-0.0443459,0.00953674,0.0751194,2.38285,5,0.1,18,2,-1.97878,4.61305,0.677577,-0.182319,0.202835,0.00171959,0.20051,-0.254393,0.00232458,0.0104133,0.579461,5,0.1,19,2,-3.2,-3.78614,0.58606,0.151342,0.0369191,0.0142336,0.255704,-0.0383854,-0.0147521,0.0191263,1.50131,5,0.1,20,2,-5.18441,-0.593323,0.500038,0.132012,0.161476,-6.70552e-05,0.572681,-0.0477433,-0.000178814,0.0244453,1.79177,5,0.1,21,2,0.694358,-4.26547,0.732095,0.0719458,0.169218,0.0182793,0.0452399,0.0441074,-0.0189841,0.0104388,0.190006,5,0.1,22,2,1.50754,4.55901,1.13028,-0.00812709,-0.386512,0.236624,0.00506639,0.243902,-0.148892,0.0526131,0.146203,5,0.1,23,2,1.62896,-2.90387,0.56554,-0.410375,0.0314295,-0.120082,0.177801,-0.337601,-0.167191,0.00854042,0.215906,5,0.1,24,2,-0.167352,3.86231,0.579517,0.377137,-0.187504,0.0203535,0.0876039,-0.0667572,-0.0191927,0.0114979,0.988899,5,0.1,25,2,1.9,-0.454101,0.586485,-0.442928,-0.150883,0.00816882,0.0559688,0.225395,-0.00172853,0.0180928,2.80764,5,0.1,26,2,1.66268,1.63712,1.1676,-0.0153363,-0.100377,0.355005,0.00876188,0.0498891,-0.0613928,0.0198875,0.180084,5,0.1,27,2,0.312191,1.43161,0.699866,-0.105476,-0.120822,-0.000391901,0.00447035,0.320017,-8.9407e-05,0.0155532,1.50635,5,0.1,28,2,0.461365,-2.03221,0.586263,0.420371,-0.367224,0.015834,-0.106677,0.356674,-0.0207424,0.0112027,0.193799,5,0.1,29,2,1.9085,-3.05327,0.714937,-0.409818,-0.302368,0.00927448,-0.19604,-0.0568628,-0.0795722,0.0122826,0.454477,5,0.1
0,2.1,-0.0278153,3.339,0.608827,-0.422477,0.365968,-0.00882661,0.379924,-0.410169,0.00791624,0.00929152,0.253958,5,0.1,1,2.1,-0.0542701,1.59744,0.500033,-0.305088,0.0769544,1.07102e-05,0.706188,-0.6053,-0.000562519,0.0258632,3.29877,5,0.1,2,2.1,-4.00171,-0.541636,0.518853,-0.460529,0.0326922,-0.0479328,-0.827193,-0.193402,0.0245459,0.00808255,1.02717,5,0.1,3,2.1,2.47354,-5.46465,0.600508,-0.387913,0.096792,-0.000534672,0.279963,0.0842214,0.000368804,0.0240454,0.150331,5,0.1,4,2.1,-0.598849,2.01957,0.564094,0.866026,-0.0269692,0.0139114,-3.72529e-06,0.00213087,-0.00109896,0.0149893,2.27133,5,0.1,5,2.1,-3.30156,-1.17552,1.0319,0.00127777,0.865042,0.262029,-0.000625849,0.00292808,-0.11339,0.0135286,1.2616,5,0.1,6,2.1,-1.84193,-2.15975,0.59437,-0.112781,0.850926,0.00345083,-0.081107,0.327229,-0.000808388,0.0271274,2.3023,5,0.1,7,2.1,0.167322,-0.829042,0.514772,-0.177869,0.672161,-0.0122839,0.11223,-0.407767,0.0126325,0.00863387,0.262889,5,0.1,8,2.1,3.42882,1.86706,0.604074,-0.859179,0.0798283,-0.00393381,0.000938773,-0.0650361,0.00320002,0.0119983,0.946432,5,0.1,9,2.1,-3.54552,-1.97394,0.643162,0.371652,0.30041,0.0141229,0.170901,0.974558,-0.12067,0.0291895,2.92309,5,0.1,10,2.1,-0.361403,1.48954,0.600087,0.0750117,-0.166016,-0.000108872,-0.0921991,-1.40027,0.000152737,0.0115127,3.07533,5,0.1,11,2.1,-2.24167,4.22358,1.17412,-0.00855476,-0.464968,0.17993,0.00846386,0.407785,-0.178203,0.0358169,0.106735,5,0.1,12,2.1,1.00255,-0.49927,0.606722,-0.708501,-0.00963132,-0.00625867,0.178281,0.169585,0.00437349,0.0119165,1.29729,5,0.1,13,2.1,0.218159,-0.133187,0.660669,-0.122001,0.739741,0.0443456,-0.0193818,-1.00101,0.133771,0.0163843,2.76751,5,0.1,14,2.1,-4.19965,1.51185,0.92095,-0.0019215,-0.105979,0.132019,0.0782907,0.547595,-0.130747,0.0105959,1.92995,5,0.1,15,2.1,-2.10723,4.90573,0.557559,0.815759,-0.197124,-0.0271254,0.321165,0.207037,-0.0339039,0.0129465,2.42913,5,0.1,16,2.1,5.10827,0.283079,0.500014,-0.0377998,-0.563776,-3.74392e-05,-0.117362,0.588852,-7.45058e-06,0.0100975,0.515041,5,0.1,17,2.1,-5.34912,-4.67763,0.629583,-0.0390805,0.780457,-0.0244972,0.00247359,0.418991,0.0117458,0.0751194,2.38285,5,0.1,18,2.1,-1.99533,4.63114,0.678032,-0.143163,0.151402,0.00964087,0.541091,-0.716507,0.138745,0.0104133,0.579461,5,0.1,19,2.1,-3.18253,-3.78262,0.587414,0.206431,0.0333942,0.0128787,0.765845,-0.0331104,-0.0127405,0.0191263,1.50131,5,0.1,20,2.1,-5.16887,-0.576058,0.50003,0.173833,0.195066,-7.69272e-05,0.274032,0.629012,-2.98023e-05,0.0244453,1.79177,5,0.1,21,2.1,0.701854,-4.24807,0.733834,0.0785122,0.180712,0.0165365,0.0770539,0.161439,-0.0163801,0.0104388,0.190006,5,0.1,22,2.1,1.50675,4.52191,1.15319,-0.00760499,-0.352546,0.221311,0.00552088,0.42209,-0.161625,0.0526131,0.146203,5,0.1,23,2.1,1.5887,-2.90181,0.552985,-0.395532,0.0150733,-0.128353,0.137359,-0.0188351,-0.00638142,0.00854042,0.215906,5,0.1,24,2.1,-0.129846,3.84297,0.581462,0.367311,-0.201382,0.0185818,-0.253413,-0.18473,-0.0168048,0.0114979,0.988899,5,0.1,25,2.1,1.85452,-0.467968,0.587297,-0.478685,-0.125698,0.00807326,-0.662319,0.271456,-0.000648201,0.0180928,2.80764,5,0.1,26,2.1,1.66119,1.62748,1.20279,-0.0145022,-0.0911182,0.348584,0.00838935,0.128083,-0.0795648,0.0198875,0.180084,5,0.1,27,2.1,0.301648,1.42124,0.699823,-0.105415,-0.0867032,-0.000457,0.0019148,0.316054,0.000294298,0.0155532,1.50635,5,0.1,28,2.1,0.502942,-2.06725,0.587749,0.411438,-0.33439,0.0139343,-0.0901446,0.310332,-0.017643,0.0112027,0.193799,5,0.1,29,2.1,1.86644,-3.08383,0.715472,-0.431599,-0.308841,0.00151871,-0.211135,-0.0562519,-0.0738166,0.0122826,0.454477,5,0.1
0,2.2,-0.0681658,3.37379,0.607984,-0.384322,0.331461,-0.00803024,0.392161,-0.301242,0.00816584,0.00902418,0.184601,5,0.1,1,2.2,-0.080529,1.60149,0.500032,-0.214453,-0.000709295,-3.57628e-05,1.04593,-0.885308,-0.000298023,0.0279603,1.86295,5,0.1,2,2.2,-4.05164,-0.539287,0.514233,-0.534379,0.0148118,-0.0440046,-0.611782,-0.162035,0.0521541,0.00916905,0.774786,5,0.1,3,2.2,2.43604,-5.45454,0.600456,-0.362432,0.105274,-0.000499189,0.247598,0.0762939,0.000298023,0.0266929,0.10467,5,0.1,4,2.2,-0.512247,2.01689,0.565478,0.866026,-0.0266194,0.0137284,0,0.00619888,-0.00312924,0.0157078,2.27136,5,0.1,5,2.2,-3.30144,-1.08913,1.05749,0.00121593,0.861156,0.249207,-0.000834465,-0.097394,-0.150084,0.0141199,0.932241,5,0.1,6,2.2,-1.85358,-2.07363,0.594711,-0.119537,0.866026,0.00335276,-0.0475645,0,-0.0012517,0.0248652,2.26108,5,0.1,7,2.2,0.150118,-0.763947,0.513605,-0.16589,0.628497,-0.0110388,0.131324,-0.481129,0.0124574,0.0101389,0.17653,5,0.1,8,2.2,3.34309,1.87471,0.603697,-0.852865,0.0732183,-0.00360757,0.15986,-0.068903,0.00339746,0.0141752,0.678765,5,0.1,9,2.2,-3.50768,-1.93861,0.644008,0.38299,0.40817,0.00320524,0.0417233,1.09822,-0.0964999,0.0306426,2.77041,5,0.1,10,2.2,-0.354355,1.46557,0.600077,0.0659898,-0.31459,-9.38773e-05,-0.0894368,-1.48404,0.000149012,0.00917056,2.75661,5,0.1,11,2.2,-2.24248,4.17912,1.19123,-0.0077188,-0.423992,0.162315,0.00846386,0.421762,-0.177979,0.0332385,0.283523,5,0.1,12,2.2,0.932417,-0.499548,0.606119,-0.694659,0.00245795,-0.00580102,0.142723,0.0735819,0.00485778,0.0147408,2.80926,5,0.1,13,2.2,0.205883,-0.0646361,0.665742,-0.123158,0.62822,0.0566602,0.00216812,-1.18609,0.107229,0.0150973,3.11744,5,0.1,14,2.2,-4.19958,1.50389,0.933505,0.00216961,-0.0544548,0.119095,0.00238419,0.468016,-0.130534,0.0134338,1.9205,5,0.1,15,2.2,-2.0241,4.88646,0.554761,0.845009,-0.193155,-0.0280619,0.209451,-0.0870228,0.0126064,0.0174662,2.30967,5,0.1,16,2.2,5.10391,0.230093,0.50001,-0.0490665,-0.492261,-3.57628e-05,-0.102043,0.810802,5.96046e-05,0.0145266,0.457325,5,0.1,17,2.2,-5.35299,-4.59735,0.6272,-0.0381708,0.824833,-0.0230864,0.0164509,0.400066,0.0168383,0.0657191,2.00776,5,0.1,18,2.2,-2.00667,4.64233,0.679797,-0.0815034,0.0698447,0.026387,0.659347,-0.869751,0.182718,0.00912324,0.363676,5,0.1,19,2.2,-3.15776,-3.77945,0.588639,0.29037,0.0301182,0.0116184,0.85187,-0.033021,-0.0126958,0.0162256,0.932506,5,0.1,20,2.2,-5.15054,-0.552903,0.500023,0.188839,0.271244,-7.45058e-05,0.0360012,0.824779,8.9407e-05,0.0261571,1.44123,5,0.1,21,2.2,0.710082,-4.22916,0.735406,0.0857919,0.197279,0.0149176,0.0619292,0.151634,-0.0163615,0.0103607,0.258539,5,0.1,22,2.2,1.50602,4.48897,1.17447,-0.00699759,-0.304556,0.203615,0.00667572,0.526428,-0.194848,0.0498618,0.257423,5,0.1,23,2.2,1.54988,-2.90007,0.540326,-0.379795,0.0223935,-0.122903,0.190079,0.141859,0.108063,0.00831285,0.233373,5,0.1,24,2.2,-0.0947389,3.82189,0.583236,0.331851,-0.219911,0.0168949,-0.432554,-0.166655,-0.0173151,0.0110333,0.888543,5,0.1,25,2.2,1.80289,-0.479151,0.588099,-0.556237,-0.0978261,0.0079602,-0.805855,0.280499,-0.00190735,0.0154307,0.142124,5,0.1,26,2.2,1.65979,1.61909,1.23714,-0.0135809,-0.0760674,0.337017,0.0103116,0.167131,-0.160098,0.0176823,0.150874,5,0.1,27,2.2,0.291146,1.41386,0.699789,-0.10422,-0.0642776,-0.00012368,0.0255406,0.111938,0.00694394,0.0153509,3.53347,5,0.1,28,2.2,0.543541,-2.09915,0.589056,0.399275,-0.303417,0.0122383,-0.165612,0.31662,-0.0165105,0.0139923,0.133174,5,0.1,29,2.2,1.82239,-3.11489,0.715276,-0.447211,-0.310862,-0.00519603,-0.0812411,0.0271797,-0.0592768,0.0479244,0.325809,5,0.1
0,2.3,-0.104756,3.40571,0.607219,-0.348385,0.309207,-0.00728155,0.337454,-0.165612,0.00702962,0.00902418,0.184601,5,0.1,1,2.3,-0.0967939,1.59612,0.500027,-0.111857,-0.113216,-5.62519e-05,0.985784,-1.28299,-0.00012666,0.0279603,1.86295,5,0.1,2,2.3,-4.10815,-0.538584,0.510131,-0.595056,-0.000346359,-0.0376971,-0.560582,-0.138853,0.0717267,0.00916905,0.774786,5,0.1,3,2.3,2.4009,-5.44381,0.600407,-0.341523,0.107564,-0.000473391,0.186607,-0.0256896,0.000242144,0.0266929,0.10467,5,0.1,4,2.3,-0.425644,2.01425,0.566841,0.866026,-0.0262875,0.013563,-3.57628e-06,0.00201166,-0.000990927,0.0157078,2.27136,5,0.1,5,2.3,-3.30132,-1.00325,1.08171,0.00114031,0.857801,0.235419,-0.000700355,-0.0171177,-0.134088,0.0141199,0.932241,5,0.1,6,2.3,-1.8658,-1.98702,0.595041,-0.125148,0.866026,0.00326112,-0.0561774,0,-0.000752509,0.0248652,2.26108,5,0.1,7,2.3,0.13415,-0.703367,0.51256,-0.153705,0.583976,-0.00990275,0.117257,-0.428297,0.0105724,0.0101389,0.17653,5,0.1,8,2.3,3.25844,1.88171,0.603352,-0.840631,0.0669034,-0.00329586,0.124007,-0.0595376,0.0029467,0.0141752,0.678765,5,0.1,9,2.3,-3.46972,-1.89173,0.64458,0.371417,0.533064,0.0144621,-0.255704,1.31357,0.278153,0.0306426,2.77041,5,0.1,10,2.3,-0.348332,1.42615,0.600069,0.0533993,-0.476867,-8.05594e-05,-0.154175,-1.66958,0.000122935,0.00917056,2.75661,5,0.1,11,2.3,-2.24322,4.13839,1.20663,-0.00694618,-0.394323,0.146094,0.00721216,0.203699,-0.151075,0.0332385,0.283523,5,0.1,12,2.3,0.862992,-0.498842,0.605568,-0.698885,0.0115592,-0.00515338,-0.161391,0.0695679,0.00782311,0.0147408,2.80926,5,0.1,13,2.3,0.193571,-0.0081209,0.671758,-0.123033,0.500669,0.0619636,0.00567082,-1.27544,0.00504032,0.0150973,3.11744,5,0.1,14,2.3,-4.19944,1.50054,0.944803,-0.000590086,-0.0155993,0.107197,-0.0689626,0.291407,-0.11082,0.0134338,1.9205,5,0.1,15,2.3,-1.9387,4.86598,0.552093,0.861228,-0.222442,-0.0246473,0.105247,-0.442058,0.0516772,0.0174662,2.30967,5,0.1,16,2.3,5.09848,0.185241,0.500007,-0.0595413,-0.402873,-2.92435e-05,-0.101477,0.927702,7.45058e-05,0.0145266,0.457325,5,0.1,17,2.3,-5.35673,-4.51315,0.624969,-0.0366367,0.85598,-0.0215816,0.015527,0.208944,0.0140853,0.0657191,2.00776,5,0.1,18,2.3,-2.01183,4.6447,0.683577,-0.0248682,-0.0240132,0.0509484,0.476226,-0.966668,0.287361,0.00912324,0.363676,5,0.1,19,2.3,-3.12426,-3.77659,0.589741,0.380626,0.0271086,0.0104608,0.902265,-0.0280291,-0.0107884,0.0162256,0.932506,5,0.1,20,2.3,-5.13172,-0.521139,0.500016,0.185079,0.367456,-6.34231e-05,-0.10398,1.03091,0.000130385,0.0261571,1.44123,5,0.1,21,2.3,0.719114,-4.20827,0.736829,0.0958977,0.22346,0.013624,0.125758,0.333995,-0.0103824,0.0103607,0.258539,5,0.1,22,2.3,1.50535,4.46134,1.19395,-0.00642426,-0.246454,0.186897,0.0050813,0.613004,-0.148065,0.0498618,0.257423,5,0.1,23,2.3,1.51276,-2.89676,0.528729,-0.363124,0.0466157,-0.107714,0.158586,0.314549,0.187669,0.00831285,0.233373,5,0.1,24,2.3,-0.064045,3.79896,0.584844,0.279997,-0.239049,0.0153086,-0.556626,-0.19595,-0.01489,0.0110333,0.888543,5,0.1,25,2.3,1.74407,-0.487517,0.588894,-0.611756,-0.0694877,0.00800975,-0.310682,0.280675,0.00208616,0.0154307,0.142124,5,0.1,26,2.3,1.65848,1.6124,1.27002,-0.0125706,-0.0573097,0.320338,0.0101924,0.197135,-0.181139,0.0176823,0.150874,5,0.1,27,2.3,0.280689,1.40789,0.699823,-0.106198,-0.0600049,0.000930298,-0.0514388,-0.163637,0.0144728,0.0153509,3.53347,5,0.1,28,2.3,0.582703,-2.12801,0.590203,0.384182,-0.274477,0.0107422,-0.151031,0.270829,-0.0137426,0.0139923,0.133174,5,0.1,29,2.3,1.77723,-3.14586,0.714471,-0.455824,-0.308546,-0.0107483,-0.0684485,0.0322908,-0.050474,0.0479244,0.325809,5,0.1
0,2.4,-0.137925,3.43588,0.606526,-0.314981,0.294542,-0.00658482,0.338264,-0.143647,0.00703335,0.0186884,0.134141,5,0.1,1,2.4,-0.103287,1.57828,0.500021,-0.0207517,-0.242957,-6.10948e-05,0.821963,-1.25009,-2.98023e-05,0.0318916,2.97322,5,0.1,2,2.4,-4.1701,-0.539259,0.506737,-0.639546,-0.012584,-0.0300691,-0.301123,-0.104457,0.0789464,0.00951249,0.565771,5,0.1,3,2.4,2.36768,-5.43332,0.600361,-0.322372,0.101066,-0.000448525,0.207782,-0.100136,0.000298023,0.024579,0.211824,5,0.1,4,2.4,-0.339042,2.01163,0.56819,0.866025,-0.0259519,0.0133932,1.43051e-05,0.00584126,-0.00301003,0.029416,2.27138,5,0.1,5,2.4,-3.30121,-0.917738,1.10455,0.00106692,0.849667,0.220978,-0.000715256,-0.178903,-0.160635,0.0229955,2.27832,5,0.1,6,2.4,-1.87856,-1.90042,0.595363,-0.129327,0.866026,0.00317097,-0.0215173,-5.96046e-05,-0.00116229,0.0476556,2.02287,5,0.1,7,2.4,0.119375,-0.64715,0.511621,-0.141617,0.539629,-0.00887215,0.127871,-0.471741,0.0102818,0.0200797,0.118269,5,0.1,8,2.4,3.1752,1.88811,0.603037,-0.821441,0.0609457,-0.00300109,0.286937,-0.061214,0.00301003,0.0220849,0.473396,5,0.1,9,2.4,-3.43422,-1.83208,0.64774,0.335139,0.656,0.0510857,-0.454545,1.08236,0.420272,0.0365904,2.43847,5,0.1,10,2.4,-0.343814,1.37043,0.600061,0.0366226,-0.632632,-6.85453e-05,-0.174895,-1.37889,0.000119209,0.00876673,2.43163,5,0.1,11,2.4,-2.24388,4.09983,1.22049,-0.00624061,-0.377643,0.131309,0.00703335,0.154257,-0.14776,0.0299071,0.223395,5,0.1,12,2.4,0.792238,-0.497578,0.605095,-0.715511,0.010857,-0.00428557,-0.122666,-0.0998825,0.00926852,0.0139661,2.71977,5,0.1,13,2.4,0.181337,0.0359766,0.677853,-0.12113,0.386599,0.0588179,0.0360012,-0.960799,-0.0626445,0.0106945,3.2079,5,0.1,14,2.4,-4.2,1.5,0.954979,-0.0121117,0,0.0963539,-0.154734,0,-0.10848,0.0108523,1.89613,5,0.1,15,2.4,-1.85225,4.84132,0.549924,0.866026,-0.271595,-0.0184491,0,-0.49758,0.0690818,0.0111609,2.22201,5,0.1,16,2.4,5.09206,0.149472,0.500004,-0.0683427,-0.314436,-2.23517e-05,-0.0705719,0.813141,8.9407e-05,0.00817212,0.416693,5,0.1,17,2.4,-5.36031,-4.42687,0.622882,-0.034833,0.866032,-0.020127,0.0212193,-0.000238419,0.0155568,0.058952,2.30235,5,0.1,18,2.4,-2.01222,4.63758,0.690138,0.0143528,-0.116432,0.0801563,0.311613,-0.851631,0.280946,0.008171,0.32429,5,0.1,19,2.4,-3.08194,-3.77402,0.590734,0.462085,0.0243604,0.00940412,0.690222,-0.0272989,-0.0105798,0.0164655,0.135188,5,0.1,20,2.4,-5.11392,-0.479362,0.50001,0.169408,0.465544,-4.91738e-05,-0.202417,0.880554,0.000149012,0.0178409,1.22657,5,0.1,21,2.4,0.72934,-4.18421,0.738143,0.108433,0.257456,0.0126898,0.114232,0.317335,-0.0089407,0.00972251,0.170444,5,0.1,22,2.4,1.50473,4.43975,1.21192,-0.00592768,-0.1858,0.172532,0.00494719,0.584364,-0.145376,0.0447108,0.412544,5,0.1,23,2.4,1.47729,-2.89043,0.518972,-0.345495,0.0803649,-0.0868335,0.204563,0.33915,0.223428,0.0117323,0.332034,5,0.1,24,2.4,-0.0387339,3.77416,0.586302,0.227867,-0.25565,0.0138357,-0.460447,-0.121832,-0.0149012,0.00600429,0.624048,5,0.1,25,2.4,1.68212,-0.493101,0.589707,-0.6199,-0.0426657,0.00823587,0.138879,0.251606,0.00178814,0.0148577,0.137516,5,0.1,26,2.4,1.65727,1.60763,1.30107,-0.0114948,-0.038442,0.29954,0.0115037,0.173032,-0.239611,0.0147971,0.193741,5,0.1,27,2.4,0.269778,1.4,0.7,-0.112123,-0.108394,0.00271499,-0.0568479,-0.780821,0.020355,0.0138858,3.09665,5,0.1,28,2.4,0.620291,-2.15412,0.591211,0.36658,-0.247771,0.00943244,-0.21106,0.269175,-0.012666,0.00943146,0.155619,5,0.1,29,2.4,1.73148,-3.17646,0.713167,-0.457102,-0.302196,-0.015077,0.0583529,0.103354,-0.0351965,0.0080236,0.225885,5,0.1
0,2.5,-0.167841,3.46477,0.6059,-0.284179,0.284404,-0.00594389,0.286907,-0.0763386,0.00597537,0.0186884,0.134141,5,0.1,1,2.5,-0.101923,1.54745,0.500015,0.0417968,-0.374906,-5.85802e-05,0.44706,-1.32293,7.07805e-05,0.0318916,2.97322,5,0.1,2,2.5,-4.23495,-0.541008,0.504124,-0.65272,-0.0220481,-0.0222253,-0.00780821,-0.0831112,0.0765026,0.00951249,0.565771,5,0.1,3,2.5,2.33643,-5.42382,0.600318,-0.303085,0.087966,-0.000420492,0.188306,-0.156105,0.000271946,0.024579,0.211824,5,0.1,4,2.5,-0.252439,2.00906,0.56952,0.866025,-0.0256456,0.0132357,0,0.00178814,-0.000927597,0.029416,2.27138,5,0.1,5,2.5,-3.30111,-0.83299,1.12585,0.000994653,0.850249,0.204888,-0.000745058,0.121024,-0.165254,0.0229955,2.27832,5,0.1,6,2.5,-1.89162,-1.81382,0.595676,-0.132042,0.866025,0.00308137,-0.0253767,1.49012e-05,-0.000782311,0.0476556,2.02287,5,0.1,7,2.5,0.105816,-0.595408,0.510782,-0.129831,0.49619,-0.00794083,0.111926,-0.41293,0.00860542,0.0200797,0.118269,5,0.1,8,2.5,3.09437,1.89391,0.602751,-0.795599,0.055363,-0.00272617,0.261664,-0.0522435,0.0025779,0.0220849,0.473396,5,0.1,9,2.5,-3.40316,-1.7612,0.655266,0.284649,0.758995,0.101695,-0.543565,0.925422,0.557151,0.0365904,2.43847,5,0.1,10,2.5,-0.341203,1.30073,0.600055,0.014211,-0.755767,-5.78351e-05,-0.258308,-1.04341,0.000100583,0.00876673,2.43163,5,0.1,11,2.5,-2.24447,4.06289,1.23294,-0.00560209,-0.360373,0.117921,0.00590086,0.198007,-0.123866,0.0299071,0.223395,5,0.1,12,2.5,0.72001,-0.497165,0.604737,-0.728747,-0.00628363,-0.00266954,-0.10575,-0.312775,0.0214055,0.0139661,2.71977,5,0.1,13,2.5,0.169278,0.0703432,0.683407,-0.12101,0.308815,0.0521089,-0.0219084,-0.489541,-0.0710152,0.0106945,3.2079,5,0.1,14,2.5,-4.20217,1.5,0.964108,-0.0326358,0,0.0865252,-0.238985,0,-0.0909306,0.0108523,1.89613,5,0.1,15,2.5,-1.76565,4.81131,0.548453,0.865875,-0.331018,-0.0107666,-0.00603497,-0.641912,0.0813976,0.0111609,2.22201,5,0.1,16,2.5,5.08488,0.121834,0.500002,-0.0751682,-0.242162,-1.46218e-05,-0.0613034,0.58885,7.07805e-05,0.00817212,0.416693,5,0.1,17,2.5,-5.36329,-4.34027,0.620945,-0.0213847,0.866023,-0.0186175,0.223398,2.98023e-05,0.0150874,0.058952,2.30235,5,0.1,18,2.5,-2.01,4.62193,0.699627,0.0231631,-0.193638,0.109893,-0.0961125,-0.677645,0.297554,0.008171,0.32429,5,0.1,19,2.5,-3.03291,-3.77171,0.591625,0.512267,0.0218853,0.00844533,0.31355,-0.022918,-0.00887737,0.0164655,0.135188,5,0.1,20,2.5,-5.09808,-0.429414,0.500006,0.146673,0.523971,-3.48315e-05,-0.247389,0.313824,0.00013411,0.0178409,1.22657,5,0.1,21,2.5,0.740641,-4.15681,0.739373,0.116427,0.290716,0.0119416,0.0449121,0.323147,-0.00660121,0.00972251,0.170444,5,0.1,22,2.5,1.50417,4.42405,1.22845,-0.0054257,-0.129572,0.15782,0.00516325,0.514239,-0.151083,0.0447108,0.412544,5,0.1,23,2.5,1.44353,-2.88056,0.51142,-0.331745,0.11809,-0.0642043,0.0933334,0.392586,0.224009,0.0117323,0.332034,5,0.1,24,2.5,-0.0180494,3.74945,0.587543,0.187624,-0.225917,0.0104357,-0.352145,0.637546,-0.0489317,0.00600429,0.624048,5,0.1,25,2.5,1.62097,-0.496185,0.590537,-0.601184,-0.0198029,0.00832872,0.246428,0.20445,-0.000145286,0.0148577,0.137516,5,0.1,26,2.5,1.65618,1.60467,1.32987,-0.0104271,-0.0211228,0.276917,0.0101626,0.151634,-0.221208,0.0147971,0.193741,5,0.1,27,2.5,0.257634,1.38408,0.700379,-0.136019,-0.219155,0.0048819,-0.374029,-1.33205,0.0219159,0.0138858,3.09665,5,0.1,28,2.5,0.656173,-2.17776,0.5921,0.353182,-0.226668,0.00841366,-0.0829287,0.167713,-0.00825897,0.00943146,0.155619,5,0.1,29,2.5,1.68603,-3.20619,0.711494,-0.451636,-0.292443,-0.0182526,0.0692084,0.102416,-0.0273138,0.0080236,0.225885,5,0.1
0,2.6,-0.194848,3.49282,0.605335,-0.256044,0.276321,-0.00535846,0.282243,-0.0977516,0.00593066,0.00947004,0.176582,5,0.1,1,2.6,-0.0960032,1.50367,0.50001,0.0720428,-0.496203,-4.91738e-05,0.173643,-1.05548,0.000149012,0.0202145,2.65356,5,0.1,2,2.6,-4.3,-0.543582,0.502271,-0.645721,-0.0289306,-0.0150099,0.146866,-0.0534654,0.0668466,0.010055,0.402695,5,0.1,3,2.6,2.3071,-5.41585,0.600277,-0.282973,0.0709057,-0.00039041,0.220895,-0.180483,0.000298023,0.0264796,0.19603,5,0.1,4,2.6,-0.165837,2.00651,0.570837,0.866025,-0.025332,0.0130743,0,0.00572205,-0.00292063,0.0139658,2.27141,5,0.1,5,2.6,-3.30101,-0.747321,1.14548,0.000911951,0.862315,0.18726,-0.000834465,0.074178,-0.1899,0.012179,0.620104,5,0.1,6,2.6,-1.90491,-1.72722,0.595979,-0.133145,0.866026,0.00298768,0.00834465,0,-0.0012219,0.0198651,1.58714,5,0.1,7,2.6,0.0933932,-0.547862,0.51003,-0.118539,0.454354,-0.00710785,0.116725,-0.434786,0.00825524,0.0105148,0.136832,5,0.1,8,2.6,3.01629,1.89919,0.602491,-0.763756,0.0501931,-0.0024721,0.396848,-0.0524521,0.0026226,0.0121688,0.323582,5,0.1,9,2.6,-3.37748,-1.68127,0.668211,0.228548,0.832856,0.15645,-0.568748,0.5216,0.512064,0.0212212,2.08873,5,0.1,10,2.6,-0.341109,1.22074,0.600049,-0.0123911,-0.835586,-5.06639e-05,-0.262246,-0.536144,0.000119209,0.00868845,2.26629,5,0.1,11,2.6,-2.245,4.02796,1.24412,-0.00503063,-0.336957,0.105873,0.00584126,0.274658,-0.119805,0.0259718,0.574156,5,0.1,12,2.6,0.646877,-0.5,0.604586,-0.730549,-0.0565469,-0.000299513,0.0944734,-0.671118,0.0247657,0.0163669,2.54518,5,0.1,13,2.6,0.157051,0.1,0.688252,-0.12348,0.296116,0.0447214,-0.0188649,0.204485,-0.0762641,0.00936657,2.95703,5,0.1,14,2.6,-4.20665,1.5,0.972316,-0.056982,0,0.0776812,-0.235319,0,-0.0879467,0.011411,0.283512,5,0.1,15,2.6,-1.67914,4.77509,0.547782,0.863612,-0.391507,-0.00272691,-0.0482202,-0.531912,0.0770688,0.0102289,1.7485,5,0.1,16,2.6,5.0771,0.1,0.500001,-0.0798225,-0.200015,-8.9407e-06,-0.0286102,0.264108,5.96046e-05,0.00750788,0.350843,5,0.1,17,2.6,-5.36414,-4.25367,0.619161,0.00549555,0.866032,-0.017035,0.295162,-0.000238419,0.0168383,0.0562796,2.50721,5,0.1,18,2.6,-2.00857,4.59957,0.712022,0.00218153,-0.249565,0.136881,-0.292301,-0.431538,0.23067,0.00984419,0.277309,5,0.1,19,2.6,-2.98073,-3.76963,0.592427,0.525171,0.0196576,0.00758171,-0.0517368,-0.0222921,-0.00858307,0.014613,0.121396,5,0.1,20,2.6,-5.08469,-0.376209,0.500003,0.120831,0.533057,-2.23517e-05,-0.26536,-0.110462,0.000119209,0.0192772,1.06559,5,0.1,21,2.6,0.75239,-4.12628,0.740534,0.11736,0.317872,0.0112712,-0.0261068,0.203133,-0.00721216,0.00906965,0.108029,5,0.1,22,2.6,1.50365,4.41339,1.24345,-0.00488162,-0.0866771,0.141969,0.00572205,0.332594,-0.16731,0.0433842,0.580235,5,0.1,23,2.6,1.41079,-2.86685,0.506086,-0.322866,0.154942,-0.0429064,0.10103,0.327826,0.198394,0.0130078,0.368264,5,0.1,24,2.6,-0.000920815,3.73077,0.588314,0.156064,-0.142306,0.0047937,-0.285071,0.972152,-0.0606775,0.00575988,0.363167,5,0.1,25,2.6,1.56234,-0.497229,0.591364,-0.568914,-0.00195205,0.00817329,0.405192,0.152007,-0.00312924,0.0133621,0.168555,5,0.1,26,2.6,1.65519,1.60315,1.35643,-0.00940561,-0.0111818,0.253904,0.0103712,0.0383258,-0.244617,0.0145631,0.272833,5,0.1,27,2.6,0.241957,1.35529,0.700972,-0.17863,-0.356826,0.00691563,-0.442237,-1.34408,0.0180006,0.0127155,2.65433,5,0.1,28,2.6,0.691113,-2.19965,0.592903,0.345489,-0.211644,0.00768602,-0.090003,0.143766,-0.00670552,0.0100316,0.0918032,5,0.1,29,2.6,1.64135,-3.23485,0.709552,-0.440207,-0.279915,-0.0203758,0.171661,0.15521,-0.0144839,0.00865871,0.153089,5,0.1
0,2.7,-0.21899,3.52028,0.604824,-0.226313,0.275311,-0.00489457,0.310897,0.0493079,0.00366941,0.00947004,0.176582,5,0.1,1,2.7,-0.0886732,1.44925,0.500006,0.0681185,-0.586908,-3.47383e-05,-0.213459,-0.736646,0.000137836,0.0202145,2.65356,5,0.1,2,2.7,-4.36399,-0.54672,0.501081,-0.634693,-0.0335624,-0.00903858,0.104338,-0.0378154,0.052195,0.010055,0.402695,5,0.1,3,2.7,2.27987,-5.40967,0.60024,-0.261622,0.0527255,-0.000361074,0.212654,-0.17938,0.000301749,0.0264796,0.19603,5,0.1,4,2.7,-0.0792342,2.00399,0.572135,0.866025,-0.0250302,0.0129213,4.47035e-07,0.00178814,-0.000905246,0.0139658,2.27141,5,0.1,5,2.7,-3.30093,-0.660901,1.16333,0.0008367,0.864176,0.17039,-0.000685453,-0.0434294,-0.153996,0.012179,0.620104,5,0.1,6,2.7,-1.9182,-1.64062,0.596273,-0.13257,0.865939,0.002883,0.00907481,-0.00347942,-0.000998378,0.0198651,1.58714,5,0.1,7,2.7,0.0820297,-0.504243,0.509354,-0.109481,0.420891,-0.00646161,0.0715591,-0.262141,0.00510737,0.0105148,0.136832,5,0.1,8,2.7,2.94177,1.90397,0.602256,-0.727043,0.0454308,-0.00223396,0.363469,-0.0442937,0.0022091,0.0121688,0.323582,5,0.1,9,2.7,-3.35684,-1.59618,0.685742,0.189729,0.86218,0.187943,-0.239074,0.118375,0.138488,0.0212212,2.08873,5,0.1,10,2.7,-0.34372,1.13543,0.600045,-0.0401268,-0.863215,-4.05125e-05,-0.280138,-0.0942647,8.56817e-05,0.00868845,2.26629,5,0.1,11,2.7,-2.24547,3.99593,1.25415,-0.00450499,-0.300991,0.0950688,0.00481308,0.431135,-0.0994876,0.0259718,0.574156,5,0.1,12,2.7,0.573672,-0.509744,0.604659,-0.738102,-0.143889,0.00155186,-0.179961,-1.00675,0.0128709,0.0163669,2.54518,5,0.1,13,2.7,0.144531,0.132119,0.692355,-0.127411,0.358253,0.0374487,-0.0493824,0.926529,-0.0694096,0.00936657,2.95703,5,0.1,14,2.7,-4.21378,1.5,0.979713,-0.0873886,0,0.0708239,-0.347346,0,-0.0539944,0.011411,0.283512,5,0.1,15,2.7,-1.59281,4.73318,0.547897,0.864019,-0.446892,0.00498965,0.0171736,-0.537276,0.0748709,0.0102289,1.7485,5,0.1,16,2.7,5.06898,0.0806903,0.5,-0.0824191,-0.191454,-4.56348e-06,-0.0195801,-0.0532926,3.35276e-05,0.00750788,0.350843,5,0.1,17,2.7,-5.36188,-4.16707,0.617539,0.0418216,0.86583,-0.0154193,0.41151,-0.007689,0.015799,0.0562796,2.50721,5,0.1,18,2.7,-2.00974,4.57372,0.726252,-0.0245441,-0.2562,0.142311,-0.237688,0.23824,-0.0944063,0.00984419,0.277309,5,0.1,19,2.7,-2.92861,-3.76777,0.593145,0.515831,0.0176478,0.0068075,-0.1463,-0.0185221,-0.00713393,0.014613,0.121396,5,0.1,20,2.7,-5.07393,-0.324315,0.500001,0.0943631,0.49806,-1.22003e-05,-0.260651,-0.519236,8.56817e-05,0.0192772,1.06559,5,0.1,21,2.7,0.763828,-4.09353,0.741627,0.109892,0.336052,0.0106065,-0.116672,0.145108,-0.0064522,0.00906965,0.108029,5,0.1,22,2.7,1.50319,4.40614,1.25683,-0.00433158,-0.0619188,0.125909,0.00535697,0.118256,-0.155985,0.0433842,0.580235,5,0.1,23,2.7,1.37887,-2.84954,0.502722,-0.316245,0.192332,-0.0250968,0.0495091,0.392631,0.155848,0.0130078,0.368264,5,0.1,24,2.7,0.0137016,3.72146,0.588478,0.140143,-0.043831,-0.00157608,-0.0589507,0.969082,-0.0642724,0.00575988,0.363167,5,0.1,25,2.7,1.50732,-0.496722,0.592165,-0.532363,0.0114682,0.00783363,0.345625,0.115542,-0.00384822,0.0133621,0.168555,5,0.1,26,2.7,1.6543,1.60211,1.38059,-0.00837445,-0.0121282,0.228962,0.0103265,-0.0984892,-0.256024,0.0145631,0.272833,5,0.1,27,2.7,0.221618,1.31248,0.701754,-0.229852,-0.501224,0.00871243,-0.544874,-1.46329,0.017073,0.0127155,2.65433,5,0.1,28,2.7,0.725303,-2.22019,0.593642,0.338784,-0.199715,0.00712937,-0.0610501,0.104681,-0.004787,0.0100316,0.0918032,5,0.1,29,2.7,1.59815,-3.26211,0.707449,-0.423895,-0.265315,-0.0215909,0.169531,0.145659,-0.00901148,0.00865871,0.153089,5,0.1
0,2.8,-0.240031,3.54811,0.604352,-0.194182,0.281274,-0.00456721,0.330053,0.048995,0.00309944,0.00897466,0.126861,5,0.1,1,2.8,-0.0833041,1.38755,0.500003,0.0362964,-0.640079,-2.23517e-05,-0.392199,-0.314295,0.000119209,0.0203797,2.38551,5,0.1,2,2.8,-4.4268,-0.55023,0.500411,-0.61965,-0.0362769,-0.0046134,0.217915,-0.015676,0.0362396,0.00689627,0.283435,5,0.1,3,2.8,2.2548,-5.40527,0.600205,-0.239354,0.0356674,-0.000329316,0.236869,-0.159502,0.000327826,0.0237088,0.4086,5,0.1,4,2.8,0.00736829,2.0015,0.573421,0.866025,-0.024718,0.0127614,-1.19209e-06,0.00548363,-0.00280142,0.011195,2.27409,5,0.1,5,2.8,-3.30085,-0.575012,1.17961,0.0007689,0.849728,0.155348,-0.000715256,-0.277996,-0.151575,0.0107414,0.413263,5,0.1,6,2.8,-1.93137,-1.55407,0.596556,-0.130332,0.864631,0.00276566,0.0397563,-0.0277758,-0.00137091,0.0178392,1.21028,5,0.1,7,2.8,0.0714127,-0.463366,0.508731,-0.102992,0.397119,-0.00600964,0.0634752,-0.23368,0.00423193,0.00960234,0.0797263,5,0.1,8,2.8,2.87101,1.90829,0.602044,-0.686681,0.0410765,-0.00201762,0.461698,-0.043869,0.00217557,0.0119269,0.21846,5,0.1,9,2.8,-3.33873,-1.50967,0.704754,0.175118,0.866026,0.188012,-0.0778437,-5.96046e-05,-0.119179,0.0184308,1.2624,5,0.1,10,2.8,-0.34908,1.0489,0.600041,-0.0662901,-0.866026,-3.27826e-05,-0.234172,2.98023e-05,5.96046e-05,0.00823363,1.78571,5,0.1,11,2.8,-2.2459,3.96816,1.26317,-0.00404119,-0.253218,0.0854194,0.00476837,0.512958,-0.0957251,0.0252893,0.569576,5,0.1,12,2.8,0.498951,-0.529252,0.604863,-0.755186,-0.245811,0.00238568,-0.113757,-0.979781,0.00438094,0.0145084,2.3331,5,0.1,13,2.8,0.131563,0.173011,0.695763,-0.131573,0.461735,0.0308037,-0.0263938,1.05798,-0.063628,0.011352,2.70494,5,0.1,14,2.8,-4.22427,1.5,0.98655,-0.122011,0,0.0660479,-0.325918,0,-0.0451207,0.0107853,0.249165,5,0.1,15,2.8,-1.50647,4.68605,0.54875,0.860831,-0.492394,0.011839,-0.103891,-0.345945,0.0603795,0.00997303,1.4793,5,0.1,16,2.8,5.06068,0.061023,0.5,-0.0831246,-0.203663,-1.49012e-06,0.00786781,-0.16039,0,0.00740846,0.279047,5,0.1,17,2.8,-5.35558,-4.08059,0.616077,0.0841856,0.862932,-0.0138193,0.419617,-0.0617504,0.0163913,0.05402,2.46396,5,0.1,18,2.8,-2.01326,4.54999,0.739662,-0.0446498,-0.212765,0.122966,-0.161886,0.582933,-0.270486,0.0110459,0.138128,5,0.1,19,2.8,-2.87798,-3.7661,0.593791,0.494134,0.0158548,0.00611544,-0.294328,-0.0178814,-0.00685453,0.0128667,0.159755,5,0.1,20,2.8,-5.06577,-0.277334,0.5,0.0692725,0.440384,-5.96046e-06,-0.238419,-0.592768,5.96046e-05,0.0191101,0.967472,5,0.1,21,2.8,0.774129,-4.0594,0.742654,0.0952438,0.344336,0.00991672,-0.170708,0.0109673,-0.00753999,0.00930652,0.0925056,5,0.1,22,2.8,1.50278,4.4,1.26865,-0.0037998,-0.0660539,0.110427,0.00536442,-0.187159,-0.155091,0.0590226,0.990475,5,0.1,23,2.8,1.34753,-2.82842,0.50091,-0.309867,0.228751,-0.0119776,0.0910163,0.315785,0.106126,0.0127711,1.47459,5,0.1,24,2.8,0.0276209,3.72173,0.58801,0.139734,0.0466406,-0.00763834,0.0309807,0.819802,-0.0551641,0.00626013,0.351311,5,0.1,25,2.8,1.45585,-0.495064,0.592927,-0.496435,0.021036,0.00737309,0.386596,0.0754893,-0.00548363,0.0147298,0.224396,5,0.1,26,2.8,1.65351,1.6,1.40217,-0.00732839,-0.0338048,0.202441,0.0106692,-0.323117,-0.275314,0.0174827,0.212745,5,0.1,27,2.8,0.195991,1.25539,0.702703,-0.281143,-0.635618,0.0101849,-0.453665,-1.16652,0.0117123,0.0129477,2.41714,5,0.1,28,2.8,0.758811,-2.23963,0.594332,0.330403,-0.18903,0.00666529,-0.118375,0.11611,-0.00476837,0.00853974,0.202517,5,0.1,29,2.8,1.5567,-3.28787,0.705259,-0.403801,-0.249296,-0.0220478,0.242412,0.180721,0.000447035,0.00916197,0.10243,5,0.1
0,2.9,-0.257746,3.57657,0.603908,-0.15975,0.288334,-0.00431146,0.353079,0.0737906,0.00223517,0.00897466,0.126861,5,0.1,1,2.9,-0.0815979,1.32272,0.500001,-0.00158633,-0.649266,-1.21072e-05,-0.357323,0.118278,8.9407e-05,0.0203797,2.38551,5,0.1,2,2.9,-4.48778,-0.553923,0.500104,-0.6004,-0.0374294,-0.00177901,0.191897,-0.00626221,0.0210553,0.00689627,0.283435,5,0.1,3,2.9,2.23203,-5.40254,0.600174,-0.216388,0.0188231,-0.000297185,0.226602,-0.164866,0.0003241,0.0237088,0.4086,5,0.1,4,2.9,0.0939708,1.99889,0.574681,0.866025,-0.0287712,0.0124143,7.45058e-07,-0.0754446,-0.00444427,0.011195,2.27409,5,0.1,5,2.9,-3.30077,-0.491407,1.19445,0.000705197,0.82189,0.141842,-0.000581145,-0.30561,-0.123888,0.0107414,0.413263,5,0.1,6,2.9,-1.94416,-1.46761,0.596826,-0.125109,0.86493,0.0026416,0.0661314,0.00490248,-0.00121444,0.0178392,1.21028,5,0.1,7,2.9,0.0613917,-0.424674,0.508149,-0.0976998,0.377723,-0.00566281,0.0470544,-0.172473,0.00299513,0.00960234,0.0797263,5,0.1,8,2.9,2.80452,1.9122,0.601852,-0.64387,0.0371087,-0.00182092,0.4161,-0.0367463,0.00181794,0.0119269,0.21846,5,0.1,9,2.9,-3.3213,-1.42308,0.722817,0.175991,0.865623,0.171944,0.071153,-0.0160784,-0.19706,0.0184308,1.2624,5,0.1,10,2.9,-0.356651,0.962295,0.600038,-0.0829793,-0.866025,-2.80328e-05,-0.104219,-3.72529e-06,4.09782e-05,0.00823363,1.78571,5,0.1,11,2.9,-2.24628,3.94547,1.27127,-0.00361502,-0.199961,0.0768175,0.0038743,0.541031,-0.0789836,0.0252893,0.569576,5,0.1,12,2.9,0.422467,-0.559008,0.605112,-0.776953,-0.350601,0.00250898,-0.262955,-1.05894,-0.00146031,0.0145084,2.3331,5,0.1,13,2.9,0.118386,0.224132,0.698616,-0.130851,0.556505,0.0270337,0.0397666,0.808345,-0.0167862,0.011352,2.70494,5,0.1,14,2.9,-4.23812,1.5,0.992959,-0.154915,0,0.0623544,-0.315636,0,-0.0319369,0.0107853,0.249165,5,0.1,15,2.9,-1.42068,4.63493,0.550228,0.856012,-0.530662,0.0175924,-0.0378788,-0.379354,0.0528805,0.00997303,1.4793,5,0.1,16,2.9,5.05241,0.0395813,0.5,-0.0822268,-0.227127,-4.65661e-07,0.0130832,-0.278625,1.11759e-05,0.00740846,0.279047,5,0.1,17,2.9,-5.34542,-3.99435,0.614773,0.116224,0.863381,-0.0122821,0.253469,0.032559,0.0146329,0.05402,2.46396,5,0.1,18,2.9,-2.01843,4.532,0.750414,-0.0577405,-0.144196,0.0905666,-0.0995994,0.754535,-0.361521,0.0110459,0.138128,5,0.1,19,2.9,-2.8299,-3.76459,0.59437,0.468473,0.0142481,0.00549918,-0.238642,-0.0147372,-0.00565872,0.0128667,0.159755,5,0.1,20,2.9,-5.05999,-0.236148,0.5,0.0465684,0.384439,-1.21072e-06,-0.213414,-0.526594,4.09782e-05,0.0191101,0.967472,5,0.1,21,2.9,0.782749,-4.02489,0.743612,0.0767688,0.345653,0.00925101,-0.194129,-0.000908971,-0.00616163,0.00930652,0.0925056,5,0.1,22,2.9,1.50243,4.39197,1.27895,-0.00329837,-0.0985317,0.0959294,0.00472367,-0.426024,-0.136755,0.0590226,0.990475,5,0.1,23,2.9,1.31658,-2.80346,0.50016,-0.312402,0.274256,-0.00381386,-0.105724,0.54355,0.0587516,0.0127711,1.47459,5,0.1,24,2.9,0.0415953,3.72981,0.586981,0.138303,0.108674,-0.0128013,-0.0560602,0.436604,-0.046771,0.00626013,0.351311,5,0.1,25,2.9,1.40785,-0.492622,0.593637,-0.465737,0.0273989,0.00683647,0.253566,0.0510849,-0.00540912,0.0147298,0.224396,5,0.1,26,2.9,1.65283,1.59475,1.42106,-0.00629835,-0.0729663,0.175524,0.00996888,-0.432737,-0.264093,0.0174827,0.212745,5,0.1,27,2.9,0.165418,1.18676,0.703782,-0.331272,-0.729178,0.0113927,-0.511843,-0.691563,0.0115559,0.0129477,2.41714,5,0.1,28,2.9,0.79091,-2.25799,0.594977,0.308409,-0.178339,0.00623735,-0.309389,0.104085,-0.00402704,0.00853974,0.202517,5,0.1,29,2.9,1.51748,-3.31194,0.70306,-0.380983,-0.232432,-0.0218917,0.226341,0.163943,0.00334531,0.00916197,0.10243,5,0.1
0,3,-0.271956,3.60569,0.603489,-0.12456,0.292891,-0.00408441,0.346273,0.00452995,0.00247359,0.00828886,0.133522,5,0.1,1,3,-0.0834305,1.25901,0.5,-0.0337932,-0.618958,-4.47035e-06,-0.2812,0.474751,2.98023e-05,0.0183052,2.39437,5,0.1,2,3,-4.54674,-0.557675,0.500011,-0.577092,-0.0373513,-0.000275671,0.291109,0.00852346,0.00962615,0.00794563,0.21712,5,0.1,3,3,2.21153,-5.40141,0.600146,-0.193357,0.00468493,-0.000263751,0.23675,-0.110149,0.000298023,0.0227642,0.784445,5,0.1,4,3,0.180573,1.99558,0.575895,0.866025,-0.037846,0.0118241,0,-0.0975132,-0.00753999,0.0143763,2.27068,5,0.1,5,3,-3.3007,-0.41097,1.20802,0.00064373,0.784151,0.129655,-0.000476837,-0.466839,-0.12362,0.0131153,0.272409,5,0.1,6,3,-1.95629,-1.38123,0.597084,-0.116894,0.861028,0.00250638,0.0987649,-0.100017,-0.00154972,0.0178642,0.890089,5,0.1,7,3,0.0518612,-0.387785,0.507597,-0.0927792,0.359511,-0.00536144,0.0546798,-0.204653,0.00324845,0.0101291,0.0621815,5,0.1,8,3,2.74228,1.91573,0.601679,-0.599831,0.0335157,-0.0016436,0.479698,-0.0360608,0.00178814,0.0114456,0.17178,5,0.1,9,3,-3.30326,-1.33673,0.738933,0.18512,0.859591,0.149567,0.0933409,-0.128746,-0.245899,0.0190791,0.933683,5,0.1,10,3,-0.365288,0.875692,0.600036,-0.0880346,-0.866026,-2.38419e-05,-0.0012666,0,2.98023e-05,0.00892626,0.176669,5,0.1,11,3,-2.24663,3.92815,1.27857,-0.00324249,-0.146967,0.0691622,0.00369549,0.510335,-0.0760555,0.024663,0.56574,5,0.1,12,3,0.343605,-0.599108,0.60535,-0.797711,-0.447777,0.00217557,-0.110224,-0.843436,-0.00476837,0.0129239,2.16181,5,0.1,13,3,0.105601,0.283218,0.701279,-0.123873,0.618675,0.0265554,0.0983253,0.41683,0.00330806,0.0101224,2.82636,5,0.1,14,3,-4.25506,1.5,0.999035,-0.182343,0,0.0591159,-0.221252,0,-0.0351667,0.0108577,0.221376,5,0.1,15,3,-1.33546,4.58018,0.552227,0.845551,-0.561428,0.0221103,-0.203073,-0.207424,0.0362694,0.00926069,1.06385,5,0.1,16,3,5.04428,0.0154848,0.5,-0.0800014,-0.254133,0,0.0331402,-0.239218,0,0.0069383,0.215896,5,0.1,17,3,-5.33261,-3.90793,0.613617,0.139606,0.863606,-0.0108436,0.228643,-0.0485182,0.0142753,0.0662422,2.41938,5,0.1,18,3,-2.0246,4.52141,0.757622,-0.0645697,-0.0678062,0.0534818,-0.0371933,0.747442,-0.368029,0.0102875,0.0958054,5,0.1,19,3,-2.78428,-3.76324,0.594893,0.443041,0.012821,0.00495017,-0.283718,-0.0140667,-0.00542402,0.0143369,0.554779,5,0.1,20,3,-5.05635,-0.200234,0.5,0.0269532,0.334851,1.49012e-06,-0.176907,-0.466875,2.98023e-05,0.0163169,0.907394,5,0.1,21,3,0.789449,-3.99046,0.744505,0.0572518,0.341451,0.00861734,-0.192523,-0.0941753,-0.00676513,0.0106721,0.145998,5,0.1,22,3,1.50212,4.37984,1.28788,-0.00284314,-0.14478,0.0827491,0.00441074,-0.470161,-0.12821,0.0443889,1.19183,5,0.1,23,3,1.28473,-2.77328,0.500007,-0.324726,0.3286,0.000177324,-0.113964,0.505686,0.0234842,0.0135718,0.841554,5,0.1,24,3,0.0550263,3.74234,0.58549,0.129211,0.136971,-0.0167713,-0.122426,0.143528,-0.0317693,0.00788951,0.384006,5,0.1,25,3,1.3625,-0.489671,0.594293,-0.4412,0.0311576,0.00626445,0.25624,0.0237972,-0.00613928,0.0162952,0.163037,5,0.1,26,3,1.65225,1.5853,1.43731,-0.00532568,-0.115579,0.149465,0.00953674,-0.399172,-0.257671,0.0180545,0.195413,5,0.1,27,3,0.129886,1.11125,0.704973,-0.377147,-0.772142,0.0123456,-0.379074,-0.162899,0.00685453,0.0119428,2.41254,5,0.1,28,3,0.819973,-2.27528,0.59558,0.270808,-0.167149,0.0058189,-0.431895,0.123978,-0.00450015,0.0115301,0.190776,5,0.1,29,3,1.48057,-3.33434,0.700897,-0.356454,-0.215268,-0.0212699,0.272632,0.184536,0.00953674,0.0109399,0.116959,5,0.1
0,3.1,-0.282722,3.6351,0.60309,-0.0912767,0.29585,-0.0038906,0.316026,0.0356287,0.00162795,0.00828886,0.133522,5,0.1,1,3.1,-0.0873577,1.19986,0.5,-0.0372973,-0.560651,-1.02445e-06,0.166904,0.678174,2.6077e-05,0.0183052,2.39437,5,0.1,2,3.1,-4.60277,-0.561206,0.50002,-0.541413,-0.0318918,0.00034757,0.42057,0.0917241,0.00329316,0.00794563,0.21712,5,0.1,3,3.1,2.19337,-5.40151,0.600121,-0.169792,-0.00593811,-0.000233389,0.235334,-0.0750422,0.000312924,0.0227642,0.784445,5,0.1,4,3.1,0.267176,1.99123,0.577042,0.866025,-0.0495946,0.0111241,-8.9407e-07,-0.128277,-0.00683218,0.0143763,2.27068,5,0.1,5,3.1,-3.30064,-0.334805,1.22042,0.000600144,0.739429,0.118603,-0.000432134,-0.450026,-0.101827,0.0131153,0.272409,5,0.1,6,3.1,-1.96738,-1.29538,0.597327,-0.103946,0.857239,0.00236379,0.155114,-0.0227019,-0.00138953,0.0178642,0.890089,5,0.1,7,3.1,0.0428155,-0.3527,0.507075,-0.0884225,0.343269,-0.0051097,0.0373122,-0.139048,0.00208244,0.0101291,0.0621815,5,0.1,8,3.1,2.68456,1.91907,0.601523,-0.55551,0.0347095,-0.00148257,0.424698,0.0490174,0.00147894,0.0114456,0.17178,5,0.1,9,3.1,-3.28415,-1.25119,0.752631,0.197956,0.852288,0.124181,0.14478,-0.0618473,-0.258453,0.0190791,0.933683,5,0.1,10,3.1,-0.373899,0.789607,0.600033,-0.08243,-0.85045,-2.14204e-05,0.104383,0.313465,1.49012e-05,0.00892626,0.176669,5,0.1,11,3.1,-2.24693,3.91596,1.28513,-0.00291355,-0.0976108,0.0623452,0.00299513,0.463694,-0.0625178,0.024663,0.56574,5,0.1,12,3.1,0.262975,-0.648214,0.605539,-0.816567,-0.534149,0.00156797,-0.212269,-0.833414,-0.00703335,0.0129239,2.16181,5,0.1,13,3.1,0.0945524,0.34658,0.703935,-0.0899516,0.642649,0.026416,0.52864,0.0624527,-0.00628084,0.0101224,2.82636,5,0.1,14,3.1,-4.27434,1.5,1.00478,-0.202335,0,0.0559034,-0.168353,0,-0.0311509,0.0108577,0.221376,5,0.1,15,3.1,-1.25178,4.52295,0.554611,0.82853,-0.582726,0.0254275,-0.173807,-0.18689,0.0286624,0.00926069,1.06385,5,0.1,16,3.1,5.03644,-0.0112187,0.5,-0.0767671,-0.280277,0,0.0340641,-0.260286,0,0.0069383,0.215896,5,0.1,17,3.1,-5.31765,-3.82161,0.612599,0.16017,0.864035,-0.00956431,0.254184,0.0214279,0.0116378,0.0662422,2.41938,5,0.1,18,3.1,-2.03117,4.51836,0.761124,-0.0662111,0.00620037,0.0167639,0.00372529,0.712156,-0.356462,0.0102875,0.0958054,5,0.1,19,3.1,-2.74082,-3.76202,0.595363,0.43096,0.0115596,0.00446364,-0.00368059,-0.0115633,-0.00447035,0.0143369,0.554779,5,0.1,20,3.1,-5.05449,-0.16922,0.5,0.0106126,0.284989,2.79397e-06,-0.148356,-0.49501,0,0.0163169,0.907394,5,0.1,21,3.1,0.794236,-3.9569,0.745333,0.0388158,0.328407,0.00792155,-0.172924,-0.170097,-0.00726059,0.0106721,0.145998,5,0.1,22,3.1,1.50186,4.36344,1.29555,-0.00243764,-0.179784,0.0709789,0.00374764,-0.263333,-0.108905,0.0443889,1.19183,5,0.1,23,3.1,1.2519,-2.73811,0.500109,-0.329851,0.37219,0.0015757,0.0149161,0.351444,0.00583008,0.0135718,0.841554,5,0.1,24,3.1,0.0671238,3.75633,0.583663,0.111097,0.139141,-0.0196346,-0.221545,-0.0833869,-0.0244491,0.00788951,0.384006,5,0.1,25,3.1,1.31948,-0.486458,0.59489,-0.420337,0.032868,0.00568321,0.181973,0.00981241,-0.00562146,0.0162952,0.163037,5,0.1,26,3.1,1.65176,1.57215,1.45101,-0.0044249,-0.143561,0.124918,0.00852346,-0.168927,-0.234,0.0180545,0.195413,5,0.1,27,3.1,0.0902454,1.03386,0.706283,-0.415233,-0.769364,0.0141897,-0.354125,0.213943,0.0267066,0.0119428,2.41254,5,0.1,28,3.1,0.844745,-2.2914,0.59614,0.223435,-0.155162,0.00539161,-0.503726,0.11979,-0.00420213,0.0115301,0.190776,5,0.1,29,3.1,1.44603,-3.35511,0.698806,-0.33625,-0.201238,-0.0206201,0.153586,0.109151,0.00473484,0.0109399,0.116959,5,0.1
0,3.2,-0.290343,3.66479,0.60271,-0.0619233,0.296789,-0.00372231,0.268742,-0.0298023,0.00193715,0.0103381,0.203889,5,0.1,1,3.2,-0.0898143,1.14743,0.5,-0.00835024,-0.485849,1.49012e-06,0.376876,0.805914,-2.98023e-05,0.0215414,2.08716,5,0.1,2,3.2,-4.65461,-0.56386,0.500064,-0.493431,-0.0206083,0.000466406,0.536442,0.126839,-0.000536442,0.0070219,0.16989,5,0.1,3,3.2,2.17757,-5.40226,0.600099,-0.146186,-0.00654459,-0.000202656,0.237226,0.0731945,0.000357628,0.023369,2.48155,5,0.1,4,3.2,0.353778,1.98564,0.578119,0.866025,-0.0619084,0.0103936,1.43051e-05,-0.111222,-0.00804663,0.0115092,2.27294,5,0.1,5,3.2,-3.30058,-0.263233,1.23178,0.000554323,0.690404,0.108537,-0.000476837,-0.545472,-0.10258,0.0111198,0.480543,5,0.1,6,3.2,-1.97694,-1.20995,0.597556,-0.0868022,0.848502,0.0022158,0.183523,-0.184953,-0.00166893,0.0187367,0.0786918,5,0.1,7,3.2,0.0341636,-0.319086,0.506574,-0.0844893,0.328486,-0.00489354,0.0447705,-0.169888,0.00244379,0.00954835,0.0283274,5,0.1,8,3.2,2.63116,1.92285,0.601382,-0.511855,0.0413835,-0.00133812,0.460744,0.0761151,0.00146031,0.0100067,0.118599,5,0.1,9,3.2,-3.26367,-1.16645,0.76376,0.210869,0.83966,0.0984892,0.100017,-0.221789,-0.252634,0.0254659,0.66774,5,0.1,10,3.2,-0.381507,0.706655,0.600031,-0.0687934,-0.803371,-1.93715e-05,0.160947,0.625789,0,0.0106938,0.0799497,5,0.1,11,3.2,-2.24721,3.90836,1.29106,-0.0026226,-0.0563085,0.0562787,0.00274181,0.354648,-0.0603795,0.0285438,0.790018,5,0.1,12,3.2,0.180455,-0.705439,0.605659,-0.83083,-0.605853,0.000831485,-0.0342512,-0.565171,-0.00742078,0.0136003,2.04374,5,0.1,13,3.2,0.0885603,0.410575,0.706529,-0.0273289,0.631497,0.0252783,0.683457,-0.281959,-0.0164509,0.0104354,2.782,5,0.1,14,3.2,-4.29526,1.5,1.01021,-0.214338,0,0.0525385,-0.0650883,0,-0.0375509,0.0109957,0.201608,5,0.1,15,3.2,-1.16999,4.46399,0.557275,0.804636,-0.593483,0.0276089,-0.329018,-0.0064373,0.0140667,0.0101018,0.741193,5,0.1,16,3.2,5.02895,-0.0404254,0.5,-0.0727773,-0.302201,0,0.0472069,-0.161663,0,0.00708411,0.167085,5,0.1,17,3.2,-5.3,-3.7352,0.611698,0.196433,0.862479,-0.00846088,0.459671,-0.0706911,0.0107288,0.0582123,2.32829,5,0.1,18,3.2,-2.03771,4.52234,0.761104,-0.0639737,0.0711322,-0.0161275,0.0399351,0.572205,-0.294477,0.010375,0.0568325,5,0.1,19,3.2,-2.69759,-3.76092,0.595787,0.434303,0.0104368,0.00403076,0.0363588,-0.0112057,-0.00435114,0.0136879,1.63794,5,0.1,20,3.2,-5.05412,-0.143027,0.500001,-0.00245571,0.241016,1.49012e-06,-0.112534,-0.368115,-2.98023e-05,0.0163769,0.826597,5,0.1,21,3.2,0.797307,-3.92506,0.746087,0.0231877,0.306964,0.00714958,-0.137687,-0.260115,-0.00822544,0.00856157,0.197772,5,0.1,22,3.2,1.50163,4.34429,1.30212,-0.00208318,-0.20237,0.0606775,0.00339746,-0.204325,-0.0984073,0.0560634,1.37703,5,0.1,23,3.2,1.21922,-2.69949,0.500276,-0.321299,0.396544,0.00158846,0.157058,0.126719,-0.00447035,0.0135851,0.737915,5,0.1,24,3.2,0.0770827,3.76957,0.581597,0.0879761,0.123358,-0.0214905,-0.228442,-0.218272,-0.0120103,0.00749819,0.410163,5,0.1,25,3.2,1.27838,-0.483149,0.59543,-0.40122,0.0330344,0.00511706,0.215232,-0.00678003,-0.00584126,0.0142954,0.116116,5,0.1,26,3.2,1.65136,1.55727,1.46236,-0.00361502,-0.151014,0.102547,0.00762939,0.0116825,-0.213921,0.0170597,0.185137,5,0.1,27,3.2,0.0471841,0.958579,0.707846,-0.44315,-0.730537,0.017105,-0.184535,0.555277,0.0290573,0.0120423,2.54657,5,0.1,28,3.2,0.864533,-2.30629,0.596658,0.172189,-0.142527,0.00495315,-0.511765,0.13566,-0.00464916,0.00919294,0.187117,5,0.1,29,3.2,1.41312,-3.37472,0.696768,-0.321904,-0.191176,-0.0201017,0.149608,0.101924,0.00649691,0.00972173,0.0680403,5,0.1
