id,t,px,py,pz,vx,vy,vz,ax,ay,az,planning_time,qp_cost,planning_report,size,id,t,px,py,pz,vx,vy,vz,ax,ay,az,planning_time,qp_cost,planning_report,size,id,t,px,py,pz,vx,vy,vz,ax,ay,az,planning_time,qp_cost,planning_report,size,id,t,px,py,pz,vx,vy,vz,ax,ay,az,planning_time,qp_cost,planning_report,size,id,t,px,py,pz,vx,vy,vz,ax,ay,az,planning_time,qp_cost,planning_report,size,id,t,px,py,pz,vx,vy,vz,ax,ay,az,planning_time,qp_cost,planning_report,size,id,t,px,py,pz,vx,vy,vz,ax,ay,az,planning_time,qp_cost,planning_report,size,id,t,px,py,pz,vx,vy,vz,ax,ay,az,planning_time,qp_cost,planning_report,size,id,t,px,py,pz,vx,vy,vz,ax,ay,az,planning_time,qp_cost,planning_report,size,id,t,px,py,pz,vx,vy,vz,ax,ay,az,planning_time,qp_cost,planning_report,size,id,t,px,py,pz,vx,vy,vz,ax,ay,az,planning_time,qp_cost,planning_report,size,id,t,px,py,pz,vx,vy,vz,ax,ay,az,planning_time,qp_cost,planning_report,size,id,t,px,py,pz,vx,vy,vz,ax,ay,az,planning_time,qp_cost,planning_report,size,id,t,px,py,pz,vx,vy,vz,ax,ay,az,planning_time,qp_cost,planning_report,size,id,t,px,py,pz,vx,vy,vz,ax,ay,az,planning_time,qp_cost,planning_report,size,id,t,px,py,pz,vx,vy,vz,ax,ay,az,planning_time,qp_cost,planning_report,size,id,t,px,py,pz,vx,vy,vz,ax,ay,az,planning_time,qp_cost,planning_report,size,id,t,px,py,pz,vx,vy,vz,ax,ay,az,planning_time,qp_cost,planning_report,size,id,t,px,py,pz,vx,vy,vz,ax,ay,az,planning_time,qp_cost,planning_report,size,id,t,px,py,pz,vx,vy,vz,ax,ay,az,planning_time,qp_cost,planning_report,size,id,t,px,py,pz,vx,vy,vz,ax,ay,az,planning_time,qp_cost,planning_report,size,id,t,px,py,pz,vx,vy,vz,ax,ay,az,planning_time,qp_cost,planning_report,size,id,t,px,py,pz,vx,vy,vz,ax,ay,az,planning_time,qp_cost,planning_report,size,id,t,px,py,pz,vx,vy,vz,ax,ay,az,planning_time,qp_cost,planning_report,size,id,t,px,py,pz,vx,vy,vz,ax,ay,az,planning_time,qp_cost,planning_report,size,id,t,px,py,pz,vx,vy,vz,ax,ay,az,planning_time,qp_cost,planning_report,size,id,t,px,py,pz,vx,vy,vz,ax,ay,az,planning_time,qp_cost,planning_report,size,id,t,px,py,pz,vx,vy,vz,ax,ay,az,planning_time,qp_cost,planning_report,size,id,t,px,py,pz,vx,vy,vz,ax,ay,az,planning_time,qp_cost,planning_report,size,id,t,px,py,pz,vx,vy,vz,ax,ay,az,planning_time,qp_cost,planning_report,size
0,0,1.89744,-2.73702,0.670265,0,0,0,0,0,0,0.015076,3.5122,5,0.1,1,0,1.60333,5.32497,0.560111,0,0,0,0,0,0,0.010691,1.19215,5,0.1,2,0,1.01466,2.72738,0.527596,0,0,0,0,0,0,0.00987881,0.676608,5,0.1,3,0,1.98531,4.31389,0.543276,0,0,0,0,0,0,0.0671917,0.573678,5,0.1,4,0,-4.33754,4.23314,0.633882,0,0,0,0,0,0,0.0157336,0.340285,5,0.1,5,0,4.19326,-2.67713,0.592328,0,0,0,0,0,0,0.0673788,3.5122,5,0.1,6,0,0.290174,2.14427,0.59719,0,0,0,0,0,0,0.0140451,3.01251,5,0.1,7,0,0.214552,-3.878,0.535613,0,0,0,0,0,0,0.0143201,0.623188,5,0.1,8,0,-2.2648,4.42955,0.578898,0,0,0,0,0,0,0.0135854,0.768506,5,0.1,9,0,0.0782595,-0.781632,0.523028,0,0,0,0,0,0,0.0137133,2.8973,5,0.1,10,0,-1.7174,-2.18844,0.696613,0,0,0,0,0,0,0.0091828,0.406166,5,0.1,11,0,1.34242,4.49076,0.574075,0,0,0,0,0,0,0.0218772,0.546085,5,0.1,12,0,4.47626,-3.98959,0.516041,0,0,0,0,0,0,0.00986626,3.03812,5,0.1,13,0,-0.883286,5.41508,0.66139,0,0,0,0,0,0,0.0270224,2.85098,5,0.1,14,0,1.55336,2.4073,0.658511,0,0,0,0,0,0,0.0274625,3.01207,5,0.1,15,0,-0.668488,-0.521394,0.588487,0,0,0,0,0,0,0.00999611,1.85613,5,0.1,16,0,-1.70859,4.05319,0.6298,0,0,0,0,0,0,0.0583006,2.21444,5,0.1,17,0,-1.71047,-0.61421,0.697212,0,0,0,0,0,0,0.0115287,2.51677,5,0.1,18,0,-0.179057,0.462173,0.625762,0,0,0,0,0,0,0.00919363,0.619064,5,0.1,19,0,-4.87213,-2.29085,0.613646,0,0,0,0,0,0,0.0305236,2.96483,5,0.1,20,0,0.480234,-4.48502,0.560145,0,0,0,0,0,0,0.0121527,3.5122,5,0.1,21,0,-2.8157,5.59391,0.692804,0,0,0,0,0,0,0.0151329,3.36565,5,0.1,22,0,0.674514,-1.88906,0.563575,0,0,0,0,0,0,0.0104183,3.5122,5,0.1,23,0,-3.89956,1.83228,0.635255,0,0,0,0,0,0,0.0104911,0.671832,5,0.1,24,0,5.08607,0.936939,0.523234,0,0,0,0,0,0,0.0143426,1.23783,5,0.1,25,0,-1.18419,4.89065,0.527139,0,0,0,0,0,0,0.022505,1.45646,5,0.1,26,0,3.50188,-3.39159,0.540671,0,0,0,0,0,0,0.020977,3.5122,5,0.1,27,0,2.87544,-5.6721,0.570607,0,0,0,0,0,0,0.00713763,0.828785,5,0.1,28,0,0.314656,2.78931,0.696549,0,0,0,0,0,0,0.0345544,3.51506,5,0.1,29,0,0.810415,-0.00630045,0.558276,0,0,0,0,0,0,0.0106888,0.567307,5,0.1
0,0.1,1.8993,-2.73607,0.670194,0.052858,0.0267357,-0.00200476,0.93969,0.475287,-0.0356436,0.015076,3.5122,5,0.1,1,0.1,1.60244,5.3249,0.560936,-0.0252882,-0.00222251,0.0234076,-0.449561,-0.0395477,0.416134,0.010691,1.19215,5,0.1,2,0.1,1.01555,2.72759,0.527587,0.0253385,0.00588261,-0.000257697,0.450455,0.104591,-0.00458583,0.00987881,0.676608,5,0.1,3,0.1,1.98528,4.31392,0.544118,-0.00104662,0.0010699,0.0239064,-0.0186041,0.0190139,0.425007,0.0671917,0.573678,5,0.1,4,0.1,-4.33693,4.23294,0.633951,0.0174142,-0.00576079,0.00195904,0.309616,-0.102401,0.0348277,0.0157336,0.340285,5,0.1,5,0.1,4.19126,-2.67653,0.592336,-0.0568159,0.0168737,0.000224262,-1.01003,0.299975,0.00398606,0.0673788,3.5122,5,0.1,6,0.1,0.289558,2.1461,0.597193,-0.0174893,0.0520293,8.31671e-05,-0.31092,0.92499,0.00147894,0.0140451,3.01251,5,0.1,7,0.1,0.214328,-3.87803,0.536463,-0.00635802,-0.000651926,0.0241337,-0.113032,-0.0115931,0.429042,0.0143201,0.623188,5,0.1,8,0.1,-2.26479,4.429,0.579703,0.000439212,-0.0156924,0.0228509,0.00779331,-0.279009,0.406243,0.0135854,0.768506,5,0.1,9,0.1,0.0791173,-0.783321,0.522951,0.0243516,-0.0479588,-0.00216402,0.432917,-0.852607,-0.0384748,0.0137133,2.8973,5,0.1,10,0.1,-1.7167,-2.18835,0.696513,0.0197779,0.00262149,-0.00286307,0.351608,0.0465959,-0.0509024,0.0091828,0.406166,5,0.1,11,0.1,1.34242,4.49061,0.574885,0.000224635,-0.00417084,0.0229938,0.00399351,-0.0741482,0.408784,0.0218772,0.546085,5,0.1,12,0.1,4.47513,-3.988,0.516065,-0.0318341,0.0449974,0.000674743,-0.565916,0.799969,0.0119917,0.00986626,3.03812,5,0.1,13,0.1,-0.883303,5.41334,0.662109,-0.00049537,-0.0493437,0.0204063,-0.00880286,-0.877202,0.36278,0.0270224,2.85098,5,0.1,14,0.1,1.55189,2.40604,0.65845,-0.0415871,-0.0357773,-0.00173394,-0.739329,-0.636056,-0.0308231,0.0274625,3.01207,5,0.1,15,0.1,-0.667148,-0.522107,0.588435,0.0380171,-0.0202221,-0.0014781,0.675861,-0.359509,-0.0262819,0.00999611,1.85613,5,0.1,16,0.1,-1.70696,4.05287,0.629769,0.0461875,-0.00898391,-0.000882987,0.821121,-0.15974,-0.0156946,0.0583006,2.21444,5,0.1,17,0.1,-1.70899,-0.613255,0.697423,0.0417978,0.0270919,0.00600927,0.743076,0.481632,0.106834,0.0115287,2.51677,5,0.1,18,0.1,-0.178244,0.461847,0.625735,0.0230867,-0.00925101,-0.000763591,0.410431,-0.164464,-0.0135712,0.00919363,0.619064,5,0.1,19,0.1,-4.87033,-2.29018,0.613632,0.0510335,0.0189908,-0.000404194,0.907302,0.337631,-0.00718981,0.0305236,2.96483,5,0.1,20,0.1,0.481255,-4.4832,0.56018,0.0289953,0.0516817,0.000987854,0.515474,0.918806,0.0175573,0.0121527,3.5122,5,0.1,21,0.1,-2.81574,5.59199,0.69349,-0.00101589,-0.0546433,0.0194755,-0.0180751,-0.971407,0.346232,0.0151329,3.36565,5,0.1,22,0.1,0.672854,-1.88779,0.563571,-0.0471223,0.0359468,-9.26666e-05,-0.837736,0.639066,-0.0016503,0.0104183,3.5122,5,0.1,23,0.1,-3.90018,1.83178,0.635688,-0.0177938,-0.0142921,0.0122907,-0.316337,-0.25408,0.218496,0.0104911,0.671832,5,0.1,24,0.1,5.08514,0.936118,0.523158,-0.0262581,-0.0233203,-0.00217045,-0.466794,-0.41458,-0.0385828,0.0143426,1.23783,5,0.1,25,0.1,-1.1842,4.88962,0.527998,-0.000468455,-0.0293568,0.0243848,-0.0083372,-0.521898,0.433505,0.022505,1.45646,5,0.1,26,0.1,3.5005,-3.39002,0.54073,-0.0391591,0.0444587,0.0016571,-0.696167,0.790372,0.0294633,0.020977,3.5122,5,0.1,27,0.1,2.87635,-5.67166,0.570638,0.0259176,0.0125088,0.000871066,0.460744,0.222355,0.015486,0.00713763,0.828785,5,0.1,28,0.1,0.314655,2.78738,0.69665,-2.34228e-05,-0.0546705,0.00288785,-0.00041537,-0.971928,0.051342,0.0345544,3.51506,5,0.1,29,0.1,0.809726,-0.00582412,0.55832,-0.0195709,0.0135221,0.00123642,-0.347923,0.240392,0.0219792,0.0106888,0.567307,5,0.1
0,0.2,1.91004,-2.73064,0.669787,0.167057,0.0844955,-0.00633597,1.25289,0.633717,-0.0475347,0.0123011,2.9258,5,0.1,1,0.2,1.59731,5.32444,0.565691,-0.0799209,-0.00702143,0.0739798,-0.599444,-0.0526905,0.55486,0.00987243,0.978095,5,0.1,2,0.2,1.0207,2.72878,0.527534,0.0800848,0.0185907,-0.000815094,0.600576,0.139356,-0.00607967,0.00776766,0.555124,5,0.1,3,0.2,1.98506,4.31414,0.548974,-0.00330806,0.00338554,0.0755578,-0.0247955,0.0252724,0.566632,0.0496587,0.472584,5,0.1,4,0.2,-4.33339,4.23177,0.634349,0.0550508,-0.0182033,0.00619292,0.412703,-0.136614,0.0464022,0.00722711,0.279188,5,0.1,5,0.2,4.17972,-2.67311,0.592381,-0.179565,0.0533283,0.000709295,-1.34659,0.399947,0.00530481,0.0429683,2.92581,5,0.1,6,0.2,0.286005,2.15667,0.59721,-0.0552751,0.164437,0.000263751,-0.41455,1.23334,0.00193715,0.00925723,2.57813,5,0.1,7,0.2,0.213036,-3.87816,0.541366,-0.020095,-0.00205636,0.0762746,-0.150695,-0.0156164,0.572056,0.0102765,0.511295,5,0.1,8,0.2,-2.2647,4.42581,0.584345,0.00138283,-0.049603,0.07222,0.0104904,-0.371695,0.541657,0.0106936,0.630528,5,0.1,9,0.2,0.0840638,-0.793063,0.522512,0.076963,-0.151573,-0.00683963,0.577223,-1.13684,-0.0512898,0.0106333,2.37709,5,0.1,10,0.2,-1.71268,-2.18782,0.695931,0.0625074,0.00828505,-0.00904948,0.468791,0.062108,-0.0678301,0.00774512,0.33324,5,0.1,11,0.2,1.34247,4.48976,0.579556,0.000712276,-0.0131845,0.0726715,0.00524521,-0.0989437,0.545055,0.0167326,0.448034,5,0.1,12,0.2,4.46867,-3.97886,0.516202,-0.100613,0.142217,0.00213236,-0.754595,1.06645,0.0160038,0.00831572,2.50959,5,0.1,13,0.2,-0.883404,5.40332,0.666254,-0.00156462,-0.15595,0.0644952,-0.0117719,-1.16968,0.483662,0.0215245,2.33908,5,0.1,14,0.2,1.54345,2.39877,0.658098,-0.131437,-0.11307,-0.00547916,-0.985742,-0.848174,-0.0411272,0.0264709,2.47125,5,0.1,15,0.2,-0.659426,-0.526214,0.588135,0.120153,-0.0639126,-0.00467151,0.901133,-0.479311,-0.0350177,0.010972,1.52287,5,0.1,16,0.2,-1.69758,4.05104,0.629589,0.145975,-0.0283957,-0.00279099,1.09482,-0.212908,-0.020951,0.0466012,1.81684,5,0.1,17,0.2,-1.7005,-0.607752,0.698644,0.132102,0.0856236,0.018993,0.990808,0.64218,0.142455,0.010357,2.03722,5,0.1,18,0.2,-0.173554,0.459967,0.62558,0.0729654,-0.0292376,-0.0024125,0.547238,-0.219285,-0.0181198,0.0123884,0.507911,5,0.1,19,0.2,-4.85997,-2.28633,0.61355,0.16129,0.0600219,-0.00127852,1.20974,0.450134,-0.00956655,0.0313858,2.43249,5,0.1,20,0.2,0.487145,-4.4727,0.560381,0.0916399,0.163341,0.00312328,0.687286,1.22499,0.0233948,0.0118705,2.9258,5,0.1,21,0.2,-2.81595,5.58089,0.697446,-0.00321269,-0.172698,0.0615507,-0.0240803,-1.29533,0.461668,0.015773,2.76134,5,0.1,22,0.2,0.663282,-1.88049,0.563552,-0.14893,0.113609,-0.000293553,-1.11699,0.852108,-0.00217557,0.00891912,2.92579,5,0.1,23,0.2,-3.9038,1.82887,0.638184,-0.056237,-0.0451714,0.0388443,-0.421762,-0.338733,0.291348,0.0120045,0.337576,5,0.1,24,0.2,5.07981,0.931381,0.522717,-0.0829935,-0.0737026,-0.006859,-0.622272,-0.552803,-0.0514388,0.0137835,1.01558,5,0.1,25,0.2,-1.1843,4.88365,0.532951,-0.00148118,-0.0927806,0.0770673,-0.0110865,-0.695944,0.578016,0.0239008,1.19495,5,0.1,26,0.2,3.49254,-3.38099,0.541066,-0.123763,0.140512,0.00523776,-0.928283,1.05381,0.0392795,0.021672,2.92579,5,0.1,27,0.2,2.88161,-5.66912,0.570815,0.0819087,0.0395298,0.00275373,0.614405,0.296593,0.0206232,0.00877245,0.679972,5,0.1,28,0.2,0.31465,2.77628,0.697237,-7.37607e-05,-0.172788,0.00912696,-0.000551343,-1.29592,0.0684857,0.0334121,3.17975,5,0.1,29,0.2,0.80575,-0.00307741,0.558571,-0.0618532,0.0427364,0.00390857,-0.463903,0.320523,0.0292957,0.0103991,0.465447,5,0.1
0,0.3,1.93371,-2.71867,0.668889,0.311152,0.157379,-0.0118023,1.5398,0.778809,-0.0584126,0.0123011,2.9258,5,0.1,1,0.3,1.58599,5.32345,0.576169,-0.148683,-0.0130638,0.137628,-0.733517,-0.0644922,0.678957,0.00987243,0.978095,5,0.1,2,0.3,1.03204,2.73141,0.527419,0.148979,0.0345793,-0.00151368,0.734925,0.170574,-0.00746176,0.00776766,0.555124,5,0.1,3,0.3,1.9846,4.31462,0.55954,-0.00615269,0.00628904,0.136735,-0.0303537,0.0309646,0.625581,0.0496587,0.472584,5,0.1,4,0.3,-4.32559,4.22919,0.635225,0.102395,-0.0338733,0.0115169,0.50509,-0.167131,0.0568032,0.00722711,0.279188,5,0.1,5,0.3,4.15427,-2.66555,0.592482,-0.334439,0.0993267,0.00131987,-1.65501,0.49153,0.00652671,0.0429683,2.92581,5,0.1,6,0.3,0.277766,2.17908,0.597129,-0.11448,0.281012,-0.00286521,-0.71441,1.06648,-0.0572018,0.00925723,2.57813,5,0.1,7,0.3,0.21019,-3.87845,0.552168,-0.0373819,-0.00384226,0.141896,-0.184412,-0.0190139,0.700012,0.0102765,0.511295,5,0.1,8,0.3,-2.2645,4.41879,0.594573,0.00258349,-0.0922509,0.134354,0.0127703,-0.454992,0.662815,0.0106936,0.630528,5,0.1,9,0.3,0.094964,-0.814531,0.521543,0.143177,-0.28198,-0.0127233,0.706335,-1.3911,-0.0627674,0.0106333,2.37709,5,0.1,10,0.3,-1.70383,-2.18665,0.694649,0.116283,0.01541,-0.0168315,0.573657,0.0760257,-0.0830255,0.00774512,0.33324,5,0.1,11,0.3,1.34257,4.4879,0.589848,0.00131689,-0.0245325,0.135195,0.0064671,-0.121027,0.666961,0.0167326,0.448034,5,0.1,12,0.3,4.45442,-3.95911,0.516504,-0.187173,0.253505,0.00396762,-0.923365,1.10865,0.0195727,0.00831572,2.50959,5,0.1,13,0.3,-0.883626,5.38123,0.675388,-0.00291374,-0.290124,0.119978,-0.0143871,-1.43129,0.59187,0.0215245,2.33908,5,0.1,14,0.3,1.52483,2.38276,0.657322,-0.244514,-0.210361,-0.0101959,-1.20624,-1.03782,-0.0503138,0.0264709,2.47125,5,0.1,15,0.3,-0.642409,-0.535266,0.587473,0.223523,-0.118896,-0.00868915,1.1027,-0.586543,-0.0428595,0.010972,1.52287,5,0.1,16,0.3,-1.6769,4.04702,0.629194,0.271562,-0.0528209,-0.00519371,1.3397,-0.260562,-0.0256263,0.0466012,1.81684,5,0.1,17,0.3,-1.68179,-0.595625,0.701178,0.245757,0.159289,0.0308888,1.2124,0.78582,0.0952929,0.010357,2.03722,5,0.1,18,0.3,-0.16322,0.455827,0.625238,0.13574,-0.0543918,-0.00449019,0.669644,-0.268333,-0.0221543,0.0123884,0.507911,5,0.1,19,0.3,-4.83712,-2.27782,0.613369,0.300059,0.111658,-0.00237655,1.48028,0.550851,-0.0117123,0.0313858,2.43249,5,0.1,20,0.3,0.500131,-4.44955,0.560823,0.170684,0.304227,0.00581481,0.844667,1.50552,0.0287667,0.0118705,2.9258,5,0.1,21,0.3,-2.8164,5.55643,0.706164,-0.00597537,-0.321284,0.114508,-0.0294745,-1.58501,0.56491,0.015773,2.76134,5,0.1,22,0.3,0.642178,-1.86439,0.563511,-0.277393,0.211608,-0.000544544,-1.37275,1.04719,-0.00269338,0.00891912,2.92579,5,0.1,23,0.3,-3.9116,1.82263,0.643686,-0.100173,-0.0795841,0.0722646,-0.437081,-0.3355,0.356507,0.0120045,0.337576,5,0.1,24,0.3,5.06805,0.920942,0.521745,-0.15438,-0.137115,-0.01276,-0.761539,-0.676438,-0.0629462,0.0137835,1.01558,5,0.1,25,0.3,-1.18451,4.87051,0.543866,-0.00275373,-0.172611,0.143372,-0.0135899,-0.851572,0.707302,0.0239008,1.19495,5,0.1,26,0.3,3.475,-3.36108,0.541809,-0.230522,0.26171,0.00975532,-1.14079,1.29513,0.048276,0.021672,2.92579,5,0.1,27,0.3,2.89321,-5.66352,0.571205,0.152385,0.0735484,0.00512032,0.751793,0.362903,0.0252463,0.00877245,0.679972,5,0.1,28,0.3,0.315224,2.75289,0.698694,0.0164357,-0.290575,0.0216447,0.293953,-1.03702,0.166677,0.0334121,3.17975,5,0.1,29,0.3,0.79699,0.00297536,0.559124,-0.115068,0.079504,0.00726953,-0.567667,0.392217,0.0358522,0.0103991,0.465447,5,0.1
0,0.4,1.97239,-2.6991,0.667422,0.459507,0.232416,-0.0174299,1.36149,0.688672,-0.0516176,0.0178956,2.49081,5,0.1,1,0.4,1.56752,5.32183,0.593266,-0.219274,-0.0192642,0.20297,-0.647128,-0.056982,0.598997,0.0179907,0.773879,5,0.1,2,0.4,1.05055,2.73571,0.527231,0.219709,0.0509918,-0.0022307,0.648439,0.150681,-0.00661612,0.0123143,0.439221,5,0.1,3,0.4,1.98383,4.3154,0.576227,-0.00907481,0.00927448,0.195257,-0.0267029,0.0271797,0.522047,0.0556424,0.425453,5,0.1,4,0.4,-4.31287,4.22498,0.636656,0.151002,-0.0499606,0.0169843,0.445604,-0.147343,0.0501275,0.00827244,0.2209,5,0.1,5,0.4,4.11269,-2.6532,0.592646,-0.493896,0.146687,0.00194907,-1.46341,0.434637,0.00575185,0.0599342,2.35159,5,0.1,6,0.4,0.262625,2.21203,0.596509,-0.188472,0.372452,-0.00987649,-0.72372,0.741363,-0.0773668,0.0120284,2.0813,5,0.1,7,0.4,0.205547,-3.87893,0.569796,-0.0551298,-0.0056684,0.209263,-0.162691,-0.0166893,0.617594,0.0156936,0.404542,5,0.1,8,0.4,-2.26418,4.40733,0.611264,0.0038147,-0.136042,0.198141,0.0112057,-0.401735,0.584781,0.0135307,0.498884,5,0.1,9,0.4,0.112751,-0.849561,0.519962,0.211154,-0.415857,-0.0187635,0.623152,-1.22726,-0.0554025,0.0110657,1.8929,5,0.1,10,0.4,-1.68939,-2.18473,0.692559,0.171492,0.0227273,-0.0248224,0.506163,0.0669956,-0.0732541,0.00918214,0.263663,5,0.1,11,0.4,1.34273,4.48485,0.606643,0.00194013,-0.03618,0.199382,0.00572205,-0.106573,0.588417,0.0264797,0.354489,5,0.1,12,0.4,4.43117,-3.92849,0.516997,-0.276041,0.355232,0.00585169,-0.814438,0.889421,0.0172853,0.0196921,2.24609,5,0.1,13,0.4,-0.883988,5.34519,0.690293,-0.00429899,-0.427854,0.176939,-0.012666,-1.26314,0.522196,0.0281291,1.8507,5,0.1,14,0.4,1.49445,2.35663,0.656055,-0.360602,-0.310236,-0.0150383,-1.06418,-0.915647,-0.0443459,0.0267809,1.95528,5,0.1,15,0.4,-0.614641,-0.550036,0.586394,0.329646,-0.175343,-0.0128135,0.972807,-0.517488,-0.0378489,0.0100683,1.20491,5,0.1,16,0.4,-1.64317,4.04046,0.628549,0.400493,-0.0778913,-0.0076592,1.18196,-0.230074,-0.02262,0.0455203,1.43751,5,0.1,17,0.4,-1.65126,-0.575837,0.704664,0.362435,0.234914,0.0380605,1.06966,0.693291,0.0484288,0.0106277,1.61124,5,0.1,18,0.4,-0.146357,0.449069,0.624681,0.200186,-0.0802159,-0.00662208,0.590779,-0.236735,-0.0195503,0.0101865,0.401865,5,0.1,19,0.4,-4.79985,-2.26395,0.613074,0.442517,0.16467,-0.00350475,1.30606,0.485897,-0.0103414,0.0312135,1.92461,5,0.1,20,0.4,0.521351,-4.41173,0.561546,0.252065,0.449288,0.00858605,0.746876,1.33085,0.0254512,0.0149039,2.51039,5,0.1,21,0.4,-2.81714,5.51652,0.720389,-0.00880957,-0.473821,0.168875,-0.0259876,-1.39832,0.498384,0.0157244,2.18479,5,0.1,22,0.4,0.607691,-1.83808,0.563443,-0.409654,0.312504,-0.000803173,-1.21373,0.925899,-0.00241399,0.00914814,2.51155,5,0.1,23,0.4,-3.9237,1.8131,0.652663,-0.140238,-0.109875,0.106573,-0.349998,-0.260353,0.314564,0.0118787,0.261781,5,0.1,24,0.4,5.04888,0.903908,0.52016,-0.227666,-0.202213,-0.0188172,-0.672102,-0.596762,-0.0555515,0.0129641,0.803545,5,0.1,25,0.4,-1.18485,4.84907,0.561677,-0.00405908,-0.25456,0.211442,-0.0120401,-0.751257,0.624001,0.0284315,0.945453,5,0.1,26,0.4,3.44634,-3.32854,0.543021,-0.340432,0.386488,0.0144064,-1.00875,1.14524,0.0427067,0.0272175,2.51007,5,0.1,27,0.4,2.91214,-5.65438,0.571841,0.224733,0.108469,0.00755042,0.66328,0.320196,0.0222921,0.0097618,0.537997,5,0.1,28,0.4,0.318573,2.71923,0.701751,0.0521757,-0.376493,0.0397816,0.392258,-0.667453,0.184447,0.0419572,2.83906,5,0.1,29,0.4,0.782695,0.0128521,0.560027,-0.1697,0.11725,0.0107199,-0.500798,0.346027,0.0316501,0.0124302,0.633209,5,0.1
0,0.5,2.02534,-2.67232,0.665413,0.599429,0.30319,-0.0227354,1.36528,0.690579,-0.0517704,0.0178956,2.49081,5,0.1,1,0.5,1.54229,5.31961,0.616613,-0.28493,-0.0250414,0.263744,-0.633806,-0.0557899,0.586674,0.0179907,0.773879,5,0.1,2,0.5,1.07582,2.74158,0.526974,0.285498,0.0662763,-0.00290163,0.635087,0.147536,-0.00647455,0.0123143,0.439221,5,0.1,3,0.5,1.98279,4.31647,0.597762,-0.0117859,0.0120386,0.229926,-0.0261888,0.0267029,0.190519,0.0556424,0.425453,5,0.1,4,0.5,-4.2955,4.21923,0.63861,0.196216,-0.0649102,0.0220708,0.436455,-0.144333,0.0491031,0.00827244,0.2209,5,0.1,5,0.5,4.05583,-2.63631,0.59287,-0.642871,0.190933,0.00253534,-1.44221,0.428334,0.00568107,0.0599342,2.35159,5,0.1,6,0.5,0.240308,2.25361,0.595198,-0.255858,0.463521,-0.0157311,-0.603309,1.00312,-0.0409223,0.0120284,2.0813,5,0.1,7,0.5,0.199205,-3.87958,0.593867,-0.0716367,-0.0073608,0.271924,-0.159349,-0.0163168,0.604879,0.0156936,0.404542,5,0.1,8,0.5,-2.26374,4.39168,0.634055,0.0049524,-0.1768,0.257472,0.0109673,-0.39342,0.572741,0.0135307,0.498884,5,0.1,9,0.5,0.136996,-0.897069,0.517811,0.273173,-0.531111,-0.024175,0.588905,-1.03733,-0.0505336,0.0110657,1.8929,5,0.1,10,0.5,-1.66966,-2.18212,0.689703,0.222845,0.0295259,-0.0322551,0.495732,0.0656545,-0.0717565,0.00918214,0.263663,5,0.1,11,0.5,1.34296,4.48069,0.629577,0.00252184,-0.0469968,0.259082,0.00562519,-0.104427,0.576302,0.0264797,0.354489,5,0.1,12,0.5,4.39942,-3.88964,0.51767,-0.358677,0.411346,0.0076049,-0.797749,0.263691,0.016924,0.0196921,2.24609,5,0.1,13,0.5,-0.884482,5.29597,0.710646,-0.00558412,-0.556001,0.229922,-0.0124015,-1.23698,0.51146,0.0281291,1.8507,5,0.1,14,0.5,1.45298,2.32094,0.654325,-0.468575,-0.403135,-0.019538,-1.0423,-0.896752,-0.0434443,0.0267809,1.95528,5,0.1,15,0.5,-0.576723,-0.570206,0.58492,0.428348,-0.227848,-0.0166533,0.95281,-0.506841,-0.0370629,0.0100683,1.20491,5,0.1,16,0.5,-1.5971,4.0315,0.627668,0.520414,-0.101231,-0.00995379,1.15762,-0.225306,-0.0221431,0.0455203,1.43751,5,0.1,17,0.5,-1.60958,-0.548816,0.708668,0.470961,0.305255,0.0415775,1.04763,0.67902,0.0216924,0.0106277,1.61124,5,0.1,18,0.5,-0.123331,0.439843,0.623919,0.260126,-0.104235,-0.00860505,0.578625,-0.23186,-0.0191405,0.0101865,0.401865,5,0.1,19,0.5,-4.74895,-2.24501,0.612671,0.575025,0.213971,-0.00455426,1.27912,0.475943,-0.0101291,0.0312135,1.92461,5,0.1,20,0.5,0.550347,-4.35996,0.562536,0.327466,0.586246,0.0112052,0.724845,1.33789,0.0255816,0.0149039,2.51039,5,0.1,21,0.5,-2.81816,5.46202,0.739814,-0.0114474,-0.615694,0.21944,-0.0254661,-1.36957,0.488117,0.0157244,2.18479,5,0.1,22,0.5,0.560499,-1.80218,0.563354,-0.534131,0.404554,-0.000957213,-1.21251,0.873275,-0.000752509,0.00914814,2.51155,5,0.1,23,0.5,-3.93946,1.80083,0.664922,-0.174352,-0.134894,0.138487,-0.317037,-0.229262,0.308074,0.0118787,0.261781,5,0.1,24,0.5,5.02269,0.880649,0.518002,-0.295854,-0.26276,-0.0242775,-0.658184,-0.584483,-0.0512823,0.0129641,0.803545,5,0.1,25,0.5,-1.18532,4.81979,0.585998,-0.00527967,-0.330781,0.274752,-0.0117794,-0.73579,0.611164,0.0284315,0.945453,5,0.1,26,0.5,3.40711,-3.284,0.544682,-0.444233,0.504335,0.0188006,-1.01389,1.15108,0.0429153,0.0272175,2.51007,5,0.1,27,0.5,2.93799,-5.6419,0.572709,0.292028,0.140954,0.00981232,0.649601,0.31355,0.0218339,0.0097618,0.537997,5,0.1,28,0.5,0.326045,2.67761,0.706584,0.0992342,-0.4603,0.0561089,0.51192,-0.936344,0.138436,0.0419572,2.83906,5,0.1,29,0.5,0.763019,0.0264954,0.561261,-0.224957,0.156803,0.0139308,-0.569519,0.417932,0.0309981,0.0124302,0.633209,5,0.1
0,0.6,2.09163,-2.63879,0.662899,0.720328,0.364345,-0.0273183,1.00219,0.506878,-0.0380576,0.00996217,1.87621,5,0.1,1,0.6,1.51087,5.31685,0.645699,-0.340548,-0.0299335,0.315228,-0.455976,-0.0400543,0.422001,0.0132191,0.576132,5,0.1,2,0.6,1.10731,2.74888,0.526654,0.341231,0.0792205,-0.00347048,0.45687,0.106096,-0.00464916,0.0109431,0.326987,5,0.1,3,0.6,1.98149,4.31779,0.621289,-0.0140846,0.0143886,0.236814,-0.0188351,0.0190735,-0.0374317,0.0606808,0.378751,5,0.1,4,0.6,-4.27386,4.21207,0.641044,0.23452,-0.0775814,0.0263795,0.313997,-0.103712,0.0353158,0.0094443,0.164457,5,0.1,5,0.6,3.98487,-2.61524,0.59315,-0.769758,0.228614,0.00303537,-1.04332,0.309944,0.00411272,0.0500685,2.29073,5,0.1,6,0.6,0.212043,2.30489,0.593472,-0.305715,0.559723,-0.0182971,-0.380344,0.864029,-0.0115633,0.0139648,1.6081,5,0.1,7,0.6,0.191305,-3.88039,0.623855,-0.0856206,-0.00879169,0.325003,-0.114627,-0.0118017,0.435174,0.0111717,0.301171,5,0.1,8,0.6,-2.2632,4.37218,0.66245,0.00591278,-0.211322,0.307731,0.00798702,-0.283241,0.412047,0.0129171,0.371404,5,0.1,9,0.6,0.167011,-0.954781,0.515165,0.324129,-0.61658,-0.0284836,0.410497,-0.645131,-0.0340939,0.0122306,1.43681,5,0.1,10,0.6,-1.64508,-2.17886,0.686146,0.266349,0.0352859,-0.0385523,0.356555,0.0472069,-0.0516176,0.00854682,0.19629,5,0.1,11,0.6,1.34324,4.4755,0.65815,0.003016,-0.0561595,0.309657,0.00405312,-0.0753403,0.41455,0.0215659,0.264768,5,0.1,12,0.6,4.35986,-3.84801,0.518509,-0.428689,0.413764,0.00908971,-0.573874,-0.188231,0.0121593,0.0106784,1.98774,5,0.1,13,0.6,-0.885098,5.23465,0.736002,-0.00667274,-0.664544,0.274804,-0.00891089,-0.889778,0.367939,0.0432443,1.378,5,0.1,14,0.6,1.4013,2.27648,0.652171,-0.560039,-0.481826,-0.0233501,-0.749886,-0.645161,-0.0312626,0.0337381,2.29686,5,0.1,15,0.6,-0.529484,-0.595333,0.583083,0.511962,-0.272325,-0.019905,0.685424,-0.364631,-0.0266731,0.0132662,0.897029,5,0.1,16,0.6,-1.53971,4.02034,0.62657,0.622001,-0.121009,-0.0118956,0.832736,-0.161886,-0.0159442,0.0527261,1.07018,5,0.1,17,0.6,-1.55764,-0.515151,0.712889,0.562894,0.364842,0.0423878,0.753641,0.48849,-0.00542402,0.0115423,1.19926,5,0.1,18,0.6,-0.0946435,0.428347,0.62297,0.310903,-0.124582,-0.0102848,0.416249,-0.166789,-0.0137687,0.00950205,0.299179,5,0.1,19,0.6,-4.68553,-2.22142,0.612168,0.687277,0.25574,-0.00544339,0.920296,0.342369,-0.00730157,0.0319316,1.43282,5,0.1,20,0.6,0.586437,-4.29511,0.563775,0.390859,0.704813,0.0134721,0.517607,0.984192,0.0188053,0.0180949,2.33994,5,0.1,21,0.6,-2.81942,5.39412,0.764015,-0.0136793,-0.735867,0.262275,-0.0183582,-0.985384,0.351161,0.0194616,1.6399,5,0.1,22,0.6,0.501453,-1.75773,0.563257,-0.641354,0.480068,-0.000968575,-0.8872,0.607908,0.000447035,0.0123272,2.22855,5,0.1,23,0.6,-3.95832,1.78632,0.680195,-0.201082,-0.15392,0.165522,-0.207067,-0.143945,0.22158,0.013518,0.354598,5,0.1,24,0.6,4.99006,0.851671,0.515341,-0.353622,-0.314051,-0.0286728,-0.473261,-0.420451,-0.0349879,0.016992,0.598728,5,0.1,25,0.6,-1.1859,4.78331,0.616299,-0.00631213,-0.395346,0.328384,-0.00846386,-0.529528,0.439674,0.0254937,0.703866,5,0.1,26,0.6,3.35797,-3.22821,0.546761,-0.534093,0.606358,0.0226036,-0.745535,0.846505,0.0315905,0.0240455,1.97398,5,0.1,27,0.6,2.9702,-5.62636,0.573792,0.349033,0.168467,0.0117287,0.467181,0.225544,0.0157058,0.00843007,0.400519,5,0.1,28,0.6,0.338477,2.62695,0.712787,0.14824,-0.551128,0.0668988,0.441968,-0.82612,0.0753701,0.00898734,1.13624,5,0.1,29,0.6,0.737797,0.0442009,0.562797,-0.277604,0.196148,0.0166506,-0.458241,0.34917,0.0222921,0.0113968,1.01039,5,0.1
0,0.7,2.16822,-2.59985,0.659979,0.806111,0.413408,-0.0310011,0.684977,0.44626,-0.0334904,0.00996217,1.87621,5,0.1,1,0.7,1.47458,5.31366,0.679296,-0.384323,-0.0337772,0.355742,-0.394493,-0.0346601,0.365119,0.0132191,0.576132,5,0.1,2,0.7,1.14368,2.75733,0.526284,0.385091,0.0894047,-0.00391677,0.395268,0.0917614,-0.00402331,0.0109431,0.326987,5,0.1,3,0.7,1.97999,4.31933,0.64435,-0.0158936,0.0162236,0.221098,-0.0163168,0.0165999,-0.237968,0.0606808,0.378751,5,0.1,4,0.7,-4.24887,4.20381,0.643855,0.264665,-0.0875413,0.0297704,0.271678,-0.0898242,0.0305586,0.0094443,0.164457,5,0.1,5,0.7,3.90367,-2.59069,0.593474,-0.844522,0.262878,0.00343127,-0.461176,0.348449,0.00358,0.0500685,2.29073,5,0.1,6,0.7,0.179762,2.36539,0.591627,-0.337668,0.65088,-0.0182283,-0.247062,0.89708,0.0113659,0.0139648,1.6081,5,0.1,7,0.7,0.18218,-3.88133,0.658494,-0.0966254,-0.00992268,0.366781,-0.0991793,-0.0101924,0.376496,0.0111717,0.301171,5,0.1,8,0.7,-2.26257,4.34966,0.695248,0.00667758,-0.23851,0.347288,0.00689924,-0.245005,0.356484,0.0129171,0.371404,5,0.1,9,0.7,0.201612,-1.01963,0.512211,0.368362,-0.678871,-0.0299813,0.440191,-0.558801,0.00219047,0.0122306,1.43681,5,0.1,10,0.7,-1.6167,-2.1751,0.682037,0.30058,0.0398196,-0.0435081,0.308499,0.0408888,-0.0446625,0.00854682,0.19629,5,0.1,11,0.7,1.34356,4.46952,0.691027,0.00340566,-0.0633918,0.34597,0.00351667,-0.0651777,0.299748,0.0215659,0.264768,5,0.1,12,0.7,4.31417,-3.80836,0.519478,-0.483783,0.372647,0.0102569,-0.496536,-0.58347,0.0105239,0.0106784,1.98774,5,0.1,13,0.7,-0.885777,5.16386,0.765293,-0.00661742,-0.74904,0.310196,0.00848621,-0.753403,0.319555,0.0432443,1.378,5,0.1,14,0.7,1.34136,2.22486,0.649689,-0.639051,-0.551431,-0.0261578,-0.773616,-0.694513,-0.0236072,0.0337381,2.29686,5,0.1,15,0.7,-0.474919,-0.624358,0.580962,0.577766,-0.30733,-0.0224652,0.593035,-0.315476,-0.023067,0.0132662,0.897029,5,0.1,16,0.7,-1.47342,4.00744,0.625302,0.701947,-0.136552,-0.0134258,0.720486,-0.140056,-0.013791,0.0527261,1.07018,5,0.1,17,0.7,-1.49764,-0.476267,0.717081,0.635246,0.411738,0.0412468,0.65203,0.42263,-0.0176877,0.0115423,1.19926,5,0.1,18,0.7,-0.0615077,0.415069,0.621874,0.350865,-0.140594,-0.0116063,0.360137,-0.144305,-0.011906,0.00950205,0.299179,5,0.1,19,0.7,-4.61228,-2.19416,0.611588,0.775625,0.28861,-0.00614431,0.796199,0.29625,-0.00631809,0.0319316,1.43282,5,0.1,20,0.7,0.627193,-4.21999,0.565218,0.415766,0.793664,0.0153599,0.0070259,0.752449,0.0177547,0.0180949,2.33994,5,0.1,21,0.7,-2.82088,5.31616,0.791968,-0.015441,-0.817121,0.295987,-0.0158697,-0.618488,0.303809,0.0194616,1.6399,5,0.1,22,0.7,0.432812,-1.70657,0.56316,-0.730681,0.543208,-0.000985153,-0.842324,0.60983,-0.000618398,0.0123272,2.22855,5,0.1,23,0.7,-3.97958,1.77008,0.697836,-0.224786,-0.171564,0.186795,-0.245169,-0.190571,0.191707,0.013518,0.354598,5,0.1,24,0.7,4.95237,0.8182,0.512365,-0.399058,-0.354416,-0.0302396,-0.409514,-0.363775,0.00170246,0.016992,0.598728,5,0.1,25,0.7,-1.18657,4.74117,0.651298,-0.00712443,-0.446179,0.370594,-0.00730902,-0.458091,0.380401,0.0254937,0.703866,5,0.1,26,0.7,3.30085,-3.16336,0.549179,-0.607051,0.689196,0.0256942,-0.670582,0.76139,0.0284053,0.0240455,1.97398,5,0.1,27,0.7,3.0074,-5.6084,0.575042,0.393885,0.190118,0.0132366,0.404224,0.195146,0.0135861,0.00843007,0.400519,5,0.1,28,0.7,0.355203,2.57021,0.719971,0.183196,-0.561448,0.0776408,0.257146,0.508294,0.126988,0.00898734,1.13624,5,0.1,29,0.7,0.707405,0.0653962,0.564572,-0.332458,0.225895,0.0187908,-0.59228,0.237729,0.0192933,0.0113968,1.01039,5,0.1
0,0.8,2.25156,-2.55657,0.656733,0.853449,0.448871,-0.0336632,0.251532,0.244141,-0.0183284,0.0123943,1.36816,5,0.1,1,0.8,1.43444,5.31013,0.716446,-0.415254,-0.03649,0.384369,-0.207067,-0.0183582,0.191718,0.00845641,0.406779,5,0.1,2,0.8,1.18389,2.76666,0.525875,0.416082,0.0966012,-0.00423193,0.207543,0.0481606,-0.00211596,0.0102135,0.23087,5,0.1,3,0.8,1.97833,4.32102,0.665185,-0.0171751,0.0175357,0.195338,-0.00852346,0.00858307,-0.254929,0.0658097,0.338651,5,0.1,4,0.8,-4.22123,4.19466,0.646964,0.285971,-0.0945807,0.0321671,0.142574,-0.0472069,0.0160336,0.00886267,0.196904,5,0.1,5,0.8,3.81775,-2.56278,0.593832,-0.866026,0.293696,0.00371337,0.000119209,0.248432,0.00190735,0.0489344,1.74432,5,0.1,6,0.8,0.145057,2.4346,0.589888,-0.353277,0.728548,-0.0163153,-0.0582677,0.612497,0.0255406,0.0117198,1.17926,5,0.1,7,0.8,0.172089,-3.88236,0.696797,-0.104402,-0.0107229,0.396299,-0.0520796,-0.00524521,0.197679,0.012052,0.212642,5,0.1,8,0.8,-2.26187,4.32475,0.731516,0.00721812,-0.257719,0.375237,0.00357628,-0.128746,0.187218,0.0100795,0.262223,5,0.1,9,0.8,0.240469,-1.08988,0.50927,0.40636,-0.721312,-0.028412,0.295661,-0.261605,0.0274777,0.00938891,1.04738,5,0.1,10,0.8,-1.58531,-2.17094,0.677494,0.324768,0.0430226,-0.0470102,0.161946,0.0214577,-0.0234544,0.00906795,0.146411,5,0.1,11,0.8,1.34391,4.4629,0.726851,0.00368059,-0.0684977,0.367579,0.00190735,-0.0340939,0.124097,0.0155763,0.211208,5,0.1,12,0.8,4.26365,-3.77432,0.520549,-0.522721,0.305837,0.0110805,-0.260592,-0.715971,0.00554323,0.00880699,1.7776,5,0.1,13,0.8,-0.886378,5.08573,0.797694,-0.00525266,-0.807393,0.335303,0.0175238,-0.382662,0.1688,0.025807,0.974815,5,0.1,14,0.8,1.27393,2.16652,0.646976,-0.705087,-0.611758,-0.0278592,-0.507116,-0.47493,-0.00965595,0.0274125,2.11278,5,0.1,15,0.8,-0.414582,-0.656453,0.578615,0.624262,-0.332063,-0.024274,0.311419,-0.165671,-0.0121295,0.0107081,0.633354,5,0.1,16,0.8,-1.40011,3.99318,0.6239,0.758433,-0.147533,-0.0145063,0.37837,-0.0735521,-0.00724196,0.0455079,0.755609,5,0.1,17,0.8,-1.4313,-0.433268,0.721095,0.686365,0.444873,0.038819,0.342369,0.221923,-0.0309348,0.00998484,0.846639,5,0.1,18,0.8,-0.0248663,0.400387,0.620662,0.3791,-0.151908,-0.0125393,0.189117,-0.0757873,-0.00625849,0.00900762,0.213768,5,0.1,19,0.8,-4.53128,-2.16402,0.610946,0.838041,0.311834,-0.00663996,0.418186,0.155687,-0.00330806,0.0256055,1.03881,5,0.1,20,0.8,0.668145,-4.1375,0.566833,0.397263,0.849175,0.0168234,-0.353605,0.337124,0.0106394,0.013666,2.34593,5,0.1,21,0.8,-2.82249,5.23208,0.822878,-0.0166893,-0.857115,0.319807,-0.00822544,-0.178337,0.159532,0.0144043,1.19267,5,0.1,22,0.8,0.355989,-1.6495,0.563057,-0.800165,0.594366,-0.00106394,-0.507832,0.381768,-0.000804663,0.0110795,2.05941,5,0.1,23,0.8,-4.0032,1.75202,0.717343,-0.24637,-0.188869,0.201824,-0.171185,-0.142336,0.100672,0.0116756,0.130497,5,0.1,24,0.8,4.9107,0.781187,0.509396,-0.431168,-0.382936,-0.0287011,-0.214815,-0.191033,0.0273287,0.0121709,0.423354,5,0.1,25,0.8,-1.18731,4.69458,0.689999,-0.00769794,-0.482094,0.400418,-0.0038743,-0.240326,0.199765,0.0232856,0.657244,5,0.1,26,0.8,3.23721,-3.09111,0.551873,-0.660968,0.750411,0.0279769,-0.378251,0.42963,0.0160336,0.0227013,1.44911,5,0.1,27,0.8,3.04853,-5.58855,0.576424,0.425577,0.20541,0.0143021,0.212312,0.10252,0.00712276,0.0111163,0.282789,5,0.1,28,0.8,0.374505,2.51805,0.728371,0.199831,-0.469685,0.0901282,0.0771731,1.2362,0.113487,0.0314267,3.12588,5,0.1,29,0.8,0.671291,0.0889371,0.566534,-0.38801,0.242428,0.0203028,-0.484794,0.0883263,0.0101328,0.0152669,0.855505,5,0.1
0,0.9,2.33767,-2.51051,0.653279,0.864898,0.471244,-0.0353423,0.0177622,0.181034,-0.0135861,0.0123943,1.36816,5,0.1,1,0.9,1.39193,5.30639,0.755798,-0.434017,-0.0381514,0.401742,-0.148319,-0.013113,0.137337,0.00845641,0.406779,5,0.1,2,0.9,1.22649,2.77655,0.525442,0.434889,0.100966,-0.00442369,0.148661,0.0344813,-0.00151619,0.0102135,0.23087,5,0.1,3,0.9,1.97657,4.32282,0.683453,-0.0179484,0.018318,0.171335,-0.00612438,0.00619888,-0.181522,0.0658097,0.338651,5,0.1,4,0.9,-4.19169,4.1849,0.650287,0.306246,-0.101292,0.0344476,0.232607,-0.0770092,0.0261664,0.00886267,0.196904,5,0.1,5,0.9,3.73115,-2.53214,0.594213,-0.865924,0.31879,0.00388697,0.00399351,0.232473,0.00138581,0.0489344,1.74432,5,0.1,6,0.9,0.109536,2.51053,0.5884,-0.355915,0.788879,-0.0133111,0.015208,0.545681,0.0334047,0.0117198,1.17926,5,0.1,7,0.9,0.1614,-3.88346,0.73737,-0.109121,-0.0111986,0.414212,-0.0373079,-0.00374019,0.141591,0.012052,0.212642,5,0.1,8,0.9,-2.26113,4.29836,0.769933,0.00754148,-0.269381,0.392201,0.002563,-0.0921786,0.134088,0.0100795,0.262223,5,0.1,9,0.9,0.282458,-1.16344,0.5066,0.431724,-0.749795,-0.0247202,0.194271,-0.264019,0.0445507,0.00938891,1.04738,5,0.1,10,0.9,-1.55233,-2.16654,0.672681,0.331705,0.0449676,-0.0491356,-0.0212789,0.0153631,-0.0168011,0.00906795,0.146411,5,0.1,11,0.9,1.34429,4.45589,0.763738,0.00385307,-0.0715882,0.365639,0.00137091,-0.0244379,-0.14687,0.0155763,0.211208,5,0.1,12,0.9,4.21013,-3.74749,0.521683,-0.546337,0.230512,0.0115824,-0.186712,-0.733241,0.00396743,0.00880699,1.7776,5,0.1,13,0.9,-0.886817,5.00316,0.83203,-0.00353558,-0.84205,0.350602,0.0165515,-0.272095,0.121102,0.025807,0.974815,5,0.1,14,0.9,1.20075,2.10282,0.644144,-0.758765,-0.6625,-0.0287392,-0.513725,-0.49153,-0.00664219,0.0274125,2.11278,5,0.1,15,0.9,-0.350671,-0.690449,0.57613,0.652481,-0.347075,-0.0253728,0.223074,-0.118665,-0.00868738,0.0107081,0.633354,5,0.1,16,0.9,-1.32246,3.97808,0.622415,0.792719,-0.154199,-0.0151619,0.271015,-0.0526756,-0.00517815,0.0455079,0.755609,5,0.1,17,0.9,-1.36103,-0.387722,0.724818,0.717389,0.464982,0.0355842,0.245228,0.158958,-0.0340864,0.00998484,0.846639,5,0.1,18,0.9,0.0138075,0.384894,0.619382,0.392312,-0.1571,-0.0129801,0.0656892,-0.0245143,-0.0022389,0.00900762,0.213768,5,0.1,19,0.9,-4.446,-2.13249,0.610267,0.862132,0.314529,-0.00693975,0.0903606,-0.091359,-0.00236556,0.0256055,1.03881,5,0.1,20,0.9,0.705598,-4.05155,0.56857,0.347452,0.864973,0.0179216,-0.614643,0.0421256,0.0101924,0.013666,2.34593,5,0.1,21,0.9,-2.8242,5.14583,0.85562,-0.0174351,-0.865082,0.334263,-0.00590086,-0.00676513,0.11427,0.0144043,1.19267,5,0.1,22,0.9,0.273616,-1.58803,0.562946,-0.844593,0.634891,-0.00117654,-0.346673,0.386134,-0.00130758,0.0110795,2.05941,5,0.1,23,0.9,-4.02857,1.73254,0.738006,-0.259541,-0.199429,0.210947,-0.0850558,-0.0644624,0.0721104,0.0116756,0.130497,5,0.1,24,0.9,4.86656,0.741983,0.506696,-0.450638,-0.400246,-0.0250062,-0.153899,-0.136834,0.0447407,0.0121709,0.423354,5,0.1,25,0.9,-1.1881,4.64506,0.730994,-0.00804868,-0.508317,0.418519,-0.00276417,-0.251144,0.143085,0.0232856,0.657244,5,0.1,26,0.9,3.16961,-3.01447,0.554725,-0.686794,0.776482,0.0287953,-0.124842,0.0838041,0.000383705,0.0227013,1.44911,5,0.1,27,0.9,3.0921,-5.56752,0.577888,0.444815,0.214698,0.0149476,0.152081,0.0734031,0.00510737,0.0111163,0.282789,5,0.1,28,0.9,0.394403,2.47497,0.737748,0.193901,-0.411662,0.0955123,-0.176368,0.0500083,-1.11759e-05,0.0314267,3.12588,5,0.1,29,0.9,0.630324,0.113185,0.568601,-0.428389,0.238539,0.0209044,-0.308782,-0.150918,0.00162795,0.0152669,0.855505,5,0.1
0,1,2.42404,-2.46273,0.649696,0.860554,0.481373,-0.0361025,-0.109315,0.00667572,-0.000506639,0.0129823,0.982262,5,0.1,1,1,1.34801,5.30253,0.796446,-0.441614,-0.0388265,0.408776,0.00959635,0.000953674,-0.00882149,0.0151001,0.276627,5,0.1,2,1,1.27049,2.78677,0.524994,0.442502,0.102729,-0.00450164,-0.00953674,-0.00214577,8.9407e-05,0.0139374,0.157,5,0.1,3,1,1.97475,4.32467,0.7,-0.0182629,0.0186443,0.162792,0.000417233,-0.000715256,0.00467896,0.0566455,0.287287,5,0.1,4,1,-4.15996,4.1744,0.653856,0.327265,-0.108254,0.0368133,0.166178,-0.0550747,0.0186861,0.008982,0.120357,5,0.1,5,1,3.64461,-2.49927,0.594606,-0.86441,0.336647,0.00395924,0.0320673,0.110388,0,0.0445001,1.34052,5,0.1,6,1,0.0742059,2.59171,0.587241,-0.348679,0.829524,-0.00983775,0.135362,0.234365,0.0351667,0.00904774,0.827829,5,0.1,7,1,0.150359,-3.88459,0.77928,-0.111032,-0.0113904,0.421463,0.00239164,0.000357628,-0.00908971,0.0102571,0.144604,5,0.1,8,1,-2.26037,4.27111,0.809616,0.00767112,-0.274098,0.399069,-0.000238419,0.00572205,-0.00864267,0.0114179,0.178313,5,0.1,9,1,0.326319,-1.23945,0.504366,0.442377,-0.766665,-0.0198305,0.0077635,-0.0428557,0.0517666,0.00831987,1.19434,5,0.1,10,1,-1.51955,-2.16199,0.667709,0.321028,0.0457585,-0.0499979,-0.189066,-0.000953674,0.00110269,0.00765044,0.244665,5,0.1,11,1,1.34468,4.44864,0.799228,0.00392497,-0.0728369,0.341131,-5.96046e-05,0.00166893,-0.330031,0.0184884,0.178342,5,0.1,12,1,4.15486,-3.72778,0.522855,-0.555897,0.167698,0.0117868,0.0119209,-0.494957,-0.000298023,0.00900148,1.56695,5,0.1,13,1,-0.887091,4.91804,0.867509,-0.00198931,-0.855434,0.35685,0.0142455,0.0300407,-0.00679493,0.0238674,0.665889,5,0.1,14,1,1.12264,2.0344,0.64125,-0.798893,-0.701851,-0.0289723,-0.252008,-0.261545,0.00283122,0.0274673,2.04261,5,0.1,15,1,-0.284652,-0.725566,0.573563,0.663909,-0.353155,-0.0258178,-0.0143504,0.00762939,0.000566244,0.0111018,0.430705,5,0.1,16,1,-1.24226,3.96247,0.620881,0.8066,-0.156897,-0.0154272,-0.017345,0.00333786,0.000327826,0.0420114,0.513841,5,0.1,17,1,-1.28845,-0.340676,0.728199,0.729948,0.473124,0.0319526,-0.0157952,-0.0102222,-0.0386834,0.0139282,0.575712,5,0.1,18,1,0.0531016,0.369169,0.618082,0.390771,-0.156263,-0.0129372,-0.101737,0.0431836,0.00327826,0.00998994,0.331604,5,0.1,19,1,-4.35972,-2.10183,0.609564,0.860035,0.295591,-0.00706166,-0.119925,-0.277638,0.000149012,0.0251498,0.754538,5,0.1,20,1,0.73703,-3.96497,0.570405,0.279374,0.866026,0.0186712,-0.724494,0,0.00402331,0.0108415,2.223,5,0.1,21,1,-2.82596,5.05948,0.88944,-0.0177383,-0.859809,0.340116,0.000476837,0.123978,-0.00739098,0.0142448,0.860125,5,0.1,22,1,0.187903,-1.52289,0.562822,-0.8644,0.664365,-0.00130087,-0.0325143,0.173628,-0.00107288,0.0111535,1.9979,5,0.1,23,1,-4.05476,1.71243,0.759349,-0.26226,-0.201094,0.214639,0.0345707,0.0333786,-0.00464916,0.0108025,0.28941,5,0.1,24,1,4.82096,0.701486,0.504436,-0.458515,-0.407255,-0.0200868,0.00977516,0.00876188,0.0522137,0.0139679,0.288698,5,0.1,25,1,-1.18892,4.59318,0.77334,-0.00818968,-0.526738,0.425848,0.000119209,-0.0939369,-0.00917912,0.0252841,0.464856,5,0.1,26,1,3.10081,-2.93703,0.557581,-0.683928,0.766182,0.0280768,0.188947,-0.291705,-0.0145435,0.0203969,1.05034,5,0.1,27,1,3.13711,-5.5458,0.5794,0.452608,0.218451,0.0152096,-0.00989437,-0.00452995,-0.000357628,0.00754574,0.192304,5,0.1,28,1,0.412625,2.43295,0.747151,0.168113,-0.437254,0.0912204,-0.323236,-0.463486,-0.0806749,0.0313535,2.74422,5,0.1,29,1,0.586324,0.135994,0.570684,-0.447558,0.215073,0.0205919,-0.066489,-0.30534,-0.00795722,0.00990081,0.811884,5,0.1
0,1.1,2.50971,-2.41458,0.646086,0.853306,0.481156,-0.0360457,-0.0766367,-0.0295788,0.00294298,0.0129823,0.982262,5,0.1,1,1.1,1.30392,5.29866,0.837262,-0.439673,-0.0386469,0.406985,0.045374,0.00408292,-0.0419617,0.0151001,0.276627,5,0.1,2,1.1,1.31468,2.79703,0.524545,0.440564,0.102284,-0.00448246,-0.0454187,-0.0105053,0.000454485,0.0139374,0.157,5,0.1,3,1.1,1.97293,4.32653,0.716738,-0.0181815,0.01854,0.175452,0.0018701,-0.00202656,0.21439,0.0566455,0.287287,5,0.1,4,1.1,-4.12639,4.16329,0.657633,0.343887,-0.113761,0.0386827,0.146896,-0.0486374,0.0165179,0.008982,0.120357,5,0.1,5,1.1,3.55841,-2.46515,0.594993,-0.858199,0.344604,0.00368711,0.120923,0.037834,-0.00500679,0.0445001,1.34052,5,0.1,6,1.1,0.0400388,2.67581,0.586435,-0.334209,0.851181,-0.00627674,0.162327,0.160143,0.0352338,0.00904774,0.827829,5,0.1,7,1.1,0.139273,-3.88573,0.821363,-0.110546,-0.0113305,0.419616,0.0113919,0.0012368,-0.0432655,0.0102571,0.144604,5,0.1,8,1.1,-2.2596,4.24374,0.849463,0.00763088,-0.27291,0.397318,-0.000864267,0.0280142,-0.0409931,0.0114179,0.178313,5,0.1,9,1.1,0.370162,-1.31404,0.502644,0.430381,-0.705167,-0.0146242,-0.238227,1.15968,0.0512376,0.00831987,1.19434,5,0.1,10,1.1,-1.48883,-2.15739,0.662682,0.289876,0.0464723,-0.0507723,-0.407934,0.0115037,-0.0125133,0.00765044,0.244665,5,0.1,11,1.1,1.34507,4.44137,0.831348,0.00390951,-0.0725105,0.298695,-0.00037998,0.00751019,-0.485629,0.0184884,0.178342,5,0.1,12,1.1,4.09935,-3.7131,0.524032,-0.553469,0.131583,0.0117315,0.0569522,-0.167653,-0.00124425,0.00900148,1.56695,5,0.1,13,1.1,-0.887239,4.83266,0.903144,-0.00116779,-0.851061,0.355335,0.00314787,0.0894964,-0.0364855,0.0238674,0.665889,5,0.1,14,1.1,1.04138,1.96322,0.638365,-0.826204,-0.718373,-0.0287195,-0.24768,-0.0522509,0.00343099,0.0274673,2.04261,5,0.1,15,1.1,-0.218362,-0.760829,0.570985,0.660997,-0.351606,-0.0257036,-0.0681616,0.0362583,0.00265986,0.0111018,0.430705,5,0.1,16,1.1,-1.16172,3.94681,0.61934,0.80307,-0.156214,-0.0153597,-0.0827685,0.0160784,0.00158697,0.0420114,0.513841,5,0.1,17,1.1,-1.21556,-0.293435,0.731205,0.726745,0.471049,0.0281927,-0.0749603,-0.0485806,-0.0368543,0.0139282,0.575712,5,0.1,18,1.1,0.0911387,0.353911,0.616839,0.365191,-0.147491,-0.011608,-0.388847,0.127848,0.0215173,0.00998994,0.331604,5,0.1,19,1.1,-4.27423,-2.07396,0.608859,0.849643,0.259233,-0.00703102,-0.123948,-0.433922,0.000726432,0.0251498,0.754538,5,0.1,20,1.1,0.761228,-3.87837,0.572293,0.20411,0.865703,0.0190648,-0.753392,-0.0128895,0.0029467,0.0108415,2.223,5,0.1,21,1.1,-2.82773,4.97393,0.923401,-0.0176545,-0.852064,0.338621,0.00186265,0.0735819,-0.0349469,0.0142448,0.860125,5,0.1,22,1.1,0.101369,-1.45542,0.562686,-0.865645,0.685577,-0.00142707,0.0070776,0.208408,-0.00131503,0.0111535,1.9979,5,0.1,23,1.1,-4.08073,1.69223,0.780781,-0.256246,-0.205048,0.213697,0.0900328,-0.0888482,-0.0220463,0.0108025,0.28941,5,0.1,24,1.1,4.77518,0.660821,0.50269,-0.456516,-0.405472,-0.0148413,0.0469983,0.0417903,0.0516064,0.0139679,0.288698,5,0.1,25,1.1,-1.18974,4.54,0.815861,-0.0081582,-0.536547,0.423983,0.000812113,-0.0760853,-0.0437126,0.0252841,0.464856,5,0.1,26,1.1,3.0332,-2.8621,0.560307,-0.668954,0.729719,0.0263697,0.142038,-0.444308,-0.0197478,0.0203969,1.05034,5,0.1,27,1.1,3.1823,-5.52398,0.580919,0.450614,0.217507,0.0151406,-0.0465512,-0.0223219,-0.0015758,0.00754574,0.192304,5,0.1,28,1.1,0.427664,2.3858,0.755796,0.131426,-0.514056,0.0810238,-0.397487,-0.971481,-0.119783,0.0313535,2.74422,5,0.1,29,1.1,0.541954,0.155803,0.572664,-0.433308,0.179688,0.0186524,0.326082,-0.390575,-0.0289045,0.00990081,0.811884,5,0.1
0,1.2,2.59444,-2.36679,0.64251,0.838298,0.472367,-0.0352994,-0.251889,-0.158548,0.0128746,0.00865204,0.725932,5,0.1,1,1.2,1.26034,5.29483,0.877597,-0.429863,-0.0377774,0.397906,0.161529,0.0143051,-0.149459,0.00808091,0.183945,5,0.1,2,1.2,1.35834,2.80717,0.5241,0.430733,0.100005,-0.00438392,-0.161707,-0.0375509,0.00166893,0.00920156,0.104395,5,0.1,3,1.2,1.97113,4.32837,0.73547,-0.0177771,0.0181198,0.199679,0.00667572,-0.00691414,0.244349,0.0499102,0.227935,5,0.1,4,1.2,-4.09142,4.15173,0.661565,0.353372,-0.116909,0.0397503,0.0300407,-0.00977516,0.00336766,0.00910025,0.0659383,5,0.1,5,1.2,3.47353,-2.43069,0.595331,-0.835484,0.342447,0.00303686,0.352025,-0.0878572,-0.00759959,0.0386184,1.22178,5,0.1,6,1.2,0.00752856,2.76135,0.585978,-0.314866,0.855106,-0.00293106,0.22973,-0.107288,0.0310242,0.00950949,0.563078,5,0.1,7,1.2,0.128317,-3.88685,0.862949,-0.10808,-0.0110745,0.410254,0.0405945,0.00429153,-0.154108,0.0128518,0.16317,5,0.1,8,1.2,-2.25885,4.21669,0.888839,0.00745654,-0.266826,0.388451,-0.00274181,0.100374,-0.145942,0.00917548,0.188799,5,0.1,9,1.2,0.41167,-1.37755,0.501429,0.396612,-0.555176,-0.00977367,-0.427842,1.74898,0.0450015,0.00915175,0.840799,5,0.1,10,1.2,-1.46207,-2.15269,0.657547,0.243977,0.0474215,-0.0517994,-0.490785,0.00452995,-0.00503659,0.00836899,0.219136,5,0.1,11,1.2,1.34546,4.43418,0.858744,0.00382364,-0.0708938,0.249289,-0.00143051,0.0267029,-0.482738,0.0166038,0.294736,5,0.1,12,1.2,4.0445,-3.7,0.525194,-0.541115,0.137842,0.0114679,0.202894,0.26989,-0.00435114,0.00916669,1.30299,5,0.1,13,1.2,-0.887352,4.74831,0.938359,-0.00118613,-0.832188,0.347398,-0.00274181,0.308752,-0.130743,0.0222292,0.444821,5,0.1,14,1.2,0.957844,1.89157,0.635519,-0.840567,-0.70971,-0.0280857,-0.00742078,0.234783,0.0100434,0.0245149,1.4742,5,0.1,15,1.2,-0.152853,-0.795675,0.568438,0.64625,-0.343761,-0.0251293,-0.242758,0.129133,0.00944734,0.0107354,0.286397,5,0.1,16,1.2,-1.08213,3.93133,0.617818,0.785154,-0.152731,-0.0150174,-0.294924,0.0573397,0.00566244,0.0445828,0.341672,5,0.1,17,1.2,-1.14354,-0.246751,0.73384,0.710529,0.460539,0.0245258,-0.26691,-0.173002,-0.0367165,0.0104184,0.382807,5,0.1,18,1.2,0.125385,0.33991,0.615804,0.316889,-0.131543,-0.00895411,-0.559345,0.187024,0.0300705,0.00856367,0.318889,5,0.1,19,1.2,-4.19013,-2.05036,0.608163,0.829208,0.21165,-0.00687391,-0.309467,-0.504971,0.002563,0.0258428,0.472457,5,0.1,20,1.2,0.778005,-3.79197,0.574206,0.133236,0.86087,0.0191092,-0.646055,-0.102997,-0.0025928,0.00998145,2.19756,5,0.1,21,1.2,-2.82948,4.88929,0.95696,-0.0172555,-0.837874,0.331064,0.0064373,0.240326,-0.124395,0.0161937,0.602376,5,0.1,22,1.2,0.0149411,-1.38605,0.562537,-0.861569,0.698879,-0.00154227,0.0891352,0.0280738,-0.00089407,0.0109124,1.98825,5,0.1,23,1.2,-4.10579,1.67124,0.80196,-0.243616,-0.214744,0.208928,0.165224,-0.0876188,-0.0784695,0.0102757,0.237796,5,0.1,24,1.2,4.72993,0.620637,0.501455,-0.446343,-0.396426,-0.00995249,0.167608,0.148863,0.0454485,0.0132852,0.192818,5,0.1,25,1.2,-1.19054,4.48617,0.85788,-0.00797808,-0.537562,0.414523,0.00298023,0.0741482,-0.155687,0.0198804,0.318795,5,0.1,26,1.2,2.96715,-2.79165,0.562836,-0.650185,0.676394,0.0241071,0.255346,-0.624537,-0.025481,0.0176847,0.76957,5,0.1,27,1.2,3.22696,-5.50243,0.58242,0.440556,0.212657,0.0148013,-0.165582,-0.0798702,-0.00554323,0.00692458,0.129939,5,0.1,28,1.2,0.438786,2.32938,0.763259,0.0909321,-0.613874,0.0679061,-0.402242,-0.949502,-0.139654,0.0343422,2.52654,5,0.1,29,1.2,0.500726,0.171759,0.574363,-0.387072,0.139073,0.0151619,0.576779,-0.412337,-0.0393689,0.0114457,0.800864,5,0.1
0,1.3,2.67668,-2.32002,0.639064,0.803158,0.465495,-0.0334268,-0.456065,-0.0136644,0.0243522,0.00865204,0.725932,5,0.1,1,1.3,1.21815,5.29112,0.916656,-0.413896,-0.0363633,0.383131,0.17117,0.0151396,-0.158403,0.00808091,0.183945,5,0.1,2,1.3,1.40062,2.81698,0.52367,0.414746,0.0962917,-0.00421936,-0.17143,-0.039801,0.00176206,0.00920156,0.104395,5,0.1,3,1.3,1.96938,4.33014,0.75683,-0.0171179,0.0174426,0.228529,0.0070557,-0.00718236,0.306536,0.0499102,0.227935,5,0.1,4,1.3,-4.05599,4.14001,0.665552,0.354532,-0.117278,0.0398803,-0.0188053,0.00631809,-0.00211224,0.00910025,0.0659383,5,0.1,5,1.3,3.39245,-2.39759,0.595551,-0.779731,0.313419,0.000978354,0.741303,-0.459328,-0.030566,0.0386184,1.22178,5,0.1,6,1.3,-0.0228344,2.84633,0.585836,-0.292457,0.843811,4.63799e-05,0.225597,-0.149995,0.0279248,0.00950949,0.563078,5,0.1,7,1.3,0.117644,-3.88795,0.903463,-0.105874,-0.0108387,0.401878,0.0109659,0.00120699,-0.0416487,0.0128518,0.16317,5,0.1,8,1.3,-2.25811,4.19034,0.92697,0.00718422,-0.26135,0.374024,-0.00293553,0.0273585,-0.154667,0.00917548,0.188799,5,0.1,9,1.3,0.449429,-1.42584,0.50066,0.360502,-0.424356,-0.00577793,-0.312133,0.932448,0.0346899,0.00915175,0.840799,5,0.1,10,1.3,-1.44025,-2.14792,0.652336,0.191889,0.0479758,-0.0524118,-0.517756,0.00417233,-0.00459328,0.00836899,0.219136,5,0.1,11,1.3,1.34584,4.42727,0.881231,0.00374634,-0.0670269,0.202149,-0.00037998,0.0501871,-0.388768,0.0166038,0.294736,5,0.1,12,1.3,3.99138,-3.68411,0.52632,-0.521051,0.185902,0.0110388,0.215188,0.63315,-0.00458956,0.00916669,1.30299,5,0.1,13,1.3,-0.887494,4.6666,0.972459,-0.00172537,-0.801893,0.334455,-0.00731647,0.323623,-0.138868,0.0222292,0.444821,5,0.1,14,1.3,0.873679,1.82269,0.632758,-0.842434,-0.659749,-0.0271469,0.0083074,0.726707,0.00973791,0.0245149,1.4742,5,0.1,15,1.3,-0.0894153,-0.829419,0.565971,0.622252,-0.330995,-0.0241954,-0.25728,0.13686,0.0100136,0.0107354,0.286397,5,0.1,16,1.3,-1.00505,3.91633,0.616344,0.755998,-0.147062,-0.0144578,-0.312585,0.0607967,0.00600144,0.0445828,0.341672,5,0.1,17,1.3,-1.07379,-0.201543,0.736117,0.684143,0.443437,0.0210712,-0.282891,-0.183356,-0.032708,0.0104184,0.382807,5,0.1,18,1.3,0.15411,0.327757,0.615075,0.25635,-0.11095,-0.00550915,-0.635749,0.22134,0.0372231,0.00856367,0.318889,5,0.1,19,1.3,-4.10867,-2.03175,0.607488,0.800225,0.160568,-0.0066204,-0.299633,-0.506759,0.00272691,0.0258428,0.472457,5,0.1,20,1.3,0.788217,-3.70613,0.576105,0.0732235,0.857171,0.0188516,-0.51586,-0.0186861,-0.00328571,0.00998145,2.19756,5,0.1,21,1.3,-2.83118,4.80657,0.989458,-0.0166185,-0.816889,0.318767,0.00682473,0.213802,-0.131819,0.0161937,0.602376,5,0.1,22,1.3,-0.071124,-1.31581,0.562378,-0.861997,0.707109,-0.00164583,-0.0484097,0.094071,-0.00105798,0.0109124,1.98825,5,0.1,23,1.3,-4.12908,1.64921,0.822469,-0.220052,-0.226394,0.20117,0.295371,-0.127085,-0.0831746,0.0102757,0.237796,5,0.1,24,1.3,4.68612,0.581722,0.500671,-0.429774,-0.381709,-0.00589825,0.177652,0.157796,0.035353,0.0132852,0.192818,5,0.1,25,1.3,-1.19133,4.43275,0.898571,-0.00768285,-0.530537,0.399132,0.0031814,0.0875294,-0.165015,0.0198804,0.318795,5,0.1,26,1.3,2.90327,-2.72663,0.565141,-0.627991,0.627774,0.0221752,0.215203,-0.387013,-0.0147223,0.0176847,0.76957,5,0.1,27,1.3,3.27021,-5.48169,0.583873,0.42419,0.200903,0.0142531,-0.175461,-0.153273,-0.00587851,0.00692458,0.129939,5,0.1,28,1.3,0.445549,2.26352,0.769427,0.0418723,-0.699627,0.056112,-0.550199,-0.729471,-0.0994205,0.0343422,2.52654,5,0.1,29,1.3,0.465171,0.183635,0.575507,-0.321855,0.098924,0.00626817,0.708112,-0.383965,-0.126839,0.0114457,0.800864,5,0.1
0,1.4,2.75435,-2.27353,0.63586,0.746483,0.463617,-0.0304803,-0.678301,-0.0491142,0.0342131,0.00897015,0.505982,5,0.1,1,1.4,1.17772,5.28757,0.954081,-0.393412,-0.0345588,0.364171,0.247419,0.0216961,-0.229001,0.00834012,0.121213,5,0.1,2,1.4,1.44113,2.82639,0.523258,0.394222,0.0915289,-0.0040099,-0.247836,-0.0576973,0.002563,0.0084981,0.117021,5,0.1,3,1.4,1.96771,4.33185,0.781142,-0.0162721,0.016582,0.256488,0.010252,-0.0104904,0.23371,0.0498207,0.17323,5,0.1,4,1.4,-4.02079,4.12836,0.669511,0.347674,-0.115001,0.0391066,-0.126481,0.0417233,-0.0141561,0.00774166,0.0444213,5,0.1,5,1.4,3.31867,-2.36893,0.595479,-0.691384,0.25664,-0.00254363,1.00601,-0.648856,-0.0375211,0.0414139,1.0107,5,0.1,6,1.4,-0.0509118,2.92968,0.585972,-0.268565,0.81988,0.00255406,0.256907,-0.349522,0.0217855,0.00832768,0.375738,5,0.1,7,1.4,0.107112,-3.88902,0.943438,-0.104605,-0.010705,0.397058,0.0197925,0.00214577,-0.0751913,0.0103935,0.0955217,5,0.1,8,1.4,-2.25741,4.16434,0.963505,0.00683069,-0.258231,0.355512,-0.00429153,0.048399,-0.223577,0.0108446,0.133105,5,0.1,9,1.4,0.483991,-1.46452,0.500238,0.331103,-0.356981,-0.00285655,-0.288889,0.467002,0.0236928,0.00987511,0.633933,5,0.1,10,1.4,-1.42349,-2.14312,0.64709,0.145432,0.0478506,-0.0522777,-0.394523,-0.00834465,0.00905991,0.00852523,0.189016,5,0.1,11,1.4,1.34621,4.42085,0.9,0.00370145,-0.0609756,0.178295,-0.000715256,0.0703335,-0.0920296,0.017292,0.235179,5,0.1,12,1.4,3.94048,-3.66216,0.527398,-0.495285,0.254112,0.0104904,0.311375,0.68593,-0.00661612,0.0204113,1.06008,5,0.1,13,1.4,-0.887706,4.58823,1.00513,-0.00252128,-0.763059,0.317839,-0.00804663,0.470638,-0.20051,0.0262322,0.293824,5,0.1,14,1.4,0.789759,1.7609,0.630098,-0.832485,-0.571302,-0.0259683,0.216663,1.01042,0.0144839,0.0270911,1.21433,5,0.1,15,1.4,-0.0286337,-0.861751,0.563608,0.591457,-0.314614,-0.022997,-0.371906,0.197828,0.0144839,0.0103931,0.188513,5,0.1,16,1.4,-0.931209,3.90197,0.614932,0.718583,-0.139785,-0.0137404,-0.451833,0.0878572,0.00864267,0.0419303,0.224892,5,0.1,17,1.4,-1.00696,-0.158228,0.738065,0.650285,0.42149,0.0179261,-0.408918,-0.265046,-0.0303686,0.00986511,0.251967,5,0.1,18,1.4,0.176547,0.3178,0.614711,0.192524,-0.0879504,-0.00179261,-0.628613,0.235379,0.0359118,0.00795643,0.317474,5,0.1,19,1.4,-4.03032,-2.01816,0.606841,0.764358,0.112003,-0.00629425,-0.437498,-0.457406,0.00396371,0.0238372,0.713278,5,0.1,20,1.4,0.793404,-3.62069,0.577968,0.0353768,0.849015,0.0183314,-0.2262,-0.177979,-0.00762939,0.0101847,1.85225,5,0.1,21,1.4,-2.8328,4.72614,1.02059,-0.0158012,-0.78932,0.302988,0.00989437,0.361204,-0.190496,0.0131891,0.412804,5,0.1,22,1.4,-0.15747,-1.2448,0.562208,-0.863105,0.710461,-0.00173151,0.0584126,-0.0569224,-0.000566244,0.0102841,1.98287,5,0.1,23,1.4,-4.14947,1.626,0.842119,-0.186515,-0.237021,0.191216,0.366449,-0.07236,-0.120282,0.0112392,0.319349,5,0.1,24,1.4,4.64414,0.544437,0.50024,-0.408506,-0.362819,-0.00291318,0.256777,0.228107,0.0243187,0.0131231,0.127761,5,0.1,25,1.4,-1.19208,4.3803,0.937558,-0.00730157,-0.516522,0.379379,0.00458956,0.207186,-0.238538,0.00703286,0.395229,5,0.1,26,1.4,2.84166,-2.66566,0.567292,-0.602645,0.592178,0.0208899,0.310183,-0.353456,-0.0121891,0.019711,0.730917,5,0.1,27,1.4,3.31164,-5.46247,0.585265,0.403196,0.182426,0.0135496,-0.253677,-0.213623,-0.00852346,0.0141394,0.163359,5,0.1,28,1.4,0.446936,2.19052,0.774586,-0.0140443,-0.753838,0.0474542,-0.546247,-0.331521,-0.0762641,0.0452239,2.68129,5,0.1,29,1.4,0.436609,0.191699,0.575435,-0.248937,0.0633851,-0.00813603,0.734806,-0.322454,-0.152111,0.00862425,0.561569,5,0.1
0,1.5,2.82604,-2.22757,0.632966,0.690758,0.453942,-0.027551,-0.472754,-0.151783,0.0256486,0.00897015,0.505982,5,0.1,1,1.5,1.13961,5.28422,0.989397,-0.368665,-0.0324883,0.342328,0.255845,0.020653,-0.218216,0.00834012,0.121213,5,0.1,2,1.5,1.47957,2.83531,0.522867,0.376448,0.087389,-0.00382587,-0.132091,-0.0307709,0.00136346,0.0084981,0.117021,5,0.1,3,1.5,1.96613,4.33346,0.808005,-0.0152951,0.0155859,0.280717,0.00975281,-0.00992417,0.230607,0.0498207,0.17323,5,0.1,4,1.5,-3.98662,4.11706,0.673355,0.335692,-0.111049,0.0377646,-0.125974,0.0415742,-0.0141263,0.00774166,0.0444213,5,0.1,5,1.5,3.25399,-2.34677,0.594885,-0.607181,0.184679,-0.0105559,0.708312,-0.758871,-0.111725,0.0414139,1.0107,5,0.1,6,1.5,-0.0765357,3.00998,0.586331,-0.244273,0.786081,0.0045713,0.235115,-0.352368,0.0181049,0.00832768,0.375738,5,0.1,7,1.5,0.0967322,-3.89009,0.98284,-0.103065,-0.0105381,0.391207,0.0158078,0.00166893,-0.0600554,0.0103935,0.0955217,5,0.1,8,1.5,-2.25675,4.13868,0.997981,0.00642017,-0.255652,0.334186,-0.00408292,0.0175834,-0.213042,0.0108446,0.133105,5,0.1,9,1.5,0.515814,-1.49868,0.500052,0.306568,-0.332744,-0.00102343,-0.216166,0.0676736,0.0134222,0.00987511,0.633933,5,0.1,10,1.5,-1.4107,-2.13837,0.641911,0.113444,0.046891,-0.0512327,-0.213966,-0.0123382,0.0134669,0.00852523,0.189016,5,0.1,11,1.5,1.34658,4.41531,0.917944,0.00364576,-0.0481121,0.185287,-0.000573695,0.174195,0.191007,0.017292,0.235179,5,0.1,12,1.5,3.89245,-3.63373,0.528415,-0.465582,0.311755,0.00985982,0.296757,0.51932,-0.00629202,0.0204113,1.06008,5,0.1,13,1.5,-0.888001,4.51418,1.03595,-0.00340957,-0.718268,0.298704,-0.00916421,0.447303,-0.191189,0.0262322,0.293824,5,0.1,14,1.5,0.707523,1.70921,0.62757,-0.81212,-0.459931,-0.0246109,0.221699,1.1761,0.0134967,0.0270911,1.21433,5,0.1,15,1.5,0.0287241,-0.892261,0.561378,0.555982,-0.295744,-0.0216156,-0.354394,0.188515,0.0137985,0.0103931,0.188513,5,0.1,16,1.5,-0.861523,3.88841,0.613599,0.675483,-0.131403,-0.012916,-0.43058,0.0837296,0.00824034,0.0419303,0.224892,5,0.1,17,1.5,-0.943902,-0.117353,0.739714,0.61128,0.396208,0.0151273,-0.389662,-0.252567,-0.0259131,0.00986511,0.251967,5,0.1,18,1.5,0.192757,0.310188,0.61473,0.132877,-0.0643455,0.00230176,-0.55624,0.232391,0.0435151,0.00795643,0.317474,5,0.1,19,1.5,-3.95596,-2.00916,0.606231,0.723361,0.0691008,-0.00591613,-0.406712,-0.391379,0.00377744,0.0238372,0.713278,5,0.1,20,1.5,0.796218,-3.53653,0.579764,0.0263039,0.83486,0.0176001,0.0914559,-0.143319,-0.00759214,0.0101847,1.85225,5,0.1,21,1.5,-2.83433,4.64889,1.04998,-0.0148579,-0.756086,0.284817,0.00944734,0.331581,-0.181533,0.0131891,0.412804,5,0.1,22,1.5,-0.243731,-1.17378,0.562032,-0.863535,0.711343,-0.00180267,-0.0278884,0.0317991,-0.000737607,0.0102841,1.98287,5,0.1,23,1.5,-4.16623,1.60219,0.860662,-0.148328,-0.236599,0.179743,0.389546,0.0761151,-0.114609,0.0112392,0.319349,5,0.1,24,1.5,4.60452,0.509251,0.500051,-0.384012,-0.34106,-0.00103237,0.244677,0.217384,0.0137575,0.0131231,0.127761,5,0.1,25,1.5,-1.19353,4.32997,0.973615,-0.0279445,-0.48728,0.335799,-0.370055,0.3739,-0.597339,0.00703286,0.395229,5,0.1,26,1.5,2.78284,-2.60777,0.569333,-0.57446,0.569164,0.0200076,0.275239,-0.147864,-0.00669807,0.019711,0.730917,5,0.1,27,1.5,3.35095,-5.44542,0.586586,0.385003,0.157453,0.0129385,-0.135168,-0.278771,-0.0045374,0.0141394,0.163359,5,0.1,28,1.5,0.442693,2.11444,0.77922,-0.0712819,-0.758547,0.0475004,-0.574507,0.216663,0.0605881,0.0452239,2.68129,5,0.1,29,1.5,0.415387,0.196161,0.573872,-0.17585,0.0238446,-0.0229041,0.714961,-0.444246,-0.13895,0.00862425,0.561569,5,0.1
0,1.6,2.89285,-2.18315,0.630334,0.645614,0.43214,-0.0251293,-0.45681,-0.288248,0.0237226,0.0103331,0.362398,5,0.1,1,1.6,1.10409,5.28108,1.02249,-0.34087,-0.0302553,0.318801,0.305414,0.0245571,-0.25934,0.00949149,0.169795,5,0.1,2,1.6,1.51658,2.8439,0.522491,0.363582,0.0843942,-0.003694,-0.142992,-0.0332594,0.00149012,0.0109819,0.0678046,5,0.1,3,1.6,1.96465,4.33496,0.837088,-0.0142455,0.0145197,0.299171,0.0116229,-0.0116825,0.124395,0.0527344,0.214876,5,0.1,4,1.6,-3.95376,4.10619,0.677051,0.320351,-0.105977,0.0360429,-0.189185,0.0624657,-0.0212789,0.00776009,0.0181499,5,0.1,5,1.6,3.19653,-2.33207,0.593223,-0.544333,0.110257,-0.0229493,0.572085,-0.707269,-0.127703,0.00704247,0.809803,5,0.1,6,1.6,-0.0997826,3.08665,0.586869,-0.220508,0.745088,0.00610203,0.244349,-0.484824,0.0121891,0.00776823,0.248528,5,0.1,7,1.6,0.0865302,-3.89113,1.02156,-0.100633,-0.0102878,0.38197,0.036139,0.00369549,-0.13721,0.0125337,0.105498,5,0.1,8,1.6,-2.25613,4.11324,1.03028,0.00597835,-0.252283,0.311217,-0.00488758,0.0605583,-0.253141,0.00894219,0.159121,5,0.1,9,1.6,0.545414,-1.53193,0.500003,0.285403,-0.334623,-8.19564e-05,-0.217497,-0.0668764,0.00587106,0.0104766,0.493814,5,0.1,10,1.6,-1.4,-2.13376,0.636873,0.104621,0.0451386,-0.0493184,0.0260472,-0.0237226,0.025928,0.00995375,0.144207,5,0.1,11,1.6,1.34694,4.41146,0.937618,0.0035584,-0.0284076,0.2093,-0.0012517,0.209808,0.258088,0.0311502,0.156868,5,0.1,12,1.6,3.84744,-3.6,0.529368,-0.433582,0.362337,0.0091821,0.352502,0.483632,-0.00748038,0.0149567,0.836716,5,0.1,13,1.6,-0.888386,4.4447,1.06482,-0.00426024,-0.669909,0.2781,-0.00742078,0.534773,-0.226915,0.0213815,0.193594,5,0.1,14,1.6,0.627635,1.66909,0.62518,-0.782946,-0.343087,-0.0231296,0.382751,1.13153,0.0166893,0.0251974,1.3054,5,0.1,15,1.6,0.0824678,-0.920849,0.559288,0.517772,-0.275418,-0.0201285,-0.421081,0.223994,0.0163913,0.00907083,0.123903,5,0.1,16,1.6,-0.796228,3.87571,0.612351,0.629058,-0.122374,-0.0120282,-0.511587,0.0995398,0.00980496,0.0378113,0.147811,5,0.1,17,1.6,-0.884813,-0.0790543,0.741102,0.569266,0.368977,0.0126898,-0.462949,-0.300087,-0.0230372,0.00962404,0.166032,5,0.1,18,1.6,0.203436,0.30488,0.615174,0.0825606,-0.0422351,0.00648797,-0.445336,0.206545,0.0384748,0.00763821,0.294522,5,0.1,19,1.6,-3.88577,-2.00404,0.605659,0.678933,0.0351489,-0.00550896,-0.498176,-0.282407,0.00450015,0.0247811,2.52649,5,0.1,20,1.6,0.8,-3.45395,0.581482,0.055851,0.81389,0.0167131,0.474602,-0.302196,-0.01055,0.014386,1.49201,5,0.1,21,1.6,-2.83577,4.57508,1.07751,-0.0138402,-0.718272,0.265244,0.0112057,0.443459,-0.215709,0.0129764,0.279001,5,0.1,22,1.6,-0.330119,-1.10263,0.561848,-0.862577,0.709519,-0.00185668,0.0689483,-0.0984669,-0.000298023,0.0101767,1.5922,5,0.1,23,1.6,-4.17913,1.57912,0.878037,-0.109959,-0.222751,0.167388,0.371695,0.19604,-0.136167,0.0111571,0.917781,5,0.1,24,1.6,4.5674,0.476283,0.500003,-0.357628,-0.31762,-6.85453e-05,0.290871,0.258297,0.00596046,0.0167111,0.145732,5,0.1,25,1.6,-1.19847,4.28336,1.00386,-0.0728965,-0.4426,0.266373,-0.492334,0.514984,-0.762403,0.00682211,0.276776,5,0.1,26,1.6,2.72685,-2.55153,0.571301,-0.543928,0.555503,0.0193372,0.350237,-0.155449,-0.00759959,0.0192504,0.53106,5,0.1,27,1.6,3.3888,-5.43113,0.587858,0.371838,0.127971,0.0124961,-0.146151,-0.305176,-0.00488758,0.00853686,0.113878,5,0.1,28,1.6,0.432808,2.04043,0.784386,-0.124806,-0.714594,0.0566259,-0.478581,0.642121,0.109076,0.034841,3.01156,5,0.1,29,1.6,0.401262,0.196287,0.570938,-0.108031,-0.021226,-0.0351995,0.632554,-0.438884,-0.103951,0.00582754,0.443324,5,0.1
0,1.7,2.9554,-2.14168,0.627927,0.607498,0.394529,-0.0230892,-0.334859,-0.453383,0.0181124,0.0103331,0.362398,5,0.1,1,1.7,1.0718,5.27817,1.05313,-0.302922,-0.0279531,0.294491,0.429183,0.0223517,-0.235595,0.00949149,0.169795,5,0.1,2,1.7,1.55231,2.8522,0.522128,0.351532,0.0815917,-0.00356901,-0.113919,-0.0264794,0.00117719,0.0109819,0.0678046,5,0.1,3,1.7,1.96328,4.33637,0.867921,-0.0133548,0.0136293,0.319524,0.00703335,-0.00700355,0.248156,0.0527344,0.214876,5,0.1,4,1.7,-3.9227,4.09591,0.680546,0.300594,-0.0994511,0.0338206,-0.211924,0.0700653,-0.0238419,0.00776009,0.0181499,5,0.1,5,1.7,3.14635,-2.32463,0.590333,-0.447492,0.0385344,-0.0343699,1.28065,-0.706643,-0.098601,0.00704247,0.809803,5,0.1,6,1.7,-0.120674,3.15884,0.587536,-0.197811,0.699215,0.00718692,0.214892,-0.454292,0.00916049,0.00776823,0.248528,5,0.1,7,1.7,0.0763791,-3.89214,1.05908,-0.104563,-0.00991412,0.368067,-0.094742,0.00406802,-0.15229,0.0125337,0.105498,5,0.1,8,1.7,-2.25555,4.08807,1.06035,0.00560284,-0.253112,0.291797,-0.00298023,-0.0529587,-0.153497,0.00894219,0.159121,5,0.1,9,1.7,0.572975,-1.5661,0.500017,0.266611,-0.351273,0.000286195,-0.169963,-0.227675,0.00179186,0.0104766,0.493814,5,0.1,10,1.7,-1.38913,-2.12937,0.632074,0.115101,0.0426546,-0.0466023,0.160523,-0.0268817,0.0293776,0.00995375,0.144207,5,0.1,11,1.7,1.34729,4.40944,0.959824,0.00343099,-0.014019,0.234269,-0.00140071,0.0870824,0.225943,0.0311502,0.156868,5,0.1,12,1.7,3.80576,-3.56106,0.530251,-0.400534,0.418254,0.00848118,0.320286,0.587061,-0.00678748,0.0149567,0.836716,5,0.1,13,1.7,-0.88885,4.38025,1.09154,-0.00500474,-0.619814,0.256824,-0.0070408,0.485659,-0.206187,0.0213815,0.193594,5,0.1,14,1.7,0.55116,1.64033,0.622946,-0.746854,-0.234417,-0.0215748,0.364654,0.997812,0.0151023,0.0251974,1.3054,5,0.1,15,1.7,0.13224,-0.947324,0.557353,0.478298,-0.25442,-0.0185924,-0.382548,0.203494,0.0148863,0.00907083,0.123903,5,0.1,16,1.7,-0.735758,3.86395,0.611195,0.581099,-0.113043,-0.011109,-0.464786,0.0904351,0.00890344,0.0378113,0.147811,5,0.1,17,1.7,-0.830092,-0.0436475,0.742264,0.525867,0.339095,0.010601,-0.420596,-0.303746,-0.0190102,0.00962404,0.166032,5,0.1,18,1.7,0.209973,0.301589,0.615988,0.0527042,-0.0245592,0.00951812,-0.173545,0.148719,0.0224337,0.00763821,0.294522,5,0.1,19,1.7,-3.82024,-2.00205,0.605129,0.632545,0.00508428,-0.00508754,-0.449821,-0.261575,0.00407919,0.0247811,2.52649,5,0.1,20,1.7,0.808731,-3.37395,0.583103,0.12481,0.786543,0.0157177,0.839151,-0.275761,-0.00985712,0.014386,1.49201,5,0.1,21,1.7,-2.8371,4.50534,1.10301,-0.0127893,-0.677144,0.245022,0.0101775,0.402302,-0.195973,0.0129764,0.279001,5,0.1,22,1.7,-0.416316,-1.03199,0.561661,-0.86296,0.704039,-0.00189375,-0.0276993,-0.0476316,-0.000342727,0.0101767,1.5922,5,0.1,23,1.7,-4.18834,1.55799,0.894127,-0.0750326,-0.198386,0.154623,0.323027,0.286244,-0.123695,0.0111571,0.917781,5,0.1,24,1.7,4.53285,0.445596,0.500017,-0.335315,-0.297804,0.000275485,0.17637,0.156637,0.0013262,0.0167111,0.145732,5,0.1,25,1.7,-1.2085,4.24167,1.02663,-0.129712,-0.391125,0.188972,-0.607878,0.516683,-0.769593,0.00682211,0.276776,5,0.1,26,1.7,2.6741,-2.49652,0.573204,-0.51171,0.546226,0.0187629,0.31203,-0.0624508,-0.00486895,0.0192504,0.53106,5,0.1,27,1.7,3.42535,-5.41986,0.589086,0.359523,0.0974067,0.0120842,-0.116408,-0.301033,-0.00390038,0.00853686,0.113878,5,0.1,28,1.7,0.418528,1.97265,0.790903,-0.155315,-0.636977,0.0761611,-0.149449,0.889927,0.256546,0.034841,3.01156,5,0.1,29,1.7,0.393268,0.19192,0.566868,-0.0550415,-0.066162,-0.0463296,0.440439,-0.44231,-0.112116,0.00582754,0.443324,5,0.1
0,1.8,3.01448,-2.10469,0.625707,0.573611,0.343466,-0.021328,-0.363946,-0.558257,0.0178218,0.0097404,0.268153,5,0.1,1,1.8,1.0437,5.27549,1.08139,-0.25892,-0.0256538,0.270221,0.436366,0.0243187,-0.255823,0.00957178,0.257558,5,0.1,2,1.8,1.58684,2.86021,0.521778,0.338104,0.0784755,-0.00343174,-0.165582,-0.0385046,0.00166893,0.00945548,0.0514342,5,0.1,3,1.8,1.96198,4.3377,0.901085,-0.0126958,0.01297,0.342833,0.00679493,-0.00667572,0.192791,0.0555083,0.165801,5,0.1,4,1.8,-3.89377,4.08634,0.683801,0.277013,-0.0916481,0.0311673,-0.263214,0.0867844,-0.0296235,0.00938918,0.00969069,5,0.1,5,1.8,3.1086,-2.32417,0.586465,-0.303251,-0.0275373,-0.0423327,1.5378,-0.599861,-0.059396,0.0370305,1.22379,5,0.1,6,1.8,-0.139394,3.2264,0.588294,-0.176631,0.650615,0.00787675,0.212371,-0.532508,0.00441074,0.00786399,0.164166,5,0.1,7,1.8,0.0653685,-3.89311,1.09502,-0.116064,-0.00941753,0.349623,-0.12012,0.00584126,-0.223994,0.0115416,0.105992,5,0.1,8,1.8,-2.25501,4.06247,1.08881,0.00532269,-0.258672,0.277358,-0.00286102,-0.0405312,-0.148475,0.0103748,0.0962075,5,0.1,9,1.8,0.598787,-1.60237,0.50005,0.249425,-0.373492,0.000330806,-0.182033,-0.188529,-0.000625849,0.010763,0.375745,5,0.1,10,1.8,-1.37675,-2.12525,0.627573,0.132695,0.0396192,-0.0432834,0.173926,-0.0344515,0.0376105,0.00933398,0.198485,5,0.1,11,1.8,1.34762,4.40833,0.984225,0.00326037,-0.00933409,0.251913,-0.00208616,0.0140667,0.116557,0.0180966,0.129438,5,0.1,12,1.8,3.76734,-3.51645,0.531065,-0.367534,0.471544,0.00778288,0.347853,0.444293,-0.00739098,0.0102615,0.628329,5,0.1,13,1.8,-0.889382,4.32074,1.11618,-0.00559688,-0.569654,0.23559,-0.00452995,0.530005,-0.223637,0.017399,0.127929,5,0.1,14,1.8,0.478438,1.62139,0.620866,-0.705731,-0.149897,-0.0199929,0.475079,0.672877,0.0169873,0.0231623,3.0768,5,0.1,15,1.8,0.178126,-0.971733,0.55557,0.438884,-0.233454,-0.0170588,-0.41537,0.220954,0.0161529,0.00960448,0.140281,5,0.1,16,1.8,-0.680009,3.8531,0.610129,0.533213,-0.10373,-0.0101924,-0.504673,0.0982285,0.00965595,0.0402484,0.135068,5,0.1,17,1.8,-0.779641,-0.0113032,0.743234,0.482532,0.307224,0.00883937,-0.456691,-0.337504,-0.0163913,0.0101425,0.204338,5,0.1,18,1.8,0.214676,0.299793,0.617027,0.0439219,-0.0121541,0.0110403,-0.0196248,0.101045,0.00831485,0.0074986,0.257005,5,0.1,19,1.8,-3.75928,-2.00247,0.604641,0.585562,-0.00895858,-0.00466704,-0.503659,0.00536442,0.00444055,0.0232249,2.30672,5,0.1,20,1.8,0.825565,-3.29684,0.584624,0.212179,0.753522,0.0146583,0.858665,-0.405908,-0.0116527,0.0134934,1.15135,5,0.1,21,1.8,-2.83833,4.43973,1.12651,-0.0117421,-0.633907,0.224832,0.0112057,0.478029,-0.212789,0.0155305,0.18723,5,0.1,22,1.8,-0.502585,-0.961988,0.56147,-0.859866,0.6938,-0.00190735,0.123203,-0.182569,0.000149012,0.00897426,1.14403,5,0.1,23,1.8,-4.19433,1.5397,0.908961,-0.0459671,-0.16652,0.14188,0.2563,0.345707,-0.134289,0.00963091,1.92448,5,0.1,24,1.8,4.50015,0.416556,0.500046,-0.31873,-0.283071,0.000268221,0.170708,0.15159,-0.00113249,0.0162861,0.0861665,5,0.1,25,1.8,-1.22446,4.20516,1.04178,-0.188205,-0.33896,0.115252,-0.535429,0.52762,-0.692964,0.00981759,0.228743,5,0.1,26,1.8,2.62455,-2.44227,0.575053,-0.4785,0.537467,0.0181958,0.364423,-0.135779,-0.00721216,0.0191477,0.377445,5,0.1,27,1.8,3.46066,-5.41159,0.590273,0.345802,0.0686407,0.0116244,-0.169277,-0.270367,-0.00566244,0.00891476,0.217291,5,0.1,28,1.8,0.40267,1.91367,0.799875,-0.158034,-0.540397,0.103527,0.0795573,1.02419,0.271738,0.008105,0.645279,5,0.1,29,1.8,0.389735,0.183205,0.561705,-0.0176989,-0.106683,-0.0565037,0.315696,-0.355594,-0.0866652,0.00873306,0.356678,5,0.1
0,1.9,3.07021,-2.07329,0.623654,0.542266,0.283534,-0.0197771,-0.286683,-0.627652,0.0140406,0.0097404,0.268153,5,0.1,1,1.9,1.02005,5.27302,1.10732,-0.215185,-0.0237435,0.250123,0.374988,0.015378,-0.161611,0.00957178,0.257558,5,0.1,2,1.9,1.61994,2.86789,0.521442,0.324607,0.0753373,-0.00329632,-0.12093,-0.0281036,0.00120699,0.00945548,0.0514342,5,0.1,3,1.9,1.96074,4.33869,0.936371,-0.0121184,0.00450313,0.362695,0.00530481,-0.145555,0.182256,0.0555083,0.165801,5,0.1,4,1.9,-3.86738,4.07761,0.68677,0.250871,-0.0830211,0.0282253,-0.264168,0.0872314,-0.0297315,0.00938918,0.00969069,5,0.1,5,1.9,3.08423,-2.32889,0.582055,-0.199391,-0.0579324,-0.0447834,0.6136,-0.0533015,0.00632554,0.0370305,1.22379,5,0.1,6,1.9,-0.156058,3.28893,0.589101,-0.15715,0.6009,0.00823271,0.181767,-0.479952,0.00242144,0.00786399,0.164166,5,0.1,7,1.9,0.0533431,-3.89402,1.12894,-0.122676,-0.0088796,0.329031,-0.0142297,0.00524521,-0.20007,0.0115416,0.105992,5,0.1,8,1.9,-2.25449,4.03641,1.11588,0.00507832,-0.262087,0.264714,-0.00223517,-0.0167787,-0.116356,0.0103748,0.0962075,5,0.1,9,1.9,0.622899,-1.64081,0.500078,0.233376,-0.395942,0.000231061,-0.148389,-0.23064,-0.00127777,0.010763,0.375745,5,0.1,10,1.9,-1.36283,-2.12146,0.623425,0.143361,0.0363436,-0.0397061,0.0412986,-0.0320524,0.0350215,0.00933398,0.198485,5,0.1,11,1.9,1.34794,4.40742,1.00955,0.00304915,-0.00915527,0.250641,-0.00220537,-0.0077486,-0.123523,0.0180966,0.129438,5,0.1,12,1.9,3.73223,-3.467,0.531808,-0.335305,0.517221,0.00709863,0.306711,0.432238,-0.00650808,0.0102615,0.628329,5,0.1,13,1.9,-0.889964,4.26628,1.13868,-0.00602771,-0.520554,0.21487,-0.00375509,0.467598,-0.197172,0.017399,0.127929,5,0.1,14,1.9,0.409808,1.60941,0.61895,-0.67013,-0.0965083,-0.0183451,0.277892,0.280403,0.0163801,0.0231623,3.0768,5,0.1,15,1.9,0.220256,-0.994143,0.553932,0.406252,-0.216095,-0.0157901,-0.262424,0.139594,0.0102036,0.00960448,0.140281,5,0.1,16,1.9,-0.629075,3.84317,0.609156,0.486456,-0.0951584,-0.00929795,-0.444956,0.0772029,0.00850856,0.0402484,0.135068,5,0.1,17,1.9,-0.733548,0.017535,0.744042,0.440221,0.267838,0.00737412,-0.402652,-0.439802,-0.0131465,0.0101425,0.204338,5,0.1,18,1.9,0.219373,0.29899,0.618147,0.0533667,-0.00473522,0.0111264,0.18195,0.0505596,-0.00567362,0.0074986,0.257005,5,0.1,19,1.9,-3.70311,-2.00296,0.604195,0.538994,0.00468791,-0.00425605,-0.444651,0.336498,0.00390783,0.0232249,2.30672,5,0.1,20,1.9,0.851312,-3.2234,0.586034,0.303847,0.715959,0.0135712,0.92518,-0.370815,-0.0105053,0.0134934,1.15135,5,0.1,21,1.9,-2.83945,4.37859,1.14799,-0.0107046,-0.589664,0.205117,0.00984967,0.426084,-0.187606,0.0155305,0.18723,5,0.1,22,1.9,-0.588134,-0.893406,0.56128,-0.851818,0.67822,-0.00189617,0.0795871,-0.158381,0.000163913,0.00897426,1.14403,5,0.1,23,1.9,-4.19776,1.52483,0.922514,-0.0238329,-0.130286,0.129439,0.185549,0.373594,-0.118393,0.00963091,1.92448,5,0.1,24,1.9,4.46904,0.388921,0.500066,-0.304192,-0.270161,0.000130851,0.133753,0.118796,-0.00150874,0.0162861,0.0861665,5,0.1,25,1.9,-1.24604,4.17382,1.04998,-0.24343,-0.288559,0.0504712,-0.539869,0.483006,-0.59513,0.00981759,0.228743,5,0.1,26,1.9,2.57841,-2.38907,0.576841,-0.444938,0.52727,0.0175897,0.321671,-0.0939965,-0.00570714,0.0191477,0.377445,5,0.1,27,1.9,3.49442,-5.406,0.591408,0.32934,0.0439994,0.0110731,-0.170276,-0.220627,-0.00570342,0.00891476,0.217291,5,0.1,28,1.9,0.387296,1.86572,0.81165,-0.149062,-0.410681,0.132186,0.101767,1.49877,0.284858,0.008105,0.645279,5,0.1,29,1.9,0.389262,0.170744,0.55556,0.00618245,-0.142288,-0.0667881,0.190118,-0.340281,-0.110172,0.00873306,0.356678,5,0.1
0,2,3.12297,-2.0481,0.621746,0.512236,0.220221,-0.0183776,-0.330567,-0.628591,0.0146031,0.00826841,0.163605,5,0.1,1,2,1,5.27072,1.13158,-0.19004,-0.0223279,0.235212,0.130117,0.0140667,-0.147998,0.00886347,0.209083,5,0.1,2,2,1.65176,2.87528,0.521119,0.311112,0.0722051,-0.00316054,-0.160515,-0.0371933,0.00157952,0.0101577,0.0229286,5,0.1,3,2,1.95955,4.3383,0.973386,-0.0115424,-0.0131011,0.375536,0.00667572,-0.192881,0.0593364,0.0527426,0.0980742,5,0.1,4,2,-3.84364,4.06975,0.689441,0.223476,-0.0739694,0.0251427,-0.286341,0.0946522,-0.0322461,0.0090316,0.0028622,5,0.1,5,2,3.06634,-2.33436,0.577689,-0.167143,-0.0463903,-0.0418186,0.0913143,0.247359,0.0494719,0.0403756,0.953826,5,0.1,6,2,-0.170885,3.34659,0.589931,-0.139506,0.551564,0.00831634,0.174306,-0.519037,-0.000983477,0.00760379,0.149248,5,0.1,7,2,0.0411633,-3.89488,1.1608,-0.119397,-0.00830889,0.307563,0.0770596,0.00619888,-0.237525,0.0113035,0.191765,5,0.1,8,2,-2.25399,4.01023,1.14175,0.00483394,-0.26021,0.252059,-0.00274181,0.0616312,-0.145078,0.00932381,0.104164,5,0.1,9,2,0.645487,-1.68142,0.500095,0.218135,-0.414523,9.23872e-05,-0.163049,-0.119865,-0.00149012,0.00812533,0.275049,5,0.1,10,2,-1.34849,-2.11798,0.619633,0.141445,0.0330448,-0.0360981,-0.0766516,-0.0346899,0.0378191,0.00782459,0.323358,5,0.1,11,2,1.34823,4.40645,1.03373,0.00281036,-0.010407,0.2305,-0.00268221,-0.0152588,-0.264823,0.019198,0.162863,5,0.1,12,2,3.70023,-3.41338,0.532485,-0.304502,0.551724,0.00644624,0.316262,0.2321,-0.00670552,0.011135,0.451281,5,0.1,13,2,-0.890582,4.21656,1.15918,-0.00629127,-0.473487,0.195074,-0.0013113,0.484705,-0.203073,0.022144,0.146403,5,0.1,14,2,0.344134,1.6,0.617199,-0.643081,-0.102943,-0.0166491,0.292866,-0.385821,0.017792,0.0235107,2.86666,5,0.1,15,2,0.259653,-1.0151,0.552401,0.382037,-0.203213,-0.014849,-0.240356,0.127852,0.00935793,0.00987166,0.0808696,5,0.1,16,2,-0.582652,3.83404,0.608268,0.441769,-0.0876069,-0.008443,-0.458807,0.07689,0.00876188,0.0374288,0.11291,5,0.1,17,2,-0.691537,0.0420231,0.744717,0.399782,0.221179,0.00616908,-0.415146,-0.484632,-0.0110865,0.010165,0.177177,5,0.1,18,2,0.225772,0.298708,0.619215,0.0756029,-0.00145137,0.0100762,0.242271,0.0177622,-0.0145137,0.00896328,0.216193,5,0.1,19,2,-3.65144,-2,0.603789,0.493765,0.0622064,-0.00386387,-0.471354,0.783622,0.00402331,0.0216475,1.98138,5,0.1,20,2,0.886098,-3.15377,0.587338,0.388697,0.675082,0.0124872,0.736117,-0.46432,-0.0114739,0.0119642,0.855149,5,0.1,21,2,-2.84047,4.3218,1.16756,-0.00971556,-0.545442,0.186276,0.0100136,0.47183,-0.193477,0.0119705,0.125394,5,0.1,22,2,-0.67271,-0.826532,0.561092,-0.836867,0.65717,-0.00186116,0.248402,-0.282705,0.000596046,0.00903347,0.798943,5,0.1,23,2,-4.19934,1.51368,0.934867,-0.00890493,-0.0928938,0.117549,0.113487,0.368655,-0.12207,0.0108956,1.91878,5,0.1,24,2,4.43932,0.362526,0.500072,-0.289655,-0.257242,-1.78814e-05,0.166893,0.148118,-0.0013411,0.010587,0.180769,5,0.1,25,2,-1.27289,4.14732,1.05227,-0.291196,-0.241923,-0.00254214,-0.394821,0.45085,-0.460327,0.0191508,0.476154,5,0.1,26,2,2.53555,-2.33691,0.578569,-0.411659,0.514287,0.0169218,0.354409,-0.183821,-0.00825524,0.0140106,0.399746,5,0.1,27,2,3.52643,-5.40261,0.592485,0.31004,0.0247598,0.0104249,-0.222683,-0.163794,-0.00745058,0.0092805,0.41867,5,0.1,28,2,0.372948,1.83244,0.826203,-0.1374,-0.253329,0.157662,0.132427,1.59287,0.212848,0.0359042,3.62906,5,0.1,29,2,0.390796,0.154948,0.548351,0.0245214,-0.171986,-0.0770092,0.190437,-0.242375,-0.087887,0.00680072,0.286108,5,0.1
0,2.1,3.17269,-2.02914,0.619975,0.482925,0.160019,-0.0170882,-0.274941,-0.569597,0.011865,0.00826841,0.163605,5,0.1,1,2.1,0.981598,5.26855,1.15444,-0.178309,-0.0211328,0.222633,0.111505,0.010848,-0.11377,0.00886347,0.209083,5,0.1,2,2.1,1.68207,2.88231,0.52081,0.295086,0.0684906,-0.00300203,-0.168562,-0.0390857,0.00167638,0.0101577,0.0229286,5,0.1,3,2.1,1.95843,4.33602,1.01119,-0.0109088,-0.032261,0.379588,0.00634789,-0.183761,0.00794977,0.0527426,0.0980742,5,0.1,4,2.1,-3.82272,4.06283,0.691795,0.194988,-0.0645489,0.0219354,-0.284359,0.0941157,-0.0320151,0.0090316,0.0028622,5,0.1,5,2.1,3.04925,-2.33732,0.573803,-0.181453,-0.00914335,-0.0354819,-0.321284,0.463784,0.0743419,0.0403756,0.953826,5,0.1,6,2.1,-0.184111,3.39921,0.590756,-0.126252,0.501272,0.00815401,0.100339,-0.496939,-0.00244007,0.00760379,0.149248,5,0.1,7,2.1,0.0297775,-3.89568,1.19033,-0.106844,-0.00765361,0.282664,0.165788,0.00698864,-0.263289,0.0113035,0.191765,5,0.1,8,2.1,-2.25352,3.98482,1.16633,0.00460856,-0.245135,0.240178,-0.00198185,0.230193,-0.104956,0.00932381,0.104164,5,0.1,9,2.1,0.666549,-1.72353,0.500097,0.203533,-0.427482,-3.49246e-05,-0.136729,-0.115782,-0.00106171,0.00812533,0.275049,5,0.1,10,2.1,-1.33497,-2.11482,0.616213,0.126969,0.030503,-0.0322779,-0.200652,-0.0185221,0.0388063,0.00782459,0.323358,5,0.1,11,2.1,1.3485,4.40535,1.05518,0.00255834,-0.0115849,0.19667,-0.00242144,-0.00777841,-0.377074,0.019198,0.162863,5,0.1,12,2.1,3.67127,-3.35705,0.533099,-0.275465,0.57425,0.00583101,0.272915,0.18917,-0.0057742,0.011135,0.451281,5,0.1,13,2.1,-0.891222,4.17127,1.17783,-0.0065472,-0.435262,0.178992,-0.00321865,0.307173,-0.129744,0.022144,0.146403,5,0.1,14,2.1,0.281038,1.58696,0.615617,-0.620526,-0.164581,-0.0150486,0.190913,-0.79295,0.014741,0.0235107,2.86666,5,0.1,15,2.1,0.296789,-1.03485,0.550958,0.361607,-0.192346,-0.0140538,-0.184799,0.0983104,0.00718981,0.00987166,0.0808696,5,0.1,16,2.1,-0.540428,3.82572,0.607461,0.40546,-0.0781577,-0.00774963,-0.292726,0.109479,0.00559166,0.0374288,0.11291,5,0.1,17,2.1,-0.653512,0.0617011,0.745283,0.361665,0.172403,0.00519091,-0.358235,-0.483542,-0.0086762,0.010165,0.177177,5,0.1,18,2.1,0.234803,0.298486,0.620125,0.106926,-0.0044012,0.00793552,0.357433,-0.0667665,-0.0267215,0.00896328,0.216193,5,0.1,19,2.1,-3.60428,-1.98932,0.603422,0.450468,0.155607,-0.00349488,-0.408784,1.03302,0.00346452,0.0216475,1.98138,5,0.1,20,2.1,0.92865,-3.08845,0.588533,0.461389,0.632051,0.0114268,0.679649,-0.417411,-0.0100881,0.0119642,0.855149,5,0.1,21,2.1,-2.84139,4.26947,1.18528,-0.00879541,-0.501978,0.168513,0.00864267,0.413537,-0.166938,0.0119705,0.125394,5,0.1,22,2.1,-0.75528,-0.762129,0.560909,-0.814931,0.63128,-0.00180556,0.224113,-0.259005,0.000584871,0.00903347,0.798943,5,0.1,23,2.1,-4.19973,1.50618,0.946047,0.000158697,-0.0576815,0.106342,0.0620186,0.329874,-0.105336,0.0108956,1.91878,5,0.1,24,2.1,4.41128,0.337592,0.500065,-0.270067,-0.240894,-0.00011418,0.225306,0.181517,-0.000625849,0.010587,0.180769,5,0.1,25,2.1,-1.30299,4.12474,1.05064,-0.301859,-0.215185,-0.0220155,0.142321,0.12064,0.0265017,0.0191508,0.476154,5,0.1,26,2.1,2.49605,-2.28615,0.580223,-0.379108,0.502633,0.0161839,0.308976,-0.0800192,-0.00714138,0.0140106,0.399746,5,0.1,27,2.1,3.55633,-5.40094,0.59349,0.287954,0.00887215,0.00968501,-0.22544,-0.144124,-0.00756234,0.0092805,0.41867,5,0.1,28,2.1,0.360252,1.8127,0.842876,-0.113274,-0.162442,0.174162,0.327449,0.336215,0.11427,0.0359042,3.62906,5,0.1,29,2.1,0.394199,0.136472,0.540315,0.0443558,-0.197714,-0.0826851,0.234919,-0.253624,-0.026349,0.00680072,0.286108,5,0.1
0,2.2,3.21957,-2.01584,0.618326,0.453967,0.107276,-0.0158876,-0.317574,-0.481367,0.012666,0.0083614,0.114421,5,0.1,1,2.2,0.96434,5.26649,1.17613,-0.166559,-0.0200033,0.210717,0.128269,0.0126362,-0.131607,0.0086593,0.227141,5,0.1,2,2.2,1.71067,2.88895,0.520519,0.276002,0.0640631,-0.00281036,-0.21857,-0.0505447,0.00217557,0.0144472,0.0135165,5,0.1,3,2.2,1.95737,4.33193,1.04901,-0.0102133,-0.0487328,0.374869,0.0077486,-0.140905,-0.111222,0.0492275,0.0836228,5,0.1,4,2.2,-3.80465,4.05684,0.693828,0.166482,-0.0551105,0.0187278,-0.285983,0.0944138,-0.0321865,0.00776786,0.00112599,5,0.1,5,2.2,3.0292,-2.33579,0.570647,-0.221467,0.0403881,-0.0274748,-0.43571,0.500798,0.0834167,0.0366522,0.773279,5,0.1,6,2.2,-0.196292,3.44683,0.591555,-0.117763,0.450504,0.00780076,0.0766292,-0.524998,-0.00476837,0.00892874,0.251622,5,0.1,7,2.2,0.0200121,-3.89641,1.21722,-0.0877346,-0.00690222,0.254485,0.209661,0.00810623,-0.3016,0.0114525,0.184627,5,0.1,8,2.2,-2.25307,3.96167,1.1898,0.00439286,-0.216031,0.228962,-0.0025034,0.343084,-0.12815,0.00784007,0.192398,5,0.1,9,2.2,0.686211,-1.76669,0.500089,0.189474,-0.43371,-0.000120699,-0.149876,0.00745058,-0.000655651,0.00801009,0.194418,5,0.1,10,2.2,-1.3234,-2.11185,0.613182,0.103515,0.0289261,-0.0283048,-0.258684,-0.014782,0.0407696,0.00888851,0.318232,5,0.1,11,2.2,1.34874,4.40416,1.07299,0.00231266,-0.0118971,0.160447,-0.002563,0.00190735,-0.328422,0.0162547,0.245549,5,0.1,12,2.2,3.64507,-3.29894,0.533653,-0.248486,0.58465,0.00526011,0.272393,-0.000834465,-0.00575185,0.0122785,0.312617,5,0.1,13,2.2,-0.891892,4.12917,1.19512,-0.00683218,-0.40729,0.167182,-0.00208616,0.272274,-0.114679,0.0222247,0.236148,5,0.1,14,2.2,0.219991,1.56625,0.614184,-0.599311,-0.251472,-0.0136092,0.256598,-0.898242,0.0143647,0.0281197,2.41399,5,0.1,15,2.2,0.332007,-1.05359,0.549589,0.342254,-0.182053,-0.0133008,-0.213906,0.113845,0.00828505,0.0104922,0.0623793,5,0.1,16,2.2,-0.501242,3.81849,0.606712,0.378816,-0.0662029,-0.00724047,-0.258833,0.127196,0.00494719,0.0397804,0.354633,5,0.1,17,2.2,-0.619116,0.0765759,0.745761,0.326255,0.125761,0.0044018,-0.357687,-0.443757,-0.00730157,0.0118058,0.287491,5,0.1,18,2.2,0.247292,0.29764,0.620776,0.142418,-0.0130251,0.00501275,0.33246,-0.0979155,-0.0305176,0.0073508,0.472353,5,0.1,19,2.2,-3.56127,-1.96854,0.60309,0.409603,0.259459,-0.00315309,-0.418544,1.00189,0.00348687,0.027171,1.66927,5,0.1,20,2.2,0.977838,-3.02739,0.589625,0.518191,0.588048,0.0104114,0.430137,-0.477076,-0.0105202,0.0115736,0.608284,5,0.1,21,2.2,-2.84223,4.22135,1.20131,-0.00793934,-0.460017,0.152013,0.00870228,0.436783,-0.166655,0.0122457,0.309441,5,0.1,22,2.2,-0.835467,-0.700416,0.560731,-0.786357,0.601342,-0.00173301,0.370532,-0.356019,0.000923872,0.00903897,0.546634,5,0.1,23,2.2,-4.19952,1.50195,0.956161,0.00281334,-0.0280827,0.0959307,-0.00977516,0.256181,-0.105172,0.0101555,1.9101,5,0.1,24,2.2,4.3855,0.314482,0.500051,-0.244617,-0.220544,-0.000150502,0.283003,0.226736,-0.000119209,0.0120209,0.339048,5,0.1,25,2.2,-1.33185,4.10353,1.04907,-0.26992,-0.211275,-0.00522435,0.463903,-0.0143051,0.273824,0.0160911,0.242646,5,0.1,26,2.2,2.45969,-2.23633,0.581804,-0.347763,0.493008,0.015384,0.326514,-0.134587,-0.00926852,0.0141439,0.489559,5,0.1,27,2.2,3.58395,-5.40068,0.594419,0.263906,-0.00255108,0.00887662,-0.259399,-0.0793934,-0.00867248,0.00844577,0.786476,5,0.1,28,2.2,0.350729,1.79682,0.860683,-0.0759691,-0.166041,0.180121,0.400737,-0.319242,0.0038445,0.0359534,2.21449,5,0.1,29,2.2,0.4,0.115538,0.532011,0.0734143,-0.219546,-0.0824645,0.336677,-0.169941,0.0296533,0.00625486,0.23847,5,0.1
0,2.3,3.26349,-2.00735,0.616795,0.425309,0.0643332,-0.0147559,-0.271395,-0.375316,0.0105277,0.0083614,0.114421,5,0.1,1,2.3,0.948463,5.26483,1.19657,-0.149765,-0.0109203,0.198375,0.202,0.151962,-0.121772,0.0086593,0.227141,5,0.1,2,2.3,1.7372,2.89511,0.520249,0.254528,0.0590935,-0.0025956,-0.217542,-0.0503659,0.00219047,0.0144472,0.0135165,5,0.1,3,2.3,1.95639,4.32651,1.08598,-0.00951532,-0.0582844,0.364473,0.00657886,-0.0528693,-0.111356,0.0492275,0.0836228,5,0.1,4,2.3,-3.78941,4.0518,0.695542,0.138561,-0.0458844,0.0155858,-0.271887,0.0899136,-0.0305958,0.00776786,0.00112599,5,0.1,5,2.3,3.00455,-2.32911,0.568327,-0.273738,0.0938643,-0.0188777,-0.566974,0.543341,0.0864267,0.0366522,0.773279,5,0.1,6,2.3,-0.20767,3.48904,0.592309,-0.109599,0.392095,0.00724727,0.088254,-0.63245,-0.00630692,0.00892874,0.251622,5,0.1,7,2.3,0.0123133,-3.89706,1.24117,-0.0661151,-0.00609569,0.224576,0.217405,0.00806153,-0.298209,0.0114525,0.184627,5,0.1,8,2.3,-2.25264,3.94193,1.21203,0.00412539,-0.17746,0.215177,-0.00292063,0.416458,-0.150979,0.00784007,0.192398,5,0.1,9,2.3,0.704462,-1.81005,0.500074,0.175927,-0.433323,-0.000164006,-0.127438,0.0191629,-0.000234693,0.00801009,0.194418,5,0.1,10,2.3,-1.31445,-2.10905,0.610552,0.0748806,0.0268795,-0.0243405,-0.297248,-0.0256598,0.0386462,0.00888851,0.318232,5,0.1,11,2.3,1.34896,4.403,1.0875,0.00206456,-0.0111595,0.131859,-0.00244379,0.0123978,-0.208102,0.0162547,0.245549,5,0.1,12,2.3,3.6215,-3.24048,0.534152,-0.223657,0.584082,0.00473596,0.231266,-0.0340939,-0.00488013,0.0122785,0.312617,5,0.1,13,2.3,-0.892583,4.08961,1.21127,-0.00694375,-0.385548,0.155608,0,0.183165,-0.119939,0.0222247,0.236148,5,0.1,14,2.3,0.161182,1.53703,0.61289,-0.577799,-0.330894,-0.0123187,0.199891,-0.765845,0.01188,0.0281197,2.41399,5,0.1,15,2.3,0.365309,-1.0713,0.548295,0.324818,-0.172773,-0.0126258,-0.152003,0.0808835,0.00588596,0.0104922,0.0623793,5,0.1,16,2.3,-0.464608,3.81263,0.606019,0.35407,-0.0500441,-0.00657095,-0.246268,0.187039,0.00820681,0.0397804,0.354633,5,0.1,17,2.3,-0.588165,0.0870393,0.746168,0.293653,0.0846527,0.00376552,-0.303641,-0.375102,-0.00558794,0.0118058,0.287491,5,0.1,18,2.3,0.263308,0.295785,0.621118,0.178431,-0.024532,0.00178572,0.364935,-0.124704,-0.0328571,0.0073508,0.472353,5,0.1,19,2.3,-3.52227,-1.93817,0.602791,0.371384,0.344066,-0.00283578,-0.357702,0.764161,0.0029467,0.027171,1.66927,5,0.1,20,2.3,1.03175,-2.97084,0.590616,0.558591,0.543996,0.00944696,0.34795,-0.421539,-0.00905991,0.0115736,0.608284,5,0.1,21,2.3,-2.84298,4.17709,1.21573,-0.00714622,-0.428878,0.136823,0.00737607,0.219226,-0.141472,0.0122457,0.309441,5,0.1,22,2.3,-0.912369,-0.641958,0.560562,-0.752169,0.568349,-0.00164621,0.340857,-0.323564,0.000864267,0.00903897,0.546634,5,0.1,23,2.3,-4.19937,1.50026,0.965261,-0.000940263,-0.00764113,0.0863449,-0.0767708,0.146575,-0.0892766,0.0101555,1.9101,5,0.1,24,2.3,4.36261,0.293489,0.500036,-0.211913,-0.199882,-0.000146218,0.362843,0.193046,0.000171363,0.0120209,0.339048,5,0.1,25,2.3,-1.35642,4.08208,1.05027,-0.220693,-0.219552,0.0319034,0.510715,-0.126421,0.438228,0.0160911,0.242646,5,0.1,26,2.3,2.42645,-2.18807,0.583299,-0.317891,0.468554,0.0145365,0.281259,-0.346541,-0.00820681,0.0141439,0.489559,5,0.1,27,2.3,3.60902,-5.40134,0.595263,0.237156,-0.0100687,0.00798097,-0.276595,-0.0447631,-0.00927225,0.00844577,0.786476,5,0.1,28,2.3,0.344746,1.77823,0.878487,-0.0471947,-0.208438,0.173876,0.190156,-0.48814,-0.121742,0.0359534,2.21449,5,0.1,29,2.3,0.409179,0.0926138,0.524026,0.111105,-0.239592,-0.0762117,0.394044,-0.20924,0.0907443,0.00625486,0.23847,5,0.1
0,2.4,3.30464,-2.00261,0.615373,0.397003,0.032413,-0.0136852,-0.305653,-0.262976,0.0112951,0.0145268,0.198218,5,0.1,1,2.4,0.934579,5.26461,1.21577,-0.127211,0.00736713,0.185263,0.244141,0.200033,-0.144839,0.00806387,0.271407,5,0.1,2,2.4,1.76152,2.90076,0.520001,0.231436,0.0537395,-0.00236332,-0.248194,-0.0574589,0.0025332,0.0137386,0.00420586,5,0.1,3,2.4,1.95547,4.32054,1.12177,-0.00883341,-0.0598669,0.350156,0.00727177,0.0183582,-0.184774,0.0543468,0.141774,5,0.1,4,2.4,-3.77688,4.04765,0.696951,0.112224,-0.0371695,0.0126228,-0.254273,0.0841618,-0.0286102,0.00861591,0.000887936,5,0.1,5,2.4,2.97441,-2.31711,0.566862,-0.327456,0.144672,-0.0105545,-0.47636,0.454307,0.0784397,0.0376763,0.601074,5,0.1,6,2.4,-0.218159,3.52499,0.593,-0.0998691,0.326014,0.00653863,0.107169,-0.680089,-0.00783801,0.0079639,0.238382,5,0.1,7,2.4,0.00676557,-3.89763,1.26213,-0.0451702,-0.00528693,0.194606,0.197653,0.00822544,-0.302017,0.0114502,0.403441,5,0.1,8,2.4,-2.25224,3.92631,1.23273,0.00379682,-0.134856,0.198227,-0.00369549,0.426292,-0.189781,0.00920537,0.411634,5,0.1,9,2.4,0.721412,-1.85314,0.500057,0.162905,-0.426713,-0.000171363,-0.137478,0.125766,2.98023e-05,0.00878081,0.134044,5,0.1,10,2.4,-1.3084,-2.10651,0.608308,0.0468254,0.0239015,-0.0205547,-0.252962,-0.0334978,0.0371337,0.00828598,0.303219,5,0.1,11,2.4,1.34916,4.40196,1.1,0.00182092,-0.00950098,0.121504,-0.0025034,0.0200272,-0.00751019,0.0193,0.205841,5,0.1,12,2.4,3.60027,-3.18245,0.534602,-0.201029,0.573897,0.00425726,0.226378,-0.18537,-0.00473857,0.00946195,0.211339,5,0.1,13,2.4,-0.893273,4.05196,1.2262,-0.00681281,-0.367117,0.142688,0.00274181,0.20051,-0.140429,0.019258,0.577501,5,0.1,14,2.4,0.104483,1.5,0.611716,-0.554875,-0.410509,-0.0111595,0.276924,-0.809431,0.0116825,0.021868,1.95143,5,0.1,15,2.4,0.397019,-1.08817,0.547062,0.308932,-0.164321,-0.0120088,-0.177816,0.0946522,0.00685453,0.0103666,0.0281226,5,0.1,16,2.4,-0.430479,3.80859,0.605407,0.327863,-0.0303864,-0.00564456,-0.284687,0.19908,0.0100732,0.00562005,0.563584,5,0.1,17,2.4,-0.560291,0.093764,0.746519,0.263943,0.0512367,0.00325739,-0.297189,-0.291556,-0.00470877,0.0103262,0.273652,5,0.1,18,2.4,0.282875,0.292715,0.621136,0.211475,-0.0366576,-0.0013575,0.279531,-0.112221,-0.0291467,0.0090132,0.279709,5,0.1,19,2.4,-3.4869,-1.9,0.602521,0.336033,0.418693,-0.0025481,-0.357509,0.718594,0.00286102,0.0301777,1.3409,5,0.1,20,2.4,1.08901,-2.91857,0.591516,0.582784,0.500774,0.00854731,0.115871,-0.455141,-0.00908971,0.0115537,0.418025,5,0.1,21,2.4,-2.84366,4.13516,1.22872,-0.00642538,-0.410378,0.122979,0.00727177,0.175476,-0.138402,0.010807,0.234639,5,0.1,22,2.4,-0.985747,-0.586819,0.560402,-0.713539,0.533313,-0.00155121,0.450492,-0.390619,0.00110269,0.0103029,0.369266,5,0.1,23,2.4,-4.2,1.5,0.973458,-0.0130415,0,0.0776082,-0.159264,0,-0.0873506,0.0112328,0.309359,5,0.1,24,2.4,4.3433,0.274454,0.500023,-0.173569,-0.180821,-0.000119209,0.397205,0.192747,0.000298023,0.0120714,0.332826,5,0.1,25,2.4,-1.37593,4.05947,1.05571,-0.169554,-0.232255,0.0770658,0.504136,-0.109434,0.441909,0.0173675,0.164546,5,0.1,26,2.4,2.39606,-2.14324,0.58471,-0.289756,0.425303,0.0136539,0.288844,-0.510335,-0.00980496,0.0113588,0.463166,5,0.1,27,2.4,3.63132,-5.40236,0.596013,0.208473,-0.00790358,0.00701696,-0.297189,0.0977516,-0.00995398,0.00807326,3.64197,5,0.1,28,2.4,0.340735,1.75494,0.895107,-0.0351444,-0.256598,0.157097,0.0634044,-0.445068,-0.207543,0.0332209,1.75188,5,0.1,29,2.4,0.422198,0.0676898,0.516927,0.148232,-0.257673,-0.0651777,0.33164,-0.136884,0.125974,0.00848792,0.218618,5,0.1
0,2.5,3.34291,-2.00051,0.614057,0.369199,0.0113729,-0.0126677,-0.263467,-0.15898,0.00951439,0.0145268,0.198218,5,0.1,1,2.5,0.923125,5.26649,1.23355,-0.101534,0.0312164,0.169934,0.263851,0.261664,-0.163019,0.00806387,0.271407,5,0.1,2,2.5,1.78342,2.90584,0.519777,0.206476,0.0479564,-0.00210842,-0.253074,-0.0586808,0.00258163,0.0137386,0.00420586,5,0.1,3,2.5,1.95462,4.31476,1.15578,-0.00808556,-0.0547387,0.329051,0.00778586,0.0787675,-0.240393,0.0543468,0.141774,5,0.1,4,2.5,-3.76689,4.04434,0.698074,0.0879705,-0.0291392,0.009894,-0.229925,0.0761747,-0.025861,0.00861591,0.000887936,5,0.1,5,2.5,2.9392,-2.30037,0.566192,-0.376756,0.189479,-0.00296067,-0.476778,0.422478,0.0719056,0.0376763,0.601074,5,0.1,6,2.5,-0.22776,3.55413,0.593614,-0.0933794,0.256486,0.00574328,0.0328729,-0.698864,-0.00806898,0.0079639,0.238382,5,0.1,7,2.5,0.00326434,-3.89812,1.28012,-0.0249046,-0.00449531,0.165541,0.195154,0.0076443,-0.280313,0.0114502,0.403441,5,0.1,8,2.5,-2.25188,3.91491,1.2516,0.00342615,-0.09389,0.17912,-0.00374019,0.386715,-0.194363,0.00920537,0.411634,5,0.1,9,2.5,0.737062,-1.89522,0.500041,0.150426,-0.414771,-0.000157207,-0.117369,0.128433,0.000230968,0.00878081,0.134044,5,0.1,10,2.5,-1.30495,-2.10429,0.606432,0.0230575,0.0203814,-0.0170321,-0.198297,-0.0364631,0.0334121,0.00828598,0.303219,5,0.1,11,2.5,1.34933,4.40113,1.11248,0.00157822,-0.00712574,0.131061,-0.00236183,0.0259876,0.169732,0.0193,0.205841,5,0.1,12,2.5,3.58122,-3.12596,0.535005,-0.180518,0.555847,0.00382764,0.189766,-0.194997,-0.00398234,0.00946195,0.211339,5,0.1,13,2.5,-0.893939,4.0166,1.23979,-0.00650501,-0.336979,0.129219,0.0035353,0.38892,-0.131726,0.019258,0.577501,5,0.1,14,2.5,0.0502598,1.45437,0.610654,-0.530246,-0.505394,-0.0101114,0.236957,-1.01385,0.00964105,0.021868,1.95143,5,0.1,15,2.5,0.427049,-1.10414,0.545894,0.291693,-0.155147,-0.0113434,-0.175996,0.0936463,0.00680611,0.0103666,0.0281226,5,0.1,16,2.5,-0.40006,3.80719,0.604928,0.272509,0.00759214,-0.00364473,-0.766946,0.514865,0.0276156,0.00562005,0.563584,5,0.1,17,2.5,-0.535283,0.0975444,0.746823,0.237016,0.0256052,0.00285124,-0.249106,-0.217736,-0.00354275,0.0103262,0.273652,5,0.1,18,2.5,0.304938,0.288475,0.620856,0.225302,-0.0481299,-0.00421461,0.0104699,-0.111507,-0.0271276,0.0090132,0.279709,5,0.1,19,2.5,-3.45497,-1.85416,0.60228,0.303553,0.500167,-0.002289,-0.302017,0.848681,0.00239909,0.0301777,1.3409,5,0.1,20,2.5,1.14782,-2.87063,0.592328,0.592445,0.458957,0.00771908,0.053294,-0.395879,-0.00772253,0.0115537,0.418025,5,0.1,21,2.5,-2.84427,4.0949,1.24037,-0.00576749,-0.39551,0.110439,0.00607967,0.139505,-0.116035,0.010807,0.234639,5,0.1,22,2.5,-1.05498,-0.53533,0.560253,-0.671736,0.497148,-0.00144849,0.408389,-0.349034,0.0010021,0.0103029,0.369266,5,0.1,23,2.5,-4.20251,1.5,0.980848,-0.0403464,0,0.0707405,-0.355661,0,-0.0546575,0.0112328,0.309359,5,0.1,24,2.5,4.32795,0.25729,0.500012,-0.133504,-0.162807,-8.56817e-05,0.397265,0.171798,0.000350177,0.0120714,0.332826,5,0.1,25,2.5,-1.3904,4.03569,1.06568,-0.120356,-0.243078,0.122274,0.473402,-0.0938177,0.442326,0.0173675,0.164546,5,0.1,26,2.5,2.36844,-2.10359,0.586029,-0.263439,0.364899,0.0127524,0.246122,-0.677481,-0.00865757,0.0113588,0.463166,5,0.1,27,2.5,3.65066,-5.40277,0.596664,0.178082,0.00306219,0.00599772,-0.30838,0.282168,-0.0103563,0.00807326,3.64197,5,0.1,28,2.5,0.337344,1.72768,0.909704,-0.0343127,-0.282926,0.134217,-0.0350866,-0.0967085,-0.245277,0.0332209,1.75188,5,0.1,29,2.5,0.438593,0.0410948,0.511074,0.178532,-0.27505,-0.0516427,0.263657,-0.186953,0.141028,0.00848792,0.218618,5,0.1
0,2.6,3.3785,-2.00001,0.612837,0.342095,0.000137091,-0.0117034,-0.287652,-0.0693798,0.010103,0.00847461,0.33137,5,0.1,1,2.6,0.914286,5.27092,1.24969,-0.0754222,0.0570297,0.152484,0.254065,0.243187,-0.186563,0.00791577,0.256681,5,0.1,2,2.6,1.80278,2.91034,0.51958,0.180528,0.0419319,-0.00184327,-0.26679,-0.0617504,0.00274181,0.0110237,0.00130234,5,0.1,3,2.6,1.95385,4.30975,1.18737,-0.00726283,-0.0450969,0.301653,0.00870228,0.109673,-0.308812,0.0523173,0.195388,5,0.1,4,2.6,-3.7592,4.04179,0.69894,0.0663936,-0.0219941,0.00746697,-0.201106,0.0669956,-0.02262,0.00857552,0.000756457,5,0.1,5,2.6,2.89936,-2.27949,0.566234,-0.417221,0.22589,0.00357032,-0.309348,0.292301,0.0575781,0.0410681,0.44156,5,0.1,6,2.6,-0.236987,3.57633,0.594147,-0.0914961,0.188285,0.00492781,0.0125393,-0.656128,-0.00828505,0.0090605,0.18663,5,0.1,7,2.6,0.00166506,-3.89853,1.2953,-0.00812298,-0.00375509,0.138381,0.13315,0.00727177,-0.263453,0.00929691,0.783633,5,0.1,8,2.6,-2.25156,3.90734,1.26852,0.00303984,-0.0585377,0.159046,-0.00405312,0.316381,-0.208199,0.0119466,0.361378,5,0.1,9,2.6,0.751516,-1.93595,0.500026,0.138536,-0.398454,-0.00012815,-0.124097,0.208318,0.000327826,0.0106638,0.156763,5,0.1,10,2.6,-1.3034,-2.10244,0.60489,0.0105023,0.0166953,-0.0138566,-0.0435114,-0.0368357,0.0301898,0.0072958,0.265995,5,0.1,11,2.6,1.34947,4.40054,1.12653,0.00134706,-0.00454187,0.150394,-0.00226498,0.0247955,0.195265,0.0196248,0.170082,5,0.1,12,2.6,3.5641,-3.07149,0.535369,-0.162065,0.531673,0.00343919,0.183582,-0.301242,-0.0038445,0.0101227,0.140954,5,0.1,13,2.6,-0.89457,3.98506,1.25205,-0.00608563,-0.291836,0.115883,0.00494719,0.502467,-0.136912,0.0185356,0.5704,5,0.1,14,2.6,-0.00150381,1.39893,0.60969,-0.503879,-0.600418,-0.00917017,0.305111,-0.832438,0.00947714,0.0198294,1.48948,5,0.1,15,2.6,0.455281,-1.11915,0.544796,0.272238,-0.144798,-0.0105888,-0.219002,0.116527,0.00846386,0.0125312,0.0108346,5,0.1,16,2.6,-0.377061,3.81074,0.604714,0.184403,0.0645161,-0.000531971,-0.95132,0.588417,0.0328422,0.00666796,0.346288,5,0.1,17,2.6,-0.512799,0.0991582,0.747092,0.21279,0.00811964,0.00252724,-0.240952,-0.131015,-0.00309944,0.0110217,0.425037,5,0.1,18,2.6,0.327169,0.283144,0.620308,0.216118,-0.0579834,-0.00663549,-0.182152,-0.0815243,-0.0206828,0.0111304,0.264927,5,0.1,19,2.6,-3.4261,-1.80011,0.602063,0.273931,0.577718,-0.00205636,-0.297427,0.657439,0.00232458,0.0275916,1.01871,5,0.1,20,2.6,1.20707,-2.82671,0.593062,0.589448,0.419104,0.00695884,-0.129044,-0.411391,-0.00759959,0.0122751,0.280875,5,0.1,21,2.6,-2.84482,4.0561,1.25085,-0.00517368,-0.379491,0.0991553,0.00584126,0.193357,-0.112295,0.0118775,0.578091,5,0.1,22,2.6,-1.12003,-0.487401,0.560113,-0.628021,0.460746,-0.00134408,0.481546,-0.390276,0.00113249,0.0112843,0.247888,5,0.1,23,2.6,-4.20843,1.5,0.987671,-0.0786662,0,0.0658661,-0.387192,0,-0.0462532,0.0118762,0.269715,5,0.1,24,2.6,4.31654,0.241861,0.500006,-0.0953078,-0.145741,-5.21541e-05,0.361919,0.172451,0.000327826,0.0148296,0.307694,5,0.1,25,2.6,-1.40016,4.01103,1.07998,-0.075984,-0.24879,0.162125,0.409484,-0.0116825,0.340462,0.0178706,0.118648,5,0.1,26,2.6,2.34331,-2.07063,0.58726,-0.239068,0.293458,0.0118479,0.247598,-0.735283,-0.00971556,0.0126273,0.447532,5,0.1,27,2.6,3.66692,-5.4,0.597212,0.147235,0.0628829,0.00496209,-0.306845,0.896692,-0.0103414,0.00900185,3.17625,5,0.1,28,2.6,0.333654,1.69937,0.921871,-0.0400871,-0.27886,0.108916,-0.0713021,0.164092,-0.256836,0.0337295,3.61486,5,0.1,29,2.6,0.457581,0.0127319,0.506614,0.199203,-0.291,-0.037621,0.142872,-0.115116,0.136614,0.00611741,0.208923,5,0.1
0,2.7,3.41155,-2.00025,0.611708,0.321085,-0.00431351,-0.0109713,-0.155166,-0.0225753,0.00533089,0.00847461,0.33137,5,0.1,1,2.7,0.907966,5.27787,1.26402,-0.0515264,0.0819556,0.134276,0.221282,0.243694,-0.179015,0.00791577,0.256681,5,0.1,2,2.7,1.81951,2.91423,0.519409,0.154121,0.0358142,-0.00157198,-0.26118,-0.0605583,0.00267848,0.0110237,0.00130234,5,0.1,3,2.7,1.95317,4.30581,1.216,-0.00642706,-0.0335589,0.271111,0.00811368,0.117421,-0.305854,0.0523173,0.195388,5,0.1,4,2.7,-3.75352,4.03991,0.699579,0.0476941,-0.0157677,0.00536377,-0.172257,0.0573099,-0.0193678,0.00857552,0.000756457,5,0.1,5,2.7,2.8561,-2.25549,0.566867,-0.447338,0.253381,0.00893967,-0.267223,0.242457,0.0486635,0.0410681,0.44156,5,0.1,6,2.7,-0.246157,3.59249,0.594605,-0.0925106,0.140265,0.00428651,-0.0241697,-0.330448,-0.00490248,0.0090605,0.18663,5,0.1,7,2.7,0.00151625,-3.89887,1.30787,0.00440789,-0.00306703,0.113388,0.0904991,0.00648201,-0.236765,0.00929691,0.783633,5,0.1,8,2.7,-2.25128,3.90297,1.28339,0.00263676,-0.0301365,0.1383,-0.00399351,0.246271,-0.20688,0.0119466,0.361378,5,0.1,9,2.7,0.764864,-1.97503,0.500015,0.129341,-0.385349,-9.35979e-05,-0.0688769,0.0812933,0.000353903,0.0106638,0.156763,5,0.1,10,2.7,-1.30236,-2.10095,0.603649,0.0132734,0.0130959,-0.0110493,0.128485,-0.0348687,0.0260435,0.0072958,0.265995,5,0.1,11,2.7,1.3496,4.4002,1.14262,0.00112951,-0.00234693,0.171589,-0.00208616,0.0186563,0.211462,0.0196248,0.170082,5,0.1,12,2.7,3.54874,-3.01977,0.535695,-0.145512,0.503042,0.00309218,0.152424,-0.287428,-0.00320375,0.0101227,0.140954,5,0.1,13,2.7,-0.895154,3.95854,1.26298,-0.00559743,-0.23756,0.103073,0.00492483,0.569239,-0.121742,0.0185356,0.5704,5,0.1,14,2.7,-0.0504716,1.3346,0.608817,-0.47608,-0.685983,-0.00832044,0.268344,-0.821531,0.00781566,0.0198294,1.48948,5,0.1,15,2.7,0.481404,-1.13305,0.54378,0.250051,-0.132994,-0.00972971,-0.22883,0.12172,0.00887364,0.0125312,0.0108346,5,0.1,16,2.7,-0.363443,3.82034,0.604836,0.0879808,0.128727,0.00303332,-0.951158,0.66191,0.0367835,0.00666796,0.346288,5,0.1,17,2.7,-0.49264,0.0993492,0.74733,0.191063,-0.00347367,0.0022619,-0.200074,-0.0827014,-0.00231341,0.0110217,0.425037,5,0.1,18,2.7,0.347605,0.276944,0.619545,0.190311,-0.0658485,-0.00857757,-0.320241,-0.0713393,-0.0174902,0.0111304,0.264927,5,0.1,19,2.7,-3.40009,-1.73897,0.601868,0.247027,0.644621,-0.001847,-0.248954,0.63245,0.00192225,0.0275916,1.01871,5,0.1,20,2.7,1.26537,-2.78673,0.593723,0.576092,0.381497,0.00626985,-0.157811,-0.353038,-0.0063926,0.0122751,0.280875,5,0.1,21,2.7,-2.84531,4.01951,1.26024,-0.00464655,-0.348943,0.0890296,0.00484288,0.402436,-0.0932366,0.0118775,0.578091,5,0.1,22,2.7,-1.18056,-0.443164,0.559984,-0.583462,0.42477,-0.0012395,0.428617,-0.342909,0.0010021,0.0112843,0.247888,5,0.1,23,2.7,-4.21828,1.5,0.994056,-0.118392,0,0.0620364,-0.389367,0,-0.033427,0.0118762,0.269715,5,0.1,24,2.7,4.30877,0.228143,0.500002,-0.0607163,-0.128681,-2.44007e-05,0.32109,0.169768,0.000223517,0.0148296,0.307694,5,0.1,25,2.7,-1.4058,3.98646,1.09783,-0.0378324,-0.239429,0.193671,0.349723,0.186563,0.278071,0.0178706,0.118648,5,0.1,26,2.7,2.32056,-2.045,0.588399,-0.216598,0.219035,0.0109553,0.209019,-0.733405,-0.00850111,0.0126273,0.447532,5,0.1,27,2.7,3.68033,-5.3879,0.597688,0.122897,0.189559,0.00483477,-0.190362,1.52308,0.00590459,0.00900185,3.17625,5,0.1,28,2.7,0.329243,1.67276,0.931486,-0.0484014,-0.249602,0.0835549,-0.0883639,0.396691,-0.247419,0.0337295,3.61486,5,0.1,29,2.7,0.478106,-0.0170894,0.503509,0.210069,-0.306252,-0.0247986,0.068957,-0.165403,0.117961,0.00611741,0.208923,5,0.1
0,2.8,3.44295,-2.00074,0.610635,0.307143,-0.0049293,-0.0104994,-0.140429,0.0077486,0.00470877,0.00974109,0.278241,5,0.1,1,2.8,0.903848,5.28721,1.27656,-0.0315726,0.103796,0.116456,0.176281,0.185013,-0.178218,0.0109176,0.398007,5,0.1,2,2.8,1.83363,2.91751,0.519265,0.128347,0.0298321,-0.00130832,-0.253916,-0.0590086,0.0025928,0.0116114,0.000775407,5,0.1,3,2.8,1.95257,4.30303,1.24157,-0.0056237,-0.0222325,0.239876,0.00810623,0.106573,-0.321031,0.0549893,0.319033,5,0.1,4,2.8,-3.74956,4.03861,0.700024,0.0320435,-0.0105739,0.0036031,-0.140667,0.0469685,-0.0157952,0.0079729,0.000505304,5,0.1,5,2.8,2.81027,-2.22912,0.567982,-0.466341,0.271863,0.013116,-0.0953674,0.116944,0.0340641,0.0365687,0.30948,5,0.1,6,2.8,-0.255531,3.60522,0.595013,-0.0948317,0.117487,0.00388324,-0.015974,-0.145912,-0.00342727,0.00961267,0.144818,5,0.1,7,2.8,0.00217948,-3.89915,1.31807,0.00625904,-0.00244975,0.0909656,-0.0636859,0.00572205,-0.211895,0.0105368,2.06744,5,0.1,8,2.8,-2.25103,3.90104,1.29619,0.00224113,-0.0100434,0.117663,-0.00393391,0.153422,-0.205696,0.00713991,0.785373,5,0.1,9,2.8,0.777484,-2.01319,0.500008,0.123185,-0.377434,-5.96046e-05,-0.0609457,0.0967979,0.000298023,0.0102037,0.094317,5,0.1,10,2.8,-1.3,-2.09981,0.602668,0.0376195,0.00977516,-0.00863224,0.343084,-0.0312328,0.0223219,0.00862704,0.204059,5,0.1,11,2.8,1.3497,4.40005,1.16075,0.000929832,-0.000870228,0.189766,-0.00196695,0.0109673,0.14019,0.0163607,0.264365,5,0.1,12,2.8,3.53494,-2.97098,0.535988,-0.130731,0.471497,0.00278056,0.146508,-0.354052,-0.00309944,0.0146679,0.160228,5,0.1,13,2.8,-0.895689,3.93764,1.27269,-0.0050813,-0.180435,0.0911206,0.00545382,0.562668,-0.118852,0.0162535,0.56603,5,0.1,14,2.8,-0.0966822,1.2623,0.608023,-0.447261,-0.754982,-0.00755638,0.320073,-0.518441,0.0077188,0.0198302,1.08284,5,0.1,15,2.8,0.505222,-1.14572,0.542853,0.225824,-0.120109,-0.0087887,-0.258088,0.137329,0.0100136,0.00913995,0.00562426,5,0.1,16,2.8,-0.359224,3.83641,0.605319,-0.00134856,0.191027,0.00653565,-0.816599,0.559688,0.0320077,0.00588791,0.243797,5,0.1,17,2.8,-0.47451,0.0987746,0.747546,0.171664,-0.00596698,0.00204593,-0.192538,0.0392161,-0.00208616,0.0093812,0.590062,5,0.1,18,2.8,0.364902,0.270049,0.618609,0.154565,-0.0715069,-0.0100225,-0.383452,-0.0388026,-0.0109673,0.00960636,0.259666,5,0.1,19,2.8,-3.37661,-1.67171,0.601693,0.222725,0.696051,-0.00165999,-0.243068,0.362754,0.00187755,0.0270034,0.736302,5,0.1,20,2.8,1.32201,-2.75033,0.594318,0.554612,0.34641,0.00564605,-0.284731,-0.357389,-0.00625849,0.00981026,0.186545,5,0.1,21,2.8,-2.84575,3.98687,1.26869,-0.00417829,-0.301814,0.0799894,0.00476837,0.527263,-0.089705,0.0112702,0.817961,5,0.1,22,2.8,-1.23672,-0.402414,0.559865,-0.539091,0.389854,-0.00113696,0.471771,-0.36484,0.00104308,0.00887706,0.166155,5,0.1,23,2.8,-4.23195,1.5,1.00009,-0.153482,0,0.058651,-0.299215,0,-0.036478,0.00965936,0.244075,5,0.1,24,2.8,4.30418,0.216125,0.5,-0.0324845,-0.111635,-7.45058e-06,0.238419,0.171669,0.000119209,0.0106097,0.480538,5,0.1,25,2.8,-1.40796,3.96369,1.1184,-0.00665784,-0.213796,0.215688,0.27138,0.315428,0.154018,0.0164214,0.119103,5,0.1,26,2.8,2.29993,-2.02663,0.589452,-0.19604,0.150049,0.0100851,0.207424,-0.633121,-0.00908971,0.0103785,0.94732,5,0.1,27,2.8,3.69179,-5.36106,0.598215,0.1073,0.347495,0.00580698,-0.129461,1.54924,0.0120699,0.00891619,2.69649,5,0.1,28,2.8,0.323978,1.65,0.938641,-0.0566162,-0.203887,0.0599489,-0.0711232,0.498414,-0.222445,0.0332856,3.76802,5,0.1,29,2.8,0.4993,-0.0484596,0.501576,0.212141,-0.319879,-0.014317,-0.0305623,-0.0896567,0.0906587,0.00676892,0.197512,5,0.1
0,2.9,3.47293,-2.00123,0.609609,0.292062,-0.00503957,-0.00999514,-0.167295,-0.00405312,0.00559539,0.00974109,0.278241,5,0.1,1,2.9,0.901547,5.2985,1.28735,-0.0148906,0.121667,0.0996504,0.150207,0.163466,-0.159323,0.0109176,0.398007,5,0.1,2,2.9,1.84522,2.9202,0.519147,0.103803,0.0241257,-0.00105761,-0.236094,-0.0548959,0.00240654,0.0116114,0.000775407,5,0.1,3,2.9,1.95204,4.30138,1.26396,-0.00483282,-0.0104494,0.207985,0.0077337,0.117928,-0.317059,0.0549893,0.319033,5,0.1,4,2.9,-3.74701,4.03777,0.70031,0.0193506,-0.00634268,0.00217743,-0.112951,0.0376403,-0.0126883,0.0079729,0.000505304,5,0.1,5,2.9,2.7632,-2.2014,0.569453,-0.474209,0.281922,0.0161701,-0.0429153,0.0726432,0.0261478,0.0365687,0.30948,5,0.1,6,2.9,-0.264962,3.61669,0.595389,-0.0925723,0.115464,0.00367304,0.057267,0.0770539,-0.00112876,0.00961267,0.144818,5,0.1,7,2.9,0.00244998,-3.89921,1.32616,-0.00416038,0.00252388,0.0713766,-0.250078,0.0838786,-0.180453,0.0105368,2.06744,5,0.1,8,2.9,-2.25083,3.9008,1.30696,0.00186712,0.00456721,0.098066,-0.00354648,0.110805,-0.186741,0.00713991,0.785373,5,0.1,9,2.9,0.789543,-2.05053,0.500003,0.118295,-0.36995,-3.26894e-05,-0.0428222,0.0707805,0.000234693,0.0102037,0.094317,5,0.1,10,2.9,-1.29412,-2.09898,0.601909,0.0829559,0.00684112,-0.00659386,0.52619,-0.0272691,0.0185184,0.00862704,0.204059,5,0.1,11,2.9,1.34978,4.40001,1.18031,0.000744499,-0.000119209,0.200208,-0.00175089,0.00452995,0.0639856,0.0163607,0.264365,5,0.1,12,2.9,3.52248,-2.92528,0.536253,-0.119419,0.445148,0.00254102,0.0880063,-0.201821,-0.0018701,0.0146679,0.160228,5,0.1,13,2.9,-0.896171,3.92239,1.28124,-0.00456329,-0.125133,0.0801768,0.00500679,0.528246,-0.102133,0.0162535,0.56603,5,0.1,14,2.9,-0.139908,1.18422,0.607303,-0.41789,-0.805222,-0.00686459,0.281768,-0.441335,0.00637025,0.0198302,1.08284,5,0.1,15,2.9,0.526536,-1.15705,0.542023,0.200574,-0.106676,-0.00780793,-0.250027,0.132993,0.00971928,0.00913995,0.00562426,5,0.1,16,2.9,-0.36317,3.85836,0.606132,-0.0746528,0.247604,0.00970606,-0.641568,0.544146,0.030145,0.00588791,0.243797,5,0.1,17,2.9,-0.458237,0.0984823,0.747741,0.154366,0.00244986,0.00186721,-0.158828,0.173189,-0.00156835,0.0093812,0.590062,5,0.1,18,2.9,0.378413,0.262712,0.617555,0.115616,-0.07505,-0.0110062,-0.386871,-0.0285376,-0.00818074,0.00960636,0.259666,5,0.1,19,2.9,-3.35547,-1.6003,0.601535,0.200816,0.73094,-0.0014917,-0.202015,0.297017,0.00153854,0.0270034,0.736302,5,0.1,20,2.9,1.3761,-2.71736,0.594854,0.527115,0.313894,0.00508139,-0.281624,-0.303209,-0.00521168,0.00981026,0.186545,5,0.1,21,2.9,-2.84614,3.95948,1.27627,-0.00375025,-0.244831,0.0719296,0.00391901,0.597537,-0.0740066,0.0112702,0.817961,5,0.1,22,2.9,-1.28841,-0.365142,0.559756,-0.49565,0.356392,-0.00104085,0.412926,-0.315819,0.000908971,0.00887706,0.166155,5,0.1,23,2.9,-4.24843,1.5,1.00579,-0.172742,0,0.0553073,-0.102192,0,-0.0323877,0.00965936,0.244075,5,0.1,24,2.9,4.30207,0.20579,0.5,-0.0107571,-0.0953335,7.45058e-07,0.17494,0.155467,5.21541e-05,0.0106097,0.480538,5,0.1,25,2.9,-1.40734,3.94403,1.14072,0.0183355,-0.178167,0.230291,0.224546,0.387162,0.125028,0.0164214,0.119103,5,0.1,26,2.9,2.28113,-2.01471,0.590418,-0.181727,0.0902653,0.00925185,0.0947267,-0.527978,-0.00787154,0.0103785,0.94732,5,0.1,27,2.9,3.70201,-5.31813,0.598871,0.0983186,0.51326,0.00739843,-0.0593364,1.67733,0.0182688,0.00891619,2.69649,5,0.1,28,2.9,0.317945,1.63234,0.943564,-0.0640621,-0.147735,0.0389618,-0.0723694,0.586092,-0.195455,0.0332856,3.76802,5,0.1,29,2.9,0.52033,-0.0810359,0.500546,0.208009,-0.332415,-0.00679223,-0.0577364,-0.136506,0.0598691,0.00676892,0.197512,5,0.1
0,3,3.50121,-2.00174,0.608641,0.272697,-0.00481009,-0.00934601,-0.223756,0.0121593,0.00753999,0.0072818,0.633979,5,0.1,1,3,0.900721,5.31139,1.29654,-0.00262558,0.134993,0.0843495,0.0912249,0.0967979,-0.14776,0.00921178,0.811124,5,0.1,2,3,1.85445,2.92235,0.519053,0.0812829,0.0188887,-0.000828505,-0.213623,-0.0497103,0.00220537,0.0138763,0.000698866,5,0.1,3,3,1.9516,4.30088,1.28317,-0.00407696,-0.000417233,0.176454,0.00751019,0.0762939,-0.313461,0.0528977,0.473581,5,0.1,4,3,-3.74559,4.03731,0.70047,0.00946522,-0.00306368,0.00106841,-0.0846386,0.0283718,-0.00956655,0.00801784,0.000254514,5,0.1,5,3,2.71578,-2.17299,0.571182,-0.471771,0.284469,0.0182047,0.104427,-0.0292063,0.0140369,0.0363669,0.212122,5,0.1,6,3,-0.27384,3.62879,0.595752,-0.08412,0.127882,0.00359565,0.108257,0.149131,-0.000655651,0.00776503,0.246282,5,0.1,7,3,0,-3.89847,1.33244,-0.0525443,0.0125766,0.0547677,-0.700103,0.109553,-0.15223,0.0126346,2.77702,5,0.1,8,3,-2.25066,3.90157,1.31586,0.00152588,0.0082314,0.0802338,-0.00321865,-0.0482798,-0.17029,0.00844551,2.05197,5,0.1,9,3,0.801148,-2.0871,0.500001,0.113602,-0.360256,-1.3411e-05,-0.0552833,0.135541,0.000149012,0.0096752,0.11129,5,0.1,10,3,-1.28315,-2.09842,0.601337,0.136301,0.00434518,-0.00491291,0.51254,-0.0222921,0.0151694,0.00755803,0.139559,5,0.1,11,3,1.34985,4.40001,1.20049,0.000581145,0.00013113,0.201851,-0.00149012,0.000953674,-0.0334382,0.0214376,0.25342,5,0.1,12,3,3.51094,-2.88171,0.536499,-0.111681,0.426143,0.00237674,0.0728369,-0.199556,-0.00154972,0.010589,0.0930624,5,0.1,13,3,-0.896602,3.91237,1.28876,-0.00406355,-0.0772238,0.0703335,0.00506639,0.42069,-0.0962615,0.0195911,0.550762,5,0.1,14,3,-0.180256,1.10192,0.606648,-0.38847,-0.835696,-0.00624061,0.316606,-0.137687,0.00628829,0.0168249,0.75561,5,0.1,15,3,0.545336,-1.16705,0.541292,0.175333,-0.0932485,-0.00682473,-0.256538,0.136375,0.00995398,0.0113523,0.00171796,5,0.1,16,3,-0.373502,3.88563,0.607242,-0.128439,0.295144,0.0123531,-0.429884,0.387192,0.0219345,0.00682239,0.187954,5,0.1,17,3,-0.443574,0.1,0.74792,0.138975,0.0317913,0.00171661,-0.152856,0.400767,-0.00151992,0.00733471,1.02836,5,0.1,18,3,0.388093,0.255105,0.616422,0.0786699,-0.0766285,-0.0115708,-0.345901,-0.000730157,-0.00283122,0.00805269,0.255531,5,0.1,19,3,-3.33637,-1.52609,0.601394,0.181139,0.749093,-0.00134259,-0.196338,0.0402927,0.00149012,0.0228948,0.511297,5,0.1,20,3,1.4273,-2.68747,0.595337,0.495553,0.284016,0.00457317,-0.360489,-0.3016,-0.00500679,0.0100389,0.123492,5,0.1,21,3,-2.8465,3.93799,1.2831,-0.00337362,-0.184935,0.0647575,0.00369549,0.588775,-0.0711679,0.0111739,0.812362,5,0.1,22,3,-1.3359,-0.331077,0.559657,-0.453821,0.324752,-0.000949204,0.434637,-0.32495,0.000953674,0.00872457,0.111548,5,0.1,23,3,-4.26599,1.5,1.01115,-0.176585,0,0.0518352,0.0154972,0,-0.038445,0.0094473,0.221592,5,0.1,24,3,4.30164,0.197015,0.5,-0.000393391,-0.0803567,2.98023e-06,0.0247955,0.144817,2.98023e-05,0.0132152,0.915669,5,0.1,25,3,-1.40448,3.9282,1.16424,0.0376135,-0.138164,0.238535,0.158668,0.404596,0.0311732,0.0153752,0.200037,5,0.1,26,3,2.26336,-2.00794,0.591303,-0.174314,0.0493228,0.00845939,0.0654459,-0.276566,-0.00819564,0.0128843,1.47939,5,0.1,27,3,3.7116,-5.25881,0.599702,0.0938177,0.667703,0.00920147,-0.0375509,1.3473,0.0166893,0.00933847,2.39239,5,0.1,28,3,0.311211,1.62039,0.94654,-0.0701673,-0.0929773,0.0211626,-0.0459105,0.484526,-0.159323,0.0340704,3.77371,5,0.1,29,3,0.54076,-0.114872,0.500117,0.199679,-0.342982,-0.00225753,-0.112355,-0.0574178,0.0316203,0.0101388,3.62243,5,0.1
0,3.1,3.52739,-2.00227,0.607743,0.250822,-0.006181,-0.0086098,-0.219166,-0.0111461,0.00737235,0.0072818,0.633979,5,0.1,1,3.1,0.900962,5.32535,1.30427,0.00714669,0.143886,0.0707187,0.0745393,0.0739992,-0.126198,0.00921178,0.811124,5,0.1,2,3.1,1.86155,2.924,0.51898,0.061149,0.0142034,-0.000621192,-0.188254,-0.0438243,0.00193715,0.0138763,0.000698866,5,0.1,3,3.1,1.95123,4.30121,1.29929,-0.0033604,0.00654161,0.146263,0.00683218,0.0430346,-0.290282,0.0528977,0.473581,5,0.1,4,3.1,-3.74503,4.03713,0.700533,0.00213832,-0.000614673,0.000240747,-0.0620186,0.020653,-0.00699982,0.00801784,0.000254514,5,0.1,5,3.1,2.66921,-2.14472,0.573065,-0.458504,0.280304,0.0193475,0.171214,-0.0624061,0.00817329,0.0363669,0.212122,5,0.1,6,3.1,-0.28164,3.64247,0.59611,-0.07131,0.146676,0.00357442,0.143617,0.207767,0,0.00776503,0.246282,5,0.1,7,3.1,-0.00984428,-3.8963,1.33721,-0.152911,0.0339314,0.0409884,-1.21644,0.290364,-0.12397,0.0126346,2.77702,5,0.1,8,3.1,-2.25052,3.90211,1.32307,0.00122786,-0.00102445,0.0644375,-0.00277162,-0.242025,-0.146285,0.00844551,2.05197,5,0.1,9,3.1,0.812525,-2.12246,0.5,0.116319,-0.346838,-2.79397e-06,0.0881329,0.144094,6.70552e-05,0.0096752,0.11129,5,0.1,10,3.1,-1.26691,-2.0981,0.600916,0.188398,0.00231788,-0.00355421,0.50503,-0.0181496,0.0120737,0.00755803,0.139559,5,0.1,11,3.1,1.3499,4.40002,1.22044,0.000443496,0.000150502,0.196232,-0.00127405,-0.000417233,-0.0813752,0.0214376,0.25342,5,0.1,12,3.1,3.50008,-2.83997,0.53673,-0.105786,0.409393,0.0022511,0.0505745,-0.154302,-0.00108406,0.010589,0.0930624,5,0.1,13,3.1,-0.896984,3.90662,1.29534,-0.00359239,-0.0396635,0.0615774,0.00444427,0.309512,-0.0806674,0.0195911,0.550762,5,0.1,14,3.1,-0.217617,1.01769,0.606053,-0.359412,-0.847826,-0.00567669,0.27653,-0.0688359,0.00519678,0.0168249,0.75561,5,0.1,15,3.1,0.561606,-1.1757,0.540658,0.150216,-0.0798959,-0.00584908,-0.246417,0.130996,0.00958145,0.0113523,0.00171796,5,0.1,16,3.1,-0.388249,3.91708,0.608585,-0.163962,0.33338,0.0144634,-0.277827,0.353411,0.019215,0.00682239,0.187954,5,0.1,17,3.1,-0.430384,0.105348,0.748085,0.125275,0.0762254,0.00158548,-0.125604,0.464643,-0.00117719,0.00733471,1.02836,5,0.1,18,3.1,0.39434,0.247387,0.615244,0.0474507,-0.0780712,-0.0120264,-0.275141,-0.0217669,-0.00530481,0.00805269,0.255531,5,0.1,19,3.1,-3.31917,-1.45099,0.601266,0.163487,0.752072,-0.00120932,-0.162408,-0.01131,0.00121817,0.0228948,0.511297,5,0.1,20,3.1,1.47513,-2.66047,0.595771,0.461515,0.25669,0.00412241,-0.334039,-0.253499,-0.00414997,0.0100389,0.123492,5,0.1,21,3.1,-2.84682,3.92243,1.28925,-0.00304244,-0.126887,0.0583785,0.00305474,0.55486,-0.0584945,0.0111739,0.812362,5,0.1,22,3.1,-1.37924,-0.300124,0.559566,-0.414007,0.295096,-0.000862125,0.374913,-0.277719,0.000815839,0.00872457,0.111548,5,0.1,23,3.1,-4.28338,1.5,1.01615,-0.170142,0,0.0481272,0.0849068,0,-0.0369772,0.0094473,0.221592,5,0.1,24,3.1,4.30161,0.189667,0.500001,-0.00330731,-0.0669368,4.28408e-06,-0.145048,0.124669,0,0.0132152,0.915669,5,0.1,25,3.1,-1.40002,3.91638,1.18812,0.0506114,-0.0985302,0.237793,0.100955,0.380874,-0.0485629,0.0153752,0.200037,5,0.1,26,3.1,2.24613,-2.0041,0.592111,-0.170996,0.032521,0.00771116,0.0133067,0.012517,-0.00701845,0.0128843,1.47939,5,0.1,27,3.1,3.72088,-5.18596,0.600711,0.0924941,0.78181,0.0110113,0.00293553,0.90903,0.0182725,0.00933847,2.39239,5,0.1,28,3.1,0.303976,1.6135,0.947908,-0.0743393,-0.0468325,0.00671372,-0.0340175,0.376746,-0.128709,0.0340704,3.77371,5,0.1,29,3.1,0.559258,-0.147633,0.500018,0.162539,-0.296518,-2.76603e-05,-0.577688,0.88702,0.01413,0.0101388,3.62243,5,0.1
0,3.2,3.55135,-2.00281,0.60692,0.227976,-0.00295043,-0.0078395,-0.241399,0.0882149,0.00816584,0.00982918,1.10323,5,0.1,1,3.2,0.901844,5.34002,1.31074,0.00810176,0.148606,0.0588745,-0.0675321,0.0162125,-0.111699,0.00776656,1.32404,5,0.1,2,3.2,1.86678,2.92521,0.518927,0.0437587,0.0101566,-0.000442564,-0.159085,-0.0369549,0.00163913,0.010959,0.000532723,5,0.1,3,3.2,1.95093,4.30191,1.3125,-0.00270903,0.00548363,0.118423,0.00619888,-0.071764,-0.266373,0.0540392,1.5387,5,0.1,4,3.2,-3.74509,4.03716,0.700527,-0.00297427,0.0010848,-0.000336766,-0.0407696,0.0133514,-0.00458956,0.00833464,9.66576e-05,5,0.1,5,3.2,2.62439,-2.11712,0.575026,-0.435889,0.270635,0.0197381,0.287294,-0.136375,-0.00077486,0.0351362,0.152704,5,0.1,6,3.2,-0.288025,3.65815,0.596467,-0.0561811,0.166148,0.00355542,0.155464,0.167966,-0.000506639,0.00808702,0.221804,5,0.1,7,3.2,-0.0314528,-3.89134,1.34073,-0.279826,0.0658512,0.029853,-1.25259,0.32711,-0.0992417,0.00921157,2.40214,5,0.1,8,3.2,-2.25041,3.9,1.32882,0.000971556,-0.0489175,0.0508636,-0.00238419,-0.69797,-0.125825,0.0104606,1.78804,5,0.1,9,3.2,0.824689,-2.15633,0.5,0.127447,-0.329566,1.49012e-06,0.118136,0.208616,0,0.0104375,0.11248,5,0.1,10,3.2,-1.24572,-2.09795,0.600616,0.233153,0.000727177,-0.00248402,0.372946,-0.0138283,0.00938773,0.00885904,0.1184,5,0.1,11,3.2,1.34994,4.40004,1.23956,0.000327826,7.15256e-05,0.185227,-0.00107288,-0.000953674,-0.139773,0.0241995,0.248144,5,0.1,12,3.2,3.48976,-2.79986,0.53695,-0.100619,0.392073,0.00213981,0.0566244,-0.205159,-0.0012219,0.0125904,0.0714534,5,0.1,13,3.2,-0.897322,3.90389,1.30111,-0.00316054,-0.0181139,0.0538915,0.00429153,0.11456,-0.0744462,0.022733,1.00761,5,0.1,14,3.2,-0.252162,0.932914,0.605511,-0.331135,-0.84345,-0.00516623,0.297293,0.180364,0.0051558,0.0199445,0.527693,5,0.1,15,3.2,0.575409,-1.18305,0.540121,0.125971,-0.0670075,-0.00490397,-0.238568,0.126898,0.00923872,0.0109665,0.00081217,5,0.1,16,3.2,-0.405765,3.95197,0.610116,-0.183669,0.361758,0.0160202,-0.115708,0.197887,0.0111759,0.00746723,0.158493,5,0.1,17,3.2,-0.41847,0.115241,0.748238,0.113088,0.120669,0.00147074,-0.12134,0.406984,-0.0012219,0.00814582,1.66177,5,0.1,18,3.2,0.397846,0.239479,0.614017,0.0240751,-0.0798866,-0.0124663,-0.191405,-0.00995398,-0.00274181,0.0103552,0.505823,5,0.1,19,3.2,-3.30361,-1.37612,0.601151,0.147676,0.741735,-0.00109226,-0.157952,-0.215769,0.00119209,0.0204818,0.345606,5,0.1,20,3.2,1.51956,-2.63605,0.596163,0.426435,0.23185,0.00371784,-0.37688,-0.249267,-0.00399351,0.0102366,0.138801,5,0.1,21,3.2,-2.84711,3.91235,1.2948,-0.00274777,-0.0767529,0.0526994,0.00286102,0.43726,-0.0564456,0.0109838,0.790532,5,0.1,22,3.2,-1.41878,-0.271988,0.559484,-0.376585,0.267582,-0.000779331,0.382721,-0.279248,0.00077486,0.0104899,0.129898,5,0.1,23,3.2,-4.3,1.5,1.02077,-0.162625,0,0.0442296,0.0638962,0,-0.0419021,0.0146558,0.206929,5,0.1,24,3.2,4.3,0.18357,0.500001,-0.0341415,-0.0552338,2.98023e-06,-0.457287,0.110209,0,0.012721,3.32341,5,0.1,25,3.2,-1.39456,3.90835,1.21151,0.0577927,-0.0631809,0.228482,0.0429749,0.321388,-0.138521,0.0168301,0.2805,5,0.1,26,3.2,2.2291,-2,0.592847,-0.169504,0.0569284,0.00701249,0.0255108,0.454664,-0.00712276,0.0123433,2.08705,5,0.1,27,3.2,3.73016,-5.1041,0.601898,0.0929832,0.846696,0.0126436,0.000953674,0.386477,0.0134408,0.0100517,2.28099,5,0.1,28,3.2,0.296415,1.61015,0.947993,-0.0763886,-0.0261843,-0.00443608,-0.00463426,0.0123382,-0.0938773,0.0341462,3.54742,5,0.1,29,3.2,0.572215,-0.17197,0.500064,0.0935838,-0.183465,0.000777841,-0.75978,1.29487,0.00292063,0.00992493,3.20807,5,0.1
