id,t,px,py,pz,vx,vy,vz,ax,ay,az,planning_time,qp_cost,planning_report,size,id,t,px,py,pz,vx,vy,vz,ax,ay,az,planning_time,qp_cost,planning_report,size,id,t,px,py,pz,vx,vy,vz,ax,ay,az,planning_time,qp_cost,planning_report,size,id,t,px,py,pz,vx,vy,vz,ax,ay,az,planning_time,qp_cost,planning_report,size,id,t,px,py,pz,vx,vy,vz,ax,ay,az,planning_time,qp_cost,planning_report,size,id,t,px,py,pz,vx,vy,vz,ax,ay,az,planning_time,qp_cost,planning_report,size,id,t,px,py,pz,vx,vy,vz,ax,ay,az,planning_time,qp_cost,planning_report,size,id,t,px,py,pz,vx,vy,vz,ax,ay,az,planning_time,qp_cost,planning_report,size,id,t,px,py,pz,vx,vy,vz,ax,ay,az,planning_time,qp_cost,planning_report,size,id,t,px,py,pz,vx,vy,vz,ax,ay,az,planning_time,qp_cost,planning_report,size,id,t,px,py,pz,vx,vy,vz,ax,ay,az,planning_time,qp_cost,planning_report,size,id,t,px,py,pz,vx,vy,vz,ax,ay,az,planning_time,qp_cost,planning_report,size,id,t,px,py,pz,vx,vy,vz,ax,ay,az,planning_time,qp_cost,planning_report,size,id,t,px,py,pz,vx,vy,vz,ax,ay,az,planning_time,qp_cost,planning_report,size,id,t,px,py,pz,vx,vy,vz,ax,ay,az,planning_time,qp_cost,planning_report,size,id,t,px,py,pz,vx,vy,vz,ax,ay,az,planning_time,qp_cost,planning_report,size,id,t,px,py,pz,vx,vy,vz,ax,ay,az,planning_time,qp_cost,planning_report,size,id,t,px,py,pz,vx,vy,vz,ax,ay,az,planning_time,qp_cost,planning_report,size,id,t,px,py,pz,vx,vy,vz,ax,ay,az,planning_time,qp_cost,planning_report,size,id,t,px,py,pz,vx,vy,vz,ax,ay,az,planning_time,qp_cost,planning_report,size,id,t,px,py,pz,vx,vy,vz,ax,ay,az,planning_time,qp_cost,planning_report,size,id,t,px,py,pz,vx,vy,vz,ax,ay,az,planning_time,qp_cost,planning_report,size,id,t,px,py,pz,vx,vy,vz,ax,ay,az,planning_time,qp_cost,planning_report,size,id,t,px,py,pz,vx,vy,vz,ax,ay,az,planning_time,qp_cost,planning_report,size,id,t,px,py,pz,vx,vy,vz,ax,ay,az,planning_time,qp_cost,planning_report,size,id,t,px,py,pz,vx,vy,vz,ax,ay,az,planning_time,qp_cost,planning_report,size,id,t,px,py,pz,vx,vy,vz,ax,ay,az,planning_time,qp_cost,planning_report,size,id,t,px,py,pz,vx,vy,vz,ax,ay,az,planning_time,qp_cost,planning_report,size,id,t,px,py,pz,vx,vy,vz,ax,ay,az,planning_time,qp_cost,planning_report,size,id,t,px,py,pz,vx,vy,vz,ax,ay,az,planning_time,qp_cost,planning_report,size
0,0,1.4457,1.70696,0.576876,0,0,0,0,0,0,0.037755,3.5122,5,0.1,1,0,-1.36373,-0.261318,0.658345,0,0,0,0,0,0,0.0137839,3.5122,5,0.1,2,0,3.93212,-5.01888,0.567479,0,0,0,0,0,0,0.0174013,0.922027,5,0.1,3,0,0.239586,3.28219,0.635776,0,0,0,0,0,0,0.0184502,3.5122,5,0.1,4,0,-4.46619,2.5814,0.627984,0,0,0,0,0,0,0.00965792,1.52265,5,0.1,5,0,1.31152,-3.24884,0.623387,0,0,0,0,0,0,0.0144119,0.649634,5,0.1,6,0,-1.32808,5.19185,0.68052,0,0,0,0,0,0,0.0174129,2.21938,5,0.1,7,0,2.1273,-0.585585,0.571902,0,0,0,0,0,0,0.0105096,2.99817,5,0.1,8,0,-1.65962,-4.34156,0.650137,0,0,0,0,0,0,0.0102778,0.479761,5,0.1,9,0,5.79501,1.79137,0.61637,0,0,0,0,0,0,0.0112187,3.5122,5,0.1,10,0,2.0446,1.82906,0.56344,0,0,0,0,0,0,0.0131547,0.722605,5,0.1,11,0,3.75562,-5.69121,0.51942,0,0,0,0,0,0,0.00777238,2.39059,5,0.1,12,0,-2.38516,-0.223546,0.523746,0,0,0,0,0,0,0.0127467,3.5122,5,0.1,13,0,2.20734,-2.1296,0.676095,0,0,0,0,0,0,0.0130835,3.51219,5,0.1,14,0,-3.31318,2.25192,0.613038,0,0,0,0,0,0,0.00776019,0.483946,5,0.1,15,0,0.104937,0.272003,0.683345,0,0,0,0,0,0,0.0169526,3.51219,5,0.1,16,0,4.0054,-4.30796,0.629435,0,0,0,0,0,0,0.0525955,3.5122,5,0.1,17,0,0.814535,-2.69091,0.640747,0,0,0,0,0,0,0.0383663,3.5122,5,0.1,18,0,2.75177,-2.47483,0.692438,0,0,0,0,0,0,0.0154821,3.5122,5,0.1,19,0,4.63365,0.845347,0.627784,0,0,0,0,0,0,0.00762951,0.59034,5,0.1,20,0,-3.23994,4.58119,0.69055,0,0,0,0,0,0,0.0373008,3.5122,5,0.1,21,0,-4.49044,-2.36999,0.653405,0,0,0,0,0,0,0.0307205,2.78209,5,0.1,22,0,-0.359785,5.83651,0.668228,0,0,0,0,0,0,0.0242165,3.51219,5,0.1,23,0,-3.74996,-5.6333,0.534197,0,0,0,0,0,0,0.0124912,2.02055,5,0.1,24,0,-3.06665,5.76104,0.686843,0,0,0,0,0,0,0.017041,3.5122,5,0.1,25,0,-3.36503,-3.39483,0.544489,0,0,0,0,0,0,0.0123913,3.51219,5,0.1,26,0,0.81401,2.80274,0.590422,0,0,0,0,0,0,0.0302434,3.5122,5,0.1,27,0,2.11237,-2.87403,0.517059,0,0,0,0,0,0,0.0222629,1.49185,5,0.1,28,0,-0.541747,2.07185,0.607316,0,0,0,0,0,0,0.0115021,3.5122,5,0.1,29,0,1.25243,4.64105,0.642939,0,0,0,0,0,0,0.0176543,0.565495,5,0.1
0,0.1,1.4444,1.70859,0.576894,-0.0369107,0.0463691,0.000488851,-0.65618,0.824332,0.0086911,0.037755,3.5122,5,0.1,1,0.1,-1.36422,-0.263348,0.658296,-0.0138501,-0.0576109,-0.00137817,-0.246219,-1.02419,-0.024505,0.0137839,3.5122,5,0.1,2,0.1,3.93178,-5.01787,0.567513,-0.00984222,0.0287116,0.000963733,-0.174969,0.510454,0.0171363,0.0174013,0.922027,5,0.1,3,0.1,0.23915,3.28015,0.63576,-0.0123819,-0.0579588,-0.000447687,-0.220122,-1.03039,-0.00796095,0.0184502,3.5122,5,0.1,4,0.1,-4.46482,2.58137,0.627955,0.0390045,-0.000930205,-0.000829156,0.693411,-0.0165552,-0.014741,0.00965792,1.52265,5,0.1,5,0.1,1.31093,-3.24952,0.623362,-0.0166401,-0.0192963,-0.000693183,-0.295833,-0.343025,-0.0123195,0.0144119,0.649634,5,0.1,6,0.1,-1.3281,5.19035,0.681219,-0.000649504,-0.0427276,0.0198393,-0.0115559,-0.759602,0.352699,0.0174129,2.21938,5,0.1,7,0.1,2.12743,-0.586565,0.571931,0.00363588,-0.0278029,0.000832789,0.0646412,-0.494268,0.0148043,0.0105096,2.99817,5,0.1,8,0.1,-1.66008,-4.34094,0.650085,-0.0130504,0.0175297,-0.00148574,-0.232011,0.311673,-0.0264086,0.0102778,0.479761,5,0.1,9,0.1,5.79292,1.7915,0.616359,-0.0591464,0.00379141,-0.000300352,-1.05146,0.0674054,-0.00533834,0.0112187,3.5122,5,0.1,10,0.1,2.04372,1.82871,0.563478,-0.0250291,-0.00975113,0.00108341,-0.444964,-0.173353,0.0192635,0.0131547,0.722605,5,0.1,11,0.1,3.75546,-5.6895,0.519348,-0.00461154,0.0486359,-0.00205711,-0.0819713,0.864625,-0.0365749,0.00777238,2.39059,5,0.1,12,0.1,-2.38311,-0.223178,0.523673,0.0583041,0.0104449,-0.00206195,1.03651,0.185688,-0.0366569,0.0127467,3.5122,5,0.1,13,0.1,2.20942,-2.12972,0.676023,0.0591353,-0.00340529,-0.0020422,1.05128,-0.0605434,-0.0363067,0.0130835,3.51219,5,0.1,14,0.1,-3.3137,2.25135,0.613019,-0.014808,-0.0162616,-0.000532903,-0.263244,-0.289112,-0.00947714,0.00776019,0.483946,5,0.1,15,0.1,0.104705,0.274077,0.683383,-0.00657327,0.0588926,0.0010821,-0.116859,1.04698,0.0192337,0.0169526,3.51219,5,0.1,16,0.1,4.00362,-4.30687,0.629418,-0.0504967,0.031025,-0.000478607,-0.89775,0.551552,-0.00851229,0.0525955,3.5122,5,0.1,17,0.1,0.814187,-2.68885,0.640735,-0.00988198,0.0584379,-0.00036126,-0.175681,1.03891,-0.00641868,0.0383663,3.5122,5,0.1,18,0.1,2.75001,-2.47595,0.692488,-0.0499718,-0.0318345,0.00143712,-0.888407,-0.565931,0.0255443,0.0154821,3.5122,5,0.1,19,0.1,4.6332,0.844622,0.627755,-0.0128515,-0.020606,-0.000823382,-0.228494,-0.366334,-0.0146367,0.00762951,0.59034,5,0.1,20,0.1,-3.23793,4.58064,0.690589,0.0572242,-0.0153922,0.0011011,1.0173,-0.273615,0.0195764,0.0373008,3.5122,5,0.1,21,0.1,-4.48904,-2.36877,0.653349,0.0397243,0.034672,-0.0015826,0.706166,0.616372,-0.0281371,0.0307205,2.78209,5,0.1,22,0.1,-0.361632,5.83554,0.668335,-0.0524518,-0.0274271,0.00304654,-0.932476,-0.487566,0.0541583,0.0242165,3.51219,5,0.1,23,0.1,-3.7484,-5.63352,0.534266,0.0444505,-0.00642017,0.00195,0.790223,-0.114173,0.0346676,0.0124912,2.02055,5,0.1,24,0.1,-3.0663,5.75908,0.687487,0.0101112,-0.0554606,0.0182891,0.179768,-0.98598,0.325136,0.017041,3.5122,5,0.1,25,0.1,-3.36324,-3.39376,0.544535,0.0508532,0.030414,0.00130394,0.904053,0.540674,0.0231825,0.0123913,3.51219,5,0.1,26,0.1,0.813112,2.80086,0.590429,-0.0254943,-0.0535049,0.000193343,-0.453237,-0.951201,0.00343472,0.0302434,3.5122,5,0.1,27,0.1,2.11111,-2.87353,0.516989,-0.0359282,0.0140477,-0.00198735,-0.638723,0.249729,-0.0353269,0.0222629,1.49185,5,0.1,28,0.1,-0.539689,2.07151,0.60731,0.0584365,-0.00989363,-0.00017155,1.03887,-0.175893,-0.00304729,0.0115021,3.5122,5,0.1,29,0.1,1.25206,4.64091,0.643677,-0.010444,-0.00417978,0.0209532,-0.185676,-0.0742674,0.372503,0.0176543,0.565495,5,0.1
0,0.2,1.4369,1.71801,0.576993,-0.116655,0.14655,0.00154525,-0.874937,1.09911,0.0115931,0.0175101,2.9264,5,0.1,1,0.2,-1.36704,-0.27505,0.658016,-0.0437737,-0.182079,-0.00435561,-0.328243,-1.36559,-0.0326931,0.0167491,2.92579,5,0.1,2,0.2,3.92978,-5.01203,0.567709,-0.0311077,0.0907421,0.0030458,-0.233293,0.680685,0.0228286,0.0320609,0.756472,5,0.1,3,0.2,0.236635,3.26838,0.635669,-0.0391331,-0.183177,-0.00141412,-0.293486,-1.37389,-0.0106394,0.0170543,2.92579,5,0.1,4,0.2,-4.45689,2.58118,0.627787,0.123274,-0.00294447,-0.00262111,0.924349,-0.0219345,-0.0196695,0.010393,1.36669,5,0.1,5,0.2,1.30755,-3.25344,0.623222,-0.0525922,-0.0609875,-0.00219047,-0.394404,-0.457406,-0.0164509,0.0100505,0.532993,5,0.1,6,0.2,-1.32823,5.18167,0.685248,-0.00205338,-0.13504,0.0627026,-0.015378,-1.01304,0.470281,0.0193397,1.82087,5,0.1,7,0.2,2.12816,-0.592212,0.5721,0.0114918,-0.0878707,0.00263155,0.0861883,-0.659019,0.0197291,0.00870992,1.97986,5,0.1,8,0.2,-1.66273,-4.33738,0.649783,-0.0412434,0.0554085,-0.00469685,-0.309408,0.415325,-0.0351965,0.0110141,0.393625,5,0.1,9,0.2,5.78091,1.79227,0.616298,-0.186932,0.0119805,-0.000949204,-1.4019,0.0899434,-0.00712276,0.0093901,2.9258,5,0.1,10,0.2,2.03864,1.82673,0.563699,-0.0791073,-0.0308186,0.00342429,-0.593185,-0.231147,0.0256896,0.0107122,0.592864,5,0.1,11,0.2,3.75452,-5.67962,0.51893,-0.0145793,0.15372,-0.00650138,-0.109196,1.15275,-0.0487566,0.00847409,1.99117,5,0.1,12,0.2,-2.37126,-0.221056,0.523254,0.184274,0.0330109,-0.00651628,1.38187,0.24759,-0.0489056,0.0122868,2.92581,5,0.1,13,0.2,2.22143,-2.13041,0.675608,0.186896,-0.0107586,-0.00645518,1.40178,-0.0808239,-0.0484288,0.0120651,2.92578,5,0.1,14,0.2,-3.31671,2.24805,0.612911,-0.0468075,-0.0513971,-0.00168383,-0.350833,-0.385404,-0.0126362,0.00899641,0.397059,5,0.1,15,0.2,0.10337,0.28604,0.683603,-0.0207746,0.18613,0.00341982,-0.155814,1.39599,0.02563,0.0165503,2.92579,5,0.1,16,0.2,3.99337,-4.30057,0.629321,-0.159597,0.0980616,-0.00151247,-1.19686,0.735283,-0.0113547,0.0528654,2.92581,5,0.1,17,0.2,0.81218,-2.67698,0.640661,-0.0312313,0.184691,-0.00114143,-0.234246,1.38521,-0.00858307,0.0417473,3.07884,5,0.1,18,0.2,2.73986,-2.48241,0.69278,-0.15794,-0.100613,0.00454187,-1.18446,-0.754476,0.0340641,0.013024,2.9258,5,0.1,19,0.2,4.63059,0.840436,0.627588,-0.0406146,-0.0651255,-0.00260174,-0.304461,-0.48843,-0.0195205,0.00890249,0.484349,5,0.1,20,0.2,-3.22631,4.57752,0.690812,0.180858,-0.0486493,0.00347942,1.35636,-0.365019,0.0261068,0.0438173,2.92579,5,0.1,21,0.2,-4.48097,-2.36172,0.653027,0.125539,0.109583,-0.00500083,0.941753,0.82171,-0.0375509,0.033106,2.28256,5,0.1,22,0.2,-0.372287,5.82997,0.668954,-0.165774,-0.086689,0.00962913,-1.24329,-0.649929,0.072211,0.0230381,2.9258,5,0.1,23,0.2,-3.73937,-5.63483,0.534662,0.140482,-0.0203013,0.00616312,1.05369,-0.152111,0.0462234,0.0150782,1.65776,5,0.1,24,0.2,-3.06424,5.74782,0.691202,0.03196,-0.175285,0.0578016,0.239611,-1.31464,0.433534,0.0160779,2.9258,5,0.1,25,0.2,-3.35291,-3.38758,0.544799,0.160724,0.0961244,0.00412166,1.20533,0.720859,0.0308752,0.0126659,2.9258,5,0.1,26,0.2,0.807933,2.78999,0.590468,-0.080575,-0.169098,0.000609457,-0.604302,-1.26839,0.00461936,0.0314044,2.92578,5,0.1,27,0.2,2.10381,-2.87068,0.516585,-0.113547,0.0443935,-0.00628084,-0.85175,0.333071,-0.0470877,0.0207875,1.22398,5,0.1,28,0.2,-0.527819,2.0695,0.607275,0.184688,-0.0312686,-0.000542402,1.38515,-0.234485,-0.00405312,0.0120475,2.92584,5,0.1,29,0.2,1.24994,4.64006,0.647934,-0.0330091,-0.0132203,0.0662223,-0.247538,-0.0987053,0.496656,0.0239575,0.463963,5,0.1
0,0.3,1.4203,1.73873,0.577211,-0.219136,0.271418,0.00286223,-1.10826,1.32342,0.0139587,0.0175101,2.9264,5,0.1,1,0.3,-1.37324,-0.300852,0.657399,-0.0815263,-0.339134,-0.0081148,-0.403427,-1.67827,-0.0401661,0.0167491,2.92579,5,0.1,2,0.3,3.92537,-4.99918,0.56814,-0.0578687,0.16882,0.00566505,-0.285476,0.832856,0.0279471,0.0320609,0.756472,5,0.1,3,0.3,0.23109,3.24242,0.635469,-0.0728869,-0.341185,-0.00263667,-0.360694,-1.68845,-0.0130571,0.0170543,2.92579,5,0.1,4,0.3,-4.44049,2.58076,0.627415,0.199328,-0.00546426,-0.00487696,0.599265,-0.0269115,-0.0240654,0.010393,1.36669,5,0.1,5,0.3,1.3001,-3.26208,0.622911,-0.0978353,-0.113457,-0.00407677,-0.482641,-0.559717,-0.0201166,0.0100505,0.532993,5,0.1,6,0.3,-1.32852,5.16254,0.694129,-0.00381824,-0.25124,0.116649,-0.0188276,-1.23948,0.575468,0.0193397,1.82087,5,0.1,7,0.3,2.12964,-0.603848,0.572473,0.0169326,-0.140526,0.00489494,0.0264496,-0.400037,0.0241511,0.00870992,1.97986,5,0.1,8,0.3,-1.66857,-4.32954,0.649118,-0.0767337,0.103059,-0.00873506,-0.378571,0.508338,-0.0430867,0.0110141,0.393625,5,0.1,9,0.3,5.75442,1.79397,0.616164,-0.348167,0.0223223,-0.0017683,-1.72293,0.110492,-0.00875071,0.0093901,2.9258,5,0.1,10,0.3,2.02743,1.82237,0.564184,-0.147155,-0.0573331,0.00637071,-0.725925,-0.282846,0.0314303,0.0107122,0.592864,5,0.1,11,0.3,3.75246,-5.65838,0.518009,-0.0271089,0.270848,-0.0120946,-0.133693,1.14256,-0.059668,0.00847409,1.99117,5,0.1,12,0.3,-2.34515,-0.216378,0.52233,0.343207,0.0614858,-0.0121399,1.69839,0.304278,-0.0600852,0.0122868,2.92581,5,0.1,13,0.3,2.24792,-2.13193,0.674694,0.348111,-0.0200506,-0.0120244,1.72272,-0.0992566,-0.0595115,0.0120651,2.92578,5,0.1,14,0.3,-3.32334,2.24077,0.612672,-0.0870585,-0.0956092,-0.00313325,-0.429422,-0.471666,-0.0154562,0.00899641,0.397059,5,0.1,15,0.3,0.100426,0.312416,0.684087,-0.0386946,0.34668,0.0063682,-0.19149,1.71563,0.031516,0.0165503,2.92579,5,0.1,16,0.3,3.97075,-4.28667,0.629106,-0.297251,0.182629,-0.00281818,-1.47098,0.903755,-0.0139475,0.0528654,2.92581,5,0.1,17,0.3,0.807754,-2.65201,0.640499,-0.0581715,0.309768,-0.00212779,-0.287876,1.095,-0.0105388,0.0417473,3.07884,5,0.1,18,0.3,2.71748,-2.49667,0.693424,-0.294168,-0.187387,0.00845939,-1.45572,-0.927299,0.0418648,0.013024,2.9258,5,0.1,19,0.3,4.62483,0.831212,0.627219,-0.0755459,-0.121154,-0.00484074,-0.372648,-0.597689,-0.0238828,0.00890249,0.484349,5,0.1,20,0.3,-3.20068,4.57062,0.691305,0.336855,-0.0906251,0.00648173,1.66698,-0.448495,0.0320785,0.0438173,2.92579,5,0.1,21,0.3,-4.46319,-2.3462,0.652319,0.233561,0.203848,-0.00930708,1.15228,1.00558,-0.0459254,0.033106,2.28256,5,0.1,22,0.3,-0.395778,5.81769,0.670319,-0.308764,-0.161445,0.0179343,-1.52798,-0.798881,0.0887513,0.0230381,2.9258,5,0.1,23,0.3,-3.71947,-5.6377,0.535535,0.26135,-0.0377543,0.0114656,1.28935,-0.186235,0.0565611,0.0150782,1.65776,5,0.1,24,0.3,-3.05972,5.72298,0.699393,0.0595201,-0.326481,0.107661,0.294521,-1.61567,0.532795,0.0160779,2.9258,5,0.1,25,0.3,-3.33013,-3.37396,0.545383,0.29935,0.179031,0.00767382,1.48135,0.885949,0.0379644,0.0126659,2.9258,5,0.1,26,0.3,0.796515,2.76603,0.590554,-0.150075,-0.31497,0.00113929,-0.742678,-1.55874,0.00565127,0.0314044,2.92578,5,0.1,27,0.3,2.08773,-2.86439,0.515696,-0.211248,0.0825975,-0.011683,-1.04219,0.407502,-0.0576265,0.0207875,1.22398,5,0.1,28,0.3,-0.50165,2.06504,0.607198,0.343885,-0.0588547,-0.00101971,1.7004,-0.299171,-0.00518188,0.0120475,2.92584,5,0.1,29,0.3,1.24526,4.63819,0.657313,-0.0614049,-0.0245571,0.123195,-0.302918,-0.120997,0.607755,0.0239575,0.463963,5,0.1
0,0.4,1.39291,1.77235,0.577566,-0.326744,0.398237,0.00419915,-0.994742,1.15782,0.012219,0.0179441,2.51048,5,0.1,1,0.4,-1.38337,-0.343015,0.65639,-0.120395,-0.500832,-0.0119835,-0.356734,-1.4839,-0.0355244,0.0160661,2.51118,5,0.1,2,0.4,3.91818,-4.97821,0.568844,-0.0853419,0.248969,0.00835508,-0.251889,0.734806,0.0246465,0.0209802,0.598526,5,0.1,3,0.4,0.222028,3.2,0.635141,-0.107639,-0.503862,-0.00389367,-0.318915,-1.49286,-0.0115633,0.0196219,2.51183,5,0.1,4,0.4,-4.41808,2.58009,0.626809,0.243795,-0.00805855,-0.0071913,0.294447,-0.0237226,-0.0212491,0.00958685,1.30567,5,0.1,5,0.4,1.28795,-3.27617,0.622405,-0.144285,-0.167322,-0.00601262,-0.425816,-0.493884,-0.0177324,0.0131432,0.421709,5,0.1,6,0.4,-1.329,5.13133,0.70862,-0.00562966,-0.370514,0.172031,-0.0166297,-1.09363,0.507683,0.0271116,1.44068,5,0.1,7,0.4,2.13139,-0.619514,0.573081,0.017482,-0.169083,0.00721812,-0.0123978,-0.177264,0.0213385,0.00764665,1.93188,5,0.1,8,0.4,-1.6781,-4.31673,0.648033,-0.113165,0.151992,-0.0128821,-0.334024,0.448227,-0.037998,0.0101024,0.311445,5,0.1,9,0.4,5.71113,1.79674,0.615944,-0.514174,0.0329673,-0.00261217,-1.52349,0.0976324,-0.0077188,0.0119029,2.51522,5,0.1,10,0.4,2.00915,1.81524,0.564975,-0.217021,-0.0845551,0.00939667,-0.640392,-0.249505,0.0276864,0.00986233,0.469084,5,0.1,11,0.4,3.74909,-5.62592,0.516507,-0.0399768,0.374162,-0.0178367,-0.117898,0.889778,-0.0526607,0.00897394,1.83012,5,0.1,12,0.4,-2.30248,-0.208734,0.520821,0.506842,0.0908021,-0.0179291,1.5018,0.269033,-0.0531077,0.0146162,2.51266,5,0.1,13,0.4,2.29119,-2.13443,0.673199,0.51409,-0.0296116,-0.0177562,1.52326,-0.087738,-0.0526309,0.0121858,2.51517,5,0.1,14,0.4,-3.33415,2.22889,0.612283,-0.128388,-0.141001,-0.00462085,-0.378847,-0.41604,-0.0136197,0.00934779,0.314162,5,0.1,15,0.4,0.0956152,0.355517,0.684879,-0.0571441,0.511976,0.00940412,-0.169307,1.51692,0.0278652,0.0180031,2.51435,5,0.1,16,0.4,3.93379,-4.26397,0.628756,-0.438976,0.269699,-0.00416189,-1.30069,0.799179,-0.0123084,0.056454,2.70629,5,0.1,17,0.4,0.800522,-2.61618,0.640235,-0.0859082,0.400263,-0.00314265,-0.254542,0.701904,-0.00932813,0.0396223,3.11062,5,0.1,18,0.4,2.68091,-2.51997,0.694476,-0.434422,-0.276732,0.0124931,-1.28722,-0.819921,0.0369847,0.012874,2.51442,5,0.1,19,0.4,4.61545,0.816161,0.626618,-0.111413,-0.178675,-0.00714064,-0.328779,-0.527292,-0.0210404,0.00777353,0.383225,5,0.1,20,0.4,-3.1588,4.55936,0.692111,0.497466,-0.133836,0.00957102,1.47378,-0.39649,0.0284016,0.0389801,2.51063,5,0.1,21,0.4,-4.43417,-2.32088,0.651163,0.344455,0.300628,-0.0137255,1.01662,0.887156,-0.0405312,0.0311178,1.80731,5,0.1,22,0.4,-0.434165,5.79762,0.672548,-0.455981,-0.238407,0.0264853,-1.35101,-0.706673,0.0784695,0.0226756,2.51009,5,0.1,23,0.4,-3.687,-5.64239,0.536959,0.385433,-0.0556707,0.0169083,1.1375,-0.164509,0.0499189,0.0132385,1.31163,5,0.1,24,0.4,-3.05232,5.68239,0.712778,0.087899,-0.482154,0.158994,0.260353,-1.42837,0.471085,0.0162102,2.51008,5,0.1,25,0.4,-3.29292,-3.3517,0.546337,0.442076,0.264388,0.0113308,1.30987,0.783443,0.033617,0.0127703,2.51009,5,0.1,26,0.4,0.777857,2.72687,0.590696,-0.221631,-0.465149,0.00168383,-0.656664,-1.37806,0.00497699,0.0333234,2.51007,5,0.1,27,0.4,2.06148,-2.85413,0.514245,-0.311542,0.121814,-0.0172302,-0.919461,0.359535,-0.0508428,0.02358,0.968611,5,0.1,28,0.4,-0.458906,2.05768,0.60707,0.507667,-0.0879586,-0.0015229,1.5026,-0.269413,-0.00470877,0.0110214,2.5128,5,0.1,29,0.4,1.23763,4.63514,0.672617,-0.0905573,-0.0362039,0.181684,-0.267267,-0.10705,0.536203,0.0164098,0.367095,5,0.1
0,0.5,1.3551,1.81811,0.578048,-0.429674,0.516907,0.00545112,-1.01034,1.15506,0.0121854,0.0179441,2.51048,5,0.1,1,0.5,-1.39725,-0.400622,0.655009,-0.157105,-0.650472,-0.0156384,-0.358574,-1.43609,-0.0356957,0.0160661,2.51118,5,0.1,2,0.5,3.90836,-4.94957,0.569805,-0.110899,0.323521,0.0108561,-0.246689,0.719637,0.0241473,0.0209802,0.598526,5,0.1,3,0.5,0.209624,3.14207,0.634692,-0.140457,-0.653622,-0.00508279,-0.320558,-1.43057,-0.011608,0.0196219,2.51183,5,0.1,4,0.5,-4.39297,2.57916,0.625982,0.252108,-0.0104677,-0.00934666,-0.0903904,-0.0232905,-0.0208057,0.00958685,1.30567,5,0.1,5,0.5,1.27135,-3.29542,0.621713,-0.187488,-0.21743,-0.00781175,-0.417061,-0.483677,-0.0173673,0.0131432,0.421709,5,0.1,6,0.5,-1.32965,5.08871,0.728408,-0.00731647,-0.481468,0.22354,-0.016287,-1.07101,0.497237,0.0271116,1.44068,5,0.1,7,0.5,2.13302,-0.636738,0.573911,0.0148296,-0.170624,0.00938261,-0.0378489,0.110917,0.0208877,0.00764665,1.93188,5,0.1,8,0.5,-1.69112,-4.29925,0.646551,-0.147053,0.197478,-0.0167377,-0.327118,0.439197,-0.0372231,0.0101024,0.311445,5,0.1,9,0.5,5.65211,1.80054,0.615643,-0.664351,0.0430146,-0.00340678,-1.41177,0.0981316,-0.0077635,0.0119029,2.51522,5,0.1,10,0.5,1.98419,1.80552,0.566056,-0.281997,-0.10987,0.0122065,-0.627257,-0.244379,0.0271276,0.00986233,0.469084,5,0.1,11,0.5,3.74449,-5.5852,0.514483,-0.0519414,0.429782,-0.0223802,-0.115529,0.263691,-0.0373647,0.00897394,1.83012,5,0.1,12,0.5,-2.24424,-0.19827,0.518755,0.656729,0.118486,-0.023394,1.42513,0.270415,-0.0533797,0.0146162,2.51266,5,0.1,13,0.5,2.35021,-2.13784,0.671152,0.664267,-0.0386391,-0.0231716,1.41193,-0.0881702,-0.0528879,0.0121858,2.51517,5,0.1,14,0.5,-3.34892,2.21267,0.611752,-0.166829,-0.183214,-0.00600312,-0.371099,-0.407517,-0.013344,0.00934779,0.314162,5,0.1,15,0.5,0.0890302,0.414305,0.685962,-0.0745664,0.662064,0.0122716,-0.170178,1.41577,0.0280105,0.0180031,2.51435,5,0.1,16,0.5,3.88458,-4.23289,0.628276,-0.534061,0.351938,-0.00542905,-0.61968,0.803262,-0.0123754,0.056454,2.70629,5,0.1,17,0.5,0.790623,-2.57387,0.639873,-0.112089,0.435028,-0.00410136,-0.255629,0.0482351,-0.00935793,0.0396223,3.11062,5,0.1,18,0.5,2.63104,-2.55184,0.695933,-0.561353,-0.360519,0.0168203,-1.19555,-0.813723,0.0464432,0.012874,2.51442,5,0.1,19,0.5,4.60263,0.795609,0.625797,-0.144773,-0.232175,-0.00927588,-0.322074,-0.516448,-0.0206195,0.00777353,0.383225,5,0.1,20,0.5,-3.10155,4.54393,0.693214,0.646963,-0.174634,0.0124925,1.44221,-0.398517,0.028532,0.0389801,2.51063,5,0.1,21,0.5,-4.39455,-2.28641,0.649584,0.447597,0.387552,-0.0178369,0.995606,0.81405,-0.0396818,0.0311178,1.80731,5,0.1,22,0.5,-0.48671,5.77014,0.6756,-0.595005,-0.311123,0.0345603,-1.35796,-0.710249,0.0788793,0.0226756,2.51009,5,0.1,23,0.5,-3.64267,-5.64879,0.538904,0.500843,-0.0723578,0.0219727,1.11407,-0.161082,0.0488833,0.0132385,1.31163,5,0.1,24,0.5,-3.04219,5.62683,0.7311,0.114693,-0.629143,0.20747,0.261754,-1.43579,0.473499,0.0162102,2.51008,5,0.1,25,0.5,-3.24198,-3.32123,0.547643,0.576865,0.345006,0.0147895,1.31661,0.787437,0.0337772,0.0127703,2.51009,5,0.1,26,0.5,0.752318,2.67327,0.59089,-0.289204,-0.606957,0.00219587,-0.660039,-1.38517,0.00499934,0.0333234,2.51007,5,0.1,27,0.5,2.02565,-2.84012,0.512304,-0.404827,0.15829,-0.0212044,-0.900485,0.352114,-0.0287406,0.02358,0.968611,5,0.1,28,0.5,-0.40058,2.04749,0.606894,0.657489,-0.115876,-0.00201007,1.42327,-0.274375,-0.004787,0.0110214,2.5128,5,0.1,29,0.5,1.22722,4.63097,0.693515,-0.117674,-0.0470646,0.236087,-0.261761,-0.104815,0.525165,0.0164098,0.367095,5,0.1
0,0.6,1.30742,1.87516,0.57865,-0.51966,0.618917,0.00652671,-0.751376,0.842512,0.00891089,0.0126282,2.21948,5,0.1,1,0.6,-1.41463,-0.472283,0.653279,-0.188887,-0.7758,-0.0188023,-0.263691,-1.0208,-0.0262558,0.0138733,2.30839,5,0.1,2,0.6,3.89613,-4.91389,0.571002,-0.132549,0.386667,0.0129759,-0.177383,0.517845,0.0173748,0.0275611,0.445583,5,0.1,3,0.6,0.194087,3.07014,0.63413,-0.168869,-0.777948,-0.00611097,-0.235736,-1.00744,-0.00852346,0.0163366,2.3137,5,0.1,4,0.6,-4.36859,2.578,0.624951,0.232279,-0.012511,-0.0111714,-0.277996,-0.0168085,-0.0149608,0.00873335,1.97615,5,0.1,5,0.6,1.25068,-3.3194,0.620852,-0.224087,-0.259876,-0.00933558,-0.30005,-0.347853,-0.0124872,0.0104179,0.313949,5,0.1,6,0.6,-1.33045,5.03561,0.753061,-0.00874698,-0.575459,0.267176,-0.0116825,-0.770092,0.357658,0.0182728,1.07253,5,0.1,7,0.6,2.1343,-0.653005,0.574946,0.0104189,-0.152948,0.0112146,-0.0482798,0.217617,0.0150502,0.00893176,1.85272,5,0.1,8,0.6,-1.70734,-4.27747,0.644705,-0.175759,0.236022,-0.0200063,-0.235319,0.315905,-0.0267327,0.0143104,0.231874,5,0.1,9,0.6,5.57925,1.8053,0.615266,-0.785267,0.051713,-0.00409484,-0.962019,0.0721812,-0.00572205,0.00961431,2.33294,5,0.1,10,0.6,1.95309,1.7934,0.567402,-0.337043,-0.131318,0.0145867,-0.451267,-0.175774,0.0195503,0.0109339,0.349227,5,0.1,11,0.6,3.73876,-5.54166,0.512089,-0.0620782,0.434208,-0.02518,-0.0832081,-0.14329,-0.0181496,0.0105713,1.65695,5,0.1,12,0.6,-2.17204,-0.185163,0.516167,0.78007,0.142454,-0.0281245,0.994205,0.198863,-0.0392795,0.0115111,2.05491,5,0.1,13,0.6,2.42306,-2.14211,0.668589,0.785202,-0.0464499,-0.0278592,0.962496,-0.0649691,-0.038892,0.0125386,2.33276,5,0.1,14,0.6,-3.36732,2.19247,0.61109,-0.199395,-0.218982,-0.00717342,-0.267029,-0.293136,-0.00962615,0.0094237,0.233893,5,0.1,15,0.6,0.0807816,0.486965,0.68732,-0.0896499,0.7837,0.0147551,-0.125147,0.97178,0.0205934,0.0150969,2.32871,5,0.1,16,0.6,3.82907,-4.19396,0.627676,-0.566691,0.423133,-0.00652671,-0.0519753,0.590801,-0.00908971,0.0580936,2.76678,5,0.1,17,0.6,0.778224,-2.53084,0.639419,-0.134739,0.419509,-0.00493079,-0.187844,-0.317454,-0.00685453,0.0360468,3.18897,5,0.1,18,0.6,2.56945,-2.59166,0.697842,-0.664085,-0.432301,0.0212401,-0.820398,-0.592113,0.0397265,0.0160409,2.24004,5,0.1,19,0.6,4.58667,0.770004,0.624774,-0.173044,-0.277495,-0.0110865,-0.231504,-0.371516,-0.0148118,0.00886372,0.285304,5,0.1,20,0.6,-3.03019,4.52462,0.694596,0.773406,-0.209951,0.0150219,1.03569,-0.293255,0.020951,0.0399848,2.30263,5,0.1,21,0.6,-4.34519,-2.24396,0.647617,0.534976,0.457138,-0.0213191,0.715971,0.55182,-0.0285208,0.0310954,1.26039,5,0.1,22,0.6,-0.55253,5.73573,0.679423,-0.715365,-0.374067,0.0415519,-0.998646,-0.522375,0.0579655,0.0282354,2.23389,5,0.1,23,0.6,-3.58744,-5.65677,0.541328,0.598609,-0.0864983,0.0262618,0.801444,-0.115633,0.0351667,0.0151392,0.791306,5,0.1,24,0.6,-3.0295,5.55723,0.75405,0.137889,-0.756395,0.249436,0.192642,-1.05619,0.34824,0.0167853,2.08869,5,0.1,25,0.6,-3.17816,-3.28307,0.549279,0.69356,0.414801,0.017783,0.968218,0.579,0.0248253,0.0149459,2.22381,5,0.1,26,0.6,0.720326,2.60613,0.591133,-0.347705,-0.729728,0.002639,-0.48539,-1.01864,0.00366569,0.0309274,2.24933,5,0.1,27,0.6,1.981,-2.82266,0.510076,-0.48385,0.189191,-0.0230148,-0.647783,0.253201,-0.00777841,0.0244883,0.721662,5,0.1,28,0.6,-0.328315,2.03462,0.60667,0.780562,-0.140339,-0.00243485,0.991106,-0.204682,-0.00360608,0.0146542,2.34435,5,0.1,29,0.6,1.21424,4.62578,0.719552,-0.140646,-0.0562668,0.282171,-0.188291,-0.0755787,0.377804,0.0154574,0.2926,5,0.1
0,0.7,1.25166,1.94132,0.579348,-0.594678,0.703356,0.00741594,-0.703104,0.79257,0.00831485,0.0126282,2.21948,5,0.1,1,0.7,-1.43485,-0.553925,0.651266,-0.215353,-0.847003,-0.0214369,-0.248931,-0.421492,-0.0247769,0.0138733,2.30839,5,0.1,2,0.7,3.88201,-4.87268,0.572385,-0.14958,0.436378,0.0146441,-0.153482,0.447959,0.0150353,0.0275611,0.445583,5,0.1,3,0.7,0.176005,2.98835,0.633475,-0.192531,-0.847747,-0.00696629,-0.22257,-0.408694,-0.00804663,0.0163366,2.3137,5,0.1,4,0.7,-4.34717,2.57667,0.623761,0.193817,-0.0141256,-0.0126073,-0.423402,-0.0145435,-0.0129342,0.00873335,1.97615,5,0.1,5,0.7,1.22679,-3.34709,0.619857,-0.252892,-0.293271,-0.0105343,-0.259586,-0.300974,-0.0107996,0.0104179,0.313949,5,0.1,6,0.7,-1.33139,4.97428,0.781536,-0.00986923,-0.649393,0.301514,-0.0101253,-0.666291,0.309456,0.0182728,1.07253,5,0.1,7,0.7,2.13508,-0.666958,0.576141,0.00516474,-0.125038,0.0126589,-0.0547469,0.285335,0.0130087,0.00893176,1.85272,5,0.1,8,0.7,-1.72607,-4.25232,0.642573,-0.19835,0.266356,-0.0225739,-0.203572,0.273377,-0.0231452,0.0143104,0.231874,5,0.1,9,0.7,5.49698,1.81084,0.614828,-0.850287,0.0589574,-0.00466891,-0.365198,0.0681356,-0.00540167,0.00961431,2.33294,5,0.1,10,0.7,1.91717,1.77941,0.568956,-0.380368,-0.148194,0.0164635,-0.390448,-0.152096,0.0169128,0.0109339,0.349227,5,0.1,11,0.7,3.73215,-5.49973,0.509533,-0.0700668,0.39887,-0.0254558,-0.0720024,-0.487268,0.0108555,0.0105713,1.65695,5,0.1,12,0.7,-2.09011,-0.169928,0.51322,0.848443,0.161904,-0.0302345,0.396088,0.178678,-0.00451133,0.0115111,2.05491,5,0.1,13,0.7,2.50533,-2.14709,0.665606,0.850267,-0.0529651,-0.0317613,0.365555,-0.0612587,-0.0366941,0.0125386,2.33276,5,0.1,14,0.7,-3.38857,2.16913,0.610325,-0.225032,-0.247126,-0.0080971,-0.231043,-0.253648,-0.0083223,0.0094237,0.233893,5,0.1,15,0.7,0.0711826,0.569137,0.6889,-0.10221,0.849744,0.0168221,-0.118132,0.37449,0.019446,0.0150969,2.32871,5,0.1,16,0.7,3.77331,-4.14865,0.626977,-0.538293,0.482365,-0.00743857,0.555992,0.556588,-0.00857189,0.0580936,2.76678,5,0.1,17,0.7,0.763801,-2.49118,0.638891,-0.153522,0.369029,-0.00561625,-0.176068,-0.600517,-0.0064224,0.0360468,3.18897,5,0.1,18,0.7,2.4988,-2.63791,0.700159,-0.748985,-0.492349,0.024997,-0.816777,-0.569686,0.0337102,0.0160409,2.24004,5,0.1,19,0.7,4.56823,0.740429,0.623592,-0.195274,-0.313162,-0.0125092,-0.200391,-0.321433,-0.0128299,0.00886372,0.285304,5,0.1,20,0.7,-2.94871,4.50214,0.696205,0.846173,-0.239382,0.0171246,0.435725,-0.276774,0.0197813,0.0399848,2.30263,5,0.1,21,0.7,-4.28817,-2.19653,0.645345,0.603715,0.4816,-0.0240573,0.619471,-0.0313967,-0.0246726,0.0310954,1.26039,5,0.1,22,0.7,-0.628652,5.69567,0.683872,-0.802163,-0.4265,0.0473714,-0.705309,-0.493228,0.0547543,0.0282354,2.23389,5,0.1,23,0.7,-3.52447,-5.66599,0.544127,0.651952,-0.0976019,0.0296376,0.273854,-0.100046,0.0304244,0.0151392,0.791306,5,0.1,24,0.7,-3.01475,5.47719,0.780736,0.156878,-0.835596,0.283764,0.1757,-0.526488,0.317667,0.0167853,2.08869,5,0.1,25,0.7,-3.10414,-3.23865,0.551184,0.78395,0.472922,0.0202749,0.792578,0.546783,0.0234395,0.0149459,2.22381,5,0.1,26,0.7,0.683289,2.52863,0.591414,-0.390935,-0.813825,0.00296626,-0.360675,-0.642702,0.00274181,0.0309274,2.24933,5,0.1,27,0.7,1.92943,-2.8025,0.50778,-0.546038,0.2135,-0.022495,-0.560433,0.219077,0.0165105,0.0244883,0.721662,5,0.1,28,0.7,-0.246354,2.01986,0.60641,0.848663,-0.152146,-0.00275113,0.393202,-0.0381768,-0.00260025,0.0146542,2.34435,5,0.1,29,0.7,1.19925,4.61995,0.749234,-0.158723,-0.0587009,0.30734,-0.162907,0.0202954,0.129905,0.0154574,0.2926,5,0.1
0,0.8,1.18906,2.01518,0.580126,-0.652522,0.768346,0.0080958,-0.422001,0.470161,0.00485778,0.0140589,2.04355,5,0.1,1,0.8,-1.4575,-0.639929,0.649012,-0.23585,-0.866024,-0.0234768,-0.149488,-2.98023e-05,-0.0149012,0.0138456,2.22503,5,0.1,2,0.8,3.86639,-4.82711,0.573915,-0.161612,0.471497,0.0158235,-0.0805855,0.235319,0.00789762,0.0199465,0.314597,5,0.1,3,0.8,0.155762,2.90232,0.632743,-0.210858,-0.866026,-0.0076279,-0.133649,0,-0.00482798,0.0221379,2.23796,5,0.1,4,0.8,-4.32972,2.5752,0.622444,0.157797,-0.0152707,-0.0136226,-0.263214,-0.00751019,-0.00676513,0.0112331,1.828,5,0.1,5,0.8,1.20038,-3.37772,0.618757,-0.273246,-0.31687,-0.0113815,-0.136316,-0.157952,-0.00566244,0.00962634,0.221665,5,0.1,6,0.8,-1.33242,4.90647,0.813023,-0.0106603,-0.70163,0.325775,-0.00536442,-0.34976,0.162512,0.0190983,0.757273,5,0.1,7,0.8,2.13533,-0.678261,0.577464,-0.000166893,-0.103985,0.0136778,-0.0504255,0.109941,0.00685453,0.0087141,1.71489,5,0.1,8,0.8,-1.74679,-4.2245,0.640216,-0.214311,0.287795,-0.0243887,-0.106812,0.143766,-0.0121593,0.0114095,0.163726,5,0.1,9,0.8,5.41086,1.81704,0.614337,-0.866032,0.0645697,-0.00511408,0.000238419,0.0408292,-0.00324845,0.0105389,2.26868,5,0.1,10,0.8,1.87745,1.76393,0.570676,-0.41098,-0.160119,0.017789,-0.2051,-0.0798106,0.00888109,0.0129675,0.246577,5,0.1,11,0.8,3.72483,-5.46236,0.507077,-0.0757098,0.348639,-0.0233367,-0.0379086,-0.474691,0.0299215,0.0108523,1.49523,5,0.1,12,0.8,-2.00406,-0.152955,0.510221,0.866029,0.176261,-0.0293314,-5.96046e-05,0.100642,0.0211895,0.0125681,1.56366,5,0.1,13,0.8,2.59145,-2.15266,0.662267,0.866026,-0.0580013,-0.0347823,-0.000119209,-0.0368357,-0.0219941,0.0132472,1.96996,5,0.1,14,0.8,-3.41207,2.14332,0.609479,-0.243145,-0.267011,-0.00874996,-0.121474,-0.133276,-0.00438094,0.00759329,0.165147,5,0.1,15,0.8,0.0604358,0.65524,0.690669,-0.111936,0.866026,0.0184223,-0.0709185,0,0.0116825,0.0141007,2.26202,5,0.1,16,0.8,3.72284,-4.09794,0.626195,-0.466669,0.528157,-0.00814497,0.828862,0.333309,-0.005126,0.0560502,2.90332,5,0.1,17,0.8,0.747667,-2.45718,0.638301,-0.167969,0.313377,-0.00614375,-0.104725,-0.464559,-0.0038147,0.034991,3.17819,5,0.1,18,0.8,2.42023,-2.6897,0.702806,-0.817102,-0.539589,0.0276998,-0.503063,-0.347972,0.0191629,0.0128541,2.03433,5,0.1,19,0.8,4.54783,0.707725,0.622286,-0.210989,-0.338365,-0.0135139,-0.105143,-0.168771,-0.00676513,0.00987238,0.201446,5,0.1,20,0.8,-2.86273,4.47696,0.698005,0.866026,-0.262177,0.0187531,0,-0.165939,0.0118911,0.0413415,2.21967,5,0.1,21,0.8,-4.22513,-2.14928,0.642832,0.652277,0.456733,-0.0259921,0.325441,-0.438571,-0.0129342,0.0301625,0.983571,5,0.1,22,0.8,-0.711718,5.65083,0.688853,-0.852026,-0.467122,0.0518814,-0.279993,-0.296116,0.032872,0.0230385,2.12224,5,0.1,23,0.8,-3.45871,-5.67619,0.547222,0.655335,-0.105453,0.0320226,-0.195384,-0.0524521,0.015974,0.0114354,0.195541,5,0.1,24,0.8,-2.99828,5.39184,0.810512,0.171107,-0.863492,0.309487,0.101089,-0.0505447,0.182599,0.018213,1.56234,5,0.1,25,0.8,-3.02238,-3.18893,0.553315,0.844592,0.517952,0.0222057,0.392318,0.328422,0.0140965,0.0109087,2.09838,5,0.1,26,0.8,0.642722,2.44477,0.591722,-0.416809,-0.856036,0.00316352,-0.145078,-0.199795,0.00113249,0.0270433,2.36788,5,0.1,27,0.8,1.87241,-2.7802,0.505642,-0.589979,0.230676,-0.0200197,-0.294209,0.114918,0.0315905,0.0198699,0.510214,5,0.1,28,0.8,-0.16029,2.00468,0.606124,0.866025,-0.149277,-0.00293404,4.76837e-06,0.0891685,-0.00101328,0.0121675,2.00039,5,0.1,29,0.8,1.18268,4.6143,0.78024,-0.171494,-0.0534177,0.309125,-0.0855923,0.0798702,-0.0888705,0.0151423,0.250887,5,0.1
0,0.9,1.1216,2.09446,0.580961,-0.696613,0.817091,0.00860197,-0.414483,0.453323,0.00472739,0.0140589,2.04355,5,0.1,1,0.9,-1.48195,-0.726532,0.646591,-0.254032,-0.866026,-0.0249038,-0.192195,0,-0.0123084,0.0138456,2.22503,5,0.1,2,0.9,3.84984,-4.77884,0.575535,-0.168915,0.492816,0.0165395,-0.057742,0.168532,0.00565872,0.0199465,0.314597,5,0.1,3,0.9,0.13398,2.81572,0.631955,-0.224672,-0.866026,-0.00812672,-0.128428,0,-0.00463426,0.0221379,2.23796,5,0.1,4,0.9,-4.315,2.57363,0.62105,0.141528,-0.0159528,-0.0142357,0.0137985,-0.00540912,-0.0048466,0.0112331,1.828,5,0.1,5,0.9,1.17241,-3.41016,0.617592,-0.285597,-0.331184,-0.0118947,-0.0976399,-0.113159,-0.00405312,0.00962634,0.221665,5,0.1,6,0.9,-1.33351,4.83463,0.846376,-0.0111461,-0.733325,0.340501,-0.0038445,-0.250578,0.116408,0.0190983,0.757273,5,0.1,7,0.9,2.13506,-0.688352,0.578864,-0.00516623,-0.102223,0.0142983,-0.0480115,-0.144262,0.00489876,0.0087141,1.71489,5,0.1,8,0.9,-1.76873,-4.19504,0.637719,-0.223991,0.300825,-0.025491,-0.0765026,0.103056,-0.00871718,0.0114095,0.163726,5,0.1,9,0.9,5.32425,1.82371,0.613809,-0.866023,0.068791,-0.00544954,-2.98023e-05,0.0392422,-0.00312179,0.0105389,2.26868,5,0.1,10,0.9,1.83537,1.74754,0.572497,-0.429565,-0.167352,0.0185939,-0.146925,-0.0571758,0.0063628,0.0129675,0.246577,5,0.1,11,0.9,3.71708,-5.4298,0.504915,-0.0791438,0.305872,-0.019718,-0.0271499,-0.294894,0.0410527,0.0108523,1.49523,5,0.1,12,0.9,-1.91746,-0.134842,0.507431,0.865905,0.185595,-0.0261342,-0.00483543,0.0769803,0.0409037,0.0125681,1.56366,5,0.1,13,0.9,2.67805,-2.15864,0.658678,0.866024,-0.061601,-0.0369342,2.98023e-05,-0.0317246,-0.0189692,0.0132472,1.96996,5,0.1,14,0.9,-3.43697,2.11598,0.608583,-0.254152,-0.279087,-0.00914689,-0.0870079,-0.0954717,-0.00313669,0.00759329,0.165147,5,0.1,15,0.9,0.0488735,0.741842,0.692572,-0.119255,0.866026,0.0196279,-0.0679423,-3.72529e-06,0.0111945,0.0141007,2.26202,5,0.1,16,0.9,3.68074,-4.0434,0.625354,-0.37304,0.562265,-0.00867005,0.961155,0.314102,-0.00484288,0.0560502,2.90332,5,0.1,17,0.9,0.730369,-2.42794,0.63766,-0.177535,0.276902,-0.00672722,-0.0781491,-0.151932,-0.00702217,0.034991,3.17819,5,0.1,18,0.9,2.33642,-2.74546,0.705666,-0.8546,-0.575233,0.0294171,-0.24116,-0.329033,0.0138432,0.0128541,2.03433,5,0.1,19,0.9,4.52623,0.673083,0.620902,-0.220519,-0.353659,-0.014127,-0.0753701,-0.120893,-0.00485033,0.00987238,0.201446,5,0.1,20,0.9,-2.77613,4.44988,0.699942,0.866026,-0.279322,0.019981,0,-0.159323,0.0114068,0.0413415,2.21967,5,0.1,21,0.9,-4.15835,-2.10633,0.640172,0.681768,0.397645,-0.0271642,0.233084,-0.714049,-0.0092648,0.0301625,0.983571,5,0.1,22,0.9,-0.797778,5.60257,0.694213,-0.865151,-0.497782,0.0552861,-0.0349954,-0.285506,0.0317097,0.0230385,2.12224,5,0.1,23,0.9,-3.3951,-5.68698,0.5505,0.60836,-0.110207,0.0334701,-0.704542,-0.0376105,0.0114441,0.0114354,0.195541,5,0.1,24,0.9,-2.98068,5.30534,0.842348,0.180559,-0.86567,0.326562,0.0789165,0.00143051,0.142593,0.018213,1.56234,5,0.1,25,0.9,-2.93666,-3.13542,0.555609,0.864232,0.551961,0.0236652,0.0626743,0.316679,0.0135861,0.0109087,2.09838,5,0.1,26,0.9,0.601451,2.35857,0.592026,-0.398541,-0.864671,0.00276752,0.459876,0.00423193,-0.00809133,0.0270433,2.36788,5,0.1,27,0.9,1.81201,-2.75659,0.503813,-0.616639,0.241091,-0.0164285,-0.210732,0.082314,0.0390485,0.0198699,0.510214,5,0.1,28,0.9,-0.0741997,1.98948,0.605841,0.850588,-0.160742,-0.00260398,-0.311005,-0.269756,0.00680983,0.0121675,2.00039,5,0.1,29,0.9,1.16512,4.60941,0.81023,-0.17925,-0.0437371,0.286558,-0.0613183,0.109285,-0.337381,0.0151423,0.250887,5,0.1
0,1,1.05018,2.17807,0.581841,-0.727737,0.850308,0.00894964,-0.176609,0.175595,0.00181794,0.0120859,1.96055,5,0.1,1,1,-1.50824,-0.813134,0.644052,-0.270525,-0.866026,-0.0257134,-0.121951,0,-0.00306964,0.0101657,2.21545,5,0.1,2,1,3.83275,-4.72897,0.577208,-0.17187,0.501442,0.0168294,0.00369549,-0.0107288,-0.00038743,0.0207715,0.21393,5,0.1,3,1,0.110975,2.72912,0.631123,-0.234141,-0.866026,-0.00846833,-0.0511333,0,-0.00184774,0.0157972,2.23439,5,0.1,4,1,-4.3,2.57202,0.619609,0.165796,-0.0162303,-0.0144839,0.448227,0.000357628,0.000357628,0.0108834,1.62458,5,0.1,5,1,1.14351,-3.44367,0.616388,-0.290599,-0.336975,-0.0121027,0.00625849,0.00715256,0.000298023,0.0110055,0.150743,5,0.1,6,1,-1.33464,4.76044,0.880828,-0.0113428,-0.746155,0.346465,0.000178814,0.0162125,-0.00751019,0.017397,0.514987,5,0.1,7,1,2.13432,-0.7,0.580311,-0.0095129,-0.13743,0.0145495,-0.0377893,-0.536233,-0.000327826,0.00951725,1.47696,5,0.1,8,1,-1.79139,-4.1646,0.63514,-0.227907,0.306106,-0.0259385,0.00500679,-0.0064373,0.000566244,0.0102849,0.188551,5,0.1,9,1,5.23765,1.83075,0.613251,-0.866032,0.0716805,-0.00567883,0.000238419,0.015676,-0.0012517,0.0118523,2.26835,5,0.1,10,1,1.79191,1.7306,0.574378,-0.43709,-0.170282,0.01892,0.00929832,0.00375509,-0.00038743,0.0094438,0.285992,5,0.1,11,1,3.70907,-5.4,0.503158,-0.0805378,0.296772,-0.015378,0.00166893,0.0977516,0.0445843,0.00884229,1.27257,5,0.1,12,1,-1.83093,-0.115997,0.505042,0.864097,0.190147,-0.0214875,-0.0386238,0.00800192,0.0505447,0.0141652,1.18594,5,0.1,13,1,2.76466,-2.16493,0.654909,0.866026,-0.063765,-0.0382289,0,-0.00917912,-0.00551343,0.00923236,1.54333,5,0.1,14,1,-3.46268,2.08775,0.607658,-0.258613,-0.28398,-0.00930727,0.00560284,0.00607967,0.000208616,0.00893292,0.112305,5,0.1,15,1,0.0366637,0.828445,0.694581,-0.124254,0.866026,0.0204518,-0.0268491,0,0.00441074,0.0160147,2.26104,5,0.1,16,1,3.64795,-3.98587,0.624467,-0.286937,0.585103,-0.00902265,0.718355,0.118852,-0.00181794,0.0566238,2.89572,5,0.1,17,1,0.712325,-2.4,0.636953,-0.182195,0.291681,-0.00740439,-0.00941753,0.421166,-0.00590086,0.0378541,2.90591,5,0.1,18,1,2.25019,-2.80435,0.70866,-0.866026,-0.599337,0.0302449,0,-0.12815,0.00184774,0.0111581,1.50078,5,0.1,19,1,4.50392,0.6373,0.619473,-0.224388,-0.359851,-0.0143766,0.00500679,0.00777841,0.000327826,0.0111369,0.136996,5,0.1,20,1,-2.68953,4.42128,0.701988,0.866026,-0.291061,0.0208214,0,-0.0629425,0.00452995,0.0346351,2.21432,5,0.1,21,1,-4.08937,-2.07039,0.637423,0.693703,0.319195,-0.0276372,-0.014782,-0.831366,0.000596046,0.0252926,0.6291,5,0.1,22,1,-0.884363,5.5516,0.699874,-0.866026,-0.518882,0.0576288,0,-0.114679,0.0127554,0.0244247,2.09516,5,0.1,23,1,-3.33836,-5.69813,0.553887,0.521719,-0.112128,0.0340551,-0.99504,0.00238419,-0.000715256,0.0136283,0.285151,5,0.1,24,1,-2.96233,5.21886,0.875542,0.185388,-0.862908,0.335282,0.0115633,0.0627041,0.0208914,0.0157938,1.16305,5,0.1,25,1,-2.8501,-3.0789,0.558033,0.866026,0.575364,0.0246689,0,0.127077,0.00545382,0.0117887,1.85426,5,0.1,26,1,0.564548,2.27243,0.592254,-0.334039,-0.854343,0.0017181,0.788599,0.233531,-0.0121295,0.0274586,2.59866,5,0.1,27,1,1.74962,-2.73219,0.50237,-0.627431,0.245309,-0.0124231,0.0136495,-0.00548363,0.0401437,0.0215274,0.347771,5,0.1,28,1,0.00878009,1.97179,0.605622,0.803807,-0.194612,-0.00171512,-0.622522,-0.370204,0.0102818,0.011524,2.92762,5,0.1,29,1,1.14698,4.60561,0.836958,-0.18239,-0.0323534,0.246076,0.00393391,0.114679,-0.453055,0.0190466,0.221782,5,0.1
0,1.1,0.976355,2.26382,0.582747,-0.749378,0.862954,0.00918033,-0.210948,0.0633597,0.0022538,0.0120859,1.96055,5,0.1,1,1.1,-1.536,-0.899737,0.641462,-0.28505,-0.866026,-0.0260842,-0.148036,3.72529e-06,-0.00301376,0.0101657,2.21545,5,0.1,2,1.1,3.81559,-4.6789,0.578888,-0.171118,0.499251,0.0167537,0.017643,-0.0514686,-0.00173599,0.0207715,0.21393,5,0.1,3,1.1,0.0872558,2.64252,0.630265,-0.240371,-0.866026,-0.00869315,-0.0594505,0,-0.00214577,0.0157972,2.23439,5,0.1,4,1.1,-4.28121,2.5704,0.618163,0.209925,-0.0161596,-0.014417,0.437856,0.00163913,0.00151619,0.0108834,1.62458,5,0.1,5,1.1,1.1145,-3.47732,0.61518,-0.289326,-0.335508,-0.0120469,0.0298247,0.034526,0.00126287,0.0110055,0.150743,5,0.1,6,1.1,-1.33577,4.68593,0.915422,-0.0112984,-0.742877,0.344944,0.00111759,0.0766516,-0.035584,0.017397,0.514987,5,0.1,7,1.1,2.13318,-0.717293,0.581763,-0.0130907,-0.215145,0.0144843,-0.0325739,-0.941437,-0.00150502,0.00951725,1.47696,5,0.1,8,1.1,-1.8143,-4.13382,0.632532,-0.231438,0.310875,-0.0263414,-0.0570416,0.0768602,-0.00650808,0.0102849,0.188551,5,0.1,9,1.1,5.15105,1.83801,0.612675,-0.866023,0.0735907,-0.00583082,-2.98023e-05,0.0182316,-0.00145286,0.0118523,2.26835,5,0.1,10,1.1,1.7481,1.7136,0.576268,-0.43963,-0.16953,0.018839,-0.0342429,0.0175163,-0.0019297,0.0094438,0.285992,5,0.1,11,1.1,3.70103,-5.36893,0.501841,-0.0801913,0.331747,-0.0109986,0.00822544,0.530034,0.0421889,0.00884229,1.27257,5,0.1,12,1.1,-1.74454,-0.0969504,0.503151,0.864502,0.190516,-0.0163051,0.0107363,-0.00794195,0.0519343,0.0141652,1.18594,5,0.1,13,1.1,2.85126,-2.17135,0.651059,0.865918,-0.0645824,-0.038721,-0.00430644,-0.00441074,-0.00266731,0.00923236,1.54333,5,0.1,14,1.1,-3.4885,2.05939,0.606729,-0.257478,-0.282739,-0.00926582,0.0265688,0.029102,0.0009574,0.00893292,0.112305,5,0.1,15,1.1,0.024079,0.915048,0.696653,-0.127499,0.866026,0.0209853,-0.0306911,0,0.00504404,0.0160147,2.26104,5,0.1,16,1.1,3.62242,-3.92658,0.623553,-0.23033,0.601609,-0.00927616,0.325501,0.172451,-0.00265241,0.0566238,2.89572,5,0.1,17,1.1,0.694003,-2.3674,0.636186,-0.184536,0.370783,-0.00789398,-0.0263043,1.0528,-0.00360981,0.0378541,2.90591,5,0.1,18,1.1,2.1636,-2.86494,0.711691,-0.86561,-0.611762,0.03032,0.0166446,-0.0917763,-0.00143796,0.0111581,1.50078,5,0.1,19,1.1,4.48152,0.601369,0.618038,-0.223394,-0.358273,-0.0143123,0.023067,0.0369437,0.00147894,0.0111369,0.136996,5,0.1,20,1.1,-2.60293,4.3918,0.704097,0.866026,-0.298684,0.0213689,0,-0.0722706,0.00518188,0.0346351,2.21432,5,0.1,21,1.1,-4.0201,-2.04266,0.634664,0.690678,0.235686,-0.027516,-0.0711381,-0.821382,0.0028424,0.0252926,0.6291,5,0.1,22,1.1,-0.970965,5.49902,0.705714,-0.866004,-0.532974,0.0591956,0.000871718,-0.13569,0.0150949,0.0244247,2.09516,5,0.1,23,1.1,-3.29142,-5.70941,0.557311,0.4153,-0.113875,0.034585,-1.10604,-0.0281334,0.00853837,0.0136283,0.285151,5,0.1,24,1.1,-2.94374,5.13262,0.909161,0.186132,-0.863282,0.336627,-0.00396371,-0.0232756,-0.00716373,0.0157938,1.16305,5,0.1,25,1.1,-2.7635,-3.02064,0.560531,0.865827,0.589716,0.0252847,-0.00795722,0.127941,0.00548363,0.0117887,1.85426,5,0.1,26,1.1,0.535676,2.18793,0.592349,-0.238754,-0.836923,4.96395e-05,1.06874,0.156417,-0.0199042,0.0274586,2.59866,5,0.1,27,1.1,1.68697,-2.7077,0.501324,-0.624672,0.244219,-0.00856332,0.0644922,-0.0252724,0.0363961,0.0215274,0.347771,5,0.1,28,1.1,0.0854664,1.95032,0.605529,0.724698,-0.235579,6.87316e-05,-0.936075,-0.420205,0.0234544,0.011524,2.92762,5,0.1,29,1.1,1.12877,4.60293,0.859148,-0.181591,-0.0213765,0.196958,0.0187159,0.102669,-0.500776,0.0190466,0.221782,5,0.1
0,1.2,0.900609,2.35018,0.583674,-0.762244,0.861782,0.00930727,-0.0147521,-0.084877,-8.9407e-05,0.0109508,1.94551,5,0.1,1,1.2,-1.56515,-0.986339,0.638848,-0.296625,-0.866027,-0.0260934,-0.0690818,2.98023e-05,0.00372529,0.0119341,2.04479,5,0.1,2,1.2,3.79863,-4.62943,0.580549,-0.167298,0.488114,0.0163794,0.0627041,-0.183344,-0.00616908,0.0146253,0.142244,5,0.1,3,1.2,0.0630017,2.55591,0.629388,-0.243655,-0.866026,-0.00881255,0.0035131,0,0.000149012,0.0237069,2.23357,5,0.1,4,1.2,-4.25804,2.5688,0.616735,0.253177,-0.0158012,-0.0140935,0.422001,0.00584126,0.00533462,0.0107861,1.42942,5,0.1,5,1.2,1.08582,-3.51057,0.613986,-0.282875,-0.328028,-0.0117764,0.106335,0.123143,0.00444055,0.0133676,0.170093,5,0.1,6,1.2,-1.33689,4.61231,0.949608,-0.0110477,-0.726306,0.337248,0.00411272,0.272989,-0.12669,0.0159845,0.342449,5,0.1,7,1.2,2.13173,-0.743664,0.583199,-0.015837,-0.312276,0.0141591,-0.0214577,-0.943422,-0.00530481,0.00940281,1.51697,5,0.1,8,1.2,-1.83771,-4.10238,0.629868,-0.236112,0.31718,-0.0268757,-0.0231266,0.0309944,-0.00265241,0.0112329,0.112322,5,0.1,9,1.2,5.06445,1.84544,0.612087,-0.866032,0.0745982,-0.00591129,0.000238419,-0.00107288,8.9407e-05,0.00879717,2.26827,5,0.1,10,1.2,1.70407,1.6968,0.578135,-0.439531,-0.165746,0.0184193,0.0543594,0.0622869,-0.00691414,0.0101885,0.339731,5,0.1,11,1.2,3.69308,-5.33288,0.500942,-0.0784039,0.390208,-0.00707805,0.0294447,0.584364,0.035733,0.0102045,1.01312,5,0.1,12,1.2,-1.65818,-0.0780136,0.501775,0.860673,0.187342,-0.0113025,-0.10705,-0.0603834,0.0472963,0.0109973,0.871405,5,0.1,13,1.2,2.93779,-2.1778,0.647189,0.864303,-0.0641882,-0.0384852,-0.0343323,0.0143051,0.00849366,0.00983632,1.17448,5,0.1,14,1.2,-3.51402,2.03137,0.60581,-0.251734,-0.276434,-0.00905842,0.094533,0.103831,0.00342727,0.0104751,0.126726,5,0.1,15,1.2,0.0112187,1.00165,0.698769,-0.129146,0.866026,0.0212565,0.00286102,0,-0.000476837,0.0135966,2.26089,5,0.1,16,1.2,3.6,-3.86573,0.622615,-0.227976,0.61298,-0.00945181,-0.251651,0.0276566,-0.000417233,0.0516767,2.66522,5,0.1,17,1.2,0.675464,-2.32475,0.635384,-0.185564,0.483251,-0.0080809,0.0135601,1.11473,0,0.0333039,2.55343,5,0.1,18,1.2,2.07725,-2.92632,0.714703,-0.859374,-0.612915,0.029777,0.133276,0.0882149,-0.0101328,0.0129528,1.08157,5,0.1,19,1.2,4.45938,0.565863,0.616619,-0.218403,-0.35028,-0.0139922,0.082016,0.131577,0.00524521,0.00879023,0.154599,5,0.1,20,1.2,-2.51632,4.36168,0.706253,0.866026,-0.302589,0.0216484,0,0.00619888,-0.000447035,0.0395003,2.21345,5,0.1,21,1.2,-3.95165,-2.02306,0.631937,0.675273,0.157881,-0.0269026,-0.253558,-0.722408,0.0101328,0.0272287,1.80922,5,0.1,22,1.2,-1.05755,5.44522,0.711689,-0.865677,-0.540686,0.0600547,0.00697374,0.00309944,-0.000357628,0.0228832,2.0896,5,0.1,23,1.2,-3.25541,-5.72092,0.560809,0.305319,-0.116181,0.0352845,-1.07253,-0.0112057,0.00345707,0.0142048,0.277313,5,0.1,24,1.2,-2.92522,5.04635,0.942654,0.183386,-0.859714,0.33166,-0.0557899,0.126362,-0.100881,0.0166376,0.835791,5,0.1,25,1.2,-2.67702,-2.96124,0.563077,0.862849,0.59554,0.0255346,-0.0636578,-0.033617,-0.00146031,0.0139127,1.37509,5,0.1,26,1.2,0.517278,2.10517,0.59225,-0.128853,-0.816,-0.00202507,1.09208,0.291109,-0.0205934,0.0243848,2.67993,5,0.1,27,1.2,1.62506,-2.6835,0.500639,-0.61073,0.238764,-0.00524968,0.229478,-0.0897646,0.0295043,0.0234722,0.232096,5,0.1,28,1.2,0.152902,1.92478,0.605662,0.621007,-0.273681,0.00263304,-1.11719,-0.320971,0.0263155,0.0118559,3.34188,5,0.1,29,1.2,1.11077,4.60127,0.876441,-0.177538,-0.0121832,0.15033,0.066638,0.0803471,-0.416249,0.0158293,0.199079,5,0.1
0,1.3,0.824072,2.43628,0.584607,-0.769703,0.862179,0.00937255,-0.0884719,0.0406951,0.00083819,0.0109508,1.94551,5,0.1,1,1.3,-1.59523,-1.07294,0.636252,-0.3052,-0.866026,-0.0258351,-0.0839457,3.72529e-06,0.00268221,0.0119341,2.04479,5,0.1,2,1.3,3.78221,-4.58151,0.582156,-0.161097,0.469989,0.0157699,0.0665337,-0.194371,-0.00652671,0.0146253,0.142244,5,0.1,3,1.3,0.0385844,2.46931,0.628505,-0.245024,-0.866026,-0.00886004,-0.0168926,0,-0.000596046,0.0237069,2.23357,5,0.1,4,1.3,-4.23091,2.56724,0.615351,0.2886,-0.015223,-0.013567,0.361651,0.00622869,0.00562891,0.0107861,1.42942,5,0.1,5,1.3,1.05789,-3.54296,0.612823,-0.277093,-0.321336,-0.0115349,0.0287592,0.0332743,0.00119582,0.0133676,0.170093,5,0.1,6,1.3,-1.33797,4.54102,0.982713,-0.0106404,-0.699326,0.324724,0.00437349,0.289232,-0.134263,0.0159845,0.342449,5,0.1,7,1.3,2.1302,-0.780034,0.584589,-0.0133391,-0.417632,0.0136341,0.0624508,-1.09563,-0.00563636,0.00940281,1.51697,5,0.1,8,1.3,-1.86146,-4.07047,0.627164,-0.238915,0.320943,-0.0271969,-0.0210032,0.0282228,-0.00241026,0.0112329,0.112322,5,0.1,9,1.3,4.97784,1.85291,0.611495,-0.866023,0.0750219,-0.00594435,-2.98023e-05,0.00525266,-0.000413507,0.00879717,2.26827,5,0.1,10,1.3,1.66016,1.68053,0.579943,-0.44027,-0.15959,0.0177355,-0.0386164,0.0659823,-0.00733137,0.0101885,0.339731,5,0.1,11,1.3,3.68538,-5.2906,0.500399,-0.075493,0.457408,-0.00394396,0.031203,0.704825,0.0267327,0.0102045,1.01312,5,0.1,12,1.3,-1.57242,-0.0595751,0.500868,0.855664,0.181335,-0.00699088,-0.0386909,-0.0657793,0.0384524,0.0109973,0.871405,5,0.1,13,1.3,3.02421,-2.18415,0.643382,0.864716,-0.0627622,-0.0376374,0.00843406,0.0164807,0.00981241,0.00983632,1.17448,5,0.1,14,1.3,-3.53888,2.00407,0.604916,-0.246597,-0.270792,-0.00887159,0.0255406,0.0280514,0.000938773,0.0104751,0.126726,5,0.1,15,1.3,-0.00171644,1.08825,0.700898,-0.129718,0.866026,0.0213505,-0.00704125,0,0.00115857,0.0135966,2.26089,5,0.1,16,1.3,3.57475,-3.80402,0.621663,-0.286577,0.622827,-0.00960315,-0.828311,0.126749,-0.00194833,0.0516767,2.66522,5,0.1,17,1.3,0.656915,-2.27031,0.634576,-0.18573,0.608651,-0.00806767,-0.00608712,1.30603,0.000573695,0.0333039,2.55343,5,0.1,18,1.3,1.99176,-2.98719,0.71763,-0.851444,-0.604153,0.0287523,0.0693128,0.110179,-0.011269,0.0129528,1.08157,5,0.1,19,1.3,4.43781,0.531272,0.615237,-0.213951,-0.343129,-0.0137079,0.0221133,0.0355523,0.00141189,0.00879023,0.154599,5,0.1,20,1.3,-2.42972,4.33137,0.708421,0.866026,-0.303977,0.0217471,0,-0.0168979,0.00119954,0.0395003,2.21345,5,0.1,21,1.3,-3.88536,-2.01072,0.629296,0.650204,0.0909835,-0.0259015,-0.268817,-0.600368,0.0107251,0.0272287,1.80922,5,0.1,22,1.3,-1.14412,5.39101,0.717711,-0.865819,-0.544389,0.0604651,-0.00394881,-0.0454783,0.00504777,0.0228832,2.0896,5,0.1,23,1.3,-3.23004,-5.73255,0.564341,0.204432,-0.115911,0.0352063,-0.931635,0.0188053,-0.00567362,0.0142048,0.277313,5,0.1,24,1.3,-2.90716,4.96083,0.975326,0.177827,-0.851395,0.321608,-0.0613779,0.0818074,-0.110988,0.0166376,0.835791,5,0.1,25,1.3,-2.59079,-2.90181,0.565626,0.86323,0.592922,0.0254208,0.0244975,-0.0444502,-0.00192225,0.0139127,1.37509,5,0.1,26,1.3,0.509456,2.02447,0.591945,-0.0318373,-0.802009,-0.00404231,0.837475,0.04711,-0.018917,0.0243848,2.67993,5,0.1,27,1.3,1.56511,-2.66006,0.500247,-0.588046,0.229893,-0.0027285,0.243172,-0.0950843,0.0208579,0.0234722,0.232096,5,0.1,28,1.3,0.209314,1.89661,0.606076,0.506608,-0.282291,0.00579031,-1.15463,0.118449,0.0346936,0.0118559,3.34188,5,0.1,29,1.3,1.09334,4.60041,0.889565,-0.17095,-0.00555292,0.114576,0.0706539,0.0524819,-0.273351,0.0158293,0.199079,5,0.1
0,1.4,0.746846,2.52256,0.585546,-0.772111,0.861084,0.00938028,0.0726581,-0.0988245,-0.00107288,0.0117766,1.53116,5,0.1,1,1.4,-1.62607,-1.15954,0.633688,-0.310281,-0.866026,-0.0253484,-0.00488758,0,0.00789762,0.00994282,1.58787,5,0.1,2,1.4,3.76647,-4.5356,0.583697,-0.153136,0.446725,0.0149891,0.0963211,-0.281096,-0.00944734,0.015999,0.159447,5,0.1,3,1.4,0.0140577,2.38271,0.627618,-0.244653,-0.866026,-0.00884533,0.0341275,0,0.0012517,0.0292339,2.31148,5,0.1,4,1.4,-4.2,2.56576,0.614026,0.331843,-0.014478,-0.012894,0.491381,0.00917912,0.00813603,0.0125374,0.908624,5,0.1,5,1.4,1.03033,-3.57493,0.611676,-0.273764,-0.31749,-0.0113964,0.0517964,0.0602007,0.00214577,0.00996916,0.099574,5,0.1,6,1.4,-1.33901,4.47271,1.01443,-0.0101149,-0.664699,0.308654,0.0063777,0.417709,-0.194132,0.0155398,0.225414,5,0.1,7,1.4,2.12925,-0.827066,0.585921,-0.00495315,-0.519653,0.0129595,0.0983477,-0.895292,-0.00813603,0.00966827,1.17265,5,0.1,8,1.4,-1.88538,-4.03835,0.624442,-0.238308,0.320125,-0.0271305,0.041306,-0.0553131,0.00470877,0.00929145,0.0650451,5,0.1,9,1.4,4.89124,1.86042,0.610899,-0.866032,0.0749201,-0.00593513,0.000238419,-0.0104308,0.000804663,0.00934574,2.26833,5,0.1,10,1.4,1.61599,1.66494,0.581675,-0.44201,-0.151691,0.0168592,0.0256896,0.0953078,-0.0106394,0.0113414,0.248882,5,0.1,11,1.4,3.67801,-5.2415,0.500122,-0.071758,0.521743,-0.00175089,0.0450611,0.542402,0.0172257,0.00914825,0.771447,5,0.1,12,1.4,-1.48724,-0.0418194,0.500343,0.845194,0.173183,-0.00368059,-0.202417,-0.101268,0.0276268,0.0143339,0.618879,5,0.1,13,1.4,3.11058,-2.19033,0.639679,0.860798,-0.0605166,-0.0362962,-0.104547,0.0300407,0.0179112,0.0123363,0.86587,5,0.1,14,1.4,-3.56341,1.97713,0.604033,-0.243646,-0.267547,-0.00876486,0.0462532,0.0506639,0.00169873,0.00844619,0.0741882,5,0.1,15,1.4,-0.0146911,1.17486,0.703034,-0.129318,0.866026,0.0212848,0.0201195,0,-0.00333786,0.0169847,2.34762,5,0.1,16,1.4,3.54162,-3.74122,0.620695,-0.377434,0.631058,-0.00973046,-0.918865,0.00739098,-0.000119209,0.06382,2.44214,5,0.1,17,1.4,0.638352,-2.20319,0.633775,-0.184946,0.7294,-0.00791401,0.0293553,1.04582,0.00271201,0.0389429,2.33107,5,0.1,18,1.4,1.90715,-3.04687,0.720441,-0.838044,-0.58701,0.0273749,0.229359,0.248194,-0.0169277,0.0114346,0.889137,5,0.1,19,1.4,4.41653,0.49714,0.613874,-0.211406,-0.339015,-0.0135452,0.0402927,0.0641495,0.002563,0.0105075,0.0914851,5,0.1,20,1.4,-2.34312,4.30096,0.710596,0.866026,-0.303078,0.0216827,0,0.0469685,-0.00339746,0.0400865,2.21514,5,0.1,21,1.4,-3.82185,-2.00432,0.626766,0.618029,0.0400901,-0.0246182,-0.388741,-0.409722,0.0154972,0.0275769,2.49449,5,0.1,22,1.4,-1.23071,5.33647,0.723768,-0.865865,-0.544393,0.0604659,0.00333786,0.0674725,-0.00748038,0.0218042,2.09089,5,0.1,23,1.4,-3.21394,-5.74399,0.567814,0.121105,-0.112104,0.0340492,-0.727534,0.0591278,-0.0178516,0.0129352,0.265515,5,0.1,24,1.4,-2.88973,4.8763,1.00684,0.170112,-0.836277,0.307661,-0.0967979,0.249863,-0.175118,0.0142374,0.583623,5,0.1,25,1.4,-2.50451,-2.84293,0.56815,0.859922,0.582337,0.0249669,-0.121951,-0.184655,-0.00795722,0.0129704,0.985184,5,0.1,26,1.4,0.509972,1.9445,0.591455,0.0371635,-0.796491,-0.00567138,0.538498,0.105679,-0.0131428,0.00778999,0.796633,5,0.1,27,1.4,1.50767,-2.63761,0.500064,-0.55894,0.218511,-0.0010699,0.351489,-0.137329,0.0124276,0.0199339,0.153621,5,0.1,28,1.4,0.254252,1.86949,0.606828,0.392972,-0.255573,0.00919849,-1.10535,0.39041,0.0318885,0.0124154,3.46003,5,0.1,29,1.4,1.07665,4.60007,0.9,-0.162491,-0.00158548,0.0974685,0.102162,0.027895,-0.0762343,0.0148338,0.306097,5,0.1
0,1.5,0.669832,2.60842,0.586481,-0.768813,0.857273,0.00932273,0.0323728,-0.0240505,-0.000551343,0.0117766,1.53116,5,0.1,1,1.5,-1.65716,-1.24614,0.63119,-0.311424,-0.865885,-0.024641,-0.00324845,0.00561029,0.00724569,0.00994282,1.58787,5,0.1,2,1.5,3.75154,-4.49205,0.585158,-0.146227,0.426561,0.0143119,0.0513494,-0.149876,-0.00502542,0.015999,0.159447,5,0.1,3,1.5,-0.010374,2.29628,0.626683,-0.244905,-0.860257,-0.0103234,-0.0217915,0.139117,-0.0269152,0.0292339,2.31148,5,0.1,4,1.5,-4.16395,2.56435,0.612776,0.391784,-0.0136048,-0.0121186,0.653565,0.00870228,0.00774115,0.0125374,0.908624,5,0.1,5,1.5,1.00316,-3.60643,0.610545,-0.269734,-0.312805,-0.01123,0.0413731,0.0480711,0.00170991,0.00996916,0.099574,5,0.1,6,1.5,-1.33999,4.40824,1.04436,-0.00950694,-0.624853,0.290137,0.00607967,0.398099,-0.184976,0.0155398,0.225414,5,0.1,7,1.5,2.12931,-0.883576,0.587177,0.00656061,-0.609878,0.0121829,0.125244,-0.856876,-0.00775978,0.00966827,1.17265,5,0.1,8,1.5,-1.9088,-4.00663,0.621754,-0.22812,0.313737,-0.0265877,0.157818,-0.0824034,0.00699237,0.00929145,0.0650451,5,0.1,9,1.5,4.80464,1.86789,0.610308,-0.866023,0.0745419,-0.00590682,-2.98023e-05,-0.00143051,0.000104308,0.00934574,2.26833,5,0.1,10,1.5,1.5718,1.65023,0.58331,-0.442285,-0.1426,0.0158449,-0.0070259,0.0908375,-0.0101216,0.0113414,0.248882,5,0.1,11,1.5,3.67105,-5.18654,0.500018,-0.0674594,0.577307,-0.000472181,0.04296,0.526398,0.00885129,0.00914825,0.771447,5,0.1,12,1.5,-1.40359,-0.0249884,0.500094,0.828292,0.163499,-0.00149086,-0.172198,-0.0974345,0.0165328,0.0143339,0.618879,5,0.1,13,1.5,3.19637,-2.19623,0.636135,0.856244,-0.0576407,-0.0345801,-0.0326186,0.0293553,0.0175349,0.0123363,0.86587,5,0.1,14,1.5,-3.58759,1.95058,0.603164,-0.240048,-0.263606,-0.00863271,0.0369102,0.0404567,0.00134483,0.00844619,0.0741882,5,0.1,15,1.5,-0.0275074,1.26126,0.705209,-0.126765,0.859644,0.0227373,0.0345575,-0.150017,0.0276268,0.0169847,2.34762,5,0.1,16,1.5,3.4987,-3.67798,0.61972,-0.484861,0.634075,-0.00977786,-1.14958,0.0209957,-0.000331551,0.06382,2.44214,5,0.1,17,1.5,0.619938,-2.12565,0.632996,-0.183728,0.814569,-0.00768639,0.00567734,0.639841,0.00218302,0.0389429,2.33107,5,0.1,18,1.5,1.82435,-3.10454,0.723097,-0.818441,-0.567667,0.0257495,0.198096,0.167623,-0.0163428,0.0114346,0.889137,5,0.1,19,1.5,4.39564,0.463498,0.61253,-0.205766,-0.334024,-0.0133461,0.0766814,0.0512358,0.00204518,0.0105075,0.0914851,5,0.1,20,1.5,-2.25652,4.27079,0.712755,0.866026,-0.30085,0.0215202,0,0.0143647,-0.00105426,0.0400865,2.21514,5,0.1,21,1.5,-3.76192,-2.00226,0.624379,0.580947,0.0033699,-0.0231404,-0.370428,-0.280052,0.0147596,0.0275769,2.49449,5,0.1,22,1.5,-1.3173,5.28218,0.729799,-0.865927,-0.54262,0.0602704,-0.00176579,-0.000178814,3.35276e-05,0.0218042,2.09089,5,0.1,23,1.5,-3.20507,-5.75493,0.57114,0.0600521,-0.107085,0.0325322,-0.494465,0.0461042,-0.0139624,0.0129352,0.265515,5,0.1,24,1.5,-2.87318,4.7938,1.03677,0.160849,-0.814226,0.290906,-0.0934452,0.224948,-0.169031,0.0142374,0.583623,5,0.1,25,1.5,-2.41894,-2.78557,0.570609,0.852185,0.564918,0.0242167,-0.0751019,-0.1847,-0.00794604,0.0129704,0.985184,5,0.1,26,1.5,0.516772,1.86705,0.59079,0.101667,-0.737859,-0.00788877,0.708625,0.989936,-0.0285096,0.00778999,0.796633,5,0.1,27,1.5,1.45347,-2.61641,0.500008,-0.525412,0.205411,-0.000170525,0.334926,-0.130877,0.00597164,0.0199339,0.153621,5,0.1,28,1.5,0.288164,1.84648,0.607913,0.288255,-0.200068,0.0125009,-0.930387,0.671007,0.0312962,0.0124154,3.46003,5,0.1,29,1.5,1.06096,4.60002,0.910079,-0.150712,0.00025481,0.110048,0.133611,0.010252,0.280935,0.0148338,0.306097,5,0.1
0,1.6,0.593308,2.69383,0.587408,-0.759016,0.848335,0.00919104,0.190705,-0.187278,-0.00244379,0.00996062,1.08622,5,0.1,1,1.6,-1.68821,-1.33266,0.628767,-0.308457,-0.863779,-0.0237316,0.0726581,0.0448227,0.0116527,0.0103683,1.59648,5,0.1,2,1.6,3.73716,-4.45011,0.586565,-0.141227,0.411963,0.0138223,0.0555515,-0.162125,-0.00542402,0.0215328,0.0923885,5,0.1,3,1.6,-0.0349489,2.21133,0.625496,-0.246024,-0.834364,-0.0135392,0.0119153,0.393391,-0.0344515,0.0172855,2.6678,5,0.1,4,1.6,-4.1216,2.56304,0.611604,0.453246,-0.012666,-0.0112861,0.536203,0.0103712,0.00920892,0.0121106,0.496028,5,0.1,5,1.6,0.97646,-3.63739,0.609433,-0.263369,-0.305414,-0.0109658,0.0946224,0.109673,0.00393391,0.00844135,0.881978,5,0.1,6,1.6,-1.34091,4.34784,1.07241,-0.00885129,-0.58192,0.270197,0.00721216,0.473022,-0.219822,0.0155857,0.148154,5,0.1,7,1.6,2.13059,-0.948433,0.588355,0.0189245,-0.682153,0.0113457,0.117064,-0.552267,-0.00923872,0.00886545,0.857235,5,0.1,8,1.6,-1.93066,-3.97578,0.619139,-0.207663,0.302011,-0.0255942,0.246644,-0.158429,0.0134408,0.00929872,0.146789,5,0.1,9,1.6,4.71804,1.87532,0.609719,-0.866032,0.0738978,-0.00585616,0.000238419,-0.0144243,0.00110269,0.00979128,2.4119,5,0.1,10,1.6,1.52765,1.63645,0.584842,-0.439313,-0.132805,0.0147536,0.0833273,0.108004,-0.0120103,0.0101951,0.176645,5,0.1,11,1.6,3.66453,-5.12649,0.500005,-0.0628233,0.619841,0.000111759,0.0510216,0.294685,0.00327826,0.0106128,0.55885,5,0.1,12,1.6,-1.32181,-0.00915268,0.500012,0.804579,0.152855,-0.000295043,-0.327229,-0.118817,0.00783801,0.0134512,0.428922,5,0.1,13,1.6,3.28165,-2.20184,0.632772,0.846446,-0.0543356,-0.0326023,-0.195861,0.0380278,0.022769,0.00827273,0.616074,5,0.1,14,1.6,-3.61135,1.92449,0.602309,-0.234371,-0.257382,-0.0084281,0.0841618,0.0923872,0.00303984,0.00846403,0.0560511,5,0.1,15,1.6,-0.0399634,1.34608,0.70764,-0.121818,0.83243,0.0259742,0.0666511,-0.407815,0.0334382,0.0156413,2.78454,5,0.1,16,1.6,3.44463,-3.61466,0.618743,-0.593489,0.629866,-0.00971258,-0.964284,-0.127435,0.00193715,0.0555534,2.21554,5,0.1,17,1.6,0.601626,-2.04174,0.632239,-0.181988,0.856155,-0.0074178,0.0367165,0.197351,0.00336766,0.0353283,2.25562,5,0.1,18,1.6,1.74369,-3.1604,0.725586,-0.792453,-0.548542,0.0239804,0.346005,0.235319,-0.0195801,0.0119865,0.621171,5,0.1,19,1.6,4.37553,0.430435,0.611209,-0.19542,-0.32614,-0.0130311,0.132561,0.117138,0.00464916,0.00795533,0.0832504,5,0.1,20,1.6,-2.16991,4.24084,0.714897,0.866026,-0.297356,0.0212684,0,0.0674725,-0.00488758,0.036425,2.22279,5,0.1,21,1.6,-3.70576,-2.00285,0.622142,0.541013,-0.00987053,-0.0215501,-0.440121,0.0312328,0.0175536,0.0325945,2.27726,5,0.1,22,1.6,-1.40389,5.22802,0.735815,-0.865912,-0.538981,0.0598669,0.00214577,0.0953674,-0.01055,0.0227166,2.09528,5,0.1,23,1.6,-3.20117,-5.7654,0.57432,0.0215828,-0.102055,0.0310063,-0.280023,0.0579357,-0.0175834,0.0118782,0.50679,5,0.1,24,1.6,-2.85759,4.71368,1.06496,0.150585,-0.785601,0.272346,-0.114918,0.370741,-0.20808,0.0135224,0.399254,5,0.1,25,1.6,-2.33431,-2.73014,0.572985,0.837743,0.54189,0.0232279,-0.243187,-0.289917,-0.0124276,0.0101426,0.716784,5,0.1,26,1.6,0.530472,1.79914,0.589851,0.171399,-0.612518,-0.0109017,0.654072,1.45382,-0.0297129,0.0104643,0.278702,5,0.1,27,1.6,1.40268,-2.59656,0.500013,-0.489303,0.191301,0.000198185,0.39798,-0.155568,0.00172853,0.0200561,0.101824,5,0.1,28,1.6,0.312976,1.82997,0.609301,0.215015,-0.129613,0.0150114,-0.511825,0.704348,0.0173151,0.0125125,3.38652,5,0.1,29,1.6,1.04661,4.60008,0.92276,-0.135785,0.000715256,0.145353,0.164628,0,0.38901,0.017702,0.221866,5,0.1
0,1.7,0.518249,2.77788,0.588316,-0.742458,0.833048,0.00897888,0.171929,-0.155881,-0.00218302,0.00996062,1.08622,5,0.1,1,1.7,-1.71888,-1.41901,0.626449,-0.306192,-0.86424,-0.0226529,-0.00555813,-0.0230074,0.0107363,0.0103683,1.59648,5,0.1,2,1.7,3.72328,-4.40962,0.587924,-0.136545,0.398301,0.0133656,0.0442564,-0.129133,-0.00432134,0.0215328,0.0923885,5,0.1,3,1.7,-0.0600591,2.13047,0.623762,-0.260696,-0.777246,-0.0228542,-0.260112,0.73199,-0.137124,0.0172855,2.6678,5,0.1,4,1.7,-4.07364,2.56182,0.61052,0.50474,-0.0116955,-0.0104235,0.461966,0.00940263,0.0083521,0.0121106,0.496028,5,0.1,5,1.7,0.950033,-3.66733,0.608302,-0.269674,-0.292605,-0.012101,-0.177611,0.151768,-0.0228994,0.00844135,0.881978,5,0.1,6,1.7,-1.34176,4.2919,1.09838,-0.00817534,-0.537574,0.249591,0.00654906,0.429779,-0.199668,0.0155857,0.148154,5,0.1,7,1.7,2.13308,-1.01936,0.589446,0.0308454,-0.734886,0.0104796,0.116289,-0.461336,-0.0083968,0.00886545,0.857235,5,0.1,8,1.7,-1.95004,-3.94639,0.616649,-0.178607,0.285403,-0.024186,0.325702,-0.179738,0.0152327,0.00929872,0.146789,5,0.1,9,1.7,4.63205,1.88261,0.609137,-0.847767,0.0716414,-0.00578444,0.350833,-0.0315607,0.000633299,0.00979128,2.4119,5,0.1,10,1.7,1.48406,1.62368,0.58626,-0.432559,-0.122681,0.013628,0.0711158,0.0981167,-0.0109039,0.0101951,0.176645,5,0.1,11,1.7,3.65849,-5.06303,0.500027,-0.0580385,0.648344,0.000292994,0.0463724,0.241816,0.000566244,0.0106128,0.55885,5,0.1,12,1.7,-1.24287,0.00556648,0.500012,0.774713,0.141696,0.000222307,-0.299878,-0.108598,0.00286475,0.0134512,0.428922,5,0.1,13,1.7,3.36546,-2.20709,0.62962,0.830266,-0.0507556,-0.0304583,-0.164732,0.0351369,0.0210516,0.00827273,0.616074,5,0.1,14,1.7,-3.63443,1.89914,0.601479,-0.227712,-0.250071,-0.00818791,0.0606924,0.0666529,0.00218675,0.00846403,0.0560511,5,0.1,15,1.7,-0.0513274,1.42654,0.710641,-0.101323,0.769829,0.0359752,0.315528,-0.817709,0.149611,0.0156413,2.78454,5,0.1,16,1.7,3.38026,-3.55204,0.617777,-0.69407,0.624287,-0.00962913,-0.981987,-0.0225604,0.000327826,0.0555534,2.21554,5,0.1,17,1.7,0.583539,-1.95552,0.631512,-0.180204,0.865408,-0.00715367,0.00965968,0.0246912,0.00227988,0.0353283,2.25562,5,0.1,18,1.7,1.66605,-3.21422,0.727891,-0.760797,-0.528492,0.0221395,0.315964,0.188977,-0.0178777,0.0119865,0.621171,5,0.1,19,1.7,4.35683,0.398311,0.609925,-0.177012,-0.31687,-0.0126632,0.228822,0.0845063,0.00336021,0.00795533,0.0832504,5,0.1,20,1.7,-2.08331,4.21133,0.716936,0.865885,-0.293522,0.0189426,-0.00562519,0.0260472,-0.0382848,0.036425,2.22279,5,0.1,21,1.7,-3.65375,-2.00329,0.62007,0.499756,0.00671633,-0.0199052,-0.399843,0.365332,0.0159368,0.0325945,2.27726,5,0.1,22,1.7,-1.49048,5.17438,0.741772,-0.865963,-0.534958,0.0594239,-0.00135601,0.0170469,-0.00185892,0.0227166,2.09528,5,0.1,23,1.7,-3.20015,-5.77533,0.577336,0.00137128,-0.0965424,0.0293318,-0.132963,0.0554621,-0.0168458,0.0118782,0.50679,5,0.1,24,1.7,-2.84308,4.63686,1.09121,0.139783,-0.751407,0.252791,-0.105321,0.34076,-0.190586,0.0135224,0.399254,5,0.1,25,1.7,-2.25162,-2.67786,0.575249,0.81639,0.499351,0.0220579,-0.217989,-0.543728,-0.0117086,0.0101426,0.716784,5,0.1,26,1.7,0.550957,1.74502,0.588574,0.238239,-0.471569,-0.0149121,0.650942,1.35393,-0.0467338,0.0104643,0.278702,5,0.1,27,1.7,1.35564,-2.57817,0.500037,-0.451996,0.176718,0.000270735,0.361539,-0.141323,-0.000122935,0.0200561,0.101824,5,0.1,28,1.7,0.333352,1.82081,0.610871,0.204714,-0.051678,0.0162301,0.222368,0.820458,0.00700727,0.0125125,3.38652,5,0.1,29,1.7,1.03394,4.60015,0.939452,-0.116882,0.000666827,0.189812,0.208527,-0.00104308,0.468858,0.017702,0.221866,5,0.1
0,1.8,0.445042,2.86021,0.589201,-0.719327,0.810838,0.00869036,0.312253,-0.313997,-0.0038445,0.0119856,0.751211,5,0.1,1,1.8,-1.74951,-1.50547,0.624241,-0.305817,-0.864005,-0.0214458,0.0288486,0.0404716,0.0139475,0.0090382,0.867548,5,0.1,2,1.8,3.70987,-4.37051,0.589237,-0.131327,0.383091,0.0128567,0.0642538,-0.187874,-0.00625849,0.0144387,0.108707,5,0.1,3,1.8,-0.087572,2.05685,0.620721,-0.290107,-0.691265,-0.0383601,-0.293967,0.971794,-0.161648,0.022902,2.71388,5,0.1,4,1.8,-4.02119,2.5607,0.60952,0.540334,-0.0107348,-0.00956357,0.228286,0.010252,0.0090301,0.015798,0.522471,5,0.1,5,1.8,0.92202,-3.69573,0.606959,-0.291322,-0.274235,-0.0148863,-0.222832,0.21863,-0.0299513,0.00705116,0.777257,5,0.1,6,1.8,-1.34255,4.24033,1.12233,-0.00749826,-0.493288,0.229022,0.00703335,0.466824,-0.216842,0.0140683,0.0977559,5,0.1,7,1.8,2.13671,-1.09473,0.590451,0.0413299,-0.767547,0.00961423,0.0895262,-0.164211,-0.00908971,0.0113058,0.59851,5,0.1,8,1.8,-1.9662,-3.91882,0.614313,-0.144127,0.265092,-0.022465,0.356734,-0.230193,0.0195205,0.00852903,0.201092,5,0.1,9,1.8,4.54952,1.88959,0.608563,-0.798452,0.0674665,-0.00567883,0.623465,-0.0523329,0.00166893,0.0122254,2.69414,5,0.1,10,1.8,1.44127,1.61191,0.587567,-0.421819,-0.112572,0.0125036,0.156879,0.106514,-0.0118017,0.014018,0.1222,5,0.1,11,1.8,3.65292,-4.9973,0.500056,-0.0532568,0.662601,0.000263751,0.0503063,0.0202656,-0.000983477,0.00891814,0.389104,5,0.1,12,1.8,-1.16705,0.0191819,0.500043,0.739595,0.130425,0.000341237,-0.422776,-0.119697,-0.000178814,0.0102854,0.332153,5,0.1,13,1.8,3.44746,-2.21199,0.626683,0.807256,-0.0470459,-0.0282347,-0.320911,0.0401735,0.0240803,0.0127374,0.427128,5,0.1,14,1.8,-3.65686,1.87451,0.600673,-0.220257,-0.241888,-0.00791997,0.0964403,0.105977,0.00345707,0.00825906,0.0249841,5,0.1,15,1.8,-0.0596604,1.49894,0.715063,-0.0636837,0.673872,0.0528991,0.41528,-1.07801,0.175893,0.0130298,2.9268,5,0.1,16,1.8,3.30636,-3.4898,0.616818,-0.778741,0.61878,-0.00954568,-0.665426,-0.115037,0.00172853,0.0475752,2.08702,5,0.1,17,1.8,0.565594,-1.86893,0.630808,-0.178228,0.866026,-0.00689924,0.0374615,-5.96046e-05,0.00306964,0.0291737,2.25174,5,0.1,18,1.8,1.59169,-3.26604,0.730014,-0.724405,-0.506788,0.0202969,0.431478,0.261188,-0.0194013,0.00980805,0.426119,5,0.1,19,1.8,4.34038,0.367101,0.608678,-0.150931,-0.306495,-0.0122517,0.287056,0.13423,0.00539422,0.00823449,0.143053,5,0.1,20,1.8,-1.9968,4.18215,0.718606,0.863773,-0.289261,0.0142142,-0.0449419,0.0708103,-0.0536442,0.0301808,2.00718,5,0.1,21,1.8,-3.60581,-2,0.618161,0.458568,0.0665486,-0.0182644,-0.43416,0.800133,0.0173151,0.030841,1.94834,5,0.1,22,1.8,-1.57708,5.12106,0.747696,-0.866017,-0.530124,0.0588879,0.000238419,0.102758,-0.0113547,0.0222258,2.10049,5,0.1,23,1.8,-3.20049,-5.78469,0.58018,-0.006634,-0.090456,0.0274807,-0.0344515,0.0684261,-0.020802,0.0108919,0.419051,5,0.1,24,1.8,-2.82964,4.56356,1.11551,0.128824,-0.7128,0.232953,-0.116944,0.449896,-0.211239,0.0136496,0.269628,5,0.1,25,1.8,-2.17126,-2.63095,0.577392,0.788397,0.436348,0.0207603,-0.365376,-0.701427,-0.0147223,0.0122042,0.533996,5,0.1,26,1.8,0.577817,1.70439,0.586847,0.296162,-0.343674,-0.019595,0.485122,1.19579,-0.0440478,0.00631224,0.203393,5,0.1,27,1.8,1.31228,-2.56121,0.500062,-0.414747,0.16216,0.000201166,0.392556,-0.153422,-0.00107288,0.0197443,0.117457,5,0.1,28,1.8,0.35558,1.8197,0.612512,0.244637,0.0285536,0.0164151,0.51105,0.758767,-0.00330806,0.0142198,3.10011,5,0.1,29,1.8,1.02333,4.60021,0.960698,-0.094977,0.000524521,0.23372,0.225365,-0.00238419,0.386566,0.0170711,0.156604,5,0.1
0,1.9,0.374568,2.93984,0.590052,-0.69053,0.782275,0.00833636,0.289395,-0.287697,-0.0035502,0.0119856,0.751211,5,0.1,1,1.9,-1.77988,-1.59183,0.622162,-0.300843,-0.863677,-0.0201507,0.077948,0.00954419,0.0126287,0.0090382,0.867548,5,0.1,2,1.9,3.69677,-4.33311,0.590492,-0.132978,0.364825,0.0122475,-0.0756681,-0.188828,-0.00630692,0.0144387,0.108707,5,0.1,3,1.9,-0.118608,1.99159,0.616059,-0.334597,-0.622422,-0.0548438,-0.534866,0.46055,-0.1592,0.022902,2.71388,5,0.1,4,1.9,-3.96591,2.55967,0.608606,0.565388,-0.00978634,-0.00872705,0.237659,0.0090003,0.00795722,0.015798,0.522471,5,0.1,5,1.9,0.891541,-3.7218,0.605299,-0.319746,-0.244828,-0.0184413,-0.312526,0.35648,-0.0383109,0.00705116,0.777257,5,0.1,6,1.9,-1.34326,4.19321,1.1442,-0.00684541,-0.450037,0.208934,0.00622123,0.41163,-0.191145,0.0140683,0.0977559,5,0.1,7,1.9,2.14128,-1.17226,0.591369,0.0499483,-0.781814,0.00877175,0.0789315,-0.0882223,-0.00801682,0.0113058,0.59851,5,0.1,8,1.9,-1.97883,-3.89342,0.61216,-0.108565,0.243191,-0.0206085,0.348806,-0.214472,0.018172,0.00852903,0.201092,5,0.1,9,1.9,4.47362,1.89607,0.608002,-0.713348,0.0622576,-0.00555841,0.988394,-0.0530556,0.00103191,0.0122254,2.69414,5,0.1,10,1.9,1.39982,1.60116,0.588762,-0.407479,-0.102704,0.0114099,0.145681,0.0939071,-0.0104122,0.014018,0.1222,5,0.1,11,1.9,3.64783,-4.93094,0.500077,-0.0485942,0.663895,0.000150874,0.0444055,-0.0214279,-0.0012219,0.00891814,0.389104,5,0.1,12,1.9,-1.09508,0.0318143,0.500074,0.700421,0.123762,0.00026878,-0.385202,-0.0269964,-0.00115484,0.0102854,0.332153,5,0.1,13,1.9,3.5267,-2.2165,0.623973,0.778021,-0.0433091,-0.0259941,-0.293896,0.0358671,0.021521,0.0127374,0.427128,5,0.1,14,1.9,-3.6784,1.85085,0.599898,-0.210331,-0.23098,-0.0075643,0.108019,0.11868,0.00387058,0.00825906,0.0249841,5,0.1,15,1.9,-0.0632337,1.56174,0.721313,-0.00221664,0.589302,0.0725297,0.750944,-0.651136,0.202455,0.0130298,2.9268,5,0.1,16,1.9,3.22547,-3.42825,0.615868,-0.83512,0.613868,-0.00947369,-0.433579,-0.0202805,0.000286847,0.0475752,2.08702,5,0.1,17,1.9,0.547883,-1.78233,0.630131,-0.176449,0.866025,-0.00667572,0.00880659,1.49012e-05,0.00177324,0.0291737,2.25174,5,0.1,18,1.9,1.52128,-3.31552,0.731951,-0.684446,-0.483365,0.0184966,0.391454,0.226259,-0.0171512,0.00980805,0.426119,5,0.1,19,1.9,4.3268,0.337187,0.607482,-0.120369,-0.291042,-0.0116318,0.316739,0.178989,0.00716746,0.00823449,0.143053,5,0.1,20,1.9,-1.91067,4.15351,0.719468,0.857579,-0.283904,0.000619702,-0.110187,0.0500679,-0.198826,0.0301808,2.00718,5,0.1,21,1.9,-3.56201,-1.98841,0.616416,0.418346,0.172467,-0.0166608,-0.382736,1.23207,0.0152513,0.030841,1.94834,5,0.1,22,1.9,-1.66368,5.06834,0.753552,-0.86602,-0.525594,0.0583895,-0.00012666,0.0196695,-0.00215322,0.0222258,2.10049,5,0.1,23,1.9,-3.2013,-5.79338,0.58282,-0.00932105,-0.0831448,0.0252578,-0.014618,0.0784099,-0.023827,0.0108919,0.419051,5,0.1,24,1.9,-2.81731,4.4944,1.1378,0.117966,-0.671058,0.213339,-0.103727,0.407726,-0.187427,0.0136496,0.269628,5,0.1,25,1.9,-2.09412,-2.59108,0.579398,0.754729,0.359185,0.0193851,-0.335872,-0.817195,-0.0133961,0.0122042,0.533996,5,0.1,26,1.9,0.609738,1.67527,0.584644,0.340574,-0.24545,-0.0245966,0.383876,0.79225,-0.052385,0.00631224,0.203393,5,0.1,27,1.9,1.27247,-2.54565,0.500076,-0.383908,0.150108,7.45989e-05,0.248007,-0.0969172,-0.00136718,0.0197443,0.117457,5,0.1,28,1.9,0.383474,1.82619,0.614199,0.319923,0.0990992,0.0178181,0.914149,0.638328,0.0269264,0.0142198,3.10011,5,0.1,29,1.9,1.01496,4.60024,0.985981,-0.0724552,0.000210851,0.271208,0.221498,-0.00360608,0.343259,0.0170711,0.156604,5,0.1
0,2,0.307095,3.01647,0.590867,-0.657129,0.748187,0.00792891,0.396118,-0.414968,-0.00479817,0.00981142,0.510599,5,0.1,1,2,-1.80945,-1.67791,0.620213,-0.28905,-0.854748,-0.0188038,0.162363,0.19902,0.0146925,0.010314,0.888186,5,0.1,2,2,3.68301,-4.29765,0.591682,-0.14267,0.34343,0.011532,-0.101924,-0.247002,-0.00825524,0.014767,0.206994,5,0.1,3,2,-0.154731,1.93118,0.609841,-0.386611,-0.589216,-0.0687256,-0.46172,0.247478,-0.112444,0.0110081,0.941252,5,0.1,4,2,-3.9084,2.55874,0.607773,0.58192,-0.00888705,-0.00792742,0.0684261,0.00929832,0.00822544,0.0119486,0.775547,5,0.1,5,2,0.858079,-3.74436,0.603269,-0.348116,-0.205314,-0.0220567,-0.230938,0.423074,-0.0319183,0.0121712,0.682242,5,0.1,6,2,-1.34392,4.15026,1.16414,-0.00621974,-0.408697,0.189739,0.0063777,0.424385,-0.197113,0.0160397,0.111779,5,0.1,7,2,2.14663,-1.25054,0.592206,0.0564694,-0.779715,0.00796616,0.0487566,0.151932,-0.00828505,0.00867887,0.627345,5,0.1,8,2,-1.98799,-3.87019,0.610192,-0.0753552,0.221092,-0.0187352,0.311255,-0.231743,0.0196099,0.00960406,0.1937,5,0.1,9,2,4.40727,1.90202,0.607452,-0.614762,0.0566572,-0.00542253,0.933409,-0.0596642,0.00184774,0.0107125,2.41919,5,0.1,10,2,1.35988,1.59136,0.589851,-0.390035,-0.0932723,0.0103638,0.213921,0.0968575,-0.0107288,0.00957845,0.142611,5,0.1,11,2,3.6432,-4.86491,0.500086,-0.0441313,0.653827,2.98023e-05,0.0457764,-0.198364,-0.00119209,0.00948616,0.263932,5,0.1,12,2,-1.02707,0.0441178,0.500095,0.658435,0.122667,0.00013113,-0.471294,-0.00505343,-0.00154972,0.0124306,0.229056,5,0.1,13,2,3.60288,-2.22065,0.621483,0.743419,-0.039649,-0.0237986,-0.418782,0.0382662,0.0229776,0.00965974,0.290849,5,0.1,14,2,-3.69884,1.82841,0.599163,-0.197685,-0.217089,-0.00710934,0.148535,0.163198,0.00530481,0.0120694,0.0145429,5,0.1,15,2,-0.0595702,1.61786,0.729527,0.0755982,0.536764,0.0909716,0.7594,-0.430763,0.156462,0.0184033,2.84434,5,0.1,16,2,3.14034,-3.36706,0.614923,-0.861651,0.608385,-0.00939071,-0.0874996,-0.115633,0.00175834,0.0429274,1.81136,5,0.1,17,2,0.530307,-1.69573,0.629472,-0.174639,0.866026,-0.00647902,0.0350475,-5.96046e-05,0.00244379,0.0285968,2.25239,5,0.1,18,2,1.45488,-3.36266,0.733715,-0.642112,-0.458336,0.0167757,0.471354,0.287533,-0.017643,0.0127802,0.288884,5,0.1,19,2,4.31634,0.309078,0.606359,-0.0888824,-0.270063,-0.0107914,0.307083,0.242755,0.00968575,0.0104745,0.198234,5,0.1,20,2,-1.82578,4.12542,0.718429,0.836557,-0.276911,-0.0221044,-0.330865,0.0994205,-0.240624,0.030502,1.60565,5,0.1,21,2,-3.52208,-1.96487,0.614826,0.379908,0.297853,-0.0151291,-0.394583,1.21075,0.0157058,0.0301216,1.56397,5,0.1,22,2,-1.75029,5.01596,0.759371,-0.866026,-0.520742,0.0578523,0,0.100136,-0.0110865,0.0197208,2.10558,5,0.1,23,2,-3.20225,-5.80128,0.58522,-0.00889301,-0.0747085,0.0226915,0.0251532,0.0908375,-0.0275373,0.0130455,0.866421,5,0.1,24,2,-2.80604,4.42941,1.1582,0.107479,-0.62741,0.194389,-0.10848,0.48089,-0.19598,0.0124121,0.180927,5,0.1,25,2,-2.02047,-2.55927,0.581268,0.716531,0.277179,0.0179768,-0.447035,-0.80502,-0.0151694,0.0128453,0.408929,5,0.1,26,2,0.645419,1.65418,0.581933,0.369762,-0.180924,-0.0294492,0.187397,0.517726,-0.0420809,0.00594262,0.200227,5,0.1,27,2,1.23524,-2.53109,0.500077,-0.361025,0.141168,-5.66244e-05,0.227153,-0.0888109,-0.0012219,0.0183536,0.137963,5,0.1,28,2,0.420157,1.839,0.616135,0.413372,0.153947,0.0210181,0.894397,0.449717,0.0336766,0.0138224,2.75386,5,0.1,29,2,1.00879,4.60025,1.01461,-0.0512987,-0.000154972,0.299025,0.19908,-0.00333786,0.199437,0.0157536,0.106318,5,0.1
0,2.1,0.243251,3.08934,0.591637,-0.620321,0.709748,0.00748336,0.361251,-0.378847,-0.00437349,0.00981142,0.510599,5,0.1,1,2.1,-1.8377,-1.76257,0.618402,-0.276978,-0.839256,-0.0174439,0.0952929,0.148177,0.0130683,0.010314,0.888186,5,0.1,2,2.1,3.6684,-4.26453,0.592795,-0.147988,0.318941,0.0107127,-0.00566244,-0.249863,-0.00836328,0.014767,0.206994,5,0.1,3,2.1,-0.194863,1.87524,0.602306,-0.408265,-0.514668,-0.0826662,0.00528328,1.14911,-0.153743,0.0110081,0.941252,5,0.1,4,2.1,-3.84952,2.5579,0.607019,0.598188,-0.00803508,-0.00717239,0.209212,0.00800192,0.00709668,0.0119486,0.775547,5,0.1,5,2.1,0.822036,-3.76266,0.600898,-0.372851,-0.159968,-0.0253496,-0.23796,0.466079,-0.0317581,0.0121712,0.682242,5,0.1,6,2.1,-1.34451,4.1112,1.18228,-0.00571422,-0.375111,0.174142,0.00408292,0.270784,-0.125729,0.0160397,0.111779,5,0.1,7,2.1,2.15262,-1.32792,0.592964,0.0639584,-0.768462,0.00720555,0.0912398,0.109904,-0.00714883,0.00867887,0.627345,5,0.1,8,2.1,-1.99406,-3.84923,0.608415,-0.0469349,0.198368,-0.0168121,0.253931,-0.225797,0.0191145,0.00960406,0.1937,5,0.1,9,2.1,4.35033,1.9074,0.606918,-0.52829,0.0509676,-0.00526598,0.683576,-0.0552088,0.00151619,0.0107125,2.41919,5,0.1,10,2.1,1.32166,1.58244,0.590841,-0.376736,-0.0856081,0.00951439,0.0798404,0.0617877,-0.00684708,0.00957845,0.142611,5,0.1,11,2.1,3.639,-4.80048,0.500084,-0.0399269,0.634402,-6.79865e-05,0.0395179,-0.212252,-0.00077486,0.00948616,0.263932,5,0.1,12,2.1,-0.963447,0.0564494,0.500101,0.614778,0.124601,-5.4948e-06,-0.422183,0.0332922,-0.00118092,0.0124306,0.229056,5,0.1,13,2.1,3.67525,-2.22444,0.619211,0.704626,-0.0361215,-0.0216805,-0.381842,0.0333935,0.0200458,0.00965974,0.290849,5,0.1,14,2.1,-3.71787,1.80751,0.598479,-0.182917,-0.200865,-0.00658119,0.151396,0.166319,0.0054203,0.0120694,0.0145429,5,0.1,15,2.1,-0.0489908,1.67093,0.739197,0.128732,0.537444,0.100447,0.323725,0.339605,0.0373945,0.0184033,2.84434,5,0.1,16,2.1,3.05391,-3.3066,0.61399,-0.865566,0.601913,-0.00929292,-0.00348687,-0.0470728,0.000715256,0.0429274,1.81136,5,0.1,17,2.1,0.512943,-1.60913,0.628834,-0.173108,0.866025,-0.00631865,0.00619888,1.49012e-05,0.00114739,0.0285968,2.25239,5,0.1,18,2.1,1.3929,-3.40715,0.73531,-0.598491,-0.432054,0.0151544,0.420786,0.253662,-0.0152402,0.0127802,0.288884,5,0.1,19,2.1,4.30893,0.283333,0.605327,-0.0599019,-0.244349,-0.0098397,0.268549,0.271715,0.00954047,0.0104745,0.198234,5,0.1,20,2.1,-1.74341,4.0982,0.714856,0.813392,-0.267513,-0.0504804,-0.179149,0.0982285,-0.308622,0.030502,1.60565,5,0.1,21,2.1,-3.48595,-1.92877,0.613387,0.343682,0.425073,-0.0136873,-0.340462,1.26839,0.0135526,0.0301216,1.56397,5,0.1,22,2.1,-1.83689,4.96416,0.765126,-0.866026,-0.516499,0.0573838,0,0.0163019,-0.00179559,0.0197208,2.10558,5,0.1,23,2.1,-3.20312,-5.80831,0.587354,-0.00879802,-0.0658207,0.0199954,0.00824034,0.087589,-0.0265874,0.0130455,0.866421,5,0.1,24,2.1,-2.7958,4.36894,1.17671,0.0975002,-0.582916,0.176359,-0.094071,0.427932,-0.169992,0.0124121,0.180927,5,0.1,25,2.1,-1.95092,-2.5355,0.582994,0.675059,0.199657,0.0165708,-0.405431,-0.723824,-0.0134706,0.0128453,0.408929,5,0.1,26,2.1,0.683204,1.63802,0.578758,0.384329,-0.148024,-0.0341511,0.0914074,0.17339,-0.0482239,0.00594262,0.200227,5,0.1,27,2.1,1.20014,-2.51709,0.500066,-0.341718,0.14152,-0.000142306,0.174634,0.072062,-0.000528991,0.0183536,0.137963,5,0.1,28,2.1,0.46675,1.85604,0.618347,0.523945,0.181303,0.0226963,1.22384,0.115559,0.00166893,0.0138224,2.75386,5,0.1,29,2.1,1.00461,4.60022,1.04542,-0.0330856,-0.000404567,0.315789,0.163622,-0.00169873,0.123724,0.0157536,0.106318,5,0.1
0,2.2,0.183109,3.15831,0.592362,-0.581311,0.66821,0.00701249,0.433401,-0.46885,-0.00524521,0.00775458,0.34364,5,0.1,1,2.2,-1.86492,-1.84559,0.616724,-0.267199,-0.818717,-0.0160947,0.111997,0.289142,0.0143051,0.00939269,0.665557,5,0.1,2,2.2,3.65372,-4.23393,0.593823,-0.144106,0.292289,0.00981987,0.0813007,-0.287533,-0.00965595,0.0155698,0.192072,5,0.1,3,2.2,-0.235054,1.83036,0.593288,-0.38998,-0.376362,-0.0972897,0.33953,1.54167,-0.129431,0.00766651,0.296595,5,0.1,4,2.2,-3.78874,2.55713,0.606337,0.615555,-0.00724792,-0.00647157,0.103593,0.00786781,0.00712276,0.0112933,1.36546,5,0.1,5,2.2,0.783723,-3.77637,0.59822,-0.391331,-0.115067,-0.0280365,-0.113636,0.419974,-0.0204444,0.00942664,0.594469,5,0.1,6,2.2,-1.34506,4.07494,1.19911,-0.00534058,-0.350463,0.162703,0.00363588,0.239372,-0.111222,0.0152249,0.219208,5,0.1,7,2.2,2.15947,-1.40404,0.593649,0.0730217,-0.751504,0.0064984,0.0827312,0.254631,-0.00712276,0.00893338,0.263665,5,0.1,8,2.2,-1.9976,-3.83053,0.60683,-0.0250161,0.175434,-0.0148714,0.183225,-0.234723,0.019908,0.0137716,0.3023,5,0.1,9,2.2,4.3,1.91222,0.6064,-0.487506,0.0454336,-0.00507981,0.149727,-0.0562072,0.00232458,0.0083666,2.04632,5,0.1,10,2.2,1.28435,1.57417,0.591761,-0.369257,-0.0799835,0.00889003,0.0901222,0.0546575,-0.00604987,0.00976554,0.0988788,5,0.1,11,2.2,3.6352,-4.73827,0.500074,-0.0360191,0.607693,-0.00012666,0.0394583,-0.336647,-0.000417233,0.0116692,0.176606,5,0.1,12,2.2,-0.904134,0.069069,0.500095,0.570571,0.127523,-0.000104308,-0.475824,0.0175759,-0.000804663,0.0101422,0.157235,5,0.1,13,2.2,3.7437,-2.22788,0.617143,0.662887,-0.0327826,-0.019677,-0.469804,0.0340939,0.020504,0.0096119,0.195977,5,0.1,14,2.2,-3.73537,1.7883,0.597849,-0.166678,-0.183028,-0.00599921,0.176072,0.193417,0.00631809,0.00942735,0.00448095,5,0.1,15,2.2,-0.0350754,1.72694,0.749262,0.144291,0.586152,0.0993177,0.00648677,0.553906,-0.0556111,0.0151511,2.56352,5,0.1,16,2.2,2.96743,-3.24675,0.613066,-0.863045,0.593293,-0.00915974,0.0596046,-0.148535,0.00226498,0.0478953,1.34518,5,0.1,17,2.2,0.495687,-1.52252,0.628208,-0.171579,0.866026,-0.00618398,0.0319481,-5.96046e-05,0.00181794,0.0287751,2.25295,5,0.1,18,2.2,1.3352,-3.44904,0.73675,-0.554627,-0.404972,0.0136495,0.470042,0.298619,-0.0151396,0.0109053,0.194633,5,0.1,19,2.2,4.3042,0.260305,0.604392,-0.0357866,-0.215747,-0.00885129,0.211,0.299886,0.0103414,0.00806171,0.385347,5,0.1,20,2.2,-1.66303,4.07201,0.708276,0.792721,-0.255632,-0.0806451,-0.267565,0.145435,-0.281036,0.0330514,1.24989,5,0.1,21,2.2,-3.45326,-1.88027,0.612086,0.310028,0.540334,-0.0123486,-0.339985,0.990152,0.0135601,0.0313763,1.18898,5,0.1,22,2.2,-1.92349,4.91267,0.770847,-0.866026,-0.512075,0.0568926,0,0.0946522,-0.0104904,0.019931,2.11026,5,0.1,23,2.2,-3.2038,-5.81445,0.589221,-0.00277162,-0.0570893,0.0173435,0.125408,0.0874996,-0.0265837,0.0123535,1.76774,5,0.1,24,2.2,-2.78652,4.31283,1.19351,0.0881612,-0.538599,0.159478,-0.0947714,0.470877,-0.171423,0.0132156,0.121213,5,0.1,25,2.2,-1.88553,-2.51888,0.584583,0.631568,0.135601,0.0151977,-0.479996,-0.547051,-0.0144243,0.0110965,0.315191,5,0.1,26,2.2,0.721853,1.62374,0.575117,0.386025,-0.14033,-0.0384554,-0.0651479,0.00661612,-0.0351667,0.009463,0.217565,5,0.1,27,2.2,1.16686,-2.50247,0.50005,-0.323433,0.151396,-0.000168383,0.202179,0.107408,-5.96046e-05,0.0204863,0.0884467,5,0.1,28,2.2,0.525177,1.87432,0.620585,0.641946,0.180456,0.0216842,1.06749,-0.116765,-0.0202954,0.0124788,2.44375,5,0.1,29,2.2,1.00205,4.60017,1.07741,-0.0187904,-0.0005126,0.321794,0.121593,-0.000238419,-0.0112653,0.016925,0.177906,5,0.1
0,2.3,0.127024,3.22292,0.593039,-0.541148,0.624759,0.00652662,0.387509,-0.420883,-0.00469014,0.00775458,0.34364,5,0.1,1,2.3,-1.89099,-1.9254,0.615182,-0.253274,-0.773416,-0.0147779,0.16813,0.541545,0.0125095,0.00939269,0.665557,5,0.1,2,2.3,3.6399,-4.20612,0.594757,-0.130867,0.264105,0.00887318,0.175834,-0.280559,-0.00942871,0.0155698,0.192072,5,0.1,3,2.3,-0.272572,1.80026,0.58279,-0.362061,-0.227838,-0.11346,0.237961,1.40736,-0.178311,0.00766651,0.296595,5,0.1,4,2.3,-3.72604,2.55644,0.605723,0.642933,-0.00653043,-0.00582291,0.376806,0.00667572,0.00603124,0.0112933,1.36546,5,0.1,5,2.3,0.744,-3.78584,0.595314,-0.4028,-0.0754412,-0.0300228,-0.0953153,0.35058,-0.0175647,0.00942664,0.594469,5,0.1,6,2.3,-1.34558,4.04111,1.21482,-0.00497252,-0.32604,0.151474,0.0038147,0.255138,-0.116415,0.0152249,0.219208,5,0.1,7,2.3,2.16704,-1.47788,0.594266,0.0769787,-0.7244,0.00584908,0.000268221,0.307329,-0.00604987,0.00893338,0.263665,5,0.1,8,2.3,-1.99925,-3.81416,0.605442,-0.00891834,0.151876,-0.0128737,0.134513,-0.236094,0.0200197,0.0137716,0.3023,5,0.1,9,2.3,4.25078,1.9165,0.605902,-0.506736,0.0401938,-0.00486951,-0.442535,-0.0495389,0.00207126,0.0083666,2.04632,5,0.1,10,2.3,1.24812,1.5664,0.592638,-0.352934,-0.0757031,0.0087901,0.23298,0.0352412,0.00274554,0.00976554,0.0988788,5,0.1,11,2.3,3.63178,-4.67912,0.50006,-0.0324205,0.575633,-0.000150967,0.0335276,-0.322938,-9.31323e-05,0.0116692,0.176606,5,0.1,12,2.3,-0.849319,0.0819497,0.500081,0.526677,0.130287,-0.000160653,-0.419006,0.0295085,-0.000346452,0.0101422,0.157235,5,0.1,13,2.3,3.80778,-2.231,0.615271,0.619362,-0.0296626,-0.0178009,-0.421226,0.029251,0.0175759,0.0096119,0.195977,5,0.1,14,2.3,-3.75115,1.77097,0.597281,-0.14887,-0.163467,-0.00535976,0.181451,0.199273,0.00651926,0.00942735,0.00448095,5,0.1,15,2.3,-0.0210836,1.78913,0.758811,0.13145,0.663386,0.0907181,-0.239634,0.899628,-0.112034,0.0151511,2.56352,5,0.1,16,2.3,2.88117,-3.18805,0.612159,-0.863428,0.581318,-0.00897693,-0.0212193,-0.117615,0.00179932,0.0478953,1.34518,5,0.1,17,2.3,0.478615,-1.43592,0.627596,-0.170328,0.866025,-0.00608144,0.00360236,1.49012e-05,0.000614673,0.0287751,2.25295,5,0.1,18,2.3,1.28195,-3.48813,0.738044,-0.511309,-0.377545,0.0122687,0.412777,0.262812,-0.0128597,0.0109053,0.194633,5,0.1,19,2.3,4.30157,0.24039,0.603552,-0.0179373,-0.181525,-0.0079954,0.145406,0.362443,0.00721961,0.00806171,0.385347,5,0.1,20,2.3,-1.58449,4.0471,0.699173,0.782605,-0.242809,-0.0980256,0.00339746,0.120968,-0.0779405,0.0330514,1.24989,5,0.1,21,2.3,-3.42385,-1.82131,0.610914,0.279041,0.63734,-0.0111131,-0.288576,0.899717,0.0115037,0.0313763,1.18898,5,0.1,22,2.3,-2.0101,4.86172,0.776508,-0.866025,-0.508298,0.0564745,0,0.0120997,-0.00133365,0.019931,2.11026,5,0.1,23,2.3,-3.20343,-5.81974,0.590827,0.0130955,-0.0488259,0.0148328,0.285968,0.0784099,-0.0238344,0.0123535,1.76774,5,0.1,24,2.3,-2.77815,4.26118,1.20865,0.0795074,-0.495239,0.143825,-0.0807941,0.412196,-0.146158,0.0132156,0.121213,5,0.1,25,2.3,-1.82464,-2.50775,0.586035,0.587146,0.0904642,0.0138712,-0.427574,-0.339121,-0.0125431,0.0110965,0.315191,5,0.1,26,2.3,0.759756,1.6094,0.571053,0.36854,-0.149272,-0.0431178,-0.274509,-0.158116,-0.0527352,0.009463,0.217565,5,0.1,27,2.3,1.13548,-2.48685,0.500034,-0.304475,0.160332,-0.00015609,0.187032,0.0652969,0.000268221,0.0204863,0.0884467,5,0.1,28,2.3,0.594688,1.89144,0.622625,0.746551,0.158879,0.0189047,0.966541,-0.296637,-0.0338927,0.0124788,2.44375,5,0.1,29,2.3,1.0007,4.60013,1.10944,-0.00881199,-0.000277907,0.317863,0.0785664,0.00414252,-0.0744313,0.016925,0.177906,5,0.1
0,2.4,0.0748878,3.28323,0.593668,-0.500836,0.580537,0.00604093,0.430821,-0.477791,-0.00524521,0.0084435,0.23034,5,0.1,1,2.4,-1.91537,-2,0.613766,-0.233382,-0.7186,-0.0135139,0.230134,0.548005,0.0130832,0.00968228,0.506342,5,0.1,2,2.4,3.62779,-4.18113,0.595597,-0.110352,0.235462,0.00791103,0.227928,-0.294924,-0.00989437,0.016355,0.185267,5,0.1,3,2.4,-0.307628,1.78415,0.570578,-0.339095,-0.0985235,-0.130247,0.235215,1.16396,-0.146031,0.0150523,3.71055,5,0.1,4,2.4,-3.65987,2.55582,0.60517,0.679278,-0.00587702,-0.0052318,0.300884,0.00655651,0.00587106,0.0157737,1.04267,5,0.1,5,2.4,0.70341,-3.79187,0.59224,-0.406964,-0.0480294,-0.0312626,0.0258982,0.188947,-0.00604987,0.00889577,0.506198,5,0.1,6,2.4,-1.34606,4.00984,1.22936,-0.00455976,-0.29847,0.138927,0.00447035,0.299692,-0.136435,0.0159336,0.855504,5,0.1,7,2.4,2.17463,-1.54856,0.594821,0.0738084,-0.68678,0.00525713,-0.0603199,0.457644,-0.00593066,0.00834953,0.0907123,5,0.1,8,2.4,-1.99958,-3.80015,0.604255,0.00130236,0.128305,-0.0108749,0.0681281,-0.234842,0.0198781,0.0100381,0.966541,5,0.1,9,2.4,4.19754,1.92027,0.605427,-0.559878,0.0353634,-0.00463426,-0.550985,-0.0477433,0.00280142,0.0119831,1.62087,5,0.1,10,2.4,1.2142,1.559,0.593536,-0.323403,-0.0722021,0.00920892,0.353515,0.0379682,0.00467896,0.00973676,0.254294,5,0.1,11,2.4,3.62871,-4.62327,0.500044,-0.0291407,0.540042,-0.000147521,0.0327826,-0.401735,0.000119209,0.0115265,0.118136,5,0.1,12,2.4,-0.798765,0.0950907,0.500064,0.483903,0.13203,-0.000177324,-0.448197,-0.000398755,-2.98023e-05,0.0119904,0.10762,5,0.1,13,2.4,3.86755,-2.23382,0.613578,0.575179,-0.0267804,-0.0160679,-0.47636,0.0292063,0.0175238,0.00803584,0.131447,5,0.1,14,2.4,-3.76511,1.75563,0.596778,-0.130206,-0.142971,-0.0046894,0.192404,0.211298,0.00694394,0.0088823,0.00139486,5,0.1,15,2.4,-0.00938128,1.85992,0.76726,0.100639,0.750262,0.077717,-0.357516,0.770748,-0.144303,0.0150746,2.35891,5,0.1,16,2.4,2.79489,-3.13063,0.611273,-0.859618,0.565261,-0.0087291,0.12815,-0.222087,0.00339746,0.0500956,0.965932,5,0.1,17,2.4,0.461625,-1.34932,0.626991,-0.169054,0.866026,-0.00599623,0.0293702,0,0.0013411,0.0308284,2.25342,5,0.1,18,2.4,1.2329,-3.52455,0.739208,-0.469285,-0.350231,0.011012,0.439107,0.292182,-0.0125468,0.0132999,0.130876,5,0.1,19,2.4,4.30039,0.224013,0.602786,-0.00665188,-0.1467,-0.00732988,0.0813007,0.321753,0.0064075,0.00854437,0.574537,5,0.1,20,2.4,-1.50618,4.02345,0.689238,0.782704,-0.229752,-0.0983521,-0.0466108,0.147104,0.0615716,0.0305795,0.932189,5,0.1,21,2.4,-3.39737,-1.75356,0.609859,0.250804,0.711805,-0.00998825,-0.282407,0.555038,0.0112355,0.030887,0.854836,5,0.1,22,2.4,-2.0967,4.81102,0.78214,-0.866026,-0.504315,0.0560313,0,0.0898838,-0.00998378,0.0183785,2.11459,5,0.1,23,2.4,-3.2,-5.82424,0.592194,0.0621319,-0.0412941,0.0125408,0.678062,0.0729561,-0.0220835,0.0160046,3.24979,5,0.1,24,2.4,-2.77059,4.21373,1.22231,0.0715733,-0.453484,0.129476,-0.0795126,0.43416,-0.143945,0.0116105,0.405127,5,0.1,25,2.4,-1.7681,-2.5,0.58736,0.542819,0.0684381,0.0126153,-0.472009,-0.111341,-0.0128448,0.0120149,0.236379,5,0.1,26,2.4,0.794962,1.59359,0.566484,0.333071,-0.167161,-0.0480801,-0.425488,-0.179052,-0.0425577,0.00707202,0.298089,5,0.1,27,2.4,1.10601,-2.4706,0.50002,-0.284344,0.163484,-0.000120699,0.222445,-0.00584126,0.00038743,0.0174578,0.101739,5,0.1,28,2.4,0.673634,1.90567,0.624334,0.826016,0.12441,0.0151604,0.588387,-0.378072,-0.0398457,0.0138429,1.96715,5,0.1,29,2.4,1.00015,4.60012,1.14071,-0.00288486,0.000166893,0.30579,0.0412464,0.00429153,-0.171125,0.0147783,0.264266,5,0.1
0,2.5,0.0268337,3.33904,0.594247,-0.461114,0.536437,0.00555795,0.378356,-0.421524,-0.00458956,0.0084435,0.23034,5,0.1,1,2.5,-1.93738,-2.06951,0.612477,-0.205075,-0.67443,-0.0123156,0.326686,0.37168,0.0112727,0.00968228,0.506342,5,0.1,2,2.5,3.61794,-4.15902,0.596339,-0.0862889,0.207008,0.00695605,0.24727,-0.276953,-0.00929832,0.016355,0.185267,5,0.1,3,2.5,-0.340237,1.77733,0.557142,-0.311883,-0.0618817,-0.135556,0.307556,-0.287242,0.0293925,0.0150523,3.71055,5,0.1,4,2.5,-3.59018,2.55527,0.604675,0.715601,-0.00528283,-0.00470001,0.373363,0.00549853,0.00491738,0.0157737,1.04267,5,0.1,5,2.5,0.662827,-3.79596,0.589085,-0.404426,-0.0368193,-0.0318033,0.0413284,0.00852346,-0.00338629,0.00889577,0.506198,5,0.1,6,2.5,-1.34649,3.98171,1.24275,-0.00413004,-0.262334,0.130284,0.00420958,0.41227,-0.0490025,0.0159336,0.855504,5,0.1,7,2.5,2.18157,-1.61485,0.595319,0.0636999,-0.637776,0.00471985,-0.133947,0.529476,-0.00496581,0.00834953,0.0907123,5,0.1,8,2.5,-1.99903,-3.78846,0.603264,0.00968128,0.105856,-0.0089745,0.0652224,-0.214309,0.0181459,0.0100381,0.966541,5,0.1,9,2.5,4.1383,1.92359,0.604976,-0.627999,0.0309804,-0.00437666,-0.741065,-0.0407323,0.00251085,0.0119831,1.62087,5,0.1,10,2.5,1.18385,1.55208,0.594526,-0.281665,-0.0653489,0.0109542,0.469632,0.094153,0.0268444,0.00973676,0.254294,5,0.1,11,2.5,3.62595,-4.57124,0.500031,-0.0260741,0.500705,-0.000128523,0.0291765,-0.396699,0.000245869,0.0115265,0.118136,5,0.1,12,2.5,-0.75248,0.108312,0.500046,0.442767,0.132418,-0.000167731,-0.388697,0.00164285,0.00019744,0.0119904,0.10762,5,0.1,13,2.5,3.92282,-2.23636,0.612053,0.531224,-0.024125,-0.0144749,-0.419855,0.0246763,0.014808,0.00803584,0.131447,5,0.1,14,2.5,-3.77718,1.74239,0.596344,-0.111121,-0.122013,-0.00400078,0.189111,0.207633,0.00681728,0.0088823,0.00139486,5,0.1,15,2.5,-0.00128701,1.93852,0.774283,0.0598958,0.81799,0.0625609,-0.438987,0.550471,-0.15584,0.0150746,2.35891,5,0.1,16,2.5,2.70939,-3.07512,0.610415,-0.851121,0.545269,-0.0084226,0.0835508,-0.199378,0.00306591,0.0500956,0.965932,5,0.1,17,2.5,0.444794,-1.26272,0.626395,-0.16802,0.866026,-0.00593578,0.00174344,0,0.000242144,0.0308284,2.25342,5,0.1,18,2.5,1.18803,-3.5582,0.740251,-0.429019,-0.323417,0.009875,0.37998,0.254825,-0.0105128,0.0132999,0.130876,5,0.1,19,2.5,4.30004,0.210852,0.602085,-0.00124574,-0.118031,-0.00668373,0.0295639,0.234236,0.00683963,0.00854437,0.574537,5,0.1,20,2.5,-1.42785,4.00116,0.679874,0.78572,-0.216466,-0.087505,0.0583231,0.126734,0.147112,0.0305795,0.932189,5,0.1,21,2.5,-3.3736,-1.6797,0.608913,0.22522,0.763545,-0.00897022,-0.236705,0.440188,0.00941381,0.030887,0.854836,5,0.1,22,2.5,-2.1833,4.76083,0.787717,-0.866026,-0.500883,0.05565,0,0.00947714,-0.00106171,0.0183785,2.11459,5,0.1,23,2.5,-3.18905,-5.82802,0.594127,0.167543,-0.0345603,0.0327265,1.32211,0.0623465,0.37621,0.0160046,3.24979,5,0.1,24,2.5,-2.76349,4.1701,1.23459,0.0732463,-0.422605,0.116412,0.0911206,0.216395,-0.121117,0.0116105,0.405127,5,0.1,25,2.5,-1.71604,-2.49331,0.588561,0.499346,0.0686172,0.0114411,-0.413463,0.0904948,-0.0110045,0.0120149,0.236379,5,0.1,26,2.5,0.825926,1.57628,0.561411,0.284387,-0.176155,-0.0537553,-0.534844,-0.00740588,-0.064332,0.00707202,0.298089,5,0.1,27,2.5,1.0786,-2.4545,0.50001,-0.26446,0.15659,-7.96281e-05,0.185847,-0.125825,0.000413507,0.0174578,0.101739,5,0.1,28,2.5,0.758342,1.91636,0.625632,0.860877,0.0907065,0.010661,0.152972,-0.29818,-0.0483543,0.0138429,1.96715,5,0.1,29,2.5,1.00003,4.60015,1.17038,0.000202097,0.000309944,0.287135,0.021331,-0.00089407,-0.206001,0.0147783,0.264266,5,0.1
0,2.6,-0.0173746,3.39055,0.59478,-0.422673,0.493312,0.00509173,0.400646,-0.452876,-0.00482798,0.00751099,0.154401,5,0.1,1,2.6,-1.95616,-2.13514,0.611301,-0.169754,-0.638002,-0.0111923,0.371873,0.383019,0.0114441,0.008093,0.198327,5,0.1,2,2.6,3.61054,-4.13969,0.596989,-0.061965,0.179625,0.00603497,0.234842,-0.272751,-0.00911951,0.00893333,0.301477,5,0.1,3,2.6,-0.36978,1.76829,0.543951,-0.277942,-0.130177,-0.126316,0.369161,-0.964582,0.146389,0.0154935,3.17007,5,0.1,4,2.6,-3.51699,2.55476,0.604229,0.745034,-0.00474453,-0.00422001,0.178337,0.00524521,0.00470877,0.0114392,0.551248,5,0.1,5,2.6,0.622727,-3.8,0.585901,-0.395946,-0.047648,-0.0317112,0.139326,-0.211716,0.00610948,0.00881844,0.410817,5,0.1,6,2.6,-1.34688,3.95765,1.25559,-0.00370443,-0.217998,0.126922,0.00441074,0.465631,-0.0277162,0.0157413,1.13661,5,0.1,7,2.6,2.1872,-1.67582,0.595767,0.0484347,-0.579834,0.0042364,-0.164986,0.632823,-0.00482798,0.00888851,0.261036,5,0.1,8,2.6,-1.99794,-3.77891,0.602455,0.00948906,0.0854194,-0.00724345,-0.0835061,-0.194311,0.0164509,0.0109966,2.79059,5,0.1,9,2.6,4.07196,1.92649,0.604552,-0.695968,0.0270754,-0.00410676,-0.566959,-0.0379682,0.00298023,0.00926285,2.38301,5,0.1,10,2.6,1.15814,1.54607,0.595769,-0.231618,-0.054273,0.0139832,0.521541,0.123203,0.0311434,0.0105116,0.254783,5,0.1,11,2.6,3.62349,-4.52322,0.500019,-0.0231981,0.458765,-9.98378e-05,0.0289679,-0.449657,0.000298023,0.0126764,0.156519,5,0.1,12,2.6,-0.710143,0.121521,0.500031,0.403759,0.13126,-0.000141561,-0.401318,-0.0292847,0.000357628,0.0108665,0.126182,5,0.1,13,2.6,3.97383,-2.23866,0.610678,0.488317,-0.021714,-0.0130266,-0.450134,0.0241995,0.0144541,0.00859432,0.151903,5,0.1,14,2.6,-3.78735,1.73122,0.595977,-0.0924468,-0.101507,-0.00332892,0.184059,0.202119,0.00667572,0.0102808,0.000863987,5,0.1,15,2.6,0.00249813,2.02251,0.779762,0.0160716,0.856018,0.0470817,-0.423561,0.200152,-0.151396,0.0178719,2.02109,5,0.1,16,2.6,2.6249,-3.0217,0.60959,-0.835836,0.521737,-0.00806004,0.251055,-0.285983,0.00441074,0.0476641,0.674395,5,0.1,17,2.6,0.428025,-1.17611,0.625804,-0.166921,0.866026,-0.00588298,0.0276119,-5.96046e-05,0.00104308,0.0311133,2.25385,5,0.1,18,2.6,1.14702,-3.58926,0.741187,-0.390953,-0.297451,0.00885278,0.390947,0.271916,-0.010103,0.00917121,0.152111,5,0.1,19,2.6,4.3,0.2,0.601454,0,-0.101138,-0.00591427,0,0.108175,0.00876188,0.0108656,0.545292,5,0.1,20,2.6,-1.34913,3.98017,0.671944,0.786063,-0.203025,-0.0704259,-0.0857711,0.147462,0.187725,0.0301012,0.669565,5,0.1,21,2.6,-3.35224,-1.6016,0.608062,0.202197,0.793245,-0.00805408,-0.228882,0.127494,0.00908971,0.0293091,0.588942,5,0.1,22,2.6,-2.2699,4.71086,0.793268,-0.866026,-0.49715,0.0552341,0,0.0867844,-0.00965595,0.0186862,2.1188,5,0.1,23,2.6,-3.16536,-5.83118,0.599601,0.30753,-0.0287056,0.0789702,1.39534,0.0548363,0.510097,0.0106152,2.64587,5,0.1,24,2.6,-2.75558,4.12879,1.24564,0.085932,-0.404429,0.104606,0.145555,0.171661,-0.117779,0.0151174,0.313272,5,0.1,25,2.6,-1.66818,-2.48583,0.589651,0.457421,0.0821948,0.0103518,-0.436127,0.162125,-0.0109971,0.0126169,0.175403,5,0.1,26,2.6,0.851602,1.55887,0.555722,0.228526,-0.169936,-0.0598043,-0.571489,0.125527,-0.0517964,0.00650675,0.522003,5,0.1,27,2.6,1.05309,-2.43962,0.500004,-0.245377,0.139529,-4.32134e-05,0.203133,-0.209451,0.000357628,0.0197879,0.0410186,5,0.1,28,2.6,0.844815,1.92405,0.626454,0.866026,0.0643551,0.00580549,0,-0.230849,-0.0473857,0.0107727,1.52157,5,0.1,29,2.6,1.00013,4.60017,1.19798,0.00154376,9.53674e-05,0.263974,0.0063777,-0.00309944,-0.259399,0.019475,0.253884,5,0.1
0,2.7,-0.05776,3.43775,0.595266,-0.385933,0.451723,0.00464926,0.34648,-0.393376,-0.0041686,0.00751099,0.154401,5,0.1,1,2.7,-1.97125,-2.19711,0.610235,-0.132061,-0.60179,-0.0101492,0.375599,0.360444,0.00974536,0.008093,0.198327,5,0.1,2,2.7,3.60546,-4.12231,0.59777,-0.0403453,0.174505,0.011461,0.195935,0.121981,0.103496,0.00893333,0.301477,5,0.1,3,2.7,-0.395647,1.75014,0.532172,-0.238737,-0.234509,-0.108233,0.409694,-1.068,0.208229,0.0154935,3.17007,5,0.1,4,2.7,-3.44165,2.55431,0.603828,0.76024,-0.0042703,-0.00379505,0.0943989,0.00436604,0.00392273,0.0114392,0.551248,5,0.1,5,2.7,0.583798,-3.80627,0.58276,-0.382581,-0.0811502,-0.0310899,0.141464,-0.42209,0.0074394,0.00881844,0.410817,5,0.1,6,2.7,-1.34723,3.93823,1.26823,-0.00329167,-0.170101,0.126554,0.00391901,0.482261,0.01055,0.0157413,1.13661,5,0.1,7,2.7,2.1913,-1.731,0.596168,0.0342812,-0.526772,0.00380129,-0.120029,0.455223,-0.00400841,0.00888851,0.261036,5,0.1,8,2.7,-1.99741,-3.7713,0.601809,-0.00249837,0.06736,-0.00571422,-0.284262,-0.16728,0.0141636,0.0109966,2.79059,5,0.1,9,2.7,3.99907,1.92911,0.604151,-0.764282,0.0263415,-0.00394927,-0.72518,0.0165701,0.000555068,0.00926285,2.38301,5,0.1,10,2.7,1.1376,1.54131,0.597351,-0.179246,-0.0405343,0.0178356,0.517562,0.146605,0.0425801,0.0105116,0.254783,5,0.1,11,2.7,3.62131,-4.47957,0.500011,-0.0203881,0.414179,-6.98492e-05,0.0274926,-0.448048,0.000298023,0.0126764,0.156519,5,0.1,12,2.7,-0.671648,0.134526,0.500019,0.36711,0.128928,-0.000104867,-0.34352,-0.0232817,0.000365078,0.0108665,0.126182,5,0.1,13,2.7,4.02079,-2.24072,0.609437,0.453902,-0.0198238,-0.0118975,-0.268072,0.014931,0.00891834,0.00859432,0.151903,5,0.1,14,2.7,-3.7957,1.72206,0.595677,-0.0746433,-0.0819571,-0.00268416,0.171319,0.188112,0.00619516,0.0102808,0.000863987,5,0.1,15,2.7,0.00195668,2.10872,0.783723,-0.0268433,0.865257,0.0322947,-0.420525,0.019297,-0.142239,0.0178719,2.02109,5,0.1,16,2.7,2.54245,-2.97087,0.608805,-0.813668,0.495363,-0.00765277,0.226051,-0.25925,0.00400469,0.0476641,0.674395,5,0.1,17,2.7,0.4114,-1.08951,0.625218,-0.16602,0.866025,-0.00584731,0.00070408,1.49012e-05,3.35276e-05,0.0311133,2.25385,5,0.1,18,2.7,1.10957,-3.61788,0.742029,-0.360722,-0.276864,0.0080632,0.23748,0.158459,-0.00623614,0.00917121,0.152111,5,0.1,19,2.7,4.3,0.19017,0.600912,0,-0.097601,-0.00487948,0,-0.0204658,0.0116117,0.0108656,0.545292,5,0.1,20,2.7,-1.2708,3.96055,0.665732,0.781206,-0.189573,-0.0548004,-0.0500605,0.128269,0.128705,0.0301012,0.669565,5,0.1,21,2.7,-3.33308,-1.52169,0.607299,0.181558,0.80342,-0.00723433,-0.190035,0.0441149,0.00755489,0.0293091,0.588942,5,0.1,22,2.7,-2.35651,4.66137,0.798766,-0.866026,-0.493874,0.0548685,0,0.00891089,-0.00100583,0.0186862,2.1188,5,0.1,23,2.7,-3.1272,-5.83379,0.610344,0.457736,-0.0237286,0.137885,1.52712,0.0452995,0.630856,0.0106152,2.64587,5,0.1,24,2.7,-2.74612,4.08913,1.25555,0.10422,-0.389135,0.0939706,0.20358,0.149906,-0.0980869,0.0151174,0.313272,5,0.1,25,2.7,-1.62449,-2.47664,0.590634,0.417461,0.102841,0.00935169,-0.376463,0.232249,-0.0093095,0.0126169,0.175403,5,0.1,26,2.7,0.870704,1.54276,0.549516,0.146244,-0.150021,-0.0639459,-1.00907,0.259459,-0.0291243,0.00650675,0.522003,5,0.1,27,2.7,1.02997,-2.42686,0.500001,-0.213731,0.114493,-1.35042e-05,0.406444,-0.280276,0.000242144,0.0197879,0.0410186,5,0.1,28,2.7,0.931415,1.92944,0.626796,0.865907,0.0442397,0.00105165,-0.00476092,-0.17333,-0.0463724,0.0107727,1.52157,5,0.1,29,2.7,1.00036,4.60018,1.22308,0.00318009,6.25849e-05,0.237799,0.020124,0.00166893,-0.266396,0.019475,0.253884,5,0.1
0,2.8,-0.0946284,3.48096,0.59571,-0.351285,0.41219,0.00423193,0.35508,-0.407457,-0.00426173,0.00818078,0.178656,5,0.1,1,2.8,-1.98262,-2.2554,0.609268,-0.0957489,-0.562686,-0.00918806,0.345886,0.434518,0.00977516,0.0111593,0.135573,5,0.1,2,2.8,3.60233,-4.10393,0.599524,-0.0230134,0.195456,0.0242218,0.149846,0.259399,0.140786,0.0109757,0.244363,5,0.1,3,2.8,-0.417442,1.72155,0.522443,-0.196977,-0.334433,-0.0859454,0.420988,-0.891149,0.231832,0.0155798,3.26258,5,0.1,4,2.8,-3.3655,2.55391,0.603468,0.758713,-0.0038445,-0.00341237,-0.145674,0.00417233,0.00375509,0.0118659,1.02156,5,0.1,5,2.8,0.546341,-3.81659,0.579698,-0.3654,-0.125688,-0.0300363,0.211209,-0.441313,0.0143051,0.010449,0.319043,5,0.1,6,2.8,-1.34754,3.92359,1.28094,-0.00290871,-0.123286,0.127336,0.0038743,0.446558,-0.00190735,0.0146267,1.45681,5,0.1,7,2.8,2.19419,-1.78151,0.596529,0.0240684,-0.484142,0.00341386,-0.0858307,0.417054,-0.0038445,0.00972716,1.54833,5,0.1,8,2.8,-2,-3.76536,0.601304,-0.0582755,0.0518918,-0.00440329,-0.812292,-0.142574,0.0120699,0.00934463,3.21298,5,0.1,9,2.8,3.91925,1.93187,0.603758,-0.82854,0.0291944,-0.00392795,-0.509739,0.0354052,0.000208616,0.00937439,2.29261,5,0.1,10,2.8,1.1222,1.538,0.599344,-0.129554,-0.0258297,0.0219241,0.470221,0.143707,0.0368059,0.0133708,0.222746,5,0.1,11,2.8,3.61941,-4.44043,0.500005,-0.0176668,0.368202,-4.32134e-05,0.0274181,-0.475168,0.000268221,0.00964973,0.106041,5,0.1,12,2.8,-0.636638,0.147273,0.50001,0.333038,0.125602,-7.00355e-05,-0.346273,-0.0473112,0.000327826,0.0148288,0.0941425,5,0.1,13,2.8,4.06493,-2.24264,0.608288,0.429511,-0.0185013,-0.0111043,-0.241756,0.0126362,0.00753999,0.00768915,0.0885436,5,0.1,14,2.8,-3.80233,1.71477,0.595439,-0.0583053,-0.0640184,-0.0020951,0.154972,0.170171,0.00560284,0.00946228,0.000788876,5,0.1,15,2.8,-0.00272903,2.19523,0.786271,-0.065594,0.863737,0.018996,-0.344306,-0.0457764,-0.122219,0.0157626,1.69291,5,0.1,16,2.8,2.4624,-2.9227,0.608061,-0.784951,0.466895,-0.00721216,0.371456,-0.322104,0.00497699,0.0435029,0.857087,5,0.1,17,2.8,0.394826,-1.00291,0.624634,-0.165019,0.866024,-0.00581294,0.0266582,2.98023e-05,0.000923872,0.0309793,2.25425,5,0.1,18,2.8,1.07459,-3.64484,0.742807,-0.339314,-0.262523,0.00751019,0.208199,0.141978,-0.0051856,0.009902,0.0888193,5,0.1,19,2.8,4.3,0.18021,0.600484,0,-0.102236,-0.00365227,0,-0.0592768,0.012666,0.00827641,0.492398,5,0.1,20,2.8,-1.19313,3.94225,0.660824,0.769502,-0.176233,-0.0439778,-0.210822,0.143051,0.0908673,0.0291654,0.955331,5,0.1,21,2.8,-3.31585,-1.44148,0.606612,0.163132,0.79678,-0.00650287,-0.182986,-0.197828,0.00730157,0.0253401,0.394766,5,0.1,22,2.8,-2.44311,4.61211,0.80424,-0.866026,-0.490201,0.0544593,0,0.0858307,-0.00959635,0.0179628,2.12311,5,0.1,23,2.8,-3.07413,-5.83595,0.627233,0.598884,-0.0195384,0.198652,1.2368,0.0383854,0.556946,0.0101401,0.314643,5,0.1,24,2.8,-2.7347,4.05103,1.26447,0.123769,-0.37179,0.0844479,0.175238,0.207663,-0.0947118,0.0132445,0.278903,5,0.1,25,2.8,-1.58461,-2.4652,0.591524,0.379857,0.12542,0.00843853,-0.384927,0.205636,-0.00917912,0.0107915,0.129043,5,0.1,26,2.8,0.880003,1.52918,0.543026,0.0382468,-0.120455,-0.0653267,-1.1006,0.321031,0.002563,0.00676129,0.329704,5,0.1,27,2.8,1.01081,-2.41686,0.500001,-0.168201,0.0853896,4.47035e-06,0.486404,-0.293732,0.000178814,0.0180734,0.29238,5,0.1,28,2.8,1.01794,1.93308,0.62668,0.864124,0.0293314,-0.00324398,-0.0380874,-0.126481,-0.0385642,0.0142484,1.82553,5,0.1,29,2.8,1.00076,4.60019,1.2455,0.00458062,0.000298023,0.210345,0.00429153,0.00214577,-0.283837,0.0167551,0.313853,5,0.1
0,2.9,-0.128251,3.52027,0.596114,-0.323335,0.374962,0.00384329,0.224094,-0.349209,-0.00363961,0.00818078,0.178656,5,0.1,1,2.9,-1.99054,-2.3096,0.608395,-0.0636846,-0.522091,-0.00830181,0.292271,0.39348,0.00822544,0.0111593,0.135573,5,0.1,2,2.9,3.6007,-4.08277,0.602755,-0.0102848,0.229985,0.0411646,0.102788,0.395179,0.186045,0.0109757,0.244363,5,0.1,3,2.9,-0.434939,1.68471,0.514951,-0.152284,-0.392408,-0.0644603,0.461863,-0.29473,0.197802,0.0155798,3.26258,5,0.1,4,2.9,-3.28989,2.55354,0.603144,0.756735,-0.0034675,-0.0030742,0.0507832,0.00348687,0.00311807,0.0118659,1.02156,5,0.1,5,2.9,0.510809,-3.83151,0.576763,-0.345434,-0.173388,-0.0286591,0.199297,-0.485241,0.0141673,0.010449,0.319043,5,0.1,6,2.9,-1.34782,3.91351,1.2937,-0.00255257,-0.0787795,0.128226,0.00332296,0.424474,0.011988,0.0146267,1.45681,5,0.1,7,2.9,2.19618,-1.82871,0.596852,0.0160012,-0.46677,0.00306861,-0.0740141,-0.00853837,-0.00317022,0.00972716,1.54833,5,0.1,8,2.9,-2.01122,-3.76027,0.600865,-0.176467,0.0549924,-0.00489186,-1.44075,0.168428,-0.0182763,0.00934463,3.21298,5,0.1,9,2.9,3.83449,1.93502,0.603363,-0.860616,0.0341874,-0.00399332,-0.153705,0.0588596,-0.00116974,0.00937439,2.29261,5,0.1,10,2.9,1.11098,1.53603,0.601668,-0.100464,-0.0143323,0.0240646,0.141725,0.089094,0.00731647,0.0133708,0.222746,5,0.1,11,2.9,3.61775,-4.40558,0.500002,-0.0156224,0.332198,-2.12342e-05,0.0149012,-0.270903,0.000171363,0.00964973,0.106041,5,0.1,12,2.9,-0.604789,0.159458,0.500004,0.306187,0.116858,-4.06057e-05,-0.211097,-0.122542,0.00025332,0.0148288,0.0941425,5,0.1,13,2.9,4.10683,-2.24443,0.60721,0.409459,-0.0174627,-0.0104837,-0.178993,0.0090301,0.00540167,0.00768915,0.0885436,5,0.1,14,2.9,-3.80741,1.70919,0.595256,-0.0437006,-0.0479823,-0.00156779,0.136495,0.149883,0.00492483,0.00946228,0.000788876,5,0.1,15,2.9,-0.0109729,2.28044,0.787582,-0.0986333,0.832747,0.00750972,-0.305709,-0.514701,-0.106003,0.0157626,1.69291,5,0.1,16,2.9,2.38532,-2.87753,0.607363,-0.759581,0.437099,-0.00675144,0.183269,-0.288501,0.00445917,0.0435029,0.857087,5,0.1,17,2.9,0.378388,-0.916306,0.624055,-0.164176,0.866026,-0.00578649,0.000361353,0,-2.98023e-05,0.0309793,2.25425,5,0.1,18,2.9,1.04157,-3.67047,0.743536,-0.322075,-0.250862,0.00708494,0.152305,0.103503,-0.00368059,0.009902,0.0888193,5,0.1,19,2.9,4.29926,0.169577,0.60018,-0.0209756,-0.111216,-0.00245441,-0.372916,-0.107301,0.0111908,0.00827641,0.492398,5,0.1,20,2.9,-1.11681,3.92514,0.656816,0.7598,-0.167595,-0.0367614,-0.0341907,0.0451207,0.0565425,0.0291654,0.955331,5,0.1,21,2.9,-3.30039,-1.36278,0.605996,0.146692,0.77651,-0.00584703,-0.150919,-0.233755,0.00602007,0.0253401,0.394766,5,0.1,22,2.9,-2.52971,4.56331,0.80966,-0.866026,-0.486863,0.0540832,0,0.01055,-0.00121444,0.0179628,2.12311,5,0.1,23,2.9,-3.00913,-5.83773,0.649156,0.690344,-0.0161037,0.233076,0.598893,0.030756,0.15248,0.0101401,0.314643,5,0.1,24,2.9,-2.7214,4.01527,1.27247,0.142149,-0.340118,0.0759292,0.179604,0.409931,-0.0782907,0.0132445,0.278903,5,0.1,25,2.9,-1.54843,-2.45159,0.592325,0.344762,0.147021,0.00760751,-0.328168,0.212148,-0.00769272,0.0107915,0.129043,5,0.1,26,2.9,0.878224,1.51869,0.536473,-0.0738424,-0.0899434,-0.0659268,-1.10248,0.287428,-0.00991672,0.00676129,0.329704,5,0.1,27,2.9,0.996097,-2.40971,0.500002,-0.128876,0.0584859,9.68575e-06,0.31263,-0.2435,-4.47035e-05,0.0180734,0.29238,5,0.1,28,2.9,1.10433,1.93544,0.626168,0.864646,0.0186447,-0.00692429,0.0237823,-0.0887811,-0.0340529,0.0142484,1.82553,5,0.1,29,2.9,1.00125,4.60028,1.26512,0.00503007,0.00174493,0.182145,-0.00628084,0.0206232,-0.280298,0.0167551,0.313853,5,0.1
0,3,-0.159544,3.55603,0.59648,-0.302954,0.340295,0.00348389,0.198468,-0.35274,-0.00366569,0.00736732,0.136326,5,0.1,1,3,-1.99556,-2.3598,0.607606,-0.0377625,-0.481278,-0.00749528,0.224531,0.433683,0.00810623,0.00940332,0.78917,5,0.1,2,3,3.6001,-4.05782,0.607795,-0.00256896,0.268245,0.0593379,0.0523329,0.343561,0.168532,0.00880435,0.204034,5,0.1,3,3,-0.447866,1.6448,0.509438,-0.106556,-0.398412,-0.0463843,0.444159,0.150681,0.163764,0.0172042,1.15806,5,0.1,4,3,-3.21401,2.55321,0.602852,0.759339,-0.00312924,-0.00277162,-0.0386238,0.00333786,0.00301003,0.0119848,0.543395,5,0.1,5,3,0.477316,-3.85116,0.573974,-0.323667,-0.218004,-0.0270501,0.243589,-0.387192,0.0186861,0.0090459,0.238487,5,0.1,6,3,-1.34805,3.90759,1.30656,-0.00223517,-0.0414193,0.128418,0.00309944,0.311255,-0.0135899,0.0148482,3.15201,5,0.1,7,3,2.19744,-1.87572,0.597144,0.00949502,-0.475115,0.00276119,-0.0551939,-0.111997,-0.00301003,0.0114826,1.96822,5,0.1,8,3,-2.03635,-3.75366,0.600258,-0.326937,0.0791311,-0.00742376,-1.48475,0.286341,-0.0295937,0.010171,2.72322,5,0.1,9,3,3.74803,1.93874,0.602958,-0.866026,0.0399888,-0.00410229,0,0.0530481,-0.000685453,0.00861291,2.2703,5,0.1,10,3,1.1013,1.53498,0.604071,-0.0957966,-0.00748634,0.0236392,-0.0244379,0.0503063,-0.0146627,0.011901,0.331891,5,0.1,11,3,3.61625,-4.37355,0.5,-0.0144422,0.309455,-7.45058e-06,0.0100136,-0.203609,8.9407e-05,0.0126256,0.111711,5,0.1,12,3,-0.575139,0.170442,0.500001,0.287275,0.102036,-1.93715e-05,-0.182182,-0.169486,0.000178814,0.0106969,0.170163,5,0.1,13,3,4.14685,-2.24613,0.606189,0.390363,-0.0165403,-0.00993311,-0.217199,0.00977516,0.00596046,0.011242,0.0689079,5,0.1,14,3,-3.81114,1.7051,0.595123,-0.0311017,-0.0341505,-0.00111461,0.115156,0.126421,0.00414252,0.00980966,0.000598501,5,0.1,15,3,-0.0222285,2.36074,0.78784,-0.124926,0.770205,-0.00195652,-0.21283,-0.701189,-0.082314,0.0139036,1.41543,5,0.1,16,3,2.31029,-2.8353,0.606711,-0.740141,0.406712,-0.00628084,0.239491,-0.329256,0.0050962,0.0439844,0.621366,5,0.1,17,3,0.361997,-0.829704,0.623477,-0.163208,0.866026,-0.00575632,0.0262111,0,0.000834465,0.0294581,2.25465,5,0.1,18,3,1.01013,-3.69502,0.744226,-0.306167,-0.239736,0.00671148,0.177026,0.127912,-0.00402331,0.00921247,0.0788633,5,0.1,19,3,4.295,0.157928,0.599988,-0.0662923,-0.121443,-0.001432,-0.497341,-0.0877082,0.00923872,0.009604,0.401375,5,0.1,20,3,-1.04105,3.90855,0.653387,0.753894,-0.164515,-0.0321195,-0.12064,0.0281334,0.0386834,0.0277441,0.736102,5,0.1,21,3,-3.28646,-1.28654,0.60544,0.132066,0.745684,-0.00526458,-0.145197,-0.400007,0.00581145,0.0242876,0.260867,5,0.1,22,3,-2.61631,4.51476,0.815054,-0.866026,-0.483036,0.0536531,0,0.0870228,-0.00965595,0.0162089,1.85919,5,0.1,23,3,-2.93811,-5.83919,0.672703,0.720346,-0.0132918,0.233081,0.0116825,0.0257492,-0.133991,0.0119912,0.294408,5,0.1,24,3,-2.70637,3.98353,1.27969,0.157511,-0.292724,0.0683367,0.118613,0.524402,-0.0753999,0.0123223,0.801975,5,0.1,25,3,-1.51558,-2.43591,0.593048,0.312319,0.165427,0.00685602,-0.328541,0.145793,-0.00751019,0.0132233,0.159168,5,0.1,26,3,0.865586,1.51107,0.529842,-0.175603,-0.0632674,-0.0665113,-0.905037,0.244975,0.00149012,0.00718612,0.24405,5,0.1,27,3,0.98457,-2.40499,0.500002,-0.103427,0.0367939,1.49012e-06,0.206292,-0.19002,-8.9407e-05,0.0180485,0.284677,5,0.1,28,3,1.19089,1.93691,0.625319,0.866026,0.0112891,-0.00988841,0,-0.0596046,-0.0245869,0.0117401,1.41774,5,0.1,29,3,1.00164,4.60055,1.28194,0.00182688,0.00343323,0.154293,-0.0619292,0.00953674,-0.276685,0.0153755,0.745268,5,0.1
0,3.1,-0.188734,3.58842,0.596811,-0.279737,0.308217,0.00315122,0.264794,-0.298932,-0.00309199,0.00736732,0.136326,5,0.1,1,3.1,-1.99834,-2.40635,0.606894,-0.019115,-0.454476,-0.00676308,0.150643,0.145525,0.00676513,0.00940332,0.78917,5,0.1,2,3.1,3.60003,-4.02917,0.614626,0.000308454,0.304956,0.0775454,0.00891089,0.362769,0.18457,0.00880435,0.204034,5,0.1,3,3.1,-0.456313,1.60635,0.505562,-0.0627316,-0.364749,-0.031679,0.42383,0.493094,0.13059,0.0172042,1.15806,5,0.1,4,3.1,-3.1382,2.55292,0.602589,0.756806,-0.00282899,-0.00250116,-0.0458211,0.00277162,0.00248849,0.0119848,0.543395,5,0.1,5,3.1,0.446107,-3.87491,0.571358,-0.300899,-0.256476,-0.0252872,0.221111,-0.361115,0.0173487,0.0090459,0.238487,5,0.1,6,3.1,-1.34826,3.90508,1.31935,-0.0019541,-0.0096608,0.127585,0.00258535,0.262782,-0.00922382,0.0148482,3.15201,5,0.1,7,3.1,2.19803,-1.92432,0.597495,0.0018321,-0.500821,0.00501731,-0.0835061,-0.346236,0.0424348,0.0114826,1.96822,5,0.1,8,3.1,-2.07691,-3.74406,0.599343,-0.486439,0.114728,-0.011055,-1.61913,0.397533,-0.0402704,0.010171,2.72322,5,0.1,9,3.1,3.66143,1.94303,0.602542,-0.866026,0.0459589,-0.00422932,0,0.0614673,-0.00152737,0.00861291,2.2703,5,0.1,10,3.1,1.09106,1.53441,0.606338,-0.113436,-0.00450965,0.0214908,-0.289351,0.0125244,-0.0272989,0.011901,0.331891,5,0.1,11,3.1,3.61478,-4.34344,0.5,-0.0157665,0.294131,-1.11759e-06,-0.0308603,-0.120699,3.72529e-05,0.0126256,0.111711,5,0.1,12,3.1,-0.547205,0.179745,0.5,0.272244,0.0836022,-6.23986e-06,-0.131909,-0.194699,8.56817e-05,0.0106969,0.170163,5,0.1,13,3.1,4.18497,-2.24775,0.60522,0.373117,-0.0157781,-0.00946792,-0.148147,0.0063777,0.00389293,0.011242,0.0689079,5,0.1,14,3.1,-3.8137,1.70228,0.595031,-0.0205528,-0.0225702,-0.000735652,0.0955015,0.104822,0.00342354,0.00980966,0.000598501,5,0.1,15,3.1,-0.0357363,2.43391,0.787256,-0.144523,0.692908,-0.00945814,-0.170709,-0.735849,-0.0666082,0.0139036,1.41543,5,0.1,16,3.1,2.23723,-2.79618,0.606107,-0.722545,0.376341,-0.0058108,0.150084,-0.290394,0.00449643,0.0439844,0.621366,5,0.1,17,3.1,0.345739,-0.743101,0.622903,-0.162377,0.866026,-0.00573564,0.000433996,-3.72529e-06,-6.70552e-05,0.0294581,2.25465,5,0.1,18,3.1,0.980263,-3.7182,0.74488,-0.292181,-0.222174,0.00639912,0.118945,0.219494,-0.0025928,0.00921247,0.0788633,5,0.1,19,3.1,4.28561,0.145304,0.599886,-0.123338,-0.131172,-0.000653602,-0.608504,-0.0967951,0.00641495,0.009604,0.401375,5,0.1,20,3.1,-0.966146,3.89217,0.650177,0.744568,-0.163383,-0.0336607,-0.0999048,0.00424683,-0.0573732,0.0277441,0.736102,5,0.1,21,3.1,-3.27392,-1.2139,0.604941,0.119053,0.707133,-0.00474397,-0.119299,-0.392824,0.00476837,0.0242876,0.260867,5,0.1,22,3.1,-2.70291,4.46674,0.820388,-0.865948,-0.478183,0.0531148,0.00311434,0.0361502,-0.00401586,0.0162089,1.85919,5,0.1,23,3.1,-2.86621,-5.84041,0.69502,0.715257,-0.0110202,0.210424,-0.13037,0.020057,-0.304095,0.0119912,0.294408,5,0.1,24,3.1,-2.68971,3.95709,1.28617,0.178051,-0.234576,0.0615735,0.262409,0.613958,-0.0620484,0.0123223,0.801975,5,0.1,25,3.1,-1.48572,-2.41844,0.593702,0.28684,0.18534,0.00627516,-0.20019,0.228733,-0.00454113,0.0132233,0.159168,5,0.1,26,3.1,0.843667,1.50589,0.523284,-0.260486,-0.0410259,-0.0638418,-0.768278,0.198618,0.0491887,0.00718612,0.24405,5,0.1,27,3.1,0.975098,-2.40217,0.500002,-0.0874123,0.0204023,-4.74975e-06,0.122286,-0.137523,-3.35276e-05,0.0180485,0.284677,5,0.1,28,3.1,1.27749,1.93779,0.624214,0.86584,0.00651255,-0.0121462,-0.00742823,-0.0371039,-0.0198074,0.0117401,1.41774,5,0.1,29,3.1,1.00149,4.60104,1.29603,-0.00591669,0.00662357,0.127975,-0.127546,0.0285506,-0.250272,0.0153755,0.745268,5,0.1
0,3.2,-0.215283,3.61776,0.597111,-0.250281,0.278783,0.00284761,0.322565,-0.296712,-0.00303984,0.0101167,0.231237,5,0.1,1,3.2,-1.99961,-2.45126,0.606251,-0.00718534,-0.444615,-0.00610203,0.0900626,0.0839233,0.00658631,0.00810385,3.03153,5,0.1,2,3.2,3.60005,-3.99702,0.623256,-0.000119209,0.336039,0.0943556,-0.0146627,0.239253,0.143677,0.00906772,0.176793,5,0.1,3,3.2,-0.460559,1.57271,0.502994,-0.0232495,-0.305173,-0.020203,0.359714,0.674069,0.0993311,0.0198573,0.59716,5,0.1,4,3.2,-3.06298,2.55265,0.602351,0.744504,-0.00255704,-0.00225902,-0.223279,0.00274181,0.00241399,0.010511,1.03391,5,0.1,5,3.2,0.417147,-3.90218,0.568919,-0.277872,-0.286651,-0.02345,0.245839,-0.227809,0.019908,0.00879847,0.170433,5,0.1,6,3.2,-1.34845,3.90498,1.33203,-0.00170767,0.0025034,0.125533,0.00238419,-0.0448227,-0.0360608,0.0137919,3.58962,5,0.1,7,3.2,2.19784,-1.97614,0.598245,-0.00488758,-0.534657,0.0102341,-0.0420809,-0.28944,0.0574589,0.0101177,1.71885,5,0.1,8,3.2,-2.13329,-3.73061,0.598038,-0.635928,0.15375,-0.0149965,-1.3082,0.362277,-0.0365376,0.0127945,2.38772,5,0.1,9,3.2,3.57483,1.94791,0.602112,-0.866026,0.0514477,-0.00435263,0,0.0447631,-0.000685453,0.0087411,2.2696,5,0.1,10,3.2,1.0781,1.53398,0.608337,-0.146788,-0.0043869,0.0183642,-0.348032,-0.00756979,-0.0343919,0.0119477,0.240752,5,0.1,11,3.2,3.61302,-4.31461,0.5,-0.0196278,0.282228,0,-0.0420809,-0.130177,2.98023e-05,0.0120118,0.125697,5,0.1,12,3.2,-0.520647,0.187121,0.5,0.25859,0.0639036,0,-0.15074,-0.195704,2.98023e-05,0.0137736,0.152272,5,0.1,13,3.2,4.22152,-2.24929,0.604293,0.357258,-0.0151157,-0.00906289,-0.183344,0.0077486,0.00461936,0.0101137,0.0313416,5,0.1,14,3.2,-3.81532,1.70051,0.594973,-0.0120461,-0.0132293,-0.000430644,0.0745058,0.0818372,0.00268221,0.00982442,0.00034267,5,0.1,15,3.2,-0.0509165,2.5,0.786011,-0.157681,0.63377,-0.0150993,-0.0869578,-0.448585,-0.0455379,0.0121044,1.15352,5,0.1,16,3.2,2.16583,-2.76002,0.605548,-0.70371,0.346565,-0.00534952,0.25332,-0.31364,0.00485778,0.0396989,0.439849,5,0.1,17,3.2,0.329528,-0.656498,0.62233,-0.161406,0.866026,-0.00570863,0.0261217,0,0.000864267,0.0273738,2.25505,5,0.1,18,3.2,0.951652,-3.73919,0.745507,-0.279608,-0.196618,0.00612885,0.144005,0.287652,-0.00303984,0.0124006,0.141752,5,0.1,19,3.2,4.27029,0.131756,0.599848,-0.18189,-0.139082,-0.00013262,-0.537157,-0.0543073,0.00408292,0.0117606,0.31541,5,0.1,20,3.2,-0.892382,3.87588,0.646448,0.728172,-0.161988,-0.0414446,-0.251412,0.0305176,-0.0888705,0.0262911,0.220055,5,0.1,21,3.2,-3.2626,-1.14528,0.60449,0.107473,0.663483,-0.00428259,-0.115275,-0.494719,0.00464916,0.0210638,0.171639,5,0.1,22,3.2,-2.78947,4.41919,0.825669,-0.864786,-0.471342,0.0523552,0.0249147,0.118732,-0.0131726,0.014449,0.790867,5,0.1,23,3.2,-2.79568,-5.84141,0.714364,0.691599,-0.00920296,0.175011,-0.352859,0.0164509,-0.391722,0.0108134,1.45064,5,0.1,24,3.2,-2.67056,3.93669,1.29202,0.204802,-0.174093,0.0555515,0.250459,0.578642,-0.0599027,0.0123878,0.733688,5,0.1,25,3.2,-1.45796,-2.39879,0.594309,0.268951,0.207061,0.00587404,-0.171959,0.18847,-0.0038147,0.00837318,0.097655,5,0.1,26,3.2,0.814166,1.5027,0.517206,-0.325215,-0.0237048,-0.0571892,-0.510246,0.147581,0.0814497,0.00595882,0.203915,5,0.1,27,3.2,0.966885,-2.40073,0.500001,-0.0775069,0.00925064,-7.45058e-06,0.0821054,-0.0860691,2.98023e-05,0.0186831,0.280996,5,0.1,28,3.2,1.36397,1.93828,0.622913,0.863054,0.0036478,-0.013724,-0.0594258,-0.0212193,-0.0112355,0.0101003,1.71264,5,0.1,29,3.2,1,4.60172,1.30762,-0.0264227,0.00542402,0.104138,-0.275314,-0.0636578,-0.226796,0.0175963,0.676241,5,0.1
