id,t,px,py,pz,vx,vy,vz,ax,ay,az,planning_time,qp_cost,planning_report,size,id,t,px,py,pz,vx,vy,vz,ax,ay,az,planning_time,qp_cost,planning_report,size,id,t,px,py,pz,vx,vy,vz,ax,ay,az,planning_time,qp_cost,planning_report,size,id,t,px,py,pz,vx,vy,vz,ax,ay,az,planning_time,qp_cost,planning_report,size,id,t,px,py,pz,vx,vy,vz,ax,ay,az,planning_time,qp_cost,planning_report,size,id,t,px,py,pz,vx,vy,vz,ax,ay,az,planning_time,qp_cost,planning_report,size,id,t,px,py,pz,vx,vy,vz,ax,ay,az,planning_time,qp_cost,planning_report,size,id,t,px,py,pz,vx,vy,vz,ax,ay,az,planning_time,qp_cost,planning_report,size,id,t,px,py,pz,vx,vy,vz,ax,ay,az,planning_time,qp_cost,planning_report,size,id,t,px,py,pz,vx,vy,vz,ax,ay,az,planning_time,qp_cost,planning_report,size,id,t,px,py,pz,vx,vy,vz,ax,ay,az,planning_time,qp_cost,planning_report,size,id,t,px,py,pz,vx,vy,vz,ax,ay,az,planning_time,qp_cost,planning_report,size,id,t,px,py,pz,vx,vy,vz,ax,ay,az,planning_time,qp_cost,planning_report,size,id,t,px,py,pz,vx,vy,vz,ax,ay,az,planning_time,qp_cost,planning_report,size,id,t,px,py,pz,vx,vy,vz,ax,ay,az,planning_time,qp_cost,planning_report,size,id,t,px,py,pz,vx,vy,vz,ax,ay,az,planning_time,qp_cost,planning_report,size,id,t,px,py,pz,vx,vy,vz,ax,ay,az,planning_time,qp_cost,planning_report,size,id,t,px,py,pz,vx,vy,vz,ax,ay,az,planning_time,qp_cost,planning_report,size,id,t,px,py,pz,vx,vy,vz,ax,ay,az,planning_time,qp_cost,planning_report,size,id,t,px,py,pz,vx,vy,vz,ax,ay,az,planning_time,qp_cost,planning_report,size,id,t,px,py,pz,vx,vy,vz,ax,ay,az,planning_time,qp_cost,planning_report,size,id,t,px,py,pz,vx,vy,vz,ax,ay,az,planning_time,qp_cost,planning_report,size,id,t,px,py,pz,vx,vy,vz,ax,ay,az,planning_time,qp_cost,planning_report,size,id,t,px,py,pz,vx,vy,vz,ax,ay,az,planning_time,qp_cost,planning_report,size,id,t,px,py,pz,vx,vy,vz,ax,ay,az,planning_time,qp_cost,planning_report,size,id,t,px,py,pz,vx,vy,vz,ax,ay,az,planning_time,qp_cost,planning_report,size,id,t,px,py,pz,vx,vy,vz,ax,ay,az,planning_time,qp_cost,planning_report,size,id,t,px,py,pz,vx,vy,vz,ax,ay,az,planning_time,qp_cost,planning_report,size,id,t,px,py,pz,vx,vy,vz,ax,ay,az,planning_time,qp_cost,planning_report,size,id,t,px,py,pz,vx,vy,vz,ax,ay,az,planning_time,qp_cost,planning_report,size
0,0,-1.2171,4.97762,0.574995,0,0,0,0,0,0,0.0675798,2.66676,5,0.1,1,0,-3.682,4.93397,0.623133,0,0,0,0,0,0,0.0114561,1.6988,5,0.1,2,0,-1.59186,-3.22874,0.592533,0,0,0,0,0,0,0.0120712,2.80055,5,0.1,3,0,-2.59202,-3.12285,0.68189,0,0,0,0,0,0,0.0196376,0.736233,5,0.1,4,0,-0.328829,4.16742,0.622903,0,0,0,0,0,0,0.0313081,3.5122,5,0.1,5,0,1.67748,5.1375,0.690753,0,0,0,0,0,0,0.0200403,1.15399,5,0.1,6,0,-4.97244,-3.65899,0.660034,0,0,0,0,0,0,0.0262545,3.10522,5,0.1,7,0,1.85591,1.9028,0.644871,0,0,0,0,0,0,0.0201817,0.946556,5,0.1,8,0,4.74713,1.78322,0.591559,0,0,0,0,0,0,0.0343077,2.48065,5,0.1,9,0,3.94657,-1.6119,0.596758,0,0,0,0,0,0,0.0215992,0.576264,5,0.1,10,0,4.08681,-2.48451,0.581357,0,0,0,0,0,0,0.0147739,3.5122,5,0.1,11,0,3.16266,-3.48455,0.549317,0,0,0,0,0,0,0.0109576,0.377592,5,0.1,12,0,-0.111961,-0.788179,0.663311,0,0,0,0,0,0,0.0197751,3.18384,5,0.1,13,0,1.15495,1.99228,0.536009,0,0,0,0,0,0,0.0212109,3.21737,5,0.1,14,0,0.0997519,0.183344,0.579348,0,0,0,0,0,0,0.00941364,3.5122,5,0.1,15,0,0.193263,1.79372,0.517567,0,0,0,0,0,0,0.0195904,2.73965,5,0.1,16,0,-1.19037,-0.600304,0.610066,0,0,0,0,0,0,0.0117105,2.79176,5,0.1,17,0,-3.46914,-0.704951,0.575482,0,0,0,0,0,0,0.00829305,3.5122,5,0.1,18,0,-0.0889115,1.15466,0.512418,0,0,0,0,0,0,0.00917165,0.524857,5,0.1,19,0,2.01219,-0.268079,0.638306,0,0,0,0,0,0,0.0142068,0.938719,5,0.1,20,0,0.298793,-2.65367,0.50017,0,0,0,0,0,0,0.013633,0.448521,5,0.1,21,0,-0.431868,1.99533,0.682065,0,0,0,0,0,0,0.0294133,3.00929,5,0.1,22,0,4.89764,1.09516,0.607856,0,0,0,0,0,0,0.00912978,1.78876,5,0.1,23,0,4.75957,-0.90715,0.512607,0,0,0,0,0,0,0.0153504,0.78174,5,0.1,24,0,3.07707,-0.141695,0.61645,0,0,0,0,0,0,0.00860738,0.607004,5,0.1,25,0,1.66638,-3.10929,0.613921,0,0,0,0,0,0,0.0325854,0.957624,5,0.1,26,0,2.15319,-2.36776,0.665007,0,0,0,0,0,0,0.0103642,0.409573,5,0.1,27,0,-1.56006,1.89687,0.577417,0,0,0,0,0,0,0.0108585,3.5122,5,0.1,28,0,0.390008,-3.84562,0.633238,0,0,0,0,0,0,0.0132987,0.587249,5,0.1,29,0,0.155376,3.27988,0.658979,0,0,0,0,0,0,0.0127103,0.662497,5,0.1
0,0.1,-1.21598,4.97618,0.575021,0.0316227,-0.0408247,0.000741053,0.562184,-0.725746,0.0131764,0.0675798,2.66676,5,0.1,1,0.1,-3.68207,4.93273,0.623891,-0.00201501,-0.0350848,0.02154,-0.0358373,-0.623763,0.382937,0.0114561,1.6988,5,0.1,2,0.1,-1.59364,-3.22929,0.592541,-0.0506191,-0.0154469,0.000221375,-0.899903,-0.274613,0.00393763,0.0120712,2.80055,5,0.1,3,0.1,-2.5926,-3.12209,0.681961,-0.0165351,0.0214212,0.00201827,-0.29397,0.380814,0.0358783,0.0196376,0.736233,5,0.1,4,0.1,-0.330912,4.16728,0.622891,-0.0591367,-0.00393316,-0.000336953,-1.05132,-0.0698864,-0.00599027,0.0313081,3.5122,5,0.1,5,0.1,1.67745,5.13652,0.691441,-0.000814535,-0.0277825,0.0195364,-0.0144765,-0.493914,0.347309,0.0200403,1.15399,5,0.1,6,0.1,-4.97273,-3.65705,0.659971,-0.00822544,0.05509,-0.00177911,-0.14621,0.979379,-0.031624,0.0262545,3.10522,5,0.1,7,0.1,1.85491,1.90238,0.644824,-0.0283277,-0.0119368,-0.00132956,-0.503607,-0.2122,-0.0236407,0.0201817,0.946556,5,0.1,8,0.1,4.74672,1.78151,0.591568,-0.0117704,-0.0483988,0.000250153,-0.209212,-0.86043,0.004448,0.0343077,2.48065,5,0.1,9,0.1,3.94589,-1.61241,0.596761,-0.019161,-0.0144647,9.59262e-05,-0.340626,-0.257142,0.00170618,0.0215992,0.576264,5,0.1,10,0.1,4.08473,-2.48455,0.581278,-0.0592165,-0.00111237,-0.0022307,-1.05277,-0.0197589,-0.0396594,0.0147739,3.5122,5,0.1,11,0.1,3.1625,-3.48388,0.549279,-0.00460893,0.0188462,-0.00108955,-0.0819564,0.335068,-0.0193678,0.0109576,0.377592,5,0.1,12,0.1,-0.110905,-0.789862,0.663245,0.0299886,-0.0477649,-0.00187606,0.533131,-0.849158,-0.0333562,0.0197751,3.18384,5,0.1,13,0.1,1.15343,1.99098,0.536076,-0.0431161,-0.0368139,0.00189617,-0.766516,-0.654466,0.0337139,0.0212109,3.21737,5,0.1,14,0.1,0.099664,0.18543,0.579342,-0.00249522,0.0592154,-0.000185892,-0.0443589,1.05272,-0.00330061,0.00941364,3.5122,5,0.1,15,0.1,0.192591,1.792,0.517497,-0.0190625,-0.0487098,-0.00200225,-0.338889,-0.865959,-0.0355951,0.0195904,2.73965,5,0.1,16,0.1,-1.18853,-0.600628,0.610038,0.0520311,-0.009182,-0.000784732,0.925004,-0.163231,-0.0139549,0.0117105,2.79176,5,0.1,17,0.1,-3.46922,-0.707037,0.575512,-0.00203438,-0.0592274,0.00084471,-0.0361651,-1.05293,0.0150129,0.00829305,3.5122,5,0.1,18,0.1,-0.0881924,1.15502,0.512353,0.0204153,0.0102336,-0.00184989,0.362939,0.181936,-0.0328831,0.00917165,0.524857,5,0.1,19,0.1,2.01212,-0.267486,0.639206,-0.00184216,0.0168346,0.0255355,-0.0327677,0.299281,0.453968,0.0142068,0.938719,5,0.1,20,0.1,0.298325,-2.65309,0.500169,-0.0132997,0.0164077,-4.14439e-05,-0.236437,0.291675,-0.000733882,0.013633,0.448521,5,0.1,21,0.1,-0.43173,1.9934,0.682136,0.00390778,-0.0546845,0.00201333,0.0694711,-0.972174,0.0357926,0.0294133,3.00929,5,0.1,22,0.1,4.89692,1.09386,0.607848,-0.0206731,-0.036899,-0.000232831,-0.367552,-0.655994,-0.00413507,0.00912978,1.78876,5,0.1,23,0.1,4.75899,-0.90636,0.512541,-0.0165835,0.0224374,-0.00185529,-0.294805,0.398889,-0.03298,0.0153504,0.78174,5,0.1,24,0.1,3.07793,-0.141661,0.616393,0.0245672,0.000965851,-0.00160271,0.436768,0.0171708,-0.0284947,0.00860738,0.607004,5,0.1,25,0.1,1.66558,-3.10855,0.613906,-0.022711,0.0210185,-0.000412669,-0.403754,0.373676,-0.0073351,0.0325854,0.957624,5,0.1,26,0.1,2.15226,-2.36782,0.664886,-0.0265043,-0.00169873,-0.00342401,-0.470772,-0.03016,-0.0608154,0.0103642,0.409573,5,0.1,27,0.1,-1.55801,1.89725,0.577478,0.0582552,0.0107726,0.00172621,1.03565,0.191517,0.0306927,0.0108585,3.5122,5,0.1,28,0.1,0.389601,-3.84568,0.633986,-0.0115575,-0.00161231,0.0212408,-0.205468,-0.02864,0.377614,0.0132987,0.587249,5,0.1,29,0.1,0.154744,3.28053,0.658917,-0.0179398,0.0183776,-0.00174763,-0.31893,0.326693,-0.0310726,0.0127103,0.662497,5,0.1
0,0.2,-1.20956,4.96789,0.575172,0.0999421,-0.12902,0.00234246,0.749588,-0.967741,0.0175536,0.0697611,2.18795,5,0.1,1,0.2,-3.68248,4.92561,0.628267,-0.00636578,-0.110888,0.0680774,-0.0478029,-0.831842,0.510573,0.0123936,1.39377,5,0.1,2,0.2,-1.60392,-3.23242,0.592586,-0.159982,-0.0488162,0.000698864,-1.1999,-0.36633,0.00527501,0.0141241,2.2977,5,0.1,3,0.2,-2.59596,-3.11774,0.682371,-0.0522554,0.0677049,0.00637919,-0.392079,0.507593,0.0478625,0.0224091,0.604045,5,0.1,4,0.2,-0.342924,4.16648,0.622822,-0.186902,-0.0124335,-0.00106394,-1.40175,-0.0929832,-0.00801682,0.0330549,2.9258,5,0.1,5,0.2,1.67728,5.13088,0.695409,-0.00257492,-0.0878096,0.061743,-0.0192523,-0.658512,0.463128,0.022213,0.946792,5,0.1,6,0.2,-4.9744,-3.64586,0.65961,-0.0259995,0.174111,-0.0056237,-0.195026,1.30582,-0.0421405,0.0273145,2.54768,5,0.1,7,0.2,1.84915,1.89996,0.644554,-0.0895262,-0.0377268,-0.00420362,-0.671566,-0.282943,-0.0315011,0.018476,0.776598,5,0.1,8,0.2,4.74433,1.77168,0.591619,-0.0371933,-0.152963,0.000791252,-0.27895,-1.14727,0.00590086,0.0391865,2.03525,5,0.1,9,0.2,3.942,-1.61535,0.59678,-0.0605583,-0.0457168,0.000303984,-0.454068,-0.342786,0.00226498,0.0214982,0.472801,5,0.1,10,0.2,4.0727,-2.48478,0.580825,-0.187147,-0.00351667,-0.00704974,-1.40381,-0.026226,-0.0528991,0.0126301,2.92702,5,0.1,11,0.2,3.16156,-3.48005,0.549057,-0.0145674,0.0595689,-0.00344366,-0.109315,0.446677,-0.0258386,0.0105624,0.309796,5,0.1,12,0.2,-0.104813,-0.799564,0.662864,0.0947788,-0.150961,-0.00592917,0.710841,-1.13222,-0.0444651,0.0198324,2.61218,5,0.1,13,0.2,1.14467,1.98351,0.536461,-0.136268,-0.116351,0.00599325,-1.02198,-0.872612,0.0449419,0.0212549,2.6397,5,0.1,14,0.2,0.0991572,0.197459,0.579304,-0.00788607,0.18715,-0.000587106,-0.0591464,1.40361,-0.00441074,0.0108478,2.92579,5,0.1,15,0.2,0.188719,1.78211,0.51709,-0.0602469,-0.153947,-0.00632852,-0.451855,-1.15466,-0.0474453,0.0174612,2.28414,5,0.1,16,0.2,-1.17796,-0.602493,0.609879,0.164446,-0.02902,-0.00248104,1.23328,-0.217646,-0.0185966,0.0117721,2.2905,5,0.1,17,0.2,-3.46963,-0.719068,0.575684,-0.00643134,-0.187188,0.00267029,-0.0481606,-1.40387,0.0199974,0.00927003,2.9258,5,0.1,18,0.2,-0.0840455,1.1571,0.511977,0.0645224,0.0323445,-0.00584573,0.483919,0.242531,-0.0438392,0.00880733,0.430635,5,0.1,19,0.2,2.01175,-0.264067,0.644393,-0.00582337,0.0532053,0.0807047,-0.0437498,0.399038,0.605285,0.0116689,0.770172,5,0.1,20,0.2,0.295623,-2.64976,0.50016,-0.0420332,0.051856,-0.00013113,-0.315249,0.38898,-0.000983477,0.0118893,0.368436,5,0.1,21,0.2,-0.430936,1.9823,0.682545,0.0123501,-0.17283,0.0063628,0.0926405,-1.29628,0.0477135,0.0248962,2.46897,5,0.1,22,0.2,4.89272,1.08637,0.607801,-0.0653386,-0.116619,-0.000736117,-0.490189,-0.874639,-0.00551343,0.00861362,1.46758,5,0.1,23,0.2,4.75562,-0.901802,0.512164,-0.0524044,0.0709131,-0.00586361,-0.393152,0.531852,-0.0439882,0.0148175,0.641389,5,0.1,24,0.2,3.08292,-0.141465,0.616068,0.0776529,0.0030525,-0.0050649,0.582218,0.0228956,-0.037998,0.0104889,0.49802,5,0.1,25,0.2,1.66097,-3.10428,0.613822,-0.0717789,0.0664353,-0.00130385,-0.53829,0.498176,-0.00977516,0.0318408,0.785685,5,0.1,26,0.2,2.14688,-2.36816,0.664191,-0.0836134,-0.00535846,-0.0108033,-0.62561,-0.0400543,-0.0807643,0.0121794,0.287204,5,0.1,27,0.2,-1.54618,1.89944,0.577828,0.184116,0.0340462,0.00545532,1.38092,0.255346,0.0408888,0.0171076,2.92579,5,0.1,28,0.2,0.387254,-3.84601,0.638301,-0.036528,-0.00509024,0.0671297,-0.273943,-0.0382662,0.50351,0.0154212,0.481808,5,0.1,29,0.2,0.1511,3.28426,0.658562,-0.0566985,0.0580788,-0.00552386,-0.425249,0.435591,-0.0414252,0.0167508,0.543546,5,0.1
0,0.3,-1.19541,4.94961,0.575503,0.185927,-0.240029,0.00435645,0.917241,-1.18417,0.0214837,0.0697611,2.18795,5,0.1,1,0.3,-3.68338,4.9099,0.637909,-0.0118487,-0.206304,0.126646,-0.0584722,-1.01778,0.624776,0.0123936,1.39377,5,0.1,2,0.3,-1.62658,-3.23934,0.592685,-0.297623,-0.0908319,0.00130283,-1.46827,-0.448152,0.00643358,0.0141241,2.2977,5,0.1,3,0.3,-2.60337,-3.10815,0.683275,-0.0972264,0.125938,0.011869,-0.479698,0.621229,0.0585541,0.0224091,0.604045,5,0.1,4,0.3,-0.36941,4.16472,0.622671,-0.348116,-0.0231348,-0.00198465,-1.72272,-0.114411,-0.00983477,0.0330549,2.9258,5,0.1,5,0.3,1.67692,5.11844,0.704154,-0.00478476,-0.16335,0.114867,-0.0235885,-0.805795,0.566687,0.022213,0.946792,5,0.1,6,0.3,-4.97809,-3.6212,0.658813,-0.0483684,0.323903,-0.0104588,-0.238627,1.59793,-0.0515804,0.0273145,2.54768,5,0.1,7,0.3,1.83647,1.89462,0.643959,-0.166559,-0.0701834,-0.00781789,-0.821725,-0.346228,-0.0385568,0.018476,0.776598,5,0.1,8,0.3,4.73906,1.75002,0.591731,-0.0691935,-0.284567,0.00146898,-0.341356,-1.40388,0.00723824,0.0391865,2.03525,5,0.1,9,0.3,3.93342,-1.62182,0.596823,-0.112649,-0.0850409,0.000564381,-0.555724,-0.419512,0.00277907,0.0214982,0.472801,5,0.1,10,0.3,4.04617,-2.48519,0.579914,-0.348631,-0.0041917,-0.0106231,-1.72585,0.00938773,-0.0203811,0.0126301,2.92702,5,0.1,11,0.3,3.1595,-3.47162,0.54857,-0.027106,0.11081,-0.00640722,-0.133723,0.546619,-0.0316091,0.0105624,0.309796,5,0.1,12,0.3,-0.0913899,-0.820945,0.662024,0.17632,-0.280838,-0.01103,0.86984,-1.38546,-0.054419,0.0198324,2.61218,5,0.1,13,0.3,1.12537,1.96703,0.53731,-0.253502,-0.21645,0.0111489,-1.25059,-1.0678,0.0550002,0.0212549,2.6397,5,0.1,14,0.3,0.0980397,0.223979,0.579221,-0.0146884,0.348579,-0.00109402,-0.0726893,1.72502,-0.0054203,0.0108478,2.92579,5,0.1,15,0.3,0.180351,1.76085,0.516195,-0.1074,-0.270898,-0.0117274,-0.469729,-1.13736,-0.0572801,0.0174612,2.28414,5,0.1,16,0.3,-1.15467,-0.606603,0.609527,0.305919,-0.0539865,-0.00461452,1.50917,-0.266336,-0.0227615,0.0117721,2.2905,5,0.1,17,0.3,-3.47054,-0.745594,0.576062,-0.0119727,-0.348647,0.00497112,-0.0592321,-1.72534,0.0245906,0.00927003,2.9258,5,0.1,18,0.3,-0.0749071,1.16168,0.511161,0.120033,0.0601672,-0.0105454,0.592161,0.296816,-0.0477955,0.00880733,0.430635,5,0.1,19,0.3,2.01092,-0.256531,0.655823,-0.0108395,0.0989796,0.150138,-0.0535101,0.488295,0.740677,0.0116689,0.770172,5,0.1,20,0.3,0.28967,-2.64242,0.500143,-0.0781958,0.0964746,-0.000210106,-0.385763,0.475943,-0.000603497,0.0118893,0.368436,5,0.1,21,0.3,-0.429187,1.95782,0.683446,0.0229765,-0.321526,0.0118363,0.113355,-1.5862,0.0583865,0.0248962,2.46897,5,0.1,22,0.3,4.88346,1.06985,0.607697,-0.121564,-0.216951,-0.00136886,-0.599742,-1.07028,-0.00675023,0.00861362,1.46758,5,0.1,23,0.3,4.74819,-0.891759,0.511344,-0.0974998,0.131922,-0.0106153,-0.481069,0.650816,-0.0485964,0.0148175,0.641389,5,0.1,24,0.3,3.09392,-0.141033,0.61535,0.144444,0.00567888,-0.0094234,0.712529,0.028016,-0.0464879,0.0104889,0.49802,5,0.1,25,0.3,1.6508,-3.09487,0.613638,-0.133528,0.123584,-0.00242516,-0.658721,0.609636,-0.0119656,0.0318408,0.785685,5,0.1,26,0.3,2.13512,-2.36892,0.662672,-0.153223,-0.00981614,-0.0197915,-0.726894,-0.0465512,-0.0938699,0.0121794,0.287204,5,0.1,27,0.3,-1.52009,1.90427,0.578601,0.342932,0.0634138,0.0101588,1.69709,0.313818,0.0502653,0.0171076,2.92579,5,0.1,28,0.3,0.38208,-3.84673,0.647808,-0.0679527,-0.00947751,0.124887,-0.335226,-0.0467747,0.616115,0.0154212,0.481808,5,0.1,29,0.3,0.14307,3.29248,0.65778,-0.105479,0.108046,-0.0102758,-0.520362,0.533029,-0.0506938,0.0167508,0.543546,5,0.1
0,0.4,-1.17231,4.91979,0.576044,0.274202,-0.353992,0.00642538,0.809193,-1.04475,0.0189245,0.0686324,1.73112,5,0.1,1,0.4,-3.68486,4.88427,0.653642,-0.0174701,-0.304246,0.186774,-0.0517368,-0.898123,0.551224,0.0116943,1.10275,5,0.1,2,0.4,-1.66356,-3.25062,0.592847,-0.438926,-0.133961,0.00192225,-1.29539,-0.395298,0.00566244,0.0180345,1.81796,5,0.1,3,0.4,-2.61544,-3.09251,0.684749,-0.143391,0.185728,0.0175029,-0.423193,0.548005,0.0516772,0.0193165,0.477929,5,0.1,4,0.4,-0.412689,4.16185,0.622424,-0.514096,-0.0341654,-0.00293106,-1.52321,-0.101328,-0.00870228,0.0317158,2.51519,5,0.1,5,0.4,1.67632,5.09815,0.718424,-0.00705719,-0.240898,0.169404,-0.0207424,-0.710964,0.499934,0.0209437,0.749111,5,0.1,6,0.4,-4.98409,-3.58097,0.657514,-0.0713348,0.477684,-0.0154242,-0.210285,1.40977,-0.0455081,0.0269778,2.01575,5,0.1,7,0.4,1.81578,1.8859,0.642988,-0.24564,-0.103503,-0.0115275,-0.724852,-0.305474,-0.0340641,0.0188811,0.61445,5,0.1,8,0.4,4.73046,1.71467,0.591913,-0.102043,-0.41967,0.00216663,-0.301123,-1.23858,0.0063777,0.0362474,1.61031,5,0.1,9,0.4,3.91943,-1.63238,0.596893,-0.166124,-0.125414,0.000831485,-0.490427,-0.370145,0.00247359,0.0209803,0.524366,5,0.1,10,0.4,4.00283,-2.48553,0.578791,-0.514925,-0.00224113,-0.0114635,-1.52624,0.0270605,0.00202656,0.013269,2.51636,5,0.1,11,0.4,3.15613,-3.45785,0.547774,-0.0399768,0.163418,-0.00944883,-0.117898,0.482321,-0.027895,0.0121606,0.245115,5,0.1,12,0.4,-0.0694858,-0.855833,0.660654,0.260033,-0.414173,-0.0162661,0.767402,-1.22231,-0.0480413,0.0167571,2.06678,5,0.1,13,0.4,1.09388,1.94014,0.538695,-0.373858,-0.319213,0.0164419,-1.10328,-0.942111,0.0485182,0.0211455,2.08864,5,0.1,14,0.4,0.0962136,0.267316,0.579085,-0.0216918,0.51478,-0.00161529,-0.0642687,1.52524,-0.00482798,0.0089895,2.51547,5,0.1,15,0.4,0.167378,1.72842,0.514742,-0.150502,-0.373387,-0.0172198,-0.37688,-0.879109,-0.0502169,0.0205374,2.06354,5,0.1,16,0.4,-1.11667,-0.61331,0.608954,0.451159,-0.0796169,-0.00680387,1.33151,-0.234991,-0.0201166,0.0101833,1.81227,5,0.1,17,0.4,-3.47203,-0.788939,0.57668,-0.0176787,-0.51488,0.00734031,-0.0524521,-1.52555,0.0217557,0.0110318,2.51552,5,0.1,18,0.4,-0.0599955,1.16916,0.509877,0.177022,0.0887334,-0.0149965,0.522425,0.261843,-0.0395477,0.00878888,0.341537,5,0.1,19,0.4,2.00957,-0.244235,0.674475,-0.015986,0.145973,0.221419,-0.0472069,0.430793,0.653446,0.0114992,0.609369,5,0.1,20,0.4,0.279956,-2.63043,0.500119,-0.115322,0.142276,-0.00025332,-0.340328,0.419974,-0.000268221,0.0137775,0.292031,5,0.1,21,0.4,-0.426333,1.91787,0.684916,0.0338852,-0.474179,0.0174552,0.100017,-1.3994,0.0515282,0.0229773,2.03081,5,0.1,22,0.4,4.86836,1.0429,0.607527,-0.179279,-0.319955,-0.00201911,-0.529289,-0.944197,-0.00593066,0.0121404,1.16117,5,0.1,23,0.4,4.73608,-0.87537,0.510049,-0.14379,0.194556,-0.015159,-0.424623,0.574201,-0.0405312,0.0139411,0.518504,5,0.1,24,0.4,3.11186,-0.140327,0.61418,0.213021,0.0083752,-0.0138983,0.628591,0.0247136,-0.041008,0.0104982,0.394043,5,0.1,25,0.4,1.63422,-3.07952,0.613337,-0.196922,0.182253,-0.00357628,-0.581205,0.537872,-0.01055,0.0290312,0.621645,5,0.1,26,0.4,2.11627,-2.37012,0.660237,-0.222123,-0.0142336,-0.0286892,-0.621915,-0.0396967,-0.0803769,0.00979004,0.190389,5,0.1,27,0.4,-1.47745,1.91215,0.579864,0.506443,0.0936478,0.0150025,1.50049,0.277519,0.0444651,0.0099517,2.51251,5,0.1,28,0.4,0.373639,-3.8479,0.663323,-0.100215,-0.0139832,0.184181,-0.295758,-0.0411272,0.543535,0.0113469,0.381211,5,0.1,29,0.4,0.129967,3.30591,0.656503,-0.155558,0.159347,-0.0151545,-0.459075,0.470161,-0.0447333,0.0148862,0.43006,5,0.1
0,0.5,-1.14077,4.87907,0.576783,0.356303,-0.459991,0.00834633,0.792556,-1.0232,0.0185519,0.0686324,1.73112,5,0.1,1,0.5,-3.68687,4.84927,0.675126,-0.022715,-0.395361,0.242701,-0.0505894,-0.879526,0.53988,0.0116943,1.10275,5,0.1,2,0.5,-1.71404,-3.26603,0.593068,-0.570354,-0.174067,0.0024965,-1.26871,-0.387132,0.00554323,0.0180345,1.81796,5,0.1,3,0.5,-2.63194,-3.07115,0.686762,-0.186326,0.241333,0.0227455,-0.414446,0.536799,0.0506043,0.0193165,0.477929,5,0.1,4,0.5,-0.471702,4.15791,0.622087,-0.664269,-0.0445925,-0.00382569,-1.41191,-0.101835,-0.00873208,0.0317158,2.51519,5,0.1,5,0.5,1.67551,5.07044,0.73791,-0.00916403,-0.313033,0.220127,-0.0203624,-0.696301,0.489641,0.0209437,0.749111,5,0.1,6,0.5,-4.9923,-3.52602,0.65574,-0.0926726,0.620718,-0.020042,-0.206023,1.38076,-0.0445805,0.0269778,2.01575,5,0.1,7,0.5,1.78753,1.87399,0.641661,-0.319183,-0.134496,-0.0149828,-0.709936,-0.299178,-0.0333525,0.0188811,0.61445,5,0.1,8,0.5,4.71873,1.66639,0.592163,-0.132596,-0.545336,0.00281436,-0.294924,-1.21307,0.00625476,0.0362474,1.61031,5,0.1,9,0.5,3.90016,-1.64681,0.596989,-0.220326,-0.16297,0.0010822,-0.55933,-0.36253,0.00242144,0.0209803,0.524366,5,0.1,10,0.5,3.94373,-2.48559,0.577681,-0.665164,0.00124574,-0.0104995,-1.4105,0.0401735,0.0159815,0.013269,2.51636,5,0.1,11,0.5,3.15153,-3.43905,0.546687,-0.0519395,0.212353,-0.0122787,-0.115484,0.472382,-0.0273138,0.0121606,0.245115,5,0.1,12,0.5,-0.0395754,-0.903473,0.658782,0.337893,-0.538189,-0.0211396,0.751612,-1.19716,-0.0470392,0.0167571,2.06678,5,0.1,13,0.5,1.05088,1.90345,0.540586,-0.485798,-0.414024,0.0213648,-1.08061,-0.908963,0.0475235,0.0211455,2.08864,5,0.1,14,0.5,0.0937139,0.326402,0.578898,-0.0283053,0.66498,-0.00211112,-0.0645998,1.41066,-0.00483543,0.0089895,2.51547,5,0.1,15,0.5,0.150324,1.68764,0.512801,-0.191137,-0.433143,-0.0212786,-0.410785,-0.337347,-0.0307523,0.0205374,2.06354,5,0.1,16,0.5,-1.06478,-0.622468,0.608171,0.586253,-0.103459,-0.00884412,1.3041,-0.230152,-0.0196882,0.0101833,1.81227,5,0.1,17,0.5,-3.47407,-0.848035,0.577526,-0.0230748,-0.665085,0.00957921,-0.0527054,-1.41048,0.0218675,0.0110318,2.51552,5,0.1,18,0.5,-0.0396351,1.1793,0.508227,0.22998,0.113649,-0.0175571,0.510845,0.227109,-0.0128523,0.00878888,0.341537,5,0.1,19,0.5,2.00774,-0.227444,0.699944,-0.0207748,0.189681,0.287718,-0.0462085,0.421928,0.640001,0.0114992,0.609369,5,0.1,20,0.5,0.266691,-2.61407,0.500093,-0.149851,0.184884,-0.000260584,-0.333328,0.411302,9.68575e-05,0.0137775,0.292031,5,0.1,21,0.5,-0.422435,1.86419,0.686924,0.0440325,-0.591824,0.0226831,0.0979491,-0.938825,0.0504628,0.0229773,2.03081,5,0.1,22,0.5,4.84774,1.0061,0.607294,-0.232974,-0.415502,-0.00262139,-0.518292,-0.920318,-0.00582263,0.0121404,1.16117,5,0.1,23,0.5,4.71954,-0.853307,0.508355,-0.186867,0.243866,-0.0184288,-0.415802,0.403639,-0.0237525,0.0139411,0.518504,5,0.1,24,0.5,3.13637,-0.139364,0.612581,0.276801,0.0108827,-0.018059,0.615701,0.024206,-0.0401624,0.0104982,0.394043,5,0.1,25,0.5,1.61156,-3.05855,0.612925,-0.255891,0.236826,-0.00464683,-0.569239,0.526786,-0.0103377,0.0290312,0.621645,5,0.1,26,0.5,2.09109,-2.37174,0.656972,-0.27949,-0.01808,-0.036471,-0.506476,-0.0355989,-0.071995,0.00979004,0.190389,5,0.1,27,0.5,-1.41925,1.92294,0.581593,0.656306,0.122205,0.0195782,1.42584,0.278927,0.0446923,0.0099517,2.51251,5,0.1,28,0.5,0.362111,-3.84951,0.684508,-0.130222,-0.0181578,0.239328,-0.289675,-0.0402927,0.532355,0.0113469,0.381211,5,0.1,29,0.5,0.112073,3.32423,0.65476,-0.202136,0.207052,-0.0196928,-0.449629,0.460535,-0.0438094,0.0148862,0.43006,5,0.1
0,0.6,-1.10147,4.82834,0.577704,0.425854,-0.549781,0.00997484,0.570118,-0.735998,0.0133216,0.0642753,1.28886,5,0.1,1,0.6,-3.68937,4.80567,0.701891,-0.0271559,-0.472546,0.290078,-0.0363588,-0.632524,0.388354,0.0108417,0.820949,5,0.1,2,0.6,-1.77694,-3.28523,0.593343,-0.681689,-0.208044,0.00298321,-0.912666,-0.278354,0.00396371,0.012582,1.35342,5,0.1,3,0.6,-2.65249,-3.04453,0.689271,-0.222695,0.288445,0.0271857,-0.298142,0.386119,0.0363886,0.0213859,0.35581,5,0.1,4,0.6,-0.544552,4.15298,0.621663,-0.785205,-0.0536203,-0.00459999,-0.962406,-0.0748634,-0.0063777,0.0334483,2.33278,5,0.1,5,0.6,1.6745,5.03592,0.762186,-0.0109494,-0.374138,0.263095,-0.0147223,-0.500917,0.352234,0.0190197,0.557693,5,0.1,6,0.6,-5.00252,-3.45756,0.65353,-0.110757,0.741887,-0.0239536,-0.148296,0.993252,-0.0320971,0.0287686,2.33961,5,0.1,7,0.6,1.75233,1.85916,0.640009,-0.381485,-0.160754,-0.0179097,-0.510752,-0.215173,-0.0239611,0.02132,0.457442,5,0.1,8,0.6,4.7041,1.60625,0.592473,-0.158477,-0.651789,0.00336468,-0.212431,-0.872612,0.00447035,0.0358194,1.19883,5,0.1,9,0.6,3.87545,-1.66478,0.597109,-0.272077,-0.194785,0.00129491,-0.45085,-0.26077,0.00172853,0.0201782,0.400227,5,0.1,10,0.6,3.8708,-2.48526,0.576726,-0.785828,0.0053525,-0.00849962,-0.958562,0.0399351,0.0230372,0.0138741,2.33521,5,0.1,11,0.6,3.1458,-3.41564,0.545333,-0.0620723,0.253808,-0.0146762,-0.0832081,0.339866,-0.0196397,0.0122945,0.182482,5,0.1,12,0.6,-0.00231155,-0.962826,0.656451,0.403851,-0.643244,-0.0252679,0.540693,-0.861168,-0.0338554,0.0177627,1.53867,5,0.1,13,0.6,0.9973,1.85786,0.542943,-0.580627,-0.49333,0.0255346,-0.777394,-0.645638,0.0342131,0.0185375,1.64881,5,0.1,14,0.6,0.0905828,0.399313,0.578665,-0.0340309,0.785689,-0.00253916,-0.0475049,0.95944,-0.00357628,0.0101974,2.35237,5,0.1,15,0.6,0.129269,1.64339,0.510553,-0.228356,-0.444925,-0.0233516,-0.315614,0.082314,-0.0107884,0.0166236,1.84823,5,0.1,16,0.6,-1.00012,-0.633877,0.607196,0.700694,-0.123656,-0.0105724,0.938147,-0.165522,-0.0141263,0.0116796,1.34988,5,0.1,17,0.6,-3.47662,-0.920956,0.578586,-0.0277519,-0.785761,0.0115186,-0.0386238,-0.959009,0.0160635,0.0130444,2.33433,5,0.1,18,0.6,-0.0142765,1.19168,0.506443,0.274781,0.132588,-0.017795,0.366981,0.145376,0.00703335,0.0120499,0.255674,5,0.1,19,0.6,2.00544,-0.206526,0.731674,-0.0248313,0.226707,0.343882,-0.0331402,0.303529,0.460386,0.0119855,0.45366,5,0.1,20,0.6,0.250165,-2.59368,0.500068,-0.179102,0.220972,-0.000239909,-0.239789,0.295877,0.000357628,0.0128961,0.218046,5,0.1,21,0.6,-0.417579,1.80117,0.689426,0.0526279,-0.659832,0.0271112,0.0704676,-0.414848,0.036329,0.0239819,1.83483,5,0.1,22,0.6,4.82204,0.960304,0.607005,-0.278461,-0.496116,-0.00313222,-0.372648,-0.659376,-0.00420213,0.00933279,0.956635,5,0.1,23,0.6,4.69893,-0.827239,0.506428,-0.223339,0.274003,-0.0197545,-0.299454,0.194579,-0.00229478,0.0149575,0.439256,5,0.1,24,0.6,3.16689,-0.138164,0.610589,0.330836,0.0130072,-0.0215843,0.442863,0.0174046,-0.0288785,0.00947703,0.293361,5,0.1,25,0.6,1.58334,-3.03244,0.612413,-0.305843,0.283056,-0.00555366,-0.409484,0.378966,-0.00745058,0.0324431,0.4628,5,0.1,26,0.6,2.06092,-2.37371,0.653,-0.320286,-0.0210822,-0.0425383,-0.297308,-0.023365,-0.0471473,0.00863498,0.159413,5,0.1,27,0.6,-1.34709,1.93646,0.583759,0.779778,0.146925,0.0235394,0.996053,0.205159,0.032872,0.0117328,2.31835,5,0.1,28,0.6,0.34775,-3.85151,0.710902,-0.155643,-0.0217021,0.286044,-0.208378,-0.0288486,0.38299,0.0122954,0.283803,5,0.1,29,0.6,0.0897813,3.34707,0.652588,-0.241593,0.247467,-0.0235379,-0.323452,0.331283,-0.0315011,0.0120919,0.320172,5,0.1
0,0.7,-1.05608,4.76978,0.578766,0.480784,-0.619672,0.0112377,0.496745,-0.623107,0.0112355,0.0642753,1.28886,5,0.1,1,0.7,-3.69227,4.75531,0.732808,-0.0306454,-0.533269,0.327361,-0.0314265,-0.54726,0.336003,0.0108417,0.820949,5,0.1,2,0.7,-1.8496,-3.3074,0.593661,-0.769308,-0.234769,0.00336403,-0.78962,-0.240833,0.00343099,0.012582,1.35342,5,0.1,3,0.7,-2.67622,-3.01379,0.692168,-0.251316,0.325517,0.0306788,-0.257939,0.334129,0.0314824,0.0213859,0.35581,5,0.1,4,0.7,-0.626825,4.14723,0.621171,-0.850265,-0.061135,-0.00524046,-0.365548,-0.0706911,-0.00602379,0.0334483,2.33278,5,0.1,5,0.7,1.67333,4.99604,0.790227,-0.0123624,-0.422227,0.296911,-0.0127405,-0.433385,0.304747,0.0190197,0.557693,5,0.1,6,0.7,-5.01421,-3.37905,0.65091,-0.121885,0.821559,-0.0289225,-0.0730455,0.58499,-0.0613295,0.0287686,2.33961,5,0.1,7,0.7,1.71167,1.84203,0.6381,-0.430518,-0.181412,-0.0202102,-0.441894,-0.186183,-0.0207312,0.02132,0.457442,5,0.1,8,0.7,4.68721,1.53678,0.592831,-0.178868,-0.735563,0.00379467,-0.183731,-0.754975,0.00388548,0.0358194,1.19883,5,0.1,9,0.7,3.84596,-1.68554,0.597247,-0.317332,-0.219821,0.00146087,-0.427842,-0.225633,0.00149012,0.0201782,0.400227,5,0.1,10,0.7,3.78848,-2.48452,0.575999,-0.850483,0.00956431,-0.00597015,-0.361845,0.0423193,0.0266656,0.0138741,2.33521,5,0.1,11,0.7,3.13919,-3.38858,0.543768,-0.0700589,0.286436,-0.0165616,-0.0719577,0.294045,-0.016991,0.0122945,0.182482,5,0.1,12,0.7,0.0407305,-1.03138,0.653758,0.455759,-0.72592,-0.0285175,0.467803,-0.74508,-0.0292808,0.0177627,1.53867,5,0.1,13,0.7,0.935417,1.8064,0.545664,-0.65526,-0.525763,0.0288188,-0.672601,-0.0403821,0.0295974,0.0185375,1.64881,5,0.1,14,0.7,0.0868421,0.481605,0.578422,-0.0415494,0.850185,-0.00207331,-0.0937474,0.362661,0.0112876,0.0101974,2.35237,5,0.1,15,0.7,0.104817,1.60028,0.50821,-0.26053,-0.409919,-0.0230804,-0.306692,0.52765,0.014551,0.0166236,1.84823,5,0.1,16,0.7,-0.925533,-0.647056,0.606069,0.788143,-0.139547,-0.0119288,0.764843,-0.143211,-0.0122301,0.0116796,1.34988,5,0.1,17,0.7,-3.47959,-1.00327,0.579819,-0.0316311,-0.85046,0.0131314,-0.0365227,-0.362229,0.0151731,0.0130444,2.33433,5,0.1,18,0.7,0.0150059,1.20569,0.504727,0.310039,0.147463,-0.0162669,0.317942,0.141114,0.0222176,0.0120499,0.255674,5,0.1,19,0.7,2.0028,-0.182364,0.768324,-0.0280133,0.255847,0.388081,-0.0286922,0.26261,0.398327,0.0119855,0.45366,5,0.1,20,0.7,0.231076,-2.57013,0.500046,-0.202123,0.249376,-0.000198372,-0.207466,0.255957,0.000461936,0.0128961,0.218046,5,0.1,21,0.7,-0.41197,1.73451,0.692315,0.0593928,-0.660895,0.0305983,0.0609607,0.331774,0.0314228,0.0239819,1.83483,5,0.1,22,0.7,4.79237,0.908507,0.606671,-0.314236,-0.529687,-0.00353586,-0.322431,-0.0493266,-0.00363588,0.00933279,0.956635,5,0.1,23,0.7,4.67513,-0.799451,0.504479,-0.252078,0.276548,-0.018868,-0.258893,-0.118583,0.0197962,0.0149575,0.439256,5,0.1,24,0.7,3.20215,-0.136778,0.608289,0.373354,0.0146783,-0.0243569,0.383213,0.0150604,-0.0249892,0.00947703,0.293361,5,0.1,25,0.7,1.55075,-3.00227,0.611821,-0.345155,0.31944,-0.00626883,-0.354283,0.3279,-0.00644848,0.0324431,0.4628,5,0.1,26,0.7,2.0281,-2.37593,0.64853,-0.329806,-0.0231165,-0.0466413,0.0853539,-0.0163466,-0.0329353,0.00863498,0.159413,5,0.1,27,0.7,-1.26518,1.95219,0.586279,0.848381,0.167515,0.0268383,0.397846,0.193648,0.0310317,0.0117328,2.31835,5,0.1,28,0.7,0.331162,-3.85383,0.741389,-0.175648,-0.0244752,0.322812,-0.180289,-0.0250041,0.331353,0.0122954,0.283803,5,0.1,29,0.7,0.0640327,3.37344,0.65008,-0.272645,0.279272,-0.0265623,-0.279848,0.286639,-0.0272617,0.0120919,0.320172,5,0.1
0,0.8,-1.00585,4.70514,0.579938,0.519879,-0.667942,0.0121057,0.263661,-0.316143,0.00566244,0.0595662,1.14321,5,0.1,1,0.8,-3.69547,4.69962,0.766994,-0.0331044,-0.576162,0.353706,-0.0165701,-0.287533,0.1764,0.0122454,0.579631,5,0.1,2,0.8,-1.92994,-3.33192,0.594012,-0.831217,-0.253654,0.0036329,-0.41461,-0.126362,0.00178814,0.0201326,0.960261,5,0.1,3,0.8,-2.70247,-2.9798,0.695372,-0.271541,0.351715,0.0331461,-0.135303,0.175476,0.0165403,0.0176284,0.251226,5,0.1,4,0.8,-0.712946,4.14081,0.62062,-0.866026,-0.0669599,-0.00573695,0,-0.0424385,-0.00360608,0.0323783,2.26844,5,0.1,5,0.8,1.67204,4.95195,0.821233,-0.0133634,-0.456214,0.320803,-0.00667572,-0.227451,0.160038,0.0193236,0.393759,5,0.1,6,0.8,-5.02664,-3.2947,0.647703,-0.125229,0.858206,-0.0351772,0.0064373,0.156403,-0.0593662,0.0229681,2.26726,5,0.1,7,0.8,1.66671,1.82308,0.63599,-0.465164,-0.19601,-0.0218347,-0.232041,-0.097692,-0.0109076,0.0197152,0.322978,5,0.1,8,0.8,4.66853,1.45997,0.593228,-0.193262,-0.794753,0.00409931,-0.0967979,-0.39643,0.00205636,0.03614,0.863186,5,0.1,9,0.8,3.8123,-1.7085,0.597399,-0.353169,-0.23751,0.00157803,-0.270844,-0.118554,0.000804663,0.0203601,0.30451,5,0.1,10,0.8,3.70235,-2.48336,0.575535,-0.866026,0.0134706,-0.00332296,0,0.0343323,0.02563,0.0117843,2.27175,5,0.1,11,0.8,3.13187,-3.35867,0.542039,-0.0756979,0.309491,-0.0178948,-0.0379086,0.154376,-0.00888109,0.0122273,0.12884,5,0.1,12,0.8,0.0883261,-1.10719,0.65078,0.492436,-0.784335,-0.0308126,0.245653,-0.391304,-0.015378,0.0154279,1.08639,5,0.1,13,0.8,0.866987,1.75437,0.548674,-0.707993,-0.50818,0.0311404,-0.353217,0.361741,0.015527,0.02041,1.06438,5,0.1,14,0.8,0.0822038,0.567719,0.578284,-0.0511847,0.866026,-0.000570714,-0.0921302,0,0.0175536,0.0096478,2.36963,5,0.1,15,0.8,0.0773875,1.56209,0.506005,-0.286102,-0.353619,-0.0207514,-0.189995,0.546396,0.030607,0.0193514,1.63482,5,0.1,16,0.8,-0.843485,-0.661629,0.604824,0.846143,-0.150776,-0.012888,0.365913,-0.0751913,-0.0063777,0.0132876,0.970927,5,0.1,17,0.8,-3.48292,-1.08939,0.581199,-0.0346363,-0.866026,0.0143796,-0.0218153,0,0.00914931,0.0085436,2.27084,5,0.1,18,0.8,0.047383,1.22106,0.503227,0.334978,0.158939,-0.0135913,0.167146,0.0807643,0.0302196,0.00985598,0.650693,5,0.1,19,0.8,1.99987,-0.155645,0.808852,-0.0302613,0.276436,0.419311,-0.01508,0.137903,0.209153,0.0111048,0.32031,5,0.1,20,0.8,0.209968,-2.54408,0.500029,-0.218389,0.269443,-0.000150502,-0.108942,0.134349,0.000476837,0.0108871,0.154684,5,0.1,21,0.8,-0.405767,1.6709,0.695511,0.0641726,-0.604445,0.0330627,0.0320077,0.74923,0.0164807,0.0255337,1.65765,5,0.1,22,0.8,4.75955,0.856046,0.606302,-0.339508,-0.512749,-0.00382066,-0.169277,0.357777,-0.00193715,0.00923645,0.779629,5,0.1,23,0.8,4.6488,-0.772737,0.502724,-0.272381,0.254746,-0.0159055,-0.13566,-0.297964,0.0385344,0.0164559,0.369439,5,0.1,24,0.8,3.24114,-0.135245,0.605745,0.403398,0.0158593,-0.0263155,0.201344,0.00790507,-0.0131428,0.00891328,0.207137,5,0.1,25,0.8,1.5147,-2.96891,0.611166,-0.372934,0.345141,-0.00677407,-0.185966,0.172377,-0.00336766,0.0292976,0.326764,5,0.1,26,0.8,1.99603,-2.3783,0.643737,-0.307259,-0.0241935,-0.0488028,0.34672,-0.00441074,-0.00905991,0.00876396,0.135538,5,0.1,27,0.8,-1.17912,1.96981,0.589101,0.866026,0.183457,0.029394,0,0.116289,0.0186265,0.0133845,2.24554,5,0.1,28,0.8,0.312819,-3.85638,0.775101,-0.189783,-0.0264406,0.34879,-0.094682,-0.013113,0.174016,0.0129406,0.20038,5,0.1,29,0.8,0.0355599,3.40261,0.647306,-0.294586,0.301749,-0.0286981,-0.146953,0.150561,-0.0143349,0.0137554,0.226061,5,0.1
0,0.9,-0.952609,4.63667,0.581019,0.543687,-0.701365,0.00818139,0.187743,-0.309885,-0.0748597,0.0595662,1.14321,5,0.1,1,0.9,-3.69886,4.64063,0.803206,-0.0346042,-0.602214,0.369691,-0.0118315,-0.205934,0.126354,0.0122454,0.579631,5,0.1,2,0.9,-2.01469,-3.35789,0.594384,-0.859329,-0.265105,0.00379523,-0.145599,-0.0905246,0.00128523,0.0201326,0.960261,5,0.1,3,0.9,-2.73027,-2.94379,0.698766,-0.283802,0.367618,0.0346446,-0.0969023,0.125751,0.0118464,0.0176284,0.251226,5,0.1,4,0.9,-0.799549,4.13389,0.620028,-0.866026,-0.0713415,-0.00610966,3.72529e-06,-0.0406802,-0.00346452,0.0323783,2.26844,5,0.1,5,0.9,1.67068,4.90524,0.854077,-0.0139687,-0.476824,0.335304,-0.00478327,-0.162929,0.114635,0.0193236,0.393759,5,0.1,6,0.9,-5.03909,-3.2084,0.643859,-0.123363,0.865537,-0.041875,0.0332296,0.0195503,-0.0695027,0.0229681,2.26726,5,0.1,7,0.9,1.61909,1.80301,0.633754,-0.486189,-0.204863,-0.0228228,-0.166208,-0.0699833,-0.00780821,0.0197152,0.322978,5,0.1,8,0.9,4.64873,1.37899,0.593645,-0.202576,-0.819707,0.00422494,-0.079006,-0.0889599,0.000398606,0.03614,0.863186,5,0.1,9,0.9,3.77603,-1.73282,0.597561,-0.368414,-0.248252,0.00165077,-0.0367314,-0.0849217,0.00057742,0.0203601,0.30451,5,0.1,10,0.9,3.61575,-2.48184,0.575331,-0.866026,0.0169236,-0.000776444,0,0.0330061,0.0246502,0.0117843,2.27175,5,0.1,11,0.9,3.12412,-3.32699,0.540207,-0.0791315,0.323481,-0.0186997,-0.027135,0.110582,-0.00636652,0.0122273,0.12884,5,0.1,12,0.9,0.138741,-1.18749,0.647625,0.514696,-0.819792,-0.0322058,0.175959,-0.280283,-0.0110082,0.0154279,1.08639,5,0.1,13,0.9,0.794697,1.70597,0.551872,-0.734494,-0.454992,0.0328219,-0.155129,0.653304,0.0159964,0.02041,1.06438,5,0.1,14,0.9,0.0762549,0.654167,0.578352,-0.0707713,0.860754,0.00221459,-0.271419,-0.130273,0.0353195,0.0096478,2.36963,5,0.1,15,0.9,0.0478364,1.52937,0.5041,-0.304401,-0.30414,-0.017209,-0.15934,0.353791,0.0390187,0.0193514,1.63482,5,0.1,16,0.9,-0.757713,-0.677066,0.603504,0.863969,-0.15759,-0.0134665,0.0409409,-0.0538602,-0.00457838,0.0132876,0.970927,5,0.1,17,0.9,-3.48649,-1.176,0.582685,-0.0368915,-0.866026,0.0153238,-0.0209808,0,0.00876188,0.0085436,2.27084,5,0.1,18,0.9,0.0809619,1.23626,0.502025,0.3298,0.13569,-0.0104191,-0.241392,-0.484928,0.0323728,0.00985598,0.650693,5,0.1,19,0.9,1.99677,-0.127344,0.851781,-0.0316277,0.288932,0.438264,-0.0107884,0.0987784,0.149824,0.0111048,0.32031,5,0.1,20,0.9,0.18761,-2.5165,0.500016,-0.228261,0.281617,-0.000104122,-0.0780364,0.0962466,0.000439584,0.0108871,0.154684,5,0.1,21,0.9,-0.399197,1.61486,0.698896,0.0670728,-0.511898,0.0345562,0.0229254,1.01787,0.0118017,0.0255337,1.65765,5,0.1,22,0.9,4.72479,0.807256,0.605911,-0.354847,-0.457721,-0.00399603,-0.121206,0.679839,-0.00138208,0.00923645,0.779629,5,0.1,23,0.9,4.62092,-0.749039,0.501349,-0.284672,0.217248,-0.0114026,-0.097096,-0.417195,0.0499599,0.0164559,0.369439,5,0.1,24,0.9,3.28244,-0.133621,0.603051,0.421643,0.0165758,-0.0275063,0.144243,0.0056643,-0.00941381,0.00891328,0.207137,5,0.1,25,0.9,1.47652,-2.93357,0.610473,-0.389786,0.360759,-0.00707954,-0.133216,0.123471,-0.00241399,0.0292976,0.326764,5,0.1,26,0.9,1.96736,-2.38073,0.638829,-0.263356,-0.0243645,-0.0491585,0.512399,0.00156462,0.00309572,0.00876396,0.135538,5,0.1,27,0.9,-1.09252,1.98875,0.592137,0.866026,0.195456,0.0313161,0,0.111371,0.0178367,0.0133845,2.24554,5,0.1,28,0.9,0.293389,-3.85909,0.81081,-0.198362,-0.0276312,0.364558,-0.0678189,-0.00941753,0.124641,0.0129406,0.20038,5,0.1,29,0.9,0.00540037,3.4335,0.644368,-0.307902,0.315391,-0.0299969,-0.105262,0.107855,-0.0102706,0.0137554,0.226061,5,0.1
0,1,-0.897592,4.56528,0.581393,0.553314,-0.722742,-0.00120997,-0.0115633,-0.0886917,-0.105649,0.0667897,2.19779,5,0.1,1,1,-3.70236,4.5797,0.840612,-0.0352085,-0.61276,0.376163,0.000715256,0.0133514,-0.00816584,0.00906684,0.394159,5,0.1,2,1,-2.10092,-3.38471,0.594768,-0.861305,-0.269741,0.00386089,0.0946522,0.00584126,-8.9407e-05,0.0108698,0.744715,5,0.1,3,1,-2.75898,-2.90659,0.702271,-0.288767,0.374055,0.0352517,0.0064373,-0.00786781,-0.00077486,0.0222052,0.170849,5,0.1,4,1,-0.886151,4.12659,0.619402,-0.866026,-0.0743389,-0.00636429,0,-0.015974,-0.00137091,0.0324442,2.26809,5,0.1,5,1,1.66926,4.857,0.888003,-0.0142157,-0.48517,0.341175,0.000357628,0.0104904,-0.00736117,0.0200826,0.267773,5,0.1,6,1,-5.0512,-3.12181,0.639341,-0.11822,0.866026,-0.0482008,0.0710487,0,-0.053376,0.0259474,1.05996,5,0.1,7,1,1.56989,1.78229,0.631445,-0.494701,-0.208449,-0.0232235,0.0106096,0.00458956,0.000506639,0.0199366,0.350931,5,0.1,8,1,4.62817,1.29717,0.594067,-0.207317,-0.810555,0.00417084,-0.00834465,0.278294,-0.00154972,0.0347029,0.645701,5,0.1,9,1,3.73937,-1.75793,0.597728,-0.361204,-0.252604,0.00167936,0.176668,0.00548363,0,0.0209728,0.422851,5,0.1,10,1,3.52915,-2.47999,0.575371,-0.866026,0.0197828,0.00149608,0,0.0228882,0.0203252,0.0164519,2.27158,5,0.1,11,1,3.11611,-3.29426,0.538315,-0.0805199,0.329143,-0.0190258,0.00166893,-0.00715256,0.000447035,0.0133212,0.148367,5,0.1,12,1,0.190818,-1.27044,0.644366,0.523709,-0.834149,-0.0327691,-0.0113094,0.0180006,0.000685453,0.0171285,0.738781,5,0.1,13,1,0.720942,1.6639,0.55522,-0.735559,-0.385448,0.0339851,0.146776,0.706971,0.00575185,0.0174966,0.818348,5,0.1,14,1,0.0677159,0.739212,0.57876,-0.100502,0.835937,0.00599325,-0.301698,-0.381529,0.0381172,0.00838859,2.47432,5,0.1,15,1,0.0167615,1.5,0.50258,-0.31518,-0.290376,-0.0131667,-0.0449914,-0.0641942,0.040859,0.0180374,1.39292,5,0.1,16,1,-0.671406,-0.693011,0.602142,0.859345,-0.160348,-0.0137001,-0.133574,0.00345707,0.000327826,0.0114357,0.683198,5,0.1,17,1,-3.49027,-1.2626,0.584254,-0.038439,-0.866026,0.0159696,-0.00822544,0,0.00345707,0.0134708,2.27073,5,0.1,18,1,0.112262,1.24689,0.501143,0.292093,0.0728399,-0.00726432,-0.488136,-0.724018,0.0301003,0.00819645,0.339112,5,0.1,19,1,1.99357,-0.0981096,0.896125,-0.0321805,0.293992,0.445938,0.000655651,-0.00635564,-0.00962615,0.0116654,0.217823,5,0.1,20,1,0.164514,-2.488,0.500008,-0.232258,0.286543,-6.4075e-05,0.00502169,-0.00631809,0.000357628,0.0136974,0.180254,5,0.1,21,1,-0.392411,1.56868,0.702392,0.0682466,-0.413921,0.0351593,-0.00147521,0.894845,-0.000745058,0.0224231,1.51393,5,0.1,22,1,4.68889,0.765014,0.605507,-0.361061,-0.386834,-0.00406802,0.00810623,0.700295,8.9407e-05,0.00979508,0.897003,5,0.1,23,1,4.59211,-0.729378,0.500464,-0.289643,0.176743,-0.00629276,0.00667572,-0.373423,0.0500083,0.0140086,0.480123,5,0.1,24,1,3.32511,-0.131944,0.600268,0.429034,0.0168659,-0.0279889,-0.00917912,-0.000365078,0.000596046,0.009159,0.140862,5,0.1,25,1,1.43708,-2.89707,0.609756,-0.396609,0.367081,-0.00720173,0.00858307,-0.0077486,0.000119209,0.034825,0.22221,5,0.1,26,1,1.94373,-2.38315,0.633956,-0.208196,-0.0237882,-0.0480056,0.575423,0.0101328,0.020653,0.0107159,0.326772,5,0.1,27,1,-1.00592,2.00877,0.595344,0.866024,0.203645,0.0326291,2.98023e-05,0.0439882,0.00703335,0.0121468,2.24294,5,0.1,28,1,0.273318,-3.86188,0.847696,-0.201837,-0.0281155,0.370942,0.00436604,0.000596046,-0.00801682,0.0114171,0.136265,5,0.1,29,1,-0.0257532,3.46541,0.641332,-0.313293,0.320917,-0.0305235,0.00676572,-0.00679493,0.000655651,0.0117874,0.244125,5,0.1
0,1.1,-0.842058,4.49189,0.580839,0.558992,-0.74971,-0.00898456,0.0869408,-0.377119,-0.0525825,0.0667897,2.19779,5,0.1,1,1.1,-3.70587,4.51852,0.878171,-0.0350568,-0.610062,0.374511,0.00362098,0.0630319,-0.0386424,0.00906684,0.394159,5,0.1,2,1.1,-2.18663,-3.4118,0.595153,-0.852527,-0.273003,0.00384348,0.115737,-0.0513196,-0.000398606,0.0108698,0.744715,5,0.1,3,1.1,-2.78781,-2.86924,0.705791,-0.287484,0.372433,0.0350961,0.0297725,-0.0382513,-0.00363216,0.0222052,0.170849,5,0.1,4,1.1,-0.972754,4.11906,0.618758,-0.866026,-0.0762805,-0.00653071,0,-0.0184178,-0.00158325,0.0324442,2.26809,5,0.1,5,1.1,1.66784,4.80856,0.922069,-0.01415,-0.483041,0.33968,0.00148267,0.0497997,-0.0350289,0.0200826,0.267773,5,0.1,6,1.1,-5.06275,-3.03522,0.634323,-0.113469,0.865569,-0.0514946,0.0318885,-0.0182837,-0.0132881,0.0259474,1.05996,5,0.1,7,1.1,1.52034,1.76147,0.629126,-0.496983,-0.207529,-0.0231211,-0.0282675,0.0214428,0.00238791,0.0199366,0.350931,5,0.1,8,1.1,4.60743,1.21793,0.594473,-0.207043,-0.770001,0.00394257,0.020355,0.529766,-0.00298396,0.0347029,0.645701,5,0.1,9,1.1,3.70459,-1.78316,0.597896,-0.330339,-0.251495,0.0016748,0.420883,0.0259504,-0.000152737,0.0209728,0.422851,5,0.1,10,1.1,3.44255,-2.4779,0.57562,-0.866026,0.0220764,0.00344152,0,0.0213832,0.0180639,0.0164519,2.27158,5,0.1,11,1.1,3.10802,-3.26116,0.536402,-0.0817735,0.334248,-0.0193186,-0.0201911,0.0824183,-0.00475347,0.0133212,0.148367,5,0.1,12,1.1,0.24311,-1.35373,0.641094,0.521413,-0.830493,-0.032627,-0.0537653,0.085637,0.00335276,0.0171285,0.738781,5,0.1,13,1.1,0.64803,1.62886,0.55864,-0.722792,-0.316736,0.0343085,0.139121,0.627145,-0.000339001,0.0174966,0.818348,5,0.1,14,1.1,0.0564275,0.820329,0.579679,-0.12266,0.781075,0.0134294,-0.145314,-0.701591,0.101071,0.00838859,2.47432,5,0.1,15,1.1,-0.0150922,1.4701,0.501464,-0.322462,-0.311799,-0.00920314,-0.0797061,-0.316605,0.0376999,0.0180374,1.39292,5,0.1,16,1.1,-0.586016,-0.709021,0.600774,0.848714,-0.159646,-0.0136378,-0.117101,0.0164546,0.00141934,0.0114357,0.683198,5,0.1,17,1.1,-3.49416,-1.3492,0.585872,-0.0394419,-0.866026,0.016389,-0.00953674,0,0.00397861,0.0134708,2.27073,5,0.1,18,1.1,0.139199,1.25012,0.500558,0.248148,-0.0112547,-0.00453712,-0.398245,-0.911258,0.0242852,0.00819645,0.339112,5,0.1,19,1.1,1.99036,-0.0687547,0.940651,-0.0320423,0.292703,0.443984,0.00327826,-0.0301868,-0.0457801,0.0116654,0.217823,5,0.1,20,1.1,0.141161,-2.45919,0.500003,-0.235863,0.29098,-3.33413e-05,-0.058176,0.0717044,0.00025332,0.0136974,0.180254,5,0.1,21,1.1,-0.385597,1.53146,0.705903,0.0679471,-0.335525,0.0350061,-0.00701286,0.590645,-0.00360236,0.0224231,1.51393,5,0.1,22,1.1,4.65284,0.729801,0.6051,-0.359454,-0.31992,-0.00404986,0.0372827,0.559248,0.000420958,0.00979508,0.897003,5,0.1,23,1.1,4.5632,-0.713496,0.500067,-0.288337,0.143056,-0.00191303,0.0300705,-0.249539,0.0346936,0.0140086,0.480123,5,0.1,24,1.1,3.36794,-0.13026,0.597473,0.427161,0.016792,-0.0278668,-0.0439882,-0.0017304,0.0028722,0.009159,0.140862,5,0.1,25,1.1,1.39748,-2.86042,0.609037,-0.394869,0.365485,-0.00717314,0.0407174,-0.0375807,0.00071153,0.034825,0.22221,5,0.1,26,1.1,1.92579,-2.38552,0.629269,-0.15093,-0.023875,-0.0456113,0.558257,-0.00868738,0.0278726,0.0107159,0.326772,5,0.1,27,1.1,-0.919316,2.02939,0.598648,0.866026,0.208943,0.0334767,0,0.0499636,0.0079982,0.0121468,2.24294,5,0.1,28,1.1,0.253165,-3.86469,0.884734,-0.200952,-0.0279948,0.369315,0.0207247,0.00286102,-0.0380911,0.0114171,0.136265,5,0.1,29,1.1,-0.0571919,3.49746,0.638285,-0.316365,0.319521,-0.0303901,-0.0468604,-0.0328571,0.00313297,0.0117874,0.244125,5,0.1
0,1.2,-0.785818,4.41506,0.579747,0.564158,-0.78541,-0.0122398,-0.010848,-0.283241,-0.0148714,0.0616267,1.70892,5,0.1,1,1.2,-3.70935,4.45806,0.915287,-0.0342727,-0.59644,0.366154,0.0127554,0.224113,-0.137568,0.00908483,0.262094,5,0.1,2,1.2,-2.27104,-3.43932,0.595534,-0.832325,-0.276613,0.00375807,0.311971,-0.00679493,-0.00140071,0.0107514,0.514511,5,0.1,3,1.2,-2.8163,-2.83233,0.709269,-0.28106,0.364137,0.0343114,0.105619,-0.136733,-0.0128746,0.0191628,0.113608,5,0.1,4,1.2,-1.05936,4.11136,0.618099,-0.866026,-0.0772715,-0.00661612,0,0.00166893,0.000149012,0.0353683,2.26803,5,0.1,5,1.2,1.66644,4.76068,0.955733,-0.0138342,-0.472271,0.332101,0.00524521,0.177622,-0.124723,0.017479,0.178055,5,0.1,6,1.2,-5.07395,-2.9489,0.629168,-0.110471,0.858712,-0.0510305,0.0340939,-0.14627,0.0216067,0.0245297,0.771619,5,0.1,7,1.2,1.47063,1.74091,0.626835,-0.495601,-0.202897,-0.0226051,0.0755191,0.0762939,0.00849366,0.0170535,0.394991,5,0.1,8,1.2,4.58692,1.14397,0.594851,-0.202179,-0.705436,0.00358224,0.0813007,0.756145,-0.00417233,0.0372312,0.504961,5,0.1,9,1.2,3.67393,-1.80808,0.598062,-0.280666,-0.245881,0.00163913,0.555992,0.0923276,-0.000625849,0.0187311,0.398581,5,0.1,10,1.2,3.35594,-2.4756,0.576047,-0.866026,0.0237942,0.0050202,0,0.0119209,0.0131726,0.012872,2.27147,5,0.1,11,1.2,3.09975,-3.22736,0.534449,-0.0834286,0.341004,-0.0197083,-0.00798702,0.0333786,-0.00190735,0.0137276,0.0883812,5,0.1,12,1.2,0.294785,-1.43603,0.637861,0.50978,-0.811964,-0.0318989,-0.19151,0.304997,0.0119507,0.0145309,0.491249,5,0.1,13,1.2,0.576638,1.6,0.562052,-0.702593,-0.263903,0.0337437,0.285685,0.430703,-0.0115931,0.0206236,1.11342,5,0.1,14,1.2,0.043666,0.894501,0.581566,-0.130358,0.698419,0.0245243,-0.0127479,-0.9377,0.113487,0.0118086,2.26264,5,0.1,15,1.2,-0.0476536,1.43724,0.500722,-0.327549,-0.345367,-0.00574291,-0.00723302,-0.319004,0.031054,0.0189352,1.14264,5,0.1,16,1.2,-0.501957,-0.724843,0.599423,0.829516,-0.156085,-0.0133321,-0.292912,0.058651,0.00497699,0.0115899,0.472422,5,0.1,17,1.2,-3.49814,-1.4358,0.587525,-0.039959,-0.866026,0.0166044,0.000834465,0,-0.000327826,0.00924081,2.27071,5,0.1,18,1.2,0.162121,1.24445,0.500215,0.211136,-0.101265,-0.0024274,-0.347584,-0.854015,0.0178814,0.00717889,0.252431,5,0.1,19,1.2,1.98719,-0.0397462,0.984653,-0.0313312,0.286172,0.434078,0.0118017,-0.107503,-0.163049,0.0101789,0.147946,5,0.1,20,1.2,0.117307,-2.42976,0.500001,-0.240633,0.296855,-1.19209e-05,-0.0235587,0.0290871,0.000119209,0.0122403,0.126328,5,0.1,21,1.2,-0.378863,1.5,0.709372,0.0664309,-0.302231,0.0342265,-0.0249594,0.0932813,-0.0128746,0.00701547,0.519187,5,0.1,22,1.2,4.61722,0.7,0.604699,-0.351417,-0.282189,-0.00396073,0.132084,0.202,0.00151992,0.00789982,0.743683,5,0.1,23,1.2,4.53462,-0.7,0.5,-0.281882,0.1312,0,0.106335,0.00527501,0,0.0168602,0.617864,5,0.1,24,1.2,3.41028,-0.128596,0.594712,0.417638,0.0164174,-0.0272453,-0.156879,-0.00616163,0.0102222,0.0103425,0.158949,5,0.1,25,1.2,1.35835,-2.82419,0.608326,-0.386059,0.357336,-0.00701398,0.145018,-0.13411,0.0025928,0.0344062,0.235129,5,0.1,26,1.2,1.91338,-2.38796,0.624864,-0.0985116,-0.0249743,-0.0423327,0.482202,-0.010848,0.0379682,0.0114608,0.323182,5,0.1,27,1.2,-0.832714,2.05046,0.602025,0.866026,0.211596,0.0339016,0,-0.00500679,-0.000804663,0.0124437,2.24261,5,0.1,28,1.2,0.23325,-3.86747,0.921335,-0.196468,-0.0273705,0.361075,0.0738129,0.010252,-0.13566,0.0106154,0.147551,5,0.1,29,1.2,-0.0890079,3.52912,0.635273,-0.319009,0.3124,-0.0297129,0.00919044,-0.117302,0.0112057,0.0125327,0.286593,5,0.1
0,1.3,-0.729635,4.33524,0.578485,0.557435,-0.808582,-0.0126626,-0.13455,-0.14931,0.00504404,0.0616267,1.70892,5,0.1,1,1.3,-3.71271,4.39951,0.95123,-0.0330083,-0.574284,0.352556,0.0135899,0.237554,-0.145782,0.00908483,0.262094,5,0.1,2,1.3,-2.35279,-3.46708,0.595903,-0.802681,-0.278955,0.0036194,0.309452,-0.0244677,-0.00148639,0.0107514,0.514511,5,0.1,3,1.3,-2.84389,-2.79658,0.712637,-0.27062,0.35062,0.0330382,0.111923,-0.144929,-0.0136532,0.0191628,0.113608,5,0.1,4,1.3,-1.14596,4.10362,0.617436,-0.866026,-0.0776321,-0.00664629,0,-0.00447035,-0.00037998,0.0353683,2.26803,5,0.1,5,1.3,1.66508,4.71432,0.988334,-0.0133174,-0.454718,0.31977,0.00552088,0.188172,-0.132207,0.017479,0.178055,5,0.1,6,1.3,-5.08487,-2.86356,0.624202,-0.108282,0.84895,-0.0480131,0.0160038,-0.0913292,0.0382997,0.0245297,0.771619,5,0.1,7,1.3,1.42121,1.72099,0.624616,-0.49425,-0.195357,-0.0217652,-0.0162348,0.080809,0.0090003,0.0170535,0.394991,5,0.1,8,1.3,4.56715,1.07717,0.595189,-0.192752,-0.630721,0.00317842,0.110239,0.74558,-0.00394881,0.0372312,0.504961,5,0.1,9,1.3,3.64875,-1.83222,0.598223,-0.222131,-0.236753,0.00157729,0.601247,0.0978708,-0.000663102,0.0187311,0.398581,5,0.1,10,1.3,3.26934,-2.47316,0.576613,-0.866026,0.0250459,0.00626268,0,0.0115931,0.0112094,0.012872,2.27147,5,0.1,11,1.3,3.09135,-3.19305,0.532466,-0.0844024,0.345051,-0.0199408,-0.00730157,0.0303388,-0.00174716,0.0137276,0.0883812,5,0.1,12,1.3,0.344827,-1.51574,0.634729,0.490848,-0.781813,-0.0307167,-0.202963,0.323251,0.0126883,0.0145309,0.491249,5,0.1,13,1.3,0.507718,1.57572,0.565367,-0.676053,-0.222147,0.0325131,0.270072,0.403635,-0.013914,0.0206236,1.11342,5,0.1,14,1.3,0.0307563,0.959717,0.584816,-0.125852,0.606539,0.0422505,0.105856,-0.899918,0.221025,0.0118086,2.26264,5,0.1,15,1.3,-0.0805734,1.40064,0.500289,-0.331584,-0.390001,-0.00306256,-0.0520486,-0.52052,0.0224262,0.0189352,1.14264,5,0.1,16,1.3,-0.420363,-0.740165,0.598114,0.802626,-0.150288,-0.0128399,-0.275793,0.0621527,0.00528619,0.0115899,0.472422,5,0.1,17,1.3,-3.50215,-1.52241,0.589188,-0.0401512,-0.866026,0.0166851,-0.00241399,0,0.0010021,0.00924081,2.27071,5,0.1,18,1.3,0.182052,1.23029,0.50005,0.192181,-0.17908,-0.000967458,-0.064604,-0.68716,0.0115633,0.00717889,0.252431,5,0.1,19,1.3,1.98411,-0.0118213,1.02726,-0.0301646,0.270817,0.41796,0.0125095,-0.197987,-0.172798,0.0101789,0.147946,5,0.1,20,1.3,0.0930613,-2.40005,0.5,-0.244546,0.296202,-2.70084e-06,-0.0403291,-0.0477135,6.33299e-05,0.0122403,0.126328,5,0.1,21,1.3,-0.372853,1.47088,0.713165,0.0494713,-0.274545,0.0452464,-0.283675,0.42922,0.20469,0.00701547,0.519187,5,0.1,22,1.3,4.58272,0.672015,0.60431,-0.338362,-0.283878,-0.00381116,0.139952,-0.181723,0.00159442,0.00789982,0.743683,5,0.1,23,1.3,4.50695,-0.686691,0.5,-0.271378,0.136206,0,0.112474,0.079181,0,0.0168602,0.617864,5,0.1,24,1.3,3.45152,-0.126975,0.592021,0.409112,0.0160828,-0.02669,-0.0423938,-0.00166055,0.00276417,0.0103425,0.158949,5,0.1,25,1.3,1.32045,-2.78896,0.607637,-0.371724,0.34852,-0.00675675,0.153683,-0.0631809,0.00276417,0.0344062,0.235129,5,0.1,26,1.3,1.90579,-2.39048,0.620823,-0.0548776,-0.0251997,-0.038439,0.383317,0.00588596,0.0402629,0.0114608,0.323182,5,0.1,27,1.3,-0.746111,2.07166,0.60542,0.866026,0.212459,0.0340397,-3.72529e-06,0.0104606,0.00167266,0.0124437,2.24261,5,0.1,28,1.3,0.213807,-3.87015,0.956779,-0.193617,-0.0263572,0.347664,-0.000800937,0.0108778,-0.14377,0.0106154,0.147551,5,0.1,29,1.3,-0.121013,3.55979,0.632356,-0.32203,0.300803,-0.028606,-0.0476795,-0.12435,0.0118576,0.0125327,0.286593,5,0.1
0,1.4,-0.67484,4.25407,0.577268,0.535551,-0.810218,-0.0114828,-0.309169,0.136852,0.0173748,0.063809,0.917417,5,0.1,1,1.4,-3.71594,4.34341,0.985668,-0.0313759,-0.545859,0.335106,0.0196695,0.343323,-0.210673,0.0149797,0.172514,5,0.1,2,1.4,-2.43132,-3.49502,0.596257,-0.765657,-0.278854,0.00344217,0.450015,0.0373125,-0.00217557,0.0147778,0.349113,5,0.1,3,1.4,-2.87033,-2.76234,0.715864,-0.25723,0.333267,0.0314027,0.161886,-0.209451,-0.0196993,0.0175029,0.127357,5,0.1,4,1.4,-1.23256,4.09586,0.616771,-0.866026,-0.0774264,-0.00662953,0,0.0116825,0.00104308,0.0263123,2.26813,5,0.1,5,1.4,1.66378,4.66991,1.01957,-0.012657,-0.432205,0.303948,0.00798702,0.271797,-0.191212,0.0203364,0.117204,5,0.1,6,1.4,-5.09561,-2.77931,0.619616,-0.106204,0.833261,-0.0434682,0.0300407,-0.251651,0.0520647,0.0219683,0.543832,5,0.1,7,1.4,1.37177,1.70191,0.62249,-0.493312,-0.185686,-0.0206873,0.0579357,0.116765,0.0129938,0.0183209,0.287147,5,0.1,8,1.4,4.54849,1.01786,0.595487,-0.17966,-0.555149,0.00278354,0.153303,0.770181,-0.00393391,0.0315588,0.404748,5,0.1,9,1.4,3.62953,-1.85534,0.598377,-0.162786,-0.22504,0.00149757,0.575423,0.141561,-0.000953674,0.0172307,0.386009,5,0.1,10,1.4,3.18274,-2.4706,0.577289,-0.866026,0.0258565,0.00718236,0,0.00357628,0.00691414,0.0131985,1.15865,5,0.1,11,1.4,3.08291,-3.15851,0.53047,-0.0841737,0.344169,-0.0198901,0.0146627,-0.0596046,0.00345707,0.0108475,0.0669047,5,0.1,12,1.4,0.392773,-1.59211,0.631729,0.466555,-0.743121,-0.0291973,-0.293359,0.4673,0.0183582,0.0141632,0.323348,5,0.1,13,1.4,0.441604,1.55547,0.568539,-0.644388,-0.183311,0.0308141,0.380174,0.372529,-0.0205934,0.0179188,2.14426,5,0.1,14,1.4,0.0189092,1.01593,0.590189,-0.109026,0.518429,0.0652432,0.229306,-0.862241,0.223935,0.0128206,1.98997,5,0.1,15,1.4,-0.113922,1.35907,0.50008,-0.334297,-0.440246,-0.00126213,0.0129676,-0.445247,0.0137091,0.00711125,0.911916,5,0.1,16,1.4,-0.341657,-0.754845,0.596859,0.769163,-0.142848,-0.0122055,-0.414491,0.0897944,0.00762939,0.0105606,0.320686,5,0.1,17,1.4,-3.50616,-1.60901,0.590858,-0.0400543,-0.866026,0.0166431,0.00596046,0,-0.00247359,0.0088527,2.27074,5,0.1,18,1.4,0.20119,1.20932,0.500003,0.192358,-0.236252,-6.70552e-05,0.0426471,-0.446796,0.00664592,0.009561,0.58107,5,0.1,19,1.4,1.98116,0.0141335,1.06809,-0.0286698,0.246965,0.397274,0.0180006,-0.276762,-0.249743,0.010249,0.192765,5,0.1,20,1.4,0.0684738,-2.37083,0.5,-0.246254,0.28646,1.49012e-06,0.016233,-0.149965,2.98023e-05,0.0114464,0.146365,5,0.1,21,1.4,-0.369543,1.44591,0.718878,0.0151426,-0.222048,0.0700995,-0.378996,0.595331,0.270337,0.00766695,0.403984,5,0.1,22,1.4,4.54967,0.642452,0.603938,-0.321615,-0.309005,-0.00361949,0.202417,-0.279635,0.00226498,0.00891524,1.36381,5,0.1,23,1.4,4.48045,-0.672658,0.5,-0.257921,0.144313,0,0.162125,0.071317,0,0.0149173,0.595236,5,0.1,24,1.4,3.49222,-0.125375,0.589366,0.404209,0.0158904,-0.0263706,-0.0765324,-0.00300258,0.00500679,0.00946651,0.0930519,5,0.1,25,1.4,1.28414,-2.75445,0.606977,-0.353327,0.3411,-0.00642389,0.222147,-0.100374,0.00402331,0.0414637,0.165511,5,0.1,26,1.4,1.90202,-2.39295,0.617186,-0.0228733,-0.0239015,-0.034228,0.253737,0.0196695,0.0441372,0.012884,0.305868,5,0.1,27,1.4,-0.659509,2.0929,0.608823,0.866026,0.21168,0.0339165,0,-0.0340939,-0.00551343,0.0155914,2.24361,5,0.1,28,1.4,0.194426,-3.87273,0.990739,-0.193858,-0.0250578,0.330456,0.00771135,0.0157356,-0.207812,0.0138359,0.180923,5,0.1,29,1.4,-0.153401,3.58917,0.629562,-0.324787,0.285918,-0.0271887,0.00821829,-0.179768,0.0171363,0.0135459,0.251086,5,0.1
0,1.5,-0.623366,4.17451,0.576501,0.489131,-0.773513,-0.00136979,-0.597425,0.57587,0.166193,0.063809,0.917417,5,0.1,1,1.5,-3.71898,4.29048,1.01817,-0.0294976,-0.513111,0.315011,0.0188053,0.32711,-0.200763,0.0149797,0.172514,5,0.1,2,1.5,-2.50575,-3.52276,0.596591,-0.723276,-0.275986,0.00323476,0.421256,0.0325441,-0.00206754,0.0147778,0.349113,5,0.1,3,1.5,-2.89541,-2.72984,0.718926,-0.245621,0.318249,0.0299898,0.0862628,-0.11161,-0.0105016,0.0175029,0.127357,5,0.1,4,1.5,-1.31916,4.08815,0.616111,-0.866026,-0.0769116,-0.00658203,0,0.00301003,0.000275671,0.0263123,2.26813,5,0.1,5,1.5,1.66255,4.62799,1.04904,-0.0118963,-0.406281,0.28571,0.00758469,0.259012,-0.182189,0.0203364,0.117204,5,0.1,6,1.5,-5.1061,-2.69711,0.615535,-0.103872,0.811287,-0.0380997,0.0216067,-0.221983,0.0551045,0.0219683,0.543832,5,0.1,7,1.5,1.3226,1.6839,0.620484,-0.490511,-0.17455,-0.0194476,0.0237003,0.111237,0.0123866,0.0183209,0.287147,5,0.1,8,1.5,4.53127,0.965747,0.595748,-0.164855,-0.49082,0.00246484,0.146657,0.543214,-0.00260025,0.0315588,0.404748,5,0.1,9,1.5,3.61605,-1.87717,0.598522,-0.107759,-0.211538,0.00140676,0.513583,0.13487,-0.000905246,0.0172307,0.386009,5,0.1,10,1.5,3.09614,-2.46797,0.578049,-0.865657,0.0271227,0.00809068,0.0147521,0.0185221,0.0102483,0.0131985,1.15865,5,0.1,11,1.5,3.07454,-3.12431,0.528493,-0.083198,0.340209,-0.0196609,0.00925362,-0.0375807,0.00216439,0.0108475,0.0669047,5,0.1,12,1.5,0.438018,-1.66417,0.628898,0.438572,-0.698546,-0.0274459,-0.279551,0.445291,0.0175014,0.0141632,0.323348,5,0.1,13,1.5,0.378806,1.53914,0.57152,-0.613364,-0.142537,0.02881,0.270806,0.419386,-0.0202544,0.0179188,2.14426,5,0.1,14,1.5,0.00930409,1.06423,0.597657,-0.082202,0.454172,0.0823756,0.282883,-0.46093,0.118639,0.0128206,1.98997,5,0.1,15,1.5,-0.146818,1.31446,0.500009,-0.319335,-0.437306,-0.000277534,0.269624,0.430882,0.00632554,0.00711125,0.911916,5,0.1,16,1.5,-0.266697,-0.768698,0.595676,0.73056,-0.134283,-0.0114772,-0.383013,0.0855774,0.00727922,0.0105606,0.320686,5,0.1,17,1.5,-3.51015,-1.69561,0.592515,-0.0397991,-0.866026,0.0165367,0.00138581,0,-0.000588596,0.0088527,2.27074,5,0.1,18,1.5,0.220429,1.1849,0.500019,0.190416,-0.239567,0.000301842,-0.0774292,0.312537,0.00123307,0.009561,0.58107,5,0.1,19,1.5,1.97838,0.0372646,1.10662,-0.0269521,0.214096,0.373451,0.0171661,-0.370588,-0.238009,0.010249,0.192765,5,0.1,20,1.5,0.0437463,-2.34285,0.5,-0.249585,0.273715,2.79397e-06,-0.0617425,-0.117317,0,0.0114464,0.146365,5,0.1,21,1.5,-0.369762,1.42686,0.727478,-0.0178648,-0.157799,0.103613,-0.280093,0.669211,0.373635,0.00766695,0.403984,5,0.1,22,1.5,4.51848,0.609358,0.603587,-0.30231,-0.358999,-0.00340333,0.192851,-0.649217,0.00216439,0.00891524,1.36381,5,0.1,23,1.5,4.45543,-0.658116,0.5,-0.242458,0.14429,0,0.154465,-0.0634119,0,0.0149173,0.595236,5,0.1,24,1.5,3.53233,-0.123798,0.586749,0.398254,0.0156569,-0.0259807,-0.0611246,-0.00239769,0.00400096,0.00946651,0.0930519,5,0.1,25,1.5,1.24988,-2.72074,0.606354,-0.332137,0.333561,-0.00603963,0.211693,-0.0671297,0.0038445,0.0414637,0.165511,5,0.1,26,1.5,1.90088,-2.39522,0.613981,-0.00154097,-0.0214715,-0.0298958,0.154786,0.0282973,0.0427142,0.012884,0.305868,5,0.1,27,1.5,-0.572906,2.11396,0.612198,0.866026,0.209949,0.0336353,-1.78814e-06,-0.0121146,-0.00196695,0.0155914,2.24361,5,0.1,28,1.5,0.174796,-3.87517,1.02296,-0.200911,-0.0239313,0.315552,-0.123244,0.00837445,-0.110749,0.0138359,0.180923,5,0.1,29,1.5,-0.185406,3.6169,0.626926,-0.311356,0.26877,-0.0255549,0.245835,-0.171319,0.0163093,0.0135459,0.251086,5,0.1
0,1.6,-0.577765,4.10062,0.577314,0.420111,-0.699174,0.0184342,-0.76431,0.891209,0.215292,0.0683486,1.03022,5,0.1,1,1.6,-3.72183,4.24088,1.04862,-0.0274718,-0.477839,0.293362,0.0224113,0.388622,-0.238478,0.0101997,0.113386,5,0.1,2,1.6,-2.57586,-3.55012,0.596903,-0.677449,-0.270241,0.00301301,0.511527,0.0909567,-0.00247359,0.0136988,0.234386,5,0.1,3,1.6,-2.91955,-2.69855,0.721875,-0.237221,0.307375,0.0289664,0.0932217,-0.120759,-0.0113845,0.0285241,0.20645,5,0.1,4,1.6,-1.40577,4.08049,0.615456,-0.866026,-0.0760913,-0.00650883,0,0.0164509,0.00140071,0.0590472,2.2683,5,0.1,5,1.6,1.6614,4.58872,1.07666,-0.0110805,-0.378358,0.266069,0.00905991,0.307798,-0.216424,0.0236555,0.13171,5,0.1,6,1.6,-5.11636,-2.61727,0.612004,-0.10103,0.783104,-0.0324905,0.0386238,-0.365138,0.0568032,0.0230502,0.374614,5,0.1,7,1.6,1.27379,1.66703,0.618604,-0.484225,-0.162554,-0.0181124,0.119865,0.132143,0.0147521,0.0179965,0.202655,5,0.1,8,1.6,4.51553,0.919186,0.595983,-0.149715,-0.441813,0.00223666,0.159025,0.457019,-0.00208616,0.0332845,0.319779,5,0.1,9,1.6,3.60766,-1.89762,0.598658,-0.0618935,-0.196996,0.00130981,0.396848,0.160217,-0.00110269,0.0173987,0.566145,5,0.1,10,1.6,3.00977,-2.46516,0.578909,-0.860125,0.0289977,0.00905693,0.118017,0.0166893,0.00834465,0.0140616,0.854786,5,0.1,11,1.6,3.06629,-3.09056,0.526543,-0.0815868,0.333625,-0.0192821,0.026226,-0.106335,0.00616908,0.0114554,0.0300085,5,0.1,12,1.6,0.480412,-1.7317,0.626245,0.40843,-0.650534,-0.0255585,-0.332162,0.529051,0.020802,0.0159128,0.212524,5,0.1,13,1.6,0.318848,1.52691,0.574295,-0.585007,-0.103271,0.0266373,0.31805,0.351191,-0.023663,0.00815772,0.651146,5,0.1,14,1.6,0.00243356,1.10774,0.606316,-0.0562186,0.419319,0.0891119,0.223372,-0.267446,0.017643,0.01089,1.8705,5,0.1,15,1.6,-0.177094,1.27383,0.500004,-0.283476,-0.367358,9.23872e-05,0.433147,0.908375,0.00163913,0.00718921,0.456238,5,0.1,16,1.6,-0.195673,-0.781678,0.594566,0.688287,-0.125055,-0.0106901,-0.479751,0.101656,0.00864267,0.015642,0.215424,5,0.1,17,1.6,-3.51412,-1.78221,0.594163,-0.0393927,-0.866026,0.0163659,0.00834465,0,-0.00348687,0.00854735,2.27079,5,0.1,18,1.6,0.238914,1.1633,0.50005,0.177694,-0.18602,0.000269711,-0.172831,0.703514,-0.00151992,0.00784078,0.418154,5,0.1,19,1.6,1.97578,0.0567356,1.14272,-0.0251025,0.174679,0.347787,0.0204444,-0.409471,-0.282824,0.0126802,0.157412,5,0.1,20,1.6,0.0184924,-2.31609,0.500001,-0.254963,0.260895,1.49012e-06,-0.0305372,-0.14782,0,0.0119361,0.11507,5,0.1,21,1.6,-0.372779,1.41441,0.7397,-0.0407748,-0.0918031,0.14025,-0.178158,0.635207,0.339657,0.0075329,0.328249,5,0.1,22,1.6,4.48926,0.570083,0.603258,-0.281537,-0.426424,-0.00316948,0.229359,-0.646055,0.002563,0.00998022,1.07904,5,0.1,23,1.6,4.432,-0.644169,0.5,-0.225794,0.133178,0,0.183344,-0.151694,0,0.0170147,0.576067,5,0.1,24,1.6,3.57175,-0.122248,0.584178,0.388855,0.0152877,-0.0253677,-0.139713,-0.00548735,0.00914931,0.0110764,0.070302,5,0.1,25,1.6,1.21777,-2.68778,0.60577,-0.309312,0.324833,-0.00562519,0.251532,-0.119209,0.00458956,0.0289509,0.11449,5,0.1,26,1.6,1.90123,-2.39722,0.611204,0.00576079,-0.0183702,-0.0256538,-0.0139475,0.0333786,0.0422299,0.0132271,0.266939,5,0.1,27,1.6,-0.486304,2.13486,0.615545,0.866025,0.207287,0.0332057,1.43051e-05,-0.0492334,-0.00786781,0.0125432,2.24525,5,0.1,28,1.6,0.154045,-3.87752,1.05398,-0.214057,-0.0231206,0.304765,-0.120714,0.00917912,-0.119805,0.0117757,0.110675,5,0.1,29,1.6,-0.215021,3.64288,0.624456,-0.278353,0.250298,-0.0237957,0.401452,-0.20349,0.0193417,0.0111376,0.237359,5,0.1
0,1.7,-0.539989,4.03544,0.580533,0.332091,-0.602224,0.0482814,-0.963453,1.02188,0.355452,0.0683486,1.03022,5,0.1,1,1.7,-3.72447,4.19495,1.07682,-0.0253711,-0.441407,0.271005,0.0203699,0.353068,-0.216685,0.0101997,0.113386,5,0.1,2,1.7,-2.64118,-3.57673,0.597193,-0.629732,-0.261896,0.00278167,0.462577,0.086084,-0.00223517,0.0136988,0.234386,5,0.1,3,1.7,-2.94277,-2.66816,0.72471,-0.226572,0.302334,0.0276656,0.123814,-0.00478327,-0.0151284,0.0285241,0.20645,5,0.1,4,1.7,-1.49237,4.07293,0.61481,-0.866026,-0.0751682,-0.00643069,0,0.00628829,0.000525266,0.0590472,2.2683,5,0.1,5,1.7,1.66033,4.55217,1.10237,-0.0103863,-0.354747,0.249466,0.00547618,0.186592,-0.131235,0.0236555,0.13171,5,0.1,6,1.7,-5.12629,-2.54066,0.609033,-0.0976309,0.749563,-0.0269942,0.0333786,-0.333562,0.0530705,0.0230502,0.374614,5,0.1,7,1.7,1.22589,1.6514,0.616863,-0.474046,-0.150166,-0.0167295,0.104308,0.120051,0.0133961,0.0179965,0.202655,5,0.1,8,1.7,4.50129,0.876805,0.596198,-0.135721,-0.409801,0.00209622,0.126272,0.217587,-0.00090152,0.0332845,0.319779,5,0.1,9,1.7,3.60334,-1.91655,0.598783,-0.0263181,-0.181977,0.00120699,0.292554,0.145547,-0.000990927,0.0173987,0.566145,5,0.1,10,1.7,2.92411,-2.46216,0.579859,-0.854325,0.0309978,0.00994951,0.0438541,0.0208169,0.00873208,0.0140616,0.854786,5,0.1,11,1.7,3.05827,-3.05776,0.524647,-0.0787247,0.321991,-0.0186083,0.0332147,-0.135347,0.00782683,0.0114554,0.0300085,5,0.1,12,1.7,0.519673,-1.79423,0.623788,0.377292,-0.600938,-0.0236083,-0.301771,0.480637,0.0189021,0.0159128,0.212524,5,0.1,13,1.7,0.262975,1.51914,0.576991,-0.523399,-0.0455281,0.0285314,0.862018,0.746004,0.05164,0.00815772,0.651146,5,0.1,14,1.7,-0.00269385,1.14841,0.615229,-0.0516675,0.394451,0.0883024,-0.0976483,-0.243157,-0.0324473,0.01089,1.8705,5,0.1,15,1.7,-0.203646,1.24207,0.500018,-0.250708,-0.264422,0.000158697,0.243874,1.10935,-0.00013411,0.00718921,0.456238,5,0.1,16,1.7,-0.129112,-0.7937,0.593538,0.643696,-0.115525,-0.0098791,-0.433192,0.0923686,0.00786781,0.015642,0.215424,5,0.1,17,1.7,-3.51803,-1.86882,0.595788,-0.0389356,-0.866026,0.0161741,0.00302494,0,-0.0012815,0.00854735,2.27079,5,0.1,18,1.7,0.255652,1.1482,0.500069,0.155608,-0.116491,0.000109803,-0.260343,0.673957,-0.0016056,0.00784078,0.418154,5,0.1,19,1.7,1.97335,0.0721487,1.17632,-0.0235334,0.133679,0.32609,0.0123978,-0.403967,-0.171505,0.0126802,0.157412,5,0.1,20,1.7,-0.00680289,-2.29071,0.500001,-0.247684,0.246817,1.11759e-06,0.165114,-0.141636,-7.45058e-06,0.0119361,0.11507,5,0.1,21,1.7,-0.377532,1.40846,0.755546,-0.0523165,-0.0272375,0.177271,-0.0589248,0.637025,0.376895,0.0075329,0.328249,5,0.1,22,1.7,4.4622,0.524148,0.602953,-0.260043,-0.491851,-0.0029291,0.208199,-0.621848,0.00232831,0.00998022,1.07904,5,0.1,23,1.7,4.41029,-0.631814,0.5,-0.208604,0.112352,0,0.166625,-0.246216,0,0.0170147,0.576067,5,0.1,24,1.7,3.61005,-0.120742,0.581679,0.377799,0.0148535,-0.0246435,-0.100791,-0.00395905,0.00659376,0.0110764,0.070302,5,0.1,25,1.7,1.18804,-2.65583,0.60523,-0.285733,0.314536,-0.00519482,0.228517,-0.10021,0.0041686,0.0289509,0.11449,5,0.1,26,1.7,1.90153,-2.39889,0.608844,-0.00258014,-0.0149626,-0.021617,-0.180423,0.0343174,0.0386424,0.0132271,0.266939,5,0.1,27,1.7,-0.399701,2.15541,0.618838,0.866025,0.204207,0.0327143,-1.78814e-06,-0.0236183,-0.00376627,0.0125432,2.24525,5,0.1,28,1.7,0.131995,-3.8798,1.08393,-0.226966,-0.0223491,0.294668,-0.122529,0.00728667,-0.0954345,0.0117757,0.110675,5,0.1,29,1.7,-0.240664,3.66674,0.622161,-0.232994,0.22555,-0.0221782,0.492996,-0.285879,0.0141002,0.0111376,0.237359,5,0.1
0,1.8,-0.511703,3.98037,0.587192,0.233242,-0.499117,0.0849232,-0.987947,1.02293,0.357568,0.00735617,0.728134,5,0.1,1,1.8,-3.7269,4.1526,1.10282,-0.0232756,-0.405025,0.248677,0.0221729,0.383139,-0.23526,0.0108559,0.128362,5,0.1,2,1.8,-2.70179,-3.60243,0.59746,-0.581604,-0.251317,0.00255108,0.513315,0.132322,-0.00241399,0.00893319,0.15666,5,0.1,3,1.8,-2.96473,-2.63793,0.727391,-0.211817,0.302136,0.0258639,0.173569,-0.0174046,-0.0212193,0.0170758,0.153558,5,0.1,4,1.8,-1.57897,4.06546,0.61417,-0.866026,-0.0741005,-0.00634044,0,0.0183582,0.00154972,0.0225139,2.2685,5,0.1,5,1.8,1.65932,4.51757,1.12669,-0.00987351,-0.337195,0.237122,0.00524521,0.180483,-0.126958,0.0183205,0.190174,5,0.1,6,1.8,-5.13587,-2.46751,0.606593,-0.0936627,0.711697,-0.0218868,0.0486374,-0.442982,0.0490248,0.0289871,0.254157,5,0.1,7,1.8,1.17911,1.63699,0.615258,-0.459889,-0.137797,-0.0153497,0.193,0.130415,0.0145435,0.0164917,0.139714,5,0.1,8,1.8,4.48833,0.836749,0.596404,-0.123525,-0.392285,0.00202358,0.121593,0.158519,-0.000625849,0.0314865,0.242112,5,0.1,9,1.8,3.60187,-1.93401,0.598899,-0.00635982,-0.166979,0.00110567,0.0988245,0.157952,-0.00107288,0.019324,0.751296,5,0.1,10,1.8,2.83908,-2.45897,0.580893,-0.843561,0.0327289,0.0106692,0.20349,0.0122786,0.005126,0.0112315,0.608378,5,0.1,11,1.8,3.05059,-3.02634,0.522832,-0.0745833,0.305092,-0.0176325,0.0510216,-0.208259,0.0120401,0.0143059,0.0111915,5,0.1,12,1.8,0.55587,-1.85188,0.621523,0.3462,-0.551417,-0.0216618,-0.327647,0.521898,0.0205338,0.0151356,0.14023,5,0.1,13,1.8,0.215486,1.51858,0.58016,-0.422045,0.035727,0.0352129,1.12276,0.834584,0.0744164,0.00854852,0.311818,5,0.1,14,1.8,-0.00864291,1.18659,0.623824,-0.0695546,0.368458,0.082913,-0.232858,-0.285804,-0.0738204,0.0114086,1.62417,5,0.1,15,1.8,-0.227664,1.22123,0.500032,-0.230888,-0.152731,9.98378e-05,0.169031,1.09297,-0.000953674,0.00749868,0.329926,5,0.1,16,1.8,-0.0669722,-0.804783,0.59259,0.598093,-0.106008,-0.00906736,-0.493309,0.100344,0.00855327,0.0114774,0.144114,5,0.1,17,1.8,-3.5219,-1.95542,0.597396,-0.0384033,-0.866026,0.0159517,0.00905991,0,-0.0038445,0.0113978,2.27085,5,0.1,18,1.8,0.269825,1.13978,0.500072,0.127193,-0.0534832,-3.72529e-05,-0.300854,0.576854,-0.0013411,0.0116505,0.244063,5,0.1,19,1.8,1.97106,0.0835506,1.20812,-0.0223666,0.0950217,0.309959,0.0119805,-0.364378,-0.165939,0.0107243,0.290513,5,0.1,20,1.8,-0.0304991,-2.26678,0.500001,-0.224022,0.231248,0,0.298331,-0.175118,0,0.0127399,0.145712,5,0.1,21,1.8,-0.382905,1.40879,0.775058,-0.0537336,0.0323147,0.211526,0.0250787,0.540197,0.291139,0.00840694,0.261799,5,0.1,22,1.8,4.43725,0.472167,0.602672,-0.238597,-0.5439,-0.00268817,0.226021,-0.390828,0.0025332,0.0103363,1.29429,5,0.1,23,1.8,4.39028,-0.621843,0.5,-0.191426,0.08706,0,0.18096,-0.246972,0,0.0169961,0.551683,5,0.1,24,1.8,3.64726,-0.119279,0.579252,0.365424,0.0143673,-0.0238344,-0.159979,-0.00629202,0.0104606,0.0102795,0.0313371,5,0.1,25,1.8,1.16062,-2.62493,0.604731,-0.262189,0.302511,-0.00476539,0.248134,-0.149488,0.00450015,0.0268949,0.134493,5,0.1,26,1.8,1.9,-2.40021,0.60687,-0.0314981,-0.0115871,-0.0179023,-0.382185,0.0326633,0.0357032,0.0117067,0.204857,5,0.1,27,1.8,-0.313098,2.17568,0.622085,0.866025,0.200641,0.0321448,1.43051e-05,-0.0555515,-0.00891089,0.0125651,1.86834,5,0.1,28,1.8,0.108783,-3.88199,1.11288,-0.23603,-0.0214934,0.28342,-0.0483766,0.0104904,-0.138819,0.0117859,0.0789794,5,0.1,29,1.8,-0.261435,3.68777,0.620013,-0.182053,0.194192,-0.0207871,0.515521,-0.336289,0.0145435,0.0132136,0.226418,5,0.1
0,1.9,-0.493571,3.9364,0.596951,0.12781,-0.373721,0.105503,-1.08365,1.42132,0.0727326,0.00735617,0.728134,5,0.1,1,1.9,-3.72914,4.11372,1.12669,-0.0215322,-0.374926,0.230194,0.0140369,0.242084,-0.148647,0.0108559,0.128362,5,0.1,2,1.9,-2.75752,-3.62693,0.597703,-0.534118,-0.238983,0.00232756,0.45298,0.122696,-0.00212342,0.00893319,0.15666,5,0.1,3,1.9,-2.98513,-2.60817,0.729882,-0.196799,0.289662,0.0240274,0.135422,-0.220686,-0.0165626,0.0170758,0.153558,5,0.1,4,1.9,-1.66557,4.05811,0.613541,-0.866026,-0.0730187,-0.00624983,0,0.00745058,0.000622123,0.0225139,2.2685,5,0.1,5,1.9,1.65836,4.48441,1.14984,-0.00942796,-0.328931,0.226311,0.00409782,0.0151992,-0.0994802,0.0183205,0.190174,5,0.1,6,1.9,-5.14501,-2.39842,0.604639,-0.0892155,0.670663,-0.0172952,0.0436008,-0.400737,0.0428483,0.0289871,0.254157,5,0.1,7,1.9,1.13402,1.62383,0.613791,-0.442203,-0.125715,-0.0140026,0.177495,0.11497,0.012815,0.0164917,0.139714,5,0.1,8,1.9,4.47653,0.798058,0.596605,-0.112785,-0.383391,0.00199443,0.0976324,0.0462793,-0.000100583,0.0314865,0.242112,5,0.1,9,1.9,3.60151,-1.94996,0.599005,-0.00446439,-0.152345,0.00100667,-0.106841,0.139281,-0.000935048,0.019324,0.751296,5,0.1,10,1.9,2.75559,-2.45563,0.581986,-0.826699,0.0340387,0.0111811,0.170559,0.0119507,0.00450015,0.0112315,0.608378,5,0.1,11,1.9,3.04339,-2.99691,0.521131,-0.0691742,0.282997,-0.0163558,0.0580549,-0.237301,0.0137053,0.0143059,0.0111915,5,0.1,12,1.9,0.58894,-1.90456,0.619454,0.315845,-0.503066,-0.0197597,-0.288874,0.46014,0.0180975,0.0151356,0.14023,5,0.1,13,1.9,0.178665,1.52649,0.584118,-0.316771,0.123296,0.0444066,0.979888,0.878923,0.101611,0.00854852,0.311818,5,0.1,14,1.9,-0.0168843,1.22268,0.631648,-0.0960403,0.358586,0.0727066,-0.279304,0.0404492,-0.125151,0.0114086,1.62417,5,0.1,15,1.9,-0.25041,1.21097,0.500037,-0.228139,-0.0570714,1.42492e-05,-0.0780225,0.82171,-0.000748783,0.00749868,0.329926,5,0.1,16,1.9,-0.00949021,-0.814909,0.591724,0.552485,-0.0967119,-0.00827443,-0.43648,0.0884682,0.00755489,0.0114774,0.144114,5,0.1,17,1.9,-3.52571,-2.04202,0.598978,-0.0378881,-0.866026,0.0157305,0.00344217,0,-0.00149384,0.0113978,2.27085,5,0.1,18,1.9,0.281017,1.13763,0.500063,0.0965643,0.0126138,-0.000131503,-0.305323,0.709772,-0.000588596,0.0116505,0.244063,5,0.1,19,1.9,1.96888,0.0913313,1.23838,-0.0213461,0.0616638,0.295826,0.00939518,-0.300165,-0.130042,0.0107243,0.290513,5,0.1,20,1.9,-0.0512485,-2.24446,0.500001,-0.189601,0.21546,-4.65661e-07,0.380398,-0.149027,-1.11759e-05,0.0127399,0.145712,5,0.1,21,1.9,-0.388044,1.41471,0.797734,-0.0481125,0.0854293,0.242113,0.081636,0.505172,0.298809,0.00840694,0.261799,5,0.1,22,1.9,4.41446,0.416881,0.602403,-0.217663,-0.552108,-0.00281846,0.199139,0.192162,-0.00424311,0.0103363,1.29429,5,0.1,23,1.9,4.37199,-0.614411,0.5,-0.174659,0.061914,0,0.159621,-0.229001,0,0.0169961,0.551683,5,0.1,24,1.9,3.683,-0.117874,0.576921,0.348957,0.0137197,-0.0227585,-0.179216,-0.00704732,0.0117011,0.0102795,0.0313371,5,0.1,25,1.9,1.13546,-2.59518,0.604274,-0.242695,0.294419,-0.00441168,0.156768,-0.0357628,0.00284612,0.0268949,0.134493,5,0.1,26,1.9,1.89456,-2.40121,0.605251,-0.0801636,-0.00844337,-0.0145575,-0.553973,0.0299066,0.0312999,0.0117067,0.204857,5,0.1,27,1.9,-0.226496,2.19551,0.625263,0.866025,0.196315,0.0314509,0,-0.0404119,-0.00647828,0.0125651,1.86834,5,0.1,28,1.9,0.0853019,-3.88409,1.14054,-0.230259,-0.0204738,0.26992,0.151909,0.0105351,-0.139624,0.0117859,0.0789794,5,0.1,29,1.9,-0.277096,3.70555,0.617966,-0.131703,0.161963,-0.0204728,0.483669,-0.308633,-0.00527129,0.0132136,0.226418,5,0.1
0,2,-0.486115,3.90636,0.607523,0.0229724,-0.226164,0.102912,-0.985548,1.4807,-0.108838,0.00652687,0.408502,5,0.1,1,2,-3.73123,4.07736,1.14901,-0.0202358,-0.352573,0.216475,0.0127554,0.221491,-0.136137,0.00954395,0.0765869,5,0.1,2,2,-2.80866,-3.65018,0.597925,-0.488216,-0.225377,0.00211447,0.476718,0.155091,-0.00220537,0.0110045,0.104703,5,0.1,3,2,-3.00414,-2.58056,0.732202,-0.183254,0.260162,0.0223711,0.141621,-0.359058,-0.0172853,0.0149159,0.333789,5,0.1,4,2,-1.75218,4.05086,0.61292,-0.866026,-0.0718832,-0.00615418,0,0.0183582,0.00154972,0.0257185,2.2687,5,0.1,5,2,1.65744,4.45152,1.17195,-0.00898242,-0.328863,0.215492,0.0051856,0.00905991,-0.124097,0.0185873,0.152952,5,0.1,6,2,-5.1537,-2.33345,0.603113,-0.0843763,0.627679,-0.0133112,0.0553131,-0.474811,0.0368953,0.0235588,0.468858,5,0.1,7,2,1.09078,1.61183,0.612455,-0.421566,-0.11417,-0.0127152,0.246704,0.118554,0.0132024,0.0192294,0.162883,5,0.1,8,2,4.46573,0.759946,0.596803,-0.103235,-0.378384,0.00197887,0.0965595,0.0734031,-0.000268221,0.0306493,0.179093,5,0.1,9,2,3.6,-1.9645,0.599101,-0.0306666,-0.138354,0.000913441,-0.400543,0.143647,-0.000983477,0.0212714,1.20045,5,0.1,10,2,2.67397,-2.45218,0.583121,-0.803238,0.0347912,0.0114664,0.32413,0.00178814,0.000745058,0.0108749,0.421958,5,0.1,11,2,3.03678,-2.96987,0.519568,-0.0628352,0.257075,-0.0148594,0.0691414,-0.282884,0.0163615,0.012156,0.00543987,5,0.1,12,2,0.619082,-1.95256,0.617568,0.286832,-0.456855,-0.0179425,-0.297874,0.474453,0.0186563,0.0136501,0.0931417,5,0.1,13,2,0.151631,1.54304,0.589059,-0.226509,0.204989,0.0541747,0.823766,0.727594,0.0879765,0.00773031,0.329933,5,0.1,14,2,-0.0278429,1.25895,0.638243,-0.122378,0.368127,0.0588208,-0.234625,0.114083,-0.148416,0.0107658,1.39006,5,0.1,15,2,-0.273778,1.20893,0.500035,-0.240158,0.012055,-4.91738e-05,-0.135049,0.563622,-0.000447035,0.00913505,0.357057,5,0.1,16,2,0.0435525,-0.824139,0.590934,0.507819,-0.0878274,-0.00751615,-0.468995,0.0912249,0.00783801,0.00941802,0.0964275,5,0.1,17,2,-3.52948,-2.12862,0.600542,-0.0373363,-0.866026,0.0154987,0.00905991,0,-0.0038445,0.00953129,2.2709,5,0.1,18,2,0.289183,1.14242,0.500048,0.0672318,0.0823051,-0.000160933,-0.276685,0.657797,-0.000119209,0.0146708,0.185462,5,0.1,19,2,1.96679,0.0961194,1.26728,-0.0203252,0.0353571,0.281686,0.0117421,-0.224907,-0.162244,0.00946116,0.266864,5,0.1,20,2,-0.0682384,-2.22368,0.500001,-0.149719,0.200033,-2.98023e-06,0.409145,-0.165462,2.98023e-05,0.0113282,0.136278,5,0.1,21,2,-0.392393,1.4256,0.823305,-0.0384331,0.130481,0.267577,0.107393,0.384033,0.195175,0.0252823,0.38509,5,0.1,22,2,4.39369,0.363356,0.602094,-0.197661,-0.511893,-0.00337809,0.205278,0.582353,-0.00622869,0.00903941,1.21621,5,0.1,23,2,4.35532,-0.609172,0.5,-0.15862,0.0451162,0,0.164509,-0.0953376,0,0.0192157,0.509408,5,0.1,24,2,3.7169,-0.116541,0.57471,0.327981,0.0128947,-0.0213891,-0.246644,-0.00969321,0.0160933,0.0101726,0.0117246,5,0.1,25,2,1.11192,-2.56589,0.603846,-0.228229,0.291306,-0.00414699,0.143528,-0.0436306,0.002563,0.0336603,0.0813262,5,0.1,26,2,1.88374,-2.40191,0.603945,-0.135791,-0.00565648,-0.0116229,-0.530779,0.02563,0.0274777,0.0114636,0.140017,5,0.1,27,2,-0.139893,2.21491,0.62837,0.866025,0.190967,0.0305951,0,-0.0733137,-0.0117421,0.0141221,1.44941,5,0.1,28,2,0.0632839,-3.88608,1.16678,-0.207882,-0.0192761,0.254095,0.28518,0.0138283,-0.18245,0.0111494,0.195261,5,0.1,29,2,-0.287953,3.72025,0.61588,-0.0866272,0.132412,-0.0213191,0.412613,-0.282407,-0.00938773,0.0125736,0.214614,5,0.1
0,2.1,-0.488682,3.89103,0.617135,-0.0730214,-0.0823714,0.0881855,-0.908986,1.3662,-0.177938,0.00652687,0.408502,5,0.1,1,2.1,-3.73319,4.04323,1.17005,-0.0191513,-0.329652,0.204902,0.00981987,0.243157,-0.104703,0.00954395,0.0765869,5,0.1,2,2.1,-2.85524,-3.67198,0.598126,-0.444435,-0.210952,0.00191219,0.412777,0.140354,-0.0018999,0.0110045,0.104703,5,0.1,3,2.1,-3.0218,-2.55653,0.734358,-0.170156,0.218955,0.0207719,0.125915,-0.452712,-0.0153817,0.0149159,0.333789,5,0.1,4,2.1,-1.83878,4.04373,0.61231,-0.866026,-0.0707999,-0.00606328,0,0.00745058,0.000625849,0.0257185,2.2687,5,0.1,5,2.1,1.65656,4.41908,1.19291,-0.00849012,-0.316203,0.203687,0.00492483,0.231832,-0.118516,0.0185873,0.152952,5,0.1,6,2.1,-5.16188,-2.27278,0.601956,-0.0792734,0.587656,-0.00993609,0.0494421,-0.353247,0.0306815,0.0235588,0.468858,5,0.1,7,2.1,1.04953,1.60092,0.61124,-0.405674,-0.104789,-0.0116706,0.100747,0.0756308,0.00841916,0.0192294,0.162883,5,0.1,8,2.1,4.45585,0.722341,0.597001,-0.0946619,-0.374493,0.00196761,0.0785291,0.0256822,-6.33299e-05,0.0306493,0.179093,5,0.1,9,2.1,3.59454,-1.97766,0.599187,-0.0815675,-0.125165,0.000823569,-0.582904,0.123963,-0.00083819,0.0212714,1.20045,5,0.1,10,2.1,2.59514,-2.44869,0.584272,-0.773736,0.0349883,0.0115342,0.295848,0.000581145,0.000115484,0.0108749,0.421958,5,0.1,11,2.1,3.03084,-2.94557,0.518163,-0.0559516,0.228904,-0.0132309,0.069201,-0.283211,0.0163615,0.012156,0.00543987,5,0.1,12,2.1,0.646364,-1.99602,0.615862,0.259484,-0.413294,-0.0162299,-0.25703,0.409402,0.0160895,0.0136501,0.0931417,5,0.1,13,2.1,0.133359,1.56699,0.59461,-0.137168,0.271704,0.0541723,0.930336,0.587821,-0.0735037,0.00773031,0.329933,5,0.1,14,2.1,-0.0412213,1.29679,0.643347,-0.144608,0.391912,0.0430218,-0.199989,0.314891,-0.163142,0.0107658,1.39006,5,0.1,15,2.1,-0.298121,1.21232,0.500029,-0.243418,0.0500169,-7.75792e-05,0.0619069,0.217944,-0.000137836,0.00913505,0.357057,5,0.1,16,2.1,0.0921284,-0.832492,0.590219,0.46471,-0.0794519,-0.0067967,-0.407929,0.0787154,0.0067614,0.00941802,0.0964275,5,0.1,17,2.1,-3.53318,-2.21523,0.602079,-0.03682,-0.866026,0.0152778,0.00339746,0,-0.00146776,0.00953129,2.2709,5,0.1,18,2.1,0.294603,1.15392,0.500032,0.0420418,0.147116,-0.000152085,-0.224657,0.615679,0.000257045,0.0146708,0.185462,5,0.1,19,2.1,1.96481,0.0986021,1.29467,-0.0192087,0.0151625,0.266252,0.0112057,-0.173249,-0.15495,0.00946116,0.266864,5,0.1,20,2.1,-0.0811637,-2.20448,0.5,-0.108985,0.183866,-1.21072e-06,0.397455,-0.16211,1.11759e-05,0.0113282,0.136278,5,0.1,21,2.1,-0.395625,1.43955,0.850583,-0.0256159,0.139476,0.27372,0.142498,-0.156656,-0.0601821,0.0252823,0.38509,5,0.1,22,2.1,4.37489,0.315712,0.60173,-0.178818,-0.435887,-0.00384944,0.177056,0.889514,-0.00317022,0.00903941,1.21621,5,0.1,23,2.1,4.34023,-0.604954,0.5,-0.143511,0.0420555,0,0.142008,0.0685342,0,0.0192157,0.509408,5,0.1,24,2.1,3.74844,-0.115301,0.572654,0.302375,0.0118883,-0.0197187,-0.269637,-0.010598,0.0175834,0.0101726,0.0117246,5,0.1,25,2.1,1.08973,-2.53701,0.603443,-0.216029,0.28556,-0.00392832,0.110365,-0.0792593,0.00198185,0.0336603,0.0813262,5,0.1,26,2.1,1.86747,-2.40236,0.602913,-0.189345,-0.00328422,-0.00909483,-0.516184,0.0216365,0.0231825,0.0114636,0.140017,5,0.1,27,2.1,-0.0532945,2.23367,0.631376,0.865843,0.184497,0.029559,-0.0072822,-0.0637025,-0.0102036,0.0141221,1.44941,5,0.1,28,2.1,0.0440834,-3.88794,1.19129,-0.17478,-0.0179052,0.235998,0.366228,0.0139773,-0.184722,0.0111494,0.195261,5,0.1,29,2.1,-0.294701,3.73239,0.613719,-0.0498981,0.113057,-0.021721,0.318615,-0.121042,0.00136718,0.0125736,0.214614,5,0.1
0,2.2,-0.500231,3.88923,0.625003,-0.154534,0.0421703,0.0687227,-0.703692,1.10435,-0.205129,0.00801842,0.258408,5,0.1,1,2.2,-3.73506,4.01156,1.19001,-0.0181258,-0.302953,0.193939,0.0114441,0.294566,-0.121295,0.0103992,0.215013,5,0.1,2,2.2,-2.89763,-3.69235,0.598308,-0.403297,-0.196141,0.00172555,0.419617,0.160694,-0.00190735,0.00868707,0.123194,5,0.1,3,2.2,-3.03817,-2.53697,0.736357,-0.157124,0.171864,0.0191793,0.138521,-0.479221,-0.0168979,0.0170701,0.309202,5,0.1,4,2.2,-1.92538,4.0367,0.611708,-0.866026,-0.0697017,-0.0059709,0,0.0178814,0.00154972,0.0226833,2.26889,5,0.1,5,2.2,1.65574,4.3889,1.21265,-0.00795126,-0.284827,0.190702,0.00607967,0.385046,-0.145614,0.0179093,0.312813,5,0.1,6,2.2,-5.16955,-2.21576,0.601106,-0.074017,0.552291,-0.0071615,0.0572205,-0.373721,0.0249445,0.0245499,0.877981,5,0.1,7,2.2,1.00943,1.59079,0.610112,-0.39629,-0.0979066,-0.0109047,0.10851,0.0668764,0.00748038,0.0226686,0.875663,5,0.1,8,2.2,4.44677,0.685084,0.597197,-0.0869036,-0.369617,0.00194758,0.0793934,0.0869334,-0.000417233,0.0304652,0.164107,5,0.1,9,2.2,3.5834,-1.98956,0.599266,-0.141096,-0.112912,0.000742078,-0.580549,0.123799,-0.000834465,0.0209758,1.78365,5,0.1,10,2.2,2.5194,-2.4452,0.585421,-0.739032,0.0346482,0.0114068,0.418782,-0.00858307,-0.00298023,0.0111849,0.287445,5,0.1,11,2.2,3.0256,-2.92412,0.516923,-0.0488997,0.200033,-0.0115633,0.0722408,-0.29552,0.0170767,0.0137489,0.00167306,5,0.1,12,2.2,0.671041,-2.03532,0.614318,0.234078,-0.372827,-0.0146389,-0.256687,0.408769,0.0160635,0.0118266,0.117206,5,0.1,13,2.2,0.124247,1.59674,0.599493,-0.0461686,0.319454,0.0420958,0.865094,0.355065,-0.156254,0.00904927,0.229874,5,0.1,14,2.2,-0.0565579,1.33757,0.64684,-0.160707,0.422987,0.0269741,-0.115272,0.272155,-0.154495,0.0117071,1.13756,5,0.1,15,2.2,-0.321884,1.21799,0.500021,-0.229336,0.0597447,-8.04663e-05,0.212073,-0.00476837,5.96046e-05,0.0232393,1.07529,5,0.1,16,2.2,0.136563,-0.840048,0.589573,0.423732,-0.0716716,-0.00612885,-0.421904,0.0785887,0.00673532,0.0178108,0.111684,5,0.1,17,2.2,-3.53684,-2.30183,0.603597,-0.0362813,-0.866026,0.0150517,0.00870228,0,-0.00366569,0.0108545,2.27096,5,0.1,18,2.2,0.297785,1.17149,0.500018,0.0226364,0.201589,-0.000117719,-0.162527,0.457883,0.000417233,0.0157325,0.132875,5,0.1,19,2.2,1.96295,0.099373,1.32047,-0.0179827,0.00153445,0.249273,0.0137687,-0.0967793,-0.190258,0.0100524,0.241796,5,0.1,20,2.2,-0.0901486,-2.18693,0.5,-0.071596,0.166929,-1.49012e-06,0.344731,-0.179529,0,0.0146741,0.0164451,5,0.1,21,2.2,-0.39746,1.45215,0.877317,-0.0110745,0.107732,0.257862,0.143364,-0.439882,-0.245959,0.0267537,0.474984,5,0.1,22,2.2,4.35788,0.276755,0.601335,-0.161314,-0.342307,-0.00401288,0.176907,0.947133,-8.9407e-05,0.00965174,1.16691,5,0.1,23,2.2,4.32658,-0.6,0.5,-0.129473,0.0608563,0,0.142097,0.293404,0,0.0182921,0.282329,5,0.1,24,2.2,3.77726,-0.114168,0.570774,0.273418,0.0107501,-0.0178307,-0.311613,-0.0122525,0.0203252,0.0105763,0.00581443,5,0.1,25,2.2,1.0687,-2.50897,0.60306,-0.204471,0.274152,-0.00371933,0.127792,-0.153661,0.00232458,0.0264475,0.199099,5,0.1,26,2.2,1.84614,-2.40258,0.602113,-0.234923,-0.00135303,-0.00696778,-0.37843,0.0169277,0.0193715,0.0121616,0.118122,5,0.1,27,2.2,0.0331952,2.25177,0.634275,0.863113,0.176936,0.0283495,-0.0582635,-0.0925064,-0.0148416,0.0120957,1.09214,5,0.1,28,2.2,0.0284972,-3.88966,1.21392,-0.136556,-0.0164092,0.216293,0.389707,0.015974,-0.212729,0.0107653,0.187945,5,0.1,29,2.2,-0.298272,3.74325,0.611571,-0.0232913,0.105298,-0.0210553,0.212982,-0.0468493,0.0118315,0.0121358,0.300175,5,0.1
0,2.3,-0.519106,3.89856,0.630934,-0.221431,0.139964,0.0506915,-0.612531,0.84208,-0.157304,0.00801842,0.258408,5,0.1,1,2.3,-3.73681,3.98296,1.20877,-0.0168946,-0.266875,0.18085,0.0133961,0.415593,-0.142626,0.0103992,0.215013,5,0.1,2,2.3,-2.936,-3.71128,0.598472,-0.365001,-0.183214,0.00155214,0.357971,0.107944,-0.00160933,0.00868707,0.123194,5,0.1,3,2.3,-3.05318,-2.52215,0.738189,-0.142832,0.124894,0.0174354,0.148505,-0.452593,-0.0181235,0.0170701,0.309202,5,0.1,4,2.3,-2.01198,4.02979,0.611116,-0.866025,-0.0686496,-0.00587916,0,0.00715256,0.000629574,0.0226833,2.26889,5,0.1,5,2.3,1.65498,4.36256,1.23096,-0.00730325,-0.240251,0.175172,0.00692159,0.492394,-0.1662,0.0179093,0.312813,5,0.1,6,2.3,-5.17668,-2.16291,0.600506,-0.0687383,0.500555,-0.00492884,0.0505745,-0.631928,0.0197925,0.0245499,0.877981,5,0.1,7,2.3,0.969637,1.58118,0.609059,-0.40516,-0.0955982,-0.0101501,-0.228841,-0.00899285,0.00781566,0.0226686,0.875663,5,0.1,8,2.3,4.43829,0.648479,0.59739,-0.0842609,-0.362821,0.00191452,-0.0136197,0.0660084,-0.000331551,0.0304652,0.164107,5,0.1,9,2.3,3.56695,-2.00027,0.599336,-0.183578,-0.101628,0.000666641,-0.314742,0.10509,-0.000700355,0.0209758,1.78365,5,0.1,10,2.3,2.44747,-2.44178,0.586548,-0.700266,0.0338301,0.0111165,0.381157,-0.00905991,-0.00322983,0.0111849,0.287445,5,0.1,11,2.3,3.02107,-2.90558,0.515851,-0.0417788,0.170898,-0.00988031,0.0701994,-0.287309,0.0165962,0.0137489,0.00167306,5,0.1,12,2.3,0.693404,-2.07069,0.61293,0.215128,-0.33557,-0.013175,-0.138856,0.346974,0.0136346,0.0118266,0.117206,5,0.1,13,2.3,0.12388,1.63033,0.602829,0.0375598,0.35074,0.0239342,0.789531,0.254914,-0.198018,0.00904927,0.229874,5,0.1,14,2.3,-0.0728571,1.38179,0.64876,-0.162103,0.465408,0.0114824,0.0753286,0.515841,-0.151407,0.0117071,1.13756,5,0.1,15,2.3,-0.343513,1.22275,0.500013,-0.201136,0.0251632,-6.86385e-05,0.339225,-0.613451,0.000167638,0.0232393,1.07529,5,0.1,16,2.3,0.177164,-0.846881,0.588989,0.391029,-0.0654578,-0.00559613,-0.257743,0.0498667,0.00427663,0.0178108,0.111684,5,0.1,17,2.3,-3.54044,-2.38843,0.60509,-0.0357911,-0.866026,0.0148442,0.00321865,0,-0.00135601,0.0108545,2.27096,5,0.1,18,2.3,0.299346,1.19381,0.500009,0.00963286,0.243082,-7.52509e-05,-0.0992008,0.358097,0.000417233,0.0157325,0.132875,5,0.1,19,2.3,1.96122,0.0990788,1.34447,-0.0166357,-0.00660064,0.230644,0.0135601,-0.0488791,-0.187658,0.0100524,0.241796,5,0.1,20,2.3,-0.0957129,-2.17137,0.5,-0.0409718,0.142302,-1.39698e-06,0.267941,-0.298128,3.72529e-06,0.0146741,0.0164451,5,0.1,21,2.3,-0.397837,1.46015,0.901696,0.00354615,0.0477681,0.228178,0.144267,-0.71428,-0.339374,0.0267537,0.474984,5,0.1,22,2.3,4.34258,0.247295,0.600938,-0.145192,-0.247878,-0.00388743,0.150084,0.890965,0.00246987,0.00965174,1.16691,5,0.1,23,2.3,4.3143,-0.592124,0.5,-0.116521,0.0990721,0,0.12058,0.439171,0,0.0182921,0.282329,5,0.1,24,2.3,3.80306,-0.113154,0.569091,0.242637,0.00953972,-0.0158234,-0.307098,-0.0120755,0.0200197,0.0105763,0.00581443,5,0.1,25,2.3,1.04886,-2.4826,0.602699,-0.192487,0.250592,-0.00350084,0.118226,-0.306249,0.00216067,0.0264475,0.199099,5,0.1,26,2.3,1.82072,-2.40264,0.601506,-0.273365,0.00019148,-0.00522221,-0.365727,0.0137687,0.015635,0.0121616,0.118122,5,0.1,27,2.3,0.119461,2.26903,0.637041,0.863502,0.168467,0.0269911,0.0215602,-0.0831187,-0.0133179,0.0120957,1.09214,5,0.1,28,2.3,0.0167724,-3.89122,1.23451,-0.0982912,-0.0148404,0.195439,0.368847,0.0156313,-0.20761,0.0107653,0.187945,5,0.1,29,2.3,-0.299709,3.75375,0.609532,-0.00711703,0.106303,-0.019673,0.112573,0.0507087,0.0159033,0.0121358,0.300175,5,0.1
0,2.4,-0.544015,3.91627,0.635283,-0.273412,0.209183,0.0369236,-0.412494,0.537515,-0.119597,0.00725082,0.18465,5,0.1,1,2.4,-3.73843,3.95847,1.22609,-0.0154138,-0.221932,0.165093,0.0162125,0.473619,-0.173628,0.0104421,0.209899,5,0.1,2,2.4,-2.97073,-3.72908,0.598619,-0.329715,-0.172812,0.00139326,0.35584,0.107408,-0.00154972,0.0091186,0.191603,5,0.1,3,2.4,-3.06669,-2.51183,0.739839,-0.12725,0.082618,0.015533,0.163794,-0.387669,-0.0199676,0.0141867,0.305784,5,0.1,4,2.4,-2.09859,4.02297,0.610532,-0.866026,-0.0675797,-0.00578761,0,0.0169277,0.00149012,0.0220808,2.26907,5,0.1,5,2.4,1.65428,4.34108,1.24761,-0.00655949,-0.188887,0.1573,0.00804663,0.523806,-0.191629,0.0167588,0.309146,5,0.1,6,2.4,-5.1833,-2.11624,0.600104,-0.0635028,0.430983,-0.00318587,0.0553131,-0.738025,0.0151098,0.0184119,0.822892,5,0.1,7,2.4,0.927806,1.57153,0.608085,-0.432067,-0.0976562,-0.00930727,-0.266403,-0.0231862,0.00911951,0.0265032,0.192799,5,0.1,8,2.4,4.42973,0.612607,0.597579,-0.0873685,-0.353535,0.00186712,-0.0386238,0.131518,-0.000715256,0.029919,0.211774,5,0.1,9,2.4,3.54718,-2.00992,0.599399,-0.21084,-0.0913441,0.000597537,-0.252724,0.102758,-0.000625849,0.0226785,2.51187,5,0.1,10,2.4,2.37945,-2.43845,0.58764,-0.658655,0.0326276,0.0106931,0.467777,-0.015974,-0.00548363,0.0099082,0.193751,5,0.1,11,2.4,3.01724,-2.88991,0.514945,-0.0348568,0.142586,-0.00824481,0.0680685,-0.278711,0.0160933,0.0115525,0.000925041,5,0.1,12,2.4,0.714305,-2.10255,0.611679,0.203413,-0.301617,-0.011842,-0.107855,0.339627,0.0133514,0.0142922,0.173819,5,0.1,13,2.4,0.131324,1.66641,0.604224,0.108369,0.367865,0.00406802,0.612892,0.0776649,-0.192493,0.00889103,0.184559,5,0.1,14,2.4,-0.0884589,1.4309,0.649183,-0.147874,0.515661,-0.00263155,0.198945,0.44477,-0.128001,0.0112676,0.882239,5,0.1,15,2.4,-0.361808,1.22169,0.500007,-0.163803,-0.0498652,-4.91738e-05,0.397027,-0.829816,0.000178814,0.0156723,0.886937,5,0.1,16,2.4,0.215077,-0.853197,0.588449,0.367733,-0.0609681,-0.00521094,-0.227086,0.0430048,0.00366569,0.0120974,0.0650407,5,0.1,17,2.4,-3.544,-2.47504,0.606565,-0.0352859,-0.866026,0.0146315,0.00858307,0,-0.00348687,0.0107325,2.27101,5,0.1,18,2.4,0.299904,1.21965,0.500003,0.00239536,0.270936,-3.8743e-05,-0.0479072,0.190198,0.000327826,0.0119595,0.228473,5,0.1,19,2.4,1.95963,0.0983524,1.36656,-0.0152081,-0.00597704,0.210863,0.0153184,0.0669509,-0.211418,0.010345,0.422488,5,0.1,20,2.4,-0.0985955,-2.15873,0.5,-0.0179131,0.109911,-1.49012e-06,0.193983,-0.338435,0,0.013364,0.305781,5,0.1,21,2.4,-0.396792,1.46121,0.922721,0.016956,-0.0271529,0.191531,0.120446,-0.749409,-0.386506,0.026425,0.580593,5,0.1,22,2.4,4.3288,0.226559,0.600565,-0.13051,-0.171544,-0.0035435,0.147104,0.611901,0.00429153,0.0101615,1.76679,5,0.1,23,2.4,4.30324,-0.579996,0.5,-0.104713,0.143138,0,0.117779,0.418395,0,0.0187701,0.227184,5,0.1,24,2.4,3.82578,-0.112261,0.56761,0.211531,0.00831671,-0.013794,-0.31662,-0.0124499,0.0206232,0.0113033,0.00180031,5,0.1,25,2.4,1.03022,-2.45925,0.60236,-0.179759,0.215,-0.00326782,0.140607,-0.395894,0.002563,0.0256352,0.596309,5,0.1,26,2.4,1.79174,-2.40256,0.601057,-0.303906,0.00138283,-0.00382215,-0.228167,0.00965595,0.0124574,0.0104872,0.0592026,5,0.1,27,2.4,0.205758,2.28544,0.639669,0.860084,0.159264,0.0255167,-0.118822,-0.105023,-0.0168681,0.0104344,0.794203,5,0.1,28,2.4,0.00870788,-3.89262,1.253,-0.0639146,-0.0132382,0.174245,0.314137,0.0164509,-0.218332,0.0118079,0.405838,5,0.1,29,2.4,-0.3,3.76468,0.607651,0,0.112605,-0.0178695,0.0354648,0.0635386,0.0202358,0.0128155,0.364119,5,0.1
0,2.5,-0.573364,3.93955,0.638492,-0.312501,0.2529,0.0282765,-0.349037,0.332892,-0.0584461,0.00725082,0.18465,5,0.1,1,2.5,-3.73989,3.93868,1.24174,-0.0138242,-0.173803,0.148061,0.0157803,0.480935,-0.169128,0.0104421,0.209899,5,0.1,2,2.5,-3.0022,-3.74568,0.598752,-0.301923,-0.157921,0.00127172,0.219956,0.185281,-0.00096485,0.0091186,0.191603,5,0.1,3,2.5,-3.07862,-2.50539,0.741294,-0.111408,0.0473801,0.0136011,0.154346,-0.31139,-0.0188313,0.0141867,0.305784,5,0.1,4,2.5,-2.18519,4.01627,0.609959,-0.866026,-0.0665896,-0.0056996,0,0.00670552,0.000599772,0.0220808,2.26907,5,0.1,5,2.5,1.65367,4.32478,1.26239,-0.00577383,-0.137635,0.13855,0.0077337,0.493288,-0.184752,0.0167588,0.309146,5,0.1,6,2.5,-5.18939,-2.07706,0.599855,-0.058417,0.351571,-0.001866,0.0482798,-0.802055,0.0113621,0.0184119,0.822892,5,0.1,7,2.5,0.883442,1.56174,0.607355,-0.453092,-0.0974154,-0.00398709,-0.139754,0.0271872,0.0875853,0.0265032,0.192799,5,0.1,8,2.5,4.42064,0.577825,0.597764,-0.0956498,-0.342563,0.00183349,-0.112087,0.103716,-0.000100583,0.029919,0.211774,5,0.1,9,2.5,3.5251,-2.01889,0.599456,-0.231387,-0.0909232,0.000540633,-0.275761,-0.0718832,-0.000525266,0.0226785,2.51187,5,0.1,10,2.5,2.31579,-2.43526,0.588683,-0.615335,0.0311151,0.0101708,0.41905,-0.0153184,-0.00529736,0.0099082,0.193751,5,0.1,11,2.5,3.01408,-2.87701,0.514199,-0.0282846,0.115678,-0.00669118,0.0631809,-0.258684,0.0149384,0.0115525,0.000925041,5,0.1,12,2.5,0.734146,-2.13093,0.610554,0.193598,-0.265301,-0.010712,-0.0959449,0.383452,0.00977889,0.0142922,0.173819,5,0.1,13,2.5,0.145163,1.70351,0.603685,0.167287,0.372969,-0.0145512,0.546218,0.0121668,-0.175208,0.00889103,0.184559,5,0.1,14,2.5,-0.102092,1.48491,0.648296,-0.123454,0.5654,-0.0148721,0.27923,0.502221,-0.113823,0.0112676,0.882239,5,0.1,15,2.5,-0.376187,1.21211,0.500003,-0.123779,-0.144655,-3.04542e-05,0.396861,-1.01089,0.000182539,0.0156723,0.886937,5,0.1,16,2.5,0.250858,-0.859104,0.587944,0.348864,-0.0573695,-0.00490407,-0.1672,0.0317395,0.00270829,0.0120974,0.0650407,5,0.1,17,2.5,-3.5475,-2.56164,0.608017,-0.0347979,-0.866026,0.0144357,0.00321865,0,-0.00127405,0.0107325,2.27101,5,0.1,18,2.5,0.299963,1.24756,0.500001,-0.000693928,0.285614,-1.31316e-05,-0.0164062,0.0953302,0.000182539,0.0119595,0.228473,5,0.1,19,2.5,1.95818,0.0981537,1.38661,-0.0137173,0.00422985,0.190265,0.0147372,0.193626,-0.2039,0.010345,0.422488,5,0.1,20,2.5,-0.0996086,-2.14898,0.5,-0.00408324,0.0890061,-4.65661e-07,0.089827,-0.102311,1.11759e-05,0.013364,0.305781,5,0.1,21,2.5,-0.394506,1.45443,0.939917,0.0285571,-0.110363,0.152304,0.107963,-0.871114,-0.392381,0.026425,0.580593,5,0.1,22,2.5,4.31643,0.212085,0.600233,-0.117188,-0.124078,-0.0030715,0.123233,0.254106,0.00506639,0.0101615,1.76679,5,0.1,23,2.5,4.29332,-0.5635,0.5,-0.0940405,0.187053,0,0.0987351,0.435781,0,0.0187701,0.227184,5,0.1,24,2.5,3.84537,-0.11149,0.566332,0.180448,0.00709454,-0.011769,-0.305369,-0.0120066,0.0198968,0.0113033,0.00180031,5,0.1,25,2.5,1.01281,-2.43982,0.602044,-0.16975,0.172807,-0.00307923,0.0716411,-0.438079,0.00141189,0.0256352,0.596309,5,0.1,26,2.5,1.76032,-2.40238,0.600732,-0.322879,0.00220649,-0.00271918,-0.138849,0.00675023,0.00967458,0.0104872,0.0592026,5,0.1,27,2.5,0.291367,2.30087,0.642142,0.852924,0.14957,0.0239606,-0.067358,-0.0939667,-0.0150762,0.0104344,0.794203,5,0.1,28,2.5,0.00383679,-3.89387,1.26936,-0.0342792,-0.0116482,0.15318,0.268298,0.0154972,-0.205025,0.0118079,0.405838,5,0.1,29,2.5,-0.299797,3.77619,0.605969,0.00411677,0.116784,-0.015742,0.0396203,0.0180602,0.0221878,0.0128155,0.364119,5,0.1
0,2.6,-0.606119,3.96614,0.641094,-0.339837,0.275272,0.0243172,-0.184178,0.113606,-0.0247359,0.0105831,0.151989,5,0.1,1,2.6,-3.74119,3.92366,1.2557,-0.012219,-0.127149,0.130928,0.0162125,0.445962,-0.17482,0.0182012,0.365504,5,0.1,2,2.6,-3.03138,-3.76045,0.598875,-0.282258,-0.136727,0.00118613,0.188351,0.234127,-0.000834465,0.0123995,0.163701,5,0.1,3,2.6,-3.089,-2.50205,0.742561,-0.0961721,0.0211656,0.0117421,0.151157,-0.210524,-0.0184476,0.0199196,0.477701,5,0.1,4,2.6,-2.27179,4.00965,0.609392,-0.866026,-0.0655651,-0.00561029,0,0.0164509,0.00140071,0.0177093,2.26924,5,0.1,5,2.6,1.65313,4.31338,1.27533,-0.00500381,-0.0915527,0.12013,0.007689,0.422478,-0.184417,0.0205379,0.492464,5,0.1,6,2.6,-5.19499,-2.04572,0.599719,-0.053525,0.277889,-0.00089854,0.0507832,-0.64671,0.00804663,0.0333592,2.55669,5,0.1,7,2.6,0.837738,1.55221,0.607458,-0.457717,-0.092414,0.00648499,0.0558794,0.071764,0.114262,0.0133921,0.380973,5,0.1,8,2.6,4.4105,0.544146,0.597947,-0.107181,-0.330114,0.00182241,-0.107765,0.156194,-0.000178814,0.0284389,0.139787,5,0.1,9,2.6,3.5,-2.02848,0.599508,-0.276405,-0.101751,0.000487268,-0.610948,-0.127316,-0.000476837,0.0231013,2.1366,5,0.1,10,2.6,2.2564,-2.43223,0.589672,-0.571406,0.0293911,0.00957996,0.473499,-0.0200272,-0.00679493,0.0124743,0.129988,5,0.1,11,2.6,3.01156,-2.8667,0.513603,-0.0222564,0.0909984,-0.00526607,0.0572205,-0.234485,0.0135303,0.0118342,0.000811438,5,0.1,12,2.6,0.752996,-2.15549,0.60953,0.182961,-0.225568,-0.00979453,-0.121891,0.408053,0.0090003,0.0134542,0.161388,5,0.1,13,2.6,0.164383,1.74068,0.601414,0.214379,0.3683,-0.0301853,0.382543,-0.113189,-0.13423,0.00869501,0.169578,5,0.1,14,2.6,-0.112979,1.54373,0.646283,-0.0938665,0.607935,-0.0248924,0.304345,0.314593,-0.084579,0.0120275,0.655118,5,0.1,15,2.6,-0.386626,1.19267,0.500001,-0.0855863,-0.242457,-1.3411e-05,0.361994,-0.904381,0.000119209,0.0154667,0.21738,5,0.1,16,2.6,0.284894,-0.864683,0.587467,0.331406,-0.0541449,-0.0046283,-0.193939,0.0347197,0.00295043,0.0109419,0.050851,5,0.1,17,2.6,-3.55096,-2.64824,0.609452,-0.0342965,-0.866026,0.0142306,0.00834465,0,-0.00336766,0.0123334,2.27106,5,0.1,18,2.6,0.299847,1.27638,0.5,-0.00133961,0.28874,0,0.00147521,-0.0373125,5.96046e-05,0.0123826,0.204712,5,0.1,19,2.6,1.95688,0.1,1.40461,-0.012219,0.0370972,0.169539,0.0153184,0.450764,-0.212729,0.0105957,0.349412,5,0.1,20,2.6,-0.0996908,-2.14035,0.5,0.00136159,0.0854015,1.49012e-06,0.0249445,0.0123978,-2.98023e-05,0.0114858,3.70097,5,0.1,21,2.6,-0.391155,1.43914,0.953215,0.0379406,-0.193793,0.114058,0.0772625,-0.765324,-0.368148,0.0286873,0.303011,5,0.1,22,2.6,4.30531,0.2,0.599952,-0.105214,-0.12679,-0.00254661,0.119448,-0.285678,0.00536442,0.00723064,2.35499,5,0.1,23,2.6,4.2844,-0.54275,0.5,-0.084424,0.226159,0,0.0953674,0.329107,0,0.0181105,0.177506,5,0.1,24,2.6,3.8619,-0.11084,0.565254,0.150442,0.00591446,-0.0098139,-0.294685,-0.0115819,0.0191927,0.0133961,0.000967418,5,0.1,25,2.6,0.996157,-2.42473,0.601743,-0.163336,0.129145,-0.00294894,0.0655651,-0.427485,0.0013411,0.00956081,0.525724,5,0.1,26,2.6,1.72757,-2.40213,0.600504,-0.329673,0.00272989,-0.00187159,0.0106096,0.00357628,0.00736117,0.0101505,0.0857488,5,0.1,27,2.6,0.37612,2.31534,0.64446,0.839327,0.1396,0.0223622,-0.234441,-0.108838,-0.0174344,0.0123198,0.559502,5,0.1,28,2.6,0.00160935,-3.89496,1.28366,-0.0118279,-0.0101149,0.132903,0.17527,0.0152588,-0.201762,0.00983129,0.545585,5,0.1,29,2.6,-0.299227,3.78787,0.604508,0.0067912,0.115931,-0.0134587,0.00980496,-0.0360012,0.023365,0.0104331,0.784022,5,0.1
0,2.7,-0.64104,3.99409,0.643471,-0.358209,0.282234,0.0238046,-0.162877,0.0200421,0.00986457,0.0105831,0.151989,5,0.1,1,2.7,-3.74234,3.91308,1.26795,-0.0106834,-0.08572,0.114387,0.0146925,0.379071,-0.157975,0.0182012,0.365504,5,0.1,2,2.7,-3.05879,-3.77289,0.59899,-0.266682,-0.111609,0.00111712,0.136375,0.262618,-0.000599772,0.0123995,0.163701,5,0.1,3,2.7,-3.09789,-2.50092,0.743647,-0.0819921,0.00256263,0.0100109,0.133723,-0.141963,-0.0163279,0.0199196,0.477701,5,0.1,4,2.7,-2.35839,4.00315,0.608836,-0.866026,-0.0645895,-0.00552759,0,0.00680983,0.000573695,0.0177093,2.26924,5,0.1,5,2.7,1.65266,4.30623,1.28645,-0.00427831,-0.0526614,0.102717,0.00687689,0.347286,-0.165261,0.0205379,0.492464,5,0.1,6,2.7,-5.2001,-2.02099,0.599509,-0.0488736,0.221115,-0.00466499,0.0437796,-0.394255,-0.0734404,0.0333592,2.55669,5,0.1,7,2.7,0.792175,1.54326,0.608592,-0.453692,-0.0869248,0.015393,0.0456348,0.0433624,0.065539,0.0133921,0.380973,5,0.1,8,2.7,4.39914,0.511706,0.598128,-0.120521,-0.320226,0.00181794,-0.145227,0.0634138,-1.49012e-05,0.0284389,0.139787,5,0.1,9,2.7,3.46838,-2.03943,0.599554,-0.362926,-0.118402,0.000443589,-1.03164,-0.188619,-0.000406057,0.0231013,2.1366,5,0.1,10,2.7,2.20149,-2.42939,0.590597,-0.527726,0.0275154,0.00894219,0.417128,-0.0183731,-0.00623614,0.0124743,0.129988,5,0.1,11,2.7,3.00961,-2.85873,0.513141,-0.0168618,0.0688963,-0.00399044,0.0504702,-0.206769,0.0119321,0.0118342,0.000811438,5,0.1,12,2.7,0.770709,-2.17587,0.608593,0.171414,-0.180958,-0.00897245,-0.114467,0.472218,0.00773743,0.0134542,0.161388,5,0.1,13,2.7,0.187779,1.77687,0.597766,0.253389,0.354796,-0.042286,0.374374,-0.164047,-0.105087,0.00869501,0.169578,5,0.1,14,2.7,-0.120815,1.60615,0.643391,-0.0627553,0.640157,-0.032684,0.310532,0.292346,-0.0689551,0.0120275,0.655118,5,0.1,15,2.7,-0.393422,1.1643,0.5,-0.0509271,-0.32066,-3.72529e-06,0.326565,-0.6475,7.45058e-05,0.0154667,0.21738,5,0.1,16,2.7,0.317213,-0.869949,0.587017,0.316019,-0.0513761,-0.00439277,-0.131289,0.0235178,0.00200048,0.0109419,0.050851,5,0.1,17,2.7,-3.55436,-2.73484,0.610864,-0.0338174,-0.866026,0.0140401,0.00318885,0,-0.0012666,0.0123334,2.27106,5,0.1,18,2.7,0.299717,1.30498,0.5,-0.00125449,0.282023,3.35276e-06,0.00070408,-0.101447,7.45058e-06,0.0123826,0.204712,5,0.1,19,2.7,1.95574,0.106028,1.42053,-0.0107456,0.0836151,0.149073,0.0143051,0.459875,-0.198707,0.0105957,0.349412,5,0.1,20,2.7,-0.0994277,-2.13055,0.500119,0.0038558,0.120611,0.0033685,0.0224006,0.612304,0.059884,0.0114858,3.70097,5,0.1,21,2.7,-0.386992,1.41606,0.962825,0.0450848,-0.266018,0.0786864,0.0628252,-0.655919,-0.335444,0.0286873,0.303011,5,0.1,22,2.7,4.29535,0.185231,0.599724,-0.094448,-0.173789,-0.00201492,0.0990629,-0.598801,0.00521913,0.00723064,2.35499,5,0.1,23,2.7,4.2764,-0.518704,0.5,-0.0758216,0.252505,0,0.0792742,0.193743,0,0.0181105,0.177506,5,0.1,24,2.7,3.87551,-0.110305,0.564366,0.122054,0.00479859,-0.00796439,-0.272408,-0.0107074,0.017751,0.0133961,0.000967418,5,0.1,25,2.7,0.981026,-2.41455,0.601439,-0.131817,0.0698373,-0.00325181,0.513781,-0.713229,-0.00633299,0.00956081,0.525724,5,0.1,26,2.7,1.69457,-2.40184,0.600351,-0.330896,0.00296794,-0.00123242,-0.0162274,0.0012368,0.0054799,0.0101505,0.0857488,5,0.1,27,2.7,0.459012,2.32879,0.646614,0.818928,0.129563,0.0207547,-0.208199,-0.0961721,-0.0154004,0.0123198,0.559502,5,0.1,28,2.7,0.00122273,-3.89589,1.29596,0.00280153,-0.00863299,0.113334,0.0989083,0.0143945,-0.190072,0.00983129,0.545585,5,0.1,29,2.7,-0.298401,3.79926,0.603277,0.00989996,0.111462,-0.0111812,0.0215136,-0.0551641,0.0221319,0.0104331,0.784022,5,0.1
0,2.8,-0.677504,4.02222,0.645927,-0.368984,0.278449,0.0254735,-0.0387132,-0.0991821,0.0199974,0.073632,0.792939,5,0.1,1,2.8,-3.74333,3.90627,1.27861,-0.0092566,-0.0518799,0.0990003,0.0141859,0.295997,-0.151157,0.0154815,0.361251,5,0.1,2,2.8,-3.08477,-3.78273,0.599098,-0.252718,-0.0852048,0.00105649,0.15223,0.261068,-0.000655651,0.00963354,0.21816,5,0.1,3,2.8,-3.10544,-2.50115,0.744569,-0.0692129,-0.00459552,0.00845045,0.122786,0.00536442,-0.0149906,0.0142156,0.912057,5,0.1,4,2.8,-2.445,3.99674,0.608287,-0.866026,-0.0635684,-0.0054419,0,0.0163317,0.00140071,0.0182908,2.0158,5,0.1,5,2.8,1.65227,4.30252,1.29592,-0.003618,-0.0233173,0.086841,0.0063777,0.236034,-0.153363,0.0185,0.702852,5,0.1,6,2.8,-5.20477,-2,0.598608,-0.0445008,0.207159,-0.0138178,0.0448227,0.101864,-0.101894,0.018279,2.796,5,0.1,7,2.8,0.747158,1.53478,0.61039,-0.445049,-0.0828177,0.0199139,0.141621,0.0426173,0.0263751,0.0167203,0.16958,5,0.1,8,2.8,4.3864,0.479994,0.59831,-0.133836,-0.313664,0.00180304,-0.111341,0.0836551,-0.00038743,0.0268852,0.0864975,5,0.1,9,2.8,3.42683,-2.0522,0.599596,-0.467366,-0.136501,0.000402331,-0.991464,-0.160933,-0.000417233,0.0247348,1.69727,5,0.1,10,2.8,2.15083,-2.42673,0.59146,-0.485104,0.0255704,0.00828505,0.447154,-0.0212193,-0.00706315,0.0109686,0.151686,5,0.1,11,2.8,3.00817,-2.85282,0.512799,-0.0121891,0.0497758,-0.00288486,0.0427961,-0.175238,0.010103,0.0125342,0.000622629,5,0.1,12,2.8,0.787254,-2.19158,0.607734,0.159164,-0.133258,-0.00819415,-0.1342,0.472546,0.00798702,0.013081,0.172678,5,0.1,13,2.8,0.21482,1.8114,0.593078,0.285301,0.334361,-0.0507683,0.247613,-0.24873,-0.0629127,0.00921252,0.171641,5,0.1,14,2.8,-0.125578,1.67134,0.639819,-0.0330403,0.66008,-0.0383049,0.278316,0.0802279,-0.0419915,0.0115564,0.466079,5,0.1,15,2.8,-0.396972,1.1295,0.5,-0.0210539,-0.370097,0,0.267699,-0.334859,5.96046e-05,0.0140079,0.13489,5,0.1,16,2.8,0.348146,-0.874969,0.586588,0.302169,-0.0489518,-0.00418574,-0.157997,0.0269711,0.00229478,0.0122946,0.0232085,5,0.1,17,2.8,-3.55772,-2.82145,0.61226,-0.033319,-0.866026,0.0138387,0.00810623,0,-0.00336766,0.010208,2.27112,5,0.1,18,2.8,0.299597,1.33254,0.500001,-0.00112355,0.267783,1.49012e-06,0.00220537,-0.185549,2.98023e-05,0.0107333,0.19051,5,0.1,19,2.8,1.95473,0.116571,1.43445,-0.00933111,0.125694,0.129449,0.0140071,0.367641,-0.195146,0.0126853,0.335401,5,0.1,20,2.8,-0.0989507,-2.11498,0.500803,0.00543911,0.193769,0.0106469,0.00777468,0.789523,0.0798404,0.0122098,3.48355,5,0.1,21,2.8,-0.382212,1.38651,0.969097,0.0500418,-0.321096,0.0476211,0.0344813,-0.430048,-0.283182,0.0287249,0.215653,5,0.1,22,2.8,4.28639,0.164717,0.599548,-0.0848532,-0.2368,-0.00151247,0.095129,-0.619419,0.00473857,0.00821108,3.4046,5,0.1,23,2.8,4.2692,-0.492735,0.5,-0.0681281,0.264312,0,0.0762939,0.0404865,0,0.0232783,0.222349,5,0.1,24,2.8,3.88639,-0.109877,0.563656,0.0960886,0.003778,-0.0062719,-0.246286,-0.00968575,0.0160336,0.0116995,0.000827193,5,0.1,25,2.8,0.970806,-2.41129,0.601077,-0.0697017,-0.00546575,-0.00402927,0.688344,-0.757933,-0.00837445,0.0118833,0.339442,5,0.1,26,2.8,1.66148,-2.40154,0.600252,-0.329718,0.00298023,-0.00076443,0.0528693,-0.000834465,0.0039041,0.0136072,0.155746,5,0.1,27,2.8,0.539675,2.34125,0.648611,0.791849,0.119644,0.0191674,-0.357121,-0.105143,-0.0168681,0.0112889,0.38512,5,0.1,28,2.8,0.00176511,-3.89668,1.30636,0.0055502,-0.00722408,0.0948191,-0.0495595,0.0135899,-0.180364,0.00986085,0.999763,5,0.1,29,2.8,-0.297469,3.81008,0.602267,0.00669584,0.104624,-0.00904202,-0.0987202,-0.0827312,0.0205934,0.0105366,2.04485,5,0.1
0,2.9,-0.713474,4.04879,0.648787,-0.340593,0.246226,0.0334825,0.55166,-0.504285,0.12511,0.073632,0.792939,5,0.1,1,2.9,-3.74419,3.90245,1.2878,-0.00794381,-0.0255216,0.0850061,0.0122488,0.226244,-0.130527,0.0154815,0.361251,5,0.1,2,2.9,-3.1094,-3.78998,0.599201,-0.240749,-0.0601739,0.00100518,0.100791,0.236303,-0.000428408,0.00963354,0.21816,5,0.1,3,2.9,-3.11178,-2.50147,0.745343,-0.0579279,0.000960752,0.00707237,0.104085,0.167623,-0.0127144,0.0142156,0.912057,5,0.1,4,2.9,-2.5316,3.99044,0.607748,-0.866026,-0.0624314,-0.00534458,0,0.00968575,0.00083074,0.0182908,2.0158,5,0.1,5,2.9,1.65194,4.3013,1.30388,-0.00302922,-0.00239089,0.0726813,0.00544637,0.158578,-0.131167,0.0185,0.702852,5,0.1,6,2.9,-5.20901,-1.9787,0.596656,-0.0404157,0.220113,-0.0256318,0.0381768,0.174731,-0.126909,0.018279,2.796,5,0.1,7,2.9,0.703523,1.52682,0.612638,-0.425936,-0.0752997,0.0260361,0.243861,0.102624,0.0866391,0.0167203,0.16958,5,0.1,8,2.9,4.37256,0.448954,0.598488,-0.141681,-0.307647,0.00176458,-0.0435412,0.0526011,-0.00044331,0.0268852,0.0864975,5,0.1,9,2.9,3.37485,-2.0667,0.599635,-0.573425,-0.1536,0.00036424,-1.06266,-0.167876,-0.000353903,0.0247348,1.69727,5,0.1,10,2.9,2.10429,-2.42426,0.592259,-0.447792,0.023967,0.00774469,0.321761,-0.0124276,-0.00423938,0.0109686,0.151686,5,0.1,11,2.9,3.00715,-2.84867,0.512558,-0.00826046,0.0336949,-0.00195727,0.0356734,-0.145957,0.00842661,0.0125342,0.000622629,5,0.1,12,2.9,0.802824,-2.203,0.606947,0.154855,-0.0992224,-0.0076009,0.024166,0.22909,0.004448,0.013081,0.172678,5,0.1,13,2.9,0.244709,1.84352,0.587715,0.312998,0.307127,-0.0561603,0.279523,-0.296839,-0.0427254,0.00921252,0.171641,5,0.1,14,2.9,-0.127519,1.73777,0.635794,-0.00620424,0.667883,-0.0419863,0.253046,0.0458583,-0.0298172,0.0115564,0.466079,5,0.1,15,2.9,-0.397802,1.09105,0.5,0.00374378,-0.396238,3.72529e-06,0.224901,-0.177868,1.49012e-05,0.0140079,0.13489,5,0.1,16,2.9,0.377596,-0.879734,0.58618,0.28684,-0.0463635,-0.00396511,-0.157833,0.0263229,0.00224635,0.0122946,0.0232085,5,0.1,17,2.9,-3.56102,-2.90805,0.613632,-0.0328463,-0.866026,0.013642,0.00326335,0,-0.00134856,0.010208,2.27112,5,0.1,18,2.9,0.299432,1.35834,0.500001,-0.0026078,0.247877,2.42144e-06,-0.0235811,-0.214927,-7.45058e-06,0.0107333,0.19051,5,0.1,19,2.9,1.95387,0.130551,1.44646,-0.00800099,0.149888,0.110931,0.0126883,0.12659,-0.176638,0.0126853,0.335401,5,0.1,20,2.9,-0.0982237,-2.09119,0.502312,0.00998393,0.285064,0.0198321,0.0616373,0.975311,0.0981688,0.0122098,3.48355,5,0.1,21,2.9,-0.377048,1.35237,0.972507,0.0530432,-0.359982,0.0212959,0.0233147,-0.329413,-0.240635,0.0287249,0.215653,5,0.1,22,2.9,4.27835,0.138608,0.59942,-0.0760078,-0.279054,-0.00106385,0.0837445,-0.239464,0.00420585,0.00821108,3.4046,5,0.1,23,2.9,4.26271,-0.46652,0.5,-0.062234,0.256505,0,0.0459254,-0.169331,0,0.0232783,0.222349,5,0.1,24,2.9,3.89482,-0.109546,0.563106,0.0728961,0.0028659,-0.0047612,-0.216797,-0.00852579,0.01413,0.0116995,0.000827193,5,0.1,25,2.9,0.967456,-2.41573,0.600624,0.00372808,-0.0834856,-0.00506537,0.750549,-0.772581,-0.0114627,0.0118833,0.339442,5,0.1,26,2.9,1.62849,-2.40125,0.600193,-0.332118,0.00283569,-0.00043707,-0.071317,-0.00202656,0.00268593,0.0136072,0.155746,5,0.1,27,2.9,0.617195,2.35273,0.650449,0.759002,0.109984,0.0176182,-0.32812,-0.0916123,-0.0146851,0.0112889,0.38512,5,0.1,28,2.9,0.00197734,-3.89734,1.31498,-0.00405624,-0.00594668,0.0778884,-0.206685,0.0120252,-0.158906,0.00986085,0.999763,5,0.1,29,2.9,-0.297292,3.82013,0.601461,-0.00613951,0.0963125,-0.00710469,-0.265745,-0.0851601,0.0181422,0.0105366,2.04485,5,0.1
0,3,-0.744175,4.07051,0.652832,-0.268579,0.184989,0.0478312,0.84424,-0.687599,0.150293,0.0649335,0.663581,5,0.1,1,3,-3.74493,3.90089,1.29567,-0.00678301,-0.00731349,0.0725865,0.0112057,0.136018,-0.119209,0.00911384,0.784943,5,0.1,2,3,-3.13297,-3.79488,0.5993,-0.230229,-0.0384808,0.000961125,0.11909,0.195265,-0.000506639,0.0102626,0.330626,5,0.1,3,3,-3.11708,-2.5,0.74599,-0.0481844,0.0336647,0.00588298,0.0914335,0.47195,-0.0112057,0.019684,1.71714,5,0.1,4,3,-2.6182,3.98426,0.607219,-0.866026,-0.0610769,-0.00522882,0,0.0196695,0.00166893,0.0177068,1.58413,5,0.1,5,3,1.65166,4.30159,1.31052,-0.0025183,0.0051856,0.0603765,0.00482798,-0.0152588,-0.11605,0.0216204,1.20341,5,0.1,6,3,-5.21286,-1.95561,0.593468,-0.036633,0.243819,-0.0378996,0.038147,0.298917,-0.112891,0.0179949,2.51101,5,0.1,7,3,0.662337,1.51987,0.61571,-0.395869,-0.0632286,0.0355795,0.358313,0.134587,0.0970066,0.0143162,0.284989,5,0.1,8,3,4.3583,0.418508,0.598662,-0.142264,-0.300439,0.0017032,0.0324249,0.102729,-0.000804663,0.0274043,0.0809493,5,0.1,9,3,3.31253,-2.08283,0.599669,-0.668406,-0.167835,0.000329316,-0.789285,-0.107288,-0.000357628,0.0196802,1.27885,5,0.1,10,3,2.06106,-2.42192,0.593013,-0.416845,0.0228167,0.00735074,0.31364,-0.0116825,-0.00396371,0.0129434,0.119805,5,0.1,11,3,3.00649,-2.84598,0.512402,-0.00507236,0.0206411,-0.00120252,0.0282526,-0.114918,0.00664592,0.0116052,0.000365402,5,0.1,12,3,0.818531,-2.21204,0.606207,0.159833,-0.0837088,-0.0072062,0.0576079,0.0975132,0.0039041,0.015744,0.12968,5,0.1,13,3,0.277279,1.87266,0.581933,0.336631,0.274926,-0.0589609,0.174135,-0.346839,-0.0118911,0.0170925,3.73166,5,0.1,14,3,-0.126952,1.80453,0.631479,0.0166629,0.664234,-0.0439718,0.200599,-0.138938,-0.00870228,0.0147081,0.320665,5,0.1,15,3,-0.396396,1.05086,0.500001,0.0233799,-0.404117,4.47035e-06,0.165716,0.0258088,-2.98023e-05,0.0143128,0.293448,5,0.1,16,3,0.40543,-0.88423,0.585796,0.269075,-0.0434339,-0.00371486,-0.20355,0.0332296,0.00286102,0.0133638,0.0141231,5,0.1,17,3,-3.56429,-2.99465,0.614987,-0.0323474,-0.866026,0.0134334,0.00810623,0,-0.00336766,0.0102158,2.11028,5,0.1,18,3,0.299064,1.38199,0.500001,-0.00450388,0.224456,1.49012e-06,-0.00931323,-0.254571,-2.98023e-05,0.0110077,0.265347,5,0.1,19,3,1.95313,0.145847,1.45669,-0.00677407,0.153002,0.0938863,0.0118017,-0.0547543,-0.165164,0.013442,0.324723,5,0.1,20,3,-0.096966,-2.05791,0.504777,0.0143398,0.378239,0.0292912,0.0126995,0.843406,0.086844,0.0108378,3.27488,5,0.1,21,3,-0.37166,1.31502,0.973522,0.0543386,-0.38397,-7.00355e-05,0.00114739,-0.138521,-0.185013,0.0247109,0.857769,5,0.1,22,3,4.27116,0.110037,0.599333,-0.0677586,-0.287387,-0.000678003,0.0824928,0.0596493,0.00351667,0.00910043,3.58424,5,0.1,23,3,4.2567,-0.441889,0.5,-0.0582099,0.234852,0,0.0383854,-0.246942,0,0.019777,0.426566,5,0.1,24,3,3.90108,-0.1093,0.562697,0.0528455,0.00207741,-0.00345409,-0.183821,-0.00722334,0.0119805,0.0096168,0.00063184,5,0.1,25,3,0.971483,-2.42776,0.600061,0.0752568,-0.154853,-0.0061661,0.658214,-0.633359,-0.00992417,0.0105415,0.239889,5,0.1,26,3,1.59491,-2.40098,0.600161,-0.338867,0.00258684,-0.000216067,-0.0420809,-0.00298023,0.00169873,0.0122298,0.0945439,5,0.1,27,3,0.691314,2.36326,0.652137,0.721468,0.100714,0.016132,-0.441849,-0.0960827,-0.015378,0.0104473,0.261072,5,0.1,28,3,0,-3.89788,1.32201,-0.0406956,-0.00481009,0.0629276,-0.511072,0.0106096,-0.140905,0.0088354,1.16856,5,0.1,29,3,-0.3,3.82932,0.600838,-0.0555798,0.0873208,-0.00541657,-0.706553,-0.0957251,0.015676,0.0128541,3.28554,5,0.1
0,3.1,-0.766411,4.08531,0.658445,-0.173172,0.109129,0.0649103,1.02362,-0.799477,0.179876,0.0649335,0.663581,5,0.1,1,3.1,-3.74555,3.90084,1.30237,-0.00576265,0.00577122,0.0617273,0.00934303,0.097692,-0.0995547,0.00911384,0.784943,5,0.1,2,3.1,-3.15537,-3.79784,0.599393,-0.21743,-0.0214975,0.000907201,0.140831,0.144199,-0.000584871,0.0102626,0.330626,5,0.1,3,3.1,-3.12147,-2.49315,0.746526,-0.0399165,0.112255,0.00486979,0.0749528,1.01346,-0.00918284,0.019684,1.71714,5,0.1,4,3.1,-2.7048,3.97824,0.606703,-0.865945,-0.0594147,-0.00508782,0.00321865,0.0162125,0.00137091,0.0177068,1.58413,5,0.1,5,3.1,1.65143,4.30189,1.31601,-0.0020802,-0.00248551,0.0498479,0.00397861,-0.20647,-0.0957176,0.0216204,1.20341,5,0.1,6,3.1,-5.21635,-1.92982,0.589102,-0.0331692,0.273631,-0.0493937,0.0322163,0.385962,-0.1113,0.0179949,2.51101,5,0.1,7,3.1,0.62475,1.5142,0.61971,-0.354,-0.0504278,0.0439389,0.470802,0.121221,0.0685304,0.0143162,0.284989,5,0.1,8,3.1,4.34442,0.388882,0.598828,-0.13368,-0.292618,0.0016313,0.133097,0.0693239,-0.000700355,0.0274043,0.0809493,5,0.1,9,3.1,3.24172,-2.10015,0.599701,-0.746593,-0.178473,0.000296813,-0.722453,-0.095129,-0.000301749,0.0196802,1.27885,5,0.1,10,3.1,2.02126,-2.41969,0.593731,-0.376396,0.021841,0.00701686,0.478618,-0.00886619,-0.00304356,0.0129434,0.119805,5,0.1,11,3.1,3.00611,-2.84445,0.512312,-0.00256673,0.0104442,-0.000612531,0.0218749,-0.0889897,0.00515208,0.0116052,0.000365402,5,0.1,12,3.1,0.834614,-2.22029,0.605503,0.160021,-0.0844341,-0.00690296,-0.0511929,-0.0874549,0.00255555,0.015744,0.12968,5,0.1,13,3.1,0.310573,1.89699,0.576107,0.318379,0.199761,-0.0564259,-0.47973,-1.06693,0.0571869,0.0170925,3.73166,5,0.1,14,3.1,-0.124326,1.87029,0.627047,0.0353084,0.650701,-0.0445493,0.168287,-0.156097,-0.00135601,0.0147081,0.320665,5,0.1,15,3.1,-0.393284,1.01037,0.500001,0.0382493,-0.407038,1.95578e-06,0.129126,-0.0557676,-1.86265e-05,0.0143128,0.293448,5,0.1,16,3.1,0.431344,-0.888412,0.585438,0.249265,-0.0402164,-0.00343788,-0.199879,0.0323206,0.00277907,0.0133638,0.0141231,5,0.1,17,3.1,-3.56749,-3.08125,0.616318,-0.0318136,-0.866026,0.0132116,0.00430644,0,-0.00178814,0.0102158,2.11028,5,0.1,18,3.1,0.298546,1.40315,0.500001,-0.00568563,0.198522,-1.02445e-06,0.000532717,-0.264548,-1.86265e-05,0.0110077,0.265347,5,0.1,19,3.1,1.95251,0.160608,1.46529,-0.00566728,0.139895,0.0784205,0.010401,-0.195091,-0.145145,0.013442,0.324723,5,0.1,20,3.1,-0.0953784,-2.01574,0.508152,0.0170759,0.465167,0.0381879,-0.00457605,0.846229,0.0865869,0.0108378,3.27488,5,0.1,21,3.1,-0.366192,1.27571,0.972795,0.0552094,-0.40355,-0.012594,0.0122562,-0.219688,-0.072781,0.0247109,0.857769,5,0.1,22,3.1,4.26479,0.0820781,0.599282,-0.0598043,-0.267502,-0.000359397,0.077486,0.317305,0.0028424,0.00910043,3.58424,5,0.1,23,3.1,4.25122,-0.419728,0.5,-0.0499375,0.208344,0,0.118405,-0.251187,0,0.019777,0.426566,5,0.1,24,3.1,3.90549,-0.109127,0.562408,0.0359811,0.00141464,-0.00235438,-0.153035,-0.00601495,0.00999123,0.0096168,0.00063184,5,0.1,25,3.1,0.982173,-2.44638,0.599393,0.136876,-0.216505,-0.0072049,0.558943,-0.576258,-0.0101626,0.0105415,0.239889,5,0.1,26,3.1,1.56075,-2.40073,0.600147,-0.344545,0.00225678,-8.27014e-05,-0.0523701,-0.00357628,0.00100583,0.0122298,0.0945439,5,0.1,27,3.1,0.761378,2.37288,0.653678,0.680486,0.091923,0.0147254,-0.401121,-0.0827014,-0.013236,0.0104473,0.261072,5,0.1,28,3.1,-0.0074453,-3.89847,1.32763,-0.114649,-0.00827871,0.0499973,-0.899038,-0.0700504,-0.118397,0.0088354,1.16856,5,0.1,29,3.1,-0.309688,3.83806,0.600307,-0.142565,0.0915714,-0.0057552,-0.971746,0.149429,-0.0184849,0.0128541,3.28554,5,0.1
0,3.2,-0.778589,4.09224,0.665807,-0.0709459,0.0303745,0.0818312,0.990272,-0.752926,0.150174,0.063919,0.552633,5,0.1,1,3.2,-3.74608,3.90168,1.30806,-0.00488758,0.00833869,0.0523984,0.00834465,-0.0572205,-0.0882149,0.00833757,1.30663,5,0.1,2,3.2,-3.17634,-3.79935,0.599481,-0.201428,-0.00959635,0.000840425,0.181317,0.0942945,-0.00077486,0.00967395,2.89873,5,0.1,3,3.2,-3.12511,-2.47655,0.746969,-0.0330091,0.221115,0.0040248,0.0638962,1.09792,-0.00783801,0.0171651,1.39998,5,0.1,4,3.2,-2.79136,3.97239,0.606202,-0.864738,-0.0573874,-0.0049144,0.02563,0.0258684,0.00217557,0.0161612,1.20961,5,0.1,5,3.2,1.65124,4.3,1.32055,-0.00171363,-0.0412107,0.0410169,0.00339746,-0.550747,-0.081718,0.0231907,2.08018,5,0.1,6,3.2,-5.21951,-1.9,0.583647,-0.030005,0.327656,-0.0591889,0.0319481,0.672221,-0.0806153,0.019015,1.73981,5,0.1,7,3.2,0.591832,1.50974,0.624388,-0.303268,-0.0390202,0.0490308,0.536382,0.106871,0.0323653,0.00727681,0.557241,5,0.1,8,3.2,4.33184,0.360016,0.598988,-0.116825,-0.283928,0.00155121,0.198126,0.115305,-0.000923872,0.0270945,0.14264,5,0.1,9,3.2,3.16391,-2.11838,0.599729,-0.80412,-0.185126,0.000268221,-0.392318,-0.0306368,-0.000327826,0.0197963,0.915025,5,0.1,10,3.2,1.98617,-2.41756,0.594417,-0.324088,0.0208676,0.00668764,0.554621,-0.0112057,-0.00375509,0.0128849,0.273829,5,0.1,11,3.2,3.00595,-2.8438,0.512274,-0.000697374,0.00283122,-0.000171363,0.0156164,-0.0634193,0.00366569,0.0127385,0.000161703,5,0.1,12,3.2,0.8502,-2.22931,0.604826,0.150184,-0.0968695,-0.00662953,-0.142336,-0.142694,0.00321865,0.0156606,0.102927,5,0.1,13,3.2,0.339339,1.91106,0.570827,0.251438,0.0775009,-0.0485137,-0.810981,-1.30826,0.0965893,0.0195015,3.32462,5,0.1,14,3.2,-0.120034,1.93439,0.622607,0.049657,0.628948,-0.0440001,0.116073,-0.295341,0.013262,0.0126627,0.21582,5,0.1,15,3.2,-0.388891,0.969446,0.500001,0.0487998,-0.410387,0,0.0803918,0.00920892,0,0.0134143,0.21608,5,0.1,16,3.2,0.455231,-0.892265,0.585109,0.227936,-0.0367776,-0.00314265,-0.231072,0.0371933,0.00318885,0.0131102,0.00451922,5,0.1,17,3.2,-3.57065,-3.16786,0.617628,-0.0311971,-0.866026,0.0129551,0.00929832,0,-0.0038743,0.00941142,1.66754,5,0.1,18,3.2,0.298083,1.42166,0.500001,-0.00237226,0.171515,-2.98023e-06,0.0711083,-0.275314,0,0.00917485,0.385252,5,0.1,19,3.2,1.95199,0.173475,1.47243,-0.00468194,0.116223,0.0646919,0.00941753,-0.268221,-0.130296,0.0139135,0.322094,5,0.1,20,3.2,-0.0939986,-1.96532,0.512373,0.00694543,0.539151,0.045839,-0.216234,0.599027,0.0632703,0.0119806,3.02457,5,0.1,21,3.2,-0.360618,1.23434,0.971307,0.0561014,-0.422171,-0.0159681,0.00271201,-0.128686,-0.000834465,0.0225042,0.693628,5,0.1,22,3.2,4.2592,0.0571971,0.599259,-0.0521302,-0.22773,-0.000111759,0.0767708,0.460856,0.00214577,0.00995132,3.77417,5,0.1,23,3.2,4.24689,-0.4,0.5,-0.0360847,0.187792,0,0.152111,-0.160128,0,0.0192688,3.49768,5,0.1,24,3.2,3.90838,-0.109013,0.562219,0.0222862,0.000876375,-0.00146031,-0.12064,-0.00473857,0.00786781,0.00695305,0.398134,5,0.1,25,3.2,0.998389,-2.47066,0.598626,0.184526,-0.266153,-0.0080809,0.384003,-0.400543,-0.00688434,0.00994688,0.18455,5,0.1,26,3.2,1.52615,-2.40053,0.600143,-0.346103,0.00188351,-8.9407e-06,0.0343323,-0.0038147,0.000536442,0.0130943,0.0734953,5,0.1,27,3.2,0.827333,2.38167,0.655085,0.637317,0.083673,0.0134051,-0.478238,-0.0846386,-0.0135303,0.0126912,0.175524,5,0.1,28,3.2,-0.0235778,-3.89971,1.33207,-0.208376,-0.0170588,0.0391215,-0.923193,-0.0977516,-0.0997186,0.0090189,0.948649,5,0.1,29,3.2,-0.328824,3.84816,0.59961,-0.239195,0.111651,-0.00841022,-0.914916,0.228047,-0.0314713,0.0118856,3.2124,5,0.1
