id,t,px,py,pz,vx,vy,vz,ax,ay,az,planning_time,qp_cost,planning_report,size,id,t,px,py,pz,vx,vy,vz,ax,ay,az,planning_time,qp_cost,planning_report,size,id,t,px,py,pz,vx,vy,vz,ax,ay,az,planning_time,qp_cost,planning_report,size,id,t,px,py,pz,vx,vy,vz,ax,ay,az,planning_time,qp_cost,planning_report,size,id,t,px,py,pz,vx,vy,vz,ax,ay,az,planning_time,qp_cost,planning_report,size,id,t,px,py,pz,vx,vy,vz,ax,ay,az,planning_time,qp_cost,planning_report,size,id,t,px,py,pz,vx,vy,vz,ax,ay,az,planning_time,qp_cost,planning_report,size,id,t,px,py,pz,vx,vy,vz,ax,ay,az,planning_time,qp_cost,planning_report,size,id,t,px,py,pz,vx,vy,vz,ax,ay,az,planning_time,qp_cost,planning_report,size,id,t,px,py,pz,vx,vy,vz,ax,ay,az,planning_time,qp_cost,planning_report,size,id,t,px,py,pz,vx,vy,vz,ax,ay,az,planning_time,qp_cost,planning_report,size,id,t,px,py,pz,vx,vy,vz,ax,ay,az,planning_time,qp_cost,planning_report,size,id,t,px,py,pz,vx,vy,vz,ax,ay,az,planning_time,qp_cost,planning_report,size,id,t,px,py,pz,vx,vy,vz,ax,ay,az,planning_time,qp_cost,planning_report,size,id,t,px,py,pz,vx,vy,vz,ax,ay,az,planning_time,qp_cost,planning_report,size,id,t,px,py,pz,vx,vy,vz,ax,ay,az,planning_time,qp_cost,planning_report,size,id,t,px,py,pz,vx,vy,vz,ax,ay,az,planning_time,qp_cost,planning_report,size,id,t,px,py,pz,vx,vy,vz,ax,ay,az,planning_time,qp_cost,planning_report,size,id,t,px,py,pz,vx,vy,vz,ax,ay,az,planning_time,qp_cost,planning_report,size,id,t,px,py,pz,vx,vy,vz,ax,ay,az,planning_time,qp_cost,planning_report,size,id,t,px,py,pz,vx,vy,vz,ax,ay,az,planning_time,qp_cost,planning_report,size,id,t,px,py,pz,vx,vy,vz,ax,ay,az,planning_time,qp_cost,planning_report,size,id,t,px,py,pz,vx,vy,vz,ax,ay,az,planning_time,qp_cost,planning_report,size,id,t,px,py,pz,vx,vy,vz,ax,ay,az,planning_time,qp_cost,planning_report,size,id,t,px,py,pz,vx,vy,vz,ax,ay,az,planning_time,qp_cost,planning_report,size,id,t,px,py,pz,vx,vy,vz,ax,ay,az,planning_time,qp_cost,planning_report,size,id,t,px,py,pz,vx,vy,vz,ax,ay,az,planning_time,qp_cost,planning_report,size,id,t,px,py,pz,vx,vy,vz,ax,ay,az,planning_time,qp_cost,planning_report,size,id,t,px,py,pz,vx,vy,vz,ax,ay,az,planning_time,qp_cost,planning_report,size,id,t,px,py,pz,vx,vy,vz,ax,ay,az,planning_time,qp_cost,planning_report,size
0,0,-3.20388,5.72955,0.604764,0,0,0,0,0,0,0.0260749,3.5122,5,0.1,1,0,5.80928,1.5686,0.544501,0,0,0,0,0,0,0.00801186,2.17165,5,0.1,2,0,0.268912,-1.39506,0.60997,0,0,0,0,0,0,0.0105372,1.134,5,0.1,3,0,0.330685,-5.18604,0.569414,0,0,0,0,0,0,0.0285805,3.51219,5,0.1,4,0,-4.66078,-3.75304,0.626243,0,0,0,0,0,0,0.053018,3.51219,5,0.1,5,0,-3.96556,4.61316,0.654706,0,0,0,0,0,0,0.00870179,0.773906,5,0.1,6,0,-2.43444,-3.23806,0.59815,0,0,0,0,0,0,0.0129232,3.12248,5,0.1,7,0,-0.701736,5.13073,0.536671,0,0,0,0,0,0,0.0129461,0.723371,5,0.1,8,0,-2.02783,4.13552,0.551303,0,0,0,0,0,0,0.0101529,0.6134,5,0.1,9,0,1.17343,-0.220542,0.636108,0,0,0,0,0,0,0.017358,0.576897,5,0.1,10,0,-4.5853,3.98222,0.596065,0,0,0,0,0,0,0.0502346,3.5122,5,0.1,11,0,-1.70618,-1.54336,0.542843,0,0,0,0,0,0,0.0192108,3.226,5,0.1,12,0,-1.77412,-4.29295,0.576201,0,0,0,0,0,0,0.0210909,3.5122,5,0.1,13,0,-1.79303,-3.09764,0.632653,0,0,0,0,0,0,0.0164642,3.5122,5,0.1,14,0,-0.572675,-0.559982,0.658063,0,0,0,0,0,0,0.0192364,3.5122,5,0.1,15,0,-1.3467,4.48125,0.655793,0,0,0,0,0,0,0.0420134,0.71981,5,0.1,16,0,2.68292,-3.71282,0.5711,0,0,0,0,0,0,0.00929225,2.3395,5,0.1,17,0,-2.67833,4.04174,0.509026,0,0,0,0,0,0,0.0179961,0.639042,5,0.1,18,0,3.5195,-3.2923,0.548359,0,0,0,0,0,0,0.012923,3.5122,5,0.1,19,0,0.521706,2.82092,0.600059,0,0,0,0,0,0,0.0114738,3.5122,5,0.1,20,0,0.950982,-2.77581,0.609739,0,0,0,0,0,0,0.013031,0.403388,5,0.1,21,0,-1.10251,-1.83672,0.615134,0,0,0,0,0,0,0.0101927,3.5122,5,0.1,22,0,2.68084,-2.27934,0.545983,0,0,0,0,0,0,0.0187451,1.22991,5,0.1,23,0,-1.28737,-0.192252,0.683647,0,0,0,0,0,0,0.0140081,3.10851,5,0.1,24,0,0.187126,1.53227,0.601795,0,0,0,0,0,0,0.00995718,2.03409,5,0.1,25,0,-4.70421,-2.25908,0.583181,0,0,0,0,0,0,0.0340119,2.62472,5,0.1,26,0,3.99021,-4.57121,0.671933,0,0,0,0,0,0,0.0211118,3.5122,5,0.1,27,0,0.555562,-4.05172,0.661788,0,0,0,0,0,0,0.0178806,3.5122,5,0.1,28,0,4.62346,-5.33138,0.590762,0,0,0,0,0,0,0.0299458,0.420151,5,0.1,29,0,-3.39209,-1.52202,0.508978,0,0,0,0,0,0,0.0135836,1.0636,5,0.1
0,0.1,-3.20383,5.7276,0.6055,0.00150949,-0.055448,0.020875,0.0268519,-0.985771,0.371113,0.0260749,3.5122,5,0.1,1,0.1,5.80799,1.56759,0.544656,-0.0365973,-0.0285184,0.00440814,-0.650585,-0.50699,0.0783652,0.00801186,2.17165,5,0.1,2,0.1,0.269571,-1.39407,0.609959,0.0187017,0.028006,-0.000295416,0.332477,0.497892,-0.00525266,0.0105372,1.134,5,0.1,3,0.1,0.330575,-5.18396,0.569421,-0.00313111,0.0591844,0.00019921,-0.0556633,1.0522,0.00354275,0.0285805,3.51219,5,0.1,4,0.1,-4.66077,-3.75109,0.626969,0.000306219,0.0555739,0.0205947,0.00545382,0.987977,0.366129,0.053018,3.51219,5,0.1,5,0.1,-3.96588,4.61409,0.65471,-0.00897981,0.0263311,9.26666e-05,-0.159636,0.468105,0.0016503,0.00870179,0.773906,5,0.1,6,0.1,-2.43613,-3.23706,0.598226,-0.0482,0.0281949,0.00216505,-0.856876,0.50126,0.038486,0.0129232,3.12248,5,0.1,7,0.1,-0.701317,5.1307,0.53752,0.0119051,-0.000911206,0.0241024,0.211641,-0.0161827,0.428483,0.0129461,0.723371,5,0.1,8,0.1,-2.0279,4.13527,0.552136,-0.00213832,-0.00697896,0.0236688,-0.0380278,-0.124067,0.420779,0.0101529,0.6134,5,0.1,9,0.1,1.17424,-0.220781,0.63607,0.0230132,-0.00679982,-0.0010699,0.409134,-0.120886,-0.0190213,0.017358,0.576897,5,0.1,10,0.1,-4.58324,3.98213,0.596373,0.0585712,-0.0023663,0.0087467,1.04126,-0.0420511,0.155497,0.0502346,3.5122,5,0.1,11,0.1,-1.70659,-1.54159,0.543685,-0.0116704,0.0501812,0.0239194,-0.207476,0.892118,0.425231,0.0192108,3.226,5,0.1,12,0.1,-1.77372,-4.2909,0.576223,0.0112537,0.0581861,0.00063153,0.200063,1.03444,0.0112243,0.0210909,3.5122,5,0.1,13,0.1,-1.79313,-3.09561,0.633103,-0.00279453,0.0578079,0.0127689,-0.049673,1.02772,0.227001,0.0164642,3.5122,5,0.1,14,0.1,-0.572401,-0.557913,0.658005,0.0077744,0.0587328,-0.00165543,0.138212,1.04414,-0.0294335,0.0192364,3.5122,5,0.1,15,0.1,-1.3467,4.48064,0.656518,-9.79751e-05,-0.0172235,0.0205725,-0.00174344,-0.306219,0.36573,0.0420134,0.71981,5,0.1,16,0.1,2.68371,-3.71131,0.571069,0.0223797,0.0428744,-0.000883918,0.397876,0.762224,-0.015717,0.00929225,2.3395,5,0.1,17,0.1,-2.67835,4.04159,0.509904,-0.000641868,-0.00420064,0.0249214,-0.0113994,-0.0746846,0.443049,0.0179961,0.639042,5,0.1,18,0.1,3.51806,-3.29079,0.548411,-0.0408363,0.0429299,0.00148574,-0.72597,0.763193,0.0264086,0.012923,3.5122,5,0.1,19,0.1,0.521051,2.81894,0.600046,-0.0185932,-0.056275,-0.000386033,-0.330541,-1.00043,-0.00686571,0.0114738,3.5122,5,0.1,20,0.1,0.950929,-2.77511,0.609728,-0.0015107,0.0200264,-0.000288524,-0.0268631,0.356048,-0.00513345,0.013031,0.403388,5,0.1,21,0.1,-1.10049,-1.83724,0.61512,0.0573359,-0.015004,-0.00040317,1.01931,-0.266731,-0.00716373,0.0101927,3.5122,5,0.1,22,0.1,2.68008,-2.27837,0.546039,-0.0216581,0.0275407,0.00160066,-0.385016,0.489607,0.0284575,0.0187451,1.22991,5,0.1,23,0.1,-1.28931,-0.192521,0.683716,-0.0551976,-0.00763813,0.00196639,-0.981286,-0.13579,0.0349581,0.0140081,3.10851,5,0.1,24,0.1,0.186461,1.53083,0.601793,-0.0188807,-0.0409618,-5.31785e-05,-0.335656,-0.72822,-0.000949949,0.00995718,2.03409,5,0.1,25,0.1,-4.70244,-2.25939,0.583198,0.050503,-0.00862032,0.000498351,0.897825,-0.153273,0.00886247,0.0340119,2.62472,5,0.1,26,0.1,3.9903,-4.56912,0.671901,0.00263043,0.0592008,-0.000901986,0.0467747,1.0525,-0.0160374,0.0211118,3.5122,5,0.1,27,0.1,0.554991,-4.04971,0.661724,-0.0162188,0.0569776,-0.0018036,-0.288337,1.01292,-0.0320673,0.0178806,3.5122,5,0.1,28,0.1,4.62351,-5.33095,0.591615,0.00139773,0.0121884,0.0241891,0.0247955,0.216454,0.429641,0.0299458,0.420151,5,0.1,29,0.1,-3.39183,-1.52091,0.508917,0.00717416,0.0317685,-0.00174763,0.127524,0.564784,-0.0310726,0.0135836,1.0636,5,0.1
0,0.2,-3.20352,5.71633,0.60974,0.00476837,-0.17525,0.0659749,0.0357628,-1.3144,0.494808,0.0214692,2.92579,5,0.1,1,0.2,5.80056,1.5618,0.545551,-0.115657,-0.0901312,0.0139326,-0.867605,-0.675976,0.104487,0.00899382,1.78172,5,0.1,2,0.2,0.273369,-1.38838,0.609899,0.0591069,0.0885129,-0.000934303,0.443295,0.663817,-0.00700355,0.00910663,0.930394,5,0.1,3,0.2,0.329939,-5.17194,0.569461,-0.00989586,0.187051,0.000628829,-0.0742227,1.40285,0.00473857,0.0241323,2.9258,5,0.1,4,0.2,-4.66071,-3.7398,0.631152,0.000977516,0.175643,0.0650898,0.00715256,1.31726,0.488162,0.0390003,2.9258,5,0.1,5,0.2,-3.9677,4.61944,0.654728,-0.0283837,0.0832319,0.000293553,-0.212789,0.623941,0.00220537,0.00776612,0.634959,5,0.1,6,0.2,-2.44592,-3.23134,0.598666,-0.152338,0.0891089,0.00684261,-1.1425,0.668406,0.0513196,0.00972328,2.56184,5,0.1,7,0.2,-0.698898,5.13051,0.542416,0.0376269,-0.00288486,0.0761747,0.282168,-0.0214577,0.57134,0.0107142,0.593489,5,0.1,8,0.2,-2.02834,4.13385,0.556944,-0.00675917,-0.0220537,0.0748053,-0.0507832,-0.165462,0.561029,0.00919458,0.503264,5,0.1,9,0.2,1.17891,-0.222163,0.635853,0.0727326,-0.0214908,-0.00338107,0.545502,-0.161178,-0.0253916,0.013408,0.473314,5,0.1,10,0.2,-4.57134,3.98165,0.598149,0.185108,-0.00748038,0.0276431,1.38855,-0.0560284,0.207335,0.0414306,3.09482,5,0.1,11,0.2,-1.70896,-1.5314,0.548544,-0.0368863,0.158599,0.0755966,-0.276566,1.18941,0.566989,0.0127804,2.64678,5,0.1,12,0.2,-1.77143,-4.27908,0.576351,0.0355661,0.183904,0.00199676,0.266731,1.37925,0.014931,0.0171707,2.92579,5,0.1,13,0.2,-1.7937,-3.08386,0.635697,-0.00883043,0.182706,0.0403568,-0.0662208,1.37031,0.302643,0.0143508,2.92579,5,0.1,14,0.2,-0.570822,-0.545983,0.657668,0.0245705,0.185625,-0.0052318,0.184298,1.39216,-0.0392497,0.015649,2.9258,5,0.1,15,0.2,-1.34672,4.47714,0.660696,-0.000306964,-0.0544429,0.0650182,-0.00238419,-0.408173,0.487626,0.0342919,0.590572,5,0.1,16,0.2,2.68826,-3.7026,0.57089,0.0707328,0.135499,-0.00279397,0.530481,1.01638,-0.0209808,0.00801578,1.91944,5,0.1,17,0.2,-2.67848,4.04074,0.514966,-0.00203252,-0.013268,0.0787646,-0.0151396,-0.099659,0.590742,0.0170154,0.524301,5,0.1,18,0.2,3.50977,-3.28207,0.548713,-0.129056,0.135684,0.00469536,-0.968099,1.01745,0.0351965,0.0122692,2.92579,5,0.1,19,0.2,0.517274,2.80751,0.599967,-0.0587642,-0.177854,-0.00122041,-0.440717,-1.33395,-0.00917912,0.00981483,2.92579,5,0.1,20,0.2,0.950622,-2.77104,0.60967,-0.00477433,0.0632942,-0.000911951,-0.0358224,0.474691,-0.00685453,0.0115649,0.330961,5,0.1,21,0.2,-1.08885,-1.84029,0.615038,0.181213,-0.0474215,-0.00127405,1.35899,-0.355601,-0.00956655,0.0096932,2.9258,5,0.1,22,0.2,2.67568,-2.27278,0.546364,-0.06845,0.0870407,0.00505894,-0.513434,0.65279,0.0379682,0.0183774,1.00908,5,0.1,23,0.2,-1.30052,-0.194072,0.684116,-0.174451,-0.0241403,0.00621527,-1.30844,-0.181057,0.046581,0.0137882,2.55037,5,0.1,24,0.2,0.182625,1.5225,0.601782,-0.0596721,-0.129461,-0.000166893,-0.447549,-0.97096,-0.0013113,0.00871912,1.66886,5,0.1,25,0.2,-4.69218,-2.26114,0.583299,0.159609,-0.0272453,0.00157505,1.1971,-0.204444,0.0118315,0.0341773,2.15345,5,0.1,26,0.2,3.99084,-4.55709,0.671718,0.00831485,0.187111,-0.00285059,0.0623465,1.40333,-0.0213981,0.0208032,2.92579,5,0.1,27,0.2,0.551696,-4.03814,0.661358,-0.0512585,0.180078,-0.00570118,-0.38448,1.35064,-0.0427365,0.0191115,2.92578,5,0.1,28,0.2,4.62379,-5.32848,0.596523,0.00441074,0.0384569,0.0763133,0.0329018,0.287294,0.570834,0.0292109,0.294631,5,0.1,29,0.2,-3.39038,-1.51445,0.508562,0.0226736,0.100404,-0.00552386,0.170112,0.753045,-0.0414252,0.0152043,0.872761,5,0.1
0,0.3,-3.20284,5.6915,0.619089,0.00888146,-0.326417,0.122883,0.0439733,-1.61535,0.608113,0.0214692,2.92579,5,0.1,1,0.3,5.78418,1.54904,0.547525,-0.215175,-0.167673,0.0259186,-1.06159,-0.827186,0.127863,0.00899382,1.78172,5,0.1,2,0.3,0.281741,-1.37584,0.609767,0.109958,0.164661,-0.00173785,0.542454,0.812314,-0.00856817,0.00910663,0.930394,5,0.1,3,0.3,0.328536,-5.14543,0.569551,-0.018432,0.348394,0.00117328,-0.0912175,1.72409,0.00581145,0.0241323,2.9258,5,0.1,4,0.3,-4.66057,-3.71491,0.640376,0.00180304,0.327142,0.121233,0.00888109,1.61892,0.599943,0.0390003,2.9258,5,0.1,5,0.3,-3.97172,4.63123,0.65477,-0.0527944,0.154813,0.000546407,-0.260428,0.763655,0.00269338,0.00776612,0.634959,5,0.1,6,0.3,-2.4675,-3.21872,0.599635,-0.283396,0.16578,0.0127295,-1.39806,0.81788,0.0628009,0.00972328,2.56184,5,0.1,7,0.3,-0.693569,5.13011,0.553205,0.0699958,-0.00535101,0.141713,0.345297,-0.0263453,0.699118,0.0107142,0.593489,5,0.1,8,0.3,-2.02929,4.13073,0.567539,-0.0125822,-0.0410341,0.139162,-0.0620931,-0.202447,0.686526,0.00919458,0.503264,5,0.1,9,0.3,1.18921,-0.225206,0.635374,0.135307,-0.0399798,-0.00629276,0.66752,-0.197233,-0.031054,0.013408,0.473314,5,0.1,10,0.3,-4.54638,3.98059,0.602067,0.308819,-0.0139263,0.0514882,1.06806,-0.0688881,0.254802,0.0414306,3.09482,5,0.1,11,0.3,-1.71418,-1.50893,0.559251,-0.0686141,0.29504,0.140636,-0.338472,1.45549,0.693809,0.0127804,2.64678,5,0.1,12,0.3,-1.76639,-4.25302,0.576634,0.0662429,0.34253,0.00371533,0.327818,1.69504,0.0183694,0.0171707,2.92579,5,0.1,13,0.3,-1.79495,-3.05797,0.641415,-0.0164466,0.340304,0.0751645,-0.0813827,1.68407,0.371959,0.0143508,2.92579,5,0.1,14,0.3,-0.56734,-0.519678,0.656927,0.0457658,0.345737,-0.00974555,0.226483,1.71095,-0.0482276,0.015649,2.9258,5,0.1,15,0.3,-1.34677,4.46943,0.669905,-0.000577793,-0.101269,0.120955,-0.00287592,-0.499517,0.59671,0.0342919,0.590572,5,0.1,16,0.3,2.69828,-3.68341,0.570494,0.131585,0.252086,-0.00519976,0.649139,1.24368,-0.0256598,0.00801578,1.91944,5,0.1,17,0.3,-2.67877,4.03886,0.526122,-0.00377148,-0.0246964,0.146529,-0.0185668,-0.121862,0.722878,0.0170154,0.524301,5,0.1,18,0.3,3.49148,-3.26284,0.549378,-0.240391,0.252705,0.00874391,-1.18968,1.25052,0.0432692,0.0122692,2.92579,5,0.1,19,0.3,0.508947,2.78231,0.599794,-0.109451,-0.33127,-0.00227503,-0.541639,-1.63938,-0.0112653,0.00981483,2.92579,5,0.1,20,0.3,0.949946,-2.76207,0.609541,-0.00888333,0.117747,-0.00169771,-0.0438318,0.580892,-0.00837818,0.0115649,0.330961,5,0.1,21,0.3,-1.06317,-1.84701,0.614857,0.337512,-0.0883209,-0.00237385,1.67023,-0.437059,-0.0117533,0.0096932,2.9258,5,0.1,22,0.3,2.66599,-2.26045,0.547081,-0.127344,0.161923,0.00941344,-0.628248,0.798807,0.0464469,0.0183774,1.00908,5,0.1,23,0.3,-1.32523,-0.197491,0.684996,-0.324542,-0.0449093,0.0115597,-1.60109,-0.221551,0.0570156,0.0137882,2.55037,5,0.1,24,0.3,0.174174,1.50417,0.601758,-0.111011,-0.240841,-0.000315625,-0.547651,-1.18814,-0.0015758,0.00871912,1.66886,5,0.1,25,0.3,-4.66957,-2.265,0.583523,0.29693,-0.0506938,0.00293162,1.46487,-0.250101,0.014469,0.0341773,2.15345,5,0.1,26,0.3,3.99202,-4.53058,0.671314,0.015486,0.348505,-0.00531096,0.0766218,1.72466,-0.0262856,0.0208032,2.92579,5,0.1,27,0.3,0.544432,-4.01262,0.66055,-0.0954758,0.335411,-0.010617,-0.472493,1.65983,-0.0525378,0.0191115,2.92578,5,0.1,28,0.3,4.62441,-5.32308,0.607254,0.00807494,0.0704356,0.139832,0.0383258,0.333995,0.663318,0.0292109,0.294631,5,0.1,29,0.3,-3.38717,-1.50023,0.507814,0.0421852,0.186786,-0.00929525,0.20811,0.92148,-0.0332631,0.0152043,0.872761,5,0.1
0,0.4,-3.20174,5.65092,0.634367,0.013119,-0.482047,0.181474,0.0388622,-1.42837,0.537664,0.023839,2.51007,5,0.1,1,0.4,5.75745,1.52821,0.550745,-0.317335,-0.247279,0.0382245,-0.936508,-0.729799,0.112772,0.00752241,1.40971,5,0.1,2,0.4,0.295401,-1.35539,0.609551,0.162163,0.242838,-0.002563,0.478581,0.716627,-0.00753999,0.0127057,0.736139,5,0.1,3,0.4,0.326245,-5.10212,0.569696,-0.0272207,0.514507,0.00173301,-0.0806451,1.52445,0.005126,0.0239031,2.51537,5,0.1,4,0.4,-4.66035,-3.67424,0.655448,0.00265837,0.483125,0.179036,0.00786781,1.43135,0.530481,0.0451581,2.50673,5,0.1,5,0.4,-3.97828,4.65046,0.654838,-0.0778556,0.22831,0.000806153,-0.229836,0.673532,0.00238419,0.00977438,0.502397,5,0.1,6,0.4,-2.50271,-3.19812,0.601216,-0.417942,0.244492,0.0187725,-1.23346,0.721455,0.0554025,0.0107576,2.02696,5,0.1,7,0.4,-0.684874,5.12944,0.57081,0.103226,-0.00787973,0.208996,0.304669,-0.023365,0.616729,0.0106346,0.469575,5,0.1,8,0.4,-2.03086,4.12563,0.584827,-0.0185549,-0.0605106,0.205231,-0.0547171,-0.178814,0.605702,0.0129657,0.398188,5,0.1,9,0.4,1.20602,-0.230173,0.634592,0.199547,-0.0589613,-0.00928044,0.588894,-0.174001,-0.0273883,0.0152635,0.374492,5,0.1,10,0.4,-4.5108,3.97886,0.608468,0.395954,-0.0205636,0.0760376,0.664473,-0.0609159,0.225306,0.0438038,3.07747,5,0.1,11,0.4,-1.7227,-1.47228,0.576722,-0.101188,0.435117,0.207406,-0.298679,1.28412,0.61211,0.0143517,2.09417,5,0.1,12,0.4,-1.75816,-4.21043,0.577096,0.0978291,0.505853,0.00548661,0.289798,1.49846,0.0162423,0.0163288,2.51234,5,0.1,13,0.4,-1.79699,-3.01566,0.65076,-0.0242889,0.502557,0.111003,-0.0719428,1.48904,0.328869,0.015493,2.52166,5,0.1,14,0.4,-0.56165,-0.476695,0.655715,0.0675872,0.510582,-0.0143915,0.200242,1.5128,-0.0426769,0.0140083,2.49868,5,0.1,15,0.4,-1.34684,4.45685,0.684931,-0.000855327,-0.149345,0.17838,-0.0025034,-0.440836,0.526458,0.0362811,0.467268,5,0.1,16,0.4,2.71462,-3.65209,0.569848,0.194061,0.371772,-0.00766814,0.572562,1.09708,-0.0226498,0.00873374,1.51868,5,0.1,17,0.4,-2.67924,4.03579,0.544325,-0.00556111,-0.0364304,0.216097,-0.0164509,-0.107527,0.63774,0.0156692,0.439309,5,0.1,18,0.4,3.46159,-3.23143,0.550466,-0.355011,0.373191,0.0129119,-1.05178,1.10579,0.038296,0.0111322,2.44307,5,0.1,19,0.4,0.495339,2.74112,0.599511,-0.161636,-0.489217,-0.00336021,-0.478923,-1.44958,-0.00995398,0.00982712,2.51007,5,0.1,20,0.4,0.948842,-2.74745,0.60933,-0.0131011,0.173652,-0.0025034,-0.0386536,0.512481,-0.00739098,0.0093451,0.261861,5,0.1,21,0.4,-1.02121,-1.85799,0.614562,0.498435,-0.13043,-0.00350624,1.47676,-0.386477,-0.0103712,0.01112,2.51079,5,0.1,22,0.4,2.65017,-2.24034,0.54825,-0.187802,0.2388,0.0138819,-0.554323,0.704765,0.041008,0.0182708,0.630874,5,0.1,23,0.4,-1.36555,-0.20307,0.686432,-0.478625,-0.0662312,0.0170469,-1.41257,-0.195459,0.0503361,0.0142876,2.01787,5,0.1,24,0.4,0.160383,1.47425,0.601719,-0.163716,-0.355187,-0.000466406,-0.483155,-1.04821,-0.00137091,0.0101201,1.32042,5,0.1,25,0.4,-4.63268,-2.27129,0.583887,0.437915,-0.0747681,0.00432432,1.29223,-0.220537,0.0127554,0.0353518,1.70384,5,0.1,26,0.4,3.99394,-4.48725,0.670653,0.0228643,0.514674,-0.00784397,0.0679493,1.52493,-0.023216,0.0196751,2.51542,5,0.1,27,0.4,0.532562,-3.97092,0.65923,-0.140999,0.495338,-0.015679,-0.417769,1.46747,-0.0464618,0.0182737,2.35985,5,0.1,28,0.4,4.62541,-5.31441,0.624462,0.0117064,0.102103,0.202705,0.0326633,0.285864,0.567645,0.0302622,0.194032,5,0.1,29,0.4,-3.38192,-1.47703,0.506737,0.0622153,0.275469,-0.012055,0.183582,0.812888,-0.0214577,0.0162157,0.691024,5,0.1
0,0.5,-3.20023,5.59537,0.655279,0.0171177,-0.629026,0.236802,0.0390708,-1.43567,0.540435,0.023839,2.51007,5,0.1,1,0.5,5.72094,1.49976,0.555141,-0.412352,-0.321324,0.0496671,-0.917256,-0.714779,0.110462,0.00752241,1.40971,5,0.1,2,0.5,0.314054,-1.32746,0.609256,0.210719,0.315548,-0.00332845,0.468731,0.701904,-0.0073947,0.0127057,0.736139,5,0.1,3,0.5,0.323108,-5.04306,0.569896,-0.0355193,0.664698,0.0022606,-0.0810623,1.41114,0.00515208,0.0239031,2.51537,5,0.1,4,0.5,-4.66004,-3.61856,0.676079,0.00346825,0.630385,0.233612,0.00789762,1.43816,0.532985,0.0451581,2.50673,5,0.1,5,0.5,-3.98723,4.67672,0.654931,-0.101174,0.296653,0.00104774,-0.225097,0.659794,0.00233203,0.00977438,0.502397,5,0.1,6,0.5,-2.55078,-3.17,0.603375,-0.543088,0.317692,0.0243937,-1.20807,0.706643,0.0542589,0.0107576,2.02696,5,0.1,7,0.5,-0.673,5.12853,0.594849,0.134138,-0.0102498,0.27157,0.298392,-0.0228584,0.604048,0.0106346,0.469575,5,0.1,8,0.5,-2.03299,4.11867,0.608434,-0.0241071,-0.0786498,0.266685,-0.0535846,-0.175059,0.593234,0.0129657,0.398188,5,0.1,9,0.5,1.22898,-0.236955,0.633525,0.259297,-0.0766155,-0.012059,0.576779,-0.170423,-0.0268221,0.0152635,0.374492,5,0.1,10,0.5,-4.4691,3.97649,0.617227,0.427476,-0.0268046,0.0991147,0.0211298,-0.0607222,0.224546,0.0438038,3.07747,5,0.1,11,0.5,-1.73434,-1.42223,0.600579,-0.131492,0.565404,0.269511,-0.292525,1.25771,0.599507,0.0143517,2.09417,5,0.1,12,0.5,-1.74689,-4.15229,0.577728,0.127652,0.655675,0.00715889,0.29131,1.42688,0.0163391,0.0163288,2.51234,5,0.1,13,0.5,-1.79988,-2.95807,0.663531,-0.0341769,0.646842,0.144258,-0.116497,1.33803,0.320122,0.015493,2.52166,5,0.1,14,0.5,-0.553862,-0.418055,0.654057,0.0881724,0.66061,-0.0187779,0.200905,1.41829,-0.0428036,0.0140083,2.49868,5,0.1,15,0.5,-1.34694,4.43967,0.705449,-0.00110883,-0.194071,0.231794,-0.00243634,-0.431716,0.515621,0.0362811,0.467268,5,0.1,16,0.5,2.73694,-3.60933,0.568966,0.252156,0.483083,-0.00996562,0.56085,1.07454,-0.0221692,0.00873374,1.51868,5,0.1,17,0.5,-2.67988,4.0316,0.568635,-0.00723116,-0.047338,0.265365,-0.0161082,-0.105262,0.354104,0.0156692,0.439309,5,0.1,18,0.5,3.4207,-3.18844,0.551953,-0.462758,0.486469,0.0168343,-1.04855,1.10239,0.0381656,0.0111322,2.44307,5,0.1,19,0.5,0.476713,2.68474,0.599124,-0.210918,-0.638381,-0.00438411,-0.48138,-1.45701,-0.00999868,0.00982712,2.51007,5,0.1,20,0.5,0.947335,-2.72747,0.609042,-0.0170232,0.225649,-0.00325302,-0.0378601,0.501946,-0.00723824,0.0093451,0.261861,5,0.1,21,0.5,-0.963855,-1.87302,0.614158,0.647977,-0.170047,-0.00457363,1.44045,-0.385754,-0.0104271,0.01112,2.51079,5,0.1,22,0.5,2.62857,-2.21308,0.549847,-0.244042,0.304315,0.0180415,-0.542864,0.583783,0.0401475,0.0182708,0.630874,5,0.1,23,0.5,-1.4206,-0.210689,0.688393,-0.621942,-0.0860624,0.0221536,-1.38348,-0.191436,0.0492968,0.0142876,2.01787,5,0.1,24,0.5,0.141552,1.43339,0.601665,-0.212737,-0.461538,-0.000604987,-0.473213,-1.02665,-0.00133365,0.0101201,1.32042,5,0.1,25,0.5,-4.58231,-2.27989,0.584384,0.569028,-0.0971448,0.0056183,1.2657,-0.216022,0.0124872,0.0353518,1.70384,5,0.1,26,0.5,3.99658,-4.42818,0.66975,0.029853,0.664869,-0.0102332,0.0682175,1.41084,-0.0233427,0.0196751,2.51542,5,0.1,27,0.5,0.516329,-3.9139,0.657425,-0.183552,0.644712,-0.0204116,-0.41214,1.44592,-0.045836,0.0182737,2.35985,5,0.1,28,0.5,4.62674,-5.30279,0.64753,0.0148721,0.129785,0.257664,0.0293553,0.256121,0.508461,0.0302622,0.194032,5,0.1,29,0.5,-3.37477,-1.44534,0.505458,0.0808418,0.357946,-0.0131934,0.179797,0.796191,-0.00235066,0.0162157,0.691024,5,0.1
0,0.6,-3.19833,5.52579,0.681474,0.0205815,-0.756276,0.284702,0.0287294,-1.05572,0.397474,0.0247508,2.00224,5,0.1,1,0.6,5.67547,1.46433,0.560619,-0.492847,-0.384048,0.0593618,-0.659704,-0.514209,0.079453,0.00901016,1.04949,5,0.1,2,0.6,0.337292,-1.29266,0.608889,0.251853,0.377142,-0.00397712,0.337198,0.504971,-0.00533462,0.0117334,0.54804,5,0.1,3,0.6,0.319179,-4.97017,0.570146,-0.0427037,0.785506,0.00271648,-0.0596195,0.96035,0.0038147,0.0235482,2.33358,5,0.1,4,0.6,-4.65966,-3.54883,0.70192,0.00417233,0.757831,0.280844,0.00596046,1.05739,0.391841,0.0422039,1.92043,5,0.1,5,0.6,-3.99839,4.70943,0.655046,-0.120932,0.354552,0.0012517,-0.161767,0.47493,0.00166893,0.0080337,0.374039,5,0.1,6,0.6,-2.61067,-3.13496,0.606066,-0.649107,0.379705,0.0291556,-0.868917,0.508308,0.039041,0.00986175,1.50902,5,0.1,7,0.6,-0.658207,5.1274,0.624799,0.160323,-0.0122547,0.32458,0.214666,-0.0166893,0.434518,0.00972055,0.349588,5,0.1,8,0.6,-2.03565,4.11,0.637845,-0.0288069,-0.0940084,0.318743,-0.0386238,-0.125885,0.426769,0.012686,0.296438,5,0.1,9,0.6,1.25757,-0.245405,0.632195,0.309911,-0.0915706,-0.0144124,0.414908,-0.122614,-0.0192821,0.0145141,0.2788,5,0.1,10,0.6,-4.42694,3.97353,0.628181,0.409818,-0.0321686,0.118954,-0.332832,-0.0443459,0.163972,0.0496362,0.285314,5,0.1,11,0.6,-1.74885,-1.35988,0.630301,-0.157163,0.675777,0.32212,-0.210404,0.904679,0.431269,0.0137011,1.55906,5,0.1,12,0.6,-1.73277,-4.08018,0.57852,0.15347,0.779343,0.00860691,0.214279,0.998735,0.0120103,0.0189911,2.31728,5,0.1,13,0.6,-1.80389,-2.88734,0.679434,-0.0459582,0.760293,0.172289,-0.111997,0.890851,0.22918,0.0148373,2.57582,5,0.1,14,0.6,-0.544111,-0.34552,0.65198,0.105967,0.782714,-0.0225678,0.147521,0.977993,-0.0314415,0.0149164,2.18036,5,0.1,15,0.6,-1.34706,4.41827,0.731012,-0.00132322,-0.231969,0.277042,-0.00178814,-0.310421,0.37092,0.0385169,0.347867,5,0.1,16,0.6,2.76475,-3.55605,0.567867,0.301373,0.577378,-0.0119105,0.403523,0.772953,-0.0159442,0.00934697,1.14624,5,0.1,17,0.6,-2.68068,4.02638,0.596517,-0.00864267,-0.0565886,0.288187,-0.0116825,-0.0753403,0.10848,0.0186695,0.377858,5,0.1,18,0.6,3.36956,-3.13467,0.553814,-0.555408,0.583875,0.0202075,-0.76592,0.805378,0.0278652,0.011593,1.82792,5,0.1,19,0.6,0.453381,2.61413,0.598639,-0.253584,-0.767517,-0.00527054,-0.354007,-1.07145,-0.00733137,0.0105367,2.28918,5,0.1,20,0.6,0.945458,-2.70259,0.608683,-0.020346,0.269699,-0.00388771,-0.0272095,0.361085,-0.00521541,0.0124346,0.194949,5,0.1,21,0.6,-0.892408,-1.89181,0.613652,0.774099,-0.204149,-0.00549853,1.03134,-0.282109,-0.0076592,0.00891233,2.32391,5,0.1,22,0.6,2.60165,-2.18007,0.551837,-0.291681,0.351954,0.0215635,-0.39053,0.354409,0.0288785,0.0191061,0.517399,5,0.1,23,0.6,-1.48919,-0.22018,0.690836,-0.743347,-0.102862,0.0264794,-0.995219,-0.137709,0.0354648,0.0142363,1.55365,5,0.1,24,0.6,0.118091,1.38249,0.601599,-0.254263,-0.551629,-0.000721216,-0.340421,-0.738621,-0.000983477,0.0109794,0.983024,5,0.1,25,0.6,-4.51956,-2.29061,0.585004,0.680101,-0.116098,0.00671446,0.910521,-0.155449,0.0090003,0.0369415,1.26847,5,0.1,26,0.6,3.99988,-4.35528,0.668618,0.0358939,0.785625,-0.0123024,0.0503063,0.959635,-0.0171661,0.019891,2.33387,5,0.1,27,0.6,0.496065,-3.84273,0.655171,-0.219825,0.77191,-0.0244454,-0.298455,1.0457,-0.0331998,0.0206389,1.81029,5,0.1,28,0.6,4.62836,-5.28866,0.675586,0.017345,0.151372,0.300518,0.0190735,0.167847,0.332892,0.0328038,0.195376,5,0.1,29,0.6,-3.36585,-1.40587,0.504152,0.0966191,0.427815,-0.0127196,0.129342,0.572741,0.0109076,0.0136635,0.515056,5,0.1
0,0.7,-3.19613,5.44575,0.71192,0.0233889,-0.835557,0.323537,0.0257492,-0.528097,0.356421,0.0247508,2.00224,5,0.1,1,0.7,5.62294,1.42339,0.566945,-0.556181,-0.433413,0.0669899,-0.570804,-0.444889,0.0687502,0.00901016,1.04949,5,0.1,2,0.7,0.364135,-1.25246,0.608465,0.284225,0.425621,-0.00448935,0.291737,0.436902,-0.00461191,0.0117334,0.54804,5,0.1,3,0.7,0.314607,-4.88788,0.570437,-0.0486878,0.850365,0.00309898,-0.0562891,0.363797,0.00359491,0.0235482,2.33358,5,0.1,4,0.7,-4.65921,-3.46865,0.731941,0.00474826,0.836885,0.318795,0.00521541,0.522479,0.345454,0.0422039,1.92043,5,0.1,5,0.7,-4.01128,4.74722,0.65518,-0.136464,0.400148,0.00141198,-0.139996,0.410944,0.00144914,0.0080337,0.374039,5,0.1,6,0.7,-2.67985,-3.09449,0.609173,-0.732528,0.428506,0.0329036,-0.751838,0.439808,0.0337735,0.00986175,1.50902,5,0.1,7,0.7,-0.64112,5.1261,0.659392,0.180932,-0.0138514,0.366296,0.185721,-0.0143945,0.375949,0.00972055,0.349588,5,0.1,8,0.7,-2.03872,4.09998,0.671816,-0.0325132,-0.10609,0.359714,-0.0333935,-0.108898,0.369228,0.012686,0.296438,5,0.1,9,0.7,1.2906,-0.255164,0.630659,0.349745,-0.103342,-0.0162637,0.358976,-0.106083,-0.0166818,0.0145141,0.2788,5,0.1,10,0.7,-4.38806,3.96978,0.641042,0.363969,-0.0453431,0.139238,-0.562817,-0.196949,0.222765,0.0496362,0.285314,5,0.1,11,0.7,-1.7656,-1.28785,0.664633,-0.177363,0.762631,0.363523,-0.182055,0.782751,0.373129,0.0137011,1.55906,5,0.1,12,0.7,-1.71633,-3.99831,0.579441,0.174974,0.84823,0.00981269,0.202253,0.400439,0.0113435,0.0189911,2.31728,5,0.1,13,0.7,-1.80909,-2.80856,0.697817,-0.0581514,0.799744,0.195061,-0.124112,-0.0382066,0.211935,0.0148373,2.57582,5,0.1,14,0.7,-0.532785,-0.263954,0.649568,0.120248,0.833676,-0.0256111,0.129931,0.0824846,-0.0276826,0.0149164,2.18036,5,0.1,15,0.7,-1.3472,4.39355,0.760539,-0.0014944,-0.261774,0.312652,-0.00152737,-0.268608,0.320919,0.0385169,0.347867,5,0.1,16,0.7,2.79676,-3.49487,0.566596,0.336968,0.641459,-0.0134626,0.293225,0.488743,-0.014171,0.00934697,1.14624,5,0.1,17,0.7,-2.6816,4.02035,0.625322,-0.00976212,-0.0638269,0.283376,-0.0100881,-0.0652373,-0.165269,0.0186695,0.377858,5,0.1,18,0.7,3.31024,-3.07231,0.555972,-0.629398,0.661674,0.0228991,-0.671506,0.706106,0.0244267,0.011593,1.82792,5,0.1,19,0.7,0.426229,2.53304,0.598075,-0.28912,-0.844109,-0.00600675,-0.334294,-0.470921,-0.00692531,0.0105367,2.28918,5,0.1,20,0.7,0.94329,-2.67384,0.608269,-0.0229587,0.304364,-0.00438811,-0.0235476,0.312418,-0.00451133,0.0124346,0.194949,5,0.1,21,0.7,-0.810881,-1.91317,0.613064,0.846412,-0.218792,-0.00626761,0.431616,-0.0266954,-0.00723451,0.00891233,2.32391,5,0.1,22,0.7,2.57056,-2.14389,0.554135,-0.329172,0.364625,0.0243355,-0.337869,-0.0766814,0.0249743,0.0191061,0.517399,5,0.1,23,0.7,-1.56772,-0.231143,0.693658,-0.819051,-0.116083,0.029884,-0.509046,-0.119146,0.0306778,0.0142363,1.55365,5,0.1,24,0.7,0.0909914,1.3237,0.601522,-0.286944,-0.622538,-0.000814907,-0.294528,-0.639036,-0.000841916,0.0109794,0.983024,5,0.1,25,0.7,-4.44707,-2.30298,0.585719,0.767517,-0.131022,0.00757808,0.787795,-0.134483,0.00777468,0.0369415,1.26847,5,0.1,26,0.7,4.00373,-4.27297,0.6673,0.040938,0.850407,-0.0140254,0.0473857,0.363082,-0.0162087,0.019891,2.33387,5,0.1,27,0.7,0.472614,-3.76135,0.652563,-0.248551,0.8456,-0.027641,-0.259655,0.444442,-0.0288822,0.0206389,1.81029,5,0.1,28,0.7,4.63018,-5.27247,0.70717,0.0190072,0.173883,0.329489,0.0133812,0.257611,0.232551,0.0328038,0.195376,5,0.1,29,0.7,-3.35556,-1.36027,0.502951,0.109036,0.482801,-0.0111481,0.111893,0.495546,0.0196248,0.0136635,0.515056,5,0.1
0,0.8,-3.19368,5.3604,0.745835,0.0254571,-0.86354,0.352149,0.0145435,-0.0495911,0.200182,0.0219561,1.48777,5,0.1,1,0.8,5.56486,1.37813,0.573941,-0.600934,-0.468293,0.0723809,-0.299692,-0.233591,0.0361204,0.00839492,0.741001,5,0.1,2,0.8,0.393817,-1.20801,0.607997,0.307098,0.459877,-0.00485182,0.153199,0.229418,-0.00238419,0.0117153,0.386946,5,0.1,3,0.8,0.309487,-4.80176,0.570763,-0.0533231,0.86602,0.00339448,-0.0337958,0.000238419,0.00217557,0.0256218,2.26971,5,0.1,4,0.8,-4.65871,-3.3832,0.765325,0.00516176,0.864053,0.346279,0.00309944,0.0394583,0.189453,0.0429921,1.41802,5,0.1,5,0.8,-4.02553,4.78901,0.655327,-0.147438,0.43236,0.00152439,-0.0736713,0.216007,0.00077486,0.00772741,0.264098,5,0.1,6,0.8,-2.75635,-3.04974,0.612609,-0.791472,0.462985,0.0355512,-0.394821,0.231028,0.0177622,0.00962359,1.06546,5,0.1,7,0.8,-0.622225,5.12465,0.697645,0.195493,-0.0149727,0.395773,0.0975132,-0.00786781,0.197381,0.0103592,0.246829,5,0.1,8,0.8,-2.04212,4.0889,0.709382,-0.035131,-0.114632,0.388663,-0.0175238,-0.056982,0.193894,0.011974,0.209298,5,0.1,9,0.8,1.32713,-0.265956,0.62896,0.37789,-0.111658,-0.0175714,0.18847,-0.0557303,-0.00876188,0.0146697,0.249155,5,0.1,10,0.8,-4.35471,3.96416,0.656048,0.301158,-0.0676334,0.160228,-0.675917,-0.231743,0.183225,0.0471092,1.75383,5,0.1,11,0.8,-1.78412,-1.20821,0.702596,-0.191635,0.824001,0.392778,-0.0956655,0.411034,0.195891,0.0156224,1.10244,5,0.1,12,0.8,-1.69793,-3.91226,0.580473,0.191626,0.866026,0.0107467,0.121415,0,0.00682473,0.0165925,1.83337,5,0.1,13,0.8,-1.81549,-2.72988,0.718258,-0.0694484,0.764054,0.212255,-0.0961423,-0.624895,0.122041,0.0142546,2.75261,5,0.1,14,0.8,-0.520194,-0.181368,0.646886,0.130579,0.807063,-0.0278115,0.0710785,-0.577446,-0.0151396,0.0117779,1.59254,5,0.1,15,0.8,-1.34736,4.36621,0.79319,-0.00161529,-0.282824,0.337812,-0.00077486,-0.141382,0.168532,0.0342213,0.245618,5,0.1,16,0.8,2.83164,-3.42888,0.565188,0.357544,0.672013,-0.0145897,0.108838,0.111222,-0.0077486,0.00905064,0.825218,5,0.1,17,0.8,-2.68262,4.01369,0.652632,-0.01055,-0.0689507,0.261435,-0.00536442,-0.0340939,-0.249952,0.016263,0.324594,5,0.1,18,0.8,3.24438,-3.00308,0.558368,-0.682598,0.717616,0.0248358,-0.363827,0.382423,0.0132024,0.0099507,1.29624,5,0.1,19,0.8,0.395828,2.44714,0.597443,-0.31665,-0.866026,-0.00657737,-0.200778,0,-0.00414252,0.00957651,2.19677,5,0.1,20,0.8,0.940892,-2.64206,0.60781,-0.0248045,0.328857,-0.00474155,-0.0123978,0.164032,-0.00235438,0.0115605,0.137645,5,0.1,21,0.8,-0.724897,-1.93487,0.612405,0.866026,-0.212362,-0.00686347,0,0.142336,-0.00435114,0.00851682,1.82424,5,0.1,22,0.8,2.53619,-2.10835,0.556677,-0.355661,0.341183,0.0262931,-0.177264,-0.371099,0.0130832,0.0164403,0.422387,5,0.1,23,0.8,-1.6513,-0.243265,0.696779,-0.843948,-0.125424,0.0322893,0.013411,-0.0625625,0.0161231,0.0118866,1.35781,5,0.1,24,0.8,0.0610253,1.25869,0.601437,-0.310036,-0.672638,-0.000880659,-0.154663,-0.335634,-0.000447035,0.00859388,0.694064,5,0.1,25,0.8,-4.36692,-2.31666,0.586511,0.829279,-0.141561,0.00818819,0.413656,-0.0708103,0.00408292,0.0344389,1.16573,5,0.1,26,0.8,4.00803,-4.18685,0.665826,0.0448346,0.86602,-0.0153601,0.0286102,0.000238419,-0.00974536,0.0186369,2.27019,5,0.1,27,0.8,0.446635,-3.6754,0.649674,-0.269002,0.866026,-0.0299156,-0.138253,0,-0.0154078,0.0216275,0.860531,5,0.1,28,0.8,4.63213,-5.25381,0.741023,0.019896,0.198615,0.344752,0.00333786,0.21863,0.0639558,0.0282295,0.112633,5,0.1,29,0.8,-3.34417,-1.30985,0.501943,0.117809,0.521654,-0.00895709,0.0587702,0.260234,0.0234544,0.0141769,0.364392,5,0.1
0,0.9,-3.19107,5.2739,0.782018,0.0268038,-0.865627,0.370695,0.0110716,0.00336766,0.1527,0.0219561,1.48777,5,0.1,1,0.9,5.50334,1.33019,0.581351,-0.628091,-0.48946,0.0756543,-0.214696,-0.16731,0.0258759,0.00839492,0.741001,5,0.1,2,0.9,0.425257,-1.16093,0.6075,0.32098,0.480666,-0.00506807,0.109732,0.16433,-0.00171363,0.0117153,0.386946,5,0.1,3,0.9,0.303979,-4.71515,0.571114,-0.0568191,0.866026,0.00361884,-0.0325274,0,0.00208244,0.0256218,2.26971,5,0.1,4,0.9,-4.65818,-3.29668,0.800863,0.00544339,0.865619,0.363657,0.00226498,-0.0064224,0.140853,0.0429921,1.41802,5,0.1,5,0.9,-4.04063,4.83328,0.655483,-0.154113,0.451931,0.00159424,-0.0527799,0.154704,0.000551343,0.00772741,0.264098,5,0.1,6,0.9,-2.83738,-3.00234,0.616249,-0.82725,0.483919,0.0371602,-0.282839,0.165492,0.0127144,0.00962359,1.06546,5,0.1,7,0.9,-0.60221,5.12311,0.738164,0.204329,-0.015679,0.41366,0.0698455,-0.00554323,0.141397,0.0103592,0.246829,5,0.1,8,0.9,-2.04571,4.07716,0.749173,-0.0367187,-0.119795,0.406232,-0.0125468,-0.0408292,0.138879,0.011974,0.209298,5,0.1,9,0.9,1.36581,-0.277545,0.627161,0.394969,-0.121153,-0.0183653,0.134997,-0.118941,-0.00627339,0.0146697,0.249155,5,0.1,10,0.9,-4.32792,3.9555,0.673029,0.235324,-0.111492,0.17943,-0.635654,-0.589147,0.186205,0.0471092,1.75383,5,0.1,11,0.9,-1.80374,-1.12406,0.742808,-0.200303,0.855627,0.410529,-0.068523,0.204451,0.140321,0.0156224,1.10244,5,0.1,12,0.9,-1.67817,-3.82565,0.581582,0.203267,0.866026,0.0114013,0.100516,0,0.00565499,0.0165925,1.83337,5,0.1,13,0.9,-1.82293,-2.65765,0.740116,-0.07945,0.672946,0.224797,-0.0970066,-1.08738,0.115164,0.0142546,2.75261,5,0.1,14,0.9,-0.506795,-0.104692,0.644032,0.137095,0.716829,-0.0291989,0.0527538,-1.1564,-0.0112318,0.0117779,1.59254,5,0.1,15,0.9,-1.34752,4.33725,0.827775,-0.00168532,-0.295635,0.353084,-0.000551343,-0.101268,0.120722,0.0342213,0.245618,5,0.1,16,0.9,2.86797,-3.36098,0.563693,0.368755,0.686433,-0.0152823,0.0960529,0.137895,-0.00542402,0.00905064,0.825218,5,0.1,17,0.9,-2.6837,4.00663,0.677425,-0.0110351,-0.0720445,0.234797,-0.0038445,-0.0245124,-0.233501,0.016263,0.324594,5,0.1,18,0.9,3.17437,-2.92948,0.560915,-0.715855,0.752574,0.0260429,-0.267714,0.281408,0.00971556,0.0099507,1.29624,5,0.1,19,0.9,0.363118,2.36054,0.596764,-0.337418,-0.866026,-0.00700634,-0.193221,0,-0.00399351,0.00957651,2.19677,5,0.1,20,0.9,0.938352,-2.60839,0.607325,-0.0259279,0.343721,-0.00495492,-0.00887737,0.117496,-0.00168756,0.0115605,0.137645,5,0.1,21,0.9,-0.638295,-1.9551,0.611697,0.866008,-0.189963,-0.00727884,-0.000718981,0.278033,-0.00356883,0.00851682,1.82424,5,0.1,22,0.9,2.49978,-2.07646,0.559368,-0.371724,0.293602,0.0274786,-0.126958,-0.55936,0.00936911,0.0164403,0.422387,5,0.1,23,0.9,-1.73428,-0.256106,0.700085,-0.803608,-0.131093,0.03375,0.729874,-0.0448143,0.0115484,0.0118866,1.35781,5,0.1,24,0.9,0.029284,1.18982,0.601346,-0.324051,-0.703051,-0.000920612,-0.110783,-0.240393,-0.000309199,0.00859388,0.694064,5,0.1,25,0.9,-4.28233,-2.33116,0.587349,0.858393,-0.147976,0.00855811,0.170231,-0.0506938,0.00292063,0.0344389,1.16573,5,0.1,26,0.9,4.01266,-4.10025,0.664239,0.0477836,0.866026,-0.0163664,0.0273585,0,-0.00934675,0.0186369,2.27019,5,0.1,27,0.9,0.419073,-3.59015,0.647392,-0.281577,0.826734,-0.00909129,-0.100208,-0.735089,0.383954,0.0216275,0.860531,5,0.1,28,0.9,4.63413,-5.23287,0.775696,0.0200152,0.219725,0.347262,-0.00143051,0.189662,-0.0218526,0.0282295,0.112633,5,0.1,29,0.9,-3.33211,-1.25644,0.501165,0.123134,0.545235,-0.0065919,0.0420809,0.186406,0.0233278,0.0141769,0.364392,5,0.1
0,1,-3.18834,5.18745,0.819652,0.0274599,-0.862169,0.37968,0.00107288,0.0772476,0.0149906,0.0212838,1.10179,5,0.1,1,1,5.43979,1.28066,0.589006,-0.639093,-0.49803,0.0769794,0.0140667,0.0107884,-0.00160933,0.00751248,0.503911,5,0.1,2,1,0.457734,-1.1123,0.606987,0.326601,0.489083,-0.0051558,-0.00707805,-0.01055,0.000119209,0.0105707,0.263138,5,0.1,3,1,0.298161,-4.62855,0.571484,-0.0592194,0.866032,0.00377297,-0.0130087,-0.000238419,0.000834465,0.0261654,2.26948,5,0.1,4,1,-4.65763,-3.21026,0.837738,0.00556707,0.86149,0.371581,0.000238419,-0.0908375,0.00619888,0.0373442,1.04567,5,0.1,5,1,-4.05622,4.87901,0.655644,-0.15682,0.459874,0.00162423,0.00333786,-0.0100136,-5.96046e-05,0.00760032,0.179588,5,0.1,6,1,-2.92108,-2.95338,0.620009,-0.841737,0.4924,0.0378132,0.0181198,-0.0107288,-0.000834465,0.00787737,0.724558,5,0.1,7,1,-0.581536,5.12153,0.780018,0.207907,-0.015974,0.420901,-0.00450015,0.000476837,-0.00905991,0.00911405,0.167855,5,0.1,8,1,-2.04943,4.06504,0.790275,-0.0373602,-0.121891,0.413346,0.000834465,0.00286102,-0.0089705,0.0106728,0.14233,5,0.1,9,1,1.40578,-0.290256,0.625303,0.401884,-0.132801,-0.0186875,-0.00870228,-0.102803,0.000417233,0.0142257,0.175714,5,0.1,10,1,-4.30746,3.9412,0.69181,0.17494,-0.175536,0.19498,-0.56839,-0.648737,0.11453,0.0415263,2.07514,5,0.1,11,1,-1.824,-1.03791,0.784345,-0.203812,0.86284,0.417717,0.00429153,-0.0637174,-0.00905991,0.0124838,0.768118,5,0.1,12,1,-1.65745,-3.73905,0.582744,0.209904,0.866026,0.0117749,0.0248551,0,0.00140071,0.0151974,1.41498,5,0.1,13,1,-1.83132,-2.59586,0.763069,-0.0876755,0.563836,0.232984,-0.0627041,-1.03211,0.0391304,0.012221,2.91133,5,0.1,14,1,-0.492896,-0.0392707,0.641072,0.14005,0.588175,-0.0298277,0.00204146,-1.36363,-0.000447035,0.011975,1.15749,5,0.1,15,1,-1.34769,4.30734,0.8635,-0.00171363,-0.300813,0.359267,5.96046e-05,0.00596046,-0.00777841,0.0332938,0.254592,5,0.1,16,1,2.90517,-3.29187,0.562146,0.373501,0.692934,-0.0155613,-0.0143051,-0.0352859,0.000327826,0.00873926,0.585768,5,0.1,17,1,-2.68481,3.99934,0.7,-0.0112295,-0.0732958,0.21939,0.000119209,0.00166893,-0.077337,0.0156493,0.270651,5,0.1,18,1,3.10183,-2.85322,0.563554,-0.73055,0.768024,0.0265762,-0.00405312,0.00405312,0.000119209,0.0105966,0.884353,5,0.1,19,1,0.328566,2.27394,0.596047,-0.35168,-0.866026,-0.00730157,-0.0772327,0,-0.00160933,0.00884359,2.18862,5,0.1,20,1,0.935729,-2.57361,0.606824,-0.026384,0.349742,-0.00504106,0.000566244,-0.00762939,0.000119209,0.0121108,0.19673,5,0.1,21,1,-0.551704,-1.97266,0.610955,0.86574,-0.161141,-0.00751317,-0.00576735,0.282228,-0.000864267,0.0113203,1.49595,5,0.1,22,1,2.46217,-2.05006,0.562149,-0.378221,0.233138,0.0279576,0.00810623,-0.632763,-0.000625849,0.014104,0.239052,5,0.1,23,1,-1.81023,-0.26937,0.7035,-0.709265,-0.133389,0.0343412,1.10757,0.00290573,-0.000745058,0.0126724,1.20811,5,0.1,24,1,-0.00350349,1.11869,0.601253,-0.329725,-0.715363,-0.000935793,0.00712276,0.015378,0,0.00874808,0.471983,5,0.1,25,1,-4.196,-2.34613,0.588215,0.865233,-0.150573,0.00870675,-0.0157356,0.00321865,-0.000178814,0.0367189,0.84032,5,0.1,26,1,4.01755,-4.01364,0.662563,0.0497937,0.866032,-0.0170544,0.0107288,-0.000119209,-0.00372529,0.0215385,2.42658,5,0.1,27,1,0.390565,-3.51201,0.648736,-0.286878,0.728416,0.0383362,0.00284612,-1.18792,0.527143,0.0191524,0.459322,5,0.1,28,1,4.63612,-5.21009,0.810118,0.0195384,0.23421,0.339113,-0.00858307,0.0905991,-0.145704,0.0270788,0.0761335,5,0.1,29,1,-3.31965,-1.20128,0.500619,0.125289,0.554785,-0.00438094,-0.00274181,-0.0119805,0.0205636,0.014488,0.248603,5,0.1
0,1.1,-3.18559,5.10133,0.857679,0.0275049,-0.861784,0.380317,-0.0012368,-0.0193417,-0.0168532,0.0212838,1.10179,5,0.1,1,1.1,5.37598,1.23094,0.596693,-0.636271,-0.495844,0.0766463,0.0657737,0.0511557,-0.00787154,0.00751248,0.503911,5,0.1,2,1.1,0.490345,-1.06346,0.606473,0.325168,0.48694,-0.0051327,-0.0335481,-0.050202,0.000528991,0.0105707,0.263138,5,0.1,3,1.1,0.292161,-4.54195,0.571867,-0.0608155,0.866023,0.00387495,-0.0153389,2.98023e-05,0.000979751,0.0261654,2.26948,5,0.1,4,1.1,-4.65707,-3.12429,0.87491,0.00557303,0.859262,0.371339,-0.000298023,-0.00241399,-0.025019,0.0373442,1.04567,5,0.1,5,1.1,-4.07188,4.92492,0.655807,-0.156135,0.457852,0.00161482,0.0160635,-0.0472367,-0.000182539,0.00760032,0.179588,5,0.1,6,1.1,-3.00513,-2.90422,0.623784,-0.838052,0.490234,0.0376458,0.0863522,-0.0505894,-0.00390038,0.00787737,0.724558,5,0.1,7,1.1,-0.560777,5.11993,0.822045,0.206995,-0.0158921,0.419059,-0.0213534,0.00178814,-0.0431873,0.00911405,0.167855,5,0.1,8,1.1,-2.05316,4.05287,0.831547,-0.0371929,-0.121339,0.411531,0.0038594,0.0126362,-0.0424609,0.0106728,0.14233,5,0.1,9,1.1,1.4459,-0.304103,0.623437,0.400121,-0.144367,-0.0186045,-0.0412688,-0.116741,0.0019297,0.0142257,0.175714,5,0.1,10,1.1,-4.2927,3.92099,0.711632,0.121552,-0.223016,0.199078,-0.496089,-0.311181,-0.0281408,0.0415263,2.07514,5,0.1,11,1.1,-1.84424,-0.95222,0.826109,-0.199744,0.847797,0.417446,0.0774637,-0.252243,-0.0151098,0.0124838,0.768118,5,0.1,12,1.1,-1.63634,-3.65245,0.583928,0.211979,0.865811,0.0118921,0.00790507,-0.00859797,0.000447035,0.0151974,1.41498,5,0.1,13,1.1,-1.84041,-2.54445,0.786605,-0.0942132,0.469746,0.237806,-0.0617281,-0.722557,0.0441894,0.012221,2.91133,5,0.1,14,1.1,-0.478887,0.0125653,0.638088,0.13993,0.448604,-0.0298027,-0.00970066,-1.36322,0.00206381,0.011975,1.15749,5,0.1,15,1.1,-1.34786,4.27715,0.899373,-0.00170413,-0.303981,0.35769,0.000201166,-0.0484288,-0.0368953,0.0332938,0.254592,5,0.1,16,1.1,2.94247,-3.22267,0.560592,0.372178,0.690893,-0.015488,-0.0276715,-0.0369698,0.00169501,0.00873926,0.585768,5,0.1,17,1.1,-2.68594,3.99202,0.721964,-0.0111893,-0.0729706,0.223185,0.00110269,0.00752509,0.120848,0.0156493,0.270651,5,0.1,18,1.1,3.02879,-2.77643,0.566211,-0.729277,0.766669,0.0265278,0.0567585,-0.0597984,-0.00207871,0.0105966,0.884353,5,0.1,19,1.1,0.292937,2.18733,0.595307,-0.361097,-0.866026,-0.0074978,-0.0899974,0,-0.00187382,0.00884359,2.18862,5,0.1,20,1.1,0.933076,-2.539,0.606317,-0.026794,0.339464,-0.00511855,-0.00660866,-0.191629,-0.0012517,0.0121108,0.19673,5,0.1,21,1.1,-0.465136,-1.98739,0.610513,0.8656,-0.134673,0.00130627,-0.00696227,0.219032,0.157811,0.0113203,1.49595,5,0.1,22,1.1,2.4244,-2.02991,0.56494,-0.376568,0.170144,0.027833,0.0388026,-0.614613,-0.0028871,0.014104,0.239052,5,0.1,23,1.1,-1.87508,-0.282689,0.706929,-0.584185,-0.132803,0.0341903,1.31517,0.0137091,-0.00353158,0.0126724,1.20811,5,0.1,24,1.1,-0.0364263,1.04726,0.60116,-0.328279,-0.712232,-0.000932813,0.033853,0.0734143,8.9407e-05,0.00874808,0.471983,5,0.1,25,1.1,-4.10949,-2.36117,0.589084,0.864956,-0.149914,0.0086694,-0.01508,0.0154525,-0.000890344,0.0367189,0.84032,5,0.1,26,1.1,4.0226,-3.92772,0.660836,0.0510991,0.846019,-0.0175063,0.0123978,-0.381589,-0.00430271,0.0215385,2.42658,5,0.1,27,1.1,0.361903,-3.44494,0.655497,-0.285945,0.614668,0.0988729,0.02639,-1.09072,0.647604,0.0191524,0.459322,5,0.1,28,1.1,4.63802,-5.18662,0.843227,0.0185542,0.231594,0.322215,-0.0114143,-0.129938,-0.196781,0.0270788,0.0761335,5,0.1,29,1.1,-3.30714,-1.14588,0.500276,0.124737,0.552353,-0.0025508,-0.0129044,-0.0569522,0.0159033,0.014488,0.248603,5,0.1
0,1.2,-3.18286,5.01523,0.895476,0.0270367,-0.857472,0.373887,-0.00870228,0.141144,-0.121385,0.019395,0.786339,5,0.1,1,1.2,5.31292,1.1818,0.604289,-0.62207,-0.484779,0.0749394,0.233889,0.182152,-0.0281334,0.00821507,0.335086,5,0.1,2,1.2,0.522571,-1.0152,0.605964,0.317912,0.476077,-0.00501722,-0.119448,-0.178844,0.00184774,0.0118395,0.174973,5,0.1,3,1.2,0.286023,-4.45535,0.572258,-0.0616811,0.866032,0.00392944,0.000536442,-0.000238419,-2.98023e-05,0.0215088,2.26941,5,0.1,4,1.2,-4.65652,-3.03856,0.911774,0.00547171,0.852716,0.364257,-0.00190735,-0.162721,-0.125736,0.0371755,0.743855,5,0.1,5,1.2,-4.08735,4.9703,0.655967,-0.152659,0.447631,0.00157803,0.0574589,-0.168324,-0.000625849,0.00755057,0.119419,5,0.1,6,1.2,-3.08819,-2.85563,0.627515,-0.819361,0.479287,0.0368044,0.307798,-0.179887,-0.0138283,0.00799138,0.52362,5,0.1,7,1.2,-0.540263,5.11836,0.863576,0.202376,-0.015521,0.409712,-0.0760257,0.00596046,-0.153899,0.00878818,0.111615,5,0.1,8,1.2,-2.05684,4.04085,0.872332,-0.0363588,-0.118613,0.402346,0.0135899,0.0443459,-0.151157,0.0107447,0.160608,5,0.1,9,1.2,1.48556,-0.319067,0.621593,0.391194,-0.154138,-0.0181884,-0.146985,-0.0703186,0.00685453,0.0126175,0.120656,5,0.1,10,1.2,-4.28288,3.89762,0.731195,0.0762463,-0.239837,0.190249,-0.407696,-0.0352859,-0.143856,0.0419276,2.0465,5,0.1,11,1.2,-1.86371,-0.869111,0.867643,-0.188345,0.810073,0.411545,0.150025,-0.510305,-0.115663,0.0128483,0.542567,5,0.1,12,1.2,-1.61519,-3.56598,0.585115,0.210029,0.862592,0.0117838,-0.0528097,-0.0687838,-0.00295043,0.0146161,1.06079,5,0.1,13,1.2,-1.8501,-2.5,0.810527,-0.0989527,0.430119,0.239602,-0.0286102,-0.0890493,-0.0173151,0.0136401,2.78297,5,0.1,14,1.2,-0.464996,0.0510143,0.63513,0.137238,0.325339,-0.0292301,-0.0476092,-1.06854,0.0101626,0.0110853,0.798093,5,0.1,15,1.2,-1.34803,4.24656,0.934822,-0.00166595,-0.306928,0.349708,0.000715256,0.00476837,-0.131339,0.0331381,0.180018,5,0.1,16,1.2,2.97942,-3.15398,0.559058,0.365365,0.680256,-0.0151291,-0.11909,-0.197172,0.00578165,0.00914996,0.403829,5,0.1,17,1.2,-2.68705,3.98479,0.744995,-0.0109434,-0.0713408,0.237882,0.00405312,0.0267029,0.148684,0.0172235,0.211713,5,0.1,18,1.2,2.95643,-2.70036,0.568843,-0.714678,0.751311,0.0259951,0.253081,-0.266075,-0.00920892,0.00978448,0.589287,5,0.1,19,1.2,0.256498,2.10073,0.59455,-0.366103,-0.866026,-0.00760257,0.00456691,0,8.9407e-05,0.00959138,2.18663,5,0.1,20,1.2,0.930366,-2.50627,0.605799,-0.0273362,0.312698,-0.00522137,-0.00268221,-0.337124,-0.000506639,0.0131478,0.187795,5,0.1,21,1.2,-0.378702,-2,0.611562,0.861807,-0.119793,0.0205874,-0.0843561,0.0821352,0.212669,0.0106588,2.28664,5,0.1,22,1.2,2.38708,-2.01585,0.567698,-0.368166,0.112331,0.027211,0.138164,-0.533104,-0.010252,0.0154066,0.327983,5,0.1,23,1.2,-1.92708,-0.29585,0.710317,-0.458568,-0.129839,0.0334278,1.15263,0.0488013,-0.0125766,0.0111438,1.10345,5,0.1,24,1.2,-0.0689607,0.976674,0.601067,-0.320955,-0.696343,-0.000911951,0.120569,0.261575,0.000327826,0.00772982,0.313837,5,0.1,25,1.2,-4.02329,-2.37602,0.589943,0.856024,-0.146568,0.00847578,-0.200033,0.0550747,-0.00318885,0.0354675,0.613664,5,0.1,26,1.2,4.02775,-3.84554,0.659069,0.0517726,0.79307,-0.0177413,-0.000953674,-0.662208,0.000298023,0.0201797,2.71331,5,0.1,27,1.2,0.33355,-3.38879,0.668577,-0.279846,0.509673,0.161594,0.102565,-1.01149,0.580132,0.0209335,0.352249,5,0.1,28,1.2,4.63981,-5.16438,0.874351,0.0172257,0.210655,0.299072,-0.0154972,-0.277281,-0.2684,0.0285934,0.191604,5,0.1,29,1.2,-3.29478,-1.09114,0.500092,0.121951,0.54003,-0.00121593,-0.0457764,-0.202835,0.0107586,0.0146758,0.166145,5,0.1
0,1.3,-3.1802,4.93003,0.932271,0.026169,-0.847168,0.361815,-0.00952184,0.105083,-0.132069,0.019395,0.786339,5,0.1,1,1.3,5.25185,1.13421,0.611645,-0.598955,-0.466773,0.0721578,0.247777,0.19303,-0.0298247,0.00821507,0.335086,5,0.1,2,1.3,0.553778,-0.968471,0.605471,0.306104,0.458397,-0.00483412,-0.126582,-0.189539,0.00196695,0.0118395,0.174973,5,0.1,3,1.3,0.279839,-4.36874,0.572652,-0.0620867,0.866023,0.00395523,-0.00503846,2.98023e-05,0.00031665,0.0215088,2.26941,5,0.1,4,1.3,-4.65598,-2.95394,0.947584,0.00528097,0.84013,0.351773,-0.00208616,-0.127956,-0.13547,0.0371755,0.743855,5,0.1,5,1.3,-4.10234,5.01424,0.656121,-0.146981,0.430995,0.00151675,0.0608861,-0.178277,-0.000648201,0.00755057,0.119419,5,0.1,6,1.3,-3.16818,-2.80901,0.631152,-0.776488,0.449426,0.0361148,0.547498,-0.405386,-0.00261515,0.00799138,0.52362,5,0.1,7,1.3,-0.520397,5.11684,0.903795,0.19486,-0.0149325,0.394498,-0.0805706,0.00625849,-0.163108,0.00878818,0.111615,5,0.1,8,1.3,-2.06044,4.02913,0.912065,-0.0356209,-0.11621,0.39413,0.00365078,0.0118613,-0.040859,0.0107447,0.160608,5,0.1,9,1.3,1.52396,-0.334848,0.619808,0.376665,-0.161385,-0.0175112,-0.155762,-0.0653807,0.00725314,0.0126175,0.120656,5,0.1,10,1.3,-4.27718,3.87392,0.749289,0.0389762,-0.229845,0.169785,-0.335544,0.21635,-0.255305,0.0419276,2.0465,5,0.1,11,1.3,-1.88167,-0.79069,0.90831,-0.169712,0.757623,0.402223,0.217669,-0.553295,-0.0893995,0.0128483,0.542567,5,0.1,12,1.3,-1.59445,-3.47978,0.586279,0.204748,0.862971,0.0114887,-0.0599846,0.0272989,-0.00334904,0.0146161,1.06079,5,0.1,13,1.3,-1.86015,-2.45596,0.834454,-0.102136,0.462686,0.239153,-0.0292584,0.632927,-0.00406429,0.0136401,2.78297,5,0.1,14,1.3,-0.451506,0.0787855,0.632257,0.132513,0.236995,-0.0282215,-0.0512376,-0.659911,0.01093,0.0110853,0.798093,5,0.1,15,1.3,-1.34819,4.21582,0.96915,-0.00159685,-0.308126,0.336724,0.000722706,-0.012219,-0.139207,0.0331381,0.180018,5,0.1,16,1.3,3.01539,-3.08687,0.557573,0.353963,0.661959,-0.0145544,-0.121683,-0.194281,0.00617281,0.00914996,0.403829,5,0.1,17,1.3,-2.68812,3.97779,0.7697,-0.01054,-0.0687018,0.257302,0.00433624,0.0282824,0.214759,0.0172235,0.211713,5,0.1,18,1.3,2.8862,-2.62653,0.571397,-0.689582,0.724928,0.0250822,0.271335,-0.285223,-0.00986457,0.00978448,0.589287,5,0.1,19,1.3,0.219806,2.01413,0.593788,-0.368236,-0.866026,-0.00764737,-0.0261684,0,-0.000547618,0.00959138,2.18663,5,0.1,20,1.3,0.927616,-2.47695,0.605274,-0.0276609,0.271461,-0.00528293,-0.00243261,-0.473455,-0.000458211,0.0131478,0.187795,5,0.1,21,1.3,-0.292605,-2.01194,0.614382,0.862372,-0.122053,0.0330705,0.052727,-0.101686,0.0487939,0.0106588,2.28664,5,0.1,22,1.3,2.35094,-2.00709,0.570369,-0.354505,0.0649147,0.026198,0.146493,-0.411838,-0.0108592,0.0154066,0.327983,5,0.1,23,1.3,-1.96755,-0.308596,0.713599,-0.356613,-0.125015,0.0321848,0.815511,0.051707,-0.0133216,0.0111438,1.10345,5,0.1,24,1.3,-0.100467,0.908319,0.600978,-0.309036,-0.670484,-0.000878703,0.127783,0.277244,0.000361353,0.00772982,0.313837,5,0.1,25,1.3,-3.9389,-2.39009,0.590758,0.829118,-0.132088,0.00765342,-0.352442,0.219017,-0.0123903,0.0354675,0.613664,5,0.1,26,1.3,4.03294,-3.77036,0.657292,0.0520349,0.704566,-0.0178336,0.00321865,-1.01674,-0.00113621,0.0201797,2.71331,5,0.1,27,1.3,0.306067,-3.34264,0.687688,-0.269694,0.415494,0.220427,0.109222,-0.876516,0.56918,0.0209335,0.352249,5,0.1,28,1.3,4.64146,-5.14488,0.902896,0.0156417,0.177846,0.271552,-0.0163317,-0.367492,-0.284519,0.0285934,0.191604,5,0.1,29,1.3,-3.28281,-1.03813,0.500016,0.117425,0.519978,-0.000386592,-0.048548,-0.214979,0.00597909,0.0146758,0.166145,5,0.1
0,1.4,-3.17764,4.84604,0.967694,0.0249922,-0.829673,0.345473,-0.0146627,0.272274,-0.202686,0.0218649,0.546376,5,0.1,1,1.4,5.19335,1.08861,0.618694,-0.569296,-0.443673,0.0685871,0.357866,0.279069,-0.043124,0.00835552,0.220572,5,0.1,2,1.4,0.583678,-0.923695,0.604999,0.290953,0.435711,-0.00459701,-0.182927,-0.274003,0.00289083,0.011345,0.115171,5,0.1,3,1.4,0.27362,-4.28214,0.573048,-0.0620753,0.866032,0.00395477,0.00780821,-0.000238419,-0.000506639,0.0221914,2.26943,5,0.1,4,1.4,-4.65546,-2.87077,0.981992,0.00503063,0.820541,0.335248,-0.00309944,-0.290513,-0.202656,0.0373516,0.515657,5,0.1,5,1.4,-4.11669,5.05634,0.656269,-0.139701,0.409663,0.00143945,0.0879765,-0.257969,-0.00089407,0.0079301,0.133892,5,0.1,6,1.4,-3.24271,-2.76638,0.634751,-0.710547,0.400513,0.0358239,0.766516,-0.562191,-0.005126,0.0090341,0.410519,5,0.1,7,1.4,-0.501363,5.11538,0.942329,0.185216,-0.014174,0.374976,-0.116467,0.00882149,-0.235796,0.0105765,0.198698,5,0.1,8,1.4,-2.06398,4.01757,0.95127,-0.0351965,-0.114822,0.389403,0.00667572,0.0214577,-0.0737309,0.00979289,0.0940209,5,0.1,9,1.4,1.56075,-0.351243,0.618098,0.358021,-0.165653,-0.0166431,-0.225067,-0.0136048,0.0104606,0.0118131,0.13872,5,0.1,10,1.4,-4.27483,3.85231,0.764877,0.0094533,-0.200021,0.141038,-0.253677,0.364304,-0.311255,0.0423594,3.78077,5,0.1,11,1.4,-1.89747,-0.71786,0.948004,-0.145739,0.697064,0.390509,0.257373,-0.666797,-0.157863,0.0136625,0.385617,5,0.1,12,1.4,-1.57433,-3.39352,0.587407,0.196838,0.859773,0.0110462,-0.102878,-0.12517,-0.00578165,0.0137051,0.765818,5,0.1,13,1.4,-1.87048,-2.40606,0.858288,-0.103822,0.537771,0.236684,-0.000298023,0.78702,-0.0539124,0.0128425,2.50284,5,0.1,14,1.4,-0.438545,0.1,0.629497,0.126269,0.195053,-0.0268891,-0.0764877,-0.200417,0.0162721,0.0117173,1.72157,5,0.1,15,1.4,-1.34835,4.18503,1.00204,-0.00151098,-0.306571,0.320059,0.00089407,0.0550747,-0.201225,0.0323427,0.124336,5,0.1,16,1.4,3.05009,-3.02181,0.556152,0.338906,0.63712,-0.0138178,-0.187993,-0.319839,0.00882149,0.0110147,0.273104,5,0.1,17,1.4,-2.68915,3.97108,0.796445,-0.0100195,-0.0653148,0.276537,0.00631809,0.041008,0.151962,0.0152389,0.159316,5,0.1,18,1.4,2.81878,-2.55565,0.57385,-0.656676,0.690335,0.0238851,0.401735,-0.422239,-0.0146031,0.00984274,0.38832,5,0.1,19,1.4,0.182942,1.92753,0.593023,-0.367752,-0.866026,-0.00763834,0.0505894,5.96046e-05,0.00107288,0.0110821,2.28451,5,0.1,20,1.4,0.924847,-2.45229,0.604745,-0.027591,0.220597,-0.00526905,0.00476837,-0.53215,0.000923872,0.0117098,0.185115,5,0.1,21,1.4,-0.206139,-2.02478,0.617743,0.866025,-0.135595,0.0324994,7.15256e-06,-0.149727,-0.0504553,0.0109407,2.272,5,0.1,22,1.4,2.31631,-2.00244,0.572928,-0.336963,0.0303745,0.0248998,0.211716,-0.278234,-0.0156462,0.0145057,0.672801,5,0.1,23,1.4,-2,-0.320807,0.716742,-0.300938,-0.118828,0.0305906,0.314355,0.0747442,-0.0192225,0.0115002,0.933595,5,0.1,24,1.4,-0.130653,0.842826,0.600892,-0.293741,-0.6373,-0.000834465,0.184707,0.400782,0.000536442,0.00908569,0.206571,5,0.1,25,1.4,-3.8581,-2.40204,0.591452,0.783318,-0.105578,0.00615418,-0.57137,0.2985,-0.0169277,0.0322919,0.449579,5,0.1,26,1.4,4.03815,-3.705,0.655507,0.0519156,0.603843,-0.017795,-0.00762939,-0.947356,0.002563,0.0191439,2.88173,5,0.1,27,1.4,0.279713,-3.30528,0.712374,-0.256549,0.333589,0.27077,0.159457,-0.765085,0.418484,0.0199649,0.257564,5,0.1,28,1.4,4.64294,-5.129,0.928586,0.0139356,0.139225,0.241795,-0.0181198,-0.396252,-0.311762,0.0285115,0.410738,5,0.1,29,1.4,-3.27134,-0.987338,0.500001,0.111616,0.494246,1.93715e-05,-0.0702143,-0.310779,0.00238419,0.0131785,0.14877,5,0.1
0,1.5,-3.17521,4.76432,1.00127,0.0235893,-0.805248,0.326094,-0.0141263,0.24873,-0.194941,0.0218649,0.546376,5,0.1,1,1.5,5.13814,1.04559,0.625345,-0.53516,-0.417055,0.0644732,0.340998,0.265889,-0.0410974,0.00835552,0.220572,5,0.1,2,1.5,0.611894,-0.881441,0.604553,0.273503,0.409575,-0.00432134,-0.174325,-0.261094,0.00274926,0.011345,0.115171,5,0.1,3,1.5,0.267429,-4.19554,0.573442,-0.0618685,0.866023,0.00394052,-2.79397e-05,2.98023e-05,-3.72529e-06,0.0221914,2.26943,5,0.1,4,1.5,-4.65498,-2.79005,1.01454,0.00473559,0.794325,0.315885,-0.00298023,-0.265375,-0.194248,0.0373516,0.515657,5,0.1,5,1.5,-4.13031,5.09628,0.65641,-0.133391,0.391162,0.00137566,0.0469089,-0.137478,-0.000473112,0.0079301,0.133892,5,0.1,6,1.5,-3.31012,-2.72945,0.638339,-0.638846,0.335414,0.0361689,0.683784,-0.718847,0.00877306,0.0090341,0.410519,5,0.1,7,1.5,-0.483245,5.11432,0.978693,0.178552,-0.00443906,0.352484,-0.0319593,0.166535,-0.224695,0.0105765,0.198698,5,0.1,8,1.5,-2.06747,4.00618,0.989911,-0.0346761,-0.113152,0.383666,0.00534952,0.017181,-0.0588894,0.00979289,0.0940209,5,0.1,9,1.5,1.59566,-0.368017,0.616475,0.341882,-0.170829,-0.0158932,-0.119932,-0.0738576,0.00557303,0.0118131,0.13872,5,0.1,10,1.5,-4.27421,3.83425,0.777399,0.010813,-0.160221,0.109301,0.22921,0.420541,-0.317864,0.0423594,3.78077,5,0.1,11,1.5,-1.91094,-0.651122,0.986225,-0.125289,0.640572,0.373304,0.161238,-0.493623,-0.194475,0.0136625,0.385617,5,0.1,12,1.5,-1.55514,-3.30799,0.588484,0.186979,0.851463,0.0104924,-0.100255,-0.0826567,-0.00562891,0.0137051,0.765818,5,0.1,13,1.5,-1.88088,-2.34767,0.881749,-0.104329,0.634662,0.232876,-0.00438839,1.0623,-0.0340268,0.0128425,2.50284,5,0.1,14,1.5,-0.426286,0.118637,0.627199,0.118962,0.178983,-0.0164439,-0.0732876,-0.123103,0.173647,0.0117173,1.72157,5,0.1,15,1.5,-1.3485,4.1546,1.03308,-0.00142511,-0.302009,0.300864,0.000871718,0.0494123,-0.19177,0.0323427,0.124336,5,0.1,16,1.5,3.08308,-2.95962,0.554813,0.321132,0.607121,-0.0129745,-0.178024,-0.301167,0.00843033,0.0110147,0.273104,5,0.1,17,1.5,-2.69012,3.96474,0.824918,-0.00941604,-0.061404,0.293034,0.00604987,0.0390708,0.158519,0.0152389,0.159316,5,0.1,18,1.5,2.75504,-2.48865,0.576168,-0.618312,0.650012,0.0224905,0.384361,-0.404,-0.0139773,0.00984274,0.38832,5,0.1,19,1.5,0.146295,1.8414,0.592262,-0.365906,-0.851907,-0.00759829,0.00737645,0.279017,0.000163913,0.0110821,2.28451,5,0.1,20,1.5,0.922114,-2.43292,0.604223,-0.0270402,0.166923,-0.00516279,0.00710785,-0.531077,0.00136718,0.0117098,0.185115,5,0.1,21,1.5,-0.119537,-2.03887,0.620718,0.866026,-0.144038,0.0268281,-4.47035e-07,-0.026226,-0.0613295,0.0109407,2.272,5,0.1,22,1.5,2.28363,-2.00072,0.575343,-0.316765,0.005503,0.023407,0.201836,-0.195861,-0.0149123,0.0145057,0.672801,5,0.1,23,1.5,-2.02951,-0.332331,0.719709,-0.297446,-0.111699,0.0287569,-0.179827,0.0712126,-0.0183247,0.0115002,0.933595,5,0.1,24,1.5,-0.159139,0.781023,0.600811,-0.276123,-0.599071,-0.000783056,0.176012,0.381913,0.00051409,0.00908569,0.206571,5,0.1,25,1.5,-3.78241,-2.41097,0.591971,0.731784,-0.0718597,0.0041387,-0.486434,0.362083,-0.0223778,0.0322919,0.449579,5,0.1,26,1.5,4.04332,-3.64924,0.653735,0.0515789,0.516135,-0.0176842,-0.00196695,-0.679687,0.000644475,0.0191439,2.88173,5,0.1,27,1.5,0.254825,-3.27552,0.741505,-0.241331,0.263826,0.310936,0.152212,-0.634611,0.363652,0.0199649,0.257564,5,0.1,28,1.5,4.64424,-5.11705,0.951228,0.0121631,0.100259,0.211195,-0.0174344,-0.376105,-0.301711,0.0285115,0.410738,5,0.1,29,1.5,-3.26036,-0.939408,0.500011,0.109364,0.464602,0.000160933,0.0121444,-0.296146,0.000588596,0.0131785,0.14877,5,0.1
0,1.6,-3.17292,4.68521,1.03285,0.0220537,-0.774467,0.304809,-0.0172853,0.389338,-0.237405,0.0204262,0.372465,5,0.1,1,1.6,5.08641,1.00527,0.631577,-0.49839,-0.388388,0.0600427,0.405312,0.315905,-0.048846,0.00767375,0.144979,5,0.1,2,1.6,0.638332,-0.84185,0.604135,0.254707,0.381425,-0.00402331,-0.207096,-0.310212,0.00324845,0.0115246,0.135381,5,0.1,3,1.6,0.261254,-4.10894,0.573836,-0.0614591,0.866032,0.00391304,0.0107884,-0.000238419,-0.000685453,0.0228475,2.26949,5,0.1,4,1.6,-4.65452,-2.71211,1.04511,0.00441074,0.762147,0.29479,-0.00357628,-0.39959,-0.234008,0.0365587,0.351039,5,0.1,5,1.6,-4.14343,5.13474,0.656545,-0.128829,0.377786,0.00132918,0.0507832,-0.148773,-0.000506639,0.00727921,0.0801949,5,0.1,6,1.6,-3.37061,-2.69962,0.642001,-0.571042,0.26052,0.0370145,0.683784,-0.762224,0.00578165,0.00809374,0.311416,5,0.1,7,1.6,-0.465512,5.11483,1.01277,0.17619,0.015676,0.328261,-0.0265092,0.221014,-0.267029,0.00836617,0.149524,5,0.1,8,1.6,-2.0709,3.99498,1.02789,-0.0338554,-0.110495,0.374609,0.0121593,0.0396967,-0.134528,0.00896032,0.106508,5,0.1,9,1.6,1.62927,-0.385461,0.614912,0.330201,-0.177652,-0.0153512,-0.129819,-0.0509024,0.00604987,0.0130773,0.0820112,5,0.1,10,1.6,-4.27154,3.82035,0.786767,0.0460744,-0.117886,0.0784531,0.435114,0.417471,-0.294834,0.03823,2.27727,5,0.1,11,1.6,-1.92276,-0.589452,1.02247,-0.111791,0.593063,0.350285,0.116169,-0.478715,-0.270963,0.0122877,0.471897,5,0.1,12,1.6,-1.53698,-3.22347,0.589503,0.175795,0.8362,0.00986457,-0.127435,-0.251532,-0.00715256,0.0172684,0.536692,5,0.1,13,1.6,-1.89131,-2.27903,0.904821,-0.103775,0.734913,0.227877,0.0191331,0.878096,-0.0741482,0.0116419,2.3057,5,0.1,14,1.6,-0.414775,0.136029,0.626554,0.111007,0.169836,0.00445694,-0.0882447,-0.0636801,0.229537,0.0127427,1.70891,5,0.1,15,1.6,-1.34864,4.12473,1.06216,-0.00132918,-0.294459,0.28019,0.00101328,0.110865,-0.227928,0.031197,0.144789,5,0.1,16,1.6,3.11425,-2.90052,0.55356,0.301534,0.573367,-0.0120685,-0.220895,-0.388145,0.00998378,0.0106907,0.18279,5,0.1,17,1.6,-2.69103,3.95881,0.854895,-0.00876188,-0.0571907,0.304937,0.00703335,0.0464916,0.0659525,0.014643,0.197192,5,0.1,18,1.6,2.69523,-2.42577,0.578344,-0.576663,0.606233,0.0209764,0.461221,-0.484705,-0.0167489,0.00945022,0.371404,5,0.1,19,1.6,0.109811,1.75804,0.591504,-0.36269,-0.810933,-0.00752956,0.0717866,0.53674,0.00149012,0.00882181,2.54325,5,0.1,20,1.6,0.919455,-2.41881,0.603715,-0.0260293,0.11614,-0.00496954,0.0136793,-0.477076,0.0026226,0.0123118,0.274985,5,0.1,21,1.6,-0.0329343,-2.05325,0.623088,0.866025,-0.142097,0.0205293,1.19209e-06,0.0597239,-0.0633597,0.00886285,2.28289,5,0.1,22,1.6,2.25301,-2.00087,0.577606,-0.295001,-0.00564456,0.0218004,0.239849,-0.0187159,-0.0177622,0.0151998,1.46203,5,0.1,23,1.6,-2.06053,-0.343128,0.722489,-0.325471,-0.104021,0.0267819,-0.331044,0.0845939,-0.0218153,0.0103378,0.74405,5,0.1,24,1.6,-0.185831,0.723114,0.600735,-0.257145,-0.557894,-0.000727177,0.20913,0.45374,0.000596046,0.00952409,0.140808,5,0.1,25,1.6,-3.71171,-2.41633,0.592271,0.681436,-0.035584,0.00185519,-0.539541,0.352859,-0.0225008,0.0294907,0.326725,5,0.1,26,1.6,4.04845,-3.6,0.651973,0.0510216,0.478762,-0.0174969,-0.0112057,-0.0864267,0.00378489,0.0194914,2.76463,5,0.1,27,1.6,0.231489,-3.25212,0.774185,-0.224885,0.205857,0.339949,0.181608,-0.528336,0.202268,0.018914,0.179748,5,0.1,28,1.6,4.64537,-5.10882,0.970846,0.0104427,0.0651717,0.181231,-0.0174046,-0.320911,-0.298351,0.0276827,0.361498,5,0.1,29,1.6,-3.24931,-0.894497,0.500028,0.111753,0.432672,0.000162423,0.0258684,-0.351876,-0.000476837,0.0134937,0.180277,5,0.1
0,1.7,-3.1708,4.60959,1.0622,0.020431,-0.738447,0.282513,-0.0157654,0.357717,-0.216946,0.0204262,0.372465,5,0.1,1,1.7,5.0385,0.967941,0.637349,-0.460394,-0.358775,0.0554639,0.368208,0.286974,-0.0443719,0.00767375,0.144979,5,0.1,2,1.7,0.662973,-0.805184,0.603748,0.239737,0.352345,-0.00371849,-0.10914,-0.281822,0.00295416,0.0115246,0.135381,5,0.1,3,1.7,0.255137,-4.02233,0.574225,-0.0610197,0.866024,0.00388483,0.00166707,4.47035e-05,-0.000108033,0.0228475,2.26949,5,0.1,4,1.7,-4.65409,-2.63777,1.07347,0.00407398,0.725164,0.272826,-0.00327826,-0.366002,-0.213362,0.0365587,0.351039,5,0.1,5,1.7,-4.15594,5.17186,0.656676,-0.120312,0.365255,0.00128662,0.115633,-0.118405,-0.000398606,0.00727921,0.0801949,5,0.1,6,1.7,-3.42468,-2.6768,0.645705,-0.513478,0.200981,0.0368004,0.493646,-0.451878,-0.0100695,0.00809374,0.311416,5,0.1,7,1.7,-0.447936,5.11762,1.04432,0.175914,0.0408106,0.303229,0.00913069,0.267178,-0.242576,0.00836617,0.149524,5,0.1,8,1.7,-2.07423,3.98385,1.06468,-0.0326224,-0.114373,0.360976,0.0135005,-0.0962466,-0.149332,0.00896032,0.106508,5,0.1,9,1.7,1.66172,-0.403467,0.613404,0.319261,-0.182115,-0.0148416,-0.103422,-0.0305027,0.00481308,0.0130773,0.0820112,5,0.1,10,1.7,-4.26498,3.8106,0.7932,0.0830032,-0.0776943,0.050851,0.302166,0.381365,-0.255197,0.03823,2.27727,5,0.1,11,1.7,-1.93362,-0.532135,1.05617,-0.107579,0.556434,0.323713,-0.0145063,-0.288457,-0.267677,0.0122877,0.471897,5,0.1,12,1.7,-1.52001,-3.14098,0.590456,0.163802,0.813936,0.00919141,-0.117414,-0.227362,-0.00658631,0.0172684,0.536692,5,0.1,13,1.7,-1.90161,-2.2015,0.92731,-0.10254,0.811285,0.222347,0.0108406,0.61737,-0.0478774,0.0116419,2.3057,5,0.1,14,1.7,-0.404095,0.152498,0.628415,0.102725,0.158651,0.0348403,-0.0804365,-0.120191,0.354033,0.0127427,1.70891,5,0.1,15,1.7,-1.34876,4.0956,1.08923,-0.0012517,-0.289754,0.262703,0.000610948,0.00652671,-0.138216,0.031197,0.144789,5,0.1,16,1.7,3.14336,-2.84502,0.552401,0.280874,0.537138,-0.0111319,-0.201091,-0.353873,0.00906736,0.0106907,0.18279,5,0.1,17,1.7,-2.69188,3.95328,0.886014,-0.00821985,-0.0536263,0.31956,0.00430644,0.0281334,0.193384,0.014643,0.197192,5,0.1,18,1.7,2.63982,-2.36734,0.580362,-0.53153,0.564001,0.0194051,0.453144,-0.383779,-0.0152476,0.00945022,0.371404,5,0.1,19,1.7,0.073765,1.6805,0.590756,-0.359051,-0.733514,-0.00745412,0.0218612,0.926048,0.000454485,0.00882181,2.54325,5,0.1,20,1.7,0.916864,-2.40944,0.603231,-0.0262488,0.0727307,-0.00472553,-0.0137985,-0.386879,0.00243634,0.0123118,0.274985,5,0.1,21,1.7,0.0536683,-2.06694,0.624821,0.866025,-0.130212,0.0141313,1.49012e-06,0.154689,-0.0632927,0.00886285,2.28289,5,0.1,22,1.7,2.22466,-2.00141,0.579701,-0.272515,-0.00173301,0.0201358,0.217944,0.179172,-0.0161305,0.0151998,1.46203,5,0.1,23,1.7,-2.09515,-0.353127,0.725063,-0.369819,-0.0960913,0.0247374,-0.50649,0.0768472,-0.0198111,0.0103378,0.74405,5,0.1,24,1.7,-0.210486,0.669689,0.600656,-0.235763,-0.509608,-0.00093421,0.221589,0.514429,-0.00413135,0.00952409,0.140808,5,0.1,25,1.7,-3.64597,-2.41847,0.592365,0.635424,-0.0103116,0.00023758,-0.409722,0.164956,-0.0106059,0.0294907,0.326725,5,0.1,26,1.7,4.05352,-3.55111,0.650236,0.050351,0.51069,-0.0172712,-0.00500679,0.617415,0.00168383,0.0194914,2.76463,5,0.1,27,1.7,0.209866,-3.23399,0.809144,-0.207855,0.158579,0.358341,0.165162,-0.421241,0.148788,0.018914,0.179748,5,0.1,28,1.7,4.64633,-5.10383,0.987511,0.00876561,0.0357464,0.152387,-0.0161827,-0.260949,-0.278775,0.0276827,0.361498,5,0.1,29,1.7,-3.23777,-0.852695,0.500041,0.120816,0.405677,9.0152e-05,0.135317,-0.213362,-0.000886619,0.0134937,0.180277,5,0.1
0,1.8,-3.16884,4.53766,1.08934,0.0187933,-0.698447,0.260004,-0.0171661,0.460386,-0.238955,0.017842,0.251016,5,0.1,1,1.8,4.99433,0.933521,0.64267,-0.422454,-0.329208,0.0508919,0.39959,0.311553,-0.0481606,0.00882715,0.0956625,5,0.1,2,1.8,0.686449,-0.771381,0.603392,0.229953,0.323309,-0.00341237,-0.0989139,-0.30598,0.00318885,0.0127429,0.168385,5,0.1,3,1.8,0.249053,-3.93573,0.574612,-0.0604983,0.866026,0.00385195,0.0113547,0,-0.000745058,0.0241744,2.29436,5,0.1,4,1.8,-4.6537,-2.5672,1.09967,0.00374317,0.684595,0.250757,-0.0038147,-0.463247,-0.233591,0.0355643,0.378279,5,0.1,5,1.8,-4.16731,5.20774,0.656802,-0.106442,0.351298,0.00123829,0.158072,-0.1719,-0.000596046,0.00728409,0.0669655,5,0.1,6,1.8,-3.4737,-2.65861,0.649309,-0.467771,0.165939,0.0350192,0.439882,-0.267625,-0.0253618,0.00774474,0.228931,5,0.1,7,1.8,-0.43032,5.12301,1.07341,0.175979,0.0665903,0.278237,-0.0163168,0.237226,-0.263333,0.0121428,0.191613,5,0.1,8,1.8,-2.07741,3.97185,1.09993,-0.0309885,-0.126058,0.342891,0.019908,-0.121593,-0.219703,0.0105359,0.105769,5,0.1,9,1.8,1.69308,-0.421745,0.611946,0.307074,-0.182448,-0.0142738,-0.150383,0.0289828,0.00697374,0.0116153,0.0757367,5,0.1,10,1.8,-4.25539,3.80464,0.797088,0.106382,-0.0424683,0.0277385,0.165462,0.319719,-0.205785,0.0377914,0.580598,5,0.1,11,1.8,-1.94455,-0.477852,1.08716,-0.111616,0.529378,0.295559,-0.0529289,-0.278027,-0.30005,0.0118058,0.347421,5,0.1,12,1.8,-1.50423,-3.06091,0.591341,0.151476,0.785065,0.00850111,-0.132501,-0.373006,-0.00745058,0.0156201,0.368024,5,0.1,13,1.8,-1.91179,-2.1179,0.949272,-0.100711,0.854307,0.216356,0.0293851,0.234365,-0.0799596,0.0111607,2.24525,5,0.1,14,1.8,-0.394232,0.167908,0.633712,0.0944071,0.151486,0.0710323,-0.0880063,-0.00603497,0.351638,0.0130188,1.52934,5,0.1,15,1.8,-1.34889,4.06664,1.11485,-0.00119209,-0.289142,0.249708,0.000655651,0.0228882,-0.133812,0.0316892,0.0872784,5,0.1,16,1.8,3.17041,-2.79314,0.551333,0.25984,0.499654,-0.0101984,-0.225663,-0.407457,0.00977516,0.00967857,0.121894,5,0.1,17,1.8,-2.69268,3.94805,0.918924,-0.00781417,-0.0509799,0.337882,0.00417233,0.0271797,0.148863,0.0154423,0.121749,5,0.1,18,1.8,2.589,-2.31285,0.582224,-0.484115,0.525397,0.0178292,0.502825,-0.405073,-0.0166595,0.010169,0.26205,5,0.1,19,1.8,0.0380268,1.61188,0.590014,-0.354753,-0.639069,-0.00736564,0.0788629,0.915051,0.00163913,0.00779206,2.71708,5,0.1,20,1.8,0.914154,-2.40393,0.602771,-0.028041,0.039345,-0.00445545,-0.0188351,-0.279546,0.00315905,0.0119179,0.270556,5,0.1,21,1.8,0.140271,-2.07918,0.625926,0.866025,-0.114739,0.00810027,0,0.141978,-0.056386,0.00929488,2.31547,5,0.1,22,1.8,2.19851,-2,0.581633,-0.250053,0.0367194,0.0184745,0.236511,0.573039,-0.017494,0.0139096,3.0667,5,0.1,23,1.8,-2.13462,-0.362346,0.727436,-0.41821,-0.0881739,0.0226974,-0.4251,0.0834614,-0.0215173,0.0120563,0.574036,5,0.1,24,1.8,-0.232915,0.621414,0.600539,-0.212349,-0.454716,-0.0014469,0.248425,0.583857,-0.00566244,0.0078757,0.24375,5,0.1,25,1.8,-3.58446,-2.4189,0.592351,0.594515,-0.000321865,-0.000403821,-0.429392,0.0449419,-0.00292063,0.00560174,0.686067,5,0.1,26,1.8,4.05852,-3.49652,0.648521,0.0495434,0.583309,-0.0169963,-0.0133514,0.753284,0.00444055,0.0196058,2.49217,5,0.1,27,1.8,0.18992,-3.22009,0.845522,-0.190819,0.120872,0.366916,0.179753,-0.336409,0.0116229,0.0162507,0.121333,5,0.1,28,1.8,4.64713,-5.10141,1.00139,0.00721216,0.0139475,0.12545,-0.0150204,-0.171423,-0.260055,0.028465,1.06971,5,0.1,29,1.8,-3.22497,-0.813135,0.500046,0.135297,0.385611,-1.49012e-06,0.139236,-0.20647,-0.00089407,0.0131086,0.110603,5,0.1
0,1.9,-3.16704,4.46999,1.11421,0.0171985,-0.655731,0.237831,-0.0152439,0.416011,-0.211611,0.017842,0.251016,5,0.1,1,1.9,4.95398,0.902073,0.647531,-0.38543,-0.300344,0.0464299,0.352323,0.274677,-0.0424646,0.00882715,0.0956625,5,0.1,2,1.9,0.709273,-0.740346,0.603064,0.229067,0.299271,-0.00316184,0.0544339,-0.193316,0.00201911,0.0127429,0.168385,5,0.1,3,1.9,0.243199,-3.84914,0.574786,-0.0553652,0.865596,-0.00212481,0.0846125,-0.0171959,-0.105817,0.0241744,2.29436,5,0.1,4,1.9,-4.65335,-2.50077,1.12364,0.00339374,0.646084,0.229094,-0.00324845,-0.338331,-0.206485,0.0355643,0.378279,5,0.1,5,1.9,-4.17709,5.24213,0.656924,-0.0885233,0.337292,0.00118976,0.193596,-0.125468,-0.000435859,0.00728409,0.0669655,5,0.1,6,1.9,-3.51852,-2.64302,0.652674,-0.430601,0.148842,0.0321768,0.324234,-0.0941902,-0.0314638,0.00774474,0.228931,5,0.1,7,1.9,-0.4126,5.13106,1.10012,0.179964,0.0957623,0.25755,0.0764672,0.323474,-0.166357,0.0121428,0.191613,5,0.1,8,1.9,-2.08042,3.95881,1.13319,-0.0291582,-0.132844,0.322693,0.0177771,-0.0156909,-0.196218,0.0105359,0.105769,5,0.1,9,1.9,1.72314,-0.439619,0.610549,0.294816,-0.172953,-0.0137056,-0.109807,0.153787,0.00508502,0.0116153,0.0757367,5,0.1,10,1.9,-4.24423,3.80192,0.798893,0.113989,-0.012717,0.0089949,-0.00327826,0.271752,-0.167705,0.0377914,0.580598,5,0.1,11,1.9,-1.95609,-0.426069,1.11527,-0.120045,0.507929,0.26713,-0.102274,-0.178464,-0.274837,0.0118058,0.347421,5,0.1,12,1.9,-1.48971,-2.98415,0.592156,0.139156,0.750633,0.00780867,-0.118099,-0.343114,-0.00663474,0.0156201,0.368024,5,0.1,13,1.9,-1.92175,-2.03176,0.970588,-0.0986293,0.865293,0.210475,0.0174642,0.0292957,-0.0489205,0.0111607,2.24525,5,0.1,14,1.9,-0.385466,0.183205,0.642303,0.0789267,0.155804,0.0981676,-0.20791,0.0752546,0.194576,0.0130188,1.52934,5,0.1,15,1.9,-1.349,4.03789,1.13923,-0.00113565,-0.285165,0.238313,0.00051409,0.0645518,-0.104837,0.0316892,0.0872784,5,0.1,16,1.9,3.19533,-2.7451,0.55036,0.238927,0.461882,-0.00929218,-0.199988,-0.36253,0.00862032,0.00967857,0.121894,5,0.1,17,1.9,-2.69344,3.94307,0.953506,-0.00745691,-0.0486668,0.353706,0.00332296,0.0212938,0.146244,0.0154423,0.121749,5,0.1,18,1.9,2.54297,-2.26215,0.583929,-0.437404,0.490081,0.0162845,0.443563,-0.321925,-0.0147223,0.010169,0.26205,5,0.1,19,1.9,0.0028106,1.55253,0.589283,-0.350402,-0.551516,-0.00727531,0.02846,0.709213,0.000588596,0.00779206,2.71708,5,0.1,20,1.9,0.91129,-2.40125,0.602342,-0.0289036,0.0157349,-0.00413628,0.00115484,-0.190854,0.00331178,0.0119179,0.270556,5,0.1,21,1.9,0.226864,-2.09003,0.626467,0.86558,-0.10327,0.00285069,-0.0178152,0.0871569,-0.0479929,0.00929488,2.31547,5,0.1,22,1.9,2.17447,-1.99348,0.583398,-0.232584,0.0932911,0.0168541,0.129566,0.550561,-0.015419,0.0139096,3.0667,5,0.1,23,1.9,-2.1787,-0.370768,0.729604,-0.463777,-0.0804418,0.0207047,-0.448093,0.0735801,-0.018958,0.0120563,0.574036,5,0.1,24,1.9,-0.252922,0.5791,0.60028,-0.18789,-0.38956,-0.004433,0.242689,0.704944,-0.0484474,0.0078757,0.24375,5,0.1,25,1.9,-3.5283,-2.41792,0.592103,0.518603,0.0265114,-0.00615874,-1.02645,0.4403,-0.0998415,0.00560174,0.686067,5,0.1,26,1.9,4.06342,-3.43375,0.646837,0.0486702,0.676707,-0.0167079,-0.00679493,1.02565,0.00225008,0.0196058,2.49217,5,0.1,27,1.9,0.171688,-3.20954,0.88225,-0.17416,0.0913549,0.367068,0.158605,-0.257358,-0.022199,0.0162507,0.121333,5,0.1,28,1.9,4.64778,-5.10091,1.01269,0.00580847,-0.00338107,0.101097,-0.013113,-0.139832,-0.227585,0.028465,1.06971,5,0.1,29,1.9,-3.21069,-0.77549,0.500042,0.150496,0.368028,-6.83591e-05,0.151575,-0.161789,-0.000461936,0.0131086,0.110603,5,0.1
0,2,-3.1654,4.40657,1.13693,0.0156581,-0.611532,0.216478,-0.0158548,0.482798,-0.220239,0.0163772,0.168279,5,0.1,1,2,4.91719,0.873411,0.651962,-0.350034,-0.272757,0.0421658,0.363111,0.283211,-0.0438094,0.00724202,0.109373,5,0.1,2,2,0.732525,-0.711324,0.602757,0.236171,0.281434,-0.00297576,0.0676811,-0.177085,0.00187755,0.0139499,0.103028,5,0.1,3,2,0.238161,-3.7628,0.573959,-0.0447903,0.859147,-0.0150025,0.121437,-0.137687,-0.141621,0.0254592,2.32743,5,0.1,4,2,-4.65302,-2.43786,1.14552,0.00306368,0.611562,0.208303,-0.00333786,-0.374436,-0.213981,0.0358614,0.268293,5,0.1,5,2,-4.18496,5.27519,0.65704,-0.0688791,0.323296,0.00113994,0.194073,-0.166655,-0.000566244,0.00820492,0.0366676,5,0.1,6,2,-3.56001,-2.62845,0.655724,-0.399345,0.143588,0.0287399,0.315785,-0.026226,-0.0371635,0.0083119,0.169386,5,0.1,7,2,-0.3942,5.14224,1.1251,0.187876,0.127327,0.2422,0.0673383,0.290871,-0.152349,0.00975381,0.132719,5,0.1,8,2,-2.08324,3.94561,1.16444,-0.0272512,-0.129592,0.301638,0.0211,0.0783205,-0.232995,0.0104468,0.191761,5,0.1,9,2,1.75204,-0.455989,0.609205,0.282562,-0.153057,-0.0131369,-0.145733,0.237599,0.00676513,0.0126306,3.07362,5,0.1,10,2,-4.23306,3.80191,0.799026,0.107598,0.0112951,-0.00558943,-0.115871,0.206351,-0.123262,0.0427972,2.05424,5,0.1,11,2,-1.9686,-0.376189,1.14061,-0.12975,0.488967,0.239533,-0.082016,-0.220418,-0.281334,0.0111065,0.38924,5,0.1,12,2,-1.47639,-2.91093,0.592903,0.127149,0.711817,0.00713468,-0.124931,-0.451922,-0.00703335,0.0149017,0.248888,5,0.1,13,2,-1.93151,-1.94517,0.991367,-0.09633,0.866026,0.20465,0.0321269,-5.96046e-05,-0.0755787,0.0124334,2.25465,5,0.1,14,2,-0.378717,0.19918,0.652858,0.0552818,0.163556,0.110683,-0.25411,0.0671148,0.0595152,0.00706933,0.541352,5,0.1,15,2,-1.34911,4.00982,1.16251,-0.00107884,-0.274956,0.226915,0.000596046,0.144362,-0.130653,0.0296532,0.219037,5,0.1,16,2,3.21822,-2.70074,0.549474,0.2186,0.424683,-0.0084281,-0.211596,-0.391364,0.00885129,0.01121,0.140045,5,0.1,17,2,-2.69417,3.93832,0.98946,-0.00709891,-0.0463486,0.363521,0.00417233,0.0265837,0.035435,0.0140126,0.0678437,5,0.1,18,2,2.50143,-2.21475,0.585483,-0.393343,0.457484,0.0148028,0.446081,-0.344753,-0.015229,0.0106959,0.319442,5,0.1,19,2,-0.0320343,1.5,0.588559,-0.345594,-0.508443,-0.0071764,0.082078,0.166833,0.00172853,0.00814343,2.64833,5,0.1,20,2,0.908435,-2.40047,0.601945,-0.0279039,0.00133514,-0.00378042,0.0183284,-0.0977516,0.0039041,0.0104533,0.254207,5,0.1,21,2,0.313191,-2.1,0.62653,0.858899,-0.0968039,-0.00140071,-0.14253,0.0473261,-0.0365674,0.00924038,2.11221,5,0.1,22,2,2.15179,-1.9815,0.585006,-0.221235,0.145259,0.015305,0.109792,0.48089,-0.0158846,0.0142691,2.87055,5,0.1,23,2,-2.2271,-0.378445,0.73158,-0.501323,-0.0730522,0.0188008,-0.276089,0.0758469,-0.0195503,0.0103956,0.421736,5,0.1,24,2,-0.270495,0.543769,0.599562,-0.163507,-0.316355,-0.0101417,0.246078,0.747174,-0.0613332,0.00875711,0.238284,5,0.1,25,2,-3.48213,-2.41276,0.590912,0.400478,0.0786006,-0.0181809,-1.28603,0.561953,-0.131041,0.0063341,0.286358,5,0.1,26,2,4.06825,-3.3611,0.64518,0.0477314,0.773031,-0.0163898,-0.0140667,0.835776,0.00476837,0.0177124,2.32326,5,0.1,27,2,0.155065,-3.20159,0.918699,-0.15822,0.0687718,0.360219,0.163808,-0.197172,-0.12368,0.0173885,0.136257,5,0.1,28,2,4.6483,-5.10169,1.02171,0.00458956,-0.00903606,0.0798255,-0.0114441,0.0407696,-0.198424,0.028366,2.4832,5,0.1,29,2,-3.19495,-0.739533,0.500033,0.163364,0.350432,-9.68575e-05,0.0966787,-0.201762,-0.000149012,0.0112672,0.0665689,5,0.1
0,2.1,-3.16391,4.34769,1.15754,0.0141993,-0.566889,0.196228,-0.0137389,0.428379,-0.190757,0.0163772,0.168279,5,0.1,1,2.1,4.88373,0.847341,0.655992,-0.321297,-0.250345,0.0386989,0.231683,0.180677,-0.0279471,0.00724202,0.109373,5,0.1,2,2.1,0.756574,-0.683967,0.602468,0.245294,0.266382,-0.00281604,0.0972264,-0.136141,0.00144914,0.0139499,0.103028,5,0.1,3,2.1,0.234499,-3.67716,0.571557,-0.0267337,0.856361,-0.0345315,0.224532,0.0257194,-0.231836,0.0254592,2.32743,5,0.1,4,2.1,-4.65273,-2.37838,1.16534,0.00275895,0.579319,0.18864,-0.00283122,-0.295728,-0.185028,0.0358614,0.268293,5,0.1,5,2.1,-4.19088,5.3067,0.657151,-0.0497364,0.306658,0.00108276,0.180572,-0.175029,-0.000603497,0.00820492,0.0366676,5,0.1,6,2.1,-3.59853,-2.61406,0.658413,-0.372292,0.145511,0.0250498,0.242025,0.0493675,-0.0367165,0.0083119,0.169386,5,0.1,7,2.1,-0.375338,5.15644,1.14864,0.186912,0.156309,0.229251,-0.0797715,0.274152,-0.117131,0.00975381,0.132719,5,0.1,8,2.1,-2.08586,3.93323,1.1934,-0.0250407,-0.116554,0.277215,0.023365,0.173882,-0.258245,0.0104468,0.191761,5,0.1,9,2.1,1.78134,-0.469994,0.60793,0.318133,-0.126138,-0.0123153,0.738502,0.292227,0.00967458,0.0126306,3.07362,5,0.1,10,2.1,-4.22308,3.80371,0.798055,0.0904262,0.021679,-0.0120053,-0.216007,0.0169873,-0.0139773,0.0427972,2.05424,5,0.1,11,2.1,-1.98203,-0.328091,1.16323,-0.138974,0.475204,0.213389,-0.0920817,-0.0867695,-0.247024,0.0111065,0.38924,5,0.1,12,2.1,-1.46427,-2.84188,0.593584,0.115639,0.669881,0.00648713,-0.108786,-0.409544,-0.00612065,0.0149017,0.248888,5,0.1,13,2.1,-1.94087,-1.85857,1.01146,-0.0899423,0.866025,0.197085,0.0916123,1.49012e-05,-0.0818968,0.0124334,2.25465,5,0.1,14,2.1,-0.374591,0.214636,0.664104,0.0262873,0.134989,0.113097,-0.311831,-0.568669,-0.0099726,0.00706933,0.541352,5,0.1,15,2.1,-1.34922,3.98335,1.18451,-0.00101235,-0.251767,0.212495,0.000752509,0.306934,-0.160113,0.0296532,0.219037,5,0.1,16,2.1,3.23919,-2.65991,0.548669,0.202124,0.394579,-0.00772523,-0.130847,-0.236347,0.00568107,0.01121,0.140045,5,0.1,17,2.1,-2.69486,3.93381,1.02595,-0.0067018,-0.0438191,0.365544,0.00399351,0.0253916,-0.00823662,0.0140126,0.0678437,5,0.1,18,2.1,2.46417,-2.17081,0.586892,-0.353366,0.42033,0.0134032,0.365987,-0.400588,-0.0131726,0.0106959,0.319442,5,0.1,19,2.1,-0.066309,1.44861,0.587848,-0.340663,-0.530549,-0.00707218,0.0357603,-0.506677,0.000756234,0.00814343,2.64833,5,0.1,20,2.1,0.90576,-2.40081,0.601587,-0.0253843,-0.00732839,-0.00338843,0.0311136,-0.0552237,0.00396743,0.0104533,0.254207,5,0.1,21,2.1,0.398419,-2.10916,0.626226,0.845308,-0.0840675,-0.00448599,-0.162438,0.19218,-0.0251681,0.00924038,2.11221,5,0.1,22,2.1,2.1301,-1.96512,0.586462,-0.213565,0.178198,0.0138467,0.0567734,0.235952,-0.0137091,0.0142691,2.87055,5,0.1,23,2.1,-2.27864,-0.385394,0.733368,-0.528889,-0.0660885,0.0170063,-0.245258,0.0654478,-0.0168607,0.0103956,0.421736,5,0.1,24,2.1,-0.285626,0.51587,0.598198,-0.139244,-0.24191,-0.0174333,0.23875,0.730861,-0.0793822,0.00875711,0.238284,5,0.1,25,2.1,-3.44794,-2.40185,0.588324,0.2888,0.141267,-0.0344062,-0.960663,0.655249,-0.181437,0.0063341,0.286358,5,0.1,26,2.1,4.07297,-3.28023,0.643559,0.0468053,0.83785,-0.0160755,-0.00712276,0.448987,0.00241771,0.0177124,2.32326,5,0.1,27,2.1,0.13994,-3.19557,0.954327,-0.145261,0.052648,0.353949,0.104452,-0.129849,-0.0267252,0.0173885,0.136257,5,0.1,28,2.1,4.6487,-5.1023,1.02876,0.00354573,0.000807643,0.0616636,-0.00950694,0.26834,-0.165522,0.028366,2.4832,5,0.1,29,2.1,-3.1783,-0.705457,0.500023,0.167984,0.331238,-9.79751e-05,-0.00318885,-0.192709,0.000104308,0.0112672,0.0665689,5,0.1
0,2.2,-3.16255,4.29318,1.17622,0.0128329,-0.522757,0.177312,-0.0139475,0.466824,-0.191808,0.0174482,0.112725,5,0.1,1,2.2,4.85268,0.823146,0.659732,-0.300217,-0.233899,0.0361547,0.205278,0.15974,-0.0247061,0.00722702,0.063199,5,0.1,2,2.2,0.78152,-0.658023,0.602194,0.252621,0.252125,-0.00266433,0.0368953,-0.157595,0.00166893,0.00988305,0.106864,5,0.1,3,2.2,0.233015,-3.5915,0.566912,-0.00257194,0.854647,-0.0583649,0.246972,-0.100374,-0.231832,0.0233328,2.29819,5,0.1,4,2.2,-4.65247,-2.32197,1.18329,0.00249147,0.548106,0.170317,-0.00286102,-0.346422,-0.18543,0.0337314,0.187328,5,0.1,5,2.2,-4.19502,5.33641,0.657256,-0.0339866,0.286841,0.00101328,0.130892,-0.226974,-0.00077486,0.00817954,0.0201109,5,0.1,6,2.2,-3.63456,-2.59924,0.660735,-0.348073,0.150794,0.0213876,0.254273,0.0450611,-0.0365078,0.00779526,0.12372,5,0.1,7,2.2,-0.35724,5.17331,1.17097,0.173241,0.179672,0.216985,-0.187293,0.182867,-0.135601,0.00880924,0.0940614,5,0.1,8,2.2,-2.08824,3.92254,1.21978,-0.0225425,-0.0963926,0.24958,0.0268221,0.222564,-0.295818,0.00908441,0.184635,5,0.1,9,2.2,1.8175,-0.481115,0.606752,0.409257,-0.0961378,-0.0112027,0.992596,0.301078,0.0125468,0.010976,0.342933,5,0.1,10,2.2,-4.2152,3.80576,0.796904,0.0664949,0.0175238,-0.0100017,-0.253677,-0.0872612,0.0467598,0.0402951,0.423319,5,0.1,11,2.2,-1.99633,-0.280998,1.18335,-0.146392,0.466103,0.1892,-0.0490546,-0.118442,-0.240505,0.0127374,0.285879,5,0.1,12,2.2,-1.45324,-2.77702,0.594202,0.104791,0.626087,0.00587851,-0.110567,-0.481844,-0.00622869,0.0138165,0.167125,5,0.1,13,2.2,-1.94934,-1.77196,1.03071,-0.0787586,0.866026,0.187242,0.128567,-5.96046e-05,-0.118971,0.0126322,2.24861,5,0.1,14,2.2,-0.373522,0.224717,0.675259,-0.00463873,0.0623066,0.108975,-0.296205,-0.82992,-0.0708997,0.00609114,0.347187,5,0.1,15,2.2,-1.34932,3.95989,1.20489,-0.000926852,-0.215882,0.194547,0.00089407,0.400186,-0.200033,0.0296979,0.210901,5,0.1,16,2.2,3.25879,-2.62155,0.547922,0.190181,0.37297,-0.00720769,-0.117421,-0.214696,0.00500679,0.0105897,0.0813718,5,0.1,17,2.2,-2.69551,3.92956,1.0623,-0.00627041,-0.0410318,0.35969,0.00500679,0.0312328,-0.117481,0.0146867,0.116632,5,0.1,18,2.2,2.43061,-2.13089,0.588167,-0.317997,0.377095,0.0120997,0.350356,-0.464559,-0.0132024,0.00945351,0.468888,5,0.1,19,2.2,-0.100144,1.3926,0.587145,-0.335158,-0.591782,-0.00695735,0.0879431,-0.640273,0.00184774,0.00802397,2.42607,5,0.1,20,2.2,0.903391,-2.40163,0.601268,-0.02186,-0.00698566,-0.00298172,0.0385642,0.0690222,0.00417233,0.00987135,0.215563,5,0.1,21,2.2,0.481884,-2.11647,0.62567,0.82087,-0.0611007,-0.00644922,-0.348612,0.25475,-0.0141859,0.00899517,1.19523,5,0.1,22,2.2,2.10903,-1.94617,0.587779,-0.207615,0.200996,0.0124916,0.0715256,0.24724,-0.0137091,0.00558434,0.222573,5,0.1,23,2.2,-2.3325,-0.391679,0.734985,-0.545329,-0.0596188,0.0153407,-0.0631809,0.0653565,-0.0168383,0.0104746,0.29683,5,0.1,24,2.2,-0.298372,0.495232,0.596063,-0.11585,-0.172067,-0.0251293,0.228629,0.657976,-0.0707209,0.00741192,0.187606,5,0.1,25,2.2,-3.42342,-2.38453,0.583975,0.205898,0.203395,-0.0523716,-0.708461,0.561118,-0.16889,0.0287202,0.37694,5,0.1,26,2.2,4.07761,-3.19487,0.641966,0.0458717,0.862861,-0.0157535,-0.0138283,0.0633001,0.00467896,0.0178566,2.2712,5,0.1,27,2.2,0.125899,-3.19088,0.989581,-0.135751,0.0419736,0.350569,0.0924617,-0.0872612,-0.0589192,0.0167557,0.195272,5,0.1,28,2.2,4.64901,-5.1,1.03414,0.00268221,0.0537872,0.046587,-0.00786781,0.770807,-0.136733,0.0286344,2.16308,5,0.1,29,2.2,-3.16167,-0.673352,0.500014,0.163013,0.310121,-8.04663e-05,-0.0941753,-0.23672,0.000238419,0.0145653,0.150336,5,0.1
0,2.3,-3.16134,4.2431,1.19305,0.0115599,-0.479809,0.159807,-0.0118762,0.407428,-0.163332,0.0174482,0.112725,5,0.1,1,2.3,4.82357,0.800463,0.663239,-0.282882,-0.22041,0.0340685,0.154674,0.120379,-0.018619,0.00722702,0.063199,5,0.1,2,2.3,0.806639,-0.633491,0.601934,0.246681,0.239278,-0.00252808,-0.147287,-0.111986,0.00118837,0.00988305,0.106864,5,0.1,3,2.3,0.23371,-3.50606,0.560181,0.0139067,0.857544,-0.0738104,0.0930168,0.0995249,-0.0843368,0.0233328,2.29819,5,0.1,4,2.3,-4.65224,-2.26874,1.19945,0.00223443,0.517347,0.153404,-0.00235438,-0.289366,-0.157692,0.0337314,0.187328,5,0.1,5,2.3,-4.19785,5.36395,0.657354,-0.0236183,0.263586,0.000933092,0.068903,-0.242025,-0.00083819,0.00817954,0.0201109,5,0.1,6,2.3,-3.66821,-2.58386,0.662697,-0.325837,0.157141,0.0179153,0.204042,0.069961,-0.0330657,0.00779526,0.12372,5,0.1,7,2.3,-0.341016,5.19213,1.19202,0.14985,0.195905,0.204269,-0.271445,0.132769,-0.125453,0.00880924,0.0940614,5,0.1,8,2.3,-2.09036,3.91404,1.24326,-0.0198849,-0.0733148,0.220244,0.0264943,0.233278,-0.292465,0.00908441,0.184635,5,0.1,9,2.3,1.86201,-0.489254,0.605691,0.468138,-0.0670874,-0.0100372,0.226162,0.275066,0.0110492,0.010976,0.342933,5,0.1,10,2.3,-4.20969,3.80729,0.796032,0.0450172,0.0148494,-0.00834567,-0.17938,0.022307,-0.00797585,0.0402951,0.423319,5,0.1,11,2.3,-2.01123,-0.234817,1.20114,-0.151493,0.458507,0.16715,-0.0447854,-0.0587814,-0.205174,0.0127374,0.285879,5,0.1,12,2.3,-1.44328,-2.71669,0.594761,0.0946805,0.581503,0.00530956,-0.0946075,-0.428751,-0.00531599,0.0138165,0.167125,5,0.1,13,2.3,-1.9567,-1.68536,1.04896,-0.0695385,0.866025,0.178885,0.0630915,1.49012e-05,-0.0600964,0.0126322,2.24861,5,0.1,14,2.3,-0.375271,0.22648,0.685906,-0.0284625,-0.0291191,0.104788,-0.183525,-0.955382,-0.0216775,0.00609114,0.347187,5,0.1,15,2.3,-1.3494,3.94039,1.22336,-0.000837259,-0.173556,0.174808,0.00090152,0.437126,-0.19709,0.0296979,0.210901,5,0.1,16,2.3,3.27729,-2.58519,0.547224,0.180326,0.355039,-0.00678413,-0.0881702,-0.160769,0.00378489,0.0105897,0.0813718,5,0.1,17,2.3,-2.69611,3.92551,1.09773,-0.00582039,-0.0409592,0.348825,0.00420213,-0.0211746,-0.113964,0.0146867,0.116632,5,0.1,18,2.3,2.40043,-2.09572,0.589315,-0.286665,0.324303,0.0108955,0.286624,-0.57815,-0.0112206,0.00945351,0.468888,5,0.1,19,2.3,-0.133322,1.32966,0.586456,-0.328968,-0.670789,-0.00683032,0.0529686,-0.860959,0.00105053,0.00802397,2.42607,5,0.1,20,2.3,0.901415,-2.40184,0.60099,-0.0175411,0.00510402,-0.00259234,0.0464544,0.201181,0.00366941,0.00987135,0.215563,5,0.1,21,2.3,0.561986,-2.12147,0.624959,0.778574,-0.0403505,-0.00772253,-0.504209,0.16512,-0.0108704,0.00899517,1.19523,5,0.1,22,2.3,2.08815,-1.92495,0.588946,-0.213725,0.222185,0.0107366,-0.157535,0.167839,-0.0206195,0.00558434,0.222573,5,0.1,23,2.3,-2.38735,-0.397335,0.736441,-0.551167,-0.0536619,0.0138064,-0.0295788,0.0554789,-0.0142865,0.0104746,0.29683,5,0.1,24,2.3,-0.309032,0.480602,0.593292,-0.0992234,-0.126847,-0.0293998,0.115378,0.278495,-0.0175983,0.00741192,0.187606,5,0.1,25,2.3,-3.40556,-2.36227,0.57811,0.15844,0.233848,-0.0629173,-0.278562,0.0782907,-0.0484623,0.0287202,0.37694,5,0.1,26,2.3,4.08215,-3.10839,0.640407,0.0449888,0.865828,-0.0154544,-0.0064671,0.00791252,0.00219047,0.0178566,2.2712,5,0.1,27,2.3,0.112455,-3.18677,1.0244,-0.135843,0.0430644,0.346053,-0.0706249,0.0881553,-0.0475235,0.0167557,0.195272,5,0.1,28,2.3,4.64924,-5.08969,1.03817,0.00197887,0.160912,0.0343241,-0.00625849,1.27783,-0.109211,0.0286344,2.16308,5,0.1,29,2.3,-3.14603,-0.643502,0.500008,0.148085,0.286944,-5.52274e-05,-0.196204,-0.233471,0.000257045,0.0145653,0.150336,5,0.1
0,2.4,-3.16024,4.19716,1.20823,0.010401,-0.438678,0.14379,-0.0118017,0.426054,-0.160575,0.0152233,0.293425,5,0.1,1,2.4,4.79606,0.779028,0.666552,-0.267005,-0.208053,0.0321582,0.172138,0.134051,-0.0207424,0.00724586,0.0491953,5,0.1,2,2.4,0.830326,-0.610132,0.601688,0.224812,0.227576,-0.00240356,-0.282019,-0.131011,0.00140071,0.0100002,0.213068,5,0.1,3,2.4,0.235383,-3.41985,0.552572,0.0179365,0.865149,-0.0766009,-0.00378489,0.0175238,0.0221133,0.0225859,2.27817,5,0.1,4,2.4,-4.65202,-2.2185,1.21402,0.00200272,0.486732,0.137955,-0.00238419,-0.337243,-0.154734,0.0338195,0.438115,5,0.1,5,2.4,-4.2,5.38905,0.657443,-0.0205874,0.237846,0.000843406,-0.00476837,-0.275135,-0.000983477,0.00755668,0.0153692,5,0.1,6,2.4,-3.69977,-2.56784,0.664328,-0.304943,0.16275,0.0147551,0.223279,0.0334978,-0.0302494,0.00813252,0.15331,5,0.1,7,2.4,-0.327465,5.21225,1.21179,0.120603,0.204742,0.190762,-0.306085,0.038147,-0.149131,0.00903767,0.262004,5,0.1,8,2.4,-2.09222,3.90786,1.26382,-0.0172257,-0.0507295,0.190848,0.0268221,0.214219,-0.296116,0.00973643,0.403602,5,0.1,9,2.4,1.90897,-0.494663,0.604742,0.462186,-0.0419147,-0.00894815,-0.309289,0.22535,0.0109971,0.0130747,2.37432,5,0.1,10,2.4,-4.20598,3.80899,0.795106,0.0299692,0.0199378,-0.0105843,-0.124216,0.0704527,-0.0323355,0.0406187,0.366974,5,0.1,11,2.4,-2.02654,-0.189331,1.21686,-0.153965,0.450029,0.147364,0.000953674,-0.128649,-0.193894,0.0097772,0.204031,5,0.1,12,2.4,-1.43428,-2.66072,0.595265,0.0853658,0.537151,0.00478625,-0.0938177,-0.471473,-0.00527501,0.00935144,0.111994,5,0.1,13,2.4,-1.9634,-1.59876,1.06657,-0.0648528,0.866026,0.173157,0.03618,-5.96046e-05,-0.0632405,0.0132895,1.01042,5,0.1,14,2.4,-0.378871,0.218877,0.696298,-0.041987,-0.121253,0.103101,-0.0901222,-0.855364,-0.0185668,0.00751081,0.252764,5,0.1,15,2.4,-1.34948,3.92522,1.23984,-0.000742078,-0.130093,0.154752,0.000953674,0.424981,-0.205517,0.0297438,0.412748,5,0.1,16,2.4,3.29487,-2.55052,0.546564,0.171089,0.337946,-0.00639707,-0.10252,-0.193238,0.00420213,0.00968076,0.0631728,5,0.1,17,2.4,-2.69667,3.92128,1.13195,-0.00538826,-0.0437796,0.33454,0.00464916,-0.0288486,-0.181139,0.0153799,0.0876981,5,0.1,18,2.4,2.37316,-2.06628,0.59035,-0.258887,0.263864,0.00979602,0.276446,-0.619888,-0.0109971,0.00952864,0.455137,5,0.1,19,2.4,-0.165897,1.25844,0.58578,-0.321653,-0.750351,-0.00668466,0.105344,-0.672996,0.00211596,0.00713219,2.32894,5,0.1,20,2.4,0.899897,-2.4,0.600748,-0.012812,0.0346243,-0.00223815,0.0470579,0.374556,0.00342727,0.0118483,0.183237,5,0.1,21,2.4,0.637022,-2.1248,0.62414,0.719088,-0.0271857,-0.00855774,-0.688046,0.102401,-0.00557303,0.0064217,0.895454,5,0.1,22,2.4,2.06585,-1.90208,0.58991,-0.232762,0.233164,0.00850707,-0.19598,0.0463724,-0.0233352,0.00503617,0.204306,5,0.1,23,2.4,-2.4424,-0.402429,0.737751,-0.547236,-0.0482328,0.0124097,0.124335,0.0542849,-0.0139773,0.00947701,0.202571,5,0.1,24,2.4,-0.318487,0.468901,0.590332,-0.0907354,-0.110605,-0.0291929,0.0632703,0.0719428,0.0192523,0.00881386,0.189676,5,0.1,25,2.4,-3.39065,-2.33908,0.57173,0.143391,0.224662,-0.0632718,-0.0523329,-0.236154,0.0357926,0.0283193,0.284327,5,0.1,26,2.4,4.08661,-3.02179,0.638875,0.0441432,0.866026,-0.0151634,-0.0126362,0,0.00426173,0.0170805,2.27057,5,0.1,27,2.4,0.0984087,-3.18188,1.05868,-0.145709,0.0558913,0.338346,-0.108715,0.151873,-0.117719,0.0176121,0.124226,5,0.1,28,2.4,4.64941,-5.06701,1.04109,0.00143051,0.292861,0.0246108,-0.00500679,1.28984,-0.0857115,0.028018,1.75372,5,0.1,29,2.4,-3.13232,-0.616013,0.500003,0.125289,0.262333,-3.27826e-05,-0.252843,-0.263005,0.000238419,0.0128624,0.20759,5,0.1
0,2.5,-3.15925,4.15498,1.22186,0.00933222,-0.408579,0.129225,-0.00987947,0.208497,-0.134945,0.0152233,0.293425,5,0.1,1,2.5,4.7701,0.758798,0.669679,-0.253105,-0.197228,0.0304833,0.119627,0.0931546,-0.0144094,0.00724586,0.0491953,5,0.1,2,2.5,0.85119,-0.588102,0.601455,0.190745,0.212289,-0.00224058,-0.38645,-0.17526,0.00186265,0.0100002,0.213068,5,0.1,3,2.5,0.237024,-3.33329,0.545132,0.0137553,0.865971,-0.071201,-0.0720257,0.00219047,0.0813194,0.0225859,2.27817,5,0.1,4,2.5,-4.65183,-2.17172,1.22709,0.00179037,0.446816,0.123926,-0.00193715,-0.456333,-0.129879,0.0338195,0.438115,5,0.1,5,2.5,-4.20223,5.41148,0.657522,-0.0252657,0.210814,0.000746548,-0.0773966,-0.2684,-0.000961125,0.00755668,0.0153692,5,0.1,6,2.5,-3.72942,-2.55121,0.665662,-0.290336,0.171319,0.0119991,0.0918955,0.118151,-0.0251196,0.00813252,0.15331,5,0.1,7,2.5,-0.316942,5.23293,1.2301,0.0899252,0.208981,0.174978,-0.301564,0.0357926,-0.167847,0.00903767,0.262004,5,0.1,8,2.5,-2.09381,3.90388,1.28146,-0.0146467,-0.0288598,0.16235,0.02487,0.210464,-0.274852,0.00973643,0.403602,5,0.1,9,2.5,1.95499,-0.497832,0.603902,0.46932,-0.0225284,-0.00784192,0.357822,0.161992,0.0111386,0.0130747,2.37432,5,0.1,10,2.5,-4.20354,3.81135,0.793878,0.0193961,0.0273138,-0.0140071,-0.0886023,0.0732243,-0.0342131,0.0406187,0.366974,5,0.1,11,2.5,-2.04194,-0.144873,1.23069,-0.153919,0.439603,0.129773,0.00652671,-0.100143,-0.161886,0.0097772,0.204031,5,0.1,12,2.5,-1.42618,-2.60922,0.595719,0.0768406,0.493744,0.00430718,-0.0791624,-0.412494,-0.00444055,0.00935144,0.111994,5,0.1,13,2.5,-1.96962,-1.51216,1.08334,-0.0588376,0.865534,0.160286,0.080362,-0.0196099,-0.184916,0.0132895,1.01042,5,0.1,14,2.5,-0.383347,0.202547,0.706691,-0.0460101,-0.203938,0.106127,0.00158325,-0.771718,0.0643544,0.00751081,0.252764,5,0.1,15,2.5,-1.34955,3.91426,1.25437,-0.000656396,-0.0898302,0.136418,0.000789762,0.37539,-0.166051,0.0297438,0.412748,5,0.1,16,2.5,3.31155,-2.51755,0.545943,0.162855,0.322486,-0.00605714,-0.071004,-0.13344,0.00292808,0.00968076,0.0631728,5,0.1,17,2.5,-2.69719,3.91682,1.16447,-0.00493824,-0.0447795,0.315509,0.00447035,0.00837445,-0.206195,0.0153799,0.0876981,5,0.1,18,2.5,2.34855,-2.04299,0.591278,-0.234187,0.202141,0.00879914,0.22611,-0.605479,-0.00923127,0.00952864,0.455137,5,0.1,19,2.5,-0.197562,1.18044,0.58512,-0.311617,-0.804865,-0.00651162,0.106688,-0.392333,0.00164658,0.00713219,2.32894,5,0.1,20,2.5,0.898835,-2.39477,0.600531,-0.00858093,0.0688598,-0.00220733,0.0376292,0.302017,-0.00214204,0.0118483,0.183237,5,0.1,21,2.5,0.704052,-2.12636,0.623334,0.609241,0.0011459,-0.00690594,-1.42533,0.421554,0.0342056,0.0064217,0.895454,5,0.1,22,2.5,2.04165,-1.87857,0.590646,-0.250436,0.236505,0.00622422,-0.145316,0.0118837,-0.0220388,0.00503617,0.204306,5,0.1,23,2.5,-2.49653,-0.406999,0.738927,-0.53501,-0.0433144,0.0111438,0.139743,0.0455063,-0.0117123,0.00947701,0.202571,5,0.1,24,2.5,-0.327426,0.457609,0.587576,-0.0895184,-0.120087,-0.0253409,-0.0252314,-0.22058,0.0539869,0.00881386,0.189676,5,0.1,25,2.5,-3.37618,-2.31818,0.565679,0.149164,0.190247,-0.0569141,0.138953,-0.430018,0.0867024,0.0283193,0.284327,5,0.1,26,2.5,4.09098,-2.93519,0.637373,0.043378,0.866026,-0.0149052,-0.00521541,0,0.00177696,0.0170805,2.27057,5,0.1,27,2.5,0.0833561,-3.17542,1.09193,-0.154587,0.0740882,0.326344,-0.063451,0.198022,-0.132412,0.0176121,0.124226,5,0.1,28,2.5,4.64953,-5.03095,1.04316,0.000992417,0.429533,0.01709,-0.0038147,1.37258,-0.0653192,0.028018,1.75372,5,0.1,29,2.5,-3.1211,-0.591025,0.500001,0.0987798,0.237928,-1.37836e-05,-0.271648,-0.232302,0.000141561,0.0128624,0.20759,5,0.1
0,2.6,-3.15837,4.11502,1.23412,0.00837445,-0.391281,0.11608,-0.00953674,0.161886,-0.130951,0.0145572,2.31212,5,0.1,1,2.6,4.74539,0.739545,0.672654,-0.240743,-0.187597,0.0289947,0.137568,0.10705,-0.0165701,0.00779227,0.0223478,5,0.1,2,2.6,0.868248,-0.567825,0.601241,0.149845,0.192502,-0.00203103,-0.421196,-0.22018,0.00235438,0.0100203,0.411887,5,0.1,3,2.6,0.23798,-3.24668,0.538485,0.00492781,0.866026,-0.0611782,-0.0983626,0,0.115335,0.0207166,2.2744,5,0.1,4,2.6,-4.65166,-2.12948,1.23885,0.0015974,0.396436,0.111285,-0.00166893,-0.546575,-0.125825,0.0325112,0.419806,5,0.1,5,2.6,-4.20519,5.43121,0.657592,-0.0340819,0.183713,0.000649691,-0.0908375,-0.274897,-0.000983477,0.00884644,0.00777802,5,0.1,6,2.6,-3.75806,-2.53348,0.666743,-0.282562,0.182962,0.00968874,0.0805855,0.100255,-0.0213385,0.00892876,0.0937599,5,0.1,7,2.6,-0.30941,5.25393,1.24672,0.0612967,0.210083,0.157008,-0.266835,-0.0212193,-0.191987,0.00938284,0.243542,5,0.1,8,2.6,-2.09515,3.90196,1.29635,-0.0122428,-0.0106573,0.13572,0.0234842,0.14627,-0.258386,0.00824173,0.783972,5,0.1,9,2.6,2.00418,-0.49938,0.603174,0.51716,-0.00947267,-0.00672042,0.526905,0.0999272,0.0112653,0.0125484,3.05054,5,0.1,10,2.6,-4.202,3.81442,0.792316,0.0119925,0.033927,-0.0170991,-0.0607967,0.0560284,-0.0262558,0.0395007,0.36516,5,0.1,11,2.6,-2.05725,-0.101502,1.24288,-0.151557,0.426568,0.114304,0.0451803,-0.174634,-0.150442,0.0105496,0.455328,5,0.1,12,2.6,-1.41889,-2.56192,0.596128,0.0691056,0.451982,0.0038743,-0.0772476,-0.433803,-0.00435114,0.00876565,0.129644,5,0.1,13,2.6,-1.97505,-1.42587,1.09831,-0.0494659,0.858179,0.137889,0.103831,-0.156999,-0.255287,0.0123796,0.358761,5,0.1,14,2.6,-0.387843,0.178612,0.717663,-0.0430919,-0.271116,0.113399,0.0506043,-0.55366,0.0701249,0.00839663,0.198307,5,0.1,15,2.6,-1.34961,3.90704,1.26721,-0.000578165,-0.0558019,0.120699,0.000655651,0.302196,-0.151932,0.0312847,0.381345,5,0.1,16,2.6,3.32747,-2.48598,0.545352,0.155383,0.308287,-0.00575483,-0.0845194,-0.162959,0.00330806,0.00891769,0.0286623,5,0.1,17,2.6,-2.69766,3.91244,1.19491,-0.00447631,-0.0422418,0.29223,0.00500679,0.041604,-0.263393,0.016135,0.185647,5,0.1,18,2.6,2.32623,-2.02572,0.592113,-0.212198,0.144339,0.0079006,0.219941,-0.543952,-0.0089407,0.00899203,0.444539,5,0.1,19,2.6,-0.228113,1.09862,0.584479,-0.298428,-0.824863,-0.00630468,0.164666,0.00691414,0.00268221,0.00731212,2.42378,5,0.1,20,2.6,0.89815,-2.38654,0.600295,-0.00527054,0.0937283,-0.00254661,0.0286996,0.190496,-0.00411272,0.0110192,0.125876,5,0.1,21,2.6,0.757203,-2.1239,0.62285,0.449029,0.0495613,-0.0025019,-1.71241,0.513792,0.0504255,0.00699263,0.445136,5,0.1,22,2.6,2.01605,-1.85497,0.591162,-0.259817,0.234139,0.00414699,-0.0345707,-0.0647306,-0.0192523,0.00509666,0.250965,5,0.1,23,2.6,-2.54918,-0.411108,0.739984,-0.516021,-0.0388883,0.0100046,0.252843,0.044018,-0.0112951,0.00963003,0.135675,5,0.1,24,2.6,-0.336557,0.444292,0.585344,-0.09339,-0.147512,-0.019075,-0.0419468,-0.296816,0.0683367,0.00876912,0.156749,5,0.1,25,2.6,-3.36045,-2.30147,0.560473,0.166112,0.14264,-0.0467792,0.177979,-0.504494,0.112206,0.0304328,0.528362,5,0.1,26,2.6,4.09529,-2.84859,0.635893,0.042665,0.866026,-0.0146583,-0.0112057,0,0.00378489,0.0165155,2.27065,5,0.1,27,2.6,0.0676905,-3.16704,1.12381,-0.157535,0.0930548,0.310194,0.00773907,0.171065,-0.197113,0.0175444,0.0891037,5,0.1,28,2.6,4.64962,-4.98148,1.04457,0.000667572,0.55517,0.0114322,-0.0026226,1.0891,-0.0484586,0.0304719,1.34494,5,0.1,29,2.6,-3.11257,-0.568391,0.5,0.0719726,0.214665,-4.47035e-06,-0.259995,-0.237852,8.9407e-05,0.0144525,0.200566,5,0.1
0,2.7,-3.15758,4.07669,1.24528,0.00751577,-0.375201,0.108705,-0.00791252,0.171244,-0.0299364,0.0145572,2.31212,5,0.1,1,2.7,4.72198,0.721302,0.675474,-0.227501,-0.17729,0.0274,0.134557,0.104766,-0.0162087,0.00779227,0.0223478,5,0.1,2,2.7,0.881145,-0.549642,0.601049,0.108463,0.171403,-0.00180593,-0.399355,-0.204906,0.00217929,0.0100203,0.411887,5,0.1,3,2.7,0.237932,-3.16008,0.532968,-0.00622035,0.866026,-0.048992,-0.118723,0,0.125803,0.0207166,2.2744,5,0.1,4,2.7,-4.65151,-2.09284,1.24939,0.0014469,0.33434,0.0999328,-0.00137091,-0.671566,-0.104591,0.0325112,0.419806,5,0.1,5,2.7,-4.20908,5.44822,0.657652,-0.0438921,0.156786,0.000553485,-0.0985563,-0.264019,-0.000942498,0.00884644,0.00777802,5,0.1,6,2.7,-3.78601,-2.51464,0.667612,-0.277036,0.193745,0.00776313,0.0450313,0.102654,-0.0173599,0.00892876,0.0937599,5,0.1,7,2.7,-0.304523,5.27485,1.26147,0.0373938,0.208195,0.138269,-0.209993,-0.0252724,-0.184253,0.00938284,0.243542,5,0.1,8,2.7,-2.09626,3.90162,1.30868,-0.0100181,0.00302121,0.111207,0.0210404,0.100374,-0.23222,0.00824173,0.783972,5,0.1,9,2.7,2.05764,-0.499493,0.602557,0.54368,0.00862144,-0.00564205,0.0228435,0.187404,0.0103302,0.0125484,3.05054,5,0.1,10,2.7,-4.20106,3.81809,0.790475,0.00699162,0.0394106,-0.0196829,-0.0401735,0.0506938,-0.0239499,0.0395007,0.36516,5,0.1,11,2.7,-2.07219,-0.0599875,1.25361,-0.147231,0.401152,0.10077,0.0467151,-0.328396,-0.123575,0.0105496,0.455328,5,0.1,12,2.7,-1.4123,-2.51853,0.596497,0.0630694,0.418579,0.00353465,-0.0476912,-0.261784,-0.00267848,0.00876565,0.129644,5,0.1,13,2.7,-1.97946,-1.34096,1.11076,-0.0384513,0.838024,0.110506,0.1138,-0.267372,-0.285856,0.0123796,0.358761,5,0.1,14,2.7,-0.391836,0.148861,0.729493,-0.0363383,-0.322115,0.124205,0.0762884,-0.446504,0.130374,0.00839663,0.198307,5,0.1,15,2.7,-1.34983,3.90287,1.27854,-0.00495873,-0.0286084,0.106054,-0.0783801,0.236169,-0.142403,0.0312847,0.381345,5,0.1,16,2.7,3.3426,-2.45595,0.544792,0.147179,0.292392,-0.0054366,-0.0842214,-0.164136,0.00322983,0.00891769,0.0286623,5,0.1,17,2.7,-2.69808,3.90849,1.22277,-0.00397302,-0.03611,0.264381,0.0050813,0.076741,-0.294119,0.016135,0.185647,5,0.1,18,2.7,2.30603,-2.01391,0.592861,-0.192545,0.0931121,0.00709407,0.180215,-0.470519,-0.00743568,0.00899203,0.444539,5,0.1,19,2.7,-0.257208,1.01662,0.583857,-0.283952,-0.810783,-0.00615017,0.136579,0.279523,0.000845641,0.00731212,2.42378,5,0.1,20,2.7,0.897771,-2.37604,0.600023,-0.00228612,0.117609,-0.0028423,0.0300296,0.264838,-0.00182912,0.0110192,0.125876,5,0.1,21,2.7,0.793626,-2.11607,0.622887,0.281006,0.109408,0.00348687,-1.6187,0.645384,0.0656992,0.00699263,0.445136,5,0.1,22,2.7,1.99029,-1.83182,0.591485,-0.251578,0.229198,0.0023758,0.185788,-0.0454113,-0.0160709,0.00509666,0.250965,5,0.1,23,2.7,-2.59957,-0.414792,0.740932,-0.491876,-0.0349191,0.00898596,0.246227,0.0365544,-0.00938028,0.00963003,0.135675,5,0.1,24,2.7,-0.346111,0.428022,0.583786,-0.0975826,-0.177782,-0.0120307,-0.0364054,-0.291321,0.070665,0.00876912,0.156749,5,0.1,25,2.7,-3.34248,-2.28983,0.556384,0.196993,0.0895493,-0.0347931,0.397831,-0.54121,0.124171,0.0304328,0.528362,5,0.1,26,2.7,4.09951,-2.76199,0.63444,0.0420265,0.866026,-0.0144425,-0.00408292,0,0.00138953,0.0165155,2.27065,5,0.1,27,2.7,0.0522045,-3.15687,1.15384,-0.150104,0.109929,0.290199,0.132652,0.157401,-0.208981,0.0175444,0.0891037,5,0.1,28,2.7,4.64967,-4.92053,1.0455,0.000444055,0.66231,0.00729784,-0.00184774,0.999123,-0.0347346,0.0304719,1.34494,5,0.1,29,2.7,-3.10663,-0.548081,0.5,0.0474088,0.191752,7.45058e-07,-0.227123,-0.223964,2.23517e-05,0.0144525,0.200566,5,0.1
0,2.8,-3.15686,4.04012,1.25608,0.00674725,-0.355113,0.107732,-0.00751019,0.23818,0.000357628,0.0152354,1.86071,5,0.1,1,2.8,4.69995,0.704131,0.678127,-0.212622,-0.165701,0.0256091,0.167847,0.130683,-0.0202358,0.00866993,0.0136179,5,0.1,2,2.8,0.890079,-0.533521,0.60088,0.0711665,0.151007,-0.00158995,-0.341773,-0.205129,0.00220537,0.0092369,0.361894,5,0.1,3,2.8,0.236723,-3.07348,0.528697,-0.017792,0.866026,-0.036478,-0.108331,0,0.122458,0.0206332,2.27218,5,0.1,4,2.8,-4.65137,-2.06281,1.25887,0.0013113,0.266218,0.0897884,-0.00143051,-0.673771,-0.100791,0.033825,0.860326,5,0.1,5,2.8,-4.21393,5.4626,0.657703,-0.0526547,0.130856,0.000460446,-0.0722408,-0.254393,-0.00089407,0.00778901,0.00395663,5,0.1,6,2.8,-3.81345,-2.49484,0.668307,-0.270981,0.201327,0.00618398,0.0865459,0.0401735,-0.0143945,0.00832865,0.0743152,5,0.1,7,2.8,-0.301732,5.29548,1.27438,0.0194378,0.203574,0.119925,-0.148997,-0.0729561,-0.183523,0.00953224,0.384698,5,0.1,8,2.8,-2.09716,3.90219,1.31868,-0.00802875,0.00571012,0.0892192,0.0188351,-0.0568628,-0.207901,0.00958048,2.04842,5,0.1,9,2.8,2.11142,-0.498005,0.602043,0.52551,0.0170521,-0.00464916,-0.367641,-0.0537932,0.00950694,0.0119072,2.08087,5,0.1,10,2.8,-4.20054,3.82226,0.788401,0.00377893,0.0435591,-0.021638,-0.0247955,0.0302792,-0.0142157,0.0403491,0.363662,5,0.1,11,2.8,-2.08664,-0.0217301,1.26309,-0.141323,0.361979,0.0890136,0.0752211,-0.449429,-0.113964,0.0150951,0.921292,5,0.1,12,2.8,-1.40621,-2.47789,0.596839,0.0588328,0.394851,0.00329763,-0.0401735,-0.233293,-0.00223517,0.0126624,0.125619,5,0.1,13,2.8,-1.98274,-1.25882,1.12037,-0.0271797,0.801268,0.0818849,0.109673,-0.480831,-0.281572,0.0160286,0.127578,5,0.1,14,2.8,-0.395097,0.114726,0.74256,-0.029099,-0.357146,0.136769,0.0640154,-0.241212,0.109464,0.0137632,0.17024,5,0.1,15,2.8,-1.35078,3.90105,1.28844,-0.0144958,-0.00934601,0.0919878,-0.104785,0.146627,-0.139832,0.0324713,0.616907,5,0.1,16,2.8,3.35686,-2.42759,0.544266,0.13777,0.273943,-0.00507832,-0.10705,-0.210762,0.00399351,0.00903337,0.011084,5,0.1,17,2.8,-2.69846,3.90529,1.24768,-0.00345707,-0.0276685,0.233385,0.00524521,0.0889301,-0.325441,0.0168236,0.270531,5,0.1,18,2.8,2.28766,-2.00676,0.593534,-0.174946,0.0517905,0.00637323,0.176787,-0.350356,-0.00715256,0.0085537,0.63799,5,0.1,19,2.8,-0.284889,0.937413,0.583246,-0.269125,-0.76846,-0.00606179,0.1681,0.567108,0.0012219,0.0073794,2.67284,5,0.1,20,2.8,0.897688,-2.36298,0.599734,0.000567734,0.142866,-0.00291914,0.0263751,0.224113,0.000268221,0.012443,0.174742,5,0.1,21,2.8,0.813988,-2.10194,0.623565,0.130315,0.172067,0.0100002,-1.37416,0.579834,0.06181,0.00668276,0.288688,5,0.1,22,2.8,1.96633,-1.80917,0.591649,-0.225201,0.223139,0.000949204,0.329792,-0.0836253,-0.0123978,0.0055319,0.306346,5,0.1,23,2.8,-2.64743,-0.418105,0.741785,-0.46407,-0.0313751,0.00807643,0.320554,0.0351965,-0.00905991,0.0129483,0.115222,5,0.1,24,2.8,-0.356005,0.408913,0.582928,-0.0997484,-0.202842,-0.00526756,-0.00321865,-0.197813,0.0631511,0.00952755,0.125346,5,0.1,25,2.8,-3.32071,-2.28353,0.553523,0.238359,0.0372112,-0.022535,0.397921,-0.493526,0.118434,0.0293214,0.176445,5,0.1,26,2.8,4.10369,-2.67538,0.633005,0.0414252,0.866026,-0.0142321,-0.0100136,0,0.00336766,0.016197,2.27071,5,0.1,27,2.8,0.0380067,-3.14518,1.18175,-0.132541,0.123018,0.267392,0.211482,0.0981092,-0.250936,0.0175723,0.202248,5,0.1,28,2.8,4.64971,-4.84982,1.04607,0.000286102,0.745773,0.00439286,-0.00119209,0.632524,-0.0239015,0.0301525,0.972738,5,0.1,29,2.8,-3.10294,-0.530026,0.5,0.0271916,0.169288,0,-0.174999,-0.227571,2.98023e-05,0.012574,1.08339,5,0.1
0,2.9,-3.15622,4.00617,1.26695,0.00607222,-0.32061,0.110376,-0.00619888,0.433832,0.0421554,0.0152354,1.86071,5,0.1,1,2.9,4.6795,0.688196,0.68059,-0.196374,-0.153047,0.0236509,0.16281,0.126842,-0.0196174,0.00866993,0.0136179,5,0.1,2,2.9,0.895575,-0.519432,0.600732,0.0398197,0.130907,-0.00137482,-0.278499,-0.197548,0.00210851,0.0092369,0.361894,5,0.1,3,2.9,0.234392,-2.98688,0.525647,-0.0288191,0.866026,-0.0246945,-0.107538,0,0.111829,0.0206332,2.27218,5,0.1,4,2.9,-4.65125,-2.03964,1.26738,0.0011839,0.197618,0.0807293,-0.00116229,-0.655204,-0.0831932,0.033825,0.860326,5,0.1,5,2.9,-4.21954,5.47444,0.657744,-0.0591166,0.106364,0.000374299,-0.0536144,-0.234932,-0.000823289,0.00778901,0.00395663,5,0.1,6,2.9,-3.84022,-2.47445,0.668859,-0.265117,0.206577,0.0049185,0.0463426,0.0516325,-0.0111088,0.00832865,0.0743152,5,0.1,7,2.9,-0.300494,5.31549,1.28549,0.00588512,0.19667,0.102619,-0.116296,-0.0722408,-0.164084,0.00953224,0.384698,5,0.1,8,2.9,-2.09788,3.90243,1.32661,-0.00628978,-0.00416152,0.0700004,0.0160038,-0.245795,-0.177026,0.00958048,2.04842,5,0.1,9,2.9,2.16137,-0.496661,0.601623,0.466998,0.00907504,-0.00376413,-0.750497,-0.0989642,0.00822917,0.0119072,2.08087,5,0.1,10,2.9,-4.20027,3.82676,0.786168,0.0018388,0.0463754,-0.0229659,-0.0145435,0.0236928,-0.0111833,0.0403491,0.363662,5,0.1,11,2.9,-2.10041,0.0119473,1.27147,-0.134206,0.309284,0.0788279,0.0715554,-0.586819,-0.0925213,0.0150951,0.921292,5,0.1,12,2.9,-1.40023,-2.43942,0.597159,0.0634288,0.375488,0.00311434,0.111602,-0.172094,-0.00159442,0.0126624,0.125619,5,0.1,13,2.9,-1.98491,-1.18124,1.12716,-0.0164332,0.748724,0.0541812,0.103362,-0.578478,-0.267886,0.0160286,0.127578,5,0.1,14,2.9,-0.397725,0.0778553,0.756675,-0.0239481,-0.379292,0.144543,0.0356957,-0.183047,0.0489205,0.0137632,0.17024,5,0.1,15,2.9,-1.35296,3.90082,1.29697,-0.0309713,0.00376403,0.0788923,-0.207409,0.0942647,-0.123426,0.0324713,0.616907,5,0.1,16,2.9,3.3701,-2.40126,0.543778,0.126881,0.252445,-0.00467338,-0.112861,-0.223324,0.00417978,0.00903337,0.011084,5,0.1,17,2.9,-2.69878,3.90303,1.26942,-0.00295602,-0.0172827,0.201563,0.00481308,0.109062,-0.312082,0.0168236,0.270531,5,0.1,18,2.9,2.27098,-2.00323,0.594139,-0.159133,0.0204887,0.00573024,0.145316,-0.252679,-0.00590831,0.0085537,0.63799,5,0.1,19,2.9,-0.310766,0.863556,0.582665,-0.24665,-0.707031,-0.0054013,0.274744,0.665169,0.0110045,0.0073794,2.67284,5,0.1,20,2.9,0.897858,-2.34731,0.599447,0.00264701,0.172414,-0.00277348,0.0155717,0.337437,0.00249594,0.012443,0.174742,5,0.1,21,2.9,0.820714,-2.08173,0.624886,0.00989186,0.232189,0.0164784,-1.03321,0.591636,0.0646487,0.00668276,0.288688,5,0.1,22,2.9,1.94564,-1.78714,0.591685,-0.187328,0.21844,-0.000184309,0.415392,-0.0253469,-0.010144,0.0055319,0.306346,5,0.1,23,2.9,-2.69225,-0.421228,0.742563,-0.432374,-0.0324165,0.00761366,0.323445,-0.0456981,-0.00122562,0.0129483,0.115222,5,0.1,24,2.9,-0.365854,0.387695,0.582708,-0.0959108,-0.220662,0.000758562,0.0752527,-0.14789,0.0561886,0.00952755,0.125346,5,0.1,25,2.9,-3.29505,-2.28245,0.551896,0.272854,-0.0166781,-0.00978624,0.280708,-0.559628,0.131626,0.0293214,0.176445,5,0.1,26,2.9,4.1078,-2.58878,0.631593,0.0408843,0.866026,-0.01405,-0.00321865,0,0.00110641,0.016197,2.27071,5,0.1,27,2.9,0.0258988,-3.13242,1.20725,-0.108907,0.131525,0.242536,0.254239,0.0665039,-0.249974,0.0175723,0.202248,5,0.1,28,2.9,4.64973,-4.77218,1.04641,0.0001885,0.804997,0.00244398,-0.000745058,0.508994,-0.0154749,0.0301525,0.972738,5,0.1,29,2.9,-3.10111,-0.513922,0.5,0.00965223,0.15543,1.76951e-06,-0.163019,-0.0691768,1.11759e-05,0.012574,1.08339,5,0.1
0,3,-3.15565,3.97648,1.27819,0.00546575,-0.271624,0.114372,-0.00584126,0.531197,0.03016,0.0152763,2.25368,5,0.1,1,3,4.66071,0.673548,0.682853,-0.179136,-0.139616,0.0215739,0.18549,0.144511,-0.0223219,0.00998097,0.0043611,5,0.1,2,3,0.898311,-0.507321,0.600605,0.0164554,0.111398,-0.00116825,-0.185549,-0.192985,0.00205636,0.00859783,0.546833,5,0.1,3,3,0.231005,-2.90027,0.52371,-0.0385009,0.866026,-0.0143439,-0.082776,0,0.0941455,0.0180968,2.27067,5,0.1,4,3,-4.65114,-2.02286,1.27505,0.00107288,0.141537,0.072667,-0.00119209,-0.445962,-0.0801086,0.0308506,0.799634,5,0.1,5,3,-4.22566,5.48394,0.657778,-0.0628352,0.0839591,0.000295043,-0.0183582,-0.212431,-0.000745058,0.00835455,0.00188688,5,0.1,6,3,-3.86646,-2.4536,0.6693,-0.25906,0.209421,0.00392944,0.0857115,-0.00357628,-0.00888109,0.00858168,0.0346322,5,0.1,7,3,-0.300397,5.33475,1.29496,-0.00296831,0.187945,0.0868618,-0.0579953,-0.107527,-0.152171,0.00886883,0.799531,5,0.1,8,3,-2.09843,3.9,1.33278,-0.00481606,-0.0522196,0.0537068,0.0133514,-0.697613,-0.14931,0.00798117,1.78438,5,0.1,9,3,2.20403,-0.496276,0.601286,0.384384,-0.00153854,-0.00299662,-0.86391,-0.108063,0.00715256,0.0108917,1.99032,5,0.1,10,3,-4.20014,3.83149,0.783828,0.000762939,0.0479102,-0.0236794,-0.00739098,0.00536442,-0.00232458,0.0372735,1.10501,5,0.1,11,3,-2.11345,0.0398357,1.2789,-0.126266,0.247783,0.0700295,0.0902414,-0.62917,-0.0854731,0.0100071,0.908678,5,0.1,12,3,-1.39321,-2.40275,0.597462,0.0775337,0.357336,0.00295192,0.154853,-0.203967,-0.00172853,0.00912306,0.0753372,5,0.1,13,3,-1.98606,-1.10947,1.1313,-0.00683069,0.684324,0.029099,0.0872612,-0.713587,-0.230432,0.0118065,0.902081,5,0.1,14,3,-0.4,0.0392314,0.77129,-0.0220925,-0.390654,0.14693,0.00336766,-0.0318563,-0.000298023,0.00685373,0.164359,5,0.1,15,3,-1.35715,3.90145,1.30426,-0.0529289,0.00661612,0.0670701,-0.21857,-0.0448227,-0.113904,0.0297204,1.05916,5,0.1,16,3,3.3822,-2.37718,0.543332,0.11487,0.228626,-0.00423044,-0.128746,-0.255585,0.00476837,0.00987379,0.00573796,5,0.1,17,3,-2.69905,3.90182,1.28803,-0.00249147,-0.0074327,0.170809,0.00452995,0.082016,-0.303507,0.0141176,0.544477,5,0.1,18,3,2.25578,-2.00215,0.594683,-0.144887,0.00434518,0.00515878,0.143766,-0.0624657,-0.00572205,0.00742423,0.831693,5,0.1,19,3,-0.333928,0.796363,0.582189,-0.215439,-0.634988,-0.00403672,0.343502,0.77644,0.0154674,0.00782742,2.96446,5,0.1,20,3,0.898185,-2.32839,0.599185,0.00375509,0.205255,-0.00244826,0.00688434,0.297546,0.0039041,0.0124045,0.116615,5,0.1,21,3,0.817106,-2.05574,0.626841,-0.0763789,0.285095,0.0223979,-0.693887,0.444531,0.0515282,0.0060661,0.20634,5,0.1,22,3,1.92904,-1.76543,0.59162,-0.144327,0.215483,-0.00106096,0.434816,-0.0445247,-0.00730157,0.0126702,0.338225,5,0.1,23,3,-2.7338,-0.424761,0.743324,-0.39773,-0.0386849,0.00764877,0.375986,-0.0717044,0.00113249,0.0105264,0.156618,5,0.1,24,3,-0.374972,0.365044,0.583045,-0.0855863,-0.230654,0.00577271,0.127047,-0.0450164,0.043273,0.00882957,0.152105,5,0.1,25,3,-3.26663,-2.28686,0.551564,0.292695,-0.0704408,0.00293255,0.109553,-0.497222,0.11909,0.0294418,0.109195,5,0.1,26,3,4.11187,-2.50218,0.630195,0.0403523,0.866026,-0.0138685,-0.00905991,0,0.00315905,0.0147973,2.46944,5,0.1,27,3,0.0163022,-3.11903,1.23023,-0.0829358,0.135416,0.216791,0.25971,0.00786781,-0.267208,0.0167049,0.191014,5,0.1,28,3,4.64975,-4.68962,1.04659,0.000119209,0.840425,0.00122488,-0.000238419,0.170708,-0.00923872,0.030265,1.17725,5,0.1,29,3,-3.10086,-0.498596,0.5,-0.00342131,0.151994,1.49012e-06,-0.0911951,-0.0145286,0,0.0121965,3.83592,5,0.1
0,3.1,-3.15513,3.95222,1.28982,0.00494085,-0.211899,0.118417,-0.00484288,0.629529,0.0426471,0.0152763,2.25368,5,0.1,1,3.1,4.64372,0.660309,0.684899,-0.160528,-0.125117,0.0193345,0.188619,0.147,-0.0227056,0.00998097,0.0043611,5,0.1,2,3.1,0.899075,-0.497109,0.600498,-0.000138674,0.0931719,-0.000974722,-0.124861,-0.172408,0.00182539,0.00859783,0.546833,5,0.1,3,3.1,0.226741,-2.81367,0.522676,-0.0466681,0.866026,-0.00697784,-0.0765212,0,0.0552982,0.0180968,2.27067,5,0.1,4,3.1,-4.65104,-2.0106,1.28195,0.000967085,0.108334,0.0654856,-0.000953674,-0.173196,-0.0658408,0.0308506,0.799634,5,0.1,5,3.1,-4.232,5.49132,0.657804,-0.0636108,0.0639483,0.000224635,0.00402331,-0.187159,-0.000663102,0.00835455,0.00188688,5,0.1,6,3.1,-3.89194,-2.43271,0.669652,-0.250252,0.207953,0.00314973,0.0985861,-0.0324845,-0.00683218,0.00858168,0.0346322,5,0.1,7,3.1,-0.301041,5.35303,1.30292,-0.00972808,0.177833,0.072824,-0.0478122,-0.100583,-0.129975,0.00886883,0.799531,5,0.1,8,3.1,-2.09885,3.89031,1.33745,-0.00360757,-0.149219,0.0401922,0.0108778,-1.15713,-0.121593,0.00798117,1.78438,5,0.1,9,3.1,2.23796,-0.496998,0.60102,0.294156,-0.0130326,-0.0023447,-0.875473,-0.116745,0.00592321,0.0108917,1.99032,5,0.1,10,3.1,-4.2001,3.83631,0.78145,0.000233203,0.0483111,-0.0238505,-0.00342727,0.000745058,-0.000160187,0.0372735,1.10501,5,0.1,11,3.1,-2.12565,0.0613945,1.28551,-0.117819,0.183231,0.0624258,0.0823885,-0.639696,-0.068903,0.0100071,0.908678,5,0.1,12,3.1,-1.3846,-2.36798,0.597749,0.0953848,0.338295,0.00279313,0.188537,-0.188485,-0.001546,0.00912306,0.0753372,5,0.1,13,3.1,-1.98632,-1.04378,1.13341,0.00138301,0.636309,0.0162384,0.0756308,-0.304494,-0.0432208,0.0118065,0.902081,5,0.1,14,3.1,-0.402215,-3.86985e-05,0.785832,-0.0223859,-0.394697,0.143225,-0.00699237,-0.029366,-0.0447184,0.00685373,0.164359,5,0.1,15,3.1,-1.3636,3.9018,1.31043,-0.0765055,-0.00246465,0.0566086,-0.239864,-0.201792,-0.0965521,0.0297204,1.05916,5,0.1,16,3.1,3.39305,-2.35558,0.542933,0.10225,0.203542,-0.00376413,-0.125244,-0.249222,0.00462309,0.00987379,0.00573796,5,0.1,17,3.1,-2.69927,3.90154,1.30363,-0.00205673,0.00166446,0.141498,0.00415742,0.074178,-0.282466,0.0141176,0.544477,5,0.1,18,3.1,2.24196,-2.00182,0.595172,-0.132009,0.00581928,0.00464618,0.118583,0.140503,-0.00470132,0.00742423,0.831693,5,0.1,19,3.1,-0.353657,0.736633,0.581868,-0.178359,-0.560492,-0.00236575,0.390002,0.722274,0.0173524,0.00782742,2.96446,5,0.1,20,3.1,0.898582,-2.3063,0.598963,0.00405237,0.236884,-0.00197329,-0.000447035,0.312418,0.00537932,0.0124045,0.116615,5,0.1,21,3.1,0.80643,-2.02501,0.629345,-0.132915,0.328865,0.0276845,-0.439771,0.405781,0.0512674,0.0060661,0.20634,5,0.1,22,3.1,1.91672,-1.74364,0.591493,-0.102603,0.223961,-0.00134083,0.395223,0.177681,0.000987202,0.0126702,0.338225,5,0.1,23,3.1,-2.77169,-0.429222,0.744188,-0.360014,-0.0524013,0.0104073,0.383019,-0.184014,0.0478104,0.0105264,0.156618,5,0.1,24,3.1,-0.382838,0.341751,0.583833,-0.0712761,-0.23493,0.00987882,0.15551,-0.0291932,0.0376366,0.00882957,0.152105,5,0.1,25,3.1,-3.23706,-2.29635,0.552442,0.296181,-0.118608,0.0144558,-0.0392199,-0.450417,0.108235,0.0294418,0.109195,5,0.1,26,3.1,4.11587,-2.41642,0.628818,0.039883,0.841429,-0.013701,-0.00274181,-0.461981,0.0010021,0.0147973,2.46944,5,0.1,27,3.1,0.00927785,-3.10549,1.2506,-0.0579438,0.134956,0.190874,0.236285,-0.0203252,-0.253499,0.0167049,0.191014,5,0.1,28,3.1,4.64976,-4.60468,1.04667,0.000104308,0.8579,0.000547804,-0.000119209,0.146806,-0.00459701,0.030265,1.17725,5,0.1,29,3.1,-3.10169,-0.483234,0.500001,-0.0126127,0.157085,1.39698e-06,-0.057593,0.095848,-3.72529e-06,0.0121965,3.83592,5,0.1
0,3.2,-3.15466,3.93412,1.30184,0.00446439,-0.151306,0.121522,-0.00464916,0.559926,0.0137091,0.0147095,3.13666,5,0.1,1,3.2,4.62863,0.648546,0.686717,-0.141132,-0.109993,0.0169992,0.200748,0.156224,-0.0241399,0.00695011,0.00130832,5,0.1,2,3.2,0.898663,-0.488626,0.600409,-0.00560731,0.0767685,-0.000801682,0.0231564,-0.156254,0.00166893,0.0081846,1.31366,5,0.1,3,3.2,0.221729,-2.72707,0.522205,-0.0531208,0.866026,-0.00289232,-0.0497475,0,0.0282526,0.0178006,2.26974,5,0.1,4,3.2,-4.65094,-2,1.28817,0.000870228,0.109544,0.059098,-0.000953674,0.178993,-0.0635982,0.0319451,1.22969,5,0.1,5,3.2,-4.2383,5.49682,0.657823,-0.0618577,0.0466228,0.000163913,0.0317097,-0.159025,-0.000566244,0.00779712,0.00084302,5,0.1,6,3.2,-3.91639,-2.41217,0.669936,-0.238013,0.201845,0.00253916,0.151634,-0.0939369,-0.00545382,0.00831903,0.0134571,5,0.1,7,3.2,-0.302061,5.37029,1.30958,-0.00839233,0.166833,0.0606239,0.0865012,-0.123501,-0.114977,0.00862784,1.31432,5,0.1,8,3.2,-2.09916,3.86942,1.3409,-0.00262856,-0.268686,0.0292718,0.00858307,-1.16742,-0.0973344,0.00837471,1.44625,5,0.1,9,3.2,2.26338,-0.498865,0.600813,0.218946,-0.0240095,-0.00180602,-0.597477,-0.0990927,0.00491738,0.0110613,1.84637,5,0.1,10,3.2,-4.20008,3.84112,0.779074,2.38419e-05,0.0477433,-0.0235558,-0.000953674,-0.0132322,0.00667572,0.0387681,3.9983,5,0.1,11,3.2,-2.13701,0.0766475,1.29142,-0.109166,0.123489,0.0558525,0.0933409,-0.540901,-0.0641942,0.00994303,0.882134,5,0.1,12,3.2,-1.37415,-2.33515,0.59802,0.112885,0.317681,0.00262558,0.151634,-0.231624,-0.00187755,0.00900325,0.150567,5,0.1,13,3.2,-1.98584,-0.981388,1.13501,0.00806451,0.613299,0.0174969,0.0571012,-0.199199,0.0551939,0.0124851,0.690401,5,0.1,14,3.2,-0.404491,-0.0395199,0.8,-0.0231013,-0.393225,0.140886,-0.00567734,0.0722128,-0.00208616,0.0171671,2.70065,5,0.1,15,3.2,-1.3724,3.9,1.31563,-0.0986427,-0.0387549,0.0475496,-0.193536,-0.509143,-0.0856519,0.0282176,1.51482,5,0.1,16,3.2,3.40265,-2.33648,0.54258,0.0895679,0.178295,-0.00329763,-0.129223,-0.257611,0.00476837,0.009491,0.00174146,5,0.1,17,3.2,-2.69946,3.90191,1.3164,-0.00166297,0.00374913,0.114369,0.00393391,-0.043273,-0.259757,0.0136386,2.05644,5,0.1,18,3.2,2.22934,-2,0.595614,-0.120348,0.0355929,0.0041917,0.118256,0.437856,-0.00452995,0.00829799,1.30513,5,0.1,19,3.2,-0.369522,0.684163,0.581717,-0.138894,-0.489081,-0.000673532,0.392795,0.711679,0.0160635,0.00793748,0.245405,5,0.1,20,3.2,0.898976,-2.28117,0.598793,0.00375509,0.263876,-0.00140965,-0.00506639,0.211477,0.00572205,0.0121416,0.192369,5,0.1,21,3.2,0.791338,-1.99033,0.63235,-0.165044,0.362018,0.0321522,-0.207007,0.240147,0.0360608,0.00571517,0.161145,5,0.1,22,3.2,1.90835,-1.72023,0.591373,-0.0660241,0.244638,-0.000992417,0.333369,0.208259,0.00533462,0.012162,0.146519,5,0.1,23,3.2,-2.80574,-0.435442,0.745503,-0.320405,-0.0722148,0.0161052,0.411987,-0.198141,0.0613928,0.0110714,0.115376,5,0.1,24,3.2,-0.389167,0.318213,0.584991,-0.0551581,-0.234613,0.0130981,0.163749,0.0430197,0.0259578,0.00522243,0.243127,5,0.1,25,3.2,-3.20788,-2.31028,0.55439,0.285113,-0.157881,0.0240505,-0.180125,-0.324249,0.0815392,0.031604,0.176712,5,0.1,26,3.2,4.11984,-2.33515,0.627455,0.0393987,0.778973,-0.0135288,-0.00882149,-0.763774,0.00303984,0.0170236,2.79117,5,0.1,27,3.2,0.00460066,-3.09216,1.26843,-0.0363066,0.130844,0.16571,0.194027,-0.0640154,-0.251174,0.0152859,0.361782,5,0.1,28,3.2,4.64977,-4.5184,1.04671,9.53674e-05,0.865018,0.00025034,0,-0.0202656,-0.00166893,0.0314112,2.27248,5,0.1,29,3.2,-3.10298,-0.467002,0.500001,-0.0100791,0.167586,0,0.121713,0.0988692,2.98023e-05,0.00615566,0.475342,5,0.1
