id,t,px,py,pz,vx,vy,vz,ax,ay,az,planning_time,qp_cost,planning_report,size,id,t,px,py,pz,vx,vy,vz,ax,ay,az,planning_time,qp_cost,planning_report,size,id,t,px,py,pz,vx,vy,vz,ax,ay,az,planning_time,qp_cost,planning_report,size,id,t,px,py,pz,vx,vy,vz,ax,ay,az,planning_time,qp_cost,planning_report,size,id,t,px,py,pz,vx,vy,vz,ax,ay,az,planning_time,qp_cost,planning_report,size,id,t,px,py,pz,vx,vy,vz,ax,ay,az,planning_time,qp_cost,planning_report,size,id,t,px,py,pz,vx,vy,vz,ax,ay,az,planning_time,qp_cost,planning_report,size,id,t,px,py,pz,vx,vy,vz,ax,ay,az,planning_time,qp_cost,planning_report,size,id,t,px,py,pz,vx,vy,vz,ax,ay,az,planning_time,qp_cost,planning_report,size,id,t,px,py,pz,vx,vy,vz,ax,ay,az,planning_time,qp_cost,planning_report,size,id,t,px,py,pz,vx,vy,vz,ax,ay,az,planning_time,qp_cost,planning_report,size,id,t,px,py,pz,vx,vy,vz,ax,ay,az,planning_time,qp_cost,planning_report,size,id,t,px,py,pz,vx,vy,vz,ax,ay,az,planning_time,qp_cost,planning_report,size,id,t,px,py,pz,vx,vy,vz,ax,ay,az,planning_time,qp_cost,planning_report,size,id,t,px,py,pz,vx,vy,vz,ax,ay,az,planning_time,qp_cost,planning_report,size,id,t,px,py,pz,vx,vy,vz,ax,ay,az,planning_time,qp_cost,planning_report,size,id,t,px,py,pz,vx,vy,vz,ax,ay,az,planning_time,qp_cost,planning_report,size,id,t,px,py,pz,vx,vy,vz,ax,ay,az,planning_time,qp_cost,planning_report,size,id,t,px,py,pz,vx,vy,vz,ax,ay,az,planning_time,qp_cost,planning_report,size,id,t,px,py,pz,vx,vy,vz,ax,ay,az,planning_time,qp_cost,planning_report,size,id,t,px,py,pz,vx,vy,vz,ax,ay,az,planning_time,qp_cost,planning_report,size,id,t,px,py,pz,vx,vy,vz,ax,ay,az,planning_time,qp_cost,planning_report,size,id,t,px,py,pz,vx,vy,vz,ax,ay,az,planning_time,qp_cost,planning_report,size,id,t,px,py,pz,vx,vy,vz,ax,ay,az,planning_time,qp_cost,planning_report,size,id,t,px,py,pz,vx,vy,vz,ax,ay,az,planning_time,qp_cost,planning_report,size,id,t,px,py,pz,vx,vy,vz,ax,ay,az,planning_time,qp_cost,planning_report,size,id,t,px,py,pz,vx,vy,vz,ax,ay,az,planning_time,qp_cost,planning_report,size,id,t,px,py,pz,vx,vy,vz,ax,ay,az,planning_time,qp_cost,planning_report,size,id,t,px,py,pz,vx,vy,vz,ax,ay,az,planning_time,qp_cost,planning_report,size,id,t,px,py,pz,vx,vy,vz,ax,ay,az,planning_time,qp_cost,planning_report,size
0,0,-5.52725,-1.18246,0.526293,0,0,0,0,0,0,0.00886034,0.904257,5,0.1,1,0,-4.58606,-2.33725,0.653465,0,0,0,0,0,0,0.0128366,3.5122,5,0.1,2,0,-3.45186,4.25195,0.643764,0,0,0,0,0,0,0.0279117,3.5122,5,0.1,3,0,1.2648,5.38243,0.547207,0,0,0,0,0,0,0.0139994,1.5055,5,0.1,4,0,0.601586,2.27868,0.673738,0,0,0,0,0,0,0.0258702,2.50861,5,0.1,5,0,0.634415,-0.627985,0.602289,0,0,0,0,0,0,0.013248,3.14007,5,0.1,6,0,1.94278,1.78244,0.60321,0,0,0,0,0,0,0.0331827,0.970183,5,0.1,7,0,1.7906,-3.55264,0.535873,0,0,0,0,0,0,0.0151582,1.86661,5,0.1,8,0,0.170839,-3.08316,0.529595,0,0,0,0,0,0,0.00961933,3.51219,5,0.1,9,0,4.04854,-5.02257,0.651464,0,0,0,0,0,0,0.0319168,3.5122,5,0.1,10,0,4.49347,1.66454,0.575716,0,0,0,0,0,0,0.0143106,3.53165,5,0.1,11,0,0.00916958,-1.39909,0.685964,0,0,0,0,0,0,0.0117216,3.51219,5,0.1,12,0,-3.52806,2.27315,0.539524,0,0,0,0,0,0,0.0140186,3.5122,5,0.1,13,0,-1.87099,4.82904,0.560769,0,0,0,0,0,0,0.0260883,3.51219,5,0.1,14,0,1.09365,1.88705,0.548204,0,0,0,0,0,0,0.0307187,1.02314,5,0.1,15,0,-4.81099,-3.13355,0.573082,0,0,0,0,0,0,0.031684,3.5122,5,0.1,16,0,-0.236924,-0.24947,0.611994,0,0,0,0,0,0,0.0153931,3.5122,5,0.1,17,0,-1.64211,2.20002,0.625155,0,0,0,0,0,0,0.0325373,1.42022,5,0.1,18,0,-3.75028,-3.70367,0.584016,0,0,0,0,0,0,0.0102483,0.662979,5,0.1,19,0,0.206649,-3.88877,0.615339,0,0,0,0,0,0,0.0145158,3.51219,5,0.1,20,0,-0.0692501,2.33657,0.516441,0,0,0,0,0,0,0.018461,3.51219,5,0.1,21,0,0.814067,-3.42561,0.660884,0,0,0,0,0,0,0.0137065,2.12808,5,0.1,22,0,-0.83148,-0.259772,0.500451,0,0,0,0,0,0,0.0274449,3.51225,5,0.1,23,0,-0.851944,-1.73619,0.54469,0,0,0,0,0,0,0.0427628,3.5122,5,0.1,24,0,-4.7205,-5.81522,0.61551,0,0,0,0,0,0,0.00900638,3.07335,5,0.1,25,0,-1.8205,-5.61198,0.560931,0,0,0,0,0,0,0.0203292,3.51219,5,0.1,26,0,-0.469307,4.44931,0.556138,0,0,0,0,0,0,0.00994537,3.51219,5,0.1,27,0,5.61947,0.996832,0.508844,0,0,0,0,0,0,0.0139659,2.40188,5,0.1,28,0,2.31406,-2.26904,0.636821,0,0,0,0,0,0,0.0341522,2.06752,5,0.1,29,0,5.05734,1.31178,0.673055,0,0,0,0,0,0,0.0255965,1.83522,5,0.1
0,0.1,-5.5268,-1.18342,0.52637,0.0126608,-0.0271903,0.00218423,0.225097,-0.483386,0.0388362,0.00886034,0.904257,5,0.1,1,0.1,-4.58398,-2.33742,0.653423,0.0590645,-0.00476688,-0.00119805,1.05003,-0.0847578,-0.0212938,0.0128366,3.5122,5,0.1,2,0.1,-3.44978,4.25173,0.643737,0.0589285,-0.00628307,-0.000781007,1.04763,-0.111669,-0.0138879,0.0279117,3.5122,5,0.1,3,0.1,1.26473,5.38135,0.548045,-0.0019202,-0.0305943,0.02379,-0.034146,-0.543922,0.422936,0.0139994,1.5055,5,0.1,4,0.1,0.60315,2.27787,0.673661,0.0444043,-0.0230756,-0.00218526,0.789411,-0.410244,-0.0388473,0.0258702,2.50861,5,0.1,5,0.1,0.633909,-0.626077,0.602287,-0.0143551,0.0541708,-6.7614e-05,-0.255201,0.96304,-0.00120699,0.013248,3.14007,5,0.1,6,0.1,1.94169,1.7823,0.603207,-0.0309018,-0.00392459,-9.52743e-05,-0.549369,-0.0697672,-0.00168756,0.0331827,0.970183,5,0.1,7,0.1,1.78967,-3.55144,0.53594,-0.026392,0.0341572,0.00190046,-0.469185,0.607222,0.0337809,0.0151582,1.86661,5,0.1,8,0.1,0.172892,-3.08278,0.529636,0.0582805,0.0107132,0.00115708,1.0361,0.190467,0.0205711,0.00961933,3.51219,5,0.1,9,0.1,4.0486,-5.02048,0.651443,0.0017345,0.0592396,-0.000589527,0.0308156,1.05315,-0.0104755,0.0319168,3.5122,5,0.1,10,0.1,4.49181,1.66479,0.575737,-0.0470132,0.00701826,0.000597071,-0.835776,0.124775,0.0106134,0.0143106,3.53165,5,0.1,11,0.1,0.00948114,-1.40116,0.685943,0.00884449,-0.0586014,-0.000593718,0.157235,-1.0418,-0.0105537,0.0117216,3.51219,5,0.1,12,0.1,-3.52599,2.2729,0.539548,0.0588395,-0.00708066,0.000687409,1.04603,-0.12587,0.0122152,0.0140186,3.5122,5,0.1,13,0.1,-1.87294,4.8283,0.560702,-0.055363,-0.0210732,-0.00189934,-0.984222,-0.374615,-0.033766,0.0260883,3.51219,5,0.1,14,0.1,1.0947,1.88665,0.548258,0.0298223,-0.0114702,0.0015351,0.530176,-0.203907,0.0272878,0.0307187,1.02314,5,0.1,15,0.1,-4.80894,-3.13314,0.573101,0.0580706,0.0118449,0.000546407,1.03238,0.210553,0.00971183,0.031684,3.5122,5,0.1,16,0.1,-0.236195,-0.247513,0.611985,0.0206885,0.0555396,-0.000251364,0.367795,0.987372,-0.00446662,0.0153931,3.5122,5,0.1,17,0.1,-1.64274,2.19914,0.625911,-0.0180144,-0.0251893,0.0214802,-0.320256,-0.447825,0.381872,0.0325373,1.42022,5,0.1,18,0.1,-3.74973,-3.70295,0.584025,0.0156231,0.0204671,0.000248197,0.277758,0.363871,0.00441447,0.0102483,0.662979,5,0.1,19,0.1,0.206556,-3.88669,0.615453,-0.00265597,0.0591204,0.003237,-0.0472171,1.05101,0.0575446,0.0145158,3.51219,5,0.1,20,0.1,-0.0688678,2.33452,0.516392,0.0108542,-0.058249,-0.00138879,0.192964,-1.03556,-0.0246912,0.018461,3.51219,5,0.1,21,0.1,0.813218,-3.42422,0.660821,-0.0241243,0.0392832,-0.00180425,-0.428874,0.698388,-0.032071,0.0137065,2.12808,5,0.1,22,0.1,-0.830113,-0.261351,0.500448,0.0387849,-0.0448096,-0.000109803,0.689514,-0.796614,-0.00194833,0.0274449,3.51225,5,0.1,23,0.1,-0.852294,-1.7343,0.545498,-0.00991654,0.0537395,0.0229442,-0.176296,0.955373,0.407897,0.0427628,3.5122,5,0.1,24,0.1,-4.71854,-5.81526,0.615494,0.0554308,-0.00103042,-0.000459608,0.985444,-0.0183284,-0.00816956,0.00900638,3.07335,5,0.1,25,0.1,-1.82055,-5.60991,0.561214,-0.00131931,0.0587061,0.00803946,-0.0234619,1.04368,0.142928,0.0203292,3.51219,5,0.1,26,0.1,-0.471159,4.45028,0.556118,-0.0525689,0.0273652,-0.000579003,-0.93456,0.486523,-0.010293,0.00994537,3.51219,5,0.1,27,0.1,5.61798,0.995948,0.508783,-0.0420637,-0.025095,-0.00174381,-0.74783,-0.446133,-0.0310019,0.0139659,2.40188,5,0.1,28,0.1,2.31384,-2.26746,0.636783,-0.00634342,0.0450153,-0.00109114,-0.112772,0.800267,-0.0193939,0.0341522,2.06752,5,0.1,29,0.1,5.05645,1.31057,0.672979,-0.0254065,-0.0344282,-0.00216505,-0.451684,-0.612058,-0.038486,0.0255965,1.83522,5,0.1
0,0.2,-5.52423,-1.18894,0.526814,0.0400186,-0.085935,0.00690222,0.299931,-0.644505,0.0517964,0.00942665,0.741902,5,0.1,1,0.2,-4.57198,-2.33838,0.65318,0.18667,-0.0150621,-0.00378639,1.40023,-0.11313,-0.0284016,0.0123558,2.92577,5,0.1,2,0.2,-3.43781,4.25045,0.643578,0.186247,-0.0198483,-0.00246912,1.39689,-0.149012,-0.0185072,0.030585,2.92578,5,0.1,3,0.2,1.26434,5.37514,0.552877,-0.00606775,-0.0967026,0.0751883,-0.0455379,-0.725031,0.56392,0.0138812,1.23519,5,0.1,4,0.2,0.61217,2.27318,0.673217,0.140339,-0.0729322,-0.00690669,1.05253,-0.546932,-0.0517666,0.027684,2.05819,5,0.1,5,0.2,0.630993,-0.615073,0.602273,-0.0453696,0.171207,-0.000214577,-0.340283,1.28403,-0.00160933,0.0154866,2.57627,5,0.1,6,0.2,1.93541,1.7815,0.603188,-0.0976652,-0.0124037,-0.000301003,-0.732481,-0.0930429,-0.00226498,0.0373894,0.795986,5,0.1,7,0.2,1.78431,-3.5445,0.536326,-0.0834107,0.107956,0.00600666,-0.62567,0.809669,0.0450313,0.0153766,1.53145,5,0.1,8,0.2,0.184731,-3.0806,0.529871,0.184195,0.0338614,0.00365525,1.38147,0.253797,0.0274777,0.0128768,2.94143,5,0.1,9,0.2,4.04895,-5.00845,0.651324,0.00548363,0.18723,-0.00186265,0.041008,1.40405,-0.0139773,0.0304814,2.92581,5,0.1,10,0.2,4.48226,1.66621,0.575859,-0.148582,0.0221848,0.00188649,-1.11437,0.166297,0.0141561,0.0140664,3.3505,5,0.1,11,0.2,0.0112777,-1.41306,0.685823,0.027953,-0.185212,-0.00187606,0.209647,-1.38903,-0.0140667,0.0106265,2.9258,5,0.1,12,0.2,-3.51404,2.27146,0.539688,0.185961,-0.0223815,0.00217259,1.39475,-0.167727,0.0162721,0.0185176,2.92579,5,0.1,13,0.2,-1.88418,4.82402,0.560316,-0.174975,-0.0666022,-0.00600219,-1.31232,-0.499487,-0.0450015,0.026034,2.92579,5,0.1,14,0.2,1.10076,1.88432,0.54857,0.0942528,-0.0362486,0.00485182,0.706911,-0.271976,0.0363588,0.0301642,0.83943,5,0.1,15,0.2,-4.79714,-3.13073,0.573212,0.183535,0.0374377,0.00172704,1.37639,0.280619,0.0129342,0.0374064,2.9258,5,0.1,16,0.2,-0.231993,-0.236232,0.611934,0.0653856,0.175533,-0.000795722,0.490397,1.3165,-0.00593066,0.0119256,2.94844,5,0.1,17,0.2,-1.6464,2.19402,0.630275,-0.0569344,-0.0796139,0.0678882,-0.427008,-0.597,0.509173,0.0333852,1.16522,5,0.1,18,0.2,-3.74656,-3.69879,0.584075,0.0493765,0.0646889,0.000783801,0.370383,0.485182,0.00590086,0.0109295,0.543939,5,0.1,19,0.2,0.206016,-3.87468,0.61611,-0.0083942,0.186849,0.0102311,-0.0629574,1.40142,0.0767112,0.0120057,2.92675,5,0.1,20,0.2,-0.066663,2.32269,0.51611,0.0343047,-0.184095,-0.00438988,0.25728,-1.3808,-0.0329018,0.0165275,2.92579,5,0.1,21,0.2,0.808317,-3.41624,0.660454,-0.0762433,0.124151,-0.00570267,-0.571877,0.931263,-0.0427663,0.0155118,1.76662,5,0.1,22,0.2,-0.822235,-0.270453,0.500425,0.12258,-0.141621,-0.000345707,0.919342,-1.06214,-0.0026226,0.0297362,2.92594,5,0.1,23,0.2,-0.854308,-1.72338,0.550158,-0.0313416,0.169843,0.072515,-0.235051,1.27387,0.543863,0.0383669,2.92579,5,0.1,24,0.2,-4.70728,-5.81547,0.6154,0.17519,-0.00325441,-0.00145286,1.31369,-0.0245571,-0.0108778,0.00866106,2.52156,5,0.1,25,0.2,-1.82082,-5.59799,0.562847,-0.00416934,0.185537,0.025408,-0.0312924,1.39165,0.190586,0.0236517,2.92578,5,0.1,26,0.2,-0.481837,4.45584,0.556,-0.166143,0.0864983,-0.00182986,-1.24608,0.648499,-0.0137091,0.0160254,2.9258,5,0.1,27,0.2,5.60944,0.990851,0.508428,-0.132942,-0.0793129,-0.00551194,-0.997066,-0.594854,-0.041306,0.0198607,1.97077,5,0.1,28,0.2,2.31255,-2.25831,0.636561,-0.020051,0.14227,-0.00344962,-0.150323,1.06716,-0.0258386,0.0347184,1.72231,5,0.1,29,0.2,5.05129,1.30358,0.672539,-0.0802994,-0.108811,-0.00684261,-0.602007,-0.816047,-0.0513196,0.0288634,1.50572,5,0.1
0,0.3,-5.51857,-1.20112,0.527792,0.0744291,-0.159867,0.0128431,0.367135,-0.788666,0.0633672,0.00942665,0.741902,5,0.1,1,0.3,-4.54553,-2.34052,0.652643,0.347702,-0.0280686,-0.00705263,1.72073,-0.138968,-0.0349022,0.0123558,2.92577,5,0.1,2,0.3,-3.41142,4.24764,0.643228,0.3469,-0.0369824,-0.00459785,1.71672,-0.183076,-0.0227503,0.030585,2.92578,5,0.1,3,0.3,1.26348,5.36145,0.563526,-0.0112906,-0.179879,0.139876,-0.0557154,-0.887305,0.69005,0.0138812,1.23519,5,0.1,4,0.3,0.632046,2.26285,0.672239,0.261076,-0.135672,-0.0128459,1.28797,-0.669286,-0.0633672,0.027684,2.05819,5,0.1,5,0.3,0.624567,-0.590825,0.602243,-0.0844034,0.3185,-0.000399258,-0.416387,1.57125,-0.00197068,0.0154866,2.57627,5,0.1,6,0.3,1.92158,1.77975,0.603145,-0.181689,-0.0230765,-0.000560377,-0.89632,-0.113837,-0.00276789,0.0373894,0.795986,5,0.1,7,0.3,1.77249,-3.52921,0.537177,-0.155179,0.200834,0.0111727,-0.76557,0.990763,0.0551119,0.0153766,1.53145,5,0.1,8,0.3,0.210533,-3.07558,0.53036,0.33457,0.0693452,0.00598058,1.54657,0.423804,0.0189245,0.0128768,2.94143,5,0.1,9,0.3,4.04973,-4.98191,0.65106,0.0102043,0.348714,-0.00347001,0.0504851,1.72561,-0.0171773,0.0304814,2.92581,5,0.1,10,0.3,4.46257,1.66935,0.576126,-0.238101,0.0413047,0.00351388,-0.684321,0.204273,0.0173822,0.0140664,3.3505,5,0.1,11,0.3,0.0152389,-1.43931,0.685557,0.0520643,-0.344965,-0.00349395,0.257651,-1.70711,-0.0172928,0.0106265,2.9258,5,0.1,12,0.3,-3.48768,2.26829,0.539996,0.346369,-0.0416752,0.00404455,1.7141,-0.206217,0.0200048,0.0185176,2.92579,5,0.1,13,0.3,-1.90898,4.81458,0.559466,-0.325903,-0.124048,-0.0111782,-1.6128,-0.613868,-0.0553168,0.026034,2.92579,5,0.1,14,0.3,1.1141,1.87918,0.549257,0.175343,-0.0674438,0.00902358,0.86502,-0.332758,0.0445098,0.0301642,0.83943,5,0.1,15,0.3,-4.77114,-3.12543,0.573457,0.341833,0.0697166,0.00321511,1.69161,0.344962,0.015907,0.0374064,2.9258,5,0.1,16,0.3,-0.222727,-0.211821,0.611822,0.121786,0.313773,-0.00147903,0.602683,1.38431,-0.00730529,0.0119256,2.94844,5,0.1,17,0.3,-1.65447,2.18274,0.63989,-0.105917,-0.1481,0.126295,-0.522517,-0.730574,0.623055,0.0333852,1.16522,5,0.1,18,0.3,-3.73956,-3.68963,0.584186,0.0918623,0.120344,0.00146022,0.453189,0.593707,0.00721589,0.0109295,0.543939,5,0.1,19,0.3,0.204802,-3.8482,0.617456,-0.0163421,0.348075,0.0161122,-0.0899462,1.7232,0.0419803,0.0120057,2.92675,5,0.1,20,0.3,-0.0618017,2.2966,0.515488,0.0638944,-0.342896,-0.0081745,0.316194,-1.69693,-0.0404455,0.0165275,2.92579,5,0.1,21,0.3,0.797863,-3.39891,0.65968,-0.132069,0.223746,-0.00965158,-0.526015,1.01101,-0.0353195,0.0155118,1.76662,5,0.1,22,0.3,-0.804864,-0.290522,0.500379,0.228313,-0.263777,-0.000556465,1.12985,-1.30535,-0.00161305,0.0297362,2.92594,5,0.1,23,0.3,-0.858749,-1.69931,0.560434,-0.0583748,0.316348,0.135064,-0.288878,1.56554,0.668395,0.0383669,2.92579,5,0.1,24,0.3,-4.68247,-5.81593,0.615194,0.325892,-0.00606626,-0.0027013,1.60763,-0.0299811,-0.0133179,0.00866106,2.52156,5,0.1,25,0.3,-1.82141,-5.5717,0.566448,-0.0077676,0.345585,0.0473262,-0.038445,1.71024,0.234213,0.0236517,2.92578,5,0.1,26,0.3,-0.505381,4.46809,0.555741,-0.309454,0.161088,-0.00340706,-1.5314,0.797093,-0.0168569,0.0160254,2.9258,5,0.1,27,0.3,5.59061,0.979618,0.507683,-0.247317,-0.147549,-0.00924552,-1.22014,-0.727907,-0.032682,0.0198607,1.97077,5,0.1,28,0.3,2.30971,-2.23866,0.636073,-0.0372961,0.250562,-0.00641448,-0.18397,1.05532,-0.0316389,0.0347184,1.72231,5,0.1,29,0.3,5.03991,1.28816,0.67157,-0.149363,-0.202422,-0.0127295,-0.736773,-0.998601,-0.0628009,0.0288634,1.50572,5,0.1
0,0.4,-5.50932,-1.22098,0.529387,0.109768,-0.235769,0.0189409,0.324011,-0.695765,0.0559092,0.00934361,1.288,5,0.1,1,0.4,-4.5023,-2.34401,0.651766,0.513482,-0.0414491,-0.0104144,1.52159,-0.122905,-0.0308752,0.0141174,2.51491,5,0.1,2,0.4,-3.36829,4.24304,0.642657,0.512302,-0.0546098,-0.00679046,1.51777,-0.162125,-0.0200868,0.0233771,2.51446,5,0.1,3,0.4,1.26208,5.3391,0.580903,-0.0166506,-0.265276,0.206286,-0.0492334,-0.782728,0.608772,0.0164764,0.977306,5,0.1,4,0.4,0.664479,2.246,0.670643,0.38503,-0.200087,-0.0189453,1.13627,-0.590444,-0.0558794,0.032107,1.63572,5,0.1,5,0.4,0.614082,-0.551258,0.602193,-0.124477,0.469716,-0.000588596,-0.367314,1.3862,-0.00172853,0.0147268,2.42714,5,0.1,6,0.4,1.89901,1.77688,0.603075,-0.267953,-0.0340343,-0.000825524,-0.790715,-0.100374,-0.00247359,0.0331563,0.63033,5,0.1,7,0.4,1.75322,-3.50426,0.538565,-0.228855,0.296181,0.0164777,-0.67544,0.874162,0.0486076,0.0148385,1.2117,5,0.1,8,0.4,0.251458,-3.06647,0.531038,0.47977,0.112998,0.00743121,1.29953,0.424981,0.0100732,0.016768,2.58758,5,0.1,9,0.4,4.05099,-4.93856,0.650628,0.0150681,0.514972,-0.00512451,0.0445843,1.52588,-0.0151694,0.0304728,2.51558,5,0.1,10,0.4,4.43599,1.67449,0.576563,-0.287211,0.0609815,0.00518709,-0.306845,0.180602,0.0154078,0.0144286,3.40613,5,0.1,11,0.4,0.0217117,-1.4822,0.685122,0.0768884,-0.509441,-0.00516027,0.227809,-1.50943,-0.0152588,0.0119659,2.52413,5,0.1,12,0.4,-3.44462,2.26311,0.540498,0.511515,-0.0615478,0.00597388,1.51563,-0.182271,0.017643,0.0152223,2.51762,5,0.1,13,0.4,-1.94949,4.79916,0.558076,-0.481293,-0.183201,-0.0165075,-1.42598,-0.542402,-0.0489354,0.0298154,2.51008,5,0.1,14,0.4,1.13589,1.87081,0.550378,0.258592,-0.0994653,0.0133067,0.763178,-0.293612,0.0392795,0.0289434,0.665171,5,0.1,15,0.4,-4.72864,-3.11676,0.573857,0.504827,0.102955,0.00474751,1.49536,0.305057,0.0140667,0.0320176,2.51209,5,0.1,16,0.4,-0.207586,-0.173844,0.611638,0.179853,0.441375,-0.00218302,0.53288,1.12156,-0.0064671,0.0114016,2.85747,5,0.1,17,0.4,-1.66762,2.16435,0.655579,-0.156206,-0.218415,0.186257,-0.460923,-0.644445,0.549674,0.0345785,0.92194,5,0.1,18,0.4,-3.72815,-3.67468,0.584368,0.135475,0.177479,0.00215322,0.399828,0.523806,0.0063777,0.00944682,0.430369,5,0.1,19,0.4,0.202714,-3.80492,0.619228,-0.0253245,0.51412,0.018841,-0.085175,1.52409,0.0136197,0.0138002,2.51587,5,0.1,20,0.4,-0.0538581,2.25397,0.514472,0.094359,-0.506389,-0.0120729,0.279572,-1.50037,-0.035733,0.0160438,2.5125,5,0.1,21,0.4,0.782227,-3.37169,0.658557,-0.178298,0.317794,-0.0126198,-0.385642,0.833988,-0.023514,0.0145389,1.64942,5,0.1,22,0.4,-0.77648,-0.323315,0.500317,0.337172,-0.389545,-0.000672042,0.999004,-1.15417,-0.000685453,0.0310289,2.5103,5,0.1,23,0.4,-0.866007,-1.65998,0.577226,-0.0862077,0.467181,0.199462,-0.255406,1.38426,0.59095,0.0388679,2.49927,5,0.1,24,0.4,-4.64199,-5.81669,0.614859,0.480616,-0.00895262,-0.00398308,1.41835,-0.026226,-0.0117719,0.00888126,1.9951,5,0.1,25,0.4,-1.82237,-5.52873,0.572332,-0.0114709,0.510371,0.0698909,-0.0340343,1.51181,0.207096,0.0213044,2.51374,5,0.1,26,0.4,-0.543853,4.48812,0.555317,-0.456999,0.237882,-0.00503212,-1.35407,0.705004,-0.0149012,0.00906268,2.51008,5,0.1,27,0.4,5.55989,0.961288,0.506614,-0.364733,-0.217602,-0.0119388,-1.0767,-0.64218,-0.0207722,0.0131369,1.55978,5,0.1,28,0.4,2.30508,-2.20864,0.635276,-0.0550032,0.345904,-0.00945926,-0.162244,0.820756,-0.027895,0.0334496,1.24041,5,0.1,29,0.4,5.02136,1.26302,0.669989,-0.220287,-0.298527,-0.0187725,-0.649691,-0.880957,-0.0554025,0.0262633,1.19135,5,0.1
0,0.5,-5.49638,-1.24841,0.531566,0.151534,-0.315253,0.0246129,0.475436,-0.839509,0.0547506,0.00934361,1.288,5,0.1,1,0.5,-4.44335,-2.34879,0.650566,0.663641,-0.0540931,-0.0135911,1.41305,-0.123456,-0.0310279,0.0141174,2.51491,5,0.1,2,0.5,-3.30947,4.23675,0.641874,0.662396,-0.0712834,-0.00885818,1.41515,-0.16281,-0.0201985,0.0233771,2.51446,5,0.1,3,0.5,1.26017,5.30859,0.604631,-0.0216436,-0.344696,0.268052,-0.0481904,-0.766724,0.596251,0.0164764,0.977306,5,0.1,4,0.5,0.708568,2.22314,0.668476,0.494668,-0.255498,-0.0242556,1.01248,-0.498384,-0.0483394,0.032107,1.63572,5,0.1,5,0.5,0.599764,-0.497072,0.602126,-0.161745,0.614805,-0.000764057,-0.359766,1.43671,-0.00169873,0.0147268,2.42714,5,0.1,6,0.5,1.86825,1.77296,0.602982,-0.346228,-0.0444574,-0.00102278,-0.739783,-0.102557,-0.00146776,0.0331563,0.63033,5,0.1,7,0.5,1.72689,-3.47019,0.54046,-0.297383,0.384871,0.0214098,-0.661507,0.856146,0.0476167,0.0148385,1.2117,5,0.1,8,0.5,0.306052,-3.05264,0.531774,0.611597,0.166561,0.00681207,1.27073,0.603229,-0.0194758,0.016768,2.58758,5,0.1,9,0.5,4.05273,-4.87946,0.650038,0.0196598,0.665184,-0.00668569,0.0448525,1.41034,-0.0152551,0.0304728,2.51558,5,0.1,10,0.5,4.40665,1.68151,0.57716,-0.291789,0.0794949,0.0067655,0.162542,0.180267,0.0153631,0.0144286,3.40613,5,0.1,11,0.5,0.030572,-1.54054,0.684528,0.100331,-0.654394,-0.00673132,0.228981,-1.33317,-0.0153519,0.0119659,2.52413,5,0.1,12,0.5,-3.38588,2.25615,0.541184,0.661597,-0.076396,0.00770614,1.41665,-0.113755,0.0162497,0.0152223,2.51762,5,0.1,13,0.5,-2.00496,4.77805,0.556173,-0.628031,-0.239024,-0.021543,-1.43334,-0.545323,-0.0491813,0.0298154,2.51008,5,0.1,14,0.5,1.16554,1.85938,0.551906,0.333351,-0.128926,0.0172201,0.69996,-0.281729,0.0371896,0.0289434,0.665171,5,0.1,15,0.5,-4.67061,-3.1049,0.574404,0.654607,0.134348,0.00619525,1.42872,0.306651,0.0141449,0.0320176,2.51209,5,0.1,16,0.5,-0.186862,-0.125464,0.611386,0.234666,0.513748,-0.00284864,0.535226,0.372781,-0.00650063,0.0114016,2.85747,5,0.1,17,0.5,-1.68559,2.13922,0.677004,-0.202972,-0.283804,0.242027,-0.45146,-0.631258,0.53836,0.0345785,0.92194,5,0.1,18,0.5,-3.71257,-3.65426,0.584615,0.17604,0.230623,0.00279984,0.391588,0.513002,0.00623986,0.00944682,0.430369,5,0.1,19,0.5,0.199737,-3.74591,0.621152,-0.0342963,0.664341,0.0193817,-0.0894368,1.41205,-0.00221655,0.0138002,2.51587,5,0.1,20,0.5,-0.0429846,2.19577,0.513081,0.123128,-0.656253,-0.0157511,0.281011,-1.42595,-0.0359342,0.0160438,2.5125,5,0.1,21,0.5,0.762868,-3.33669,0.657342,-0.205062,0.373046,-0.0102734,-0.155896,0.293329,0.0612885,0.0145389,1.64942,5,0.1,22,0.5,-0.737625,-0.368205,0.500248,0.439972,-0.508312,-0.000690203,1.00413,-1.1601,0.000264496,0.0310289,2.5103,5,0.1,23,0.5,-0.87594,-1.60615,0.60021,-0.112472,0.609522,0.26023,-0.256389,1.38952,0.593226,0.0388679,2.49927,5,0.1,24,0.5,-4.58671,-5.81771,0.614401,0.624525,-0.0116147,-0.00517741,1.38924,-0.0257194,-0.011526,0.00888126,1.9951,5,0.1,25,0.5,-1.82369,-5.47012,0.580386,-0.0149721,0.660373,0.0912011,-0.0341907,1.41859,0.208147,0.0213044,2.51374,5,0.1,26,0.5,-0.596516,4.51553,0.554737,-0.596337,0.310428,-0.00656573,-1.36102,0.70861,-0.0149868,0.00906268,2.51008,5,0.1,27,0.5,5.51793,0.936258,0.50535,-0.473967,-0.282757,-0.0130231,-1.05447,-0.628963,-0.00194833,0.0131369,1.55978,5,0.1,28,0.5,2.29875,-2.17099,0.634188,-0.0714667,0.397683,-0.0122901,-0.158936,0.250384,-0.0273362,0.0334496,1.24041,5,0.1,29,0.5,4.99602,1.22868,0.667829,-0.286216,-0.38791,-0.0243937,-0.636518,-0.862852,-0.0542589,0.0262633,1.19135,5,0.1
0,0.6,-5.47884,-1.284,0.53428,0.198591,-0.394261,0.0294179,0.438929,-0.70101,0.0393689,0.00819364,1.00563,5,0.1,1,0.6,-4.37055,-2.35477,0.649062,0.784779,-0.0650406,-0.0163406,0.965118,-0.0905991,-0.0228286,0.0100917,1.21761,5,0.1,2,0.6,-3.23678,4.22886,0.640894,0.78392,-0.0857115,-0.0106484,0.970483,-0.119686,-0.0149012,0.0302835,2.32932,5,0.1,3,0.6,1.25778,5.27057,0.634193,-0.0258714,-0.411987,0.320375,-0.0346303,-0.551462,0.428945,0.0149377,0.727593,5,0.1,4,0.6,0.762597,2.19538,0.665835,0.580126,-0.296533,-0.0282809,0.666708,-0.309587,-0.0308752,0.0250312,1.25943,5,0.1,5,0.6,0.581926,-0.428857,0.602041,-0.193317,0.743552,-0.000913441,-0.258774,1.08206,-0.00119209,0.0168466,1.88605,5,0.1,6,0.6,1.83025,1.76803,0.602874,-0.409976,-0.0536025,-0.00112057,-0.510871,-0.0763535,-0.000447035,0.0358843,0.273161,5,0.1,7,0.6,1.6941,-3.42775,0.542821,-0.355434,0.459999,0.0255898,-0.475764,0.615954,0.0342429,0.015314,0.90207,5,0.1,8,0.6,0.373071,-3.03296,0.53233,0.722631,0.226134,0.00406951,0.903412,0.556111,-0.033021,0.011174,2.32794,5,0.1,9,0.6,4.05491,-4.80653,0.649298,0.0236273,0.785828,-0.00803769,0.0333786,0.958681,-0.0112057,0.0289885,2.33456,5,0.1,10,0.6,4.37871,1.6903,0.577908,-0.263751,0.09543,0.00812262,0.360012,0.131845,0.0112355,0.0156221,3.45649,5,0.1,11,0.6,0.0416706,-1.61197,0.683783,0.120626,-0.76659,-0.00809282,0.168394,-0.872433,-0.0112653,0.0116296,2.59679,5,0.1,12,0.6,-3.31326,2.24806,0.542028,0.783378,-0.0841916,0.00909865,0.973582,-0.0420809,0.0110269,0.0183582,2.3311,5,0.1,13,0.6,-2.07443,4.75161,0.55379,-0.755072,-0.287366,-0.0259012,-1.05405,-0.40102,-0.0362098,0.024612,2.27207,5,0.1,14,0.6,1.20205,1.84519,0.553798,0.39317,-0.153455,0.0204399,0.474393,-0.19902,0.0259876,0.0270504,0.600782,5,0.1,15,0.6,-4.59859,-3.09003,0.575089,0.778615,0.161529,0.00744909,1.00327,0.225425,0.010401,0.032059,2.31545,5,0.1,16,0.6,-0.160905,-0.0731478,0.611071,0.282091,0.524306,-0.00342578,0.393376,-0.124764,-0.00473857,0.013341,2.88584,5,0.1,17,0.6,-1.70797,2.10792,0.703695,-0.242591,-0.339198,0.28927,-0.324786,-0.454187,0.387311,0.0340695,0.686371,5,0.1,18,0.6,-3.69315,-3.62883,0.584924,0.210404,0.275642,0.0033468,0.281692,0.369072,0.00447035,0.00817585,0.320396,5,0.1,19,0.6,0.195885,-3.67305,0.623057,-0.0423845,0.785267,0.0185147,-0.0688881,0.962019,-0.0145733,0.0110026,2.08118,5,0.1,20,0.6,-0.0293642,2.12361,0.511338,0.148035,-0.779742,-0.0189364,0.206656,-0.996351,-0.0264347,0.0181025,2.31844,5,0.1,21,0.6,0.741917,-3.29866,0.656698,-0.210758,0.380743,-0.00199825,0.0354648,-0.118852,0.0969768,0.0134178,1.37531,5,0.1,22,0.6,-0.688956,-0.424434,0.500182,0.52897,-0.611135,-0.000631809,0.738472,-0.853151,0.000864267,0.0325955,2.21949,5,0.1,23,0.6,-0.88838,-1.53873,0.628992,-0.135185,0.732619,0.312784,-0.188351,1.02073,0.43577,0.0388761,1.89099,5,0.1,24,0.6,-4.51783,-5.81899,0.61383,0.746441,-0.013876,-0.00618845,0.999451,-0.0185966,-0.00831485,0.0104185,1.5061,5,0.1,25,0.6,-1.82535,-5.3976,0.590474,-0.0180006,0.782537,0.10965,-0.0251532,0.979185,0.153065,0.0200311,2.32565,5,0.1,26,0.6,-0.662483,4.54987,0.554011,-0.716966,0.373232,-0.00789464,-1.00088,0.521183,-0.0110269,0.0147464,2.21602,5,0.1,27,0.6,5.46566,0.905075,0.504062,-0.566494,-0.337952,-0.0125214,-0.758648,-0.452459,0.0110567,0.0117812,1.17065,5,0.1,28,0.6,2.29087,-2.13067,0.632833,-0.0854194,0.402349,-0.0146896,-0.114202,-0.128746,-0.0196695,0.0348983,1.10467,5,0.1,29,0.6,4.96446,1.1859,0.665139,-0.342083,-0.463632,-0.0291556,-0.458002,-0.620663,-0.039041,0.0238521,0.886957,5,0.1
0,0.7,-5.45669,-1.32701,0.537416,0.244674,-0.465502,0.0331976,0.45532,-0.682048,0.0340641,0.00819364,1.00563,5,0.1,1,0.7,-4.28832,-2.36177,0.647304,0.849932,-0.0751559,-0.0188877,0.368088,-0.103697,-0.0260957,0.0100917,1.21761,5,0.1,2,0.7,-3.1546,4.21968,0.639754,0.849823,-0.0977181,-0.0121431,0.373155,-0.112861,-0.0140592,0.0302835,2.32932,5,0.1,3,0.7,1.25502,5.22666,0.668338,-0.0291953,-0.464934,0.361555,-0.0299439,-0.477195,0.371121,0.0149377,0.727593,5,0.1,4,0.7,0.823636,2.16441,0.662871,0.636943,-0.320308,-0.0307967,0.445552,-0.159383,-0.0185184,0.0250312,1.25943,5,0.1,5,0.7,0.561323,-0.349855,0.601944,-0.218161,0.828487,-0.00102837,-0.223901,0.603173,-0.00104308,0.0168466,1.88605,5,0.1,6,0.7,1.78761,1.76207,0.602787,-0.434529,-0.0672396,-0.000401493,-0.00538677,-0.178337,0.0131913,0.0358843,0.273161,5,0.1,7,0.7,1.65621,-3.37872,0.545548,-0.40111,0.519131,0.0288775,-0.411637,0.532895,0.029631,0.015314,0.90207,5,0.1,8,0.7,0.449559,-3.00794,0.532631,0.80323,0.27064,0.00247955,0.671305,0.331238,-0.00169128,0.011174,2.32794,5,0.1,9,0.7,4.05744,-4.72421,0.648438,0.0269711,0.850485,-0.00916272,0.0314116,0.3618,-0.0105873,0.0289885,2.33456,5,0.1,10,0.7,4.35455,1.7005,0.578777,-0.217346,0.108409,0.0092282,0.487298,0.119902,0.010211,0.0156221,3.45649,5,0.1,11,0.7,0.0545863,-1.69127,0.682917,0.137524,-0.803925,-0.00922438,0.158927,0.0608638,-0.0106469,0.0116296,2.59679,5,0.1,12,0.7,-3.23111,2.23941,0.542989,0.84963,-0.0888914,0.0100597,0.376463,-0.0459254,0.00777468,0.0183582,2.3311,5,0.1,13,0.7,-2.15434,4.72084,0.551017,-0.834344,-0.327627,-0.0295351,-0.529945,-0.378788,-0.0341795,0.024612,2.27207,5,0.1,14,0.7,1.24281,1.82897,0.555927,0.413409,-0.169543,0.0217046,-0.0410676,-0.11833,0.000569969,0.0270504,0.600782,5,0.1,15,0.7,-4.51676,-3.07274,0.575887,0.847977,0.184155,0.00849301,0.404775,0.212848,0.00982359,0.032059,2.31545,5,0.1,16,0.7,-0.130709,-0.0223167,0.610704,0.321389,0.485063,-0.00390019,0.368083,-0.564218,-0.004448,0.013341,2.88584,5,0.1,17,0.7,-1.73383,2.07177,0.734525,-0.273772,-0.382802,0.326453,-0.281006,-0.392988,0.33509,0.0340695,0.686371,5,0.1,18,0.7,-3.67073,-3.59945,0.585281,0.237447,0.311074,0.00377586,0.243708,0.319302,0.00386313,0.00817585,0.320396,5,0.1,19,0.7,0.191054,-3.59077,0.624795,-0.0562295,0.850239,0.0158942,-0.188546,0.365183,-0.0355653,0.0110026,2.08118,5,0.1,20,0.7,-0.0135137,2.04171,0.50935,0.168775,-0.848371,-0.0204667,0.195072,-0.398025,-0.00498816,0.0181025,2.31844,5,0.1,21,0.7,0.720554,-3.26142,0.656985,-0.220231,0.3621,0.00763992,-0.188425,-0.244007,0.0919662,0.0134178,1.37531,5,0.1,22,0.7,-0.632323,-0.489877,0.500123,0.602908,-0.69694,-0.000527035,0.693943,-0.808552,0.00118837,0.0325955,2.21949,5,0.1,23,0.7,-0.902829,-1.46097,0.662424,-0.153423,0.816144,0.354979,-0.165951,0.630803,0.383954,0.0388761,1.89099,5,0.1,24,0.7,-4.43886,-5.82047,0.61317,0.825765,-0.0156611,-0.00698632,0.573128,-0.0160933,-0.00718608,0.0104185,1.5061,5,0.1,25,0.7,-1.82728,-5.31551,0.602215,-0.0205245,0.849345,0.125013,-0.0237375,0.38138,0.144504,0.0200311,2.32565,5,0.1,26,0.7,-0.738758,4.58983,0.553166,-0.803459,0.42545,-0.00899946,-0.698242,0.490397,-0.0103824,0.0147464,2.21602,5,0.1,27,0.7,5.40528,0.869385,0.502882,-0.639323,-0.372109,-0.0109485,-0.656277,-0.228822,0.0195242,0.0117812,1.17065,5,0.1,28,0.7,2.28177,-2.09178,0.631267,-0.0963863,0.370185,-0.0165781,-0.0988692,-0.44854,-0.0170246,0.0348983,1.10467,5,0.1,29,0.7,4.928,1.13649,0.662032,-0.386056,-0.523219,-0.0329036,-0.396311,-0.537023,-0.0337735,0.0238521,0.886957,5,0.1
0,0.8,-5.43011,-1.37665,0.540882,0.284982,-0.523573,0.0358686,0.330925,-0.450313,0.0178516,0.00923655,0.74249,5,0.1,1,0.8,-4.20221,-2.36977,0.645293,0.86602,-0.0844061,-0.0212148,0.000238419,-0.0754595,-0.0190139,0.0133044,0.850668,5,0.1,2,0.8,-3.06849,4.20941,0.638477,0.866026,-0.107014,-0.0133008,0,-0.0677109,-0.00843406,0.0244175,2.26298,5,0.1,3,0.8,1.25197,5.17811,0.706096,-0.0315428,-0.502348,0.390652,-0.0157356,-0.250816,0.194877,0.0148973,0.513736,5,0.1,4,0.8,0.889033,2.13187,0.659725,0.665361,-0.32745,-0.0318423,0.108182,0.0197887,-0.00181794,0.019625,0.995291,5,0.1,5,0.8,0.53854,-0.264866,0.601837,-0.235717,0.862436,-0.00111014,-0.11757,0.0717866,-0.000536442,0.0160733,1.64251,5,0.1,6,0.8,1.74479,1.75441,0.602824,-0.415829,-0.0860989,0.00122488,0.356913,-0.185192,0.0181198,0.0384318,0.539804,5,0.1,7,0.8,1.61433,-3.3245,0.548564,-0.433382,0.56091,0.0312015,-0.216186,0.279784,0.0155568,0.0161417,0.636905,5,0.1,8,0.8,0.532633,-2.9796,0.532902,0.851761,0.29211,0.00320822,0.285298,0.0982285,0.0139475,0.0103055,2.2434,5,0.1,9,0.8,4.06027,-4.63808,0.647474,0.029552,0.86602,-0.0100344,0.0188351,0.000238419,-0.00634789,0.0287836,2.27117,5,0.1,10,0.8,4.33497,1.71187,0.579744,-0.178266,0.118092,0.0100508,0.255346,0.0684857,0.00587106,0.0154226,3.35167,5,0.1,11,0.8,0.0690462,-1.77026,0.681947,0.150609,-0.766036,-0.0101015,0.0953895,0.645578,-0.0063777,0.0108404,2.78692,5,0.1,12,0.8,-3.14501,2.23033,0.544025,0.866026,-0.0923514,0.0105828,0,-0.0191927,0.00244379,0.0177949,2.26836,5,0.1,13,0.8,-2.23959,4.68639,0.547911,-0.862932,-0.35882,-0.0323489,-0.0618696,-0.22769,-0.0205338,0.0218514,2.17708,5,0.1,14,0.8,1.28329,1.81159,0.558067,0.390315,-0.176448,0.0207931,-0.395834,-0.0174642,-0.017643,0.027222,0.55234,5,0.1,15,0.8,-4.43072,-3.05338,0.57678,0.866032,0.201684,0.00930279,-0.000238419,0.127792,0.00587106,0.032105,2.24083,5,0.1,16,0.8,-0.0969364,0.0232457,0.610295,0.351565,0.426398,-0.00426471,0.218522,-0.555594,-0.00268221,0.0122909,2.91143,5,0.1,17,0.8,-1.76242,2.0318,0.768617,-0.295803,-0.413615,0.352724,-0.147581,-0.206351,0.175983,0.0330055,0.484619,5,0.1,18,0.8,-3.64593,-3.56697,0.585675,0.256556,0.336105,0.00407994,0.127912,0.167727,0.00199676,0.00960649,0.226214,5,0.1,19,0.8,0.184423,-3.50466,0.626187,-0.0766668,0.86602,0.0118107,-0.205398,0.000119209,-0.0442564,0.00985778,0.939719,5,0.1,20,0.8,0.00423217,1.95565,0.507308,0.184836,-0.866026,-0.0200957,0.117106,0,0.0116527,0.0173727,2.28305,5,0.1,21,0.8,0.697466,-3.22657,0.658175,-0.242031,0.333643,0.0157639,-0.220001,-0.318289,0.0680089,0.00731699,0.75101,5,0.1,22,0.8,-0.568948,-0.563174,0.500077,0.659922,-0.76364,-0.000402331,0.414312,-0.487745,0.0012815,0.0285861,2.04241,5,0.1,23,0.8,-0.918894,-1.37695,0.699594,-0.16662,0.856861,0.385514,-0.0908673,0.183284,0.210255,0.0369807,1.38508,5,0.1,24,0.8,-4.35419,-5.82211,0.61244,0.860107,-0.0169158,-0.00755042,0.118494,-0.00858307,-0.00375509,0.00828846,1.10289,5,0.1,25,0.8,-1.82944,-5.22942,0.615359,-0.0224769,0.866032,0.136912,-0.0142455,-0.000238419,0.0867844,0.0206167,2.25712,5,0.1,26,0.8,-0.821912,4.63456,0.55222,-0.852467,0.465775,-0.00985265,-0.271171,0.293016,-0.00619888,0.00907093,1.65621,5,0.1,27,0.8,5.33852,0.831411,0.501893,-0.690782,-0.383566,-0.00877678,-0.344515,-0.000625849,0.0231862,0.0140406,0.870114,5,0.1,28,0.8,2.2717,-2.05711,0.629536,-0.104135,0.322992,-0.0179127,-0.0520945,-0.457644,-0.0089705,0.0358714,0.748092,5,0.1,29,0.8,4.88768,1.08185,0.658596,-0.417137,-0.565326,-0.0355512,-0.208139,-0.28193,-0.0177324,0.0268018,0.626259,5,0.1
0,0.9,-5.39996,-1.43123,0.544554,0.317439,-0.566844,0.0374868,0.29695,-0.382408,0.0127889,0.00923655,0.74249,5,0.1,1,0.9,-4.11562,-2.3786,0.643074,0.865395,-0.0920594,-0.0231418,-0.0252128,-0.0713766,-0.0179596,0.0133044,0.850668,5,0.1,2,0.9,-2.98189,4.19836,0.637103,0.866026,-0.113997,-0.0141706,0,-0.0647902,-0.00806898,0.0244175,2.26298,5,0.1,3,0.9,1.24874,5.12668,0.74609,-0.0329677,-0.525074,0.408311,-0.0112653,-0.179678,0.139587,0.0148973,0.513736,5,0.1,4,0.9,0.955832,2.0996,0.656561,0.667516,-0.314623,-0.0311426,-0.0774115,0.225842,0.0152551,0.019625,0.995291,5,0.1,5,0.9,0.514408,-0.179674,0.601723,-0.246371,0.828931,-0.00115931,-0.084227,-0.677528,-0.00038743,0.0160733,1.64251,5,0.1,6,0.9,1.70542,1.7447,0.603068,-0.367818,-0.109534,0.00390541,0.581592,-0.262894,0.0329092,0.0384318,0.539804,5,0.1,7,0.9,1.56996,-3.26708,0.551759,-0.452972,0.586262,0.0326115,-0.154845,0.200406,0.0111498,0.0161417,0.636905,5,0.1,8,0.9,0.618682,-2.95005,0.533321,0.865134,0.297449,0.00538789,0.0356585,0.00301003,0.0273138,0.0103055,2.2434,5,0.1,9,0.9,4.06333,-4.55148,0.646438,0.0314951,0.866026,-0.0106907,0.0180602,0,-0.00610203,0.0287836,2.27117,5,0.1,10,0.9,4.31809,1.72402,0.580779,-0.165553,0.124693,0.0106155,-0.103027,0.0568926,0.0048615,0.0154226,3.35167,5,0.1,11,0.9,0.0846024,-1.84259,0.680904,0.16044,-0.67308,-0.0107597,0.0911602,1.10272,-0.00610575,0.0108404,2.78692,5,0.1,12,0.9,-3.05841,2.22104,0.5451,0.866026,-0.0928964,0.010919,0,0.00976026,0.00355393,0.0177949,2.26836,5,0.1,13,0.9,-2.32608,4.64941,0.544564,-0.865832,-0.380089,-0.0346337,-0.0077337,-0.178546,-0.0226162,0.0218514,2.17708,5,0.1,14,0.9,1.31988,1.79399,0.560031,0.337321,-0.174054,0.018254,-0.637636,0.0640824,-0.0317059,0.027222,0.55234,5,0.1,15,0.9,-4.34412,-3.03254,0.577741,0.866023,0.214871,0.00990918,2.98023e-05,0.122383,0.00562891,0.032105,2.24083,5,0.1,16,0.9,-0.0606632,0.0631665,0.609855,0.373567,0.375942,-0.00453461,0.199298,-0.333964,-0.00244379,0.0122909,2.91143,5,0.1,17,0.9,-1.7927,1.98945,0.804729,-0.309176,-0.432314,0.36867,-0.105716,-0.14782,0.126053,0.0330055,0.484619,5,0.1,18,0.9,-3.61967,-3.53256,0.586093,0.268147,0.351302,0.00426108,0.0916123,0.120133,0.00143424,0.00960649,0.226214,5,0.1,19,0.9,0.175799,-3.41806,0.627135,-0.0949794,0.865471,0.00705337,-0.155946,-0.022158,-0.0492297,0.00985778,0.939719,5,0.1,20,0.9,0.0233242,1.86913,0.505384,0.196914,-0.862948,-0.0181567,0.112058,0.0851303,0.0258833,0.0173727,2.28305,5,0.1,21,0.9,0.673265,-3.19588,0.660369,-0.232322,0.270991,0.0303622,0.360686,-0.869647,0.203617,0.00731699,0.75101,5,0.1,22,0.9,-0.500806,-0.642089,0.500043,0.702557,-0.814421,-0.000278186,0.394503,-0.475455,0.00118092,0.0285861,2.04241,5,0.1,23,0.9,-0.935993,-1.2907,0.739155,-0.174952,0.865131,0.404793,-0.0674874,0.0100508,0.156157,0.0369807,1.38508,5,0.1,24,0.9,-4.26782,-5.82384,0.611667,0.865282,-0.0176907,-0.00789063,-0.000178814,-0.00613928,-0.00268593,0.00828846,1.10289,5,0.1,25,0.9,-1.83176,-5.14282,0.629502,-0.023949,0.866023,0.145882,-0.0136867,2.98023e-05,0.0834055,0.0206167,2.25712,5,0.1,26,0.9,-0.907986,4.68258,0.551204,-0.865001,0.493602,-0.0104416,-0.0268221,0.237703,-0.00502914,0.00907093,1.65621,5,0.1,27,0.9,5.26805,0.793651,0.501132,-0.714697,-0.366749,-0.00644336,-0.116885,0.294778,0.0229739,0.0140406,0.870114,5,0.1,28,0.9,2.26104,-2.02687,0.627702,-0.108856,0.283922,-0.0187255,-0.0373274,-0.331998,-0.00642613,0.0358714,0.748092,5,0.1,29,0.9,4.84498,1.02397,0.654956,-0.436001,-0.590875,-0.0371578,-0.149161,-0.201978,-0.0126995,0.0268018,0.626259,5,0.1
0,1,-5.36693,-1.4895,0.548347,0.340784,-0.594574,0.038141,0.155687,-0.150025,-0.000834465,0.0103801,0.555201,5,0.1,1,1,-4.02941,-2.38811,0.640682,0.855941,-0.0976205,-0.0245422,-0.201702,-0.0357628,-0.0089705,0.0110895,0.60009,5,0.1,2,1,-2.89528,4.18669,0.635653,0.866026,-0.118756,-0.0147641,0,-0.0255108,-0.00318885,0.0323102,2.26211,5,0.1,3,1,1.24541,5.07355,0.787403,-0.0335455,-0.534296,0.415461,0.00077486,0.0116825,-0.0089705,0.0126709,0.349358,5,0.1,4,1,1.02181,2.06953,0.653548,0.648004,-0.284362,-0.0289038,-0.319064,0.36931,0.0289083,0.0265087,1.31932,5,0.1,5,1,0.48948,-0.100971,0.601606,-0.250685,0.738382,-0.00117868,0.00540912,-1.08328,0,0.0143781,2.89855,5,0.1,6,1,1.67176,1.73244,0.60363,-0.303471,-0.1351,0.00735223,0.68754,-0.233114,0.0340343,0.00622098,0.561789,5,0.1,7,1,1.52413,-3.20776,0.555058,-0.460902,0.596523,0.0331834,0.00995398,-0.0128746,-0.000745058,0.0178539,0.671079,5,0.1,8,1,0.705267,-2.92048,0.534003,0.866026,0.291878,0.00826269,0,-0.117183,0.0283718,0.0130922,2.33896,5,0.1,9,1,4.06655,-4.46488,0.645343,0.0328183,0.866032,-0.0111401,0.00739098,-0.000238419,-0.00244379,0.0285997,2.27109,5,0.1,10,1,4.3,1.73671,0.581859,-0.205886,0.128359,0.0109285,-0.67234,0.0118613,0.00101328,0.0139733,3.00214,5,0.1,11,1,0.101028,-1.90433,0.679802,0.167136,-0.562876,-0.0112101,0.0357997,1.03831,-0.00238419,0.00943955,2.94873,5,0.1,12,1,-2.97181,2.21186,0.546206,0.866026,-0.0901878,0.0111684,0,0.0451803,0.000923872,0.0153014,2.26845,5,0.1,13,1,-2.41268,4.61071,0.541001,-0.866026,-0.391328,-0.0364393,0,-0.0333786,-0.0117421,0.0229087,2.1687,5,0.1,14,1,1.3502,1.77703,0.561684,0.267559,-0.163931,0.0147104,-0.736356,0.136495,-0.037998,0.0267891,0.540086,5,0.1,15,1,-4.25752,-3.01054,0.578755,0.866032,0.223869,0.0103235,-0.000238419,0.048399,0.00223517,0.0291831,2.23778,5,0.1,16,1,-0.0224906,0.1,0.609391,0.38768,0.369699,-0.00470728,0.0677228,0.190477,-0.000864267,0.0106268,2.75815,5,0.1,17,1,-1.82399,1.94571,0.842031,-0.31459,-0.439888,0.375126,0.00673532,0.00947714,-0.00810623,0.0308314,0.329561,5,0.1,18,1,-3.59254,-3.49701,0.586524,0.27284,0.357455,0.00433326,-0.00596046,-0.0077486,-8.9407e-05,0.00952378,0.153831,5,0.1,19,1,0.165636,-3.33181,0.627597,-0.107064,0.857151,0.00225753,-0.0827312,-0.177264,-0.0454485,0.0102286,0.671764,5,0.1,20,1,0.0434845,1.78356,0.503713,0.205153,-0.845,-0.0151485,0.0441539,0.290096,0.0332594,0.0204169,2.49995,5,0.1,21,1,0.65243,-3.17359,0.664509,-0.179549,0.171351,0.0528976,0.651658,-1.07169,0.231564,0.0145041,1.40199,5,0.1,22,1,-0.428905,-0.725536,0.500021,0.731405,-0.849861,-0.000169873,0.152185,-0.196993,0.000953674,0.0268594,1.96056,5,0.1,23,1,-0.953731,-1.20431,0.780198,-0.178739,0.860885,0.413555,-0.00274181,-0.102878,0.00634789,0.0391126,1.00381,5,0.1,24,1,-4.18146,-5.82563,0.610869,0.860035,-0.0180125,-0.00802726,-0.119448,0.000476837,0.000149012,0.00863222,0.806644,5,0.1,25,1,-1.83421,-5.05621,0.64444,-0.0249565,0.866032,0.152032,-0.00542402,-0.000238419,0.0331998,0.0248914,2.25556,5,0.1,26,1,-0.994462,4.73286,0.55014,-0.863199,0.509,-0.0107676,0.0566542,0.0526905,-0.00113249,0.00933461,1.2128,5,0.1,27,1,5.19649,0.758668,0.500598,-0.71156,-0.331394,-0.00426769,0.189304,0.386655,0.0201464,0.0119472,0.662331,5,0.1,28,1,2.25003,-2,0.625807,-0.110769,0.254697,-0.0190556,0.00226498,-0.263214,0.000417233,0.0319336,0.732645,5,0.1,29,1,4.80086,0.964184,0.651196,-0.443649,-0.60122,-0.0378087,0.00953674,0.012964,0.000834465,0.0216488,0.425895,5,0.1
0,1.1,-5.33263,-1.54967,0.552156,0.339857,-0.60788,0.0379732,-0.156939,-0.0899211,-0.00391901,0.0103801,0.555201,5,0.1,1,1.1,-3.94471,-2.39805,0.638183,0.838403,-0.101047,-0.0254015,-0.184551,-0.0278205,-0.00697374,0.0110895,0.60009,5,0.1,2,1.1,-2.80868,4.17466,0.634157,0.866026,-0.12183,-0.0151478,0,-0.0289977,-0.00361353,0.0323102,2.26211,5,0.1,3,1.1,1.24206,5.0202,0.828887,-0.0333935,-0.531943,0.41364,0.00348687,0.0548959,-0.0426546,0.0126709,0.349358,5,0.1,4,1.1,1.08538,2.04324,0.650823,0.625964,-0.239069,-0.0254042,-0.160731,0.518069,0.0400171,0.0265087,1.31932,5,0.1,5,1.1,0.464634,-0.0331768,0.601485,-0.244338,0.613495,-0.00126297,0.119032,-1.32802,-0.00144914,0.0143781,2.89855,5,0.1,6,1.1,1.64579,1.71807,0.604614,-0.208453,-0.149245,0.0129383,1.14462,-0.0569522,0.0713766,0.00622098,0.561789,5,0.1,7,1.1,1.47882,-3.14853,0.558397,-0.438691,0.584401,0.0337532,0.406258,-0.230283,0.00932813,0.0178539,0.671079,5,0.1,8,1.1,0.791776,-2.89127,0.534952,0.862481,0.297054,0.0105177,-0.099577,0.174597,0.0167601,0.0130922,2.33896,5,0.1,9,1.1,4.06988,-4.37827,0.644215,0.0337072,0.866023,-0.011437,0.00843406,2.98023e-05,-0.00282377,0.0285997,2.27109,5,0.1,10,1.1,4.27477,1.74961,0.582957,-0.30886,0.129513,0.0110265,-1.27736,0.00549108,0.000461936,0.0139733,3.00214,5,0.1,11,1.1,0.117952,-1.95563,0.678667,0.171405,-0.468605,-0.0114957,0.0398294,0.719182,-0.00266731,0.00943955,2.94873,5,0.1,12,1.1,-2.88521,2.20306,0.547331,0.866026,-0.0856642,0.0113557,0,0.047639,0.00210479,0.0153014,2.26845,5,0.1,13,1.1,-2.49928,4.57128,0.537294,-0.866026,-0.398047,-0.037679,0,-0.0758767,-0.0109859,0.0229087,2.1687,5,0.1,14,1.1,1.3733,1.76148,0.562958,0.194906,-0.145653,0.0107163,-0.704348,0.220582,-0.0407286,0.0267891,0.540086,5,0.1,15,1.1,-4.17092,-2.98787,0.579801,0.866023,0.229684,0.0105921,2.98023e-05,0.0547171,0.0025332,0.0291831,2.23778,5,0.1,16,1.1,0.0165766,0.139245,0.608915,0.392882,0.425758,-0.0048223,0.0212537,0.826699,-0.00114366,0.0106268,2.75815,5,0.1,17,1.1,-1.8554,1.90179,0.879487,-0.313216,-0.437962,0.373481,0.0322685,0.0451356,-0.0385195,0.0308314,0.329561,5,0.1,18,1.1,-3.56529,-3.46132,0.586956,0.271639,0.355884,0.00431472,-0.0280291,-0.0367463,-0.000435859,0.00952378,0.153831,5,0.1,19,1.1,0.154561,-3.24682,0.627596,-0.113885,0.843033,-0.00222595,-0.0497345,-0.143602,-0.0429861,0.0102286,0.671764,5,0.1,20,1.1,0.0642601,1.70148,0.502369,0.210446,-0.789143,-0.0116912,0.0496721,0.745662,0.0350662,0.0204169,2.49995,5,0.1,21,1.1,0.636842,-3.16017,0.670642,-0.14002,0.111669,0.0669058,0.182465,-0.200167,0.0592396,0.0145041,1.40199,5,0.1,22,1.1,-0.354841,-0.811302,0.500008,0.750368,-0.863194,-8.83825e-05,0.182977,-0.0622682,0.000674278,0.0268594,1.96056,5,0.1,23,1.1,-0.971611,-1.11852,0.821567,-0.1786,0.856079,0.413232,0.0122562,-0.0384524,-0.0283495,0.0391126,1.00381,5,0.1,24,1.1,-4.09584,-5.82743,0.610067,0.853286,-0.0179254,-0.00799401,-0.0595152,0.00193715,0.000808388,0.00863222,0.806644,5,0.1,25,1.1,-1.83674,-4.96961,0.659842,-0.0256199,0.866023,0.156087,-0.00634789,2.98023e-05,0.038784,0.0248914,2.25556,5,0.1,26,1.1,-1.08074,4.78401,0.549058,-0.863565,0.513192,-0.0108577,-0.0173263,0.0103414,-0.000230968,0.00933461,1.2128,5,0.1,27,1.1,5.12661,0.727564,0.500265,-0.682506,-0.291119,-0.00247182,0.393212,0.366684,0.0156052,0.0119472,0.662331,5,0.1,28,1.1,2.23896,-1.97598,0.623904,-0.110294,0.224417,-0.0189716,0.0112802,-0.334866,0.0019595,0.0319336,0.732645,5,0.1,29,1.1,4.75656,0.904153,0.647421,-0.44171,-0.598587,-0.0376415,0.0454485,0.0616871,0.00389665,0.0216488,0.425895,5,0.1
0,1.2,-5.29983,-1.61063,0.555919,0.312638,-0.608203,0.0371262,-0.371933,0.100791,-0.0139773,0.00779246,0.420203,5,0.1,1,1.2,-3.862,-2.40825,0.63562,0.813061,-0.102353,-0.0257298,-0.346661,0.00476837,0.0012815,0.00928777,0.412649,5,0.1,2,1.2,-2.72208,4.16237,0.63263,0.866026,-0.123358,-0.0153407,0,0.00286102,0.000417233,0.0285468,2.262,5,0.1,3,1.2,1.23875,4.96748,0.869881,-0.0326484,-0.520074,0.404412,0.0123978,0.195503,-0.151932,0.0129329,0.232313,5,0.1,4,1.2,1.14717,2.02204,0.648494,0.609139,-0.184071,-0.0210971,-0.203907,0.56684,0.0452995,0.0172147,1.06411,5,0.1,5,1.2,0.440965,0.0216753,0.601351,-0.227432,0.486287,-0.00142753,0.216067,-1.1675,-0.00163913,0.013912,3.15624,5,0.1,6,1.2,1.63096,1.70311,0.606283,-0.0866443,-0.147876,0.0205204,1.23894,0.0776052,0.0754297,0.0067804,0.346672,5,0.1,7,1.2,1.43744,-3.09161,0.561816,-0.384831,0.55061,0.0345647,0.647068,-0.443578,0.00485778,0.0163447,0.597102,5,0.1,8,1.2,0.877172,-2.86053,0.536068,0.841396,0.318712,0.0116304,-0.340641,0.223637,0.00557303,0.0116733,2.3517,5,0.1,9,1.2,4.07328,-4.29167,0.643061,0.0341773,0.866032,-0.0115946,-0.000715256,-0.000238419,0.000208616,0.0300667,2.27107,5,0.1,10,1.2,4.23724,1.76254,0.584058,-0.442088,0.128499,0.0109389,-1.30391,-0.0296235,-0.0025332,0.0129379,2.60061,5,0.1,11,1.2,0.135233,-2,0.677508,0.173453,-0.429845,-0.0116333,-0.00562519,0.0758171,0.00038743,0.00949469,2.81092,5,0.1,12,1.2,-2.7986,2.19475,0.548475,0.866026,-0.0802696,0.0114679,0,0.061512,-0.000327826,0.0177732,2.26775,5,0.1,13,1.2,-2.58588,4.53119,0.533486,-0.866026,-0.402224,-0.0382885,0,0.0100136,0.000208616,0.0199645,2.16684,5,0.1,14,1.2,1.3894,1.7481,0.563829,0.128782,-0.121343,0.00676662,-0.609577,0.258744,-0.0374615,0.0254617,0.4838,5,0.1,15,1.2,-4.08431,-2.96471,0.580869,0.866032,0.232583,0.0107259,-0.000238419,-0.00607967,-0.000238419,0.0325723,2.23747,5,0.1,16,1.2,0.0557941,0.186299,0.608428,0.38944,0.516758,-0.00488609,-0.0999224,0.914485,2.98023e-05,0.0131177,2.4739,5,0.1,17,1.2,-1.88644,1.85838,0.916501,-0.306234,-0.428197,0.365147,0.115097,0.160873,-0.13715,0.0262132,0.219141,5,0.1,18,1.2,-3.53837,-3.42605,0.587384,0.265574,0.347942,0.00421852,-0.0997782,-0.130653,-0.00157952,0.0111545,0.10229,5,0.1,19,1.2,0.143004,-3.16344,0.627171,-0.116372,0.82193,-0.00613034,0.00240654,-0.304937,-0.0342429,0.0129313,2.34883,5,0.1,20,1.2,0.0854816,1.62653,0.501373,0.213049,-0.708607,-0.0082776,-0.00596762,0.819087,0.0326335,0.021821,2.71669,5,0.1,21,1.2,0.623274,-3.14909,0.677418,-0.135247,0.117242,0.0667095,-0.0524521,0.249386,-0.054121,0.0152035,2.30881,5,0.1,22,1.2,-0.279134,-0.897687,0.500002,0.760518,-0.862138,-3.42727e-05,-0.0107133,0.0777245,0.000417233,0.0241928,1.94884,5,0.1,23,1.2,-0.98934,-1.0333,0.862588,-0.175175,0.845516,0.405309,0.0606477,-0.204384,-0.140339,0.0350797,0.705416,5,0.1,24,1.2,-4.01101,-5.82921,0.609275,0.840664,-0.0175238,-0.00781566,-0.223637,0.00667572,0.00292063,0.00923909,1.04974,5,0.1,25,1.2,-1.83932,-4.88301,0.675592,-0.0259727,0.866032,0.15824,0.000417233,-0.000238419,-0.00199676,0.0214756,2.25518,5,0.1,26,1.2,-1.16699,4.83517,0.547976,-0.858811,0.507617,-0.0107408,0.144303,-0.135899,0.00286102,0.00980929,0.861315,5,0.1,27,1.2,5.06067,0.7,0.500088,-0.63293,-0.263098,-0.00116527,0.596523,0.195473,0.0104904,0.0113041,0.520991,5,0.1,28,1.2,2.22803,-1.95528,0.622024,-0.107843,0.189084,-0.018549,0.0405312,-0.365555,0.00700355,0.0298146,0.995131,5,0.1,29,1.2,4.71279,0.844829,0.643691,-0.431871,-0.585236,-0.0367999,0.162363,0.219822,0.0137985,0.0223895,0.283207,5,0.1
0,1.3,-5.27071,-1.67095,0.559563,0.267328,-0.597638,0.0357454,-0.51719,0.131838,-0.0148006,0.00779246,0.420203,5,0.1,1,1.3,-3.78232,-2.41846,0.633053,0.781014,-0.101797,-0.025583,-0.323251,0.0103265,0.00265613,0.00928777,0.412649,5,0.1,2,1.3,-2.63548,4.15002,0.631094,0.866026,-0.123865,-0.0153992,0,-0.00610948,-0.000730157,0.0285468,2.262,5,0.1,3,1.3,1.23554,4.91643,0.909579,-0.0314252,-0.500752,0.389393,0.0130758,0.207126,-0.161018,0.0129329,0.232313,5,0.1,4,1.3,1.20762,2.00607,0.646579,0.60399,-0.138954,-0.0174811,0.0479147,0.350386,0.0284612,0.0172147,1.06411,5,0.1,5,1.3,0.418869,0.0650255,0.601047,-0.218044,0.386287,-0.0059302,0.00148825,-0.834187,-0.0786595,0.013912,3.15624,5,0.1,6,1.3,1.62856,1.68875,0.608772,0.0385493,-0.138671,0.0296761,1.22543,0.10705,0.10075,0.0067804,0.346672,5,0.1,7,1.3,1.40221,-3.03927,0.565325,-0.31969,0.491522,0.0357913,0.650197,-0.714421,0.0164136,0.0163447,0.597102,5,0.1,8,1.3,0.960258,-2.82715,0.537251,0.825251,0.351566,0.0119464,-0.0438131,0.384822,0.000834465,0.0116733,2.3517,5,0.1,9,1.3,4.0767,-4.20507,0.641899,0.0343464,0.866023,-0.0116562,0.00217557,2.98023e-05,-0.000771135,0.0300667,2.27107,5,0.1,10,1.3,4.18603,1.77526,0.585141,-0.584596,0.125849,0.0107121,-1.45862,-0.0285432,-0.00244379,0.0129379,2.60061,5,0.1,11,1.3,0.152591,-2.0441,0.676344,0.173891,-0.464168,-0.0116624,0.00502542,-0.653431,-0.000335276,0.00949469,2.81092,5,0.1,12,1.3,-2.712,2.18694,0.54962,0.866026,-0.076915,0.011416,0,0.0131875,-0.00113994,0.0177732,2.26775,5,0.1,13,1.3,-2.67248,4.49088,0.52965,-0.866026,-0.404792,-0.0384774,0,-0.0367761,-0.00190735,0.0199645,2.16684,5,0.1,14,1.3,1.39994,1.73706,0.56436,0.0883462,-0.101379,0.00420809,-0.230543,0.150457,-0.0154302,0.0254617,0.4838,5,0.1,15,1.3,-3.99771,-2.94142,0.581943,0.866025,0.233451,0.0107693,1.49012e-05,0.01055,0.000510365,0.0325723,2.23747,5,0.1,16,1.3,0.0942705,0.243139,0.607939,0.380031,0.623756,-0.00490872,-0.102779,1.13963,-0.000219792,0.0131177,2.4739,5,0.1,17,1.3,-1.9165,1.81635,0.952345,-0.294857,-0.412295,0.351589,0.121959,0.170469,-0.145372,0.0262132,0.219141,5,0.1,18,1.3,-3.5123,-3.3919,0.587798,0.255711,0.335025,0.00406224,-0.105739,-0.138506,-0.00167638,0.0111545,0.10229,5,0.1,19,1.3,0.131375,-3.08196,0.626423,-0.116134,0.813729,-0.00849236,0.00720192,0.0665188,-0.0139922,0.0129313,2.34883,5,0.1,20,1.3,0.106808,1.55984,0.5007,0.213702,-0.625732,-0.00527762,0.00745758,0.799246,0.0270382,0.021821,2.71669,5,0.1,21,1.3,0.60865,-3.13509,0.683837,-0.164064,0.171119,0.0618088,-0.464097,0.750855,-0.0461005,0.0152035,2.30881,5,0.1,22,1.3,-0.20291,-0.983826,0.5,0.765079,-0.862546,-4.37722e-06,0.0576536,-0.0374727,0.00019744,0.0241928,1.94884,5,0.1,23,1.3,-1.00656,-0.949628,0.902431,-0.169154,0.828329,0.391378,0.0652969,-0.175696,-0.151098,0.0350797,0.705416,5,0.1,24,1.3,-3.92761,-5.83093,0.608508,0.830403,-0.0168666,-0.00752648,-0.0367612,0.00703335,0.00310317,0.00923909,1.04974,5,0.1,25,1.3,-1.84193,-4.79641,0.691452,-0.0261191,0.866023,0.159177,-0.00184774,2.98023e-05,0.0116043,0.0214756,2.25518,5,0.1,26,1.3,-1.25231,4.88526,0.546915,-0.84814,0.494026,-0.0104544,0.109062,-0.152946,0.00322238,0.00980929,0.861315,5,0.1,27,1.3,5.0004,0.674307,0.500015,-0.571892,-0.253681,-0.000364333,0.62868,0.0201762,0.00572205,0.0113041,0.520991,5,0.1,28,1.3,2.21745,-1.93835,0.620203,-0.103837,0.148709,-0.0178574,0.0429451,-0.420831,0.00740588,0.0298146,0.995131,5,0.1,29,1.3,4.67039,0.787381,0.640078,-0.415825,-0.563505,-0.0354353,0.171989,0.232965,0.0146329,0.0223895,0.283207,5,0.1
0,1.4,-5.24669,-1.72986,0.563055,0.212276,-0.578284,0.0339746,-0.56982,0.269413,-0.0213385,0.00866198,0.149221,5,0.1,1,1.4,-3.70598,-2.42855,0.630517,0.743544,-0.0996172,-0.025031,-0.445962,0.035882,0.0090301,0.00902998,0.279254,5,0.1,2,1.4,-2.54887,4.13763,0.629554,0.866026,-0.123417,-0.0153393,0,0.0200272,0.00244379,0.0250476,2.26234,5,0.1,3,1.4,1.23248,4.86752,0.947615,-0.0298649,-0.475967,0.370121,0.0188947,0.299215,-0.232756,0.01189,0.152919,5,0.1,4,1.4,1.26831,1.99367,0.644955,0.609523,-0.111288,-0.0151485,0.0237823,0.214994,0.0193417,0.0170545,0.830437,5,0.1,5,1.4,0.396919,0.1,0.6,-0.221891,0.3181,-0.0154272,-0.0557899,-0.541367,-0.103682,0.0126473,3.00378,5,0.1,6,1.4,1.63826,1.67547,0.612238,0.151664,-0.126418,0.0394642,1.00851,0.137985,0.0898838,0.00601998,0.238752,5,0.1,7,1.4,1.37346,-2.99398,0.568983,-0.255811,0.412107,0.0372842,0.622869,-0.854135,0.0110269,0.0111458,0.657113,5,0.1,8,1.4,1.04264,-2.79012,0.538442,0.8219,0.387377,0.0118107,-0.0689626,0.296712,-0.00348687,0.0214812,2.29469,5,0.1,9,1.4,4.08014,-4.11847,0.640732,0.0342727,0.866032,-0.0116363,-0.00476837,-0.000238419,0.00163913,0.0258378,2.41158,5,0.1,10,1.4,4.12061,1.78767,0.586197,-0.718725,0.121924,0.0103772,-1.16062,-0.053525,-0.00458956,0.0134383,2.35753,5,0.1,11,1.4,0.16996,-2.09425,0.675179,0.172868,-0.541353,-0.0115946,-0.0320002,-0.807643,0.00214577,0.0116053,2.6071,5,0.1,12,1.4,-2.6254,2.17928,0.550751,0.866026,-0.0762999,0.0111669,0,0.00488758,-0.00408292,0.0177679,2.26746,5,0.1,13,1.4,-2.75909,4.45031,0.525803,-0.866026,-0.405383,-0.0383198,0,0.0422001,0.00658631,0.0205863,2.16773,5,0.1,14,1.4,1.40804,1.72756,0.564728,0.0770152,-0.0894845,0.00337064,-0.0213385,0.0951886,-0.00274181,0.0269817,0.411022,5,0.1,15,1.4,-3.91111,-2.91808,0.58302,0.866026,0.2325,0.0107273,0,-0.0386238,-0.00175834,0.0284798,2.22637,5,0.1,16,1.4,0.131658,0.311005,0.607448,0.366454,0.729857,-0.0048846,-0.178546,0.919938,0.000834465,0.0103766,2.27586,5,0.1,17,1.4,-1.9453,1.77607,0.986688,-0.280261,-0.391889,0.334188,0.176251,0.246406,-0.210106,0.0311375,0.144245,5,0.1,18,1.4,-3.48732,-3.35917,0.588195,0.243056,0.318444,0.00386238,-0.152826,-0.200272,-0.00244379,0.0099604,0.114664,5,0.1,19,1.4,0.119838,-3.00015,0.625531,-0.114123,0.8223,-0.00911802,0.0362806,0.0499487,0.000655651,0.0121116,2.42824,5,0.1,20,1.4,0.12816,1.501,0.500296,0.212575,-0.554129,-0.00291765,-0.0380874,0.6181,0.020057,0.0186102,2.7555,5,0.1,21,1.4,0.589649,-3.11392,0.689786,-0.217511,0.253779,0.0571147,-0.559062,0.843287,-0.0493526,0.01403,1.88632,5,0.1,22,1.4,-0.126298,-1.07014,0.500001,0.764513,-0.861585,7.45058e-06,-0.100087,0.0888705,2.98023e-05,0.0229022,1.95261,5,0.1,23,1.4,-1.02311,-0.867869,0.940711,-0.161195,0.804247,0.372958,0.0976324,-0.330895,-0.225753,0.0387111,0.72101,5,0.1,24,1.4,-3.84481,-5.83257,0.607773,0.82382,-0.0160217,-0.00715405,-0.134468,0.0100136,0.00450015,0.00877571,1.65531,5,0.1,25,1.4,-1.84454,-4.7098,0.707389,-0.026089,0.866032,0.159004,0.00363588,-0.000238419,-0.0214875,0.0225136,2.42212,5,0.1,26,1.4,-1.33637,4.93376,0.545889,-0.830239,0.474179,-0.0100344,0.276446,-0.254869,0.00536442,0.00895621,0.595922,5,0.1,27,1.4,4.94644,0.648934,0.500001,-0.506556,-0.254278,2.23517e-05,0.67997,-0.0116229,0.00229478,0.0111857,0.416195,5,0.1,28,1.4,2.2073,-1.92554,0.618459,-0.0986934,0.1084,-0.0169724,0.0619888,-0.371516,0.010699,0.034231,1.27365,5,0.1,29,1.4,4.62978,0.732337,0.636617,-0.39525,-0.535619,-0.0336826,0.248671,0.336736,0.0211596,0.0199817,0.186421,5,0.1
0,1.5,-5.2283,-1.78623,0.56635,0.155807,-0.547781,0.0319391,-0.549316,0.348486,-0.0203401,0.00866198,0.149221,5,0.1,1,1.5,-3.63374,-2.43834,0.628057,0.702053,-0.0961326,-0.0241544,-0.407785,0.0370741,0.00932813,0.00902998,0.279254,5,0.1,2,1.5,-2.46227,4.12535,0.628027,0.866026,-0.122403,-0.0152172,0,0.00703335,0.00083819,0.0250476,2.26234,5,0.1,3,1.5,1.22958,4.82136,0.983508,-0.028065,-0.447426,0.347919,0.0179633,0.285119,-0.221796,0.01189,0.152919,5,0.1,4,1.5,1.32957,1.98322,0.643498,0.6165,-0.101019,-0.0143096,0.0790507,0.0130981,-0.000111759,0.0170545,0.830437,5,0.1,5,1.5,0.374248,0.129133,0.598037,-0.232979,0.266011,-0.0229089,-0.142563,-0.456753,-0.0483692,0.0126473,3.00378,5,0.1,6,1.5,1.65827,1.66345,0.616672,0.245955,-0.114691,0.0494153,0.852726,0.10211,0.102382,0.00601998,0.238752,5,0.1,7,1.5,1.35176,-2.95761,0.572761,-0.171852,0.310532,0.0381744,0.99846,-1.13101,0.00529736,0.0111458,0.657113,5,0.1,8,1.5,1.12519,-2.7504,0.539638,0.834381,0.402359,0.0123564,0.242665,0.00967085,0.0120252,0.0214812,2.29469,5,0.1,9,1.5,4.08356,-4.03248,0.639573,0.0340931,0.847938,-0.0115746,-0.000745058,-0.347838,0.000264496,0.0258378,2.41158,5,0.1,10,1.5,4.0437,1.79962,0.587214,-0.811658,0.117247,0.00997595,-0.685588,-0.0449568,-0.00385195,0.0134383,2.35753,5,0.1,11,1.5,0.187732,-2.15245,0.674068,0.187814,-0.621757,-0.0102986,0.284319,-0.752345,0.0217929,0.0116053,2.6071,5,0.1,12,1.5,-2.5388,2.17161,0.55185,0.866026,-0.0775527,0.0108244,0,-0.0229925,-0.0032559,0.0177679,2.26746,5,0.1,13,1.5,-2.84569,4.40983,0.521992,-0.866026,-0.404938,-0.037965,0,-0.00914931,0.0025928,0.0205863,2.16773,5,0.1,14,1.5,1.41621,1.71892,0.565083,0.0911964,-0.0846729,0.00398308,0.266142,0.012219,0.0129715,0.0269817,0.411022,5,0.1,15,1.5,-3.82451,-2.89501,0.584085,0.866026,0.228704,0.010593,0,-0.0460148,-0.00141561,0.0284798,2.22637,5,0.1,16,1.5,0.167177,0.388202,0.606963,0.34173,0.809377,-0.00483058,-0.310398,0.639649,0.000491738,0.0103766,2.27586,5,0.1,17,1.5,-1.97248,1.73807,1.0191,-0.26345,-0.368385,0.314146,0.167944,0.234805,-0.200227,0.0311375,0.144245,5,0.1,18,1.5,-3.46363,-3.32812,0.588571,0.232097,0.304079,0.00368701,-0.0814497,-0.106752,-0.00130013,0.0099604,0.114664,5,0.1,19,1.5,0.108097,-2.9178,0.624647,-0.124879,0.822581,-0.00832696,-0.216141,-0.0701845,0.0139177,0.0121116,2.42824,5,0.1,20,1.5,0.149278,1.4486,0.500091,0.210019,-0.497681,-0.00129128,-0.0235541,0.402331,0.0126474,0.0186102,2.7555,5,0.1,21,1.5,0.56496,-3.08412,0.695279,-0.276826,0.343003,0.0529534,-0.592463,0.892431,-0.0364147,0.01403,1.88632,5,0.1,22,1.5,-0.050082,-1.15621,0.500001,0.761317,-0.861997,7.91624e-06,-0.00802532,-0.045903,-1.86265e-05,0.0229022,1.95261,5,0.1,23,1.5,-1.03891,-0.788823,0.97692,-0.156313,0.778435,0.35139,0.0145063,-0.224806,-0.216328,0.0387111,0.72101,5,0.1,24,1.5,-3.7624,-5.83413,0.607079,0.829693,-0.0150651,-0.0067248,0.178531,0.00953674,0.00428781,0.00877571,1.65531,5,0.1,25,1.5,-1.84714,-4.62394,0.723237,-0.0259614,0.844533,0.158276,0.000424683,-0.407606,-0.00224635,0.0225136,2.42212,5,0.1,26,1.5,-1.41814,4.97995,0.544912,-0.805396,0.449755,-0.0095197,0.252791,-0.247747,0.00522658,0.00895621,0.595922,5,0.1,27,1.5,4.89897,0.62332,0.500011,-0.444517,-0.258824,0.000158232,0.573516,-0.0606701,0.000555068,0.0111857,0.416195,5,0.1,28,1.5,2.19773,-1.91658,0.616813,-0.0927798,0.0715481,-0.0159527,0.059098,-0.325836,0.0101812,0.034231,1.27365,5,0.1,29,1.5,4.59145,0.680394,0.63335,-0.371534,-0.503499,-0.0316639,0.236869,0.320893,0.0201724,0.0199817,0.186421,5,0.1
0,1.6,-5.21536,-1.83909,0.569437,0.104165,-0.507396,0.0297457,-0.476837,0.463367,-0.0241697,0.0108067,2.39142,5,0.1,1,1.6,-3.56567,-2.44775,0.625695,0.657964,-0.0916541,-0.0230283,-0.490308,0.0547171,0.0137389,0.00949751,0.491652,5,0.1,2,1.6,-2.37567,4.11317,0.626513,0.866026,-0.120854,-0.0150278,0,0.0286102,0.00351667,0.023733,2.26288,5,0.1,3,1.6,1.22687,4.77811,1.01714,-0.0261307,-0.416684,0.324008,0.0212789,0.338793,-0.263572,0.0126302,0.185594,5,0.1,4,1.6,1.39146,1.973,0.642051,0.619081,-0.104627,-0.0147372,-0.0532866,-0.0676513,-0.00658631,0.0184613,0.635989,5,0.1,5,1.6,0.350252,0.153846,0.595579,-0.246352,0.232659,-0.0255629,-0.10784,-0.19487,-0.00685453,0.0105534,3.26768,5,0.1,6,1.6,1.68671,1.65247,0.622101,0.318137,-0.105038,0.0587761,0.574708,0.0950098,0.0799894,0.0068889,0.179919,5,0.1,7,1.6,1.3398,-2.93236,0.576585,-0.0663668,0.194138,0.0381023,1.06663,-1.1611,-0.0077188,0.00949563,0.424386,5,0.1,8,1.6,1.20986,-2.71054,0.540943,0.857583,0.390744,0.0137985,0.16886,-0.234485,0.0149906,0.00961843,2.24729,5,0.1,9,1.6,4.08695,-3.94991,0.638419,0.0337958,0.798988,-0.0114709,-0.00691414,-0.619769,0.00226498,0.0268219,2.69293,5,0.1,10,1.6,3.95993,1.8111,0.588191,-0.855696,0.112101,0.00953525,-0.20659,-0.0613928,-0.00521541,0.0127595,1.9066,5,0.1,11,1.6,0.208141,-2.21797,0.673166,0.221519,-0.683695,-0.00759363,0.354238,-0.453115,0.030756,0.01222,2.76616,5,0.1,12,1.6,-2.45219,2.16374,0.552914,0.866026,-0.0797033,0.0104338,0,-0.014782,-0.00488758,0.0148787,2.26699,5,0.1,13,1.6,-2.93229,4.36937,0.518216,-0.866026,-0.403094,-0.0374466,0,0.0634193,0.00920892,0.0146755,2.17059,5,0.1,14,1.6,1.42687,1.71045,0.565558,0.123373,-0.0850707,0.00560582,0.347495,-0.0118017,0.0179112,0.0229914,0.336003,5,0.1,15,1.6,-3.7379,-2.87244,0.585135,0.866026,0.221848,0.0103623,0,-0.0972748,-0.00354648,0.0256689,1.76047,5,0.1,16,1.6,0.19962,0.471699,0.606483,0.305484,0.853895,-0.00474602,-0.408963,0.242621,0.00140071,0.0105787,1.54748,5,0.1,17,1.6,-1.99795,1.70246,1.04946,-0.245342,-0.343069,0.292557,0.199497,0.27895,-0.237942,0.0287546,0.0948065,5,0.1,18,1.6,-3.44081,-3.29823,0.588934,0.224167,0.293684,0.00355989,-0.0882149,-0.115633,-0.00137091,0.00997881,0.0664413,5,0.1,19,1.6,0.0943514,-2.83626,0.623898,-0.151117,0.804043,-0.00656098,-0.281532,-0.316858,0.0203848,0.0110686,2.37161,5,0.1,20,1.6,0.170116,1.4,0.500015,0.206077,-0.482443,-0.000347197,-0.0626221,-0.0769496,0.00652671,0.0154077,2.50536,5,0.1,21,1.6,0.534494,-3.04561,0.700396,-0.330043,0.423896,0.0493959,-0.447035,0.69046,-0.0366271,0.0142481,0.67355,5,0.1,22,1.6,0.0258651,-1.24252,0.500002,0.755368,-0.862178,5.96046e-06,-0.14214,0.0769496,-5.96046e-05,0.019966,1.95799,5,0.1,23,1.6,-1.05451,-0.712192,1.01092,-0.155765,0.752552,0.327906,0.00733137,-0.320703,-0.260592,0.0376579,0.512634,5,0.1,24,1.6,-3.67851,-5.83558,0.606429,0.846815,-0.0140309,-0.00626147,0.110388,0.0114441,0.00506639,0.00866231,1.30877,5,0.1,25,1.6,-1.84973,-4.54205,0.739024,-0.0257432,0.788474,0.15699,0.00488758,-0.695467,-0.0300109,0.0212609,2.71118,5,0.1,26,1.6,-1.49723,5.02361,0.543987,-0.774232,0.422251,-0.00893921,0.392556,-0.311375,0.00658631,0.0102187,0.405014,5,0.1,27,1.6,4.8573,0.597178,0.500028,-0.389647,-0.263216,0.000157952,0.532389,-0.0138283,-0.000476837,0.00988129,0.333668,5,0.1,28,1.6,2.18876,-1.91074,0.615271,-0.0864089,0.0488609,-0.014855,0.0703335,-0.111461,0.0120699,0.0328601,2.31168,5,0.1,29,1.6,4.55553,0.631724,0.63029,-0.346005,-0.468898,-0.0294879,0.281572,0.381261,0.0239611,0.0206344,0.122535,5,0.1
0,1.7,-5.20725,-1.88853,0.572338,0.0590697,-0.489915,0.028653,-0.410676,-0.0431314,-0.00110641,0.0108067,2.39142,5,0.1,1,1.7,-3.50187,-2.45665,0.623458,0.621386,-0.0864625,-0.021725,-0.280902,0.0518262,0.0130162,0.00949751,0.491652,5,0.1,2,1.7,-2.28907,4.10119,0.625022,0.866026,-0.119083,-0.0148111,0,0.0134408,0.00164285,0.023733,2.26288,5,0.1,3,1.7,1.22436,4.7379,1.04828,-0.0241371,-0.389369,0.299301,0.0193045,0.228763,-0.239432,0.0126302,0.185594,5,0.1,4,1.7,1.45317,1.96208,0.640524,0.615064,-0.114635,-0.015952,-0.0543967,-0.118688,-0.0156425,0.0184613,0.635989,5,0.1,5,1.7,0.325065,0.176569,0.593035,-0.257157,0.225591,-0.0248928,-0.0943318,0.0324203,0.0185445,0.0105534,3.26768,5,0.1,6,1.7,1.72123,1.64236,0.628397,0.370116,-0.0976773,0.0671976,0.444882,0.0583902,0.0823848,0.0068889,0.179919,5,0.1,7,1.7,1.33824,-2.91898,0.580419,0.0321908,0.0720967,0.0390641,0.890799,-1.23699,0.0216961,0.00949563,0.424386,5,0.1,8,1.7,1.29613,-2.67279,0.542414,0.865498,0.362762,0.0157389,0.0211075,-0.324026,0.0217743,0.00961843,2.24729,5,0.1,9,1.7,4.09031,-3.87394,0.637279,0.0334382,0.714211,-0.0113571,-0.00214577,-0.985667,0.000670552,0.0268219,2.69293,5,0.1,10,1.7,3.87373,1.82203,0.58912,-0.86538,0.106596,0.00906726,-0.0258237,-0.0528693,-0.00449643,0.0127595,1.9066,5,0.1,11,1.7,0.231706,-2.28751,0.672443,0.246277,-0.696964,-0.00787312,0.14385,0.159994,-0.0295602,0.01222,2.76616,5,0.1,12,1.7,-2.36559,2.15565,0.553937,0.866026,-0.0823442,0.0100518,0,-0.0316054,-0.00327826,0.0148787,2.26699,5,0.1,13,1.7,-3.01889,4.32923,0.514545,-0.866026,-0.400668,-0.0357154,0,0.00876188,0.0249036,0.0146755,2.17059,5,0.1,14,1.7,1.44121,1.7018,0.566223,0.165326,-0.0885913,0.00779312,0.459172,-0.0494495,0.0241399,0.0229914,0.336003,5,0.1,15,1.7,-3.6513,-2.85067,0.586156,0.866025,0.213939,0.0100732,-1.49012e-05,-0.0711977,-0.00270456,0.0256689,1.76047,5,0.1,16,1.7,0.227939,0.557306,0.606149,0.259336,0.848841,-0.000808388,-0.502019,-0.322424,0.0690669,0.0105787,1.54748,5,0.1,17,1.7,-2.02153,1.66948,1.07759,-0.22664,-0.316919,0.270252,0.18125,0.253439,-0.216171,0.0287546,0.0948065,5,0.1,18,1.7,-3.41878,-3.26936,0.589284,0.216734,0.28394,0.00344412,-0.0702441,-0.0920892,-0.00109896,0.00997881,0.0664413,5,0.1,19,1.7,0.0781539,-2.75631,0.623348,-0.169758,0.803924,-0.00440199,-0.096974,0.220612,0.0221431,0.0110686,2.37161,5,0.1,20,1.7,0.190229,1.35147,0.500005,0.194489,-0.486877,9.76957e-05,-0.164002,0.00388175,0.00263378,0.0154077,2.50536,5,0.1,21,1.7,0.499525,-3.00064,0.705194,-0.366376,0.46725,0.0468749,-0.269881,0.193566,-0.0172369,0.0142481,0.67355,5,0.1,22,1.7,0.101079,-1.32867,0.500002,0.751486,-0.862567,9.31323e-07,0.0142157,-0.0341237,-3.72529e-05,0.019966,1.95799,5,0.1,23,1.7,-1.07013,-0.638358,1.04247,-0.157276,0.72514,0.30345,-0.0262335,-0.259317,-0.237532,0.0376579,0.512634,5,0.1,24,1.7,-3.5937,-5.83693,0.605827,0.844936,-0.012958,-0.00578593,-0.157818,0.0103712,0.00461191,0.00866231,1.30877,5,0.1,25,1.7,-1.85229,-4.46748,0.754633,-0.025513,0.697068,0.155563,0.0012219,-1.04114,-0.00769272,0.0212609,2.71118,5,0.1,26,1.7,-1.57282,5.06435,0.543125,-0.737901,0.392953,-0.00831923,0.360593,-0.28652,0.00606105,0.0102187,0.405014,5,0.1,27,1.7,4.82071,0.570737,0.500041,-0.344429,-0.265744,9.86271e-05,0.389069,-0.022646,-0.000674278,0.00988129,0.333668,5,0.1,28,1.7,2.18046,-1.90623,0.613843,-0.0798158,0.0458775,-0.0137236,0.0638962,0.152834,0.0109598,0.0328601,2.31168,5,0.1,29,1.7,4.52227,0.58665,0.627455,-0.319615,-0.433156,-0.0272414,0.255704,0.346389,0.021778,0.0206344,0.122535,5,0.1
0,1.8,-5.2032,-1.9381,0.575213,0.0242472,-0.503591,0.0289261,-0.277996,-0.176728,0.00393391,0.0107633,2.1019,5,0.1,1,1.8,-3.44106,-2.46502,0.621354,0.594914,-0.0808299,-0.0203088,-0.2774,0.0625849,0.0157058,0.0110021,1.37258,5,0.1,2,1.8,-2.20246,4.08936,0.623552,0.866026,-0.11704,-0.0145599,0,0.0319481,0.00396371,0.0206607,2.26351,5,0.1,3,1.8,1.22204,4.70007,1.077,-0.0221491,-0.36726,0.274634,0.0209808,0.228882,-0.259995,0.0139361,0.132362,5,0.1,4,1.8,1.51422,1.95003,0.63885,0.603604,-0.125974,-0.0175044,-0.193357,-0.0979304,-0.0138879,0.0157106,0.891129,5,0.1,5,1.8,0.298993,0.199516,0.590668,-0.262877,0.235143,-0.0221714,-0.0105798,0.139721,0.0344217,0.0122977,3.28516,5,0.1,6,1.8,1.76011,1.63287,0.635492,0.403839,-0.0922889,0.0742227,0.216782,0.0539422,0.053823,0.00815184,0.156769,5,0.1,7,1.8,1.34553,-2.91779,0.584447,0.109565,-0.0458419,0.0415251,0.648141,-1.09017,0.0235438,0.0178088,0.88709,5,0.1,8,1.8,1.38272,-2.63827,0.544095,0.866026,0.326264,0.0177979,0,-0.404,0.017941,0.00974549,2.25037,5,0.1,9,1.8,4.09364,-3.80749,0.636148,0.0330329,0.615835,-0.0112221,-0.00762939,-0.931978,0.00244379,0.0273854,2.86116,5,0.1,10,1.8,3.78714,1.83241,0.590003,-0.866026,0.100824,0.00857562,0,-0.0655055,-0.00554323,0.0138769,1.48448,5,0.1,11,1.8,0.256727,-2.35559,0.671454,0.250988,-0.657028,-0.0122964,-0.0455528,0.612974,-0.0535548,0.0112707,3.03733,5,0.1,12,1.8,-2.27899,2.14728,0.554925,0.866026,-0.0849247,0.00969023,0,-0.0151396,-0.00435114,0.0144065,2.26943,5,0.1,13,1.8,-3.1055,4.28927,0.51112,-0.866026,-0.397301,-0.0325739,0,0.0753403,0.0374317,0.0137128,2.17483,5,0.1,14,1.8,1.46001,1.69269,0.567122,0.209576,-0.0933677,0.0101388,0.401974,-0.0393987,0.0215173,0.0251248,0.262945,5,0.1,15,1.8,-3.5647,-2.82966,0.587148,0.866026,0.205863,0.00974089,-0.000238419,-0.0976324,-0.00423193,0.0249652,1.35788,5,0.1,16,1.8,0.251291,0.639795,0.606469,0.207254,0.793627,0.00759214,-0.529915,-0.761032,0.0925064,0.0114691,1.47317,5,0.1,17,1.8,-2.04328,1.63908,1.10351,-0.207967,-0.290808,0.247979,0.196815,0.275254,-0.234663,0.0261042,0.110666,5,0.1,18,1.8,-3.39749,-3.24148,0.589622,0.208455,0.273091,0.00331402,-0.102043,-0.133753,-0.00160933,0.0113491,0.0504027,5,0.1,19,1.8,0.0609581,-2.67456,0.623017,-0.171652,0.831759,-0.0022456,0.0533664,0.265837,0.0204742,0.009026,1.34203,5,0.1,20,1.8,0.208726,1.30303,0.500024,0.174271,-0.479126,0.000227988,-0.235558,0.160992,0.000208616,0.0153669,2.4767,5,0.1,21,1.8,0.461895,-2.95365,0.709804,-0.382534,0.465965,0.0453502,-0.0481606,-0.202775,-0.0157952,0.0141782,0.520239,5,0.1,22,1.8,0.176219,-1.41494,0.500002,0.749578,-0.860438,-1.49012e-06,-0.0884163,0.111759,-5.96046e-05,0.0225257,1.96215,5,0.1,23,1.8,-1.08597,-0.567252,1.07161,-0.159067,0.695299,0.278884,-0.00137091,-0.359625,-0.259936,0.034347,0.357276,5,0.1,24,1.8,-3.5105,-5.83818,0.605272,0.81389,-0.0118971,-0.00530928,-0.467181,0.0114441,0.00497699,0.00812725,1.19445,5,0.1,25,1.8,-1.85483,-4.40298,0.770126,-0.0252396,0.594413,0.153886,0.00524521,-0.961542,-0.0323355,0.0219256,2.88072,5,0.1,26,1.8,-1.64468,5.10217,0.542324,-0.697652,0.362957,-0.00768453,0.462532,-0.321627,0.00679493,0.00938718,0.272433,5,0.1,27,1.8,4.78809,0.544129,0.500047,-0.308847,-0.265355,2.83122e-05,0.335693,0.0401437,-0.000685453,0.0101152,0.265369,5,0.1,28,1.8,2.1728,-1.9,0.612527,-0.0732362,0.0873029,-0.0125945,0.0693798,0.653446,0.0119209,0.0296643,3.18583,5,0.1,29,1.8,4.49161,0.545094,0.624841,-0.293267,-0.397466,-0.0249967,0.277281,0.376135,0.0236332,0.020156,0.138733,5,0.1
0,1.9,-5.20206,-1.9898,0.578147,0.000312179,-0.533605,0.0299044,-0.172049,-0.369199,0.0129864,0.0107633,2.1019,5,0.1,1,1.9,-3.38272,-2.47281,0.619397,0.573424,-0.0749722,-0.0188386,-0.181779,0.056833,0.0142753,0.0110021,1.37258,5,0.1,2,1.9,-2.11586,4.07778,0.62211,0.866026,-0.114964,-0.0143024,0,0.015974,0.00197813,0.0206607,2.26351,5,0.1,3,1.9,1.21992,4.66438,1.10323,-0.020206,-0.347067,0.250548,0.0184774,0.189126,-0.229202,0.0139361,0.132362,5,0.1,4,1.9,1.57389,1.93707,0.637013,0.591659,-0.132001,-0.0193539,-0.0812337,-0.0224933,-0.0208877,0.0157106,0.891129,5,0.1,5,1.9,0.272846,0.223356,0.588637,-0.258142,0.239394,-0.0183414,0.103859,0.000911765,0.0411458,0.0122977,3.28516,5,0.1,6,1.9,1.80154,1.62404,0.643204,0.423799,-0.0832079,0.0800727,0.161983,0.121661,0.057213,0.00815184,0.156769,5,0.1,7,1.9,1.35862,-2.92627,0.588655,0.14257,-0.109701,0.0420569,0.0571385,-0.25031,-0.0113733,0.0178088,0.88709,5,0.1,8,1.9,1.46933,-2.60764,0.545973,0.866026,0.286649,0.0198194,0,-0.390798,0.0206493,0.00974549,2.25037,5,0.1,9,1.9,4.09692,-3.75048,0.635034,0.0326134,0.528796,-0.0110908,-0.00271201,-0.680551,0.00083074,0.0273854,2.86116,5,0.1,10,1.9,3.70054,1.84218,0.590835,-0.86588,0.0948476,0.00806944,0.00581145,-0.0574514,-0.00487641,0.0138769,1.48448,5,0.1,11,1.9,0.282117,-2.4179,0.669831,0.260934,-0.586254,-0.0211715,0.203105,0.789404,-0.113878,0.0112707,3.03733,5,0.1,12,1.9,-2.19239,2.13876,0.555881,0.866026,-0.084896,0.00948636,0,0.0163466,-0.000510365,0.0144065,2.26943,5,0.1,13,1.9,-3.1921,4.24977,0.508074,-0.866026,-0.393724,-0.0281314,0,0.0193119,0.0500269,0.0137128,2.17483,5,0.1,14,1.9,1.48304,1.68313,0.568247,0.251135,-0.0981743,0.0123685,0.404388,-0.0495985,0.0217855,0.0251248,0.262945,5,0.1,15,1.9,-3.47811,-2.8095,0.588103,0.86544,0.197668,0.00937246,-0.0232309,-0.0752807,-0.00353903,0.0249652,1.35788,5,0.1,16,1.9,0.269388,0.714631,0.607864,0.155089,0.696827,0.0216734,-0.505844,-1.13789,0.175074,0.0114691,1.47317,5,0.1,17,1.9,-2.06324,1.61133,1.12732,-0.192504,-0.26455,0.229543,0.12435,0.256293,-0.148274,0.0261042,0.110666,5,0.1,18,1.9,-3.37708,-3.21474,0.589947,0.200138,0.262189,0.00318261,-0.0745058,-0.0976771,-0.00118092,0.0113491,0.0504027,5,0.1,19,1.9,0.0441577,-2.59261,0.622764,-0.16359,0.784842,-0.00393456,0.0997593,-1.08379,-0.0464655,0.009026,1.34203,5,0.1,20,1.9,0.224805,1.2565,0.500046,0.145876,-0.446469,0.000200607,-0.321361,0.470392,-0.000663102,0.0153669,2.4767,5,0.1,21,1.9,0.423285,-2.90843,0.71431,-0.390189,0.434989,0.0451498,-0.080917,-0.406086,0.00731647,0.0141782,0.520239,5,0.1,22,1.9,0.251042,-1.50083,0.500002,0.748761,-0.86011,-5.30854e-06,0.0254397,-0.0483543,-1.86265e-05,0.0225257,1.96215,5,0.1,23,1.9,-1.10193,-0.499376,1.09826,-0.160188,0.662987,0.254781,-0.0121072,-0.312494,-0.229739,0.034347,0.357276,5,0.1,24,1.9,-3.43239,-5.83931,0.604764,0.740301,-0.0108398,-0.00484725,-0.953078,0.0100434,0.00440702,0.00812725,1.19445,5,0.1,25,1.9,-1.85734,-4.34821,0.785414,-0.0249755,0.505904,0.152244,0.00151992,-0.683039,-0.00949949,0.0219256,2.88072,5,0.1,26,1.9,-1.71226,5.13694,0.541588,-0.654735,0.333063,-0.00705253,0.417769,-0.286251,0.00604987,0.00938718,0.272433,5,0.1,27,1.9,4.75866,0.517765,0.500047,-0.281753,-0.261954,-2.91504e-05,0.222802,0.0391603,-0.000465661,0.0101152,0.265369,5,0.1,28,1.9,2.16537,-1.88658,0.611324,-0.0792984,0.19231,-0.01147,-0.160858,1.3338,0.0108704,0.0296643,3.18583,5,0.1,29,1.9,4.46346,0.506939,0.622442,-0.271487,-0.367916,-0.0231398,0.175118,0.237638,0.0149384,0.020156,0.138733,5,0.1
0,2,-5.20255,-2.04496,0.581199,-0.00634193,-0.56802,0.0310659,0.0476837,-0.279546,0.00831485,0.00936129,1.79516,5,0.1,1,2,-3.32633,-2.48002,0.617586,0.553513,-0.0690758,-0.0173584,-0.237346,0.0627041,0.0157654,0.010784,1.28678,5,0.1,2,2,-2.02926,4.06638,0.620692,0.866026,-0.11276,-0.014028,-5.96046e-05,0.0329018,0.00408292,0.0203731,1.95642,5,0.1,3,2,1.218,4.63065,1.12714,-0.0183493,-0.327039,0.227529,0.0190139,0.221252,-0.236273,0.0170692,0.225412,5,0.1,4,2,1.6326,1.92389,0.634976,0.581241,-0.130531,-0.0213012,-0.152647,0.0511408,-0.0164211,0.00791911,0.456492,5,0.1,5,2,0.247729,0.247404,0.587013,-0.24248,0.243293,-0.0141293,0.207067,0.101119,0.0422895,0.0120513,3.1305,5,0.1,6,2,1.84451,1.61639,0.651463,0.432831,-0.069055,0.084652,0.00524521,0.156343,0.03016,0.00681634,0.151744,5,0.1,7,2,1.3725,-2.93754,0.592757,0.129217,-0.107419,0.0395492,-0.287175,0.24426,-0.0373721,0.0168587,0.689159,5,0.1,8,2,1.55593,-2.58092,0.548051,0.866026,0.247711,0.0216141,0,-0.389218,0.0139475,0.0103157,2.25786,5,0.1,9,2,4.10016,-3.7,0.633931,0.0321627,0.490767,-0.0109464,-0.00739098,-0.0978708,0.0025332,0.028393,2.78452,5,0.1,10,2,3.61402,1.85137,0.591617,-0.863707,0.0887573,0.00755191,0.0464916,-0.0666976,-0.00566244,0.0124629,1.12479,5,0.1,11,2,0.309357,-2.47238,0.667113,0.284357,-0.501633,-0.0332996,0.234187,0.891089,-0.120997,0.0119138,3.04432,5,0.1,12,2,-2.10578,2.13041,0.556828,0.866026,-0.0815809,0.00945181,0,0.0500679,-0.000715256,0.0152148,2.26949,5,0.1,13,2,-3.2787,4.21055,0.505522,-0.866026,-0.389469,-0.0228196,0,0.0817776,0.0550449,0.0112505,1.97044,5,0.1,14,2,1.51001,1.67309,0.569584,0.286222,-0.10207,0.0142753,0.279903,-0.0231862,0.0154376,0.0257146,0.194807,5,0.1,15,2,-3.39187,-2.79014,0.589021,0.856709,0.189275,0.00896752,-0.186443,-0.0991821,-0.00488758,0.0265822,1.1151,5,0.1,16,2,0.282458,0.778258,0.610947,0.107368,0.572821,0.0401333,-0.443235,-1.3116,0.183463,0.0094303,0.242483,5,0.1,17,2,-2.08191,1.58616,1.14958,-0.181031,-0.238487,0.215861,0.113964,0.269234,-0.135839,0.0284172,0.0822043,5,0.1,18,2,-3.35747,-3.18904,0.590259,0.19182,0.251287,0.00305176,-0.0988245,-0.129461,-0.00160933,0.00978481,0.0224694,5,0.1,19,2,0.0283254,-2.52095,0.62208,-0.152882,0.636804,-0.0101492,0.110694,-1.77908,-0.0717938,0.00978686,2.97525,5,0.1,20,2,0.237719,1.21456,0.500062,0.111977,-0.38909,0.000111759,-0.347808,0.658512,-0.00104308,0.0178286,2.4575,5,0.1,21,2,0.383969,-2.86722,0.718869,-0.39463,0.386792,0.0460356,0.0089556,-0.547767,0.00709295,0.0133941,0.391064,5,0.1,22,2,0.32592,-1.58697,0.500001,0.74669,-0.860363,-5.96046e-06,-0.100001,0.0839233,0,0.0204829,1.96317,5,0.1,23,2,-1.11796,-0.434735,1.12259,-0.159967,0.628428,0.23165,0.0227094,-0.39655,-0.238061,0.0365837,0.384361,5,0.1,24,2,-3.36358,-5.84035,0.604302,0.632346,-0.00983477,-0.00440329,-1.16682,0.010252,0.00452995,0.00823469,1.10442,5,0.1,25,2,-1.85983,-4.3,0.800568,-0.0246882,0.468469,0.15045,0.00542402,-0.0846386,-0.0327826,0.0199389,2.76258,5,0.1,26,2,-1.77557,5.16881,0.540913,-0.610399,0.304019,-0.0064373,0.483871,-0.301838,0.0063777,0.0100128,0.18246,5,0.1,27,2,4.73152,0.491839,0.500042,-0.26139,-0.255629,-6.55651e-05,0.196695,0.0950247,-0.000298023,0.0112678,0.208808,5,0.1,28,2,2.15645,-1.86033,0.610232,-0.100142,0.334182,-0.0103712,-0.232935,1.41758,0.0113249,0.0304659,2.7136,5,0.1,29,2,4.43713,0.47126,0.620198,-0.255322,-0.345988,-0.0217602,0.160217,0.217676,0.0136793,0.0187158,0.0800919,5,0.1
0,2.1,-5.20268,-2.10333,0.584356,0.00757053,-0.600185,0.0321193,0.275999,-0.321373,0.0106767,0.00936129,1.79516,5,0.1,1,2.1,-3.27277,-2.48657,0.615926,0.512401,-0.0617702,-0.0158649,-0.552088,0.0820011,0.0145137,0.010784,1.28678,5,0.1,2,2.1,-1.94266,4.05523,0.619306,0.866025,-0.110278,-0.0137199,1.49012e-05,0.0222027,0.00276417,0.0203731,1.95642,5,0.1,3,2.1,1.21625,4.59935,1.14878,-0.0166036,-0.296253,0.205836,0.0164062,0.381291,-0.20387,0.0170692,0.225412,5,0.1,4,2.1,1.68939,1.9121,0.633029,0.549324,-0.0965051,-0.0153999,-0.468262,0.568584,0.119004,0.00791911,0.456492,5,0.1,5,2.1,0.224425,0.272246,0.585807,-0.224271,0.256595,-0.0100462,0.166215,0.270864,0.0389293,0.0120513,3.1305,5,0.1,6,2.1,1.88789,1.6103,0.660083,0.435037,-0.0527978,0.087668,0.0164732,0.164747,0.0258014,0.00681634,0.151744,5,0.1,7,2.1,1.38351,-2.94636,0.596502,0.0871303,-0.0632633,0.0351354,-0.521056,0.59168,-0.0498593,0.0168587,0.689159,5,0.1,8,2.1,1.64253,-2.55799,0.550288,0.866026,0.211727,0.0231626,0,-0.334933,0.0153147,0.0103157,2.25786,5,0.1,9,2.1,4.10335,-3.651,0.632845,0.0317425,0.49437,-0.010801,-0.00286102,0.202104,0.000994653,0.028393,2.78452,5,0.1,10,2.1,3.52768,1.85994,0.592345,-0.864105,0.082642,0.00703232,-0.0150353,-0.0584349,-0.00496581,0.0124629,1.12479,5,0.1,11,2.1,0.339481,-2.51881,0.663167,0.321468,-0.433993,-0.0455145,0.436764,0.471309,-0.114538,0.0119138,3.04432,5,0.1,12,2.1,-2.01918,2.1225,0.557776,0.866026,-0.0764508,0.00953991,0,0.0540763,0.00175089,0.0152148,2.26949,5,0.1,13,2.1,-3.3653,4.17189,0.503516,-0.866026,-0.384464,-0.0173236,0,0.0391901,0.0539832,0.0112505,1.97044,5,0.1,14,2.1,1.54003,1.66276,0.571088,0.313431,-0.10465,0.0157777,0.244923,-0.0227764,0.0136048,0.0257146,0.194807,5,0.1,15,2.1,-3.30804,-2.77166,0.589895,0.812106,0.180498,0.00852495,-0.64677,-0.0836849,-0.00428408,0.0265822,1.1151,5,0.1,16,2.1,0.291143,0.828923,0.615828,0.0679487,0.440483,0.0568545,-0.346087,-1.31205,0.14649,0.0094303,0.242483,5,0.1,17,2.1,-2.0995,1.5638,1.17056,-0.171345,-0.207557,0.204314,0.087589,0.342026,-0.104442,0.0284172,0.0822043,5,0.1,18,2.1,-3.33877,-3.16455,0.590556,0.18195,0.238357,0.00289176,-0.103846,-0.136048,-0.00166893,0.00978481,0.0224694,5,0.1,19,2.1,0.0136418,-2.46372,0.620784,-0.14029,0.529034,-0.0150518,0.140659,-0.501722,-0.0285804,0.00978686,2.97525,5,0.1,20,2.1,0.247072,1.17911,0.500068,0.0743368,-0.3188,1.19209e-05,-0.392036,0.732116,-0.000931323,0.0178286,2.4575,5,0.1,21,2.1,0.344695,-2.83069,0.723472,-0.389203,0.34881,0.0456637,0.106566,-0.246897,-0.014402,0.0133941,0.391064,5,0.1,22,2.1,0.400398,-1.67295,0.500001,0.744763,-0.861505,-5.12227e-06,0.0152178,-0.0536889,1.86265e-05,0.0204829,1.96317,5,0.1,23,2.1,-1.13387,-0.373587,1.14464,-0.15821,0.596598,0.209776,0.0195876,-0.271203,-0.20583,0.0365837,0.384361,5,0.1,24,2.1,-3.3065,-5.84128,0.603883,0.507848,-0.00889301,-0.00398643,-1.25726,0.00882149,0.00392646,0.00823469,1.10442,5,0.1,25,2.1,-1.86228,-4.25213,0.815507,-0.0243967,0.500574,0.148695,0.00182539,0.61956,-0.0110008,0.0199389,2.76258,5,0.1,26,2.1,-1.83433,5.19779,0.540299,-0.565664,0.276227,-0.00584982,0.429131,-0.262409,0.00555068,0.0100128,0.18246,5,0.1,27,2.1,4.70616,0.466722,0.500035,-0.24744,-0.246767,-8.40053e-05,0.0997484,0.0913627,-8.9407e-05,0.0112678,0.208808,5,0.1,28,2.1,2.14508,-1.81932,0.609248,-0.128625,0.488669,-0.00933018,-0.313461,1.58408,0.00976771,0.0304659,2.7136,5,0.1,29,2.1,4.41234,0.437628,0.618083,-0.240838,-0.327485,-0.0205969,0.138611,0.167364,0.0105277,0.0187158,0.0800919,5,0.1
0,2.2,-5.2,-2.16474,0.587612,0.0512004,-0.625086,0.0328496,0.574827,-0.146747,0.00244379,0.011387,1.45509,5,0.1,1,2.2,-3.22459,-2.49232,0.614413,0.448805,-0.0529408,-0.0143871,-0.695229,0.0933409,0.0153184,0.00942182,1.21624,5,0.1,2,2.2,-1.85605,4.04434,0.61795,0.866026,-0.107384,-0.0133589,-5.96046e-05,0.0398159,0.00491738,0.022565,1.57525,5,0.1,3,2.2,1.21467,4.57181,1.16836,-0.0149816,-0.253189,0.185686,0.0163913,0.468254,-0.203609,0.0115777,0.213667,5,0.1,4,2.2,1.74158,1.90574,0.632202,0.490913,-0.0276595,-0.00025481,-0.684261,0.760615,0.171751,0.0131414,0.255964,5,0.1,5,2.2,0.202823,0.3,0.584988,-0.207677,0.305582,-0.00641942,0.172138,0.684068,0.033319,0.016637,2.86099,5,0.1,6,2.2,1.93135,1.60583,0.668942,0.432342,-0.0368059,0.0890732,-0.0858307,0.152051,-0.000655651,0.00975204,0.3707,5,0.1,7,2.2,1.38946,-2.94947,0.599753,0.0309557,0.0025332,0.0297695,-0.576377,0.687718,-0.0565052,0.0126404,0.574474,5,0.1,8,2.2,1.72913,-2.53844,0.552672,0.866026,0.179964,0.0243872,0,-0.303745,0.00795722,0.00948417,2.26281,5,0.1,9,2.2,4.10651,-3.6,0.631771,0.0312805,0.530291,-0.0106409,-0.00786781,0.475287,0.0026226,0.0285567,2.59565,5,0.1,10,2.2,3.44135,1.8679,0.593023,-0.860441,0.076592,0.00651777,0.111818,-0.0646114,-0.00548363,0.0153038,0.824119,5,0.1,11,2.2,0.373684,-2.56046,0.65811,0.360119,-0.404388,-0.0548244,0.291646,0.141025,-0.0666678,0.0105982,2.89534,5,0.1,12,2.2,-1.93258,2.11514,0.558738,0.866026,-0.0705063,0.00967681,-5.96046e-05,0.0655651,0.000417233,0.0140008,2.26992,5,0.1,13,2.2,-3.45191,4.13371,0.502046,-0.866026,-0.378072,-0.0121772,0,0.102997,0.0483096,0.0122999,1.51818,5,0.1,14,2.2,1.57241,1.65221,0.572725,0.33195,-0.105673,0.0168264,0.112355,0.00613928,0.00667572,0.0253931,0.137524,5,0.1,15,2.2,-3.23045,-2.75405,0.590725,0.736827,0.171298,0.00805557,-0.822663,-0.1055,-0.00530481,0.00774157,0.699061,5,0.1,16,2.2,0.296362,0.866568,0.622155,0.0379205,0.314416,0.0687063,-0.255883,-1.19239,0.0877976,0.0106398,0.38598,5,0.1,17,2.2,-2.11619,1.54482,1.19046,-0.162172,-0.171438,0.193375,0.101447,0.374079,-0.120819,0.0275646,0.20061,5,0.1,18,2.2,-3.32114,-3.14145,0.590836,0.170195,0.222957,0.00270158,-0.134826,-0.176668,-0.00211596,0.00742983,0.598143,5,0.1,19,2.2,0.000361526,-2.41207,0.619192,-0.124882,0.514048,-0.0162974,0.166676,0.103235,0.00163913,0.0103166,2.67864,5,0.1,20,2.2,0.25256,1.15091,0.500065,0.035841,-0.245377,-7.00355e-05,-0.368088,0.724316,-0.000685453,0.00785999,0.516218,5,0.1,21,2.2,0.306514,-2.79679,0.727932,-0.372274,0.331199,0.0432044,0.235394,-0.132561,-0.0344515,0.0070116,0.642502,5,0.1,22,2.2,0.47483,-1.75924,0.5,0.741822,-0.862125,-2.98023e-06,-0.106901,0.0780821,0,0.0172118,1.98363,5,0.1,23,2.2,-1.14955,-0.315285,1.1646,-0.154841,0.568843,0.189394,0.0526905,-0.306234,-0.206232,0.0314117,0.274635,5,0.1,24,2.2,-3.26173,-5.84213,0.603503,0.391042,-0.00802279,-0.00359714,-1.04356,0.00858307,0.00393391,0.00978555,1.01783,5,0.1,25,2.2,-1.8647,-4.19854,0.830299,-0.0240803,0.573504,0.146766,0.00554323,0.757456,-0.0337362,0.0189879,2.4907,5,0.1,26,2.2,-1.88872,5.22411,0.539742,-0.521487,0.250101,-0.00529736,0.467122,-0.265837,0.00563264,0.0106383,0.12219,5,0.1,27,2.2,4.68187,0.442557,0.500026,-0.238431,-0.235821,-8.49366e-05,0.0936985,0.133738,5.96046e-05,0.00980893,0.162881,5,0.1,28,2.2,2.13068,-1.76285,0.608363,-0.158799,0.635803,-0.00836998,-0.272632,1.29473,0.00962615,0.0282583,2.31057,5,0.1,29,2.2,4.38897,0.405734,0.616077,-0.226045,-0.309958,-0.0194937,0.163078,0.19373,0.0121891,0.0180778,0.0780963,5,0.1
0,2.3,-5.19135,-2.22805,0.590913,0.126693,-0.640827,0.0331755,0.874311,-0.134617,0.00242516,0.011387,1.45509,5,0.1,1,2.3,-3.18338,-2.49706,0.613061,0.374463,-0.0412229,-0.0125528,-0.756606,0.13496,0.0208132,0.00942182,1.21624,5,0.1,2,2.3,-1.76945,4.03362,0.616636,0.865907,-0.108382,-0.0129326,-0.00469387,-0.0454187,0.00416115,0.022565,1.57525,5,0.1,3,2.3,1.21325,4.54897,1.18597,-0.0134878,-0.202658,0.167129,0.0139177,0.525087,-0.172816,0.0115777,0.213667,5,0.1,4,2.3,1.78738,1.90698,0.633077,0.426216,0.0536555,0.0179713,-0.616714,0.830375,0.184845,0.0131414,0.255964,5,0.1,5,2.3,0.182647,0.334729,0.584487,-0.198014,0.394446,-0.00383668,0.041117,1.01282,0.0191927,0.016637,2.86099,5,0.1,6,2.3,1.9739,1.60286,0.677642,0.416358,-0.0229966,0.0831276,-0.232957,0.123188,-0.108801,0.00975204,0.3707,5,0.1,7,2.3,1.38954,-2.94556,0.602445,-0.0301374,0.0771608,0.024065,-0.620551,0.769541,-0.0569075,0.0126404,0.574474,5,0.1,8,2.3,1.81574,-2.52184,0.555157,0.866026,0.152929,0.0253335,0,-0.242218,0.00935048,0.00948417,2.26281,5,0.1,9,2.3,4.10961,-3.54363,0.630716,0.0308007,0.604158,-0.0104811,-0.00351667,0.905797,0.00116229,0.0285567,2.59565,5,0.1,10,2.3,3.35565,1.87526,0.593649,-0.854568,0.0706714,0.00601485,0.0501424,-0.0561625,-0.00477582,0.0153038,0.824119,5,0.1,11,2.3,0.410603,-2.60178,0.652413,0.373038,-0.435017,-0.0580151,-0.021778,-0.641659,-0.000409782,0.0105982,2.89534,5,0.1,12,2.3,-1.84597,2.1084,0.559712,0.866025,-0.0645205,0.00984054,1.49012e-05,0.0562668,0.00216067,0.0140008,2.26992,5,0.1,13,2.3,-3.53851,4.09634,0.501056,-0.865824,-0.369614,-0.00777319,0.00806153,0.0829399,0.0394061,0.0122999,1.51818,5,0.1,14,2.3,1.60614,1.64167,0.574439,0.342195,-0.105177,0.0174385,0.0770986,0.00831485,0.00476465,0.0253931,0.137524,5,0.1,15,2.3,-3.16163,-2.73861,0.59141,0.633268,0.127712,0.00483943,-1.20553,-0.696167,-0.0531785,0.00774157,0.699061,5,0.1,16,2.3,0.299007,0.892398,0.629434,0.0163316,0.205907,0.0764479,-0.175348,-0.970449,0.062298,0.0106398,0.38598,5,0.1,17,2.3,-2.13193,1.52957,1.20922,-0.152662,-0.133673,0.182045,0.0938177,0.375278,-0.111796,0.0275646,0.20061,5,0.1,18,2.3,-3.30522,-3.12122,0.591093,0.144639,0.171697,0.0024003,-0.352159,-0.777125,-0.00375882,0.00742983,0.598143,5,0.1,19,2.3,-0.0112784,-2.35889,0.617587,-0.107793,0.559398,-0.0156428,0.174066,0.700891,0.0110008,0.0103166,2.67864,5,0.1,20,2.3,0.254399,1.13072,0.500055,0.00198795,-0.152597,-0.000119023,-0.305144,1.07267,-0.000305474,0.00785999,0.516218,5,0.1,21,2.3,0.270729,-2.7657,0.73228,-0.340994,0.278733,0.0454228,0.381108,-0.838801,0.0654235,0.0070116,0.642502,5,0.1,22,2.3,0.548382,-1.84538,0.5,0.727741,-0.862536,-1.86265e-06,-0.195045,-0.0384897,1.49012e-05,0.0172118,1.98363,5,0.1,23,2.3,-1.16479,-0.259747,1.18257,-0.150013,0.543117,0.170583,0.0496805,-0.233326,-0.175364,0.0314117,0.274635,5,0.1,24,2.3,-3.22743,-5.84289,0.603162,0.300875,-0.00723973,-0.00323793,-0.697777,0.00736117,0.00334904,0.00978555,1.01783,5,0.1,25,2.3,-1.86709,-4.13673,0.844864,-0.0237681,0.66727,0.144865,0.00207126,1.02919,-0.0126772,0.0189879,2.4907,5,0.1,26,2.3,-1.93867,5.24787,0.539239,-0.478521,0.225808,-0.00478243,0.407487,-0.227153,0.0048168,0.0106383,0.12219,5,0.1,27,2.3,4.65839,0.419614,0.500018,-0.231979,-0.223135,-7.46921e-05,0.048846,0.127155,0.000141561,0.00980893,0.162881,5,0.1,28,2.3,2.11336,-1.69315,0.607571,-0.187653,0.753764,-0.00750348,-0.285447,1.01992,0.00795722,0.0282583,2.31057,5,0.1,29,2.3,4.36726,0.375574,0.61418,-0.207195,-0.294166,-0.0184998,0.217348,0.137668,0.00867248,0.0180778,0.0780963,5,0.1
0,2.4,-5.17423,-2.29256,0.594232,0.215423,-0.646359,0.0330582,0.854492,0.0468493,-0.00596046,0.00787348,1.11972,5,0.1,1,2.4,-3.1496,-2.50048,0.611915,0.302869,-0.0270307,-0.010328,-0.656605,0.144124,0.0232458,0.00948215,1.12296,5,0.1,2,2.4,-1.68292,4.02251,0.615366,0.864142,-0.113976,-0.012435,-0.0376105,-0.0553131,0.00622869,0.0215606,1.19885,5,0.1,3,2.4,1.21197,4.53131,1.20184,-0.0121266,-0.151098,0.150219,0.0136495,0.493526,-0.169098,0.0118689,0.356164,5,0.1,4,2.4,1.82698,1.91637,0.635767,0.366387,0.132298,0.0353441,-0.584662,0.716686,0.15685,0.0106092,0.205137,5,0.1,5,2.4,0.16297,0.379236,0.584182,-0.195952,0.494139,-0.00242144,0.0151545,0.921384,0.00980496,0.0151297,2.61506,5,0.1,6,2.4,2.01414,1.60112,0.685297,0.386089,-0.0122994,0.0690326,-0.370026,0.0903606,-0.165433,0.0107112,0.200836,5,0.1,7,2.4,1.38352,-2.9341,0.604571,-0.0888318,0.150323,0.0185117,-0.535131,0.66781,-0.053674,0.0121421,0.456266,5,0.1,8,2.4,1.90234,-2.50769,0.557728,0.866026,0.130612,0.0259817,0,-0.208259,0.00247359,0.0134255,2.26566,5,0.1,9,2.4,4.11267,-3.47863,0.629676,0.0302911,0.694686,-0.0103071,-0.00810623,0.833392,0.00271201,0.0279954,2.36969,5,0.1,10,2.4,3.27064,1.88204,0.594227,-0.842845,0.0649631,0.00552982,0.215173,-0.0596642,-0.0050962,0.014081,0.583713,5,0.1,11,2.4,0.447361,-2.64902,0.646696,0.358032,-0.512969,-0.0555232,-0.267103,-0.831842,0.0472367,0.00972311,2.56423,5,0.1,12,2.4,-1.75937,2.10223,0.560705,0.866026,-0.0588894,0.00999123,-5.96046e-05,0.0579357,0.000327826,0.0143868,2.27032,5,0.1,13,2.4,-3.62498,4.05988,0.500458,-0.862795,-0.358653,-0.00434518,0.0644922,0.14782,0.0289977,0.0117697,1.13689,5,0.1,14,2.4,1.64059,1.63123,0.576199,0.344801,-0.103253,0.017646,-0.0352859,0.0332594,-0.00116229,0.0230767,0.189914,5,0.1,15,2.4,-3.10467,-2.72982,0.591589,0.503492,0.0445604,-0.00154078,-1.35493,-0.911951,-0.0698566,0.00899335,0.357097,5,0.1,16,2.4,0.299894,0.908549,0.637317,0.00265762,0.121292,0.0804186,-0.100598,-0.719517,0.0144243,0.00967702,0.524643,5,0.1,17,2.4,-2.1467,1.51804,1.22684,-0.142562,-0.0974238,0.17001,0.111461,0.34529,-0.133038,0.0275762,0.191184,5,0.1,18,2.4,-3.29271,-3.10844,0.591312,0.1041,0.0802755,0.00197887,-0.439405,-0.995278,-0.00452995,0.00921706,0.0936019,5,0.1,19,2.4,-0.0211827,-2.29916,0.61609,-0.0902709,0.63619,-0.0141859,0.175388,0.757575,0.0177026,0.0120923,2.43037,5,0.1,20,2.4,0.253202,1.121,0.500042,-0.0245742,-0.0412077,-0.000135601,-0.223801,1.11026,-2.98023e-05,0.013531,1.74016,5,0.1,21,2.4,0.238712,-2.74266,0.737224,-0.297782,0.177395,0.0539213,0.474952,-1.12617,0.0942349,0.00716167,0.282302,5,0.1,22,2.4,0.619901,-1.9317,0.5,0.699502,-0.861913,0,-0.382543,0.0822544,0,0.0197044,1.98747,5,0.1,23,2.4,-1.17951,-0.206649,1.19877,-0.143927,0.517913,0.153404,0.0759959,-0.28839,-0.172019,0.0313705,0.192588,5,0.1,24,2.4,-3.2,-5.84358,0.602855,0.255901,-0.00652075,-0.0029102,-0.219464,0.00715256,0.00330806,0.00774839,0.864226,5,0.1,25,2.4,-1.86946,-4.065,0.859265,-0.0234276,0.764012,0.142799,0.00560284,0.840425,-0.0346005,0.0200696,2.3148,5,0.1,26,2.4,-1.98448,5.26933,0.538784,-0.4374,0.203466,-0.00430793,0.425637,-0.224829,0.00473857,0.00980375,0.141624,5,0.1,27,2.4,4.63545,0.397973,0.500011,-0.226343,-0.209188,-5.96046e-05,0.0736713,0.156581,0.000208616,0.0104502,0.61396,5,0.1,28,2.4,2.09328,-1.6134,0.606859,-0.21264,0.833106,-0.00673383,-0.200629,0.544846,0.00762939,0.0282934,1.78327,5,0.1,29,2.4,4.34774,0.346857,0.612374,-0.182176,-0.279777,-0.0175938,0.283957,0.161022,0.0101328,0.0187854,0.144923,5,0.1
0,2.5,-5.14823,-2.357,0.597511,0.305084,-0.642199,0.0325192,0.892729,0.063315,-0.00615418,0.00787348,1.11972,5,0.1,1,2.5,-3.12253,-2.50258,0.610985,0.241622,-0.0160228,-0.00841357,-0.474572,0.0800937,0.0156462,0.00948215,1.12296,5,0.1,2,2.5,-1.59653,4.01076,0.614151,0.86455,-0.121514,-0.0118687,0.0102147,-0.08443,0.00554696,0.0215606,1.19885,5,0.1,3,2.5,1.21082,4.51864,1.21607,-0.0108901,-0.103218,0.134898,0.0114292,0.439197,-0.141747,0.0118689,0.356164,5,0.1,4,2.5,1.86098,1.93313,0.640054,0.315916,0.201797,0.0499919,-0.439256,0.649199,0.131823,0.0106092,0.205137,5,0.1,5,2.5,0.142998,0.433428,0.583947,-0.207102,0.589904,-0.00264021,-0.202237,0.935303,-0.0117309,0.0151297,2.61506,5,0.1,6,2.5,2.05136,1.60029,0.69133,0.362018,-0.00491049,0.0513446,-0.14478,0.0572428,-0.182025,0.0107112,0.200836,5,0.1,7,2.5,1.37198,-2.91572,0.606161,-0.141381,0.216603,0.0133686,-0.497006,0.631034,-0.0487417,0.0121421,0.456266,5,0.1,8,2.5,1.98894,-2.49557,0.560346,0.866025,0.112728,0.026402,0,-0.154734,0.00437722,0.0134255,2.26566,5,0.1,9,2.5,4.11567,-3.40495,0.628655,0.0297837,0.77775,-0.0101373,-0.00372529,0.770867,0.00125915,0.0279954,2.36969,5,0.1,10,2.5,3.18729,1.88826,0.594756,-0.82455,0.0595102,0.00506416,0.186533,-0.0513569,-0.00438839,0.014081,0.583713,5,0.1,11,2.5,0.481644,-2.7052,0.641424,0.325932,-0.61545,-0.0495323,-0.369439,-1.12642,0.0705831,0.00972311,2.56423,5,0.1,12,2.5,-1.67277,2.0966,0.56171,0.866025,-0.0539105,0.0101293,1.49012e-05,0.0440627,0.00176579,0.0143868,2.27032,5,0.1,13,2.5,-3.71121,4.02469,0.500151,-0.863183,-0.345316,-0.00198744,-0.025034,0.132531,0.0184178,0.0117697,1.13689,5,0.1,14,2.5,1.67504,1.62106,0.577957,0.345326,-0.100109,0.0175044,0.0233501,0.0333115,-0.00231713,0.0230767,0.189914,5,0.1,15,2.5,-3.06078,-2.73019,0.591063,0.377391,-0.0535186,-0.00909539,-1.16554,-1.00647,-0.0776239,0.00899335,0.357097,5,0.1,16,2.5,0.299625,0.917975,0.645299,-0.00821324,0.0751683,0.0780032,-0.111889,-0.2423,-0.0580214,0.00967702,0.524643,5,0.1,17,2.5,-2.16042,1.50994,1.2432,-0.131738,-0.065404,0.157091,0.108227,0.292309,-0.129126,0.0275762,0.191184,5,0.1,18,2.5,-3.28415,-3.10445,0.59149,0.0700314,0.00823811,0.00159778,-0.255033,-0.479877,-0.0031963,0.00921706,0.0936019,5,0.1,19,2.5,-0.0293691,-2.23125,0.614763,-0.0738069,0.724871,-0.012335,0.15444,0.935227,0.0191629,0.0120923,2.43037,5,0.1,20,2.5,0.249487,1.12128,0.500029,-0.0506978,0.0364939,-0.000125729,-0.282102,0.483803,0.000201166,0.013531,1.74016,5,0.1,21,2.5,0.210701,-2.73034,0.743253,-0.267584,0.0714198,0.0679197,0.164983,-0.979125,0.170127,0.00716167,0.282302,5,0.1,22,2.5,0.687196,-2.01782,0.5,0.639751,-0.862314,0,-0.781912,-0.0395477,0,0.0197044,1.98747,5,0.1,23,2.5,-1.19354,-0.156167,1.21331,-0.136849,0.492549,0.137809,0.0703558,-0.239182,-0.144385,0.0313705,0.192588,5,0.1,24,2.5,-3.17458,-5.84419,0.602579,0.260307,-0.00586957,-0.0026105,0.245288,0.00607967,0.00277162,0.00774839,0.864226,5,0.1,25,2.5,-1.87178,-3.98494,0.873429,-0.0231089,0.831332,0.140821,0.00210851,0.488922,-0.0131801,0.0200696,2.3148,5,0.1,26,2.5,-2.02644,5.28873,0.538374,-0.404558,0.185786,-0.00393502,0.257798,-0.140905,0.00297278,0.00980375,0.141624,5,0.1,27,2.5,4.61318,0.377994,0.500006,-0.218949,-0.188997,-4.04194e-05,0.0813603,0.240957,0.000178814,0.0104502,0.61396,5,0.1,28,2.5,2.07101,-1.52826,0.606221,-0.232426,0.862549,-0.0060495,-0.180289,0.110686,0.00626594,0.0282934,1.78327,5,0.1,29,2.5,4.33105,0.319714,0.610667,-0.150511,-0.262651,-0.016516,0.346541,0.185911,0.0117011,0.0187854,0.144923,5,0.1
0,2.6,-5.11351,-2.4207,0.600723,0.386083,-0.629187,0.0316039,0.694036,0.215173,-0.0130236,0.00881648,0.824571,5,0.1,1,2.6,-3.1,-2.50386,0.610213,0.216454,-0.0102699,-0.00709295,-0.0375509,0.0383854,0.0112951,0.0128135,0.709681,5,0.1,2,2.6,-1.51017,3.99821,0.612994,0.860703,-0.128955,-0.0112504,-0.106573,-0.0565052,0.00715256,0.0152001,0.883241,5,0.1,3,2.6,1.20979,4.51027,1.22887,-0.00977814,-0.0668406,0.121114,0.0110865,0.277281,-0.137091,0.0124451,0.515293,5,0.1,4,2.6,1.89051,1.95629,0.645643,0.27599,0.258076,0.0609979,-0.370204,0.459909,0.0854731,0.0118885,0.177655,5,0.1,5,2.6,0.121161,0.496724,0.583605,-0.230095,0.671205,-0.00433177,-0.230499,0.649333,-0.0201166,0.00959712,2.4775,5,0.1,6,2.6,2.08698,1.60003,0.695569,0.351298,-0.0007689,0.033702,-0.0947714,0.0266433,-0.166357,0.00722135,0.205925,5,0.1,7,2.6,1.35554,-2.89115,0.607265,-0.18504,0.271988,0.00883937,-0.363111,0.458002,-0.0414848,0.0151241,1.92868,5,0.1,8,2.6,2.07554,-2.48502,0.563001,0.866026,0.0987172,0.0265896,0,-0.129223,-0.00166893,0.0104482,2.26723,5,0.1,9,2.6,4.11862,-3.3238,0.627649,0.029254,0.839829,-0.00995845,-0.00810623,0.437379,0.00274181,0.0333701,2.28905,5,0.1,10,2.6,3.10596,1.89395,0.59524,-0.799495,0.0543594,0.00462383,0.339031,-0.0531077,-0.00452995,0.014037,0.403333,5,0.1,11,2.6,0.51226,-2.77224,0.636848,0.285217,-0.722426,-0.0417739,-0.439614,-0.946283,0.0828803,0.0102078,2.34605,5,0.1,12,2.6,-1.58617,2.09142,0.56273,0.866026,-0.0496566,0.0102311,-5.96046e-05,0.0427961,-0.000208616,0.0146786,2.27061,5,0.1,13,2.6,-3.79749,3.99089,0.500029,-0.859892,-0.329864,-0.000600517,0.122428,0.185966,0.00971556,0.0108803,0.821718,5,0.1,14,2.6,1.70964,1.61124,0.57969,0.345632,-0.0959724,0.0170738,-0.033319,0.0519156,-0.00670552,0.0220852,0.138193,5,0.1,15,2.6,-3.02854,-2.74044,0.589777,0.270587,-0.14925,-0.0164405,-0.970125,-0.876546,-0.066638,0.00754122,0.251776,5,0.1,16,2.6,0.298259,0.9248,0.652722,-0.0188641,0.065735,0.0696898,-0.0974983,0.0219643,-0.104129,0.0101709,0.474074,5,0.1,17,2.6,-2.17303,1.50476,1.25824,-0.120401,-0.0393838,0.143558,0.120878,0.226676,-0.144005,0.0252147,0.406249,5,0.1,18,2.6,-3.27821,-3.1054,0.591635,0.0507414,-0.0219226,0.00132024,-0.140905,-0.151396,-0.00241399,0.00894243,0.0461689,5,0.1,19,2.6,-0.0360087,-2.15434,0.613626,-0.0592865,0.809455,-0.0103816,0.136381,0.699162,0.0197589,0.0116188,2.30792,5,0.1,20,2.6,0.243022,1.12659,0.500018,-0.07811,0.0628948,-9.98378e-05,-0.253864,0.0776052,0.000298023,0.00831139,0.380528,5,0.1,21,2.6,0.1845,-2.72775,0.750915,-0.258424,-0.0160813,0.0852212,0.045858,-0.761747,0.164211,0.0120976,0.47031,5,0.1,22,2.6,0.746814,-2.10411,0.5,0.548778,-0.861275,0,-1.01152,0.0948906,0,0.0161635,1.19013,5,0.1,23,2.6,-1.20685,-0.108162,1.22638,-0.129053,0.466634,0.123754,0.0888109,-0.293244,-0.139832,0.0306211,0.448362,5,0.1,24,2.6,-3.14697,-5.84475,0.602332,0.293952,-0.00528097,-0.00234097,0.379682,0.00596046,0.00268221,0.00732167,0.691628,5,0.1,25,2.6,-1.87408,-3.90002,0.887425,-0.0227779,0.860739,0.13876,0.00560284,0.105739,-0.0338256,0.0198861,2.26116,5,0.1,26,2.6,-2.06571,5.30666,0.537994,-0.381225,0.173175,-0.00366867,0.228524,-0.120401,0.002563,0.011576,0.0825198,5,0.1,27,2.6,4.59175,0.360394,0.500003,-0.208902,-0.162172,-2.5332e-05,0.124693,0.290036,0.000149012,0.0103213,0.814779,5,0.1,28,2.6,2.047,-1.44174,0.605647,-0.246197,0.866026,-0.00544339,-0.0849962,-5.96046e-05,0.00599027,0.0271024,1.34855,5,0.1,29,2.6,4.31781,0.294448,0.609078,-0.113666,-0.241901,-0.0152096,0.384808,0.231609,0.0145435,0.0193794,0.201166,5,0.1
0,2.7,-5.07145,-2.4826,0.603821,0.454038,-0.608746,0.0303799,0.629574,0.215665,-0.0125468,0.00881648,0.824571,5,0.1,1,2.7,-3.07779,-2.50476,0.609552,0.233872,-0.00818335,-0.00620494,0.33091,0.0064224,0.00693277,0.0128135,0.709681,5,0.1,2,2.7,-1.4244,3.98501,0.611903,0.855788,-0.135226,-0.010592,-0.037387,-0.0602901,0.00638142,0.0152001,0.883241,5,0.1,3,2.7,1.20886,4.50476,1.24034,-0.00877921,-0.0467271,0.108752,0.00920147,0.0826716,-0.113845,0.0124451,0.515293,5,0.1,4,2.7,1.91646,1.98435,0.652143,0.244718,0.302362,0.0686442,-0.267848,0.403643,0.0640862,0.0118885,0.177655,5,0.1,5,2.7,0.0967399,0.566939,0.583152,-0.260071,0.730619,-0.0040397,-0.336498,0.501949,0.0216737,0.00959712,2.4775,5,0.1,6,2.7,2.12194,1.60005,0.698156,0.350175,0.000943989,0.0186046,0.0416934,0.00891089,-0.132937,0.00722135,0.205925,5,0.1,7,2.7,1.3353,-2.86129,0.607989,-0.21862,0.327602,0.00606915,-0.295036,0.606254,-0.016015,0.0151241,1.92868,5,0.1,8,2.7,2.16215,-2.47571,0.565659,0.866026,0.088099,0.0266204,0,-0.0882894,0.00077486,0.0104482,2.26723,5,0.1,9,2.7,4.12152,-3.23835,0.626662,0.0287518,0.863307,-0.00978848,-0.00357628,0.0871271,0.00122562,0.0333701,2.28905,5,0.1,10,2.7,3.02759,1.89914,0.595682,-0.76845,0.0495221,0.00421107,0.311062,-0.0452697,-0.00386685,0.014037,0.403333,5,0.1,11,2.7,0.538594,-2.84884,0.633089,0.241586,-0.804948,-0.0333826,-0.43162,-0.671342,0.0838079,0.0102078,2.34605,5,0.1,12,2.7,-1.49956,2.08664,0.563756,0.866025,-0.0461947,0.0103105,1.49012e-05,0.0289828,0.00114739,0.0146786,2.27061,5,0.1,13,2.7,-3.88305,3.95877,0.500007,-0.852059,-0.31272,7.24569e-05,0.0764132,0.16807,0.00412017,0.0108803,0.821718,5,0.1,14,2.7,1.74412,1.60189,0.581364,0.34423,-0.0910824,0.0164182,-0.0125319,0.048928,-0.00694767,0.0220852,0.138193,5,0.1,15,2.7,-3.0058,-2.75966,0.587807,0.189145,-0.233498,-0.0228296,-0.673547,-0.781178,-0.0588931,0.00754122,0.251776,5,0.1,16,2.7,0.296097,0.931667,0.65921,-0.022516,0.0730413,0.0604116,0.0148453,0.109319,-0.0835396,0.0101709,0.474074,5,0.1,17,2.7,-2.18448,1.50192,1.27189,-0.108668,-0.0179468,0.129577,0.115782,0.192456,-0.138,0.0252147,0.406249,5,0.1,18,2.7,-3.27368,-3.1079,0.591756,0.0413869,-0.0241663,0.00111479,-0.0550598,0.0817925,-0.00175834,0.00894243,0.0461689,5,0.1,19,2.7,-0.041305,-2.0707,0.612683,-0.047101,0.855811,-0.00851266,0.108666,0.24949,0.0176653,0.0116188,2.30792,5,0.1,20,2.7,0.234092,1.13381,0.500009,-0.0989605,0.0859564,-6.86385e-05,-0.161706,0.34418,0.00031665,0.00831139,0.380528,5,0.1,21,2.7,0.159041,-2.73194,0.760012,-0.249225,-0.056611,0.0944408,0.137298,-0.102818,0.0272989,0.0120976,0.47031,5,0.1,22,2.7,0.79641,-2.18981,0.5,0.441518,-0.852385,0,-1.10956,0.11754,0,0.0161635,1.19013,5,0.1,23,2.7,-1.21934,-0.0632262,1.2381,-0.120795,0.429641,0.111138,0.0803173,-0.439828,-0.116259,0.0306211,0.448362,5,0.1,24,2.7,-3.1153,-5.84525,0.60211,0.342209,-0.00474304,-0.00209911,0.537932,0.00494719,0.002224,0.00732167,0.691628,5,0.1,25,2.7,-1.87634,-3.81362,0.901189,-0.0224665,0.865695,0.136886,0.00196695,0.0132173,-0.0117607,0.0198861,2.26116,5,0.1,26,2.7,-2.10283,5.32345,0.537638,-0.362259,0.163175,-0.00345549,0.168324,-0.0876188,0.00186637,0.011576,0.0825198,5,0.1,27,2.7,4.57142,0.345825,0.500001,-0.198197,-0.127603,-1.30385e-05,0.098139,0.386484,9.68575e-05,0.0103213,0.814779,5,0.1,28,2.7,2.0221,-1.35515,0.60513,-0.250274,0.865742,-0.00490723,0.00675768,-0.0113174,0.00491366,0.0271024,1.34855,5,0.1,29,2.7,4.30839,0.271383,0.607628,-0.074812,-0.21961,-0.0138092,0.38448,0.219194,0.0137724,0.0193794,0.201166,5,0.1
0,2.8,-5.02324,-2.54225,0.60679,0.506032,-0.582373,0.0289127,0.385761,0.326753,-0.0175536,0.00977712,0.581442,5,0.1,1,2.8,-3.05251,-2.50558,0.608962,0.272948,-0.0084281,-0.00562072,0.408888,-0.00882149,0.00503659,0.00967848,0.23441,5,0.1,2,2.8,-1.3392,3.97123,0.610877,0.845465,-0.139546,-0.00991076,-0.200987,-0.019908,0.00751019,0.0187896,0.628053,5,0.1,3,2.8,1.20803,4.5,1.25066,-0.00788867,-0.0532508,0.0977159,0.00888109,-0.200033,-0.109613,0.0118182,0.669855,5,0.1,4,2.8,1.93968,2.01637,0.65927,0.220227,0.335085,0.073263,-0.231445,0.235915,0.0261664,0.0171,1.29632,5,0.1,5,2.8,0.069095,0.64202,0.582896,-0.291764,0.765459,-0.00076592,-0.27358,0.170499,0.0403821,0.00916079,2.3726,5,0.1,6,2.8,2.15719,1.60017,0.699424,0.354344,0.00124872,0.00749826,0.0190735,-0.00160933,-0.0880063,0.00712327,0.199907,5,0.1,7,2.8,1.31217,-2.82558,0.608544,-0.241822,0.384915,0.00525713,-0.160098,0.504971,-0.00190735,0.0139175,1.14271,5,0.1,8,2.8,2.24875,-2.46731,0.568319,0.866026,0.0801682,0.0264883,0,-0.0742674,-0.00450015,0.0148667,1.97429,5,0.1,9,2.8,4.12437,-3.15181,0.625691,0.0282526,0.866026,-0.00961721,-0.00739098,0,0.0025928,0.0304136,2.27137,5,0.1,10,2.8,2.95245,1.90387,0.596084,-0.732374,0.0450253,0.00382811,0.430346,-0.0457764,-0.0039041,0.0125201,0.274063,5,0.1,11,2.8,0.560618,-2.93205,0.630164,0.199169,-0.852501,-0.0252128,-0.415325,-0.270486,0.0786483,0.00919776,2.27794,5,0.1,12,2.8,-1.41296,2.08216,0.56479,0.866026,-0.043422,0.0103489,-5.96046e-05,0.0282526,-0.000804663,0.0141222,2.27078,5,0.1,13,2.8,-3.96766,3.92838,0.500028,-0.837475,-0.294369,0.000292063,0.244737,0.20659,0.000596046,0.0106984,0.581635,5,0.1,14,2.8,1.77839,1.59304,0.582968,0.340104,-0.0856757,0.0155941,-0.082314,0.0612736,-0.00983477,0.0242267,0.1985,5,0.1,15,2.8,-2.98987,-2.78657,0.585258,0.133139,-0.300902,-0.0278413,-0.458837,-0.548482,-0.0397861,0.0076435,0.19233,5,0.1,16,2.8,0.294039,0.939561,0.664853,-0.017634,0.0849962,0.0526145,0.0750422,0.118524,-0.0739396,0.0104657,0.621868,5,0.1,17,2.8,-2.19477,1.50097,1.28415,-0.0969172,-0.00235736,0.115567,0.12064,0.114202,-0.143707,0.0237043,0.544225,5,0.1,18,2.8,-3.26973,-3.10969,0.59186,0.0381708,-0.00993013,0.000956655,-0.015974,0.183821,-0.00143051,0.00914848,0.0285366,5,0.1,19,2.8,-0.0455086,-1.9844,0.611917,-0.0373118,0.866026,-0.00684261,0.0881981,-5.96046e-05,0.0157654,0.0116268,2.27164,5,0.1,20,2.8,0.223548,1.1443,0.500004,-0.110288,0.12477,-3.8743e-05,-0.0646412,0.401855,0.000268221,0.00866665,0.33323,5,0.1,21,2.8,0.134949,-2.73739,0.769416,-0.231214,-0.0464201,0.0920191,0.221238,0.262976,-0.0694692,0.012229,0.366788,5,0.1,22,2.8,0.835017,-2.27419,0.5,0.331147,-0.831968,0,-1.07917,0.313997,0,0.0170195,0.644381,5,0.1,23,2.8,-1.23101,-0.0226548,1.24865,-0.112319,0.380017,0.0998586,0.0918508,-0.545943,-0.111938,0.0317649,0.656373,5,0.1,24,2.8,-3.07845,-5.8457,0.601911,0.393307,-0.00425577,-0.001885,0.4493,0.00476837,0.00217557,0.00830348,0.534341,5,0.1,25,2.8,-1.87857,-3.72702,0.914801,-0.022155,0.866026,0.135018,0.005126,0,-0.0314116,0.0220718,2.27866,5,0.1,26,2.8,-2.1382,5.33933,0.537302,-0.344568,0.154281,-0.00326633,0.198007,-0.0963211,0.00208616,0.0116665,0.0645379,5,0.1,27,2.8,4.5521,0.335055,0.5,-0.18779,-0.0875264,-5.96046e-06,0.116348,0.403404,8.9407e-05,0.0101215,0.203575,5,0.1,28,2.8,1.99728,-1.26872,0.604663,-0.244388,0.861493,-0.00443161,0.112355,-0.0906587,0.00473857,0.0266389,1.01886,5,0.1,29,2.8,4.30276,0.25053,0.606317,-0.0385761,-0.197242,-0.0124022,0.329971,0.231408,0.0145435,0.019066,0.32749,5,0.1
0,2.9,-4.97078,-2.59893,0.609598,0.541964,-0.551573,0.0272685,0.304997,0.307471,-0.0162311,0.00977712,0.581442,5,0.1,1,2.9,-3.02319,-2.50649,0.60842,0.312708,-0.0100769,-0.00525024,0.36411,-0.0217855,0.00274181,0.00967848,0.23441,5,0.1,2,2.9,-1.25551,3.95717,0.609921,0.828722,-0.14169,-0.00921898,-0.170551,-0.0161082,0.00663102,0.0187896,0.628053,5,0.1,3,2.9,1.20728,4.49337,1.25993,-0.00709128,-0.0817418,0.087868,0.00730902,-0.34225,-0.0904202,0.0118182,0.669855,5,0.1,4,2.9,1.9615,2.04985,0.666538,0.224044,0.323962,0.0704247,0.246018,-0.402987,-0.0747479,0.0171,1.29632,5,0.1,5,2.9,0.0385047,0.719826,0.583037,-0.31991,0.79317,0.00369921,-0.266454,0.322208,0.0467002,0.00916079,2.3726,5,0.1,6,2.9,2.19293,1.60031,0.699773,0.361788,0.00153184,4.53554e-05,0.101686,0.00627339,-0.0541918,0.00712327,0.199907,5,0.1,7,2.9,1.28718,-2.78426,0.60907,-0.257694,0.443223,0.00533629,-0.142276,0.61132,0.00272691,0.0139175,1.14271,5,0.1,8,2.9,2.33535,-2.45961,0.570952,0.866026,0.0742588,0.0261866,0,-0.0482947,-0.00283867,0.0148667,1.97429,5,0.1,9,2.9,4.12717,-3.06521,0.624738,0.027819,0.866026,-0.00946289,-0.00292063,0,0.00105426,0.0304136,2.27137,5,0.1,10,2.9,2.88123,1.90816,0.596448,-0.692482,0.0408698,0.00347383,0.391543,-0.0386983,-0.00330061,0.0125201,0.274063,5,0.1,11,2.9,0.578548,-3.01813,0.628024,0.160299,-0.86518,-0.0177183,-0.363015,-0.0338107,0.0705905,0.00919776,2.27794,5,0.1,12,2.9,-1.32636,2.07793,0.565825,0.866025,-0.0413198,0.0103688,1.49012e-05,0.0163168,0.000573695,0.0141222,2.27078,5,0.1,13,2.9,-4.05032,3.90013,0.500058,-0.815953,-0.269242,0.00027772,0.219747,0.291586,-0.000752509,0.0106984,0.581635,5,0.1,14,2.9,1.8122,1.58476,0.58448,0.337498,-0.0799529,0.0146587,0.00598282,0.0557303,-0.00931695,0.0242267,0.1985,5,0.1,15,2.9,-2.97853,-2.81931,0.582282,0.0964619,-0.352279,-0.0315454,-0.286072,-0.456125,-0.0324249,0.0076435,0.19233,5,0.1,16,2.9,0.292665,0.94895,0.669725,-0.00978797,0.105078,0.0446678,0.0794437,0.257421,-0.0836067,0.0104657,0.621868,5,0.1,17,2.9,-2.20386,1.50125,1.295,-0.0849303,0.00706241,0.101285,0.119492,0.0553727,-0.142381,0.0237043,0.544225,5,0.1,18,2.9,-3.26593,-3.10962,0.591949,0.0383142,0.0125263,0.000830181,0.0133067,0.249162,-0.00113249,0.00914848,0.0285366,5,0.1,19,2.9,-0.0488434,-1.89779,0.611306,-0.0297892,0.866025,-0.0054257,0.0638696,1.49012e-05,0.0127107,0.0116268,2.27164,5,0.1,20,2.9,0.212214,1.15893,0.500001,-0.116094,0.168638,-1.67638e-05,-0.0461377,0.448853,0.000171363,0.00866665,0.33323,5,0.1,21,2.9,0.112972,-2.74018,0.778165,-0.207939,-0.00489242,0.0820482,0.244332,0.527218,-0.124872,0.012229,0.366788,5,0.1,22,2.9,0.862894,-2.35574,0.5,0.228368,-0.797641,0,-0.961073,0.391021,0,0.0170195,0.644381,5,0.1,23,2.9,-1.2418,0.012418,1.25812,-0.103823,0.319805,0.0897961,0.0813827,-0.644234,-0.0924394,0.0317649,0.656373,5,0.1,24,2.9,-3.03675,-5.84611,0.601732,0.440747,-0.00382513,-0.00169016,0.46283,0.00393391,0.00178069,0.00830348,0.534341,5,0.1,25,2.9,-1.8808,-3.64042,0.927955,-0.0228412,0.866026,0.126348,-0.0154078,0,-0.134394,0.0220718,2.27866,5,0.1,26,2.9,-2.17182,5.35435,0.536984,-0.328867,0.146674,-0.0031014,0.134185,-0.0641048,0.00138953,0.0116665,0.0645379,5,0.1,27,2.9,4.53386,0.328203,0.5,-0.177445,-0.0507261,3.72529e-07,0.0975728,0.331169,3.72529e-05,0.0101215,0.203575,5,0.1,28,2.9,1.97369,-1.18274,0.604242,-0.224665,0.859529,-0.00400776,0.269957,0.00214577,0.00387803,0.0266389,1.01886,5,0.1,29,2.9,4.30038,0.231962,0.605139,-0.0110999,-0.174115,-0.0112428,0.206828,0.232057,0.00936165,0.019066,0.32749,5,0.1
0,3,-4.91537,-2.65246,0.61224,0.562382,-0.517821,0.0255138,0.0844002,0.379801,-0.0194311,0.00930639,0.396791,5,0.1,1,3,-2.99032,-2.50761,0.607908,0.342041,-0.0123799,-0.00500679,0.207305,-0.0224113,0.00238419,0.0115822,0.167318,5,0.1,2,3,-1.17369,3.94297,0.609033,0.805166,-0.141615,-0.0085324,-0.325799,0.0225306,0.00733137,0.0144732,0.435133,5,0.1,3,3,1.20661,4.48344,1.26827,-0.00638366,-0.116873,0.0791043,0.00703335,-0.33927,-0.0869632,0.0140194,0.650615,5,0.1,4,3,1.9855,2.07956,0.673096,0.258502,0.264537,0.0598073,0.395417,-0.74029,-0.130862,0.0184308,1.6418,5,0.1,5,3,0.00534694,0.800591,0.583636,-0.341177,0.819345,0.00818819,-0.142987,0.157237,0.0414848,0.0115546,2.28513,5,0.1,6,3,2.22956,1.6005,0.699601,0.369847,0.00232458,-0.00245273,0.0393391,0.0089407,0.00631809,0.042158,3.52754,5,0.1,7,3,1.26083,-2.73704,0.609619,-0.267741,0.498593,0.00566989,-0.0484586,0.460029,0.00336766,0.0125937,0.693894,5,0.1,8,3,2.42195,-2.45241,0.57355,0.866026,0.0697553,0.0257,0,-0.0449419,-0.00780821,0.00932405,1.54753,5,0.1,9,3,4.12994,-2.97861,0.623798,0.0273943,0.866026,-0.00931174,-0.00691414,0,0.00235438,0.0225231,2.2714,5,0.1,10,3,2.81404,1.91206,0.596779,-0.650024,0.0370532,0.00314713,0.473976,-0.0386238,-0.00324845,0.01132,0.210184,5,0.1,11,3,0.592843,-3.10471,0.626588,0.126395,-0.866026,-0.0112027,-0.315875,0,0.0592768,0.0111742,2.27118,5,0.1,12,3,-1.23976,2.07388,0.566863,0.866026,-0.0397205,0.0103548,-5.96046e-05,0.0175238,-0.0013113,0.013868,2.2717,5,0.1,13,3,-4.13063,3.87478,0.50008,-0.787795,-0.236911,0.000165403,0.366688,0.350833,-0.0013411,0.0100932,0.410791,5,0.1,14,3,1.84596,1.57706,0.585897,0.337133,-0.0741035,0.0136554,-0.0308752,0.0630021,-0.0110567,0.0199522,0.146767,5,0.1,15,3,-2.97011,-2.85651,0.57899,0.0738621,-0.388324,-0.0340149,-0.174999,-0.249386,-0.0157952,0.00738345,0.161662,5,0.1,16,3,0.292074,0.9608,0.673768,-0.00216886,0.131977,0.0361472,0.0711381,0.261158,-0.0856519,0.0120633,0.355182,5,0.1,17,3,-2.21175,1.50203,1.30441,-0.072974,0.00623167,0.0870317,0.119925,-0.0780225,-0.142872,0.0237721,0.997103,5,0.1,18,3,-3.26202,-3.10712,0.592026,0.0398755,0.0371277,0.000724196,0.0141859,0.231266,-0.00101328,0.00756041,0.466467,5,0.1,19,3,-0.0515323,-1.81119,0.610823,-0.0242475,0.866026,-0.00427663,0.0482518,-5.96046e-05,0.0103712,0.0127155,2.27172,5,0.1,20,3,0.20044,1.17794,0.5,-0.118632,0.209954,-4.47035e-06,-0.00111759,0.358343,8.9407e-05,0.00790462,0.301396,5,0.1,21,3,0.0934373,-2.73787,0.785689,-0.182387,0.0518858,0.0679716,0.26622,0.57745,-0.152469,0.0124321,0.300982,5,0.1,22,3,0.881221,-2.4333,0.5,0.141382,-0.750768,0,-0.769407,0.55778,0,0.01444,3.26532,5,0.1,23,3,-1.25177,0.0411122,1.26665,-0.0954837,0.253718,0.0808328,0.087738,-0.666111,-0.0889301,0.0345935,0.652403,5,0.1,24,3,-2.99059,-5.84647,0.601572,0.479627,-0.00344515,-0.00151694,0.289083,0.0038147,0.00166893,0.0105257,0.392431,5,0.1,25,3,-1.88318,-3.55382,0.9398,-0.0246346,0.866026,0.109544,-0.0178814,0,-0.195265,0.0209248,2.01678,5,0.1,26,3,-2.20402,5.36869,0.536681,-0.314647,0.140047,-0.00295937,0.163198,-0.074625,0.00160933,0.0123482,0.0294675,5,0.1,27,3,4.51662,0.324657,0.5,-0.167072,-0.0214979,1.49012e-06,0.114679,0.252798,2.98023e-05,0.0113759,0.356547,5,0.1,28,3,1.95275,-1.09696,0.60386,-0.192645,0.853533,-0.00362992,0.360191,-0.15676,0.00375509,0.0256423,0.694713,5,0.1,29,3,4.3,0.215717,0.604058,0,-0.150704,-0.010404,0,0.236504,0.00795722,0.017568,0.485546,5,0.1
0,3.1,-4.85875,-2.70244,0.614699,0.56904,-0.482354,0.0237062,0.0262558,0.344783,-0.0174753,0.00930639,0.396791,5,0.1,1,3.1,-2.95512,-2.50897,0.607416,0.36117,-0.0148661,-0.00483962,0.157699,-0.0255108,0.00125542,0.0115822,0.167318,5,0.1,2,3.1,-1.09468,3.92891,0.608214,0.775443,-0.1395,-0.00785906,-0.29853,0.025332,0.0063926,0.0144732,0.435133,5,0.1,3,3.1,1.206,4.47042,1.27578,-0.0057539,-0.13996,0.0713103,0.0057593,-0.131637,-0.071466,0.0140194,0.650615,5,0.1,4,3.1,2.01328,2.10185,0.678354,0.296001,0.1779,0.0448039,0.335447,-0.951752,-0.163257,0.0184308,1.6418,5,0.1,5,3.1,-0.0290992,0.883604,0.584628,-0.344039,0.84246,0.0113196,0.0793315,0.251513,0.0217222,0.0115546,2.28513,5,0.1,6,3.1,2.26527,1.60094,0.699499,0.331574,0.0080375,0.00134949,-0.727877,0.0942275,0.0633746,0.042158,3.52754,5,0.1,7,3.1,1.23355,-2.68523,0.610182,-0.279666,0.5339,0.00540642,-0.161439,0.234008,-0.00764802,0.0125937,0.693894,5,0.1,8,3.1,2.50855,-2.44563,0.576085,0.865921,0.0661533,0.0250173,-0.00418723,-0.0305623,-0.00690296,0.00932405,1.54753,5,0.1,9,3.1,4.13265,-2.892,0.622875,0.0270054,0.866026,-0.00917874,-0.0025034,0,0.000849366,0.0225231,2.2714,5,0.1,10,3.1,2.75127,1.91574,0.597079,-0.606131,0.0380032,0.00285264,0.423864,0.0466108,-0.00273436,0.01132,0.210184,5,0.1,11,3.1,0.604007,-3.19132,0.625749,0.0978837,-0.866026,-0.00573462,-0.256337,0,0.0496693,0.0111742,2.27118,5,0.1,12,3.1,-1.15315,2.06987,0.567891,0.866025,-0.0416603,0.0102007,1.49012e-05,-0.0470132,-0.00211224,0.013868,2.2717,5,0.1,13,3.1,-4.20769,3.85297,0.50009,-0.753993,-0.198156,3.95812e-05,0.337124,0.412464,-0.00115857,0.0100932,0.410791,5,0.1,14,3.1,1.87963,1.56994,0.58721,0.336691,-0.0682667,0.0126205,0.00293553,0.0558645,-0.010021,0.0199522,0.146767,5,0.1,15,3.1,-2.96354,-2.89659,0.575509,0.0579633,-0.412619,-0.0355558,-0.144005,-0.21328,-0.0131391,0.00738345,0.161662,5,0.1,16,3.1,0.292098,0.975496,0.676912,0.00164257,0.163231,0.0264086,0.0102296,0.338528,-0.105277,0.0120633,0.355182,5,0.1,17,3.1,-2.21847,1.50219,1.31242,-0.0615656,-0.00555273,0.0734363,0.108778,-0.222661,-0.129655,0.0237721,0.997103,5,0.1,18,3.1,-3.25875,-3.10311,0.592125,0.0188328,0.0357032,0.00149924,-0.386924,-0.213891,0.014551,0.00756041,0.466467,5,0.1,19,3.1,-0.0537494,-1.72459,0.610442,-0.0203908,0.866025,-0.00338573,0.0305041,1.49012e-05,0.00761449,0.0127155,2.27172,5,0.1,20,3.1,0.188504,1.20074,0.5,-0.120535,0.24559,1.11759e-06,-0.0278447,0.334181,2.98023e-05,0.00790462,0.301396,5,0.1,21,3.1,0.0765066,-2.72962,0.791698,-0.156441,0.113914,0.0520301,0.253338,0.632808,-0.162769,0.0124321,0.300982,5,0.1,22,3.1,0.891544,-2.50598,0.5,0.067071,-0.705896,0,-0.653092,0.37764,0,0.01444,3.26532,5,0.1,23,3.1,-1.26091,0.0631993,1.27432,-0.0874158,0.188697,0.0728577,0.0763983,-0.625995,-0.0731498,0.0345935,0.652403,5,0.1,24,3.1,-2.94117,-5.8468,0.601428,0.508184,-0.00310242,-0.00136746,0.25329,0.00315905,0.00136718,0.0105257,0.392431,5,0.1,25,3.1,-1.88575,-3.46722,0.949718,-0.0269646,0.866026,0.0883402,-0.0258908,0,-0.223421,0.0209248,2.01678,5,0.1,26,3.1,-2.23469,5.38234,0.536393,-0.298779,0.132887,-0.00280552,0.163734,-0.0730157,0.00156462,0.0123482,0.0294675,5,0.1,27,3.1,4.50026,0.323749,0.500001,-0.161816,0.00298005,2.70084e-06,0.00798702,0.231516,-3.72529e-06,0.0113759,0.356547,5,0.1,28,3.1,1.93537,-1.01223,0.603515,-0.15445,0.841629,-0.00329381,0.395037,-0.120681,0.00308082,0.0256423,0.694713,5,0.1,29,3.1,4.3,0.20181,0.603062,0,-0.127626,-0.00945404,0,0.225071,0.0108853,0.017568,0.485546,5,0.1
0,3.2,-4.80196,-2.74891,0.616981,0.563896,-0.446308,0.0218928,-0.143766,0.386477,-0.0193417,0.00894054,0.265296,5,0.1,1,3.2,-2.91841,-2.51058,0.606939,0.370657,-0.0171781,-0.00470579,0.0203848,-0.0194311,0.00160933,0.00977536,0.114696,5,0.1,2,3.2,-1.01878,3.91513,0.60746,0.740442,-0.135624,-0.00721067,-0.421852,0.0561476,0.00676513,0.0187789,0.296115,5,0.1,3,3.2,1.20545,4.45605,1.28256,-0.00519156,-0.144923,0.064373,0.00548363,0.0243187,-0.0690222,0.0134576,0.891808,5,0.1,4,3.2,2.04433,2.11481,0.682005,0.322396,0.0813782,0.0282109,0.179648,-0.947475,-0.163943,0.0153856,1.42557,5,0.1,5,3.2,-0.062785,0.968924,0.58584,-0.326632,0.861281,0.0126496,0.262015,0.0948906,0.00539422,0.0133118,2.25569,5,0.1,6,3.2,2.29405,1.60228,0.7,0.238121,0.0192016,0.00902712,-1.0798,0.120401,0.0845194,0.0105874,0.369577,5,0.1,7,3.2,1.20478,-2.63112,0.610673,-0.295073,0.543565,0.00431836,-0.125825,-0.04673,-0.0132918,0.0100207,0.896606,5,0.1,8,3.2,2.59509,-2.43917,0.578547,0.864357,0.0630438,0.0241429,-0.0334978,-0.0342131,-0.0112951,0.0102471,1.17833,5,0.1,9,3.2,4.13534,-2.8054,0.621963,0.0266194,0.866026,-0.00904799,-0.00619888,0,0.00211596,0.0233278,2.27142,5,0.1,10,3.2,2.69283,1.91984,0.597351,-0.561887,0.0444233,0.00258386,0.474691,0.0733733,-0.00271201,0.0106862,0.146605,5,0.1,11,3.2,0.612599,-3.27792,0.625405,0.0747576,-0.866026,-0.00133514,-0.207841,0,0.0381172,0.0107324,2.31175,5,0.1,12,3.2,-1.06655,2.06542,0.568897,0.866026,-0.0474811,0.009875,-2.98023e-05,-0.0622272,-0.00461936,0.0153637,2.2697,5,0.1,13,3.2,-4.28127,3.83524,0.500089,-0.715685,-0.156468,-6.25849e-05,0.447989,0.412464,-0.00089407,0.00926832,0.290286,5,0.1,14,3.2,1.91324,1.5634,0.588421,0.334463,-0.06257,0.0115871,-0.0609159,0.0594854,-0.0108778,0.0215762,0.204322,5,0.1,15,3.2,-2.95842,-2.9387,0.571905,0.0448644,-0.427079,-0.036329,-0.118732,-0.0603199,-0.00104308,0.0238905,1.22198,5,0.1,16,3.2,0.292248,0.993468,0.67902,0.000804663,0.195281,0.0157714,-0.0228286,0.283927,-0.104517,0.011086,0.288551,5,0.1,17,3.2,-2.2241,1.5,1.31914,-0.0511348,-0.0433445,0.0610024,0.100136,-0.518739,-0.119448,0.0229065,1.82244,5,0.1,18,3.2,-3.25914,-3.10103,0.59236,-0.028944,0.00255108,0.0032872,-0.531197,-0.412703,0.0196695,0.00745038,0.317531,5,0.1,19,3.2,-0.0556544,-1.63799,0.610138,-0.0178587,0.866026,-0.00272244,0.0214018,-5.96046e-05,0.00578165,0.0121362,2.27209,5,0.1,20,3.2,0.176328,1.22679,0.5,-0.122636,0.273386,2.98023e-06,-0.00765175,0.207782,-2.98023e-05,0.0123162,0.277445,5,0.1,21,3.2,0.0621115,-2.71518,0.796095,-0.131631,0.173205,0.0360504,0.24312,0.531077,-0.154048,0.0125911,0.235475,5,0.1,22,3.2,0.895563,-2.57473,0.5,0.019832,-0.668705,0,-0.264704,0.393748,0,0.0171533,3.20034,5,0.1,23,3.2,-1.26927,0.0790618,1.28125,-0.0797361,0.129933,0.0657588,0.079155,-0.543456,-0.0706911,0.0283119,0.646629,5,0.1,24,3.2,-2.88933,-5.84709,0.601298,0.525445,-0.00280142,-0.00123382,0.0722408,0.00309944,0.0012815,0.00695857,0.275864,5,0.1,25,3.2,-1.88857,-3.38061,0.957425,-0.0293255,0.866026,0.0658244,-0.0193715,0,-0.222653,0.0217764,2.27413,5,0.1,26,3.2,-2.26368,5.39524,0.536121,-0.280315,0.124705,-0.00263155,0.211835,-0.0932217,0.00196695,0.0114583,0.0114802,5,0.1,27,3.2,4.48406,0.325134,0.500001,-0.162411,0.0239134,1.49012e-06,-0.00715256,0.183478,0,0.0103599,0.307317,5,0.1,28,3.2,1.9219,-0.928872,0.6032,-0.115174,0.822741,-0.00299215,0.383735,-0.284225,0.00301003,0.026415,0.31828,5,0.1,29,3.2,4.3,0.190154,0.602175,0,-0.105701,-0.00825822,0,0.213273,0.0128746,0.0199951,1.26541,5,0.1
0,3.3,-4.74629,-2.79171,0.619079,0.549211,-0.410518,0.0201068,-0.168443,0.342041,-0.0170134,0.00894054,0.265296,5,0.1,1,3.3,-2.88127,-2.5124,0.606475,0.371751,-0.0191364,-0.00458341,-0.0127405,-0.0183731,0.00106543,0.00977536,0.114696,5,0.1,2,3.3,-0.946724,3.90184,0.606771,0.701356,-0.130301,-0.00659171,-0.384431,0.054881,0.00582635,0.0187789,0.296115,5,0.1,3,3.3,1.20496,4.44203,1.28868,-0.0047002,-0.132526,0.0581946,0.00451505,0.198215,-0.0566393,0.0134576,0.891808,5,0.1,4,3.3,2.07687,2.1183,0.684155,0.32294,-0.0102859,0.0161435,-0.149474,-0.865564,-0.0829287,0.0153856,1.42557,5,0.1,5,3.3,-0.0940431,1.05534,0.587117,-0.297601,0.865729,0.012734,0.317657,0.0118613,-0.00340492,0.0133118,2.25569,5,0.1,6,3.3,2.31376,1.60476,0.701501,0.167592,0.0299618,0.0223882,-0.389621,0.0929236,0.168584,0.0105874,0.369577,5,0.1,7,3.3,1.17616,-2.57813,0.61135,-0.264304,0.506092,0.011812,0.660852,-0.650987,0.14367,0.0100207,0.896606,5,0.1,8,3.3,2.68151,-2.43301,0.580908,0.864761,0.0601798,0.0231047,0.00789762,-0.0258684,-0.0103228,0.0102471,1.17833,5,0.1,9,3.3,4.13798,-2.7188,0.621065,0.0262894,0.866026,-0.00893474,-0.00199676,0,0.000685453,0.0233278,2.27142,5,0.1,10,3.3,2.639,1.92466,0.597587,-0.51451,0.0520235,0.0020694,0.481457,0.073798,-0.00706315,0.0106862,0.146605,5,0.1,11,3.3,0.619125,-3.36448,0.62545,0.0565916,-0.86444,0.00210004,-0.157751,0.0507832,0.0302531,0.0107324,2.31175,5,0.1,12,3.3,-0.97995,2.0603,0.569864,0.866025,-0.0554271,0.00947071,3.72529e-06,-0.0888705,-0.00386313,0.0153637,2.2697,5,0.1,13,3.3,-4.35073,3.82163,0.500079,-0.674123,-0.116235,-0.000129081,0.406235,0.38071,-0.000454485,0.00926832,0.290286,5,0.1,14,3.3,1.94631,1.55725,0.589482,0.326051,-0.0620412,0.00926806,-0.114635,-0.0361279,-0.0329129,0.0215762,0.204322,5,0.1,15,3.3,-2.95346,-2.98063,0.56835,0.0635028,-0.402011,-0.0340228,0.425637,0.51254,0.0433736,0.0238905,1.22198,5,0.1,16,3.3,0.292112,1.01456,0.68021,-0.00437717,0.227354,0.00921851,-0.073662,0.331942,-0.0325032,0.011086,0.288551,5,0.1,17,3.3,-2.22873,1.49195,1.32467,-0.0418492,-0.126677,0.0499247,0.0861287,-1.05946,-0.102751,0.0229065,1.82244,5,0.1,18,3.3,-3.26503,-3.10295,0.59282,-0.0912376,-0.0417165,0.00619087,-0.675619,-0.452638,0.0355244,0.00745038,0.317531,5,0.1,19,3.3,-0.0574032,-1.55138,0.60991,-0.0177047,0.866025,-0.00171978,-0.0138443,1.49012e-05,0.0132546,0.0121362,2.27209,5,0.1,20,3.3,0.163921,1.25518,0.5,-0.12624,0.293952,5.58794e-07,-0.0525871,0.185587,-1.49012e-05,0.0123162,0.277445,5,0.1,21,3.3,0.0501158,-2.69521,0.798941,-0.108743,0.225725,0.0210432,0.215524,0.496194,-0.143535,0.0125911,0.235475,5,0.1,22,3.3,0.896781,-2.63996,0.5,0.0123035,-0.638474,0,0.190072,0.246733,0,0.0171533,3.20034,5,0.1,23,3.3,-1.27687,0.0894506,1.2875,-0.0724984,0.0792504,0.0594294,0.067912,-0.459529,-0.0580475,0.0283119,0.646629,5,0.1,24,3.3,-2.83643,-5.84736,0.601181,0.532011,-0.00252426,-0.0011188,0.0360161,0.0025034,0.00106171,0.00695857,0.275864,5,0.1,25,3.3,-1.8916,-3.29401,0.962901,-0.0313828,0.866026,0.0438463,-0.0196472,0,-0.213154,0.0217764,2.27413,5,0.1,26,3.3,-2.29065,5.40724,0.535867,-0.25869,0.115217,-0.00243168,0.224993,-0.0985563,0.00207871,0.0114583,0.0114802,5,0.1,27,3.3,4.46756,0.32838,0.500001,-0.169236,0.040322,9.31323e-07,-0.108331,0.142304,-1.49012e-05,0.0103599,0.307317,5,0.1,28,3.3,1.91222,-0.848054,0.602915,-0.0792749,0.79272,-0.00272254,0.332236,-0.33823,0.00248477,0.026415,0.31828,5,0.1,29,3.3,4.3,0.180608,0.601414,0,-0.0856171,-0.006958,0,0.188767,0.0130348,0.0199951,1.26541,5,0.1
