id,t,px,py,pz,vx,vy,vz,ax,ay,az,planning_time,qp_cost,planning_report,size,id,t,px,py,pz,vx,vy,vz,ax,ay,az,planning_time,qp_cost,planning_report,size,id,t,px,py,pz,vx,vy,vz,ax,ay,az,planning_time,qp_cost,planning_report,size,id,t,px,py,pz,vx,vy,vz,ax,ay,az,planning_time,qp_cost,planning_report,size,id,t,px,py,pz,vx,vy,vz,ax,ay,az,planning_time,qp_cost,planning_report,size,id,t,px,py,pz,vx,vy,vz,ax,ay,az,planning_time,qp_cost,planning_report,size,id,t,px,py,pz,vx,vy,vz,ax,ay,az,planning_time,qp_cost,planning_report,size,id,t,px,py,pz,vx,vy,vz,ax,ay,az,planning_time,qp_cost,planning_report,size,id,t,px,py,pz,vx,vy,vz,ax,ay,az,planning_time,qp_cost,planning_report,size,id,t,px,py,pz,vx,vy,vz,ax,ay,az,planning_time,qp_cost,planning_report,size,id,t,px,py,pz,vx,vy,vz,ax,ay,az,planning_time,qp_cost,planning_report,size,id,t,px,py,pz,vx,vy,vz,ax,ay,az,planning_time,qp_cost,planning_report,size,id,t,px,py,pz,vx,vy,vz,ax,ay,az,planning_time,qp_cost,planning_report,size,id,t,px,py,pz,vx,vy,vz,ax,ay,az,planning_time,qp_cost,planning_report,size,id,t,px,py,pz,vx,vy,vz,ax,ay,az,planning_time,qp_cost,planning_report,size,id,t,px,py,pz,vx,vy,vz,ax,ay,az,planning_time,qp_cost,planning_report,size,id,t,px,py,pz,vx,vy,vz,ax,ay,az,planning_time,qp_cost,planning_report,size,id,t,px,py,pz,vx,vy,vz,ax,ay,az,planning_time,qp_cost,planning_report,size,id,t,px,py,pz,vx,vy,vz,ax,ay,az,planning_time,qp_cost,planning_report,size,id,t,px,py,pz,vx,vy,vz,ax,ay,az,planning_time,qp_cost,planning_report,size,id,t,px,py,pz,vx,vy,vz,ax,ay,az,planning_time,qp_cost,planning_report,size,id,t,px,py,pz,vx,vy,vz,ax,ay,az,planning_time,qp_cost,planning_report,size,id,t,px,py,pz,vx,vy,vz,ax,ay,az,planning_time,qp_cost,planning_report,size,id,t,px,py,pz,vx,vy,vz,ax,ay,az,planning_time,qp_cost,planning_report,size,id,t,px,py,pz,vx,vy,vz,ax,ay,az,planning_time,qp_cost,planning_report,size,id,t,px,py,pz,vx,vy,vz,ax,ay,az,planning_time,qp_cost,planning_report,size,id,t,px,py,pz,vx,vy,vz,ax,ay,az,planning_time,qp_cost,planning_report,size,id,t,px,py,pz,vx,vy,vz,ax,ay,az,planning_time,qp_cost,planning_report,size,id,t,px,py,pz,vx,vy,vz,ax,ay,az,planning_time,qp_cost,planning_report,size,id,t,px,py,pz,vx,vy,vz,ax,ay,az,planning_time,qp_cost,planning_report,size
0,0,-1.67105,-1.85215,0.582404,0,0,0,0,0,0,0.0223796,3.51219,5,0.1,1,0,0.568787,-5.37826,0.549848,0,0,0,0,0,0,0.00913066,3.5122,5,0.1,2,0,3.4737,-3.54043,0.674242,0,0,0,0,0,0,0.0140605,3.51219,5,0.1,3,0,1.39893,-0.169633,0.609777,0,0,0,0,0,0,0.0140897,3.51219,5,0.1,4,0,1.79466,5.03439,0.549174,0,0,0,0,0,0,0.0211288,1.17443,5,0.1,5,0,0.961513,5.36754,0.594912,0,0,0,0,0,0,0.00861444,0.504875,5,0.1,6,0,0.503676,-1.56628,0.638105,0,0,0,0,0,0,0.0141594,3.51219,5,0.1,7,0,-1.37845,-0.411389,0.65734,0,0,0,0,0,0,0.0106958,0.450653,5,0.1,8,0,-3.71982,-2.19927,0.584056,0,0,0,0,0,0,0.0252171,2.97372,5,0.1,9,0,-4.24798,-3.85525,0.532708,0,0,0,0,0,0,0.0146332,1.72972,5,0.1,10,0,-2.08005,2.3069,0.508828,0,0,0,0,0,0,0.0147507,3.5122,5,0.1,11,0,-2.37552,5.68484,0.636006,0,0,0,0,0,0,0.0201376,3.5122,5,0.1,12,0,-1.10234,1.70936,0.572415,0,0,0,0,0,0,0.00955196,3.5122,5,0.1,13,0,4.35583,-2.68935,0.583877,0,0,0,0,0,0,0.00881609,2.9997,5,0.1,14,0,3.89151,-0.404858,0.510537,0,0,0,0,0,0,0.00835598,2.60091,5,0.1,15,0,-2.52163,-2.9396,0.613315,0,0,0,0,0,0,0.0191574,1.68505,5,0.1,16,0,3.92873,-5.32477,0.666186,0,0,0,0,0,0,0.0553044,3.5122,5,0.1,17,0,-0.131299,-0.601478,0.538701,0,0,0,0,0,0,0.0133675,1.24874,5,0.1,18,0,5.3146,1.3008,0.675496,0,0,0,0,0,0,0.0160481,2.58156,5,0.1,19,0,0.5622,2.13886,0.630844,0,0,0,0,0,0,0.0085474,0.40169,5,0.1,20,0,1.70664,-3.25161,0.672645,0,0,0,0,0,0,0.0208045,3.5122,5,0.1,21,0,-2.1109,4.87536,0.558607,0,0,0,0,0,0,0.0338799,3.5122,5,0.1,22,0,-2.79462,5.04275,0.616846,0,0,0,0,0,0,0.0539253,3.5122,5,0.1,23,0,-1.8999,-3.26852,0.6497,0,0,0,0,0,0,0.0173552,1.4666,5,0.1,24,0,2.7623,-3.16833,0.524104,0,0,0,0,0,0,0.0120489,2.8856,5,0.1,25,0,2.72012,1.7051,0.529595,0,0,0,0,0,0,0.0294396,3.5122,5,0.1,26,0,-5.20548,-2.47094,0.626416,0,0,0,0,0,0,0.00872808,0.801562,5,0.1,27,0,-3.50157,-3.65104,0.566785,0,0,0,0,0,0,0.0231347,3.51219,5,0.1,28,0,-1.74696,-4.70297,0.618725,0,0,0,0,0,0,0.0120414,3.5122,5,0.1,29,0,0.393516,3.23944,0.524076,0,0,0,0,0,0,0.017474,1.01269,5,0.1
0,0.1,-1.67146,-1.85024,0.583137,-0.0116259,0.0542654,0.0208046,-0.206679,0.964724,0.369862,0.0223796,3.51219,5,0.1,1,0.1,0.568368,-5.37621,0.549884,-0.0118949,0.0580542,0.00100909,-0.211466,1.03208,0.0179447,0.00913066,3.5122,5,0.1,2,0.1,3.47176,-3.53966,0.674202,-0.0550669,0.0218898,-0.0011283,-0.978962,0.389129,-0.0200607,0.0140605,3.51219,5,0.1,3,0.1,1.39684,-0.169561,0.609759,-0.0592306,0.00205543,-0.000532065,-1.05298,0.0365414,-0.00945851,0.0140897,3.51219,5,0.1,4,0.1,1.79467,5.03351,0.55001,0.000157952,-0.0247255,0.0237318,0.00280142,-0.439584,0.421897,0.0211288,1.17443,5,0.1,5,0.1,0.961449,5.36757,0.5957,-0.00182288,0.00096187,0.0223764,-0.0324063,0.0171363,0.397805,0.00861444,0.504875,5,0.1,6,0.1,0.503437,-1.56421,0.638079,-0.00679055,0.0588732,-0.000731647,-0.120718,1.04664,-0.0130087,0.0141594,3.51219,5,0.1,7,0.1,-1.37773,-0.411234,0.657214,0.020452,0.0044107,-0.00360245,0.363596,0.0784155,-0.0640415,0.0106958,0.450653,5,0.1,8,0.1,-3.71922,-2.19756,0.584073,0.0168864,0.0484224,0.000472367,0.300184,0.860855,0.0083968,0.0252171,2.97372,5,0.1,9,0.1,-4.24652,-3.85514,0.532778,0.0414275,0.00311881,0.00199405,0.736505,0.0554323,0.0354536,0.0146332,1.72972,5,0.1,10,0.1,-2.07797,2.30673,0.5088,0.0590753,-0.00470579,-0.000775699,1.05025,-0.0836551,-0.0137947,0.0147507,3.5122,5,0.1,11,0.1,-2.374,5.68341,0.635984,0.0430897,-0.0406899,-0.000614394,0.766039,-0.723392,-0.0109263,0.0201376,3.5122,5,0.1,12,0.1,-1.1044,1.70969,0.572504,-0.0584723,0.00934955,0.00251438,-1.03951,0.166215,0.044696,0.00955196,3.5122,5,0.1,13,0.1,4.35567,-2.6903,0.583894,-0.00461787,-0.0268873,0.000477768,-0.0820756,-0.477985,0.00849366,0.00881609,2.9997,5,0.1,14,0.1,3.89121,-0.406628,0.510474,-0.00863895,-0.0502341,-0.00179401,-0.153571,-0.893053,-0.0318922,0.00835598,2.60091,5,0.1,15,0.1,-2.52041,-2.93966,0.614084,0.0347205,-0.00178926,0.0218309,0.617266,-0.031814,0.388104,0.0191574,1.68505,5,0.1,16,0.1,3.92806,-5.32279,0.666146,-0.0187989,0.0561975,-0.00115335,-0.334188,0.999063,-0.020504,0.0553044,3.5122,5,0.1,17,0.1,-0.130066,-0.60132,0.538765,0.0350068,0.00448888,0.00181636,0.622343,0.0798069,0.0322945,0.0133675,1.24874,5,0.1,18,0.1,5.31343,1.29944,0.675418,-0.0330307,-0.0385484,-0.00223722,-0.587255,-0.685297,-0.0397712,0.0160481,2.58156,5,0.1,19,0.1,0.561497,2.13891,0.6308,-0.0199463,0.00152253,-0.0012558,-0.354603,0.0270754,-0.0223219,0.0085474,0.40169,5,0.1,20,0.1,1.70487,-3.25051,0.672575,-0.0503384,0.0312231,-0.00196965,-0.894904,0.555098,-0.035014,0.0208045,3.5122,5,0.1,21,0.1,-2.11282,4.87454,0.558537,-0.0544827,-0.0232466,-0.00197962,-0.96859,-0.413269,-0.0351965,0.0338799,3.5122,5,0.1,22,0.1,-2.79274,5.04183,0.616834,0.0532456,-0.0260279,-0.000339095,0.946611,-0.462711,-0.00603124,0.0539253,3.5122,5,0.1,23,0.1,-1.89932,-3.2673,0.649648,0.0162955,0.0346281,-0.00147279,0.289708,0.615597,-0.0261888,0.0173552,1.4666,5,0.1,24,0.1,2.76333,-3.16674,0.524027,0.0292704,0.0449941,-0.00219606,0.520349,0.799894,-0.039041,0.0120489,2.8856,5,0.1,25,0.1,2.71842,1.70631,0.529637,-0.0482596,0.0343844,0.0011838,-0.857949,0.611275,0.0210442,0.0294396,3.5122,5,0.1,26,0.1,-5.20614,-2.47018,0.626445,-0.0185601,0.021366,0.000824872,-0.330001,0.37986,0.014659,0.00872808,0.801562,5,0.1,27,0.1,-3.49961,-3.65099,0.567499,0.0556793,0.00132024,0.0202684,0.989869,0.0234842,0.360325,0.0231347,3.51219,5,0.1,28,0.1,-1.74664,-4.70091,0.61871,0.0089353,0.0585884,-0.00042161,0.158839,1.04159,-0.00749156,0.0120414,3.5122,5,0.1,29,0.1,0.392635,3.24013,0.523999,-0.0249968,0.0195749,-0.00219494,-0.44439,0.348002,-0.0390261,0.017474,1.01269,5,0.1
0,0.2,-1.67382,-1.83922,0.587363,-0.0367433,0.171506,0.0657529,-0.275552,1.28627,0.493139,0.0220452,2.9258,5,0.1,1,0.2,0.565952,-5.36442,0.550089,-0.0375941,0.183475,0.00318885,-0.28193,1.37615,0.0239313,0.00806925,2.92579,5,0.1,2,0.2,3.46058,-3.53521,0.673973,-0.174034,0.0691831,-0.00356436,-1.30534,0.518799,-0.0267923,0.0158705,2.92579,5,0.1,3,0.2,1.38481,-0.169143,0.609651,-0.187197,0.00649616,-0.00168085,-1.40399,0.0487268,-0.0126362,0.00802169,2.92579,5,0.1,4,0.2,1.7947,5.02849,0.554831,0.000500679,-0.0781417,0.075005,0.00369549,-0.586271,0.562519,0.0196305,0.963559,5,0.1,5,0.2,0.961079,5.36777,0.600245,-0.00576079,0.00303984,0.0707209,-0.0432134,0.0228882,0.530392,0.00933145,0.442131,5,0.1,6,0.2,0.502057,-1.55225,0.637931,-0.0214621,0.186068,-0.00231117,-0.160962,1.39558,-0.0173748,0.018019,2.92579,5,0.1,7,0.2,-1.37358,-0.410338,0.656482,0.0646383,0.01394,-0.0113845,0.484824,0.104561,-0.0854135,0.010099,0.369737,5,0.1,8,0.2,-3.71579,-2.18773,0.584169,0.05337,0.153041,0.00149459,0.400305,1.14775,0.0111461,0.0271138,2.6999,5,0.1,9,0.2,-4.23811,-3.8545,0.533183,0.130939,0.00985861,0.00630319,0.981808,0.0739098,0.0472665,0.0149673,1.41916,5,0.1,10,0.2,-2.06597,2.30577,0.508643,0.186712,-0.0148714,-0.00245124,1.40023,-0.111699,-0.0184178,0.0127434,2.9258,5,0.1,11,0.2,-2.36525,5.67514,0.635859,0.136185,-0.128603,-0.00194162,1.02139,-0.964403,-0.0145435,0.0147526,2.9258,5,0.1,12,0.2,-1.11628,1.71159,0.573015,-0.184798,0.029549,0.00794679,-1.38611,0.22167,0.0596046,0.00905426,2.92578,5,0.1,13,0.2,4.35473,-2.69576,0.583991,-0.0146031,-0.0849724,0.00150949,-0.109196,-0.637412,0.0113547,0.0118838,2.92147,5,0.1,14,0.2,3.88946,-0.416832,0.51011,-0.0273049,-0.158764,-0.00566989,-0.204682,-1.19074,-0.0425279,0.0084176,2.13399,5,0.1,15,0.2,-2.51336,-2.94002,0.618518,0.109732,-0.00566244,0.0689968,0.823021,-0.0423193,0.517488,0.0136863,1.3825,5,0.1,16,0.2,3.92425,-5.31138,0.665911,-0.0594139,0.177598,-0.00364631,-0.445604,1.33228,-0.0272989,0.0553797,2.98325,5,0.1,17,0.2,-0.122955,-0.600408,0.539134,0.110639,0.0141874,0.00574142,0.829793,0.106394,0.0430644,0.0134042,1.02453,5,0.1,18,0.2,5.30672,1.29161,0.674963,-0.104392,-0.121832,-0.0070706,-0.782728,-0.913739,-0.0530183,0.0155141,2.11805,5,0.1,19,0.2,0.557446,2.13922,0.630545,-0.0630409,0.00481009,-0.00396818,-0.472784,0.0360012,-0.0297725,0.00945045,0.329568,5,0.1,20,0.2,1.69464,-3.24416,0.672175,-0.159094,0.0986814,-0.00622571,-1.19323,0.740051,-0.0466704,0.0286175,2.9258,5,0.1,21,0.2,-2.12389,4.86982,0.558135,-0.172198,-0.0734687,-0.006257,-1.29139,-0.550985,-0.0469089,0.0320808,2.96165,5,0.1,22,0.2,-2.78193,5.03655,0.616765,0.168282,-0.0822663,-0.00107288,1.26219,-0.616789,-0.00801682,0.0592007,3.11788,5,0.1,23,0.2,-1.89601,-3.26026,0.649349,0.0515014,0.10944,-0.00465363,0.386298,0.820875,-0.0349581,0.0172862,1.20326,5,0.1,24,0.2,2.76927,-3.1576,0.523581,0.0925064,0.142205,-0.00693947,0.693798,1.06657,-0.0520945,0.0113281,2.36749,5,0.1,25,0.2,2.70862,1.7133,0.529877,-0.152528,0.108671,0.00374168,-1.14381,0.815034,0.028044,0.0298077,2.9258,5,0.1,26,0.2,-5.20991,-2.46584,0.626613,-0.058651,0.0675261,0.00260621,-0.440121,0.50652,0.0195503,0.00825515,0.657636,5,0.1,27,0.2,-3.4883,-3.65072,0.571616,0.175977,0.00417829,0.0640586,1.31977,0.0312328,0.480413,0.0232112,3.01505,5,0.1,28,0.2,-1.74483,-4.68901,0.618625,0.0282407,0.185168,-0.00133216,0.211716,1.38879,-0.0100136,0.0142449,2.92879,5,0.1,29,0.2,0.387557,3.24411,0.523553,-0.0790022,0.0618637,-0.00693798,-0.592515,0.464082,-0.0520349,0.01913,0.830861,5,0.1
0,0.3,-1.67903,-1.81492,0.59668,-0.0684353,0.31944,0.122468,-0.338666,1.5808,0.60606,0.0220452,2.9258,5,0.1,1,0.3,0.560625,-5.33842,0.550541,-0.0700196,0.341742,0.00594072,-0.346497,1.69119,0.0294,0.00806925,2.92579,5,0.1,2,0.3,3.43591,-3.52541,0.673468,-0.324158,0.128851,-0.00664387,-1.60418,0.637636,-0.0328943,0.0158705,2.92579,5,0.1,3,0.3,1.35828,-0.168223,0.609412,-0.348668,0.0121,-0.00313325,-1.72547,0.0598803,-0.0155158,0.00802169,2.92579,5,0.1,4,0.3,1.79477,5.01742,0.565453,0.000926293,-0.145388,0.139533,0.0045523,-0.717342,0.688352,0.0196305,0.963559,5,0.1,5,0.3,0.960263,5.3682,0.609746,-0.0107178,0.00566095,0.116945,-0.052873,0.0279546,0.389684,0.00933145,0.442131,5,0.1,6,0.3,0.499016,-1.52588,0.637603,-0.0399742,0.34657,-0.00430839,-0.19782,1.7151,-0.0213347,0.018019,2.92579,5,0.1,7,0.3,-1.36442,-0.408363,0.654869,0.120252,0.0259341,-0.0211814,0.59326,0.127945,-0.104502,0.010099,0.369737,5,0.1,8,0.3,-3.70823,-2.16743,0.58438,0.0992876,0.245502,0.00277516,0.489816,0.709176,0.0136718,0.0271138,2.6999,5,0.1,9,0.3,-4.21956,-3.85311,0.534076,0.243571,0.018337,0.0117252,1.20154,0.0904351,0.0578389,0.0149673,1.41916,5,0.1,10,0.3,-2.03951,2.30367,0.508295,0.347754,-0.0277128,-0.00456851,1.72091,-0.137165,-0.0226125,0.0127434,2.9258,5,0.1,11,0.3,-2.34595,5.65692,0.635584,0.253654,-0.239521,-0.00361484,1.25527,-1.18527,-0.0178888,0.0147526,2.9258,5,0.1,12,0.3,-1.14247,1.71578,0.574141,-0.34421,0.0550412,0.0148017,-1.70343,0.272393,0.0732541,0.00905426,2.92578,5,0.1,13,0.3,4.35266,-2.707,0.584205,-0.027138,-0.135605,0.00281082,-0.133812,-0.382051,0.0138767,0.0118838,2.92147,5,0.1,14,0.3,3.88559,-0.439317,0.509331,-0.0507873,-0.295355,-0.00986233,-0.250533,-1.45708,-0.0398457,0.0084176,2.13399,5,0.1,15,0.3,-2.49782,-2.94083,0.62829,0.204141,-0.0105206,0.128358,1.00711,-0.0518411,0.633232,0.0136863,1.3825,5,0.1,16,0.3,3.91583,-5.28695,0.665395,-0.110661,0.309838,-0.00678757,-0.547618,1.26502,-0.033576,0.0553797,2.98325,5,0.1,17,0.3,-0.107286,-0.598399,0.539947,0.205825,0.0263922,0.0106811,1.0154,0.130199,0.0526942,0.0134042,1.02453,5,0.1,18,0.3,5.29194,1.27436,0.673962,-0.194187,-0.226647,-0.013153,-0.957906,-1.11812,-0.0648834,0.0155141,2.11805,5,0.1,19,0.3,0.548517,2.1399,0.629982,-0.117275,0.00894256,-0.00738315,-0.578549,0.0440925,-0.0364259,0.00945045,0.329568,5,0.1,20,0.3,1.67209,-3.23018,0.671293,-0.296325,0.183797,-0.0115938,-1.46643,0.909537,-0.0573695,0.0286175,2.9258,5,0.1,21,0.3,-2.14782,4.8591,0.557217,-0.307264,-0.14557,-0.0125621,-1.34785,-0.832409,-0.0738315,0.0320808,2.96165,5,0.1,22,0.3,-2.75918,5.0256,0.616688,0.282291,-0.133001,0.00010971,0.997365,-0.398844,0.0275671,0.0592007,3.11788,5,0.1,23,0.3,-1.88872,-3.24476,0.648689,0.095813,0.203601,-0.00866214,0.472695,1.00446,-0.0427477,0.0172862,1.20326,5,0.1,24,0.3,2.78237,-3.13746,0.522598,0.172093,0.26455,-0.0129139,0.848979,1.30512,-0.0637248,0.0113281,2.36749,5,0.1,25,0.3,2.687,1.7287,0.530407,-0.284082,0.202408,0.0069676,-1.40582,1.00165,0.0344738,0.0298077,2.9258,5,0.1,26,0.3,-5.21822,-2.45628,0.626982,-0.109132,0.125628,0.00484865,-0.538439,0.619784,0.0239238,0.00825515,0.657636,5,0.1,27,0.3,-3.46429,-3.65013,0.580694,0.30162,0.00777319,0.119311,1.15815,0.038445,0.590429,0.0232112,3.01505,5,0.1,28,0.3,-1.74083,-4.66294,0.618436,0.0525927,0.340103,-0.002483,0.260241,1.62187,-0.0122897,0.0142449,2.92879,5,0.1,29,0.3,0.376368,3.25287,0.52257,-0.14697,0.115095,-0.0129069,-0.725048,0.567839,-0.0636764,0.01913,0.830861,5,0.1
0,0.4,-1.68754,-1.7752,0.611906,-0.101066,0.471747,0.180861,-0.299394,1.39773,0.535846,0.0160656,2.51008,5,0.1,1,0.4,0.55192,-5.29593,0.551279,-0.103405,0.504684,0.0087738,-0.306338,1.49536,0.0260174,0.013092,2.51204,5,0.1,2,0.4,3.39561,-3.50939,0.672642,-0.478721,0.190288,-0.00981241,-1.41835,0.563741,-0.0290871,0.0184479,2.51007,5,0.1,3,0.4,1.31493,-0.166719,0.609023,-0.514913,0.0178691,-0.0046283,-1.52558,0.0529513,-0.0137091,0.00798972,2.51552,5,0.1,4,0.4,1.79489,4.99936,0.582787,0.00136495,-0.21441,0.205779,0.00405312,-0.633001,0.607282,0.0212455,0.762373,5,0.1,5,0.4,0.958931,5.3689,0.623127,-0.0158072,0.00835657,0.148012,-0.0466406,0.0243187,0.229597,0.00929855,0.419566,5,0.1,6,0.4,0.494046,-1.4828,0.637067,-0.0590339,0.511813,-0.0063628,-0.17491,1.51652,-0.0188649,0.0119296,2.51428,5,0.1,7,0.4,-1.34948,-0.405141,0.652238,0.177342,0.0382476,-0.0312388,0.523448,0.112861,-0.0921786,0.0118216,0.292539,5,0.1,8,0.4,-3.6959,-2.14001,0.584725,0.146425,0.296527,0.00409186,0.432134,0.320077,0.0120699,0.0222442,2.55414,5,0.1,9,0.4,-4.18931,-3.85083,0.535532,0.359201,0.0270486,0.0172928,1.06025,0.0796318,0.0509918,0.0179121,1.12286,5,0.1,10,0.4,-1.99628,2.30022,0.507727,0.51356,-0.0409305,-0.00674725,1.52165,-0.121236,-0.0199974,0.0108892,2.51498,5,0.1,11,0.4,-2.31441,5.62714,0.635135,0.374591,-0.353718,-0.0053376,1.10996,-1.04809,-0.015825,0.0171331,2.51008,5,0.1,12,0.4,-1.18526,1.72262,0.575981,-0.508329,0.0812858,0.0218585,-1.50609,0.240803,0.0647604,0.0100197,2.51307,5,0.1,13,0.4,4.34929,-2.7221,0.584554,-0.0400186,-0.162721,0.00414699,-0.118017,-0.167012,0.012219,0.00844732,2.86105,5,0.1,14,0.4,3.87928,-0.476009,0.50816,-0.0748992,-0.435582,-0.0133902,-0.221014,-1.28548,-0.0296235,0.0120184,1.6889,5,0.1,15,0.4,-2.47246,-2.94213,0.644236,0.301063,-0.0155091,0.189298,0.888467,-0.0458956,0.558674,0.0122296,1.09385,5,0.1,16,0.4,3.90207,-5.25007,0.664551,-0.163424,0.422525,-0.0100225,-0.484228,0.955343,-0.0297129,0.0636419,2.93887,5,0.1,17,0.4,-0.0817162,-0.59512,0.541274,0.303546,0.0389218,0.015752,0.895819,0.114888,0.0464916,0.0142653,0.810615,5,0.1,18,0.4,5.26782,1.2462,0.672328,-0.286388,-0.334254,-0.0193968,-0.844955,-0.986457,-0.0572801,0.0104449,1.67583,5,0.1,19,0.4,0.533948,2.14101,0.629065,-0.172953,0.0131905,-0.0108898,-0.510454,0.0388622,-0.0321269,0.00842661,0.260758,5,0.1,20,0.4,1.63525,-3.20733,0.669852,-0.437614,0.271428,-0.0171199,-1.29652,0.804186,-0.0507534,0.0199529,2.51008,5,0.1,21,0.4,-2.18496,4.84031,0.555583,-0.431103,-0.229681,-0.0200823,-1.08421,-0.805616,-0.0725687,0.0323331,2.56396,5,0.1,22,0.4,-2.72654,5.01066,0.616867,0.364441,-0.162387,0.00370741,0.633121,-0.191212,0.0411868,0.0579386,2.88242,5,0.1,23,0.4,-1.87682,-3.21947,0.647613,0.141305,0.300264,-0.0127748,0.416994,0.886202,-0.0377297,0.0134953,0.952033,5,0.1,24,0.4,2.80375,-3.1046,0.520994,0.253803,0.390154,-0.0190452,0.748873,1.15132,-0.056237,0.0156841,1.87318,5,0.1,25,0.4,2.65168,1.75386,0.531274,-0.419527,0.298917,0.0102907,-1.24311,0.885546,0.030458,0.0255099,2.57858,5,0.1,26,0.4,-5.23177,-2.44067,0.627584,-0.160956,0.185275,0.00715107,-0.474691,0.546694,0.0211,0.012045,0.520327,5,0.1,27,0.4,-3.42884,-3.64916,0.595527,0.401747,0.0114739,0.176197,0.820637,0.0340939,0.522077,0.0197283,2.98568,5,0.1,28,0.4,-1.73429,-4.62103,0.618127,0.0776678,0.494277,-0.00366718,0.230074,1.39666,-0.010848,0.017479,2.81419,5,0.1,29,0.4,0.35811,3.26717,0.520967,-0.216749,0.169748,-0.0190347,-0.639662,0.500798,-0.0561774,0.0111908,0.657385,5,0.1
0,0.5,-1.69919,-1.72084,0.632748,-0.131876,0.615578,0.236002,-0.300966,1.40491,0.53861,0.0160656,2.51008,5,0.1,1,0.5,0.540004,-5.23792,0.55229,-0.134929,0.654481,0.0114507,-0.307932,1.42908,0.0261404,0.013092,2.51204,5,0.1,2,0.5,3.34045,-3.48746,0.671511,-0.624674,0.2483,-0.0128046,-1.42562,0.566676,-0.0292212,0.0184479,2.51007,5,0.1,3,0.5,1.25583,-0.164659,0.608489,-0.665115,0.0233178,-0.00603897,-1.4104,0.0532195,-0.0137724,0.00798972,2.51552,5,0.1,4,0.5,1.79505,4.9747,0.606457,0.00177603,-0.278628,0.267394,0.00397116,-0.619829,0.594787,0.0212455,0.762373,5,0.1,5,0.5,0.957113,5.36986,0.638627,-0.0205396,0.0108302,0.158033,-0.045687,0.0239015,-0.00819564,0.00929855,0.419566,5,0.1,6,0.5,0.487243,-1.42402,0.636334,-0.0770327,0.661899,-0.00830339,-0.175809,1.41608,-0.0189506,0.0119296,2.51428,5,0.1,7,0.5,-1.32909,-0.400742,0.648645,0.230449,0.0496986,-0.0405914,0.512652,0.110541,-0.0902824,0.0118216,0.292539,5,0.1,8,0.5,-3.67906,-2.10966,0.585195,0.190268,0.302597,0.0053172,0.423223,-0.149548,0.0118352,0.0222442,2.55414,5,0.1,9,0.5,-4.14799,-3.84772,0.537521,0.466771,0.0351321,0.0224671,1.03843,0.0780672,0.0499524,0.0179121,1.12286,5,0.1,10,0.5,-1.93732,2.2955,0.50695,0.663713,-0.0534046,-0.00880435,1.41288,-0.121847,-0.0200942,0.0108892,2.51498,5,0.1,11,0.5,-2.27125,5.58638,0.63452,0.488808,-0.461568,-0.00696611,1.11564,-1.05345,-0.015907,0.0171331,2.51008,5,0.1,12,0.5,-1.24366,1.73199,0.5785,-0.658269,0.106065,0.0285225,-1.42241,0.242047,0.0650883,0.0100197,2.51307,5,0.1,13,0.5,4.34469,-2.73862,0.585031,-0.0519976,-0.16289,0.00538668,-0.115693,0.124291,0.0119694,0.00844732,2.86105,5,0.1,14,0.5,3.87066,-0.526112,0.506713,-0.0973247,-0.566006,-0.0151706,-0.216514,-1.25903,-0.00709668,0.0120184,1.6889,5,0.1,15,0.5,-2.43783,-2.94392,0.66601,0.391207,-0.0201643,0.245981,0.870213,-0.0449121,0.547171,0.0122296,1.09385,5,0.1,16,0.5,3.88324,-5.20434,0.663396,-0.213225,0.480216,-0.0130784,-0.486225,0.247985,-0.0298396,0.0636419,2.93887,5,0.1,17,0.5,-0.0468007,-0.590643,0.543086,0.394435,0.050578,0.0204687,0.877385,0.112515,0.0455342,0.0142653,0.810615,5,0.1,18,0.5,5.23487,1.20775,0.670096,-0.372124,-0.434339,-0.0252078,-0.8277,-0.966147,-0.0560917,0.0104449,1.67583,5,0.1,19,0.5,0.514054,2.14253,0.627813,-0.224743,0.017136,-0.0141495,-0.499941,0.0381023,-0.0314675,0.00842661,0.260758,5,0.1,20,0.5,1.58483,-3.17605,0.667879,-0.571032,0.354183,-0.0223421,-1.3032,0.808358,-0.0510029,0.0199529,2.51008,5,0.1,21,0.5,-2.23398,4.81343,0.553225,-0.552294,-0.306303,-0.0268955,-1.25811,-0.699967,-0.0614971,0.0323331,2.56396,5,0.1,22,0.5,-2.68637,4.99402,0.617482,0.442773,-0.165551,0.00886368,0.864699,0.104398,0.0580586,0.0579386,2.88242,5,0.1,23,0.5,-1.86056,-3.18493,0.646144,0.183613,0.390176,-0.0166017,0.408411,0.867948,-0.0369363,0.0134953,0.952033,5,0.1,24,0.5,2.83295,-3.05972,0.518804,0.329786,0.506968,-0.0247157,0.733495,1.12765,-0.0544526,0.0156841,1.87318,5,0.1,25,0.5,2.60334,1.78753,0.532459,-0.547446,0.367837,0.0134257,-1.24949,0.495329,0.0306331,0.0255099,2.57858,5,0.1,26,0.5,-5.25029,-2.41936,0.628407,-0.209124,0.240744,0.00929181,-0.465035,0.535488,0.0206679,0.012045,0.520327,5,0.1,27,0.5,-3.3858,-3.64784,0.61583,0.448014,0.0149772,0.229867,0.155196,0.0341833,0.523802,0.0197283,2.98568,5,0.1,28,0.5,-1.72534,-4.56615,0.617705,0.101341,0.589106,-0.00478337,0.231221,0.546902,-0.0108965,0.017479,2.81419,5,0.1,29,0.5,0.333179,3.28669,0.518779,-0.281649,0.220562,-0.0246966,-0.626503,0.490531,-0.054352,0.0111908,0.657385,5,0.1
0,0.6,-1.71377,-1.65274,0.658854,-0.158551,0.740099,0.28374,-0.221372,1.03319,0.396103,0.0145655,2.1707,5,0.1,1,0.6,0.525078,-5.16591,0.553557,-0.162223,0.778532,0.0137672,-0.226468,1.00398,0.0192225,0.00876813,2.3152,5,0.1,2,0.6,3.27135,-3.45999,0.670094,-0.751036,0.29853,-0.0153944,-1.04833,0.416636,-0.0214875,0.0136599,2.26701,5,0.1,3,0.6,1.18291,-0.16208,0.607821,-0.78578,0.0280347,-0.00725985,-0.95886,0.0391304,-0.0101328,0.0137837,2.33437,5,0.1,4,0.6,1.79524,4.94397,0.635946,0.00212491,-0.333023,0.31959,0.00286102,-0.445843,0.427872,0.0267497,0.567556,5,0.1,5,0.6,0.954848,5.37106,0.654137,-0.0245482,0.0129342,0.15004,-0.032872,0.0171661,-0.136018,0.00792073,0.392356,5,0.1,6,0.6,0.478722,-1.35138,0.635415,-0.0926152,0.783589,-0.00998378,-0.129297,0.972509,-0.0139177,0.0117974,2.36075,5,0.1,7,0.6,-1.30367,-0.395261,0.644168,0.275433,0.059399,-0.0485137,0.368834,0.0795275,-0.0649393,0.0086458,0.217785,5,0.1,8,0.6,-3.65807,-2.0806,0.585782,0.22741,0.275105,0.00635684,0.304461,-0.364423,0.00849366,0.0181631,2.3876,5,0.1,9,0.6,-4.09651,-3.84385,0.539999,0.557899,0.0419855,0.0268519,0.746965,0.0561476,0.0359416,0.013564,0.835942,5,0.1,10,0.6,-1.86452,2.2896,0.505976,0.784823,-0.0642002,-0.0105843,0.96488,-0.0896454,-0.014782,0.0149695,2.33185,5,0.1,11,0.6,-2.21717,5.53532,0.633749,0.58769,-0.554943,-0.00837594,0.820398,-0.774622,-0.0116825,0.017143,2.21915,5,0.1,12,0.6,-1.316,1.74372,0.581655,-0.781113,0.127518,0.034292,-0.987828,0.178039,0.0478625,0.00936204,2.32182,5,0.1,13,0.6,4.33895,-2.75407,0.585625,-0.0621557,-0.144511,0.00643581,-0.0829697,0.216126,0.00864267,0.00811333,2.74889,5,0.1,14,0.6,3.85993,-0.588533,0.50519,-0.116324,-0.676493,-0.0150189,-0.155687,-0.905693,0.00917912,0.00914318,1.25794,5,0.1,15,0.6,-2.39468,-2.94614,0.693138,0.467569,-0.0241101,0.293997,0.626087,-0.0321865,0.393629,0.0158996,0.814342,5,0.1,16,0.6,3.85965,-5.15592,0.661949,-0.256306,0.48089,-0.0157222,-0.35727,-0.19598,-0.0219047,0.0596563,3.00526,5,0.1,17,0.6,-0.00330118,-0.585065,0.545344,0.47143,0.0604525,0.0244647,0.631173,0.0809133,0.0327528,0.0141801,0.603483,5,0.1,18,0.6,5.19384,1.15985,0.667316,-0.44477,-0.519124,-0.0301301,-0.595331,-0.69505,-0.0403523,0.0146121,1.24763,5,0.1,19,0.6,0.489269,2.14442,0.626252,-0.268616,0.0204802,-0.0169113,-0.359625,0.0274181,-0.02262,0.00871202,0.194127,5,0.1,20,0.6,1.52166,-3.13687,0.665407,-0.686538,0.425828,-0.0268623,-0.958443,0.594497,-0.0375211,0.0149172,2.13816,5,0.1,21,0.6,-2.29524,4.77965,0.550261,-0.668663,-0.365174,-0.0320151,-1.0103,-0.458956,-0.0394583,0.0321683,2.27966,5,0.1,22,0.6,-2.63785,4.97831,0.61866,0.525433,-0.145793,0.0146434,0.738025,0.271797,0.0546277,0.0564091,2.61989,5,0.1,23,0.6,-1.84031,-3.1419,0.644313,0.219455,0.466341,-0.0198424,0.293732,0.624299,-0.0265539,0.0168584,0.708759,5,0.1,24,0.6,2.86932,-3.00381,0.516081,0.39416,0.605929,-0.029473,0.52762,0.8111,-0.0388026,0.0121465,1.93214,5,0.1,25,0.6,2.54278,1.82616,0.533945,-0.65819,0.398755,0.0161409,-0.918984,0.12815,0.0225306,0.0297358,2.45208,5,0.1,26,0.6,-5.27335,-2.39281,0.629432,-0.249922,0.28773,0.0111058,-0.33474,0.385404,0.0148714,0.00841264,0.387381,5,0.1,27,0.6,-3.34098,-3.64618,0.641253,0.441682,0.0180006,0.276262,-0.243187,0.0251532,0.384629,0.0233273,3.03002,5,0.1,28,0.6,-1.71413,-4.50559,0.617176,0.121832,0.61214,-0.00575036,0.170052,-0.0481606,-0.00798702,0.0123239,2.86274,5,0.1,29,0.6,0.302118,3.31102,0.516058,-0.336627,0.263608,-0.0294432,-0.450701,0.352859,-0.0386834,0.0159595,0.489908,5,0.1
0,0.7,-1.73074,-1.57427,0.689224,-0.180592,0.82214,0.323179,-0.20583,0.595331,0.368308,0.0145655,2.1707,5,0.1,1,0.7,0.507708,-5.08409,0.555031,-0.184953,0.847954,0.0156962,-0.213806,0.405192,0.0181384,0.00876813,2.3152,5,0.1,2,0.7,3.19182,-3.42803,0.668446,-0.831032,0.340355,-0.0175508,-0.547305,0.39348,-0.0202805,0.0136599,2.26701,5,0.1,3,0.7,1.1006,-0.159078,0.607044,-0.850466,0.0319617,-0.00827638,-0.362128,0.0369353,-0.00956282,0.0137837,2.33437,5,0.1,4,0.7,1.79547,4.90848,0.670008,0.00239965,-0.375824,0.360667,0.00248104,-0.385702,0.370193,0.0267497,0.567556,5,0.1,5,0.7,0.952231,5.37243,0.668227,-0.0277038,0.014586,0.13026,-0.0284426,0.014931,-0.227518,0.00792073,0.392356,5,0.1,6,0.7,0.469134,-1.26923,0.63438,-0.0962798,0.849436,-0.0104194,0.0434946,0.375144,0.00395253,0.0117974,2.36075,5,0.1,7,0.7,-1.27432,-0.38893,0.638998,0.310841,0.067034,-0.0547484,0.319086,0.0688061,-0.0561923,0.0086458,0.217785,5,0.1,8,0.7,-3.63384,-2.05531,0.586459,0.256639,0.228605,0.00717305,0.263408,-0.495702,0.00736117,0.0181631,2.3876,5,0.1,9,0.7,-4.03705,-3.83937,0.542861,0.629611,0.0473782,0.0303028,0.646263,0.0486374,0.0311062,0.013564,0.835942,5,0.1,10,0.7,-1.78227,2.28272,0.504868,0.850136,-0.0731952,-0.0113521,0.367798,-0.084579,-0.00122935,0.0149695,2.33185,5,0.1,11,0.7,-2.15424,5.4759,0.632851,0.670124,-0.632615,-0.00959188,0.776157,-0.729978,-0.0117943,0.017143,2.21915,5,0.1,12,0.7,-1.39799,1.75737,0.585327,-0.848846,0.145385,0.0390958,-0.389889,0.168048,0.0451803,0.00936204,2.32182,5,0.1,13,0.7,4.33233,-2.76718,0.586311,-0.0701278,-0.116696,0.00726497,-0.0719428,0.276446,0.00746921,0.00811333,2.74889,5,0.1,14,0.7,3.84753,-0.660633,0.503756,-0.131273,-0.763443,-0.0134656,-0.134736,-0.783607,0.020802,0.00914318,1.25794,5,0.1,15,0.7,-2.34485,-2.94871,0.724472,0.527674,-0.0272017,0.331786,0.541672,-0.0278801,0.340559,0.0158996,0.814342,5,0.1,16,0.7,3.83231,-5.10968,0.660266,-0.289434,0.437566,-0.0179255,-0.288755,-0.575751,-0.0207648,0.0596563,3.00526,5,0.1,17,0.7,0.0469434,-0.578622,0.547951,0.532025,0.0682209,0.027609,0.546084,0.0700131,0.0283383,0.0141801,0.603483,5,0.1,18,0.7,5.14643,1.10453,0.664105,-0.501929,-0.58585,-0.0340039,-0.515163,-0.601336,-0.034906,0.0146121,1.24763,5,0.1,19,0.7,0.46064,2.1466,0.62445,-0.303141,0.0231139,-0.0190832,-0.311146,0.0237525,-0.0195727,0.00871202,0.194127,5,0.1,20,0.7,1.44833,-3.0913,0.662532,-0.77753,0.485008,-0.0305969,-0.811778,0.55258,-0.0348687,0.0149172,2.13816,5,0.1,21,0.7,-2.36707,4.7409,0.546869,-0.765588,-0.408545,-0.035695,-0.875503,-0.383854,-0.032112,0.0321683,2.27966,5,0.1,22,0.7,-2.58115,4.96459,0.620353,0.611417,-0.133199,0.0187762,0.910908,8.9407e-05,0.0278503,0.0564091,2.61989,5,0.1,23,0.7,-1.81692,-3.0922,0.642198,0.247656,0.526276,-0.0223913,0.254147,0.540137,-0.0229664,0.0168584,0.708759,5,0.1,24,0.7,2.9096,-2.93923,0.513009,0.395919,0.683799,-0.0313318,-0.412747,0.701785,-0.000368804,0.0121465,1.93214,5,0.1,25,0.7,2.47226,1.86588,0.535674,-0.751661,0.38844,0.0184331,-0.889525,-0.302702,0.0218228,0.0297358,2.45208,5,0.1,26,0.7,-5.29998,-2.36214,0.630615,-0.282058,0.324727,0.0125335,-0.289619,0.333413,0.0128634,0.00841264,0.387381,5,0.1,27,0.7,-3.2988,-3.64426,0.670815,0.396491,0.0204999,0.31451,-0.570223,0.0232905,0.356752,0.0233273,3.03002,5,0.1,28,0.7,-1.70109,-4.44579,0.61656,0.13884,0.574882,-0.00654962,0.159465,-0.591874,-0.00750273,0.0123239,2.86274,5,0.1,29,0.7,0.26624,3.33911,0.51299,-0.379896,0.297485,-0.0312936,-0.389941,0.305295,-0.0003241,0.0159595,0.489908,5,0.1
0,0.8,-1.74972,-1.48984,0.723174,-0.19742,0.85876,0.353286,-0.121236,0.145316,0.216991,0.0165082,1.62747,5,0.1,1,0.8,0.488261,-4.99805,0.556682,-0.202558,0.86602,0.01719,-0.128388,0.000238419,0.0108778,0.00790579,2.24038,5,0.1,2,0.8,3.1068,-3.39224,0.666601,-0.861782,0.372761,-0.019221,-0.084877,0.236392,-0.0121593,0.013398,2.17006,5,0.1,3,0.8,1.01447,-0.155718,0.606174,-0.866024,0.0350028,-0.00906289,-2.98023e-05,0.0221729,-0.00575185,0.0102948,2.27091,5,0.1,4,0.8,1.79572,4.86923,0.707673,0.00259578,-0.406063,0.389691,0.0012517,-0.202417,0.19443,0.0245031,0.400719,5,0.1,5,0.8,0.949338,5.37396,0.680163,-0.0299335,0.0157595,0.109412,-0.014931,0.00786781,-0.172794,0.00843608,0.458377,5,0.1,6,0.8,0.459923,-1.18314,0.633379,-0.0862107,0.866026,-0.00942498,0.147447,0,0.014931,0.0111546,2.59015,5,0.1,7,0.8,-1.24185,-0.38193,0.63328,0.335854,0.0724286,-0.0591531,0.167608,0.0361204,-0.0295043,0.00961935,0.153765,5,0.1,8,0.8,-3.60704,-2.03471,0.587208,0.277287,0.186414,0.00775009,0.138402,-0.31352,0.0038743,0.0194946,2.1767,5,0.1,9,0.8,-3.9713,-3.83442,0.546025,0.68028,0.0511885,0.0327408,0.339389,0.02563,0.0163615,0.0151269,0.590222,5,0.1,10,0.8,-1.69615,2.27503,0.503744,0.866023,-0.0801623,-0.0109553,5.96046e-05,-0.0506639,0.00861287,0.0100416,2.267,5,0.1,11,0.8,-2.08377,5.40939,0.631838,0.734097,-0.692677,-0.0105947,0.467181,-0.43726,-0.00762939,0.0167693,2.04191,5,0.1,12,0.8,-1.48406,1.77266,0.589437,-0.866023,0.159219,0.0428155,-5.96046e-05,0.100911,0.0271201,0.0084362,2.25111,5,0.1,13,0.8,4.32501,-2.77775,0.587069,-0.0757575,-0.0984848,0.00784993,-0.038147,0.0587702,0.00393391,0.00823648,3.03441,5,0.1,14,0.8,3.83382,-0.740361,0.502525,-0.141835,-0.824881,-0.0110567,-0.0708103,-0.411451,0.0265241,0.0124301,0.890838,5,0.1,15,0.8,-2.28974,-2.95155,0.759121,0.570142,-0.0293851,0.358488,0.284433,-0.0146627,0.178814,0.0132796,0.574965,5,0.1,16,0.8,3.80214,-5.06884,0.658381,-0.311303,0.380385,-0.0196382,-0.137687,-0.515938,-0.0125468,0.0563612,3.01876,5,0.1,17,0.8,0.102504,-0.571498,0.550834,0.574839,0.0737101,0.0298306,0.286762,0.0367761,0.0148714,0.011928,0.426092,5,0.1,18,0.8,5.09402,1.04334,0.660554,-0.542319,-0.632995,-0.0367403,-0.270605,-0.315785,-0.0183284,0.0139646,0.932192,5,0.1,19,0.8,0.428982,2.14901,0.622457,-0.327535,0.0249743,-0.0206187,-0.163406,0.012517,-0.010252,0.00817409,0.137065,5,0.1,20,0.8,1.36709,-3.04035,0.659318,-0.840816,0.530171,-0.0334471,-0.422776,0.325322,-0.0205338,0.014048,1.57155,5,0.1,21,0.8,-2.44744,4.69842,0.543165,-0.835353,-0.437844,-0.0380978,-0.488281,-0.18549,-0.0146031,0.0269216,2.16448,5,0.1,22,0.8,-2.51565,4.95096,0.622326,0.695336,-0.141799,0.0202328,0.715494,-0.152588,0.00160933,0.0553449,2.401,5,0.1,23,0.8,-1.79106,-3.03724,0.63986,0.26758,0.568628,-0.0241905,0.133514,0.28348,-0.0120699,0.0131471,0.500423,5,0.1,24,0.8,2.94612,-2.86782,0.509924,0.326073,0.738823,-0.0299245,-0.919223,0.368595,0.0267625,0.0154301,1.14521,5,0.1,25,0.8,2.39311,1.90272,0.537615,-0.825769,0.344029,0.0202507,-0.550151,-0.559032,0.0135005,0.0325751,2.49483,5,0.1,26,0.8,-5.32944,-2.32823,0.631924,-0.30477,0.350863,0.0135422,-0.151873,0.175238,0.00676513,0.00782299,0.273867,5,0.1,27,0.8,-3.26198,-3.6421,0.703845,0.341529,0.0223994,0.343628,-0.480533,0.0137091,0.209361,0.0219856,3.02688,5,0.1,28,0.8,-1.68649,-4.3915,0.615872,0.151929,0.510287,-0.00716448,0.0950098,-0.640154,-0.00450015,0.0173751,2.92606,5,0.1,29,0.8,0.226567,3.37018,0.509908,-0.410468,0.321424,-0.0298843,-0.204772,0.160336,0.0267923,0.0124165,0.485924,5,0.1
0,0.9,-1.77005,-1.40353,0.759564,-0.208868,0.865402,0.373775,-0.0969842,0.0113845,0.173576,0.0165082,1.62747,5,0.1,1,0.9,0.467337,-4.91145,0.558457,-0.215816,0.866026,0.0183136,-0.123149,0,0.0104345,0.00790579,2.24038,5,0.1,2,0.9,3.02036,-3.35373,0.664615,-0.86576,0.39722,-0.0204792,-0.0106096,0.2276,-0.0117123,0.013398,2.17006,5,0.1,3,0.9,0.927869,-0.152102,0.605238,-0.866026,0.0372911,-0.00965595,0,0.0212425,-0.00550598,0.0102948,2.27091,5,0.1,4,0.9,1.79598,4.82766,0.747569,0.00270978,-0.424404,0.407309,0.00089407,-0.144929,0.13927,0.0245031,0.400719,5,0.1,5,0.9,0.946117,5.37526,0.690337,-0.0357315,0.00758544,0.0960622,-0.0897199,-0.152379,-0.0578761,0.00843608,0.458377,5,0.1,6,0.9,0.452208,-1.09745,0.632594,-0.066673,0.839275,-0.00558048,0.231545,-0.512123,0.0566468,0.0111546,2.59015,5,0.1,7,0.9,-1.20747,-0.374515,0.627224,0.35104,0.0757017,-0.0618269,0.120029,0.0258759,-0.0211336,0.00961935,0.153765,5,0.1,8,0.9,-3.57865,-2.01735,0.588002,0.289827,0.16595,0.00810176,0.0991076,-0.0149459,0.00278652,0.0194946,2.1767,5,0.1,9,0.9,-3.90165,-3.82918,0.549378,0.711033,0.0535108,0.0342232,0.243098,0.0183582,0.0117235,0.0151269,0.590222,5,0.1,10,0.9,-1.60955,2.26675,0.502705,0.866026,-0.0853967,-0.00969963,7.45058e-06,-0.0486225,0.0158064,0.0100416,2.267,5,0.1,11,0.9,-2.00793,5.33785,0.630738,0.782528,-0.737955,-0.0113999,0.451595,-0.421464,-0.00768527,0.0167693,2.04191,5,0.1,12,0.9,-1.57067,1.7891,0.59386,-0.866026,0.169623,0.0456122,-7.45058e-06,0.0965074,0.0259466,0.0084362,2.25111,5,0.1,13,0.9,4.31725,-2.78767,0.587873,-0.0792146,-0.104973,0.00820588,-0.0273585,-0.235602,0.00281632,0.00823648,3.03441,5,0.1,14,0.9,3.8193,-0.824588,0.501555,-0.148252,-0.856077,-0.00832379,-0.0507385,-0.197288,0.0274479,0.0124301,0.890838,5,0.1,15,0.9,-2.23137,-2.95456,0.795823,0.595916,-0.0307146,0.374691,0.203714,-0.0105053,0.128083,0.0132796,0.574965,5,0.1,16,0.9,3.77041,-5.03325,0.656353,-0.322248,0.335866,-0.0209076,-0.0699311,-0.257075,-0.0115708,0.0563612,3.01876,5,0.1,17,0.9,0.161355,-0.563951,0.553888,0.600824,0.0770427,0.0311782,0.205406,0.0263453,0.0106506,0.011928,0.426092,5,0.1,18,0.9,5.03849,0.979238,0.656793,-0.566842,-0.641794,-0.0384009,-0.193864,0.125375,-0.0131279,0.0139646,0.932192,5,0.1,19,0.9,0.39545,2.15157,0.620346,-0.342342,0.0261091,-0.0215481,-0.117045,0.0090003,-0.00735,0.00817409,0.137065,5,0.1,20,0.9,1.2816,-2.98574,0.655873,-0.863219,0.560886,-0.0353855,-0.0748485,0.260115,-0.0164099,0.014048,1.57155,5,0.1,21,0.9,-2.53265,4.65369,0.539281,-0.862544,-0.456328,-0.0395357,-0.107974,-0.159889,-0.0121258,0.0269216,2.16448,5,0.1,22,0.9,-2.44232,4.9354,0.624309,0.771696,-0.17454,0.0189943,0.748262,-0.452429,-0.0241771,0.0553449,2.401,5,0.1,23,0.9,-1.76367,-2.97903,0.637383,0.279679,0.594318,-0.0252839,0.0956357,0.203073,-0.00864267,0.0131471,0.500423,5,0.1,24,0.9,2.97438,-2.79234,0.507967,0.241521,0.76778,-0.00164667,-0.772342,0.185013,0.482302,0.0154301,1.14521,5,0.1,25,0.9,2.30849,1.93395,0.539706,-0.860097,0.277799,0.0215078,-0.16439,-0.728585,0.0105575,0.0325751,2.49483,5,0.1,26,0.9,-5.36058,-2.29231,0.633311,-0.316658,0.366739,0.014155,-0.0759661,0.125468,0.00484288,0.00782299,0.273867,5,0.1,27,0.9,-3.23007,-3.63979,0.739265,0.301523,0.0237528,0.364328,-0.207201,0.0120252,0.183899,0.0219856,3.02688,5,0.1,28,0.9,-1.67081,-4.34368,0.615133,0.161496,0.449617,-0.00761719,0.086695,-0.442386,-0.00410154,0.0173751,2.92606,5,0.1,29,0.9,0.184387,3.40308,0.50709,-0.433468,0.335954,-0.0261717,-0.2257,0.114843,0.0455417,0.0124165,0.485924,5,0.1
0,1,-1.79131,-1.31704,0.797609,-0.215021,0.863317,0.384788,-0.0189543,-0.0541806,0.0338256,0.019087,1.20606,5,0.1,1,1,0.44524,-4.82484,0.560332,-0.224885,0.866032,0.0190824,-0.0488311,-0.000238419,0.00411272,0.00829324,2.23718,5,0.1,2,1,2.93376,-3.31306,0.662518,-0.866026,0.414026,-0.0213429,0,0.0909567,-0.00467896,0.0123837,2.15755,5,0.1,3,1,0.841266,-0.148284,0.604249,-0.866026,0.038854,-0.0100613,0,0.0083968,-0.00214577,0.009434,2.27081,5,0.1,4,1,1.79626,4.78472,0.788781,0.00275671,-0.431836,0.414443,-0.000119209,0.00977516,-0.0089407,0.0264924,0.272501,5,0.1,5,1,0.942049,5.37512,0.7,-0.0458822,-0.0113249,0.100522,-0.104696,-0.211239,0.137657,0.00847947,0.389813,5,0.1,6,1,0.446757,-1.01677,0.632352,-0.0419982,0.768054,0.000959635,0.252724,-0.890702,0.0700653,0.0105423,2.95699,5,0.1,7,1,-1.17195,-0.366855,0.620969,0.35719,0.0770271,-0.0629082,-0.0077486,-0.00166893,0.0013411,0.00932309,0.177064,5,0.1,8,1,-3.54932,-2,0.588822,0.294906,0.188991,0.00824481,-0.00631809,0.45073,-0.000178814,0.0173768,1.85421,5,0.1,9,1,-3.82971,-3.82377,0.55284,0.723487,0.0544608,0.034824,-0.0156164,-0.0013113,-0.000745058,0.0175855,0.401371,5,0.1,10,1,-1.52295,2.258,0.501822,0.866026,-0.0889778,-0.00791997,-5.96046e-05,-0.0191927,0.0191927,0.0103826,2.26658,5,0.1,11,1,-1.92778,5.26228,0.629565,0.815982,-0.769079,-0.0119984,0.182986,-0.168085,-0.00372529,0.0170949,1.95385,5,0.1,12,1,-1.65727,1.80647,0.59853,-0.866026,0.176719,0.0475183,0,0.0379086,0.010252,0.00861921,2.24911,5,0.1,13,1,4.30923,-2.8,0.588704,-0.0806212,-0.147629,0.00834912,0.00143051,-0.590801,-0.000178814,0.00830318,3.3057,5,0.1,14,1,3.8043,-0.910746,0.500857,-0.150853,-0.862652,-0.00568181,0.00321865,0.0674725,0.0248551,0.00841591,0.614238,5,0.1,15,1,-2.17108,-2.95767,0.833734,0.606352,-0.0312507,0.381251,-0.013113,0.000596046,-0.00825524,0.0168266,0.390995,5,0.1,16,1,3.73802,-5,0.654214,-0.323445,0.338542,-0.0217408,0.0530481,0.288725,-0.00417233,0.0526016,2.84982,5,0.1,17,1,0.222147,-0.556156,0.557043,0.611345,0.078392,0.0317231,-0.0132179,-0.00169873,-0.000685453,0.0187682,0.289758,5,0.1,18,1,4.98114,0.916312,0.652907,-0.576782,-0.610821,-0.0390723,0.0123978,0.47949,0.000804663,0.0125691,0.748281,5,0.1,19,1,0.360811,2.15421,0.618166,-0.348337,0.0265658,-0.0219241,0.00751019,-0.000357628,0.000476837,0.00870632,0.15784,5,0.1,20,1,1.19519,-2.92865,0.652271,-0.862616,0.577378,-0.0364259,0.0682473,0.0504255,-0.00318885,0.0156843,1.12171,5,0.1,21,1,-2.61917,4.60746,0.535285,-0.866026,-0.465727,-0.040181,0,-0.0114441,0.000536442,0.0333332,2.13841,5,0.1,22,1,-2.36178,4.91552,0.62606,0.834322,-0.223541,0.0157982,0.461102,-0.48995,-0.0379384,0.0503082,2.25109,5,0.1,23,1,-1.73537,-2.91889,0.634825,0.284576,0.604719,-0.0257254,-0.00607967,-0.0132322,0.000536442,0.0194429,0.340313,5,0.1,24,1,2.99491,-2.71511,0.510581,0.171453,0.771701,0.0564858,-0.63014,-0.122309,0.636339,0.0124581,0.848978,5,0.1,25,1,2.22205,1.95805,0.541897,-0.866026,0.204593,0.0221819,0,-0.709772,0.00217557,0.0278244,2.57187,5,0.1,26,1,-5.39243,-2.2552,0.634743,-0.318336,0.373167,0.0144035,0.0481606,-0.00798702,-0.000298023,0.00797083,0.196794,5,0.1,27,1,-3.2,-3.63737,0.776436,0.309038,0.024575,0.376922,0.33462,0.00357628,0.0538826,0.0235344,2.81898,5,0.1,28,1,-1.65431,-4.3,0.614354,0.16765,0.43323,-0.00790954,0.0296831,0.0982285,-0.00137091,0.0136115,2.77145,5,0.1,29,1,0.140075,3.43708,0.504718,-0.450585,0.341839,-0.0211254,-0.095945,-0.00739098,0.053823,0.017373,0.34689,5,0.1
0,1.1,-1.8129,-1.23075,0.836242,-0.216451,0.863698,0.387339,-0.000983477,0.0175387,0.00169873,0.019087,1.20606,5,0.1,1,1.1,0.422462,-4.73824,0.562265,-0.230796,0.866023,0.0195814,-0.0560228,2.98023e-05,0.00473112,0.00829324,2.23718,5,0.1,2,1.1,2.84716,-3.27111,0.660356,-0.866026,0.425134,-0.0219144,0,0.106305,-0.00546873,0.0123837,2.15755,5,0.1,3,1.1,0.754664,-0.144349,0.60323,-0.866026,0.0398697,-0.0103218,3.72529e-06,0.00961591,-0.00247359,0.009434,2.27081,5,0.1,4,1.1,1.79653,4.7416,0.830163,0.00274014,-0.429906,0.412627,-0.000305474,0.0446439,-0.0425428,0.0264924,0.272501,5,0.1,5,1.1,0.936959,5.37281,0.711171,-0.0556008,-0.035581,0.12629,-0.0860356,-0.259638,0.342358,0.00847947,0.389813,5,0.1,6,1.1,0.443128,-0.944726,0.632856,-0.0365558,0.670102,0.00954363,-0.106176,-1.05233,0.095807,0.0105423,2.95699,5,0.1,7,1.1,-1.13603,-0.35911,0.614643,0.362729,0.0782223,-0.0638863,0.0894219,0.0192933,-0.0157729,0.00932309,0.177064,5,0.1,8,1.1,-3.51988,-1.97784,0.589645,0.293616,0.262229,0.00820905,-0.0302494,0.928916,-0.000841916,0.0173768,1.85421,5,0.1,9,1.1,-3.75747,-3.81833,0.556318,0.720315,0.0542119,0.0346718,-0.0742674,-0.00566244,-0.00356883,0.0175855,0.401371,5,0.1,10,1.1,-1.43635,2.24899,0.501127,0.866025,-0.0913139,-0.00595953,1.49012e-05,-0.0222474,0.0195652,0.0103826,2.26658,5,0.1,11,1.1,-1.84508,5.18436,0.628341,0.838702,-0.789825,-0.012497,0.221252,-0.200182,-0.00533834,0.0170949,1.95385,5,0.1,12,1.1,-1.74387,1.82437,0.603342,-0.866026,0.181269,0.0487466,0,0.0427291,0.0115298,0.00861921,2.24911,5,0.1,13,1.1,4.3012,-2.81776,0.589536,-0.0798695,-0.207507,0.00826837,0.0155866,-0.585571,-0.00164285,0.00830318,3.3057,5,0.1,14,1.1,3.78924,-0.996695,0.500405,-0.150196,-0.855659,-0.00343677,0.0154376,0.106081,0.019826,0.00841591,0.614238,5,0.1,15,1.1,-2.11053,-2.96079,0.871801,0.603691,-0.0311203,0.379577,-0.0622571,0.00315905,-0.0391565,0.0168266,0.390995,5,0.1,16,1.1,3.70638,-4.96337,0.652016,-0.305406,0.404798,-0.0222233,0.291362,0.929743,-0.00428036,0.0526016,2.84982,5,0.1,17,1.1,0.283189,-0.548329,0.56021,0.608664,0.078048,0.031584,-0.0627701,-0.00804663,-0.00325963,0.0187682,0.289758,5,0.1,18,1.1,4.92355,0.858344,0.649006,-0.57426,-0.542474,-0.038904,0.059098,0.84443,0.00398979,0.0125691,0.748281,5,0.1,19,1.1,0.325786,2.15688,0.615962,-0.353745,0.0269957,-0.0222647,-0.0872612,0.00679493,-0.00550225,0.00870632,0.15784,5,0.1,20,1.1,1.10909,-2.87068,0.648614,-0.860186,0.581173,-0.0366658,0.0243485,0.00225008,-0.000141561,0.0156843,1.12171,5,0.1,21,1.1,-2.70577,4.56074,0.531262,-0.866026,-0.468972,-0.0403053,0,-0.028789,-0.000942498,0.0333332,2.13841,5,0.1,22,1.1,-2.27669,4.89039,0.627433,0.861882,-0.28133,0.0115367,0.122502,-0.621051,-0.0456944,0.0503082,2.25109,5,0.1,23,1.1,-1.70695,-2.85851,0.632256,0.283335,0.602055,-0.0256138,-0.029169,-0.0621974,0.00263751,0.0194429,0.340313,5,0.1,24,1.1,3.00912,-2.63864,0.519741,0.114778,0.756173,0.128915,-0.504375,-0.209585,0.769809,0.0124581,0.848978,5,0.1,25,1.1,2.13545,1.97499,0.544129,-0.86578,0.135591,0.0224453,0.00983477,-0.626191,0.00198558,0.0278244,2.57187,5,0.1,26,1.1,-5.42363,-2.21794,0.636181,-0.302423,0.371535,0.0143413,0.247329,-0.0383109,-0.00147149,0.00797083,0.196794,5,0.1,27,1.1,-3.16612,-3.6349,0.814379,0.379047,0.0248674,0.381351,0.960499,0.0012666,0.0191703,0.0235344,2.81898,5,0.1,28,1.1,-1.63738,-4.25483,0.613555,0.170923,0.481104,-0.00806162,0.0270605,0.753194,-0.00125542,0.0136115,2.77145,5,0.1,29,1.1,0.0944979,3.47121,0.502877,-0.460758,0.34034,-0.0156907,-0.0841199,-0.0350922,0.0536963,0.017373,0.34689,5,0.1
0,1.2,-1.83446,-1.14446,0.874829,-0.213778,0.859496,0.382552,0.0601411,-0.130594,-0.107646,0.0141756,0.865031,5,0.1,1,1.2,0.39918,-4.65164,0.56424,-0.233828,0.866032,0.0198364,0.00466406,-0.000238419,-0.00038743,0.0110456,2.23663,5,0.1,2,1.2,2.76056,-3.22821,0.658144,-0.866026,0.431067,-0.0222206,0,-0.00488758,0.000298023,0.0126723,2.15465,5,0.1,3,1.2,0.668061,-0.140327,0.602189,-0.866026,0.0403866,-0.0104532,0,-0.000864267,0.000208616,0.00987041,2.2708,5,0.1,4,1.2,1.7968,4.699,0.871057,0.00267625,-0.420284,0.403421,-0.000953674,0.157833,-0.151545,0.0262977,0.181207,5,0.1,5,1.2,0.931024,5.36797,0.72561,-0.062485,-0.0607729,0.162785,-0.0492632,-0.23365,0.360727,0.00858574,0.316123,5,0.1,6,1.2,0.438606,-0.883132,0.634293,-0.0564948,0.560579,0.0191063,-0.262916,-1.12429,0.0911057,0.0104977,3.04345,5,0.1,7,1.2,-1.09935,-0.351199,0.608182,0.370058,0.0798039,-0.0651792,0.03618,0.00782311,-0.0063777,0.00998359,0.105474,5,0.1,8,1.2,-3.49078,-1.94676,0.590459,0.287068,0.35983,0.00802577,-0.107884,0.95886,-0.00298023,0.0160887,1.48116,5,0.1,9,1.2,-3.68608,-3.81296,0.559754,0.704247,0.0530005,0.0338987,-0.264645,-0.0200272,-0.0127256,0.0169596,0.612498,5,0.1,10,1.2,-1.34974,2.23978,0.500627,0.866026,-0.0925243,-0.00408292,-5.96046e-05,0.00166893,0.0176132,0.00997492,2.26655,5,0.1,11,1.2,-1.76037,5.10464,0.627068,0.851715,-0.801206,-0.0129119,0.00405312,0.00500679,-0.00232458,0.0115422,1.92293,5,0.1,12,1.2,-1.83047,1.84265,0.608258,-0.866026,0.183508,0.0493512,0,-0.005126,-0.0013411,0.0140023,2.24895,5,0.1,13,1.2,4.29332,-2.84128,0.59035,-0.0771642,-0.260913,0.00798702,0.0391006,-0.465751,-0.00408292,0.0162457,3.41897,5,0.1,14,1.2,3.77435,-1.08144,0.500151,-0.146848,-0.835815,-0.00174493,0.0550747,0.313461,0.0139177,0.00806014,0.46283,5,0.1,15,1.2,-2.05071,-2.96387,0.909419,0.590223,-0.0304341,0.371107,-0.221848,0.0115633,-0.139415,0.0121014,0.259991,5,0.1,16,1.2,3.67758,-4.9179,0.64978,-0.268209,0.505733,-0.0223935,0.438452,1.00803,0.00163913,0.0585647,2.55407,5,0.1,17,1.2,0.343511,-0.540594,0.56334,0.595083,0.0763059,0.0308797,-0.223548,-0.02864,-0.0115931,0.010319,0.615581,5,0.1,18,1.2,4.86663,0.808631,0.64515,-0.561452,-0.449501,-0.0380382,0.210762,0.982434,0.0143051,0.0190067,0.846366,5,0.1,19,1.2,0.290009,2.15962,0.61371,-0.360899,0.0275552,-0.0227153,-0.0353158,0.0026226,-0.00223517,0.0130374,0.0940234,5,0.1,20,1.2,1.02341,-2.81279,0.644961,-0.850293,0.573963,-0.0362098,0.203997,-0.161767,0.0101924,0.021938,0.781489,5,0.1,21,1.2,-2.79237,4.51383,0.527238,-0.866026,-0.4673,-0.04002,0,0.0793934,0.00810623,0.0270457,2.14187,5,0.1,22,1.2,-2.19019,4.85923,0.628356,0.866026,-0.339997,0.00694096,0,-0.519753,-0.0449717,0.0529376,2.19024,5,0.1,23,1.2,-1.67887,-2.79885,0.629718,0.277016,0.58862,-0.0250414,-0.10401,-0.221252,0.00938773,0.0149667,0.226297,5,0.1,24,1.2,3.01827,-2.56436,0.536414,0.0703275,0.726312,0.20307,-0.38588,-0.40102,0.681937,0.0131813,0.621461,5,0.1,25,1.2,2.049,1.98582,0.546375,-0.862092,0.0856757,0.022392,0.0786781,-0.353038,-0.0038147,0.0292977,2.57479,5,0.1,26,1.2,-5.45246,-2.18112,0.637602,-0.272632,0.363249,0.014022,0.333786,-0.136495,-0.00527501,0.0120076,0.141273,5,0.1,27,1.2,-3.12309,-3.63241,0.85245,0.482672,0.0246644,0.378177,1.03259,-0.00607967,-0.0929236,0.0308492,2.46767,5,0.1,28,1.2,-1.62021,-4.20259,0.612746,0.171599,0.565243,-0.00809133,-0.0196695,0.849247,0.000923872,0.0148,2.48723,5,0.1,29,1.2,0.0481775,3.50494,0.501569,-0.46347,0.332749,-0.0105843,0.0458735,-0.125051,0.0475943,0.012032,0.37052,5,0.1
0,1.3,-1.85555,-1.05898,0.912557,-0.207771,0.850799,0.3718,0.0671148,-0.0851117,-0.1201,0.0141756,0.865031,5,0.1,1,1.3,0.375757,-4.56504,0.566227,-0.234931,0.866023,0.0199308,-0.0135228,2.98023e-05,0.00115857,0.0110456,2.23663,5,0.1,2,1.3,2.67395,-3.185,0.655918,-0.866026,0.433644,-0.0223497,0,0.0315458,-0.00159442,0.0126723,2.15465,5,0.1,3,1.3,0.581459,-0.136282,0.601142,-0.866026,0.0405709,-0.0105021,1.78814e-06,0.0022715,-0.000592321,0.00987041,2.2708,5,0.1,4,1.3,1.79707,4.65774,0.910658,0.00258144,-0.404681,0.388439,-0.00102073,0.16728,-0.160616,0.0262977,0.181207,5,0.1,5,1.3,0.924657,5.36071,0.743841,-0.0636751,-0.0844613,0.202646,0.0213832,-0.229299,0.409584,0.00858574,0.316123,5,0.1,6,1.3,0.430961,-0.831788,0.636626,-0.101707,0.474435,0.0271705,-0.583399,-0.636164,0.0681095,0.0104977,3.04345,5,0.1,7,1.3,-1.06212,-0.343171,0.601625,0.374445,0.080752,-0.0659524,0.032872,0.00710599,-0.0057891,0.00998359,0.105474,5,0.1,8,1.3,-3.4626,-1.90564,0.591247,0.276403,0.464078,0.007731,-0.114337,1.06143,-0.00317022,0.0160887,1.48116,5,0.1,9,1.3,-3.61664,-3.80776,0.563081,0.686976,0.0510238,0.0326406,-0.122398,-0.0211596,-0.013493,0.0169596,0.612498,5,0.1,10,1.3,-1.26314,2.23051,0.500301,0.866025,-0.0929981,-0.00249008,1.49012e-05,-0.00587106,0.0140853,0.00997492,2.26655,5,0.1,11,1.3,-1.67491,5.0243,0.625761,0.858868,-0.806966,-0.0132694,0.0879392,-0.0726581,-0.00393018,0.0115422,1.92293,5,0.1,12,1.3,-1.91708,1.86102,0.613199,-0.866026,0.184141,0.0495241,0,0.00766665,0.00208244,0.0140023,2.24895,5,0.1,13,1.3,4.28581,-2.86907,0.591128,-0.0730827,-0.28877,0.00756187,0.0441074,-0.106931,-0.00459328,0.0162457,3.41897,5,0.1,14,1.3,3.75978,-1.16352,0.500036,-0.145847,-0.805596,-0.000654813,-0.0206232,0.318624,0.00809506,0.00806014,0.46283,5,0.1,15,1.3,-1.99277,-2.96686,0.945848,0.568294,-0.0292934,0.357325,-0.235066,0.0121891,-0.147756,0.0121014,0.259991,5,0.1,16,1.3,3.65311,-4.86169,0.647544,-0.22001,0.622308,-0.0223492,0.512704,1.23456,0.000398606,0.0585647,2.55407,5,0.1,17,1.3,0.400722,-0.53235,0.56614,0.538812,0.0948638,0.023164,-0.844082,0.349529,-0.128984,0.010319,0.615581,5,0.1,18,1.3,4.81152,0.768772,0.641416,-0.540616,-0.347243,-0.0366241,0.223368,1.01129,0.0151619,0.0190067,0.846366,5,0.1,19,1.3,0.253702,2.16239,0.611425,-0.36518,0.0278752,-0.0229863,-0.0320888,0.00239909,-0.00203028,0.0130374,0.0940234,5,0.1,20,1.3,0.93928,-2.75618,0.64139,-0.832639,0.557807,-0.0351914,0.184514,-0.180438,0.0113808,0.021938,0.781489,5,0.1,21,1.3,-2.87897,4.46736,0.523264,-0.866026,-0.462867,-0.0395133,0,0.0342131,0.00413135,0.0270457,2.14187,5,0.1,22,1.3,-2.10362,4.82242,0.628824,0.864701,-0.397412,0.00244565,-0.0441074,-0.585377,-0.0437871,0.0529376,2.19024,5,0.1,23,1.3,-1.65168,-2.74107,0.62726,0.266732,0.566751,-0.0241127,-0.110261,-0.234425,0.00996143,0.0149667,0.226297,5,0.1,24,1.3,3.02353,-2.49371,0.560185,0.0364717,0.686372,0.272038,-0.292286,-0.415877,0.665154,0.0131813,0.621461,5,0.1,25,1.3,1.96287,1.99302,0.548601,-0.862519,0.0637358,0.0221432,-0.0411868,-0.0292584,-0.00227615,0.0292977,2.57479,5,0.1,26,1.3,-5.47794,-2.14546,0.638979,-0.236806,0.349754,0.0135005,0.350982,-0.144675,-0.00559166,0.0120076,0.141273,5,0.1,27,1.3,-3.06911,-3.62998,0.889833,0.600084,0.0240911,0.369431,1.23055,-0.00630319,-0.0961684,0.0308492,2.46767,5,0.1,28,1.3,-1.60312,-4.1412,0.61194,0.170262,0.666516,-0.00802865,-0.0150874,1.08868,0.00071153,0.0148,2.48723,5,0.1,29,1.3,0.00187547,3.5376,0.500732,-0.463676,0.320389,-0.00632303,-0.0212588,-0.132501,0.0373013,0.012032,0.37052,5,0.1
0,1.4,-1.87593,-0.974533,0.949031,-0.199178,0.835399,0.356416,0.109613,-0.25183,-0.19595,0.011996,0.869483,5,0.1,1,1.4,0.352254,-4.47843,0.568221,-0.234287,0.866032,0.0198767,0.0356734,-0.000238419,-0.00303984,0.0118203,2.23758,5,0.1,2,1.4,2.58735,-3.14159,0.65368,-0.866026,0.433153,-0.0223219,0,-0.0588894,0.00306964,0.020029,2.15648,5,0.1,3,1.4,0.494856,-0.132224,0.600091,-0.866025,0.0404537,-0.0104725,-1.43051e-05,-0.00622123,0.00160933,0.0125376,2.27083,5,0.1,4,1.4,1.79732,4.61821,0.9486,0.00245571,-0.384665,0.369215,-0.00149012,0.241995,-0.23216,0.0240883,0.119275,5,0.1,5,1.4,0.918485,5.35119,0.766053,-0.0589713,-0.104785,0.24007,0.0691414,-0.169754,0.319451,0.00805297,0.27912,5,0.1,6,1.4,0.417735,-0.786979,0.639632,-0.163113,0.426412,0.03241,-0.602052,-0.356108,0.0355244,0.0108335,2.93108,5,0.1,7,1.4,-1.02464,-0.335088,0.595023,0.373486,0.0805467,-0.0657842,-0.0647902,-0.0139624,0.0113845,0.00888264,0.0567961,5,0.1,8,1.4,-3.4356,-1.8542,0.592002,0.262719,0.56099,0.00735074,-0.165224,0.830352,-0.00461936,0.0134593,1.12659,5,0.1,9,1.4,-3.5486,-3.80277,0.56627,0.672621,0.0485003,0.0310257,-0.19455,-0.0306368,-0.0195205,0.0172741,2.76413,5,0.1,10,1.4,-1.17654,2.2212,0.500116,0.866026,-0.0927985,-0.00128448,-5.96046e-05,0.0134706,0.00995398,0.0177588,2.26671,5,0.1,11,1.4,-1.58879,4.94343,0.624417,0.860596,-0.807631,-0.0135437,-0.0892282,0.0927448,-0.000953674,0.01936,1.9223,5,0.1,12,1.4,-2.00368,1.87942,0.618149,-0.866026,0.18332,0.049305,0,-0.0311732,-0.00837445,0.00904193,2.12357,5,0.1,13,1.4,4.27874,-2.89799,0.59186,-0.0680804,-0.285292,0.0070408,0.056982,0.162244,-0.00590086,0.0116899,3.61014,5,0.1,14,1.4,3.74507,-1.24229,0.500003,-0.148457,-0.767469,-7.89762e-05,-0.0208616,0.462413,0.00363588,0.0136064,0.314965,5,0.1,15,1.4,-1.93726,-2.96972,0.980752,0.540164,-0.0278413,0.339641,-0.339746,0.017643,-0.213534,0.0120255,0.281897,5,0.1,16,1.4,3.6337,-4.79351,0.645317,-0.16796,0.737298,-0.0221163,0.518203,1.0004,0.00506639,0.0561255,0.919585,5,0.1,17,1.4,0.449754,-0.520832,0.567711,0.436746,0.137311,0.00753254,-1.15024,0.460684,-0.172853,0.00817762,0.284991,5,0.1,18,1.4,4.75871,0.738829,0.637839,-0.513864,-0.255102,-0.0348106,0.322819,0.804394,0.0219047,0.0108834,0.740695,5,0.1,19,1.4,0.217151,2.16518,0.609124,-0.364249,0.0278056,-0.0229299,0.0631654,-0.00500679,0.00399351,0.0153469,0.0711757,5,0.1,20,1.4,0.857143,-2.70146,0.637938,-0.807424,0.534707,-0.0337347,0.344008,-0.294209,0.0185966,0.0175342,0.532803,5,0.1,21,1.4,-2.96558,4.42134,0.519341,-0.866026,-0.456214,-0.0388369,0,0.116587,0.0109375,0.0221524,2.14898,5,0.1,22,1.4,-2.01762,4.77993,0.62886,0.851938,-0.449657,-0.00161678,-0.246286,-0.428677,-0.0366867,0.0792797,2.20158,5,0.1,23,1.4,-1.62563,-2.68571,0.624904,0.253534,0.538701,-0.0229195,-0.159442,-0.338793,0.0144243,0.0123375,0.148959,5,0.1,24,1.4,3.02587,-2.4273,0.590469,0.0116289,0.640154,0.330606,-0.205994,-0.520349,0.483543,0.0182796,0.440637,5,0.1,25,1.4,1.87651,2,0.550799,-0.862828,0.0831068,0.0217468,0.0639558,0.392914,-0.0064373,0.0231668,2.44648,5,0.1,26,1.4,-5.5,-2.1113,0.640297,-0.205815,0.332439,0.0128329,0.267029,-0.209093,-0.00810623,0.0085151,0.190181,5,0.1,27,1.4,-3.0032,-3.6276,0.926196,0.714099,0.0232518,0.356567,0.987887,-0.0112057,-0.170648,0.0192267,1.90264,5,0.1,28,1.4,-1.58622,-4.0693,0.611143,0.16723,0.767851,-0.00788569,-0.0510812,0.874281,0.00238419,0.0159689,2.26669,5,0.1,29,1.4,-0.0445163,3.5689,0.500267,-0.462808,0.304532,-0.00316203,0.0590348,-0.191569,0.0258386,0.0142251,0.272557,5,0.1
0,1.5,-1.89547,-0.891968,0.98373,-0.192891,0.817623,0.33765,0.0313893,-0.147309,-0.189956,0.011996,0.869483,5,0.1,1,1.5,0.328928,-4.39183,0.5702,-0.232665,0.866023,0.0197379,0.00984222,2.98023e-05,-0.000841916,0.0118203,2.23758,5,0.1,2,1.5,2.50075,-3.09842,0.651456,-0.866026,0.431056,-0.0222112,0,-0.00786781,0.000420958,0.020029,2.15648,5,0.1,3,1.5,0.408254,-0.128196,0.599049,-0.866025,0.0401685,-0.0103987,1.78814e-06,-0.00173831,0.00045076,0.0125376,2.27083,5,0.1,4,1.5,1.79756,4.58091,0.984406,0.00231303,-0.361583,0.34707,-0.00143051,0.230581,-0.22123,0.0240883,0.119275,5,0.1,5,1.5,0.912992,5.33988,0.791114,-0.050378,-0.121074,0.256129,0.0991896,-0.147671,0.0172034,0.00805297,0.27912,5,0.1,6,1.5,0.398619,-0.744856,0.642981,-0.216832,0.426478,0.0339383,-0.46044,0.271626,-0.00297278,0.0108335,2.93108,5,0.1,7,1.5,-0.987642,-0.327108,0.588506,0.36601,0.0789357,-0.0644697,-0.0963099,-0.0207629,0.0169501,0.00888264,0.0567961,5,0.1,8,1.5,-3.41012,-1.79391,0.592715,0.24696,0.64379,0.00691023,-0.157461,0.77574,-0.00440329,0.0134593,1.12659,5,0.1,9,1.5,-3.48256,-3.79808,0.569944,0.645428,0.045358,0.0480599,-0.352815,-0.0330955,0.317331,0.0172741,2.76413,5,0.1,10,1.5,-1.08994,2.21196,0.50003,0.866025,-0.0922486,-0.000501331,1.49012e-05,0.00277162,0.00585243,0.0177588,2.26671,5,0.1,11,1.5,-1.50282,4.86286,0.623061,0.861081,-0.80509,-0.0135572,0.0445694,0.00411272,0.00110641,0.01936,1.9223,5,0.1,12,1.5,-2.09028,1.89765,0.62305,-0.866026,0.18141,0.0487916,0,-0.0164509,-0.00442564,0.00904193,2.12357,5,0.1,13,1.5,4.2722,-2.92531,0.592535,-0.0626728,-0.257497,0.00648107,0.0528097,0.374705,-0.00546873,0.0116899,3.61014,5,0.1,14,1.5,3.73004,-1.31683,0.500009,-0.152484,-0.723713,0.000152923,-0.048399,0.435755,0.00117719,0.0136064,0.314965,5,0.1,15,1.5,-1.88472,-2.97242,1.01369,0.512203,-0.0261612,0.319272,-0.244692,0.0167489,-0.203487,0.0120255,0.281897,5,0.1,16,1.5,3.61949,-4.71535,0.643112,-0.116628,0.819612,-0.0221145,0.499934,0.622988,-0.00314042,0.0561255,0.919585,5,0.1,17,1.5,0.487881,-0.504531,0.567483,0.327947,0.190451,-0.0129524,-1.0209,0.565436,-0.224385,0.00817762,0.284991,5,0.1,18,1.5,4.70888,0.716949,0.634463,-0.483066,-0.187658,-0.0327213,0.307679,0.500102,0.0208691,0.0108834,0.740695,5,0.1,19,1.5,0.180955,2.16794,0.606845,-0.360051,0.0274707,-0.0226647,0.0398141,-0.00314415,0.00251085,0.0153469,0.0711757,5,0.1,20,1.5,0.778007,-2.64941,0.634654,-0.775683,0.506531,-0.0319542,0.319723,-0.285149,0.0180155,0.0175342,0.532803,5,0.1,21,1.5,-3.05218,4.37614,0.515535,-0.866026,-0.448801,-0.0370665,0,0.0566244,0.0242591,0.0221524,2.14898,5,0.1,22,1.5,-1.93351,4.73274,0.62881,0.830723,-0.494081,0.00311313,-0.213653,-0.423551,0.113871,0.0792797,2.20158,5,0.1,23,1.5,-1.60104,-2.63347,0.622682,0.238326,0.506386,-0.0215434,-0.151932,-0.322789,0.0137463,0.0123375,0.148959,5,0.1,24,1.5,3.02611,-2.36579,0.625901,-0.00581257,0.590471,0.376932,-0.143692,-0.488818,0.417933,0.0182796,0.440637,5,0.1,25,1.5,1.79028,2.01119,0.552948,-0.863241,0.147888,0.0212808,-0.028953,0.829905,-0.00398979,0.0231668,2.44648,5,0.1,26,1.5,-5.5194,-2.07889,0.641549,-0.183576,0.317442,0.012251,0.187725,-0.11149,-0.00432134,0.0085151,0.190181,5,0.1,27,1.5,-2.92723,-3.62533,0.961041,0.800718,0.0221938,0.340458,0.710517,-0.010699,-0.163216,0.0192267,1.90264,5,0.1,28,1.5,-1.56971,-3.98878,0.610364,0.163058,0.835706,-0.00769123,-0.0398457,0.47189,0.00186265,0.0159689,2.26669,5,0.1,29,1.5,-0.0903484,3.59843,0.500061,-0.452114,0.286261,-0.00115326,0.16183,-0.182509,0.0147857,0.0142251,0.272557,5,0.1
0,1.6,-1.91463,-0.811062,1.01648,-0.190252,0.798498,0.316662,0.0327229,-0.265926,-0.236928,0.0172,0.631402,5,0.1,1,1.6,0.305756,-4.30523,0.572166,-0.230093,0.866032,0.019519,0.0507981,-0.000238419,-0.00429153,0.0108358,2.23923,5,0.1,2,1.6,2.41414,-3.05543,0.649241,-0.866026,0.427347,-0.022018,0,-0.0838041,0.00429153,0.0115547,2.16047,5,0.1,3,1.6,0.321651,-0.124196,0.598013,-0.866025,0.0397215,-0.0102833,-1.43051e-05,-0.00878796,0.00229478,0.00965158,2.27088,5,0.1,4,1.6,1.79778,4.54595,1.01796,0.00215769,-0.33673,0.323215,-0.00178814,0.273943,-0.262856,0.0268271,0.134035,5,0.1,5,1.6,0.908476,5.32713,0.816421,-0.0397727,-0.132906,0.246419,0.11006,-0.0834465,-0.197709,0.00844696,0.249697,5,0.1,6,1.6,0.374946,-0.700395,0.64631,-0.253297,0.465593,0.032191,-0.261724,0.445008,-0.0302494,0.0106736,2.6874,5,0.1,7,1.6,-0.951651,-0.319346,0.582166,0.352314,0.0759825,-0.0620589,-0.185013,-0.0398904,0.0325739,0.0101418,0.0382197,5,0.1,8,1.6,-3.38625,-1.72608,0.593383,0.229985,0.707695,0.00643581,-0.187039,0.467896,-0.00521541,0.0150734,0.812612,5,0.1,9,1.6,-3.42007,-3.79372,0.576602,0.601649,0.0417352,0.0868797,-0.52321,-0.0398159,0.425816,0.0174744,3.02455,5,0.1,10,1.6,-1.00333,2.20277,0.500003,0.866024,-0.0913441,-8.19564e-05,2.98023e-05,0.0190735,0.00271201,0.00958621,2.26696,5,0.1,11,1.6,-1.41663,4.78254,0.621717,0.860208,-0.798953,-0.0132546,-0.100732,0.151157,0.00524521,0.0131682,1.93188,5,0.1,12,1.6,-2.17688,1.91567,0.627897,-0.866026,0.178429,0.0479907,0,-0.0496507,-0.0133812,0.0122763,1.67281,5,0.1,13,1.6,4.26621,-2.94897,0.593156,-0.0572324,-0.213814,0.00591725,0.0572205,0.483394,-0.00590086,0.00790168,3.80104,5,0.1,14,1.6,3.71458,-1.38691,0.500027,-0.156212,-0.676465,0.000190735,-0.0180006,0.524759,-0.000327826,0.00907501,0.212998,5,0.1,15,1.6,-1.83473,-2.97495,1.04455,0.486907,-0.0243545,0.297332,-0.279307,0.0197887,-0.241876,0.0152053,0.198171,5,0.1,16,1.6,3.61024,-4.63104,0.640884,-0.0694513,0.858641,-0.0224158,0.437498,0.147581,-0.00149012,0.0508237,0.143766,5,0.1,17,1.6,0.515818,-0.482734,0.565065,0.233364,0.244051,-0.0351667,-0.867635,0.479758,-0.210553,0.0101086,0.230749,5,0.1,18,1.6,4.66218,0.7,0.6313,-0.449884,-0.157924,-0.0304714,0.365734,0.110507,0.0247955,0.0107756,0.834374,5,0.1,19,1.6,0.145237,2.17066,0.604597,-0.353081,0.0269353,-0.0222251,0.112634,-0.00882149,0.00706315,0.00931257,0.0319247,5,0.1,20,1.6,0.70219,-2.60027,0.631554,-0.738619,0.475025,-0.0299647,0.441164,-0.355482,0.022471,0.0173661,0.358525,5,0.1,21,1.6,-3.13878,4.33161,0.51197,-0.866026,-0.440633,-0.0340372,0,0.124454,0.0359416,0.01401,2.15722,5,0.1,22,1.6,-1.85169,4.68147,0.62982,0.803202,-0.528216,0.0180528,-0.361323,-0.234127,0.171304,0.0590393,2.10207,5,0.1,23,1.6,-1.578,-2.58452,0.620599,0.221944,0.471586,-0.0200614,-0.180483,-0.383615,0.0163317,0.0112435,0.152455,5,0.1,24,1.6,3.0249,-2.30924,0.665408,-0.0173032,0.539809,0.409997,-0.0873804,-0.534773,0.226468,0.0178529,0.302871,5,0.1,25,1.6,1.70394,2.03035,0.555053,-0.861618,0.236267,0.0207603,0.0881553,0.882387,-0.00718236,0.0243513,2.28039,5,0.1,26,1.6,-5.53689,-2.04768,0.642753,-0.166547,0.306582,0.01183,0.160456,-0.12064,-0.00464916,0.00758644,0.148162,5,0.1,27,1.6,-2.84426,-3.62317,0.994205,0.85147,0.0209808,0.321968,0.291109,-0.0139475,-0.214487,0.0173766,1.44012,5,0.1,28,1.6,-1.55364,-3.90355,0.609606,0.157991,0.862354,-0.00745207,-0.0666976,0.0734329,0.00309944,0.0217671,1.77018,5,0.1,29,1.6,-0.134536,3.6261,0.500004,-0.429391,0.266582,-0.000110269,0.296146,-0.216722,0.00652671,0.0135758,0.245297,5,0.1
0,1.7,-1.93327,-0.732363,1.04702,-0.180548,0.776351,0.29438,0.153735,-0.212044,-0.217564,0.0172,0.631402,5,0.1,1,1.7,0.282918,-4.21863,0.574103,-0.227161,0.866023,0.0192718,0.0206828,2.98023e-05,-0.00174716,0.0108358,2.23923,5,0.1,2,1.7,2.32754,-3.01296,0.647052,-0.866026,0.423159,-0.0218048,0,-0.0246316,0.00124797,0.0115547,2.16047,5,0.1,3,1.7,0.235049,-0.120253,0.596993,-0.866025,0.0392162,-0.010151,0,-0.00354182,0.000927597,0.00965158,2.27088,5,0.1,4,1.7,1.79799,4.51342,1.04918,0.0020206,-0.315718,0.30305,-0.00107288,0.166088,-0.159383,0.0268271,0.134035,5,0.1,5,1.7,0.905046,5.31344,0.839717,-0.0288943,-0.1405,0.216539,0.1055,-0.06181,-0.376489,0.00844696,0.249697,5,0.1,6,1.7,0.348865,-0.650745,0.649319,-0.26319,0.533844,0.0274722,0.0468027,0.833236,-0.0607409,0.0106736,2.6874,5,0.1,7,1.7,-0.917292,-0.311936,0.576114,0.335089,0.0722686,-0.0590257,-0.171922,-0.0370685,0.0302717,0.0101418,0.0382197,5,0.1,8,1.7,-3.36414,-1.65302,0.594001,0.21245,0.751953,0.00594687,-0.169948,0.377931,-0.00473857,0.0150734,0.812612,5,0.1,9,1.7,-3.36318,-3.78973,0.587711,0.530819,0.0379939,0.137338,-0.845715,-0.0360161,0.548456,0.0174744,3.02455,5,0.1,10,1.7,-0.916732,2.19369,0.500005,0.866026,-0.0903245,9.4343e-05,0,0.00654161,0.000935048,0.00958621,2.26696,5,0.1,11,1.7,-1.33074,4.70308,0.620415,0.859869,-0.792128,-0.0127841,0.0392348,0.0326037,0.00467896,0.0131682,1.93188,5,0.1,12,1.7,-2.26349,1.93329,0.632638,-0.865985,0.174204,0.0468515,0.00163913,-0.0424385,-0.0114366,0.0122763,1.67281,5,0.1,13,1.7,4.26075,-2.96786,0.59372,-0.0519939,-0.163671,0.00537662,0.0492036,0.507355,-0.00507757,0.00790168,3.80104,5,0.1,14,1.7,3.69884,-1.45207,0.500044,-0.158777,-0.627423,0.000135694,-0.0244528,0.475377,-0.000726432,0.00907501,0.212998,5,0.1,15,1.7,-1.78729,-2.97729,1.07313,0.462935,-0.0225,0.274658,-0.2205,0.0179708,-0.219725,0.0152053,0.198171,5,0.1,16,1.7,3.60541,-4.5452,0.638626,-0.0279792,0.850684,-0.0227847,0.385851,-0.297278,-0.00439957,0.0508237,0.143766,5,0.1,17,1.7,0.53555,-0.456024,0.560451,0.167861,0.288717,-0.0572806,-0.471745,0.394948,-0.221007,0.0101086,0.230749,5,0.1,18,1.7,4.61893,0.683868,0.628371,-0.415596,-0.172118,-0.0281471,0.332296,-0.335187,0.0225268,0.0107756,0.834374,5,0.1,19,1.7,0.110519,2.17331,0.602411,-0.34076,0.0259787,-0.021452,0.14331,-0.0110567,0.00900403,0.00931257,0.0319247,5,0.1,20,1.7,0.63041,-2.55446,0.628665,-0.697603,0.441594,-0.0278521,0.403021,-0.326455,0.0206232,0.0173661,0.358525,5,0.1,21,1.7,-3.22538,4.288,0.508773,-0.866026,-0.432699,-0.0296739,0,0.0588596,0.0498928,0.01401,2.15722,5,0.1,22,1.7,-1.77281,4.62744,0.632623,0.777062,-0.551765,0.0390258,-0.205956,-0.206679,0.233337,0.0590393,2.10207,5,0.1,23,1.7,-1.55651,-2.53918,0.618671,0.209469,0.435627,-0.0185302,-0.0849441,-0.348449,0.0148378,0.0112435,0.152455,5,0.1,24,1.7,3.0228,-2.2578,0.707486,-0.0241626,0.489791,0.430514,-0.0504404,-0.478849,0.163995,0.0178529,0.302871,5,0.1,25,1.7,1.61787,2.05877,0.557101,-0.862016,0.334291,0.0202412,-0.0430569,1.01794,-0.00428408,0.0243513,2.28039,5,0.1,26,1.7,-5.55262,-2.01755,0.643916,-0.147122,0.296415,0.0114385,0.218868,-0.0961274,-0.00370294,0.00758644,0.148162,5,0.1,27,1.7,-2.75823,-3.62114,1.02538,0.864998,0.0196733,0.301882,0.0316501,-0.012815,-0.196945,0.0173766,1.44012,5,0.1,28,1.7,-1.53815,-3.81709,0.608875,0.152024,0.865796,-0.00717416,-0.0587404,0.00917912,0.00274181,0.0217671,1.77018,5,0.1,29,1.7,-0.175566,3.65173,0.500018,-0.387414,0.246266,0.000301749,0.524509,-0.196904,0.00204146,0.0135758,0.245297,5,0.1
0,1.8,-1.95041,-0.655934,1.07534,-0.160936,0.750159,0.27166,0.231981,-0.336081,-0.242949,0.0176235,0.45517,5,0.1,1,1.8,0.260342,-4.13202,0.576019,-0.223763,0.866032,0.0189856,0.0563934,-0.000238419,-0.00479817,0.012118,2.24113,5,0.1,2,1.8,2.24094,-2.97083,0.644881,-0.866026,0.418216,-0.0215501,0,-0.0919104,0.00467896,0.0156881,2.16517,5,0.1,3,1.8,0.148446,-0.116355,0.595984,-0.866025,0.0386335,-0.00999868,0,-0.00968575,0.0025034,0.0122393,2.27983,5,0.1,4,1.8,1.79819,4.48264,1.07873,0.00191927,-0.300097,0.288057,-0.00107288,0.160694,-0.154197,0.0254634,0.0773078,5,0.1,5,1.8,0.902663,5.29916,0.859351,-0.0190094,-0.14416,0.175193,0.0908077,-0.00715256,-0.433087,0.00859398,0.231836,5,0.1,6,1.8,0.323172,-0.59314,0.651735,-0.247137,0.61712,0.0206485,0.259295,0.767827,-0.0729561,0.0103917,2.43912,5,0.1,7,1.8,-0.884703,-0.304907,0.570374,0.315855,0.0681214,-0.055638,-0.221044,-0.0476688,0.0389218,0.00994423,0.0155184,5,0.1,8,1.8,-3.34376,-1.57635,0.594572,0.194943,0.776708,0.00545681,-0.184536,0.0907779,-0.005126,0.0209083,0.562209,5,0.1,9,1.8,-3.31454,-3.78611,0.604153,0.440663,0.0343561,0.190502,-0.923514,-0.0373125,0.488967,0.0141133,3.20381,5,0.1,10,1.8,-0.83013,2.18471,0.500017,0.866026,-0.0891507,0.00012964,0,0.0208616,-0.000149012,0.0112903,2.35852,5,0.1,11,1.8,-1.24469,4.62415,0.619163,0.858691,-0.784338,-0.0122324,-0.101805,0.156403,0.00667572,0.0142365,1.94298,5,0.1,12,1.8,-2.35006,1.95046,0.637255,-0.86537,0.168663,0.0453606,0.0129938,-0.0736117,-0.0198483,0.0106356,1.28138,5,0.1,13,1.8,4.2558,-2.98173,0.594232,-0.0470996,-0.114441,0.00487268,0.0493526,0.468373,-0.005126,0.00834005,3.93008,5,0.1,14,1.8,3.68289,-1.51239,0.500054,-0.159597,-0.57815,5.66244e-05,0.0143051,0.523388,-0.000864267,0.011979,0.145473,5,0.1,15,1.8,-1.74214,-2.97945,1.09948,0.439343,-0.020653,0.25202,-0.265539,0.0196695,-0.238538,0.018743,0.137378,5,0.1,16,1.8,3.60441,-4.46228,0.636331,0.00669956,0.801289,-0.0230432,0.303626,-0.679016,0.000298023,0.0520133,0.282553,5,0.1,17,1.8,0.550432,-0.425442,0.553673,0.133717,0.319952,-0.0775278,-0.234753,0.217497,-0.176221,0.00904943,0.244034,5,0.1,18,1.8,4.57906,0.664647,0.625671,-0.381351,-0.214481,-0.0258267,0.360727,-0.466436,0.0244677,0.0140466,2.91241,5,0.1,19,1.8,0.0772731,2.17585,0.600318,-0.322873,0.0246048,-0.0203282,0.220349,-0.0166893,0.0138581,0.00902193,0.0119072,5,0.1,20,1.8,0.562761,-2.51198,0.625985,-0.654003,0.407505,-0.0257,0.485241,-0.364304,0.0230074,0.0123611,0.371806,5,0.1,21,1.8,-3.31199,4.24508,0.506068,-0.866026,-0.424659,-0.0243187,0,0.119448,0.0559688,0.0165326,1.90534,5,0.1,22,1.8,-1.69617,4.57148,0.637694,0.75438,-0.56448,0.0621304,-0.279427,-0.0271797,0.217706,0.0589865,1.63703,5,0.1,23,1.8,-1.53594,-2.49739,0.616893,0.202179,0.399727,-0.0170022,-0.0727177,-0.378251,0.0161231,0.0111729,0.107225,5,0.1,24,1.8,3.02019,-2.21121,0.751121,-0.0275314,0.441808,0.439496,-0.0175238,-0.48995,0.00247359,0.0113099,0.203526,5,0.1,25,1.8,1.53159,2.0971,0.559101,-0.86121,0.429463,0.0197172,0.0963211,0.841737,-0.00697374,0.0252561,2.1422,5,0.1,26,1.8,-5.5662,-1.98844,0.645039,-0.124335,0.285092,0.0110015,0.230312,-0.139713,-0.00536442,0.00751432,0.118177,5,0.1,27,1.8,-2.67172,-3.61924,1.05455,0.864124,0.0183105,0.280949,-0.0377893,-0.0149012,-0.228345,0.0211913,1.0717,5,0.1,28,1.8,-1.52326,-3.73049,0.608173,0.145215,0.866026,-0.00685453,-0.0814795,0,0.0038147,0.0113898,1.36682,5,0.1,29,1.8,-0.211438,3.67535,0.500053,-0.327971,0.225973,0.000357628,0.648402,-0.213742,-0.000625849,0.0148076,0.229608,5,0.1
0,1.9,-1.96521,-0.58246,1.10136,-0.134056,0.719975,0.249089,0.294052,-0.296056,-0.215955,0.0176235,0.45517,5,0.1,1,1.9,0.238163,-4.04542,0.5779,-0.220342,0.866024,0.0186942,0.0245757,4.47035e-05,-0.00208989,0.012118,2.24113,5,0.1,2,1.9,2.15434,-2.9293,0.642741,-0.866026,0.413372,-0.0213051,0,-0.0293106,0.00147521,0.0156881,2.16517,5,0.1,3,1.9,0.0618484,-0.112526,0.594993,-0.865781,0.038052,-0.00984855,0.0097768,-0.0041239,0.00106543,0.0122393,2.27983,5,0.1,4,1.9,1.79837,4.45334,1.10686,0.00182837,-0.286414,0.274926,-0.000834465,0.125885,-0.120841,0.0254634,0.0773078,5,0.1,5,1.9,0.901182,5.28472,0.874653,-0.0109789,-0.144451,0.130963,0.069309,0.00670552,-0.427887,0.00859398,0.231836,5,0.1,6,1.9,0.299757,-0.52701,0.653407,-0.221078,0.709082,0.0125756,0.263676,0.986557,-0.0852942,0.0103917,2.43912,5,0.1,7,1.9,-0.854228,-0.298335,0.565005,0.293443,0.063288,-0.0516909,-0.233144,-0.0502765,0.0410639,0.00994423,0.0155184,5,0.1,8,1.9,-3.32514,-1.49826,0.595093,0.177846,0.783959,0.00498146,-0.162706,0.0225827,-0.00452995,0.0209083,0.562209,5,0.1,9,1.9,-3.27531,-3.78285,0.625753,0.343535,0.0309736,0.241778,-0.944063,-0.031352,0.507459,0.0141133,3.20381,5,0.1,10,1.9,-0.743742,2.1757,0.500029,0.859013,-0.0926819,9.70438e-05,-0.161234,-0.0759214,-0.000461936,0.0112903,2.35852,5,0.1,11,1.9,-1.15896,4.54616,0.617968,0.858383,-0.77767,-0.0116846,0.0407249,0.0250041,0.00485033,0.0142365,1.94298,5,0.1,12,1.9,-2.43659,1.96699,0.641699,-0.865379,0.161943,0.0435492,0.00302494,-0.0669584,-0.0180453,0.0106356,1.28138,5,0.1,13,1.9,4.25131,-2.99096,0.594696,-0.0426643,-0.071495,0.00441214,0.040859,0.385165,-0.00424311,0.00834005,3.93008,5,0.1,14,1.9,3.6671,-1.56773,0.500055,-0.15501,-0.529707,-1.74157e-05,0.0766963,0.461683,-0.000622123,0.011979,0.145473,5,0.1,15,1.9,-1.69942,-2.98142,1.12356,0.415745,-0.0188328,0.229921,-0.222988,0.0172853,-0.210315,0.018743,0.137378,5,0.1,16,1.9,3.60652,-4.38534,0.634024,0.0345714,0.739208,-0.0231097,0.249267,-0.587463,-0.00045076,0.0520133,0.282553,5,0.1,17,1.9,0.563272,-0.39261,0.545221,0.128497,0.334074,-0.08979,0.0914261,0.0612978,-0.071872,0.00904943,0.244034,5,0.1,18,1.9,4.54233,0.639556,0.623209,-0.356679,-0.297721,-0.0234183,0.162542,-1.09296,0.0240877,0.0140466,2.91241,5,0.1,19,1.9,0.0461289,2.17822,0.598357,-0.299495,0.0228323,-0.0188576,0.251104,-0.0190437,0.0157952,0.00902193,0.0119072,5,0.1,20,1.9,0.499495,-2.47295,0.623524,-0.613461,0.373657,-0.023563,0.355305,-0.323877,0.0204369,0.0123611,0.371806,5,0.1,21,1.9,-3.39859,4.20307,0.503918,-0.866026,-0.416213,-0.0186853,0,0.0713468,0.0557601,0.0165326,1.90534,5,0.1,22,1.9,-1.62165,4.51491,0.645027,0.739611,-0.566331,0.0845578,-0.0680834,0.012964,0.219747,0.0589865,1.63703,5,0.1,23,1.9,-1.51598,-2.45921,0.615269,0.197767,0.364684,-0.0155086,-0.0280738,-0.333473,0.0142083,0.0111729,0.107225,5,0.1,24,1.9,3.01738,-2.16935,0.79506,-0.0283271,0.3966,0.43862,0.0012219,-0.425458,-0.036139,0.0113099,0.203526,5,0.1,25,1.9,1.4456,2.14442,0.561046,-0.860605,0.517058,0.01923,-0.0308976,0.857309,-0.00384822,0.0252561,2.1422,5,0.1,26,1.9,-5.57742,-1.96061,0.646113,-0.0999711,0.271505,0.0104794,0.239044,-0.140503,-0.00540167,0.00751432,0.118177,5,0.1,27,1.9,-2.58532,-3.61748,1.08157,0.864514,0.0169259,0.259743,0.00680983,-0.0133067,-0.2039,0.0211913,1.0717,5,0.1,28,1.9,-1.50912,-3.64389,0.607505,0.137733,0.865798,-0.0065038,-0.0731349,-0.00908971,0.00343472,0.0113898,1.36682,5,0.1,29,1.9,-0.240893,3.69694,0.500084,-0.260476,0.20617,0.000253227,0.687898,-0.188485,-0.00136718,0.0148076,0.229608,5,0.1
0,2,-1.97712,-0.512066,1.12518,-0.104117,0.686149,0.227207,0.296414,-0.400022,-0.226736,0.0112953,0.480686,5,0.1,1,2,0.216283,-3.95882,0.579757,-0.216701,0.866026,0.0183836,0.057146,0,-0.00482798,0.012278,2.24307,5,0.1,2,2,2.06773,-2.88817,0.640621,-0.866026,0.408185,-0.0210404,0,-0.0916719,0.00467896,0.0105695,2.16994,5,0.1,3,2,-0.0246026,-0.108747,0.594014,-0.862114,0.0374364,-0.00969023,0.078212,-0.00973418,0.0025332,0.0100803,2.56962,5,0.1,4,2,1.79855,4.42535,1.13372,0.00174046,-0.272727,0.261784,-0.00101328,0.157118,-0.15074,0.0263491,0.150482,5,0.1,5,2,0.900392,5.27037,0.885765,-0.00519454,-0.141931,0.0931606,0.0464022,0.0472069,-0.316322,0.00891381,0.400779,5,0.1,6,2,0.278986,-0.45138,0.654239,-0.194135,0.799833,0.00415295,0.276044,0.76735,-0.0807643,0.00983241,2.18812,5,0.1,7,2,-0.826108,-0.29227,0.560052,0.268275,0.0578605,-0.0472575,-0.273734,-0.0590384,0.0481904,0.00861284,0.008397,5,0.1,8,2,-3.30817,-1.42007,0.595569,0.161505,0.77596,0.00452548,-0.167727,-0.20349,-0.00467896,0.0150306,0.378402,5,0.1,9,2,-3.24525,-3.77991,0.652302,0.262916,0.0279069,0.287016,-0.632763,-0.0306368,0.376642,0.0135223,3.18455,5,0.1,10,2,-0.659051,2.16599,0.500036,0.830434,-0.101602,4.32134e-05,-0.422835,-0.0907183,-0.000566244,0.0136285,2.65445,5,0.1,11,2,-1.07305,4.46862,0.616825,0.857434,-0.771117,-0.0111639,-0.0988245,0.14019,0.00590086,0.0120094,1.98637,5,0.1,12,2,-2.52301,1.98282,0.645956,-0.861543,0.15423,0.0414729,0.089407,-0.0914931,-0.0246465,0.00815805,0.953089,5,0.1,13,2,4.24725,-2.99635,0.595116,-0.0386715,-0.0381589,0.00399798,0.0400543,0.279188,-0.00417233,0.0143942,3.98678,5,0.1,14,2,3.65208,-1.61838,0.500051,-0.144458,-0.483075,-6.70552e-05,0.133157,0.482142,-0.00038743,0.0143435,0.104813,5,0.1,15,2,-1.659,-2.98322,1.1455,0.391936,-0.0170946,0.208801,-0.264704,0.017643,-0.216842,0.0132694,0.189039,5,0.1,16,2,3.61111,-4.31437,0.631717,0.0558197,0.679588,-0.0229344,0.172853,-0.622749,0.00476837,0.0494679,2.6495,5,0.1,17,2,0.576853,-0.359177,0.536034,0.145094,0.331754,-0.0924826,0.210434,-0.108615,0.0150204,0.00705367,0.261464,5,0.1,18,2,4.50734,0.604,0.620989,-0.343633,-0.414531,-0.0209466,0.12064,-1.16324,0.0256002,0.017869,2.63925,5,0.1,19,2,0.0175104,2.1804,0.596555,-0.272067,0.0207484,-0.0171319,0.29943,-0.0226498,0.0188351,0.0132202,0.00578742,5,0.1,20,2,0.43991,-2.43721,0.621271,-0.577842,0.340837,-0.0214919,0.378386,-0.340104,0.0214577,0.0112034,0.262233,5,0.1,21,2,-3.48519,4.16188,0.502321,-0.866026,-0.406671,-0.0133321,0,0.134945,0.0506639,0.012359,1.45863,5,0.1,22,2,-1.54803,4.45856,0.65451,0.731772,-0.558102,0.104183,-0.126541,0.166893,0.164866,0.0590462,1.24114,5,0.1,23,2,-1.49635,-2.4244,0.613789,0.194409,0.331193,-0.0140831,-0.0482202,-0.343919,0.0146627,0.0134693,0.135412,5,0.1,24,2,3.01458,-2.13178,0.83857,-0.0273764,0.354791,0.429595,0.0174046,-0.418425,-0.154942,0.0126023,0.144426,5,0.1,25,2,1.35953,2.20008,0.562947,-0.858274,0.591904,0.0187635,0.115395,0.602365,-0.00619888,0.0250814,2.04187,5,0.1,26,2,-5.58632,-1.93421,0.647132,-0.079155,0.255585,0.00986606,0.168562,-0.183642,-0.00706315,0.00751366,0.136367,5,0.1,27,2,-2.49901,-3.61585,1.10651,0.859272,0.0155568,0.2388,-0.135183,-0.0143051,-0.220597,0.0171164,1.02846,5,0.1,28,2,-1.49574,-3.55743,0.606873,0.129744,0.86239,-0.00612736,-0.0899434,-0.0725985,0.00423193,0.0157577,1.02542,5,0.1,29,2,-0.263529,3.71662,0.500102,-0.192795,0.187242,0.000102818,0.655308,-0.19443,-0.00157952,0.0110199,0.223556,5,0.1
0,2.1,-1.98606,-0.445165,1.14684,-0.0751724,0.653866,0.206335,0.270776,-0.278869,-0.196978,0.0112953,0.480686,5,0.1,1,2.1,0.194815,-3.87222,0.581578,-0.213186,0.866026,0.018087,0.0253543,0,-0.00213832,0.012278,2.24307,5,0.1,2,2.1,1.98113,-2.84765,0.638532,-0.866026,0.403352,-0.0207949,0,-0.0288934,0.00146776,0.0105695,2.16994,5,0.1,3,2.1,-0.109351,-0.105037,0.593054,-0.823388,0.0368481,-0.00953684,0.647613,-0.00415416,0.00108406,0.0100803,2.56962,5,0.1,4,2.1,1.79872,4.399,1.15917,0.0016449,-0.253106,0.247443,-0.000961125,0.233322,-0.143982,0.0263491,0.150482,5,0.1,5,2.1,0.900068,5.25632,0.893602,-0.0016408,-0.1396,0.06635,0.0251308,0.00929832,-0.157252,0.00891381,0.400779,5,0.1,6,2.1,0.260903,-0.368373,0.654247,-0.167968,0.852563,-0.0039747,0.249808,0.304602,-0.0792444,0.00983241,2.18812,5,0.1,7,2.1,-0.800628,-0.286775,0.555563,0.241416,0.0520678,-0.0425284,-0.267982,-0.0577979,0.0471957,0.00861284,0.008397,5,0.1,8,2.1,-3.29281,-1.34347,0.596,0.146105,0.755503,0.00409568,-0.14472,-0.231624,-0.00404194,0.0150306,0.378402,5,0.1,9,2.1,-3.22167,-3.77726,0.682911,0.216128,0.025183,0.324777,-0.208035,-0.0247657,0.354115,0.0135223,3.18455,5,0.1,10,2.1,-0.578547,2.15489,0.500038,0.775563,-0.124465,-6.61239e-06,-0.668056,-0.32869,-0.000428408,0.0136285,2.65445,5,0.1,11,2.1,-0.987841,4.39223,0.615763,0.845562,-0.755835,-0.00986597,-0.167221,0.190735,0.0187717,0.0120094,1.98637,5,0.1,12,2.1,-2.60899,1.99781,0.649987,-0.859505,0.145764,0.0391931,0.000208616,-0.0828877,-0.0223182,0.00815805,0.953089,5,0.1,13,2.1,4.24357,-2.99896,0.595497,-0.0351116,-0.015875,0.00362759,0.0324845,0.169605,-0.00337884,0.0143942,3.98678,5,0.1,14,2.1,3.63843,-1.66442,0.500043,-0.12743,-0.4388,-9.28529e-05,0.200987,0.416964,-0.000137836,0.0143435,0.104813,5,0.1,15,2.1,-1.62088,-2.98484,1.16536,0.372414,-0.0154745,0.188892,-0.149198,0.0152439,-0.187114,0.0132694,0.189039,5,0.1,16,2.1,3.61692,-4.24802,0.629449,0.0549231,0.659604,-0.022409,-0.158325,0.120461,0.00644848,0.0494679,2.6495,5,0.1,17,2.1,0.592805,-0.326823,0.527013,0.176896,0.312745,-0.0865842,0.388496,-0.263965,0.0967048,0.00705367,0.261464,5,0.1,18,2.1,4.47344,0.557017,0.619019,-0.335316,-0.521398,-0.0184755,0.0646412,-0.940125,0.0240766,0.017869,2.63925,5,0.1,19,2.1,-0.00820582,2.18236,0.594936,-0.24225,0.0184897,-0.0152557,0.299747,-0.0227243,0.0188611,0.0132202,0.00578742,5,0.1,20,2.1,0.38382,-2.40473,0.619223,-0.545312,0.309528,-0.0195169,0.296211,-0.29552,0.0186376,0.0112034,0.262233,5,0.1,21,2.1,-3.57179,4.1218,0.501228,-0.865776,-0.395311,-0.00867955,0.00999868,0.109792,0.0419766,0.012359,1.45863,5,0.1,22,2.1,-1.47501,4.40354,0.665735,0.731932,-0.542098,0.119944,0.0744388,0.172943,0.142258,0.0590462,1.24114,5,0.1,23,2.1,-1.47718,-2.39275,0.612444,0.188715,0.303978,-0.0129227,-0.0686273,-0.219375,0.00935048,0.0134693,0.135412,5,0.1,24,2.1,3.01194,-2.09856,0.880769,-0.0252694,0.308353,0.414189,0.0245273,-0.501603,-0.166517,0.0126023,0.144426,5,0.1,25,2.1,1.27394,2.2624,0.564801,-0.855655,0.65444,0.0183578,-0.0106841,0.598848,-0.00298396,0.0250814,2.04187,5,0.1,26,2.1,-5.59347,-1.90951,0.648085,-0.0655308,0.238881,0.00922326,0.0683665,-0.159487,-0.00613928,0.00751366,0.136367,5,0.1,27,2.1,-2.41342,-3.61436,1.12935,0.854805,0.0142377,0.218467,-0.00621378,-0.0125319,-0.192866,0.0171164,1.02846,5,0.1,28,2.1,-1.48318,-3.47125,0.60628,0.121444,0.86277,-0.00573639,-0.0801831,0.0294894,0.00378489,0.0157577,1.02542,5,0.1,29,2.1,-0.279659,3.73443,0.500105,-0.131241,0.16939,-3.33413e-05,0.56879,-0.167772,-0.00114739,0.0110199,0.223556,5,0.1
0,2.2,-1.99234,-0.381196,1.16649,-0.0516772,0.624683,0.186738,0.193596,-0.328511,-0.199199,0.0108086,0.355795,5,0.1,1,2.2,0.173652,-3.78561,0.583373,-0.209546,0.866026,0.0177786,0.0560954,0,-0.00473857,0.00816408,2.13765,5,0.1,2,2.2,1.89453,-2.80752,0.636463,-0.866026,0.39832,-0.0205368,0,-0.0888109,0.00455976,0.0110699,2.17459,5,0.1,3,2.2,-0.187839,-0.101378,0.592107,-0.741189,0.0362424,-0.00938028,0.959091,-0.00945851,0.00247359,0.00975939,2.88788,5,0.1,4,2.2,1.79888,4.37497,1.18316,0.00154078,-0.22651,0.231665,-0.00119209,0.296116,-0.176787,0.0231111,0.332822,5,0.1,5,2.2,0.9,5.24241,0.9,0,-0.138366,0.0670418,0.00891089,0.0221729,0.161797,0.00829548,0.316792,5,0.1,6,2.2,0.245328,-0.282188,0.653473,-0.143756,0.866025,-0.0112608,0.236124,0,-0.064671,0.00967838,1.92451,5,0.1,7,2.2,-0.777846,-0.281861,0.55155,0.213963,0.0461474,-0.037694,-0.283659,-0.0611991,0.0500083,0.009743,0.00251089,5,0.1,8,2.2,-3.27891,-1.2693,0.596389,0.131798,0.72532,0.00369549,-0.144482,-0.389278,-0.00405312,0.0146702,0.250923,5,0.1,9,2.2,-3.2,-3.77486,0.716958,0.227684,0.0227869,0.3537,0.407934,-0.0237226,0.207424,0.0172443,2.76296,5,0.1,10,2.2,-0.504687,2.14066,0.500035,0.698259,-0.16067,-4.17233e-05,-0.870154,-0.366688,-0.000268221,0.00986583,2.84326,5,0.1,11,2.2,-0.904424,4.31786,0.614882,0.819267,-0.728798,-0.00764281,-0.377387,0.366449,0.0246167,0.0112807,2.26982,5,0.1,12,2.2,-2.69476,2.01195,0.65379,-0.853187,0.136793,0.036779,0.160575,-0.0998974,-0.0268817,0.0119224,0.682667,5,0.1,13,2.2,4.24021,-2.99986,0.595843,-0.03196,-0.00350475,0.00329912,0.0319481,0.0821352,-0.00327826,0.00844008,3.99907,5,0.1,14,2.2,3.62676,-1.70624,0.500033,-0.105441,-0.397369,-9.83477e-05,0.233412,0.421166,2.98023e-05,0.00962423,0.226276,5,0.1,15,2.2,-1.58435,-2.98632,1.18332,0.358042,-0.0139713,0.170398,-0.15533,0.015378,-0.186801,0.0195246,0.143971,5,0.1,16,2.2,3.62129,-4.18093,0.627248,0.0299931,0.685596,-0.0215277,-0.314355,0.321388,0.0115931,0.0497678,2.70061,5,0.1,17,2.2,0.61248,-0.297071,0.51893,0.216311,0.280438,-0.0742927,0.372201,-0.375018,0.143886,0.0139443,3.1127,5,0.1,18,2.2,4.44027,0.500772,0.617291,-0.327456,-0.59696,-0.0160888,0.105858,-0.549122,0.0238121,0.0119369,2.89515,5,0.1,19,2.2,-0.030914,2.1841,0.593506,-0.211694,0.0161707,-0.0133321,0.312753,-0.0238419,0.0196695,0.014494,0.00177996,5,0.1,20,2.2,0.330795,-2.37524,0.617363,-0.514505,0.28013,-0.0176638,0.33687,-0.298858,0.0188649,0.0119529,0.182677,5,0.1,21,2.2,-3.65824,4.08289,0.500553,-0.862026,-0.381744,-0.00499338,0.0798702,0.174046,0.0315309,0.0107694,1.0858,5,0.1,22,2.2,-1.40148,4.35034,0.678349,0.737128,-0.520229,0.131278,-0.0106096,0.277758,0.0789464,0.0617288,0.907446,5,0.1,23,2.2,-1.4587,-2.36337,0.611195,0.180182,0.28401,-0.0120714,-0.104129,-0.193954,0.00825524,0.0101698,0.0963937,5,0.1,24,2.2,3.00955,-2.07031,0.921248,-0.0225186,0.256079,0.394076,0.03016,-0.536323,-0.244558,0.0113516,0.195272,5,0.1,25,2.2,1.18847,2.3305,0.56662,-0.851458,0.703263,0.0179827,0.131726,0.343323,-0.00524521,0.023275,1.98157,5,0.1,26,2.2,-5.6,-1.88644,0.648976,-0.0682354,0.222167,0.0085786,-0.114679,-0.1809,-0.00697374,0.0103895,0.0911974,5,0.1,27,2.2,-2.3281,-3.613,1.15023,0.849134,0.0129759,0.199074,-0.144243,-0.0129938,-0.199795,0.0185526,0.744112,5,0.1,28,2.2,-1.47145,-3.385,0.605726,0.113013,0.859654,-0.00533909,-0.0912547,-0.127554,0.00435114,0.0116474,0.739634,5,0.1,29,2.2,-0.290128,3.75053,0.500097,-0.0801265,0.152808,-0.00012666,0.449568,-0.167608,-0.000745058,0.0148448,0.427876,5,0.1
0,2.3,-1.99666,-0.320182,1.18423,-0.0364289,0.59677,0.168538,0.100315,-0.256522,-0.170112,0.0108086,0.355795,5,0.1,1,2.3,0.152904,-3.69901,0.585134,-0.20587,0.866026,0.0174681,0.0287639,0,-0.00242889,0.00816408,2.13765,5,0.1,2,2.3,1.80793,-2.76797,0.634424,-0.866026,0.393669,-0.0202982,0,-0.0275373,0.00141561,0.0110699,2.17459,5,0.1,3,2.3,-0.25649,-0.0977871,0.591178,-0.627618,0.0356633,-0.00922838,1.21623,-0.00416394,0.00109151,0.00975939,2.88788,5,0.1,4,2.3,1.79903,4.35393,1.20545,0.0014253,-0.193076,0.214355,-0.00116229,0.364304,-0.174381,0.0231111,0.332822,5,0.1,5,2.3,0.90003,5.22866,0.908094,0.000482332,-0.136676,0.0995192,0.00143424,0.0180006,0.443149,0.00829548,0.316792,5,0.1,6,2.3,0.232073,-0.196685,0.652031,-0.121882,0.834226,-0.0174418,0.203665,-0.589839,-0.0570267,0.00967838,1.92451,5,0.1,7,2.3,-0.757855,-0.277549,0.548028,0.185954,0.0401051,-0.0327566,-0.277616,-0.059884,0.0489391,0.009743,0.00251089,5,0.1,8,2.3,-3.26641,-1.19864,0.59674,0.118629,0.687973,0.00332594,-0.122651,-0.379264,-0.00344217,0.0146702,0.250923,5,0.1,9,2.3,-3.17389,-3.77269,0.753354,0.304794,0.0206854,0.373604,1.0308,-0.0191182,0.170905,0.0172443,2.76296,5,0.1,10,2.3,-0.438534,2.12219,0.50003,0.630461,-0.213222,-6.03497e-05,-0.529958,-0.630453,-0.000111759,0.00986583,2.84326,5,0.1,11,2.3,-0.824839,4.24711,0.614332,0.76807,-0.683226,-0.00260444,-0.639096,0.544101,0.0699498,0.0112807,2.26982,5,0.1,12,2.3,-2.77943,2.02516,0.657341,-0.840827,0.12755,0.0342926,0.125661,-0.0891536,-0.0239834,0.0119224,0.682667,5,0.1,13,2.3,4.23716,-2.99989,0.596158,-0.0291422,0.00197403,0.00301003,0.0255704,0.0310391,-0.0026226,0.00844008,3.99907,5,0.1,14,2.3,3.6174,-1.74416,0.500023,-0.0817057,-0.363395,-8.95001e-05,0.237003,0.279628,0.000137836,0.00962423,0.226276,5,0.1,15,2.3,-1.54941,-2.98764,1.19949,0.339875,-0.0125706,0.153372,-0.21226,0.0130236,-0.158563,0.0195246,0.143971,5,0.1,16,2.3,3.62285,-4.11025,0.625156,0.00230223,0.731422,-0.020267,-0.246584,0.525415,0.0139289,0.0497678,2.70061,5,0.1,17,2.3,0.63746,-0.271243,0.512262,0.295258,0.233285,-0.0587503,1.09289,-0.546342,0.16256,0.0139443,3.1127,5,0.1,18,2.3,4.40843,0.439653,0.615795,-0.306,-0.613333,-0.013905,0.308931,0.176823,0.0202134,0.0119369,2.89515,5,0.1,19,2.3,-0.0505345,2.1856,0.59227,-0.18086,0.0138201,-0.0113922,0.304051,-0.0231862,0.0191368,0.014494,0.00177996,5,0.1,20,2.3,0.280882,-2.34863,0.615686,-0.484714,0.252823,-0.0159405,0.27848,-0.255227,0.0161007,0.0119529,0.182677,5,0.1,21,2.3,-3.74433,4.04552,0.500193,-0.861569,-0.36604,-0.0023881,-0.0201911,0.154287,0.0207275,0.0107694,1.0858,5,0.1,22,2.3,-1.32759,4.29964,0.691853,0.741819,-0.493932,0.138425,0.0608712,0.264466,0.0575669,0.0617288,0.907446,5,0.1,23,2.3,-1.44138,-2.33583,0.610024,0.164932,0.267633,-0.0113746,-0.184186,-0.146136,0.00621378,0.0101698,0.0963937,5,0.1,24,2.3,3.00745,-2.04739,0.959685,-0.0194903,0.202193,0.376571,0.0303537,-0.534281,-0.129972,0.0113516,0.195272,5,0.1,25,2.3,1.10363,2.4027,0.5684,-0.847453,0.741107,0.0176728,0.000469387,0.364989,-0.00201911,0.023275,1.98157,5,0.1,26,2.3,-5.60773,-1.86511,0.6498,-0.0890374,0.204369,0.00789212,-0.27293,-0.179566,-0.00692531,0.0103895,0.0911974,5,0.1,27,2.3,-2.24372,-3.61177,1.1692,0.839325,0.0117853,0.18078,-0.0933856,-0.0112057,-0.171788,0.0185526,0.744112,5,0.1,28,2.3,-1.46058,-3.2995,0.605212,0.104608,0.850909,-0.00493843,-0.0803024,-0.0884533,0.00382215,0.0116474,0.739634,5,0.1,29,2.3,-0.29612,3.7651,0.500081,-0.0419662,0.139557,-0.000180211,0.314405,-0.106364,-0.000339001,0.0148448,0.427876,5,0.1
0,2.4,-2,-0.261848,1.20025,-0.0321746,0.568826,0.151819,-0.00989437,-0.321127,-0.168085,0.0132684,0.257649,5,0.1,1,2.4,0.132492,-3.61241,0.586866,-0.201858,0.866026,0.0171289,0.0594705,0,-0.00503659,0.00880826,1.68377,5,0.1,2,2.4,1.72132,-2.72879,0.632404,-0.866026,0.388813,-0.020048,5.96046e-05,-0.0860691,0.00447035,0.0151576,2.16949,5,0.1,3,2.4,-0.313348,-0.0942465,0.590262,-0.512716,0.0350608,-0.00907183,1.03018,-0.00932813,0.00244379,0.00969111,3.07017,5,0.1,4,2.4,1.79917,4.3365,1.22599,0.00130236,-0.155151,0.195974,-0.0013113,0.387669,-0.196517,0.0276387,0.326834,5,0.1,5,2.4,0.900078,5.21512,0.920424,0.000409782,-0.133681,0.147817,-0.00232458,0.0457764,0.488847,0.00847701,0.229965,5,0.1,6,2.4,0.220865,-0.116875,0.650027,-0.102621,0.756275,-0.0223443,0.183277,-0.933169,-0.0396669,0.00921939,1.7541,5,0.1,7,2.4,-0.740644,-0.273838,0.544997,0.158292,0.0341378,-0.0278816,-0.276029,-0.0595152,0.0486374,0.0107763,0.000990656,5,0.1,8,2.4,-3.25515,-1.13187,0.597055,0.106627,0.645867,0.00298917,-0.120044,-0.477374,-0.00336766,0.0131379,0.165527,5,0.1,9,2.4,-3.13793,-3.77072,0.791376,0.415641,0.0188291,0.384572,1.10769,-0.0187159,0.0351667,0.0127977,1.43261,5,0.1,10,2.4,-0.377873,2.09764,0.500024,0.584535,-0.277334,-6.55651e-05,-0.421687,-0.611305,0,0.0143557,2.78023,5,0.1,11,2.4,-0.751605,4.18179,0.614454,0.693059,-0.620377,0.00524819,-0.852525,0.709772,0.082314,0.0119066,2.7365,5,0.1,12,2.4,-2.86268,2.03746,0.660647,-0.821447,0.11825,0.0317916,0.288725,-0.0997782,-0.0268221,0.0083827,0.475673,5,0.1,13,2.4,4.23437,-2.9996,0.596446,-0.0266433,0.00335574,0.00275224,0.025034,-0.000476837,-0.002563,0.00825884,3.99785,5,0.1,14,2.4,3.61039,-1.77919,0.500015,-0.0587881,-0.337741,-7.30157e-05,0.218034,0.249207,0.000178814,0.0133278,0.414336,5,0.1,15,2.4,-1.5166,-2.98883,1.21405,0.314954,-0.0112951,0.137854,-0.288129,0.0126362,-0.155151,0.0163092,0.435215,5,0.1,16,2.4,3.62192,-4.03461,0.623205,-0.0204086,0.778663,-0.0186935,-0.211239,0.368714,0.0177324,0.0515391,2.59239,5,0.1,17,2.4,0.672868,-0.25078,0.507201,0.414827,0.175067,-0.0425547,1.21173,-0.600755,0.158042,0.0106747,2.75869,5,0.1,18,2.4,4.37961,0.380095,0.614502,-0.26834,-0.569902,-0.011985,0.432253,0.653594,0.0184476,0.0131967,3.23011,5,0.1,19,2.4,-0.0671148,2.18686,0.591226,-0.150897,0.0115335,-0.00950545,0.29495,-0.0225306,0.018537,0.00804794,0.475148,5,0.1,20,2.4,0.233837,-2.32461,0.614171,-0.455492,0.227737,-0.0143588,0.319622,-0.252128,0.0159144,0.0125799,0.125984,5,0.1,21,2.4,-3.83042,4.00975,0.500041,-0.857443,-0.348473,-0.000801682,0.138521,0.206828,0.0113249,0.0150349,0.778955,5,0.1,22,2.4,-1.25328,4.25165,0.705905,0.741884,-0.464606,0.141726,-0.0901818,0.333071,0.00417233,0.0490013,0.64694,5,0.1,23,2.4,-1.42584,-2.3098,0.608918,0.145933,0.252634,-0.0107363,-0.186682,-0.16284,0.00691414,0.0152684,0.194277,5,0.1,24,2.4,3.00565,-2.02979,0.996718,-0.0164568,0.150478,0.363867,0.0302792,-0.494599,-0.141829,0.0111923,0.148333,5,0.1,25,2.4,1.01902,2.47835,0.570155,-0.842455,0.768018,0.0173956,0.136465,0.139356,-0.00429153,0.0295821,1.9528,5,0.1,26,2.4,-5.61807,-1.8456,0.650553,-0.11785,0.185525,0.00716448,-0.282049,-0.200152,-0.0077486,0.0111514,0.0530359,5,0.1,27,2.4,-2.16045,-3.61064,1.18643,0.823426,0.0106752,0.163743,-0.25332,-0.0113249,-0.172913,0.0147192,0.52305,5,0.1,28,2.4,-1.45053,-3.21507,0.604738,0.0963748,0.835013,-0.00454783,-0.0867248,-0.257969,0.00414252,0.0115172,0.518007,5,0.1,29,2.4,-0.298958,3.77857,0.500062,-0.016892,0.129986,-0.000196695,0.189871,-0.0917912,-2.98023e-05,0.0149202,0.566029,5,0.1
0,2.5,-2.00347,-0.206431,1.21464,-0.0389822,0.540347,0.136556,-0.111639,-0.270192,-0.141591,0.0132684,0.257649,5,0.1,1,2.5,0.112558,-3.52581,0.588557,-0.197027,0.865987,0.0167195,0.0462495,-0.00156462,-0.00391901,0.00880826,1.68377,5,0.1,2,2.5,1.63472,-2.69001,0.630387,-0.866025,0.389371,-0.0205493,-1.49012e-05,0.0632256,-0.0116825,0.0151576,2.16949,5,0.1,3,2.5,-0.359879,-0.090403,0.589389,-0.424337,0.0450025,-0.00819378,0.655435,0.182818,0.0140145,0.00969111,3.07017,5,0.1,4,2.5,1.79929,4.32292,1.24462,0.00117514,-0.116623,0.176828,-0.00124425,0.376672,-0.18952,0.0276387,0.326834,5,0.1,5,2.5,0.900112,5.20198,0.937782,0.000313483,-0.128996,0.199919,-1.49012e-05,0.0518858,0.523787,0.00847701,0.229965,5,0.1,6,2.5,0.211619,-0.046573,0.647604,-0.0814887,0.645339,-0.0259851,0.231557,-1.20195,-0.0316538,0.00921939,1.7541,5,0.1,7,2.5,-0.72617,-0.270716,0.542447,0.131456,0.0283515,-0.0231532,-0.260308,-0.0561289,0.0458658,0.0107763,0.000990656,5,0.1,8,2.5,-3.24504,-1.06956,0.597339,0.0957508,0.600931,0.00268398,-0.100628,-0.43945,-0.00282004,0.0131379,0.165527,5,0.1,9,2.5,-3.0907,-3.76892,0.829375,0.528926,0.0171669,0.369641,1.09917,-0.0151694,-0.310156,0.0127977,1.43261,5,0.1,10,2.5,-0.320559,2.06682,0.500017,0.569955,-0.338138,-7.76723e-05,0.0712794,-0.555217,-0.00013411,0.0143557,2.78023,5,0.1,11,2.5,-0.68695,4.12328,0.615529,0.596731,-0.549851,0.0173448,-1.05122,0.705034,0.148155,0.0119066,2.7365,5,0.1,12,2.5,-2.94351,2.04881,0.6637,-0.795407,0.109055,0.0293202,0.263751,-0.0876337,-0.023555,0.0083827,0.475673,5,0.1,13,2.5,4.23182,-2.99929,0.59671,-0.0244416,0.00272803,0.00252677,0.0199974,-0.0108927,-0.00205263,0.00825884,3.99785,5,0.1,14,2.5,3.60555,-1.81205,0.500113,-0.0387177,-0.322106,0.00290703,0.181884,0.0903457,0.0528395,0.0133278,0.414336,5,0.1,15,2.5,-1.4868,-2.9899,1.22711,0.278699,-0.0101496,0.123796,-0.42446,0.0105947,-0.130057,0.0163092,0.435215,5,0.1,16,2.5,3.61907,-3.95464,0.621421,-0.0350542,0.821734,-0.0170093,-0.118375,0.434518,0.0163689,0.0515391,2.59239,5,0.1,17,2.5,0.719797,-0.236332,0.503706,0.517989,0.113711,-0.0276969,0.863798,-0.611547,0.136737,0.0106747,2.75869,5,0.1,18,2.5,4.35514,0.327163,0.613388,-0.219468,-0.482449,-0.0103537,0.52467,1.03207,0.0145659,0.0131967,3.23011,5,0.1,19,2.5,-0.0798231,2.18815,0.590623,-0.0957497,0.0161763,-0.000419281,0.747427,0.100181,0.146799,0.00804794,0.475148,5,0.1,20,2.5,0.189794,-2.30301,0.612809,-0.425927,0.204843,-0.0129142,0.285902,-0.212401,0.0133999,0.0125799,0.125984,5,0.1,21,2.5,-3.91563,3.97587,0.500006,-0.847474,-0.329452,-3.91155e-06,0.101224,0.185341,0.00504404,0.0150349,0.778955,5,0.1,22,2.5,-1.17958,4.20682,0.720103,0.731284,-0.432298,0.142129,-0.146717,0.32419,-0.0022091,0.0490013,0.64694,5,0.1,23,2.5,-1.41225,-2.28531,0.607877,0.126617,0.237521,-0.0100946,-0.146717,-0.147551,0.00626594,0.0152684,0.194277,5,0.1,24,2.5,3.00415,-2.01712,1.03248,-0.0135414,0.104154,0.351898,0.0279844,-0.427797,-0.113416,0.0111923,0.148333,5,0.1,25,2.5,0.935096,2.55607,0.571881,-0.838253,0.787289,0.0171788,-0.00025332,0.197306,-0.00111014,0.0295821,1.9528,5,0.1,26,2.5,-5.63131,-1.82804,0.651231,-0.146928,0.165662,0.00639558,-0.282675,-0.198998,-0.00769645,0.0111514,0.0530359,5,0.1,27,2.5,-2.07924,-3.60963,1.20199,0.801183,0.00964366,0.148,-0.225008,-0.00961125,-0.146717,0.0147192,0.52305,5,0.1,28,2.5,-1.44129,-3.13273,0.604303,0.0884172,0.812047,-0.00416813,-0.0752956,-0.234619,0.00358745,0.0115172,0.518007,5,0.1,29,2.5,-0.299792,3.79111,0.500043,-0.000833673,0.12081,-0.000182446,0.126654,-0.0942349,0.000286847,0.0149202,0.566029,5,0.1
0,2.6,-2.008,-0.153809,1.22761,-0.0519276,0.511104,0.122741,-0.135899,-0.329797,-0.137746,0.0115493,0.4866,5,0.1,1,2.6,0.0931257,-3.43923,0.590206,-0.19107,0.8654,0.016214,0.0791848,-0.0123978,-0.00670552,0.0140497,1.28971,5,0.1,2,2.6,1.54812,-2.65074,0.628266,-0.866026,0.39556,-0.0218928,5.96046e-05,0.035882,-0.0130832,0.0108393,2.16563,5,0.1,3,2.6,-0.4,-0.0848436,0.588651,-0.387375,0.0671322,-0.00646859,0.108317,0.240192,0.0195801,0.0112514,2.92208,5,0.1,4,2.6,1.7994,4.31308,1.26135,0.00104606,-0.0808835,0.157565,-0.0012517,0.333786,-0.197768,0.0264846,0.304585,5,0.1,5,2.6,0.900145,5.18938,0.960252,0.000338256,-0.122643,0.247528,0.000238419,0.077486,0.407308,0.0084743,0.160251,5,0.1,6,2.6,0.204655,0.0120347,0.644871,-0.0577018,0.528909,-0.0284269,0.238068,-1.07999,-0.0162125,0.00906605,1.59079,5,0.1,7,2.6,-0.714296,-0.268155,0.540356,0.106314,0.0229299,-0.0187248,-0.242114,-0.0522137,0.0426769,0.00798285,0.44767,5,0.1,8,2.6,-3.23596,-1.01172,0.597593,0.0859618,0.554937,0.00240952,-0.0972748,-0.492722,-0.00274181,0.012367,0.142545,5,0.1,9,2.6,-3.03272,-3.76728,0.864381,0.625443,0.015676,0.32692,0.789881,-0.0149012,-0.524133,0.0144135,0.410419,5,0.1,10,2.6,-0.262803,2.03064,0.500009,0.587927,-0.380623,-7.89762e-05,0.238315,-0.266612,0.000178814,0.00996439,2.60848,5,0.1,11,2.6,-0.632703,4.07184,0.618036,0.486991,-0.478709,0.0328615,-1.12468,0.719547,0.153482,0.0133833,3.18766,5,0.1,12,2.6,-3.02156,2.05928,0.666514,-0.763369,0.10013,0.0269204,0.398755,-0.0933409,-0.0250638,0.00847281,0.32494,5,0.1,13,2.6,4.22948,-2.99908,0.596952,-0.022471,0.00137687,0.00232458,0.0197887,-0.0150204,-0.00205636,0.00803769,3.9959,5,0.1,14,2.6,3.60252,-1.84389,0.50071,-0.0226319,-0.314993,0.00932366,0.139236,0.0720024,0.0703931,0.0127512,0.542735,5,0.1,15,2.6,-1.46119,-2.99087,1.23885,0.232363,-0.00911951,0.111148,-0.491619,0.010252,-0.125885,0.0112492,0.258274,5,0.1,16,2.6,3.6149,-3.87058,0.619802,-0.0493944,0.855744,-0.0153512,-0.184655,0.205636,0.0171363,0.0588708,2.5031,5,0.1,17,2.6,0.775401,-0.227936,0.50157,0.589003,0.0553347,-0.0155687,0.558317,-0.545032,0.104636,0.0104756,2.60747,5,0.1,18,2.6,4.33583,0.284281,0.612422,-0.166905,-0.374331,-0.00900477,0.511646,1.08521,0.0126958,0.012612,3.49521,5,0.1,19,2.6,-0.0853261,2.19037,0.591415,-0.01217,0.0288785,0.0169441,0.877153,0.141859,0.187755,0.0104968,0.325879,5,0.1,20,2.6,0.14867,-2.28357,0.611583,-0.395912,0.184119,-0.011608,0.324174,-0.206709,0.0130534,0.0143538,0.192385,5,0.1,21,2.6,-3.99967,3.9439,0.500024,-0.83037,-0.309432,0.000281632,0.268579,0.223279,0.00104308,0.00961848,0.545914,5,0.1,22,2.6,-1.10744,4.16527,0.734254,0.708422,-0.397921,0.140266,-0.326753,0.370741,-0.0391006,0.049293,0.474639,5,0.1,23,2.6,-1.4,-2.26232,0.6069,0.121579,0.221765,-0.00942498,0.0429153,-0.173092,0.00733137,0.0137367,0.147623,5,0.1,24,2.6,3.00293,-2.0087,1.06705,-0.0108659,0.0655532,0.338498,0.02563,-0.341773,-0.165641,0.010185,0.117021,5,0.1,25,2.6,0.851394,2.63555,0.573592,-0.833577,0.799179,0.0169903,0.130892,0.00619888,-0.00339746,0.022274,1.94578,5,0.1,26,2.6,-5.6473,-1.81248,0.651832,-0.171542,0.145435,0.00561327,-0.197411,-0.20647,-0.00798702,0.00767619,0.0272718,5,0.1,27,2.6,-2.00042,-3.60871,1.21607,0.772786,0.00870228,0.133583,-0.365913,-0.00953674,-0.145018,0.0219004,0.359636,5,0.1,28,2.6,-1.43283,-3.05288,0.603904,0.0808269,0.782502,-0.00380874,-0.0783205,-0.379205,0.00375509,0.0112494,0.355007,5,0.1,29,2.6,-0.299374,3.8027,0.500026,0.00782534,0.110716,-0.000144541,0.0450164,-0.108957,0.000417233,0.0122931,3.83167,5,0.1
0,2.7,-2.01395,-0.104401,1.23924,-0.0675481,0.476334,0.110295,-0.165448,-0.372571,-0.114866,0.0115493,0.4866,5,0.1,1,2.7,0.0743805,-3.3527,0.591797,-0.183985,0.865396,0.0156136,0.0698753,-0.00335276,-0.00593066,0.0140497,1.28971,5,0.1,2,2.7,1.46152,-2.61097,0.625992,-0.866025,0.399533,-0.0237231,-1.49012e-05,0.0248551,-0.0210218,0.0108393,2.16563,5,0.1,3,2.7,-0.439693,-0.0768401,0.588101,-0.418722,0.0934293,-0.00454299,-0.628654,0.270114,0.0186488,0.0112514,2.92208,5,0.1,4,2.7,1.7995,4.30661,1.27612,0.000920705,-0.0494048,0.137915,-0.00125915,0.28801,-0.195794,0.0264846,0.304585,5,0.1,5,2.7,0.900175,5.1775,0.986978,0.000217557,-0.114769,0.285881,-0.00228733,0.0824332,0.34127,0.0084743,0.160251,5,0.1,6,2.7,0.200086,0.0598045,0.641954,-0.03371,0.431741,-0.0298128,0.236119,-0.775221,-0.0103042,0.00906605,1.59079,5,0.1,7,2.7,-0.705677,-0.266588,0.538576,0.0594428,0.00453191,-0.0179042,-0.641257,-0.285536,-0.0191368,0.00798285,0.44767,5,0.1,8,2.7,-3.22766,-0.958563,0.597821,0.0816341,0.509129,0.00216234,-0.00177324,-0.438694,-0.00227988,0.012367,0.142545,5,0.1,9,2.7,-2.96675,-3.76578,0.89439,0.688334,0.0143461,0.272817,0.451848,-0.012219,-0.551078,0.0144135,0.410419,5,0.1,10,2.7,-0.201771,1.99194,0.500002,0.640703,-0.386962,-4.19095e-05,0.720385,0.119358,0.000454485,0.00996439,2.60848,5,0.1,11,2.7,-0.58952,4.02756,0.622192,0.377941,-0.407211,0.0509681,-1.04824,0.703767,0.196189,0.0133833,3.18766,5,0.1,12,2.7,-3.09602,2.06885,0.669088,-0.726467,0.0915695,0.0246218,0.365257,-0.080809,-0.0216998,0.00847281,0.32494,5,0.1,13,2.7,4.22732,-2.99901,0.597175,-0.020729,3.46452e-05,0.00214381,0.0158548,-0.011757,-0.00164285,0.00803769,3.9959,5,0.1,14,2.7,3.60094,-1.87523,0.502079,-0.00927076,-0.313118,0.0186956,0.120848,-0.0116825,0.109203,0.0127512,0.542735,5,0.1,15,2.7,-1.44046,-2.99173,1.24938,0.182188,-0.00819527,0.0997966,-0.503093,0.00853837,-0.104524,0.0112492,0.258274,5,0.1,16,2.7,3.60901,-3.78438,0.618347,-0.0704635,0.865195,-0.0138057,-0.300571,0.0181645,0.0142455,0.0588708,2.5031,5,0.1,17,2.7,0.836248,-0.225071,0.500476,0.623157,0.00280887,-0.00690725,0.257775,-0.494651,0.0685528,0.0104756,2.60747,5,0.1,18,2.7,4.32167,0.252357,0.611501,-0.117243,-0.26535,-0.0101105,0.458211,1.01821,-0.0294782,0.012612,3.49521,5,0.1,19,2.7,-0.082187,2.19438,0.594199,0.0740218,0.0546448,0.0398375,0.822081,0.341684,0.254065,0.0104968,0.325879,5,0.1,20,2.7,0.111034,-2.26603,0.610478,-0.353951,0.16797,-0.0105889,0.49507,-0.127539,0.0080429,0.0143538,0.192385,5,0.1,21,2.7,-4.08148,3.91414,0.500054,-0.806331,-0.285028,0.000297092,0.244841,0.265896,-0.000581145,0.00961848,0.545914,5,0.1,22,2.7,-1.03848,4.12736,0.747976,0.668298,-0.359929,0.13314,-0.478555,0.39196,-0.100948,0.049293,0.474639,5,0.1,23,2.7,-1.38746,-2.24098,0.605993,0.130548,0.205036,-0.00871588,0.119291,-0.166625,0.00706315,0.0137367,0.147623,5,0.1,24,2.7,3.00197,-2.0037,1.10009,-0.00846647,0.0361636,0.322372,0.0223368,-0.246137,-0.166908,0.010185,0.117021,5,0.1,25,2.7,0.768272,2.71572,0.575273,-0.831621,0.805134,0.0166073,-0.0360571,0.0671148,-0.00477955,0.022274,1.94578,5,0.1,26,2.7,-5.66537,-1.79896,0.652354,-0.188831,0.125243,0.00483254,-0.139683,-0.197932,-0.00764802,0.00767619,0.0272718,5,0.1,27,2.7,-1.92485,-3.60789,1.22875,0.739128,0.00783876,0.120444,-0.33462,-0.00798702,-0.121765,0.0219004,0.359636,5,0.1,28,2.7,-1.42511,-2.97641,0.60354,0.0736704,0.747456,-0.00346648,-0.0672117,-0.348911,0.00320002,0.0112494,0.355007,5,0.1,29,2.7,-0.298508,3.81357,0.500014,0.00826973,0.109518,-0.00010049,-0.0288915,0.062272,0.00044331,0.0122931,3.83167,5,0.1
0,2.8,-2.0215,-0.0587459,1.24971,-0.0830948,0.435503,0.0991344,-0.137448,-0.447931,-0.110984,0.011483,0.466767,5,0.1,1,2.8,0.0563652,-3.26628,0.593326,-0.175852,0.861567,0.014925,0.0978467,-0.0890493,-0.00834465,0.00877629,0.959297,5,0.1,2,2.8,1.37491,-2.57104,0.623519,-0.866026,0.39739,-0.0256643,5.96046e-05,-0.0804663,-0.015974,0.0132798,2.23902,5,0.1,3,2.8,-0.485202,-0.0662029,0.587737,-0.494304,0.118458,-0.0027895,-0.801548,0.219142,0.0162721,0.00921725,2.60266,5,0.1,4,2.8,1.79959,4.30298,1.28894,0.000795722,-0.0244856,0.11833,-0.0013113,0.205755,-0.19598,0.0241861,0.477179,5,0.1,5,2.8,0.900183,5.16646,1.01704,-5.66244e-05,-0.105762,0.312701,-0.00289083,0.0991821,0.182807,0.0128284,0.108143,5,0.1,6,2.8,0.197854,0.1,0.638939,-0.0114542,0.380982,-0.0302911,0.204884,-0.256959,0.00151992,0.00871625,1.34796,5,0.1,7,2.8,-0.70323,-0.267742,0.536636,-0.0123441,-0.0288129,-0.0212848,-0.752598,-0.357926,-0.0429749,0.008523,0.309218,5,0.1,8,2.8,-3.21943,-0.909856,0.598027,0.0834048,0.464624,0.00194311,0.0275373,-0.461906,-0.00220537,0.0126611,0.171919,5,0.1,9,2.8,-2.89632,-3.7644,0.918919,0.713408,0.0131428,0.217949,0.0414848,-0.0123978,-0.540704,0.0129317,0.763557,5,0.1,10,2.8,-0.133958,1.95433,0.5,0.715105,-0.360629,-4.47035e-06,0.695488,0.389218,0.000268221,0.00981482,2.44099,5,0.1,11,2.8,-0.556785,3.99028,0.628256,0.278747,-0.339037,0.0699326,-0.929713,0.655651,0.173867,0.0130687,3.48715,5,0.1,12,2.8,-3.16673,2.07761,0.671442,-0.685942,0.0834763,0.0224471,0.46289,-0.0833273,-0.0223815,0.00922294,0.219306,5,0.1,13,2.8,4.22533,-2.99906,0.597381,-0.0191569,-0.000959635,0.00198036,0.0162125,-0.00834465,-0.00169873,0.011183,3.99594,5,0.1,14,2.8,3.60054,-1.90658,0.504506,0.000435114,-0.313398,0.0297904,0.069499,0.0225306,0.106722,0.0124049,0.484504,5,0.1,15,2.8,-1.42471,-2.99251,1.25885,0.133282,-0.00736713,0.0896633,-0.468373,0.00822544,-0.100613,0.0157626,0.256638,5,0.1,16,2.8,3.6,-3.6979,0.617036,-0.114262,0.863016,-0.0124216,-0.558972,-0.0603199,0.0137687,0.0441555,2.38626,5,0.1,17,2.8,0.9,-0.227107,0.500071,0.653644,-0.0417668,-0.0017643,0.34982,-0.389397,0.0352859,0.012915,2.45421,5,0.1,18,2.8,4.31201,0.230337,0.610309,-0.0786424,-0.181787,-0.0139564,0.303507,0.618279,-0.0433326,0.0143583,3.46721,5,0.1,19,2.8,-0.0709315,2.20166,0.599454,0.148068,0.0916243,0.0649571,0.64167,0.373483,0.236362,0.00977473,0.295873,5,0.1,20,2.8,0.0782624,-2.24981,0.609456,-0.300398,0.156653,-0.009875,0.560982,-0.107288,0.00673532,0.0112246,0.164023,5,0.1,21,2.8,-4.16071,3.88704,0.500079,-0.775898,-0.256133,0.000193715,0.386,0.311971,-0.00140071,0.013246,0.383876,5,0.1,22,2.8,-0.974307,4.09338,0.7607,0.61245,-0.319135,0.120574,-0.638187,0.425339,-0.147969,0.0417198,0.474241,5,0.1,23,2.8,-1.3738,-2.22134,0.605158,0.142452,0.187588,-0.0079751,0.106215,-0.185609,0.00786781,0.0104079,0.202198,5,0.1,24,2.8,3.00123,-2.00116,1.13143,-0.00639558,0.0161648,0.30345,0.0190735,-0.155449,-0.218213,0.016633,0.259469,5,0.1,25,2.8,0.685028,2.79636,0.576904,-0.831224,0.804818,0.0159517,0.0838935,-0.105619,-0.00867248,0.0159486,1.94661,5,0.1,26,2.8,-5.6848,-1.78741,0.652799,-0.198066,0.105765,0.00407994,-0.0398159,-0.191748,-0.00742078,0.0115559,0.016784,5,0.1,27,2.8,-1.85274,-3.60714,1.2402,0.701261,0.00706315,0.108549,-0.441313,-0.00786781,-0.11903,0.0148001,0.24374,5,0.1,28,2.8,-1.41808,-2.90354,0.60321,0.0669807,0.708145,-0.00314862,-0.0683069,-0.455856,0.00324845,0.014821,0.239991,5,0.1,29,2.8,-0.297898,3.82496,0.500006,0.00334606,0.119162,-5.81145e-05,-0.0637919,0.11301,0.000357628,0.00714792,0.481256,5,0.1
0,2.9,-2.03052,-0.0177471,1.25911,-0.0971019,0.381759,0.089146,-0.13417,-0.611017,-0.0918582,0.011483,0.466767,5,0.1,1,2.9,0.0392374,-3.18029,0.594779,-0.166864,0.859594,0.0141586,0.087953,0.000655651,-0.00749156,0.00877629,0.959297,5,0.1,2,2.9,1.28831,-2.53221,0.620901,-0.866025,0.374655,-0.0264217,-1.49012e-05,-0.35581,0.000555068,0.0132798,2.23902,5,0.1,3,2.9,-0.539415,-0.0535627,0.587518,-0.595306,0.131523,-0.00177277,-1.12547,0.0497591,0.00501797,0.00921725,2.60266,5,0.1,4,2.9,1.79966,4.30152,1.29982,0.000671297,-0.0057742,0.0996826,-0.00119209,0.147581,-0.177763,0.0241861,0.477179,5,0.1,5,2.9,0.900165,5.15638,1.04911,-0.00027651,-0.0959314,0.327322,-0.00155345,0.0989139,0.0985116,0.0128284,0.108143,5,0.1,6,2.9,0.197707,0.137901,0.63592,0.00815291,0.385978,-0.0300288,0.183097,0.280871,0.00471622,0.00871625,1.34796,5,0.1,7,2.9,-0.708278,-0.272696,0.534209,-0.0884362,-0.0723125,-0.0278941,-0.74238,-0.481946,-0.0817291,0.008523,0.309218,5,0.1,8,2.9,-3.21072,-0.865352,0.598212,0.0925578,0.428273,0.00177277,0.136733,-0.291947,-0.00132248,0.0126611,0.171919,5,0.1,9,2.9,-2.82455,-3.76315,0.938064,0.723054,0.0120338,0.165595,0.107735,-0.0102371,-0.501975,0.0129317,0.763557,5,0.1,10,2.9,-0.0593842,1.92046,0.500001,0.771786,-0.314718,1.25729e-05,0.420856,0.516146,8.56817e-05,0.00981482,2.44099,5,0.1,11,2.9,-0.533186,3.95985,0.636142,0.196823,-0.269049,0.0877713,-0.713609,0.688851,0.173014,0.0130687,3.48715,5,0.1,12,2.9,-3.23314,2.08556,0.673582,-0.643016,0.075873,0.0204044,0.417158,-0.0711977,-0.0191294,0.00922294,0.219306,5,0.1,13,2.9,4.22348,-2.99919,0.597572,-0.0177301,-0.00155121,0.00183126,0.0130236,-0.00372529,-0.00135973,0.011183,3.99594,5,0.1,14,2.9,3.60091,-1.93791,0.508042,0.00646636,-0.313619,0.0410266,0.0349879,-0.00893325,0.112057,0.0124049,0.484504,5,0.1,15,2.9,-1.41362,-2.99321,1.26735,0.0897083,-0.00662729,0.0806242,-0.399023,0.00679493,-0.0829846,0.0157626,0.256638,5,0.1,16,2.9,3.58506,-3.61165,0.615856,-0.190015,0.863433,-0.0112259,-0.889137,0.0276119,0.0106283,0.0441555,2.38626,5,0.1,17,2.9,0.967966,-0.233156,0.500031,0.711887,-0.078246,0.000625942,0.724476,-0.331343,0.0139885,0.012915,2.45421,5,0.1,18,2.9,4.30542,0.214562,0.608722,-0.0561789,-0.142068,-0.0175162,0.119686,0.125351,-0.0274666,0.0143583,3.46721,5,0.1,19,2.9,-0.0534895,2.21306,0.607159,0.195307,0.139077,0.0891236,0.313799,0.536904,0.235315,0.00977473,0.295873,5,0.1,20,2.9,0.0511527,-2.23462,0.608497,-0.241333,0.147836,-0.00932207,0.590266,-0.0765175,0.0048019,0.0112246,0.164023,5,0.1,21,2.9,-4.23649,3.86315,0.500092,-0.740199,-0.220382,6.03497e-05,0.354767,0.391454,-0.00124425,0.013246,0.383876,5,0.1,22,2.9,-0.916423,4.06348,0.772011,0.543664,-0.279713,0.105574,-0.731781,0.369787,-0.151902,0.0417198,0.474241,5,0.1,23,2.9,-1.35923,-2.20345,0.604397,0.146822,0.170507,-0.00725053,-0.0162125,-0.161514,0.00685453,0.0104079,0.202198,5,0.1,24,2.9,3.00068,-2.00026,1.16069,-0.00465102,0.00258684,0.281801,0.0158101,-0.111192,-0.221007,0.016633,0.259469,5,0.1,25,2.9,0.601925,2.87659,0.578461,-0.833413,0.801355,0.0152343,-0.0717826,-0.0100136,-0.00640377,0.0159486,1.94661,5,0.1,26,2.9,-5.70475,-1.77776,0.653172,-0.200127,0.0874942,0.00337334,0.00524521,-0.174113,-0.0067316,0.0115559,0.016784,5,0.1,27,2.9,-1.7847,-3.60647,1.2505,0.660367,0.00635423,0.0978077,-0.399143,-0.00651181,-0.09913,0.0148001,0.24374,5,0.1,28,2.9,-1.4117,-2.83488,0.60291,0.060766,0.665838,-0.00285367,-0.0579879,-0.412762,0.00274554,0.014821,0.239991,5,0.1,29,2.9,-0.297116,3.83667,0.500002,0.0187567,0.108293,-2.70084e-05,0.325168,-0.289515,0.00026077,0.00714792,0.481256,5,0.1
0,3,-2.04084,0.0172147,1.26757,-0.10848,0.316227,0.0802368,-0.0874996,-0.686286,-0.0886321,0.0103313,0.671701,5,0.1,1,3,0.0230147,-3.09451,0.596156,-0.157243,0.853366,0.0133395,0.108595,-0.159502,-0.00923872,0.0150684,0.687134,5,0.1,2,3,1.20171,-2.49685,0.618286,-0.866026,0.329673,-0.0256151,0,-0.527978,0.0151992,0.0105902,2.32622,5,0.1,3,3,-0.604478,-0.0403886,0.587354,-0.703257,0.129863,-0.00161529,-0.965178,-0.0760394,-0.00113249,0.0100427,2.0365,5,0.1,4,3,1.79972,4.30146,1.30893,0.000557303,0.00216961,0.0826448,-0.00113249,0.0038147,-0.163496,0.0283153,1.20875,5,0.1,5,3,0.900132,5.14729,1.08212,-0.000375509,-0.0857353,0.330615,-0.000506639,0.105619,-0.0394583,0.00838526,0.239515,5,0.1,6,3,0.199374,0.178276,0.632953,0.0244666,0.423755,-0.0291869,0.140332,0.416674,0.0127554,0.00836174,1.07144,5,0.1,7,3,-0.720635,-0.282338,0.530998,-0.156221,-0.119945,-0.0363216,-0.594229,-0.448287,-0.0812113,0.00789083,0.25575,5,0.1,8,3,-3.20073,-0.823884,0.598383,0.107467,0.401576,0.00165701,0.147104,-0.261754,-0.00110269,0.0134673,0.103556,5,0.1,9,3,-2.75189,-3.76199,0.952208,0.727516,0.0110209,0.118314,-0.048995,-0.0103712,-0.440449,0.012697,0.142441,5,0.1,10,3,0.0193281,1.89169,0.500002,0.79647,-0.259757,1.49012e-05,0.0620413,0.572383,-2.98023e-05,0.0134014,2.57066,5,0.1,11,3,-0.516749,3.93611,0.645716,0.135043,-0.209457,0.102855,-0.526935,0.47636,0.121742,0.00947223,3.51568,5,0.1,12,3,-3.29528,2.0928,0.675528,-0.59889,0.0688195,0.0185087,0.480056,-0.071764,-0.0192523,0.00844709,0.147164,5,0.1,13,3,4.22178,-2.99936,0.597748,-0.016427,-0.00174642,0.00169426,0.0135899,-0.000357628,-0.00137091,0.0123445,3.9972,5,0.1,14,3,3.60158,-1.96924,0.512674,0.00524521,-0.31212,0.0511795,-0.0647306,0.0516176,0.0867844,0.00915826,0.420552,5,0.1,15,3,-1.40651,-2.99384,1.27501,0.0541002,-0.00596642,0.0725836,-0.311136,0.0064373,-0.0798106,0.0108948,0.424221,5,0.1,16,3,3.56152,-3.52529,0.614785,-0.280362,0.862014,-0.0102118,-0.867367,-0.0802279,0.00998378,0.0638509,2.24039,5,0.1,17,3,1.04278,-0.242482,0.500139,0.782806,-0.106569,0.00130087,0.627279,-0.229269,0.000715256,0.0101945,2.30113,5,0.1,18,3,4.3,0.2,0.606862,-0.0561118,-0.15833,-0.0193983,-0.106812,-0.415958,-0.0101328,0.0124171,3.26978,5,0.1,19,3,-0.0328568,2.22966,0.617168,0.212938,0.192261,0.110035,0.0492364,0.498056,0.174671,0.00913456,0.277523,5,0.1,20,3,0.0298311,-2.22021,0.607589,-0.186923,0.140065,-0.0088349,0.4822,-0.0841618,0.00530481,0.0110816,0.137029,5,0.1,21,3,-4.30861,3.84312,0.500092,-0.70045,-0.179875,-5.06639e-05,0.458479,0.409961,-0.00101328,0.0165895,0.270509,5,0.1,22,3,-0.865829,4.03731,0.781804,0.467244,-0.244033,0.090237,-0.790864,0.34833,-0.154525,0.041916,0.417766,5,0.1,23,3,-1.34481,-2.18721,0.603706,0.139821,0.154352,-0.00656396,-0.120461,-0.165224,0.00700355,0.0143172,0.192904,5,0.1,24,3,3.00029,-2.00045,1.18772,-0.00322461,-0.00537634,0.258228,0.0126362,-0.046134,-0.254393,0.0142372,0.245466,5,0.1,25,3,0.518343,2.95652,0.579952,-0.835993,0.794911,0.0145465,0.0601721,-0.151634,-0.00786781,0.0200873,1.8524,5,0.1,26,3,-5.72462,-1.76986,0.653476,-0.196004,0.0708789,0.00273138,0.0815392,-0.158429,-0.00610948,0.0079201,0.00577223,5,0.1,27,3,-1.72074,-3.60587,1.2598,0.617632,0.00572205,0.0881523,-0.471056,-0.00631809,-0.0963211,0.0162997,0.460518,5,0.1,28,3,-1.40591,-2.77043,0.602638,0.0550449,0.621802,-0.00258386,-0.0578761,-0.483274,0.00271201,0.0161849,0.161117,5,0.1,29,3,-0.293291,3.84566,0.5,0.060048,0.068593,-7.45058e-06,0.464216,-0.472069,0.000149012,0.0107588,0.361442,5,0.1
0,3.1,-2.05212,0.0453587,1.27519,-0.116905,0.246496,0.0722835,-0.074327,-0.696083,-0.0729933,0.0103313,0.671701,5,0.1,1,3.1,0.00780117,-3.00981,0.597446,-0.14722,0.84112,0.0124871,0.0968723,-0.124544,-0.00822917,0.0150684,0.687134,5,0.1,2,3.1,1.11511,-2.46673,0.61581,-0.866026,0.271047,-0.0238343,0,-0.627518,0.0204332,0.0105902,2.32622,5,0.1,3,3.1,-0.679394,-0.0279125,0.587177,-0.79156,0.118494,-0.00200393,-0.757527,-0.146009,-0.00592694,0.0100427,2.0365,5,0.1,4,3.1,1.79977,4.30162,1.31641,0.000452809,-0.00181645,0.067484,-0.000961125,-0.162363,-0.140578,0.0283153,1.20875,5,0.1,5,3.1,0.900103,5.13951,1.1149,-0.000125542,-0.0675857,0.323797,0.0045374,0.240624,-0.103295,0.00838526,0.239515,5,0.1,6,3.1,0.202489,0.223188,0.630097,0.0374213,0.477501,-0.0279121,0.115605,0.600083,0.0135601,0.00836174,1.07144,5,0.1,7,3.1,-0.738857,-0.296812,0.526992,-0.204476,-0.171056,-0.0434257,-0.369869,-0.540158,-0.0589043,0.00789083,0.25575,5,0.1,8,3.1,-3.1892,-0.784885,0.598544,0.123499,0.379456,0.00156779,0.161201,-0.198346,-0.000759959,0.0134673,0.103556,5,0.1,9,3.1,-2.67974,-3.76094,0.96193,0.711837,0.0100896,0.0771121,-0.269771,-0.00861287,-0.380706,0.012697,0.142441,5,0.1,10,3.1,0.0980975,1.86859,0.500004,0.76931,-0.202321,1.03377e-05,-0.518052,0.568427,-5.58794e-05,0.0134014,2.57066,5,0.1,11,3.1,-0.505218,3.91709,0.656372,0.1014,-0.175837,0.108065,-0.176974,0.18996,-0.010334,0.00947223,3.51568,5,0.1,12,3.1,-3.35291,2.09935,0.677289,-0.554533,0.062301,0.0167594,0.424981,-0.0606477,-0.0162832,0.00844709,0.147164,5,0.1,13,3.1,4.2202,-2.99953,0.597911,-0.0152297,-0.00165962,0.00157319,0.0109971,0.00189245,-0.00111014,0.0123445,3.9972,5,0.1,14,3.1,3.60167,-2.00025,0.518224,-0.0053253,-0.308254,0.059692,-0.172541,0.0400841,0.0788793,0.00915826,0.420552,5,0.1,15,3.1,-1.40254,-2.99441,1.2819,0.0263795,-0.00538826,0.0654306,-0.237912,0.00533462,-0.06558,0.0108948,0.424221,5,0.1,16,3.1,3.52884,-3.43917,0.613807,-0.374781,0.862417,-0.00937795,-0.964165,0.0386238,0.00716373,0.0638509,2.24039,5,0.1,17,3.1,1.12391,-0.254235,0.500263,0.835949,-0.127769,0.00111619,0.408173,-0.186682,-0.00391528,0.0101945,2.30113,5,0.1,18,3.1,4.29341,0.181808,0.604901,-0.0793532,-0.207414,-0.0195325,-0.324309,-0.531555,0.00664219,0.0124171,3.26978,5,0.1,19,3.1,-0.0118884,2.25149,0.629001,0.201381,0.244659,0.126005,-0.254183,0.519708,0.137698,0.00913456,0.277523,5,0.1,20,3.1,0.0133498,-2.2066,0.60673,-0.145503,0.13236,-0.00834949,0.317954,-0.074774,0.00470877,0.0110816,0.137029,5,0.1,21,3.1,-4.37649,3.82719,0.500083,-0.657905,-0.138848,-0.000126939,0.414521,0.397652,-0.000532717,0.0165895,0.270509,5,0.1,22,3.1,-0.822939,4.01455,0.790061,0.391707,-0.211993,0.074999,-0.722002,0.29777,-0.149541,0.041916,0.417766,5,0.1,23,3.1,-1.33161,-2.17257,0.603084,0.122652,0.138461,-0.00588968,-0.214085,-0.155345,0.00659376,0.0143172,0.192904,5,0.1,24,3.1,3.00002,-2.00117,1.21225,-0.00210255,-0.00818148,0.232003,0.00983477,0.000119209,-0.271067,0.0142372,0.245466,5,0.1,25,3.1,0.434751,3.03444,0.581685,-0.837504,0.756054,0.0227901,-0.0403097,-0.59399,0.152316,0.0200873,1.8524,5,0.1,26,3.1,-5.74374,-1.76353,0.65372,-0.185802,0.0559598,0.0021562,0.124246,-0.139922,-0.00539422,0.0079201,0.00577223,5,0.1,27,3.1,-1.66113,-3.60533,1.26817,0.576062,0.00515506,0.0794871,-0.383288,-0.0051856,-0.0797585,0.0162997,0.460518,5,0.1,28,3.1,-1.40068,-2.71053,0.602392,0.0497995,0.577094,-0.00233836,-0.0486895,-0.429615,0.00227243,0.0161849,0.161117,5,0.1,29,3.1,-0.28471,3.85011,0.5,0.11328,0.0202287,1.95578e-06,0.567518,-0.48019,4.84288e-05,0.0107588,0.361442,5,0.1
0,3.2,-2.06411,0.0665954,1.28206,-0.122225,0.179149,0.0652015,-0.0276566,-0.641704,-0.0704527,0.00994279,0.661132,5,0.1,1,3.2,-0.00642257,-2.92653,0.598653,-0.137026,0.821847,0.0116199,0.110433,-0.28789,-0.00932813,0.00922979,0.479193,5,0.1,2,3.2,1.0285,-2.44281,0.613537,-0.866024,0.207198,-0.0215352,-2.98023e-05,-0.63622,0.0255108,0.0125864,2.41309,5,0.1,3,3.2,-0.761723,-0.0168718,0.586944,-0.848269,0.10165,-0.00267476,-0.355124,-0.186305,-0.00691414,0.00848045,1.57423,5,0.1,4,3.2,1.79981,4.3,1.32249,0.000363588,-0.0367403,0.0543743,-0.000834465,-0.521898,-0.122249,0.0242432,2.51588,5,0.1,5,3.2,0.900115,5.13406,1.14661,0.000366569,-0.0406027,0.308958,0.00467896,0.285864,-0.196993,0.0134894,0.212509,5,0.1,6,3.2,0.206747,0.273848,0.62738,0.0470679,0.533713,-0.0263378,0.0752956,0.48174,0.0184774,0.00861281,0.820835,5,0.1,7,3.2,-0.760779,-0.316542,0.522405,-0.230221,-0.222136,-0.047791,-0.1463,-0.456795,-0.0271499,0.0075052,0.262171,5,0.1,8,3.2,-3.1761,-0.747945,0.598697,0.137603,0.358884,0.00149161,0.111938,-0.225574,-0.000864267,0.0117708,0.0911025,5,0.1,9,3.2,-2.6103,-3.75997,0.967856,0.672948,0.00923872,0.0426397,-0.508785,-0.00882149,-0.306994,0.0107774,0.976899,5,0.1,10,3.2,0.172032,1.85114,0.500004,0.706669,-0.147468,2.98023e-06,-0.683867,0.522673,-2.98023e-05,0.0099971,2.75397,5,0.1,11,3.2,-0.495596,3.9,0.666959,0.0940695,-0.169903,0.102144,0.00561774,-0.0495911,-0.101805,0.00971953,3.46891,5,0.1,12,3.2,-3.40621,2.10528,0.678884,-0.510859,0.0563383,0.0151575,0.460625,-0.0600815,-0.0161529,0.00832394,0.0986392,5,0.1,13,3.2,4.21873,-2.99968,0.598063,-0.0141263,-0.00140071,0.0014618,0.0114441,0.00309944,-0.00119209,0.0133067,3.99857,5,0.1,14,3.2,3.6,-2.0308,0.524544,-0.0307143,-0.301671,0.066182,-0.323892,0.101566,0.0477433,0.0106048,0.346642,5,0.1,15,3.2,-1.40094,-2.99492,1.28812,0.00727177,-0.0048697,0.0590682,-0.142217,0.005126,-0.0634193,0.00995435,0.62078,5,0.1,16,3.2,3.48677,-3.35286,0.612904,-0.463402,0.861418,-0.00869632,-0.767112,-0.0921488,0.00682473,0.0575361,2.11807,5,0.1,17,3.2,1.20903,-0.267821,0.500351,0.861293,-0.142572,0.000604987,0.0946522,-0.104114,-0.00590086,0.00918903,2.25905,5,0.1,18,3.2,4.28372,0.158452,0.603003,-0.115025,-0.25862,-0.0182256,-0.363588,-0.46654,0.0188053,0.0167866,3.32776,5,0.1,19,3.2,0.00665714,2.27839,0.642182,0.166861,0.291032,0.136416,-0.414823,0.386357,0.0659227,0.0132767,0.345218,5,0.1,20,3.2,0,-2.19376,0.60592,-0.125253,0.1243,-0.00784099,0.0960855,-0.0898838,0.00563264,0.0103157,0.266215,5,0.1,21,3.2,-4.44014,3.8152,0.500068,-0.613809,-0.102329,-0.000160933,0.482082,0.325799,-0.000178814,0.0084103,0.265346,5,0.1,22,3.2,-0.787277,3.99479,0.796827,0.322495,-0.18357,0.060457,-0.663549,0.27442,-0.140667,0.0400422,0.365341,5,0.1,23,3.2,-1.32051,-2.15951,0.602528,0.0986248,0.122827,-0.00522584,-0.258982,-0.159144,0.00679493,0.0134763,0.189851,5,0.1,24,3.2,2.99986,-2.00185,1.23406,-0.00124574,-0.00409484,0.203902,0.00727177,0.0840425,-0.291109,0.0117685,0.579764,5,0.1,25,3.2,0.350969,3.10656,0.584852,-0.835509,0.6818,0.041382,0.115618,-0.865459,0.203699,0.0227364,1.46987,5,0.1,26,3.2,-5.76162,-1.7586,0.65391,-0.170934,0.0428975,0.00165403,0.173569,-0.121236,-0.00470877,0.00805326,0.00169981,5,0.1,27,3.2,-1.60544,-3.60484,1.27572,0.537056,0.00464916,0.0717252,-0.413001,-0.005126,-0.0773668,0.0179277,0.878256,5,0.1,28,3.2,-1.39594,-2.65501,0.60217,0.0450253,0.532717,-0.00211447,-0.0481009,-0.470638,0.00223517,0.0105664,0.107956,5,0.1,29,3.2,-0.270596,3.84982,0.5,0.167838,-0.0248551,4.47035e-06,0.499442,-0.410438,-2.98023e-05,0.00760565,0.322566,5,0.1
