id,t,px,py,pz,vx,vy,vz,ax,ay,az,planning_time,qp_cost,planning_report,size,id,t,px,py,pz,vx,vy,vz,ax,ay,az,planning_time,qp_cost,planning_report,size,id,t,px,py,pz,vx,vy,vz,ax,ay,az,planning_time,qp_cost,planning_report,size,id,t,px,py,pz,vx,vy,vz,ax,ay,az,planning_time,qp_cost,planning_report,size,id,t,px,py,pz,vx,vy,vz,ax,ay,az,planning_time,qp_cost,planning_report,size,id,t,px,py,pz,vx,vy,vz,ax,ay,az,planning_time,qp_cost,planning_report,size,id,t,px,py,pz,vx,vy,vz,ax,ay,az,planning_time,qp_cost,planning_report,size,id,t,px,py,pz,vx,vy,vz,ax,ay,az,planning_time,qp_cost,planning_report,size,id,t,px,py,pz,vx,vy,vz,ax,ay,az,planning_time,qp_cost,planning_report,size,id,t,px,py,pz,vx,vy,vz,ax,ay,az,planning_time,qp_cost,planning_report,size,id,t,px,py,pz,vx,vy,vz,ax,ay,az,planning_time,qp_cost,planning_report,size,id,t,px,py,pz,vx,vy,vz,ax,ay,az,planning_time,qp_cost,planning_report,size,id,t,px,py,pz,vx,vy,vz,ax,ay,az,planning_time,qp_cost,planning_report,size,id,t,px,py,pz,vx,vy,vz,ax,ay,az,planning_time,qp_cost,planning_report,size,id,t,px,py,pz,vx,vy,vz,ax,ay,az,planning_time,qp_cost,planning_report,size,id,t,px,py,pz,vx,vy,vz,ax,ay,az,planning_time,qp_cost,planning_report,size,id,t,px,py,pz,vx,vy,vz,ax,ay,az,planning_time,qp_cost,planning_report,size,id,t,px,py,pz,vx,vy,vz,ax,ay,az,planning_time,qp_cost,planning_report,size,id,t,px,py,pz,vx,vy,vz,ax,ay,az,planning_time,qp_cost,planning_report,size,id,t,px,py,pz,vx,vy,vz,ax,ay,az,planning_time,qp_cost,planning_report,size,id,t,px,py,pz,vx,vy,vz,ax,ay,az,planning_time,qp_cost,planning_report,size,id,t,px,py,pz,vx,vy,vz,ax,ay,az,planning_time,qp_cost,planning_report,size,id,t,px,py,pz,vx,vy,vz,ax,ay,az,planning_time,qp_cost,planning_report,size,id,t,px,py,pz,vx,vy,vz,ax,ay,az,planning_time,qp_cost,planning_report,size,id,t,px,py,pz,vx,vy,vz,ax,ay,az,planning_time,qp_cost,planning_report,size,id,t,px,py,pz,vx,vy,vz,ax,ay,az,planning_time,qp_cost,planning_report,size,id,t,px,py,pz,vx,vy,vz,ax,ay,az,planning_time,qp_cost,planning_report,size,id,t,px,py,pz,vx,vy,vz,ax,ay,az,planning_time,qp_cost,planning_report,size,id,t,px,py,pz,vx,vy,vz,ax,ay,az,planning_time,qp_cost,planning_report,size,id,t,px,py,pz,vx,vy,vz,ax,ay,az,planning_time,qp_cost,planning_report,size
0,0,2.67099,-2.25555,0.582264,0,0,0,0,0,0,0.0154267,0.468757,5,0.1,1,0,4.83599,1.25714,0.520164,0,0,0,0,0,0,0.0243663,1.28798,5,0.1,2,0,1.01951,-2.79771,0.507681,0,0,0,0,0,0,0.0175938,3.5122,5,0.1,3,0,-3.3137,-1.47973,0.572256,0,0,0,0,0,0,0.0268016,1.02998,5,0.1,4,0,-3.22922,-3.55472,0.693313,0,0,0,0,0,0,0.0127856,3.48126,5,0.1,5,0,-4.68912,-5.73102,0.651912,0,0,0,0,0,0,0.0193773,0.979915,5,0.1,6,0,5.46851,1.15998,0.568186,0,0,0,0,0,0,0.032248,2.30944,5,0.1,7,0,4.16765,-1.15612,0.551978,0,0,0,0,0,0,0.0355749,3.5122,5,0.1,8,0,1.64358,4.59915,0.663785,0,0,0,0,0,0,0.0100246,0.901218,5,0.1,9,0,-1.81209,4.19495,0.508634,0,0,0,0,0,0,0.0183744,0.698085,5,0.1,10,0,4.05249,-5.84962,0.54071,0,0,0,0,0,0,0.0110553,3.5122,5,0.1,11,0,-4.1088,5.47412,0.589697,0,0,0,0,0,0,0.0197197,3.5122,5,0.1,12,0,-4.49103,-2.84662,0.587581,0,0,0,0,0,0,0.0113148,2.88258,5,0.1,13,0,-2.34569,1.76098,0.504395,0,0,0,0,0,0,0.0103523,3.51219,5,0.1,14,0,1.54743,2.98712,0.551528,0,0,0,0,0,0,0.0362763,2.7337,5,0.1,15,0,0.415219,2.18976,0.510731,0,0,0,0,0,0,0.0165452,3.5122,5,0.1,16,0,-1.6109,-0.140325,0.533528,0,0,0,0,0,0,0.0116557,0.660682,5,0.1,17,0,0.141856,-2.01036,0.648209,0,0,0,0,0,0,0.0114947,3.5122,5,0.1,18,0,-3.83885,-3.15645,0.647946,0,0,0,0,0,0,0.0186552,3.51219,5,0.1,19,0,-2.34904,5.75801,0.572248,0,0,0,0,0,0,0.0236441,3.5122,5,0.1,20,0,-2.65917,-0.224758,0.555687,0,0,0,0,0,0,0.0102471,3.51219,5,0.1,21,0,-4.62569,3.90466,0.524763,0,0,0,0,0,0,0.0142553,0.324247,5,0.1,22,0,-0.291545,3.90321,0.574176,0,0,0,0,0,0,0.00672475,3.67372,5,0.1,23,0,-4.09053,4.37119,0.571042,0,0,0,0,0,0,0.0111229,0.729162,5,0.1,24,0,-5.36503,-2.24975,0.521457,0,0,0,0,0,0,0.0140066,3.5122,5,0.1,25,0,-3.43468,-4.1258,0.638754,0,0,0,0,0,0,0.0102724,3.5122,5,0.1,26,0,-0.997906,5.35126,0.625429,0,0,0,0,0,0,0.0438899,3.5122,5,0.1,27,0,1.55617,-3.46223,0.573108,0,0,0,0,0,0,0.00944601,0.871076,5,0.1,28,0,-2.45936,4.44781,0.693789,0,0,0,0,0,0,0.0105166,0.64469,5,0.1,29,0,3.84222,-3.94038,0.68328,0,0,0,0,0,0,0.0427021,3.51219,5,0.1
0,0.1,2.67039,-2.25507,0.582283,-0.0169203,0.0134997,0.000525545,-0.300825,0.239998,0.00934675,0.0154267,0.468757,5,0.1,1,0.1,4.83549,1.25598,0.520091,-0.014402,-0.0328092,-0.00207927,-0.256062,-0.583269,-0.0369698,0.0243663,1.28798,5,0.1,2,0.1,1.01766,-2.79675,0.507625,-0.05257,0.0273239,-0.0015799,-0.934578,0.485763,-0.0280812,0.0175938,3.5122,5,0.1,3,0.1,-3.31353,-1.48085,0.572285,0.0048507,-0.0317166,0.000822172,0.086233,-0.563852,0.014618,0.0268016,1.02998,5,0.1,4,0.1,-3.22726,-3.55476,0.693999,0.055689,-0.00134185,0.0194603,0.990018,-0.0238717,0.345957,0.0127856,3.48126,5,0.1,5,0.1,-4.68814,-5.73052,0.651858,0.0278294,0.0142537,-0.00153845,0.494778,0.253409,-0.0273474,0.0193773,0.979915,5,0.1,6,0.1,5.46719,1.15892,0.568219,-0.0375904,-0.0299297,0.000942964,-0.668317,-0.532076,0.0167601,0.032248,2.30944,5,0.1,7,0.1,4.16589,-1.155,0.552019,-0.0500977,0.0316465,0.00116359,-0.890613,0.562601,0.0206828,0.0355749,3.5122,5,0.1,8,0.1,1.6428,4.5992,0.664502,-0.0220355,0.00150725,0.0203354,-0.391752,0.0267923,0.361517,0.0100246,0.901218,5,0.1,9,0.1,-1.81208,4.19465,0.509512,0.000358745,-0.00874028,0.0249331,0.0063777,-0.155419,0.443261,0.0183744,0.698085,5,0.1,10,0.1,4.0504,-5.84962,0.540762,-0.0592515,-9.68575e-06,0.00146227,-1.05333,-0.000149012,0.0259914,0.0110553,3.5122,5,0.1,11,0.1,-4.10689,5.47329,0.589846,0.0541992,-0.0236049,0.00424813,0.963539,-0.419617,0.0755265,0.0197197,3.5122,5,0.1,12,0.1,-4.49026,-2.84835,0.587594,0.0219598,-0.0489965,0.000367966,0.39041,-0.871032,0.00654534,0.0113148,2.88258,5,0.1,13,0.1,-2.34368,1.76154,0.504481,0.0570517,0.0158705,0.00244472,1.01425,0.282139,0.0434667,0.0103523,3.51219,5,0.1,14,0.1,1.54739,2.98557,0.552518,-0.00140574,-0.0440694,0.0281073,-0.0249967,-0.783473,0.499681,0.0362763,2.7337,5,0.1,15,0.1,0.414354,2.19162,0.51112,-0.0245569,0.0527985,0.0110483,-0.436569,0.938624,0.19642,0.0165452,3.5122,5,0.1,16,0.1,-1.61094,-0.140022,0.534381,-0.00115875,0.00860353,0.0241956,-0.0206009,0.152952,0.430144,0.0116557,0.660682,5,0.1,17,0.1,0.141861,-2.00827,0.648181,0.00013751,0.0592625,-0.000813883,0.00244379,1.05356,-0.0144653,0.0114947,3.5122,5,0.1,18,0.1,-3.83689,-3.15574,0.647908,0.0556808,0.0202794,-0.00107242,0.989869,0.360534,-0.0190698,0.0186552,3.51219,5,0.1,19,0.1,-2.34909,5.75606,0.573002,-0.0014022,-0.0552528,0.0214005,-0.0249147,-0.982255,0.380456,0.0236441,3.5122,5,0.1,20,0.1,-2.65712,-0.224375,0.555719,0.0582535,0.0108819,0.000919122,1.03562,0.193454,0.0163354,0.0102471,3.51219,5,0.1,21,0.1,-4.62572,3.90434,0.525312,-0.000720471,-0.00902899,0.0155649,-0.0127852,-0.1605,0.276711,0.0142553,0.324247,5,0.1,22,0.1,-0.291436,3.90232,0.574196,0.00309902,-0.0250787,0.000565406,0.0550952,-0.445843,0.0100546,0.00672475,3.67372,5,0.1,23,0.1,-4.09048,4.37069,0.571855,0.00120103,-0.0139639,0.0230838,0.0213385,-0.248253,0.410378,0.0111229,0.729162,5,0.1,24,0.1,-5.36298,-2.24934,0.521391,0.0580542,0.0117876,-0.0018727,1.03208,0.20954,-0.0332966,0.0140066,3.5122,5,0.1,25,0.1,-3.43611,-4.12428,0.638776,-0.0406146,0.043159,0.000633299,-0.722051,0.767261,0.0112578,0.0102724,3.5122,5,0.1,26,0.1,-0.999824,5.35044,0.625347,-0.0544669,-0.023251,-0.00232933,-0.9683,-0.413388,-0.0414066,0.0438899,3.5122,5,0.1,27,0.1,1.55695,-3.46155,0.57317,0.0222284,0.0193406,0.00175936,0.395164,0.343814,0.0312738,0.00944601,0.871076,5,0.1,28,0.1,-2.4593,4.44724,0.694474,0.00175945,-0.0162348,0.0194463,0.0312775,-0.288606,0.345711,0.0105166,0.64469,5,0.1,29,0.1,3.84016,-3.94029,0.683623,-0.0583936,0.00278465,0.00975206,-1.03812,0.0494868,0.173375,0.0427021,3.51219,5,0.1
0,0.2,2.66695,-2.25233,0.58239,-0.0534773,0.042665,0.00166148,-0.401139,0.320077,0.0124276,0.0142584,0.384588,5,0.1,1,0.2,4.83256,1.24932,0.519669,-0.0455141,-0.103694,-0.00657141,-0.341415,-0.777662,-0.049293,0.0237527,1.05672,5,0.1,2,0.2,1.00698,-2.7912,0.507304,-0.166148,0.0863612,-0.00499338,-1.24609,0.647664,-0.0374317,0.0139538,1.25338,5,0.1,3,0.2,-3.31254,-1.48729,0.572452,0.0153303,-0.100237,0.00259876,0.115037,-0.751853,0.0194609,0.0190333,0.845045,5,0.1,4,0.2,-3.21595,-3.55504,0.697951,0.176007,-0.00423789,0.0615045,1.32,-0.0318289,0.46128,0.0115188,2.8562,5,0.1,5,0.2,-4.68248,-5.72762,0.651545,0.0879526,0.0450611,-0.00486225,0.659943,0.337601,-0.0364482,0.0156963,1.9444,5,0.1,6,0.2,5.45955,1.15285,0.56841,-0.118804,-0.0945956,0.00298023,-0.89097,-0.709355,0.0223219,0.0288793,1.89479,5,0.1,7,0.2,4.15571,-1.14857,0.552255,-0.158346,0.10002,0.00367761,-1.18732,0.750184,0.0275671,0.0311147,2.9258,5,0.1,8,0.2,1.63833,4.59951,0.668632,-0.0696421,0.00476837,0.0642702,-0.522316,0.0355244,0.482023,0.00914286,0.739405,5,0.1,9,0.2,-1.81201,4.19287,0.514577,0.00113249,-0.0276327,0.0788003,0.00846386,-0.206947,0.59104,0.018132,2.61403,5,0.1,10,0.2,4.03837,-5.84962,0.541059,-0.187266,-2.38419e-05,0.00462234,-1.40429,-0.000476837,0.0346303,0.00916817,2.92581,5,0.1,11,0.2,-4.09588,5.4685,0.590709,0.171292,-0.0746012,0.0134274,1.28484,-0.559568,0.100672,0.0145099,2.92757,5,0.1,12,0.2,-4.4858,-2.8583,0.587668,0.0694036,-0.154853,0.00116229,0.520468,-1.16146,0.00876188,0.0101874,2.36501,5,0.1,13,0.2,-2.33209,1.76476,0.504977,0.18031,0.0501573,0.00772625,1.35243,0.376165,0.0579655,0.00822413,2.92578,5,0.1,14,0.2,1.5471,2.97662,0.558227,-0.00444055,-0.139278,0.0888333,-0.0333786,-1.04475,0.666231,0.0293238,2.24285,5,0.1,15,0.2,0.409366,2.20235,0.513365,-0.0776127,0.166863,0.0349179,-0.582069,1.25158,0.261903,0.0138488,2.92579,5,0.1,16,0.2,-1.61117,-0.138274,0.539295,-0.00366271,0.0271916,0.0764683,-0.0274181,0.20393,0.573546,0.0110053,0.542056,5,0.1,17,0.2,0.141889,-1.99623,0.648015,0.000434741,0.187299,-0.00257194,0.00324845,1.40476,-0.0192821,0.0110055,2.92579,5,0.1,18,0.2,-3.82558,-3.15162,0.647691,0.175977,0.0640929,-0.0033915,1.31989,0.480652,-0.0253916,0.0249774,2.92579,5,0.1,19,0.2,-2.34937,5.74484,0.577349,-0.00442863,-0.174618,0.0676364,-0.0333786,-1.30987,0.507265,0.0226432,2.92578,5,0.1,20,0.2,-2.64529,-0.222164,0.555906,0.184107,0.0343923,0.00290424,1.38092,0.257932,0.0217855,0.0100114,2.92579,5,0.1,21,0.2,-4.62586,3.90251,0.528473,-0.0022769,-0.0285327,0.0491932,-0.0171661,-0.213981,0.368923,0.0129269,0.266029,5,0.1,22,0.2,-0.290807,3.89723,0.574311,0.00979453,-0.0792623,0.00178665,0.0734627,-0.594497,0.013411,0.00769421,3.62764,5,0.1,23,0.2,-4.09024,4.36786,0.576544,0.00380278,-0.0441313,0.0729561,0.0281334,-0.330925,0.547171,0.0116482,0.598243,5,0.1,24,0.2,-5.35119,-2.24694,0.521011,0.183487,0.0372589,-0.00592023,1.37591,0.279307,-0.0443459,0.0137506,2.92581,5,0.1,25,0.2,-3.44436,-4.11551,0.638905,-0.128365,0.136399,0.00200123,-0.962734,1.02329,0.0150204,0.0109291,2.92577,5,0.1,26,0.2,-1.01089,5.34572,0.624874,-0.172141,-0.0734925,-0.00736117,-1.29104,-0.551224,-0.0552237,0.0441912,2.92579,5,0.1,27,0.2,1.56147,-3.45762,0.573527,0.070253,0.0611186,0.00555962,0.526845,0.458598,0.0417233,0.00963401,0.71467,5,0.1,28,0.2,-2.45894,4.44394,0.698424,0.00555515,-0.0513077,0.0614598,0.0418425,-0.384808,0.460953,0.0123746,0.528935,5,0.1,29,0.2,3.8283,-3.93972,0.685604,-0.184554,0.00880361,0.0308216,-1.38426,0.0659227,0.231147,0.0418195,3.21515,5,0.1
0,0.3,2.65938,-2.24629,0.582625,-0.0994902,0.0793785,0.00308799,-0.490829,0.391632,0.0152253,0.0142584,0.384588,5,0.1,1,0.3,4.82612,1.23463,0.518738,-0.0846758,-0.192902,-0.0122255,-0.417769,-0.951625,-0.0603124,0.0237527,1.05672,5,0.1,2,0.3,0.98408,-2.7792,0.506632,-0.291176,0.154008,-0.00829576,-1.20638,0.674367,-0.0281744,0.0139538,1.25338,5,0.1,3,0.3,-3.31037,-1.50149,0.57282,0.0285245,-0.186481,0.00483226,0.140727,-0.91999,0.0238344,0.0190333,0.845045,5,0.1,4,0.3,-3.19102,-3.55564,0.706662,0.327427,-0.0078883,0.114418,1.61527,-0.0389367,0.56446,0.0115188,2.8562,5,0.1,5,0.3,-4.66956,-5.72093,0.650857,0.17698,0.0926875,-0.00904398,1.04448,0.57134,-0.0446104,0.0156963,1.9444,5,0.1,6,0.3,5.44272,1.13945,0.568832,-0.221011,-0.17597,0.00554174,-1.09029,-0.868082,0.0273362,0.0288793,1.89479,5,0.1,7,0.3,4.13327,-1.1344,0.552776,-0.294906,0.186296,0.00684867,-1.4593,0.921942,0.033889,0.0311147,2.9258,5,0.1,8,0.3,1.62846,4.60018,0.677735,-0.129558,0.00885129,0.119563,-0.639156,0.043571,0.589844,0.00914286,0.739405,5,0.1,9,0.3,-1.81013,4.1888,0.524798,0.0510007,-0.055825,0.119927,0.879645,-0.332385,0.249077,0.018132,2.61403,5,0.1,10,0.3,4.01183,-5.84963,0.541714,-0.348777,-7.07805e-05,0.00860626,-1.72593,-0.000447035,0.0425763,0.00916817,2.92581,5,0.1,11,0.3,-4.0716,5.45792,0.592467,0.319195,-0.139014,0.0208862,1.58143,-0.688732,0.0504926,0.0145099,2.92757,5,0.1,12,0.3,-4.47597,-2.88023,0.587833,0.12911,-0.288083,0.00216588,0.636935,-1.42123,0.010699,0.0101874,2.36501,5,0.1,13,0.3,-2.30654,1.77187,0.506072,0.335848,0.0934204,0.0143926,1.66206,0.462301,0.0712313,0.00822413,2.92578,5,0.1,14,0.3,1.54647,2.95689,0.570808,-0.00826716,-0.259118,0.165258,-0.0408143,-1.27834,0.815254,0.0293238,2.24285,5,0.1,15,0.3,0.398367,2.226,0.518313,-0.144557,0.310803,0.0650385,-0.715364,1.5381,0.321865,0.0138488,2.92579,5,0.1,16,0.3,-1.61169,-0.134423,0.550126,-0.00680964,0.0505849,0.14226,-0.0335798,0.249549,0.701822,0.0110053,0.542056,5,0.1,17,0.3,0.141951,-1.96969,0.647651,0.000808714,0.348858,-0.00478989,0.0039991,1.72641,-0.023704,0.0110055,2.92579,5,0.1,18,0.3,-3.80064,-3.14254,0.64721,0.327774,0.119374,-0.00631297,1.6221,0.590742,-0.0312291,0.0249774,2.92579,5,0.1,19,0.3,-2.35,5.72009,0.586934,-0.00826269,-0.32526,0.125977,-0.0409186,-1.60968,0.62342,0.0226432,2.92578,5,0.1,20,0.3,-2.6192,-0.217291,0.556317,0.342922,0.064057,0.00540959,1.69708,0.316998,0.0267737,0.0100114,2.92579,5,0.1,21,0.3,-4.62618,3.89846,0.535441,-0.00424385,-0.0530791,0.0915136,-0.0209808,-0.261858,0.45146,0.0129269,0.266029,5,0.1,22,0.3,-0.289413,3.88675,0.574565,0.0184153,-0.126219,0.00336021,0.0933409,-0.351921,0.017032,0.00769421,3.62764,5,0.1,23,0.3,-4.0897,4.36161,0.586877,0.00704229,-0.0820935,0.135723,0.0346303,-0.405014,0.669565,0.0116482,0.598243,5,0.1,24,0.3,-5.32519,-2.24166,0.520172,0.341735,0.0693854,-0.011022,1.69107,0.343338,-0.0545308,0.0137506,2.92581,5,0.1,25,0.3,-3.46255,-4.09618,0.639189,-0.239088,0.254078,0.00372864,-1.18318,1.25748,0.0184551,0.0109291,2.92577,5,0.1,26,0.3,-1.03528,5.33531,0.62383,-0.320623,-0.136886,-0.0137121,-1.58667,-0.677437,-0.0678636,0.0441912,2.92579,5,0.1,27,0.3,1.57142,-3.44897,0.574315,0.13069,0.113719,0.0103448,0.644714,0.561073,0.0510439,0.00963401,0.71467,5,0.1,28,0.3,-2.45815,4.43667,0.707128,0.01035,-0.0954479,0.114336,0.0511259,-0.470877,0.564054,0.0123746,0.528935,5,0.1,29,0.3,3.8038,-3.93847,0.689972,-0.296679,0.0163887,0.0574062,-0.866026,0.0810772,0.284083,0.0418195,3.21515,5,0.1
0,0.4,2.64702,-2.23643,0.583008,-0.146723,0.117069,0.00455528,-0.433087,0.345349,0.013411,0.0179535,0.416005,5,0.1,1,0.4,4.8156,1.21067,0.517219,-0.124884,-0.284487,-0.0180304,-0.368595,-0.839531,-0.0531971,0.0274536,0.836155,5,0.1,2,0.4,0.949321,-2.7606,0.50568,-0.399223,0.215918,-0.0105619,-0.920683,0.541687,-0.0168979,0.0139326,0.95191,5,0.1,3,0.4,-3.30682,-1.52466,0.57342,0.042069,-0.275019,0.00712574,0.124097,-0.811636,0.0210404,0.0170249,0.668607,5,0.1,4,0.4,-3.15035,-3.55662,0.720876,0.482881,-0.0116348,0.168742,1.42503,-0.0344515,0.497967,0.0121583,2.25986,5,0.1,5,0.4,-4.64652,-5.70871,0.649733,0.283492,0.151682,-0.013338,1.0283,0.575066,-0.0393391,0.0180181,1.56852,5,0.1,6,0.4,5.41527,1.11759,0.569521,-0.325942,-0.259513,0.0081718,-0.962019,-0.76586,0.0241399,0.0329812,1.49918,5,0.1,7,0.4,4.09661,-1.11124,0.553628,-0.435507,0.27512,0.0101134,-1.29032,0.815153,0.0299811,0.034365,2.51009,5,0.1,8,0.4,1.61237,4.60128,0.692588,-0.191069,0.0130534,0.17633,-0.56386,0.0383854,0.520349,0.0114657,0.585026,5,0.1,9,0.4,-1.79993,4.18152,0.537592,0.157639,-0.0898123,0.131907,1.16819,-0.329018,0.00587106,0.016505,2.1111,5,0.1,10,0.4,3.96847,-5.84964,0.542784,-0.515068,-0.000107288,0.0127092,-1.52612,-0.000238419,0.0376403,0.00941116,2.51562,5,0.1,11,0.4,-4.03191,5.44064,0.594739,0.471628,-0.20541,0.0239074,1.39916,-0.609159,0.0117421,0.0151642,2.51122,5,0.1,12,0.4,-4.45993,-2.91602,0.588102,0.190413,-0.424856,0.0031963,0.561714,-1.25384,0.00938773,0.00867691,2.22474,5,0.1,13,0.4,-2.26478,1.78349,0.507862,0.495982,0.137961,0.021255,1.46949,0.408828,0.0629723,0.00843777,2.51044,5,0.1,14,0.4,1.54544,2.9247,0.591338,-0.0121921,-0.382143,0.243717,-0.0360608,-1.12772,0.719249,0.0285763,2.09452,5,0.1,15,0.4,0.380396,2.26464,0.526399,-0.213481,0.458997,0.0960499,-0.63251,1.35994,0.284553,0.0145652,2.51007,5,0.1,16,0.4,-1.61254,-0.128139,0.567799,-0.0100404,0.0746012,0.209801,-0.0296831,0.220161,0.619203,0.0090039,0.42888,5,0.1,17,0.4,0.142051,-1.92632,0.647055,0.00119433,0.515193,-0.00707358,0.00353158,1.52647,-0.0209808,0.0113461,2.51564,5,0.1,18,0.4,-3.75989,-3.1277,0.646425,0.484055,0.176287,-0.00932217,1.43421,0.522375,-0.0276268,0.0174112,2.51007,5,0.1,19,0.4,-2.35103,5.67965,0.602596,-0.012207,-0.480342,0.186042,-0.0361204,-1.42312,0.551194,0.0199984,2.51006,5,0.1,20,0.4,-2.57657,-0.209327,0.55699,0.506425,0.0945989,0.00798851,1.50049,0.280291,0.023663,0.0108497,2.51251,5,0.1,21,0.4,-4.62671,3.89187,0.546809,-0.00624657,-0.0782788,0.134961,-0.0188351,-0.231147,0.398308,0.0117102,0.210485,5,0.1,22,0.4,-0.28711,3.87272,0.574985,0.0274852,-0.151062,0.00501573,0.0839084,-0.151515,0.0153184,0.00791174,3.65772,5,0.1,23,0.4,-4.08883,4.35141,0.603738,0.0103712,-0.121069,0.20016,0.0309944,-0.357389,0.590712,0.0119176,0.473337,5,0.1,24,0.4,-5.28271,-2.23304,0.518802,0.504673,0.102466,-0.0162765,1.49512,0.303626,-0.0482202,0.0131954,2.51207,5,0.1,25,0.4,-3.49228,-4.06459,0.639652,-0.35308,0.375223,0.00550598,-1.0463,1.11175,0.0163317,0.0117005,2.51005,5,0.1,26,0.4,-1.07514,5.31829,0.622126,-0.473496,-0.202155,-0.0202507,-1.40285,-0.598907,-0.0599921,0.0483909,2.59394,5,0.1,27,0.4,1.58765,-3.43484,0.5756,0.192738,0.167716,0.0152573,0.568807,0.494957,0.0450015,0.00931416,0.565451,5,0.1,28,0.4,-2.45687,4.42481,0.721332,0.0152647,-0.140774,0.16862,0.0451803,-0.415087,0.497609,0.0129968,0.4185,5,0.1,29,0.4,3.77061,-3.93644,0.697109,-0.359482,0.0241995,0.0847772,-0.39959,0.071764,0.251174,0.0406309,3.29907,5,0.1
0,0.5,2.63014,-2.2228,0.583532,-0.190661,0.156555,0.00591679,-0.424147,0.417292,0.013154,0.0179535,0.416005,5,0.1,1,0.5,4.80123,1.17794,0.515169,-0.162279,-0.369667,-0.0227509,-0.360996,-0.822276,-0.0400692,0.0274536,0.836155,5,0.1,2,0.5,0.904906,-2.73632,0.504568,-0.487009,0.268787,-0.0113896,-0.798024,0.492036,-0.00057742,0.0139326,0.95191,5,0.1,3,0.5,-3.30199,-1.55629,0.57424,0.0546604,-0.357367,0.00926061,0.121534,-0.794917,0.020612,0.0170249,0.668607,5,0.1,4,0.5,-3.0948,-3.55796,0.740286,0.627466,-0.0151284,0.219266,1.39573,-0.0337064,0.487726,0.0121583,2.25986,5,0.1,5,0.5,-4.61279,-5.69052,0.648199,0.392009,0.212832,-0.0173301,1.0843,0.614941,-0.0385456,0.0180181,1.56852,5,0.1,6,0.5,5.37778,1.08774,0.570461,-0.423548,-0.337218,0.0106206,-0.94223,-0.750124,0.0236407,0.0329812,1.49918,5,0.1,7,0.5,4.04642,-1.07954,0.554793,-0.56829,0.359002,0.0131984,-1.29698,0.819333,0.0301339,0.034365,2.51009,5,0.1,8,0.5,1.59039,4.60278,0.71287,-0.248279,0.0169531,0.229125,-0.552267,0.0376701,0.509653,0.0114657,0.585026,5,0.1,9,0.5,-1.77769,4.17081,0.550679,0.291523,-0.124592,0.128569,1.42726,-0.348032,-0.0696555,0.016505,2.1111,5,0.1,10,0.5,3.90935,-5.84965,0.544248,-0.665281,-0.000130385,0.0165832,-1.41013,-0.000208616,0.0378452,0.00941116,2.51562,5,0.1,11,0.5,-3.97755,5.41696,0.597147,0.61565,-0.268117,0.0238796,1.40715,-0.612706,-0.0110157,0.0151642,2.51122,5,0.1,12,0.5,-4.43803,-2.96505,0.58847,0.24741,-0.556515,0.00414923,0.55027,-1.30706,0.00920147,0.00867691,2.22474,5,0.1,13,0.5,-2.20769,1.79938,0.510311,0.645426,0.180029,0.027735,1.44492,0.4109,0.0632927,0.00843777,2.51044,5,0.1,14,0.5,1.54404,2.88059,0.619372,-0.0158485,-0.501006,0.316692,-0.0352859,-1.18354,0.704456,0.0285763,2.09452,5,0.1,15,0.5,0.355795,2.31753,0.537467,-0.278568,0.598938,0.125332,-0.635767,1.36693,0.286024,0.0145652,2.51007,5,0.1,16,0.5,-1.61369,-0.119558,0.591931,-0.0130519,0.0969387,0.272624,-0.0290722,0.215632,0.606444,0.0090039,0.42888,5,0.1,17,0.5,0.142189,-1.86719,0.64624,0.00155801,0.66541,-0.0092322,0.00355393,1.40991,-0.0210851,0.0113461,2.51564,5,0.1,18,0.5,-3.70411,-3.10738,0.645351,0.631639,0.23004,-0.0121653,1.44155,0.525057,-0.0277758,0.0174112,2.51007,5,0.1,19,0.5,-2.35243,5.6243,0.624034,-0.0159238,-0.626786,0.242763,-0.0362843,-1.43045,0.554036,0.0199984,2.51006,5,0.1,20,0.5,-2.51837,-0.198426,0.557911,0.656291,0.123442,0.0104236,1.42588,0.281731,0.023786,0.0108497,2.51251,5,0.1,21,0.5,-4.62743,3.88287,0.562333,-0.00814646,-0.101728,0.175374,-0.0182986,-0.226334,0.390112,0.0117102,0.210485,5,0.1,22,0.5,-0.283936,3.85744,0.575564,0.035934,-0.149916,0.00655791,0.0810754,0.132799,0.0147931,0.00791174,3.65772,5,0.1,23,0.5,-4.08763,4.33748,0.626761,0.0135101,-0.157328,0.260093,0.030309,-0.349998,0.578556,0.0119176,0.473337,5,0.1,24,0.5,-5.22469,-2.22123,0.516926,0.654458,0.13371,-0.0212393,1.42905,0.305206,-0.0484772,0.0131954,2.51207,5,0.1,25,0.5,-3.53296,-4.02135,0.640287,-0.460744,0.489621,0.00718599,-1.0516,1.11742,0.0164099,0.0117005,2.51005,5,0.1,26,0.5,-1.12776,5.29417,0.620634,-0.562644,-0.287008,-0.002525,-0.42855,-1.01483,0.364572,0.0483909,2.59394,5,0.1,27,0.5,1.60982,-3.41555,0.577355,0.250449,0.217932,0.0198233,0.55711,0.48472,0.0440814,0.00931416,0.565451,5,0.1,28,0.5,-2.45511,4.40862,0.740728,0.0198446,-0.182898,0.219108,0.044167,-0.406653,0.487372,0.0129968,0.4185,5,0.1,29,0.5,3.73376,-3.93356,0.706586,-0.368023,0.0339881,0.102344,0.170186,0.114858,0.105273,0.0406309,3.29907,5,0.1
0,0.6,2.60911,-2.20513,0.584185,-0.22788,0.195849,0.00707209,-0.305176,0.348568,0.00944734,0.0155426,0.317089,5,0.1,1,0.6,4.78333,1.13718,0.512723,-0.193954,-0.441825,-0.025861,-0.259876,-0.591576,-0.0214279,0.0262553,0.623056,5,0.1,2,0.6,0.852666,-2.70722,0.503447,-0.552632,0.310332,-0.010851,-0.489444,0.322461,0.01055,0.0157063,0.680341,5,0.1,3,0.6,-3.29596,-1.5957,0.575261,0.0653267,-0.427127,0.0110686,0.0874996,-0.571787,0.0148416,0.0110847,0.497759,5,0.1,4,0.6,-3.0256,-3.55962,0.764467,0.749946,-0.018084,0.262067,1.00422,-0.0241995,0.350863,0.0126659,1.70601,5,0.1,5,0.6,-4.56846,-5.66632,0.646288,0.490439,0.268984,-0.0207126,0.843048,0.484228,-0.0277162,0.0164132,1.19662,5,0.1,6,0.6,5.33107,1.05055,0.571632,-0.506222,-0.403044,0.0126958,-0.678062,-0.53972,0.0169873,0.028838,1.11925,5,0.1,7,0.6,3.98356,-1.03982,0.556253,-0.683248,0.431621,0.0158682,-0.953794,0.602484,0.0221729,0.0321233,2.50793,5,0.1,8,0.6,1.56301,4.60465,0.738139,-0.296742,0.0202656,0.273849,-0.397325,0.0269413,0.366658,0.0108432,0.43554,5,0.1,9,0.6,-1.74153,4.15671,0.563084,0.428805,-0.156224,0.118563,1.25772,-0.27132,-0.127614,0.0174228,1.66525,5,0.1,10,0.6,3.83641,-5.84966,0.546082,-0.785893,-0.000154972,0.0199378,-0.958204,0,0.0278354,0.0102478,2.33472,5,0.1,11,0.6,-3.90943,5.3873,0.599451,0.740403,-0.322437,0.0219464,1.03545,-0.451088,-0.0265539,0.0173042,2.25617,5,0.1,12,0.6,-4.41074,-3.02684,0.588927,0.295699,-0.673884,0.00495613,0.396013,-0.988722,0.00664592,0.0086945,1.70195,5,0.1,13,0.6,-2.13646,1.8193,0.513379,0.772357,0.216451,0.0333458,1.04225,0.302136,0.0465214,0.00955794,2.29924,5,0.1,14,0.6,1.54229,2.82492,0.654298,-0.0189424,-0.607538,0.378512,-0.0253916,-0.899792,0.506788,0.0302021,1.58002,5,0.1,15,0.6,0.32498,2.38378,0.551331,-0.334918,0.720096,0.150684,-0.467539,1.00517,0.210315,0.0139531,1.90233,5,0.1,16,0.6,-1.61513,-0.108867,0.621997,-0.0156015,0.115862,0.325842,-0.0209212,0.155121,0.436246,0.00914991,0.319288,5,0.1,17,0.6,0.142361,-1.79424,0.645219,0.00187345,0.785983,-0.0111014,0.0026077,0.957608,-0.0154972,0.0150707,2.33492,5,0.1,18,0.6,-3.63424,-3.08194,0.644005,0.759411,0.276577,-0.014627,1.06001,0.386119,-0.0204146,0.0175035,2.27773,5,0.1,19,0.6,-2.35419,5.55497,0.650889,-0.0191391,-0.75357,0.291869,-0.0267029,-1.0519,0.407428,0.0216398,2.09819,5,0.1,20,0.6,-2.4462,-0.184771,0.559064,0.779766,0.148412,0.0125319,0.996232,0.207186,0.017494,0.0107002,2.35717,5,0.1,21,0.6,-4.62833,3.87165,0.581674,-0.00975132,-0.121593,0.209609,-0.013113,-0.162721,0.280619,0.015093,0.156699,5,0.1,22,0.6,-0.279969,3.84331,0.576288,0.0430211,-0.131482,0.00785142,0.0578761,0.207424,0.01055,0.00807504,3.63381,5,0.1,23,0.6,-4.08614,4.32013,0.655445,0.0161648,-0.188041,0.310864,0.0219345,-0.252008,0.416219,0.0116282,0.352386,5,0.1,24,0.6,-5.15269,-2.20644,0.514577,0.77852,0.16076,-0.0255361,1.00374,0.224471,-0.0356734,0.0175587,2.31558,5,0.1,25,0.6,-3.58393,-3.96719,0.641082,-0.553954,0.588661,0.00864118,-0.773311,0.82159,0.0120401,0.0109433,2.3246,5,0.1,26,0.6,-1.18489,5.26028,0.622566,-0.568339,-0.39053,0.0437647,0.271678,-0.993252,0.522166,0.0485867,2.56869,5,0.1,27,0.6,1.63744,-3.39151,0.579541,0.299338,0.260466,0.0236914,0.400782,0.348806,0.0317097,0.0101414,0.420961,5,0.1,28,0.6,-2.45292,4.38845,0.764892,0.0237226,-0.218582,0.261877,0.0315905,-0.292778,0.350624,0.0121296,0.311571,5,0.1,29,0.6,3.69836,-3.92958,0.717142,-0.335598,0.0455737,0.106834,0.435472,0.110149,-0.0106394,0.0386518,3.37984,5,0.1
0,0.7,2.58483,-2.18376,0.584938,-0.257176,0.231288,0.00797985,-0.263989,0.339419,0.00818446,0.0155426,0.317089,5,0.1,1,0.7,4.76266,1.09009,0.510085,-0.2189,-0.498619,-0.0263882,-0.224769,-0.511825,0.00907853,0.0262553,0.623056,5,0.1,2,0.7,0.795079,-2.67463,0.502428,-0.597119,0.340361,-0.00940971,-0.371102,0.259563,0.0175238,0.0157063,0.680341,5,0.1,3,0.7,-3.289,-1.64123,0.576441,0.0737261,-0.482021,0.0124933,0.075683,-0.494704,0.0128374,0.0110847,0.497759,5,0.1,4,0.7,-2.9463,-3.56155,0.792398,0.828635,-0.0204068,0.295751,0.558048,-0.0209361,0.303566,0.0126659,1.70601,5,0.1,5,0.7,-4.51521,-5.637,0.64408,0.573233,0.316722,-0.023374,0.768334,0.445098,-0.0239909,0.0164132,1.19662,5,0.1,6,0.7,5.27728,1.00756,0.572994,-0.566639,-0.45567,0.0145709,-0.50348,-0.481382,0.0190362,0.028838,1.11925,5,0.1,7,0.7,3.91205,-0.993541,0.557955,-0.73225,0.493985,0.0181629,-0.0697225,0.602458,0.0221692,0.0321233,2.50793,5,0.1,8,0.7,1.53138,4.60681,0.767326,-0.334886,0.0228569,0.309049,-0.343755,0.0234246,0.317231,0.0108432,0.43554,5,0.1,9,0.7,-1.69225,4.13973,0.574259,0.556377,-0.182893,0.104558,1.2311,-0.247806,-0.150606,0.0174228,1.66525,5,0.1,10,0.7,3.7541,-5.84968,0.548217,-0.850505,-0.000157952,0.022731,-0.361443,-5.96046e-05,0.0262707,0.0102478,2.33472,5,0.1,11,0.7,-3.83092,5.35277,0.6015,0.822436,-0.367721,0.0189294,0.593409,-0.426024,-0.0330545,0.0173042,2.25617,5,0.1,12,0.7,-4.37961,-3.0989,0.589441,0.323008,-0.763735,0.00518784,0.15229,-0.768036,-0.00146776,0.0086945,1.70195,5,0.1,13,0.7,-2.05505,1.84248,0.516949,0.84581,0.246775,0.0380156,0.441946,0.285216,0.0439249,0.00955794,2.29924,5,0.1,14,0.7,1.54027,2.75968,0.694639,-0.0213787,-0.695894,0.427165,-0.0219345,-0.816301,0.43847,0.0302021,1.58002,5,0.1,15,0.7,0.289175,2.46036,0.56744,-0.38026,0.806064,0.17108,-0.413227,0.685856,0.185888,0.0139531,1.90233,5,0.1,16,0.7,-1.6168,-0.096519,0.656725,-0.0176094,0.130754,0.367723,-0.01809,0.13421,0.377432,0.00914991,0.319288,5,0.1,17,0.7,0.142562,-1.71192,0.64403,0.00213545,0.850536,-0.0126567,0.00246707,0.360921,-0.0146255,0.0150707,2.33492,5,0.1,18,0.7,-3.55392,-3.05232,0.642439,0.837898,0.315337,-0.0166764,0.511289,0.364617,-0.0192821,0.0175035,2.27773,5,0.1,19,0.7,-2.35624,5.4752,0.682116,-0.0217736,-0.833254,0.332085,-0.0244081,-0.538468,0.372611,0.0216398,2.09819,5,0.1,20,0.7,-2.36431,-0.169005,0.560277,0.84805,0.165657,0.0106462,0.392139,0.13249,-0.0482239,0.0107002,2.35717,5,0.1,21,0.7,-4.62937,3.85869,0.604014,-0.0110067,-0.137215,0.236549,-0.0112951,-0.140801,0.242796,0.015093,0.156699,5,0.1,22,0.7,-0.275386,3.83146,0.577125,0.0484787,-0.104509,0.00884617,0.0483282,0.261128,0.00881031,0.00807504,3.63381,5,0.1,23,0.7,-4.08442,4.30009,0.688577,0.0182666,-0.212229,0.350822,0.0189245,-0.217944,0.360105,0.0116282,0.352386,5,0.1,24,0.7,-5.07086,-2.18923,0.511902,0.847942,0.183287,-0.0274276,0.405341,0.211865,-0.00365078,0.0175587,2.31558,5,0.1,25,0.7,-3.64232,-3.90458,0.642031,-0.60535,0.659339,0.0105303,-0.26606,0.56614,0.0234619,0.0109433,2.3246,5,0.1,26,0.7,-1.24165,5.21674,0.629023,-0.577189,-0.474928,0.0804937,-0.353388,-0.679404,0.228155,0.0485867,2.56869,5,0.1,27,0.7,1.66935,-3.36375,0.582066,0.337814,0.29395,0.0267359,0.346757,0.301734,0.0274368,0.0101414,0.420961,5,0.1,28,0.7,-2.4504,4.36516,0.792802,0.0267558,-0.246692,0.295538,0.0273287,-0.25332,0.303358,0.0121296,0.311571,5,0.1,29,0.7,3.66748,-3.92444,0.727656,-0.279259,0.0574481,0.102371,0.604853,0.119939,-0.075236,0.0386518,3.37984,5,0.1
0,0.8,2.55797,-2.15909,0.585772,-0.277871,0.260192,0.00862181,-0.13864,0.224471,0.00432134,0.0107369,0.238176,5,0.1,1,0.8,4.7398,1.03801,0.50753,-0.236523,-0.538746,-0.0243828,-0.118017,-0.268817,0.0294149,0.027662,0.44056,5,0.1,2,0.8,0.733902,-2.63953,0.501581,-0.622015,0.35916,-0.00748336,-0.107706,0.103712,0.0204146,0.0137311,0.465407,5,0.1,3,0.8,-3.2813,-1.69156,0.577746,0.0796616,-0.520808,0.0135005,0.0396967,-0.259817,0.00673532,0.0105121,0.351446,5,0.1,4,0.8,-2.86143,-3.56368,0.823284,0.861102,-0.0220418,0.319551,0.0984669,-0.0110865,0.159413,0.0110231,1.55352,5,0.1,5,0.8,-4.45447,-5.60334,0.641639,0.636601,0.353694,-0.025256,0.468254,0.277519,-0.0125766,0.0165257,0.581663,5,0.1,6,0.8,5.21856,0.959895,0.574539,-0.602531,-0.494033,0.0162497,-0.197172,-0.264466,0.0135303,0.0323766,0.864044,5,0.1,7,0.8,3.83963,-0.941415,0.559871,-0.705439,0.544912,0.0200361,0.566959,0.386417,0.0142157,0.031091,2.48761,5,0.1,8,0.8,1.49641,4.6092,0.7996,-0.361839,0.0246882,0.333922,-0.180483,0.0123978,0.166565,0.010777,0.432756,5,0.1,9,0.8,-1.63092,4.12034,0.583937,0.664359,-0.203359,0.088799,0.884533,-0.151873,-0.162899,0.0162825,1.23713,5,0.1,10,0.8,3.66797,-5.84969,0.550607,-0.866026,-0.000166893,0.0248954,0,0.000238419,0.0157356,0.0100482,2.27145,5,0.1,11,0.8,-3.74648,5.3141,0.603222,0.858837,-0.40282,0.0154704,0.143766,-0.256062,-0.0355542,0.014748,2.15563,5,0.1,12,0.8,-4.34693,-3.17848,0.589943,0.326729,-0.820851,0.00476092,-0.0736713,-0.34821,-0.00658631,0.0101674,1.23775,5,0.1,13,0.8,-1.96909,1.86842,0.520946,0.866026,0.270259,0.0416309,0,0.171185,0.0264049,0.00939908,1.75937,5,0.1,14,0.8,1.53804,2.68649,0.739249,-0.0230998,-0.762194,0.461541,-0.0115037,-0.474572,0.230283,0.0303921,1.12881,5,0.1,15,0.8,0.249347,2.5437,0.585359,-0.413182,0.853437,0.18589,-0.227474,0.25177,0.102341,0.0139831,1.38956,5,0.1,16,0.8,-1.61864,-0.0828642,0.695127,-0.0190288,0.141276,0.397314,-0.00953674,0.0704747,0.198185,0.0109958,0.225434,5,0.1,17,0.8,0.142786,-1.62579,0.642699,0.00233836,0.866026,-0.0138596,0.00149012,0,-0.00879169,0.0134023,2.27177,5,0.1,18,0.8,-3.46842,-3.01916,0.640686,0.86416,0.345361,-0.0182644,0.0373125,0.218987,-0.0115931,0.0167947,2.18329,5,0.1,19,0.8,-2.35853,5.39001,0.716967,-0.0237525,-0.86267,0.362295,-0.0140667,-0.0669956,0.214905,0.0202112,1.56965,5,0.1,20,0.8,-2.27835,-0.151934,0.56104,0.863725,0.174094,0.00413805,-0.0460148,0.0332966,-0.0764132,0.00997406,2.46829,5,0.1,21,0.8,-4.63052,3.84436,0.628717,-0.0118852,-0.148255,0.255585,-0.00572205,-0.0739098,0.127524,0.0123514,0.482283,5,0.1,22,0.8,-0.270332,3.82198,0.578047,0.052195,-0.0895023,0.00952333,0.0240058,0.00739098,0.00438094,0.00696769,3.44089,5,0.1,23,0.8,-4.08251,4.27793,0.725214,0.0197411,-0.229323,0.379054,0.0100136,-0.114202,0.189096,0.0114809,0.248796,5,0.1,24,0.8,-4.98483,-2.16995,0.509183,0.86602,0.200731,-0.0265524,0.000238419,0.127196,0.0197887,0.0146595,1.90028,5,0.1,25,0.8,-3.70343,-3.83641,0.643205,-0.609547,0.697744,0.0129372,0.169635,0.186443,0.022918,0.00960632,2.33672,5,0.1,26,0.8,-1.30152,5.16647,0.637836,-0.622272,-0.524092,0.0923306,-0.476062,-0.295401,0.0221729,0.0374564,2.32822,5,0.1,27,0.8,1.70463,-3.33306,0.584858,0.365001,0.317603,0.0288859,0.182092,0.158429,0.0144243,0.00949616,0.297215,5,0.1,28,0.8,-2.4476,4.33939,0.823666,0.0289023,-0.266552,0.319323,0.0141859,-0.133038,0.159293,0.0106405,0.219987,5,0.1,29,0.8,3.64232,-3.91813,0.737434,-0.227576,0.068295,0.0924349,0.385642,0.0917912,-0.120431,0.0359355,3.31499,5,0.1
0,0.9,2.52952,-2.13225,0.586654,-0.290433,0.273589,0.00901353,-0.0992715,0.0453591,0.00309944,0.0107369,0.238176,5,0.1,1,0.9,4.71559,0.982857,0.505263,-0.247215,-0.563104,-0.020748,-0.0844598,-0.192545,0.0417903,0.027662,0.44056,5,0.1,2,0.9,0.671234,-2.60313,0.500935,-0.630034,0.367914,-0.00544479,-0.0290573,0.0564903,0.019934,0.0137311,0.465407,5,0.1,3,0.9,-3.27314,-1.74488,0.579128,0.0832595,-0.544351,0.0141108,0.0284314,-0.186101,0.00482798,0.0105121,0.351446,5,0.1,4,0.9,-2.77502,-3.56594,0.855999,0.865566,-0.0230454,0.333996,0.00621378,-0.00792742,0.114191,0.0110231,1.55352,5,0.1,5,0.9,-4.3887,-5.56707,0.639054,0.675882,0.367088,-0.0263962,0.292182,-0.00163913,-0.00901893,0.0165257,0.581663,5,0.1,6,0.9,5.15778,0.909875,0.576257,-0.608484,-0.499759,0.0182889,0.0793338,0.132535,0.0246093,0.0323766,0.864044,5,0.1,7,0.9,3.77285,-0.884936,0.561948,-0.622205,0.584269,0.0214837,1.04821,0.363678,0.0133775,0.031091,2.48761,5,0.1,8,0.9,1.45921,4.61173,0.833787,-0.382639,0.025814,0.349015,-0.208311,0.00891089,0.11931,0.010777,0.432756,5,0.1,9,0.9,-1.56014,4.09926,0.592007,0.749262,-0.217552,0.0726802,0.764869,-0.120699,-0.158355,0.0162825,1.23713,5,0.1,10,0.9,3.58136,-5.84971,0.553178,-0.866026,-0.000150502,0.0265154,0,5.96046e-05,0.0150017,0.0100482,2.27145,5,0.1,11,0.9,-3.66016,5.27248,0.604593,0.865576,-0.429317,0.0119672,0.0179708,-0.246644,-0.0341274,0.014748,2.15563,5,0.1,12,0.9,-4.31455,-3.26223,0.590388,0.321292,-0.852531,0.00414997,-0.050813,-0.251755,-0.0057295,0.0101674,1.23775,5,0.1,13,0.9,-1.88249,1.89629,0.525239,0.865983,0.28654,0.0441417,-0.00172108,0.139356,0.0214949,0.00939908,1.75937,5,0.1,14,0.9,1.53568,2.60797,0.786501,-0.0241412,-0.806434,0.482408,-0.00823289,-0.369877,0.164948,0.0303921,1.12881,5,0.1,15,0.9,0.206935,2.62981,0.604439,-0.434079,0.864908,0.195292,-0.169801,0.0182539,0.076402,0.0139831,1.38956,5,0.1,16,0.9,-1.62058,-0.0684004,0.735804,-0.0198923,0.147662,0.415272,-0.00682473,0.0504814,0.141952,0.0109958,0.225434,5,0.1,17,0.9,0.143028,-1.53918,0.641268,0.00249203,0.866026,-0.014766,0.00142492,0,-0.00840798,0.0134023,2.27177,5,0.1,18,0.9,-3.38189,-2.98349,0.638799,0.865909,0.367995,-0.0194625,0.00466406,0.210404,-0.0111349,0.0167947,2.18329,5,0.1,19,0.9,-2.36097,5.30354,0.754242,-0.0250686,-0.865621,0.382418,-0.011012,-0.000745058,0.168379,0.0202112,1.56965,5,0.1,20,0.9,-2.19276,-0.134544,0.560753,0.842808,0.171949,-0.0124953,-0.371069,-0.0724401,-0.233989,0.00997406,2.46829,5,0.1,21,0.9,-4.63221,3.82887,0.654257,-0.0257388,-0.163843,0.24936,-0.24116,-0.211,-0.224758,0.0123514,0.482283,5,0.1,22,0.9,-0.264947,3.81275,0.578961,0.055818,-0.101098,0.00824453,0.0427589,-0.335589,-0.0266843,0.00696769,3.44089,5,0.1,23,0.9,-4.08049,4.25445,0.764021,0.0206456,-0.239672,0.396189,0.00715256,-0.0817776,0.135448,0.0114809,0.248796,5,0.1,24,0.9,-4.89822,-2.14925,0.506661,0.866026,0.213088,-0.0236037,0,0.108168,0.0375099,0.0146595,1.90028,5,0.1,25,0.9,-3.7625,-3.76534,0.644599,-0.563738,0.725634,0.0148118,0.661775,0.315368,0.014212,0.00960632,2.33672,5,0.1,26,0.9,-1.3668,5.11278,0.646933,-0.687749,-0.547421,0.0874117,-0.752136,-0.153363,-0.1093,0.0374564,2.32822,5,0.1,27,0.9,1.74199,-3.30054,0.587815,0.381501,0.331957,0.030193,0.13043,0.113443,0.0103302,0.00949616,0.297215,5,0.1,28,0.9,-2.44464,4.3121,0.856358,0.0301894,-0.278608,0.333757,0.0101775,-0.095278,0.114102,0.0106405,0.219987,5,0.1,29,0.9,3.62116,-3.91083,0.74604,-0.202056,0.0775609,0.0793919,0.0195354,0.0875145,-0.138223,0.0359355,3.31499,5,0.1
0,1,2.50014,-2.10495,0.587567,-0.29552,0.269765,0.00917464,0.00655651,-0.118613,-0.000208616,0.0114963,0.197332,5,0.1,1,1,4.69057,0.925882,0.503407,-0.251544,-0.572968,-0.0162929,0.00548363,0.0123382,0.0460744,0.0213772,0.376849,5,0.1,2,1,0.608372,-2.56624,0.500487,-0.623927,0.367981,-0.00356734,0.166535,-0.0647306,0.0172853,0.013322,0.310094,5,0.1,3,1,-3.26472,-1.79996,0.580556,0.0847101,-0.553882,0.0143573,-0.00166893,0.0119209,-0.000298023,0.0114999,0.238996,5,0.1,4,1,-2.68852,-3.56827,0.889793,0.863588,-0.0234485,0.339846,-0.0487566,0.000357628,-0.00736117,0.00993782,1.16131,5,0.1,5,1,-4.32011,-5.53077,0.636383,0.690949,0.355017,-0.0268579,-0.00691414,-0.231266,0.000566244,0.0157099,0.402316,5,0.1,6,1,5.09779,0.861096,0.57821,-0.586772,-0.470881,0.0207111,0.353098,0.428915,0.0219047,0.0284578,0.717102,5,0.1,7,1,3.71633,-0.824977,0.564153,-0.504726,0.611389,0.0224814,1.26159,0.153214,0.00563264,0.0295761,2.27574,5,0.1,8,1,1.42004,4.61434,0.8691,-0.398865,0.0262737,0.355126,-0.0969768,-0.000238419,-0.0076592,0.00873394,0.308422,5,0.1,9,1,-1.48191,4.07703,0.598499,0.809172,-0.225627,0.0573307,0.400364,-0.0331402,-0.14776,0.0138382,0.872321,5,0.1,10,1,3.49476,-5.84972,0.555893,-0.866026,-0.00013113,0.0276163,0,-0.000238419,0.00581145,0.0104721,1.85624,5,0.1,11,1,-3.57357,5.22852,0.605624,0.866026,-0.447547,0.00870973,0,-0.0989437,-0.030756,0.0142023,2.13949,5,0.1,12,1,-4.28274,-3.34837,0.590775,0.313914,-0.866026,0.00359863,-0.107765,0,-0.00536442,0.00884796,0.891087,5,0.1,13,1,-1.79591,1.92549,0.529737,0.865334,0.295612,0.0455409,-0.0137091,0.0318885,0.00491738,0.00866989,1.3409,5,0.1,14,1,1.53323,2.52592,0.835312,-0.0245601,-0.829446,0.490856,0.000536442,-0.0635386,-0.0105798,0.0276497,0.774492,5,0.1,15,1,0.162912,2.71619,0.624246,-0.443703,0.860739,0.199622,-0.00895619,-0.105739,0.00405312,0.0114528,0.998977,5,0.1,16,1,-1.6226,-0.0534599,0.777821,-0.0202417,0.150248,0.422543,0.000417233,-0.00324458,-0.00914931,0.00871333,0.153303,5,0.1,17,1,0.143283,-1.45258,0.639756,0.00259727,0.866026,-0.0153854,0.000558794,-5.96046e-05,-0.00327826,0.0132415,2.27176,5,0.1,18,1,-3.29528,-2.94581,0.636806,0.866026,0.383514,-0.020285,0,0.0836849,-0.00441074,0.0153806,2.16745,5,0.1,19,1,-2.36352,5.21706,0.793121,-0.0257432,-0.862932,0.392771,-0.00166893,0.061512,0.025779,0.0199773,1.16731,5,0.1,20,1,-2.11085,-0.117859,0.558224,0.790119,0.160356,-0.0387147,-0.678182,-0.155687,-0.273257,0.00880494,2.66676,5,0.1,21,1,-4.63617,3.81138,0.677675,-0.0547528,-0.185764,0.215626,-0.315428,-0.207186,-0.427365,0.0123791,0.184561,5,0.1,22,1,-0.259159,3.8,0.579623,0.0597633,-0.16287,0.00477433,0.0320077,-0.865936,-0.0401735,0.00844677,3.03911,5,0.1,23,1,-4.0784,4.2302,0.804108,0.0210166,-0.243855,0.403126,-0.000476837,0.00548363,-0.00867248,0.0103247,0.169192,5,0.1,24,1,-4.81162,-2.12751,0.504506,0.866032,0.220394,-0.0193581,-0.000238419,0.0298023,0.0460744,0.0125201,1.47344,5,0.1,25,1,-3.81529,-3.69137,0.646135,-0.490761,0.751203,0.0157282,0.746846,0.156164,0.00393391,0.0107997,2.38705,5,0.1,26,1,-1.43924,5.05762,0.654987,-0.758627,-0.551891,0.072515,-0.605881,0.0751019,-0.17941,0.0369778,2.17416,5,0.1,27,1,1.78059,-3.26695,0.59087,0.388181,0.337768,0.0307217,-0.00834465,-0.00739098,-0.000655651,0.00910365,0.202114,5,0.1,28,1,-2.44159,4.28391,0.890128,0.0307024,-0.283492,0.339602,-0.000596046,0.00596046,-0.00736117,0.0114069,0.233278,5,0.1,29,1,3.6,-3.90268,0.753274,-0.231135,0.0847697,0.0651941,-0.570297,0.0526905,-0.143856,0.0361199,2.85095,5,0.1
0,1.1,2.47063,-2.07892,0.588483,-0.294209,0.247731,0.00913385,0.0304729,-0.307009,-0.000938773,0.0114963,0.197332,5,0.1,1,1.1,4.6653,0.868672,0.502007,-0.25488,-0.570458,-0.0117542,-0.0531673,0.0588,0.0438765,0.0213772,0.376849,5,0.1,2,1.1,0.546817,-2.52977,0.50021,-0.606608,0.360958,-0.00202851,0.199344,-0.0879616,0.0133254,0.013322,0.310094,5,0.1,3,1.1,-3.25626,-1.85527,0.581989,0.0843514,-0.551457,0.0142953,-0.00859797,0.0568405,-0.00146404,0.0114999,0.238996,5,0.1,4,1.1,-2.60219,-3.57061,0.923726,0.863978,-0.0233568,0.338355,0.0151247,0.00232458,-0.0349022,0.00993782,1.16131,5,0.1,5,1.1,-4.25115,-5.49685,0.633701,0.686606,0.31967,-0.0267416,-0.100762,-0.456035,0.00274181,0.0157099,0.402316,5,0.1,6,1.1,5.04112,0.816685,0.58041,-0.544231,-0.412867,0.0234357,0.495017,0.697736,0.0298209,0.0284578,0.717102,5,0.1,7,1.1,3.67235,-0.763066,0.566429,-0.373995,0.626135,0.0230235,1.30996,0.112243,0.0041239,0.0295761,2.27574,5,0.1,8,1.1,1.37963,4.61696,0.904559,-0.409259,0.0261858,0.35357,-0.0893772,-0.00244379,-0.036452,0.00873394,0.308422,5,0.1,9,1.1,-1.39908,4.05432,0.603518,0.845436,-0.228261,0.043317,0.286236,-0.0104606,-0.131872,0.0138382,0.872321,5,0.1,10,1.1,3.40816,-5.84974,0.558685,-0.866026,-0.000151247,0.0281974,0,-0.000149012,0.00445917,0.0104721,1.85624,5,0.1,11,1.1,-3.48696,5.18317,0.606348,0.866026,-0.459654,0.00583231,0,-0.116199,-0.0266135,0.0142023,2.13949,5,0.1,12,1.1,-4.25171,-3.43495,0.591116,0.307797,-0.865084,0.0032966,-0.0346899,0.0340492,-0.00118092,0.00884796,0.891087,5,0.1,13,1.1,-1.70939,1.9552,0.534314,0.865357,0.298177,0.0459363,-0.00264496,0.00728667,0.00112876,0.00866989,1.3409,5,0.1,14,1.1,1.53078,2.4427,0.884323,-0.0244509,-0.833768,0.488706,0.0025332,0.00965595,-0.0503808,0.0276497,0.774492,5,0.1,15,1.1,0.118516,2.80194,0.644219,-0.443572,0.855107,0.199565,0.0283285,-0.0507981,-0.0127293,0.0114528,0.998977,5,0.1,16,1.1,-1.62462,-0.0384577,0.820011,-0.0201546,0.14959,0.420689,0.00207126,-0.0154248,-0.0433959,0.00871333,0.153303,5,0.1,17,1.1,0.143546,-1.36598,0.638198,0.00266472,0.866025,-0.0157823,0.000637956,1.49012e-05,-0.00374392,0.0132415,2.27176,5,0.1,18,1.1,-3.20868,-2.90688,0.634754,0.866026,0.395848,-0.0207279,0,0.135288,-0.00344962,0.0153806,2.16745,5,0.1,19,1.1,-2.3661,5.13081,0.832511,-0.0258531,-0.863323,0.394481,0.000491738,-0.0226796,-0.00706688,0.0199773,1.16731,5,0.1,20,1.1,-2.03515,-0.102856,0.553061,0.724449,0.137549,-0.0636758,-0.651501,-0.286124,-0.220776,0.00880494,2.66676,5,0.1,21,1.1,-4.64289,3.79207,0.697728,-0.0767,-0.197741,0.190795,-0.132412,-0.0371635,-0.104621,0.0123791,0.184561,5,0.1,22,1.1,-0.253007,3.77819,0.579877,0.063317,-0.282544,0.000128429,0.0347272,-1.41925,-0.0502504,0.00844677,3.03911,5,0.1,23,1.1,-4.0763,4.20585,0.84436,0.0209212,-0.242768,0.401361,-0.00220537,0.0251532,-0.0413693,0.0103247,0.169192,5,0.1,24,1.1,-4.72502,-2.10542,0.502805,0.865842,0.22024,-0.0146402,-0.00724196,-0.0361651,0.0472069,0.0125201,1.47344,5,0.1,25,1.1,-3.8606,-3.61518,0.647723,-0.417707,0.774169,0.0159721,0.613242,0.250071,0.000480562,0.0107997,2.38705,5,0.1,26,1.1,-1.5181,5.00279,0.661257,-0.817047,-0.54426,0.052242,-0.517003,0.098139,-0.218153,0.0369778,2.17416,5,0.1,27,1.1,1.81935,-3.23323,0.593938,0.386483,0.336278,0.0305877,-0.0398383,-0.0347495,-0.00314787,0.00910365,0.202114,5,0.1,28,1.1,-2.43852,4.25545,0.924037,0.0305731,-0.286707,0.338111,-0.00311434,-0.0500679,-0.0348836,0.0114069,0.233278,5,0.1,29,1.1,3.57276,-3.89395,0.759079,-0.323811,0.0898026,0.0510086,-1.17587,0.0432134,-0.138413,0.0361199,2.85095,5,0.1
0,1.2,2.44147,-2.05588,0.589388,-0.287634,0.211126,0.00893027,0.108123,-0.412345,-0.00336766,0.0129066,0.170277,5,0.1,1,1.2,4.63958,0.812136,0.501042,-0.258887,-0.557733,-0.00765473,-0.0135899,0.20951,0.0374913,0.022919,0.260904,5,0.1,2,1.2,0.487337,-2.49423,0.500067,-0.580832,0.348365,-0.000923872,0.328944,-0.1719,0.00879169,0.0106062,0.322577,5,0.1,3,1.2,-3.2479,-1.90992,0.583406,0.0824809,-0.539154,0.0139773,-0.0309944,0.202477,-0.00524521,0.0102464,0.158917,5,0.1,4,1.2,-2.51588,-3.57293,0.957259,0.859886,-0.0228405,0.330804,-0.122666,0.00858307,-0.124246,0.0099397,0.840543,5,0.1,5,1.2,-4.18329,-5.4674,0.631051,0.667393,0.267398,-0.0261471,-0.296593,-0.57292,0.00983477,0.0142325,0.128352,5,0.1,6,1.2,4.98939,0.779104,0.582897,-0.488424,-0.337239,0.0261977,0.617266,0.789404,0.023365,0.0306627,0.61855,5,0.1,7,1.2,3.6413,-0.700156,0.568743,-0.249916,0.628905,0.0231251,1.14298,-0.0767708,-0.00283122,0.0294781,3.40974,5,0.1,8,1.2,1.33841,4.61956,0.9396,-0.413117,0.0256181,0.345682,0.0270009,-0.00929832,-0.129819,0.0108423,0.213326,5,0.1,9,1.2,-1.31356,4.03154,0.607221,0.859994,-0.2262,0.031063,-0.020802,0.0572205,-0.112712,0.0120937,0.592763,5,0.1,10,1.2,3.32156,-5.84975,0.561515,-0.866026,-0.000166893,0.0282809,0,-0.000238419,-0.00372529,0.00905169,1.44515,5,0.1,11,1.2,-3.40036,5.13678,0.606806,0.866026,-0.466204,0.00341684,0,0.00405312,-0.0215769,0.0173952,2.13571,5,0.1,12,1.2,-4.22112,-3.52106,0.591444,0.303507,-0.85386,0.00327528,-0.0655651,0.228643,0.000357628,0.00785753,0.833901,5,0.1,13,1.2,-1.62297,1.98493,0.538895,0.861523,0.295052,0.0454545,-0.090003,-0.0778437,-0.0119805,0.0105045,0.992612,5,0.1,14,1.2,1.52836,2.3597,0.932757,-0.0239044,-0.822115,0.477803,0.0090003,0.244975,-0.17947,0.0273424,0.518018,5,0.1,15,1.2,0.0744737,2.88699,0.664034,-0.435261,0.843126,0.195827,0.148916,-0.219226,-0.0669658,0.0137813,0.588854,5,0.1,16,1.2,-1.62662,-0.0236325,0.861704,-0.0197053,0.146252,0.411302,0.00745058,-0.0549388,-0.154525,0.00874942,0.172988,5,0.1,17,1.2,0.143815,-1.27938,0.636606,0.00269897,0.866026,-0.0159815,-6.70552e-05,-5.96046e-05,0.000417233,0.0127421,2.27175,5,0.1,18,1.2,-3.12208,-2.86672,0.632673,0.866026,0.405836,-0.0208065,0,0.0447035,0.002563,0.0158375,2.16073,5,0.1,19,1.2,-2.36867,5.04454,0.871767,-0.025481,-0.859642,0.388785,0.0077486,0.127077,-0.117123,0.0204159,0.838238,5,0.1,20,1.2,-1.96602,-0.0906487,0.545711,0.657123,0.105715,-0.0820279,-0.7056,-0.339024,-0.142962,0.0102175,2.72073,5,0.1,21,1.2,-4.65098,3.77235,0.716577,-0.0829101,-0.19418,0.188419,0.000476837,0.103474,0.0296533,0.013432,0.122404,5,0.1,22,1.2,-0.246526,3.74266,0.579638,0.0659712,-0.427735,-0.00484139,0.0153109,-1.40285,-0.0472665,0.00864262,2.86081,5,0.1,23,1.2,-4.07423,4.18179,0.884137,0.0204563,-0.237334,0.392407,-0.00786781,0.0889301,-0.147372,0.0110841,0.112505,5,0.1,24,1.2,-4.63853,-2.08371,0.501571,0.863111,0.212675,-0.0101,-0.0581741,-0.116706,0.0428259,0.0133508,1.12046,5,0.1,25,1.2,-3.9,-3.53671,0.649314,-0.37744,0.792146,0.0157505,0.200033,0.0720024,-0.0051558,0.00697071,1.08143,5,0.1,26,1.2,-1.60195,4.94903,0.665381,-0.855067,-0.528812,0.0302806,-0.219107,0.223875,-0.214964,0.0376977,2.17683,5,0.1,27,1.2,1.85766,-3.1999,0.596969,0.377864,0.328767,0.0299051,-0.141978,-0.12362,-0.0112355,0.00838331,0.134393,5,0.1,28,1.2,-2.43549,4.22657,0.957545,0.0298977,-0.290012,0.330566,-0.0113249,-0.00214577,-0.124156,0.0107979,0.16541,5,0.1,29,1.2,3.53422,-3.8848,0.763507,-0.447452,0.0926197,0.037764,-1.21582,0.00977516,-0.125408,0.0350121,2.29155,5,0.1
0,1.3,2.41324,-2.03692,0.590264,-0.276947,0.167502,0.00859778,0.114545,-0.449762,-0.00355393,0.0129066,0.170277,5,0.1,1,1.3,4.61355,0.757387,0.500449,-0.261898,-0.537021,-0.00433549,-0.0315607,0.22205,0.0285804,0.022919,0.260904,5,0.1,2,1.3,0.430692,-2.46023,0.50001,-0.553462,0.331632,-0.000265986,0.244651,-0.172958,0.00460446,0.0106062,0.322577,5,0.1,3,1.3,-3.2398,-1.96284,0.584778,0.0794161,-0.519136,0.0134588,-0.0328571,0.214629,-0.00556186,0.0102464,0.158917,5,0.1,4,1.3,-2.43031,-3.57517,0.989732,0.85243,-0.0219908,0.318522,-0.069499,0.00913441,-0.131678,0.0099397,0.840543,5,0.1,5,1.3,-4.11819,-5.4436,0.628484,0.632812,0.208008,-0.0251753,-0.402689,-0.601828,0.0104159,0.0142325,0.128352,5,0.1,6,1.3,4.9434,0.749383,0.585622,-0.433368,-0.257421,0.0281407,0.499398,0.777379,0.0145137,0.0306627,0.61855,5,0.1,7,1.3,3.62185,-0.637699,0.571039,-0.142509,0.619217,0.022768,0.94071,-0.136595,-0.00502914,0.0294781,3.40974,5,0.1,8,1.3,1.29728,4.62208,0.973533,-0.408858,0.0246935,0.332848,0.0712201,-0.00998378,-0.137601,0.0108423,0.213326,5,0.1,9,1.3,-1.2277,4.0092,0.609793,0.856018,-0.220364,0.0206675,-0.0901222,0.0669658,-0.0948235,0.0120937,0.592763,5,0.1,10,1.3,3.23496,-5.84977,0.564326,-0.865858,-0.000186265,0.0279179,0.00670552,-0.000119209,-0.00462681,0.00905169,1.44515,5,0.1,11,1.3,-3.31376,5.09004,0.607046,0.866026,-0.469183,0.00146208,0,-0.0365674,-0.0174232,0.0173952,2.13571,5,0.1,12,1.3,-4.19101,-3.60555,0.591777,0.299324,-0.837246,0.00341674,-0.0340939,0.146225,0.00208244,0.00785753,0.833901,5,0.1,13,1.3,-1.537,2.01405,0.543382,0.859393,0.287262,0.0442553,-0.00131875,-0.0878796,-0.0135377,0.0105045,0.992612,5,0.1,14,1.3,1.52601,2.2787,0.979659,-0.0230145,-0.797598,0.460061,0.00953674,0.272155,-0.190221,0.0273424,0.518018,5,0.1,15,1.3,0.032263,2.96949,0.683616,-0.403836,0.800186,0.198462,0.45642,-0.621408,0.0928305,0.0137813,0.588854,5,0.1,16,1.3,-1.62856,-0.00918981,0.902321,-0.0192987,0.143266,0.402903,0.00203401,-0.0148463,-0.0417717,0.00874942,0.172988,5,0.1,17,1.3,0.144085,-1.19277,0.635006,0.00271003,0.866025,-0.0160449,0.000136904,1.49012e-05,-0.000793487,0.0127421,2.27175,5,0.1,18,1.3,-3.03548,-2.82577,0.630601,0.866026,0.413927,-0.02065,0,0.0904799,0.00158697,0.0158375,2.16073,5,0.1,19,1.3,-2.37118,4.95903,0.910072,-0.0247099,-0.851219,0.377112,0.00852346,0.0831187,-0.129052,0.0204159,0.838238,5,0.1,20,1.3,-1.90295,-0.0818029,0.536935,0.611807,0.0711913,-0.0920162,-0.256762,-0.340032,-0.0543781,0.0102175,2.72073,5,0.1,21,1.3,-4.65912,3.75371,0.73581,-0.0783324,-0.176505,0.198052,0.0844598,0.238672,0.139073,0.013432,0.122404,5,0.1,22,1.3,-0.240597,3.69367,0.578611,0.0462746,-0.54379,-0.0182365,-0.365349,-0.908822,-0.199642,0.00864262,2.86081,5,0.1,23,1.3,-4.07222,4.15849,0.922657,0.0196792,-0.228538,0.377838,-0.00825524,0.0943244,-0.156213,0.0110841,0.112505,5,0.1,24,1.3,-4.55227,-2.06326,0.500763,0.863503,0.194131,-0.00620997,0.0215173,-0.244111,0.0345595,0.0133508,1.12046,5,0.1,25,1.3,-3.93528,-3.45872,0.651002,-0.315777,0.753511,0.0191679,0.949591,-0.778258,0.0641942,0.00697071,1.08143,5,0.1,26,1.3,-1.68812,4.89726,0.667147,-0.86454,-0.506344,0.00360608,0.00460446,0.240415,-0.301369,0.0376977,2.17683,5,0.1,27,1.3,1.89475,-3.16763,0.599905,0.363829,0.316548,0.0287946,-0.150457,-0.130981,-0.011906,0.00838331,0.134393,5,0.1,28,1.3,-2.43256,4.19749,0.989995,0.0287797,-0.291886,0.318292,-0.0119656,-0.0193417,-0.131596,0.0107979,0.16541,5,0.1,29,1.3,3.48298,-3.87549,0.766678,-0.579609,0.0934165,0.0258983,-1.34575,0.00233948,-0.110958,0.0350121,2.29155,5,0.1
0,1.4,2.38618,-2.02241,0.591104,-0.263232,0.122994,0.0081718,0.165462,-0.432253,-0.005126,0.00939362,0.29784,5,0.1,1,1.4,4.58728,0.704931,0.500142,-0.262642,-0.510442,-0.00197142,0.0271797,0.320971,0.0187159,0.0218158,0.177815,5,0.1,2,1.4,0.376605,-2.428,0.500002,-0.527429,0.312084,4.02331e-05,0.294566,-0.224829,0.00178814,0.0123042,0.225946,5,0.1,3,1.4,-3.23204,-2.01355,0.586093,0.0754833,-0.493449,0.0127926,-0.0475645,0.310421,-0.00804663,0.0103485,0.137071,5,0.1,4,1.4,-2.34562,-3.57732,1.02085,0.838691,-0.0208974,0.302759,-0.2352,0.013113,-0.190377,0.00991726,0.590067,5,0.1,5,1.4,-4.05715,-5.42577,0.626025,0.585711,0.14931,-0.0239298,-0.542879,-0.562429,0.0150502,0.014639,0.224371,5,0.1,6,1.4,4.90246,0.727321,0.588487,-0.385857,-0.186297,0.0289425,0.462055,0.629306,0.00089407,0.0269566,0.538215,5,0.1,7,1.4,3.61158,-0.576689,0.573282,-0.0708222,0.598364,0.0220001,0.467181,-0.293195,-0.0107586,0.0276393,3.50751,5,0.1,8,1.4,1.25691,4.62449,1.00605,-0.396731,0.0234842,0.316378,0.179708,-0.0145435,-0.19896,0.00892648,0.166807,5,0.1,9,1.4,-1.14287,3.98757,0.611417,0.836757,-0.211573,0.0121549,-0.315726,0.113726,-0.0752807,0.0152704,0.716398,5,0.1,10,1.4,3.14846,-5.84979,0.567086,-0.863343,-0.000190735,0.0271723,0.0536442,-0.000238419,-0.0110269,0.00781658,1.09248,5,0.1,11,1.4,-3.22715,5.04306,0.607113,0.866026,-0.468898,-5.21541e-05,0,0.0607967,-0.0128448,0.0148018,2.13729,5,0.1,12,1.4,-4.1613,-3.68839,0.592129,0.293982,-0.81737,0.00362545,-0.0844002,0.280857,0.00181794,0.00876924,0.623129,5,0.1,13,1.4,-1.45125,2.04226,0.547727,0.852954,0.27582,0.0424936,-0.161707,-0.147581,-0.0227392,0.00790349,0.708488,5,0.1,14,1.4,1.52376,2.20052,1.0246,-0.0218749,-0.763243,0.437292,0.0138283,0.432968,-0.274956,0.0264931,0.342072,5,0.1,15,1.4,-0.00549058,3.04586,0.704009,-0.348255,0.722402,0.209691,0.635585,-0.916958,0.11161,0.0107443,0.366714,5,0.1,16,1.4,-1.63048,0.0050611,0.942398,-0.0190645,0.141548,0.39807,0.00363588,-0.0267941,-0.0753701,0.0136324,0.101269,5,0.1,17,1.4,0.144356,-1.10617,0.633402,0.00270046,0.866026,-0.0159875,-0.000424683,-5.96046e-05,0.002563,0.0117309,2.27176,5,0.1,18,1.4,-2.94887,-2.78403,0.628549,0.866026,0.41939,-0.0203177,0,0.000119209,0.00578165,0.0144981,1.84004,5,0.1,19,1.4,-2.37361,4.87453,0.947033,-0.0236392,-0.835943,0.360858,0.0134706,0.250816,-0.204504,0.0177709,0.58497,5,0.1,20,1.4,-1.84269,-0.0763101,0.527621,0.595793,0.0396008,-0.0926644,-0.107467,-0.284281,0.0413358,0.0104068,2.63661,5,0.1,21,1.4,-4.66643,3.73739,0.75633,-0.067234,-0.148529,0.212076,0.132084,0.311494,0.123769,0.0124743,0.120518,5,0.1,22,1.4,-0.238126,3.63562,0.57568,0.00073798,-0.608331,-0.0410512,-0.510938,-0.379562,-0.240445,0.00823801,2.68501,5,0.1,23,1.4,-4.0703,4.13617,0.959564,0.018692,-0.217235,0.359139,-0.0119209,0.136375,-0.225812,0.0109282,0.130398,5,0.1,24,1.4,-4.46597,-2.04521,0.500298,0.860095,0.165713,-0.00324249,-0.119209,-0.315905,0.0246167,0.0114392,0.788718,5,0.1,25,1.4,-3.96145,-3.38821,0.653291,-0.202501,0.648665,0.0269428,1.24979,-1.26338,0.084132,0.0101402,3.08077,5,0.1,26,1.4,-1.77421,4.84796,0.665974,-0.85322,-0.478256,-0.0269786,0.256062,0.330925,-0.297338,0.0331637,2.28881,5,0.1,27,1.4,1.93029,-3.13671,0.602718,0.34582,0.300878,0.027369,-0.217438,-0.189424,-0.0171959,0.00912748,0.150659,5,0.1,28,1.4,-2.42975,4.16829,1.02109,0.0273526,-0.291157,0.302541,-0.0172853,0.0448227,-0.190258,0.0106477,0.114502,5,0.1,29,1.4,3.41862,-3.86617,0.768744,-0.702572,0.0924528,0.0157297,-1.05476,-0.0243187,-0.0917912,0.0372873,1.76407,5,0.1
0,1.5,2.36052,-2.01219,0.591901,-0.251367,0.0824556,0.00780467,0.0881851,-0.373572,-0.00271946,0.00939362,0.29784,5,0.1,1,1.5,4.56111,0.65543,0.500023,-0.260738,-0.479825,-0.00057118,0.022918,0.305861,0.00979379,0.0218158,0.177815,5,0.1,2,1.5,0.32519,-2.39787,0.500012,-0.501764,0.290785,0.000142399,0.239931,-0.209704,0.000361353,0.0123042,0.225946,5,0.1,3,1.5,-3.22457,-2.06141,0.587333,0.0753928,-0.46384,0.0120251,0.0337511,0.295773,-0.00766665,0.0103485,0.137071,5,0.1,4,1.5,-2.26279,-3.57935,1.05021,0.81826,-0.0196453,0.2846,-0.208125,0.0125319,-0.181414,0.00991726,0.590067,5,0.1,5,1.5,-4.00112,-5.41352,0.623704,0.535992,0.0971772,-0.0224944,-0.46888,-0.474066,0.0143349,0.014639,0.224371,5,0.1,6,1.5,4.86579,0.711567,0.591364,-0.350825,-0.132274,0.0283804,0.264853,0.42332,-0.0119433,0.0269566,0.538215,5,0.1,7,1.5,3.60618,-0.518557,0.57542,-0.0462789,0.561895,0.0206609,-0.0654608,-0.436109,-0.0160225,0.0276393,3.50751,5,0.1,8,1.5,1.21856,4.62677,1.03673,-0.366335,0.0220932,0.2974,0.407942,-0.0139773,-0.189595,0.00892648,0.166807,5,0.1,9,1.5,-1.06183,3.96718,0.613064,0.774442,-0.194312,0.0276098,-0.887405,0.223666,0.335217,0.0152704,0.716398,5,0.1,10,1.5,3.06216,-5.84981,0.56975,-0.863737,-0.000207126,0.0261183,-0.0190288,-5.96046e-05,-0.0109486,0.00781658,1.09248,5,0.1,11,1.5,-3.14055,4.99631,0.607049,0.866026,-0.467008,-0.00118492,0,0.00414252,-0.00973418,0.0148018,2.13729,5,0.1,12,1.5,-4.13227,-3.76836,0.592502,0.286955,-0.778132,0.00384627,-0.0689328,0.504598,0.0022985,0.00876924,0.623129,5,0.1,13,1.5,-1.3666,2.06913,0.551867,0.840472,0.261679,0.0403145,-0.126936,-0.143513,-0.0221133,0.00790349,0.708488,5,0.1,14,1.5,1.52164,2.12628,1.06701,-0.0205562,-0.721767,0.411064,0.0131577,0.418887,-0.262022,0.0264931,0.342072,5,0.1,15,1.5,-0.0370093,3.11386,0.725492,-0.28119,0.640395,0.219303,0.691743,-0.74549,0.071492,0.0107443,0.366714,5,0.1,16,1.5,-1.63237,0.0191074,0.9819,-0.0187818,0.139463,0.392205,0.00289083,-0.0213994,-0.0601932,0.0136324,0.101269,5,0.1,17,1.5,0.144625,-1.01957,0.63181,0.00267983,0.866025,-0.0158612,-0.000137836,1.11759e-05,0.000849366,0.0117309,2.27176,5,0.1,18,1.5,-2.86227,-2.74199,0.626542,0.86597,0.421713,-0.0198398,-0.00222027,0.023514,0.00467151,0.0144981,1.84004,5,0.1,19,1.5,-2.3759,4.79207,0.982135,-0.0223514,-0.813778,0.34129,0.0129789,0.22614,-0.197478,0.0177709,0.58497,5,0.1,20,1.5,-1.7824,-0.0732354,0.518764,0.620045,0.0265716,-0.0826907,0.493042,-0.00303425,0.147622,0.0104068,2.63661,5,0.1,21,1.5,-4.67242,3.72415,0.778329,-0.0519298,-0.115928,0.229007,0.167757,0.332907,0.190683,0.0124743,0.120518,5,0.1,22,1.5,-0.240533,3.57306,0.570232,-0.0477932,-0.640482,-0.0688323,-0.446287,-0.239551,-0.296365,0.00823801,2.68501,5,0.1,23,1.5,-4.06849,4.11495,0.994392,0.0175558,-0.208668,0.337598,-0.0112951,0.0509918,-0.215188,0.0109282,0.130398,5,0.1,24,1.5,-4.38036,-2.03028,0.50008,0.852904,0.132458,-0.00129528,-0.0675619,-0.342011,0.0146553,0.0114392,0.788718,5,0.1,25,1.5,-3.97756,-3.32824,0.656323,-0.138324,0.562839,0.0329134,0.137135,-0.529855,0.0368617,0.0101402,3.08077,5,0.1,26,1.5,-1.85833,4.80197,0.66155,-0.829268,-0.439782,-0.063254,0.25443,0.436157,-0.402916,0.0331637,2.28881,5,0.1,27,1.5,1.96401,-3.10737,0.605386,0.330226,0.287291,0.0261359,-0.115879,-0.10097,-0.00916421,0.00912748,0.150659,5,0.1,28,1.5,-2.4271,4.13935,1.05042,0.025706,-0.287566,0.284393,-0.0164509,0.0398159,-0.181288,0.0106477,0.114502,5,0.1,29,1.5,3.34349,-3.85705,0.769882,-0.795091,0.0900276,0.00729244,-0.761256,-0.0273287,-0.0763088,0.0372873,1.76407,5,0.1
0,1.6,2.33581,-2.00568,0.592669,-0.242776,0.0490487,0.00753999,0.0953674,-0.291944,-0.00295043,0.0100968,0.268461,5,0.1,1,1.6,4.53523,0.609048,0.500003,-0.256038,-0.446849,8.34465e-05,0.0796318,0.363439,0.00375509,0.027669,0.120169,5,0.1,2,1.6,0.276265,-2.36987,0.500026,-0.475842,0.26871,0.00013411,0.293322,-0.237584,-0.000447035,0.0126332,0.156371,5,0.1,3,1.6,-3.21681,-2.10624,0.588496,0.0801086,-0.431955,0.0111982,0.0517368,0.35131,-0.00908971,0.0105522,0.163543,5,0.1,4,1.6,-2.18219,-3.58124,1.07772,0.791222,-0.0182927,0.265041,-0.356555,0.0149012,-0.21559,0.00952507,0.40525,5,0.1,5,1.6,-3.94986,-5.40599,0.62153,0.488979,0.0554204,-0.0209481,-0.483394,-0.358343,0.0169873,0.0137962,1.28228,5,0.1,6,1.6,4.83189,0.7,0.594123,-0.32829,-0.103506,0.0266016,0.205278,0.161171,-0.0233054,0.0291078,0.44406,5,0.1,7,1.6,3.6,-0.46478,0.577397,-0.0888646,0.511356,0.0188038,-0.746489,-0.572622,-0.0210702,0.0220294,3.18224,5,0.1,8,1.6,1.18421,4.6289,1.06548,-0.318772,0.0205755,0.276962,0.527263,-0.0164509,-0.225306,0.00978855,0.256535,5,0.1,9,1.6,-0.989472,3.94899,0.617845,0.66725,-0.168294,0.0704482,-1.21987,0.289798,0.483185,0.0136067,0.507554,5,0.1,10,1.6,2.97585,-5.84983,0.572302,-0.86022,-0.000214577,0.0248313,0.115991,0.000238419,-0.0154078,0.00756458,1.35362,5,0.1,11,1.6,-3.05395,4.94972,0.606887,0.866026,-0.463438,-0.00198632,0,0.0865459,-0.00631809,0.0149778,2.23736,5,0.1,12,1.6,-4.10398,-3.84328,0.592897,0.278008,-0.716633,0.00403374,-0.118256,0.722885,0.0012517,0.00806934,0.572973,5,0.1,13,1.6,-1.28339,2.09453,0.55578,0.820976,0.245732,0.0378579,-0.289917,-0.180602,-0.0278354,0.00939073,0.492467,5,0.1,14,1.6,1.51966,2.05632,1.10674,-0.0191391,-0.675744,0.382814,0.0155568,0.516653,-0.311375,0.0281107,0.225119,5,0.1,15,1.6,-0.0616728,3.17431,0.747653,-0.212392,0.569445,0.222483,0.673303,-0.689745,-0.0138283,0.0118584,0.351696,5,0.1,16,1.6,-1.63423,0.0329122,1.02072,-0.0183344,0.136171,0.382945,0.00649691,-0.0489131,-0.137568,0.012026,0.0547329,5,0.1,17,1.6,0.144891,-0.932966,0.630232,0.00264794,0.866026,-0.0156686,-0.000610948,0,0.00363588,0.010512,2.27177,5,0.1,18,1.6,-2.77571,-2.69982,0.624585,0.865132,0.420213,-0.0192314,-0.017643,-0.0693798,0.00807643,0.017972,1.41986,5,0.1,19,1.6,-2.37807,4.712,1.01522,-0.0209272,-0.785029,0.319591,0.015974,0.371695,-0.243604,0.0173535,0.401473,5,0.1,20,1.6,-1.71761,-0.070311,0.511337,0.67696,0.0341961,-0.0650376,0.570297,0.134274,0.196934,0.0137844,2.14951,5,0.1,21,1.6,-4.67676,3.71421,0.802131,-0.0348091,-0.0832796,0.246072,0.170231,0.314355,0.133395,0.0116807,0.161692,5,0.1,22,1.6,-0.247348,3.50821,0.561902,-0.0863194,-0.652325,-0.0970766,-0.315607,0.0181198,-0.254899,0.00762088,2.55231,5,0.1,23,1.6,-4.06679,4.0943,1.02703,0.0163436,-0.204241,0.314397,-0.0133514,0.0491142,-0.255704,0.0146716,0.161505,5,0.1,24,1.6,-4.29561,-2.01874,0.50001,0.839293,0.0985801,-0.000238419,-0.234604,-0.329852,0.00688434,0.0109945,0.0951415,5,0.1,25,1.6,-3.99184,-3.27392,0.659732,-0.15651,0.529063,0.0346258,-0.418425,-0.205159,-0.00104308,0.0105051,2.73688,5,0.1,26,1.6,-1.93978,4.76032,0.653207,-0.797066,-0.391591,-0.103149,0.410855,0.524044,-0.376105,0.0317775,2.37904,5,0.1,27,1.6,1.99647,-3.07913,0.607956,0.318938,0.27746,0.0252426,-0.125408,-0.109196,-0.00989437,0.00926738,0.0872994,5,0.1,28,1.6,-2.42461,4.11087,1.07792,0.0239372,-0.281036,0.264847,-0.0195503,0.0998974,-0.215411,0.010085,0.133538,5,0.1,29,1.6,3.26087,-3.84821,0.770259,-0.84995,0.0864625,0.000567734,-0.321507,-0.0458956,-0.0577569,0.0376483,1.32893,5,0.1
0,1.7,2.31205,-2.00211,0.593406,-0.231879,0.0236262,0.00720285,0.126705,-0.213668,-0.00392646,0.0100968,0.268461,5,0.1,1,1.7,4.50999,0.566094,0.500025,-0.248755,-0.412778,0.000298209,0.0757873,0.330176,0.00077486,0.027669,0.120169,5,0.1,2,1.7,0.230032,-2.34413,0.500037,-0.44951,0.246544,8.05594e-05,0.25062,-0.212938,-0.000599772,0.0126332,0.156371,5,0.1,3,1.7,-3.20833,-2.14798,0.589578,0.0911571,-0.405004,0.0105008,0.150979,0.213012,-0.00551343,0.0105522,0.163543,5,0.1,4,1.7,-2.10473,-3.583,1.10319,0.758451,-0.0168946,0.244831,-0.327215,0.0135452,-0.195853,0.00952507,0.40525,5,0.1,5,1.7,-3.90307,-5.40213,0.619516,0.449339,0.0232086,-0.0193551,-0.333786,-0.276387,0.0154451,0.0137962,1.28228,5,0.1,6,1.7,4.79983,0.68997,0.596657,-0.314901,-0.101187,0.023995,0.0856221,-0.0849552,-0.0285879,0.0291078,0.44406,5,0.1,7,1.7,3.5872,-0.416477,0.579174,-0.168724,0.45489,0.0167262,-0.840306,-0.561601,-0.0206605,0.0220294,3.18224,5,0.1,8,1.7,1.15522,4.63089,1.09223,-0.259557,0.0193104,0.259677,0.616714,-0.0100136,-0.136621,0.00978855,0.256535,5,0.1,9,1.7,-0.929002,3.93368,0.627087,0.54109,-0.137373,0.112199,-1.28293,0.321999,0.351653,0.0136067,0.507554,5,0.1,10,1.7,2.88996,-5.84985,0.574711,-0.860666,-0.000190735,0.0233789,-0.0687242,0.000238419,-0.0143908,0.00756458,1.35362,5,0.1,11,1.7,-2.96765,4.90392,0.606679,0.856607,-0.451136,-0.00197869,-0.204012,0.168175,0.00534207,0.0149778,2.23736,5,0.1,12,1.7,-4.07672,-3.91075,0.593307,0.267308,-0.627965,0.00416962,-0.106186,1.02104,0.00123307,0.00806934,0.572973,5,0.1,13,1.7,-1.20262,2.11824,0.559433,0.794821,0.228736,0.0352385,-0.264816,-0.166252,-0.0256188,0.00939073,0.492467,5,0.1,14,1.7,1.51782,1.99121,1.14354,-0.0176804,-0.627168,0.353624,0.0141338,0.473596,-0.282869,0.0281107,0.225119,5,0.1,15,1.7,-0.080085,3.22822,0.769534,-0.160711,0.512188,0.212411,0.381315,-0.483066,-0.17767,0.0118584,0.351696,5,0.1,16,1.7,-1.63603,0.0462149,1.05833,-0.0176743,0.129193,0.369005,0.00725687,-0.0902498,-0.152685,0.012026,0.0547329,5,0.1,17,1.7,0.145154,-0.846364,0.628677,0.00261099,0.866026,-0.0154487,-0.000272878,-3.72529e-06,0.00162795,0.010512,2.27177,5,0.1,18,1.7,-2.6892,-2.65854,0.622699,0.865236,0.401732,-0.0185023,-0.000491738,-0.290096,0.00723079,0.017972,1.41986,5,0.1,19,1.7,-2.38008,4.63535,1.04601,-0.0191867,-0.747476,0.296614,0.0188947,0.399679,-0.224642,0.0173535,0.401473,5,0.1,20,1.7,-1.64653,-0.0659816,0.505853,0.748105,0.0542504,-0.0445124,0.774279,0.246315,0.205271,0.0137844,2.14951,5,0.1,21,1.7,-4.67941,3.70739,0.827299,-0.0184648,-0.053975,0.25603,0.154167,0.267506,0.058502,0.0116807,0.161692,5,0.1,22,1.7,-0.257063,3.44193,0.551243,-0.103476,-0.682101,-0.113091,-0.045713,-0.516474,-0.0741333,0.00762088,2.55231,5,0.1,23,1.7,-4.06521,4.07383,1.0574,0.0153184,-0.207553,0.294779,-0.00810623,-0.0897944,-0.155069,0.0146716,0.161505,5,0.1,24,1.7,-4.21335,-2.01052,0.500012,0.801103,0.0660475,0.000212993,-0.524342,-0.315323,0.00246242,0.0109945,0.0951415,5,0.1,25,1.7,-4.01059,-3.22125,0.663153,-0.226326,0.530379,0.0334436,-0.895679,0.167221,-0.0216365,0.0105051,2.73688,5,0.1,26,1.7,-2.01777,4.72317,0.641226,-0.764995,-0.356556,-0.134264,0.27103,0.214905,-0.244167,0.0317775,2.37904,5,0.1,27,1.7,2.02782,-3.05186,0.610437,0.308371,0.268259,0.0244087,-0.0999123,-0.0869334,-0.00789016,0.00926738,0.0872994,5,0.1,28,1.7,-2.4223,4.08305,1.1035,0.0224389,-0.277167,0.248322,-0.0118315,-8.9407e-05,-0.130624,0.010085,0.133538,5,0.1,29,1.7,3.1749,-3.83978,0.770048,-0.864863,0.0820667,-0.00459263,-0.0338852,-0.0446141,-0.0449829,0.0376483,1.32893,5,0.1
0,1.8,2.28957,-2.00067,0.594105,-0.216782,0.0066638,0.00673383,0.177741,-0.125051,-0.00548363,0.0102295,0.419597,5,0.1,1,1.8,4.48555,0.526493,0.500055,-0.239253,-0.378761,0.000280142,0.121355,0.358477,-0.000923872,0.0206697,0.139827,5,0.1,2,1.8,0.186379,-2.32055,0.500042,-0.422787,0.2249,1.93715e-05,0.295841,-0.224948,-0.000566244,0.0113307,0.107426,5,0.1,3,1.8,-3.19841,-2.18747,0.590602,0.107116,-0.384969,0.00998229,0.154257,0.206113,-0.00533462,0.0112323,0.0984048,5,0.1,4,1.8,-2.03066,-3.58462,1.12668,0.72102,-0.0155032,0.224653,-0.440836,0.014782,-0.21261,0.00987926,0.427655,5,0.1,5,1.8,-3.85972,-5.40099,0.617659,0.417989,0.00152588,-0.0177637,-0.311136,-0.153303,0.0167787,0.0138321,2.8833,5,0.1,6,1.8,4.76872,0.679223,0.598907,-0.307155,-0.115202,0.0209332,0.0860691,-0.172228,-0.0323653,0.0271012,0.355511,5,0.1,7,1.8,3.56607,-0.373809,0.580742,-0.254053,0.398263,0.0146434,-0.848055,-0.573769,-0.0211,0.0215082,2.93989,5,0.1,8,1.8,1.13224,4.63278,1.11756,-0.201669,0.0183702,0.246829,0.519097,-0.0100136,-0.132203,0.00978048,0.207042,5,0.1,9,1.8,-0.881271,3.92156,0.639845,0.414318,-0.105071,0.14077,-1.23638,0.318766,0.219852,0.0113208,0.413689,5,0.1,10,1.8,2.80362,-5.84987,0.576974,-0.8645,-0.000178814,0.0218287,0.0305176,0.000476837,-0.0171363,0.00939901,1.00785,5,0.1,11,1.8,-2.88345,4.85984,0.606519,0.822836,-0.42845,-0.00112057,-0.480056,0.290394,0.010848,0.0137366,2.6276,5,0.1,12,1.8,-4.05057,-3.96816,0.593729,0.255013,-0.517815,0.00424236,-0.146627,1.1574,0,0.00715176,0.358294,5,0.1,13,1.8,-1.12463,2.14026,0.562826,0.762689,0.211322,0.0325546,-0.399351,-0.186682,-0.0287592,0.00775901,0.335908,5,0.1,14,1.8,1.51612,1.93092,1.17746,-0.0162244,-0.577876,0.324482,0.015378,0.524998,-0.307143,0.0249259,0.148536,5,0.1,15,1.8,-0.0945882,3.27718,0.789686,-0.132298,0.468004,0.188832,0.204254,-0.421166,-0.285059,0.00752601,0.527915,5,0.1,16,1.8,-1.63776,0.0586182,1.09437,-0.0167936,0.118246,0.350514,0.0107288,-0.127861,-0.22459,0.0110204,0.137554,5,0.1,17,1.8,0.145413,-0.759761,0.627143,0.00256822,0.866026,-0.0151947,-0.000678003,0,0.00402331,0.0104572,2.27466,5,0.1,18,1.8,-2.60279,-2.62011,0.620889,0.861377,0.364166,-0.0176623,-0.0927448,-0.451446,0.0100434,0.0123996,0.755722,5,0.1,19,1.8,-2.3819,4.56278,1.07452,-0.0171423,-0.701749,0.273201,0.0218153,0.528097,-0.249565,0.018614,0.278378,5,0.1,20,1.8,-1.56804,-0.059279,0.502388,0.818321,0.0798603,-0.025335,0.573277,0.25039,0.173062,0.0105252,1.75953,5,0.1,21,1.8,-4.68053,3.70322,0.853023,-0.00441074,-0.0304043,0.256622,0.125408,0.201583,-0.0509322,0.0118953,0.210804,5,0.1,22,1.8,-0.267318,3.37091,0.539801,-0.0988051,-0.738639,-0.113557,0.123873,-0.541329,0.0570118,0.00827935,0.304006,5,0.1,23,1.8,-4.06372,4.05257,1.08615,0.0145674,-0.217748,0.280195,-0.00810623,-0.095129,-0.150084,0.00962857,0.0990663,5,0.1,24,1.8,-4.1363,-2.00543,0.50004,0.735605,0.0364542,0.000311434,-0.778675,-0.272632,-0.000238419,0.0116673,0.475599,5,0.1,25,1.8,-4.03793,-3.1672,0.666361,-0.321186,0.551277,0.0304848,-0.938892,0.202656,-0.0365973,0.0108235,2.46416,5,0.1,26,1.8,-2.09287,4.68834,0.62681,-0.735933,-0.341868,-0.15175,0.338912,0.108004,-0.105202,0.0298373,2.43376,5,0.1,27,1.8,2.0581,-3.02551,0.612834,0.296599,0.258017,0.0234768,-0.145316,-0.126481,-0.0114739,0.00813411,0.0662281,5,0.1,28,1.8,-2.42011,4.05532,1.12772,0.0213265,-0.277174,0.236037,-0.0113249,0.0164509,-0.126421,0.0107356,0.082032,5,0.1,29,1.8,3.08841,-3.83181,0.769388,-0.863498,0.0770986,-0.00835806,0.0503063,-0.0562668,-0.0300705,0.0364669,0.984226,5,0.1
0,1.9,2.26877,-2.0006,0.594751,-0.19916,-0.00433363,0.00618976,0.178471,-0.0769347,-0.00552088,0.0102295,0.419597,5,0.1,1,1.9,4.46205,0.490135,0.500077,-0.232033,-0.350598,0.000150129,0.0402927,0.226486,-0.00154972,0.0206697,0.139827,5,0.1,2,1.9,0.145479,-2.29912,0.500042,-0.395866,0.204141,-2.83122e-05,0.256825,-0.196353,-0.00038743,0.0113307,0.107426,5,0.1,3,1.9,-3.18689,-2.22505,0.591576,0.123594,-0.367416,0.0095279,0.163361,0.161499,-0.0041835,0.0112323,0.0984048,5,0.1,4,1.9,-1.96048,-3.5861,1.14814,0.68459,-0.0141341,0.204956,-0.321008,0.0130087,-0.187449,0.00987926,0.427655,5,0.1,5,1.9,-3.81912,-5.40169,0.615962,0.396691,-0.0149757,-0.0162086,-0.144288,-0.122786,0.0148006,0.0138321,2.8833,5,0.1,6,1.9,4.73832,0.666665,0.600842,-0.301545,-0.137171,0.0178019,0.0430048,-0.246193,-0.0303388,0.0271012,0.355511,5,0.1,7,1.9,3.53686,-0.336703,0.582107,-0.328558,0.345135,0.0126898,-0.744328,-0.496561,-0.0182614,0.0215082,2.93989,5,0.1,8,1.9,1.11446,4.63457,1.14165,-0.157047,0.0175141,0.235571,0.338495,-0.00789762,-0.103578,0.00978048,0.207042,5,0.1,9,1.9,-0.84575,3.91261,0.654636,0.298929,-0.0746623,0.151973,-1.06737,0.286192,0.0334866,0.0113208,0.413689,5,0.1,10,1.9,2.71718,-5.84988,0.579076,-0.864712,-0.000135601,0.0202308,-0.000849366,0.000357628,-0.0154488,0.00939901,1.00785,5,0.1,11,1.9,-2.80376,4.81937,0.606554,0.768668,-0.372991,0.00257837,-0.608891,0.768781,0.057023,0.0137366,2.6276,5,0.1,12,1.9,-4.02576,-4.01409,0.594153,0.241487,-0.40083,0.00424664,-0.132442,1.16263,-0.000104308,0.00715176,0.358294,5,0.1,13,1.9,-1.05024,2.16051,0.565945,0.725731,0.193967,0.029881,-0.365779,-0.166252,-0.0256114,0.00775901,0.335908,5,0.1,14,1.9,1.51457,1.87562,1.20846,-0.0148,-0.52912,0.296026,0.0135526,0.465922,-0.270791,0.0249259,0.148536,5,0.1,15,1.9,-0.106207,3.32106,0.807746,-0.0951652,0.402606,0.177453,0.500017,-0.840962,0.020355,0.00752601,0.527915,5,0.1,16,1.9,-1.63911,0.0697173,1.12829,-0.00780597,0.102989,0.32778,0.151679,-0.172808,-0.237145,0.0110204,0.137554,5,0.1,17,1.9,0.145806,-0.673159,0.625638,0.00644969,0.866026,-0.0149382,0.069445,-3.72529e-06,0.00193715,0.0104572,2.27466,5,0.1,18,1.9,-2.51701,-2.58621,0.61917,0.854337,0.311428,-0.0167365,-0.0863969,-0.58721,0.00907108,0.0123996,0.755722,5,0.1,19,1.9,-2.3835,4.49519,1.10066,-0.0149801,-0.650452,0.24994,0.0214875,0.513852,-0.222914,0.018614,0.278378,5,0.1,20,1.9,-1.48397,-0.0498094,0.500636,0.856984,0.111196,-0.0106092,0.214465,0.350895,0.118915,0.0105252,1.75953,5,0.1,21,1.9,-4.68036,3.70107,0.878412,0.00748709,-0.0138503,0.250767,0.109941,0.129476,-0.0741594,0.0118953,0.210804,5,0.1,22,1.9,-0.276401,3.29497,0.528919,-0.0813702,-0.77385,-0.102434,0.213791,-0.156313,0.156362,0.00827935,0.304006,5,0.1,23,1.9,-4.0623,4.03027,1.1135,0.0138789,-0.228191,0.267414,-0.00631809,-0.0992715,-0.1176,0.00962857,0.0990663,5,0.1,24,1.9,-4.06612,-2.00292,0.500069,0.672186,0.0157107,0.000240561,-0.527769,-0.149354,-0.00107661,0.0116673,0.475599,5,0.1,25,1.9,-4.07515,-3.11064,0.669217,-0.425631,0.582772,0.0265365,-1.08278,0.372469,-0.0418313,0.0108235,2.46416,5,0.1,26,1.9,-2.16536,4.65386,0.61125,-0.718159,-0.354373,-0.158026,0.0725389,-0.295401,-0.0199452,0.0298373,2.43376,5,0.1,27,1.9,2.08714,-3.00026,0.615132,0.284754,0.247709,0.0225413,-0.106126,-0.0923127,-0.00838563,0.00813411,0.0662281,5,0.1,28,1.9,-2.41803,4.02777,1.15076,0.0203624,-0.272623,0.225271,-0.00888109,0.079453,-0.0990555,0.0107356,0.082032,5,0.1,29,1.9,3.0021,-3.82437,0.768415,-0.863875,0.0718035,-0.0109363,-0.0133365,-0.0517964,-0.0211224,0.0364669,0.984226,5,0.1
0,2,2.24978,-2.00123,0.595341,-0.180477,-0.00630021,0.00561178,0.19753,0.043869,-0.00613928,0.00880342,0.826015,5,0.1,1,2,4.43903,0.456135,0.500084,-0.228202,-0.329699,-7.45058e-06,0.0486374,0.207454,-0.00154972,0.0197888,0.0835835,5,0.1,2,2,0.107207,-2.27968,0.500037,-0.369014,0.184596,-5.96046e-05,0.290066,-0.198722,-0.000208616,0.0110787,0.1281,5,0.1,3,2,-3.17378,-2.26095,0.592507,0.137746,-0.349849,0.00907183,0.111341,0.201464,-0.0051856,0.00954872,0.0870272,5,0.1,4,2,-1.89365,-3.58745,1.1677,0.651127,-0.0128269,0.18613,-0.371754,0.0133514,-0.193298,0.00923044,0.303199,5,0.1,5,2,-3.7801,-5.40343,0.614415,0.384015,-0.0154614,-0.0147209,-0.130773,0.134945,0.0152588,0.013424,2.63687,5,0.1,6,2,4.70843,0.651736,0.602473,-0.295675,-0.160803,0.014855,0.0863075,-0.21109,-0.02864,0.026126,0.279077,5,0.1,7,2,3.5,-0.304596,0.583287,-0.411332,0.297619,0.0109419,-0.893235,-0.459298,-0.0168681,0.01979,2.6637,5,0.1,8,2,1.1,4.63628,1.16467,-0.13645,0.0166655,0.224307,0.0833869,-0.00977516,-0.129163,0.0101747,0.148263,5,0.1,9,2,-0.820887,3.90649,0.669876,0.201467,-0.0483632,0.152005,-0.879705,0.237942,-0.0166893,0.00966129,0.422729,5,0.1,10,2,2.63089,-5.8499,0.58102,-0.858736,-0.000107288,0.0186339,0.145793,0.000238419,-0.0169575,0.00750859,1.59021,5,0.1,11,2,-2.73019,4.78636,0.607132,0.700331,-0.283706,0.00919849,-0.75984,0.977039,0.0706613,0.0135148,2.6308,5,0.1,12,2,-4.0023,-4.04849,0.594576,0.227076,-0.288725,0.00419021,-0.161529,1.06478,-0.00116229,0.00797157,0.380167,5,0.1,13,2,-0.979614,2.17907,0.568804,0.685173,0.177085,0.0272796,-0.463098,-0.175238,-0.0269711,0.00745711,0.226526,5,0.1,14,2,1.51316,1.82504,1.23671,-0.0134379,-0.48202,0.268832,0.0139475,0.48691,-0.279248,0.0270278,0.0987713,5,0.1,15,2,-0.112997,3.35673,0.825846,-0.0391269,0.308067,0.186332,0.59082,-1.01304,0.128627,0.00929806,0.349883,5,0.1,16,2,-1.63901,0.0791089,1.15982,0.0104576,0.0845043,0.301945,0.200033,-0.193141,-0.284016,0.0120941,0.168777,5,0.1,17,2,0.146854,-0.586556,0.624156,0.0148829,0.866026,-0.0146642,0.0923201,0,0.00414252,0.0102022,2.27229,5,0.1,18,2,-2.43226,-2.55812,0.617544,0.837642,0.249642,-0.0157475,-0.273585,-0.635266,0.0111163,0.0126507,0.489642,5,0.1,19,2,-2.3849,4.43279,1.12453,-0.0128388,-0.596333,0.227392,0.0214577,0.578642,-0.232995,0.018214,0.201517,5,0.1,20,2,-1.39764,-0.0369416,0.500069,0.866026,0.145609,-0.00172257,-5.96046e-05,0.318489,0.0596941,0.0104523,1.33153,5,0.1,21,2,-4.67911,3.70022,0.903027,0.0171661,-0.00429749,0.240487,0.0815392,0.0636578,-0.136495,0.0135565,0.196555,5,0.1,22,2,-0.283396,3.21748,0.519559,-0.0580259,-0.76918,-0.0839397,0.244364,0.25022,0.206113,0.00743626,0.153449,5,0.1,23,2,-4.06094,4.00705,1.13963,0.0132084,-0.235146,0.254625,-0.00786781,-0.0298023,-0.146627,0.00992672,0.105817,5,0.1,24,2,-4.00138,-2.00194,0.500087,0.623435,0.00526905,0.000113249,-0.475287,-0.0652075,-0.00140071,0.0117452,0.735677,5,0.1,25,2,-4.12291,-3.05059,0.671656,-0.52613,0.61633,0.0222176,-0.878334,0.258923,-0.0440478,0.0116908,2.2436,5,0.1,26,2,-2.23687,4.61671,0.59549,-0.711727,-0.38991,-0.155765,0.0970364,-0.368118,0.0645518,0.0301265,2.33656,5,0.1,27,2,2.11505,-2.97597,0.617342,0.272918,0.237417,0.0216052,-0.140905,-0.122547,-0.0111461,0.00843189,0.0295264,5,0.1,28,2,-2.41604,4.00104,1.17277,0.0194013,-0.260544,0.214499,-0.0112057,0.164747,-0.123441,0.0105335,0.216991,5,0.1,29,2,2.91583,-3.81746,0.767233,-0.858748,0.0663698,-0.0125274,0.145674,-0.0584126,-0.0105202,0.0357286,0.708301,5,0.1
0,2.1,2.23268,-2.00157,0.595873,-0.161675,0.00183992,0.00502737,0.181854,0.179574,-0.00565127,0.00880342,0.826015,5,0.1,1,2.1,4.4164,0.424087,0.500077,-0.224707,-0.312066,-0.000124518,0.0324845,0.1595,-0.000815839,0.0197888,0.0835835,5,0.1,2,2.1,0.0715121,-2.26207,0.50003,-0.346769,0.168828,-7.38539e-05,0.176311,-0.127211,-7.82311e-05,0.0110787,0.1281,5,0.1,3,2.1,-3.15966,-2.29506,0.593392,0.142378,-0.333351,0.00864668,-0.0144243,0.145718,-0.00375882,0.00954872,0.0870272,5,0.1,4,2.1,-1.83021,-3.58867,1.18541,0.619055,-0.0116006,0.168383,-0.296548,0.0115037,-0.166796,0.00923044,0.303199,5,0.1,5,2.1,-3.74216,-5.40398,0.613015,0.375976,0.00974163,-0.0133193,-0.0531971,0.442833,0.0131764,0.013424,2.63687,5,0.1,6,2.1,4.67918,0.634511,0.603817,-0.290047,-0.18412,0.0120346,0.0425875,-0.236757,-0.0275671,0.026126,0.279077,5,0.1,7,2.1,3.45359,-0.276954,0.584303,-0.522595,0.256777,0.00944166,-1.23712,-0.366626,-0.0134669,0.01979,2.6637,5,0.1,8,2.1,1.08631,4.6379,1.18648,-0.141103,0.0157364,0.21202,-0.144266,-0.00932813,-0.123352,0.0101747,0.148263,5,0.1,9,2.1,-0.804094,3.90276,0.684709,0.143638,-0.0272285,0.142115,-0.324015,0.182435,-0.168718,0.00966129,0.422729,5,0.1,10,2.1,2.54518,-5.84991,0.582803,-0.859218,-8.71718e-05,0.0170668,-0.0911206,0.000149012,-0.0149123,0.00750859,1.59021,5,0.1,11,2.1,-2.66274,4.76241,0.60837,0.658803,-0.199876,0.0151933,-0.146374,0.696033,0.0480898,0.0135148,2.6308,5,0.1,12,2.1,-3.98023,-4.0723,0.594992,0.215685,-0.19029,0.00415994,-0.0813901,0.894159,0.000227243,0.00797157,0.380167,5,0.1,13,2.1,-0.913281,2.19595,0.571405,0.64223,0.160944,0.0247949,-0.417259,-0.152498,-0.0234731,0.00745711,0.226526,5,0.1,14,2.1,1.51188,1.77917,1.26228,-0.0121569,-0.436007,0.243194,0.0120327,0.44392,-0.240937,0.0270278,0.0987713,5,0.1,15,2.1,-0.11468,3.38333,0.844831,-0.00104104,0.231421,0.190652,0.20017,-0.555053,-0.0352487,0.00929806,0.349883,5,0.1,16,2.1,-1.63681,0.086586,1.18866,0.0347307,0.0650394,0.275203,0.268362,-0.193111,-0.258543,0.0120941,0.168777,5,0.1,17,2.1,0.148867,-0.499954,0.622705,0.0258337,0.866026,-0.0143954,0.119274,-3.57628e-06,0.00204518,0.0102022,2.27229,5,0.1,18,2.1,-2.34976,-2.53632,0.616021,0.812363,0.186831,-0.0147202,-0.263155,-0.61135,0.0099279,0.0126507,0.489642,5,0.1,19,2.1,-2.38607,4.37601,1.14617,-0.0106774,-0.539538,0.205793,0.0215769,0.566155,-0.204861,0.018214,0.201517,5,0.1,20,2.1,-1.31104,-0.0207263,0.500123,0.865678,0.178816,0.00214465,-0.013873,0.326216,0.0204667,0.0104523,1.33153,5,0.1,21,2.1,-4.67702,3.70002,0.926356,0.0243127,-0.000300631,0.225641,0.0602007,0.0204891,-0.16379,0.0135565,0.196555,5,0.1,22,2.1,-0.28793,3.14206,0.512204,-0.0323981,-0.736376,-0.0631928,0.260117,0.412986,0.204869,0.00743626,0.153449,5,0.1,23,2.1,-4.05965,3.98371,1.16446,0.0125676,-0.228603,0.242618,-0.00560284,0.15153,-0.106066,0.00992672,0.105817,5,0.1,24,2.1,-3.9411,-2.00174,0.500092,0.584646,-0.000948459,-1.00583e-05,-0.330925,-0.0528395,-0.00105798,0.0117452,0.735677,5,0.1,25,2.1,-4.18009,-2.9874,0.673661,-0.6176,0.648819,0.0179099,-0.89249,0.341833,-0.0418425,0.0116908,2.2436,5,0.1,26,2.1,-2.30855,4.57602,0.580318,-0.729421,-0.421934,-0.146861,-0.363111,-0.254691,0.112582,0.0301265,2.33656,5,0.1,27,2.1,2.14165,-2.95284,0.619447,0.258852,0.225185,0.020492,-0.147894,-0.128612,-0.011716,0.00843189,0.0295264,5,0.1,28,2.1,-2.41416,3.97609,1.19356,0.0181656,-0.236137,0.200873,-0.013724,0.311449,-0.151314,0.0105335,0.216991,5,0.1,29,2.1,2.83052,-3.8111,0.765936,-0.848051,0.0609394,-0.0133278,0.108436,-0.05202,-0.00517815,0.0357286,0.708301,5,0.1
0,2.2,2.21742,-2,0.596348,-0.14354,0.0343919,0.00446439,0.183105,0.458479,-0.00569224,0.00891721,1.65853,5,0.1,1,2.2,4.39414,0.393694,0.500062,-0.219798,-0.295363,-0.000177324,0.0731945,0.184625,-0.000238419,0.0200258,0.160408,5,0.1,2,2.2,0.0376732,-2.24578,0.500023,-0.330039,0.157309,-7.59959e-05,0.173938,-0.111103,2.98023e-05,0.0114033,0.104776,5,0.1,3,2.2,-3.14568,-2.32765,0.594237,0.135726,-0.317782,0.00824332,-0.113964,0.177979,-0.00458956,0.0104728,0.143628,5,0.1,4,2.2,-1.76984,-3.58978,1.20142,0.587252,-0.0104606,0.151896,-0.358403,0.0114441,-0.166535,0.00937642,0.211356,5,0.1,5,2.2,-3.70486,-5.4,0.611748,0.369388,0.0773668,-0.0120178,-0.0950098,0.878811,0.0132024,0.0140582,2.17522,5,0.1,6,2.2,4.65042,0.614998,0.604885,-0.28435,-0.204983,0.0093773,0.0829697,-0.16734,-0.0254214,0.0272212,0.211877,5,0.1,7,2.2,3.39522,-0.253017,0.585184,-0.64227,0.222712,0.00819117,-1.08624,-0.321433,-0.0118315,0.0206814,2.39008,5,0.1,8,2.2,1.07132,4.63942,1.20703,-0.15963,0.0147223,0.198501,-0.201702,-0.0114441,-0.151455,0.00841035,0.343148,5,0.1,9,2.2,-0.790753,3.90085,0.697911,0.128177,-0.0121415,0.120528,-0.0228882,0.11909,-0.252753,0.011601,0.33294,5,0.1,10,2.2,2.45884,-5.84991,0.584435,-0.866026,-7.15256e-05,0.0155628,0,0.000238419,-0.015527,0.00879082,1.2071,5,0.1,11,2.2,-2.5971,4.74543,0.610086,0.657487,-0.144398,0.0186697,0.0602007,0.417948,0.0210702,0.0118347,2.53533,5,0.1,12,2.2,-3.95904,-4.0872,0.59541,0.208187,-0.111318,0.0041768,-0.079751,0.680447,-0.000119209,0.00788176,0.329136,5,0.1,13,2.2,-0.851212,2.21129,0.573768,0.598104,0.145757,0.022456,-0.479996,-0.154734,-0.0238121,0.00856296,0.151965,5,0.1,14,2.2,1.51072,1.73779,1.28541,-0.0109673,-0.391462,0.219381,0.0120401,0.454128,-0.240624,0.023569,0.146593,5,0.1,15,2.2,-0.114229,3.40421,0.863498,0.00622496,0.190717,0.180632,-0.0309385,-0.287056,-0.158578,0.00963933,0.261465,5,0.1,16,2.2,-1.632,0.0921454,1.21487,0.0611663,0.0464203,0.248951,0.247717,-0.176929,-0.271738,0.00858117,0.264824,5,0.1,17,2.2,0.152041,-0.413351,0.621278,0.0374451,0.866025,-0.0141174,0.107452,1.43051e-05,0.00411272,0.00916861,2.09229,5,0.1,18,2.2,-2.27003,-2.52059,0.6146,0.779784,0.129014,-0.0136793,-0.409722,-0.538111,0.0112355,0.0133914,0.336704,5,0.1,19,2.2,-2.38703,4.32492,1.16573,-0.00855327,-0.481653,0.185427,0.0206232,0.597239,-0.20659,0.0165773,0.162055,5,0.1,20,2.2,-1.22466,-0.00133186,0.500394,0.860471,0.207534,0.00288635,-0.111163,0.234395,-0.00336766,0.0108929,0.986667,5,0.1,21,2.2,-4.67433,3.70005,0.948035,0.0290155,0.000542402,0.207213,0.0331402,-0.000596046,-0.20653,0.0118377,0.318519,5,0.1,22,2.2,-0.289899,3.0708,0.50688,-0.00740886,-0.685602,-0.0436455,0.23368,0.605106,0.183254,0.00683861,0.285137,5,0.1,23,2.2,-4.05843,3.96184,1.18817,0.0119805,-0.206608,0.231281,-0.00691414,0.279665,-0.129342,0.0100566,0.192567,5,0.1,24,2.2,-3.88425,-2.00204,0.500086,0.552016,-0.00434518,-9.68575e-05,-0.3438,-0.0116825,-0.000745058,0.0112572,2.54655,5,0.1,25,2.2,-4.24594,-2.921,0.675248,-0.694644,0.676316,0.0138983,-0.606775,0.173211,-0.0382662,0.00907331,2.08718,5,0.1,26,2.2,-2.38347,4.53286,0.566267,-0.769025,-0.437963,-0.133473,-0.363946,-0.0543594,0.153959,0.00931492,1.08364,5,0.1,27,2.2,2.16673,-2.93102,0.621433,0.242108,0.210625,0.0191674,-0.191689,-0.166774,-0.015229,0.0101479,0.01114,5,0.1,28,2.2,-2.41242,3.95419,1.21283,0.0166357,-0.200456,0.18391,-0.0172853,0.392079,-0.189126,0.0106977,0.210036,5,0.1,29,2.2,2.74646,-3.80527,0.764588,-0.830269,0.0556588,-0.0135168,0.274897,-0.0550747,0.00157952,0.0333937,0.494926,5,0.1
0,2.3,2.20394,-1.99402,0.596767,-0.126494,0.0869166,0.00393447,0.160784,0.5669,-0.00499934,0.00891721,1.65853,5,0.1,1,2.3,4.37276,0.365034,0.500044,-0.205605,-0.278051,-0.000178069,0.202566,0.170805,0.000186265,0.0200258,0.160408,5,0.1,2,2.3,0.00584412,-2.23054,0.500016,-0.303775,0.14795,-6.77072e-05,0.340165,-0.083074,0.000122935,0.0114033,0.104776,5,0.1,3,2.3,-3.13284,-2.35849,0.595038,0.11957,-0.298641,0.00774851,-0.200614,0.209615,-0.00542775,0.0104728,0.143628,5,0.1,4,2.3,-1.71276,-3.59077,1.21583,0.555293,-0.00941716,0.136718,-0.302635,0.00973046,-0.141367,0.00937642,0.211356,5,0.1,5,2.3,-3.66845,-5.3869,0.610608,0.358108,0.191963,-0.0108145,-0.139147,1.32218,0.0112057,0.0140582,2.17522,5,0.1,6,2.3,4.62234,0.593649,0.605701,-0.277691,-0.221762,0.00699041,0.0632107,-0.154089,-0.0222437,0.0272212,0.211877,5,0.1,7,2.3,3.32561,-0.232189,0.58595,-0.747836,0.195238,0.00717975,-0.968412,-0.237468,-0.00873953,0.0206814,2.39008,5,0.1,8,2.3,1.05454,4.64052,1.22609,-0.174475,0.00461787,0.182345,-0.104725,-0.171006,-0.172935,0.00841035,0.343148,5,0.1,9,2.3,-0.778179,3.90016,0.709387,0.122099,-0.00229441,0.114843,-0.0949241,0.0791103,0.0985637,0.011601,0.33294,5,0.1,10,2.3,2.37225,-5.84992,0.585919,-0.865695,-5.1409e-05,0.0141383,0.0132471,0.000149012,-0.0134073,0.00879082,1.2071,5,0.1,11,2.3,-2.53012,4.7322,0.612007,0.688962,-0.127728,0.0192987,0.483036,-0.036031,-0.00666827,0.0118347,2.53533,5,0.1,12,2.3,-3.93865,-4.09532,0.595825,0.199205,-0.0550203,0.00412464,-0.103861,0.450701,-0.00100583,0.00788176,0.329136,5,0.1,13,2.3,-0.793664,2.22514,0.575902,0.553757,0.131613,0.0202792,-0.424847,-0.132263,-0.0203624,0.00856296,0.151965,5,0.1,14,2.3,1.50968,1.70115,1.30632,-0.0100154,-0.339422,0.200356,0.0076443,0.569537,-0.152685,0.023569,0.146593,5,0.1,15,2.3,-0.114098,3.42229,0.880656,-0.00642149,0.1747,0.161526,-0.200029,-0.0602901,-0.218835,0.00963933,0.261465,5,0.1,16,2.3,-1.62471,0.0959459,1.23841,0.0837993,0.0300647,0.221754,0.199065,-0.14852,-0.273943,0.00858117,0.264824,5,0.1,17,2.3,0.156344,-0.326819,0.619882,0.0486648,0.863218,-0.0138205,0.110843,-0.0829101,0.00254437,0.00916861,2.09229,5,0.1,18,2.3,-2.19399,-2.51021,0.613285,0.741485,0.080362,-0.0126437,-0.381917,-0.431389,0.0098832,0.0133914,0.336704,5,0.1,19,2.3,-2.38778,4.27976,1.1833,-0.006295,-0.421388,0.166286,0.0237823,0.607938,-0.180773,0.0165773,0.162055,5,0.1,20,2.3,-1.13892,0.0205884,0.500652,0.855635,0.23043,0.00215461,-0.032261,0.208417,-0.0103973,0.0108929,0.986667,5,0.1,21,2.3,-4.67129,3.7002,0.967689,0.0312649,0.00303835,0.185528,0.0119507,0.0386834,-0.226967,0.0118377,0.318519,5,0.1,22,2.3,-0.289484,3.00498,0.503377,0.0154052,-0.633051,-0.0269976,0.216613,0.473037,0.148006,0.00683861,0.285137,5,0.1,23,2.3,-4.05726,3.94276,1.21062,0.0112459,-0.17349,0.217365,-0.00798702,0.370681,-0.152439,0.0100566,0.192567,5,0.1,24,2.3,-3.83057,-2.00278,0.500073,0.52314,-0.0114046,-0.000148546,-0.258178,-0.0703037,-0.000309199,0.0112572,2.54655,5,0.1,25,2.3,-4.31857,-2.85228,0.676454,-0.757925,0.699093,0.0103044,-0.604212,0.236064,-0.0334866,0.00907331,2.08718,5,0.1,26,2.3,-2.45981,4.48901,0.553684,-0.736812,-0.436798,-0.118231,0.899285,0.0832975,0.15191,0.00931492,1.08364,5,0.1,27,2.3,2.18997,-2.9108,0.623273,0.222469,0.193541,0.0176082,-0.20434,-0.177756,-0.0162162,0.0101479,0.01114,5,0.1,28,2.3,-2.41084,3.93617,1.23029,0.0149343,-0.159474,0.165248,-0.0169724,0.41905,-0.186339,0.0106977,0.210036,5,0.1,29,2.3,2.66469,-3.79996,0.763248,-0.805625,0.050588,-0.0132463,0.250518,-0.0478625,0.00410154,0.0333937,0.494926,5,0.1
0,2.4,2.19207,-1.98249,0.597136,-0.110883,0.143239,0.00344962,0.153661,0.539482,-0.00479817,0.00886901,3.34888,5,0.1,1,2.4,4.35337,0.338121,0.500027,-0.180805,-0.259665,-0.000146031,0.286102,0.203133,0.000357628,0.0211216,0.144831,5,0.1,2,2.4,-0.0226358,-2.21616,0.50001,-0.264105,0.139493,-5.21541e-05,0.443421,-0.0910759,0.000149012,0.0101909,0.140924,5,0.1,3,2.4,-3.12197,-2.38723,0.595783,0.0971496,-0.275117,0.00713915,-0.240564,0.263572,-0.00685453,0.0112723,0.197816,5,0.1,4,2.4,-1.65879,-3.59166,1.22881,0.523019,-0.00846386,0.122884,-0.358105,0.00941753,-0.138342,0.00922933,0.448301,5,0.1,5,2.4,-3.63346,-5.36098,0.609582,0.34017,0.325871,-0.00971854,-0.22471,1.28722,0.0109673,0.0140276,1.74369,5,0.1,6,2.4,4.59494,0.570819,0.606295,-0.269508,-0.233415,0.00494123,0.109196,-0.0692308,-0.0186861,0.0262497,0.159381,5,0.1,7,2.4,3.24655,-0.213777,0.586627,-0.826973,0.173571,0.00638217,-0.581384,-0.202924,-0.00745058,0.0197813,2.28577,5,0.1,8,2.4,1.03667,4.64,1.24342,-0.181925,-0.015986,0.163749,-0.0481009,-0.225306,-0.199497,0.00980413,0.650492,5,0.1,9,2.4,-0.766537,3.90027,0.721669,0.109909,0.00392795,0.133044,-0.145406,0.0463724,0.233918,0.0120761,0.267414,5,0.1,10,2.4,2.28585,-5.84992,0.587266,-0.860733,-4.76837e-05,0.0128075,0.105977,0.000238419,-0.0135601,0.00857086,1.07651,5,0.1,11,2.4,-2.4587,4.71883,0.61387,0.739068,-0.142968,0.0176713,0.454903,-0.230551,-0.0243485,0.0114297,2.34676,5,0.1,12,2.4,-3.91931,-4.09891,0.596231,0.186783,-0.0199795,0.00396222,-0.147104,0.256777,-0.00226498,0.00714962,0.727286,5,0.1,13,2.4,-0.740441,2.23765,0.577829,0.51011,0.118601,0.0182748,-0.460386,-0.130892,-0.0201464,0.00973767,0.101864,5,0.1,14,2.4,1.50871,1.67013,1.32565,-0.00932515,-0.280541,0.186616,0.00655651,0.59545,-0.131726,0.0222232,0.123054,5,0.1,15,2.4,-0.11587,3.43965,0.895648,-0.0298804,0.173885,0.137746,-0.252113,0.0231266,-0.252694,0.0104413,0.209234,5,0.1,16,2.4,-1.61545,0.0982675,1.2592,0.100017,0.016965,0.193906,0.121593,-0.112649,-0.283837,0.00797382,0.25582,5,0.1,17,2.4,0.161729,-0.241238,0.618515,0.0585701,0.844615,-0.0134856,0.082925,-0.310675,0.00461936,0.00918934,1.9282,5,0.1,18,2.4,-2.12188,-2.50413,0.612071,0.699091,0.0431776,-0.0116333,-0.483274,-0.311255,0.0106394,0.012166,0.518868,5,0.1,19,2.4,-2.38829,4.24068,1.19903,-0.00392199,-0.360167,0.148502,0.0230074,0.615597,-0.178099,0.0166865,0.452364,5,0.1,20,2.4,-1.0537,0.0445293,0.50081,0.846073,0.246676,0.000959635,-0.191718,0.106193,-0.012815,0.00969398,0.704947,5,0.1,21,2.4,-4.66814,3.70068,0.985075,0.0314355,0.00637174,0.161898,-0.00810623,0.0206232,-0.245064,0.0133457,0.472042,5,0.1,22,2.4,-0.28693,2.944,0.501349,0.0348985,-0.586337,-0.0142708,0.169083,0.480652,0.105888,0.0069497,0.513264,5,0.1,23,2.4,-4.05618,3.92733,1.23154,0.0103593,-0.134635,0.200251,-0.0100136,0.397086,-0.191748,0.00970038,0.41134,5,0.1,24,2.4,-3.77957,-2.00401,0.500057,0.496203,-0.00982285,-0.000162423,-0.297904,0.128746,-2.98023e-05,0.0116752,2.31999,5,0.1,25,2.4,-4.39701,-2.7814,0.677326,-0.806201,0.715643,0.00722259,-0.323296,0.0623465,-0.0281036,0.00914479,1.54504,5,0.1,26,2.4,-2.52766,4.44601,0.542623,-0.608933,-0.420499,-0.102933,1.56951,0.245094,0.154614,0.0067737,0.183099,5,0.1,27,2.4,2.21115,-2.89237,0.624949,0.200731,0.174636,0.0158846,-0.2321,-0.201941,-0.018388,0.00966862,0.00562877,5,0.1,28,2.4,-2.40943,3.92231,1.24587,0.0132143,-0.118148,0.146285,-0.017643,0.400901,-0.194192,0.0112068,0.411972,5,0.1,29,2.4,2.58556,-3.79514,0.76195,-0.774688,0.0458181,-0.0126556,0.390172,-0.0485182,0.00792742,0.0335475,0.723649,5,0.1
0,2.5,2.18129,-1.96612,0.597458,-0.108669,0.179516,0.00300221,-0.0804514,0.251852,-0.00421703,0.00886901,3.34888,5,0.1,1,2.5,4.33683,0.313146,0.500014,-0.149284,-0.23994,-0.000104588,0.33626,0.19717,0.00044331,0.0211216,0.144831,5,0.1,2,2.5,-0.0467182,-2.2026,0.500005,-0.216676,0.132168,-3.62284e-05,0.495697,-0.0627041,0.000160187,0.0101909,0.140924,5,0.1,3,2.5,-3.11348,-2.41346,0.596464,0.0726815,-0.249646,0.00647651,-0.243381,0.251263,-0.00653788,0.0112723,0.197816,5,0.1,4,2.5,-1.60832,-3.59246,1.24045,0.48596,-0.00760891,0.11035,-0.39085,0.00794232,-0.115961,0.00922933,0.448301,5,0.1,5,2.5,-3.60056,-5.32169,0.608661,0.317839,0.460743,-0.00872519,-0.229314,1.34131,0.00918657,0.0140276,1.74369,5,0.1,6,2.5,4.56854,0.547216,0.606711,-0.258097,-0.237632,0.00351742,0.125825,-0.00904128,-0.0103861,0.0262497,0.159381,5,0.1,7,2.5,3.16178,-0.197299,0.587233,-0.861089,0.157119,0.00577811,-0.147551,-0.135447,-0.00496954,0.0197813,2.28577,5,0.1,8,2.5,1.01842,4.63731,1.25881,-0.182384,-0.0372425,0.14423,-0.00692904,-0.194848,-0.192329,0.00980413,0.650492,5,0.1,9,2.5,-0.756311,3.90085,0.736433,0.0942747,0.00739358,0.164337,-0.164811,0.0238866,0.361234,0.0120761,0.267414,5,0.1,10,2.5,2.20137,-5.84993,0.588483,-0.819338,-2.83122e-05,0.0115717,0.685036,0.000119209,-0.0115335,0.00857086,1.07651,5,0.1,11,2.5,-2.38214,4.70295,0.615496,0.793982,-0.177884,0.0146742,0.576109,-0.427961,-0.0343062,0.0114297,2.34676,5,0.1,12,2.5,-3.90136,-4.09979,0.596615,0.172251,0.000672042,0.00372631,-0.147074,0.15372,-0.00252202,0.00714962,0.727286,5,0.1,13,2.5,-0.691595,2.2489,0.579563,0.467788,0.106711,0.0164444,-0.401016,-0.110388,-0.0169948,0.00973767,0.101864,5,0.1,14,2.5,1.50781,1.64511,1.34374,-0.00877641,-0.22008,0.175595,0.00484288,0.589311,-0.0971928,0.0222232,0.123054,5,0.1,15,2.5,-0.12024,3.45737,0.908145,-0.0583012,0.181898,0.112133,-0.299785,0.116378,-0.256479,0.0104413,0.209234,5,0.1,16,2.5,-1.60496,0.099414,1.27719,0.108704,0.00624888,0.166004,0.0517443,-0.095923,-0.274315,0.00797382,0.25582,5,0.1,17,2.5,0.167999,-0.159352,0.617187,0.066672,0.784229,-0.013094,0.0743903,-0.844522,0.00378489,0.00918934,1.9282,5,0.1,18,2.5,-2.0541,-2.50118,0.610957,0.658525,0.0176735,-0.0106576,-0.359237,-0.200272,0.00922009,0.012166,0.518868,5,0.1,19,2.5,-2.38854,4.2077,1.21303,-0.00083223,-0.299948,0.131674,0.0364482,0.587165,-0.161178,0.0166865,0.452364,5,0.1,20,2.5,-0.969897,0.0696247,0.500847,0.830461,0.254029,-0.000159163,-0.157971,0.0342809,-0.00954792,0.00969398,0.704947,5,0.1,21,2.5,-4.66506,3.70146,1.00005,0.0299908,0.00886172,0.137645,-0.0204742,0.00822544,-0.239506,0.0133457,0.472042,5,0.1,22,2.5,-0.282626,2.88725,0.500377,0.0507403,-0.552942,-0.00586351,0.143202,0.229135,0.0636168,0.0069497,0.513264,5,0.1,23,2.5,-4.0552,3.91583,1.2506,0.00935644,-0.095769,0.180946,-0.0101924,0.373125,-0.19636,0.00970038,0.41134,5,0.1,24,2.5,-3.73129,-2.00408,0.500041,0.470218,0.0131596,-0.000153575,-0.241593,0.403866,0.00018999,0.0116752,2.31999,5,0.1,25,2.5,-4.47928,-2.70941,0.677916,-0.838301,0.724176,0.00465093,-0.274748,0.0709891,-0.023257,0.00914479,1.54504,5,0.1,26,2.5,-2.58103,4.4049,0.533064,-0.461883,-0.40369,-0.0885849,1.3686,0.118285,0.134271,0.0067737,0.183099,5,0.1,27,2.5,2.23008,-2.8759,0.626447,0.177924,0.154794,0.0140782,-0.226498,-0.197023,-0.0179335,0.00966862,0.00562877,5,0.1,28,2.5,-2.40819,3.91242,1.2596,0.0116426,-0.0804577,0.12896,-0.0142306,0.348613,-0.156932,0.0112068,0.411972,5,0.1,29,2.5,2.5096,-3.79078,0.760724,-0.747492,0.0413835,-0.0118452,0.200137,-0.041455,0.00851974,0.0335475,0.723649,5,0.1
0,2.6,2.16983,-1.94698,0.597738,-0.121838,0.203371,0.00259578,-0.160575,0.257075,-0.00393391,0.0102841,3.15262,5,0.1,1,2.6,4.32361,0.290166,0.500006,-0.115025,-0.219274,-6.10948e-05,0.342846,0.219926,0.00038743,0.0211215,0.205079,5,0.1,2,2.6,-0.0658867,-2.1897,0.500002,-0.166687,0.125718,-2.23517e-05,0.496332,-0.0715256,0.000178814,0.0106785,0.256979,5,0.1,3,2.6,-3.10739,-2.43715,0.597078,0.0494063,-0.223976,0.00580996,-0.218391,0.265837,-0.00694394,0.0114683,0.191778,5,0.1,4,2.6,-1.56178,-3.59319,1.25092,0.443619,-0.00683665,0.0990719,-0.460386,0.0077486,-0.112176,0.00897408,0.916874,5,0.1,5,2.6,-3.56998,-5.26929,0.607833,0.293082,0.582314,-0.00783205,-0.270486,1.04117,0.00888109,0.0129991,1.32311,5,0.1,6,2.6,4.54343,0.523547,0.60702,-0.243235,-0.234261,0.00275522,0.175714,0.0799596,-0.00527501,0.0265046,0.237999,5,0.1,7,2.6,3.0753,-0.182215,0.587787,-0.866026,0.144856,0.00532717,0,-0.116728,-0.00429153,0.0171394,2.26025,5,0.1,8,2.6,1,4.6327,1.27227,-0.187677,-0.054121,0.125054,-0.0967681,-0.139952,-0.191987,0.00942918,1.13485,5,0.1,9,2.6,-0.747723,3.90168,0.754675,0.0774041,0.00888705,0.199941,-0.170529,0.00667572,0.328094,0.0121506,0.210284,5,0.1,10,2.6,2.12356,-5.84993,0.589584,-0.730604,-1.19209e-05,0.0104398,1.05762,-0.000238419,-0.0114441,0.00824328,1.00437,5,0.1,11,2.6,-2.30011,4.68297,0.616784,0.842959,-0.221598,0.0110418,0.357389,-0.416517,-0.0373125,0.0110081,2.23735,5,0.1,12,2.6,-3.8849,-4.09914,0.596975,0.156784,0.01055,0.00344515,-0.16439,0.0441074,-0.00312924,0.00827603,2.09784,5,0.1,13,2.6,-0.646823,2.25903,0.581124,0.42737,0.0959396,0.0147849,-0.417709,-0.107646,-0.0165701,0.00942912,0.11811,5,0.1,14,2.6,1.50696,1.62588,1.36081,-0.00828505,-0.166377,0.165725,0.00530481,0.472188,-0.106335,0.0220895,0.259503,5,0.1,15,2.6,-0.127536,3.47615,0.918091,-0.0869706,0.193554,0.0870049,-0.261441,0.101328,-0.243604,0.0103156,0.197189,5,0.1,16,2.6,-1.59395,0.0996233,1.29244,0.110358,-0.00133961,0.139049,-0.018239,-0.0527948,-0.264704,0.00707732,0.621485,5,0.1,17,2.6,0.174992,-0.0856796,0.615899,0.0726536,0.684955,-0.0126302,0.0420064,-1.10104,0.00587106,0.0087587,1.78462,5,0.1,18,2.6,-1.99005,-2.50024,0.609938,0.621903,0.00272989,-0.00972897,-0.395477,-0.101209,0.00950694,0.0124862,0.408385,5,0.1,19,2.6,-2.38843,4.18058,1.2254,0.00295639,-0.243068,0.115809,0.0375509,0.549555,-0.157893,0.0155186,0.43948,5,0.1,20,2.6,-0.887835,0.095037,0.500789,0.808153,0.252496,-0.000950694,-0.313967,-0.0687128,-0.00631809,0.00990904,0.50676,5,0.1,21,2.6,-4.66218,3.70224,1.01263,0.0274181,0.00510812,0.114107,-0.0305176,-0.0915527,-0.230849,0.012166,1.53564,5,0.1,22,2.6,-0.276909,2.83297,0.50005,0.0627823,-0.533229,-0.00124276,0.0946373,0.196338,0.0304878,0.00788719,2.74208,5,0.1,23,2.6,-4.05431,3.90803,1.26769,0.00830889,-0.0611901,0.160667,-0.0107288,0.313878,-0.210345,0.0098472,0.361348,5,0.1,24,2.6,-3.68552,-2,0.500027,0.44452,0.0754446,-0.00012815,-0.286341,0.813782,0.000327826,0.0103578,2.00009,5,0.1,25,2.6,-4.56411,-2.63687,0.678273,-0.853777,0.723529,0.00257939,-0.00476837,-0.109434,-0.01809,0.0090589,1.08147,5,0.1,26,2.6,-2.62073,4.3651,0.524856,-0.335658,-0.392151,-0.0757515,1.15466,0.132561,0.123769,0.0219278,2.5176,5,0.1,27,2.6,2.24674,-2.86141,0.627765,0.155061,0.134909,0.0122681,-0.23222,-0.20206,-0.0183582,0.00953638,0.00174072,5,0.1,28,2.6,-2.40709,3.906,1.27175,0.0102997,-0.0490963,0.114104,-0.0128746,0.276089,-0.143588,0.0108492,0.360979,5,0.1,29,2.6,2.43585,-3.78685,0.759585,-0.726664,0.0373006,-0.0109136,0.249863,-0.041008,0.0102818,0.0317444,2.57614,5,0.1
0,2.7,2.15664,-1.92546,0.597979,-0.143492,0.229276,0.00223788,-0.249758,0.370912,-0.00328943,0.0102841,3.15262,5,0.1,1,2.7,4.31379,0.269277,0.500002,-0.0818819,-0.198966,-2.7474e-05,0.315249,0.19246,0.000279397,0.0211215,0.205079,5,0.1,2,2.7,-0.0801159,-2.17749,0.500001,-0.118518,0.118151,-8.84756e-06,0.459344,-0.0819415,9.31323e-05,0.0106785,0.256979,5,0.1,3,2.7,-3.10348,-2.45824,0.597625,0.0296161,-0.197982,0.00513159,-0.174791,0.256419,-0.00668317,0.0114683,0.191778,5,0.1,4,2.7,-1.52003,-3.59383,1.2603,0.388643,-0.00613779,0.0889566,-0.623189,0.0064373,-0.0931472,0.00897408,0.916874,5,0.1,5,2.7,-3.54197,-5.20588,0.607091,0.267292,0.684168,-0.00703158,-0.25177,0.942796,0.00737235,0.0129991,1.32311,5,0.1,6,2.7,4.51995,0.50061,0.607306,-0.226797,-0.223559,0.00326484,0.160396,0.135656,0.0132248,0.0265046,0.237999,5,0.1,7,2.7,2.9887,-0.168206,0.588303,-0.866026,0.136175,0.00500809,0,-0.0659004,-0.00242144,0.0171394,2.26025,5,0.1,8,2.7,0.981002,4.62678,1.28386,-0.190072,-0.0625804,0.106926,0.0358038,-0.0368953,-0.172041,0.00942918,1.13485,5,0.1,9,2.7,-0.740827,3.90258,0.776398,0.0606307,0.00898093,0.234787,-0.163335,-0.00411272,0.345293,0.0121506,0.210284,5,0.1,10,2.7,2.05638,-5.84993,0.590574,-0.608201,-3.20375e-05,0.00940273,1.33899,-0.000149012,-0.00960752,0.00824328,1.00437,5,0.1,11,2.7,-2.21457,4.65852,0.617698,0.863285,-0.268409,0.0072144,0.0836551,-0.48551,-0.0382885,0.0110081,2.23735,5,0.1,12,2.7,-3.86979,-4.09775,0.597288,0.147327,0.0172153,0.0027027,-0.041604,0.0416636,-0.0108108,0.00827603,2.09784,5,0.1,13,2.7,-0.605834,2.26817,0.582532,0.39513,0.0875279,0.0134896,-0.25307,-0.0664592,-0.0102408,0.00942912,0.11811,5,0.1,14,2.7,1.50615,1.61147,1.37688,-0.00779592,-0.124821,0.15593,0.00475347,0.30598,-0.0950471,0.0220895,0.259503,5,0.1,15,2.7,-0.13749,3.49636,0.925571,-0.11139,0.213168,0.0626637,-0.218591,0.258148,-0.239052,0.0103156,0.197189,5,0.1,16,2.7,-1.58305,0.099161,1.30507,0.106985,-0.00783114,0.114014,-0.0498593,-0.0498453,-0.236526,0.00707732,0.621485,5,0.1,17,2.7,0.18246,-0.0231442,0.614663,0.0765461,0.563253,-0.0120996,0.0321064,-1.25462,0.00521168,0.0087587,1.78462,5,0.1,18,2.7,-1.92964,-2.50039,0.609009,0.58763,-0.00470541,-0.00886032,-0.315204,-0.0405461,0.00814721,0.0124862,0.408385,5,0.1,19,2.7,-2.38793,4.1589,1.23623,0.0072334,-0.191637,0.101061,0.0454932,0.47943,-0.139192,0.0155186,0.43948,5,0.1,20,2.7,-0.808467,0.119614,0.500669,0.779649,0.236079,-0.00138413,-0.286534,-0.24685,-0.0025481,0.00990904,0.50676,5,0.1,21,2.7,-4.6596,3.70233,1.02292,0.0242092,-0.00562854,0.0922,-0.033468,-0.220999,-0.207283,0.012166,1.53564,5,0.1,22,2.7,-0.269749,2.77964,0.500043,0.0837164,-0.541125,0.000783242,0.292858,-0.276893,0.0113696,0.00788719,2.74208,5,0.1,23,2.7,-4.05354,3.90339,1.28271,0.00723898,-0.0326522,0.139709,-0.0106692,0.250816,-0.208989,0.0098472,0.361348,5,0.1,24,2.7,-3.64238,-1.98807,0.500016,0.418869,0.165443,-9.4343e-05,-0.242829,0.952095,0.000339001,0.0103578,2.00009,5,0.1,25,2.7,-4.64953,-2.565,0.678447,-0.853877,0.713951,0.000964943,0.038147,-0.112176,-0.0141598,0.0090589,1.08147,5,0.1,26,2.7,-2.65068,4.32654,0.517916,-0.281855,-0.378732,-0.062948,0.0353903,0.1477,0.130568,0.0219278,2.5176,5,0.1,27,2.7,2.2611,-2.84892,0.628901,0.13232,0.115122,0.0104698,-0.222996,-0.193998,-0.0176318,0.00953638,0.00174072,5,0.1,28,2.7,-2.40613,3.90238,1.28246,0.00905879,-0.02428,0.100261,-0.0120848,0.214815,-0.134602,0.0108492,0.360979,5,0.1,29,2.7,2.36417,-3.78332,0.759018,-0.708762,0.0333063,0.0035529,0.146568,-0.0393689,0.249315,0.0317444,2.57614,5,0.1
0,2.8,2.14105,-1.9,0.598187,-0.167829,0.286332,0.00192821,-0.220299,0.748158,-0.00298023,0.010309,2.85519,5,0.1,1,2.8,4.3071,0.250339,0.5,-0.052774,-0.179729,-7.45058e-06,0.263691,0.196539,0.000149012,0.0173911,0.325976,5,0.1,2,2.8,-0.0897836,-2.16612,0.5,-0.0760918,0.108999,-1.49012e-06,0.384137,-0.102282,0,0.0111021,0.254608,5,0.1,3,2.8,-3.1013,-2.47675,0.598105,0.0148058,-0.172311,0.0044629,-0.120759,0.258207,-0.00670552,0.0128793,0.30149,5,0.1,4,2.8,-1.48444,-3.59442,1.26874,0.321916,-0.00550747,0.0799268,-0.697911,0.00607967,-0.0896454,0.00899988,0.912272,5,0.1,5,2.8,-3.51652,-5.13327,0.606424,0.241649,0.761914,-0.0063166,-0.26536,0.576019,0.00709295,0.0120722,0.949571,5,0.1,6,2.8,4.49809,0.479033,0.607714,-0.209928,-0.206944,0.00500232,0.18239,0.196934,0.0197589,0.0255809,0.192823,5,0.1,7,2.8,2.9021,-0.154895,0.588792,-0.866026,0.130114,0.00478476,0,-0.0619367,-0.00229478,0.0211391,2.26874,5,0.1,8,2.8,0.962308,4.62045,1.29371,-0.182697,-0.0628591,0.0903964,0.102907,0.0255108,-0.159621,0.01145,1.39316,5,0.1,9,2.8,-0.735558,3.90345,0.801473,0.0450194,0.00818968,0.264977,-0.1477,-0.0110865,0.241786,0.011191,0.156959,5,0.1,10,2.8,2.00238,-5.84994,0.591467,-0.47169,-4.76837e-05,0.00846535,1.35368,0,-0.00935793,0.00769042,0.968149,5,0.1,11,2.8,-2.12804,4.62937,0.618233,0.866026,-0.312793,0.00355095,0,-0.377655,-0.0343025,0.0110215,2.18616,5,0.1,12,2.8,-3.85518,-4.09611,0.597498,0.145513,0.0121832,0.0014469,-0.0077486,-0.162363,-0.0136495,0.00828018,1.93898,5,0.1,13,2.8,-0.567489,2.27662,0.583834,0.37224,0.0816286,0.0125796,-0.223935,-0.0559092,-0.00858307,0.00840316,0.0722187,5,0.1,14,2.8,1.5054,1.6,1.39198,-0.00728965,-0.109628,0.145787,0.00560284,0.0063777,-0.111461,0.0238782,0.202717,5,0.1,15,2.8,-0.149595,3.519,0.930678,-0.129303,0.239474,0.0399187,-0.134155,0.243783,-0.212759,0.00905372,0.19702,5,0.1,16,2.8,-1.57266,0.0982966,1.31533,0.100318,-0.00745188,0.0916511,-0.0834465,0.0688061,-0.21112,0.00673436,1.78701,5,0.1,17,2.8,0.190234,0.027146,0.613481,0.0784524,0.446072,-0.0115082,0.00352412,-1.04698,0.00691414,0.00985948,1.63639,5,0.1,18,2.8,-1.87249,-2.50093,0.608164,0.554562,-0.00457764,-0.00804961,-0.363886,0.0441074,0.00828505,0.0121372,0.320234,5,0.1,19,2.8,-2.38698,4.14202,1.24566,0.0116229,-0.147092,0.0876099,0.0404119,0.411749,-0.131249,0.0150863,0.908281,5,0.1,20,2.8,-0.732092,0.141782,0.500523,0.745724,0.205492,-0.00149757,-0.412762,-0.354007,0.000149012,0.0100572,0.311641,5,0.1,21,2.8,-4.65735,3.7,1.03115,0.0207543,-0.0475764,0.0726491,-0.0352859,-0.605106,-0.183702,0.0109991,2.48456,5,0.1,22,2.8,-0.259797,2.72389,0.500155,0.115857,-0.575048,0.00127703,0.326201,-0.343323,-0.00038743,0.00741153,2.56907,5,0.1,23,2.8,-4.05287,3.90124,1.29564,0.00617504,-0.0119209,0.118858,-0.0107288,0.161171,-0.207782,0.0121385,0.785716,5,0.1,24,2.8,-3.60175,-1.96678,0.500008,0.393212,0.259399,-6.25849e-05,-0.281572,0.896573,0.000327826,0.0105854,1.69818,5,0.1,25,2.8,-4.73442,-2.49437,0.67848,-0.840235,0.696045,-0.000247359,0.257969,-0.266314,-0.010103,0.00760548,0.73693,5,0.1,26,2.8,-2.67976,4.28951,0.512273,-0.308204,-0.360632,-0.0499532,-0.472784,0.222206,0.127912,0.0209928,2.00886,5,0.1,27,2.8,2.27323,-2.83836,0.629861,0.11043,0.0960767,0.00873804,-0.214934,-0.18692,-0.0169873,0.00944552,0.000897179,5,0.1,28,2.8,-2.40528,3.9009,1.29182,0.00786185,-0.00690818,0.0869632,-0.0119209,0.130177,-0.132143,0.0107,0.545228,5,0.1,29,2.8,2.29411,-3.78019,0.760812,-0.690794,0.0293493,0.0336602,0.23973,-0.0401735,0.329673,0.030987,2.92115,5,0.1
0,2.9,2.12323,-1.86653,0.598366,-0.187669,0.39129,0.00166353,-0.167176,1.24783,-0.00237674,0.010309,2.85519,5,0.1,1,2.9,4.3031,0.233342,0.5,-0.0278451,-0.160214,1.95578e-06,0.225812,0.195361,4.84288e-05,0.0173911,0.325976,5,0.1,2,2.9,-0.0956306,-2.15573,0.5,-0.0424932,0.0987377,-1.11759e-06,0.285797,-0.104204,7.45058e-06,0.0111021,0.254608,5,0.1,3,2.9,-3.1004,-2.49271,0.598518,0.00374243,-0.146826,0.00380147,-0.0950992,0.251204,-0.00651926,0.0128793,0.30149,5,0.1,4,2.9,-1.45579,-3.59494,1.27632,0.250902,-0.00496022,0.071873,-0.709534,0.00505149,-0.073947,0.00899988,0.912272,5,0.1,5,2.9,-3.49361,-5.05429,0.605825,0.21688,0.815519,-0.00567958,-0.235617,0.454217,0.00584871,0.0120722,0.949571,5,0.1,6,2.9,4.47792,0.459346,0.608325,-0.194121,-0.186551,0.00729794,0.142366,0.212027,0.0246055,0.0255809,0.192823,5,0.1,7,2.9,2.8155,-0.142122,0.589475,-0.866026,0.125837,0.010685,0,-0.0313651,0.106547,0.0211391,2.26874,5,0.1,8,2.9,0.944858,4.61441,1.30199,-0.164519,-0.0571474,0.0756588,0.21299,0.0756979,-0.136524,0.01145,1.39316,5,0.1,9,2.9,-0.731768,3.9042,0.829186,0.0310649,0.00686608,0.288874,-0.130344,-0.0148863,0.217803,0.011191,0.156959,5,0.1,10,2.9,1.96191,-5.84994,0.59227,-0.339777,-4.76837e-05,0.00762073,1.2354,0,-0.00778958,0.00769042,0.968149,5,0.1,11,2.9,-2.04144,4.59603,0.61842,0.866026,-0.354865,0.000248011,0,-0.428855,-0.0310875,0.0110215,2.18616,5,0.1,12,2.9,-3.84055,-4.09594,0.59757,0.147958,-0.0132293,-5.15021e-05,0.0436157,-0.412166,-0.0156425,0.00828018,1.93898,5,0.1,13,2.9,-0.531391,2.28447,0.585069,0.349472,0.0750318,0.0122664,-0.239268,-0.0754893,0.000849366,0.00840316,0.0722187,5,0.1,14,2.9,1.50469,1.58877,1.40602,-0.00674948,-0.117437,0.135037,0.00537932,-0.139035,-0.107028,0.0238782,0.202717,5,0.1,15,2.9,-0.163405,3.54423,0.933644,-0.14841,0.265265,0.0198291,-0.225367,0.250742,-0.186469,0.00905372,0.19702,5,0.1,16,2.9,-1.56306,0.0978961,1.32349,0.0916226,0.00229966,0.0721747,-0.0912175,0.228629,-0.179105,0.00673436,1.78701,5,0.1,17,2.9,0.198094,0.0669151,0.612362,0.0786228,0.35554,-0.0108718,-0.00313669,-0.683281,0.00619516,0.00985948,1.63639,5,0.1,18,2.9,-1.8187,-2.50108,0.607397,0.522169,0.00288337,-0.00729635,-0.304535,0.120968,0.00701845,0.0121372,0.320234,5,0.1,19,2.9,-2.38557,4.12921,1.25378,0.0170507,-0.110738,0.0751736,0.0632703,0.319004,-0.118472,0.0150863,0.908281,5,0.1,20,2.9,-0.65946,0.160453,0.500377,0.70752,0.167101,-0.00138851,-0.376329,-0.404092,0.00188127,0.0100572,0.311641,5,0.1,21,2.9,-4.65545,3.6909,1.03754,0.0173114,-0.144918,0.0556709,-0.033468,-1.23838,-0.156112,0.0109991,2.48456,5,0.1,22,2.9,-0.246415,2.66386,0.500274,0.152788,-0.631385,0.00102492,0.387432,-0.699177,-0.00422075,0.00741153,2.56907,5,0.1,23,2.9,-4.0523,3.90086,1.30652,0.00515431,0.00347458,0.0990624,-0.00971556,0.118449,-0.188626,0.0121385,0.785716,5,0.1,24,2.9,-3.56373,-1.93691,0.500004,0.367651,0.334693,-3.43658e-05,-0.242963,0.686824,0.000234693,0.0105854,1.69818,5,0.1,25,2.9,-4.8172,-2.42602,0.678409,-0.815234,0.671101,-0.00111982,0.270993,-0.257134,-0.00731647,0.00760548,0.73693,5,0.1,26,2.9,-2.71389,4.25452,0.507903,-0.381631,-0.339284,-0.0376041,-0.909418,0.214726,0.117932,0.0209928,2.00886,5,0.1,27,2.9,2.28322,-2.82967,0.630652,0.0897415,0.0780843,0.00710264,-0.198394,-0.172555,-0.0156909,0.00944552,0.000897179,5,0.1,28,2.9,-2.40455,3.90083,1.29988,0.00674576,0.00482127,0.0745866,-0.0105202,0.0829697,-0.116661,0.0107,0.545228,5,0.1,29,2.9,2.22703,-3.77744,0.766026,-0.643522,0.025649,0.071997,0.673294,-0.0344664,0.41309,0.030987,2.92115,5,0.1
0,3,2.10377,-1.82104,0.598521,-0.199735,0.517848,0.00144243,-0.0680685,1.20598,-0.00208616,0.0088823,2.48697,5,0.1,1,3,4.30132,0.218306,0.5,-0.00901222,-0.140412,4.47035e-06,0.145912,0.201538,-2.98023e-05,0.0183905,0.477536,5,0.1,2,3,-0.0986235,-2.14639,0.5,-0.0190828,0.0879645,0,0.182942,-0.112057,0,0.0125082,0.251839,5,0.1,3,3,-3.10042,-2.50615,0.598866,-0.00341535,-0.122148,0.00316203,-0.0452995,0.241995,-0.00628829,0.0113958,1.27796,5,0.1,4,3,-1.43418,-3.59541,1.28315,0.182244,-0.00447035,0.0647068,-0.654101,0.00488758,-0.0711679,0.00945903,0.645826,5,0.1,5,3,-3.47309,-4.97095,0.605286,0.193584,0.84579,-0.00511259,-0.234127,0.123024,0.00560284,0.0125001,0.653204,5,0.1,6,3,4.45921,0.441782,0.609175,-0.179982,-0.1644,0.00965744,0.146151,0.231266,0.0213981,0.0251084,0.160525,5,0.1,7,3,2.72889,-0.129697,0.591163,-0.866026,0.122506,0.0236526,0,-0.0408404,0.142068,0.0183135,2.26402,5,0.1,8,3,0.929361,4.60908,1.30891,-0.147167,-0.0497341,0.0628501,0.111043,0.0655651,-0.120759,0.0101349,1.61921,5,0.1,9,3,-0.729277,3.90481,0.859,0.0191242,0.00529885,0.305447,-0.107795,-0.0160933,0.101089,0.0102369,0.190053,5,0.1,10,3,1.93361,-5.84995,0.592994,-0.231853,-4.76837e-05,0.00686347,0.899732,0,-0.00756979,0.00822741,0.901203,5,0.1,11,3,-1.95483,4.55855,0.618299,0.866026,-0.39258,-0.00255257,-5.96046e-05,-0.300169,-0.0244677,0.0106027,2.1512,5,0.1,12,3,-3.82554,-4.1,0.597487,0.151986,-0.0742435,-0.00156462,0.0270605,-0.781536,-0.0140965,0.00686726,1.67037,5,0.1,13,3,-0.497717,2.29156,0.586305,0.32311,0.0666499,0.0124931,-0.292838,-0.0913143,0.0025332,0.0093979,0.0631865,5,0.1,14,3,1.50405,1.57625,1.41897,-0.00618696,-0.133312,0.123805,0.00602007,-0.160694,-0.119925,0.0229557,0.188467,5,0.1,15,3,-0.179371,3.57188,0.934755,-0.170447,0.286001,0.00305027,-0.1987,0.148892,-0.147432,0.0102571,0.123,5,0.1,16,3,-1.55437,0.1,1.32986,0.0819623,0.0470039,0.0557005,-0.102341,0.650343,-0.151098,0.00799033,1.56415,5,0.1,17,3,0.205909,0.1,0.611308,0.0773236,0.315362,-0.0102043,-0.0248477,-0.141211,0.00745058,0.00936903,1.46306,5,0.1,18,3,-1.76804,-2.5,0.606702,0.490165,0.0203967,-0.00660419,-0.349939,0.221014,0.00700355,0.00991853,0.245682,5,0.1,19,3,-2.38354,4.1196,1.26072,0.0234246,-0.082624,0.0637442,0.0606775,0.246525,-0.110686,0.0164093,0.880956,5,0.1,20,3,-0.590696,0.175126,0.500249,0.66625,0.126406,-0.00115037,-0.466108,-0.40222,0.00277162,0.00906547,0.267397,5,0.1,21,3,-4.65388,3.66987,1.04237,0.0140786,-0.277036,0.0413775,-0.0314713,-1.32501,-0.130057,0.0113785,2.02353,5,0.1,22,3,-0.229267,2.59721,0.500352,0.189026,-0.700241,0.00050962,0.319153,-0.615716,-0.00575185,0.00847373,2.02407,5,0.1,23,3,-4.05183,3.90156,1.31551,0.00422001,0.00784397,0.0810474,-0.00882149,-0.0420809,-0.171959,0.0104044,1.65955,5,0.1,24,3,-3.52821,-1.9,0.500001,0.342369,0.403535,-1.49012e-05,-0.271916,0.680268,0.000149012,0.0103946,1.3723,5,0.1,25,3,-4.89716,-2.36034,0.678265,-0.781202,0.640506,-0.00170618,0.428677,-0.371337,-0.00447035,0.0084769,0.494135,5,0.1,26,3,-2.75673,4.22172,0.504708,-0.474977,-0.316012,-0.0265598,-0.892639,0.257492,0.102162,0.0185526,1.58921,5,0.1,27,3,2.29124,-2.8227,0.631286,0.0708282,0.0616372,0.00560731,-0.17941,-0.156164,-0.0142157,0.0109354,0.000750506,5,0.1,28,3,-2.40393,3.90152,1.30677,0.00573397,0.00675917,0.0634134,-0.00965595,-0.0519753,-0.107706,0.0110555,1.00064,5,0.1,29,3,2.16654,-3.77504,0.775267,-0.56209,0.0223398,0.112103,0.927925,-0.0320673,0.371277,0.0312644,3.26685,5,0.1
0,3.1,2.08349,-1.76281,0.598656,-0.205531,0.648792,0.00126073,-0.0394583,1.32918,-0.0016056,0.0088823,2.48697,5,0.1,1,3.1,4.30109,0.205261,0.500001,0.00338107,-0.120597,1.95578e-06,0.0839233,0.194944,-1.86265e-05,0.0183905,0.477536,5,0.1,2,3.1,-0.0997789,-2.13814,0.5,-0.00552909,0.0770535,0,0.0927127,-0.106916,0,0.0125082,0.251839,5,0.1,3,3.1,-3.10113,-2.51719,0.599152,-0.0110887,-0.0992142,0.00256654,-0.066191,0.216872,-0.00562519,0.0113958,1.27796,5,0.1,4,3.1,-1.41913,-3.59583,1.28929,0.120081,-0.00403151,0.0583287,-0.57596,0.00402331,-0.0584722,0.00945903,0.645826,5,0.1,5,3.1,-3.45484,-4.88582,0.604801,0.172038,0.855418,-0.00461033,-0.201553,0.0358224,0.00460818,0.0125001,0.653204,5,0.1,6,3.1,4.44185,0.426463,0.610247,-0.167972,-0.142287,0.0117382,0.102937,0.212979,0.0192747,0.0251084,0.160525,5,0.1,7,3.1,2.64229,-0.117588,0.594107,-0.866026,0.120097,0.0339873,0,-0.0149291,0.0676587,0.0183135,2.26402,5,0.1,8,3.1,0.915107,4.60441,1.31463,-0.141076,-0.0442713,0.0518935,-0.0697188,0.0288486,-0.0996217,0.0101349,1.61921,5,0.1,9,3.1,-0.727893,3.90525,0.890309,0.00873255,0.00352524,0.32252,-0.0982173,-0.0187308,0.208464,0.0102369,0.190053,5,0.1,10,3.1,1.91436,-5.84995,0.593646,-0.159969,-4.76837e-05,0.00618277,0.494234,0,-0.00625476,0.00822741,0.901203,5,0.1,11,3.1,-1.86823,4.51767,0.617926,0.866025,-0.425436,-0.00486299,1.49012e-05,-0.324428,-0.0211447,0.0106027,2.1512,5,0.1,12,3.1,-3.81015,-4.11217,0.59726,0.15601,-0.175444,-0.00296896,0.0432134,-1.16298,-0.0134818,0.00686726,1.67037,5,0.1,13,3.1,-0.466693,2.29789,0.58757,0.298727,0.0609219,0.0128017,-0.210898,-0.0308752,0.0028871,0.0093979,0.0631865,5,0.1,14,3.1,1.50346,1.56237,1.43077,-0.00560377,-0.141956,0.112174,0.0057593,-0.0175536,-0.114873,0.0229557,0.188467,5,0.1,15,3.1,-0.197286,3.60118,0.93437,-0.186493,0.299212,-0.010249,-0.116958,0.102043,-0.117123,0.0102571,0.123,5,0.1,16,3.1,-1.54667,0.10861,1.33473,0.0720268,0.130174,0.0420466,-0.0971928,0.950082,-0.122696,0.00799033,1.56415,5,0.1,17,3.1,0.21352,0.131107,0.610322,0.0748499,0.308895,-0.00951728,-0.0271164,-0.013046,0.00660494,0.00936903,1.46306,5,0.1,18,3.1,-1.72065,-2.49663,0.606075,0.45853,0.0487328,-0.00596996,-0.29964,0.323862,0.00587851,0.00991853,0.245682,5,0.1,19,3.1,-2.38086,4.11235,1.26658,0.0304658,-0.0641473,0.0537053,0.0750273,0.132293,-0.091508,0.0164093,0.880956,5,0.1,20,3.1,-0.526269,0.185811,0.500149,0.62307,0.0879788,-0.000857934,-0.418238,-0.360922,0.00298768,0.00906547,0.267397,5,0.1,21,3.1,-4.65262,3.63512,1.0459,0.0111185,-0.420196,0.0296185,-0.0276864,-1.46008,-0.105448,0.0113785,2.02353,5,0.1,22,3.1,-0.209106,2.52376,0.500392,0.210931,-0.770404,0.000457373,0.122913,-0.718623,0.00370666,0.00847373,2.02407,5,0.1,23,3.1,-4.05145,3.90204,1.3228,0.00340044,-0.00156127,0.0650952,-0.00762939,-0.234619,-0.147723,0.0104044,1.65955,5,0.1,24,3.1,-3.49524,-1.85582,0.5,0.317564,0.482648,-3.81842e-06,-0.23517,0.838399,7.82311e-05,0.0103946,1.3723,5,0.1,25,3.1,-4.97323,-2.29805,0.678075,-0.740501,0.60572,-0.00206735,0.409335,-0.344664,-0.00272691,0.0084769,0.494135,5,0.1,26,3.1,-2.80901,4.19135,0.502532,-0.571955,-0.291794,-0.0173032,-0.980943,0.235349,0.0825524,0.0185526,1.58921,5,0.1,27,3.1,2.29746,-2.81728,0.631778,0.0539325,0.046932,0.00426862,-0.158012,-0.137478,-0.012517,0.0109354,0.000750506,5,0.1,28,3.1,-2.4034,3.90185,1.31261,0.0048466,-0.00286475,0.0535209,-0.00819564,-0.205725,-0.0912994,0.0110555,1.00064,5,0.1,29,3.1,2.11546,-3.77296,0.788401,-0.455904,0.019487,0.150731,1.14296,-0.0256896,0.381242,0.0312644,3.26685,5,0.1
0,3.2,2.06284,-1.69164,0.598774,-0.206238,0.769299,0.00111312,0.0306368,1.02085,-0.00143051,0.0093525,1.94333,5,0.1,1,3.2,4.30164,0.194166,0.500001,0.00538826,-0.101407,0,-0.0495911,0.18882,-2.98023e-05,0.0194769,1.20569,5,0.1,2,3.2,-0.099983,-2.13097,0.5,0.000425801,0.0664592,0,0.031475,-0.105619,0,0.00969342,0.250479,5,0.1,3,3.2,-3.10235,-2.52607,0.599381,-0.0106215,-0.0787437,0.0020355,0.0940561,0.192642,-0.00500679,0.0118563,2.78333,5,0.1,4,3.2,-1.40979,-3.59622,1.29484,0.0691146,-0.00363588,0.0526518,-0.435948,0.0038147,-0.0564456,0.00843695,0.882328,5,0.1,5,3.2,-3.43862,-4.80046,0.604362,0.152457,0.847363,-0.00416338,-0.193477,-0.219345,0.00447035,0.0130639,0.477748,5,0.1,6,3.2,4.42556,0.413282,0.611507,-0.157881,-0.12148,0.0133514,0.105381,0.204414,0.012368,0.0252488,0.135844,5,0.1,7,3.2,2.55569,-0.105661,0.597742,-0.866026,0.118219,0.0377655,0,-0.0280701,0.0106096,0.0216586,2.26349,5,0.1,8,3.2,0.9,4.6,1.31934,-0.16738,-0.0451326,0.0427037,-0.438601,-0.0431538,-0.0851154,0.00950916,2.11988,5,0.1,9,3.2,-0.727482,3.90551,0.923566,-0.000211596,0.00166893,0.341631,-0.0793934,-0.0177622,0.150621,0.011131,0.116505,5,0.1,10,3.2,1.9,-5.84996,0.594233,-0.135136,-4.76837e-05,0.00557452,0.0248551,0.000238419,-0.00607967,0.00842374,0.768622,5,0.1,11,3.2,-1.78163,4.47368,0.617343,0.866026,-0.45191,-0.00668168,-5.96046e-05,-0.182152,-0.0149012,0.00945149,2.08633,5,0.1,12,3.2,-3.79437,-4.13562,0.5969,0.158882,-0.292897,-0.00417531,0.00715256,-1.12653,-0.010252,0.00752499,1.34289,5,0.1,13,3.2,-0.437847,2.30388,0.58886,0.27818,0.0591338,0.0129446,-0.211492,-0.010848,-0.000566244,0.0110011,0.0328524,5,0.1,14,3.2,1.50293,1.54828,1.4414,-0.00501871,-0.13788,0.100467,0.00607967,0.0937581,-0.12058,0.0208365,0.183203,5,0.1,15,3.2,-0.21635,3.63145,0.932819,-0.193026,0.30421,-0.0201508,-0.0108778,-0.0107288,-0.0801384,0.0101478,0.0851303,5,0.1,16,3.2,-1.53995,0.126446,1.33836,0.0623912,0.225984,0.0310242,-0.0960231,0.918716,-0.0984073,0.00889402,1.42728,5,0.1,17,3.2,0.220849,0.161974,0.609404,0.0714868,0.308409,-0.00882894,-0.0417978,-0.0151849,0.00739098,0.0079618,1.40426,5,0.1,18,3.2,-1.67632,-2.49011,0.605506,0.427374,0.0813544,-0.00539422,-0.335157,0.311852,0.00578165,0.0117077,0.182956,5,0.1,19,3.2,-2.37745,4.10648,1.27152,0.037545,-0.0545025,0.0451952,0.0629425,0.0681877,-0.079751,0.0154889,0.818487,5,0.1,20,3.2,-0.466112,0.192908,0.500077,0.579109,0.0550933,-0.000569224,-0.475184,-0.293478,0.00274181,0.0100523,0.625399,5,0.1,21,3.2,-4.65164,3.58611,1.04837,0.00853539,-0.555593,0.0202179,-0.0238419,-1.19126,-0.0829101,0.0119501,1.56523,5,0.1,22,3.2,-0.187694,2.44342,0.500465,0.214472,-0.832337,0.00107288,-0.0474453,-0.472784,0.00780821,0.00706584,1.08687,5,0.1,23,3.2,-4.05115,3.9,1.3286,0.00269413,-0.0461638,0.0513852,-0.0064373,-0.639796,-0.127017,0.00966364,3.26905,5,0.1,24,3.2,-3.46467,-1.80353,0.5,0.293469,0.560239,0,-0.254393,0.667334,5.96046e-05,0.0104267,1.04781,5,0.1,25,3.2,-5.0451,-2.23929,0.677858,-0.695324,0.568169,-0.00225008,0.510454,-0.420332,-0.000864267,0.00908783,0.333874,5,0.1,26,3.2,-2.87081,4.16336,0.501179,-0.659853,-0.267529,-0.0101015,-0.72968,0.255585,0.0614524,0.0201651,1.19718,5,0.1,27,3.2,2.3021,-2.81324,0.632146,0.0393093,0.0342071,0.00311136,-0.13423,-0.116825,-0.0106692,0.0106069,0.000574829,5,0.1,28,3.2,-2.40296,3.9,1.31752,0.00407696,-0.0394344,0.0449508,-0.00727177,-0.511169,-0.0809431,0.0087466,1.82825,5,0.1,29,3.2,2.07559,-3.77113,0.805261,-0.342411,0.0170827,0.184923,1.09029,-0.0230074,0.288367,0.0316909,3.47518,5,0.1
0,3.3,2.04238,-1.61053,0.598879,-0.202791,0.843713,0.000989344,0.0451952,0.470221,-0.00109151,0.0093525,1.94333,5,0.1,1,3.3,4.30189,0.184935,0.500001,-0.00303388,-0.083546,-1.86265e-06,-0.197828,0.168871,-1.49012e-05,0.0194769,1.20569,5,0.1,2,3.3,-0.0998187,-2.12478,0.5,0.00252661,0.0578374,0,0.0114692,-0.0706017,0,0.00969342,0.250479,5,0.1,3,3.3,-3.10288,-2.53303,0.599561,0.00396185,-0.0609532,0.00157366,0.316873,0.163555,-0.00424311,0.0118563,2.78333,5,0.1,4,3.3,-1.40493,-3.59656,1.29984,0.0300936,-0.00329278,0.0475995,-0.317156,0.00317395,-0.0463277,0.00843695,0.882328,5,0.1,5,3.3,-3.42412,-4.71682,0.603966,0.139288,0.824986,-0.00376329,-0.083819,-0.255883,0.00367314,0.0130639,0.477748,5,0.1,6,3.3,4.41023,0.402084,0.612897,-0.149117,-0.103106,0.0143682,0.0772178,0.166442,0.00751391,0.0252488,0.135844,5,0.1,7,3.3,2.46909,-0.0939256,0.60151,-0.866026,0.116852,0.0370337,0,-0.00654999,-0.0231937,0.0216586,2.26349,5,0.1,8,3.3,0.879971,4.59511,1.32322,-0.241902,-0.0539988,0.0350993,-0.962492,-0.120759,-0.0680387,0.00950916,2.11988,5,0.1,9,3.3,-0.727879,3.90559,0.958515,-0.0074734,-7.33882e-05,0.357142,-0.0647642,-0.0166744,0.139106,0.011131,0.116505,5,0.1,10,3.3,1.88575,-5.84996,0.594763,-0.157032,-2.75671e-05,0.00502933,-0.403695,0.000149012,-0.00500679,0.00842374,0.768622,5,0.1,11,3.3,-1.69503,4.42747,0.616603,0.866017,-0.472756,-0.00807978,-0.000312924,-0.203997,-0.0125021,0.00945149,2.08633,5,0.1,12,3.3,-3.77843,-4.17077,0.596433,0.160124,-0.410774,-0.00514872,0.00956655,-1.17075,-0.00882149,0.00752499,1.34289,5,0.1,13,3.3,-0.410943,2.30975,0.590142,0.26094,0.0582315,0.0125925,-0.147587,-0.00989437,-0.00635907,0.0110011,0.0328524,5,0.1,14,3.3,1.50245,1.53514,1.45087,-0.00443496,-0.123331,0.0888683,0.00566244,0.188604,-0.112787,0.0208365,0.183203,5,0.1,15,3.3,-0.235404,3.66175,0.930443,-0.185298,0.301061,-0.0269325,0.154506,-0.0602603,-0.0547878,0.0101478,0.0851303,5,0.1,16,3.3,-1.53417,0.152803,1.34101,0.0533629,0.293442,0.0223124,-0.0853539,0.454595,-0.0764653,0.00889402,1.42728,5,0.1,17,3.3,0.227796,0.192303,0.608556,0.0674892,0.294451,-0.00814907,-0.0402313,-0.238933,0.0064671,0.0079618,1.40426,5,0.1,18,3.3,-1.63515,-2.48036,0.604994,0.396871,0.113922,-0.00487231,-0.288844,0.322938,0.00482053,0.0117077,0.182956,5,0.1,19,3.3,-2.3734,4.10102,1.27568,0.0432491,-0.0574477,0.0385739,0.048846,-0.105292,-0.0550151,0.0154889,0.818487,5,0.1,20,3.3,-0.41044,0.197025,0.500033,0.535255,0.0281692,-0.000323914,-0.419183,-0.237566,0.00213087,0.0100523,0.625399,5,0.1,21,3.3,-4.6509,3.52457,1.05001,0.0063464,-0.673839,0.0128895,-0.0199676,-1.11377,-0.0639707,0.0119501,1.56523,5,0.1,22,3.3,-0.166073,2.36018,0.500587,0.221198,-0.811257,0.00115829,0.148688,0.79231,-0.00471249,0.00706584,1.08687,5,0.1,23,3.3,-4.05091,3.89063,1.33314,0.0021033,-0.153697,0.0397736,-0.00539422,-1.3915,-0.105701,0.00966364,3.26905,5,0.1,24,3.3,-3.43652,-1.74407,0.5,0.270251,0.628768,3.72529e-06,-0.219092,0.654109,1.49012e-05,0.0104267,1.04781,5,0.1,25,3.3,-5.11221,-2.18471,0.67763,-0.647493,0.522092,-0.00229264,0.466228,-0.500903,4.09782e-05,0.00908783,0.333874,5,0.1,26,3.3,-2.94048,4.13782,0.50044,-0.732737,-0.243809,-0.00502784,-0.676796,0.225991,0.0405163,0.0201651,1.19718,5,0.1,27,3.3,2.30539,-2.81037,0.632406,0.026986,0.0234831,0.00213245,-0.111938,-0.0974089,-0.00888482,0.0106069,0.000574829,5,0.1,28,3.3,-2.40258,3.89237,1.32164,0.00341907,-0.122339,0.0376323,-0.00599027,-1.05816,-0.0664517,0.0087466,1.82825,5,0.1,29,3.3,2.04678,-3.76953,0.825209,-0.236089,0.0150915,0.213741,0.966132,-0.0175089,0.270937,0.0316909,3.47518,5,0.1
